»»»»»»»»»»»»»»»»»»»»»»»»»»»»»»»»»»»» Hysteresis ««««««««««««««««««««««««««««««««««««
»»»  Executed Version:	5.48.1
»»»  Vision Version:	5.48.4 (R)
»»»  Vision Compiled:	9/18/24
»»»  Driver Version:	5.47.0
»»»  Windows Version:	Windows 8 or 8.1
»»»  Processor Information:	x86 (AMD or Intel) - 32 Processors
»»»  Tester Name:	PMF21124-494 (100V)
»»»  Tester S/N:	PMF21124-494
»»»  Internal Amp Type:	100V RevK 270k
»»»  Internal Amp S/N:	iAB2-596/K     
»»»  Execution Count:	1
»»»»»»»»»»»»»»»»»»»»»»»»»»»»»»»»»»»»»»»»»»««««««««««««««««««««««««««««««««««««««««««

Stored:	6/18/2025 - 18:50:58
Configured:	06/18/25 09:47:30 AM
Executed:	06/18/25 06:50:26 PM

»»»»»»»»»»»»»»»»»»»»»»»»»»»»»»»»»»» Sample Info ««««««««««««««««««««««««««««««««««««
Sample Name:	
Lot Name:	
Wafer Name:	
Die Row/Column:	0/0
Capacitor Number:	0
Sample Area (cm2):	1.00e-04
Sample Thickness (microns):	3.00e-01

Amplifier:	Internal

»»»»»»»»»»»»»»»»»»»»»»»»»»»»»»»»»»» Tester Info «««««««««««««««««««««««««««««««««««
Tester Name:	PMF21124-494 (100V)
Tester Serial Number:	PMF21124-494
Return Signal Amp. Level:	0.19 [Index: 3]

»»»»»»»»»»»»»»»»»»»»»»»»»»»»»»»» Hysteresis Info ««««««««««««««««««««««««««««««««««
Task Name:	Hyst-554
Volts:	20.00
Field:	666.67 (kV/cm)
DCBias:	0.00
DCField:	0.00 (kV/cm)
Hysteresis Period (ms):	2.00e+02
Preset:	Enabled
Preset Delay (ms):	1.00e+03
Profile:	Standard Bipolar

»»»»»»»»»»»»»»»»»»»»»»»»»»»»»»»»»»»»»» Data «««««««««««««««««««««««««««««««««««««««
Points:	2009

Valid Data

Point	Time (ms)	Drive Voltage	Measured Polarization (uC/cm2)	Capacitance (uF)	Normalized Capacitance (uF/cm2)	Dielectric Constant	Instantaneous Current (mA)
   1	0.0000e+00	0.0080	-2.248685	0.000253	2.534831	0.858824	0.000101
   2	9.9500e-02	0.0417	-2.147756	0.000253	2.534831	0.858824	0.000101
   3	1.9900e-01	0.0802	-2.034716	0.000284	2.839011	0.961883	0.000114
   4	2.9850e-01	0.1251	-2.006456	0.000071	0.709753	0.240471	0.000028
   5	3.9800e-01	0.1588	-1.877268	0.000324	3.244584	1.099295	0.000130
   6	4.9750e-01	0.1941	-1.723857	0.000385	3.852944	1.305413	0.000154
   7	5.9700e-01	0.2326	-1.614854	0.000274	2.737618	0.927530	0.000110
   8	6.9650e-01	0.2679	-1.489703	0.000314	3.143191	1.064942	0.000126
   9	7.9600e-01	0.3144	-1.412998	0.000193	1.926472	0.652706	0.000077
  10	8.9550e-01	0.3561	-1.308032	0.000264	2.636225	0.893177	0.000105
  11	9.9500e-01	0.3946	-1.199029	0.000274	2.737618	0.927530	0.000110
  12	1.0945e+00	0.4283	-1.158658	0.000101	1.013933	0.343530	0.000041
  13	1.1940e+00	0.4781	-1.033507	0.000314	3.143191	1.064942	0.000126
  14	1.2935e+00	0.5182	-0.920467	0.000284	2.839011	0.961883	0.000114
  15	1.3930e+00	0.5551	-0.847799	0.000183	1.825079	0.618353	0.000073
  16	1.4925e+00	0.5936	-0.799353	0.000122	1.216719	0.412236	0.000049
  17	1.5920e+00	0.6369	-0.666127	0.000335	3.345977	1.133648	0.000134
  18	1.6915e+00	0.6802	-0.593459	0.000183	1.825079	0.618353	0.000073
  19	1.7910e+00	0.7155	-0.492531	0.000253	2.534831	0.858824	0.000101
  20	1.8905e+00	0.7620	-0.391602	0.000253	2.534831	0.858824	0.000101
  21	1.9900e+00	0.7877	-0.266451	0.000314	3.143191	1.064942	0.000126
  22	2.0895e+00	0.8294	-0.157448	0.000274	2.737618	0.927530	0.000110
  23	2.1890e+00	0.8743	-0.036334	0.000304	3.041798	1.030589	0.000122
  24	2.2885e+00	0.9112	0.092854	0.000324	3.244584	1.099295	0.000130
  25	2.3880e+00	0.9497	0.213968	0.000304	3.041798	1.030589	0.000122
  26	2.4875e+00	0.9882	0.298748	0.000213	2.129258	0.721412	0.000085
  27	2.5870e+00	1.0395	0.419862	0.000304	3.041798	1.030589	0.000122
  28	2.6865e+00	1.0716	0.540976	0.000304	3.041798	1.030589	0.000122
  29	2.7860e+00	1.1101	0.605570	0.000162	1.622292	0.549647	0.000065
  30	2.8855e+00	1.1567	0.714573	0.000274	2.737618	0.927530	0.000110
  31	2.9850e+00	1.1903	0.807427	0.000233	2.332045	0.790118	0.000093
  32	3.0845e+00	1.2321	0.916430	0.000274	2.737618	0.927530	0.000110
  33	3.1840e+00	1.2770	1.001210	0.000213	2.129258	0.721412	0.000085
  34	3.2835e+00	1.3074	1.037544	0.000091	0.912539	0.309177	0.000037
  35	3.3830e+00	1.3604	1.166732	0.000324	3.244584	1.099295	0.000130
  36	3.4825e+00	1.3989	1.263623	0.000243	2.433438	0.824471	0.000097
  37	3.5820e+00	1.4262	1.332255	0.000172	1.723685	0.584000	0.000069
  38	3.6815e+00	1.4823	1.485666	0.000385	3.852944	1.305413	0.000154
  39	3.7810e+00	1.5112	1.586594	0.000253	2.534831	0.858824	0.000101
  40	3.8805e+00	1.5433	1.667337	0.000203	2.027865	0.687059	0.000081
  41	3.9800e+00	1.5850	1.784414	0.000294	2.940404	0.996236	0.000118
  42	4.0795e+00	1.6363	1.921677	0.000345	3.447371	1.168001	0.000138
  43	4.1790e+00	1.6748	2.083162	0.000406	4.055730	1.374119	0.000162
  44	4.2785e+00	1.7021	2.163905	0.000203	2.027865	0.687059	0.000081
  45	4.3780e+00	1.7470	2.264833	0.000253	2.534831	0.858824	0.000101
  46	4.4775e+00	1.7919	2.394021	0.000324	3.244584	1.099295	0.000130
  47	4.5770e+00	1.8272	2.466690	0.000183	1.825079	0.618353	0.000073
  48	4.6765e+00	1.8689	2.571655	0.000264	2.636225	0.893177	0.000105
  49	4.7760e+00	1.9042	2.676621	0.000264	2.636225	0.893177	0.000105
  50	4.8755e+00	1.9427	2.745252	0.000172	1.723685	0.584000	0.000069
  51	4.9750e+00	1.9812	2.878478	0.000335	3.345977	1.133648	0.000134
  52	5.0745e+00	2.0310	2.918849	0.000101	1.013933	0.343530	0.000041
  53	5.1740e+00	2.0711	3.044000	0.000314	3.143191	1.064942	0.000126
  54	5.2735e+00	2.1080	3.124743	0.000203	2.027865	0.687059	0.000081
  55	5.3730e+00	2.1449	3.209523	0.000213	2.129258	0.721412	0.000085
  56	5.4725e+00	2.1866	3.334674	0.000314	3.143191	1.064942	0.000126
  57	5.5720e+00	2.2283	3.459825	0.000314	3.143191	1.064942	0.000126
  58	5.6715e+00	2.2700	3.584977	0.000314	3.143191	1.064942	0.000126
  59	5.7710e+00	2.3101	3.677831	0.000233	2.332045	0.790118	0.000093
  60	5.8705e+00	2.3486	3.802982	0.000314	3.143191	1.064942	0.000126
  61	5.9700e+00	2.3871	3.899873	0.000243	2.433438	0.824471	0.000097
  62	6.0695e+00	2.4224	4.000802	0.000253	2.534831	0.858824	0.000101
  63	6.1690e+00	2.4657	4.113841	0.000284	2.839011	0.961883	0.000114
  64	6.2685e+00	2.5154	4.214770	0.000253	2.534831	0.858824	0.000101
  65	6.3680e+00	2.5523	4.319735	0.000264	2.636225	0.893177	0.000105
  66	6.4675e+00	2.5844	4.412589	0.000233	2.332045	0.790118	0.000093
  67	6.5670e+00	2.6213	4.533703	0.000304	3.041798	1.030589	0.000122
  68	6.6665e+00	2.6630	4.642706	0.000274	2.737618	0.927530	0.000110
  69	6.7660e+00	2.7095	4.735560	0.000233	2.332045	0.790118	0.000093
  70	6.8655e+00	2.7497	4.784006	0.000122	1.216719	0.412236	0.000049
  71	6.9650e+00	2.7833	4.880897	0.000243	2.433438	0.824471	0.000097
  72	7.0645e+00	2.8218	5.026234	0.000365	3.650157	1.236707	0.000146
  73	7.1640e+00	2.8620	5.086791	0.000152	1.520899	0.515294	0.000061
  74	7.2635e+00	2.9085	5.191757	0.000264	2.636225	0.893177	0.000105
  75	7.3630e+00	2.9422	5.300759	0.000274	2.737618	0.927530	0.000110
  76	7.4625e+00	2.9823	5.433985	0.000335	3.345977	1.133648	0.000134
  77	7.5620e+00	3.0192	5.555099	0.000304	3.041798	1.030589	0.000122
  78	7.6615e+00	3.0609	5.668139	0.000284	2.839011	0.961883	0.000114
  79	7.7610e+00	3.1058	5.760993	0.000233	2.332045	0.790118	0.000093
  80	7.8605e+00	3.1475	5.865958	0.000264	2.636225	0.893177	0.000105
  81	7.9600e+00	3.1748	5.974961	0.000274	2.737618	0.927530	0.000110
  82	8.0595e+00	3.2341	6.079926	0.000264	2.636225	0.893177	0.000105
  83	8.1590e+00	3.2598	6.205078	0.000314	3.143191	1.064942	0.000126
  84	8.2585e+00	3.3047	6.301969	0.000243	2.433438	0.824471	0.000097
  85	8.3580e+00	3.3400	6.374637	0.000183	1.825079	0.618353	0.000073
  86	8.4575e+00	3.3785	6.483640	0.000274	2.737618	0.927530	0.000110
  87	8.5570e+00	3.4186	6.576494	0.000233	2.332045	0.790118	0.000093
  88	8.6565e+00	3.4635	6.657237	0.000203	2.027865	0.687059	0.000081
  89	8.7560e+00	3.5036	6.786425	0.000324	3.244584	1.099295	0.000130
  90	8.8555e+00	3.5405	6.846982	0.000152	1.520899	0.515294	0.000061
  91	8.9550e+00	3.5871	6.992319	0.000365	3.650157	1.236707	0.000146
  92	9.0545e+00	3.6224	7.081136	0.000223	2.230652	0.755765	0.000089
  93	9.1540e+00	3.6625	7.206287	0.000314	3.143191	1.064942	0.000126
  94	9.2535e+00	3.7026	7.319327	0.000284	2.839011	0.961883	0.000114
  95	9.3530e+00	3.7427	7.492924	0.000436	4.359910	1.477177	0.000174
  96	9.4525e+00	3.7780	7.561555	0.000172	1.723685	0.584000	0.000069
  97	9.5520e+00	3.8149	7.706892	0.000365	3.650157	1.236707	0.000146
  98	9.6515e+00	3.8518	7.795709	0.000223	2.230652	0.755765	0.000089
  99	9.7510e+00	3.9111	7.916823	0.000304	3.041798	1.030589	0.000122
 100	9.8505e+00	3.9352	7.965269	0.000122	1.216719	0.412236	0.000049
 101	9.9500e+00	3.9833	8.118680	0.000385	3.852944	1.305413	0.000154
 102	1.0050e+01	4.0122	8.203460	0.000213	2.129258	0.721412	0.000085
 103	1.0149e+01	4.0683	8.296314	0.000233	2.332045	0.790118	0.000093
 104	1.0248e+01	4.1052	8.393205	0.000243	2.433438	0.824471	0.000097
 105	1.0348e+01	4.1437	8.506245	0.000284	2.839011	0.961883	0.000114
 106	1.0447e+01	4.1774	8.599099	0.000233	2.332045	0.790118	0.000093
 107	1.0547e+01	4.2223	8.712139	0.000284	2.839011	0.961883	0.000114
 108	1.0646e+01	4.2641	8.788845	0.000193	1.926472	0.652706	0.000077
 109	1.0746e+01	4.2977	8.909959	0.000304	3.041798	1.030589	0.000122
 110	1.0845e+01	4.3362	9.018961	0.000274	2.737618	0.927530	0.000110
 111	1.0945e+01	4.3780	9.119890	0.000253	2.534831	0.858824	0.000101
 112	1.1044e+01	4.4116	9.241004	0.000304	3.041798	1.030589	0.000122
 113	1.1144e+01	4.4614	9.418638	0.000446	4.461303	1.511530	0.000179
 114	1.1243e+01	4.5063	9.543789	0.000314	3.143191	1.064942	0.000126
 115	1.1343e+01	4.5368	9.620494	0.000193	1.926472	0.652706	0.000077
 116	1.1443e+01	4.5817	9.749683	0.000324	3.244584	1.099295	0.000130
 117	1.1542e+01	4.6122	9.850611	0.000253	2.534831	0.858824	0.000101
 118	1.1642e+01	4.6571	9.967688	0.000294	2.940404	0.996236	0.000118
 119	1.1741e+01	4.6956	10.088802	0.000304	3.041798	1.030589	0.000122
 120	1.1841e+01	4.7485	10.185693	0.000243	2.433438	0.824471	0.000097
 121	1.1940e+01	4.7774	10.282585	0.000243	2.433438	0.824471	0.000097
 122	1.2040e+01	4.8207	10.375439	0.000233	2.332045	0.790118	0.000093
 123	1.2139e+01	4.8624	10.468293	0.000233	2.332045	0.790118	0.000093
 124	1.2239e+01	4.9025	10.569221	0.000253	2.534831	0.858824	0.000101
 125	1.2338e+01	4.9410	10.706484	0.000345	3.447371	1.168001	0.000138
 126	1.2438e+01	4.9811	10.783190	0.000193	1.926472	0.652706	0.000077
 127	1.2537e+01	5.0196	10.924489	0.000355	3.548764	1.202354	0.000142
 128	1.2636e+01	5.0598	11.037529	0.000284	2.839011	0.961883	0.000114
 129	1.2736e+01	5.0950	11.134420	0.000243	2.433438	0.824471	0.000097
 130	1.2835e+01	5.1335	11.263609	0.000324	3.244584	1.099295	0.000130
 131	1.2935e+01	5.1720	11.392797	0.000324	3.244584	1.099295	0.000130
 132	1.3034e+01	5.2186	11.501800	0.000274	2.737618	0.927530	0.000110
 133	1.3134e+01	5.2715	11.618877	0.000294	2.940404	0.996236	0.000118
 134	1.3233e+01	5.3004	11.792473	0.000436	4.359910	1.477177	0.000174
 135	1.3333e+01	5.3309	11.848993	0.000142	1.419506	0.480942	0.000057
 136	1.3432e+01	5.3822	11.966070	0.000294	2.940404	0.996236	0.000118
 137	1.3532e+01	5.4111	12.115444	0.000375	3.751550	1.271060	0.000150
 138	1.3632e+01	5.4544	12.208298	0.000233	2.332045	0.790118	0.000093
 139	1.3731e+01	5.4977	12.297115	0.000223	2.230652	0.755765	0.000089
 140	1.3831e+01	5.5410	12.394007	0.000243	2.433438	0.824471	0.000097
 141	1.3930e+01	5.5699	12.515121	0.000304	3.041798	1.030589	0.000122
 142	1.4030e+01	5.6180	12.599901	0.000213	2.129258	0.721412	0.000085
 143	1.4129e+01	5.6597	12.680643	0.000203	2.027865	0.687059	0.000081
 144	1.4229e+01	5.6934	12.834055	0.000385	3.852944	1.305413	0.000154
 145	1.4328e+01	5.7351	12.951131	0.000294	2.940404	0.996236	0.000118
 146	1.4428e+01	5.7801	13.052060	0.000253	2.534831	0.858824	0.000101
 147	1.4527e+01	5.8202	13.197397	0.000365	3.650157	1.236707	0.000146
 148	1.4627e+01	5.8651	13.314474	0.000294	2.940404	0.996236	0.000118
 149	1.4726e+01	5.8875	13.455773	0.000355	3.548764	1.202354	0.000142
 150	1.4825e+01	5.9341	13.584962	0.000324	3.244584	1.099295	0.000130
 151	1.4925e+01	5.9838	13.702039	0.000294	2.940404	0.996236	0.000118
 152	1.5024e+01	6.0159	13.807004	0.000264	2.636225	0.893177	0.000105
 153	1.5124e+01	6.0544	13.895821	0.000223	2.230652	0.755765	0.000089
 154	1.5223e+01	6.0865	14.069418	0.000436	4.359910	1.477177	0.000174
 155	1.5323e+01	6.1298	14.154198	0.000213	2.129258	0.721412	0.000085
 156	1.5422e+01	6.1635	14.259163	0.000264	2.636225	0.893177	0.000105
 157	1.5522e+01	6.2148	14.396426	0.000345	3.447371	1.168001	0.000138
 158	1.5621e+01	6.2565	14.473132	0.000193	1.926472	0.652706	0.000077
 159	1.5721e+01	6.2854	14.578097	0.000264	2.636225	0.893177	0.000105
 160	1.5820e+01	6.3351	14.695174	0.000294	2.940404	0.996236	0.000118
 161	1.5920e+01	6.3720	14.763805	0.000172	1.723685	0.584000	0.000069
 162	1.6020e+01	6.4137	14.868771	0.000264	2.636225	0.893177	0.000105
 163	1.6119e+01	6.4458	14.989885	0.000304	3.041798	1.030589	0.000122
 164	1.6218e+01	6.4955	15.086776	0.000243	2.433438	0.824471	0.000097
 165	1.6318e+01	6.5308	15.272484	0.000466	4.664090	1.580236	0.000187
 166	1.6418e+01	6.5693	15.413784	0.000355	3.548764	1.202354	0.000142
 167	1.6517e+01	6.6191	15.490490	0.000193	1.926472	0.652706	0.000077
 168	1.6616e+01	6.6479	15.643901	0.000385	3.852944	1.305413	0.000154
 169	1.6716e+01	6.6832	15.756941	0.000284	2.839011	0.961883	0.000114
 170	1.6816e+01	6.7298	15.882092	0.000314	3.143191	1.064942	0.000126
 171	1.6915e+01	6.7683	15.970909	0.000223	2.230652	0.755765	0.000089
 172	1.7015e+01	6.8100	16.100097	0.000324	3.244584	1.099295	0.000130
 173	1.7114e+01	6.8469	16.217174	0.000294	2.940404	0.996236	0.000118
 174	1.7213e+01	6.8902	16.350400	0.000335	3.345977	1.133648	0.000134
 175	1.7313e+01	6.9271	16.431142	0.000203	2.027865	0.687059	0.000081
 176	1.7413e+01	6.9624	16.528034	0.000243	2.433438	0.824471	0.000097
 177	1.7512e+01	7.0057	16.608776	0.000203	2.027865	0.687059	0.000081
 178	1.7611e+01	7.0442	16.685482	0.000193	1.926472	0.652706	0.000077
 179	1.7711e+01	7.0955	16.846967	0.000406	4.055730	1.374119	0.000162
 180	1.7811e+01	7.1260	16.939822	0.000233	2.332045	0.790118	0.000093
 181	1.7910e+01	7.1629	17.085158	0.000365	3.650157	1.236707	0.000146
 182	1.8009e+01	7.2062	17.165901	0.000203	2.027865	0.687059	0.000081
 183	1.8109e+01	7.2479	17.335461	0.000426	4.258517	1.442825	0.000170
 184	1.8209e+01	7.2752	17.452538	0.000294	2.940404	0.996236	0.000118
 185	1.8308e+01	7.3265	17.573652	0.000304	3.041798	1.030589	0.000122
 186	1.8407e+01	7.3602	17.686692	0.000284	2.839011	0.961883	0.000114
 187	1.8507e+01	7.3971	17.823954	0.000345	3.447371	1.168001	0.000138
 188	1.8607e+01	7.4452	17.932957	0.000274	2.737618	0.927530	0.000110
 189	1.8706e+01	7.4886	18.074257	0.000355	3.548764	1.202354	0.000142
 190	1.8805e+01	7.5303	18.150962	0.000193	1.926472	0.652706	0.000077
 191	1.8905e+01	7.5624	18.292262	0.000355	3.548764	1.202354	0.000142
 192	1.9005e+01	7.6041	18.405302	0.000284	2.839011	0.961883	0.000114
 193	1.9104e+01	7.6474	18.506230	0.000253	2.534831	0.858824	0.000101
 194	1.9203e+01	7.6923	18.595047	0.000223	2.230652	0.755765	0.000089
 195	1.9303e+01	7.7340	18.700013	0.000264	2.636225	0.893177	0.000105
 196	1.9402e+01	7.7661	18.780755	0.000203	2.027865	0.687059	0.000081
 197	1.9502e+01	7.8094	18.881684	0.000253	2.534831	0.858824	0.000101
 198	1.9602e+01	7.8367	18.998761	0.000294	2.940404	0.996236	0.000118
 199	1.9701e+01	7.8928	19.107763	0.000274	2.737618	0.927530	0.000110
 200	1.9800e+01	7.9265	19.188506	0.000203	2.027865	0.687059	0.000081
 201	1.9900e+01	7.9650	19.337880	0.000375	3.751550	1.271060	0.000150
 202	2.0000e+01	8.0083	19.458994	0.000304	3.041798	1.030589	0.000122
 203	2.0099e+01	8.0516	19.576071	0.000294	2.940404	0.996236	0.000118
 204	2.0198e+01	8.0821	19.705260	0.000324	3.244584	1.099295	0.000130
 205	2.0298e+01	8.1303	19.830411	0.000314	3.143191	1.064942	0.000126
 206	2.0398e+01	8.1591	19.951525	0.000304	3.041798	1.030589	0.000122
 207	2.0497e+01	8.2024	20.048416	0.000243	2.433438	0.824471	0.000097
 208	2.0596e+01	8.2442	20.165493	0.000294	2.940404	0.996236	0.000118
 209	2.0696e+01	8.2778	20.286607	0.000304	3.041798	1.030589	0.000122
 210	2.0796e+01	8.3308	20.363313	0.000193	1.926472	0.652706	0.000077
 211	2.0895e+01	8.3548	20.456167	0.000233	2.332045	0.790118	0.000093
 212	2.0994e+01	8.4078	20.609578	0.000385	3.852944	1.305413	0.000154
 213	2.1094e+01	8.4447	20.702432	0.000233	2.332045	0.790118	0.000093
 214	2.1194e+01	8.4832	20.771063	0.000172	1.723685	0.584000	0.000069
 215	2.1293e+01	8.5201	20.908326	0.000345	3.447371	1.168001	0.000138
 216	2.1392e+01	8.5634	21.021366	0.000284	2.839011	0.961883	0.000114
 217	2.1492e+01	8.5987	21.130368	0.000274	2.737618	0.927530	0.000110
 218	2.1591e+01	8.6452	21.170740	0.000101	1.013933	0.343530	0.000041
 219	2.1691e+01	8.6757	21.332225	0.000406	4.055730	1.374119	0.000162
 220	2.1791e+01	8.7254	21.453339	0.000304	3.041798	1.030589	0.000122
 221	2.1890e+01	8.7623	21.610788	0.000395	3.954337	1.339766	0.000158
 222	2.1989e+01	8.8008	21.711716	0.000253	2.534831	0.858824	0.000101
 223	2.2089e+01	8.8441	21.828793	0.000294	2.940404	0.996236	0.000118
 224	2.2189e+01	8.8874	21.970093	0.000355	3.548764	1.202354	0.000142
 225	2.2288e+01	8.9131	22.054873	0.000213	2.129258	0.721412	0.000085
 226	2.2387e+01	8.9645	22.163875	0.000274	2.737618	0.927530	0.000110
 227	2.2487e+01	8.9981	22.276915	0.000284	2.839011	0.961883	0.000114
 228	2.2587e+01	9.0511	22.398029	0.000304	3.041798	1.030589	0.000122
 229	2.2686e+01	9.0864	22.494920	0.000243	2.433438	0.824471	0.000097
 230	2.2785e+01	9.1217	22.599886	0.000264	2.636225	0.893177	0.000105
 231	2.2885e+01	9.1634	22.708889	0.000274	2.737618	0.927530	0.000110
 232	2.2985e+01	9.2067	22.785594	0.000193	1.926472	0.652706	0.000077
 233	2.3084e+01	9.2404	22.846151	0.000152	1.520899	0.515294	0.000061
 234	2.3183e+01	9.2821	22.983414	0.000345	3.447371	1.168001	0.000138
 235	2.3283e+01	9.3174	23.128751	0.000365	3.650157	1.236707	0.000146
 236	2.3383e+01	9.3559	23.193345	0.000162	1.622292	0.549647	0.000065
 237	2.3482e+01	9.3960	23.302347	0.000274	2.737618	0.927530	0.000110
 238	2.3581e+01	9.4361	23.411350	0.000274	2.737618	0.927530	0.000110
 239	2.3681e+01	9.4826	23.560724	0.000375	3.751550	1.271060	0.000150
 240	2.3780e+01	9.5227	23.669727	0.000274	2.737618	0.927530	0.000110
 241	2.3880e+01	9.5596	23.774692	0.000264	2.636225	0.893177	0.000105
 242	2.3980e+01	9.5965	23.924066	0.000375	3.751550	1.271060	0.000150
 243	2.4079e+01	9.6366	23.976549	0.000132	1.318112	0.446589	0.000053
 244	2.4178e+01	9.6783	24.133997	0.000395	3.954337	1.339766	0.000158
 245	2.4278e+01	9.7249	24.198592	0.000162	1.622292	0.549647	0.000065
 246	2.4378e+01	9.7650	24.339891	0.000355	3.548764	1.202354	0.000142
 247	2.4477e+01	9.7970	24.461005	0.000304	3.041798	1.030589	0.000122
 248	2.4576e+01	9.8323	24.553860	0.000233	2.332045	0.790118	0.000093
 249	2.4676e+01	9.8789	24.662862	0.000274	2.737618	0.927530	0.000110
 250	2.4776e+01	9.9158	24.759753	0.000243	2.433438	0.824471	0.000097
 251	2.4875e+01	9.9511	24.812236	0.000132	1.318112	0.446589	0.000053
 252	2.4974e+01	9.9960	24.949499	0.000345	3.447371	1.168001	0.000138
 253	2.5074e+01	10.0425	25.046390	0.000243	2.433438	0.824471	0.000097
 254	2.5174e+01	10.0874	25.167504	0.000304	3.041798	1.030589	0.000122
 255	2.5273e+01	10.1147	25.248247	0.000203	2.027865	0.687059	0.000081
 256	2.5372e+01	10.1612	25.385510	0.000345	3.447371	1.168001	0.000138
 257	2.5472e+01	10.1869	25.542958	0.000395	3.954337	1.339766	0.000158
 258	2.5572e+01	10.2366	25.660035	0.000294	2.940404	0.996236	0.000118
 259	2.5671e+01	10.2735	25.769037	0.000274	2.737618	0.927530	0.000110
 260	2.5770e+01	10.3152	25.890151	0.000304	3.041798	1.030589	0.000122
 261	2.5870e+01	10.3521	26.015303	0.000314	3.143191	1.064942	0.000126
 262	2.5970e+01	10.3938	26.112194	0.000243	2.433438	0.824471	0.000097
 263	2.6069e+01	10.4275	26.209085	0.000243	2.433438	0.824471	0.000097
 264	2.6169e+01	10.4692	26.326162	0.000294	2.940404	0.996236	0.000118
 265	2.6268e+01	10.5157	26.439202	0.000284	2.839011	0.961883	0.000114
 266	2.6367e+01	10.5510	26.511870	0.000183	1.825079	0.618353	0.000073
 267	2.6467e+01	10.6008	26.620873	0.000274	2.737618	0.927530	0.000110
 268	2.6567e+01	10.6393	26.705653	0.000213	2.129258	0.721412	0.000085
 269	2.6666e+01	10.6698	26.806581	0.000253	2.534831	0.858824	0.000101
 270	2.6765e+01	10.7195	26.927695	0.000304	3.041798	1.030589	0.000122
 271	2.6865e+01	10.7516	27.032661	0.000264	2.636225	0.893177	0.000105
 272	2.6965e+01	10.7949	27.157812	0.000314	3.143191	1.064942	0.000126
 273	2.7064e+01	10.8366	27.250666	0.000233	2.332045	0.790118	0.000093
 274	2.7163e+01	10.8719	27.391966	0.000355	3.548764	1.202354	0.000142
 275	2.7263e+01	10.9136	27.492894	0.000253	2.534831	0.858824	0.000101
 276	2.7363e+01	10.9537	27.622083	0.000324	3.244584	1.099295	0.000130
 277	2.7462e+01	10.9970	27.763382	0.000355	3.548764	1.202354	0.000142
 278	2.7561e+01	11.0403	27.888534	0.000314	3.143191	1.064942	0.000126
 279	2.7661e+01	11.0756	28.005611	0.000294	2.940404	0.996236	0.000118
 280	2.7761e+01	11.1141	28.090390	0.000213	2.129258	0.721412	0.000085
 281	2.7860e+01	11.1446	28.207467	0.000294	2.940404	0.996236	0.000118
 282	2.7959e+01	11.1975	28.316470	0.000274	2.737618	0.927530	0.000110
 283	2.8059e+01	11.2296	28.437584	0.000304	3.041798	1.030589	0.000122
 284	2.8159e+01	11.2729	28.534475	0.000243	2.433438	0.824471	0.000097
 285	2.8258e+01	11.3211	28.651552	0.000294	2.940404	0.996236	0.000118
 286	2.8358e+01	11.3532	28.764592	0.000284	2.839011	0.961883	0.000114
 287	2.8457e+01	11.3965	28.833223	0.000172	1.723685	0.584000	0.000069
 288	2.8556e+01	11.4253	28.922040	0.000223	2.230652	0.755765	0.000089
 289	2.8656e+01	11.4703	29.047192	0.000314	3.143191	1.064942	0.000126
 290	2.8756e+01	11.5104	29.152157	0.000264	2.636225	0.893177	0.000105
 291	2.8855e+01	11.5537	29.277308	0.000314	3.143191	1.064942	0.000126
 292	2.8954e+01	11.5858	29.386311	0.000274	2.737618	0.927530	0.000110
 293	2.9054e+01	11.6227	29.511462	0.000314	3.143191	1.064942	0.000126
 294	2.9154e+01	11.6820	29.656799	0.000365	3.650157	1.236707	0.000146
 295	2.9253e+01	11.7205	29.794062	0.000345	3.447371	1.168001	0.000138
 296	2.9352e+01	11.7462	29.882879	0.000223	2.230652	0.755765	0.000089
 297	2.9452e+01	11.8007	30.012067	0.000324	3.244584	1.099295	0.000130
 298	2.9552e+01	11.8264	30.141255	0.000324	3.244584	1.099295	0.000130
 299	2.9651e+01	11.8681	30.254295	0.000284	2.839011	0.961883	0.000114
 300	2.9750e+01	11.9098	30.326964	0.000183	1.825079	0.618353	0.000073
 301	2.9850e+01	11.9451	30.464226	0.000345	3.447371	1.168001	0.000138
 302	2.9950e+01	11.9852	30.565155	0.000253	2.534831	0.858824	0.000101
 303	3.0049e+01	12.0366	30.698380	0.000335	3.345977	1.133648	0.000134
 304	3.0148e+01	12.0719	30.787197	0.000223	2.230652	0.755765	0.000089
 305	3.0248e+01	12.1152	30.835643	0.000122	1.216719	0.412236	0.000049
 306	3.0348e+01	12.1456	30.964831	0.000324	3.244584	1.099295	0.000130
 307	3.0447e+01	12.1954	31.102094	0.000345	3.447371	1.168001	0.000138
 308	3.0547e+01	12.2291	31.198985	0.000243	2.433438	0.824471	0.000097
 309	3.0646e+01	12.2676	31.344322	0.000365	3.650157	1.236707	0.000146
 310	3.0745e+01	12.3077	31.453325	0.000274	2.737618	0.927530	0.000110
 311	3.0845e+01	12.3478	31.558290	0.000264	2.636225	0.893177	0.000105
 312	3.0945e+01	12.3959	31.667293	0.000274	2.737618	0.927530	0.000110
 313	3.1044e+01	12.4296	31.816667	0.000375	3.751550	1.271060	0.000150
 314	3.1143e+01	12.4697	31.966041	0.000375	3.751550	1.271060	0.000150
 315	3.1243e+01	12.5034	32.066969	0.000253	2.534831	0.858824	0.000101
 316	3.1343e+01	12.5467	32.184046	0.000294	2.940404	0.996236	0.000118
 317	3.1442e+01	12.5868	32.276900	0.000233	2.332045	0.790118	0.000093
 318	3.1541e+01	12.6237	32.406089	0.000324	3.244584	1.099295	0.000130
 319	3.1641e+01	12.6638	32.551425	0.000365	3.650157	1.236707	0.000146
 320	3.1741e+01	12.7039	32.640242	0.000223	2.230652	0.755765	0.000089
 321	3.1840e+01	12.7537	32.745208	0.000264	2.636225	0.893177	0.000105
 322	3.1939e+01	12.7889	32.870359	0.000314	3.143191	1.064942	0.000126
 323	3.2039e+01	12.8290	32.934953	0.000162	1.622292	0.549647	0.000065
 324	3.2139e+01	12.8627	33.011659	0.000193	1.926472	0.652706	0.000077
 325	3.2238e+01	12.9141	33.169107	0.000395	3.954337	1.339766	0.000158
 326	3.2337e+01	12.9430	33.237739	0.000172	1.723685	0.584000	0.000069
 327	3.2437e+01	12.9879	33.358853	0.000304	3.041798	1.030589	0.000122
 328	3.2536e+01	13.0183	33.512264	0.000385	3.852944	1.305413	0.000154
 329	3.2636e+01	13.0681	33.641452	0.000324	3.244584	1.099295	0.000130
 330	3.2736e+01	13.1018	33.790826	0.000375	3.751550	1.271060	0.000150
 331	3.2835e+01	13.1419	33.920014	0.000324	3.244584	1.099295	0.000130
 332	3.2934e+01	13.1884	33.984609	0.000162	1.622292	0.549647	0.000065
 333	3.3034e+01	13.2157	34.133983	0.000375	3.751550	1.271060	0.000150
 334	3.3133e+01	13.2638	34.190503	0.000142	1.419506	0.480942	0.000057
 335	3.3233e+01	13.3055	34.347951	0.000395	3.954337	1.339766	0.000158
 336	3.3333e+01	13.3456	34.473102	0.000314	3.143191	1.064942	0.000126
 337	3.3432e+01	13.3745	34.557882	0.000213	2.129258	0.721412	0.000085
 338	3.3532e+01	13.4226	34.666885	0.000274	2.737618	0.927530	0.000110
 339	3.3631e+01	13.4627	34.804147	0.000345	3.447371	1.168001	0.000138
 340	3.3730e+01	13.4916	34.921224	0.000294	2.940404	0.996236	0.000118
 341	3.3830e+01	13.5397	34.981781	0.000152	1.520899	0.515294	0.000061
 342	3.3929e+01	13.5798	35.070598	0.000223	2.230652	0.755765	0.000089
 343	3.4029e+01	13.6199	35.191712	0.000304	3.041798	1.030589	0.000122
 344	3.4129e+01	13.6633	35.308789	0.000294	2.940404	0.996236	0.000118
 345	3.4228e+01	13.7050	35.413755	0.000264	2.636225	0.893177	0.000105
 346	3.4328e+01	13.7451	35.551017	0.000345	3.447371	1.168001	0.000138
 347	3.4427e+01	13.7755	35.668094	0.000294	2.940404	0.996236	0.000118
 348	3.4526e+01	13.8189	35.785171	0.000294	2.940404	0.996236	0.000118
 349	3.4626e+01	13.8558	35.938582	0.000385	3.852944	1.305413	0.000154
 350	3.4725e+01	13.8991	36.063734	0.000314	3.143191	1.064942	0.000126
 351	3.4825e+01	13.9392	36.156588	0.000233	2.332045	0.790118	0.000093
 352	3.4925e+01	13.9809	36.245405	0.000223	2.230652	0.755765	0.000089
 353	3.5024e+01	14.0098	36.362482	0.000294	2.940404	0.996236	0.000118
 354	3.5123e+01	14.0499	36.483596	0.000304	3.041798	1.030589	0.000122
 355	3.5223e+01	14.0932	36.612784	0.000324	3.244584	1.099295	0.000130
 356	3.5322e+01	14.1397	36.713712	0.000253	2.534831	0.858824	0.000101
 357	3.5422e+01	14.1782	36.826752	0.000284	2.839011	0.961883	0.000114
 358	3.5522e+01	14.2151	36.959978	0.000335	3.345977	1.133648	0.000134
 359	3.5621e+01	14.2648	37.064943	0.000264	2.636225	0.893177	0.000105
 360	3.5721e+01	14.2953	37.137612	0.000183	1.825079	0.618353	0.000073
 361	3.5820e+01	14.3467	37.210280	0.000183	1.825079	0.618353	0.000073
 362	3.5919e+01	14.3819	37.367728	0.000395	3.954337	1.339766	0.000158
 363	3.6019e+01	14.4204	37.452508	0.000213	2.129258	0.721412	0.000085
 364	3.6118e+01	14.4638	37.537288	0.000213	2.129258	0.721412	0.000085
 365	3.6218e+01	14.4958	37.702811	0.000416	4.157123	1.408472	0.000166
 366	3.6318e+01	14.5392	37.840073	0.000345	3.447371	1.168001	0.000138
 367	3.6417e+01	14.5793	37.941002	0.000253	2.534831	0.858824	0.000101
 368	3.6517e+01	14.6162	38.045967	0.000264	2.636225	0.893177	0.000105
 369	3.6616e+01	14.6563	38.195341	0.000375	3.751550	1.271060	0.000150
 370	3.6715e+01	14.6948	38.308381	0.000284	2.839011	0.961883	0.000114
 371	3.6815e+01	14.7365	38.425458	0.000294	2.940404	0.996236	0.000118
 372	3.6914e+01	14.7734	38.506201	0.000203	2.027865	0.687059	0.000081
 373	3.7014e+01	14.8087	38.590981	0.000213	2.129258	0.721412	0.000085
 374	3.7114e+01	14.8520	38.712095	0.000304	3.041798	1.030589	0.000122
 375	3.7213e+01	14.8953	38.821097	0.000274	2.737618	0.927530	0.000110
 376	3.7313e+01	14.9434	38.930100	0.000274	2.737618	0.927530	0.000110
 377	3.7412e+01	14.9755	39.043140	0.000284	2.839011	0.961883	0.000114
 378	3.7511e+01	15.0156	39.095622	0.000132	1.318112	0.446589	0.000053
 379	3.7611e+01	15.0493	39.192514	0.000243	2.433438	0.824471	0.000097
 380	3.7711e+01	15.0926	39.297479	0.000264	2.636225	0.893177	0.000105
 381	3.7810e+01	15.1327	39.406482	0.000274	2.737618	0.927530	0.000110
 382	3.7910e+01	15.1744	39.563930	0.000395	3.954337	1.339766	0.000158
 383	3.8009e+01	15.2210	39.705230	0.000355	3.548764	1.202354	0.000142
 384	3.8108e+01	15.2546	39.826344	0.000304	3.041798	1.030589	0.000122
 385	3.8208e+01	15.2980	39.935347	0.000274	2.737618	0.927530	0.000110
 386	3.8307e+01	15.3365	40.048387	0.000284	2.839011	0.961883	0.000114
 387	3.8407e+01	15.3782	40.161426	0.000284	2.839011	0.961883	0.000114
 388	3.8507e+01	15.4119	40.266392	0.000264	2.636225	0.893177	0.000105
 389	3.8606e+01	15.4423	40.371357	0.000264	2.636225	0.893177	0.000105
 390	3.8706e+01	15.4985	40.476323	0.000264	2.636225	0.893177	0.000105
 391	3.8805e+01	15.5322	40.581288	0.000264	2.636225	0.893177	0.000105
 392	3.8904e+01	15.5739	40.674143	0.000233	2.332045	0.790118	0.000093
 393	3.9004e+01	15.6124	40.779108	0.000264	2.636225	0.893177	0.000105
 394	3.9103e+01	15.6509	40.916371	0.000345	3.447371	1.168001	0.000138
 395	3.9203e+01	15.6926	41.013262	0.000243	2.433438	0.824471	0.000097
 396	3.9303e+01	15.7311	41.081893	0.000172	1.723685	0.584000	0.000069
 397	3.9402e+01	15.7840	41.190896	0.000274	2.737618	0.927530	0.000110
 398	3.9502e+01	15.8145	41.275676	0.000213	2.129258	0.721412	0.000085
 399	3.9601e+01	15.8482	41.408901	0.000335	3.345977	1.133648	0.000134
 400	3.9700e+01	15.8803	41.453310	0.000112	1.115326	0.377883	0.000045
 401	3.9800e+01	15.9429	41.634981	0.000456	4.562696	1.545883	0.000183
 402	3.9900e+01	15.9782	41.727835	0.000233	2.332045	0.790118	0.000093
 403	3.9999e+01	16.0054	41.885283	0.000395	3.954337	1.339766	0.000158
 404	4.0099e+01	16.0471	42.002360	0.000294	2.940404	0.996236	0.000118
 405	4.0198e+01	16.0937	42.099251	0.000243	2.433438	0.824471	0.000097
 406	4.0297e+01	16.1386	42.184031	0.000213	2.129258	0.721412	0.000085
 407	4.0397e+01	16.1723	42.276885	0.000233	2.332045	0.790118	0.000093
 408	4.0496e+01	16.2028	42.389925	0.000284	2.839011	0.961883	0.000114
 409	4.0596e+01	16.2509	42.527188	0.000345	3.447371	1.168001	0.000138
 410	4.0696e+01	16.2942	42.636191	0.000274	2.737618	0.927530	0.000110
 411	4.0795e+01	16.3263	42.708859	0.000183	1.825079	0.618353	0.000073
 412	4.0895e+01	16.3648	42.842084	0.000335	3.345977	1.133648	0.000134
 413	4.0994e+01	16.4033	42.930901	0.000223	2.230652	0.755765	0.000089
 414	4.1093e+01	16.4658	43.003570	0.000183	1.825079	0.618353	0.000073
 415	4.1193e+01	16.4931	43.080275	0.000193	1.926472	0.652706	0.000077
 416	4.1292e+01	16.5284	43.197352	0.000294	2.940404	0.996236	0.000118
 417	4.1392e+01	16.5653	43.290207	0.000233	2.332045	0.790118	0.000093
 418	4.1492e+01	16.6134	43.415358	0.000314	3.143191	1.064942	0.000126
 419	4.1591e+01	16.6455	43.528398	0.000284	2.839011	0.961883	0.000114
 420	4.1691e+01	16.6904	43.681809	0.000385	3.852944	1.305413	0.000154
 421	4.1790e+01	16.7257	43.790811	0.000274	2.737618	0.927530	0.000110
 422	4.1889e+01	16.7690	43.899814	0.000274	2.737618	0.927530	0.000110
 423	4.1989e+01	16.8059	43.988631	0.000223	2.230652	0.755765	0.000089
 424	4.2089e+01	16.8428	44.113782	0.000314	3.143191	1.064942	0.000126
 425	4.2188e+01	16.8894	44.234896	0.000304	3.041798	1.030589	0.000122
 426	4.2288e+01	16.9279	44.327750	0.000233	2.332045	0.790118	0.000093
 427	4.2387e+01	16.9744	44.440790	0.000284	2.839011	0.961883	0.000114
 428	4.2486e+01	17.0017	44.557867	0.000294	2.940404	0.996236	0.000118
 429	4.2586e+01	17.0498	44.646684	0.000223	2.230652	0.755765	0.000089
 430	4.2685e+01	17.0867	44.751650	0.000264	2.636225	0.893177	0.000105
 431	4.2785e+01	17.1316	44.864689	0.000284	2.839011	0.961883	0.000114
 432	4.2885e+01	17.1749	44.965618	0.000253	2.534831	0.858824	0.000101
 433	4.2984e+01	17.2022	45.010026	0.000112	1.115326	0.377883	0.000045
 434	4.3084e+01	17.2455	45.106918	0.000243	2.433438	0.824471	0.000097
 435	4.3183e+01	17.2824	45.199772	0.000233	2.332045	0.790118	0.000093
 436	4.3282e+01	17.3289	45.332997	0.000335	3.345977	1.133648	0.000134
 437	4.3382e+01	17.3642	45.486408	0.000385	3.852944	1.305413	0.000154
 438	4.3481e+01	17.4091	45.579262	0.000233	2.332045	0.790118	0.000093
 439	4.3581e+01	17.4396	45.740748	0.000406	4.055730	1.374119	0.000162
 440	4.3681e+01	17.4893	45.825528	0.000213	2.129258	0.721412	0.000085
 441	4.3780e+01	17.5375	45.950679	0.000314	3.143191	1.064942	0.000126
 442	4.3880e+01	17.5631	46.059682	0.000274	2.737618	0.927530	0.000110
 443	4.3979e+01	17.6016	46.184833	0.000314	3.143191	1.064942	0.000126
 444	4.4078e+01	17.6450	46.289798	0.000264	2.636225	0.893177	0.000105
 445	4.4178e+01	17.6770	46.382652	0.000233	2.332045	0.790118	0.000093
 446	4.4278e+01	17.7300	46.459358	0.000193	1.926472	0.652706	0.000077
 447	4.4377e+01	17.7637	46.612769	0.000385	3.852944	1.305413	0.000154
 448	4.4477e+01	17.7974	46.681401	0.000172	1.723685	0.584000	0.000069
 449	4.4576e+01	17.8519	46.798477	0.000294	2.940404	0.996236	0.000118
 450	4.4675e+01	17.8824	46.883257	0.000213	2.129258	0.721412	0.000085
 451	4.4775e+01	17.9257	47.000334	0.000294	2.940404	0.996236	0.000118
 452	4.4874e+01	17.9626	47.073003	0.000183	1.825079	0.618353	0.000073
 453	4.4974e+01	18.0059	47.210265	0.000345	3.447371	1.168001	0.000138
 454	4.5074e+01	18.0444	47.355602	0.000365	3.650157	1.236707	0.000146
 455	4.5173e+01	18.0781	47.456531	0.000253	2.534831	0.858824	0.000101
 456	4.5273e+01	18.1230	47.593793	0.000345	3.447371	1.168001	0.000138
 457	4.5372e+01	18.1631	47.714907	0.000304	3.041798	1.030589	0.000122
 458	4.5471e+01	18.1968	47.823910	0.000274	2.737618	0.927530	0.000110
 459	4.5571e+01	18.2417	47.916764	0.000233	2.332045	0.790118	0.000093
 460	4.5670e+01	18.2802	48.037878	0.000304	3.041798	1.030589	0.000122
 461	4.5770e+01	18.3155	48.146881	0.000274	2.737618	0.927530	0.000110
 462	4.5870e+01	18.3653	48.259921	0.000284	2.839011	0.961883	0.000114
 463	4.5969e+01	18.4022	48.332589	0.000183	1.825079	0.618353	0.000073
 464	4.6069e+01	18.4439	48.477926	0.000365	3.650157	1.236707	0.000146
 465	4.6168e+01	18.4856	48.554632	0.000193	1.926472	0.652706	0.000077
 466	4.6267e+01	18.5193	48.687857	0.000335	3.345977	1.133648	0.000134
 467	4.6367e+01	18.5626	48.788785	0.000253	2.534831	0.858824	0.000101
 468	4.6467e+01	18.6091	48.893751	0.000264	2.636225	0.893177	0.000105
 469	4.6566e+01	18.6556	48.962382	0.000172	1.723685	0.584000	0.000069
 470	4.6666e+01	18.6717	49.035051	0.000183	1.825079	0.618353	0.000073
 471	4.6765e+01	18.7198	49.184425	0.000375	3.751550	1.271060	0.000150
 472	4.6864e+01	18.7615	49.289390	0.000264	2.636225	0.893177	0.000105
 473	4.6964e+01	18.7920	49.438764	0.000375	3.751550	1.271060	0.000150
 474	4.7063e+01	18.8385	49.571990	0.000335	3.345977	1.133648	0.000134
 475	4.7163e+01	18.8770	49.709252	0.000345	3.447371	1.168001	0.000138
 476	4.7263e+01	18.9283	49.798069	0.000223	2.230652	0.755765	0.000089
 477	4.7362e+01	18.9620	49.919183	0.000304	3.041798	1.030589	0.000122
 478	4.7462e+01	19.0037	50.032223	0.000284	2.839011	0.961883	0.000114
 479	4.7561e+01	19.0455	50.161412	0.000324	3.244584	1.099295	0.000130
 480	4.7660e+01	19.0711	50.290600	0.000324	3.244584	1.099295	0.000130
 481	4.7760e+01	19.1209	50.363268	0.000183	1.825079	0.618353	0.000073
 482	4.7859e+01	19.1610	50.488420	0.000314	3.143191	1.064942	0.000126
 483	4.7959e+01	19.1962	50.581274	0.000233	2.332045	0.790118	0.000093
 484	4.8059e+01	19.2492	50.726611	0.000365	3.650157	1.236707	0.000146
 485	4.8158e+01	19.2893	50.819465	0.000233	2.332045	0.790118	0.000093
 486	4.8258e+01	19.3198	50.924430	0.000264	2.636225	0.893177	0.000105
 487	4.8357e+01	19.3551	51.057656	0.000335	3.345977	1.133648	0.000134
 488	4.8456e+01	19.4048	51.134361	0.000193	1.926472	0.652706	0.000077
 489	4.8556e+01	19.4337	51.219141	0.000213	2.129258	0.721412	0.000085
 490	4.8656e+01	19.4786	51.332181	0.000284	2.839011	0.961883	0.000114
 491	4.8755e+01	19.5155	51.445221	0.000284	2.839011	0.961883	0.000114
 492	4.8855e+01	19.5556	51.550186	0.000264	2.636225	0.893177	0.000105
 493	4.8954e+01	19.6069	51.687449	0.000345	3.447371	1.168001	0.000138
 494	4.9053e+01	19.6390	51.836823	0.000375	3.751550	1.271060	0.000150
 495	4.9153e+01	19.6727	51.945826	0.000274	2.737618	0.927530	0.000110
 496	4.9252e+01	19.7176	52.058865	0.000284	2.839011	0.961883	0.000114
 497	4.9352e+01	19.7593	52.163831	0.000264	2.636225	0.893177	0.000105
 498	4.9452e+01	19.8043	52.297056	0.000335	3.345977	1.133648	0.000134
 499	4.9551e+01	19.8331	52.373762	0.000193	1.926472	0.652706	0.000077
 500	4.9651e+01	19.8764	52.555433	0.000456	4.562696	1.545883	0.000183
 501	4.9750e+01	19.9133	52.624064	0.000172	1.723685	0.584000	0.000069
 502	4.9849e+01	19.9567	52.704807	0.000203	2.027865	0.687059	0.000081
 503	4.9949e+01	19.9887	52.874367	0.000426	4.258517	1.442825	0.000170
 504	5.0048e+01	19.9486	52.805735	0.000172	1.723685	0.584000	-0.000069
 505	5.0148e+01	19.9230	52.737104	0.000172	1.723685	0.584000	-0.000069
 506	5.0248e+01	19.8813	52.636176	0.000253	2.534831	0.858824	-0.000101
 507	5.0347e+01	19.8460	52.579656	0.000142	1.419506	0.480942	-0.000057
 508	5.0447e+01	19.7914	52.458542	0.000304	3.041798	1.030589	-0.000122
 509	5.0546e+01	19.7593	52.381836	0.000193	1.926472	0.652706	-0.000077
 510	5.0645e+01	19.7176	52.329353	0.000132	1.318112	0.446589	-0.000053
 511	5.0745e+01	19.6727	52.244574	0.000213	2.129258	0.721412	-0.000085
 512	5.0844e+01	19.6390	52.200165	0.000112	1.115326	0.377883	-0.000045
 513	5.0944e+01	19.5989	52.163831	0.000091	0.912539	0.309177	-0.000037
 514	5.1044e+01	19.5620	52.062902	0.000253	2.534831	0.858824	-0.000101
 515	5.1143e+01	19.5123	51.974085	0.000223	2.230652	0.755765	-0.000089
 516	5.1242e+01	19.4818	51.885269	0.000223	2.230652	0.755765	-0.000089
 517	5.1342e+01	19.4433	51.852971	0.000081	0.811146	0.274824	-0.000032
 518	5.1441e+01	19.3920	51.764154	0.000223	2.230652	0.755765	-0.000089
 519	5.1541e+01	19.3615	51.695523	0.000172	1.723685	0.584000	-0.000069
 520	5.1641e+01	19.3182	51.610743	0.000213	2.129258	0.721412	-0.000085
 521	5.1740e+01	19.2781	51.554223	0.000142	1.419506	0.480942	-0.000057
 522	5.1840e+01	19.2412	51.469444	0.000213	2.129258	0.721412	-0.000085
 523	5.1939e+01	19.2027	51.348329	0.000304	3.041798	1.030589	-0.000122
 524	5.2038e+01	19.1610	51.283735	0.000162	1.622292	0.549647	-0.000065
 525	5.2138e+01	19.1176	51.194918	0.000223	2.230652	0.755765	-0.000089
 526	5.2237e+01	19.0856	51.073804	0.000304	3.041798	1.030589	-0.000122
 527	5.2337e+01	19.0390	50.956727	0.000294	2.940404	0.996236	-0.000118
 528	5.2437e+01	19.0053	50.908282	0.000122	1.216719	0.412236	-0.000049
 529	5.2536e+01	18.9620	50.791205	0.000294	2.940404	0.996236	-0.000118
 530	5.2636e+01	18.9171	50.730648	0.000152	1.520899	0.515294	-0.000061
 531	5.2735e+01	18.8802	50.666054	0.000162	1.622292	0.549647	-0.000065
 532	5.2834e+01	18.8417	50.621645	0.000112	1.115326	0.377883	-0.000045
 533	5.2934e+01	18.8016	50.512642	0.000274	2.737618	0.927530	-0.000110
 534	5.3033e+01	18.7631	50.411714	0.000253	2.534831	0.858824	-0.000101
 535	5.3133e+01	18.7182	50.339046	0.000183	1.825079	0.618353	-0.000073
 536	5.3233e+01	18.6797	50.226006	0.000284	2.839011	0.961883	-0.000114
 537	5.3332e+01	18.6508	50.125077	0.000253	2.534831	0.858824	-0.000101
 538	5.3431e+01	18.6043	50.048372	0.000193	1.926472	0.652706	-0.000077
 539	5.3531e+01	18.5690	49.959555	0.000223	2.230652	0.755765	-0.000089
 540	5.3630e+01	18.5289	49.890923	0.000172	1.723685	0.584000	-0.000069
 541	5.3730e+01	18.4824	49.794032	0.000243	2.433438	0.824471	-0.000097
 542	5.3830e+01	18.4455	49.713289	0.000203	2.027865	0.687059	-0.000081
 543	5.3929e+01	18.4054	49.571990	0.000355	3.548764	1.202354	-0.000142
 544	5.4029e+01	18.3604	49.503358	0.000172	1.723685	0.584000	-0.000069
 545	5.4128e+01	18.3187	49.345910	0.000395	3.954337	1.339766	-0.000158
 546	5.4227e+01	18.2850	49.277279	0.000172	1.723685	0.584000	-0.000069
 547	5.4327e+01	18.2417	49.204610	0.000183	1.825079	0.618353	-0.000073
 548	5.4426e+01	18.2000	49.135979	0.000172	1.723685	0.584000	-0.000069
 549	5.4526e+01	18.1583	49.059273	0.000193	1.926472	0.652706	-0.000077
 550	5.4626e+01	18.1262	48.942197	0.000294	2.940404	0.996236	-0.000118
 551	5.4725e+01	18.0781	48.893751	0.000122	1.216719	0.412236	-0.000049
 552	5.4825e+01	18.0444	48.764563	0.000324	3.244584	1.099295	-0.000130
 553	5.4924e+01	18.0107	48.687857	0.000193	1.926472	0.652706	-0.000077
 554	5.5023e+01	17.9610	48.582891	0.000264	2.636225	0.893177	-0.000105
 555	5.5123e+01	17.9241	48.518297	0.000162	1.622292	0.549647	-0.000065
 556	5.5222e+01	17.8904	48.401220	0.000294	2.940404	0.996236	-0.000118
 557	5.5322e+01	17.8391	48.292218	0.000274	2.737618	0.927530	-0.000110
 558	5.5422e+01	17.7958	48.191289	0.000253	2.534831	0.858824	-0.000101
 559	5.5521e+01	17.7637	48.154955	0.000091	0.912539	0.309177	-0.000037
 560	5.5620e+01	17.7204	48.037878	0.000294	2.940404	0.996236	-0.000118
 561	5.5720e+01	17.6883	47.936950	0.000253	2.534831	0.858824	-0.000101
 562	5.5819e+01	17.6498	47.815836	0.000304	3.041798	1.030589	-0.000122
 563	5.5919e+01	17.6000	47.682610	0.000335	3.345977	1.133648	-0.000134
 564	5.6019e+01	17.5647	47.541310	0.000355	3.548764	1.202354	-0.000142
 565	5.6118e+01	17.5246	47.504976	0.000091	0.912539	0.309177	-0.000037
 566	5.6218e+01	17.4861	47.444419	0.000152	1.520899	0.515294	-0.000061
 567	5.6317e+01	17.4541	47.359639	0.000213	2.129258	0.721412	-0.000085
 568	5.6416e+01	17.4075	47.250637	0.000274	2.737618	0.927530	-0.000110
 569	5.6516e+01	17.3658	47.133560	0.000294	2.940404	0.996236	-0.000118
 570	5.6615e+01	17.3241	47.068966	0.000162	1.622292	0.549647	-0.000065
 571	5.6715e+01	17.2792	46.988223	0.000203	2.027865	0.687059	-0.000081
 572	5.6815e+01	17.2487	46.854997	0.000335	3.345977	1.133648	-0.000134
 573	5.6914e+01	17.2022	46.770218	0.000213	2.129258	0.721412	-0.000085
 574	5.7014e+01	17.1781	46.673326	0.000243	2.433438	0.824471	-0.000097
 575	5.7113e+01	17.1252	46.592584	0.000203	2.027865	0.687059	-0.000081
 576	5.7212e+01	17.0787	46.455321	0.000345	3.447371	1.168001	-0.000138
 577	5.7312e+01	17.0450	46.366504	0.000223	2.230652	0.755765	-0.000089
 578	5.7411e+01	17.0065	46.285761	0.000203	2.027865	0.687059	-0.000081
 579	5.7511e+01	16.9664	46.172721	0.000284	2.839011	0.961883	-0.000114
 580	5.7611e+01	16.9311	46.124276	0.000122	1.216719	0.412236	-0.000049
 581	5.7710e+01	16.8878	45.950679	0.000436	4.359910	1.477177	-0.000174
 582	5.7809e+01	16.8428	45.853788	0.000243	2.433438	0.824471	-0.000097
 583	5.7909e+01	16.8092	45.797268	0.000142	1.419506	0.480942	-0.000057
 584	5.8008e+01	16.7690	45.655968	0.000355	3.548764	1.202354	-0.000142
 585	5.8108e+01	16.7305	45.567151	0.000223	2.230652	0.755765	-0.000089
 586	5.8208e+01	16.6824	45.450074	0.000294	2.940404	0.996236	-0.000118
 587	5.8307e+01	16.6471	45.417777	0.000081	0.811146	0.274824	-0.000032
 588	5.8407e+01	16.6054	45.300700	0.000294	2.940404	0.996236	-0.000118
 589	5.8506e+01	16.5765	45.199772	0.000253	2.534831	0.858824	-0.000101
 590	5.8605e+01	16.5268	45.127103	0.000183	1.825079	0.618353	-0.000073
 591	5.8705e+01	16.4915	45.010026	0.000294	2.940404	0.996236	-0.000118
 592	5.8804e+01	16.4482	44.901024	0.000274	2.737618	0.927530	-0.000110
 593	5.8904e+01	16.4065	44.783947	0.000294	2.940404	0.996236	-0.000118
 594	5.9004e+01	16.3680	44.719353	0.000162	1.622292	0.549647	-0.000065
 595	5.9103e+01	16.3279	44.634573	0.000213	2.129258	0.721412	-0.000085
 596	5.9203e+01	16.2926	44.497310	0.000345	3.447371	1.168001	-0.000138
 597	5.9302e+01	16.2525	44.408493	0.000223	2.230652	0.755765	-0.000089
 598	5.9401e+01	16.2172	44.315639	0.000233	2.332045	0.790118	-0.000093
 599	5.9501e+01	16.1691	44.194525	0.000304	3.041798	1.030589	-0.000122
 600	5.9600e+01	16.1306	44.069374	0.000314	3.143191	1.064942	-0.000126
 601	5.9700e+01	16.0969	43.980557	0.000223	2.230652	0.755765	-0.000089
 602	5.9800e+01	16.0584	43.879628	0.000253	2.534831	0.858824	-0.000101
 603	5.9899e+01	16.0151	43.806960	0.000183	1.825079	0.618353	-0.000073
 604	5.9998e+01	15.9701	43.669697	0.000345	3.447371	1.168001	-0.000138
 605	6.0098e+01	15.9300	43.637400	0.000081	0.811146	0.274824	-0.000032
 606	6.0197e+01	15.8931	43.492063	0.000365	3.650157	1.236707	-0.000146
 607	6.0297e+01	15.8514	43.439581	0.000132	1.318112	0.446589	-0.000053
 608	6.0397e+01	15.8113	43.294244	0.000365	3.650157	1.236707	-0.000146
 609	6.0496e+01	15.7648	43.253872	0.000101	1.013933	0.343530	-0.000041
 610	6.0596e+01	15.7391	43.140832	0.000284	2.839011	0.961883	-0.000114
 611	6.0695e+01	15.6958	43.019718	0.000304	3.041798	1.030589	-0.000122
 612	6.0794e+01	15.6525	42.878419	0.000355	3.548764	1.202354	-0.000142
 613	6.0894e+01	15.6204	42.850159	0.000071	0.709753	0.240471	-0.000028
 614	6.0993e+01	15.5675	42.716933	0.000335	3.345977	1.133648	-0.000134
 615	6.1093e+01	15.5354	42.624079	0.000233	2.332045	0.790118	-0.000093
 616	6.1193e+01	15.4905	42.571596	0.000132	1.318112	0.446589	-0.000053
 617	6.1292e+01	15.4488	42.414148	0.000395	3.954337	1.339766	-0.000158
 618	6.1392e+01	15.4199	42.365702	0.000122	1.216719	0.412236	-0.000049
 619	6.1491e+01	15.3734	42.240551	0.000314	3.143191	1.064942	-0.000126
 620	6.1590e+01	15.3365	42.119437	0.000304	3.041798	1.030589	-0.000122
 621	6.1690e+01	15.2948	42.026583	0.000233	2.332045	0.790118	-0.000093
 622	6.1789e+01	15.2498	41.933729	0.000233	2.332045	0.790118	-0.000093
 623	6.1889e+01	15.2145	41.865098	0.000172	1.723685	0.584000	-0.000069
 624	6.1989e+01	15.1760	41.752058	0.000284	2.839011	0.961883	-0.000114
 625	6.2088e+01	15.1279	41.610758	0.000355	3.548764	1.202354	-0.000142
 626	6.2188e+01	15.0990	41.542127	0.000172	1.723685	0.584000	-0.000069
 627	6.2287e+01	15.0573	41.453310	0.000223	2.230652	0.755765	-0.000089
 628	6.2386e+01	15.0140	41.364493	0.000223	2.230652	0.755765	-0.000089
 629	6.2486e+01	14.9771	41.243379	0.000304	3.041798	1.030589	-0.000122
 630	6.2586e+01	14.9306	41.142450	0.000253	2.534831	0.858824	-0.000101
 631	6.2685e+01	14.8969	41.077856	0.000162	1.622292	0.549647	-0.000065
 632	6.2785e+01	14.8584	40.989039	0.000223	2.230652	0.755765	-0.000089
 633	6.2884e+01	14.8055	40.908296	0.000203	2.027865	0.687059	-0.000081
 634	6.2983e+01	14.7798	40.787182	0.000304	3.041798	1.030589	-0.000122
 635	6.3083e+01	14.7397	40.666068	0.000304	3.041798	1.030589	-0.000122
 636	6.3182e+01	14.6916	40.585326	0.000203	2.027865	0.687059	-0.000081
 637	6.3282e+01	14.6595	40.452100	0.000335	3.345977	1.133648	-0.000134
 638	6.3382e+01	14.6178	40.335023	0.000294	2.940404	0.996236	-0.000118
 639	6.3481e+01	14.5696	40.242169	0.000233	2.332045	0.790118	-0.000093
 640	6.3581e+01	14.5440	40.157389	0.000213	2.129258	0.721412	-0.000085
 641	6.3680e+01	14.4926	40.028201	0.000324	3.244584	1.099295	-0.000130
 642	6.3779e+01	14.4638	39.967644	0.000152	1.520899	0.515294	-0.000061
 643	6.3879e+01	14.4172	39.886901	0.000203	2.027865	0.687059	-0.000081
 644	6.3978e+01	14.3819	39.810196	0.000193	1.926472	0.652706	-0.000077
 645	6.4078e+01	14.3402	39.705230	0.000264	2.636225	0.893177	-0.000105
 646	6.4177e+01	14.2905	39.608339	0.000243	2.433438	0.824471	-0.000097
 647	6.4277e+01	14.2616	39.503373	0.000264	2.636225	0.893177	-0.000105
 648	6.4376e+01	14.2167	39.422630	0.000203	2.027865	0.687059	-0.000081
 649	6.4476e+01	14.1766	39.293442	0.000324	3.244584	1.099295	-0.000130
 650	6.4576e+01	14.1381	39.180402	0.000284	2.839011	0.961883	-0.000114
 651	6.4675e+01	14.1044	39.111771	0.000172	1.723685	0.584000	-0.000069
 652	6.4775e+01	14.0547	39.010843	0.000253	2.534831	0.858824	-0.000101
 653	6.4874e+01	14.0258	38.897803	0.000284	2.839011	0.961883	-0.000114
 654	6.4974e+01	13.9809	38.813023	0.000213	2.129258	0.721412	-0.000085
 655	6.5073e+01	13.9392	38.704020	0.000274	2.737618	0.927530	-0.000110
 656	6.5172e+01	13.9135	38.631352	0.000183	1.825079	0.618353	-0.000073
 657	6.5272e+01	13.8526	38.510238	0.000304	3.041798	1.030589	-0.000122
 658	6.5371e+01	13.8157	38.417384	0.000233	2.332045	0.790118	-0.000093
 659	6.5471e+01	13.7884	38.320492	0.000243	2.433438	0.824471	-0.000097
 660	6.5570e+01	13.7354	38.179193	0.000355	3.548764	1.202354	-0.000142
 661	6.5670e+01	13.6969	38.118636	0.000152	1.520899	0.515294	-0.000061
 662	6.5769e+01	13.6681	38.009633	0.000274	2.737618	0.927530	-0.000110
 663	6.5869e+01	13.6135	37.949076	0.000152	1.520899	0.515294	-0.000061
 664	6.5969e+01	13.5911	37.795665	0.000385	3.852944	1.305413	-0.000154
 665	6.6068e+01	13.5397	37.714922	0.000203	2.027865	0.687059	-0.000081
 666	6.6168e+01	13.5012	37.613994	0.000253	2.534831	0.858824	-0.000101
 667	6.6267e+01	13.4515	37.537288	0.000193	1.926472	0.652706	-0.000077
 668	6.6367e+01	13.4130	37.416174	0.000304	3.041798	1.030589	-0.000122
 669	6.6466e+01	13.3857	37.375803	0.000101	1.013933	0.343530	-0.000041
 670	6.6566e+01	13.3440	37.234503	0.000355	3.548764	1.202354	-0.000142
 671	6.6665e+01	13.3023	37.113389	0.000304	3.041798	1.030589	-0.000122
 672	6.6764e+01	13.2718	37.052832	0.000152	1.520899	0.515294	-0.000061
 673	6.6864e+01	13.2221	36.931718	0.000304	3.041798	1.030589	-0.000122
 674	6.6963e+01	13.1820	36.879235	0.000132	1.318112	0.446589	-0.000053
 675	6.7063e+01	13.1339	36.701601	0.000446	4.461303	1.511530	-0.000179
 676	6.7162e+01	13.1082	36.604710	0.000243	2.433438	0.824471	-0.000097
 677	6.7262e+01	13.0585	36.548190	0.000142	1.419506	0.480942	-0.000057
 678	6.7362e+01	13.0135	36.419001	0.000324	3.244584	1.099295	-0.000130
 679	6.7461e+01	12.9895	36.342296	0.000193	1.926472	0.652706	-0.000077
 680	6.7561e+01	12.9397	36.200996	0.000355	3.548764	1.202354	-0.000142
 681	6.7660e+01	12.9109	36.136402	0.000162	1.622292	0.549647	-0.000065
 682	6.7760e+01	12.8659	36.039511	0.000243	2.433438	0.824471	-0.000097
 683	6.7859e+01	12.8210	35.914360	0.000314	3.143191	1.064942	-0.000126
 684	6.7959e+01	12.7889	35.829580	0.000213	2.129258	0.721412	-0.000085
 685	6.8058e+01	12.7537	35.720577	0.000274	2.737618	0.927530	-0.000110
 686	6.8157e+01	12.7119	35.639834	0.000203	2.027865	0.687059	-0.000081
 687	6.8257e+01	12.6670	35.518720	0.000304	3.041798	1.030589	-0.000122
 688	6.8356e+01	12.6221	35.466237	0.000132	1.318112	0.446589	-0.000053
 689	6.8456e+01	12.5900	35.333012	0.000335	3.345977	1.133648	-0.000134
 690	6.8555e+01	12.5403	35.219972	0.000284	2.839011	0.961883	-0.000114
 691	6.8655e+01	12.5114	35.155378	0.000162	1.622292	0.549647	-0.000065
 692	6.8754e+01	12.4745	35.070598	0.000213	2.129258	0.721412	-0.000085
 693	6.8854e+01	12.4344	35.001967	0.000172	1.723685	0.584000	-0.000069
 694	6.8954e+01	12.3911	34.868741	0.000335	3.345977	1.133648	-0.000134
 695	6.9053e+01	12.3494	34.691107	0.000446	4.461303	1.511530	-0.000179
 696	6.9153e+01	12.3109	34.610365	0.000203	2.027865	0.687059	-0.000081
 697	6.9252e+01	12.2628	34.489251	0.000304	3.041798	1.030589	-0.000122
 698	6.9352e+01	12.2323	34.392359	0.000243	2.433438	0.824471	-0.000097
 699	6.9451e+01	12.1922	34.279320	0.000284	2.839011	0.961883	-0.000114
 700	6.9550e+01	12.1505	34.198577	0.000203	2.027865	0.687059	-0.000081
 701	6.9650e+01	12.1071	34.109760	0.000223	2.230652	0.755765	-0.000089
 702	6.9749e+01	12.0670	33.976534	0.000335	3.345977	1.133648	-0.000134
 703	6.9849e+01	12.0253	33.899829	0.000193	1.926472	0.652706	-0.000077
 704	6.9948e+01	11.9836	33.746418	0.000385	3.852944	1.305413	-0.000154
 705	7.0048e+01	11.9467	33.677786	0.000172	1.723685	0.584000	-0.000069
 706	7.0147e+01	11.9098	33.593006	0.000213	2.129258	0.721412	-0.000085
 707	7.0247e+01	11.8665	33.496115	0.000243	2.433438	0.824471	-0.000097
 708	7.0347e+01	11.8392	33.362890	0.000335	3.345977	1.133648	-0.000134
 709	7.0446e+01	11.7927	33.257924	0.000264	2.636225	0.893177	-0.000105
 710	7.0546e+01	11.7542	33.213516	0.000112	1.115326	0.377883	-0.000045
 711	7.0645e+01	11.7109	33.092402	0.000304	3.041798	1.030589	-0.000122
 712	7.0745e+01	11.6804	32.999548	0.000233	2.332045	0.790118	-0.000093
 713	7.0844e+01	11.6243	32.858248	0.000355	3.548764	1.202354	-0.000142
 714	7.0944e+01	11.5906	32.733097	0.000314	3.143191	1.064942	-0.000126
 715	7.1043e+01	11.5569	32.599871	0.000335	3.345977	1.133648	-0.000134
 716	7.1142e+01	11.5168	32.515091	0.000213	2.129258	0.721412	-0.000085
 717	7.1242e+01	11.4671	32.402051	0.000284	2.839011	0.961883	-0.000114
 718	7.1341e+01	11.4270	32.268826	0.000335	3.345977	1.133648	-0.000134
 719	7.1441e+01	11.3901	32.175972	0.000233	2.332045	0.790118	-0.000093
 720	7.1540e+01	11.3499	32.066969	0.000274	2.737618	0.927530	-0.000110
 721	7.1640e+01	11.3066	32.002375	0.000162	1.622292	0.549647	-0.000065
 722	7.1740e+01	11.2794	31.861075	0.000355	3.548764	1.202354	-0.000142
 723	7.1839e+01	11.2328	31.776295	0.000213	2.129258	0.721412	-0.000085
 724	7.1939e+01	11.1911	31.703627	0.000183	1.825079	0.618353	-0.000073
 725	7.2038e+01	11.1526	31.574439	0.000324	3.244584	1.099295	-0.000130
 726	7.2138e+01	11.1157	31.461399	0.000284	2.839011	0.961883	-0.000114
 727	7.2237e+01	11.0740	31.356433	0.000264	2.636225	0.893177	-0.000105
 728	7.2337e+01	11.0403	31.307988	0.000122	1.216719	0.412236	-0.000049
 729	7.2436e+01	10.9922	31.182836	0.000314	3.143191	1.064942	-0.000126
 730	7.2535e+01	10.9521	31.077871	0.000264	2.636225	0.893177	-0.000105
 731	7.2635e+01	10.9168	30.972905	0.000264	2.636225	0.893177	-0.000105
 732	7.2734e+01	10.8703	30.823531	0.000375	3.751550	1.271060	-0.000150
 733	7.2834e+01	10.8350	30.710492	0.000284	2.839011	0.961883	-0.000114
 734	7.2933e+01	10.7837	30.577266	0.000335	3.345977	1.133648	-0.000134
 735	7.3033e+01	10.7468	30.456152	0.000304	3.041798	1.030589	-0.000122
 736	7.3132e+01	10.7147	30.351186	0.000264	2.636225	0.893177	-0.000105
 737	7.3232e+01	10.6714	30.217961	0.000335	3.345977	1.133648	-0.000134
 738	7.3332e+01	10.6329	30.153367	0.000162	1.622292	0.549647	-0.000065
 739	7.3431e+01	10.6008	30.036290	0.000294	2.940404	0.996236	-0.000118
 740	7.3531e+01	10.5607	29.967659	0.000172	1.723685	0.584000	-0.000069
 741	7.3630e+01	10.5174	29.810210	0.000395	3.954337	1.339766	-0.000158
 742	7.3730e+01	10.4772	29.705245	0.000264	2.636225	0.893177	-0.000105
 743	7.3829e+01	10.4339	29.624502	0.000203	2.027865	0.687059	-0.000081
 744	7.3928e+01	10.3890	29.535685	0.000223	2.230652	0.755765	-0.000089
 745	7.4028e+01	10.3585	29.454942	0.000203	2.027865	0.687059	-0.000081
 746	7.4127e+01	10.3200	29.398422	0.000142	1.419506	0.480942	-0.000057
 747	7.4227e+01	10.2767	29.204640	0.000487	4.866876	1.648942	-0.000195
 748	7.4326e+01	10.2286	29.107749	0.000243	2.433438	0.824471	-0.000097
 749	7.4426e+01	10.1997	28.990672	0.000294	2.940404	0.996236	-0.000118
 750	7.4525e+01	10.1564	28.877632	0.000284	2.839011	0.961883	-0.000114
 751	7.4625e+01	10.1147	28.772666	0.000264	2.636225	0.893177	-0.000105
 752	7.4725e+01	10.0730	28.615218	0.000395	3.954337	1.339766	-0.000158
 753	7.4824e+01	10.0361	28.465844	0.000375	3.751550	1.271060	-0.000150
 754	7.4924e+01	9.9976	28.381064	0.000213	2.129258	0.721412	-0.000085
 755	7.5023e+01	9.9591	28.296284	0.000213	2.129258	0.721412	-0.000085
 756	7.5123e+01	9.9206	28.187282	0.000274	2.737618	0.927530	-0.000110
 757	7.5222e+01	9.8773	28.090390	0.000243	2.433438	0.824471	-0.000097
 758	7.5322e+01	9.8404	27.965239	0.000314	3.143191	1.064942	-0.000126
 759	7.5421e+01	9.7922	27.860274	0.000264	2.636225	0.893177	-0.000105
 760	7.5520e+01	9.7537	27.775494	0.000213	2.129258	0.721412	-0.000085
 761	7.5620e+01	9.7200	27.694751	0.000203	2.027865	0.687059	-0.000081
 762	7.5719e+01	9.6831	27.614008	0.000203	2.027865	0.687059	-0.000081
 763	7.5819e+01	9.6366	27.505006	0.000274	2.737618	0.927530	-0.000110
 764	7.5918e+01	9.5965	27.371780	0.000335	3.345977	1.133648	-0.000134
 765	7.6018e+01	9.5612	27.258741	0.000284	2.839011	0.961883	-0.000114
 766	7.6118e+01	9.5179	27.169924	0.000223	2.230652	0.755765	-0.000089
 767	7.6217e+01	9.4874	27.073032	0.000243	2.433438	0.824471	-0.000097
 768	7.6317e+01	9.4393	26.935770	0.000345	3.447371	1.168001	-0.000138
 769	7.6416e+01	9.4056	26.798507	0.000345	3.447371	1.168001	-0.000138
 770	7.6516e+01	9.3639	26.673356	0.000314	3.143191	1.064942	-0.000126
 771	7.6615e+01	9.3222	26.548205	0.000314	3.143191	1.064942	-0.000126
 772	7.6715e+01	9.2853	26.443239	0.000264	2.636225	0.893177	-0.000105
 773	7.6814e+01	9.2404	26.338274	0.000264	2.636225	0.893177	-0.000105
 774	7.6913e+01	9.2035	26.217159	0.000304	3.041798	1.030589	-0.000122
 775	7.7013e+01	9.1602	26.120268	0.000243	2.433438	0.824471	-0.000097
 776	7.7112e+01	9.1153	25.995117	0.000314	3.143191	1.064942	-0.000126
 777	7.7212e+01	9.0751	25.894189	0.000253	2.534831	0.858824	-0.000101
 778	7.7311e+01	9.0431	25.752889	0.000355	3.548764	1.202354	-0.000142
 779	7.7411e+01	8.9933	25.668109	0.000213	2.129258	0.721412	-0.000085
 780	7.7510e+01	8.9580	25.591403	0.000193	1.926472	0.652706	-0.000077
 781	7.7610e+01	8.9195	25.510661	0.000203	2.027865	0.687059	-0.000081
 782	7.7710e+01	8.8794	25.393584	0.000294	2.940404	0.996236	-0.000118
 783	7.7809e+01	8.8393	25.292655	0.000253	2.534831	0.858824	-0.000101
 784	7.7909e+01	8.7992	25.199801	0.000233	2.332045	0.790118	-0.000093
 785	7.8008e+01	8.7527	25.098873	0.000253	2.534831	0.858824	-0.000101
 786	7.8108e+01	8.7302	25.018130	0.000203	2.027865	0.687059	-0.000081
 787	7.8207e+01	8.6757	24.876830	0.000355	3.548764	1.202354	-0.000142
 788	7.8306e+01	8.6404	24.759753	0.000294	2.940404	0.996236	-0.000118
 789	7.8406e+01	8.6003	24.614417	0.000365	3.650157	1.236707	-0.000146
 790	7.8505e+01	8.5714	24.493303	0.000304	3.041798	1.030589	-0.000122
 791	7.8605e+01	8.5265	24.388337	0.000264	2.636225	0.893177	-0.000105
 792	7.8704e+01	8.4832	24.263186	0.000314	3.143191	1.064942	-0.000126
 793	7.8804e+01	8.4399	24.146109	0.000294	2.940404	0.996236	-0.000118
 794	7.8903e+01	8.4046	24.077478	0.000172	1.723685	0.584000	-0.000069
 795	7.9003e+01	8.3661	23.980586	0.000243	2.433438	0.824471	-0.000097
 796	7.9103e+01	8.3179	23.851398	0.000324	3.244584	1.099295	-0.000130
 797	7.9202e+01	8.2827	23.774692	0.000193	1.926472	0.652706	-0.000077
 798	7.9302e+01	8.2425	23.697987	0.000193	1.926472	0.652706	-0.000077
 799	7.9401e+01	8.2008	23.593021	0.000264	2.636225	0.893177	-0.000105
 800	7.9501e+01	8.1688	23.492093	0.000253	2.534831	0.858824	-0.000101
 801	7.9600e+01	8.1270	23.370979	0.000304	3.041798	1.030589	-0.000122
 802	7.9700e+01	8.0821	23.261976	0.000274	2.737618	0.927530	-0.000110
 803	7.9799e+01	8.0484	23.165085	0.000243	2.433438	0.824471	-0.000097
 804	7.9898e+01	8.0115	23.048008	0.000294	2.940404	0.996236	-0.000118
 805	7.9998e+01	7.9602	22.987451	0.000152	1.520899	0.515294	-0.000061
 806	8.0097e+01	7.9265	22.809817	0.000446	4.461303	1.511530	-0.000179
 807	8.0197e+01	7.8896	22.700814	0.000274	2.737618	0.927530	-0.000110
 808	8.0296e+01	7.8367	22.579700	0.000304	3.041798	1.030589	-0.000122
 809	8.0396e+01	7.8014	22.434363	0.000365	3.650157	1.236707	-0.000146
 810	8.0496e+01	7.7645	22.365732	0.000172	1.723685	0.584000	-0.000069
 811	8.0595e+01	7.7260	22.224432	0.000355	3.548764	1.202354	-0.000142
 812	8.0695e+01	7.6875	22.139652	0.000213	2.129258	0.721412	-0.000085
 813	8.0794e+01	7.6474	21.998353	0.000355	3.548764	1.202354	-0.000142
 814	8.0894e+01	7.6041	21.933758	0.000162	1.622292	0.549647	-0.000065
 815	8.0993e+01	7.5640	21.857053	0.000193	1.926472	0.652706	-0.000077
 816	8.1093e+01	7.5239	21.752087	0.000264	2.636225	0.893177	-0.000105
 817	8.1192e+01	7.4854	21.659233	0.000233	2.332045	0.790118	-0.000093
 818	8.1291e+01	7.4533	21.554268	0.000264	2.636225	0.893177	-0.000105
 819	8.1391e+01	7.4148	21.465451	0.000223	2.230652	0.755765	-0.000089
 820	8.1490e+01	7.3554	21.348374	0.000294	2.940404	0.996236	-0.000118
 821	8.1590e+01	7.3329	21.235334	0.000284	2.839011	0.961883	-0.000114
 822	8.1689e+01	7.2928	21.170740	0.000162	1.622292	0.549647	-0.000065
 823	8.1789e+01	7.2431	21.033477	0.000345	3.447371	1.168001	-0.000138
 824	8.1888e+01	7.2174	20.904289	0.000324	3.244584	1.099295	-0.000130
 825	8.1988e+01	7.1677	20.767026	0.000345	3.447371	1.168001	-0.000138
 826	8.2088e+01	7.1276	20.658024	0.000274	2.737618	0.927530	-0.000110
 827	8.2187e+01	7.0891	20.532872	0.000314	3.143191	1.064942	-0.000126
 828	8.2287e+01	7.0522	20.456167	0.000193	1.926472	0.652706	-0.000077
 829	8.2386e+01	7.0201	20.318904	0.000345	3.447371	1.168001	-0.000138
 830	8.2486e+01	6.9656	20.254310	0.000162	1.622292	0.549647	-0.000065
 831	8.2585e+01	6.9319	20.125122	0.000324	3.244584	1.099295	-0.000130
 832	8.2684e+01	6.8790	20.036305	0.000223	2.230652	0.755765	-0.000089
 833	8.2784e+01	6.8517	19.939413	0.000243	2.433438	0.824471	-0.000097
 834	8.2883e+01	6.8132	19.858671	0.000203	2.027865	0.687059	-0.000081
 835	8.2983e+01	6.7731	19.777928	0.000203	2.027865	0.687059	-0.000081
 836	8.3082e+01	6.7346	19.660851	0.000294	2.940404	0.996236	-0.000118
 837	8.3182e+01	6.6864	19.572034	0.000223	2.230652	0.755765	-0.000089
 838	8.3281e+01	6.6511	19.463031	0.000274	2.737618	0.927530	-0.000110
 839	8.3381e+01	6.6014	19.333843	0.000324	3.244584	1.099295	-0.000130
 840	8.3481e+01	6.5597	19.249063	0.000213	2.129258	0.721412	-0.000085
 841	8.3580e+01	6.5340	19.103726	0.000365	3.650157	1.236707	-0.000146
 842	8.3680e+01	6.4923	19.018946	0.000213	2.129258	0.721412	-0.000085
 843	8.3779e+01	6.4506	18.873610	0.000365	3.650157	1.236707	-0.000146
 844	8.3879e+01	6.4250	18.728273	0.000365	3.650157	1.236707	-0.000146
 845	8.3978e+01	6.3784	18.659641	0.000172	1.723685	0.584000	-0.000069
 846	8.4078e+01	6.3415	18.546602	0.000284	2.839011	0.961883	-0.000114
 847	8.4177e+01	6.2934	18.413376	0.000335	3.345977	1.133648	-0.000134
 848	8.4276e+01	6.2533	18.340708	0.000183	1.825079	0.618353	-0.000073
 849	8.4376e+01	6.2116	18.207482	0.000335	3.345977	1.133648	-0.000134
 850	8.4475e+01	6.1715	18.146925	0.000152	1.520899	0.515294	-0.000061
 851	8.4575e+01	6.1410	17.989477	0.000395	3.954337	1.339766	-0.000158
 852	8.4674e+01	6.0961	17.892586	0.000243	2.433438	0.824471	-0.000097
 853	8.4774e+01	6.0560	17.823954	0.000172	1.723685	0.584000	-0.000069
 854	8.4874e+01	6.0127	17.714952	0.000274	2.737618	0.927530	-0.000110
 855	8.4973e+01	5.9613	17.597875	0.000294	2.940404	0.996236	-0.000118
 856	8.5073e+01	5.9357	17.496946	0.000253	2.534831	0.858824	-0.000101
 857	8.5172e+01	5.8940	17.440426	0.000142	1.419506	0.480942	-0.000057
 858	8.5272e+01	5.8474	17.282978	0.000395	3.954337	1.339766	-0.000158
 859	8.5371e+01	5.8169	17.214347	0.000172	1.723685	0.584000	-0.000069
 860	8.5471e+01	5.7752	17.081121	0.000335	3.345977	1.133648	-0.000134
 861	8.5570e+01	5.7399	16.931747	0.000375	3.751550	1.271060	-0.000150
 862	8.5669e+01	5.6918	16.794485	0.000345	3.447371	1.168001	-0.000138
 863	8.5769e+01	5.6565	16.693556	0.000253	2.534831	0.858824	-0.000101
 864	8.5868e+01	5.6196	16.584554	0.000274	2.737618	0.927530	-0.000110
 865	8.5968e+01	5.5843	16.459402	0.000314	3.143191	1.064942	-0.000126
 866	8.6067e+01	5.5378	16.330214	0.000324	3.244584	1.099295	-0.000130
 867	8.6167e+01	5.4945	16.253508	0.000193	1.926472	0.652706	-0.000077
 868	8.6266e+01	5.4496	16.128357	0.000314	3.143191	1.064942	-0.000126
 869	8.6366e+01	5.4159	16.075875	0.000132	1.318112	0.446589	-0.000053
 870	8.6466e+01	5.3854	15.962835	0.000284	2.839011	0.961883	-0.000114
 871	8.6565e+01	5.3341	15.837684	0.000314	3.143191	1.064942	-0.000126
 872	8.6665e+01	5.2940	15.773089	0.000162	1.622292	0.549647	-0.000065
 873	8.6764e+01	5.2555	15.611604	0.000406	4.055730	1.374119	-0.000162
 874	8.6864e+01	5.2218	15.563158	0.000122	1.216719	0.412236	-0.000049
 875	8.6963e+01	5.1753	15.421859	0.000355	3.548764	1.202354	-0.000142
 876	8.7063e+01	5.1400	15.300744	0.000304	3.041798	1.030589	-0.000122
 877	8.7162e+01	5.1015	15.195779	0.000264	2.636225	0.893177	-0.000105
 878	8.7261e+01	5.0662	15.090813	0.000264	2.636225	0.893177	-0.000105
 879	8.7361e+01	5.0245	14.953551	0.000345	3.447371	1.168001	-0.000138
 880	8.7460e+01	4.9747	14.808214	0.000365	3.650157	1.236707	-0.000146
 881	8.7560e+01	4.9362	14.634617	0.000436	4.359910	1.477177	-0.000174
 882	8.7659e+01	4.9057	14.570023	0.000162	1.622292	0.549647	-0.000065
 883	8.7759e+01	4.8656	14.452946	0.000294	2.940404	0.996236	-0.000118
 884	8.7859e+01	4.8175	14.335869	0.000294	2.940404	0.996236	-0.000118
 885	8.7958e+01	4.7742	14.230903	0.000264	2.636225	0.893177	-0.000105
 886	8.8058e+01	4.7373	14.117864	0.000284	2.839011	0.961883	-0.000114
 887	8.8157e+01	4.6956	14.029047	0.000223	2.230652	0.755765	-0.000089
 888	8.8257e+01	4.6571	13.948304	0.000203	2.027865	0.687059	-0.000081
 889	8.8356e+01	4.6218	13.819116	0.000324	3.244584	1.099295	-0.000130
 890	8.8456e+01	4.5785	13.746447	0.000183	1.825079	0.618353	-0.000073
 891	8.8555e+01	4.5400	13.609185	0.000345	3.447371	1.168001	-0.000138
 892	8.8654e+01	4.4902	13.516330	0.000233	2.332045	0.790118	-0.000093
 893	8.8754e+01	4.4614	13.403291	0.000284	2.839011	0.961883	-0.000114
 894	8.8853e+01	4.4148	13.270065	0.000335	3.345977	1.133648	-0.000134
 895	8.8953e+01	4.3812	13.136840	0.000335	3.345977	1.133648	-0.000134
 896	8.9052e+01	4.3427	13.023800	0.000284	2.839011	0.961883	-0.000114
 897	8.9152e+01	4.3009	12.910760	0.000284	2.839011	0.961883	-0.000114
 898	8.9251e+01	4.2641	12.781572	0.000324	3.244584	1.099295	-0.000130
 899	8.9351e+01	4.2159	12.632198	0.000375	3.751550	1.271060	-0.000150
 900	8.9451e+01	4.1790	12.527232	0.000264	2.636225	0.893177	-0.000105
 901	8.9550e+01	4.1437	12.414192	0.000284	2.839011	0.961883	-0.000114
 902	8.9650e+01	4.0988	12.293078	0.000304	3.041798	1.030589	-0.000122
 903	8.9749e+01	4.0603	12.184076	0.000274	2.737618	0.927530	-0.000110
 904	8.9849e+01	4.0298	12.075073	0.000274	2.737618	0.927530	-0.000110
 905	8.9948e+01	3.9833	11.949922	0.000314	3.143191	1.064942	-0.000126
 906	9.0047e+01	3.9320	11.893402	0.000142	1.419506	0.480942	-0.000057
 907	9.0147e+01	3.8919	11.820733	0.000183	1.825079	0.618353	-0.000073
 908	9.0246e+01	3.8614	11.671359	0.000375	3.751550	1.271060	-0.000150
 909	9.0346e+01	3.8277	11.582542	0.000223	2.230652	0.755765	-0.000089
 910	9.0445e+01	3.7796	11.425094	0.000395	3.954337	1.339766	-0.000158
 911	9.0545e+01	3.7298	11.316091	0.000274	2.737618	0.927530	-0.000110
 912	9.0644e+01	3.7058	11.235349	0.000203	2.027865	0.687059	-0.000081
 913	9.0744e+01	3.6544	11.114235	0.000304	3.041798	1.030589	-0.000122
 914	9.0844e+01	3.6191	10.964861	0.000375	3.751550	1.271060	-0.000150
 915	9.0943e+01	3.5774	10.839709	0.000314	3.143191	1.064942	-0.000126
 916	9.1043e+01	3.5534	10.682261	0.000395	3.954337	1.339766	-0.000158
 917	9.1142e+01	3.5085	10.597481	0.000213	2.129258	0.721412	-0.000085
 918	9.1242e+01	3.4732	10.444070	0.000385	3.852944	1.305413	-0.000154
 919	9.1341e+01	3.4250	10.326993	0.000294	2.940404	0.996236	-0.000118
 920	9.1441e+01	3.3817	10.242213	0.000213	2.129258	0.721412	-0.000085
 921	9.1540e+01	3.3416	10.121099	0.000304	3.041798	1.030589	-0.000122
 922	9.1639e+01	3.2983	10.056505	0.000162	1.622292	0.549647	-0.000065
 923	9.1739e+01	3.2646	9.951540	0.000264	2.636225	0.893177	-0.000105
 924	9.1838e+01	3.2229	9.850611	0.000253	2.534831	0.858824	-0.000101
 925	9.1938e+01	3.1860	9.672977	0.000446	4.461303	1.511530	-0.000179
 926	9.2037e+01	3.1379	9.624532	0.000122	1.216719	0.412236	-0.000049
 927	9.2137e+01	3.1010	9.507455	0.000294	2.940404	0.996236	-0.000118
 928	9.2237e+01	3.0625	9.422675	0.000213	2.129258	0.721412	-0.000085
 929	9.2336e+01	3.0176	9.261189	0.000406	4.055730	1.374119	-0.000162
 930	9.2436e+01	2.9855	9.180447	0.000203	2.027865	0.687059	-0.000081
 931	9.2535e+01	2.9486	9.010887	0.000426	4.258517	1.442825	-0.000170
 932	9.2635e+01	2.8940	8.922070	0.000223	2.230652	0.755765	-0.000089
 933	9.2734e+01	2.8700	8.756547	0.000416	4.157123	1.408472	-0.000166
 934	9.2834e+01	2.8315	8.635433	0.000304	3.041798	1.030589	-0.000122
 935	9.2933e+01	2.7978	8.498171	0.000345	3.447371	1.168001	-0.000138
 936	9.3032e+01	2.7416	8.413391	0.000213	2.129258	0.721412	-0.000085
 937	9.3132e+01	2.7128	8.255943	0.000395	3.954337	1.339766	-0.000158
 938	9.3231e+01	2.6630	8.159051	0.000243	2.433438	0.824471	-0.000097
 939	9.3331e+01	2.6261	8.025826	0.000335	3.345977	1.133648	-0.000134
 940	9.3430e+01	2.5892	7.937009	0.000223	2.230652	0.755765	-0.000089
 941	9.3530e+01	2.5491	7.864340	0.000183	1.825079	0.618353	-0.000073
 942	9.3629e+01	2.5042	7.763412	0.000253	2.534831	0.858824	-0.000101
 943	9.3729e+01	2.4673	7.618075	0.000365	3.650157	1.236707	-0.000146
 944	9.3829e+01	2.4240	7.509072	0.000274	2.737618	0.927530	-0.000110
 945	9.3928e+01	2.3887	7.404107	0.000264	2.636225	0.893177	-0.000105
 946	9.4028e+01	2.3374	7.278956	0.000314	3.143191	1.064942	-0.000126
 947	9.4127e+01	2.3165	7.210324	0.000172	1.723685	0.584000	-0.000069
 948	9.4227e+01	2.2684	7.085173	0.000314	3.143191	1.064942	-0.000126
 949	9.4326e+01	2.2283	6.964059	0.000304	3.041798	1.030589	-0.000122
 950	9.4425e+01	2.1882	6.838908	0.000314	3.143191	1.064942	-0.000126
 951	9.4525e+01	2.1497	6.713757	0.000314	3.143191	1.064942	-0.000126
 952	9.4624e+01	2.1144	6.564383	0.000375	3.751550	1.271060	-0.000150
 953	9.4724e+01	2.0727	6.471529	0.000233	2.332045	0.790118	-0.000093
 954	9.4823e+01	2.0278	6.350415	0.000304	3.041798	1.030589	-0.000122
 955	9.4923e+01	1.9941	6.229300	0.000304	3.041798	1.030589	-0.000122
 956	9.5022e+01	1.9443	6.100112	0.000324	3.244584	1.099295	-0.000130
 957	9.5122e+01	1.9058	5.999184	0.000253	2.534831	0.858824	-0.000101
 958	9.5222e+01	1.8625	5.894218	0.000264	2.636225	0.893177	-0.000105
 959	9.5321e+01	1.8417	5.793290	0.000253	2.534831	0.858824	-0.000101
 960	9.5421e+01	1.7807	5.769067	0.000061	0.608360	0.206118	-0.000024
 961	9.5520e+01	1.7438	5.627767	0.000355	3.548764	1.202354	-0.000142
 962	9.5620e+01	1.7085	5.518765	0.000274	2.737618	0.927530	-0.000110
 963	9.5719e+01	1.6764	5.393613	0.000314	3.143191	1.064942	-0.000126
 964	9.5819e+01	1.6315	5.272499	0.000304	3.041798	1.030589	-0.000122
 965	9.5918e+01	1.5914	5.175608	0.000243	2.433438	0.824471	-0.000097
 966	9.6017e+01	1.5481	5.074680	0.000253	2.534831	0.858824	-0.000101
 967	9.6117e+01	1.5176	4.961640	0.000284	2.839011	0.961883	-0.000114
 968	9.6216e+01	1.4727	4.816303	0.000365	3.650157	1.236707	-0.000146
 969	9.6316e+01	1.4310	4.695189	0.000304	3.041798	1.030589	-0.000122
 970	9.6415e+01	1.3957	4.545815	0.000375	3.751550	1.271060	-0.000150
 971	9.6515e+01	1.3524	4.440849	0.000264	2.636225	0.893177	-0.000105
 972	9.6615e+01	1.3123	4.307624	0.000335	3.345977	1.133648	-0.000134
 973	9.6714e+01	1.2722	4.202658	0.000264	2.636225	0.893177	-0.000105
 974	9.6814e+01	1.2288	4.089619	0.000284	2.839011	0.961883	-0.000114
 975	9.6913e+01	1.1919	3.960430	0.000324	3.244584	1.099295	-0.000130
 976	9.7013e+01	1.1550	3.883725	0.000193	1.926472	0.652706	-0.000077
 977	9.7112e+01	1.1069	3.790870	0.000233	2.332045	0.790118	-0.000093
 978	9.7212e+01	1.0636	3.673794	0.000294	2.940404	0.996236	-0.000118
 979	9.7311e+01	1.0347	3.621311	0.000132	1.318112	0.446589	-0.000053
 980	9.7410e+01	0.9882	3.516345	0.000264	2.636225	0.893177	-0.000105
 981	9.7510e+01	0.9529	3.383120	0.000335	3.345977	1.133648	-0.000134
 982	9.7609e+01	0.9112	3.245857	0.000345	3.447371	1.168001	-0.000138
 983	9.7709e+01	0.8743	3.136854	0.000274	2.737618	0.927530	-0.000110
 984	9.7808e+01	0.8310	3.060149	0.000193	1.926472	0.652706	-0.000077
 985	9.7908e+01	0.8005	2.918849	0.000355	3.548764	1.202354	-0.000142
 986	9.8007e+01	0.7572	2.813884	0.000264	2.636225	0.893177	-0.000105
 987	9.8107e+01	0.7107	2.676621	0.000345	3.447371	1.168001	-0.000138
 988	9.8207e+01	0.6722	2.551470	0.000314	3.143191	1.064942	-0.000126
 989	9.8306e+01	0.6337	2.442467	0.000274	2.737618	0.927530	-0.000110
 990	9.8406e+01	0.5920	2.333464	0.000274	2.737618	0.927530	-0.000110
 991	9.8505e+01	0.5486	2.232536	0.000253	2.534831	0.858824	-0.000101
 992	9.8605e+01	0.5198	2.075088	0.000395	3.954337	1.339766	-0.000158
 993	9.8704e+01	0.4716	2.046828	0.000071	0.709753	0.240471	-0.000028
 994	9.8803e+01	0.4428	1.885342	0.000406	4.055730	1.374119	-0.000162
 995	9.8903e+01	0.4043	1.808637	0.000193	1.926472	0.652706	-0.000077
 996	9.9002e+01	0.3561	1.679448	0.000324	3.244584	1.099295	-0.000130
 997	9.9102e+01	0.3080	1.594669	0.000213	2.129258	0.721412	-0.000085
 998	9.9201e+01	0.2743	1.473555	0.000304	3.041798	1.030589	-0.000122
 999	9.9301e+01	0.2326	1.384738	0.000223	2.230652	0.755765	-0.000089
1000	9.9400e+01	0.1925	1.295921	0.000223	2.230652	0.755765	-0.000089
1001	9.9500e+01	0.1604	1.186918	0.000274	2.737618	0.927530	-0.000110
1002	9.9600e+01	0.1171	1.061767	0.000314	3.143191	1.064942	-0.000126
1003	9.9699e+01	0.0786	0.940653	0.000304	3.041798	1.030589	-0.000122
1004	9.9799e+01	0.0353	0.795316	0.000365	3.650157	1.236707	-0.000146
1005	9.9898e+01	0.0096	0.670165	0.000314	3.143191	1.064942	-0.000126
1006	9.9998e+01	-0.0353	0.577310	0.000233	2.332045	0.790118	-0.000093
1007	1.0010e+02	-0.0738	0.440048	0.000345	3.447371	1.168001	-0.000138
1008	1.0020e+02	-0.1139	0.339119	0.000253	2.534831	0.858824	-0.000101
1009	1.0030e+02	-0.1588	0.250302	0.000223	2.230652	0.755765	-0.000089
1010	1.0040e+02	-0.1909	0.137263	0.000284	2.839011	0.961883	-0.000114
1011	1.0050e+02	-0.2246	-0.004037	0.000355	3.548764	1.202354	-0.000142
1012	1.0059e+02	-0.2775	-0.113040	0.000274	2.737618	0.927530	-0.000110
1013	1.0069e+02	-0.3112	-0.173597	0.000152	1.520899	0.515294	-0.000061
1014	1.0079e+02	-0.3481	-0.290674	0.000294	2.940404	0.996236	-0.000118
1015	1.0089e+02	-0.3995	-0.363342	0.000183	1.825079	0.618353	-0.000073
1016	1.0099e+02	-0.4315	-0.516753	0.000385	3.852944	1.305413	-0.000154
1017	1.0109e+02	-0.4797	-0.561162	0.000112	1.115326	0.377883	-0.000045
1018	1.0119e+02	-0.5166	-0.698424	0.000345	3.447371	1.168001	-0.000138
1019	1.0129e+02	-0.5567	-0.819539	0.000304	3.041798	1.030589	-0.000122
1020	1.0139e+02	-0.5904	-0.912393	0.000233	2.332045	0.790118	-0.000093
1021	1.0149e+02	-0.6321	-1.053692	0.000355	3.548764	1.202354	-0.000142
1022	1.0159e+02	-0.6706	-1.158658	0.000264	2.636225	0.893177	-0.000105
1023	1.0169e+02	-0.7139	-1.312069	0.000385	3.852944	1.305413	-0.000154
1024	1.0179e+02	-0.7460	-1.437220	0.000314	3.143191	1.064942	-0.000126
1025	1.0189e+02	-0.7893	-1.526037	0.000223	2.230652	0.755765	-0.000089
1026	1.0199e+02	-0.8310	-1.610817	0.000213	2.129258	0.721412	-0.000085
1027	1.0209e+02	-0.8743	-1.764228	0.000385	3.852944	1.305413	-0.000154
1028	1.0219e+02	-0.9160	-1.913602	0.000375	3.751550	1.271060	-0.000150
1029	1.0229e+02	-0.9449	-2.006456	0.000233	2.332045	0.790118	-0.000093
1030	1.0239e+02	-0.9946	-2.095273	0.000223	2.230652	0.755765	-0.000089
1031	1.0248e+02	-1.0283	-2.196202	0.000253	2.534831	0.858824	-0.000101
1032	1.0258e+02	-1.0636	-2.268870	0.000183	1.825079	0.618353	-0.000073
1033	1.0268e+02	-1.1133	-2.402096	0.000335	3.345977	1.133648	-0.000134
1034	1.0278e+02	-1.1502	-2.486876	0.000213	2.129258	0.721412	-0.000085
1035	1.0288e+02	-1.1887	-2.616064	0.000324	3.244584	1.099295	-0.000130
1036	1.0298e+02	-1.2304	-2.725067	0.000274	2.737618	0.927530	-0.000110
1037	1.0308e+02	-1.2754	-2.858292	0.000335	3.345977	1.133648	-0.000134
1038	1.0318e+02	-1.3171	-2.987480	0.000324	3.244584	1.099295	-0.000130
1039	1.0328e+02	-1.3540	-3.104557	0.000294	2.940404	0.996236	-0.000118
1040	1.0338e+02	-1.3828	-3.221634	0.000294	2.940404	0.996236	-0.000118
1041	1.0348e+02	-1.4278	-3.322563	0.000253	2.534831	0.858824	-0.000101
1042	1.0358e+02	-1.4743	-3.459825	0.000345	3.447371	1.168001	-0.000138
1043	1.0368e+02	-1.5128	-3.568828	0.000274	2.737618	0.927530	-0.000110
1044	1.0378e+02	-1.5481	-3.742425	0.000436	4.359910	1.477177	-0.000174
1045	1.0388e+02	-1.5962	-3.835279	0.000233	2.332045	0.790118	-0.000093
1046	1.0398e+02	-1.6235	-3.932170	0.000243	2.433438	0.824471	-0.000097
1047	1.0408e+02	-1.6684	-4.053284	0.000304	3.041798	1.030589	-0.000122
1048	1.0418e+02	-1.7149	-4.174398	0.000304	3.041798	1.030589	-0.000122
1049	1.0428e+02	-1.7438	-4.243030	0.000172	1.723685	0.584000	-0.000069
1050	1.0438e+02	-1.7791	-4.307624	0.000162	1.622292	0.549647	-0.000065
1051	1.0447e+02	-1.8320	-4.465072	0.000395	3.954337	1.339766	-0.000158
1052	1.0457e+02	-1.8753	-4.509481	0.000112	1.115326	0.377883	-0.000045
1053	1.0467e+02	-1.9090	-4.707300	0.000497	4.968270	1.683295	-0.000199
1054	1.0477e+02	-1.9507	-4.832451	0.000314	3.143191	1.064942	-0.000126
1055	1.0487e+02	-1.9941	-4.921268	0.000223	2.230652	0.755765	-0.000089
1056	1.0497e+02	-2.0358	-5.026234	0.000264	2.636225	0.893177	-0.000105
1057	1.0507e+02	-2.0614	-5.203868	0.000446	4.461303	1.511530	-0.000179
1058	1.0517e+02	-2.1080	-5.268462	0.000162	1.622292	0.549647	-0.000065
1059	1.0527e+02	-2.1449	-5.429948	0.000406	4.055730	1.374119	-0.000162
1060	1.0537e+02	-2.1946	-5.542987	0.000284	2.839011	0.961883	-0.000114
1061	1.0547e+02	-2.2331	-5.656027	0.000284	2.839011	0.961883	-0.000114
1062	1.0557e+02	-2.2716	-5.805401	0.000375	3.751550	1.271060	-0.000150
1063	1.0567e+02	-2.3069	-5.886144	0.000203	2.027865	0.687059	-0.000081
1064	1.0577e+02	-2.3422	-6.011295	0.000314	3.143191	1.064942	-0.000126
1065	1.0587e+02	-2.3903	-6.140483	0.000324	3.244584	1.099295	-0.000130
1066	1.0597e+02	-2.4224	-6.217189	0.000193	1.926472	0.652706	-0.000077
1067	1.0607e+02	-2.4657	-6.326192	0.000274	2.737618	0.927530	-0.000110
1068	1.0617e+02	-2.5202	-6.398860	0.000183	1.825079	0.618353	-0.000073
1069	1.0627e+02	-2.5491	-6.536123	0.000345	3.447371	1.168001	-0.000138
1070	1.0637e+02	-2.5892	-6.649163	0.000284	2.839011	0.961883	-0.000114
1071	1.0647e+02	-2.6277	-6.737980	0.000223	2.230652	0.755765	-0.000089
1072	1.0656e+02	-2.6710	-6.879279	0.000355	3.548764	1.202354	-0.000142
1073	1.0666e+02	-2.6983	-6.996356	0.000294	2.940404	0.996236	-0.000118
1074	1.0676e+02	-2.7464	-7.113433	0.000294	2.940404	0.996236	-0.000118
1075	1.0686e+02	-2.7914	-7.230510	0.000294	2.940404	0.996236	-0.000118
1076	1.0696e+02	-2.8202	-7.371810	0.000355	3.548764	1.202354	-0.000142
1077	1.0706e+02	-2.8603	-7.476775	0.000264	2.636225	0.893177	-0.000105
1078	1.0716e+02	-2.9021	-7.638261	0.000406	4.055730	1.374119	-0.000162
1079	1.0726e+02	-2.9406	-7.731115	0.000233	2.332045	0.790118	-0.000093
1080	1.0736e+02	-2.9839	-7.852229	0.000304	3.041798	1.030589	-0.000122
1081	1.0746e+02	-3.0304	-7.997566	0.000365	3.650157	1.236707	-0.000146
1082	1.0756e+02	-3.0641	-8.150977	0.000385	3.852944	1.305413	-0.000154
1083	1.0766e+02	-3.1090	-8.227683	0.000193	1.926472	0.652706	-0.000077
1084	1.0776e+02	-3.1427	-8.348797	0.000304	3.041798	1.030589	-0.000122
1085	1.0786e+02	-3.1860	-8.417428	0.000172	1.723685	0.584000	-0.000069
1086	1.0796e+02	-3.2309	-8.538542	0.000304	3.041798	1.030589	-0.000122
1087	1.0806e+02	-3.2694	-8.627359	0.000223	2.230652	0.755765	-0.000089
1088	1.0816e+02	-3.3047	-8.716176	0.000223	2.230652	0.755765	-0.000089
1089	1.0826e+02	-3.3448	-8.829216	0.000284	2.839011	0.961883	-0.000114
1090	1.0836e+02	-3.3785	-8.962441	0.000335	3.345977	1.133648	-0.000134
1091	1.0845e+02	-3.4298	-9.091630	0.000324	3.244584	1.099295	-0.000130
1092	1.0855e+02	-3.4651	-9.172372	0.000203	2.027865	0.687059	-0.000081
1093	1.0865e+02	-3.4956	-9.321746	0.000375	3.751550	1.271060	-0.000150
1094	1.0875e+02	-3.5454	-9.450935	0.000324	3.244584	1.099295	-0.000130
1095	1.0885e+02	-3.5774	-9.600309	0.000375	3.751550	1.271060	-0.000150
1096	1.0895e+02	-3.6288	-9.777943	0.000446	4.461303	1.511530	-0.000179
1097	1.0905e+02	-3.6625	-9.814277	0.000091	0.912539	0.309177	-0.000037
1098	1.0915e+02	-3.6978	-9.943465	0.000324	3.244584	1.099295	-0.000130
1099	1.0925e+02	-3.7427	-10.096876	0.000385	3.852944	1.305413	-0.000154
1100	1.0935e+02	-3.7796	-10.177619	0.000203	2.027865	0.687059	-0.000081
1101	1.0945e+02	-3.8245	-10.294696	0.000294	2.940404	0.996236	-0.000118
1102	1.0955e+02	-3.8694	-10.419847	0.000314	3.143191	1.064942	-0.000126
1103	1.0965e+02	-3.8983	-10.536924	0.000294	2.940404	0.996236	-0.000118
1104	1.0975e+02	-3.9448	-10.597481	0.000152	1.520899	0.515294	-0.000061
1105	1.0985e+02	-3.9897	-10.746855	0.000375	3.751550	1.271060	-0.000150
1106	1.0995e+02	-4.0218	-10.827598	0.000203	2.027865	0.687059	-0.000081
1107	1.1005e+02	-4.0699	-10.956786	0.000324	3.244584	1.099295	-0.000130
1108	1.1015e+02	-4.1052	-11.057715	0.000253	2.534831	0.858824	-0.000101
1109	1.1025e+02	-4.1405	-11.158643	0.000253	2.534831	0.858824	-0.000101
1110	1.1035e+02	-4.1806	-11.295906	0.000345	3.447371	1.168001	-0.000138
1111	1.1044e+02	-4.2175	-11.417020	0.000304	3.041798	1.030589	-0.000122
1112	1.1054e+02	-4.2576	-11.526023	0.000274	2.737618	0.927530	-0.000110
1113	1.1064e+02	-4.3026	-11.687508	0.000406	4.055730	1.374119	-0.000162
1114	1.1074e+02	-4.3459	-11.760176	0.000183	1.825079	0.618353	-0.000073
1115	1.1084e+02	-4.3812	-11.905513	0.000365	3.650157	1.236707	-0.000146
1116	1.1094e+02	-4.4197	-12.030664	0.000314	3.143191	1.064942	-0.000126
1117	1.1104e+02	-4.4566	-12.111407	0.000203	2.027865	0.687059	-0.000081
1118	1.1114e+02	-4.4983	-12.236558	0.000314	3.143191	1.064942	-0.000126
1119	1.1124e+02	-4.5400	-12.381895	0.000365	3.650157	1.236707	-0.000146
1120	1.1134e+02	-4.5801	-12.466675	0.000213	2.129258	0.721412	-0.000085
1121	1.1144e+02	-4.6186	-12.595864	0.000324	3.244584	1.099295	-0.000130
1122	1.1154e+02	-4.6619	-12.660458	0.000162	1.622292	0.549647	-0.000065
1123	1.1164e+02	-4.6988	-12.749275	0.000223	2.230652	0.755765	-0.000089
1124	1.1174e+02	-4.7309	-12.846166	0.000243	2.433438	0.824471	-0.000097
1125	1.1184e+02	-4.7806	-12.943057	0.000243	2.433438	0.824471	-0.000097
1126	1.1194e+02	-4.8111	-13.031874	0.000223	2.230652	0.755765	-0.000089
1127	1.1204e+02	-4.8560	-13.152988	0.000304	3.041798	1.030589	-0.000122
1128	1.1214e+02	-4.9090	-13.261991	0.000274	2.737618	0.927530	-0.000110
1129	1.1224e+02	-4.9442	-13.391179	0.000324	3.244584	1.099295	-0.000130
1130	1.1234e+02	-4.9731	-13.508256	0.000294	2.940404	0.996236	-0.000118
1131	1.1244e+02	-5.0180	-13.629370	0.000304	3.041798	1.030589	-0.000122
1132	1.1253e+02	-5.0485	-13.758559	0.000324	3.244584	1.099295	-0.000130
1133	1.1263e+02	-5.1015	-13.903895	0.000365	3.650157	1.236707	-0.000146
1134	1.1273e+02	-5.1384	-14.020972	0.000294	2.940404	0.996236	-0.000118
1135	1.1283e+02	-5.1704	-14.117864	0.000243	2.433438	0.824471	-0.000097
1136	1.1293e+02	-5.2218	-14.279349	0.000406	4.055730	1.374119	-0.000162
1137	1.1303e+02	-5.2555	-14.360092	0.000203	2.027865	0.687059	-0.000081
1138	1.1313e+02	-5.2988	-14.465057	0.000264	2.636225	0.893177	-0.000105
1139	1.1323e+02	-5.3261	-14.570023	0.000264	2.636225	0.893177	-0.000105
1140	1.1333e+02	-5.3774	-14.654803	0.000213	2.129258	0.721412	-0.000085
1141	1.1343e+02	-5.4159	-14.759768	0.000264	2.636225	0.893177	-0.000105
1142	1.1353e+02	-5.4560	-14.876845	0.000294	2.940404	0.996236	-0.000118
1143	1.1363e+02	-5.4945	-14.953551	0.000193	1.926472	0.652706	-0.000077
1144	1.1373e+02	-5.5282	-15.062553	0.000274	2.737618	0.927530	-0.000110
1145	1.1383e+02	-5.5763	-15.171556	0.000274	2.737618	0.927530	-0.000110
1146	1.1393e+02	-5.6164	-15.248262	0.000193	1.926472	0.652706	-0.000077
1147	1.1403e+02	-5.6549	-15.373413	0.000314	3.143191	1.064942	-0.000126
1148	1.1413e+02	-5.6950	-15.498564	0.000314	3.143191	1.064942	-0.000126
1149	1.1423e+02	-5.7367	-15.627752	0.000324	3.244584	1.099295	-0.000130
1150	1.1433e+02	-5.7752	-15.801349	0.000436	4.359910	1.477177	-0.000174
1151	1.1442e+02	-5.8234	-15.874018	0.000183	1.825079	0.618353	-0.000073
1152	1.1452e+02	-5.8571	-16.035503	0.000406	4.055730	1.374119	-0.000162
1153	1.1462e+02	-5.8988	-16.096060	0.000152	1.520899	0.515294	-0.000061
1154	1.1472e+02	-5.9325	-16.217174	0.000304	3.041798	1.030589	-0.000122
1155	1.1482e+02	-5.9629	-16.293880	0.000193	1.926472	0.652706	-0.000077
1156	1.1492e+02	-6.0095	-16.451328	0.000395	3.954337	1.339766	-0.000158
1157	1.1502e+02	-6.0592	-16.523997	0.000183	1.825079	0.618353	-0.000073
1158	1.1512e+02	-6.0881	-16.620888	0.000243	2.433438	0.824471	-0.000097
1159	1.1522e+02	-6.1218	-16.693556	0.000183	1.825079	0.618353	-0.000073
1160	1.1532e+02	-6.1715	-16.766225	0.000183	1.825079	0.618353	-0.000073
1161	1.1542e+02	-6.2100	-16.915599	0.000375	3.751550	1.271060	-0.000150
1162	1.1552e+02	-6.2549	-16.984230	0.000172	1.723685	0.584000	-0.000069
1163	1.1562e+02	-6.2934	-17.101307	0.000294	2.940404	0.996236	-0.000118
1164	1.1572e+02	-6.3351	-17.173975	0.000183	1.825079	0.618353	-0.000073
1165	1.1582e+02	-6.3752	-17.351609	0.000446	4.461303	1.511530	-0.000179
1166	1.1592e+02	-6.4025	-17.424278	0.000183	1.825079	0.618353	-0.000073
1167	1.1602e+02	-6.4458	-17.553466	0.000324	3.244584	1.099295	-0.000130
1168	1.1612e+02	-6.4923	-17.650357	0.000243	2.433438	0.824471	-0.000097
1169	1.1622e+02	-6.5308	-17.803769	0.000385	3.852944	1.305413	-0.000154
1170	1.1632e+02	-6.5693	-17.900660	0.000243	2.433438	0.824471	-0.000097
1171	1.1642e+02	-6.6094	-18.013700	0.000284	2.839011	0.961883	-0.000114
1172	1.1651e+02	-6.6560	-18.114628	0.000253	2.534831	0.858824	-0.000101
1173	1.1661e+02	-6.6897	-18.251891	0.000345	3.447371	1.168001	-0.000138
1174	1.1671e+02	-6.7314	-18.324559	0.000183	1.825079	0.618353	-0.000073
1175	1.1681e+02	-6.7715	-18.453747	0.000324	3.244584	1.099295	-0.000130
1176	1.1691e+02	-6.8036	-18.530453	0.000193	1.926472	0.652706	-0.000077
1177	1.1701e+02	-6.8453	-18.659641	0.000324	3.244584	1.099295	-0.000130
1178	1.1711e+02	-6.8982	-18.708087	0.000122	1.216719	0.412236	-0.000049
1179	1.1721e+02	-6.9319	-18.817090	0.000274	2.737618	0.927530	-0.000110
1180	1.1731e+02	-6.9704	-18.946278	0.000324	3.244584	1.099295	-0.000130
1181	1.1741e+02	-7.0073	-19.031058	0.000213	2.129258	0.721412	-0.000085
1182	1.1751e+02	-7.0442	-19.144098	0.000284	2.839011	0.961883	-0.000114
1183	1.1761e+02	-7.0843	-19.281360	0.000345	3.447371	1.168001	-0.000138
1184	1.1771e+02	-7.1308	-19.382289	0.000253	2.534831	0.858824	-0.000101
1185	1.1781e+02	-7.1725	-19.563960	0.000456	4.562696	1.545883	-0.000183
1186	1.1791e+02	-7.2030	-19.632591	0.000172	1.723685	0.584000	-0.000069
1187	1.1801e+02	-7.2383	-19.753705	0.000304	3.041798	1.030589	-0.000122
1188	1.1811e+02	-7.2864	-19.834448	0.000203	2.027865	0.687059	-0.000081
1189	1.1821e+02	-7.3249	-19.931339	0.000243	2.433438	0.824471	-0.000097
1190	1.1831e+02	-7.3602	-20.060527	0.000324	3.244584	1.099295	-0.000130
1191	1.1841e+02	-7.4116	-20.157419	0.000243	2.433438	0.824471	-0.000097
1192	1.1850e+02	-7.4420	-20.246236	0.000223	2.230652	0.755765	-0.000089
1193	1.1860e+02	-7.4886	-20.347164	0.000253	2.534831	0.858824	-0.000101
1194	1.1870e+02	-7.5222	-20.492501	0.000365	3.650157	1.236707	-0.000146
1195	1.1880e+02	-7.5624	-20.573244	0.000203	2.027865	0.687059	-0.000081
1196	1.1890e+02	-7.6073	-20.666098	0.000233	2.332045	0.790118	-0.000093
1197	1.1900e+02	-7.6442	-20.767026	0.000253	2.534831	0.858824	-0.000101
1198	1.1910e+02	-7.6875	-20.851806	0.000213	2.129258	0.721412	-0.000085
1199	1.1920e+02	-7.7292	-20.993106	0.000355	3.548764	1.202354	-0.000142
1200	1.1930e+02	-7.7565	-21.077886	0.000213	2.129258	0.721412	-0.000085
1201	1.1940e+02	-7.8030	-21.227260	0.000375	3.751550	1.271060	-0.000150
1202	1.1950e+02	-7.8463	-21.356448	0.000324	3.244584	1.099295	-0.000130
1203	1.1960e+02	-7.8848	-21.485636	0.000324	3.244584	1.099295	-0.000130
1204	1.1970e+02	-7.9201	-21.538119	0.000132	1.318112	0.446589	-0.000053
1205	1.1980e+02	-7.9682	-21.659233	0.000304	3.041798	1.030589	-0.000122
1206	1.1990e+02	-8.0035	-21.820719	0.000406	4.055730	1.374119	-0.000162
1207	1.2000e+02	-8.0516	-21.933758	0.000284	2.839011	0.961883	-0.000114
1208	1.2010e+02	-8.0789	-22.022575	0.000223	2.230652	0.755765	-0.000089
1209	1.2020e+02	-8.1222	-22.103318	0.000203	2.027865	0.687059	-0.000081
1210	1.2030e+02	-8.1720	-22.204247	0.000253	2.534831	0.858824	-0.000101
1211	1.2039e+02	-8.2057	-22.329398	0.000314	3.143191	1.064942	-0.000126
1212	1.2049e+02	-8.2393	-22.454549	0.000314	3.143191	1.064942	-0.000126
1213	1.2059e+02	-8.2859	-22.539329	0.000213	2.129258	0.721412	-0.000085
1214	1.2069e+02	-8.3228	-22.628146	0.000223	2.230652	0.755765	-0.000089
1215	1.2079e+02	-8.3661	-22.745223	0.000294	2.940404	0.996236	-0.000118
1216	1.2089e+02	-8.3966	-22.793668	0.000122	1.216719	0.412236	-0.000049
1217	1.2099e+02	-8.4495	-22.922857	0.000324	3.244584	1.099295	-0.000130
1218	1.2109e+02	-8.4864	-23.048008	0.000314	3.143191	1.064942	-0.000126
1219	1.2119e+02	-8.5217	-23.181233	0.000335	3.345977	1.133648	-0.000134
1220	1.2129e+02	-8.5698	-23.278125	0.000243	2.433438	0.824471	-0.000097
1221	1.2139e+02	-8.6019	-23.427499	0.000375	3.751550	1.271060	-0.000150
1222	1.2149e+02	-8.6436	-23.544576	0.000294	2.940404	0.996236	-0.000118
1223	1.2159e+02	-8.6837	-23.649541	0.000264	2.636225	0.893177	-0.000105
1224	1.2169e+02	-8.7222	-23.770655	0.000304	3.041798	1.030589	-0.000122
1225	1.2179e+02	-8.7591	-23.851398	0.000203	2.027865	0.687059	-0.000081
1226	1.2189e+02	-8.7944	-23.960401	0.000274	2.737618	0.927530	-0.000110
1227	1.2199e+02	-8.8506	-24.061329	0.000253	2.534831	0.858824	-0.000101
1228	1.2209e+02	-8.8842	-24.206666	0.000365	3.650157	1.236707	-0.000146
1229	1.2219e+02	-8.9356	-24.295483	0.000223	2.230652	0.755765	-0.000089
1230	1.2229e+02	-8.9661	-24.424671	0.000324	3.244584	1.099295	-0.000130
1231	1.2239e+02	-9.0030	-24.489265	0.000162	1.622292	0.549647	-0.000065
1232	1.2248e+02	-9.0415	-24.574045	0.000213	2.129258	0.721412	-0.000085
1233	1.2258e+02	-9.0767	-24.679011	0.000264	2.636225	0.893177	-0.000105
1234	1.2268e+02	-9.1185	-24.836459	0.000395	3.954337	1.339766	-0.000158
1235	1.2278e+02	-9.1554	-24.937387	0.000253	2.534831	0.858824	-0.000101
1236	1.2288e+02	-9.1971	-25.030242	0.000233	2.332045	0.790118	-0.000093
1237	1.2298e+02	-9.2356	-25.123096	0.000233	2.332045	0.790118	-0.000093
1238	1.2308e+02	-9.2725	-25.292655	0.000426	4.258517	1.442825	-0.000170
1239	1.2318e+02	-9.3174	-25.429918	0.000345	3.447371	1.168001	-0.000138
1240	1.2328e+02	-9.3511	-25.530846	0.000253	2.534831	0.858824	-0.000101
1241	1.2338e+02	-9.3944	-25.615626	0.000213	2.129258	0.721412	-0.000085
1242	1.2348e+02	-9.4329	-25.748852	0.000335	3.345977	1.133648	-0.000134
1243	1.2358e+02	-9.4858	-25.865929	0.000294	2.940404	0.996236	-0.000118
1244	1.2368e+02	-9.5211	-25.999154	0.000335	3.345977	1.133648	-0.000134
1245	1.2378e+02	-9.5548	-26.079897	0.000203	2.027865	0.687059	-0.000081
1246	1.2388e+02	-9.5997	-26.156602	0.000193	1.926472	0.652706	-0.000077
1247	1.2398e+02	-9.6527	-26.293865	0.000345	3.447371	1.168001	-0.000138
1248	1.2408e+02	-9.6767	-26.435165	0.000355	3.548764	1.202354	-0.000142
1249	1.2418e+02	-9.7152	-26.536093	0.000253	2.534831	0.858824	-0.000101
1250	1.2428e+02	-9.7618	-26.604725	0.000172	1.723685	0.584000	-0.000069
1251	1.2438e+02	-9.8003	-26.681430	0.000193	1.926472	0.652706	-0.000077
1252	1.2447e+02	-9.8372	-26.762173	0.000203	2.027865	0.687059	-0.000081
1253	1.2457e+02	-9.8805	-26.903473	0.000355	3.548764	1.202354	-0.000142
1254	1.2467e+02	-9.9126	-27.008438	0.000264	2.636225	0.893177	-0.000105
1255	1.2477e+02	-9.9559	-27.133589	0.000314	3.143191	1.064942	-0.000126
1256	1.2487e+02	-9.9928	-27.266815	0.000335	3.345977	1.133648	-0.000134
1257	1.2497e+02	-10.0329	-27.371780	0.000264	2.636225	0.893177	-0.000105
1258	1.2507e+02	-10.0666	-27.488857	0.000294	2.940404	0.996236	-0.000118
1259	1.2517e+02	-10.1115	-27.618046	0.000324	3.244584	1.099295	-0.000130
1260	1.2527e+02	-10.1580	-27.690714	0.000183	1.825079	0.618353	-0.000073
1261	1.2537e+02	-10.1917	-27.819902	0.000324	3.244584	1.099295	-0.000130
1262	1.2547e+02	-10.2238	-27.908719	0.000223	2.230652	0.755765	-0.000089
1263	1.2557e+02	-10.2655	-28.070205	0.000406	4.055730	1.374119	-0.000162
1264	1.2567e+02	-10.3248	-28.114613	0.000112	1.115326	0.377883	-0.000045
1265	1.2577e+02	-10.3553	-28.263987	0.000375	3.751550	1.271060	-0.000150
1266	1.2587e+02	-10.3874	-28.389139	0.000314	3.143191	1.064942	-0.000126
1267	1.2597e+02	-10.4387	-28.441621	0.000132	1.318112	0.446589	-0.000053
1268	1.2607e+02	-10.4837	-28.526401	0.000213	2.129258	0.721412	-0.000085
1269	1.2617e+02	-10.5141	-28.671738	0.000365	3.650157	1.236707	-0.000146
1270	1.2627e+02	-10.5462	-28.752481	0.000203	2.027865	0.687059	-0.000081
1271	1.2636e+02	-10.5960	-28.881669	0.000324	3.244584	1.099295	-0.000130
1272	1.2646e+02	-10.6280	-28.982597	0.000253	2.534831	0.858824	-0.000101
1273	1.2656e+02	-10.6698	-29.115823	0.000335	3.345977	1.133648	-0.000134
1274	1.2666e+02	-10.7083	-29.212714	0.000243	2.433438	0.824471	-0.000097
1275	1.2676e+02	-10.7403	-29.362088	0.000375	3.751550	1.271060	-0.000150
1276	1.2686e+02	-10.7869	-29.458979	0.000243	2.433438	0.824471	-0.000097
1277	1.2696e+02	-10.8270	-29.559908	0.000253	2.534831	0.858824	-0.000101
1278	1.2706e+02	-10.8735	-29.676985	0.000294	2.940404	0.996236	-0.000118
1279	1.2716e+02	-10.9152	-29.781950	0.000264	2.636225	0.893177	-0.000105
1280	1.2726e+02	-10.9553	-29.862693	0.000203	2.027865	0.687059	-0.000081
1281	1.2736e+02	-10.9906	-29.967659	0.000264	2.636225	0.893177	-0.000105
1282	1.2746e+02	-11.0339	-30.076661	0.000274	2.737618	0.927530	-0.000110
1283	1.2756e+02	-11.0644	-30.197775	0.000304	3.041798	1.030589	-0.000122
1284	1.2766e+02	-11.1189	-30.302741	0.000264	2.636225	0.893177	-0.000105
1285	1.2776e+02	-11.1542	-30.387521	0.000213	2.129258	0.721412	-0.000085
1286	1.2786e+02	-11.1847	-30.464226	0.000193	1.926472	0.652706	-0.000077
1287	1.2796e+02	-11.2409	-30.589377	0.000314	3.143191	1.064942	-0.000126
1288	1.2806e+02	-11.2697	-30.674157	0.000213	2.129258	0.721412	-0.000085
1289	1.2816e+02	-11.3147	-30.803346	0.000324	3.244584	1.099295	-0.000130
1290	1.2826e+02	-11.3516	-30.928497	0.000314	3.143191	1.064942	-0.000126
1291	1.2835e+02	-11.3901	-30.980980	0.000132	1.318112	0.446589	-0.000053
1292	1.2845e+02	-11.4221	-31.150539	0.000426	4.258517	1.442825	-0.000170
1293	1.2855e+02	-11.4655	-31.247431	0.000243	2.433438	0.824471	-0.000097
1294	1.2865e+02	-11.5023	-31.352396	0.000264	2.636225	0.893177	-0.000105
1295	1.2875e+02	-11.5569	-31.465436	0.000284	2.839011	0.961883	-0.000114
1296	1.2885e+02	-11.5922	-31.606736	0.000355	3.548764	1.202354	-0.000142
1297	1.2895e+02	-11.6227	-31.683441	0.000193	1.926472	0.652706	-0.000077
1298	1.2905e+02	-11.6756	-31.788407	0.000264	2.636225	0.893177	-0.000105
1299	1.2915e+02	-11.7109	-31.885298	0.000243	2.433438	0.824471	-0.000097
1300	1.2925e+02	-11.7446	-31.966041	0.000203	2.027865	0.687059	-0.000081
1301	1.2935e+02	-11.7863	-32.071006	0.000264	2.636225	0.893177	-0.000105
1302	1.2945e+02	-11.8200	-32.192120	0.000304	3.041798	1.030589	-0.000122
1303	1.2955e+02	-11.8633	-32.252677	0.000152	1.520899	0.515294	-0.000061
1304	1.2965e+02	-11.9050	-32.329383	0.000193	1.926472	0.652706	-0.000077
1305	1.2975e+02	-11.9483	-32.442423	0.000284	2.839011	0.961883	-0.000114
1306	1.2985e+02	-11.9884	-32.515091	0.000183	1.825079	0.618353	-0.000073
1307	1.2995e+02	-12.0221	-32.676577	0.000406	4.055730	1.374119	-0.000162
1308	1.3005e+02	-12.0638	-32.785579	0.000274	2.737618	0.927530	-0.000110
1309	1.3015e+02	-12.1104	-32.886508	0.000253	2.534831	0.858824	-0.000101
1310	1.3025e+02	-12.1376	-33.011659	0.000314	3.143191	1.064942	-0.000126
1311	1.3034e+02	-12.1841	-33.104513	0.000233	2.332045	0.790118	-0.000093
1312	1.3044e+02	-12.2291	-33.274073	0.000426	4.258517	1.442825	-0.000170
1313	1.3054e+02	-12.2563	-33.366927	0.000233	2.332045	0.790118	-0.000093
1314	1.3064e+02	-12.3093	-33.439595	0.000183	1.825079	0.618353	-0.000073
1315	1.3074e+02	-12.3478	-33.580895	0.000355	3.548764	1.202354	-0.000142
1316	1.3084e+02	-12.3879	-33.621266	0.000101	1.013933	0.343530	-0.000041
1317	1.3094e+02	-12.4312	-33.770640	0.000375	3.751550	1.271060	-0.000150
1318	1.3104e+02	-12.4601	-33.835235	0.000162	1.622292	0.549647	-0.000065
1319	1.3114e+02	-12.5082	-33.920014	0.000213	2.129258	0.721412	-0.000085
1320	1.3124e+02	-12.5515	-34.033054	0.000284	2.839011	0.961883	-0.000114
1321	1.3134e+02	-12.5868	-34.101686	0.000172	1.723685	0.584000	-0.000069
1322	1.3144e+02	-12.6269	-34.182428	0.000203	2.027865	0.687059	-0.000081
1323	1.3154e+02	-12.6702	-34.303542	0.000304	3.041798	1.030589	-0.000122
1324	1.3164e+02	-12.7087	-34.380248	0.000193	1.926472	0.652706	-0.000077
1325	1.3174e+02	-12.7504	-34.493288	0.000284	2.839011	0.961883	-0.000114
1326	1.3184e+02	-12.7873	-34.582105	0.000223	2.230652	0.755765	-0.000089
1327	1.3194e+02	-12.8226	-34.715330	0.000335	3.345977	1.133648	-0.000134
1328	1.3204e+02	-12.8611	-34.864704	0.000375	3.751550	1.271060	-0.000150
1329	1.3214e+02	-12.9044	-34.945447	0.000203	2.027865	0.687059	-0.000081
1330	1.3224e+02	-12.9365	-35.030227	0.000213	2.129258	0.721412	-0.000085
1331	1.3234e+02	-12.9798	-35.143267	0.000284	2.839011	0.961883	-0.000114
1332	1.3243e+02	-13.0248	-35.236121	0.000233	2.332045	0.790118	-0.000093
1333	1.3253e+02	-13.0633	-35.365309	0.000324	3.244584	1.099295	-0.000130
1334	1.3263e+02	-13.1050	-35.470275	0.000264	2.636225	0.893177	-0.000105
1335	1.3273e+02	-13.1467	-35.555054	0.000213	2.129258	0.721412	-0.000085
1336	1.3283e+02	-13.1772	-35.643871	0.000223	2.230652	0.755765	-0.000089
1337	1.3293e+02	-13.2189	-35.740763	0.000243	2.433438	0.824471	-0.000097
1338	1.3303e+02	-13.2654	-35.857840	0.000294	2.940404	0.996236	-0.000118
1339	1.3313e+02	-13.3055	-35.902248	0.000112	1.115326	0.377883	-0.000045
1340	1.3323e+02	-13.3456	-35.987028	0.000213	2.129258	0.721412	-0.000085
1341	1.3333e+02	-13.3825	-36.091993	0.000264	2.636225	0.893177	-0.000105
1342	1.3343e+02	-13.4146	-36.200996	0.000274	2.737618	0.927530	-0.000110
1343	1.3353e+02	-13.4627	-36.318073	0.000294	2.940404	0.996236	-0.000118
1344	1.3363e+02	-13.4996	-36.414964	0.000243	2.433438	0.824471	-0.000097
1345	1.3373e+02	-13.5397	-36.519930	0.000264	2.636225	0.893177	-0.000105
1346	1.3383e+02	-13.5734	-36.600673	0.000203	2.027865	0.687059	-0.000081
1347	1.3393e+02	-13.6215	-36.733898	0.000335	3.345977	1.133648	-0.000134
1348	1.3403e+02	-13.6600	-36.871161	0.000345	3.447371	1.168001	-0.000138
1349	1.3413e+02	-13.6985	-36.964015	0.000233	2.332045	0.790118	-0.000093
1350	1.3423e+02	-13.7322	-37.024572	0.000152	1.520899	0.515294	-0.000061
1351	1.3432e+02	-13.7772	-37.182020	0.000395	3.954337	1.339766	-0.000158
1352	1.3442e+02	-13.8205	-37.282949	0.000253	2.534831	0.858824	-0.000101
1353	1.3452e+02	-13.8638	-37.375803	0.000233	2.332045	0.790118	-0.000093
1354	1.3462e+02	-13.9023	-37.440397	0.000162	1.622292	0.549647	-0.000065
1355	1.3472e+02	-13.9344	-37.533251	0.000233	2.332045	0.790118	-0.000093
1356	1.3482e+02	-13.9761	-37.654365	0.000304	3.041798	1.030589	-0.000122
1357	1.3492e+02	-14.0242	-37.710885	0.000142	1.419506	0.480942	-0.000057
1358	1.3502e+02	-14.0579	-37.823925	0.000284	2.839011	0.961883	-0.000114
1359	1.3512e+02	-14.0980	-37.941002	0.000294	2.940404	0.996236	-0.000118
1360	1.3522e+02	-14.1413	-37.981373	0.000101	1.013933	0.343530	-0.000041
1361	1.3532e+02	-14.1926	-38.110561	0.000324	3.244584	1.099295	-0.000130
1362	1.3542e+02	-14.2183	-38.175156	0.000162	1.622292	0.549647	-0.000065
1363	1.3552e+02	-14.2616	-38.340678	0.000416	4.157123	1.408472	-0.000166
1364	1.3562e+02	-14.2969	-38.421421	0.000203	2.027865	0.687059	-0.000081
1365	1.3572e+02	-14.3306	-38.550609	0.000324	3.244584	1.099295	-0.000130
1366	1.3582e+02	-14.3787	-38.659612	0.000274	2.737618	0.927530	-0.000110
1367	1.3592e+02	-14.4156	-38.740355	0.000203	2.027865	0.687059	-0.000081
1368	1.3602e+02	-14.4573	-38.841283	0.000253	2.534831	0.858824	-0.000101
1369	1.3612e+02	-14.4942	-39.006806	0.000416	4.157123	1.408472	-0.000166
1370	1.3622e+02	-14.5392	-39.039103	0.000081	0.811146	0.274824	-0.000032
1371	1.3631e+02	-14.5793	-39.220774	0.000456	4.562696	1.545883	-0.000183
1372	1.3641e+02	-14.6194	-39.289405	0.000172	1.723685	0.584000	-0.000069
1373	1.3651e+02	-14.6595	-39.390333	0.000253	2.534831	0.858824	-0.000101
1374	1.3661e+02	-14.7028	-39.434742	0.000112	1.115326	0.377883	-0.000045
1375	1.3671e+02	-14.7365	-39.527596	0.000233	2.332045	0.790118	-0.000093
1376	1.3681e+02	-14.7830	-39.628524	0.000253	2.534831	0.858824	-0.000101
1377	1.3691e+02	-14.8199	-39.717341	0.000223	2.230652	0.755765	-0.000089
1378	1.3701e+02	-14.8584	-39.822307	0.000264	2.636225	0.893177	-0.000105
1379	1.3711e+02	-14.8889	-39.907087	0.000213	2.129258	0.721412	-0.000085
1380	1.3721e+02	-14.9306	-40.076646	0.000426	4.258517	1.442825	-0.000170
1381	1.3731e+02	-14.9691	-40.189686	0.000284	2.839011	0.961883	-0.000114
1382	1.3741e+02	-15.0108	-40.266392	0.000193	1.926472	0.652706	-0.000077
1383	1.3751e+02	-15.0509	-40.391543	0.000314	3.143191	1.064942	-0.000126
1384	1.3761e+02	-15.0894	-40.488434	0.000243	2.433438	0.824471	-0.000097
1385	1.3771e+02	-15.1391	-40.597437	0.000274	2.737618	0.927530	-0.000110
1386	1.3781e+02	-15.1776	-40.714514	0.000294	2.940404	0.996236	-0.000118
1387	1.3791e+02	-15.2161	-40.823517	0.000274	2.737618	0.927530	-0.000110
1388	1.3801e+02	-15.2514	-40.888111	0.000162	1.622292	0.549647	-0.000065
1389	1.3811e+02	-15.2899	-41.041522	0.000385	3.852944	1.305413	-0.000154
1390	1.3821e+02	-15.3284	-41.130339	0.000223	2.230652	0.755765	-0.000089
1391	1.3831e+02	-15.3830	-41.198970	0.000172	1.723685	0.584000	-0.000069
1392	1.3840e+02	-15.4119	-41.291824	0.000233	2.332045	0.790118	-0.000093
1393	1.3850e+02	-15.4472	-41.408901	0.000294	2.940404	0.996236	-0.000118
1394	1.3860e+02	-15.5017	-41.489644	0.000203	2.027865	0.687059	-0.000081
1395	1.3870e+02	-15.5306	-41.586535	0.000243	2.433438	0.824471	-0.000097
1396	1.3880e+02	-15.5739	-41.699575	0.000284	2.839011	0.961883	-0.000114
1397	1.3890e+02	-15.6092	-41.812615	0.000284	2.839011	0.961883	-0.000114
1398	1.3900e+02	-15.6477	-41.921618	0.000274	2.737618	0.927530	-0.000110
1399	1.3910e+02	-15.6942	-42.018509	0.000243	2.433438	0.824471	-0.000097
1400	1.3920e+02	-15.7295	-42.099251	0.000203	2.027865	0.687059	-0.000081
1401	1.3930e+02	-15.7712	-42.252663	0.000385	3.852944	1.305413	-0.000154
1402	1.3940e+02	-15.8081	-42.373777	0.000304	3.041798	1.030589	-0.000122
1403	1.3950e+02	-15.8530	-42.482779	0.000274	2.737618	0.927530	-0.000110
1404	1.3960e+02	-15.8899	-42.583708	0.000253	2.534831	0.858824	-0.000101
1405	1.3970e+02	-15.9364	-42.704822	0.000304	3.041798	1.030589	-0.000122
1406	1.3980e+02	-15.9733	-42.737119	0.000081	0.811146	0.274824	-0.000032
1407	1.3990e+02	-16.0183	-42.918790	0.000456	4.562696	1.545883	-0.000183
1408	1.4000e+02	-16.0600	-42.979347	0.000152	1.520899	0.515294	-0.000061
1409	1.4010e+02	-16.0937	-43.112573	0.000335	3.345977	1.133648	-0.000134
1410	1.4020e+02	-16.1290	-43.185241	0.000183	1.825079	0.618353	-0.000073
1411	1.4029e+02	-16.1755	-43.237724	0.000132	1.318112	0.446589	-0.000053
1412	1.4039e+02	-16.2172	-43.346726	0.000274	2.737618	0.927530	-0.000110
1413	1.4049e+02	-16.2509	-43.443618	0.000243	2.433438	0.824471	-0.000097
1414	1.4059e+02	-16.2878	-43.572806	0.000324	3.244584	1.099295	-0.000130
1415	1.4069e+02	-16.3327	-43.718143	0.000365	3.650157	1.236707	-0.000146
1416	1.4079e+02	-16.3584	-43.806960	0.000223	2.230652	0.755765	-0.000089
1417	1.4089e+02	-16.4145	-43.895777	0.000223	2.230652	0.755765	-0.000089
1418	1.4099e+02	-16.4402	-44.024965	0.000324	3.244584	1.099295	-0.000130
1419	1.4109e+02	-16.4883	-44.113782	0.000223	2.230652	0.755765	-0.000089
1420	1.4119e+02	-16.5300	-44.230859	0.000294	2.940404	0.996236	-0.000118
1421	1.4129e+02	-16.5701	-44.343899	0.000284	2.839011	0.961883	-0.000114
1422	1.4139e+02	-16.6086	-44.432716	0.000223	2.230652	0.755765	-0.000089
1423	1.4149e+02	-16.6455	-44.525570	0.000233	2.332045	0.790118	-0.000093
1424	1.4159e+02	-16.6904	-44.610350	0.000213	2.129258	0.721412	-0.000085
1425	1.4169e+02	-16.7338	-44.763761	0.000385	3.852944	1.305413	-0.000154
1426	1.4179e+02	-16.7739	-44.852578	0.000223	2.230652	0.755765	-0.000089
1427	1.4189e+02	-16.8043	-44.949469	0.000243	2.433438	0.824471	-0.000097
1428	1.4199e+02	-16.8477	-45.018101	0.000172	1.723685	0.584000	-0.000069
1429	1.4209e+02	-16.8829	-45.167475	0.000375	3.751550	1.271060	-0.000150
1430	1.4219e+02	-16.9295	-45.260329	0.000233	2.332045	0.790118	-0.000093
1431	1.4228e+02	-16.9680	-45.312812	0.000132	1.318112	0.446589	-0.000053
1432	1.4238e+02	-17.0065	-45.502557	0.000477	4.765483	1.614589	-0.000191
1433	1.4248e+02	-17.0466	-45.575225	0.000183	1.825079	0.618353	-0.000073
1434	1.4258e+02	-17.0835	-45.668079	0.000233	2.332045	0.790118	-0.000093
1435	1.4268e+02	-17.1252	-45.777082	0.000274	2.737618	0.927530	-0.000110
1436	1.4278e+02	-17.1765	-45.898196	0.000304	3.041798	1.030589	-0.000122
1437	1.4288e+02	-17.2166	-45.970865	0.000183	1.825079	0.618353	-0.000073
1438	1.4298e+02	-17.2487	-46.083904	0.000284	2.839011	0.961883	-0.000114
1439	1.4308e+02	-17.2872	-46.128313	0.000112	1.115326	0.377883	-0.000045
1440	1.4318e+02	-17.3241	-46.301910	0.000436	4.359910	1.477177	-0.000174
1441	1.4328e+02	-17.3722	-46.386690	0.000213	2.129258	0.721412	-0.000085
1442	1.4338e+02	-17.4091	-46.515878	0.000324	3.244584	1.099295	-0.000130
1443	1.4348e+02	-17.4428	-46.588546	0.000183	1.825079	0.618353	-0.000073
1444	1.4358e+02	-17.4910	-46.709660	0.000304	3.041798	1.030589	-0.000122
1445	1.4368e+02	-17.5262	-46.790403	0.000203	2.027865	0.687059	-0.000081
1446	1.4378e+02	-17.5567	-46.911517	0.000304	3.041798	1.030589	-0.000122
1447	1.4388e+02	-17.6097	-47.052817	0.000355	3.548764	1.202354	-0.000142
1448	1.4398e+02	-17.6450	-47.097226	0.000112	1.115326	0.377883	-0.000045
1449	1.4408e+02	-17.6835	-47.186043	0.000223	2.230652	0.755765	-0.000089
1450	1.4418e+02	-17.7204	-47.319268	0.000335	3.345977	1.133648	-0.000134
1451	1.4428e+02	-17.7685	-47.428271	0.000274	2.737618	0.927530	-0.000110
1452	1.4437e+02	-17.8086	-47.513051	0.000213	2.129258	0.721412	-0.000085
1453	1.4447e+02	-17.8423	-47.601867	0.000223	2.230652	0.755765	-0.000089
1454	1.4457e+02	-17.8840	-47.662425	0.000152	1.520899	0.515294	-0.000061
1455	1.4467e+02	-17.9257	-47.803724	0.000355	3.548764	1.202354	-0.000142
1456	1.4477e+02	-17.9578	-47.904653	0.000253	2.534831	0.858824	-0.000101
1457	1.4487e+02	-17.9995	-47.965210	0.000152	1.520899	0.515294	-0.000061
1458	1.4497e+02	-18.0492	-48.086324	0.000304	3.041798	1.030589	-0.000122
1459	1.4507e+02	-18.0765	-48.187252	0.000253	2.534831	0.858824	-0.000101
1460	1.4517e+02	-18.1230	-48.284143	0.000243	2.433438	0.824471	-0.000097
1461	1.4527e+02	-18.1615	-48.393146	0.000274	2.737618	0.927530	-0.000110
1462	1.4537e+02	-18.2096	-48.486000	0.000233	2.332045	0.790118	-0.000093
1463	1.4547e+02	-18.2481	-48.546557	0.000152	1.520899	0.515294	-0.000061
1464	1.4557e+02	-18.2786	-48.663634	0.000294	2.940404	0.996236	-0.000118
1465	1.4567e+02	-18.3219	-48.780711	0.000294	2.940404	0.996236	-0.000118
1466	1.4577e+02	-18.3540	-48.873565	0.000233	2.332045	0.790118	-0.000093
1467	1.4587e+02	-18.4054	-48.966419	0.000233	2.332045	0.790118	-0.000093
1468	1.4597e+02	-18.4326	-49.051199	0.000213	2.129258	0.721412	-0.000085
1469	1.4607e+02	-18.4743	-49.168276	0.000294	2.940404	0.996236	-0.000118
1470	1.4617e+02	-18.5273	-49.269205	0.000253	2.534831	0.858824	-0.000101
1471	1.4626e+02	-18.5626	-49.358022	0.000223	2.230652	0.755765	-0.000089
1472	1.4636e+02	-18.5979	-49.475098	0.000294	2.940404	0.996236	-0.000118
1473	1.4646e+02	-18.6428	-49.535656	0.000152	1.520899	0.515294	-0.000061
1474	1.4656e+02	-18.6749	-49.680992	0.000365	3.650157	1.236707	-0.000146
1475	1.4666e+02	-18.7150	-49.753661	0.000183	1.825079	0.618353	-0.000073
1476	1.4676e+02	-18.7567	-49.870738	0.000294	2.940404	0.996236	-0.000118
1477	1.4686e+02	-18.8096	-49.963592	0.000233	2.332045	0.790118	-0.000093
1478	1.4696e+02	-18.8465	-50.076632	0.000284	2.839011	0.961883	-0.000114
1479	1.4706e+02	-18.8866	-50.149300	0.000183	1.825079	0.618353	-0.000073
1480	1.4716e+02	-18.9299	-50.298674	0.000375	3.751550	1.271060	-0.000150
1481	1.4726e+02	-18.9604	-50.351157	0.000132	1.318112	0.446589	-0.000053
1482	1.4736e+02	-18.9989	-50.460160	0.000274	2.737618	0.927530	-0.000110
1483	1.4746e+02	-19.0342	-50.540902	0.000203	2.027865	0.687059	-0.000081
1484	1.4756e+02	-19.0647	-50.629719	0.000223	2.230652	0.755765	-0.000089
1485	1.4766e+02	-19.1176	-50.706425	0.000193	1.926472	0.652706	-0.000077
1486	1.4776e+02	-19.1626	-50.823502	0.000294	2.940404	0.996236	-0.000118
1487	1.4786e+02	-19.1979	-50.972876	0.000375	3.751550	1.271060	-0.000150
1488	1.4796e+02	-19.2380	-51.073804	0.000253	2.534831	0.858824	-0.000101
1489	1.4806e+02	-19.2749	-51.134361	0.000152	1.520899	0.515294	-0.000061
1490	1.4816e+02	-19.3150	-51.190881	0.000142	1.419506	0.480942	-0.000057
1491	1.4825e+02	-19.3535	-51.328144	0.000345	3.447371	1.168001	-0.000138
1492	1.4835e+02	-19.3968	-51.396775	0.000172	1.723685	0.584000	-0.000069
1493	1.4845e+02	-19.4417	-51.530001	0.000335	3.345977	1.133648	-0.000134
1494	1.4855e+02	-19.4834	-51.630929	0.000253	2.534831	0.858824	-0.000101
1495	1.4865e+02	-19.5187	-51.711672	0.000203	2.027865	0.687059	-0.000081
1496	1.4875e+02	-19.5588	-51.804526	0.000233	2.332045	0.790118	-0.000093
1497	1.4885e+02	-19.6037	-51.909491	0.000264	2.636225	0.893177	-0.000105
1498	1.4895e+02	-19.6374	-52.002345	0.000233	2.332045	0.790118	-0.000093
1499	1.4905e+02	-19.6743	-52.083088	0.000203	2.027865	0.687059	-0.000081
1500	1.4915e+02	-19.7160	-52.188054	0.000264	2.636225	0.893177	-0.000105
1501	1.4925e+02	-19.7609	-52.240536	0.000132	1.318112	0.446589	-0.000053
1502	1.4935e+02	-19.7914	-52.349539	0.000274	2.737618	0.927530	-0.000110
1503	1.4945e+02	-19.8331	-52.494876	0.000365	3.650157	1.236707	-0.000146
1504	1.4955e+02	-19.8764	-52.551396	0.000142	1.419506	0.480942	-0.000057
1505	1.4965e+02	-19.9133	-52.680584	0.000324	3.244584	1.099295	-0.000130
1506	1.4975e+02	-19.9567	-52.781513	0.000253	2.534831	0.858824	-0.000101
1507	1.4985e+02	-19.9903	-52.874367	0.000233	2.332045	0.790118	-0.000093
1508	1.4995e+02	-19.9518	-52.825921	0.000122	1.216719	0.412236	0.000049
1509	1.5005e+02	-19.9166	-52.785550	0.000101	1.013933	0.343530	0.000041
1510	1.5015e+02	-19.8684	-52.700770	0.000213	2.129258	0.721412	0.000085
1511	1.5025e+02	-19.8347	-52.664436	0.000091	0.912539	0.309177	0.000037
1512	1.5034e+02	-19.8010	-52.595804	0.000172	1.723685	0.584000	0.000069
1513	1.5044e+02	-19.7641	-52.543322	0.000132	1.318112	0.446589	0.000053
1514	1.5054e+02	-19.7160	-52.434319	0.000274	2.737618	0.927530	0.000110
1515	1.5064e+02	-19.6743	-52.406059	0.000071	0.709753	0.240471	0.000028
1516	1.5074e+02	-19.6374	-52.272834	0.000335	3.345977	1.133648	0.000134
1517	1.5084e+02	-19.6021	-52.248611	0.000061	0.608360	0.206118	0.000024
1518	1.5094e+02	-19.5556	-52.151719	0.000243	2.433438	0.824471	0.000097
1519	1.5104e+02	-19.5155	-52.054828	0.000243	2.433438	0.824471	0.000097
1520	1.5114e+02	-19.4706	-52.006383	0.000122	1.216719	0.412236	0.000049
1521	1.5124e+02	-19.4337	-51.974085	0.000081	0.811146	0.274824	0.000032
1522	1.5134e+02	-19.4032	-51.857009	0.000294	2.940404	0.996236	0.000118
1523	1.5144e+02	-19.3551	-51.760117	0.000243	2.433438	0.824471	0.000097
1524	1.5154e+02	-19.3102	-51.748006	0.000030	0.304180	0.103059	0.000012
1525	1.5164e+02	-19.2765	-51.622855	0.000314	3.143191	1.064942	0.000126
1526	1.5174e+02	-19.2396	-51.602669	0.000051	0.506966	0.171765	0.000020
1527	1.5184e+02	-19.2043	-51.497703	0.000264	2.636225	0.893177	0.000105
1528	1.5194e+02	-19.1561	-51.408886	0.000223	2.230652	0.755765	0.000089
1529	1.5204e+02	-19.1209	-51.352367	0.000142	1.419506	0.480942	0.000057
1530	1.5214e+02	-19.0823	-51.267587	0.000213	2.129258	0.721412	0.000085
1531	1.5224e+02	-19.0406	-51.194918	0.000183	1.825079	0.618353	0.000073
1532	1.5233e+02	-19.0021	-51.162621	0.000081	0.811146	0.274824	0.000032
1533	1.5243e+02	-18.9604	-51.053619	0.000274	2.737618	0.927530	0.000110
1534	1.5253e+02	-18.9283	-50.964802	0.000223	2.230652	0.755765	0.000089
1535	1.5263e+02	-18.8802	-50.908282	0.000142	1.419506	0.480942	0.000057
1536	1.5273e+02	-18.8417	-50.787168	0.000304	3.041798	1.030589	0.000122
1537	1.5283e+02	-18.7936	-50.742759	0.000112	1.115326	0.377883	0.000045
1538	1.5293e+02	-18.7583	-50.666054	0.000193	1.926472	0.652706	0.000077
1539	1.5303e+02	-18.7150	-50.581274	0.000213	2.129258	0.721412	0.000085
1540	1.5313e+02	-18.6781	-50.528791	0.000132	1.318112	0.446589	0.000053
1541	1.5323e+02	-18.6364	-50.472271	0.000142	1.419506	0.480942	0.000057
1542	1.5333e+02	-18.6027	-50.367305	0.000264	2.636225	0.893177	0.000105
1543	1.5343e+02	-18.5578	-50.270414	0.000243	2.433438	0.824471	0.000097
1544	1.5353e+02	-18.5080	-50.213894	0.000142	1.419506	0.480942	0.000057
1545	1.5363e+02	-18.4792	-50.145263	0.000172	1.723685	0.584000	0.000069
1546	1.5373e+02	-18.4423	-50.056446	0.000223	2.230652	0.755765	0.000089
1547	1.5383e+02	-18.4022	-49.971666	0.000213	2.129258	0.721412	0.000085
1548	1.5393e+02	-18.3620	-49.898998	0.000183	1.825079	0.618353	0.000073
1549	1.5403e+02	-18.3235	-49.838441	0.000152	1.520899	0.515294	0.000061
1550	1.5413e+02	-18.2931	-49.749624	0.000223	2.230652	0.755765	0.000089
1551	1.5422e+02	-18.2449	-49.660807	0.000223	2.230652	0.755765	0.000089
1552	1.5432e+02	-18.2145	-49.600250	0.000152	1.520899	0.515294	0.000061
1553	1.5442e+02	-18.1647	-49.503358	0.000243	2.433438	0.824471	0.000097
1554	1.5452e+02	-18.1310	-49.430690	0.000183	1.825079	0.618353	0.000073
1555	1.5462e+02	-18.0781	-49.374170	0.000142	1.419506	0.480942	0.000057
1556	1.5472e+02	-18.0444	-49.265167	0.000274	2.737618	0.927530	0.000110
1557	1.5482e+02	-17.9963	-49.200573	0.000162	1.622292	0.549647	0.000065
1558	1.5492e+02	-17.9690	-49.119831	0.000203	2.027865	0.687059	0.000081
1559	1.5502e+02	-17.9193	-49.022939	0.000243	2.433438	0.824471	0.000097
1560	1.5512e+02	-17.8776	-48.909899	0.000284	2.839011	0.961883	0.000114
1561	1.5522e+02	-17.8487	-48.857417	0.000132	1.318112	0.446589	0.000053
1562	1.5532e+02	-17.8038	-48.764563	0.000233	2.332045	0.790118	0.000093
1563	1.5542e+02	-17.7637	-48.695931	0.000172	1.723685	0.584000	0.000069
1564	1.5552e+02	-17.7220	-48.631337	0.000162	1.622292	0.549647	0.000065
1565	1.5562e+02	-17.6947	-48.550594	0.000203	2.027865	0.687059	0.000081
1566	1.5572e+02	-17.6482	-48.465815	0.000213	2.129258	0.721412	0.000085
1567	1.5582e+02	-17.6000	-48.397183	0.000172	1.723685	0.584000	0.000069
1568	1.5592e+02	-17.5631	-48.344700	0.000132	1.318112	0.446589	0.000053
1569	1.5602e+02	-17.5214	-48.276069	0.000172	1.723685	0.584000	0.000069
1570	1.5612e+02	-17.4829	-48.227624	0.000122	1.216719	0.412236	0.000049
1571	1.5622e+02	-17.4492	-48.102472	0.000314	3.143191	1.064942	0.000126
1572	1.5631e+02	-17.3963	-48.029804	0.000183	1.825079	0.618353	0.000073
1573	1.5641e+02	-17.3706	-47.924838	0.000264	2.636225	0.893177	0.000105
1574	1.5651e+02	-17.3321	-47.860244	0.000162	1.622292	0.549647	0.000065
1575	1.5661e+02	-17.2872	-47.759316	0.000253	2.534831	0.858824	0.000101
1576	1.5671e+02	-17.2423	-47.618016	0.000355	3.548764	1.202354	0.000142
1577	1.5681e+02	-17.2086	-47.577645	0.000101	1.013933	0.343530	0.000041
1578	1.5691e+02	-17.1637	-47.513051	0.000162	1.622292	0.549647	0.000065
1579	1.5701e+02	-17.1316	-47.460568	0.000132	1.318112	0.446589	0.000053
1580	1.5711e+02	-17.0851	-47.335417	0.000314	3.143191	1.064942	0.000126
1581	1.5721e+02	-17.0466	-47.266785	0.000172	1.723685	0.584000	0.000069
1582	1.5731e+02	-17.0081	-47.186043	0.000203	2.027865	0.687059	0.000081
1583	1.5741e+02	-16.9760	-47.089151	0.000243	2.433438	0.824471	0.000097
1584	1.5751e+02	-16.9231	-47.016483	0.000183	1.825079	0.618353	0.000073
1585	1.5761e+02	-16.8846	-46.923629	0.000233	2.332045	0.790118	0.000093
1586	1.5771e+02	-16.8444	-46.887294	0.000091	0.912539	0.309177	0.000037
1587	1.5781e+02	-16.8108	-46.850960	0.000091	0.912539	0.309177	0.000037
1588	1.5791e+02	-16.7706	-46.750032	0.000253	2.534831	0.858824	0.000101
1589	1.5801e+02	-16.7209	-46.628918	0.000304	3.041798	1.030589	0.000122
1590	1.5811e+02	-16.6856	-46.572398	0.000142	1.419506	0.480942	0.000057
1591	1.5821e+02	-16.6439	-46.423024	0.000375	3.751550	1.271060	0.000150
1592	1.5830e+02	-16.6102	-46.374578	0.000122	1.216719	0.412236	0.000049
1593	1.5840e+02	-16.5589	-46.273650	0.000253	2.534831	0.858824	0.000101
1594	1.5850e+02	-16.5332	-46.205019	0.000172	1.723685	0.584000	0.000069
1595	1.5860e+02	-16.4867	-46.120239	0.000213	2.129258	0.721412	0.000085
1596	1.5870e+02	-16.4450	-46.023347	0.000243	2.433438	0.824471	0.000097
1597	1.5880e+02	-16.4129	-45.922419	0.000253	2.534831	0.858824	0.000101
1598	1.5890e+02	-16.3792	-45.833602	0.000223	2.230652	0.755765	0.000089
1599	1.5900e+02	-16.3359	-45.781119	0.000132	1.318112	0.446589	0.000053
1600	1.5910e+02	-16.2910	-45.692302	0.000223	2.230652	0.755765	0.000089
1601	1.5920e+02	-16.2509	-45.615597	0.000193	1.926472	0.652706	0.000077
1602	1.5930e+02	-16.2140	-45.542928	0.000183	1.825079	0.618353	0.000073
1603	1.5940e+02	-16.1691	-45.442000	0.000253	2.534831	0.858824	0.000101
1604	1.5950e+02	-16.1306	-45.425851	0.000041	0.405573	0.137412	0.000016
1605	1.5960e+02	-16.0921	-45.312812	0.000284	2.839011	0.961883	0.000114
1606	1.5970e+02	-16.0520	-45.228032	0.000213	2.129258	0.721412	0.000085
1607	1.5980e+02	-16.0054	-45.163438	0.000162	1.622292	0.549647	0.000065
1608	1.5990e+02	-15.9685	-45.030212	0.000335	3.345977	1.133648	0.000134
1609	1.6000e+02	-15.9413	-44.921209	0.000274	2.737618	0.927530	0.000110
1610	1.6010e+02	-15.8979	-44.868727	0.000132	1.318112	0.446589	0.000053
1611	1.6019e+02	-15.8482	-44.775872	0.000233	2.332045	0.790118	0.000093
1612	1.6029e+02	-15.8177	-44.683018	0.000233	2.332045	0.790118	0.000093
1613	1.6039e+02	-15.7648	-44.610350	0.000183	1.825079	0.618353	0.000073
1614	1.6049e+02	-15.7327	-44.485199	0.000314	3.143191	1.064942	0.000126
1615	1.6059e+02	-15.6942	-44.384270	0.000253	2.534831	0.858824	0.000101
1616	1.6069e+02	-15.6573	-44.351973	0.000081	0.811146	0.274824	0.000032
1617	1.6079e+02	-15.6236	-44.267193	0.000213	2.129258	0.721412	0.000085
1618	1.6089e+02	-15.5675	-44.150116	0.000294	2.940404	0.996236	0.000118
1619	1.6099e+02	-15.5434	-44.081485	0.000172	1.723685	0.584000	0.000069
1620	1.6109e+02	-15.4857	-43.968445	0.000284	2.839011	0.961883	0.000114
1621	1.6119e+02	-15.4439	-43.879628	0.000223	2.230652	0.755765	0.000089
1622	1.6129e+02	-15.4119	-43.863480	0.000041	0.405573	0.137412	0.000016
1623	1.6139e+02	-15.3702	-43.815034	0.000122	1.216719	0.412236	0.000049
1624	1.6149e+02	-15.3317	-43.681809	0.000335	3.345977	1.133648	0.000134
1625	1.6159e+02	-15.2883	-43.556657	0.000314	3.143191	1.064942	0.000126
1626	1.6169e+02	-15.2563	-43.504175	0.000132	1.318112	0.446589	0.000053
1627	1.6179e+02	-15.2145	-43.366912	0.000345	3.447371	1.168001	0.000138
1628	1.6189e+02	-15.1793	-43.278095	0.000223	2.230652	0.755765	0.000089
1629	1.6199e+02	-15.1359	-43.177167	0.000253	2.534831	0.858824	0.000101
1630	1.6209e+02	-15.0974	-43.092387	0.000213	2.129258	0.721412	0.000085
1631	1.6219e+02	-15.0589	-42.991458	0.000253	2.534831	0.858824	0.000101
1632	1.6228e+02	-15.0188	-42.882456	0.000274	2.737618	0.927530	0.000110
1633	1.6238e+02	-14.9723	-42.817862	0.000162	1.622292	0.549647	0.000065
1634	1.6248e+02	-14.9338	-42.729045	0.000223	2.230652	0.755765	0.000089
1635	1.6258e+02	-14.8921	-42.628116	0.000253	2.534831	0.858824	0.000101
1636	1.6268e+02	-14.8520	-42.519114	0.000274	2.737618	0.927530	0.000110
1637	1.6278e+02	-14.8087	-42.446445	0.000183	1.825079	0.618353	0.000073
1638	1.6288e+02	-14.7782	-42.357628	0.000223	2.230652	0.755765	0.000089
1639	1.6298e+02	-14.7333	-42.305145	0.000132	1.318112	0.446589	0.000053
1640	1.6308e+02	-14.6948	-42.240551	0.000162	1.622292	0.549647	0.000065
1641	1.6318e+02	-14.6595	-42.167883	0.000183	1.825079	0.618353	0.000073
1642	1.6328e+02	-14.6130	-42.054843	0.000284	2.839011	0.961883	0.000114
1643	1.6338e+02	-14.5729	-41.957952	0.000243	2.433438	0.824471	0.000097
1644	1.6348e+02	-14.5343	-41.857023	0.000253	2.534831	0.858824	0.000101
1645	1.6358e+02	-14.4878	-41.707649	0.000375	3.751550	1.271060	0.000150
1646	1.6368e+02	-14.4606	-41.606721	0.000253	2.534831	0.858824	0.000101
1647	1.6378e+02	-14.4172	-41.501755	0.000264	2.636225	0.893177	0.000105
1648	1.6388e+02	-14.3739	-41.429087	0.000183	1.825079	0.618353	0.000073
1649	1.6398e+02	-14.3434	-41.312010	0.000294	2.940404	0.996236	0.000118
1650	1.6408e+02	-14.3001	-41.231267	0.000203	2.027865	0.687059	0.000081
1651	1.6418e+02	-14.2584	-41.154562	0.000193	1.926472	0.652706	0.000077
1652	1.6427e+02	-14.2263	-41.089968	0.000162	1.622292	0.549647	0.000065
1653	1.6437e+02	-14.1830	-40.968853	0.000304	3.041798	1.030589	0.000122
1654	1.6447e+02	-14.1381	-40.827554	0.000355	3.548764	1.202354	0.000142
1655	1.6457e+02	-14.0948	-40.779108	0.000122	1.216719	0.412236	0.000049
1656	1.6467e+02	-14.0483	-40.690291	0.000223	2.230652	0.755765	0.000089
1657	1.6477e+02	-14.0162	-40.662031	0.000071	0.709753	0.240471	0.000028
1658	1.6487e+02	-13.9777	-40.565140	0.000243	2.433438	0.824471	0.000097
1659	1.6497e+02	-13.9376	-40.439989	0.000314	3.143191	1.064942	0.000126
1660	1.6507e+02	-13.8991	-40.339060	0.000253	2.534831	0.858824	0.000101
1661	1.6517e+02	-13.8606	-40.262355	0.000193	1.926472	0.652706	0.000077
1662	1.6527e+02	-13.8108	-40.181612	0.000203	2.027865	0.687059	0.000081
1663	1.6537e+02	-13.7788	-40.020127	0.000406	4.055730	1.374119	0.000162
1664	1.6547e+02	-13.7370	-39.923235	0.000243	2.433438	0.824471	0.000097
1665	1.6557e+02	-13.7034	-39.846530	0.000193	1.926472	0.652706	0.000077
1666	1.6567e+02	-13.6536	-39.717341	0.000324	3.244584	1.099295	0.000130
1667	1.6577e+02	-13.6199	-39.640636	0.000193	1.926472	0.652706	0.000077
1668	1.6587e+02	-13.5911	-39.515485	0.000314	3.143191	1.064942	0.000126
1669	1.6597e+02	-13.5445	-39.438779	0.000193	1.926472	0.652706	0.000077
1670	1.6607e+02	-13.5012	-39.333813	0.000264	2.636225	0.893177	0.000105
1671	1.6616e+02	-13.4659	-39.261145	0.000183	1.825079	0.618353	0.000073
1672	1.6626e+02	-13.4226	-39.135994	0.000314	3.143191	1.064942	0.000126
1673	1.6636e+02	-13.3825	-39.051214	0.000213	2.129258	0.721412	0.000085
1674	1.6646e+02	-13.3424	-38.970471	0.000203	2.027865	0.687059	0.000081
1675	1.6656e+02	-13.3071	-38.934137	0.000091	0.912539	0.309177	0.000037
1676	1.6666e+02	-13.2574	-38.808986	0.000314	3.143191	1.064942	0.000126
1677	1.6676e+02	-13.2189	-38.740355	0.000172	1.723685	0.584000	0.000069
1678	1.6686e+02	-13.1884	-38.651538	0.000223	2.230652	0.755765	0.000089
1679	1.6696e+02	-13.1339	-38.554646	0.000243	2.433438	0.824471	0.000097
1680	1.6706e+02	-13.1002	-38.449681	0.000264	2.636225	0.893177	0.000105
1681	1.6716e+02	-13.0697	-38.312418	0.000345	3.447371	1.168001	0.000138
1682	1.6726e+02	-13.0232	-38.227638	0.000213	2.129258	0.721412	0.000085
1683	1.6736e+02	-12.9766	-38.110561	0.000294	2.940404	0.996236	0.000118
1684	1.6746e+02	-12.9413	-38.033856	0.000193	1.926472	0.652706	0.000077
1685	1.6756e+02	-12.9044	-37.916779	0.000294	2.940404	0.996236	0.000118
1686	1.6766e+02	-12.8643	-37.836036	0.000203	2.027865	0.687059	0.000081
1687	1.6776e+02	-12.8210	-37.739145	0.000243	2.433438	0.824471	0.000097
1688	1.6786e+02	-12.7793	-37.642254	0.000243	2.433438	0.824471	0.000097
1689	1.6796e+02	-12.7504	-37.529214	0.000284	2.839011	0.961883	0.000114
1690	1.6806e+02	-12.7119	-37.444434	0.000213	2.129258	0.721412	0.000085
1691	1.6816e+02	-12.6654	-37.347543	0.000243	2.433438	0.824471	0.000097
1692	1.6825e+02	-12.6221	-37.258726	0.000223	2.230652	0.755765	0.000089
1693	1.6835e+02	-12.5772	-37.157797	0.000253	2.534831	0.858824	0.000101
1694	1.6845e+02	-12.5467	-37.068980	0.000223	2.230652	0.755765	0.000089
1695	1.6855e+02	-12.5050	-37.000349	0.000172	1.723685	0.584000	0.000069
1696	1.6865e+02	-12.4649	-36.879235	0.000304	3.041798	1.030589	0.000122
1697	1.6875e+02	-12.4264	-36.830789	0.000122	1.216719	0.412236	0.000049
1698	1.6885e+02	-12.3783	-36.737935	0.000233	2.332045	0.790118	0.000093
1699	1.6895e+02	-12.3414	-36.584524	0.000385	3.852944	1.305413	0.000154
1700	1.6905e+02	-12.3173	-36.503781	0.000203	2.027865	0.687059	0.000081
1701	1.6915e+02	-12.2676	-36.394779	0.000274	2.737618	0.927530	0.000110
1702	1.6925e+02	-12.2323	-36.293850	0.000253	2.534831	0.858824	0.000101
1703	1.6935e+02	-12.1922	-36.192922	0.000253	2.534831	0.858824	0.000101
1704	1.6945e+02	-12.1505	-36.108142	0.000213	2.129258	0.721412	0.000085
1705	1.6955e+02	-12.1055	-35.966842	0.000355	3.548764	1.202354	0.000142
1706	1.6965e+02	-12.0622	-35.910322	0.000142	1.419506	0.480942	0.000057
1707	1.6975e+02	-12.0173	-35.817468	0.000233	2.332045	0.790118	0.000093
1708	1.6985e+02	-11.9900	-35.732688	0.000213	2.129258	0.721412	0.000085
1709	1.6995e+02	-11.9531	-35.647909	0.000213	2.129258	0.721412	0.000085
1710	1.7005e+02	-11.9098	-35.546980	0.000253	2.534831	0.858824	0.000101
1711	1.7015e+02	-11.8649	-35.502572	0.000112	1.115326	0.377883	0.000045
1712	1.7024e+02	-11.8232	-35.361272	0.000355	3.548764	1.202354	0.000142
1713	1.7034e+02	-11.7895	-35.256306	0.000264	2.636225	0.893177	0.000105
1714	1.7044e+02	-11.7542	-35.203824	0.000132	1.318112	0.446589	0.000053
1715	1.7054e+02	-11.7013	-35.123081	0.000203	2.027865	0.687059	0.000081
1716	1.7064e+02	-11.6580	-35.058487	0.000162	1.622292	0.549647	0.000065
1717	1.7074e+02	-11.6307	-34.884890	0.000436	4.359910	1.477177	0.000174
1718	1.7084e+02	-11.5858	-34.747627	0.000345	3.447371	1.168001	0.000138
1719	1.7094e+02	-11.5489	-34.670922	0.000193	1.926472	0.652706	0.000077
1720	1.7104e+02	-11.5088	-34.553845	0.000294	2.940404	0.996236	0.000118
1721	1.7114e+02	-11.4719	-34.497325	0.000142	1.419506	0.480942	0.000057
1722	1.7124e+02	-11.4286	-34.392359	0.000264	2.636225	0.893177	0.000105
1723	1.7134e+02	-11.3868	-34.307580	0.000213	2.129258	0.721412	0.000085
1724	1.7144e+02	-11.3419	-34.154168	0.000385	3.852944	1.305413	0.000154
1725	1.7154e+02	-11.3195	-34.097648	0.000142	1.419506	0.480942	0.000057
1726	1.7164e+02	-11.2762	-34.033054	0.000162	1.622292	0.549647	0.000065
1727	1.7174e+02	-11.2328	-33.911940	0.000304	3.041798	1.030589	0.000122
1728	1.7184e+02	-11.1927	-33.855420	0.000142	1.419506	0.480942	0.000057
1729	1.7194e+02	-11.1446	-33.746418	0.000274	2.737618	0.927530	0.000110
1730	1.7204e+02	-11.1109	-33.673749	0.000183	1.825079	0.618353	0.000073
1731	1.7213e+02	-11.0676	-33.601081	0.000183	1.825079	0.618353	0.000073
1732	1.7223e+02	-11.0339	-33.500152	0.000253	2.534831	0.858824	0.000101
1733	1.7233e+02	-10.9858	-33.366927	0.000335	3.345977	1.133648	0.000134
1734	1.7243e+02	-10.9553	-33.253887	0.000284	2.839011	0.961883	0.000114
1735	1.7253e+02	-10.9168	-33.156996	0.000243	2.433438	0.824471	0.000097
1736	1.7263e+02	-10.8591	-33.047993	0.000274	2.737618	0.927530	0.000110
1737	1.7273e+02	-10.8286	-32.938990	0.000274	2.737618	0.927530	0.000110
1738	1.7283e+02	-10.7917	-32.829988	0.000274	2.737618	0.927530	0.000110
1739	1.7293e+02	-10.7564	-32.749245	0.000203	2.027865	0.687059	0.000081
1740	1.7303e+02	-10.7147	-32.688688	0.000152	1.520899	0.515294	0.000061
1741	1.7313e+02	-10.6762	-32.579685	0.000274	2.737618	0.927530	0.000110
1742	1.7323e+02	-10.6409	-32.482794	0.000243	2.433438	0.824471	0.000097
1743	1.7333e+02	-10.5927	-32.369754	0.000284	2.839011	0.961883	0.000114
1744	1.7343e+02	-10.5462	-32.317272	0.000132	1.318112	0.446589	0.000053
1745	1.7353e+02	-10.5125	-32.220380	0.000243	2.433438	0.824471	0.000097
1746	1.7363e+02	-10.4756	-32.135600	0.000213	2.129258	0.721412	0.000085
1747	1.7373e+02	-10.4371	-32.054858	0.000203	2.027865	0.687059	0.000081
1748	1.7383e+02	-10.3970	-32.002375	0.000132	1.318112	0.446589	0.000053
1749	1.7393e+02	-10.3457	-31.881261	0.000304	3.041798	1.030589	0.000122
1750	1.7403e+02	-10.3136	-31.828778	0.000132	1.318112	0.446589	0.000053
1751	1.7413e+02	-10.2831	-31.703627	0.000314	3.143191	1.064942	0.000126
1752	1.7422e+02	-10.2430	-31.586550	0.000294	2.940404	0.996236	0.000118
1753	1.7432e+02	-10.1965	-31.493696	0.000233	2.332045	0.790118	0.000093
1754	1.7442e+02	-10.1644	-31.368545	0.000314	3.143191	1.064942	0.000126
1755	1.7452e+02	-10.1195	-31.243393	0.000314	3.143191	1.064942	0.000126
1756	1.7462e+02	-10.0746	-31.158614	0.000213	2.129258	0.721412	0.000085
1757	1.7472e+02	-10.0297	-31.029425	0.000324	3.244584	1.099295	0.000130
1758	1.7482e+02	-9.9992	-30.964831	0.000162	1.622292	0.549647	0.000065
1759	1.7492e+02	-9.9591	-30.863903	0.000253	2.534831	0.858824	0.000101
1760	1.7502e+02	-9.9222	-30.738752	0.000314	3.143191	1.064942	0.000126
1761	1.7512e+02	-9.8757	-30.690306	0.000122	1.216719	0.412236	0.000049
1762	1.7522e+02	-9.8291	-30.589377	0.000253	2.534831	0.858824	0.000101
1763	1.7532e+02	-9.7970	-30.516709	0.000183	1.825079	0.618353	0.000073
1764	1.7542e+02	-9.7505	-30.427892	0.000223	2.230652	0.755765	0.000089
1765	1.7552e+02	-9.7040	-30.359261	0.000172	1.723685	0.584000	0.000069
1766	1.7562e+02	-9.6783	-30.242184	0.000294	2.940404	0.996236	0.000118
1767	1.7572e+02	-9.6334	-30.145293	0.000243	2.433438	0.824471	0.000097
1768	1.7582e+02	-9.5933	-30.068587	0.000193	1.926472	0.652706	0.000077
1769	1.7592e+02	-9.5564	-29.935361	0.000335	3.345977	1.133648	0.000134
1770	1.7602e+02	-9.5163	-29.850582	0.000213	2.129258	0.721412	0.000085
1771	1.7612e+02	-9.4778	-29.713319	0.000345	3.447371	1.168001	0.000138
1772	1.7621e+02	-9.4345	-29.628539	0.000213	2.129258	0.721412	0.000085
1773	1.7631e+02	-9.3944	-29.511462	0.000294	2.940404	0.996236	0.000118
1774	1.7641e+02	-9.3623	-29.438794	0.000183	1.825079	0.618353	0.000073
1775	1.7651e+02	-9.3174	-29.313643	0.000314	3.143191	1.064942	0.000126
1776	1.7661e+02	-9.2741	-29.224826	0.000223	2.230652	0.755765	0.000089
1777	1.7671e+02	-9.2420	-29.115823	0.000274	2.737618	0.927530	0.000110
1778	1.7681e+02	-9.1971	-28.974523	0.000355	3.548764	1.202354	0.000142
1779	1.7691e+02	-9.1586	-28.958375	0.000041	0.405573	0.137412	0.000016
1780	1.7701e+02	-9.1185	-28.829186	0.000324	3.244584	1.099295	0.000130
1781	1.7711e+02	-9.0848	-28.720184	0.000274	2.737618	0.927530	0.000110
1782	1.7721e+02	-9.0302	-28.695961	0.000061	0.608360	0.206118	0.000024
1783	1.7731e+02	-8.9981	-28.582921	0.000284	2.839011	0.961883	0.000114
1784	1.7741e+02	-8.9596	-28.490067	0.000233	2.332045	0.790118	0.000093
1785	1.7751e+02	-8.9179	-28.401250	0.000223	2.230652	0.755765	0.000089
1786	1.7761e+02	-8.8810	-28.284173	0.000294	2.940404	0.996236	0.000118
1787	1.7771e+02	-8.8473	-28.175170	0.000274	2.737618	0.927530	0.000110
1788	1.7781e+02	-8.7992	-28.090390	0.000213	2.129258	0.721412	0.000085
1789	1.7791e+02	-8.7559	-27.949091	0.000355	3.548764	1.202354	0.000142
1790	1.7801e+02	-8.7190	-27.848162	0.000253	2.534831	0.858824	0.000101
1791	1.7810e+02	-8.6837	-27.731085	0.000294	2.940404	0.996236	0.000118
1792	1.7820e+02	-8.6420	-27.642268	0.000223	2.230652	0.755765	0.000089
1793	1.7830e+02	-8.5971	-27.541340	0.000253	2.534831	0.858824	0.000101
1794	1.7840e+02	-8.5634	-27.436374	0.000264	2.636225	0.893177	0.000105
1795	1.7850e+02	-8.5233	-27.287000	0.000375	3.751550	1.271060	0.000150
1796	1.7860e+02	-8.4784	-27.210295	0.000193	1.926472	0.652706	0.000077
1797	1.7870e+02	-8.4415	-27.125515	0.000213	2.129258	0.721412	0.000085
1798	1.7880e+02	-8.4046	-26.996327	0.000324	3.244584	1.099295	0.000130
1799	1.7890e+02	-8.3677	-26.899435	0.000243	2.433438	0.824471	0.000097
1800	1.7900e+02	-8.3276	-26.842916	0.000142	1.419506	0.480942	0.000057
1801	1.7910e+02	-8.2794	-26.758136	0.000213	2.129258	0.721412	0.000085
1802	1.7920e+02	-8.2361	-26.661244	0.000243	2.433438	0.824471	0.000097
1803	1.7930e+02	-8.2040	-26.540130	0.000304	3.041798	1.030589	0.000122
1804	1.7940e+02	-8.1543	-26.451313	0.000223	2.230652	0.755765	0.000089
1805	1.7950e+02	-8.1222	-26.338274	0.000284	2.839011	0.961883	0.000114
1806	1.7960e+02	-8.0918	-26.249457	0.000223	2.230652	0.755765	0.000089
1807	1.7970e+02	-8.0404	-26.128342	0.000304	3.041798	1.030589	0.000122
1808	1.7980e+02	-8.0019	-26.039526	0.000223	2.230652	0.755765	0.000089
1809	1.7990e+02	-7.9650	-25.874003	0.000416	4.157123	1.408472	0.000166
1810	1.8000e+02	-7.9297	-25.752889	0.000304	3.041798	1.030589	0.000122
1811	1.8009e+02	-7.8864	-25.688295	0.000162	1.622292	0.549647	0.000065
1812	1.8019e+02	-7.8527	-25.567181	0.000304	3.041798	1.030589	0.000122
1813	1.8029e+02	-7.8046	-25.482401	0.000213	2.129258	0.721412	0.000085
1814	1.8039e+02	-7.7613	-25.353212	0.000324	3.244584	1.099295	0.000130
1815	1.8049e+02	-7.7308	-25.256321	0.000243	2.433438	0.824471	0.000097
1816	1.8059e+02	-7.6843	-25.163467	0.000233	2.332045	0.790118	0.000093
1817	1.8069e+02	-7.6474	-25.066576	0.000243	2.433438	0.824471	0.000097
1818	1.8079e+02	-7.5976	-24.957573	0.000274	2.737618	0.927530	0.000110
1819	1.8089e+02	-7.5736	-24.884905	0.000183	1.825079	0.618353	0.000073
1820	1.8099e+02	-7.5255	-24.767828	0.000294	2.940404	0.996236	0.000118
1821	1.8109e+02	-7.4886	-24.666899	0.000253	2.534831	0.858824	0.000101
1822	1.8119e+02	-7.4436	-24.574045	0.000233	2.332045	0.790118	0.000093
1823	1.8129e+02	-7.4148	-24.448894	0.000314	3.143191	1.064942	0.000126
1824	1.8139e+02	-7.3714	-24.360077	0.000223	2.230652	0.755765	0.000089
1825	1.8149e+02	-7.3313	-24.243000	0.000294	2.940404	0.996236	0.000118
1826	1.8159e+02	-7.2912	-24.101700	0.000355	3.548764	1.202354	0.000142
1827	1.8169e+02	-7.2479	-23.968475	0.000335	3.345977	1.133648	0.000134
1828	1.8179e+02	-7.2014	-23.899844	0.000172	1.723685	0.584000	0.000069
1829	1.8189e+02	-7.1725	-23.786804	0.000284	2.839011	0.961883	0.000114
1830	1.8199e+02	-7.1244	-23.645504	0.000355	3.548764	1.202354	0.000142
1831	1.8209e+02	-7.0811	-23.568798	0.000193	1.926472	0.652706	0.000077
1832	1.8218e+02	-7.0490	-23.467870	0.000253	2.534831	0.858824	0.000101
1833	1.8228e+02	-7.0073	-23.346756	0.000304	3.041798	1.030589	0.000122
1834	1.8238e+02	-6.9576	-23.245828	0.000253	2.534831	0.858824	0.000101
1835	1.8248e+02	-6.9271	-23.157011	0.000223	2.230652	0.755765	0.000089
1836	1.8258e+02	-6.8854	-23.023785	0.000335	3.345977	1.133648	0.000134
1837	1.8268e+02	-6.8517	-22.951117	0.000183	1.825079	0.618353	0.000073
1838	1.8278e+02	-6.8019	-22.858263	0.000233	2.332045	0.790118	0.000093
1839	1.8288e+02	-6.7699	-22.737148	0.000304	3.041798	1.030589	0.000122
1840	1.8298e+02	-6.7314	-22.624109	0.000284	2.839011	0.961883	0.000114
1841	1.8308e+02	-6.6880	-22.531255	0.000233	2.332045	0.790118	0.000093
1842	1.8318e+02	-6.6431	-22.430326	0.000253	2.534831	0.858824	0.000101
1843	1.8328e+02	-6.6110	-22.297101	0.000335	3.345977	1.133648	0.000134
1844	1.8338e+02	-6.5725	-22.200209	0.000243	2.433438	0.824471	0.000097
1845	1.8348e+02	-6.5164	-22.054873	0.000365	3.650157	1.236707	0.000146
1846	1.8358e+02	-6.4907	-21.962018	0.000233	2.332045	0.790118	0.000093
1847	1.8368e+02	-6.4474	-21.816682	0.000365	3.650157	1.236707	0.000146
1848	1.8378e+02	-6.4153	-21.727865	0.000223	2.230652	0.755765	0.000089
1849	1.8388e+02	-6.3752	-21.683456	0.000112	1.115326	0.377883	0.000045
1850	1.8398e+02	-6.3335	-21.534082	0.000375	3.751550	1.271060	0.000150
1851	1.8407e+02	-6.2886	-21.457376	0.000193	1.926472	0.652706	0.000077
1852	1.8417e+02	-6.2421	-21.336262	0.000304	3.041798	1.030589	0.000122
1853	1.8427e+02	-6.2068	-21.271668	0.000162	1.622292	0.549647	0.000065
1854	1.8437e+02	-6.1731	-21.154591	0.000294	2.940404	0.996236	0.000118
1855	1.8447e+02	-6.1250	-21.077886	0.000193	1.926472	0.652706	0.000077
1856	1.8457e+02	-6.0961	-20.960809	0.000294	2.940404	0.996236	0.000118
1857	1.8467e+02	-6.0464	-20.819509	0.000355	3.548764	1.202354	0.000142
1858	1.8477e+02	-6.0159	-20.750878	0.000172	1.723685	0.584000	0.000069
1859	1.8487e+02	-5.9661	-20.641875	0.000274	2.737618	0.927530	0.000110
1860	1.8497e+02	-5.9357	-20.492501	0.000375	3.751550	1.271060	0.000150
1861	1.8507e+02	-5.8972	-20.331016	0.000406	4.055730	1.374119	0.000162
1862	1.8517e+02	-5.8619	-20.246236	0.000213	2.129258	0.721412	0.000085
1863	1.8527e+02	-5.8121	-20.113010	0.000335	3.345977	1.133648	0.000134
1864	1.8537e+02	-5.7736	-20.008045	0.000264	2.636225	0.893177	0.000105
1865	1.8547e+02	-5.7319	-19.899042	0.000274	2.737618	0.927530	0.000110
1866	1.8557e+02	-5.6982	-19.798114	0.000253	2.534831	0.858824	0.000101
1867	1.8567e+02	-5.6581	-19.701222	0.000243	2.433438	0.824471	0.000097
1868	1.8577e+02	-5.6116	-19.547811	0.000385	3.852944	1.305413	0.000154
1869	1.8587e+02	-5.5811	-19.483217	0.000162	1.622292	0.549647	0.000065
1870	1.8597e+02	-5.5218	-19.370177	0.000284	2.839011	0.961883	0.000114
1871	1.8606e+02	-5.4945	-19.285397	0.000213	2.129258	0.721412	0.000085
1872	1.8616e+02	-5.4544	-19.224840	0.000152	1.520899	0.515294	0.000061
1873	1.8626e+02	-5.4111	-19.136023	0.000223	2.230652	0.755765	0.000089
1874	1.8636e+02	-5.3790	-19.014909	0.000304	3.041798	1.030589	0.000122
1875	1.8646e+02	-5.3325	-18.893795	0.000304	3.041798	1.030589	0.000122
1876	1.8656e+02	-5.2956	-18.792867	0.000253	2.534831	0.858824	0.000101
1877	1.8666e+02	-5.2635	-18.712124	0.000203	2.027865	0.687059	0.000081
1878	1.8676e+02	-5.2154	-18.574862	0.000345	3.447371	1.168001	0.000138
1879	1.8686e+02	-5.1817	-18.449710	0.000314	3.143191	1.064942	0.000126
1880	1.8696e+02	-5.1480	-18.328596	0.000304	3.041798	1.030589	0.000122
1881	1.8706e+02	-5.1015	-18.191334	0.000345	3.447371	1.168001	0.000138
1882	1.8716e+02	-5.0630	-18.130777	0.000152	1.520899	0.515294	0.000061
1883	1.8726e+02	-5.0261	-18.001588	0.000324	3.244584	1.099295	0.000130
1884	1.8736e+02	-4.9747	-17.868363	0.000335	3.345977	1.133648	0.000134
1885	1.8746e+02	-4.9410	-17.795694	0.000183	1.825079	0.618353	0.000073
1886	1.8756e+02	-4.9041	-17.698803	0.000243	2.433438	0.824471	0.000097
1887	1.8766e+02	-4.8624	-17.609986	0.000223	2.230652	0.755765	0.000089
1888	1.8776e+02	-4.8223	-17.488872	0.000304	3.041798	1.030589	0.000122
1889	1.8786e+02	-4.7774	-17.391981	0.000243	2.433438	0.824471	0.000097
1890	1.8796e+02	-4.7341	-17.331424	0.000152	1.520899	0.515294	0.000061
1891	1.8806e+02	-4.6940	-17.206273	0.000314	3.143191	1.064942	0.000126
1892	1.8815e+02	-4.6603	-17.093233	0.000284	2.839011	0.961883	0.000114
1893	1.8825e+02	-4.6202	-16.964044	0.000324	3.244584	1.099295	0.000130
1894	1.8835e+02	-4.5721	-16.899450	0.000162	1.622292	0.549647	0.000065
1895	1.8845e+02	-4.5416	-16.790448	0.000274	2.737618	0.927530	0.000110
1896	1.8855e+02	-4.5015	-16.681445	0.000274	2.737618	0.927530	0.000110
1897	1.8865e+02	-4.4630	-16.528034	0.000385	3.852944	1.305413	0.000154
1898	1.8875e+02	-4.4293	-16.459402	0.000172	1.723685	0.584000	0.000069
1899	1.8885e+02	-4.3780	-16.265620	0.000487	4.866876	1.648942	0.000195
1900	1.8895e+02	-4.3362	-16.176803	0.000223	2.230652	0.755765	0.000089
1901	1.8905e+02	-4.3009	-16.087986	0.000223	2.230652	0.755765	0.000089
1902	1.8915e+02	-4.2592	-15.987058	0.000253	2.534831	0.858824	0.000101
1903	1.8925e+02	-4.2175	-15.869981	0.000294	2.940404	0.996236	0.000118
1904	1.8935e+02	-4.1838	-15.765015	0.000264	2.636225	0.893177	0.000105
1905	1.8945e+02	-4.1469	-15.672161	0.000233	2.332045	0.790118	0.000093
1906	1.8955e+02	-4.0972	-15.563158	0.000274	2.737618	0.927530	0.000110
1907	1.8965e+02	-4.0571	-15.490490	0.000183	1.825079	0.618353	0.000073
1908	1.8975e+02	-4.0250	-15.405710	0.000213	2.129258	0.721412	0.000085
1909	1.8985e+02	-3.9801	-15.276522	0.000324	3.244584	1.099295	0.000130
1910	1.8995e+02	-3.9448	-15.207890	0.000172	1.723685	0.584000	0.000069
1911	1.9004e+02	-3.8983	-15.090813	0.000294	2.940404	0.996236	0.000118
1912	1.9014e+02	-3.8598	-14.981811	0.000274	2.737618	0.927530	0.000110
1913	1.9024e+02	-3.8213	-14.880882	0.000253	2.534831	0.858824	0.000101
1914	1.9034e+02	-3.7828	-14.775917	0.000264	2.636225	0.893177	0.000105
1915	1.9044e+02	-3.7539	-14.634617	0.000355	3.548764	1.202354	0.000142
1916	1.9054e+02	-3.7010	-14.521577	0.000284	2.839011	0.961883	0.000114
1917	1.9064e+02	-3.6625	-14.432760	0.000223	2.230652	0.755765	0.000089
1918	1.9074e+02	-3.6256	-14.311646	0.000304	3.041798	1.030589	0.000122
1919	1.9084e+02	-3.5903	-14.186495	0.000314	3.143191	1.064942	0.000126
1920	1.9094e+02	-3.5438	-14.057307	0.000324	3.244584	1.099295	0.000130
1921	1.9104e+02	-3.5020	-13.968490	0.000223	2.230652	0.755765	0.000089
1922	1.9114e+02	-3.4571	-13.875636	0.000233	2.332045	0.790118	0.000093
1923	1.9124e+02	-3.4298	-13.742410	0.000335	3.345977	1.133648	0.000134
1924	1.9134e+02	-3.3753	-13.702039	0.000101	1.013933	0.343530	0.000041
1925	1.9144e+02	-3.3480	-13.601110	0.000253	2.534831	0.858824	0.000101
1926	1.9154e+02	-3.3047	-13.508256	0.000233	2.332045	0.790118	0.000093
1927	1.9164e+02	-3.2646	-13.399254	0.000274	2.737618	0.927530	0.000110
1928	1.9174e+02	-3.2149	-13.270065	0.000324	3.244584	1.099295	0.000130
1929	1.9184e+02	-3.1908	-13.165100	0.000264	2.636225	0.893177	0.000105
1930	1.9194e+02	-3.1491	-13.052060	0.000284	2.839011	0.961883	0.000114
1931	1.9203e+02	-3.1058	-12.975354	0.000193	1.926472	0.652706	0.000077
1932	1.9213e+02	-3.0641	-12.846166	0.000324	3.244584	1.099295	0.000130
1933	1.9223e+02	-3.0208	-12.733126	0.000284	2.839011	0.961883	0.000114
1934	1.9233e+02	-2.9887	-12.628161	0.000264	2.636225	0.893177	0.000105
1935	1.9243e+02	-2.9566	-12.527232	0.000253	2.534831	0.858824	0.000101
1936	1.9253e+02	-2.8940	-12.349598	0.000446	4.461303	1.511530	0.000179
1937	1.9263e+02	-2.8700	-12.244633	0.000264	2.636225	0.893177	0.000105
1938	1.9273e+02	-2.8299	-12.151779	0.000233	2.332045	0.790118	0.000093
1939	1.9283e+02	-2.7866	-12.066999	0.000213	2.129258	0.721412	0.000085
1940	1.9293e+02	-2.7513	-11.949922	0.000294	2.940404	0.996236	0.000118
1941	1.9303e+02	-2.7112	-11.820733	0.000324	3.244584	1.099295	0.000130
1942	1.9313e+02	-2.6550	-11.748065	0.000183	1.825079	0.618353	0.000073
1943	1.9323e+02	-2.6229	-11.663285	0.000213	2.129258	0.721412	0.000085
1944	1.9333e+02	-2.5844	-11.562357	0.000253	2.534831	0.858824	0.000101
1945	1.9343e+02	-2.5443	-11.461428	0.000253	2.534831	0.858824	0.000101
1946	1.9353e+02	-2.4994	-11.364537	0.000243	2.433438	0.824471	0.000097
1947	1.9363e+02	-2.4801	-11.267646	0.000243	2.433438	0.824471	0.000097
1948	1.9373e+02	-2.4288	-11.126346	0.000355	3.548764	1.202354	0.000142
1949	1.9383e+02	-2.3871	-10.989083	0.000345	3.447371	1.168001	0.000138
1950	1.9393e+02	-2.3454	-10.888155	0.000253	2.534831	0.858824	0.000101
1951	1.9403e+02	-2.3053	-10.763004	0.000314	3.143191	1.064942	0.000126
1952	1.9412e+02	-2.2588	-10.658038	0.000264	2.636225	0.893177	0.000105
1953	1.9422e+02	-2.2235	-10.492516	0.000416	4.157123	1.408472	0.000166
1954	1.9432e+02	-2.1882	-10.371402	0.000304	3.041798	1.030589	0.000122
1955	1.9442e+02	-2.1497	-10.306808	0.000162	1.622292	0.549647	0.000065
1956	1.9452e+02	-2.1112	-10.205879	0.000253	2.534831	0.858824	0.000101
1957	1.9462e+02	-2.0743	-10.072654	0.000335	3.345977	1.133648	0.000134
1958	1.9472e+02	-2.0310	-9.947502	0.000314	3.143191	1.064942	0.000126
1959	1.9482e+02	-1.9909	-9.886945	0.000152	1.520899	0.515294	0.000061
1960	1.9492e+02	-1.9475	-9.753720	0.000335	3.345977	1.133648	0.000134
1961	1.9502e+02	-1.9203	-9.701237	0.000132	1.318112	0.446589	0.000053
1962	1.9512e+02	-1.8721	-9.608383	0.000233	2.332045	0.790118	0.000093
1963	1.9522e+02	-1.8304	-9.459009	0.000375	3.751550	1.271060	0.000150
1964	1.9532e+02	-1.7887	-9.345969	0.000284	2.839011	0.961883	0.000114
1965	1.9542e+02	-1.7486	-9.224855	0.000304	3.041798	1.030589	0.000122
1966	1.9552e+02	-1.7181	-9.140075	0.000213	2.129258	0.721412	0.000085
1967	1.9562e+02	-1.6700	-8.994738	0.000365	3.650157	1.236707	0.000146
1968	1.9572e+02	-1.6283	-8.922070	0.000183	1.825079	0.618353	0.000073
1969	1.9582e+02	-1.5962	-8.768659	0.000385	3.852944	1.305413	0.000154
1970	1.9592e+02	-1.5529	-8.595062	0.000436	4.359910	1.477177	0.000174
1971	1.9601e+02	-1.5176	-8.486059	0.000274	2.737618	0.927530	0.000110
1972	1.9611e+02	-1.4759	-8.413391	0.000183	1.825079	0.618353	0.000073
1973	1.9621e+02	-1.4326	-8.255943	0.000395	3.954337	1.339766	0.000158
1974	1.9631e+02	-1.3893	-8.146940	0.000274	2.737618	0.927530	0.000110
1975	1.9641e+02	-1.3556	-8.029863	0.000294	2.940404	0.996236	0.000118
1976	1.9651e+02	-1.3091	-7.945083	0.000213	2.129258	0.721412	0.000085
1977	1.9661e+02	-1.2754	-7.836080	0.000274	2.737618	0.927530	0.000110
1978	1.9671e+02	-1.2321	-7.719004	0.000294	2.940404	0.996236	0.000118
1979	1.9681e+02	-1.1887	-7.642298	0.000193	1.926472	0.652706	0.000077
1980	1.9691e+02	-1.1518	-7.521184	0.000304	3.041798	1.030589	0.000122
1981	1.9701e+02	-1.1053	-7.468701	0.000132	1.318112	0.446589	0.000053
1982	1.9711e+02	-1.0748	-7.274919	0.000487	4.866876	1.648942	0.000195
1983	1.9721e+02	-1.0363	-7.218399	0.000142	1.419506	0.480942	0.000057
1984	1.9731e+02	-0.9994	-7.085173	0.000335	3.345977	1.133648	0.000134
1985	1.9741e+02	-0.9545	-6.968096	0.000294	2.940404	0.996236	0.000118
1986	1.9751e+02	-0.9192	-6.818722	0.000375	3.751550	1.271060	0.000150
1987	1.9761e+02	-0.8775	-6.742017	0.000193	1.926472	0.652706	0.000077
1988	1.9771e+02	-0.8294	-6.596680	0.000365	3.650157	1.236707	0.000146
1989	1.9781e+02	-0.7957	-6.479603	0.000294	2.940404	0.996236	0.000118
1990	1.9791e+02	-0.7412	-6.301969	0.000446	4.461303	1.511530	0.000179
1991	1.9800e+02	-0.7139	-6.188929	0.000284	2.839011	0.961883	0.000114
1992	1.9810e+02	-0.6754	-6.124335	0.000162	1.622292	0.549647	0.000065
1993	1.9820e+02	-0.6337	-5.991109	0.000335	3.345977	1.133648	0.000134
1994	1.9830e+02	-0.5920	-5.849810	0.000355	3.548764	1.202354	0.000142
1995	1.9840e+02	-0.5567	-5.708510	0.000355	3.548764	1.202354	0.000142
1996	1.9850e+02	-0.5118	-5.639879	0.000172	1.723685	0.584000	0.000069
1997	1.9860e+02	-0.4829	-5.583359	0.000142	1.419506	0.480942	0.000057
1998	1.9870e+02	-0.4412	-5.454170	0.000324	3.244584	1.099295	0.000130
1999	1.9880e+02	-0.3930	-5.324982	0.000324	3.244584	1.099295	0.000130
2000	1.9890e+02	-0.3577	-5.244239	0.000203	2.027865	0.687059	0.000081
2001	1.9900e+02	-0.3208	-5.127162	0.000294	2.940404	0.996236	0.000118
2002	1.9910e+02	-0.2759	-5.010085	0.000294	2.940404	0.996236	0.000118
2003	1.9920e+02	-0.2310	-4.888971	0.000304	3.041798	1.030589	0.000122
2004	1.9930e+02	-0.1925	-4.747672	0.000355	3.548764	1.202354	0.000142
2005	1.9940e+02	-0.1524	-4.614446	0.000335	3.345977	1.133648	0.000134
2006	1.9950e+02	-0.1219	-4.517555	0.000243	2.433438	0.824471	0.000097
2007	1.9960e+02	-0.0770	-4.331847	0.000466	4.664090	1.580236	0.000187
2008	1.9970e+02	-0.0433	-4.218807	0.000284	2.839011	0.961883	0.000114
2009	1.9980e+02	0.0016	-4.174398	0.000284	2.839011	0.961883	0.000045

PMax (uC/cm2):	5.51e+01
Pr (uC/cm2):	2.83e+00
-Pr (uC/cm2):	-1.99e+00
PLoss (uC/cm2):	-1.93e+00
-Vc:	-1.02e+00
C (Max-Eff) (nF):	2.75e-01
K (Eff):	9.33e+02
Vert. (+/-Pr) Shift (uC/cm2):	4.22e-01
Offset (uC/cm2):	2.18e+00

A (Loop Area - uC/cm2·Volts):	-1.50e-02



Hysteresis Version: 5.48.1 - Radiant Technologies, Inc., 1999 - 9/12/24

