»»»»»»»»»»»»»»»»»»»»»»»»»»»»»»»»»»»» Hysteresis ««««««««««««««««««««««««««««««««««««
»»»  Executed Version:	5.48.1
»»»  Vision Version:	5.48.4 (R)
»»»  Vision Compiled:	9/18/24
»»»  Driver Version:	5.47.0
»»»  Windows Version:	Windows 8 or 8.1
»»»  Processor Information:	x86 (AMD or Intel) - 32 Processors
»»»  Tester Name:	PMF21124-494 (100V)
»»»  Tester S/N:	PMF21124-494
»»»  Internal Amp Type:	100V RevK 270k
»»»  Internal Amp S/N:	iAB2-596/K     
»»»  Execution Count:	1
»»»»»»»»»»»»»»»»»»»»»»»»»»»»»»»»»»»»»»»»»»««««««««««««««««««««««««««««««««««««««««««

Stored:	6/18/2025 - 19:21:59
Configured:	06/18/25 09:47:30 AM
Executed:	06/18/25 07:21:31 PM

»»»»»»»»»»»»»»»»»»»»»»»»»»»»»»»»»»» Sample Info ««««««««««««««««««««««««««««««««««««
Sample Name:	
Lot Name:	
Wafer Name:	
Die Row/Column:	0/0
Capacitor Number:	0
Sample Area (cm2):	1.00e-04
Sample Thickness (microns):	3.00e-01

Amplifier:	Internal

»»»»»»»»»»»»»»»»»»»»»»»»»»»»»»»»»»» Tester Info «««««««««««««««««««««««««««««««««««
Tester Name:	PMF21124-494 (100V)
Tester Serial Number:	PMF21124-494
Return Signal Amp. Level:	0.19 [Index: 3]

»»»»»»»»»»»»»»»»»»»»»»»»»»»»»»»» Hysteresis Info ««««««««««««««««««««««««««««««««««
Task Name:	Hyst-554
Volts:	20.00
Field:	666.67 (kV/cm)
DCBias:	0.00
DCField:	0.00 (kV/cm)
Hysteresis Period (ms):	2.00e+02
Preset:	Enabled
Preset Delay (ms):	1.00e+03
Profile:	Standard Bipolar

»»»»»»»»»»»»»»»»»»»»»»»»»»»»»»»»»»»»»» Data «««««««««««««««««««««««««««««««««««««««
Points:	2009

Valid Data

Point	Time (ms)	Drive Voltage	Measured Polarization (uC/cm2)	Capacitance (uF)	Normalized Capacitance (uF/cm2)	Dielectric Constant	Instantaneous Current (mA)
   1	0.0000e+00	0.0000	-2.278963	0.000162	1.621511	0.549383	0.000065
   2	9.9500e-02	0.0369	-2.214369	0.000162	1.621511	0.549383	0.000065
   3	1.9900e-01	0.0786	-2.153812	0.000152	1.520167	0.515046	0.000061
   4	2.9850e-01	0.1187	-2.036735	0.000294	2.938989	0.995756	0.000118
   5	3.9800e-01	0.1508	-1.907547	0.000324	3.243022	1.098766	0.000130
   6	4.9750e-01	0.2005	-1.838915	0.000172	1.722856	0.583719	0.000069
   7	5.9700e-01	0.2326	-1.754135	0.000213	2.128233	0.721065	0.000085
   8	6.9650e-01	0.2791	-1.661281	0.000233	2.330922	0.789738	0.000093
   9	7.9600e-01	0.3192	-1.544204	0.000294	2.938989	0.995756	0.000118
  10	8.9550e-01	0.3481	-1.447313	0.000243	2.432267	0.824074	0.000097
  11	9.9500e-01	0.3914	-1.354459	0.000233	2.330922	0.789738	0.000093
  12	1.0945e+00	0.4396	-1.209122	0.000365	3.648400	1.236111	0.000146
  13	1.1940e+00	0.4732	-1.136454	0.000182	1.824200	0.618056	0.000073
  14	1.2935e+00	0.5182	-1.015340	0.000304	3.040334	1.030093	0.000122
  15	1.3930e+00	0.5519	-0.886151	0.000324	3.243022	1.098766	0.000130
  16	1.4925e+00	0.5968	-0.809446	0.000193	1.925545	0.652392	0.000077
  17	1.5920e+00	0.6305	-0.676220	0.000334	3.344367	1.133102	0.000134
  18	1.6915e+00	0.6786	-0.615663	0.000152	1.520167	0.515046	0.000061
  19	1.7910e+00	0.7027	-0.514735	0.000253	2.533611	0.858411	0.000101
  20	1.8905e+00	0.7524	-0.393621	0.000304	3.040334	1.030093	0.000122
  21	1.9900e+00	0.7989	-0.292692	0.000253	2.533611	0.858411	0.000101
  22	2.0895e+00	0.8278	-0.179653	0.000284	2.837645	0.961420	0.000114
  23	2.1890e+00	0.8775	-0.082761	0.000243	2.432267	0.824074	0.000097
  24	2.2885e+00	0.9128	0.022204	0.000263	2.634956	0.892747	0.000105
  25	2.3880e+00	0.9625	0.066613	0.000111	1.114789	0.377701	0.000045
  26	2.4875e+00	1.0042	0.167541	0.000253	2.533611	0.858411	0.000101
  27	2.5870e+00	1.0315	0.353249	0.000466	4.661845	1.579476	0.000187
  28	2.6865e+00	1.0748	0.429955	0.000193	1.925545	0.652392	0.000077
  29	2.7860e+00	1.1101	0.502623	0.000182	1.824200	0.618056	0.000073
  30	2.8855e+00	1.1550	0.635849	0.000334	3.344367	1.133102	0.000134
  31	2.9850e+00	1.1903	0.740814	0.000263	2.634956	0.892747	0.000105
  32	3.0845e+00	1.2321	0.829631	0.000223	2.229578	0.755401	0.000089
  33	3.1840e+00	1.2722	0.950745	0.000304	3.040334	1.030093	0.000122
  34	3.2835e+00	1.3074	1.079934	0.000324	3.243022	1.098766	0.000130
  35	3.3830e+00	1.3363	1.144528	0.000162	1.621511	0.549383	0.000065
  36	3.4825e+00	1.3877	1.265642	0.000304	3.040334	1.030093	0.000122
  37	3.5820e+00	1.4294	1.366570	0.000253	2.533611	0.858411	0.000101
  38	3.6815e+00	1.4679	1.511907	0.000365	3.648400	1.236111	0.000146
  39	3.7810e+00	1.5096	1.592650	0.000203	2.026889	0.686729	0.000081
  40	3.8805e+00	1.5465	1.665318	0.000182	1.824200	0.618056	0.000073
  41	3.9800e+00	1.6042	1.798544	0.000334	3.344367	1.133102	0.000134
  42	4.0795e+00	1.6379	1.927732	0.000324	3.243022	1.098766	0.000130
  43	4.1790e+00	1.6684	1.972141	0.000111	1.114789	0.377701	0.000045
  44	4.2785e+00	1.7037	2.060958	0.000223	2.229578	0.755401	0.000089
  45	4.3780e+00	1.7406	2.125552	0.000162	1.621511	0.549383	0.000065
  46	4.4775e+00	1.7887	2.278963	0.000385	3.851089	1.304784	0.000154
  47	4.5770e+00	1.8272	2.420263	0.000355	3.547056	1.201775	0.000142
  48	4.6765e+00	1.8657	2.472746	0.000132	1.317478	0.446374	0.000053
  49	4.7760e+00	1.9026	2.626157	0.000385	3.851089	1.304784	0.000154
  50	4.8755e+00	1.9507	2.702862	0.000193	1.925545	0.652392	0.000077
  51	4.9750e+00	1.9909	2.828014	0.000314	3.141678	1.064429	0.000126
  52	5.0745e+00	2.0390	2.896645	0.000172	1.722856	0.583719	0.000069
  53	5.1740e+00	2.0743	2.981425	0.000213	2.128233	0.721065	0.000085
  54	5.2735e+00	2.1048	3.098502	0.000294	2.938989	0.995756	0.000118
  55	5.3730e+00	2.1384	3.199430	0.000253	2.533611	0.858411	0.000101
  56	5.4725e+00	2.1978	3.324581	0.000314	3.141678	1.064429	0.000126
  57	5.5720e+00	2.2331	3.425510	0.000253	2.533611	0.858411	0.000101
  58	5.6715e+00	2.2684	3.546624	0.000304	3.040334	1.030093	0.000122
  59	5.7710e+00	2.3149	3.639478	0.000233	2.330922	0.789738	0.000093
  60	5.8705e+00	2.3422	3.756555	0.000294	2.938989	0.995756	0.000118
  61	5.9700e+00	2.3855	3.800963	0.000111	1.114789	0.377701	0.000045
  62	6.0695e+00	2.4368	3.914003	0.000284	2.837645	0.961420	0.000114
  63	6.1690e+00	2.4641	3.990709	0.000193	1.925545	0.652392	0.000077
  64	6.2685e+00	2.5042	4.099711	0.000274	2.736300	0.927084	0.000110
  65	6.3680e+00	2.5443	4.277345	0.000446	4.459156	1.510803	0.000179
  66	6.4675e+00	2.5796	4.362125	0.000213	2.128233	0.721065	0.000085
  67	6.5670e+00	2.6293	4.454979	0.000233	2.330922	0.789738	0.000093
  68	6.6665e+00	2.6662	4.539759	0.000213	2.128233	0.721065	0.000085
  69	6.7660e+00	2.7015	4.632613	0.000233	2.330922	0.789738	0.000093
  70	6.8655e+00	2.7448	4.749690	0.000294	2.938989	0.995756	0.000118
  71	6.9650e+00	2.7849	4.850619	0.000253	2.533611	0.858411	0.000101
  72	7.0645e+00	2.8234	4.959621	0.000274	2.736300	0.927084	0.000110
  73	7.1640e+00	2.8668	5.068624	0.000274	2.736300	0.927084	0.000110
  74	7.2635e+00	2.9069	5.133218	0.000162	1.621511	0.549383	0.000065
  75	7.3630e+00	2.9454	5.278555	0.000365	3.648400	1.236111	0.000146
  76	7.4625e+00	2.9919	5.375446	0.000243	2.432267	0.824074	0.000097
  77	7.5620e+00	3.0352	5.496560	0.000304	3.040334	1.030093	0.000122
  78	7.6615e+00	3.0657	5.553080	0.000142	1.418822	0.480710	0.000057
  79	7.7610e+00	3.1026	5.698417	0.000365	3.648400	1.236111	0.000146
  80	7.8605e+00	3.1411	5.799345	0.000253	2.533611	0.858411	0.000101
  81	7.9600e+00	3.1860	5.876051	0.000193	1.925545	0.652392	0.000077
  82	8.0595e+00	3.2229	6.017351	0.000355	3.547056	1.201775	0.000142
  83	8.1590e+00	3.2646	6.098094	0.000203	2.026889	0.686729	0.000081
  84	8.2585e+00	3.2967	6.194985	0.000243	2.432267	0.824074	0.000097
  85	8.3580e+00	3.3336	6.291876	0.000243	2.432267	0.824074	0.000097
  86	8.4575e+00	3.3817	6.408953	0.000294	2.938989	0.995756	0.000118
  87	8.5570e+00	3.4218	6.517956	0.000274	2.736300	0.927084	0.000110
  88	8.6565e+00	3.4555	6.622921	0.000263	2.634956	0.892747	0.000105
  89	8.7560e+00	3.5020	6.703664	0.000203	2.026889	0.686729	0.000081
  90	8.8555e+00	3.5405	6.840927	0.000345	3.445711	1.167439	0.000138
  91	8.9550e+00	3.5823	6.933781	0.000233	2.330922	0.789738	0.000093
  92	9.0545e+00	3.6224	7.026635	0.000233	2.330922	0.789738	0.000093
  93	9.1540e+00	3.6625	7.095266	0.000172	1.722856	0.583719	0.000069
  94	9.2535e+00	3.6929	7.285011	0.000476	4.763189	1.613812	0.000191
  95	9.3530e+00	3.7507	7.329420	0.000111	1.114789	0.377701	0.000045
  96	9.4525e+00	3.7860	7.418237	0.000223	2.229578	0.755401	0.000089
  97	9.5520e+00	3.8229	7.519165	0.000253	2.533611	0.858411	0.000101
  98	9.6515e+00	3.8550	7.632205	0.000284	2.837645	0.961420	0.000114
  99	9.7510e+00	3.9063	7.721022	0.000223	2.229578	0.755401	0.000089
 100	9.8505e+00	3.9496	7.862322	0.000355	3.547056	1.201775	0.000142
 101	9.9500e+00	3.9801	7.963250	0.000253	2.533611	0.858411	0.000101
 102	1.0050e+01	4.0250	8.108587	0.000365	3.648400	1.236111	0.000146
 103	1.0149e+01	4.0651	8.181256	0.000182	1.824200	0.618056	0.000073
 104	1.0248e+01	4.0972	8.282184	0.000253	2.533611	0.858411	0.000101
 105	1.0348e+01	4.1453	8.407335	0.000314	3.141678	1.064429	0.000126
 106	1.0447e+01	4.1758	8.512301	0.000263	2.634956	0.892747	0.000105
 107	1.0547e+01	4.2175	8.589006	0.000193	1.925545	0.652392	0.000077
 108	1.0646e+01	4.2624	8.677823	0.000223	2.229578	0.755401	0.000089
 109	1.0746e+01	4.2977	8.746455	0.000172	1.722856	0.583719	0.000069
 110	1.0845e+01	4.3475	8.920051	0.000436	4.357811	1.476466	0.000174
 111	1.0945e+01	4.3844	9.000794	0.000203	2.026889	0.686729	0.000081
 112	1.1044e+01	4.4132	9.113834	0.000284	2.837645	0.961420	0.000114
 113	1.1144e+01	4.4550	9.186502	0.000182	1.824200	0.618056	0.000073
 114	1.1243e+01	4.5127	9.331839	0.000365	3.648400	1.236111	0.000146
 115	1.1343e+01	4.5448	9.404508	0.000182	1.824200	0.618056	0.000073
 116	1.1443e+01	4.5721	9.465065	0.000152	1.520167	0.515046	0.000061
 117	1.1542e+01	4.6186	9.565993	0.000253	2.533611	0.858411	0.000101
 118	1.1642e+01	4.6747	9.731516	0.000416	4.155123	1.407794	0.000166
 119	1.1741e+01	4.7004	9.856667	0.000314	3.141678	1.064429	0.000126
 120	1.1841e+01	4.7389	9.969707	0.000284	2.837645	0.961420	0.000114
 121	1.1940e+01	4.7742	10.046412	0.000193	1.925545	0.652392	0.000077
 122	1.2040e+01	4.8191	10.199823	0.000385	3.851089	1.304784	0.000154
 123	1.2139e+01	4.8528	10.300752	0.000253	2.533611	0.858411	0.000101
 124	1.2239e+01	4.9025	10.425903	0.000314	3.141678	1.064429	0.000126
 125	1.2338e+01	4.9346	10.542980	0.000294	2.938989	0.995756	0.000118
 126	1.2438e+01	4.9795	10.615648	0.000182	1.824200	0.618056	0.000073
 127	1.2537e+01	5.0068	10.684280	0.000172	1.722856	0.583719	0.000069
 128	1.2636e+01	5.0581	10.805394	0.000304	3.040334	1.030093	0.000122
 129	1.2736e+01	5.0854	10.962842	0.000395	3.952434	1.339121	0.000158
 130	1.2835e+01	5.1319	11.027436	0.000162	1.621511	0.549383	0.000065
 131	1.2935e+01	5.1801	11.172773	0.000365	3.648400	1.236111	0.000146
 132	1.3034e+01	5.2138	11.261590	0.000223	2.229578	0.755401	0.000089
 133	1.3134e+01	5.2651	11.330221	0.000172	1.722856	0.583719	0.000069
 134	1.3233e+01	5.3020	11.467484	0.000345	3.445711	1.167439	0.000138
 135	1.3333e+01	5.3373	11.524004	0.000142	1.418822	0.480710	0.000057
 136	1.3432e+01	5.3758	11.665304	0.000355	3.547056	1.201775	0.000142
 137	1.3532e+01	5.4175	11.814678	0.000375	3.749745	1.270448	0.000150
 138	1.3632e+01	5.4544	11.939829	0.000314	3.141678	1.064429	0.000126
 139	1.3731e+01	5.4945	12.044794	0.000263	2.634956	0.892747	0.000105
 140	1.3831e+01	5.5394	12.129574	0.000213	2.128233	0.721065	0.000085
 141	1.3930e+01	5.5747	12.278948	0.000375	3.749745	1.270448	0.000150
 142	1.4030e+01	5.6196	12.404100	0.000314	3.141678	1.064429	0.000126
 143	1.4129e+01	5.6549	12.476768	0.000182	1.824200	0.618056	0.000073
 144	1.4229e+01	5.6838	12.573659	0.000243	2.432267	0.824074	0.000097
 145	1.4328e+01	5.7335	12.698810	0.000314	3.141678	1.064429	0.000126
 146	1.4428e+01	5.7656	12.815887	0.000294	2.938989	0.995756	0.000118
 147	1.4527e+01	5.8137	12.884519	0.000172	1.722856	0.583719	0.000069
 148	1.4627e+01	5.8554	13.033893	0.000375	3.749745	1.270448	0.000150
 149	1.4726e+01	5.8940	13.118673	0.000213	2.128233	0.721065	0.000085
 150	1.4825e+01	5.9453	13.272084	0.000385	3.851089	1.304784	0.000154
 151	1.4925e+01	5.9790	13.292269	0.000051	0.506722	0.171682	0.000020
 152	1.5024e+01	6.0223	13.425495	0.000334	3.344367	1.133102	0.000134
 153	1.5124e+01	6.0592	13.494126	0.000172	1.722856	0.583719	0.000069
 154	1.5223e+01	6.0945	13.679834	0.000466	4.661845	1.579476	0.000187
 155	1.5323e+01	6.1314	13.817097	0.000345	3.445711	1.167439	0.000138
 156	1.5422e+01	6.1683	13.913988	0.000243	2.432267	0.824074	0.000097
 157	1.5522e+01	6.2116	14.031065	0.000294	2.938989	0.995756	0.000118
 158	1.5621e+01	6.2501	14.176402	0.000365	3.648400	1.236111	0.000146
 159	1.5721e+01	6.2870	14.277331	0.000253	2.533611	0.858411	0.000101
 160	1.5820e+01	6.3303	14.378259	0.000253	2.533611	0.858411	0.000101
 161	1.5920e+01	6.3720	14.519559	0.000355	3.547056	1.201775	0.000142
 162	1.6020e+01	6.4025	14.600301	0.000203	2.026889	0.686729	0.000081
 163	1.6119e+01	6.4570	14.705267	0.000263	2.634956	0.892747	0.000105
 164	1.6218e+01	6.4955	14.842530	0.000345	3.445711	1.167439	0.000138
 165	1.6318e+01	6.5276	14.943458	0.000253	2.533611	0.858411	0.000101
 166	1.6418e+01	6.5677	15.064572	0.000304	3.040334	1.030093	0.000122
 167	1.6517e+01	6.6030	15.145315	0.000203	2.026889	0.686729	0.000081
 168	1.6616e+01	6.6479	15.298726	0.000385	3.851089	1.304784	0.000154
 169	1.6716e+01	6.6880	15.355246	0.000142	1.418822	0.480710	0.000057
 170	1.6816e+01	6.7201	15.468286	0.000284	2.837645	0.961420	0.000114
 171	1.6915e+01	6.7667	15.649957	0.000456	4.560500	1.545139	0.000183
 172	1.7015e+01	6.8148	15.718588	0.000172	1.722856	0.583719	0.000069
 173	1.7114e+01	6.8469	15.827591	0.000274	2.736300	0.927084	0.000110
 174	1.7213e+01	6.8886	15.968890	0.000355	3.547056	1.201775	0.000142
 175	1.7313e+01	6.9335	16.073856	0.000263	2.634956	0.892747	0.000105
 176	1.7413e+01	6.9592	16.199007	0.000314	3.141678	1.064429	0.000126
 177	1.7512e+01	7.0137	16.312047	0.000284	2.837645	0.961420	0.000114
 178	1.7611e+01	7.0506	16.404901	0.000233	2.330922	0.789738	0.000093
 179	1.7711e+01	7.0891	16.526015	0.000304	3.040334	1.030093	0.000122
 180	1.7811e+01	7.1148	16.643092	0.000294	2.938989	0.995756	0.000118
 181	1.7910e+01	7.1613	16.744020	0.000253	2.533611	0.858411	0.000101
 182	1.8009e+01	7.2094	16.885320	0.000355	3.547056	1.201775	0.000142
 183	1.8109e+01	7.2495	16.986249	0.000253	2.533611	0.858411	0.000101
 184	1.8209e+01	7.2880	17.115437	0.000324	3.243022	1.098766	0.000130
 185	1.8308e+01	7.3249	17.248662	0.000334	3.344367	1.133102	0.000134
 186	1.8407e+01	7.3698	17.333442	0.000213	2.128233	0.721065	0.000085
 187	1.8507e+01	7.4132	17.418222	0.000213	2.128233	0.721065	0.000085
 188	1.8607e+01	7.4452	17.539336	0.000304	3.040334	1.030093	0.000122
 189	1.8706e+01	7.4918	17.704859	0.000416	4.155123	1.407794	0.000166
 190	1.8805e+01	7.5303	17.777527	0.000182	1.824200	0.618056	0.000073
 191	1.8905e+01	7.5672	17.902678	0.000314	3.141678	1.064429	0.000126
 192	1.9005e+01	7.6073	18.003607	0.000253	2.533611	0.858411	0.000101
 193	1.9104e+01	7.6458	18.165092	0.000405	4.053778	1.373457	0.000162
 194	1.9203e+01	7.6859	18.249872	0.000213	2.128233	0.721065	0.000085
 195	1.9303e+01	7.7244	18.383098	0.000334	3.344367	1.133102	0.000134
 196	1.9402e+01	7.7645	18.463840	0.000203	2.026889	0.686729	0.000081
 197	1.9502e+01	7.8062	18.621289	0.000395	3.952434	1.339121	0.000158
 198	1.9602e+01	7.8463	18.702031	0.000203	2.026889	0.686729	0.000081
 199	1.9701e+01	7.8848	18.819108	0.000294	2.938989	0.995756	0.000118
 200	1.9800e+01	7.9329	18.924074	0.000263	2.634956	0.892747	0.000105
 201	1.9900e+01	7.9618	19.057299	0.000334	3.344367	1.133102	0.000134
 202	2.0000e+01	8.0115	19.154191	0.000243	2.432267	0.824074	0.000097
 203	2.0099e+01	8.0452	19.271267	0.000294	2.938989	0.995756	0.000118
 204	2.0198e+01	8.0853	19.364122	0.000233	2.330922	0.789738	0.000093
 205	2.0298e+01	8.1254	19.444864	0.000203	2.026889	0.686729	0.000081
 206	2.0398e+01	8.1639	19.553867	0.000274	2.736300	0.927084	0.000110
 207	2.0497e+01	8.2024	19.691130	0.000345	3.445711	1.167439	0.000138
 208	2.0596e+01	8.2425	19.824355	0.000334	3.344367	1.133102	0.000134
 209	2.0696e+01	8.2778	19.949506	0.000314	3.141678	1.064429	0.000126
 210	2.0796e+01	8.3228	20.046398	0.000243	2.432267	0.824074	0.000097
 211	2.0895e+01	8.3597	20.167512	0.000304	3.040334	1.030093	0.000122
 212	2.0994e+01	8.3982	20.256329	0.000223	2.229578	0.755401	0.000089
 213	2.1094e+01	8.4495	20.401665	0.000365	3.648400	1.236111	0.000146
 214	2.1194e+01	8.4864	20.474334	0.000182	1.824200	0.618056	0.000073
 215	2.1293e+01	8.5185	20.603522	0.000324	3.243022	1.098766	0.000130
 216	2.1392e+01	8.5666	20.724636	0.000304	3.040334	1.030093	0.000122
 217	2.1492e+01	8.6019	20.853825	0.000324	3.243022	1.098766	0.000130
 218	2.1591e+01	8.6308	20.922456	0.000172	1.722856	0.583719	0.000069
 219	2.1691e+01	8.6725	21.079904	0.000395	3.952434	1.339121	0.000158
 220	2.1791e+01	8.7238	21.132387	0.000132	1.317478	0.446374	0.000053
 221	2.1890e+01	8.7719	21.257538	0.000314	3.141678	1.064429	0.000126
 222	2.1989e+01	8.8024	21.354429	0.000243	2.432267	0.824074	0.000097
 223	2.2089e+01	8.8377	21.447284	0.000233	2.330922	0.789738	0.000093
 224	2.2189e+01	8.8842	21.528026	0.000203	2.026889	0.686729	0.000081
 225	2.2288e+01	8.9211	21.661252	0.000334	3.344367	1.133102	0.000134
 226	2.2387e+01	8.9709	21.798514	0.000345	3.445711	1.167439	0.000138
 227	2.2487e+01	9.0046	21.915591	0.000294	2.938989	0.995756	0.000118
 228	2.2587e+01	9.0463	22.052854	0.000345	3.445711	1.167439	0.000138
 229	2.2686e+01	9.0864	22.178005	0.000314	3.141678	1.064429	0.000126
 230	2.2785e+01	9.1201	22.295082	0.000294	2.938989	0.995756	0.000118
 231	2.2885e+01	9.1538	22.420233	0.000314	3.141678	1.064429	0.000126
 232	2.2985e+01	9.2099	22.521162	0.000253	2.533611	0.858411	0.000101
 233	2.3084e+01	9.2404	22.605942	0.000213	2.128233	0.721065	0.000085
 234	2.3183e+01	9.2869	22.743204	0.000345	3.445711	1.167439	0.000138
 235	2.3283e+01	9.3126	22.864318	0.000304	3.040334	1.030093	0.000122
 236	2.3383e+01	9.3495	22.920838	0.000142	1.418822	0.480710	0.000057
 237	2.3482e+01	9.4008	23.033878	0.000284	2.837645	0.961420	0.000114
 238	2.3581e+01	9.4361	23.138843	0.000263	2.634956	0.892747	0.000105
 239	2.3681e+01	9.4810	23.243809	0.000263	2.634956	0.892747	0.000105
 240	2.3780e+01	9.5340	23.316477	0.000182	1.824200	0.618056	0.000073
 241	2.3880e+01	9.5580	23.449703	0.000334	3.344367	1.133102	0.000134
 242	2.3980e+01	9.5997	23.542557	0.000233	2.330922	0.789738	0.000093
 243	2.4079e+01	9.6463	23.679820	0.000345	3.445711	1.167439	0.000138
 244	2.4178e+01	9.6831	23.752488	0.000182	1.824200	0.618056	0.000073
 245	2.4278e+01	9.7233	23.926085	0.000436	4.357811	1.476466	0.000174
 246	2.4378e+01	9.7634	24.031050	0.000263	2.634956	0.892747	0.000105
 247	2.4477e+01	9.7954	24.148127	0.000294	2.938989	0.995756	0.000118
 248	2.4576e+01	9.8420	24.245019	0.000243	2.432267	0.824074	0.000097
 249	2.4676e+01	9.8853	24.354021	0.000274	2.736300	0.927084	0.000110
 250	2.4776e+01	9.9222	24.471098	0.000294	2.938989	0.995756	0.000118
 251	2.4875e+01	9.9543	24.596249	0.000314	3.141678	1.064429	0.000126
 252	2.4974e+01	9.9992	24.681029	0.000213	2.128233	0.721065	0.000085
 253	2.5074e+01	10.0393	24.822329	0.000355	3.547056	1.201775	0.000142
 254	2.5174e+01	10.0778	24.878849	0.000142	1.418822	0.480710	0.000057
 255	2.5273e+01	10.1179	25.016112	0.000345	3.445711	1.167439	0.000138
 256	2.5372e+01	10.1676	25.169523	0.000385	3.851089	1.304784	0.000154
 257	2.5472e+01	10.1885	25.226043	0.000142	1.418822	0.480710	0.000057
 258	2.5572e+01	10.2350	25.335045	0.000274	2.736300	0.927084	0.000110
 259	2.5671e+01	10.2687	25.415788	0.000203	2.026889	0.686729	0.000081
 260	2.5770e+01	10.3088	25.476345	0.000152	1.520167	0.515046	0.000061
 261	2.5870e+01	10.3553	25.597459	0.000304	3.040334	1.030093	0.000122
 262	2.5970e+01	10.4051	25.734722	0.000345	3.445711	1.167439	0.000138
 263	2.6069e+01	10.4355	25.871984	0.000345	3.445711	1.167439	0.000138
 264	2.6169e+01	10.4821	25.976950	0.000263	2.634956	0.892747	0.000105
 265	2.6268e+01	10.5141	26.041544	0.000162	1.621511	0.549383	0.000065
 266	2.6367e+01	10.5542	26.190918	0.000375	3.749745	1.270448	0.000150
 267	2.6467e+01	10.6008	26.299921	0.000274	2.736300	0.927084	0.000110
 268	2.6567e+01	10.6345	26.376626	0.000193	1.925545	0.652392	0.000077
 269	2.6666e+01	10.6762	26.513889	0.000345	3.445711	1.167439	0.000138
 270	2.6765e+01	10.7050	26.586557	0.000182	1.824200	0.618056	0.000073
 271	2.6865e+01	10.7548	26.699597	0.000284	2.837645	0.961420	0.000114
 272	2.6965e+01	10.7949	26.796488	0.000243	2.432267	0.824074	0.000097
 273	2.7064e+01	10.8350	26.933751	0.000345	3.445711	1.167439	0.000138
 274	2.7163e+01	10.8671	27.026605	0.000233	2.330922	0.789738	0.000093
 275	2.7263e+01	10.9184	27.131571	0.000263	2.634956	0.892747	0.000105
 276	2.7363e+01	10.9569	27.224425	0.000233	2.330922	0.789738	0.000093
 277	2.7462e+01	10.9986	27.337465	0.000284	2.837645	0.961420	0.000114
 278	2.7561e+01	11.0243	27.410133	0.000182	1.824200	0.618056	0.000073
 279	2.7661e+01	11.0708	27.527210	0.000294	2.938989	0.995756	0.000118
 280	2.7761e+01	11.1109	27.644287	0.000294	2.938989	0.995756	0.000118
 281	2.7860e+01	11.1494	27.793661	0.000375	3.749745	1.270448	0.000150
 282	2.7959e+01	11.1879	27.866329	0.000182	1.824200	0.618056	0.000073
 283	2.8059e+01	11.2264	27.995518	0.000324	3.243022	1.098766	0.000130
 284	2.8159e+01	11.2681	28.104520	0.000274	2.736300	0.927084	0.000110
 285	2.8258e+01	11.3114	28.209486	0.000263	2.634956	0.892747	0.000105
 286	2.8358e+01	11.3516	28.306377	0.000243	2.432267	0.824074	0.000097
 287	2.8457e+01	11.3917	28.455751	0.000375	3.749745	1.270448	0.000150
 288	2.8556e+01	11.4350	28.520345	0.000162	1.621511	0.549383	0.000065
 289	2.8656e+01	11.4719	28.673757	0.000385	3.851089	1.304784	0.000154
 290	2.8756e+01	11.5007	28.770648	0.000243	2.432267	0.824074	0.000097
 291	2.8855e+01	11.5553	28.895799	0.000314	3.141678	1.064429	0.000126
 292	2.8954e+01	11.5922	29.012876	0.000294	2.938989	0.995756	0.000118
 293	2.9054e+01	11.6259	29.105730	0.000233	2.330922	0.789738	0.000093
 294	2.9154e+01	11.6756	29.206658	0.000253	2.533611	0.858411	0.000101
 295	2.9253e+01	11.7045	29.339884	0.000334	3.344367	1.133102	0.000134
 296	2.9352e+01	11.7558	29.412552	0.000182	1.824200	0.618056	0.000073
 297	2.9452e+01	11.7863	29.505407	0.000233	2.330922	0.789738	0.000093
 298	2.9552e+01	11.8296	29.618446	0.000284	2.837645	0.961420	0.000114
 299	2.9651e+01	11.8777	29.751672	0.000334	3.344367	1.133102	0.000134
 300	2.9750e+01	11.9162	29.868749	0.000294	2.938989	0.995756	0.000118
 301	2.9850e+01	11.9499	29.969677	0.000253	2.533611	0.858411	0.000101
 302	2.9950e+01	11.9932	30.115014	0.000365	3.648400	1.236111	0.000146
 303	3.0049e+01	12.0269	30.224017	0.000274	2.736300	0.927084	0.000110
 304	3.0148e+01	12.0622	30.304759	0.000203	2.026889	0.686729	0.000081
 305	3.0248e+01	12.1087	30.454133	0.000375	3.749745	1.270448	0.000150
 306	3.0348e+01	12.1473	30.575248	0.000304	3.040334	1.030093	0.000122
 307	3.0447e+01	12.2018	30.647916	0.000182	1.824200	0.618056	0.000073
 308	3.0547e+01	12.2307	30.793253	0.000365	3.648400	1.236111	0.000146
 309	3.0646e+01	12.2676	30.910330	0.000294	2.938989	0.995756	0.000118
 310	3.0745e+01	12.3125	31.003184	0.000233	2.330922	0.789738	0.000093
 311	3.0845e+01	12.3478	31.124298	0.000304	3.040334	1.030093	0.000122
 312	3.0945e+01	12.3863	31.217152	0.000233	2.330922	0.789738	0.000093
 313	3.1044e+01	12.4232	31.305969	0.000223	2.229578	0.755401	0.000089
 314	3.1143e+01	12.4745	31.451306	0.000365	3.648400	1.236111	0.000146
 315	3.1243e+01	12.5130	31.544160	0.000233	2.330922	0.789738	0.000093
 316	3.1343e+01	12.5547	31.673348	0.000324	3.243022	1.098766	0.000130
 317	3.1442e+01	12.5820	31.766203	0.000233	2.330922	0.789738	0.000093
 318	3.1541e+01	12.6285	31.895391	0.000324	3.243022	1.098766	0.000130
 319	3.1641e+01	12.6686	32.016505	0.000304	3.040334	1.030093	0.000122
 320	3.1741e+01	12.7071	32.161842	0.000365	3.648400	1.236111	0.000146
 321	3.1840e+01	12.7440	32.222399	0.000152	1.520167	0.515046	0.000061
 322	3.1939e+01	12.7873	32.343513	0.000304	3.040334	1.030093	0.000122
 323	3.2039e+01	12.8194	32.460590	0.000294	2.938989	0.995756	0.000118
 324	3.2139e+01	12.8692	32.581704	0.000304	3.040334	1.030093	0.000122
 325	3.2238e+01	12.9044	32.682632	0.000253	2.533611	0.858411	0.000101
 326	3.2337e+01	12.9413	32.779524	0.000243	2.432267	0.824074	0.000097
 327	3.2437e+01	12.9895	32.912749	0.000334	3.344367	1.133102	0.000134
 328	3.2536e+01	13.0167	33.029826	0.000294	2.938989	0.995756	0.000118
 329	3.2636e+01	13.0585	33.126717	0.000243	2.432267	0.824074	0.000097
 330	3.2736e+01	13.1098	33.276091	0.000375	3.749745	1.270448	0.000150
 331	3.2835e+01	13.1451	33.348760	0.000182	1.824200	0.618056	0.000073
 332	3.2934e+01	13.1804	33.514282	0.000416	4.155123	1.407794	0.000166
 333	3.3034e+01	13.2269	33.623285	0.000274	2.736300	0.927084	0.000110
 334	3.3133e+01	13.2606	33.699991	0.000193	1.925545	0.652392	0.000077
 335	3.3233e+01	13.3039	33.817068	0.000294	2.938989	0.995756	0.000118
 336	3.3333e+01	13.3472	33.893773	0.000193	1.925545	0.652392	0.000077
 337	3.3432e+01	13.3825	34.006813	0.000284	2.837645	0.961420	0.000114
 338	3.3532e+01	13.4162	34.131964	0.000314	3.141678	1.064429	0.000126
 339	3.3631e+01	13.4659	34.281338	0.000375	3.749745	1.270448	0.000150
 340	3.3730e+01	13.4964	34.370155	0.000223	2.229578	0.755401	0.000089
 341	3.3830e+01	13.5526	34.483195	0.000284	2.837645	0.961420	0.000114
 342	3.3929e+01	13.5846	34.608346	0.000314	3.141678	1.064429	0.000126
 343	3.4029e+01	13.6215	34.725423	0.000294	2.938989	0.995756	0.000118
 344	3.4129e+01	13.6616	34.838463	0.000284	2.837645	0.961420	0.000114
 345	3.4228e+01	13.6905	34.951503	0.000284	2.837645	0.961420	0.000114
 346	3.4328e+01	13.7403	35.084728	0.000334	3.344367	1.133102	0.000134
 347	3.4427e+01	13.7820	35.185657	0.000253	2.533611	0.858411	0.000101
 348	3.4526e+01	13.8173	35.322919	0.000345	3.445711	1.167439	0.000138
 349	3.4626e+01	13.8622	35.448070	0.000314	3.141678	1.064429	0.000126
 350	3.4725e+01	13.8975	35.557073	0.000274	2.736300	0.927084	0.000110
 351	3.4825e+01	13.9440	35.653964	0.000243	2.432267	0.824074	0.000097
 352	3.4925e+01	13.9793	35.795264	0.000355	3.547056	1.201775	0.000142
 353	3.5024e+01	14.0114	35.827561	0.000081	0.810756	0.274691	0.000032
 354	3.5123e+01	14.0611	35.936564	0.000274	2.736300	0.927084	0.000110
 355	3.5223e+01	14.1044	36.069789	0.000334	3.344367	1.133102	0.000134
 356	3.5322e+01	14.1381	36.186866	0.000294	2.938989	0.995756	0.000118
 357	3.5422e+01	14.1782	36.299906	0.000284	2.837645	0.961420	0.000114
 358	3.5522e+01	14.2167	36.449280	0.000375	3.749745	1.270448	0.000150
 359	3.5621e+01	14.2616	36.534060	0.000213	2.128233	0.721065	0.000085
 360	3.5721e+01	14.2889	36.626914	0.000233	2.330922	0.789738	0.000093
 361	3.5820e+01	14.3418	36.776288	0.000375	3.749745	1.270448	0.000150
 362	3.5919e+01	14.3868	36.881254	0.000263	2.634956	0.892747	0.000105
 363	3.6019e+01	14.4156	37.014479	0.000334	3.344367	1.133102	0.000134
 364	3.6118e+01	14.4573	37.135593	0.000304	3.040334	1.030093	0.000122
 365	3.6218e+01	14.5007	37.256707	0.000304	3.040334	1.030093	0.000122
 366	3.6318e+01	14.5327	37.410118	0.000385	3.851089	1.304784	0.000154
 367	3.6417e+01	14.5729	37.523158	0.000284	2.837645	0.961420	0.000114
 368	3.6517e+01	14.6210	37.656384	0.000334	3.344367	1.133102	0.000134
 369	3.6616e+01	14.6515	37.737126	0.000203	2.026889	0.686729	0.000081
 370	3.6715e+01	14.6948	37.797683	0.000152	1.520167	0.515046	0.000061
 371	3.6815e+01	14.7365	37.930909	0.000334	3.344367	1.133102	0.000134
 372	3.6914e+01	14.7734	37.991466	0.000152	1.520167	0.515046	0.000061
 373	3.7014e+01	14.8119	38.108543	0.000294	2.938989	0.995756	0.000118
 374	3.7114e+01	14.8536	38.229657	0.000304	3.040334	1.030093	0.000122
 375	3.7213e+01	14.8921	38.330585	0.000253	2.533611	0.858411	0.000101
 376	3.7313e+01	14.9370	38.451699	0.000304	3.040334	1.030093	0.000122
 377	3.7412e+01	14.9803	38.532442	0.000203	2.026889	0.686729	0.000081
 378	3.7511e+01	15.0092	38.681816	0.000375	3.749745	1.270448	0.000150
 379	3.7611e+01	15.0605	38.802930	0.000304	3.040334	1.030093	0.000122
 380	3.7711e+01	15.0942	38.903859	0.000253	2.533611	0.858411	0.000101
 381	3.7810e+01	15.1359	39.057270	0.000385	3.851089	1.304784	0.000154
 382	3.7910e+01	15.1873	39.158198	0.000253	2.533611	0.858411	0.000101
 383	3.8009e+01	15.2145	39.279312	0.000304	3.040334	1.030093	0.000122
 384	3.8108e+01	15.2595	39.372166	0.000233	2.330922	0.789738	0.000093
 385	3.8208e+01	15.2867	39.517503	0.000365	3.648400	1.236111	0.000146
 386	3.8307e+01	15.3365	39.598246	0.000203	2.026889	0.686729	0.000081
 387	3.8407e+01	15.3798	39.683026	0.000213	2.128233	0.721065	0.000085
 388	3.8507e+01	15.4215	39.800103	0.000294	2.938989	0.995756	0.000118
 389	3.8606e+01	15.4552	39.868734	0.000172	1.722856	0.583719	0.000069
 390	3.8706e+01	15.4857	39.973700	0.000263	2.634956	0.892747	0.000105
 391	3.8805e+01	15.5338	40.106925	0.000334	3.344367	1.133102	0.000134
 392	3.8904e+01	15.5691	40.183631	0.000193	1.925545	0.652392	0.000077
 393	3.9004e+01	15.6108	40.284559	0.000253	2.533611	0.858411	0.000101
 394	3.9103e+01	15.6541	40.433933	0.000375	3.749745	1.270448	0.000150
 395	3.9203e+01	15.6926	40.522750	0.000223	2.229578	0.755401	0.000089
 396	3.9303e+01	15.7423	40.627715	0.000263	2.634956	0.892747	0.000105
 397	3.9402e+01	15.7776	40.728644	0.000253	2.533611	0.858411	0.000101
 398	3.9502e+01	15.8081	40.841684	0.000284	2.837645	0.961420	0.000114
 399	3.9601e+01	15.8562	41.015281	0.000436	4.357811	1.476466	0.000174
 400	3.9700e+01	15.8931	41.124283	0.000274	2.736300	0.927084	0.000110
 401	3.9800e+01	15.9364	41.241360	0.000294	2.938989	0.995756	0.000118
 402	3.9900e+01	15.9766	41.350363	0.000274	2.736300	0.927084	0.000110
 403	3.9999e+01	16.0215	41.483588	0.000334	3.344367	1.133102	0.000134
 404	4.0099e+01	16.0471	41.556257	0.000182	1.824200	0.618056	0.000073
 405	4.0198e+01	16.0969	41.649111	0.000233	2.330922	0.789738	0.000093
 406	4.0297e+01	16.1257	41.717742	0.000172	1.722856	0.583719	0.000069
 407	4.0397e+01	16.1755	41.818671	0.000253	2.533611	0.858411	0.000101
 408	4.0496e+01	16.2028	41.919599	0.000253	2.533611	0.858411	0.000101
 409	4.0596e+01	16.2541	42.048787	0.000324	3.243022	1.098766	0.000130
 410	4.0696e+01	16.2878	42.149716	0.000253	2.533611	0.858411	0.000101
 411	4.0795e+01	16.3295	42.250644	0.000253	2.533611	0.858411	0.000101
 412	4.0895e+01	16.3600	42.359647	0.000274	2.736300	0.927084	0.000110
 413	4.0994e+01	16.4177	42.496909	0.000345	3.445711	1.167439	0.000138
 414	4.1093e+01	16.4594	42.593801	0.000243	2.432267	0.824074	0.000097
 415	4.1193e+01	16.4867	42.658395	0.000162	1.621511	0.549383	0.000065
 416	4.1292e+01	16.5252	42.795657	0.000345	3.445711	1.167439	0.000138
 417	4.1392e+01	16.5685	42.932920	0.000345	3.445711	1.167439	0.000138
 418	4.1492e+01	16.6134	43.066145	0.000334	3.344367	1.133102	0.000134
 419	4.1591e+01	16.6439	43.138814	0.000182	1.824200	0.618056	0.000073
 420	4.1691e+01	16.6872	43.235705	0.000243	2.432267	0.824074	0.000097
 421	4.1790e+01	16.7209	43.372968	0.000345	3.445711	1.167439	0.000138
 422	4.1889e+01	16.7706	43.473896	0.000253	2.533611	0.858411	0.000101
 423	4.1989e+01	16.8156	43.570787	0.000243	2.432267	0.824074	0.000097
 424	4.2089e+01	16.8444	43.663642	0.000233	2.330922	0.789738	0.000093
 425	4.2188e+01	16.8878	43.760533	0.000243	2.432267	0.824074	0.000097
 426	4.2288e+01	16.9295	43.808978	0.000122	1.216133	0.412037	0.000049
 427	4.2387e+01	16.9712	43.930093	0.000304	3.040334	1.030093	0.000122
 428	4.2486e+01	17.0049	44.063318	0.000334	3.344367	1.133102	0.000134
 429	4.2586e+01	17.0562	44.135986	0.000182	1.824200	0.618056	0.000073
 430	4.2685e+01	17.0947	44.289398	0.000385	3.851089	1.304784	0.000154
 431	4.2785e+01	17.1188	44.410512	0.000304	3.040334	1.030093	0.000122
 432	4.2885e+01	17.1701	44.475106	0.000162	1.621511	0.549383	0.000065
 433	4.2984e+01	17.2006	44.584109	0.000274	2.736300	0.927084	0.000110
 434	4.3084e+01	17.2487	44.741557	0.000395	3.952434	1.339121	0.000158
 435	4.3183e+01	17.2856	44.834411	0.000233	2.330922	0.789738	0.000093
 436	4.3282e+01	17.3289	44.971674	0.000345	3.445711	1.167439	0.000138
 437	4.3382e+01	17.3674	45.044342	0.000182	1.824200	0.618056	0.000073
 438	4.3481e+01	17.4075	45.177567	0.000334	3.344367	1.133102	0.000134
 439	4.3581e+01	17.4316	45.270422	0.000233	2.330922	0.789738	0.000093
 440	4.3681e+01	17.4942	45.375387	0.000263	2.634956	0.892747	0.000105
 441	4.3780e+01	17.5311	45.504575	0.000324	3.243022	1.098766	0.000130
 442	4.3880e+01	17.5647	45.565133	0.000152	1.520167	0.515046	0.000061
 443	4.3979e+01	17.6081	45.645875	0.000203	2.026889	0.686729	0.000081
 444	4.4078e+01	17.6401	45.722581	0.000193	1.925545	0.652392	0.000077
 445	4.4178e+01	17.6899	45.859843	0.000345	3.445711	1.167439	0.000138
 446	4.4278e+01	17.7220	45.936549	0.000193	1.925545	0.652392	0.000077
 447	4.4377e+01	17.7605	46.065737	0.000324	3.243022	1.098766	0.000130
 448	4.4477e+01	17.7974	46.154554	0.000223	2.229578	0.755401	0.000089
 449	4.4576e+01	17.8487	46.267594	0.000284	2.837645	0.961420	0.000114
 450	4.4675e+01	17.8920	46.376597	0.000274	2.736300	0.927084	0.000110
 451	4.4775e+01	17.9305	46.481562	0.000263	2.634956	0.892747	0.000105
 452	4.4874e+01	17.9626	46.618825	0.000345	3.445711	1.167439	0.000138
 453	4.4974e+01	18.0043	46.752050	0.000334	3.344367	1.133102	0.000134
 454	4.5074e+01	18.0460	46.885276	0.000334	3.344367	1.133102	0.000134
 455	4.5173e+01	18.0749	46.966019	0.000203	2.026889	0.686729	0.000081
 456	4.5273e+01	18.1230	47.079058	0.000284	2.837645	0.961420	0.000114
 457	4.5372e+01	18.1679	47.208247	0.000324	3.243022	1.098766	0.000130
 458	4.5471e+01	18.2016	47.264767	0.000142	1.418822	0.480710	0.000057
 459	4.5571e+01	18.2498	47.369732	0.000263	2.634956	0.892747	0.000105
 460	4.5670e+01	18.2786	47.466623	0.000243	2.432267	0.824074	0.000097
 461	4.5770e+01	18.3332	47.567552	0.000253	2.533611	0.858411	0.000101
 462	4.5870e+01	18.3653	47.660406	0.000233	2.330922	0.789738	0.000093
 463	4.5969e+01	18.4022	47.777483	0.000294	2.938989	0.995756	0.000118
 464	4.6069e+01	18.4391	47.878411	0.000253	2.533611	0.858411	0.000101
 465	4.6168e+01	18.4727	47.987414	0.000274	2.736300	0.927084	0.000110
 466	4.6267e+01	18.5225	48.140825	0.000385	3.851089	1.304784	0.000154
 467	4.6367e+01	18.5674	48.229642	0.000223	2.229578	0.755401	0.000089
 468	4.6467e+01	18.5995	48.338645	0.000274	2.736300	0.927084	0.000110
 469	4.6566e+01	18.6412	48.479945	0.000355	3.547056	1.201775	0.000142
 470	4.6666e+01	18.6781	48.588947	0.000274	2.736300	0.927084	0.000110
 471	4.6765e+01	18.7246	48.734284	0.000365	3.648400	1.236111	0.000146
 472	4.6864e+01	18.7599	48.819064	0.000213	2.128233	0.721065	0.000085
 473	4.6964e+01	18.8048	48.932104	0.000284	2.837645	0.961420	0.000114
 474	4.7063e+01	18.8481	49.037069	0.000263	2.634956	0.892747	0.000105
 475	4.7163e+01	18.8802	49.162220	0.000314	3.141678	1.064429	0.000126
 476	4.7263e+01	18.9267	49.230852	0.000172	1.722856	0.583719	0.000069
 477	4.7362e+01	18.9684	49.360040	0.000324	3.243022	1.098766	0.000130
 478	4.7462e+01	18.9989	49.440783	0.000203	2.026889	0.686729	0.000081
 479	4.7561e+01	19.0455	49.541711	0.000253	2.533611	0.858411	0.000101
 480	4.7660e+01	19.0840	49.646677	0.000263	2.634956	0.892747	0.000105
 481	4.7760e+01	19.1273	49.771828	0.000314	3.141678	1.064429	0.000126
 482	4.7859e+01	19.1610	49.864682	0.000233	2.330922	0.789738	0.000093
 483	4.7959e+01	19.2059	49.961573	0.000243	2.432267	0.824074	0.000097
 484	4.8059e+01	19.2396	50.082687	0.000304	3.040334	1.030093	0.000122
 485	4.8158e+01	19.2781	50.183616	0.000253	2.533611	0.858411	0.000101
 486	4.8258e+01	19.3214	50.316841	0.000334	3.344367	1.133102	0.000134
 487	4.8357e+01	19.3583	50.446030	0.000324	3.243022	1.098766	0.000130
 488	4.8456e+01	19.3936	50.575218	0.000324	3.243022	1.098766	0.000130
 489	4.8556e+01	19.4433	50.728629	0.000385	3.851089	1.304784	0.000154
 490	4.8656e+01	19.4850	50.797260	0.000172	1.722856	0.583719	0.000069
 491	4.8755e+01	19.5235	50.926449	0.000324	3.243022	1.098766	0.000130
 492	4.8855e+01	19.5540	51.071786	0.000365	3.648400	1.236111	0.000146
 493	4.8954e+01	19.5925	51.148491	0.000193	1.925545	0.652392	0.000077
 494	4.9053e+01	19.6374	51.253457	0.000263	2.634956	0.892747	0.000105
 495	4.9153e+01	19.6871	51.330162	0.000193	1.925545	0.652392	0.000077
 496	4.9252e+01	19.7192	51.427054	0.000243	2.432267	0.824074	0.000097
 497	4.9352e+01	19.7513	51.491648	0.000162	1.621511	0.549383	0.000065
 498	4.9452e+01	19.7930	51.645059	0.000385	3.851089	1.304784	0.000154
 499	4.9551e+01	19.8476	51.717727	0.000182	1.824200	0.618056	0.000073
 500	4.9651e+01	19.8716	51.838841	0.000304	3.040334	1.030093	0.000122
 501	4.9750e+01	19.9182	51.984178	0.000365	3.648400	1.236111	0.000146
 502	4.9849e+01	19.9502	52.060884	0.000193	1.925545	0.652392	0.000077
 503	4.9949e+01	19.9984	52.137589	0.000193	1.925545	0.652392	0.000077
 504	5.0048e+01	19.9551	52.105292	0.000081	0.810756	0.274691	-0.000032
 505	5.0148e+01	19.9149	52.072995	0.000081	0.810756	0.274691	-0.000032
 506	5.0248e+01	19.8797	51.992253	0.000203	2.026889	0.686729	-0.000081
 507	5.0347e+01	19.8412	51.907473	0.000213	2.128233	0.721065	-0.000085
 508	5.0447e+01	19.8043	51.899398	0.000020	0.202689	0.068673	-0.000008
 509	5.0546e+01	19.7529	51.794433	0.000263	2.634956	0.892747	-0.000105
 510	5.0645e+01	19.7112	51.770210	0.000061	0.608067	0.206019	-0.000024
 511	5.0745e+01	19.6839	51.677356	0.000233	2.330922	0.789738	-0.000093
 512	5.0844e+01	19.6342	51.568353	0.000274	2.736300	0.927084	-0.000110
 513	5.0944e+01	19.6037	51.499722	0.000172	1.722856	0.583719	-0.000069
 514	5.1044e+01	19.5556	51.378608	0.000304	3.040334	1.030093	-0.000122
 515	5.1143e+01	19.5171	51.245382	0.000334	3.344367	1.133102	-0.000134
 516	5.1242e+01	19.4706	51.196937	0.000122	1.216133	0.412037	-0.000049
 517	5.1342e+01	19.4337	51.140417	0.000142	1.418822	0.480710	-0.000057
 518	5.1441e+01	19.3968	51.043526	0.000243	2.432267	0.824074	-0.000097
 519	5.1541e+01	19.3535	50.974894	0.000172	1.722856	0.583719	-0.000069
 520	5.1641e+01	19.3262	50.878003	0.000243	2.432267	0.824074	-0.000097
 521	5.1740e+01	19.2716	50.801298	0.000193	1.925545	0.652392	-0.000077
 522	5.1840e+01	19.2444	50.760926	0.000101	1.013445	0.343364	-0.000041
 523	5.1939e+01	19.2043	50.696332	0.000162	1.621511	0.549383	-0.000065
 524	5.2038e+01	19.1561	50.615589	0.000203	2.026889	0.686729	-0.000081
 525	5.2138e+01	19.1112	50.506587	0.000274	2.736300	0.927084	-0.000110
 526	5.2237e+01	19.0888	50.446030	0.000152	1.520167	0.515046	-0.000061
 527	5.2337e+01	19.0455	50.377398	0.000172	1.722856	0.583719	-0.000069
 528	5.2437e+01	19.0005	50.304730	0.000182	1.824200	0.618056	-0.000073
 529	5.2536e+01	18.9572	50.211876	0.000233	2.330922	0.789738	-0.000093
 530	5.2636e+01	18.9283	50.066539	0.000365	3.648400	1.236111	-0.000146
 531	5.2735e+01	18.8882	49.973685	0.000233	2.330922	0.789738	-0.000093
 532	5.2834e+01	18.8433	49.880831	0.000233	2.330922	0.789738	-0.000093
 533	5.2934e+01	18.8016	49.755679	0.000314	3.141678	1.064429	-0.000126
 534	5.3033e+01	18.7599	49.683011	0.000182	1.824200	0.618056	-0.000073
 535	5.3133e+01	18.7262	49.586120	0.000243	2.432267	0.824074	-0.000097
 536	5.3233e+01	18.6893	49.517488	0.000172	1.722856	0.583719	-0.000069
 537	5.3332e+01	18.6332	49.440783	0.000193	1.925545	0.652392	-0.000077
 538	5.3431e+01	18.6027	49.356003	0.000213	2.128233	0.721065	-0.000085
 539	5.3531e+01	18.5610	49.267186	0.000223	2.229578	0.755401	-0.000089
 540	5.3630e+01	18.5241	49.166258	0.000253	2.533611	0.858411	-0.000101
 541	5.3730e+01	18.4824	49.125886	0.000101	1.013445	0.343364	-0.000041
 542	5.3830e+01	18.4423	49.037069	0.000223	2.229578	0.755401	-0.000089
 543	5.3929e+01	18.4038	48.944215	0.000233	2.330922	0.789738	-0.000093
 544	5.4029e+01	18.3733	48.863472	0.000203	2.026889	0.686729	-0.000081
 545	5.4128e+01	18.3219	48.774655	0.000223	2.229578	0.755401	-0.000089
 546	5.4227e+01	18.2834	48.641430	0.000334	3.344367	1.133102	-0.000134
 547	5.4327e+01	18.2337	48.633356	0.000020	0.202689	0.068673	-0.000008
 548	5.4426e+01	18.2064	48.512242	0.000304	3.040334	1.030093	-0.000122
 549	5.4526e+01	18.1663	48.399202	0.000284	2.837645	0.961420	-0.000114
 550	5.4626e+01	18.1278	48.274051	0.000314	3.141678	1.064429	-0.000126
 551	5.4725e+01	18.0733	48.144862	0.000324	3.243022	1.098766	-0.000130
 552	5.4825e+01	18.0412	48.064120	0.000203	2.026889	0.686729	-0.000081
 553	5.4924e+01	18.0059	47.983377	0.000203	2.026889	0.686729	-0.000081
 554	5.5023e+01	17.9610	47.850151	0.000334	3.344367	1.133102	-0.000134
 555	5.5123e+01	17.9177	47.773446	0.000193	1.925545	0.652392	-0.000077
 556	5.5222e+01	17.8856	47.692703	0.000203	2.026889	0.686729	-0.000081
 557	5.5322e+01	17.8455	47.591775	0.000253	2.533611	0.858411	-0.000101
 558	5.5422e+01	17.8086	47.470661	0.000304	3.040334	1.030093	-0.000122
 559	5.5521e+01	17.7653	47.474698	-0.000010	-0.101344	-0.034336	0.000004
 560	5.5620e+01	17.7268	47.345509	0.000324	3.243022	1.098766	-0.000130
 561	5.5720e+01	17.6835	47.280915	0.000162	1.621511	0.549383	-0.000065
 562	5.5819e+01	17.6434	47.175950	0.000263	2.634956	0.892747	-0.000105
 563	5.5919e+01	17.5968	47.091170	0.000213	2.128233	0.721065	-0.000085
 564	5.6019e+01	17.5728	46.953907	0.000345	3.445711	1.167439	-0.000138
 565	5.6118e+01	17.5343	46.873164	0.000203	2.026889	0.686729	-0.000081
 566	5.6218e+01	17.4813	46.792422	0.000203	2.026889	0.686729	-0.000081
 567	5.6317e+01	17.4492	46.727828	0.000162	1.621511	0.549383	-0.000065
 568	5.6416e+01	17.4027	46.590565	0.000345	3.445711	1.167439	-0.000138
 569	5.6516e+01	17.3690	46.457340	0.000334	3.344367	1.133102	-0.000134
 570	5.6615e+01	17.3225	46.340263	0.000294	2.938989	0.995756	-0.000118
 571	5.6715e+01	17.2904	46.267594	0.000182	1.824200	0.618056	-0.000073
 572	5.6815e+01	17.2407	46.138406	0.000324	3.243022	1.098766	-0.000130
 573	5.6914e+01	17.2102	46.037477	0.000253	2.533611	0.858411	-0.000101
 574	5.7014e+01	17.1733	45.944623	0.000233	2.330922	0.789738	-0.000093
 575	5.7113e+01	17.1300	45.867918	0.000193	1.925545	0.652392	-0.000077
 576	5.7212e+01	17.0883	45.787175	0.000203	2.026889	0.686729	-0.000081
 577	5.7312e+01	17.0418	45.722581	0.000162	1.621511	0.549383	-0.000065
 578	5.7411e+01	16.9968	45.613578	0.000274	2.736300	0.927084	-0.000110
 579	5.7511e+01	16.9567	45.528798	0.000213	2.128233	0.721065	-0.000085
 580	5.7611e+01	16.9247	45.415758	0.000284	2.837645	0.961420	-0.000114
 581	5.7710e+01	16.8942	45.326941	0.000223	2.229578	0.755401	-0.000089
 582	5.7809e+01	16.8444	45.226013	0.000253	2.533611	0.858411	-0.000101
 583	5.7909e+01	16.8108	45.141233	0.000213	2.128233	0.721065	-0.000085
 584	5.8008e+01	16.7803	45.064528	0.000193	1.925545	0.652392	-0.000077
 585	5.8108e+01	16.7321	44.943414	0.000304	3.040334	1.030093	-0.000122
 586	5.8208e+01	16.6969	44.870745	0.000182	1.824200	0.618056	-0.000073
 587	5.8307e+01	16.6471	44.681000	0.000476	4.763189	1.613812	-0.000191
 588	5.8407e+01	16.6118	44.592183	0.000223	2.229578	0.755401	-0.000089
 589	5.8506e+01	16.5685	44.450883	0.000355	3.547056	1.201775	-0.000142
 590	5.8605e+01	16.5284	44.370140	0.000203	2.026889	0.686729	-0.000081
 591	5.8705e+01	16.4867	44.297472	0.000182	1.824200	0.618056	-0.000073
 592	5.8804e+01	16.4594	44.196543	0.000253	2.533611	0.858411	-0.000101
 593	5.8904e+01	16.4113	44.091578	0.000263	2.634956	0.892747	-0.000105
 594	5.9004e+01	16.3632	44.002761	0.000223	2.229578	0.755401	-0.000089
 595	5.9103e+01	16.3359	43.926055	0.000193	1.925545	0.652392	-0.000077
 596	5.9203e+01	16.2878	43.808978	0.000294	2.938989	0.995756	-0.000118
 597	5.9302e+01	16.2525	43.752459	0.000142	1.418822	0.480710	-0.000057
 598	5.9401e+01	16.2140	43.639419	0.000284	2.837645	0.961420	-0.000114
 599	5.9501e+01	16.1707	43.550602	0.000223	2.229578	0.755401	-0.000089
 600	5.9600e+01	16.1257	43.401228	0.000375	3.749745	1.270448	-0.000150
 601	5.9700e+01	16.0889	43.300299	0.000253	2.533611	0.858411	-0.000101
 602	5.9800e+01	16.0487	43.243779	0.000142	1.418822	0.480710	-0.000057
 603	5.9899e+01	16.0102	43.134777	0.000274	2.736300	0.927084	-0.000110
 604	5.9998e+01	15.9717	43.009626	0.000314	3.141678	1.064429	-0.000126
 605	6.0098e+01	15.9316	42.900623	0.000274	2.736300	0.927084	-0.000110
 606	6.0197e+01	15.8979	42.751249	0.000375	3.749745	1.270448	-0.000150
 607	6.0297e+01	15.8482	42.646283	0.000263	2.634956	0.892747	-0.000105
 608	6.0397e+01	15.8145	42.553429	0.000233	2.330922	0.789738	-0.000093
 609	6.0496e+01	15.7696	42.468649	0.000213	2.128233	0.721065	-0.000085
 610	6.0596e+01	15.7359	42.343498	0.000314	3.141678	1.064429	-0.000126
 611	6.0695e+01	15.6926	42.226421	0.000294	2.938989	0.995756	-0.000118
 612	6.0794e+01	15.6461	42.186050	0.000101	1.013445	0.343364	-0.000041
 613	6.0894e+01	15.6140	42.064936	0.000304	3.040334	1.030093	-0.000122
 614	6.0993e+01	15.5803	42.008416	0.000142	1.418822	0.480710	-0.000057
 615	6.1093e+01	15.5418	41.903450	0.000263	2.634956	0.892747	-0.000105
 616	6.1193e+01	15.4873	41.802522	0.000253	2.533611	0.858411	-0.000101
 617	6.1292e+01	15.4472	41.697556	0.000263	2.634956	0.892747	-0.000105
 618	6.1392e+01	15.4135	41.616814	0.000203	2.026889	0.686729	-0.000081
 619	6.1491e+01	15.3734	41.495700	0.000304	3.040334	1.030093	-0.000122
 620	6.1590e+01	15.3284	41.394771	0.000253	2.533611	0.858411	-0.000101
 621	6.1690e+01	15.2996	41.273657	0.000304	3.040334	1.030093	-0.000122
 622	6.1789e+01	15.2579	41.160617	0.000284	2.837645	0.961420	-0.000114
 623	6.1889e+01	15.2097	41.075838	0.000213	2.128233	0.721065	-0.000085
 624	6.1989e+01	15.1760	40.938575	0.000345	3.445711	1.167439	-0.000138
 625	6.2088e+01	15.1311	40.833609	0.000263	2.634956	0.892747	-0.000105
 626	6.2188e+01	15.0974	40.728644	0.000263	2.634956	0.892747	-0.000105
 627	6.2287e+01	15.0589	40.627715	0.000253	2.533611	0.858411	-0.000101
 628	6.2386e+01	15.0156	40.502564	0.000314	3.141678	1.064429	-0.000126
 629	6.2486e+01	14.9739	40.442007	0.000152	1.520167	0.515046	-0.000061
 630	6.2586e+01	14.9354	40.389524	0.000132	1.317478	0.446374	-0.000053
 631	6.2685e+01	14.9017	40.300708	0.000223	2.229578	0.755401	-0.000089
 632	6.2785e+01	14.8584	40.195742	0.000263	2.634956	0.892747	-0.000105
 633	6.2884e+01	14.8119	40.050405	0.000365	3.648400	1.236111	-0.000146
 634	6.2983e+01	14.7782	39.953514	0.000243	2.432267	0.824074	-0.000097
 635	6.3083e+01	14.7317	39.884883	0.000172	1.722856	0.583719	-0.000069
 636	6.3182e+01	14.6884	39.820288	0.000162	1.621511	0.549383	-0.000065
 637	6.3282e+01	14.6499	39.662840	0.000395	3.952434	1.339121	-0.000158
 638	6.3382e+01	14.6178	39.594209	0.000172	1.722856	0.583719	-0.000069
 639	6.3481e+01	14.5809	39.525577	0.000172	1.722856	0.583719	-0.000069
 640	6.3581e+01	14.5392	39.392352	0.000334	3.344367	1.133102	-0.000134
 641	6.3680e+01	14.4991	39.267201	0.000314	3.141678	1.064429	-0.000126
 642	6.3779e+01	14.4670	39.162235	0.000263	2.634956	0.892747	-0.000105
 643	6.3879e+01	14.4237	39.024973	0.000345	3.445711	1.167439	-0.000138
 644	6.3978e+01	14.3900	38.920007	0.000263	2.634956	0.892747	-0.000105
 645	6.4078e+01	14.3290	38.823116	0.000243	2.432267	0.824074	-0.000097
 646	6.4177e+01	14.3017	38.742373	0.000203	2.026889	0.686729	-0.000081
 647	6.4277e+01	14.2536	38.693927	0.000122	1.216133	0.412037	-0.000049
 648	6.4376e+01	14.2199	38.580888	0.000284	2.837645	0.961420	-0.000114
 649	6.4476e+01	14.1798	38.451699	0.000324	3.243022	1.098766	-0.000130
 650	6.4576e+01	14.1413	38.399217	0.000132	1.317478	0.446374	-0.000053
 651	6.4675e+01	14.0996	38.274065	0.000314	3.141678	1.064429	-0.000126
 652	6.4775e+01	14.0563	38.193323	0.000203	2.026889	0.686729	-0.000081
 653	6.4874e+01	14.0274	38.088357	0.000263	2.634956	0.892747	-0.000105
 654	6.4974e+01	13.9793	37.999540	0.000223	2.229578	0.755401	-0.000089
 655	6.5073e+01	13.9392	37.902649	0.000243	2.432267	0.824074	-0.000097
 656	6.5172e+01	13.9039	37.801720	0.000253	2.533611	0.858411	-0.000101
 657	6.5272e+01	13.8558	37.664458	0.000345	3.445711	1.167439	-0.000138
 658	6.5371e+01	13.8205	37.607938	0.000142	1.418822	0.480710	-0.000057
 659	6.5471e+01	13.7772	37.502972	0.000263	2.634956	0.892747	-0.000105
 660	6.5570e+01	13.7386	37.402044	0.000253	2.533611	0.858411	-0.000101
 661	6.5670e+01	13.6953	37.276893	0.000314	3.141678	1.064429	-0.000126
 662	6.5769e+01	13.6504	37.171927	0.000263	2.634956	0.892747	-0.000105
 663	6.5869e+01	13.6151	37.066962	0.000263	2.634956	0.892747	-0.000105
 664	6.5969e+01	13.5830	36.949885	0.000294	2.938989	0.995756	-0.000118
 665	6.6068e+01	13.5429	36.889328	0.000152	1.520167	0.515046	-0.000061
 666	6.6168e+01	13.4964	36.776288	0.000284	2.837645	0.961420	-0.000114
 667	6.6267e+01	13.4659	36.719768	0.000142	1.418822	0.480710	-0.000057
 668	6.6367e+01	13.4082	36.570394	0.000375	3.749745	1.270448	-0.000150
 669	6.6466e+01	13.3793	36.477540	0.000233	2.330922	0.789738	-0.000093
 670	6.6566e+01	13.3408	36.380649	0.000243	2.432267	0.824074	-0.000097
 671	6.6665e+01	13.3087	36.291832	0.000223	2.229578	0.755401	-0.000089
 672	6.6764e+01	13.2606	36.198978	0.000233	2.330922	0.789738	-0.000093
 673	6.6864e+01	13.2125	36.110161	0.000223	2.229578	0.755401	-0.000089
 674	6.6963e+01	13.1724	36.017306	0.000233	2.330922	0.789738	-0.000093
 675	6.7063e+01	13.1483	35.892155	0.000314	3.141678	1.064429	-0.000126
 676	6.7162e+01	13.0970	35.811413	0.000203	2.026889	0.686729	-0.000081
 677	6.7262e+01	13.0585	35.686261	0.000314	3.141678	1.064429	-0.000126
 678	6.7362e+01	13.0264	35.573222	0.000284	2.837645	0.961420	-0.000114
 679	6.7461e+01	12.9911	35.524776	0.000122	1.216133	0.412037	-0.000049
 680	6.7561e+01	12.9381	35.411736	0.000284	2.837645	0.961420	-0.000114
 681	6.7660e+01	12.9061	35.258325	0.000385	3.851089	1.304784	-0.000154
 682	6.7760e+01	12.8692	35.157397	0.000253	2.533611	0.858411	-0.000101
 683	6.7859e+01	12.8226	35.108951	0.000122	1.216133	0.412037	-0.000049
 684	6.7959e+01	12.7938	34.995911	0.000284	2.837645	0.961420	-0.000114
 685	6.8058e+01	12.7424	34.939391	0.000142	1.418822	0.480710	-0.000057
 686	6.8157e+01	12.7039	34.842500	0.000243	2.432267	0.824074	-0.000097
 687	6.8257e+01	12.6702	34.741572	0.000253	2.533611	0.858411	-0.000101
 688	6.8356e+01	12.6253	34.628532	0.000284	2.837645	0.961420	-0.000114
 689	6.8456e+01	12.5788	34.511455	0.000294	2.938989	0.995756	-0.000118
 690	6.8555e+01	12.5451	34.446861	0.000162	1.621511	0.549383	-0.000065
 691	6.8655e+01	12.5146	34.341895	0.000263	2.634956	0.892747	-0.000105
 692	6.8754e+01	12.4665	34.228855	0.000284	2.837645	0.961420	-0.000114
 693	6.8854e+01	12.4296	34.136001	0.000233	2.330922	0.789738	-0.000093
 694	6.8954e+01	12.3879	34.055259	0.000203	2.026889	0.686729	-0.000081
 695	6.9053e+01	12.3494	33.950293	0.000263	2.634956	0.892747	-0.000105
 696	6.9153e+01	12.2997	33.813030	0.000345	3.445711	1.167439	-0.000138
 697	6.9252e+01	12.2676	33.724213	0.000223	2.229578	0.755401	-0.000089
 698	6.9352e+01	12.2275	33.655582	0.000172	1.722856	0.583719	-0.000069
 699	6.9451e+01	12.1970	33.506208	0.000375	3.749745	1.270448	-0.000150
 700	6.9550e+01	12.1440	33.393168	0.000284	2.837645	0.961420	-0.000114
 701	6.9650e+01	12.1071	33.300314	0.000233	2.330922	0.789738	-0.000093
 702	6.9749e+01	12.0719	33.235720	0.000162	1.621511	0.549383	-0.000065
 703	6.9849e+01	12.0366	33.163052	0.000182	1.824200	0.618056	-0.000073
 704	6.9948e+01	11.9932	33.001566	0.000405	4.053778	1.373457	-0.000162
 705	7.0048e+01	11.9515	32.920823	0.000203	2.026889	0.686729	-0.000081
 706	7.0147e+01	11.9098	32.819895	0.000253	2.533611	0.858411	-0.000101
 707	7.0247e+01	11.8601	32.702818	0.000294	2.938989	0.995756	-0.000118
 708	7.0347e+01	11.8312	32.626112	0.000193	1.925545	0.652392	-0.000077
 709	7.0446e+01	11.7799	32.537295	0.000223	2.229578	0.755401	-0.000089
 710	7.0546e+01	11.7446	32.432330	0.000263	2.634956	0.892747	-0.000105
 711	7.0645e+01	11.7093	32.286993	0.000365	3.648400	1.236111	-0.000146
 712	7.0745e+01	11.6708	32.190102	0.000243	2.432267	0.824074	-0.000097
 713	7.0844e+01	11.6323	32.121470	0.000172	1.722856	0.583719	-0.000069
 714	7.0944e+01	11.5777	31.984208	0.000345	3.445711	1.167439	-0.000138
 715	7.1043e+01	11.5505	31.907502	0.000193	1.925545	0.652392	-0.000077
 716	7.1142e+01	11.5120	31.758128	0.000375	3.749745	1.270448	-0.000150
 717	7.1242e+01	11.4799	31.697571	0.000152	1.520167	0.515046	-0.000061
 718	7.1341e+01	11.4382	31.544160	0.000385	3.851089	1.304784	-0.000154
 719	7.1441e+01	11.3868	31.483603	0.000152	1.520167	0.515046	-0.000061
 720	7.1540e+01	11.3548	31.350378	0.000334	3.344367	1.133102	-0.000134
 721	7.1640e+01	11.3163	31.245412	0.000263	2.634956	0.892747	-0.000105
 722	7.1740e+01	11.2745	31.136409	0.000274	2.736300	0.927084	-0.000110
 723	7.1839e+01	11.2328	31.039518	0.000243	2.432267	0.824074	-0.000097
 724	7.1939e+01	11.1943	30.987035	0.000132	1.317478	0.446374	-0.000053
 725	7.2038e+01	11.1542	30.857847	0.000324	3.243022	1.098766	-0.000130
 726	7.2138e+01	11.1173	30.724622	0.000334	3.344367	1.133102	-0.000134
 727	7.2237e+01	11.0772	30.623693	0.000253	2.533611	0.858411	-0.000101
 728	7.2337e+01	11.0419	30.526802	0.000243	2.432267	0.824074	-0.000097
 729	7.2436e+01	10.9874	30.421836	0.000263	2.634956	0.892747	-0.000105
 730	7.2535e+01	10.9537	30.296685	0.000314	3.141678	1.064429	-0.000126
 731	7.2635e+01	10.9088	30.240165	0.000142	1.418822	0.480710	-0.000057
 732	7.2734e+01	10.8783	30.106940	0.000334	3.344367	1.133102	-0.000134
 733	7.2834e+01	10.8334	30.034271	0.000182	1.824200	0.618056	-0.000073
 734	7.2933e+01	10.7965	29.929306	0.000263	2.634956	0.892747	-0.000105
 735	7.3033e+01	10.7532	29.832415	0.000243	2.432267	0.824074	-0.000097
 736	7.3132e+01	10.7163	29.687078	0.000365	3.648400	1.236111	-0.000146
 737	7.3232e+01	10.6665	29.565964	0.000304	3.040334	1.030093	-0.000122
 738	7.3332e+01	10.6409	29.452924	0.000284	2.837645	0.961420	-0.000114
 739	7.3431e+01	10.5944	29.339884	0.000284	2.837645	0.961420	-0.000114
 740	7.3531e+01	10.5591	29.247030	0.000233	2.330922	0.789738	-0.000093
 741	7.3630e+01	10.5238	29.133990	0.000284	2.837645	0.961420	-0.000114
 742	7.3730e+01	10.4676	29.012876	0.000304	3.040334	1.030093	-0.000122
 743	7.3829e+01	10.4403	28.936170	0.000193	1.925545	0.652392	-0.000077
 744	7.3928e+01	10.4034	28.782759	0.000385	3.851089	1.304784	-0.000154
 745	7.4028e+01	10.3457	28.706054	0.000193	1.925545	0.652392	-0.000077
 746	7.4127e+01	10.3200	28.580902	0.000314	3.141678	1.064429	-0.000126
 747	7.4227e+01	10.2687	28.492085	0.000223	2.229578	0.755401	-0.000089
 748	7.4326e+01	10.2414	28.375009	0.000294	2.938989	0.995756	-0.000118
 749	7.4426e+01	10.1917	28.209486	0.000416	4.155123	1.407794	-0.000166
 750	7.4525e+01	10.1612	28.161040	0.000122	1.216133	0.412037	-0.000049
 751	7.4625e+01	10.1195	28.048001	0.000284	2.837645	0.961420	-0.000114
 752	7.4725e+01	10.0714	27.979369	0.000172	1.722856	0.583719	-0.000069
 753	7.4824e+01	10.0409	27.910738	0.000172	1.722856	0.583719	-0.000069
 754	7.4924e+01	9.9944	27.793661	0.000294	2.938989	0.995756	-0.000118
 755	7.5023e+01	9.9575	27.624101	0.000426	4.256467	1.442130	-0.000170
 756	7.5123e+01	9.9174	27.494913	0.000324	3.243022	1.098766	-0.000130
 757	7.5222e+01	9.8724	27.418207	0.000193	1.925545	0.652392	-0.000077
 758	7.5322e+01	9.8404	27.280945	0.000345	3.445711	1.167439	-0.000138
 759	7.5421e+01	9.8019	27.196165	0.000213	2.128233	0.721065	-0.000085
 760	7.5520e+01	9.7618	27.087162	0.000274	2.736300	0.927084	-0.000110
 761	7.5620e+01	9.7281	26.957974	0.000324	3.243022	1.098766	-0.000130
 762	7.5719e+01	9.6655	26.832823	0.000314	3.141678	1.064429	-0.000126
 763	7.5819e+01	9.6398	26.748043	0.000213	2.128233	0.721065	-0.000085
 764	7.5918e+01	9.5997	26.639040	0.000274	2.736300	0.927084	-0.000110
 765	7.6018e+01	9.5548	26.542149	0.000243	2.432267	0.824074	-0.000097
 766	7.6118e+01	9.5211	26.408923	0.000334	3.344367	1.133102	-0.000134
 767	7.6217e+01	9.4810	26.340292	0.000172	1.722856	0.583719	-0.000069
 768	7.6317e+01	9.4409	26.227252	0.000284	2.837645	0.961420	-0.000114
 769	7.6416e+01	9.3944	26.073841	0.000385	3.851089	1.304784	-0.000154
 770	7.6516e+01	9.3591	25.956764	0.000294	2.938989	0.995756	-0.000118
 771	7.6615e+01	9.3270	25.871984	0.000213	2.128233	0.721065	-0.000085
 772	7.6715e+01	9.2821	25.779130	0.000233	2.330922	0.789738	-0.000093
 773	7.6814e+01	9.2404	25.641868	0.000345	3.445711	1.167439	-0.000138
 774	7.6913e+01	9.2051	25.544976	0.000243	2.432267	0.824074	-0.000097
 775	7.7013e+01	9.1586	25.411751	0.000334	3.344367	1.133102	-0.000134
 776	7.7112e+01	9.1233	25.286600	0.000314	3.141678	1.064429	-0.000126
 777	7.7212e+01	9.0864	25.185671	0.000253	2.533611	0.858411	-0.000101
 778	7.7311e+01	9.0382	25.104929	0.000203	2.026889	0.686729	-0.000081
 779	7.7411e+01	8.9981	24.971703	0.000334	3.344367	1.133102	-0.000134
 780	7.7510e+01	8.9548	24.850589	0.000304	3.040334	1.030093	-0.000122
 781	7.7610e+01	8.9227	24.753698	0.000243	2.432267	0.824074	-0.000097
 782	7.7710e+01	8.8842	24.640658	0.000284	2.837645	0.961420	-0.000114
 783	7.7809e+01	8.8441	24.543767	0.000243	2.432267	0.824074	-0.000097
 784	7.7909e+01	8.7992	24.402467	0.000355	3.547056	1.201775	-0.000142
 785	7.8008e+01	8.7623	24.333836	0.000172	1.722856	0.583719	-0.000069
 786	7.8108e+01	8.7174	24.208684	0.000314	3.141678	1.064429	-0.000126
 787	7.8207e+01	8.6789	24.119867	0.000223	2.229578	0.755401	-0.000089
 788	7.8306e+01	8.6372	24.035088	0.000213	2.128233	0.721065	-0.000085
 789	7.8406e+01	8.5987	23.893788	0.000355	3.547056	1.201775	-0.000142
 790	7.8505e+01	8.5666	23.857454	0.000091	0.912100	0.309028	-0.000037
 791	7.8605e+01	8.5201	23.695968	0.000405	4.053778	1.373457	-0.000162
 792	7.8704e+01	8.4880	23.554668	0.000355	3.547056	1.201775	-0.000142
 793	7.8804e+01	8.4415	23.465851	0.000223	2.229578	0.755401	-0.000089
 794	7.8903e+01	8.4078	23.332626	0.000334	3.344367	1.133102	-0.000134
 795	7.9003e+01	8.3613	23.211512	0.000304	3.040334	1.030093	-0.000122
 796	7.9103e+01	8.3260	23.122695	0.000223	2.229578	0.755401	-0.000089
 797	7.9202e+01	8.2827	23.017729	0.000263	2.634956	0.892747	-0.000105
 798	7.9302e+01	8.2458	22.892578	0.000314	3.141678	1.064429	-0.000126
 799	7.9401e+01	8.2057	22.807798	0.000213	2.128233	0.721065	-0.000085
 800	7.9501e+01	8.1671	22.654387	0.000385	3.851089	1.304784	-0.000154
 801	7.9600e+01	8.1270	22.577682	0.000193	1.925545	0.652392	-0.000077
 802	7.9700e+01	8.0853	22.476753	0.000253	2.533611	0.858411	-0.000101
 803	7.9799e+01	8.0484	22.371788	0.000263	2.634956	0.892747	-0.000105
 804	7.9898e+01	8.0051	22.250674	0.000304	3.040334	1.030093	-0.000122
 805	7.9998e+01	7.9634	22.149745	0.000253	2.533611	0.858411	-0.000101
 806	8.0097e+01	7.9137	22.060928	0.000223	2.229578	0.755401	-0.000089
 807	8.0197e+01	7.8896	21.980186	0.000203	2.026889	0.686729	-0.000081
 808	8.0296e+01	7.8447	21.903480	0.000193	1.925545	0.652392	-0.000077
 809	8.0396e+01	7.8046	21.770254	0.000334	3.344367	1.133102	-0.000134
 810	8.0496e+01	7.7645	21.653178	0.000294	2.938989	0.995756	-0.000118
 811	8.0595e+01	7.7196	21.519952	0.000334	3.344367	1.133102	-0.000134
 812	8.0695e+01	7.6795	21.410949	0.000274	2.736300	0.927084	-0.000110
 813	8.0794e+01	7.6410	21.297910	0.000284	2.837645	0.961420	-0.000114
 814	8.0894e+01	7.6105	21.168721	0.000324	3.243022	1.098766	-0.000130
 815	8.0993e+01	7.5607	21.071830	0.000243	2.432267	0.824074	-0.000097
 816	8.1093e+01	7.5222	21.019347	0.000132	1.317478	0.446374	-0.000053
 817	8.1192e+01	7.4854	20.902270	0.000294	2.938989	0.995756	-0.000118
 818	8.1291e+01	7.4485	20.773082	0.000324	3.243022	1.098766	-0.000130
 819	8.1391e+01	7.4067	20.651968	0.000304	3.040334	1.030093	-0.000122
 820	8.1490e+01	7.3586	20.551039	0.000253	2.533611	0.858411	-0.000101
 821	8.1590e+01	7.3265	20.446074	0.000263	2.634956	0.892747	-0.000105
 822	8.1689e+01	7.2961	20.369368	0.000193	1.925545	0.652392	-0.000077
 823	8.1789e+01	7.2447	20.256329	0.000284	2.837645	0.961420	-0.000114
 824	8.1888e+01	7.2030	20.175586	0.000203	2.026889	0.686729	-0.000081
 825	8.1988e+01	7.1597	20.070620	0.000263	2.634956	0.892747	-0.000105
 826	8.2088e+01	7.1324	19.969692	0.000253	2.533611	0.858411	-0.000101
 827	8.2187e+01	7.0827	19.892986	0.000193	1.925545	0.652392	-0.000077
 828	8.2287e+01	7.0442	19.763798	0.000324	3.243022	1.098766	-0.000130
 829	8.2386e+01	7.0169	19.622498	0.000355	3.547056	1.201775	-0.000142
 830	8.2486e+01	6.9768	19.501384	0.000304	3.040334	1.030093	-0.000122
 831	8.2585e+01	6.9239	19.416604	0.000213	2.128233	0.721065	-0.000085
 832	8.2684e+01	6.8773	19.303565	0.000284	2.837645	0.961420	-0.000114
 833	8.2784e+01	6.8533	19.162265	0.000355	3.547056	1.201775	-0.000142
 834	8.2883e+01	6.8196	19.057299	0.000263	2.634956	0.892747	-0.000105
 835	8.2983e+01	6.7795	18.940222	0.000294	2.938989	0.995756	-0.000118
 836	8.3082e+01	6.7298	18.863517	0.000193	1.925545	0.652392	-0.000077
 837	8.3182e+01	6.6913	18.718180	0.000365	3.648400	1.236111	-0.000146
 838	8.3281e+01	6.6495	18.669734	0.000122	1.216133	0.412037	-0.000049
 839	8.3381e+01	6.6078	18.568806	0.000253	2.533611	0.858411	-0.000101
 840	8.3481e+01	6.5693	18.435580	0.000334	3.344367	1.133102	-0.000134
 841	8.3580e+01	6.5340	18.334652	0.000253	2.533611	0.858411	-0.000101
 842	8.3680e+01	6.4987	18.237761	0.000243	2.432267	0.824074	-0.000097
 843	8.3779e+01	6.4554	18.148944	0.000223	2.229578	0.755401	-0.000089
 844	8.3879e+01	6.4057	18.064164	0.000213	2.128233	0.721065	-0.000085
 845	8.3978e+01	6.3672	17.979384	0.000213	2.128233	0.721065	-0.000085
 846	8.4078e+01	6.3319	17.882493	0.000243	2.432267	0.824074	-0.000097
 847	8.4177e+01	6.2934	17.729082	0.000385	3.851089	1.304784	-0.000154
 848	8.4276e+01	6.2549	17.571633	0.000395	3.952434	1.339121	-0.000158
 849	8.4376e+01	6.2244	17.474742	0.000243	2.432267	0.824074	-0.000097
 850	8.4475e+01	6.1715	17.398036	0.000193	1.925545	0.652392	-0.000077
 851	8.4575e+01	6.1346	17.284997	0.000284	2.837645	0.961420	-0.000114
 852	8.4674e+01	6.0945	17.167920	0.000294	2.938989	0.995756	-0.000118
 853	8.4774e+01	6.0464	17.066991	0.000253	2.533611	0.858411	-0.000101
 854	8.4874e+01	6.0127	16.953952	0.000284	2.837645	0.961420	-0.000114
 855	8.4973e+01	5.9726	16.816689	0.000345	3.445711	1.167439	-0.000138
 856	8.5073e+01	5.9341	16.780355	0.000091	0.912100	0.309028	-0.000037
 857	8.5172e+01	5.8956	16.675389	0.000263	2.634956	0.892747	-0.000105
 858	8.5272e+01	5.8554	16.578498	0.000243	2.432267	0.824074	-0.000097
 859	8.5371e+01	5.8121	16.477570	0.000253	2.533611	0.858411	-0.000101
 860	8.5471e+01	5.7672	16.336270	0.000355	3.547056	1.201775	-0.000142
 861	8.5570e+01	5.7287	16.275713	0.000152	1.520167	0.515046	-0.000061
 862	8.5669e+01	5.6998	16.190933	0.000213	2.128233	0.721065	-0.000085
 863	8.5769e+01	5.6517	16.085967	0.000263	2.634956	0.892747	-0.000105
 864	8.5868e+01	5.6132	15.936593	0.000375	3.749745	1.270448	-0.000150
 865	8.5968e+01	5.5731	15.851813	0.000213	2.128233	0.721065	-0.000085
 866	8.6067e+01	5.5378	15.750885	0.000253	2.533611	0.858411	-0.000101
 867	8.6167e+01	5.5073	15.597474	0.000385	3.851089	1.304784	-0.000154
 868	8.6266e+01	5.4608	15.496546	0.000253	2.533611	0.858411	-0.000101
 869	8.6366e+01	5.4175	15.391580	0.000263	2.634956	0.892747	-0.000105
 870	8.6466e+01	5.3806	15.298726	0.000233	2.330922	0.789738	-0.000093
 871	8.6565e+01	5.3373	15.201835	0.000243	2.432267	0.824074	-0.000097
 872	8.6665e+01	5.2940	15.084758	0.000294	2.938989	0.995756	-0.000118
 873	8.6764e+01	5.2571	14.955569	0.000324	3.243022	1.098766	-0.000130
 874	8.6864e+01	5.2154	14.862715	0.000233	2.330922	0.789738	-0.000093
 875	8.6963e+01	5.1849	14.733527	0.000324	3.243022	1.098766	-0.000130
 876	8.7063e+01	5.1400	14.600301	0.000334	3.344367	1.133102	-0.000134
 877	8.7162e+01	5.0934	14.568004	0.000081	0.810756	0.274691	-0.000032
 878	8.7261e+01	5.0630	14.410556	0.000395	3.952434	1.339121	-0.000158
 879	8.7361e+01	5.0116	14.329813	0.000203	2.026889	0.686729	-0.000081
 880	8.7460e+01	4.9811	14.245033	0.000213	2.128233	0.721065	-0.000085
 881	8.7560e+01	4.9314	14.131994	0.000284	2.837645	0.961420	-0.000114
 882	8.7659e+01	4.8929	14.018954	0.000284	2.837645	0.961420	-0.000114
 883	8.7759e+01	4.8672	13.889766	0.000324	3.243022	1.098766	-0.000130
 884	8.7859e+01	4.8175	13.821134	0.000172	1.722856	0.583719	-0.000069
 885	8.7958e+01	4.7806	13.655612	0.000416	4.155123	1.407794	-0.000166
 886	8.8058e+01	4.7373	13.574869	0.000203	2.026889	0.686729	-0.000081
 887	8.8157e+01	4.7036	13.401272	0.000436	4.357811	1.476466	-0.000174
 888	8.8257e+01	4.6699	13.284195	0.000294	2.938989	0.995756	-0.000118
 889	8.8356e+01	4.6122	13.203452	0.000203	2.026889	0.686729	-0.000081
 890	8.8456e+01	4.5817	13.086375	0.000294	2.938989	0.995756	-0.000118
 891	8.8555e+01	4.5496	12.973336	0.000284	2.837645	0.961420	-0.000114
 892	8.8654e+01	4.5031	12.880482	0.000233	2.330922	0.789738	-0.000093
 893	8.8754e+01	4.4614	12.787627	0.000233	2.330922	0.789738	-0.000093
 894	8.8853e+01	4.4181	12.670551	0.000294	2.938989	0.995756	-0.000118
 895	8.8953e+01	4.3892	12.533288	0.000345	3.445711	1.167439	-0.000138
 896	8.9052e+01	4.3443	12.420248	0.000284	2.837645	0.961420	-0.000114
 897	8.9152e+01	4.2977	12.347580	0.000182	1.824200	0.618056	-0.000073
 898	8.9251e+01	4.2560	12.270874	0.000193	1.925545	0.652392	-0.000077
 899	8.9351e+01	4.2223	12.173983	0.000243	2.432267	0.824074	-0.000097
 900	8.9451e+01	4.1838	12.032683	0.000355	3.547056	1.201775	-0.000142
 901	8.9550e+01	4.1389	11.943866	0.000223	2.229578	0.755401	-0.000089
 902	8.9650e+01	4.0988	11.814678	0.000324	3.243022	1.098766	-0.000130
 903	8.9749e+01	4.0603	11.689527	0.000314	3.141678	1.064429	-0.000126
 904	8.9849e+01	4.0170	11.544190	0.000365	3.648400	1.236111	-0.000146
 905	8.9948e+01	3.9801	11.415001	0.000324	3.243022	1.098766	-0.000130
 906	9.0047e+01	3.9320	11.318110	0.000243	2.432267	0.824074	-0.000097
 907	9.0147e+01	3.9015	11.213145	0.000263	2.634956	0.892747	-0.000105
 908	9.0246e+01	3.8662	11.083956	0.000324	3.243022	1.098766	-0.000130
 909	9.0346e+01	3.8293	11.031473	0.000132	1.317478	0.446374	-0.000053
 910	9.0445e+01	3.7812	10.857877	0.000436	4.357811	1.476466	-0.000174
 911	9.0545e+01	3.7411	10.777134	0.000203	2.026889	0.686729	-0.000081
 912	9.0644e+01	3.7090	10.643908	0.000334	3.344367	1.133102	-0.000134
 913	9.0744e+01	3.6673	10.518757	0.000314	3.141678	1.064429	-0.000126
 914	9.0844e+01	3.6175	10.462237	0.000142	1.418822	0.480710	-0.000057
 915	9.0943e+01	3.5790	10.312863	0.000375	3.749745	1.270448	-0.000150
 916	9.1043e+01	3.5421	10.240195	0.000182	1.824200	0.618056	-0.000073
 917	9.1142e+01	3.5020	10.131192	0.000274	2.736300	0.927084	-0.000110
 918	9.1242e+01	3.4555	10.034301	0.000243	2.432267	0.824074	-0.000097
 919	9.1341e+01	3.4218	9.945484	0.000223	2.229578	0.755401	-0.000089
 920	9.1441e+01	3.3849	9.796110	0.000375	3.749745	1.270448	-0.000150
 921	9.1540e+01	3.3496	9.703256	0.000233	2.330922	0.789738	-0.000093
 922	9.1639e+01	3.3031	9.557919	0.000365	3.648400	1.236111	-0.000146
 923	9.1739e+01	3.2598	9.444879	0.000284	2.837645	0.961420	-0.000114
 924	9.1838e+01	3.2293	9.234948	0.000527	5.269911	1.785494	-0.000211
 925	9.1938e+01	3.1860	9.162280	0.000182	1.824200	0.618056	-0.000073
 926	9.2037e+01	3.1475	9.061351	0.000253	2.533611	0.858411	-0.000101
 927	9.2137e+01	3.1042	8.944274	0.000294	2.938989	0.995756	-0.000118
 928	9.2237e+01	3.0689	8.843346	0.000253	2.533611	0.858411	-0.000101
 929	9.2336e+01	3.0304	8.738380	0.000263	2.634956	0.892747	-0.000105
 930	9.2436e+01	2.9919	8.605155	0.000334	3.344367	1.133102	-0.000134
 931	9.2535e+01	2.9534	8.500189	0.000263	2.634956	0.892747	-0.000105
 932	9.2635e+01	2.9069	8.403298	0.000243	2.432267	0.824074	-0.000097
 933	9.2734e+01	2.8571	8.286221	0.000294	2.938989	0.995756	-0.000118
 934	9.2834e+01	2.8186	8.157033	0.000324	3.243022	1.098766	-0.000130
 935	9.2933e+01	2.7914	8.120699	0.000091	0.912100	0.309028	-0.000037
 936	9.3032e+01	2.7432	7.971325	0.000375	3.749745	1.270448	-0.000150
 937	9.3132e+01	2.7063	7.854248	0.000294	2.938989	0.995756	-0.000118
 938	9.3231e+01	2.6614	7.741208	0.000284	2.837645	0.961420	-0.000114
 939	9.3331e+01	2.6309	7.612019	0.000324	3.243022	1.098766	-0.000130
 940	9.3430e+01	2.5860	7.474757	0.000345	3.445711	1.167439	-0.000138
 941	9.3530e+01	2.5523	7.353643	0.000304	3.040334	1.030093	-0.000122
 942	9.3629e+01	2.5138	7.268863	0.000213	2.128233	0.721065	-0.000085
 943	9.3729e+01	2.4673	7.123526	0.000365	3.648400	1.236111	-0.000146
 944	9.3829e+01	2.4304	7.038746	0.000213	2.128233	0.721065	-0.000085
 945	9.3928e+01	2.3855	6.905521	0.000334	3.344367	1.133102	-0.000134
 946	9.4028e+01	2.3502	6.788444	0.000294	2.938989	0.995756	-0.000118
 947	9.4127e+01	2.3069	6.651181	0.000345	3.445711	1.167439	-0.000138
 948	9.4227e+01	2.2700	6.574476	0.000193	1.925545	0.652392	-0.000077
 949	9.4326e+01	2.2331	6.437213	0.000345	3.445711	1.167439	-0.000138
 950	9.4425e+01	2.1882	6.352433	0.000213	2.128233	0.721065	-0.000085
 951	9.4525e+01	2.1417	6.235356	0.000294	2.938989	0.995756	-0.000118
 952	9.4624e+01	2.1112	6.122316	0.000284	2.837645	0.961420	-0.000114
 953	9.4724e+01	2.0695	6.049648	0.000182	1.824200	0.618056	-0.000073
 954	9.4823e+01	2.0197	5.972942	0.000193	1.925545	0.652392	-0.000077
 955	9.4923e+01	1.9909	5.819531	0.000385	3.851089	1.304784	-0.000154
 956	9.5022e+01	1.9475	5.686306	0.000334	3.344367	1.133102	-0.000134
 957	9.5122e+01	1.9219	5.573266	0.000284	2.837645	0.961420	-0.000114
 958	9.5222e+01	1.8737	5.448115	0.000314	3.141678	1.064429	-0.000126
 959	9.5321e+01	1.8368	5.314889	0.000334	3.344367	1.133102	-0.000134
 960	9.5421e+01	1.7951	5.181664	0.000334	3.344367	1.133102	-0.000134
 961	9.5520e+01	1.7502	5.088810	0.000233	2.330922	0.789738	-0.000093
 962	9.5620e+01	1.7117	4.991918	0.000243	2.432267	0.824074	-0.000097
 963	9.5719e+01	1.6684	4.878879	0.000284	2.837645	0.961420	-0.000114
 964	9.5819e+01	1.6251	4.757764	0.000304	3.040334	1.030093	-0.000122
 965	9.5918e+01	1.5946	4.664910	0.000233	2.330922	0.789738	-0.000093
 966	9.6017e+01	1.5497	4.539759	0.000314	3.141678	1.064429	-0.000126
 967	9.6117e+01	1.5128	4.467091	0.000182	1.824200	0.618056	-0.000073
 968	9.6216e+01	1.4775	4.301568	0.000416	4.155123	1.407794	-0.000166
 969	9.6316e+01	1.4197	4.220825	0.000203	2.026889	0.686729	-0.000081
 970	9.6415e+01	1.3877	4.140083	0.000203	2.026889	0.686729	-0.000081
 971	9.6515e+01	1.3508	4.067414	0.000182	1.824200	0.618056	-0.000073
 972	9.6615e+01	1.3139	3.962449	0.000263	2.634956	0.892747	-0.000105
 973	9.6714e+01	1.2722	3.853446	0.000274	2.736300	0.927084	-0.000110
 974	9.6814e+01	1.2256	3.736369	0.000294	2.938989	0.995756	-0.000118
 975	9.6913e+01	1.1871	3.639478	0.000243	2.432267	0.824074	-0.000097
 976	9.7013e+01	1.1550	3.486067	0.000385	3.851089	1.304784	-0.000154
 977	9.7112e+01	1.1165	3.389175	0.000243	2.432267	0.824074	-0.000097
 978	9.7212e+01	1.0780	3.239801	0.000375	3.749745	1.270448	-0.000150
 979	9.7311e+01	1.0363	3.098502	0.000355	3.547056	1.201775	-0.000142
 980	9.7410e+01	0.9898	3.013722	0.000213	2.128233	0.721065	-0.000085
 981	9.7510e+01	0.9513	2.892608	0.000304	3.040334	1.030093	-0.000122
 982	9.7609e+01	0.9176	2.763419	0.000324	3.243022	1.098766	-0.000130
 983	9.7709e+01	0.8823	2.686714	0.000193	1.925545	0.652392	-0.000077
 984	9.7808e+01	0.8358	2.589823	0.000243	2.432267	0.824074	-0.000097
 985	9.7908e+01	0.7925	2.476783	0.000284	2.837645	0.961420	-0.000114
 986	9.8007e+01	0.7508	2.363743	0.000284	2.837645	0.961420	-0.000114
 987	9.8107e+01	0.7107	2.266852	0.000243	2.432267	0.824074	-0.000097
 988	9.8207e+01	0.6770	2.169960	0.000243	2.432267	0.824074	-0.000097
 989	9.8306e+01	0.6305	2.105366	0.000162	1.621511	0.549383	-0.000065
 990	9.8406e+01	0.5936	1.951955	0.000385	3.851089	1.304784	-0.000154
 991	9.8505e+01	0.5567	1.863138	0.000223	2.229578	0.755401	-0.000089
 992	9.8605e+01	0.5053	1.774321	0.000223	2.229578	0.755401	-0.000089
 993	9.8704e+01	0.4716	1.649170	0.000314	3.141678	1.064429	-0.000126
 994	9.8803e+01	0.4347	1.528056	0.000304	3.040334	1.030093	-0.000122
 995	9.8903e+01	0.3850	1.394830	0.000334	3.344367	1.133102	-0.000134
 996	9.9002e+01	0.3610	1.318125	0.000193	1.925545	0.652392	-0.000077
 997	9.9102e+01	0.3160	1.160677	0.000395	3.952434	1.339121	-0.000158
 998	9.9201e+01	0.2807	1.043600	0.000294	2.938989	0.995756	-0.000118
 999	9.9301e+01	0.2342	0.983043	0.000152	1.520167	0.515046	-0.000061
1000	9.9400e+01	0.1909	0.829631	0.000385	3.851089	1.304784	-0.000154
1001	9.9500e+01	0.1508	0.716592	0.000284	2.837645	0.961420	-0.000114
1002	9.9600e+01	0.1219	0.603552	0.000284	2.837645	0.961420	-0.000114
1003	9.9699e+01	0.0786	0.494549	0.000274	2.736300	0.927084	-0.000110
1004	9.9799e+01	0.0321	0.361324	0.000334	3.344367	1.133102	-0.000134
1005	9.9898e+01	0.0080	0.320952	0.000101	1.013445	0.343364	-0.000041
1006	9.9998e+01	-0.0353	0.224061	0.000243	2.432267	0.824074	-0.000097
1007	1.0010e+02	-0.0770	0.151393	0.000182	1.824200	0.618056	-0.000073
1008	1.0020e+02	-0.1315	0.026241	0.000314	3.141678	1.064429	-0.000126
1009	1.0030e+02	-0.1556	-0.054501	0.000203	2.026889	0.686729	-0.000081
1010	1.0040e+02	-0.1925	-0.139281	0.000213	2.128233	0.721065	-0.000085
1011	1.0050e+02	-0.2374	-0.260395	0.000304	3.040334	1.030093	-0.000122
1012	1.0059e+02	-0.2759	-0.389584	0.000324	3.243022	1.098766	-0.000130
1013	1.0069e+02	-0.3225	-0.510698	0.000304	3.040334	1.030093	-0.000122
1014	1.0079e+02	-0.3433	-0.607589	0.000243	2.432267	0.824074	-0.000097
1015	1.0089e+02	-0.3978	-0.720629	0.000284	2.837645	0.961420	-0.000114
1016	1.0099e+02	-0.4299	-0.886151	0.000416	4.155123	1.407794	-0.000166
1017	1.0109e+02	-0.4716	-1.015340	0.000324	3.243022	1.098766	-0.000130
1018	1.0119e+02	-0.5118	-1.075897	0.000152	1.520167	0.515046	-0.000061
1019	1.0129e+02	-0.5535	-1.180862	0.000263	2.634956	0.892747	-0.000105
1020	1.0139e+02	-0.6000	-1.269679	0.000223	2.229578	0.755401	-0.000089
1021	1.0149e+02	-0.6289	-1.390793	0.000304	3.040334	1.030093	-0.000122
1022	1.0159e+02	-0.6690	-1.495759	0.000263	2.634956	0.892747	-0.000105
1023	1.0169e+02	-0.7107	-1.592650	0.000243	2.432267	0.824074	-0.000097
1024	1.0179e+02	-0.7524	-1.649170	0.000142	1.418822	0.480710	-0.000057
1025	1.0189e+02	-0.7989	-1.754135	0.000263	2.634956	0.892747	-0.000105
1026	1.0199e+02	-0.8326	-1.842952	0.000223	2.229578	0.755401	-0.000089
1027	1.0209e+02	-0.8695	-1.935807	0.000233	2.330922	0.789738	-0.000093
1028	1.0219e+02	-0.9160	-2.077106	0.000355	3.547056	1.201775	-0.000142
1029	1.0229e+02	-0.9561	-2.210332	0.000334	3.344367	1.133102	-0.000134
1030	1.0239e+02	-1.0026	-2.278963	0.000172	1.722856	0.583719	-0.000069
1031	1.0248e+02	-1.0331	-2.400077	0.000304	3.040334	1.030093	-0.000122
1032	1.0258e+02	-1.0748	-2.529266	0.000324	3.243022	1.098766	-0.000130
1033	1.0268e+02	-1.1198	-2.618083	0.000223	2.229578	0.755401	-0.000089
1034	1.0278e+02	-1.1550	-2.719011	0.000253	2.533611	0.858411	-0.000101
1035	1.0288e+02	-1.1919	-2.852236	0.000334	3.344367	1.133102	-0.000134
1036	1.0298e+02	-1.2321	-2.953165	0.000253	2.533611	0.858411	-0.000101
1037	1.0308e+02	-1.2673	-3.094465	0.000355	3.547056	1.201775	-0.000142
1038	1.0318e+02	-1.3042	-3.219616	0.000314	3.141678	1.064429	-0.000126
1039	1.0328e+02	-1.3476	-3.288247	0.000172	1.722856	0.583719	-0.000069
1040	1.0338e+02	-1.3941	-3.409361	0.000304	3.040334	1.030093	-0.000122
1041	1.0348e+02	-1.4390	-3.477992	0.000172	1.722856	0.583719	-0.000069
1042	1.0358e+02	-1.4775	-3.586995	0.000274	2.736300	0.927084	-0.000110
1043	1.0368e+02	-1.5176	-3.683886	0.000243	2.432267	0.824074	-0.000097
1044	1.0378e+02	-1.5497	-3.817112	0.000334	3.344367	1.133102	-0.000134
1045	1.0388e+02	-1.5946	-3.962449	0.000365	3.648400	1.236111	-0.000146
1046	1.0398e+02	-1.6331	-4.027043	0.000162	1.621511	0.549383	-0.000065
1047	1.0408e+02	-1.6732	-4.136046	0.000274	2.736300	0.927084	-0.000110
1048	1.0418e+02	-1.7085	-4.220825	0.000213	2.128233	0.721065	-0.000085
1049	1.0428e+02	-1.7614	-4.341939	0.000304	3.040334	1.030093	-0.000122
1050	1.0438e+02	-1.7871	-4.483239	0.000355	3.547056	1.201775	-0.000142
1051	1.0447e+02	-1.8272	-4.624539	0.000355	3.547056	1.201775	-0.000142
1052	1.0457e+02	-1.8577	-4.737579	0.000284	2.837645	0.961420	-0.000114
1053	1.0467e+02	-1.9090	-4.834470	0.000243	2.432267	0.824074	-0.000097
1054	1.0477e+02	-1.9443	-4.975770	0.000355	3.547056	1.201775	-0.000142
1055	1.0487e+02	-1.9909	-5.052475	0.000193	1.925545	0.652392	-0.000077
1056	1.0497e+02	-2.0294	-5.189738	0.000345	3.445711	1.167439	-0.000138
1057	1.0507e+02	-2.0630	-5.306815	0.000294	2.938989	0.995756	-0.000118
1058	1.0517e+02	-2.1031	-5.399669	0.000233	2.330922	0.789738	-0.000093
1059	1.0527e+02	-2.1433	-5.464263	0.000162	1.621511	0.549383	-0.000065
1060	1.0537e+02	-2.1946	-5.549043	0.000213	2.128233	0.721065	-0.000085
1061	1.0547e+02	-2.2299	-5.645934	0.000243	2.432267	0.824074	-0.000097
1062	1.0557e+02	-2.2700	-5.750900	0.000263	2.634956	0.892747	-0.000105
1063	1.0567e+02	-2.3053	-5.900274	0.000375	3.749745	1.270448	-0.000150
1064	1.0577e+02	-2.3534	-6.009277	0.000274	2.736300	0.927084	-0.000110
1065	1.0587e+02	-2.3887	-6.110205	0.000253	2.533611	0.858411	-0.000101
1066	1.0597e+02	-2.4304	-6.203059	0.000233	2.330922	0.789738	-0.000093
1067	1.0607e+02	-2.4689	-6.312062	0.000274	2.736300	0.927084	-0.000110
1068	1.0617e+02	-2.5042	-6.425102	0.000284	2.837645	0.961420	-0.000114
1069	1.0627e+02	-2.5299	-6.558327	0.000334	3.344367	1.133102	-0.000134
1070	1.0637e+02	-2.5796	-6.707701	0.000375	3.749745	1.270448	-0.000150
1071	1.0647e+02	-2.6133	-6.844964	0.000345	3.445711	1.167439	-0.000138
1072	1.0656e+02	-2.6678	-6.941855	0.000243	2.432267	0.824074	-0.000097
1073	1.0666e+02	-2.7128	-7.046820	0.000263	2.634956	0.892747	-0.000105
1074	1.0676e+02	-2.7481	-7.147749	0.000253	2.533611	0.858411	-0.000101
1075	1.0686e+02	-2.7882	-7.244640	0.000243	2.432267	0.824074	-0.000097
1076	1.0696e+02	-2.8283	-7.361717	0.000294	2.938989	0.995756	-0.000118
1077	1.0706e+02	-2.8652	-7.470720	0.000274	2.736300	0.927084	-0.000110
1078	1.0716e+02	-2.9053	-7.551462	0.000203	2.026889	0.686729	-0.000081
1079	1.0726e+02	-2.9502	-7.668539	0.000294	2.938989	0.995756	-0.000118
1080	1.0736e+02	-2.9839	-7.753319	0.000213	2.128233	0.721065	-0.000085
1081	1.0746e+02	-3.0272	-7.878470	0.000314	3.141678	1.064429	-0.000126
1082	1.0756e+02	-3.0721	-7.995547	0.000294	2.938989	0.995756	-0.000118
1083	1.0766e+02	-3.1058	-8.128773	0.000334	3.344367	1.133102	-0.000134
1084	1.0776e+02	-3.1459	-8.205478	0.000193	1.925545	0.652392	-0.000077
1085	1.0786e+02	-3.1940	-8.354852	0.000375	3.749745	1.270448	-0.000150
1086	1.0796e+02	-3.2277	-8.415409	0.000152	1.520167	0.515046	-0.000061
1087	1.0806e+02	-3.2598	-8.584969	0.000426	4.256467	1.442130	-0.000170
1088	1.0816e+02	-3.3015	-8.702046	0.000294	2.938989	0.995756	-0.000118
1089	1.0826e+02	-3.3528	-8.831234	0.000324	3.243022	1.098766	-0.000130
1090	1.0836e+02	-3.3913	-8.952348	0.000304	3.040334	1.030093	-0.000122
1091	1.0845e+02	-3.4218	-9.065388	0.000284	2.837645	0.961420	-0.000114
1092	1.0855e+02	-3.4587	-9.206688	0.000355	3.547056	1.201775	-0.000142
1093	1.0865e+02	-3.5101	-9.255134	0.000122	1.216133	0.412037	-0.000049
1094	1.0875e+02	-3.5550	-9.360099	0.000263	2.634956	0.892747	-0.000105
1095	1.0885e+02	-3.5806	-9.477176	0.000294	2.938989	0.995756	-0.000118
1096	1.0895e+02	-3.6175	-9.590216	0.000284	2.837645	0.961420	-0.000114
1097	1.0905e+02	-3.6609	-9.691144	0.000253	2.533611	0.858411	-0.000101
1098	1.0915e+02	-3.7026	-9.775924	0.000213	2.128233	0.721065	-0.000085
1099	1.0925e+02	-3.7395	-9.933372	0.000395	3.952434	1.339121	-0.000158
1100	1.0935e+02	-3.7844	-10.002004	0.000172	1.722856	0.583719	-0.000069
1101	1.0945e+02	-3.8229	-10.171563	0.000426	4.256467	1.442130	-0.000170
1102	1.0955e+02	-3.8710	-10.252306	0.000203	2.026889	0.686729	-0.000081
1103	1.0965e+02	-3.9079	-10.381495	0.000324	3.243022	1.098766	-0.000130
1104	1.0975e+02	-3.9496	-10.494534	0.000284	2.837645	0.961420	-0.000114
1105	1.0985e+02	-3.9833	-10.583351	0.000223	2.229578	0.755401	-0.000089
1106	1.0995e+02	-4.0266	-10.696391	0.000284	2.837645	0.961420	-0.000114
1107	1.1005e+02	-4.0571	-10.886137	0.000476	4.763189	1.613812	-0.000191
1108	1.1015e+02	-4.1004	-11.019362	0.000334	3.344367	1.133102	-0.000134
1109	1.1025e+02	-4.1469	-11.116253	0.000243	2.432267	0.824074	-0.000097
1110	1.1035e+02	-4.1870	-11.249479	0.000334	3.344367	1.133102	-0.000134
1111	1.1044e+02	-4.2191	-11.301961	0.000132	1.317478	0.446374	-0.000053
1112	1.1054e+02	-4.2624	-11.435187	0.000334	3.344367	1.133102	-0.000134
1113	1.1064e+02	-4.3042	-11.544190	0.000274	2.736300	0.927084	-0.000110
1114	1.1074e+02	-4.3411	-11.600710	0.000142	1.418822	0.480710	-0.000057
1115	1.1084e+02	-4.3715	-11.685489	0.000213	2.128233	0.721065	-0.000085
1116	1.1094e+02	-4.4229	-11.830826	0.000365	3.648400	1.236111	-0.000146
1117	1.1104e+02	-4.4662	-11.955977	0.000314	3.141678	1.064429	-0.000126
1118	1.1114e+02	-4.4999	-12.024609	0.000172	1.722856	0.583719	-0.000069
1119	1.1124e+02	-4.5400	-12.190131	0.000416	4.155123	1.407794	-0.000166
1120	1.1134e+02	-4.5737	-12.258763	0.000172	1.722856	0.583719	-0.000069
1121	1.1144e+02	-4.6154	-12.359691	0.000253	2.533611	0.858411	-0.000101
1122	1.1154e+02	-4.6635	-12.505028	0.000365	3.648400	1.236111	-0.000146
1123	1.1164e+02	-4.6972	-12.650365	0.000365	3.648400	1.236111	-0.000146
1124	1.1174e+02	-4.7309	-12.783590	0.000334	3.344367	1.133102	-0.000134
1125	1.1184e+02	-4.7742	-12.860296	0.000193	1.925545	0.652392	-0.000077
1126	1.1194e+02	-4.8095	-13.021781	0.000405	4.053778	1.373457	-0.000162
1127	1.1204e+02	-4.8608	-13.070227	0.000122	1.216133	0.412037	-0.000049
1128	1.1214e+02	-4.9009	-13.195378	0.000314	3.141678	1.064429	-0.000126
1129	1.1224e+02	-4.9362	-13.292269	0.000243	2.432267	0.824074	-0.000097
1130	1.1234e+02	-4.9731	-13.413383	0.000304	3.040334	1.030093	-0.000122
1131	1.1244e+02	-5.0196	-13.477978	0.000162	1.621511	0.549383	-0.000065
1132	1.1253e+02	-5.0581	-13.550646	0.000182	1.824200	0.618056	-0.000073
1133	1.1263e+02	-5.0918	-13.679834	0.000324	3.243022	1.098766	-0.000130
1134	1.1273e+02	-5.1432	-13.841320	0.000405	4.053778	1.373457	-0.000162
1135	1.1283e+02	-5.1785	-13.897840	0.000142	1.418822	0.480710	-0.000057
1136	1.1293e+02	-5.2138	-14.027028	0.000324	3.243022	1.098766	-0.000130
1137	1.1303e+02	-5.2474	-14.123919	0.000243	2.432267	0.824074	-0.000097
1138	1.1313e+02	-5.2924	-14.212736	0.000223	2.229578	0.755401	-0.000089
1139	1.1323e+02	-5.3421	-14.325776	0.000284	2.837645	0.961420	-0.000114
1140	1.1333e+02	-5.3774	-14.442853	0.000294	2.938989	0.995756	-0.000118
1141	1.1343e+02	-5.4207	-14.539744	0.000243	2.432267	0.824074	-0.000097
1142	1.1353e+02	-5.4496	-14.668933	0.000324	3.243022	1.098766	-0.000130
1143	1.1363e+02	-5.4945	-14.834455	0.000416	4.155123	1.407794	-0.000166
1144	1.1373e+02	-5.5362	-14.927309	0.000233	2.330922	0.789738	-0.000093
1145	1.1383e+02	-5.5715	-15.040349	0.000284	2.837645	0.961420	-0.000114
1146	1.1393e+02	-5.6132	-15.108980	0.000172	1.722856	0.583719	-0.000069
1147	1.1403e+02	-5.6533	-15.254317	0.000365	3.648400	1.236111	-0.000146
1148	1.1413e+02	-5.6998	-15.322949	0.000172	1.722856	0.583719	-0.000069
1149	1.1423e+02	-5.7464	-15.411766	0.000223	2.229578	0.755401	-0.000089
1150	1.1433e+02	-5.7752	-15.516731	0.000263	2.634956	0.892747	-0.000105
1151	1.1442e+02	-5.8089	-15.633808	0.000294	2.938989	0.995756	-0.000118
1152	1.1452e+02	-5.8571	-15.742811	0.000274	2.736300	0.927084	-0.000110
1153	1.1462e+02	-5.8956	-15.839702	0.000243	2.432267	0.824074	-0.000097
1154	1.1472e+02	-5.9308	-15.924482	0.000213	2.128233	0.721065	-0.000085
1155	1.1482e+02	-5.9806	-16.049633	0.000314	3.141678	1.064429	-0.000126
1156	1.1492e+02	-6.0111	-16.154599	0.000263	2.634956	0.892747	-0.000105
1157	1.1502e+02	-6.0544	-16.251490	0.000243	2.432267	0.824074	-0.000097
1158	1.1512e+02	-6.1025	-16.356455	0.000263	2.634956	0.892747	-0.000105
1159	1.1522e+02	-6.1362	-16.457384	0.000253	2.533611	0.858411	-0.000101
1160	1.1532e+02	-6.1619	-16.626944	0.000426	4.256467	1.442130	-0.000170
1161	1.1542e+02	-6.2052	-16.723835	0.000243	2.432267	0.824074	-0.000097
1162	1.1552e+02	-6.2533	-16.812652	0.000223	2.229578	0.755401	-0.000089
1163	1.1562e+02	-6.2998	-16.949914	0.000345	3.445711	1.167439	-0.000138
1164	1.1572e+02	-6.3383	-17.026620	0.000193	1.925545	0.652392	-0.000077
1165	1.1582e+02	-6.3672	-17.147734	0.000304	3.040334	1.030093	-0.000122
1166	1.1592e+02	-6.4233	-17.200217	0.000132	1.317478	0.446374	-0.000053
1167	1.1602e+02	-6.4490	-17.317294	0.000294	2.938989	0.995756	-0.000118
1168	1.1612e+02	-6.4859	-17.398036	0.000203	2.026889	0.686729	-0.000081
1169	1.1622e+02	-6.5228	-17.539336	0.000355	3.547056	1.201775	-0.000142
1170	1.1632e+02	-6.5709	-17.579708	0.000101	1.013445	0.343364	-0.000041
1171	1.1642e+02	-6.6175	-17.704859	0.000314	3.141678	1.064429	-0.000126
1172	1.1651e+02	-6.6560	-17.825973	0.000304	3.040334	1.030093	-0.000122
1173	1.1661e+02	-6.6816	-17.959198	0.000334	3.344367	1.133102	-0.000134
1174	1.1671e+02	-6.7346	-18.048015	0.000223	2.229578	0.755401	-0.000089
1175	1.1681e+02	-6.7667	-18.177204	0.000324	3.243022	1.098766	-0.000130
1176	1.1691e+02	-6.8052	-18.225649	0.000122	1.216133	0.412037	-0.000049
1177	1.1701e+02	-6.8372	-18.375023	0.000375	3.749745	1.270448	-0.000150
1178	1.1711e+02	-6.8950	-18.479989	0.000263	2.634956	0.892747	-0.000105
1179	1.1721e+02	-6.9255	-18.597066	0.000294	2.938989	0.995756	-0.000118
1180	1.1731e+02	-6.9656	-18.677808	0.000203	2.026889	0.686729	-0.000081
1181	1.1741e+02	-7.0105	-18.794885	0.000294	2.938989	0.995756	-0.000118
1182	1.1751e+02	-7.0522	-18.920037	0.000314	3.141678	1.064429	-0.000126
1183	1.1761e+02	-7.0923	-18.968482	0.000122	1.216133	0.412037	-0.000049
1184	1.1771e+02	-7.1260	-19.045188	0.000193	1.925545	0.652392	-0.000077
1185	1.1781e+02	-7.1661	-19.162265	0.000294	2.938989	0.995756	-0.000118
1186	1.1791e+02	-7.2078	-19.222822	0.000152	1.520167	0.515046	-0.000061
1187	1.1801e+02	-7.2495	-19.347973	0.000314	3.141678	1.064429	-0.000126
1188	1.1811e+02	-7.2880	-19.452939	0.000263	2.634956	0.892747	-0.000105
1189	1.1821e+02	-7.3281	-19.570015	0.000294	2.938989	0.995756	-0.000118
1190	1.1831e+02	-7.3682	-19.687092	0.000294	2.938989	0.995756	-0.000118
1191	1.1841e+02	-7.4051	-19.775909	0.000223	2.229578	0.755401	-0.000089
1192	1.1850e+02	-7.4468	-19.876838	0.000253	2.533611	0.858411	-0.000101
1193	1.1860e+02	-7.4902	-19.981803	0.000263	2.634956	0.892747	-0.000105
1194	1.1870e+02	-7.5239	-20.094843	0.000284	2.837645	0.961420	-0.000114
1195	1.1880e+02	-7.5656	-20.195772	0.000253	2.533611	0.858411	-0.000101
1196	1.1890e+02	-7.6009	-20.333034	0.000345	3.445711	1.167439	-0.000138
1197	1.1900e+02	-7.6378	-20.486445	0.000385	3.851089	1.304784	-0.000154
1198	1.1910e+02	-7.6843	-20.587374	0.000253	2.533611	0.858411	-0.000101
1199	1.1920e+02	-7.7212	-20.656005	0.000172	1.722856	0.583719	-0.000069
1200	1.1930e+02	-7.7645	-20.765008	0.000274	2.736300	0.927084	-0.000110
1201	1.1940e+02	-7.7966	-20.813453	0.000122	1.216133	0.412037	-0.000049
1202	1.1950e+02	-7.8367	-20.930530	0.000294	2.938989	0.995756	-0.000118
1203	1.1960e+02	-7.8800	-21.019347	0.000223	2.229578	0.755401	-0.000089
1204	1.1970e+02	-7.9185	-21.096053	0.000193	1.925545	0.652392	-0.000077
1205	1.1980e+02	-7.9570	-21.253501	0.000395	3.952434	1.339121	-0.000158
1206	1.1990e+02	-8.0083	-21.322132	0.000172	1.722856	0.583719	-0.000069
1207	1.2000e+02	-8.0404	-21.439209	0.000294	2.938989	0.995756	-0.000118
1208	1.2010e+02	-8.0885	-21.495729	0.000142	1.418822	0.480710	-0.000057
1209	1.2020e+02	-8.1270	-21.649140	0.000385	3.851089	1.304784	-0.000154
1210	1.2030e+02	-8.1623	-21.758143	0.000274	2.736300	0.927084	-0.000110
1211	1.2039e+02	-8.2057	-21.822737	0.000162	1.621511	0.549383	-0.000065
1212	1.2049e+02	-8.2361	-21.964037	0.000355	3.547056	1.201775	-0.000142
1213	1.2059e+02	-8.2859	-22.052854	0.000223	2.229578	0.755401	-0.000089
1214	1.2069e+02	-8.3196	-22.214339	0.000405	4.053778	1.373457	-0.000162
1215	1.2079e+02	-8.3645	-22.331416	0.000294	2.938989	0.995756	-0.000118
1216	1.2089e+02	-8.3998	-22.436382	0.000263	2.634956	0.892747	-0.000105
1217	1.2099e+02	-8.4318	-22.533273	0.000243	2.432267	0.824074	-0.000097
1218	1.2109e+02	-8.4736	-22.638239	0.000263	2.634956	0.892747	-0.000105
1219	1.2119e+02	-8.5217	-22.690721	0.000132	1.317478	0.446374	-0.000053
1220	1.2129e+02	-8.5554	-22.799724	0.000274	2.736300	0.927084	-0.000110
1221	1.2139e+02	-8.5939	-22.852207	0.000132	1.317478	0.446374	-0.000053
1222	1.2149e+02	-8.6388	-22.985432	0.000334	3.344367	1.133102	-0.000134
1223	1.2159e+02	-8.6869	-23.106546	0.000304	3.040334	1.030093	-0.000122
1224	1.2169e+02	-8.7222	-23.203438	0.000243	2.432267	0.824074	-0.000097
1225	1.2179e+02	-8.7559	-23.308403	0.000263	2.634956	0.892747	-0.000105
1226	1.2189e+02	-8.8040	-23.413369	0.000263	2.634956	0.892747	-0.000105
1227	1.2199e+02	-8.8473	-23.522371	0.000274	2.736300	0.927084	-0.000110
1228	1.2209e+02	-8.8794	-23.647523	0.000314	3.141678	1.064429	-0.000126
1229	1.2219e+02	-8.9163	-23.748451	0.000253	2.533611	0.858411	-0.000101
1230	1.2229e+02	-8.9596	-23.881676	0.000334	3.344367	1.133102	-0.000134
1231	1.2239e+02	-8.9885	-23.998753	0.000294	2.938989	0.995756	-0.000118
1232	1.2248e+02	-9.0366	-24.140053	0.000355	3.547056	1.201775	-0.000142
1233	1.2258e+02	-9.0784	-24.240982	0.000253	2.533611	0.858411	-0.000101
1234	1.2268e+02	-9.1104	-24.325761	0.000213	2.128233	0.721065	-0.000085
1235	1.2278e+02	-9.1570	-24.426690	0.000253	2.533611	0.858411	-0.000101
1236	1.2288e+02	-9.1987	-24.519544	0.000233	2.330922	0.789738	-0.000093
1237	1.2298e+02	-9.2404	-24.620472	0.000253	2.533611	0.858411	-0.000101
1238	1.2308e+02	-9.2821	-24.701215	0.000203	2.026889	0.686729	-0.000081
1239	1.2318e+02	-9.3174	-24.854626	0.000385	3.851089	1.304784	-0.000154
1240	1.2328e+02	-9.3543	-24.899035	0.000111	1.114789	0.377701	-0.000045
1241	1.2338e+02	-9.4008	-24.991889	0.000233	2.330922	0.789738	-0.000093
1242	1.2348e+02	-9.4377	-25.133189	0.000355	3.547056	1.201775	-0.000142
1243	1.2358e+02	-9.4890	-25.230080	0.000243	2.432267	0.824074	-0.000097
1244	1.2368e+02	-9.5227	-25.322934	0.000233	2.330922	0.789738	-0.000093
1245	1.2378e+02	-9.5644	-25.419825	0.000243	2.432267	0.824074	-0.000097
1246	1.2388e+02	-9.6013	-25.544976	0.000314	3.141678	1.064429	-0.000126
1247	1.2398e+02	-9.6286	-25.682239	0.000345	3.445711	1.167439	-0.000138
1248	1.2408e+02	-9.6639	-25.779130	0.000243	2.432267	0.824074	-0.000097
1249	1.2418e+02	-9.7168	-25.964838	0.000466	4.661845	1.579476	-0.000187
1250	1.2428e+02	-9.7569	-26.025396	0.000152	1.520167	0.515046	-0.000061
1251	1.2438e+02	-9.7874	-26.162658	0.000345	3.445711	1.167439	-0.000138
1252	1.2447e+02	-9.8372	-26.247438	0.000213	2.128233	0.721065	-0.000085
1253	1.2457e+02	-9.8773	-26.352404	0.000263	2.634956	0.892747	-0.000105
1254	1.2467e+02	-9.9093	-26.360478	0.000020	0.202689	0.068673	-0.000008
1255	1.2477e+02	-9.9543	-26.505815	0.000365	3.648400	1.236111	-0.000146
1256	1.2487e+02	-9.9928	-26.639040	0.000334	3.344367	1.133102	-0.000134
1257	1.2497e+02	-10.0361	-26.695560	0.000142	1.418822	0.480710	-0.000057
1258	1.2507e+02	-10.0682	-26.832823	0.000345	3.445711	1.167439	-0.000138
1259	1.2517e+02	-10.1227	-26.957974	0.000314	3.141678	1.064429	-0.000126
1260	1.2527e+02	-10.1500	-27.071014	0.000284	2.837645	0.961420	-0.000114
1261	1.2537e+02	-10.1997	-27.167905	0.000243	2.432267	0.824074	-0.000097
1262	1.2547e+02	-10.2430	-27.272870	0.000263	2.634956	0.892747	-0.000105
1263	1.2557e+02	-10.2751	-27.365725	0.000233	2.330922	0.789738	-0.000093
1264	1.2567e+02	-10.3200	-27.490876	0.000314	3.141678	1.064429	-0.000126
1265	1.2577e+02	-10.3505	-27.587767	0.000243	2.432267	0.824074	-0.000097
1266	1.2587e+02	-10.3874	-27.781550	0.000486	4.864534	1.648149	-0.000195
1267	1.2597e+02	-10.4387	-27.882478	0.000253	2.533611	0.858411	-0.000101
1268	1.2607e+02	-10.4772	-27.999555	0.000294	2.938989	0.995756	-0.000118
1269	1.2617e+02	-10.5125	-28.100483	0.000253	2.533611	0.858411	-0.000101
1270	1.2627e+02	-10.5526	-28.161040	0.000152	1.520167	0.515046	-0.000061
1271	1.2636e+02	-10.5863	-28.274080	0.000284	2.837645	0.961420	-0.000114
1272	1.2646e+02	-10.6329	-28.338674	0.000162	1.621511	0.549383	-0.000065
1273	1.2656e+02	-10.6681	-28.395194	0.000142	1.418822	0.480710	-0.000057
1274	1.2666e+02	-10.7195	-28.544568	0.000375	3.749745	1.270448	-0.000150
1275	1.2676e+02	-10.7484	-28.681831	0.000345	3.445711	1.167439	-0.000138
1276	1.2686e+02	-10.7997	-28.798908	0.000294	2.938989	0.995756	-0.000118
1277	1.2696e+02	-10.8334	-28.855428	0.000142	1.418822	0.480710	-0.000057
1278	1.2706e+02	-10.8703	-29.000765	0.000365	3.648400	1.236111	-0.000146
1279	1.2716e+02	-10.9152	-29.101693	0.000253	2.533611	0.858411	-0.000101
1280	1.2726e+02	-10.9521	-29.210696	0.000274	2.736300	0.927084	-0.000110
1281	1.2736e+02	-10.9938	-29.331810	0.000304	3.040334	1.030093	-0.000122
1282	1.2746e+02	-11.0291	-29.460998	0.000324	3.243022	1.098766	-0.000130
1283	1.2756e+02	-11.0644	-29.578075	0.000294	2.938989	0.995756	-0.000118
1284	1.2766e+02	-11.1013	-29.666892	0.000223	2.229578	0.755401	-0.000089
1285	1.2776e+02	-11.1558	-29.812229	0.000365	3.648400	1.236111	-0.000146
1286	1.2786e+02	-11.1943	-29.913157	0.000253	2.533611	0.858411	-0.000101
1287	1.2796e+02	-11.2328	-30.010049	0.000243	2.432267	0.824074	-0.000097
1288	1.2806e+02	-11.2681	-30.062531	0.000132	1.317478	0.446374	-0.000053
1289	1.2816e+02	-11.3163	-30.167497	0.000263	2.634956	0.892747	-0.000105
1290	1.2826e+02	-11.3564	-30.292648	0.000314	3.141678	1.064429	-0.000126
1291	1.2835e+02	-11.3901	-30.385502	0.000233	2.330922	0.789738	-0.000093
1292	1.2845e+02	-11.4270	-30.462208	0.000193	1.925545	0.652392	-0.000077
1293	1.2855e+02	-11.4655	-30.579285	0.000294	2.938989	0.995756	-0.000118
1294	1.2865e+02	-11.5184	-30.647916	0.000172	1.722856	0.583719	-0.000069
1295	1.2875e+02	-11.5537	-30.785179	0.000345	3.445711	1.167439	-0.000138
1296	1.2885e+02	-11.5858	-30.869958	0.000213	2.128233	0.721065	-0.000085
1297	1.2895e+02	-11.6339	-31.019332	0.000375	3.749745	1.270448	-0.000150
1298	1.2905e+02	-11.6692	-31.087964	0.000172	1.722856	0.583719	-0.000069
1299	1.2915e+02	-11.7045	-31.257523	0.000426	4.256467	1.442130	-0.000170
1300	1.2925e+02	-11.7430	-31.322118	0.000162	1.621511	0.549383	-0.000065
1301	1.2935e+02	-11.7895	-31.451306	0.000324	3.243022	1.098766	-0.000130
1302	1.2945e+02	-11.8296	-31.548197	0.000243	2.432267	0.824074	-0.000097
1303	1.2955e+02	-11.8649	-31.653163	0.000263	2.634956	0.892747	-0.000105
1304	1.2965e+02	-11.9082	-31.774277	0.000304	3.040334	1.030093	-0.000122
1305	1.2975e+02	-11.9419	-31.871168	0.000243	2.432267	0.824074	-0.000097
1306	1.2985e+02	-11.9868	-31.959985	0.000223	2.229578	0.755401	-0.000089
1307	1.2995e+02	-12.0285	-32.044765	0.000213	2.128233	0.721065	-0.000085
1308	1.3005e+02	-12.0622	-32.125508	0.000203	2.026889	0.686729	-0.000081
1309	1.3015e+02	-12.1168	-32.206250	0.000203	2.026889	0.686729	-0.000081
1310	1.3025e+02	-12.1505	-32.311216	0.000263	2.634956	0.892747	-0.000105
1311	1.3034e+02	-12.1890	-32.412144	0.000253	2.533611	0.858411	-0.000101
1312	1.3044e+02	-12.2243	-32.500961	0.000223	2.229578	0.755401	-0.000089
1313	1.3054e+02	-12.2628	-32.618038	0.000294	2.938989	0.995756	-0.000118
1314	1.3064e+02	-12.3061	-32.751264	0.000334	3.344367	1.133102	-0.000134
1315	1.3074e+02	-12.3542	-32.827969	0.000193	1.925545	0.652392	-0.000077
1316	1.3084e+02	-12.3815	-32.985418	0.000395	3.952434	1.339121	-0.000158
1317	1.3094e+02	-12.4296	-33.074235	0.000223	2.229578	0.755401	-0.000089
1318	1.3104e+02	-12.4713	-33.171126	0.000243	2.432267	0.824074	-0.000097
1319	1.3114e+02	-12.5018	-33.255906	0.000213	2.128233	0.721065	-0.000085
1320	1.3124e+02	-12.5483	-33.433540	0.000446	4.459156	1.510803	-0.000179
1321	1.3134e+02	-12.5948	-33.481985	0.000122	1.216133	0.412037	-0.000049
1322	1.3144e+02	-12.6189	-33.578877	0.000243	2.432267	0.824074	-0.000097
1323	1.3154e+02	-12.6718	-33.663656	0.000213	2.128233	0.721065	-0.000085
1324	1.3164e+02	-12.7023	-33.756510	0.000233	2.330922	0.789738	-0.000093
1325	1.3174e+02	-12.7537	-33.853402	0.000243	2.432267	0.824074	-0.000097
1326	1.3184e+02	-12.7970	-33.970479	0.000294	2.938989	0.995756	-0.000118
1327	1.3194e+02	-12.8290	-34.043147	0.000182	1.824200	0.618056	-0.000073
1328	1.3204e+02	-12.8692	-34.140038	0.000243	2.432267	0.824074	-0.000097
1329	1.3214e+02	-12.8996	-34.253078	0.000284	2.837645	0.961420	-0.000114
1330	1.3224e+02	-12.9462	-34.349969	0.000243	2.432267	0.824074	-0.000097
1331	1.3234e+02	-12.9943	-34.430712	0.000203	2.026889	0.686729	-0.000081
1332	1.3243e+02	-13.0296	-34.539715	0.000274	2.736300	0.927084	-0.000110
1333	1.3253e+02	-13.0649	-34.664866	0.000314	3.141678	1.064429	-0.000126
1334	1.3263e+02	-13.0986	-34.757720	0.000233	2.330922	0.789738	-0.000093
1335	1.3273e+02	-13.1435	-34.886908	0.000324	3.243022	1.098766	-0.000130
1336	1.3283e+02	-13.1788	-34.991874	0.000263	2.634956	0.892747	-0.000105
1337	1.3293e+02	-13.2157	-35.080691	0.000223	2.229578	0.755401	-0.000089
1338	1.3303e+02	-13.2654	-35.177582	0.000243	2.432267	0.824074	-0.000097
1339	1.3313e+02	-13.2927	-35.318882	0.000355	3.547056	1.201775	-0.000142
1340	1.3323e+02	-13.3360	-35.351179	0.000081	0.810756	0.274691	-0.000032
1341	1.3333e+02	-13.3873	-35.415773	0.000162	1.621511	0.549383	-0.000065
1342	1.3343e+02	-13.4210	-35.524776	0.000274	2.736300	0.927084	-0.000110
1343	1.3353e+02	-13.4595	-35.629741	0.000263	2.634956	0.892747	-0.000105
1344	1.3363e+02	-13.4932	-35.726633	0.000243	2.432267	0.824074	-0.000097
1345	1.3373e+02	-13.5413	-35.835635	0.000274	2.736300	0.927084	-0.000110
1346	1.3383e+02	-13.5862	-35.896192	0.000152	1.520167	0.515046	-0.000061
1347	1.3393e+02	-13.6199	-35.993084	0.000243	2.432267	0.824074	-0.000097
1348	1.3403e+02	-13.6633	-36.098049	0.000263	2.634956	0.892747	-0.000105
1349	1.3413e+02	-13.7001	-36.219163	0.000304	3.040334	1.030093	-0.000122
1350	1.3423e+02	-13.7435	-36.307980	0.000223	2.229578	0.755401	-0.000089
1351	1.3432e+02	-13.7820	-36.465429	0.000395	3.952434	1.339121	-0.000158
1352	1.3442e+02	-13.8060	-36.525986	0.000152	1.520167	0.515046	-0.000061
1353	1.3452e+02	-13.8542	-36.691508	0.000416	4.155123	1.407794	-0.000166
1354	1.3462e+02	-13.8911	-36.731880	0.000101	1.013445	0.343364	-0.000041
1355	1.3472e+02	-13.9424	-36.889328	0.000395	3.952434	1.339121	-0.000158
1356	1.3482e+02	-13.9841	-36.974108	0.000213	2.128233	0.721065	-0.000085
1357	1.3492e+02	-14.0258	-37.010442	0.000091	0.912100	0.309028	-0.000037
1358	1.3502e+02	-14.0643	-37.139630	0.000324	3.243022	1.098766	-0.000130
1359	1.3512e+02	-14.0980	-37.204224	0.000162	1.621511	0.549383	-0.000065
1360	1.3522e+02	-14.1429	-37.280930	0.000193	1.925545	0.652392	-0.000077
1361	1.3532e+02	-14.1878	-37.410118	0.000324	3.243022	1.098766	-0.000130
1362	1.3542e+02	-14.2215	-37.458564	0.000122	1.216133	0.412037	-0.000049
1363	1.3552e+02	-14.2600	-37.559492	0.000253	2.533611	0.858411	-0.000101
1364	1.3562e+02	-14.2969	-37.652346	0.000233	2.330922	0.789738	-0.000093
1365	1.3572e+02	-14.3338	-37.757312	0.000263	2.634956	0.892747	-0.000105
1366	1.3582e+02	-14.3739	-37.846129	0.000223	2.229578	0.755401	-0.000089
1367	1.3592e+02	-14.4172	-37.959169	0.000284	2.837645	0.961420	-0.000114
1368	1.3602e+02	-14.4573	-38.068171	0.000274	2.736300	0.927084	-0.000110
1369	1.3612e+02	-14.5023	-38.229657	0.000405	4.053778	1.373457	-0.000162
1370	1.3622e+02	-14.5376	-38.318474	0.000223	2.229578	0.755401	-0.000089
1371	1.3631e+02	-14.5777	-38.435551	0.000294	2.938989	0.995756	-0.000118
1372	1.3641e+02	-14.6258	-38.488034	0.000132	1.317478	0.446374	-0.000053
1373	1.3651e+02	-14.6531	-38.625296	0.000345	3.445711	1.167439	-0.000138
1374	1.3661e+02	-14.6964	-38.689890	0.000162	1.621511	0.549383	-0.000065
1375	1.3671e+02	-14.7413	-38.770633	0.000203	2.026889	0.686729	-0.000081
1376	1.3681e+02	-14.7782	-38.835227	0.000162	1.621511	0.549383	-0.000065
1377	1.3691e+02	-14.8087	-38.940193	0.000263	2.634956	0.892747	-0.000105
1378	1.3701e+02	-14.8584	-39.020935	0.000203	2.026889	0.686729	-0.000081
1379	1.3711e+02	-14.8873	-39.117827	0.000243	2.432267	0.824074	-0.000097
1380	1.3721e+02	-14.9386	-39.214718	0.000243	2.432267	0.824074	-0.000097
1381	1.3731e+02	-14.9723	-39.384278	0.000426	4.256467	1.442130	-0.000170
1382	1.3741e+02	-15.0124	-39.392352	0.000020	0.202689	0.068673	-0.000008
1383	1.3751e+02	-15.0557	-39.549800	0.000395	3.952434	1.339121	-0.000158
1384	1.3761e+02	-15.1006	-39.642654	0.000233	2.330922	0.789738	-0.000093
1385	1.3771e+02	-15.1391	-39.759731	0.000294	2.938989	0.995756	-0.000118
1386	1.3781e+02	-15.1728	-39.909105	0.000375	3.749745	1.270448	-0.000150
1387	1.3791e+02	-15.2129	-40.026182	0.000294	2.938989	0.995756	-0.000118
1388	1.3801e+02	-15.2514	-40.074628	0.000122	1.216133	0.412037	-0.000049
1389	1.3811e+02	-15.2899	-40.191705	0.000294	2.938989	0.995756	-0.000118
1390	1.3821e+02	-15.3300	-40.276485	0.000213	2.128233	0.721065	-0.000085
1391	1.3831e+02	-15.3782	-40.377413	0.000253	2.533611	0.858411	-0.000101
1392	1.3840e+02	-15.4183	-40.474304	0.000243	2.432267	0.824074	-0.000097
1393	1.3850e+02	-15.4568	-40.595418	0.000304	3.040334	1.030093	-0.000122
1394	1.3860e+02	-15.4921	-40.599456	0.000010	0.101344	0.034336	-0.000004
1395	1.3870e+02	-15.5386	-40.756904	0.000395	3.952434	1.339121	-0.000158
1396	1.3880e+02	-15.5675	-40.873981	0.000294	2.938989	0.995756	-0.000118
1397	1.3890e+02	-15.6172	-40.942612	0.000172	1.722856	0.583719	-0.000069
1398	1.3900e+02	-15.6509	-41.039503	0.000243	2.432267	0.824074	-0.000097
1399	1.3910e+02	-15.7022	-41.136395	0.000243	2.432267	0.824074	-0.000097
1400	1.3920e+02	-15.7231	-41.261546	0.000314	3.141678	1.064429	-0.000126
1401	1.3930e+02	-15.7616	-41.354400	0.000233	2.330922	0.789738	-0.000093
1402	1.3940e+02	-15.8097	-41.479551	0.000314	3.141678	1.064429	-0.000126
1403	1.3950e+02	-15.8498	-41.596628	0.000294	2.938989	0.995756	-0.000118
1404	1.3960e+02	-15.8819	-41.673334	0.000193	1.925545	0.652392	-0.000077
1405	1.3970e+02	-15.9300	-41.806559	0.000334	3.344367	1.133102	-0.000134
1406	1.3980e+02	-15.9733	-41.895376	0.000223	2.229578	0.755401	-0.000089
1407	1.3990e+02	-16.0102	-41.988230	0.000233	2.330922	0.789738	-0.000093
1408	1.4000e+02	-16.0439	-42.141641	0.000385	3.851089	1.304784	-0.000154
1409	1.4010e+02	-16.0905	-42.226421	0.000213	2.128233	0.721065	-0.000085
1410	1.4020e+02	-16.1241	-42.315238	0.000223	2.229578	0.755401	-0.000089
1411	1.4029e+02	-16.1707	-42.420204	0.000263	2.634956	0.892747	-0.000105
1412	1.4039e+02	-16.2108	-42.496909	0.000193	1.925545	0.652392	-0.000077
1413	1.4049e+02	-16.2429	-42.577652	0.000203	2.026889	0.686729	-0.000081
1414	1.4059e+02	-16.2894	-42.626098	0.000122	1.216133	0.412037	-0.000049
1415	1.4069e+02	-16.3279	-42.735100	0.000274	2.736300	0.927084	-0.000110
1416	1.4079e+02	-16.3776	-42.827954	0.000233	2.330922	0.789738	-0.000093
1417	1.4089e+02	-16.4161	-42.961180	0.000334	3.344367	1.133102	-0.000134
1418	1.4099e+02	-16.4530	-43.049997	0.000223	2.229578	0.755401	-0.000089
1419	1.4109e+02	-16.4771	-43.199371	0.000375	3.749745	1.270448	-0.000150
1420	1.4119e+02	-16.5236	-43.296262	0.000243	2.432267	0.824074	-0.000097
1421	1.4129e+02	-16.5621	-43.401228	0.000263	2.634956	0.892747	-0.000105
1422	1.4139e+02	-16.6118	-43.538490	0.000345	3.445711	1.167439	-0.000138
1423	1.4149e+02	-16.6535	-43.586936	0.000122	1.216133	0.412037	-0.000049
1424	1.4159e+02	-16.6808	-43.720161	0.000334	3.344367	1.133102	-0.000134
1425	1.4169e+02	-16.7257	-43.817053	0.000243	2.432267	0.824074	-0.000097
1426	1.4179e+02	-16.7642	-43.901833	0.000213	2.128233	0.721065	-0.000085
1427	1.4189e+02	-16.8059	-44.043132	0.000355	3.547056	1.201775	-0.000142
1428	1.4199e+02	-16.8493	-44.140024	0.000243	2.432267	0.824074	-0.000097
1429	1.4209e+02	-16.8894	-44.240952	0.000253	2.533611	0.858411	-0.000101
1430	1.4219e+02	-16.9263	-44.329769	0.000223	2.229578	0.755401	-0.000089
1431	1.4228e+02	-16.9680	-44.414549	0.000213	2.128233	0.721065	-0.000085
1432	1.4238e+02	-17.0097	-44.507403	0.000233	2.330922	0.789738	-0.000093
1433	1.4248e+02	-17.0514	-44.592183	0.000213	2.128233	0.721065	-0.000085
1434	1.4258e+02	-17.0915	-44.697148	0.000263	2.634956	0.892747	-0.000105
1435	1.4268e+02	-17.1316	-44.818262	0.000304	3.040334	1.030093	-0.000122
1436	1.4278e+02	-17.1605	-44.927265	0.000274	2.736300	0.927084	-0.000110
1437	1.4288e+02	-17.2054	-45.044342	0.000294	2.938989	0.995756	-0.000118
1438	1.4298e+02	-17.2407	-45.137196	0.000233	2.330922	0.789738	-0.000093
1439	1.4308e+02	-17.2840	-45.254273	0.000294	2.938989	0.995756	-0.000118
1440	1.4318e+02	-17.3241	-45.375387	0.000304	3.040334	1.030093	-0.000122
1441	1.4328e+02	-17.3642	-45.472278	0.000243	2.432267	0.824074	-0.000097
1442	1.4338e+02	-17.4011	-45.585318	0.000284	2.837645	0.961420	-0.000114
1443	1.4348e+02	-17.4444	-45.686247	0.000253	2.533611	0.858411	-0.000101
1444	1.4358e+02	-17.4813	-45.795249	0.000274	2.736300	0.927084	-0.000110
1445	1.4368e+02	-17.5246	-45.908289	0.000284	2.837645	0.961420	-0.000114
1446	1.4378e+02	-17.5680	-45.993069	0.000213	2.128233	0.721065	-0.000085
1447	1.4388e+02	-17.6145	-46.098034	0.000263	2.634956	0.892747	-0.000105
1448	1.4398e+02	-17.6450	-46.190889	0.000233	2.330922	0.789738	-0.000093
1449	1.4408e+02	-17.6835	-46.283743	0.000233	2.330922	0.789738	-0.000093
1450	1.4418e+02	-17.7268	-46.332188	0.000122	1.216133	0.412037	-0.000049
1451	1.4428e+02	-17.7637	-46.461377	0.000324	3.243022	1.098766	-0.000130
1452	1.4437e+02	-17.7974	-46.542119	0.000203	2.026889	0.686729	-0.000081
1453	1.4447e+02	-17.8471	-46.679382	0.000345	3.445711	1.167439	-0.000138
1454	1.4457e+02	-17.8808	-46.844905	0.000416	4.155123	1.407794	-0.000166
1455	1.4467e+02	-17.9241	-46.901424	0.000142	1.418822	0.480710	-0.000057
1456	1.4477e+02	-17.9642	-46.998316	0.000243	2.432267	0.824074	-0.000097
1457	1.4487e+02	-17.9995	-47.123467	0.000314	3.141678	1.064429	-0.000126
1458	1.4497e+02	-18.0444	-47.179987	0.000142	1.418822	0.480710	-0.000057
1459	1.4507e+02	-18.0861	-47.321287	0.000355	3.547056	1.201775	-0.000142
1460	1.4517e+02	-18.1134	-47.397992	0.000193	1.925545	0.652392	-0.000077
1461	1.4527e+02	-18.1631	-47.511032	0.000284	2.837645	0.961420	-0.000114
1462	1.4537e+02	-18.2016	-47.624072	0.000284	2.837645	0.961420	-0.000114
1463	1.4547e+02	-18.2433	-47.688666	0.000162	1.621511	0.549383	-0.000065
1464	1.4557e+02	-18.2770	-47.829966	0.000355	3.547056	1.201775	-0.000142
1465	1.4567e+02	-18.3123	-47.914746	0.000213	2.128233	0.721065	-0.000085
1466	1.4577e+02	-18.3604	-47.995488	0.000203	2.026889	0.686729	-0.000081
1467	1.4587e+02	-18.4006	-48.068157	0.000182	1.824200	0.618056	-0.000073
1468	1.4597e+02	-18.4455	-48.156974	0.000223	2.229578	0.755401	-0.000089
1469	1.4607e+02	-18.4888	-48.282125	0.000314	3.141678	1.064429	-0.000126
1470	1.4617e+02	-18.5225	-48.374979	0.000233	2.330922	0.789738	-0.000093
1471	1.4626e+02	-18.5626	-48.471870	0.000243	2.432267	0.824074	-0.000097
1472	1.4636e+02	-18.5947	-48.609133	0.000345	3.445711	1.167439	-0.000138
1473	1.4646e+02	-18.6380	-48.726210	0.000294	2.938989	0.995756	-0.000118
1474	1.4656e+02	-18.6845	-48.839250	0.000284	2.837645	0.961420	-0.000114
1475	1.4666e+02	-18.7070	-48.911918	0.000182	1.824200	0.618056	-0.000073
1476	1.4676e+02	-18.7551	-49.024958	0.000284	2.837645	0.961420	-0.000114
1477	1.4686e+02	-18.8032	-49.117812	0.000233	2.330922	0.789738	-0.000093
1478	1.4696e+02	-18.8353	-49.247000	0.000324	3.243022	1.098766	-0.000130
1479	1.4706e+02	-18.8818	-49.295446	0.000122	1.216133	0.412037	-0.000049
1480	1.4716e+02	-18.9155	-49.400411	0.000263	2.634956	0.892747	-0.000105
1481	1.4726e+02	-18.9636	-49.469043	0.000172	1.722856	0.583719	-0.000069
1482	1.4736e+02	-18.9973	-49.618417	0.000375	3.749745	1.270448	-0.000150
1483	1.4746e+02	-19.0406	-49.695122	0.000193	1.925545	0.652392	-0.000077
1484	1.4756e+02	-19.0759	-49.820274	0.000314	3.141678	1.064429	-0.000126
1485	1.4766e+02	-19.1144	-49.892942	0.000182	1.824200	0.618056	-0.000073
1486	1.4776e+02	-19.1577	-49.977722	0.000213	2.128233	0.721065	-0.000085
1487	1.4786e+02	-19.2075	-50.038279	0.000152	1.520167	0.515046	-0.000061
1488	1.4796e+02	-19.2396	-50.147282	0.000274	2.736300	0.927084	-0.000110
1489	1.4806e+02	-19.2813	-50.256284	0.000274	2.736300	0.927084	-0.000110
1490	1.4816e+02	-19.3198	-50.381435	0.000314	3.141678	1.064429	-0.000126
1491	1.4825e+02	-19.3470	-50.470252	0.000223	2.229578	0.755401	-0.000089
1492	1.4835e+02	-19.3984	-50.579255	0.000274	2.736300	0.927084	-0.000110
1493	1.4845e+02	-19.4273	-50.704406	0.000314	3.141678	1.064429	-0.000126
1494	1.4855e+02	-19.4802	-50.849743	0.000365	3.648400	1.236111	-0.000146
1495	1.4865e+02	-19.5171	-50.898189	0.000122	1.216133	0.412037	-0.000049
1496	1.4875e+02	-19.5492	-51.003154	0.000263	2.634956	0.892747	-0.000105
1497	1.4885e+02	-19.6021	-51.132343	0.000324	3.243022	1.098766	-0.000130
1498	1.4895e+02	-19.6342	-51.229234	0.000243	2.432267	0.824074	-0.000097
1499	1.4905e+02	-19.6743	-51.309977	0.000203	2.026889	0.686729	-0.000081
1500	1.4915e+02	-19.7080	-51.431091	0.000304	3.040334	1.030093	-0.000122
1501	1.4925e+02	-19.7481	-51.540093	0.000274	2.736300	0.927084	-0.000110
1502	1.4935e+02	-19.7978	-51.620836	0.000203	2.026889	0.686729	-0.000081
1503	1.4945e+02	-19.8283	-51.729839	0.000274	2.736300	0.927084	-0.000110
1504	1.4955e+02	-19.8748	-51.790396	0.000152	1.520167	0.515046	-0.000061
1505	1.4965e+02	-19.9149	-51.915547	0.000314	3.141678	1.064429	-0.000126
1506	1.4975e+02	-19.9534	-52.024550	0.000274	2.736300	0.927084	-0.000110
1507	1.4985e+02	-19.9936	-52.137589	0.000284	2.837645	0.961420	-0.000114
1508	1.4995e+02	-19.9534	-52.125478	0.000030	0.304033	0.103009	0.000012
1509	1.5005e+02	-19.9101	-52.056847	0.000172	1.722856	0.583719	0.000069
1510	1.5015e+02	-19.8668	-51.951881	0.000263	2.634956	0.892747	0.000105
1511	1.5025e+02	-19.8412	-51.911510	0.000101	1.013445	0.343364	0.000041
1512	1.5034e+02	-19.7866	-51.867101	0.000111	1.114789	0.377701	0.000045
1513	1.5044e+02	-19.7545	-51.790396	0.000193	1.925545	0.652392	0.000077
1514	1.5054e+02	-19.7064	-51.733876	0.000142	1.418822	0.480710	0.000057
1515	1.5064e+02	-19.6823	-51.669282	0.000162	1.621511	0.549383	0.000065
1516	1.5074e+02	-19.6422	-51.588539	0.000203	2.026889	0.686729	0.000081
1517	1.5084e+02	-19.5909	-51.548168	0.000101	1.013445	0.343364	0.000041
1518	1.5094e+02	-19.5556	-51.479536	0.000172	1.722856	0.583719	0.000069
1519	1.5104e+02	-19.5171	-51.394757	0.000213	2.128233	0.721065	0.000085
1520	1.5114e+02	-19.4770	-51.350348	0.000111	1.114789	0.377701	0.000045
1521	1.5124e+02	-19.4321	-51.273642	0.000193	1.925545	0.652392	0.000077
1522	1.5134e+02	-19.3904	-51.200974	0.000182	1.824200	0.618056	0.000073
1523	1.5144e+02	-19.3583	-51.083897	0.000294	2.938989	0.995756	0.000118
1524	1.5154e+02	-19.3230	-51.007191	0.000193	1.925545	0.652392	0.000077
1525	1.5164e+02	-19.2845	-50.926449	0.000203	2.026889	0.686729	0.000081
1526	1.5174e+02	-19.2412	-50.857817	0.000172	1.722856	0.583719	0.000069
1527	1.5184e+02	-19.2107	-50.797260	0.000152	1.520167	0.515046	0.000061
1528	1.5194e+02	-19.1577	-50.708443	0.000223	2.229578	0.755401	0.000089
1529	1.5204e+02	-19.1160	-50.643849	0.000162	1.621511	0.549383	0.000065
1530	1.5214e+02	-19.0904	-50.542921	0.000253	2.533611	0.858411	0.000101
1531	1.5224e+02	-19.0422	-50.478327	0.000162	1.621511	0.549383	0.000065
1532	1.5233e+02	-19.0037	-50.397584	0.000203	2.026889	0.686729	0.000081
1533	1.5243e+02	-18.9572	-50.308767	0.000223	2.229578	0.755401	0.000089
1534	1.5253e+02	-18.9203	-50.256284	0.000132	1.317478	0.446374	0.000053
1535	1.5263e+02	-18.8850	-50.151319	0.000263	2.634956	0.892747	0.000105
1536	1.5273e+02	-18.8481	-50.090762	0.000152	1.520167	0.515046	0.000061
1537	1.5283e+02	-18.7920	-50.042316	0.000122	1.216133	0.412037	0.000049
1538	1.5293e+02	-18.7583	-50.001945	0.000101	1.013445	0.343364	0.000041
1539	1.5303e+02	-18.7246	-49.909091	0.000233	2.330922	0.789738	0.000093
1540	1.5313e+02	-18.6829	-49.836422	0.000182	1.824200	0.618056	0.000073
1541	1.5323e+02	-18.6428	-49.695122	0.000355	3.547056	1.201775	0.000142
1542	1.5333e+02	-18.6059	-49.630528	0.000162	1.621511	0.549383	0.000065
1543	1.5343e+02	-18.5658	-49.501340	0.000324	3.243022	1.098766	0.000130
1544	1.5353e+02	-18.5209	-49.469043	0.000081	0.810756	0.274691	0.000032
1545	1.5363e+02	-18.4856	-49.376189	0.000233	2.330922	0.789738	0.000093
1546	1.5373e+02	-18.4455	-49.267186	0.000274	2.736300	0.927084	0.000110
1547	1.5383e+02	-18.4006	-49.214703	0.000132	1.317478	0.446374	0.000053
1548	1.5393e+02	-18.3653	-49.137998	0.000193	1.925545	0.652392	0.000077
1549	1.5403e+02	-18.3316	-49.045144	0.000233	2.330922	0.789738	0.000093
1550	1.5413e+02	-18.2883	-48.960364	0.000213	2.128233	0.721065	0.000085
1551	1.5422e+02	-18.2401	-48.879621	0.000203	2.026889	0.686729	0.000081
1552	1.5432e+02	-18.2113	-48.831175	0.000122	1.216133	0.412037	0.000049
1553	1.5442e+02	-18.1711	-48.742358	0.000223	2.229578	0.755401	0.000089
1554	1.5452e+02	-18.1230	-48.641430	0.000253	2.533611	0.858411	0.000101
1555	1.5462e+02	-18.0845	-48.572799	0.000172	1.722856	0.583719	0.000069
1556	1.5472e+02	-18.0476	-48.568761	0.000010	0.101344	0.034336	0.000004
1557	1.5482e+02	-18.0059	-48.439573	0.000324	3.243022	1.098766	0.000130
1558	1.5492e+02	-17.9578	-48.374979	0.000162	1.621511	0.549383	0.000065
1559	1.5502e+02	-17.9241	-48.257902	0.000294	2.938989	0.995756	0.000118
1560	1.5512e+02	-17.8824	-48.213494	0.000111	1.114789	0.377701	0.000045
1561	1.5522e+02	-17.8439	-48.076231	0.000345	3.445711	1.167439	0.000138
1562	1.5532e+02	-17.7990	-48.027785	0.000122	1.216133	0.412037	0.000049
1563	1.5542e+02	-17.7637	-47.947043	0.000203	2.026889	0.686729	0.000081
1564	1.5552e+02	-17.7284	-47.878411	0.000172	1.722856	0.583719	0.000069
1565	1.5562e+02	-17.6915	-47.801706	0.000193	1.925545	0.652392	0.000077
1566	1.5572e+02	-17.6482	-47.688666	0.000284	2.837645	0.961420	0.000114
1567	1.5582e+02	-17.6000	-47.607923	0.000203	2.026889	0.686729	0.000081
1568	1.5592e+02	-17.5663	-47.535255	0.000182	1.824200	0.618056	0.000073
1569	1.5602e+02	-17.5262	-47.446438	0.000223	2.229578	0.755401	0.000089
1570	1.5612e+02	-17.4845	-47.393955	0.000132	1.317478	0.446374	0.000053
1571	1.5622e+02	-17.4508	-47.317249	0.000193	1.925545	0.652392	0.000077
1572	1.5631e+02	-17.3899	-47.264767	0.000132	1.317478	0.446374	0.000053
1573	1.5641e+02	-17.3738	-47.188061	0.000193	1.925545	0.652392	0.000077
1574	1.5651e+02	-17.3241	-47.119430	0.000172	1.722856	0.583719	0.000069
1575	1.5661e+02	-17.2904	-46.998316	0.000304	3.040334	1.030093	0.000122
1576	1.5671e+02	-17.2503	-46.913536	0.000213	2.128233	0.721065	0.000085
1577	1.5681e+02	-17.2070	-46.812607	0.000253	2.533611	0.858411	0.000101
1578	1.5691e+02	-17.1637	-46.731865	0.000203	2.026889	0.686729	0.000081
1579	1.5701e+02	-17.1236	-46.647085	0.000213	2.128233	0.721065	0.000085
1580	1.5711e+02	-17.0867	-46.574416	0.000182	1.824200	0.618056	0.000073
1581	1.5721e+02	-17.0562	-46.469451	0.000263	2.634956	0.892747	0.000105
1582	1.5731e+02	-17.0097	-46.400820	0.000172	1.722856	0.583719	0.000069
1583	1.5741e+02	-16.9632	-46.328151	0.000182	1.824200	0.618056	0.000073
1584	1.5751e+02	-16.9263	-46.219148	0.000274	2.736300	0.927084	0.000110
1585	1.5761e+02	-16.8829	-46.162629	0.000142	1.418822	0.480710	0.000057
1586	1.5771e+02	-16.8509	-46.069774	0.000233	2.330922	0.789738	0.000093
1587	1.5781e+02	-16.7995	-46.017292	0.000132	1.317478	0.446374	0.000053
1588	1.5791e+02	-16.7642	-45.932512	0.000213	2.128233	0.721065	0.000085
1589	1.5801e+02	-16.7241	-45.875992	0.000142	1.418822	0.480710	0.000057
1590	1.5811e+02	-16.6856	-45.771026	0.000263	2.634956	0.892747	0.000105
1591	1.5821e+02	-16.6455	-45.730655	0.000101	1.013445	0.343364	0.000041
1592	1.5830e+02	-16.6054	-45.625690	0.000263	2.634956	0.892747	0.000105
1593	1.5840e+02	-16.5717	-45.524761	0.000253	2.533611	0.858411	0.000101
1594	1.5850e+02	-16.5284	-45.439981	0.000213	2.128233	0.721065	0.000085
1595	1.5860e+02	-16.4979	-45.351164	0.000223	2.229578	0.755401	0.000089
1596	1.5870e+02	-16.4546	-45.270422	0.000203	2.026889	0.686729	0.000081
1597	1.5880e+02	-16.4065	-45.165456	0.000263	2.634956	0.892747	0.000105
1598	1.5890e+02	-16.3696	-45.088750	0.000193	1.925545	0.652392	0.000077
1599	1.5900e+02	-16.3295	-45.020119	0.000172	1.722856	0.583719	0.000069
1600	1.5910e+02	-16.2974	-44.931302	0.000223	2.229578	0.755401	0.000089
1601	1.5920e+02	-16.2493	-44.854597	0.000193	1.925545	0.652392	0.000077
1602	1.5930e+02	-16.2108	-44.757705	0.000243	2.432267	0.824074	0.000097
1603	1.5940e+02	-16.1771	-44.709260	0.000122	1.216133	0.412037	0.000049
1604	1.5950e+02	-16.1274	-44.584109	0.000314	3.141678	1.064429	0.000126
1605	1.5960e+02	-16.0872	-44.527589	0.000142	1.418822	0.480710	0.000057
1606	1.5970e+02	-16.0487	-44.450883	0.000193	1.925545	0.652392	0.000077
1607	1.5980e+02	-16.0006	-44.410512	0.000101	1.013445	0.343364	0.000041
1608	1.5990e+02	-15.9685	-44.297472	0.000284	2.837645	0.961420	0.000114
1609	1.6000e+02	-15.9316	-44.289398	0.000020	0.202689	0.068673	0.000008
1610	1.6010e+02	-15.8883	-44.115801	0.000436	4.357811	1.476466	0.000174
1611	1.6019e+02	-15.8514	-44.018910	0.000243	2.432267	0.824074	0.000097
1612	1.6029e+02	-15.8097	-43.926055	0.000233	2.330922	0.789738	0.000093
1613	1.6039e+02	-15.7696	-43.825127	0.000253	2.533611	0.858411	0.000101
1614	1.6049e+02	-15.7295	-43.768607	0.000142	1.418822	0.480710	0.000057
1615	1.6059e+02	-15.6974	-43.679790	0.000223	2.229578	0.755401	0.000089
1616	1.6069e+02	-15.6477	-43.627307	0.000132	1.317478	0.446374	0.000053
1617	1.6079e+02	-15.6172	-43.534453	0.000233	2.330922	0.789738	0.000093
1618	1.6089e+02	-15.5803	-43.441599	0.000233	2.330922	0.789738	0.000093
1619	1.6099e+02	-15.5434	-43.352782	0.000223	2.229578	0.755401	0.000089
1620	1.6109e+02	-15.4985	-43.272039	0.000203	2.026889	0.686729	0.000081
1621	1.6119e+02	-15.4472	-43.219557	0.000132	1.317478	0.446374	0.000053
1622	1.6129e+02	-15.4167	-43.118628	0.000253	2.533611	0.858411	0.000101
1623	1.6139e+02	-15.3798	-43.062108	0.000142	1.418822	0.480710	0.000057
1624	1.6149e+02	-15.3284	-42.973291	0.000223	2.229578	0.755401	0.000089
1625	1.6159e+02	-15.2932	-42.916771	0.000142	1.418822	0.480710	0.000057
1626	1.6169e+02	-15.2530	-42.864289	0.000132	1.317478	0.446374	0.000053
1627	1.6179e+02	-15.2145	-42.731063	0.000334	3.344367	1.133102	0.000134
1628	1.6189e+02	-15.1712	-42.650321	0.000203	2.026889	0.686729	0.000081
1629	1.6199e+02	-15.1327	-42.464612	0.000466	4.661845	1.579476	0.000187
1630	1.6209e+02	-15.0958	-42.432315	0.000081	0.810756	0.274691	0.000032
1631	1.6219e+02	-15.0557	-42.315238	0.000294	2.938989	0.995756	0.000118
1632	1.6228e+02	-15.0044	-42.254681	0.000152	1.520167	0.515046	0.000061
1633	1.6238e+02	-14.9707	-42.145679	0.000274	2.736300	0.927084	0.000110
1634	1.6248e+02	-14.9402	-42.044750	0.000253	2.533611	0.858411	0.000101
1635	1.6258e+02	-14.8873	-41.951896	0.000233	2.330922	0.789738	0.000093
1636	1.6268e+02	-14.8520	-41.879228	0.000182	1.824200	0.618056	0.000073
1637	1.6278e+02	-14.8263	-41.778299	0.000253	2.533611	0.858411	0.000101
1638	1.6288e+02	-14.7670	-41.729854	0.000122	1.216133	0.412037	0.000049
1639	1.6298e+02	-14.7301	-41.632962	0.000243	2.432267	0.824074	0.000097
1640	1.6308e+02	-14.7012	-41.604702	0.000071	0.709411	0.240355	0.000028
1641	1.6318e+02	-14.6595	-41.471477	0.000334	3.344367	1.133102	0.000134
1642	1.6328e+02	-14.6162	-41.435143	0.000091	0.912100	0.309028	0.000037
1643	1.6338e+02	-14.5729	-41.277694	0.000395	3.952434	1.339121	0.000158
1644	1.6348e+02	-14.5343	-41.229249	0.000122	1.216133	0.412037	0.000049
1645	1.6358e+02	-14.4878	-41.096023	0.000334	3.344367	1.133102	0.000134
1646	1.6368e+02	-14.4541	-41.007206	0.000223	2.229578	0.755401	0.000089
1647	1.6378e+02	-14.4140	-40.918389	0.000223	2.229578	0.755401	0.000089
1648	1.6388e+02	-14.3787	-40.821498	0.000243	2.432267	0.824074	0.000097
1649	1.6398e+02	-14.3354	-40.740755	0.000203	2.026889	0.686729	0.000081
1650	1.6408e+02	-14.3017	-40.647901	0.000233	2.330922	0.789738	0.000093
1651	1.6418e+02	-14.2616	-40.538899	0.000274	2.736300	0.927084	0.000110
1652	1.6427e+02	-14.2215	-40.437970	0.000253	2.533611	0.858411	0.000101
1653	1.6437e+02	-14.1750	-40.328967	0.000274	2.736300	0.927084	0.000110
1654	1.6447e+02	-14.1461	-40.272448	0.000142	1.418822	0.480710	0.000057
1655	1.6457e+02	-14.1028	-40.191705	0.000203	2.026889	0.686729	0.000081
1656	1.6467e+02	-14.0595	-40.070591	0.000304	3.040334	1.030093	0.000122
1657	1.6477e+02	-14.0082	-39.997922	0.000182	1.824200	0.618056	0.000073
1658	1.6487e+02	-13.9745	-39.921217	0.000193	1.925545	0.652392	0.000077
1659	1.6497e+02	-13.9312	-39.856623	0.000162	1.621511	0.549383	0.000065
1660	1.6507e+02	-13.9023	-39.743583	0.000284	2.837645	0.961420	0.000114
1661	1.6517e+02	-13.8638	-39.691100	0.000132	1.317478	0.446374	0.000053
1662	1.6527e+02	-13.8205	-39.545763	0.000365	3.648400	1.236111	0.000146
1663	1.6537e+02	-13.7868	-39.452909	0.000233	2.330922	0.789738	0.000093
1664	1.6547e+02	-13.7403	-39.368129	0.000213	2.128233	0.721065	0.000085
1665	1.6557e+02	-13.7034	-39.222792	0.000365	3.648400	1.236111	0.000146
1666	1.6567e+02	-13.6600	-39.142050	0.000203	2.026889	0.686729	0.000081
1667	1.6577e+02	-13.6151	-39.037084	0.000263	2.634956	0.892747	0.000105
1668	1.6587e+02	-13.5814	-38.948267	0.000223	2.229578	0.755401	0.000089
1669	1.6597e+02	-13.5445	-38.827153	0.000304	3.040334	1.030093	0.000122
1670	1.6607e+02	-13.5044	-38.754485	0.000182	1.824200	0.618056	0.000073
1671	1.6616e+02	-13.4691	-38.625296	0.000324	3.243022	1.098766	0.000130
1672	1.6626e+02	-13.4162	-38.592999	0.000081	0.810756	0.274691	0.000032
1673	1.6636e+02	-13.3793	-38.536479	0.000142	1.418822	0.480710	0.000057
1674	1.6646e+02	-13.3440	-38.447662	0.000223	2.229578	0.755401	0.000089
1675	1.6656e+02	-13.3023	-38.354808	0.000233	2.330922	0.789738	0.000093
1676	1.6666e+02	-13.2638	-38.265991	0.000223	2.229578	0.755401	0.000089
1677	1.6676e+02	-13.2189	-38.181211	0.000213	2.128233	0.721065	0.000085
1678	1.6686e+02	-13.1756	-38.047986	0.000334	3.344367	1.133102	0.000134
1679	1.6696e+02	-13.1435	-37.995503	0.000132	1.317478	0.446374	0.000053
1680	1.6706e+02	-13.1002	-37.882463	0.000284	2.837645	0.961420	0.000114
1681	1.6716e+02	-13.0649	-37.753275	0.000324	3.243022	1.098766	0.000130
1682	1.6726e+02	-13.0232	-37.652346	0.000253	2.533611	0.858411	0.000101
1683	1.6736e+02	-12.9766	-37.535270	0.000294	2.938989	0.995756	0.000118
1684	1.6746e+02	-12.9430	-37.422230	0.000284	2.837645	0.961420	0.000114
1685	1.6756e+02	-12.9093	-37.353598	0.000172	1.722856	0.583719	0.000069
1686	1.6766e+02	-12.8708	-37.232484	0.000304	3.040334	1.030093	0.000122
1687	1.6776e+02	-12.8290	-37.167890	0.000162	1.621511	0.549383	0.000065
1688	1.6786e+02	-12.7922	-37.062925	0.000263	2.634956	0.892747	0.000105
1689	1.6796e+02	-12.7408	-36.966033	0.000243	2.432267	0.824074	0.000097
1690	1.6806e+02	-12.6959	-36.881254	0.000213	2.128233	0.721065	0.000085
1691	1.6816e+02	-12.6606	-36.820696	0.000152	1.520167	0.515046	0.000061
1692	1.6825e+02	-12.6221	-36.723805	0.000243	2.432267	0.824074	0.000097
1693	1.6835e+02	-12.5932	-36.622877	0.000253	2.533611	0.858411	0.000101
1694	1.6845e+02	-12.5499	-36.517911	0.000263	2.634956	0.892747	0.000105
1695	1.6855e+02	-12.5066	-36.429094	0.000223	2.229578	0.755401	0.000089
1696	1.6865e+02	-12.4601	-36.295869	0.000334	3.344367	1.133102	0.000134
1697	1.6875e+02	-12.4280	-36.231275	0.000162	1.621511	0.549383	0.000065
1698	1.6885e+02	-12.3911	-36.158606	0.000182	1.824200	0.618056	0.000073
1699	1.6895e+02	-12.3510	-36.053641	0.000263	2.634956	0.892747	0.000105
1700	1.6905e+02	-12.3109	-35.924452	0.000324	3.243022	1.098766	0.000130
1701	1.6915e+02	-12.2676	-35.807375	0.000294	2.938989	0.995756	0.000118
1702	1.6925e+02	-12.2323	-35.694336	0.000284	2.837645	0.961420	0.000114
1703	1.6935e+02	-12.1906	-35.605519	0.000223	2.229578	0.755401	0.000089
1704	1.6945e+02	-12.1440	-35.516702	0.000223	2.229578	0.755401	0.000089
1705	1.6955e+02	-12.1104	-35.415773	0.000253	2.533611	0.858411	0.000101
1706	1.6965e+02	-12.0719	-35.302733	0.000284	2.837645	0.961420	0.000114
1707	1.6975e+02	-12.0301	-35.197768	0.000263	2.634956	0.892747	0.000105
1708	1.6985e+02	-11.9756	-35.133174	0.000162	1.621511	0.549383	0.000065
1709	1.6995e+02	-11.9435	-35.076654	0.000142	1.418822	0.480710	0.000057
1710	1.7005e+02	-11.9018	-34.991874	0.000213	2.128233	0.721065	0.000085
1711	1.7015e+02	-11.8681	-34.842500	0.000375	3.749745	1.270448	0.000150
1712	1.7024e+02	-11.8168	-34.794054	0.000122	1.216133	0.412037	0.000049
1713	1.7034e+02	-11.7927	-34.729460	0.000162	1.621511	0.549383	0.000065
1714	1.7044e+02	-11.7462	-34.580086	0.000375	3.749745	1.270448	0.000150
1715	1.7054e+02	-11.7157	-34.487232	0.000233	2.330922	0.789738	0.000093
1716	1.7064e+02	-11.6660	-34.394378	0.000233	2.330922	0.789738	0.000093
1717	1.7074e+02	-11.6259	-34.289412	0.000263	2.634956	0.892747	0.000105
1718	1.7084e+02	-11.5858	-34.148113	0.000355	3.547056	1.201775	0.000142
1719	1.7094e+02	-11.5505	-34.014887	0.000334	3.344367	1.133102	0.000134
1720	1.7104e+02	-11.5088	-33.958367	0.000142	1.418822	0.480710	0.000057
1721	1.7114e+02	-11.4719	-33.873587	0.000213	2.128233	0.721065	0.000085
1722	1.7124e+02	-11.4253	-33.808993	0.000162	1.621511	0.549383	0.000065
1723	1.7134e+02	-11.3965	-33.716139	0.000233	2.330922	0.789738	0.000093
1724	1.7144e+02	-11.3516	-33.586951	0.000324	3.243022	1.098766	0.000130
1725	1.7154e+02	-11.3179	-33.522357	0.000162	1.621511	0.549383	0.000065
1726	1.7164e+02	-11.2649	-33.469874	0.000132	1.317478	0.446374	0.000053
1727	1.7174e+02	-11.2280	-33.368945	0.000253	2.533611	0.858411	0.000101
1728	1.7184e+02	-11.1847	-33.308388	0.000152	1.520167	0.515046	0.000061
1729	1.7194e+02	-11.1478	-33.183237	0.000314	3.141678	1.064429	0.000126
1730	1.7204e+02	-11.1093	-33.066160	0.000294	2.938989	0.995756	0.000118
1731	1.7213e+02	-11.0724	-32.981380	0.000213	2.128233	0.721065	0.000085
1732	1.7223e+02	-11.0339	-32.908712	0.000182	1.824200	0.618056	0.000073
1733	1.7233e+02	-10.9954	-32.823932	0.000213	2.128233	0.721065	0.000085
1734	1.7243e+02	-10.9617	-32.694744	0.000324	3.243022	1.098766	0.000130
1735	1.7253e+02	-10.9120	-32.517110	0.000446	4.459156	1.510803	0.000179
1736	1.7263e+02	-10.8783	-32.460590	0.000142	1.418822	0.480710	0.000057
1737	1.7273e+02	-10.8366	-32.375810	0.000213	2.128233	0.721065	0.000085
1738	1.7283e+02	-10.7853	-32.234510	0.000355	3.547056	1.201775	0.000142
1739	1.7293e+02	-10.7532	-32.161842	0.000182	1.824200	0.618056	0.000073
1740	1.7303e+02	-10.7243	-32.064951	0.000243	2.432267	0.824074	0.000097
1741	1.7313e+02	-10.6714	-31.992282	0.000182	1.824200	0.618056	0.000073
1742	1.7323e+02	-10.6377	-31.899428	0.000233	2.330922	0.789738	0.000093
1743	1.7333e+02	-10.5944	-31.859057	0.000101	1.013445	0.343364	0.000041
1744	1.7343e+02	-10.5478	-31.762165	0.000243	2.432267	0.824074	0.000097
1745	1.7353e+02	-10.5141	-31.653163	0.000274	2.736300	0.927084	0.000110
1746	1.7363e+02	-10.4805	-31.596643	0.000142	1.418822	0.480710	0.000057
1747	1.7373e+02	-10.4355	-31.451306	0.000365	3.648400	1.236111	0.000146
1748	1.7383e+02	-10.3970	-31.378638	0.000182	1.824200	0.618056	0.000073
1749	1.7393e+02	-10.3537	-31.285783	0.000233	2.330922	0.789738	0.000093
1750	1.7403e+02	-10.3088	-31.192929	0.000233	2.330922	0.789738	0.000093
1751	1.7413e+02	-10.2671	-31.108149	0.000213	2.128233	0.721065	0.000085
1752	1.7422e+02	-10.2318	-30.978961	0.000324	3.243022	1.098766	0.000130
1753	1.7432e+02	-10.1949	-30.849773	0.000324	3.243022	1.098766	0.000130
1754	1.7442e+02	-10.1676	-30.748844	0.000253	2.533611	0.858411	0.000101
1755	1.7452e+02	-10.1275	-30.647916	0.000253	2.533611	0.858411	0.000101
1756	1.7462e+02	-10.0842	-30.530839	0.000294	2.938989	0.995756	0.000118
1757	1.7472e+02	-10.0457	-30.466245	0.000162	1.621511	0.549383	0.000065
1758	1.7482e+02	-9.9960	-30.369354	0.000243	2.432267	0.824074	0.000097
1759	1.7492e+02	-9.9559	-30.292648	0.000193	1.925545	0.652392	0.000077
1760	1.7502e+02	-9.9142	-30.207868	0.000213	2.128233	0.721065	0.000085
1761	1.7512e+02	-9.8805	-30.135200	0.000182	1.824200	0.618056	0.000073
1762	1.7522e+02	-9.8388	-30.062531	0.000182	1.824200	0.618056	0.000073
1763	1.7532e+02	-9.7874	-29.977751	0.000213	2.128233	0.721065	0.000085
1764	1.7542e+02	-9.7553	-29.892972	0.000213	2.128233	0.721065	0.000085
1765	1.7552e+02	-9.7152	-29.800117	0.000233	2.330922	0.789738	0.000093
1766	1.7562e+02	-9.6767	-29.683041	0.000294	2.938989	0.995756	0.000118
1767	1.7572e+02	-9.6334	-29.614409	0.000172	1.722856	0.583719	0.000069
1768	1.7582e+02	-9.5917	-29.509444	0.000263	2.634956	0.892747	0.000105
1769	1.7592e+02	-9.5548	-29.416590	0.000233	2.330922	0.789738	0.000093
1770	1.7602e+02	-9.5147	-29.287401	0.000324	3.243022	1.098766	0.000130
1771	1.7612e+02	-9.4826	-29.178399	0.000274	2.736300	0.927084	0.000110
1772	1.7621e+02	-9.4489	-29.069396	0.000274	2.736300	0.927084	0.000110
1773	1.7631e+02	-9.3960	-28.984616	0.000213	2.128233	0.721065	0.000085
1774	1.7641e+02	-9.3655	-28.867539	0.000294	2.938989	0.995756	0.000118
1775	1.7651e+02	-9.3158	-28.794871	0.000182	1.824200	0.618056	0.000073
1776	1.7661e+02	-9.2757	-28.722202	0.000182	1.824200	0.618056	0.000073
1777	1.7671e+02	-9.2324	-28.613200	0.000274	2.736300	0.927084	0.000110
1778	1.7681e+02	-9.1939	-28.520345	0.000233	2.330922	0.789738	0.000093
1779	1.7691e+02	-9.1602	-28.435566	0.000213	2.128233	0.721065	0.000085
1780	1.7701e+02	-9.1136	-28.403268	0.000081	0.810756	0.274691	0.000032
1781	1.7711e+02	-9.0751	-28.298303	0.000263	2.634956	0.892747	0.000105
1782	1.7721e+02	-9.0318	-28.185263	0.000284	2.837645	0.961420	0.000114
1783	1.7731e+02	-8.9933	-28.092409	0.000233	2.330922	0.789738	0.000093
1784	1.7741e+02	-8.9596	-28.003592	0.000223	2.229578	0.755401	0.000089
1785	1.7751e+02	-8.9211	-27.910738	0.000233	2.330922	0.789738	0.000093
1786	1.7761e+02	-8.8858	-27.789624	0.000304	3.040334	1.030093	0.000122
1787	1.7771e+02	-8.8377	-27.676584	0.000284	2.837645	0.961420	0.000114
1788	1.7781e+02	-8.7992	-27.583730	0.000233	2.330922	0.789738	0.000093
1789	1.7791e+02	-8.7623	-27.486839	0.000243	2.432267	0.824074	0.000097
1790	1.7801e+02	-8.7238	-27.389947	0.000243	2.432267	0.824074	0.000097
1791	1.7810e+02	-8.6773	-27.297093	0.000233	2.330922	0.789738	0.000093
1792	1.7820e+02	-8.6484	-27.180016	0.000294	2.938989	0.995756	0.000118
1793	1.7830e+02	-8.6019	-27.054865	0.000314	3.141678	1.064429	0.000126
1794	1.7840e+02	-8.5602	-26.966048	0.000223	2.229578	0.755401	0.000089
1795	1.7850e+02	-8.5169	-26.893380	0.000182	1.824200	0.618056	0.000073
1796	1.7860e+02	-8.4832	-26.832823	0.000152	1.520167	0.515046	0.000061
1797	1.7870e+02	-8.4431	-26.727857	0.000263	2.634956	0.892747	0.000105
1798	1.7880e+02	-8.3966	-26.663263	0.000162	1.621511	0.549383	0.000065
1799	1.7890e+02	-8.3500	-26.566372	0.000243	2.432267	0.824074	0.000097
1800	1.7900e+02	-8.3212	-26.473518	0.000233	2.330922	0.789738	0.000093
1801	1.7910e+02	-8.2778	-26.368552	0.000263	2.634956	0.892747	0.000105
1802	1.7920e+02	-8.2361	-26.259549	0.000274	2.736300	0.927084	0.000110
1803	1.7930e+02	-8.1944	-26.162658	0.000243	2.432267	0.824074	0.000097
1804	1.7940e+02	-8.1639	-26.073841	0.000223	2.229578	0.755401	0.000089
1805	1.7950e+02	-8.1335	-25.936579	0.000345	3.445711	1.167439	0.000138
1806	1.7960e+02	-8.0869	-25.835650	0.000253	2.533611	0.858411	0.000101
1807	1.7970e+02	-8.0468	-25.662053	0.000436	4.357811	1.476466	0.000174
1808	1.7980e+02	-8.0003	-25.585348	0.000193	1.925545	0.652392	0.000077
1809	1.7990e+02	-7.9698	-25.512679	0.000182	1.824200	0.618056	0.000073
1810	1.8000e+02	-7.9281	-25.387528	0.000314	3.141678	1.064429	0.000126
1811	1.8009e+02	-7.8832	-25.314860	0.000182	1.824200	0.618056	0.000073
1812	1.8019e+02	-7.8367	-25.217968	0.000243	2.432267	0.824074	0.000097
1813	1.8029e+02	-7.8046	-25.157411	0.000152	1.520167	0.515046	0.000061
1814	1.8039e+02	-7.7645	-25.020149	0.000345	3.445711	1.167439	0.000138
1815	1.8049e+02	-7.7196	-24.943443	0.000193	1.925545	0.652392	0.000077
1816	1.8059e+02	-7.6730	-24.870775	0.000182	1.824200	0.618056	0.000073
1817	1.8069e+02	-7.6522	-24.741586	0.000324	3.243022	1.098766	0.000130
1818	1.8079e+02	-7.6041	-24.681029	0.000152	1.520167	0.515046	0.000061
1819	1.8089e+02	-7.5640	-24.523581	0.000395	3.952434	1.339121	0.000158
1820	1.8099e+02	-7.5239	-24.438801	0.000213	2.128233	0.721065	0.000085
1821	1.8109e+02	-7.4902	-24.293464	0.000365	3.648400	1.236111	0.000146
1822	1.8119e+02	-7.4485	-24.232907	0.000152	1.520167	0.515046	0.000061
1823	1.8129e+02	-7.4035	-24.107756	0.000314	3.141678	1.064429	0.000126
1824	1.8139e+02	-7.3666	-23.982605	0.000314	3.141678	1.064429	0.000126
1825	1.8149e+02	-7.3281	-23.881676	0.000253	2.533611	0.858411	0.000101
1826	1.8159e+02	-7.2944	-23.780748	0.000253	2.533611	0.858411	0.000101
1827	1.8169e+02	-7.2511	-23.627337	0.000385	3.851089	1.304784	0.000154
1828	1.8179e+02	-7.2014	-23.550631	0.000193	1.925545	0.652392	0.000077
1829	1.8189e+02	-7.1725	-23.494111	0.000142	1.418822	0.480710	0.000057
1830	1.8199e+02	-7.1244	-23.393183	0.000253	2.533611	0.858411	0.000101
1831	1.8209e+02	-7.0859	-23.300329	0.000233	2.330922	0.789738	0.000093
1832	1.8218e+02	-7.0410	-23.243809	0.000142	1.418822	0.480710	0.000057
1833	1.8228e+02	-7.0137	-23.102509	0.000355	3.547056	1.201775	0.000142
1834	1.8238e+02	-6.9592	-23.017729	0.000213	2.128233	0.721065	0.000085
1835	1.8248e+02	-6.9207	-22.892578	0.000314	3.141678	1.064429	0.000126
1836	1.8258e+02	-6.8886	-22.823947	0.000172	1.722856	0.583719	0.000069
1837	1.8268e+02	-6.8485	-22.694759	0.000324	3.243022	1.098766	0.000130
1838	1.8278e+02	-6.8084	-22.589793	0.000263	2.634956	0.892747	0.000105
1839	1.8288e+02	-6.7715	-22.440419	0.000375	3.749745	1.270448	0.000150
1840	1.8298e+02	-6.7314	-22.371788	0.000172	1.722856	0.583719	0.000069
1841	1.8308e+02	-6.6880	-22.254711	0.000294	2.938989	0.995756	0.000118
1842	1.8318e+02	-6.6544	-22.186079	0.000172	1.722856	0.583719	0.000069
1843	1.8328e+02	-6.6159	-22.032668	0.000385	3.851089	1.304784	0.000154
1844	1.8338e+02	-6.5629	-21.899443	0.000334	3.344367	1.133102	0.000134
1845	1.8348e+02	-6.5276	-21.794477	0.000263	2.634956	0.892747	0.000105
1846	1.8358e+02	-6.4779	-21.717772	0.000193	1.925545	0.652392	0.000077
1847	1.8368e+02	-6.4330	-21.641066	0.000193	1.925545	0.652392	0.000077
1848	1.8378e+02	-6.4137	-21.540138	0.000253	2.533611	0.858411	0.000101
1849	1.8388e+02	-6.3720	-21.423061	0.000294	2.938989	0.995756	0.000118
1850	1.8398e+02	-6.3351	-21.305984	0.000294	2.938989	0.995756	0.000118
1851	1.8407e+02	-6.2902	-21.237353	0.000172	1.722856	0.583719	0.000069
1852	1.8417e+02	-6.2533	-21.124313	0.000284	2.837645	0.961420	0.000114
1853	1.8427e+02	-6.2084	-21.019347	0.000263	2.634956	0.892747	0.000105
1854	1.8437e+02	-6.1811	-20.930530	0.000223	2.229578	0.755401	0.000089
1855	1.8447e+02	-6.1346	-20.837676	0.000233	2.330922	0.789738	0.000093
1856	1.8457e+02	-6.1025	-20.708488	0.000324	3.243022	1.098766	0.000130
1857	1.8467e+02	-6.0560	-20.591411	0.000294	2.938989	0.995756	0.000118
1858	1.8477e+02	-6.0111	-20.506631	0.000213	2.128233	0.721065	0.000085
1859	1.8487e+02	-5.9774	-20.353220	0.000385	3.851089	1.304784	0.000154
1860	1.8497e+02	-5.9373	-20.264403	0.000223	2.229578	0.755401	0.000089
1861	1.8507e+02	-5.9036	-20.102917	0.000405	4.053778	1.373457	0.000162
1862	1.8517e+02	-5.8619	-19.989878	0.000284	2.837645	0.961420	0.000114
1863	1.8527e+02	-5.8153	-19.888949	0.000253	2.533611	0.858411	0.000101
1864	1.8537e+02	-5.7688	-19.812244	0.000193	1.925545	0.652392	0.000077
1865	1.8547e+02	-5.7351	-19.719390	0.000233	2.330922	0.789738	0.000093
1866	1.8557e+02	-5.6998	-19.586164	0.000334	3.344367	1.133102	0.000134
1867	1.8567e+02	-5.6517	-19.537718	0.000122	1.216133	0.412037	0.000049
1868	1.8577e+02	-5.6148	-19.448901	0.000223	2.229578	0.755401	0.000089
1869	1.8587e+02	-5.5875	-19.283379	0.000416	4.155123	1.407794	0.000166
1870	1.8597e+02	-5.5394	-19.198599	0.000213	2.128233	0.721065	0.000085
1871	1.8606e+02	-5.4977	-19.117856	0.000203	2.026889	0.686729	0.000081
1872	1.8616e+02	-5.4560	-18.976557	0.000355	3.547056	1.201775	0.000142
1873	1.8626e+02	-5.4207	-18.899851	0.000193	1.925545	0.652392	0.000077
1874	1.8636e+02	-5.3790	-18.823145	0.000193	1.925545	0.652392	0.000077
1875	1.8646e+02	-5.3357	-18.661660	0.000405	4.053778	1.373457	0.000162
1876	1.8656e+02	-5.2940	-18.548620	0.000284	2.837645	0.961420	0.000114
1877	1.8666e+02	-5.2651	-18.427506	0.000304	3.040334	1.030093	0.000122
1878	1.8676e+02	-5.2234	-18.274095	0.000385	3.851089	1.304784	0.000154
1879	1.8686e+02	-5.1801	-18.209501	0.000162	1.621511	0.549383	0.000065
1880	1.8696e+02	-5.1368	-18.124721	0.000213	2.128233	0.721065	0.000085
1881	1.8706e+02	-5.1031	-18.015718	0.000274	2.736300	0.927084	0.000110
1882	1.8716e+02	-5.0533	-17.882493	0.000334	3.344367	1.133102	0.000134
1883	1.8726e+02	-5.0229	-17.817899	0.000162	1.621511	0.549383	0.000065
1884	1.8736e+02	-4.9683	-17.733119	0.000213	2.128233	0.721065	0.000085
1885	1.8746e+02	-4.9314	-17.620079	0.000284	2.837645	0.961420	0.000114
1886	1.8756e+02	-4.8977	-17.498965	0.000304	3.040334	1.030093	0.000122
1887	1.8766e+02	-4.8448	-17.446482	0.000132	1.317478	0.446374	0.000053
1888	1.8776e+02	-4.8143	-17.297108	0.000375	3.749745	1.270448	0.000150
1889	1.8786e+02	-4.7742	-17.208291	0.000223	2.229578	0.755401	0.000089
1890	1.8796e+02	-4.7421	-17.119474	0.000223	2.229578	0.755401	0.000089
1891	1.8806e+02	-4.7020	-17.026620	0.000233	2.330922	0.789738	0.000093
1892	1.8815e+02	-4.6571	-16.873209	0.000385	3.851089	1.304784	0.000154
1893	1.8825e+02	-4.6250	-16.731909	0.000355	3.547056	1.201775	0.000142
1894	1.8835e+02	-4.5769	-16.655203	0.000193	1.925545	0.652392	0.000077
1895	1.8845e+02	-4.5480	-16.526015	0.000324	3.243022	1.098766	0.000130
1896	1.8855e+02	-4.4854	-16.433161	0.000233	2.330922	0.789738	0.000093
1897	1.8865e+02	-4.4598	-16.328195	0.000263	2.634956	0.892747	0.000105
1898	1.8875e+02	-4.4165	-16.275713	0.000132	1.317478	0.446374	0.000053
1899	1.8885e+02	-4.3731	-16.170747	0.000263	2.634956	0.892747	0.000105
1900	1.8895e+02	-4.3394	-16.049633	0.000304	3.040334	1.030093	0.000122
1901	1.8905e+02	-4.2929	-15.940630	0.000274	2.736300	0.927084	0.000110
1902	1.8915e+02	-4.2576	-15.815479	0.000314	3.141678	1.064429	0.000126
1903	1.8925e+02	-4.2239	-15.734737	0.000203	2.026889	0.686729	0.000081
1904	1.8935e+02	-4.1726	-15.686291	0.000122	1.216133	0.412037	0.000049
1905	1.8945e+02	-4.1341	-15.561140	0.000314	3.141678	1.064429	0.000126
1906	1.8955e+02	-4.1004	-15.472323	0.000223	2.229578	0.755401	0.000089
1907	1.8965e+02	-4.0651	-15.351209	0.000304	3.040334	1.030093	0.000122
1908	1.8975e+02	-4.0282	-15.234132	0.000294	2.938989	0.995756	0.000118
1909	1.8985e+02	-3.9785	-15.113018	0.000304	3.040334	1.030093	0.000122
1910	1.8995e+02	-3.9416	-15.008052	0.000263	2.634956	0.892747	0.000105
1911	1.9004e+02	-3.9047	-14.919235	0.000223	2.229578	0.755401	0.000089
1912	1.9014e+02	-3.8502	-14.810232	0.000274	2.736300	0.927084	0.000110
1913	1.9024e+02	-3.8229	-14.685081	0.000314	3.141678	1.064429	0.000126
1914	1.9034e+02	-3.7716	-14.572041	0.000284	2.837645	0.961420	0.000114
1915	1.9044e+02	-3.7411	-14.491299	0.000203	2.026889	0.686729	0.000081
1916	1.9054e+02	-3.7074	-14.386333	0.000263	2.634956	0.892747	0.000105
1917	1.9064e+02	-3.6609	-14.273293	0.000284	2.837645	0.961420	0.000114
1918	1.9074e+02	-3.6208	-14.196588	0.000193	1.925545	0.652392	0.000077
1919	1.9084e+02	-3.5774	-14.119882	0.000193	1.925545	0.652392	0.000077
1920	1.9094e+02	-3.5373	-13.998768	0.000304	3.040334	1.030093	0.000122
1921	1.9104e+02	-3.5004	-13.893803	0.000263	2.634956	0.892747	0.000105
1922	1.9114e+02	-3.4571	-13.756540	0.000345	3.445711	1.167439	0.000138
1923	1.9124e+02	-3.4266	-13.671760	0.000213	2.128233	0.721065	0.000085
1924	1.9134e+02	-3.3865	-13.582943	0.000223	2.229578	0.755401	0.000089
1925	1.9144e+02	-3.3384	-13.469903	0.000284	2.837645	0.961420	0.000114
1926	1.9154e+02	-3.3015	-13.360901	0.000274	2.736300	0.927084	0.000110
1927	1.9164e+02	-3.2630	-13.243824	0.000294	2.938989	0.995756	0.000118
1928	1.9174e+02	-3.2181	-13.175192	0.000172	1.722856	0.583719	0.000069
1929	1.9184e+02	-3.1812	-13.017744	0.000395	3.952434	1.339121	0.000158
1930	1.9194e+02	-3.1315	-12.924890	0.000233	2.330922	0.789738	0.000093
1931	1.9203e+02	-3.1090	-12.844147	0.000203	2.026889	0.686729	0.000081
1932	1.9213e+02	-3.0657	-12.735145	0.000274	2.736300	0.927084	0.000110
1933	1.9223e+02	-3.0160	-12.601919	0.000334	3.344367	1.133102	0.000134
1934	1.9233e+02	-2.9759	-12.517139	0.000213	2.128233	0.721065	0.000085
1935	1.9243e+02	-2.9438	-12.444471	0.000182	1.824200	0.618056	0.000073
1936	1.9253e+02	-2.9149	-12.311245	0.000334	3.344367	1.133102	0.000134
1937	1.9263e+02	-2.8700	-12.274911	0.000091	0.912100	0.309028	0.000037
1938	1.9273e+02	-2.8283	-12.101314	0.000436	4.357811	1.476466	0.000174
1939	1.9283e+02	-2.7914	-12.036720	0.000162	1.621511	0.549383	0.000065
1940	1.9293e+02	-2.7513	-11.939829	0.000243	2.432267	0.824074	0.000097
1941	1.9303e+02	-2.7112	-11.851012	0.000223	2.229578	0.755401	0.000089
1942	1.9313e+02	-2.6566	-11.729898	0.000304	3.040334	1.030093	0.000122
1943	1.9323e+02	-2.6325	-11.612821	0.000294	2.938989	0.995756	0.000118
1944	1.9333e+02	-2.5844	-11.515930	0.000243	2.432267	0.824074	0.000097
1945	1.9343e+02	-2.5475	-11.402890	0.000284	2.837645	0.961420	0.000114
1946	1.9353e+02	-2.5074	-11.301961	0.000253	2.533611	0.858411	0.000101
1947	1.9363e+02	-2.4609	-11.209107	0.000233	2.330922	0.789738	0.000093
1948	1.9373e+02	-2.4352	-11.100105	0.000274	2.736300	0.927084	0.000110
1949	1.9383e+02	-2.3887	-10.999176	0.000253	2.533611	0.858411	0.000101
1950	1.9393e+02	-2.3422	-10.886137	0.000284	2.837645	0.961420	0.000114
1951	1.9403e+02	-2.2957	-10.793282	0.000233	2.330922	0.789738	0.000093
1952	1.9412e+02	-2.2684	-10.696391	0.000243	2.432267	0.824074	0.000097
1953	1.9422e+02	-2.2170	-10.575277	0.000304	3.040334	1.030093	0.000122
1954	1.9432e+02	-2.1802	-10.462237	0.000284	2.837645	0.961420	0.000114
1955	1.9442e+02	-2.1513	-10.357272	0.000263	2.634956	0.892747	0.000105
1956	1.9452e+02	-2.1112	-10.256343	0.000253	2.533611	0.858411	0.000101
1957	1.9462e+02	-2.0711	-10.147341	0.000274	2.736300	0.927084	0.000110
1958	1.9472e+02	-2.0294	-10.066598	0.000203	2.026889	0.686729	0.000081
1959	1.9482e+02	-1.9844	-9.965670	0.000253	2.533611	0.858411	0.000101
1960	1.9492e+02	-1.9443	-9.860704	0.000263	2.634956	0.892747	0.000105
1961	1.9502e+02	-1.9138	-9.771887	0.000223	2.229578	0.755401	0.000089
1962	1.9512e+02	-1.8689	-9.634624	0.000345	3.445711	1.167439	0.000138
1963	1.9522e+02	-1.8224	-9.553882	0.000203	2.026889	0.686729	0.000081
1964	1.9532e+02	-1.7887	-9.440842	0.000284	2.837645	0.961420	0.000114
1965	1.9542e+02	-1.7470	-9.347988	0.000233	2.330922	0.789738	0.000093
1966	1.9552e+02	-1.7133	-9.234948	0.000284	2.837645	0.961420	0.000114
1967	1.9562e+02	-1.6652	-9.097685	0.000345	3.445711	1.167439	0.000138
1968	1.9572e+02	-1.6315	-9.016943	0.000203	2.026889	0.686729	0.000081
1969	1.9582e+02	-1.5882	-8.883717	0.000334	3.344367	1.133102	0.000134
1970	1.9592e+02	-1.5481	-8.794900	0.000223	2.229578	0.755401	0.000089
1971	1.9601e+02	-1.5176	-8.693972	0.000253	2.533611	0.858411	0.000101
1972	1.9611e+02	-1.4695	-8.544598	0.000375	3.749745	1.270448	0.000150
1973	1.9621e+02	-1.4374	-8.451744	0.000233	2.330922	0.789738	0.000093
1974	1.9631e+02	-1.3861	-8.366964	0.000213	2.128233	0.721065	0.000085
1975	1.9641e+02	-1.3556	-8.237775	0.000324	3.243022	1.098766	0.000130
1976	1.9651e+02	-1.3107	-8.144921	0.000233	2.330922	0.789738	0.000093
1977	1.9661e+02	-1.2738	-8.027844	0.000294	2.938989	0.995756	0.000118
1978	1.9671e+02	-1.2256	-7.918842	0.000274	2.736300	0.927084	0.000110
1979	1.9681e+02	-1.1839	-7.809839	0.000274	2.736300	0.927084	0.000110
1980	1.9691e+02	-1.1550	-7.680651	0.000324	3.243022	1.098766	0.000130
1981	1.9701e+02	-1.1182	-7.603945	0.000193	1.925545	0.652392	0.000077
1982	1.9711e+02	-1.0748	-7.494942	0.000274	2.736300	0.927084	0.000110
1983	1.9721e+02	-1.0331	-7.381903	0.000284	2.837645	0.961420	0.000114
1984	1.9731e+02	-0.9962	-7.289049	0.000233	2.330922	0.789738	0.000093
1985	1.9741e+02	-0.9593	-7.180046	0.000274	2.736300	0.927084	0.000110
1986	1.9751e+02	-0.9080	-7.026635	0.000385	3.851089	1.304784	0.000154
1987	1.9761e+02	-0.8711	-6.909558	0.000294	2.938989	0.995756	0.000118
1988	1.9771e+02	-0.8294	-6.780369	0.000324	3.243022	1.098766	0.000130
1989	1.9781e+02	-0.7957	-6.699627	0.000203	2.026889	0.686729	0.000081
1990	1.9791e+02	-0.7604	-6.618884	0.000203	2.026889	0.686729	0.000081
1991	1.9800e+02	-0.7187	-6.481621	0.000345	3.445711	1.167439	0.000138
1992	1.9810e+02	-0.6850	-6.372619	0.000274	2.736300	0.927084	0.000110
1993	1.9820e+02	-0.6353	-6.215170	0.000395	3.952434	1.339121	0.000158
1994	1.9830e+02	-0.5936	-6.162688	0.000132	1.317478	0.446374	0.000053
1995	1.9840e+02	-0.5454	-6.041574	0.000304	3.040334	1.030093	0.000122
1996	1.9850e+02	-0.5134	-5.932571	0.000274	2.736300	0.927084	0.000110
1997	1.9860e+02	-0.4749	-5.823568	0.000274	2.736300	0.927084	0.000110
1998	1.9870e+02	-0.4331	-5.722640	0.000253	2.533611	0.858411	0.000101
1999	1.9880e+02	-0.3898	-5.605563	0.000294	2.938989	0.995756	0.000118
2000	1.9890e+02	-0.3545	-5.536932	0.000172	1.722856	0.583719	0.000069
2001	1.9900e+02	-0.3144	-5.363335	0.000436	4.357811	1.476466	0.000174
2002	1.9910e+02	-0.2775	-5.294704	0.000172	1.722856	0.583719	0.000069
2003	1.9920e+02	-0.2374	-5.137255	0.000395	3.952434	1.339121	0.000158
2004	1.9930e+02	-0.1973	-5.060550	0.000193	1.925545	0.652392	0.000077
2005	1.9940e+02	-0.1636	-4.915213	0.000365	3.648400	1.236111	0.000146
2006	1.9950e+02	-0.1171	-4.838507	0.000193	1.925545	0.652392	0.000077
2007	1.9960e+02	-0.0738	-4.681059	0.000395	3.952434	1.339121	0.000158
2008	1.9970e+02	-0.0369	-4.620502	0.000152	1.520167	0.515046	0.000061
2009	1.9980e+02	0.0064	-4.479202	0.000152	1.520167	0.515046	0.000142

PMax (uC/cm2):	5.45e+01
Pr (uC/cm2):	2.62e+00
-Pr (uC/cm2):	-2.16e+00
PLoss (uC/cm2):	-2.20e+00
-Vc:	-1.01e+00
C (Max-Eff) (nF):	2.72e-01
K (Eff):	9.23e+02
Vert. (+/-Pr) Shift (uC/cm2):	2.27e-01
Offset (uC/cm2):	2.32e+00

A (Loop Area - uC/cm2·Volts):	4.43e-03



Hysteresis Version: 5.48.1 - Radiant Technologies, Inc., 1999 - 9/12/24

