»»»»»»»»»»»»»»»»»»»»»»»»»»»»»»»»»»»» Hysteresis ««««««««««««««««««««««««««««««««««««
»»»  Executed Version:	5.48.1
»»»  Vision Version:	5.48.4 (R)
»»»  Vision Compiled:	9/18/24
»»»  Driver Version:	5.47.0
»»»  Windows Version:	Windows 8 or 8.1
»»»  Processor Information:	x86 (AMD or Intel) - 32 Processors
»»»  Tester Name:	PMF21124-494 (100V)
»»»  Tester S/N:	PMF21124-494
»»»  Internal Amp Type:	100V RevK 270k
»»»  Internal Amp S/N:	iAB2-596/K     
»»»  Execution Count:	1
»»»»»»»»»»»»»»»»»»»»»»»»»»»»»»»»»»»»»»»»»»««««««««««««««««««««««««««««««««««««««««««

Stored:	6/19/2025 - 11:37:54
Configured:	06/19/25 10:04:32 AM
Executed:	06/19/25 11:37:34 AM

»»»»»»»»»»»»»»»»»»»»»»»»»»»»»»»»»»» Sample Info ««««««««««««««««««««««««««««««««««««
Sample Name:	
Lot Name:	
Wafer Name:	
Die Row/Column:	0/0
Capacitor Number:	0
Sample Area (cm2):	1.00e-04
Sample Thickness (microns):	3.00e-01

Amplifier:	Internal

»»»»»»»»»»»»»»»»»»»»»»»»»»»»»»»»»»» Tester Info «««««««««««««««««««««««««««««««««««
Tester Name:	PMF21124-494 (100V)
Tester Serial Number:	PMF21124-494
Return Signal Amp. Level:	1.79 [Index: 2]

»»»»»»»»»»»»»»»»»»»»»»»»»»»»»»»» Hysteresis Info ««««««««««««««««««««««««««««««««««
Task Name:	Hyst-1168
Volts:	20.00
Field:	666.67 (kV/cm)
DCBias:	0.00
DCField:	0.00 (kV/cm)
Hysteresis Period (ms):	1.00e+00
Preset:	Enabled
Preset Delay (ms):	1.00e+03
Profile:	Standard Bipolar

»»»»»»»»»»»»»»»»»»»»»»»»»»»»»»»»»»»»»» Data «««««««««««««««««««««««««««««««««««««««
Points:	2001

Valid Data

Point	Time (ms)	Drive Voltage	Measured Polarization (uC/cm2)	Capacitance (uF)	Normalized Capacitance (uF/cm2)	Dielectric Constant	Instantaneous Current (mA)
   1	0.0000e+00	0.0417	-1.652985	0.000374	3.744362	1.268624	0.030190
   2	5.0000e-04	0.0561	-1.502034	0.000374	3.744362	1.268624	0.030190
   3	1.0000e-03	0.1380	-1.560618	-0.000145	-1.453194	-0.492356	-0.011717
   4	1.5000e-03	0.1700	-1.459271	0.000251	2.513920	0.851739	0.020269
   5	2.0000e-03	0.2005	-1.431476	0.000069	0.689472	0.233599	0.005559
   6	2.5000e-03	0.2422	-1.316017	0.000286	2.863960	0.970336	0.023092
   7	3.0000e-03	0.3064	-1.288221	0.000069	0.689472	0.233599	0.005559
   8	3.5000e-03	0.3385	-1.150098	0.000343	3.426144	1.160809	0.027625
   9	4.0000e-03	0.3674	-1.109901	0.000100	0.997082	0.337821	0.008039
  10	4.5000e-03	0.4187	-1.045330	0.000160	1.601696	0.542669	0.012914
  11	5.0000e-03	0.4444	-0.935430	0.000273	2.726065	0.923616	0.021980
  12	5.5000e-03	0.4845	-0.870004	0.000162	1.622911	0.549857	0.013085
  13	6.0000e-03	0.5214	-0.791321	0.000195	1.951736	0.661266	0.015737
  14	6.5000e-03	0.5535	-0.671158	0.000298	2.980640	1.009868	0.024033
  15	7.0000e-03	0.5823	-0.517640	0.000381	3.808006	1.290187	0.030703
  16	7.5000e-03	0.6481	-0.562113	-0.000110	-1.103155	-0.373759	-0.008895
  17	8.0000e-03	0.7091	-0.533463	0.000071	0.710686	0.240787	0.005730
  18	8.5000e-03	0.7139	-0.389780	0.000356	3.564039	1.207529	0.028736
  19	9.0000e-03	0.7556	-0.341459	0.000120	1.198620	0.406104	0.009664
  20	9.5000e-03	0.8037	-0.255078	0.000214	2.142666	0.725955	0.017276
  21	1.0000e-02	0.8278	-0.062647	0.000477	4.773266	1.617226	0.038486
  22	1.0500e-02	0.8791	0.033996	0.000240	2.397240	0.812207	0.019329
  23	1.1000e-02	0.9337	-0.015608	-0.000123	-1.230442	-0.416885	-0.009921
  24	1.1500e-02	0.9706	0.105410	0.000300	3.001854	1.017056	0.024204
  25	1.2000e-02	0.9946	0.132350	0.000067	0.668257	0.226412	0.005388
  26	1.2500e-02	1.0331	0.215737	0.000207	2.068415	0.700798	0.016677
  27	1.3000e-02	1.0764	0.310242	0.000234	2.344204	0.794238	0.018901
  28	1.3500e-02	1.0957	0.435536	0.000311	3.107927	1.052994	0.025059
  29	1.4000e-02	1.1791	0.368827	-0.000165	-1.654732	-0.560638	-0.013342
  30	1.4500e-02	1.1823	0.529614	0.000399	3.988329	1.351282	0.032157
  31	1.5000e-02	1.2417	0.613001	0.000207	2.068415	0.700798	0.016677
  32	1.5500e-02	1.2689	0.685697	0.000180	1.803234	0.610952	0.014539
  33	1.6000e-02	1.3042	0.772933	0.000216	2.163881	0.733143	0.017447
  34	1.6500e-02	1.3540	0.852043	0.000196	1.962343	0.664860	0.015822
  35	1.7000e-02	1.4214	0.822110	-0.000074	-0.742508	-0.251569	-0.005987
  36	1.7500e-02	1.4374	1.029080	0.000513	5.133913	1.739417	0.041394
  37	1.8000e-02	1.4727	1.049179	0.000050	0.498541	0.168910	0.004020
  38	1.8500e-02	1.5192	1.138980	0.000223	2.227524	0.754706	0.017960
  39	1.9000e-02	1.5818	1.205689	0.000165	1.654732	0.560638	0.013342
  40	1.9500e-02	1.6155	1.271544	0.000163	1.633518	0.553451	0.013171
  41	2.0000e-02	1.6443	1.403680	0.000328	3.277643	1.110495	0.026427
  42	2.0500e-02	1.6796	1.407956	0.000011	0.106073	0.035938	0.000855
  43	2.1000e-02	1.7197	1.544369	0.000338	3.383715	1.146434	0.027282
  44	2.1500e-02	1.7839	1.540948	-0.000008	-0.084858	-0.028751	-0.000684
  45	2.2000e-02	1.8064	1.730813	0.000471	4.709623	1.595663	0.037973
  46	2.2500e-02	1.8433	1.782984	0.000129	1.294086	0.438448	0.010434
  47	2.3000e-02	1.8850	1.802654	0.000049	0.487934	0.165316	0.003934
  48	2.3500e-02	1.9106	1.948902	0.000363	3.627682	1.229092	0.029250
  49	2.4000e-02	1.9780	1.995941	0.000117	1.166798	0.395322	0.009408
  50	2.4500e-02	2.0165	2.008770	0.000032	0.318218	0.107815	0.002566
  51	2.5000e-02	2.0454	2.070348	0.000153	1.527445	0.517512	0.012316
  52	2.5500e-02	2.0711	2.308963	0.000592	5.918850	2.005361	0.047723
  53	2.6000e-02	2.1080	2.303404	-0.000014	-0.137894	-0.046720	-0.001112
  54	2.6500e-02	2.1577	2.391922	0.000220	2.195702	0.743924	0.017704
  55	2.7000e-02	2.2122	2.438961	0.000117	1.166798	0.395322	0.009408
  56	2.7500e-02	2.2299	2.547150	0.000268	2.683636	0.909241	0.021638
  57	2.8000e-02	2.2764	2.649352	0.000254	2.535135	0.858927	0.020440
  58	2.8500e-02	2.3374	2.706654	0.000142	1.421373	0.481574	0.011460
  59	2.9000e-02	2.3775	2.770370	0.000158	1.580481	0.535482	0.012743
  60	2.9500e-02	2.3935	2.820830	0.000125	1.251656	0.424073	0.010092
  61	3.0000e-02	2.4432	2.917473	0.000240	2.397240	0.812207	0.019329
  62	3.0500e-02	2.4914	3.002998	0.000212	2.121452	0.718767	0.017105
  63	3.1000e-02	2.5235	3.064577	0.000153	1.527445	0.517512	0.012316
  64	3.1500e-02	2.5315	3.187305	0.000304	3.044283	1.031431	0.024546
  65	3.2000e-02	2.5844	3.320296	0.000330	3.298857	1.117683	0.026598
  66	3.2500e-02	2.6678	3.319014	-0.000003	-0.031822	-0.010782	-0.000257
  67	3.3000e-02	2.6759	3.408815	0.000223	2.227524	0.754706	0.017960
  68	3.3500e-02	2.7224	3.462268	0.000133	1.325907	0.449230	0.010691
  69	3.4000e-02	2.7801	3.557201	0.000235	2.354811	0.797832	0.018987
  70	3.4500e-02	2.8042	3.620489	0.000157	1.569874	0.531888	0.012658
  71	3.5000e-02	2.8379	3.772724	0.000378	3.776184	1.279406	0.030447
  72	3.5500e-02	2.8860	3.732527	-0.000100	-0.997082	-0.337821	-0.008039
  73	3.6000e-02	2.9165	3.909136	0.000438	4.380798	1.484254	0.035322
  74	3.6500e-02	2.9534	3.960879	0.000128	1.283478	0.434854	0.010349
  75	3.7000e-02	3.0144	3.990385	0.000073	0.731901	0.247975	0.005901
  76	3.7500e-02	3.0320	4.110120	0.000297	2.970032	1.006274	0.023947
  77	3.8000e-02	3.0817	4.254658	0.000359	3.585253	1.214717	0.028907
  78	3.8500e-02	3.1475	4.184527	-0.000174	-1.739590	-0.589389	-0.014026
  79	3.9000e-02	3.1555	4.388077	0.000505	5.049055	1.710666	0.040710
  80	3.9500e-02	3.2277	4.380807	-0.000018	-0.180323	-0.061095	-0.001454
  81	4.0000e-02	3.2454	4.531759	0.000374	3.744362	1.268624	0.030190
  82	4.0500e-02	3.2807	4.645507	0.000282	2.821531	0.955960	0.022750
  83	4.1000e-02	3.3272	4.673730	0.000070	0.700079	0.237193	0.005645
  84	4.1500e-02	3.3673	4.745999	0.000179	1.792627	0.607358	0.014454
  85	4.2000e-02	3.3865	4.880273	0.000333	3.330679	1.128465	0.026855
  86	4.2500e-02	3.4298	4.920043	0.000099	0.986475	0.334227	0.007954
  87	4.3000e-02	3.4780	5.002574	0.000205	2.047201	0.693610	0.016506
  88	4.3500e-02	3.5261	5.072705	0.000174	1.739590	0.589389	0.014026
  89	4.4000e-02	3.5630	5.074415	0.000004	0.042429	0.014375	0.000342
  90	4.4500e-02	3.5855	5.247604	0.000430	4.295940	1.455504	0.034638
  91	4.5000e-02	3.6352	5.323721	0.000189	1.888092	0.639703	0.015223
  92	4.5500e-02	3.6817	5.344247	0.000051	0.509148	0.172504	0.004105
  93	4.6000e-02	3.7282	5.465265	0.000300	3.001854	1.017056	0.024204
  94	4.6500e-02	3.7635	5.500330	0.000087	0.869795	0.294695	0.007013
  95	4.7000e-02	3.7972	5.681216	0.000449	4.486870	1.520193	0.036177
  96	4.7500e-02	3.8486	5.707728	0.000066	0.657650	0.222818	0.005303
  97	4.8000e-02	3.8935	5.757333	0.000123	1.230442	0.416885	0.009921
  98	4.8500e-02	3.9256	5.854404	0.000241	2.407848	0.815801	0.019414
  99	4.9000e-02	3.9480	6.010059	0.000386	3.861042	1.308156	0.031131
 100	4.9500e-02	3.9977	5.996803	-0.000033	-0.328825	-0.111409	-0.002651
 101	5.0000e-02	4.0443	6.094302	0.000242	2.418455	0.819395	0.019500
 102	5.0500e-02	4.0892	6.095584	0.000003	0.031822	0.010782	0.000257
 103	5.1000e-02	4.1518	6.217458	0.000302	3.023069	1.024243	0.024375
 104	5.1500e-02	4.1758	6.343180	0.000312	3.118534	1.056588	0.025144
 105	5.2000e-02	4.2143	6.332917	-0.000025	-0.254574	-0.086252	-0.002053
 106	5.2500e-02	4.2560	6.486434	0.000381	3.808006	1.290187	0.030703
 107	5.3000e-02	4.2833	6.598472	0.000278	2.779102	0.941585	0.022408
 108	5.3500e-02	4.3314	6.651925	0.000133	1.325907	0.449230	0.010691
 109	5.4000e-02	4.3747	6.753272	0.000251	2.513920	0.851739	0.020269
 110	5.4500e-02	4.4100	6.849915	0.000240	2.397240	0.812207	0.019329
 111	5.5000e-02	4.4389	6.892250	0.000105	1.050119	0.355790	0.008467
 112	5.5500e-02	4.4886	6.995308	0.000256	2.556349	0.866115	0.020612
 113	5.6000e-02	4.5544	7.085965	0.000225	2.248739	0.761893	0.018131
 114	5.6500e-02	4.5544	7.097083	-0.000028	-0.275789	-0.093440	0.002224
 115	5.7000e-02	4.5929	7.251883	0.000384	3.839827	1.300969	0.030960
 116	5.7500e-02	4.6475	7.288659	0.000091	0.912224	0.309070	0.007355
 117	5.8000e-02	4.6876	7.383164	0.000234	2.344204	0.794238	0.018901
 118	5.8500e-02	4.7068	7.452867	0.000173	1.728983	0.585795	0.013941
 119	5.9000e-02	4.7549	7.526846	0.000184	1.835056	0.621734	0.014796
 120	5.9500e-02	4.7918	7.688489	0.000401	4.009544	1.358470	0.032328
 121	6.0000e-02	4.8592	7.733817	0.000112	1.124369	0.380947	0.009066
 122	6.0500e-02	4.8833	7.745790	0.000030	0.297003	0.100627	0.002395
 123	6.1000e-02	4.9090	7.898025	0.000378	3.776184	1.279406	0.030447
 124	6.1500e-02	4.9844	7.922827	0.000062	0.615221	0.208443	0.004960
 125	6.2000e-02	4.9860	8.037858	0.000285	2.853352	0.966742	0.023006
 126	6.2500e-02	5.0565	8.159732	0.000302	3.023069	1.024243	0.024375
 127	6.3000e-02	5.0886	8.141771	-0.000045	-0.445505	-0.150941	-0.003592
 128	6.3500e-02	5.1303	8.275191	0.000331	3.309465	1.121277	0.026684
 129	6.4000e-02	5.1720	8.359433	0.000209	2.089630	0.707986	0.016848
 130	6.4500e-02	5.2105	8.407754	0.000120	1.198620	0.406104	0.009664
 131	6.5000e-02	5.2571	8.508246	0.000249	2.492706	0.844552	0.020098
 132	6.5500e-02	5.2940	8.554430	0.000115	1.145584	0.388134	0.009237
 133	6.6000e-02	5.2972	8.715645	0.000400	3.998936	1.354876	0.032243
 134	6.6500e-02	5.3565	8.778078	0.000155	1.548660	0.524700	0.012487
 135	6.7000e-02	5.4127	8.893109	0.000285	2.853352	0.966742	0.023006
 136	6.7500e-02	5.4656	8.865313	-0.000069	-0.689472	-0.233599	-0.005559
 137	6.8000e-02	5.4720	8.966661	0.000251	2.513920	0.851739	0.020269
 138	6.8500e-02	5.5121	9.105639	0.000345	3.447359	1.167997	0.027796
 139	6.9000e-02	5.5779	9.180473	0.000186	1.856270	0.628921	0.014967
 140	6.9500e-02	5.5891	9.229222	0.000121	1.209227	0.409697	0.009750
 141	7.0000e-02	5.6485	9.305767	0.000190	1.898699	0.643297	0.015309
 142	7.0500e-02	5.6806	9.464844	0.000395	3.945900	1.336907	0.031815
 143	7.1000e-02	5.7127	9.482804	0.000045	0.445505	0.150941	0.003592
 144	7.1500e-02	5.7592	9.513593	0.000076	0.763723	0.258756	0.006158
 145	7.2000e-02	5.7977	9.682078	0.000418	4.179260	1.415972	0.033697
 146	7.2500e-02	5.8410	9.705169	0.000057	0.572792	0.194067	0.004618
 147	7.3000e-02	5.8715	9.846713	0.000351	3.511002	1.189560	0.028309
 148	7.3500e-02	5.9308	9.886910	0.000100	0.997082	0.337821	0.008039
 149	7.4000e-02	5.9870	9.933094	0.000115	1.145584	0.388134	0.009237
 150	7.4500e-02	6.0127	10.063947	0.000325	3.245821	1.099714	0.026171
 151	7.5000e-02	6.0431	10.146906	0.000206	2.057808	0.697204	0.016592
 152	7.5500e-02	6.0849	10.190952	0.000109	1.092548	0.370165	0.008809
 153	7.6000e-02	6.1378	10.295720	0.000260	2.598778	0.880490	0.020954
 154	7.6500e-02	6.1635	10.353449	0.000143	1.431980	0.485168	0.011546
 155	7.7000e-02	6.2052	10.482592	0.000320	3.203392	1.085339	0.025829
 156	7.7500e-02	6.2501	10.550585	0.000169	1.686554	0.571420	0.013598
 157	7.8000e-02	6.2806	10.616867	0.000164	1.644125	0.557045	0.013256
 158	7.8500e-02	6.3383	10.628412	0.000029	0.286396	0.097034	0.002309
 159	7.9000e-02	6.3512	10.746865	0.000294	2.938211	0.995493	0.023690
 160	7.9500e-02	6.4089	10.901237	0.000383	3.829220	1.297375	0.030875
 161	8.0000e-02	6.4474	10.973078	0.000178	1.782019	0.603765	0.014368
 162	8.0500e-02	6.4971	11.030808	0.000143	1.431980	0.485168	0.011546
 163	8.1000e-02	6.4811	11.180049	-0.000370	-3.701933	-1.254249	0.029848
 164	8.1500e-02	6.5533	11.226233	0.000115	1.145584	0.388134	0.009237
 165	8.2000e-02	6.5902	11.232647	0.000016	0.159109	0.053908	0.001283
 166	8.2500e-02	6.6367	11.359652	0.000315	3.150356	1.067369	0.025401
 167	8.3000e-02	6.6720	11.452874	0.000231	2.312382	0.783456	0.018644
 168	8.3500e-02	6.7458	11.537116	0.000209	2.089630	0.707986	0.016848
 169	8.4000e-02	6.7586	11.567477	0.000075	0.753115	0.255162	0.006072
 170	8.4500e-02	6.8180	11.678660	0.000276	2.757887	0.934397	0.022237
 171	8.5000e-02	6.8388	11.785566	0.000265	2.651815	0.898459	0.021381
 172	8.5500e-02	6.8902	11.783856	-0.000004	-0.042429	-0.014375	-0.000342
 173	8.6000e-02	6.9014	11.896749	0.000280	2.800316	0.948773	0.022579
 174	8.6500e-02	6.9704	11.997241	0.000249	2.492706	0.844552	0.020098
 175	8.7000e-02	6.9993	12.064378	0.000167	1.665340	0.564232	0.013427
 176	8.7500e-02	7.0362	12.158028	0.000232	2.322990	0.787050	0.018730
 177	8.8000e-02	7.0682	12.245264	0.000216	2.163881	0.733143	0.017447
 178	8.8500e-02	7.1420	12.289309	0.000109	1.092548	0.370165	0.008809
 179	8.9000e-02	7.1533	12.432991	0.000356	3.564039	1.207529	0.028736
 180	8.9500e-02	7.2110	12.469339	0.000090	0.901617	0.305476	0.007270
 181	9.0000e-02	7.2479	12.570686	0.000251	2.513920	0.851739	0.020269
 182	9.0500e-02	7.2961	12.627561	0.000141	1.410765	0.477980	0.011375
 183	9.1000e-02	7.2864	12.842228	-0.000532	-5.324844	-1.804106	0.042934
 184	9.1500e-02	7.3650	12.852064	0.000024	0.243967	0.082658	0.001967
 185	9.2000e-02	7.4051	12.920056	0.000169	1.686554	0.571420	0.013598
 186	9.2500e-02	7.4485	12.995318	0.000187	1.866877	0.632515	0.015052
 187	9.3000e-02	7.4998	13.031666	0.000090	0.901617	0.305476	0.007270
 188	9.3500e-02	7.4982	13.242913	-0.000524	-5.239986	-1.775355	0.042249
 189	9.4000e-02	7.5527	13.254459	0.000029	0.286396	0.097034	0.002309
 190	9.4500e-02	7.5993	13.380609	0.000313	3.129141	1.060182	0.025230
 191	9.5000e-02	7.6458	13.344688	-0.000089	-0.891010	-0.301882	-0.007184
 192	9.5500e-02	7.6730	13.558501	0.000530	5.303629	1.796918	0.042763
 193	9.6000e-02	7.7244	13.510179	-0.000120	-1.198620	-0.406104	-0.009664
 194	9.6500e-02	7.7597	13.665835	0.000386	3.861042	1.308156	0.031131
 195	9.7000e-02	7.7918	13.763761	0.000243	2.429062	0.822989	0.019585
 196	9.7500e-02	7.8431	13.823628	0.000149	1.485016	0.503137	0.011974
 197	9.8000e-02	7.8848	13.872378	0.000121	1.209227	0.409697	0.009750
 198	9.8500e-02	7.9185	13.990830	0.000294	2.938211	0.995493	0.023690
 199	9.9000e-02	7.9554	14.125104	0.000333	3.330679	1.128465	0.026855
 200	9.9500e-02	7.9923	14.142637	0.000043	0.434898	0.147347	0.003507
 201	1.0000e-01	8.0436	14.191386	0.000121	1.209227	0.409697	0.009750
 202	1.0050e-01	8.0773	14.338062	0.000364	3.638290	1.232686	0.029335
 203	1.0100e-01	8.1030	14.429146	0.000226	2.259346	0.765487	0.018217
 204	1.0150e-01	8.1479	14.488158	0.000146	1.463802	0.495949	0.011802
 205	1.0200e-01	8.1880	14.576249	0.000219	2.185095	0.740330	0.017618
 206	1.0250e-01	8.2442	14.651939	0.000188	1.877485	0.636109	0.015138
 207	1.0300e-01	8.2955	14.731477	0.000197	1.972950	0.668454	0.015908
 208	1.0350e-01	8.3228	14.765259	0.000084	0.837973	0.283913	0.006756
 209	1.0400e-01	8.3613	14.856343	0.000226	2.259346	0.765487	0.018217
 210	1.0450e-01	8.4142	14.943151	0.000215	2.153273	0.729549	0.017362
 211	1.0500e-01	8.4623	14.980782	0.000093	0.933439	0.316258	0.007526
 212	1.0550e-01	8.4912	15.124465	0.000356	3.564039	1.207529	0.028736
 213	1.0600e-01	8.5217	15.201437	0.000191	1.909306	0.646891	0.015395
 214	1.0650e-01	8.5762	15.252752	0.000127	1.272871	0.431260	0.010263
 215	1.0700e-01	8.6019	15.412256	0.000396	3.956507	1.340501	0.031901
 216	1.0750e-01	8.6099	15.500347	0.000219	2.185095	0.740330	0.017618
 217	1.0800e-01	8.6853	15.551662	0.000127	1.272871	0.431260	0.010263
 218	1.0850e-01	8.7367	15.659424	0.000267	2.673029	0.905647	0.021552
 219	1.0900e-01	8.7639	15.745376	0.000213	2.132059	0.722361	0.017191
 220	1.0950e-01	8.8137	15.725278	-0.000050	-0.498541	-0.168910	-0.004020
 221	1.1000e-01	8.8409	15.962610	0.000589	5.887028	1.994579	0.047466
 222	1.1050e-01	8.8794	15.962182	-0.000001	-0.010607	-0.003594	-0.000086
 223	1.1100e-01	8.9340	15.992116	0.000074	0.742508	0.251569	0.005987
 224	1.1150e-01	8.9596	16.124680	0.000329	3.288250	1.114089	0.026513
 225	1.1200e-01	8.9869	16.231159	0.000264	2.641207	0.894865	0.021296
 226	1.1250e-01	9.0543	16.214909	-0.000040	-0.403076	-0.136566	-0.003250
 227	1.1300e-01	9.1104	16.326947	0.000278	2.779102	0.941585	0.022408
 228	1.1350e-01	9.1281	16.486023	0.000395	3.945900	1.336907	0.031815
 229	1.1400e-01	9.1714	16.490300	0.000011	0.106073	0.035938	0.000855
 230	1.1450e-01	9.2243	16.611745	0.000301	3.012461	1.020650	0.024289
 231	1.1500e-01	9.2484	16.799473	0.000466	4.656586	1.577694	0.037545
 232	1.1550e-01	9.2901	16.794769	-0.000012	-0.116680	-0.039532	-0.000941
 233	1.1600e-01	9.3190	16.869603	0.000186	1.856270	0.628921	0.014967
 234	1.1650e-01	9.3591	16.902103	0.000081	0.806152	0.273132	0.006500
 235	1.1700e-01	9.4345	16.960260	0.000144	1.442587	0.488762	0.011631
 236	1.1750e-01	9.4377	17.110356	0.000372	3.723148	1.261437	0.030019
 237	1.1800e-01	9.5035	17.184763	0.000185	1.845663	0.625328	0.014881
 238	1.1850e-01	9.5131	17.307492	0.000304	3.044283	1.031431	0.024546
 239	1.1900e-01	9.5773	17.375056	0.000168	1.675947	0.567826	0.013513
 240	1.1950e-01	9.6238	17.460581	0.000212	2.121452	0.718767	0.017105
 241	1.2000e-01	9.6414	17.547389	0.000215	2.153273	0.729549	0.017362
 242	1.2050e-01	9.7008	17.552521	0.000013	0.127287	0.043126	0.001026
 243	1.2100e-01	9.7345	17.665414	0.000280	2.800316	0.948773	0.022579
 244	1.2150e-01	9.7521	17.808668	0.000355	3.553432	1.203935	0.028651
 245	1.2200e-01	9.8083	17.848438	0.000099	0.986475	0.334227	0.007954
 246	1.2250e-01	9.8179	18.035737	0.000465	4.645979	1.574100	0.037460
 247	1.2300e-01	9.8901	18.015639	-0.000050	-0.498541	-0.168910	-0.004020
 248	1.2350e-01	9.9382	18.097315	0.000203	2.025986	0.686423	0.016335
 249	1.2400e-01	9.9591	18.185406	0.000219	2.185095	0.740330	0.017618
 250	1.2450e-01	10.0040	18.314549	0.000320	3.203392	1.085339	0.025829
 251	1.2500e-01	10.0457	18.304286	-0.000025	-0.254574	-0.086252	-0.002053
 252	1.2550e-01	10.1035	18.445402	0.000350	3.500395	1.185966	0.028223
 253	1.2600e-01	10.1211	18.458231	0.000032	0.318218	0.107815	0.002566
 254	1.2650e-01	10.1548	18.604907	0.000364	3.638290	1.232686	0.029335
 255	1.2700e-01	10.1933	18.723786	0.000295	2.948818	0.999087	0.023776
 256	1.2750e-01	10.2398	18.791351	0.000168	1.675947	0.567826	0.013513
 257	1.2800e-01	10.2687	18.850791	0.000147	1.474409	0.499543	0.011888
 258	1.2850e-01	10.3297	18.961974	0.000276	2.757887	0.934397	0.022237
 259	1.2900e-01	10.3746	19.013716	0.000128	1.283478	0.434854	0.010349
 260	1.2950e-01	10.4307	19.061183	0.000118	1.177406	0.398916	0.009493
 261	1.3000e-01	10.4500	19.102662	0.000103	1.028904	0.348602	0.008296
 262	1.3050e-01	10.4821	19.327166	0.000557	5.568811	1.886764	0.044901
 263	1.3100e-01	10.5286	19.371211	0.000109	1.092548	0.370165	0.008809
 264	1.3150e-01	10.5751	19.394303	0.000057	0.572792	0.194067	0.004618
 265	1.3200e-01	10.6216	19.488808	0.000234	2.344204	0.794238	0.018901
 266	1.3250e-01	10.6473	19.607688	0.000295	2.948818	0.999087	0.023776
 267	1.3300e-01	10.6890	19.660286	0.000130	1.304693	0.442042	0.010520
 268	1.3350e-01	10.7195	19.767620	0.000266	2.662422	0.902053	0.021467
 269	1.3400e-01	10.7564	19.866829	0.000246	2.460884	0.833770	0.019842
 270	1.3450e-01	10.8173	19.903605	0.000091	0.912224	0.309070	0.007355
 271	1.3500e-01	10.8607	19.966466	0.000156	1.559267	0.528294	0.012572
 272	1.3550e-01	10.8847	20.031892	0.000162	1.622911	0.549857	0.013085
 273	1.3600e-01	10.9409	20.162318	0.000324	3.235214	1.096120	0.026085
 274	1.3650e-01	10.9665	20.238863	0.000190	1.898699	0.643297	0.015309
 275	1.3700e-01	11.0211	20.345769	0.000265	2.651815	0.898459	0.021381
 276	1.3750e-01	11.0339	20.429156	0.000207	2.068415	0.700798	0.016677
 277	1.3800e-01	11.1093	20.504418	0.000187	1.866877	0.632515	0.015052
 278	1.3850e-01	11.1205	20.573693	0.000172	1.718376	0.582201	0.013855
 279	1.3900e-01	11.1462	20.663495	0.000223	2.227524	0.754706	0.017960
 280	1.3950e-01	11.2056	20.729777	0.000164	1.644125	0.557045	0.013256
 281	1.4000e-01	11.2569	20.851222	0.000301	3.012461	1.020650	0.024289
 282	1.4050e-01	11.2778	20.949576	0.000244	2.439669	0.826582	0.019671
 283	1.4100e-01	11.3628	20.963260	0.000034	0.339432	0.115003	0.002737
 284	1.4150e-01	11.3516	21.070594	-0.000266	-2.662422	-0.902053	0.021467
 285	1.4200e-01	11.4045	21.153553	0.000206	2.057808	0.697204	0.016592
 286	1.4250e-01	11.4542	21.224111	0.000175	1.750198	0.592983	0.014112
 287	1.4300e-01	11.4799	21.378912	0.000384	3.839827	1.300969	0.030960
 288	1.4350e-01	11.5168	21.390458	0.000029	0.286396	0.097034	0.002309
 289	1.4400e-01	11.5617	21.522594	0.000328	3.277643	1.110495	0.026427
 290	1.4450e-01	11.6050	21.546113	0.000058	0.583399	0.197661	0.004704
 291	1.4500e-01	11.6467	21.702197	0.000387	3.871649	1.311750	0.031217
 292	1.4550e-01	11.6804	21.782590	0.000199	1.994165	0.675641	0.016079
 293	1.4600e-01	11.7285	21.776176	-0.000016	-0.159109	-0.053908	-0.001283
 294	1.4650e-01	11.7654	21.891634	0.000286	2.863960	0.970336	0.023092
 295	1.4700e-01	11.7991	22.022060	0.000324	3.235214	1.096120	0.026085
 296	1.4750e-01	11.8473	22.046435	0.000060	0.604614	0.204849	0.004875
 297	1.4800e-01	11.8826	22.149493	0.000256	2.556349	0.866115	0.020612
 298	1.4850e-01	11.9403	22.230741	0.000202	2.015379	0.682829	0.016250
 299	1.4900e-01	11.9563	22.352187	0.000301	3.012461	1.020650	0.024289
 300	1.4950e-01	12.0029	22.373141	0.000052	0.519756	0.176098	0.004191
 301	1.5000e-01	12.0510	22.472777	0.000247	2.471491	0.837364	0.019927
 302	1.5050e-01	12.0606	22.601065	0.000318	3.182177	1.078151	0.025658
 303	1.5100e-01	12.1296	22.659222	0.000144	1.442587	0.488762	0.011631
 304	1.5150e-01	12.1456	22.749451	0.000224	2.238131	0.758299	0.018046
 305	1.5200e-01	12.2018	22.830700	0.000202	2.015379	0.682829	0.016250
 306	1.5250e-01	12.2451	22.947014	0.000289	2.885174	0.977523	0.023263
 307	1.5300e-01	12.2916	22.925632	-0.000053	-0.530363	-0.179692	-0.004276
 308	1.5350e-01	12.3285	22.984217	0.000145	1.453194	0.492356	0.011717
 309	1.5400e-01	12.3558	23.182635	0.000492	4.921768	1.667540	0.039684
 310	1.5450e-01	12.3927	23.287831	0.000261	2.609386	0.884084	0.021039
 311	1.5500e-01	12.4601	23.291252	0.000008	0.084858	0.028751	0.000684
 312	1.5550e-01	12.5098	23.333159	0.000104	1.039511	0.352196	0.008381
 313	1.5600e-01	12.5258	23.440493	0.000266	2.662422	0.902053	0.021467
 314	1.5650e-01	12.5579	23.571774	0.000326	3.256428	1.103308	0.026256
 315	1.5700e-01	12.5884	23.620523	0.000121	1.209227	0.409697	0.009750
 316	1.5750e-01	12.6365	23.738120	0.000292	2.916996	0.988305	0.023519
 317	1.5800e-01	12.6766	23.814238	0.000189	1.888092	0.639703	0.015223
 318	1.5850e-01	12.7184	23.910453	0.000239	2.386633	0.808613	0.019243
 319	1.5900e-01	12.7520	23.983150	0.000180	1.803234	0.610952	0.014539
 320	1.5950e-01	12.7857	24.100747	0.000292	2.916996	0.988305	0.023519
 321	1.6000e-01	12.8274	24.112720	0.000030	0.297003	0.100627	0.002395
 322	1.6050e-01	12.9077	24.161042	0.000120	1.198620	0.406104	0.009664
 323	1.6100e-01	12.9109	24.325250	0.000407	4.073187	1.380033	0.032842
 324	1.6150e-01	12.9333	24.516826	0.000475	4.752052	1.610039	0.038315
 325	1.6200e-01	12.9991	24.356894	-0.000397	-3.967115	-1.344095	-0.031986
 326	1.6250e-01	13.0344	24.580115	0.000554	5.536989	1.875983	0.044644
 327	1.6300e-01	13.0841	24.576694	-0.000008	-0.084858	-0.028751	-0.000684
 328	1.6350e-01	13.1194	24.642976	0.000164	1.644125	0.557045	0.013256
 329	1.6400e-01	13.1290	24.850801	0.000516	5.155128	1.746604	0.041565
 330	1.6450e-01	13.1996	24.834124	-0.000041	-0.413683	-0.140160	-0.003335
 331	1.6500e-01	13.2221	24.983365	0.000370	3.701933	1.254249	0.029848
 332	1.6550e-01	13.2750	25.000470	0.000042	0.424290	0.143753	0.003421
 333	1.6600e-01	13.3151	25.126192	0.000312	3.118534	1.056588	0.025144
 334	1.6650e-01	13.3857	25.190336	0.000159	1.591089	0.539075	0.012829
 335	1.6700e-01	13.4114	25.228822	0.000095	0.954653	0.323445	0.007697
 336	1.6750e-01	13.4563	25.371221	0.000353	3.532217	1.196748	0.028480
 337	1.6800e-01	13.5028	25.395596	0.000060	0.604614	0.204849	0.004875
 338	1.6850e-01	13.5477	25.449904	0.000135	1.347122	0.456417	0.010862
 339	1.6900e-01	13.5638	25.546120	0.000239	2.386633	0.808613	0.019243
 340	1.6950e-01	13.6103	25.685954	0.000347	3.468573	1.175184	0.027967
 341	1.7000e-01	13.6488	25.728288	0.000105	1.050119	0.355790	0.008467
 342	1.7050e-01	13.6889	25.846313	0.000293	2.927603	0.991899	0.023605
 343	1.7100e-01	13.7210	25.934831	0.000220	2.195702	0.743924	0.017704
 344	1.7150e-01	13.7499	26.063974	0.000320	3.203392	1.085339	0.025829
 345	1.7200e-01	13.8157	26.084500	0.000051	0.509148	0.172504	0.004105
 346	1.7250e-01	13.8526	26.158052	0.000182	1.824448	0.618140	0.014710
 347	1.7300e-01	13.8894	26.249136	0.000226	2.259346	0.765487	0.018217
 348	1.7350e-01	13.9055	26.310286	0.000152	1.516838	0.513919	0.012230
 349	1.7400e-01	13.9568	26.409496	0.000246	2.460884	0.833770	0.019842
 350	1.7450e-01	14.0114	26.441140	0.000078	0.784937	0.265944	0.006329
 351	1.7500e-01	14.0451	26.568145	0.000315	3.150356	1.067369	0.025401
 352	1.7550e-01	14.0723	26.669919	0.000252	2.524527	0.855333	0.020355
 353	1.7600e-01	14.1285	26.681465	0.000029	0.286396	0.097034	0.002309
 354	1.7650e-01	14.1541	26.840969	0.000396	3.956507	1.340501	0.031901
 355	1.7700e-01	14.2279	26.899554	0.000145	1.453194	0.492356	0.011717
 356	1.7750e-01	14.2536	26.981231	0.000203	2.025986	0.686423	0.016335
 357	1.7800e-01	14.2632	27.100966	0.000297	2.970032	1.006274	0.023947
 358	1.7850e-01	14.3098	27.164254	0.000157	1.569874	0.531888	0.012658
 359	1.7900e-01	14.3563	27.224977	0.000151	1.506231	0.510325	0.012145
 360	1.7950e-01	14.4156	27.266029	0.000102	1.018297	0.345008	0.008210
 361	1.8000e-01	14.4397	27.393461	0.000316	3.160963	1.070963	0.025486
 362	1.8050e-01	14.4846	27.437079	0.000108	1.081940	0.366571	0.008724
 363	1.8100e-01	14.5199	27.569643	0.000329	3.288250	1.114089	0.026513
 364	1.8150e-01	14.5745	27.631649	0.000154	1.538052	0.521106	0.012401
 365	1.8200e-01	14.6001	27.774048	0.000353	3.532217	1.196748	0.028480
 366	1.8250e-01	14.6354	27.806120	0.000080	0.795544	0.269538	0.006414
 367	1.8300e-01	14.6771	27.942105	0.000337	3.373108	1.142840	0.027197
 368	1.8350e-01	14.7012	27.973321	0.000077	0.774330	0.262350	0.006243
 369	1.8400e-01	14.7605	28.104602	0.000326	3.256428	1.103308	0.026256
 370	1.8450e-01	14.8135	28.101609	-0.000007	-0.074251	-0.025157	-0.000599
 371	1.8500e-01	14.8343	28.235028	0.000331	3.309465	1.121277	0.026684
 372	1.8550e-01	14.8728	28.357756	0.000304	3.044283	1.031431	0.024546
 373	1.8600e-01	14.9194	28.366736	0.000022	0.222752	0.075471	0.001796
 374	1.8650e-01	14.9595	28.406506	0.000099	0.986475	0.334227	0.007954
 375	1.8700e-01	14.9755	28.598937	0.000477	4.773266	1.617226	0.038486
 376	1.8750e-01	15.0413	28.660515	0.000153	1.527445	0.517512	0.012316
 377	1.8800e-01	15.0878	28.698574	0.000094	0.944046	0.319851	0.007612
 378	1.8850e-01	15.1087	28.793079	0.000234	2.344204	0.794238	0.018901
 379	1.8900e-01	15.1664	28.877749	0.000210	2.100237	0.711580	0.016934
 380	1.8950e-01	15.1857	28.918373	0.000101	1.007690	0.341414	0.008125
 381	1.9000e-01	15.2386	29.021858	0.000257	2.566956	0.869708	0.020697
 382	1.9050e-01	15.2755	29.094127	0.000179	1.792627	0.607358	0.014454
 383	1.9100e-01	15.3236	29.236099	0.000352	3.521610	1.193154	0.028394
 384	1.9150e-01	15.3669	29.298532	0.000155	1.548660	0.524700	0.012487
 385	1.9200e-01	15.3846	29.353268	0.000136	1.357729	0.460011	0.010947
 386	1.9250e-01	15.4311	29.472575	0.000296	2.959425	1.002680	0.023861
 387	1.9300e-01	15.4744	29.553397	0.000200	2.004772	0.679235	0.016164
 388	1.9350e-01	15.5210	29.606422	0.000132	1.315300	0.445636	0.010605
 389	1.9400e-01	15.5659	29.649185	0.000106	1.060726	0.359384	0.008553
 390	1.9450e-01	15.6140	29.828787	0.000446	4.455048	1.509411	0.035921
 391	1.9500e-01	15.6493	29.836484	0.000019	0.190931	0.064689	0.001539
 392	1.9550e-01	15.6926	29.870694	0.000085	0.848581	0.287507	0.006842
 393	1.9600e-01	15.7135	30.035758	0.000409	4.094402	1.387221	0.033013
 394	1.9650e-01	15.7520	30.077238	0.000103	1.028904	0.348602	0.008296
 395	1.9700e-01	15.8209	30.188848	0.000277	2.768494	0.937991	0.022322
 396	1.9750e-01	15.8450	30.219209	0.000075	0.753115	0.255162	0.006072
 397	1.9800e-01	15.8723	30.394108	0.000434	4.338369	1.469879	0.034980
 398	1.9850e-01	15.9236	30.411213	0.000042	0.424290	0.143753	0.003421
 399	1.9900e-01	15.9621	30.466377	0.000137	1.368336	0.463605	0.011033
 400	1.9950e-01	15.9926	30.604499	0.000343	3.426144	1.160809	0.027625
 401	2.0000e-01	16.0568	30.654532	0.000124	1.241049	0.420479	0.010006
 402	2.0050e-01	16.0840	30.749892	0.000237	2.365419	0.801426	0.019072
 403	2.0100e-01	16.1017	30.870910	0.000300	3.001854	1.017056	0.024204
 404	2.0150e-01	16.1530	30.907258	0.000090	0.901617	0.305476	0.007270
 405	2.0200e-01	16.1771	31.102255	0.000484	4.836910	1.638789	0.038999
 406	2.0250e-01	16.2396	31.059065	-0.000107	-1.071333	-0.362977	-0.008638
 407	2.0300e-01	16.2878	31.112946	0.000134	1.336515	0.452823	0.010776
 408	2.0350e-01	16.3183	31.276726	0.000406	4.062580	1.376439	0.032756
 409	2.0400e-01	16.3584	31.271595	-0.000013	-0.127287	-0.043126	-0.001026
 410	2.0450e-01	16.4097	31.458040	0.000462	4.624765	1.566913	0.037289
 411	2.0500e-01	16.4370	31.460178	0.000005	0.053036	0.017969	0.000428
 412	2.0550e-01	16.5124	31.485408	0.000063	0.625828	0.212036	0.005046
 413	2.0600e-01	16.5092	31.660306	-0.000434	-4.338369	-1.469879	0.034980
 414	2.0650e-01	16.5557	31.802278	0.000352	3.521610	1.193154	0.028394
 415	2.0700e-01	16.5958	31.812113	0.000024	0.243967	0.082658	0.001967
 416	2.0750e-01	16.6648	31.807409	-0.000012	-0.116680	-0.039532	-0.000941
 417	2.0800e-01	16.7049	31.922013	0.000284	2.842745	0.963148	0.022921
 418	2.0850e-01	16.7241	32.018229	0.000239	2.386633	0.808613	0.019243
 419	2.0900e-01	16.7530	32.091780	0.000182	1.824448	0.618140	0.014710
 420	2.0950e-01	16.7995	32.186285	0.000234	2.344204	0.794238	0.018901
 421	2.1000e-01	16.8348	32.297040	0.000275	2.747280	0.930804	0.022151
 422	2.1050e-01	16.8701	32.422762	0.000312	3.118534	1.056588	0.025144
 423	2.1100e-01	16.9134	32.483057	0.000150	1.495623	0.506731	0.012059
 424	2.1150e-01	16.9728	32.546773	0.000158	1.580481	0.535482	0.012743
 425	2.1200e-01	16.9985	32.638285	0.000227	2.269953	0.769081	0.018302
 426	2.1250e-01	17.0450	32.710554	0.000179	1.792627	0.607358	0.014454
 427	2.1300e-01	17.0883	32.797790	0.000216	2.163881	0.733143	0.017447
 428	2.1350e-01	17.1380	32.778546	-0.000048	-0.477327	-0.161723	-0.003849
 429	2.1400e-01	17.1589	32.939761	0.000400	3.998936	1.354876	0.032243
 430	2.1450e-01	17.1990	33.016306	0.000190	1.898699	0.643297	0.015309
 431	2.1500e-01	17.2487	33.133048	0.000290	2.895781	0.981117	0.023348
 432	2.1550e-01	17.2680	33.165975	0.000082	0.816759	0.276725	0.006585
 433	2.1600e-01	17.3161	33.272881	0.000265	2.651815	0.898459	0.021381
 434	2.1650e-01	17.4043	33.317354	0.000110	1.103155	0.373759	0.008895
 435	2.1700e-01	17.3995	33.416136	-0.000245	-2.450277	-0.830176	0.019756
 436	2.1750e-01	17.4252	33.467878	0.000128	1.283478	0.434854	0.010349
 437	2.1800e-01	17.4765	33.588896	0.000300	3.001854	1.017056	0.024204
 438	2.1850e-01	17.5086	33.689816	0.000250	2.503313	0.848145	0.020184
 439	2.1900e-01	17.5631	33.744979	0.000137	1.368336	0.463605	0.011033
 440	2.1950e-01	17.6032	33.837774	0.000230	2.301775	0.779862	0.018559
 441	2.2000e-01	17.6466	33.897214	0.000147	1.474409	0.499543	0.011888
 442	2.2050e-01	17.6979	33.926720	0.000073	0.731901	0.247975	0.005901
 443	2.2100e-01	17.7220	34.035765	0.000270	2.704851	0.916428	0.021809
 444	2.2150e-01	17.7637	34.152934	0.000291	2.906389	0.984711	0.023434
 445	2.2200e-01	17.8102	34.181585	0.000071	0.710686	0.240787	0.005730
 446	2.2250e-01	17.8471	34.325695	0.000357	3.574646	1.211123	0.028822
 447	2.2300e-01	17.8952	34.346221	0.000051	0.509148	0.172504	0.004105
 448	2.2350e-01	17.9321	34.430890	0.000210	2.100237	0.711580	0.016934
 449	2.2400e-01	17.9433	34.534803	0.000258	2.577564	0.873302	0.020783
 450	2.2450e-01	17.9947	34.687466	0.000379	3.786791	1.283000	0.030532
 451	2.2500e-01	18.0396	34.746478	0.000146	1.463802	0.495949	0.011802
 452	2.2550e-01	18.0637	34.815326	0.000171	1.707769	0.578608	0.013770
 453	2.2600e-01	18.1326	34.915817	0.000249	2.492706	0.844552	0.020098
 454	2.2650e-01	18.1615	34.988086	0.000179	1.792627	0.607358	0.014454
 455	2.2700e-01	18.2048	35.065059	0.000191	1.909306	0.646891	0.015395
 456	2.2750e-01	18.2385	35.128775	0.000158	1.580481	0.535482	0.012743
 457	2.2800e-01	18.3011	35.254069	0.000311	3.107927	1.052994	0.025059
 458	2.2850e-01	18.3380	35.287851	0.000084	0.837973	0.283913	0.006756
 459	2.2900e-01	18.3620	35.361403	0.000182	1.824448	0.618140	0.014710
 460	2.2950e-01	18.3909	35.505513	0.000357	3.574646	1.211123	0.028822
 461	2.3000e-01	18.4439	35.527749	0.000055	0.551577	0.186879	0.004447
 462	2.3050e-01	18.4567	35.648767	0.000300	3.001854	1.017056	0.024204
 463	2.3100e-01	18.5209	35.638504	-0.000025	-0.254574	-0.086252	-0.002053
 464	2.3150e-01	18.5497	35.789028	0.000373	3.733755	1.265030	0.030105
 465	2.3200e-01	18.6091	35.833074	0.000109	1.092548	0.370165	0.008809
 466	2.3250e-01	18.6460	35.935276	0.000254	2.535135	0.858927	0.020440
 467	2.3300e-01	18.6877	36.044748	0.000272	2.715458	0.920022	0.021894
 468	2.3350e-01	18.7406	36.069123	0.000060	0.604614	0.204849	0.004875
 469	2.3400e-01	18.7743	36.205535	0.000338	3.383715	1.146434	0.027282
 470	2.3450e-01	18.8016	36.281225	0.000188	1.877485	0.636109	0.015138
 471	2.3500e-01	18.8610	36.322277	0.000102	1.018297	0.345008	0.008210
 472	2.3550e-01	18.8914	36.388987	0.000165	1.654732	0.560638	0.013342
 473	2.3600e-01	18.9123	36.479215	0.000224	2.238131	0.758299	0.018046
 474	2.3650e-01	18.9556	36.530103	0.000126	1.262264	0.427667	0.010177
 475	2.3700e-01	18.9909	36.706712	0.000438	4.380798	1.484254	0.035322
 476	2.3750e-01	19.0358	36.696022	-0.000027	-0.265181	-0.089846	-0.002138
 477	2.3800e-01	19.0615	36.856381	0.000398	3.977722	1.347689	0.032072
 478	2.3850e-01	19.1305	36.893584	0.000092	0.922831	0.312664	0.007441
 479	2.3900e-01	19.1433	37.017596	0.000308	3.076105	1.042213	0.024802
 480	2.3950e-01	19.1979	37.104831	0.000216	2.163881	0.733143	0.017447
 481	2.4000e-01	19.2396	37.118515	0.000034	0.339432	0.115003	0.002737
 482	2.4050e-01	19.2749	37.183087	0.000160	1.601696	0.542669	0.012914
 483	2.4100e-01	19.3342	37.282296	0.000246	2.460884	0.833770	0.019842
 484	2.4150e-01	19.3615	37.354564	0.000179	1.792627	0.607358	0.014454
 485	2.4200e-01	19.3920	37.422129	0.000168	1.675947	0.567826	0.013513
 486	2.4250e-01	19.4000	37.652619	0.000572	5.717312	1.937078	0.046098
 487	2.4300e-01	19.4994	37.585482	-0.000167	-1.665340	-0.564232	-0.013427
 488	2.4350e-01	19.5123	37.694099	0.000269	2.694244	0.912834	0.021723
 489	2.4400e-01	19.5588	37.769789	0.000188	1.877485	0.636109	0.015138
 490	2.4450e-01	19.5973	37.848044	0.000194	1.941128	0.657672	0.015651
 491	2.4500e-01	19.6438	37.948108	0.000248	2.482098	0.840958	0.020013
 492	2.4550e-01	19.6984	37.990871	0.000106	1.060726	0.359384	0.008553
 493	2.4600e-01	19.7256	38.061857	0.000176	1.760805	0.596577	0.014197
 494	2.4650e-01	19.7706	38.136691	0.000186	1.856270	0.628921	0.014967
 495	2.4700e-01	19.8219	38.189717	0.000132	1.315300	0.445636	0.010605
 496	2.4750e-01	19.8379	38.368036	0.000442	4.423227	1.498630	0.035664
 497	2.4800e-01	19.8877	38.386424	0.000046	0.456112	0.154535	0.003678
 498	2.4850e-01	19.9133	38.473232	0.000215	2.153273	0.729549	0.017362
 499	2.4900e-01	19.9903	38.544218	0.000176	1.760805	0.596577	0.014197
 500	2.4950e-01	19.9968	38.641289	0.000241	2.407848	0.815801	0.019414
 501	2.5000e-01	20.0385	38.729807	0.000220	2.195702	0.743924	0.017704
 502	2.5050e-01	19.9871	38.639578	0.000224	2.238131	0.758299	-0.018046
 503	2.5100e-01	19.9374	38.620763	0.000047	0.466719	0.158129	-0.003763
 504	2.5150e-01	19.8973	38.572441	0.000120	1.198620	0.406104	-0.009664
 505	2.5200e-01	19.8476	38.485206	0.000216	2.163881	0.733143	-0.017447
 506	2.5250e-01	19.8379	38.406950	0.000194	1.941128	0.657672	-0.015651
 507	2.5300e-01	19.7882	38.336820	0.000174	1.739590	0.589389	-0.014026
 508	2.5350e-01	19.7497	38.288926	0.000119	1.188013	0.402510	-0.009579
 509	2.5400e-01	19.7016	38.226492	0.000155	1.548660	0.524700	-0.012487
 510	2.5450e-01	19.6519	38.194848	0.000078	0.784937	0.265944	-0.006329
 511	2.5500e-01	19.6358	38.041331	0.000381	3.808006	1.290187	-0.030703
 512	2.5550e-01	19.5957	38.009686	0.000078	0.784937	0.265944	-0.006329
 513	2.5600e-01	19.5347	37.961365	0.000120	1.198620	0.406104	-0.009664
 514	2.5650e-01	19.5075	37.902780	0.000145	1.453194	0.492356	-0.011717
 515	2.5700e-01	19.4257	37.899359	0.000008	0.084858	0.028751	-0.000684
 516	2.5750e-01	19.4257	37.700941	0.000492	4.921768	1.667540	-0.039684
 517	2.5800e-01	19.3984	37.609429	0.000227	2.269953	0.769081	-0.018302
 518	2.5850e-01	19.3599	37.557686	0.000128	1.283478	0.434854	-0.010349
 519	2.5900e-01	19.3053	37.515352	0.000105	1.050119	0.355790	-0.008467
 520	2.5950e-01	19.2572	37.508937	0.000016	0.159109	0.053908	-0.001283
 521	2.6000e-01	19.2155	37.397755	0.000276	2.757887	0.934397	-0.022237
 522	2.6050e-01	19.1690	37.406735	-0.000022	-0.222752	-0.075471	0.001796
 523	2.6100e-01	19.1096	37.278447	0.000318	3.182177	1.078151	-0.025658
 524	2.6150e-01	19.1192	37.205323	-0.000181	-1.813841	-0.614546	-0.014625
 525	2.6200e-01	19.0631	37.116377	0.000221	2.206310	0.747518	-0.017789
 526	2.6250e-01	19.0230	37.083878	0.000081	0.806152	0.273132	-0.006500
 527	2.6300e-01	19.0134	36.936347	0.000366	3.659504	1.239874	-0.029506
 528	2.6350e-01	18.9572	36.901709	0.000086	0.859188	0.291101	-0.006928
 529	2.6400e-01	18.8914	36.856809	0.000111	1.113762	0.377353	-0.008980
 530	2.6450e-01	18.8690	36.806349	0.000125	1.251656	0.424073	-0.010092
 531	2.6500e-01	18.8417	36.679772	0.000314	3.139748	1.063776	-0.025315
 532	2.6550e-01	18.7791	36.690462	-0.000027	-0.265181	-0.089846	0.002138
 533	2.6600e-01	18.7310	36.602799	0.000217	2.174488	0.736736	-0.017533
 534	2.6650e-01	18.7134	36.549774	0.000132	1.315300	0.445636	-0.010605
 535	2.6700e-01	18.6524	36.427045	0.000304	3.044283	1.031431	-0.024546
 536	2.6750e-01	18.6011	36.354777	0.000179	1.792627	0.607358	-0.014454
 537	2.6800e-01	18.6027	36.335961	-0.000047	-0.466719	-0.158129	-0.003763
 538	2.6850e-01	18.5530	36.254285	0.000203	2.025986	0.686423	-0.016335
 539	2.6900e-01	18.5241	36.139681	0.000284	2.842745	0.963148	-0.022921
 540	2.6950e-01	18.4711	36.076392	0.000157	1.569874	0.531888	-0.012658
 541	2.7000e-01	18.4214	36.011393	0.000161	1.612303	0.546263	-0.013000
 542	2.7050e-01	18.3797	35.923303	0.000219	2.185095	0.740330	-0.017618
 543	2.7100e-01	18.3460	35.866428	0.000141	1.410765	0.477980	-0.011375
 544	2.7150e-01	18.2963	35.827087	0.000098	0.975868	0.330633	-0.007868
 545	2.7200e-01	18.2706	35.746693	0.000199	1.994165	0.675641	-0.016079
 546	2.7250e-01	18.2145	35.678273	0.000170	1.697161	0.575014	-0.013684
 547	2.7300e-01	18.1679	35.588044	0.000224	2.238131	0.758299	-0.018046
 548	2.7350e-01	18.1599	35.480710	0.000266	2.662422	0.902053	-0.021467
 549	2.7400e-01	18.1070	35.431106	0.000123	1.230442	0.416885	-0.009921
 550	2.7450e-01	18.0685	35.369528	0.000153	1.527445	0.517512	-0.012316
 551	2.7500e-01	18.0123	35.352423	0.000042	0.424290	0.143753	-0.003421
 552	2.7550e-01	17.9947	35.184366	0.000417	4.168652	1.412378	-0.033611
 553	2.7600e-01	17.9305	35.165123	0.000048	0.477327	0.161723	-0.003849
 554	2.7650e-01	17.8936	35.090289	0.000186	1.856270	0.628921	-0.014967
 555	2.7700e-01	17.8663	34.973547	0.000290	2.895781	0.981117	-0.023348
 556	2.7750e-01	17.8150	34.964567	0.000022	0.222752	0.075471	-0.001796
 557	2.7800e-01	17.7829	34.855522	0.000270	2.704851	0.916428	-0.021809
 558	2.7850e-01	17.7653	34.761445	0.000233	2.333597	0.790644	-0.018816
 559	2.7900e-01	17.6835	34.726379	0.000087	0.869795	0.294695	-0.007013
 560	2.7950e-01	17.6754	34.656677	0.000173	1.728983	0.585795	-0.013941
 561	2.8000e-01	17.6385	34.553191	0.000257	2.566956	0.869708	-0.020697
 562	2.8050e-01	17.5824	34.471087	0.000204	2.036594	0.690017	-0.016421
 563	2.8100e-01	17.5327	34.460397	0.000027	0.265181	0.089846	-0.002138
 564	2.8150e-01	17.4974	34.380431	0.000198	1.983557	0.672047	-0.015993
 565	2.8200e-01	17.4605	34.274807	0.000262	2.619993	0.887678	-0.021125
 566	2.8250e-01	17.4011	34.229907	0.000111	1.113762	0.377353	-0.008980
 567	2.8300e-01	17.3867	34.166190	0.000158	1.580481	0.535482	-0.012743
 568	2.8350e-01	17.3450	34.082376	0.000208	2.079023	0.704392	-0.016763
 569	2.8400e-01	17.2904	34.008824	0.000182	1.824448	0.618140	-0.014710
 570	2.8450e-01	17.2631	33.905339	0.000257	2.566956	0.869708	-0.020697
 571	2.8500e-01	17.2118	33.863004	0.000105	1.050119	0.355790	-0.008467
 572	2.8550e-01	17.1765	33.811261	0.000128	1.283478	0.434854	-0.010349
 573	2.8600e-01	17.1428	33.737282	0.000184	1.835056	0.621734	-0.014796
 574	2.8650e-01	17.1107	33.615409	0.000302	3.023069	1.024243	-0.024375
 575	2.8700e-01	17.0466	33.550838	0.000160	1.601696	0.542669	-0.012914
 576	2.8750e-01	17.0113	33.566660	-0.000039	-0.392469	-0.132972	0.003164
 577	2.8800e-01	16.9776	33.428537	0.000343	3.426144	1.160809	-0.027625
 578	2.8850e-01	16.9439	33.330183	0.000244	2.439669	0.826582	-0.019671
 579	2.8900e-01	16.8942	33.311367	0.000047	0.466719	0.158129	-0.003763
 580	2.8950e-01	16.8829	33.157850	0.000381	3.808006	1.290187	-0.030703
 581	2.9000e-01	16.8108	33.064200	0.000232	2.322990	0.787050	-0.018730
 582	2.9050e-01	16.8011	32.995352	0.000171	1.707769	0.578608	-0.013770
 583	2.9100e-01	16.7674	33.039398	-0.000109	-1.092548	-0.370165	0.008809
 584	2.9150e-01	16.7097	32.838842	0.000497	4.974804	1.685509	-0.040111
 585	2.9200e-01	16.6616	32.782395	0.000140	1.400158	0.474386	-0.011289
 586	2.9250e-01	16.6263	32.724666	0.000143	1.431980	0.485168	-0.011546
 587	2.9300e-01	16.5781	32.675489	0.000122	1.219835	0.413291	-0.009835
 588	2.9350e-01	16.5412	32.566872	0.000269	2.694244	0.912834	-0.021723
 589	2.9400e-01	16.4963	32.518123	0.000121	1.209227	0.409697	-0.009750
 590	2.9450e-01	16.4915	32.451841	0.000164	1.644125	0.557045	-0.013256
 591	2.9500e-01	16.4386	32.363322	0.000220	2.195702	0.743924	-0.017704
 592	2.9550e-01	16.3808	32.310724	0.000130	1.304693	0.442042	-0.010520
 593	2.9600e-01	16.3632	32.175595	0.000335	3.351894	1.135652	-0.027026
 594	2.9650e-01	16.3054	32.118721	0.000141	1.410765	0.477980	-0.011375
 595	2.9700e-01	16.2733	32.067406	0.000127	1.272871	0.431260	-0.010263
 596	2.9750e-01	16.2108	32.017373	0.000124	1.241049	0.420479	-0.010006
 597	2.9800e-01	16.1755	31.940401	0.000191	1.909306	0.646891	-0.015395
 598	2.9850e-01	16.1739	31.805271	0.000335	3.351894	1.135652	-0.027026
 599	2.9900e-01	16.0969	31.763364	0.000104	1.039511	0.352196	-0.008381
 600	2.9950e-01	16.0856	31.721029	0.000105	1.050119	0.355790	-0.008467
 601	3.0000e-01	16.0375	31.671852	0.000122	1.219835	0.413291	-0.009835
 602	3.0050e-01	15.9701	31.534584	0.000340	3.404930	1.153621	-0.027454
 603	3.0100e-01	15.9316	31.473434	0.000152	1.516838	0.513919	-0.012230
 604	3.0150e-01	15.8996	31.408435	0.000161	1.612303	0.546263	-0.013000
 605	3.0200e-01	15.8851	31.288700	0.000297	2.970032	1.006274	-0.023947
 606	3.0250e-01	15.8209	31.266463	0.000055	0.551577	0.186879	-0.004447
 607	3.0300e-01	15.7824	31.213438	0.000132	1.315300	0.445636	-0.010605
 608	3.0350e-01	15.7520	31.139459	0.000184	1.835056	0.621734	-0.014796
 609	3.0400e-01	15.6990	31.077881	0.000153	1.527445	0.517512	-0.012316
 610	3.0450e-01	15.6734	30.961994	0.000287	2.874567	0.973930	-0.023177
 611	3.0500e-01	15.6268	30.876042	0.000213	2.132059	0.722361	-0.017191
 612	3.0550e-01	15.5915	30.819595	0.000140	1.400158	0.474386	-0.011289
 613	3.0600e-01	15.5466	30.732787	0.000215	2.153273	0.729549	-0.017362
 614	3.0650e-01	15.5242	30.605782	0.000315	3.150356	1.067369	-0.025401
 615	3.0700e-01	15.4712	30.570717	0.000087	0.869795	0.294695	-0.007013
 616	3.0750e-01	15.4311	30.492462	0.000194	1.941128	0.657672	-0.015651
 617	3.0800e-01	15.3846	30.422759	0.000173	1.728983	0.585795	-0.013941
 618	3.0850e-01	15.3461	30.328254	0.000234	2.344204	0.794238	-0.018901
 619	3.0900e-01	15.2867	30.241873	0.000214	2.142666	0.725955	-0.017276
 620	3.0950e-01	15.2498	30.218354	0.000058	0.583399	0.197661	-0.004704
 621	3.1000e-01	15.2386	30.142664	0.000188	1.877485	0.636109	-0.015138
 622	3.1050e-01	15.1696	30.080231	0.000155	1.548660	0.524700	-0.012487
 623	3.1100e-01	15.1279	29.974180	0.000263	2.630600	0.891271	-0.021210
 624	3.1150e-01	15.1151	29.914740	0.000147	1.474409	0.499543	-0.011888
 625	3.1200e-01	15.0509	29.857866	0.000141	1.410765	0.477980	-0.011375
 626	3.1250e-01	15.0252	29.810827	0.000117	1.166798	0.395322	-0.009408
 627	3.1300e-01	14.9755	29.708197	0.000255	2.545742	0.862521	-0.020526
 628	3.1350e-01	14.9627	29.589745	0.000294	2.938211	0.995493	-0.023690
 629	3.1400e-01	14.8905	29.507641	0.000204	2.036594	0.690017	-0.016421
 630	3.1450e-01	14.8696	29.455043	0.000130	1.304693	0.442042	-0.010520
 631	3.1500e-01	14.8279	29.346426	0.000269	2.694244	0.912834	-0.021723
 632	3.1550e-01	14.7638	29.276295	0.000174	1.739590	0.589389	-0.014026
 633	3.1600e-01	14.7445	29.239092	0.000092	0.922831	0.312664	-0.007441
 634	3.1650e-01	14.6803	29.156133	0.000206	2.057808	0.697204	-0.016592
 635	3.1700e-01	14.6643	29.067187	0.000221	2.206310	0.747518	-0.017789
 636	3.1750e-01	14.6274	28.906827	0.000398	3.977722	1.347689	-0.032072
 637	3.1800e-01	14.5777	28.935050	-0.000070	-0.700079	-0.237193	0.005645
 638	3.1850e-01	14.5552	28.775119	0.000397	3.967115	1.344095	-0.031986
 639	3.1900e-01	14.5135	28.803769	-0.000071	-0.710686	-0.240787	0.005730
 640	3.1950e-01	14.4894	28.672488	0.000326	3.256428	1.103308	-0.026256
 641	3.2000e-01	14.4108	28.615614	0.000141	1.410765	0.477980	-0.011375
 642	3.2050e-01	14.3948	28.532227	0.000207	2.068415	0.700798	-0.016677
 643	3.2100e-01	14.3515	28.420190	0.000278	2.779102	0.941585	-0.022408
 644	3.2150e-01	14.2953	28.458248	-0.000094	-0.944046	-0.319851	0.007612
 645	3.2200e-01	14.2600	28.328678	0.000321	3.213999	1.088932	-0.025914
 646	3.2250e-01	14.2263	28.248712	0.000198	1.983557	0.672047	-0.015993
 647	3.2300e-01	14.1830	28.217068	0.000078	0.784937	0.265944	-0.006329
 648	3.2350e-01	14.1493	28.054142	0.000404	4.041365	1.369252	-0.032585
 649	3.2400e-01	14.0996	28.030623	0.000058	0.583399	0.197661	-0.004704
 650	3.2450e-01	14.0579	27.924999	0.000262	2.619993	0.887678	-0.021125
 651	3.2500e-01	14.0194	27.857862	0.000167	1.665340	0.564232	-0.013427
 652	3.2550e-01	14.0050	27.788587	0.000172	1.718376	0.582201	-0.013855
 653	3.2600e-01	13.9440	27.687240	0.000251	2.513920	0.851739	-0.020269
 654	3.2650e-01	13.8943	27.585465	0.000252	2.524527	0.855333	-0.020355
 655	3.2700e-01	13.8702	27.538854	0.000116	1.156191	0.391728	-0.009322
 656	3.2750e-01	13.8205	27.456322	0.000205	2.047201	0.693610	-0.016506
 657	3.2800e-01	13.7948	27.365238	0.000226	2.259346	0.765487	-0.018217
 658	3.2850e-01	13.7403	27.335732	0.000073	0.731901	0.247975	-0.005901
 659	3.2900e-01	13.7098	27.236523	0.000246	2.460884	0.833770	-0.019842
 660	3.2950e-01	13.6488	27.185635	0.000126	1.262264	0.427667	-0.010177
 661	3.3000e-01	13.6215	27.060769	0.000310	3.097319	1.049400	-0.024973
 662	3.3050e-01	13.5558	27.047512	0.000033	0.328825	0.111409	-0.002651
 663	3.3100e-01	13.5317	26.957284	0.000224	2.238131	0.758299	-0.018046
 664	3.3150e-01	13.4852	26.888863	0.000170	1.697161	0.575014	-0.013684
 665	3.3200e-01	13.4451	26.802056	0.000215	2.153273	0.729549	-0.017362
 666	3.3250e-01	13.4082	26.721662	0.000199	1.994165	0.675641	-0.016079
 667	3.3300e-01	13.3777	26.707123	0.000036	0.360647	0.122190	-0.002908
 668	3.3350e-01	13.3392	26.585250	0.000302	3.023069	1.024243	-0.024375
 669	3.3400e-01	13.3071	26.495448	0.000223	2.227524	0.754706	-0.017960
 670	3.3450e-01	13.2718	26.388970	0.000264	2.641207	0.894865	-0.021296
 671	3.3500e-01	13.2189	26.325681	0.000157	1.569874	0.531888	-0.012658
 672	3.3550e-01	13.1788	26.249136	0.000190	1.898699	0.643297	-0.015309
 673	3.3600e-01	13.1547	26.182854	0.000164	1.644125	0.557045	-0.013256
 674	3.3650e-01	13.0986	26.078086	0.000260	2.598778	0.880490	-0.020954
 675	3.3700e-01	13.0809	25.957068	0.000300	3.001854	1.017056	-0.024204
 676	3.3750e-01	13.0055	25.974173	-0.000042	-0.424290	-0.143753	0.003421
 677	3.3800e-01	12.9718	25.886510	0.000217	2.174488	0.736736	-0.017533
 678	3.3850e-01	12.9574	25.804833	0.000203	2.025986	0.686423	-0.016335
 679	3.3900e-01	12.9317	25.628652	0.000437	4.370190	1.480661	-0.035236
 680	3.3950e-01	12.8419	25.662434	-0.000084	-0.837973	-0.283913	0.006756
 681	3.4000e-01	12.8371	25.578192	0.000209	2.089630	0.707986	-0.016848
 682	3.4050e-01	12.7745	25.523456	0.000136	1.357729	0.460011	-0.010947
 683	3.4100e-01	12.7488	25.363096	0.000398	3.977722	1.347689	-0.032072
 684	3.4150e-01	12.7023	25.331880	0.000077	0.774330	0.262350	-0.006243
 685	3.4200e-01	12.6590	25.223691	0.000268	2.683636	0.909241	-0.021638
 686	3.4250e-01	12.6221	25.171948	0.000128	1.283478	0.434854	-0.010349
 687	3.4300e-01	12.5724	25.083857	0.000219	2.185095	0.740330	-0.017618
 688	3.4350e-01	12.5467	25.039384	0.000110	1.103155	0.373759	-0.008895
 689	3.4400e-01	12.5098	24.842249	0.000489	4.889946	1.656759	-0.039427
 690	3.4450e-01	12.4456	24.852940	-0.000027	-0.265181	-0.089846	0.002138
 691	3.4500e-01	12.4216	24.829848	0.000057	0.572792	0.194067	-0.004618
 692	3.4550e-01	12.4007	24.699850	0.000322	3.224607	1.092526	-0.026000
 693	3.4600e-01	12.3526	24.619456	0.000199	1.994165	0.675641	-0.016079
 694	3.4650e-01	12.2997	24.589950	0.000073	0.731901	0.247975	-0.005901
 695	3.4700e-01	12.2756	24.497583	0.000229	2.291168	0.776269	-0.018473
 696	3.4750e-01	12.2339	24.331237	0.000413	4.126223	1.398002	-0.033269
 697	3.4800e-01	12.1970	24.300448	0.000076	0.763723	0.258756	-0.006158
 698	3.4850e-01	12.1328	24.208081	0.000229	2.291168	0.776269	-0.018473
 699	3.4900e-01	12.1023	24.214923	-0.000017	-0.169716	-0.057501	0.001368
 700	3.4950e-01	12.0366	24.125121	0.000223	2.227524	0.754706	-0.017960
 701	3.5000e-01	12.0205	23.999827	0.000311	3.107927	1.052994	-0.025059
 702	3.5050e-01	11.9724	23.907032	0.000230	2.301775	0.779862	-0.018559
 703	3.5100e-01	11.9547	23.813810	0.000231	2.312382	0.783456	-0.018644
 704	3.5150e-01	11.9130	23.768054	0.000113	1.134977	0.384540	-0.009151
 705	3.5200e-01	11.8457	23.738976	0.000072	0.721294	0.244381	-0.005816
 706	3.5250e-01	11.8457	23.563222	0.000436	4.359583	1.477067	-0.035151
 707	3.5300e-01	11.7927	23.553814	0.000023	0.233360	0.079064	-0.001882
 708	3.5350e-01	11.7302	23.446052	0.000267	2.673029	0.905647	-0.021552
 709	3.5400e-01	11.7285	23.381481	0.000160	1.601696	0.542669	-0.012914
 710	3.5450e-01	11.6435	23.318620	0.000156	1.559267	0.528294	-0.012572
 711	3.5500e-01	11.6355	23.236088	0.000205	2.047201	0.693610	-0.016506
 712	3.5550e-01	11.5938	23.166813	0.000172	1.718376	0.582201	-0.013855
 713	3.5600e-01	11.5312	23.109084	0.000143	1.431980	0.485168	-0.011546
 714	3.5650e-01	11.4863	23.006454	0.000255	2.545742	0.862521	-0.020526
 715	3.5700e-01	11.4655	22.902113	0.000259	2.588171	0.876896	-0.020868
 716	3.5750e-01	11.4221	22.767839	0.000333	3.330679	1.128465	-0.026855
 717	3.5800e-01	11.3692	22.757148	0.000027	0.265181	0.089846	-0.002138
 718	3.5850e-01	11.3564	22.644255	0.000280	2.800316	0.948773	-0.022579
 719	3.5900e-01	11.3082	22.598927	0.000112	1.124369	0.380947	-0.009066
 720	3.5950e-01	11.2713	22.485606	0.000281	2.810923	0.952367	-0.022664
 721	3.6000e-01	11.2344	22.391956	0.000232	2.322990	0.787050	-0.018730
 722	3.6050e-01	11.1911	22.382121	0.000024	0.243967	0.082658	-0.001967
 723	3.6100e-01	11.1318	22.329950	0.000129	1.294086	0.438448	-0.010434
 724	3.6150e-01	11.1077	22.187124	0.000354	3.542824	1.200341	-0.028565
 725	3.6200e-01	11.0628	22.114427	0.000180	1.803234	0.610952	-0.014539
 726	3.6250e-01	11.0323	22.010087	0.000259	2.588171	0.876896	-0.020868
 727	3.6300e-01	11.0147	21.920285	0.000223	2.227524	0.754706	-0.017960
 728	3.6350e-01	10.9393	21.842458	0.000193	1.930521	0.654078	-0.015566
 729	3.6400e-01	10.9152	21.811669	0.000076	0.763723	0.258756	-0.006158
 730	3.6450e-01	10.8783	21.743249	0.000170	1.697161	0.575014	-0.013684
 731	3.6500e-01	10.8093	21.621375	0.000302	3.023069	1.024243	-0.024375
 732	3.6550e-01	10.7660	21.601277	0.000050	0.498541	0.168910	-0.004020
 733	3.6600e-01	10.7516	21.463582	0.000342	3.415537	1.157215	-0.027539
 734	3.6650e-01	10.7083	21.364373	0.000246	2.460884	0.833770	-0.019842
 735	3.6700e-01	10.6601	21.356675	0.000019	0.190931	0.064689	-0.001539
 736	3.6750e-01	10.6409	21.292104	0.000160	1.601696	0.542669	-0.012914
 737	3.6800e-01	10.5783	21.156974	0.000335	3.351894	1.135652	-0.027026
 738	3.6850e-01	10.5575	21.082567	0.000185	1.845663	0.625328	-0.014881
 739	3.6900e-01	10.5077	21.041088	0.000103	1.028904	0.348602	-0.008296
 740	3.6950e-01	10.4805	20.891419	0.000371	3.712540	1.257843	-0.029934
 741	3.7000e-01	10.4339	20.852505	0.000097	0.965260	0.327039	-0.007783
 742	3.7050e-01	10.3714	20.853788	-0.000003	-0.031822	-0.010782	0.000257
 743	3.7100e-01	10.3425	20.662212	0.000475	4.752052	1.610039	-0.038315
 744	3.7150e-01	10.3008	20.657080	0.000013	0.127287	0.043126	-0.001026
 745	3.7200e-01	10.2430	20.588660	0.000170	1.697161	0.575014	-0.013684
 746	3.7250e-01	10.2350	20.451820	0.000339	3.394323	1.150028	-0.027368
 747	3.7300e-01	10.1949	20.348763	0.000256	2.556349	0.866115	-0.020612
 748	3.7350e-01	10.1243	20.292744	0.000139	1.389551	0.470793	-0.011204
 749	3.7400e-01	10.1002	20.221330	0.000177	1.771412	0.600171	-0.014283
 750	3.7450e-01	10.0505	20.121266	0.000248	2.482098	0.840958	-0.020013
 751	3.7500e-01	10.0136	20.095181	0.000065	0.647043	0.219224	-0.005217
 752	3.7550e-01	9.9703	19.993406	0.000252	2.524527	0.855333	-0.020355
 753	3.7600e-01	9.9607	19.854428	0.000345	3.447359	1.167997	-0.027796
 754	3.7650e-01	9.8901	19.805678	0.000121	1.209227	0.409697	-0.009750
 755	3.7700e-01	9.8708	19.670549	0.000335	3.351894	1.135652	-0.027026
 756	3.7750e-01	9.8452	19.614530	0.000139	1.389551	0.470793	-0.011204
 757	3.7800e-01	9.7906	19.608971	0.000014	0.137894	0.046720	-0.001112
 758	3.7850e-01	9.7409	19.555518	0.000133	1.325907	0.449230	-0.010691
 759	3.7900e-01	9.7184	19.406704	0.000369	3.691326	1.250655	-0.029763
 760	3.7950e-01	9.6446	19.449039	-0.000105	-1.050119	-0.355790	0.008467
 761	3.8000e-01	9.6206	19.337001	0.000278	2.779102	0.941585	-0.022408
 762	3.8050e-01	9.6174	19.069308	0.000664	6.640144	2.249742	-0.053539
 763	3.8100e-01	9.5388	19.128748	-0.000147	-1.474409	-0.499543	0.011888
 764	3.8150e-01	9.5035	19.038946	0.000223	2.227524	0.754706	-0.017960
 765	3.8200e-01	9.4602	18.976085	0.000156	1.559267	0.528294	-0.012572
 766	3.8250e-01	9.4329	18.808456	0.000416	4.158045	1.408784	-0.033526
 767	3.8300e-01	9.3783	18.818292	-0.000024	-0.243967	-0.082658	0.001967
 768	3.8350e-01	9.3687	18.699412	0.000295	2.948818	0.999087	-0.023776
 769	3.8400e-01	9.2933	18.653656	0.000113	1.134977	0.384540	-0.009151
 770	3.8450e-01	9.2532	18.598920	0.000136	1.357729	0.460011	-0.010947
 771	3.8500e-01	9.2211	18.595927	0.000007	0.074251	0.025157	-0.000599
 772	3.8550e-01	9.1874	18.359450	0.000587	5.865814	1.987392	-0.047295
 773	3.8600e-01	9.1538	18.293595	0.000163	1.633518	0.553451	-0.013171
 774	3.8650e-01	9.0880	18.239715	0.000134	1.336515	0.452823	-0.010776
 775	3.8700e-01	9.0623	18.152051	0.000217	2.174488	0.736736	-0.017533
 776	3.8750e-01	9.0318	18.051987	0.000248	2.482098	0.840958	-0.020013
 777	3.8800e-01	8.9869	17.965179	0.000215	2.153273	0.729549	-0.017362
 778	3.8850e-01	8.9292	17.956199	0.000022	0.222752	0.075471	-0.001796
 779	3.8900e-01	8.9099	17.826201	0.000322	3.224607	1.092526	-0.026000
 780	3.8950e-01	8.8457	17.802682	0.000058	0.583399	0.197661	-0.004704
 781	3.9000e-01	8.8121	17.689361	0.000281	2.810923	0.952367	-0.022664
 782	3.9050e-01	8.7848	17.577323	0.000278	2.779102	0.941585	-0.022408
 783	3.9100e-01	8.7302	17.540975	0.000090	0.901617	0.305476	-0.007270
 784	3.9150e-01	8.7110	17.410122	0.000325	3.245821	1.099714	-0.026171
 785	3.9200e-01	8.6709	17.339136	0.000176	1.760805	0.596577	-0.014197
 786	3.9250e-01	8.5923	17.251045	0.000219	2.185095	0.740330	-0.017618
 787	3.9300e-01	8.5762	17.214269	0.000091	0.912224	0.309070	-0.007355
 788	3.9350e-01	8.5474	17.086409	0.000317	3.171570	1.074557	-0.025572
 789	3.9400e-01	8.4816	17.062035	0.000060	0.604614	0.204849	-0.004875
 790	3.9450e-01	8.4687	16.965391	0.000240	2.397240	0.812207	-0.019329
 791	3.9500e-01	8.4206	16.878583	0.000215	2.153273	0.729549	-0.017362
 792	3.9550e-01	8.3677	16.756710	0.000302	3.023069	1.024243	-0.024375
 793	3.9600e-01	8.3212	16.749013	0.000019	0.190931	0.064689	-0.001539
 794	3.9650e-01	8.3147	16.638686	0.000274	2.736673	0.927210	-0.022065
 795	3.9700e-01	8.2506	16.572404	0.000164	1.644125	0.557045	-0.013256
 796	3.9750e-01	8.2201	16.488162	0.000209	2.089630	0.707986	-0.016848
 797	3.9800e-01	8.1896	16.420597	0.000168	1.675947	0.567826	-0.013513
 798	3.9850e-01	8.1447	16.363723	0.000141	1.410765	0.477980	-0.011375
 799	3.9900e-01	8.0950	16.267935	0.000238	2.376026	0.805019	-0.019158
 800	3.9950e-01	8.0789	16.145634	0.000303	3.033676	1.027837	-0.024460
 801	4.0000e-01	8.0147	16.113134	0.000081	0.806152	0.273132	-0.006500
 802	4.0050e-01	7.9875	15.986129	0.000315	3.150356	1.067369	-0.025401
 803	4.0100e-01	7.9297	15.918992	0.000167	1.665340	0.564232	-0.013427
 804	4.0150e-01	7.9105	15.803533	0.000286	2.863960	0.970336	-0.023092
 805	4.0200e-01	7.8575	15.815507	-0.000030	-0.297003	-0.100627	0.002395
 806	4.0250e-01	7.8319	15.659851	0.000386	3.861042	1.308156	-0.031131
 807	4.0300e-01	7.7853	15.584162	0.000188	1.877485	0.636109	-0.015138
 808	4.0350e-01	7.7356	15.509755	0.000185	1.845663	0.625328	-0.014881
 809	4.0400e-01	7.7083	15.370349	0.000346	3.457966	1.171591	-0.027881
 810	4.0450e-01	7.6522	15.372060	-0.000004	-0.042429	-0.014375	0.000342
 811	4.0500e-01	7.6105	15.282686	0.000222	2.216917	0.751112	-0.017875
 812	4.0550e-01	7.5543	15.177062	0.000262	2.619993	0.887678	-0.021125
 813	4.0600e-01	7.5222	15.157819	0.000048	0.477327	0.161723	-0.003849
 814	4.0650e-01	7.4934	15.009006	0.000369	3.691326	1.250655	-0.029763
 815	4.0700e-01	7.4693	15.001736	0.000018	0.180323	0.061095	-0.001454
 816	4.0750e-01	7.4116	14.864468	0.000340	3.404930	1.153621	-0.027454
 817	4.0800e-01	7.3907	14.824699	0.000099	0.986475	0.334227	-0.007954
 818	4.0850e-01	7.3474	14.692991	0.000327	3.267036	1.106902	-0.026342
 819	4.0900e-01	7.2977	14.601051	0.000228	2.280561	0.772675	-0.018388
 820	4.0950e-01	7.2720	14.497993	0.000256	2.556349	0.866115	-0.020612
 821	4.1000e-01	7.2078	14.437698	0.000150	1.495623	0.506731	-0.012059
 822	4.1050e-01	7.1838	14.423587	0.000035	0.350040	0.118597	-0.002822
 823	4.1100e-01	7.1260	14.320529	0.000256	2.556349	0.866115	-0.020612
 824	4.1150e-01	7.1019	14.230300	0.000224	2.238131	0.758299	-0.018046
 825	4.1200e-01	7.0795	14.110565	0.000297	2.970032	1.006274	-0.023947
 826	4.1250e-01	7.0121	14.083625	0.000067	0.668257	0.226412	-0.005388
 827	4.1300e-01	6.9864	13.965600	0.000293	2.927603	0.991899	-0.023605
 828	4.1350e-01	6.9303	13.940370	0.000063	0.625828	0.212036	-0.005046
 829	4.1400e-01	6.8966	13.818925	0.000301	3.012461	1.020650	-0.024289
 830	4.1450e-01	6.8597	13.712446	0.000264	2.641207	0.894865	-0.021296
 831	4.1500e-01	6.8068	13.641032	0.000177	1.771412	0.600171	-0.014283
 832	4.1550e-01	6.7763	13.613237	0.000069	0.689472	0.233599	-0.005559
 833	4.1600e-01	6.7570	13.506330	0.000265	2.651815	0.898459	-0.021381
 834	4.1650e-01	6.7137	13.404128	0.000254	2.535135	0.858927	-0.020440
 835	4.1700e-01	6.6688	13.304491	0.000247	2.471491	0.837364	-0.019927
 836	4.1750e-01	6.6399	13.188605	0.000287	2.874567	0.973930	-0.023177
 837	4.1800e-01	6.5774	13.107784	0.000200	2.004772	0.679235	-0.016164
 838	4.1850e-01	6.5228	13.114198	-0.000016	-0.159109	-0.053908	0.001283
 839	4.1900e-01	6.5180	12.991042	0.000305	3.054890	1.035025	-0.024631
 840	4.1950e-01	6.4955	12.814433	0.000438	4.380798	1.484254	-0.035322
 841	4.2000e-01	6.4153	12.856768	-0.000105	-1.050119	-0.355790	0.008467
 842	4.2050e-01	6.3848	12.713513	0.000355	3.553432	1.203935	-0.028651
 843	4.2100e-01	6.3544	12.636968	0.000190	1.898699	0.643297	-0.015309
 844	4.2150e-01	6.3094	12.572397	0.000160	1.601696	0.542669	-0.012914
 845	4.2200e-01	6.2357	12.435984	0.000338	3.383715	1.146434	-0.027282
 846	4.2250e-01	6.2132	12.418024	0.000045	0.445505	0.150941	-0.003592
 847	4.2300e-01	6.1683	12.343190	0.000186	1.856270	0.628921	-0.014967
 848	4.2350e-01	6.1635	12.276053	0.000167	1.665340	0.564232	-0.013427
 849	4.2400e-01	6.0993	12.224738	0.000127	1.272871	0.431260	-0.010263
 850	4.2450e-01	6.0560	12.106713	0.000293	2.927603	0.991899	-0.023605
 851	4.2500e-01	6.0447	11.953623	0.000380	3.797398	1.286593	-0.030618
 852	4.2550e-01	5.9645	11.971156	-0.000043	-0.434898	-0.147347	0.003507
 853	4.2600e-01	5.9469	11.833033	0.000343	3.426144	1.160809	-0.027625
 854	4.2650e-01	5.8940	11.798823	0.000085	0.848581	0.287507	-0.006842
 855	4.2700e-01	5.8651	11.661555	0.000340	3.404930	1.153621	-0.027454
 856	4.2750e-01	5.8153	11.604681	0.000141	1.410765	0.477980	-0.011375
 857	4.2800e-01	5.7865	11.534978	0.000173	1.728983	0.585795	-0.013941
 858	4.2850e-01	5.7383	11.443039	0.000228	2.280561	0.772675	-0.018388
 859	4.2900e-01	5.6982	11.388303	0.000136	1.357729	0.460011	-0.010947
 860	4.2950e-01	5.6662	11.287811	0.000249	2.492706	0.844552	-0.020098
 861	4.3000e-01	5.6260	11.206989	0.000200	2.004772	0.679235	-0.016164
 862	4.3050e-01	5.5908	11.151826	0.000137	1.368336	0.463605	-0.011033
 863	4.3100e-01	5.5426	11.017551	0.000333	3.330679	1.128465	-0.026855
 864	4.3150e-01	5.5170	10.975216	0.000105	1.050119	0.355790	-0.008467
 865	4.3200e-01	5.4592	10.887126	0.000219	2.185095	0.740330	-0.017618
 866	4.3250e-01	5.4367	10.764397	0.000304	3.044283	1.031431	-0.024546
 867	4.3300e-01	5.3886	10.725483	0.000097	0.965260	0.327039	-0.007783
 868	4.3350e-01	5.3341	10.592492	0.000330	3.298857	1.117683	-0.026598
 869	4.3400e-01	5.3132	10.570683	0.000054	0.540970	0.183286	-0.004362
 870	4.3450e-01	5.2571	10.452658	0.000293	2.927603	0.991899	-0.023605
 871	4.3500e-01	5.2266	10.322233	0.000324	3.235214	1.096120	-0.026085
 872	4.3550e-01	5.1704	10.310259	0.000030	0.297003	0.100627	-0.002395
 873	4.3600e-01	5.1400	10.209767	0.000249	2.492706	0.844552	-0.020098
 874	4.3650e-01	5.0918	10.220886	-0.000028	-0.275789	-0.093440	0.002224
 875	4.3700e-01	5.0758	9.989113	0.000575	5.749134	1.947859	-0.046355
 876	4.3750e-01	5.0148	9.979277	0.000024	0.243967	0.082658	-0.001967
 877	4.3800e-01	4.9892	9.880068	0.000246	2.460884	0.833770	-0.019842
 878	4.3850e-01	4.9138	9.838161	0.000104	1.039511	0.352196	-0.008381
 879	4.3900e-01	4.9041	9.754774	0.000207	2.068415	0.700798	-0.016677
 880	4.3950e-01	4.8897	9.577309	0.000440	4.402012	1.491442	-0.035493
 881	4.4000e-01	4.8239	9.585862	-0.000021	-0.212145	-0.071877	0.001711
 882	4.4050e-01	4.7902	9.425075	0.000399	3.988329	1.351282	-0.032157
 883	4.4100e-01	4.7421	9.353234	0.000178	1.782019	0.603765	-0.014368
 884	4.4150e-01	4.7325	9.247183	0.000263	2.630600	0.891271	-0.021210
 885	4.4200e-01	4.6555	9.216394	0.000076	0.763723	0.258756	-0.006158
 886	4.4250e-01	4.6041	9.192019	0.000060	0.604614	0.204849	-0.004875
 887	4.4300e-01	4.5881	9.019258	0.000429	4.285332	1.451910	-0.034552
 888	4.4350e-01	4.5432	9.073995	-0.000136	-1.357729	-0.460011	0.010947
 889	4.4400e-01	4.5079	8.881991	0.000476	4.762659	1.613633	-0.038401
 890	4.4450e-01	4.4598	8.842649	0.000098	0.975868	0.330633	-0.007868
 891	4.4500e-01	4.4229	8.784492	0.000144	1.442587	0.488762	-0.011631
 892	4.4550e-01	4.3908	8.657915	0.000314	3.139748	1.063776	-0.025315
 893	4.4600e-01	4.3330	8.560844	0.000241	2.407848	0.815801	-0.019414
 894	4.4650e-01	4.3106	8.524924	0.000089	0.891010	0.301882	-0.007184
 895	4.4700e-01	4.2608	8.379103	0.000362	3.617075	1.225498	-0.029164
 896	4.4750e-01	4.2079	8.347032	0.000080	0.795544	0.269538	-0.006414
 897	4.4800e-01	4.1726	8.315387	0.000078	0.784937	0.265944	-0.006329
 898	4.4850e-01	4.1421	8.149469	0.000412	4.115616	1.394409	-0.033184
 899	4.4900e-01	4.0940	8.130653	0.000047	0.466719	0.158129	-0.003763
 900	4.4950e-01	4.0587	8.006214	0.000309	3.086712	1.045806	-0.024888
 901	4.5000e-01	4.0298	7.979701	0.000066	0.657650	0.222818	-0.005303
 902	4.5050e-01	3.9560	7.883913	0.000238	2.376026	0.805019	-0.019158
 903	4.5100e-01	3.9512	7.782566	0.000251	2.513920	0.851739	-0.020269
 904	4.5150e-01	3.9240	7.612799	0.000421	4.211082	1.426753	-0.033953
 905	4.5200e-01	3.8694	7.562339	0.000125	1.251656	0.424073	-0.010092
 906	4.5250e-01	3.8486	7.443887	0.000294	2.938211	0.995493	-0.023690
 907	4.5300e-01	3.7780	7.413098	0.000076	0.763723	0.258756	-0.006158
 908	4.5350e-01	3.7314	7.365632	0.000118	1.177406	0.398916	-0.009493
 909	4.5400e-01	3.6994	7.306619	0.000146	1.463802	0.495949	-0.011802
 910	4.5450e-01	3.6913	7.121885	0.000458	4.582336	1.552537	-0.036947
 911	4.5500e-01	3.6224	7.097510	0.000060	0.604614	0.204849	-0.004875
 912	4.5550e-01	3.5790	7.017117	0.000199	1.994165	0.675641	-0.016079
 913	4.5600e-01	3.5518	6.924322	0.000230	2.301775	0.779862	-0.018559
 914	4.5650e-01	3.5069	6.873007	0.000127	1.272871	0.431260	-0.010263
 915	4.5700e-01	3.4491	6.769094	0.000258	2.577564	0.873302	-0.020783
 916	4.5750e-01	3.4058	6.641234	0.000317	3.171570	1.074557	-0.025572
 917	4.5800e-01	3.3785	6.605741	0.000088	0.880402	0.298288	-0.007099
 918	4.5850e-01	3.3609	6.523210	0.000205	2.047201	0.693610	-0.016506
 919	4.5900e-01	3.2999	6.369692	0.000381	3.808006	1.290187	-0.030703
 920	4.5950e-01	3.2389	6.392356	-0.000056	-0.562185	-0.190473	0.004533
 921	4.6000e-01	3.2213	6.268345	0.000308	3.076105	1.042213	-0.024802
 922	4.6050e-01	3.1828	6.232425	0.000089	0.891010	0.301882	-0.007184
 923	4.6100e-01	3.1475	6.052822	0.000446	4.455048	1.509411	-0.035921
 924	4.6150e-01	3.1250	5.960027	0.000230	2.301775	0.779862	-0.018559
 925	4.6200e-01	3.0721	5.948481	0.000029	0.286396	0.097034	-0.002309
 926	4.6250e-01	3.0095	5.868515	0.000198	1.983557	0.672047	-0.015993
 927	4.6300e-01	2.9662	5.806937	0.000153	1.527445	0.517512	-0.012316
 928	4.6350e-01	2.9357	5.718419	0.000220	2.195702	0.743924	-0.017704
 929	4.6400e-01	2.8844	5.611940	0.000264	2.641207	0.894865	-0.021296
 930	4.6450e-01	2.8876	5.532830	-0.000196	-1.962343	-0.664860	-0.015822
 931	4.6500e-01	2.8459	5.396845	0.000337	3.373108	1.142840	-0.027197
 932	4.6550e-01	2.8042	5.347240	0.000123	1.230442	0.416885	-0.009921
 933	4.6600e-01	2.7657	5.328425	0.000047	0.466719	0.158129	-0.003763
 934	4.6650e-01	2.7192	5.199710	0.000319	3.192785	1.081745	-0.025743
 935	4.6700e-01	2.6534	5.094514	0.000261	2.609386	0.884084	-0.021039
 936	4.6750e-01	2.6438	5.082113	0.000031	0.307610	0.104221	-0.002480
 937	4.6800e-01	2.5908	4.864879	0.000539	5.388487	1.825669	-0.043447
 938	4.6850e-01	2.5443	4.850767	0.000035	0.350040	0.118597	-0.002822
 939	4.6900e-01	2.5058	4.783203	0.000168	1.675947	0.567826	-0.013513
 940	4.6950e-01	2.4705	4.703237	0.000198	1.983557	0.672047	-0.015993
 941	4.7000e-01	2.4192	4.648073	0.000137	1.368336	0.463605	-0.011033
 942	4.7050e-01	2.3983	4.534752	0.000281	2.810923	0.952367	-0.022664
 943	4.7100e-01	2.3406	4.459918	0.000186	1.856270	0.628921	-0.014967
 944	4.7150e-01	2.3149	4.354722	0.000261	2.609386	0.884084	-0.021039
 945	4.7200e-01	2.2539	4.340610	0.000035	0.350040	0.118597	-0.002822
 946	4.7250e-01	2.2203	4.184955	0.000386	3.861042	1.308156	-0.031131
 947	4.7300e-01	2.1657	4.165712	0.000048	0.477327	0.161723	-0.003849
 948	4.7350e-01	2.1689	4.066075	-0.000247	-2.471491	-0.837364	-0.019927
 949	4.7400e-01	2.1160	3.952754	0.000281	2.810923	0.952367	-0.022664
 950	4.7450e-01	2.0727	3.876209	0.000190	1.898699	0.643297	-0.015309
 951	4.7500e-01	2.0374	3.773579	0.000255	2.545742	0.862521	-0.020526
 952	4.7550e-01	1.9636	3.755619	0.000045	0.445505	0.150941	-0.003592
 953	4.7600e-01	1.9636	3.614503	0.000350	3.500395	1.185966	-0.028223
 954	4.7650e-01	1.9106	3.580293	0.000085	0.848581	0.287507	-0.006842
 955	4.7700e-01	1.8673	3.507169	0.000181	1.813841	0.614546	-0.014625
 956	4.7750e-01	1.8160	3.426775	0.000199	1.994165	0.675641	-0.016079
 957	4.7800e-01	1.8112	3.248455	0.000442	4.423227	1.498630	-0.035664
 958	4.7850e-01	1.7310	3.235627	0.000032	0.318218	0.107815	-0.002566
 959	4.7900e-01	1.6764	3.197140	0.000095	0.954653	0.323445	-0.007697
 960	4.7950e-01	1.6492	3.095793	0.000251	2.513920	0.851739	-0.020269
 961	4.8000e-01	1.6203	2.970499	0.000311	3.107927	1.052994	-0.025059
 962	4.8050e-01	1.5802	2.899513	0.000176	1.760805	0.596577	-0.014197
 963	4.8100e-01	1.5272	2.846060	0.000133	1.325907	0.449230	-0.010691
 964	4.8150e-01	1.4919	2.718628	0.000316	3.160963	1.070963	-0.025486
 965	4.8200e-01	1.4502	2.673727	0.000111	1.113762	0.377353	-0.008980
 966	4.8250e-01	1.4422	2.505243	0.000418	4.179260	1.415972	-0.033697
 967	4.8300e-01	1.3812	2.462908	0.000105	1.050119	0.355790	-0.008467
 968	4.8350e-01	1.3251	2.471888	-0.000022	-0.222752	-0.075471	0.001796
 969	4.8400e-01	1.3010	2.340179	0.000327	3.267036	1.106902	-0.026342
 970	4.8450e-01	1.2593	2.224293	0.000287	2.874567	0.973930	-0.023177
 971	4.8500e-01	1.2465	2.141761	0.000205	2.047201	0.693610	-0.016506
 972	4.8550e-01	1.1663	2.102847	0.000097	0.965260	0.327039	-0.007783
 973	4.8600e-01	1.1438	2.024592	0.000194	1.941128	0.657672	-0.015651
 974	4.8650e-01	1.1037	1.821897	0.000503	5.027840	1.703478	-0.040539
 975	4.8700e-01	1.0395	1.861239	-0.000098	-0.975868	-0.330633	0.007868
 976	4.8750e-01	1.0331	1.788970	0.000179	1.792627	0.607358	-0.014454
 977	4.8800e-01	0.9946	1.594401	0.000483	4.826302	1.635196	-0.038914
 978	4.8850e-01	0.9465	1.530685	0.000158	1.580481	0.535482	-0.012743
 979	4.8900e-01	0.9192	1.524698	0.000015	0.148502	0.050314	-0.001197
 980	4.8950e-01	0.8807	1.416081	0.000269	2.694244	0.912834	-0.021723
 981	4.9000e-01	0.8133	1.308747	0.000266	2.662422	0.902053	-0.021467
 982	4.9050e-01	0.7813	1.235196	0.000182	1.824448	0.618140	-0.014710
 983	4.9100e-01	0.7363	1.185591	0.000123	1.230442	0.416885	-0.009921
 984	4.9150e-01	0.6866	1.061580	0.000308	3.076105	1.042213	-0.024802
 985	4.9200e-01	0.6561	0.987173	0.000185	1.845663	0.625328	-0.014881
 986	4.9250e-01	0.6433	0.875135	0.000278	2.779102	0.941585	-0.022408
 987	4.9300e-01	0.5823	0.865300	0.000024	0.243967	0.082658	-0.001967
 988	4.9350e-01	0.5711	0.715203	0.000372	3.723148	1.261437	-0.030019
 989	4.9400e-01	0.4893	0.652770	0.000155	1.548660	0.524700	-0.012487
 990	4.9450e-01	0.4813	0.645928	0.000017	0.169716	0.057501	-0.001368
 991	4.9500e-01	0.4139	0.463760	0.000452	4.518692	1.530974	-0.036434
 992	4.9550e-01	0.3770	0.398333	0.000162	1.622911	0.549857	-0.013085
 993	4.9600e-01	0.3337	0.380373	0.000045	0.445505	0.150941	-0.003592
 994	4.9650e-01	0.3080	0.230704	0.000371	3.712540	1.257843	-0.029934
 995	4.9700e-01	0.2647	0.218303	0.000031	0.307610	0.104221	-0.002480
 996	4.9750e-01	0.2294	0.069917	0.000368	3.680719	1.247061	-0.029677
 997	4.9800e-01	0.1861	0.001497	0.000170	1.697161	0.575014	-0.013684
 998	4.9850e-01	0.1267	-0.063075	0.000160	1.601696	0.542669	-0.012914
 999	4.9900e-01	0.0738	-0.055805	-0.000018	-0.180323	-0.061095	0.001454
1000	4.9950e-01	0.0561	-0.248236	0.000477	4.773266	1.617226	-0.038486
1001	5.0000e-01	0.0545	-0.379945	0.000327	3.267036	1.106902	-0.026342
1002	5.0050e-01	-0.0112	-0.406885	0.000067	0.668257	0.226412	-0.005388
1003	5.0100e-01	-0.0722	-0.441095	0.000085	0.848581	0.287507	-0.006842
1004	5.0150e-01	-0.0738	-0.534318	0.000231	2.312382	0.783456	-0.018644
1005	5.0200e-01	-0.1396	-0.666026	0.000327	3.267036	1.106902	-0.026342
1006	5.0250e-01	-0.1524	-0.804149	0.000343	3.426144	1.160809	-0.027625
1007	5.0300e-01	-0.1957	-0.867438	0.000157	1.569874	0.531888	-0.012658
1008	5.0350e-01	-0.2711	-0.811419	-0.000139	-1.389551	-0.470793	0.011204
1009	5.0400e-01	-0.2775	-0.994443	0.000454	4.539907	1.538162	-0.036605
1010	5.0450e-01	-0.3241	-1.055165	0.000151	1.506231	0.510325	-0.012145
1011	5.0500e-01	-0.3850	-1.066711	0.000029	0.286396	0.097034	-0.002309
1012	5.0550e-01	-0.3962	-1.193716	0.000315	3.150356	1.067369	-0.025401
1013	5.0600e-01	-0.4652	-1.240327	0.000116	1.156191	0.391728	-0.009322
1014	5.0650e-01	-0.4765	-1.363911	0.000307	3.065498	1.038619	-0.024717
1015	5.0700e-01	-0.5374	-1.457133	0.000231	2.312382	0.783456	-0.018644
1016	5.0750e-01	-0.5599	-1.604236	0.000365	3.648897	1.236280	-0.029421
1017	5.0800e-01	-0.6240	-1.532823	-0.000177	-1.771412	-0.600171	0.014283
1018	5.0850e-01	-0.6561	-1.703873	0.000424	4.242903	1.437535	-0.034210
1019	5.0900e-01	-0.6850	-1.759892	0.000139	1.389551	0.470793	-0.011204
1020	5.0950e-01	-0.7540	-1.903574	0.000356	3.564039	1.207529	-0.028736
1021	5.1000e-01	-0.7829	-1.928376	0.000062	0.615221	0.208443	-0.004960
1022	5.1050e-01	-0.7893	-2.064361	0.000337	3.373108	1.142840	-0.027197
1023	5.1100e-01	-0.8631	-2.107979	0.000108	1.081940	0.366571	-0.008724
1024	5.1150e-01	-0.8887	-2.173405	0.000162	1.622911	0.549857	-0.013085
1025	5.1200e-01	-0.9369	-2.241826	0.000170	1.697161	0.575014	-0.013684
1026	5.1250e-01	-0.9850	-2.349587	0.000267	2.673029	0.905647	-0.021552
1027	5.1300e-01	-1.0267	-2.390639	0.000102	1.018297	0.345008	-0.008210
1028	5.1350e-01	-1.0476	-2.524486	0.000332	3.320072	1.124871	-0.026769
1029	5.1400e-01	-1.0829	-2.609156	0.000210	2.100237	0.711580	-0.016934
1030	5.1450e-01	-1.1326	-2.655767	0.000116	1.156191	0.391728	-0.009322
1031	5.1500e-01	-1.1759	-2.735305	0.000197	1.972950	0.668454	-0.015908
1032	5.1550e-01	-1.2000	-2.852474	0.000291	2.906389	0.984711	-0.023434
1033	5.1600e-01	-1.2609	-2.914052	0.000153	1.527445	0.517512	-0.012316
1034	5.1650e-01	-1.2802	-3.002571	0.000220	2.195702	0.743924	-0.017704
1035	5.1700e-01	-1.3251	-3.125299	0.000304	3.044283	1.031431	-0.024546
1036	5.1750e-01	-1.3877	-3.142404	0.000042	0.424290	0.143753	-0.003421
1037	5.1800e-01	-1.4133	-3.255297	0.000280	2.800316	0.948773	-0.022579
1038	5.1850e-01	-1.4566	-3.291646	0.000090	0.901617	0.305476	-0.007270
1039	5.1900e-01	-1.4967	-3.359210	0.000168	1.675947	0.567826	-0.013513
1040	5.1950e-01	-1.5304	-3.454143	0.000235	2.354811	0.797832	-0.018987
1041	5.2000e-01	-1.5641	-3.607661	0.000381	3.808006	1.290187	-0.030703
1042	5.2050e-01	-1.6203	-3.644864	0.000092	0.922831	0.312664	-0.007441
1043	5.2100e-01	-1.6556	-3.764171	0.000296	2.959425	1.002680	-0.023861
1044	5.2150e-01	-1.7117	-3.791539	0.000068	0.678865	0.230006	-0.005474
1045	5.2200e-01	-1.7197	-3.897591	0.000263	2.630600	0.891271	-0.021210
1046	5.2250e-01	-1.7871	-3.960024	0.000155	1.548660	0.524700	-0.012487
1047	5.2300e-01	-1.7967	-4.070779	0.000275	2.747280	0.930804	-0.022151
1048	5.2350e-01	-1.8657	-4.142620	0.000178	1.782019	0.603765	-0.014368
1049	5.2400e-01	-1.8978	-4.229428	0.000215	2.153273	0.729549	-0.017362
1050	5.2450e-01	-1.9427	-4.263210	0.000084	0.837973	0.283913	-0.006756
1051	5.2500e-01	-1.9828	-4.417155	0.000382	3.818613	1.293781	-0.030789
1052	5.2550e-01	-2.0005	-4.522779	0.000262	2.619993	0.887678	-0.021125
1053	5.2600e-01	-2.0566	-4.642941	0.000298	2.980640	1.009868	-0.024033
1054	5.2650e-01	-2.0711	-4.651066	0.000020	0.201538	0.068283	-0.001625
1055	5.2700e-01	-2.1192	-4.738729	0.000217	2.174488	0.736736	-0.017533
1056	5.2750e-01	-2.1898	-4.725901	-0.000032	-0.318218	-0.107815	0.002566
1057	5.2800e-01	-2.2170	-4.851623	0.000312	3.118534	1.056588	-0.025144
1058	5.2850e-01	-2.2572	-4.905931	0.000135	1.347122	0.456417	-0.010862
1059	5.2900e-01	-2.2892	-5.005568	0.000247	2.471491	0.837364	-0.019927
1060	5.2950e-01	-2.3582	-5.078264	0.000180	1.803234	0.610952	-0.014539
1061	5.3000e-01	-2.3550	-5.183887	-0.000262	-2.619993	-0.887678	-0.021125
1062	5.3050e-01	-2.4063	-5.330990	0.000365	3.648897	1.236280	-0.029421
1063	5.3100e-01	-2.4432	-5.337405	0.000016	0.159109	0.053908	-0.001283
1064	5.3150e-01	-2.5042	-5.452008	0.000284	2.842745	0.963148	-0.022921
1065	5.3200e-01	-2.5491	-5.503323	0.000127	1.272871	0.431260	-0.010263
1066	5.3250e-01	-2.5684	-5.562336	0.000146	1.463802	0.495949	-0.011802
1067	5.3300e-01	-2.6229	-5.672663	0.000274	2.736673	0.927210	-0.022065
1068	5.3350e-01	-2.6358	-5.751346	0.000195	1.951736	0.661266	-0.015737
1069	5.3400e-01	-2.6999	-5.848845	0.000242	2.418455	0.819395	-0.019500
1070	5.3450e-01	-2.7128	-5.951902	0.000256	2.556349	0.866115	-0.020612
1071	5.3500e-01	-2.7930	-5.965159	0.000033	0.328825	0.111409	-0.002651
1072	5.3550e-01	-2.8154	-6.065223	0.000248	2.482098	0.840958	-0.020013
1073	5.3600e-01	-2.8347	-6.217030	0.000377	3.765577	1.275812	-0.030361
1074	5.3650e-01	-2.8764	-6.284167	0.000167	1.665340	0.564232	-0.013427
1075	5.3700e-01	-2.9149	-6.379528	0.000237	2.365419	0.801426	-0.019072
1076	5.3750e-01	-2.9630	-6.412455	0.000082	0.816759	0.276725	-0.006585
1077	5.3800e-01	-3.0015	-6.503967	0.000227	2.269953	0.769081	-0.018302
1078	5.3850e-01	-3.0448	-6.556992	0.000132	1.315300	0.445636	-0.010605
1079	5.3900e-01	-3.1042	-6.607452	0.000125	1.251656	0.424073	-0.010092
1080	5.3950e-01	-3.1186	-6.778502	0.000424	4.242903	1.437535	-0.034210
1081	5.4000e-01	-3.1555	-6.837514	0.000146	1.463802	0.495949	-0.011802
1082	5.4050e-01	-3.2020	-6.935013	0.000242	2.418455	0.819395	-0.019500
1083	5.4100e-01	-3.2582	-6.961098	0.000065	0.647043	0.219224	-0.005217
1084	5.4150e-01	-3.2919	-7.042774	0.000203	2.025986	0.686423	-0.016335
1085	5.4200e-01	-3.3384	-7.138135	0.000237	2.365419	0.801426	-0.019072
1086	5.4250e-01	-3.3817	-7.258298	0.000298	2.980640	1.009868	-0.024033
1087	5.4300e-01	-3.4186	-7.325435	0.000167	1.665340	0.564232	-0.013427
1088	5.4350e-01	-3.4732	-7.355369	0.000074	0.742508	0.251569	-0.005987
1089	5.4400e-01	-3.4828	-7.423789	0.000170	1.697161	0.575014	-0.013684
1090	5.4450e-01	-3.5229	-7.534544	0.000275	2.747280	0.930804	-0.022151
1091	5.4500e-01	-3.5823	-7.601253	0.000165	1.654732	0.560638	-0.013342
1092	5.4550e-01	-3.6111	-7.699607	0.000244	2.439669	0.826582	-0.019671
1093	5.4600e-01	-3.6464	-7.715857	0.000040	0.403076	0.136566	-0.003250
1094	5.4650e-01	-3.6737	-7.903157	0.000465	4.645979	1.574100	-0.037460
1095	5.4700e-01	-3.7459	-7.922827	0.000049	0.487934	0.165316	-0.003934
1096	5.4750e-01	-3.7828	-8.011773	0.000221	2.206310	0.747518	-0.017789
1097	5.4800e-01	-3.8084	-8.141771	0.000322	3.224607	1.092526	-0.026000
1098	5.4850e-01	-3.8838	-8.166574	0.000062	0.615221	0.208443	-0.004960
1099	5.4900e-01	-3.9127	-8.266210	0.000247	2.471491	0.837364	-0.019927
1100	5.4950e-01	-3.9384	-8.392360	0.000313	3.129141	1.060182	-0.025230
1101	5.5000e-01	-3.9657	-8.427853	0.000088	0.880402	0.298288	-0.007099
1102	5.5050e-01	-4.0234	-8.497983	0.000174	1.739590	0.589389	-0.014026
1103	5.5100e-01	-4.0635	-8.562982	0.000161	1.612303	0.546263	-0.013000
1104	5.5150e-01	-4.0860	-8.653639	0.000225	2.248739	0.761893	-0.018131
1105	5.5200e-01	-4.1341	-8.758407	0.000260	2.598778	0.880490	-0.020954
1106	5.5250e-01	-4.1822	-8.812715	0.000135	1.347122	0.456417	-0.010862
1107	5.5300e-01	-4.2079	-8.888833	0.000189	1.888092	0.639703	-0.015223
1108	5.5350e-01	-4.2560	-8.990180	0.000251	2.513920	0.851739	-0.020269
1109	5.5400e-01	-4.3009	-9.044061	0.000134	1.336515	0.452823	-0.010776
1110	5.5450e-01	-4.3378	-9.137711	0.000232	2.322990	0.787050	-0.018730
1111	5.5500e-01	-4.3796	-9.195012	0.000142	1.421373	0.481574	-0.011460
1112	5.5550e-01	-4.4293	-9.327149	0.000328	3.277643	1.110495	-0.026427
1113	5.5600e-01	-4.4726	-9.379319	0.000129	1.294086	0.438448	-0.010434
1114	5.5650e-01	-4.4870	-9.509745	0.000324	3.235214	1.096120	-0.026085
1115	5.5700e-01	-4.5368	-9.555073	0.000112	1.124369	0.380947	-0.009066
1116	5.5750e-01	-4.5737	-9.624348	0.000172	1.718376	0.582201	-0.013855
1117	5.5800e-01	-4.6202	-9.680367	0.000139	1.389551	0.470793	-0.011204
1118	5.5850e-01	-4.6667	-9.821056	0.000349	3.489788	1.182372	-0.028138
1119	5.5900e-01	-4.6956	-9.850562	0.000073	0.731901	0.247975	-0.005901
1120	5.5950e-01	-4.7437	-9.936087	0.000212	2.121452	0.718767	-0.017105
1121	5.6000e-01	-4.7566	-10.130657	0.000483	4.826302	1.635196	-0.038914
1122	5.6050e-01	-4.8159	-10.057960	-0.000180	-1.803234	-0.610952	0.014539
1123	5.6100e-01	-4.8464	-10.196511	0.000344	3.436752	1.164403	-0.027710
1124	5.6150e-01	-4.8945	-10.341476	0.000360	3.595861	1.218311	-0.028993
1125	5.6200e-01	-4.9202	-10.401343	0.000149	1.485016	0.503137	-0.011974
1126	5.6250e-01	-4.9683	-10.478316	0.000191	1.909306	0.646891	-0.015395
1127	5.6300e-01	-5.0196	-10.478316	-0.000000	-0.000000	-0.000000	0.000000
1128	5.6350e-01	-5.0389	-10.647228	0.000419	4.189867	1.419565	-0.033782
1129	5.6400e-01	-5.0533	-10.696832	0.000123	1.230442	0.416885	-0.009921
1130	5.6450e-01	-5.1496	-10.704957	0.000020	0.201538	0.068283	-0.001625
1131	5.6500e-01	-5.1688	-10.842225	0.000340	3.404930	1.153621	-0.027454
1132	5.6550e-01	-5.2138	-10.947848	0.000262	2.619993	0.887678	-0.021125
1133	5.6600e-01	-5.2587	-10.955973	0.000020	0.201538	0.068283	-0.001625
1134	5.6650e-01	-5.3228	-11.027387	0.000177	1.771412	0.600171	-0.014283
1135	5.6700e-01	-5.3228	-11.168931	0.000351	3.511002	1.189560	-0.028309
1136	5.6750e-01	-5.3742	-11.193305	0.000060	0.604614	0.204849	-0.004875
1137	5.6800e-01	-5.4111	-11.291659	0.000244	2.439669	0.826582	-0.019671
1138	5.6850e-01	-5.4720	-11.371197	0.000197	1.972950	0.668454	-0.015908
1139	5.6900e-01	-5.4977	-11.461854	0.000225	2.248739	0.761893	-0.018131
1140	5.6950e-01	-5.5490	-11.584583	0.000304	3.044283	1.031431	-0.024546
1141	5.7000e-01	-5.5843	-11.600832	0.000040	0.403076	0.136566	-0.003250
1142	5.7050e-01	-5.6180	-11.708166	0.000266	2.662422	0.902053	-0.021467
1143	5.7100e-01	-5.6838	-11.727837	0.000049	0.487934	0.165316	-0.003934
1144	5.7150e-01	-5.7143	-11.898887	0.000424	4.242903	1.437535	-0.034210
1145	5.7200e-01	-5.7303	-12.017767	0.000295	2.948818	0.999087	-0.023776
1146	5.7250e-01	-5.7656	-12.010070	-0.000019	-0.190931	-0.064689	0.001539
1147	5.7300e-01	-5.8410	-12.081911	0.000178	1.782019	0.603765	-0.014368
1148	5.7350e-01	-5.8667	-12.178126	0.000239	2.386633	0.808613	-0.019243
1149	5.7400e-01	-5.9100	-12.223882	0.000113	1.134977	0.384540	-0.009151
1150	5.7450e-01	-5.9389	-12.322664	0.000245	2.450277	0.830176	-0.019756
1151	5.7500e-01	-5.9950	-12.375689	0.000132	1.315300	0.445636	-0.010605
1152	5.7550e-01	-6.0191	-12.558713	0.000454	4.539907	1.538162	-0.036605
1153	5.7600e-01	-6.0656	-12.587364	0.000071	0.710686	0.240787	-0.005730
1154	5.7650e-01	-6.1105	-12.672461	0.000211	2.110844	0.715173	-0.017019
1155	5.7700e-01	-6.1346	-12.777229	0.000260	2.598778	0.880490	-0.020954
1156	5.7750e-01	-6.1699	-12.809301	0.000080	0.795544	0.269538	-0.006414
1157	5.7800e-01	-6.2116	-12.932885	0.000307	3.065498	1.038619	-0.024717
1158	5.7850e-01	-6.2485	-12.991042	0.000144	1.442587	0.488762	-0.011631
1159	5.7900e-01	-6.2998	-13.035515	0.000110	1.103155	0.373759	-0.008895
1160	5.7950e-01	-6.3255	-13.148408	0.000280	2.800316	0.948773	-0.022579
1161	5.8000e-01	-6.3672	-13.250183	0.000252	2.524527	0.855333	-0.020355
1162	5.8050e-01	-6.4282	-13.298932	0.000121	1.209227	0.409697	-0.009750
1163	5.8100e-01	-6.4217	-13.499916	-0.000499	-4.985411	-1.689103	-0.040197
1164	5.8150e-01	-6.4827	-13.487515	-0.000031	-0.307610	-0.104221	0.002480
1165	5.8200e-01	-6.5340	-13.514883	0.000068	0.678865	0.230006	-0.005474
1166	5.8250e-01	-6.5645	-13.630342	0.000286	2.863960	0.970336	-0.023092
1167	5.8300e-01	-6.6030	-13.771886	0.000351	3.511002	1.189560	-0.028309
1168	5.8350e-01	-6.6672	-13.715012	-0.000141	-1.410765	-0.477980	0.011375
1169	5.8400e-01	-6.6768	-13.898463	0.000455	4.550514	1.541756	-0.036690
1170	5.8450e-01	-6.7458	-13.888627	-0.000024	-0.243967	-0.082658	0.001967
1171	5.8500e-01	-6.7923	-14.029744	0.000350	3.500395	1.185966	-0.028223
1172	5.8550e-01	-6.8084	-14.068658	0.000097	0.965260	0.327039	-0.007783
1173	5.8600e-01	-6.8517	-14.134084	0.000162	1.622911	0.549857	-0.013085
1174	5.8650e-01	-6.8950	-14.270497	0.000338	3.383715	1.146434	-0.027282
1175	5.8700e-01	-6.9463	-14.288457	0.000045	0.445505	0.150941	-0.003592
1176	5.8750e-01	-6.9560	-14.368851	0.000199	1.994165	0.675641	-0.016079
1177	5.8800e-01	-7.0153	-14.493290	0.000309	3.086712	1.045806	-0.024888
1178	5.8850e-01	-7.0538	-14.565986	0.000180	1.803234	0.610952	-0.014539
1179	5.8900e-01	-7.0811	-14.715655	0.000371	3.712540	1.257843	-0.029934
1180	5.8950e-01	-7.1501	-14.702398	-0.000033	-0.328825	-0.111409	0.002651
1181	5.9000e-01	-7.1870	-14.789634	0.000216	2.163881	0.733143	-0.017447
1182	5.9050e-01	-7.2014	-14.886277	0.000240	2.397240	0.812207	-0.019329
1183	5.9100e-01	-7.2303	-15.008150	0.000302	3.023069	1.024243	-0.024375
1184	5.9150e-01	-7.3057	-15.030815	0.000056	0.562185	0.190473	-0.004533
1185	5.9200e-01	-7.3249	-15.109070	0.000194	1.941128	0.657672	-0.015651
1186	5.9250e-01	-7.3875	-15.158675	0.000123	1.230442	0.416885	-0.009921
1187	5.9300e-01	-7.4116	-15.281831	0.000305	3.054890	1.035025	-0.024631
1188	5.9350e-01	-7.4629	-15.325021	0.000107	1.071333	0.362977	-0.008638
1189	5.9400e-01	-7.4821	-15.400710	0.000188	1.877485	0.636109	-0.015138
1190	5.9450e-01	-7.5142	-15.514886	0.000283	2.832138	0.959554	-0.022835
1191	5.9500e-01	-7.5848	-15.579885	0.000161	1.612303	0.546263	-0.013000
1192	5.9550e-01	-7.6137	-15.711166	0.000326	3.256428	1.103308	-0.026256
1193	5.9600e-01	-7.6586	-15.738107	0.000067	0.668257	0.226412	-0.005388
1194	5.9650e-01	-7.6971	-15.797547	0.000147	1.474409	0.499543	-0.011888
1195	5.9700e-01	-7.7468	-15.930111	0.000329	3.288250	1.114089	-0.026513
1196	5.9750e-01	-7.7789	-15.929683	-0.000001	-0.010607	-0.003594	0.000086
1197	5.9800e-01	-7.8238	-16.028037	0.000244	2.439669	0.826582	-0.019671
1198	5.9850e-01	-7.8511	-16.127246	0.000246	2.460884	0.833770	-0.019842
1199	5.9900e-01	-7.9121	-16.163594	0.000090	0.901617	0.305476	-0.007270
1200	5.9950e-01	-7.9393	-16.230731	0.000167	1.665340	0.564232	-0.013427
1201	6.0000e-01	-7.9714	-16.337637	0.000265	2.651815	0.898459	-0.021381
1202	6.0050e-01	-8.0099	-16.415038	0.000192	1.919914	0.650484	-0.015480
1203	6.0100e-01	-8.0693	-16.482602	0.000168	1.675947	0.567826	-0.013513
1204	6.0150e-01	-8.0998	-16.621153	0.000344	3.436752	1.164403	-0.027710
1205	6.0200e-01	-8.1351	-16.700264	0.000196	1.962343	0.664860	-0.015822
1206	6.0250e-01	-8.1704	-16.727204	0.000067	0.668257	0.226412	-0.005388
1207	6.0300e-01	-8.2201	-16.837531	0.000274	2.736673	0.927210	-0.022065
1208	6.0350e-01	-8.2442	-16.937596	0.000248	2.482098	0.840958	-0.020013
1209	6.0400e-01	-8.2794	-16.958549	0.000052	0.519756	0.176098	-0.004191
1210	6.0450e-01	-8.3516	-17.029963	0.000177	1.771412	0.600171	-0.014283
1211	6.0500e-01	-8.3693	-17.130027	0.000248	2.482098	0.840958	-0.020013
1212	6.0550e-01	-8.4078	-17.244631	0.000284	2.842745	0.963148	-0.022921
1213	6.0600e-01	-8.4479	-17.348116	0.000257	2.566956	0.869708	-0.020697
1214	6.0650e-01	-8.4992	-17.295518	-0.000130	-1.304693	-0.442042	0.010520
1215	6.0700e-01	-8.5329	-17.461437	0.000412	4.115616	1.394409	-0.033184
1216	6.0750e-01	-8.5762	-17.583310	0.000302	3.023069	1.024243	-0.024375
1217	6.0800e-01	-8.6388	-17.558508	-0.000062	-0.615221	-0.208443	0.004960
1218	6.0850e-01	-8.6324	-17.714591	-0.000387	-3.871649	-1.311750	-0.031217
1219	6.0900e-01	-8.6709	-17.799688	0.000211	2.110844	0.715173	-0.017019
1220	6.0950e-01	-8.7415	-17.795840	-0.000010	-0.095465	-0.032345	0.000770
1221	6.1000e-01	-8.7768	-17.928831	0.000330	3.298857	1.117683	-0.026598
1222	6.1050e-01	-8.8104	-18.006231	0.000192	1.919914	0.650484	-0.015480
1223	6.1100e-01	-8.8554	-18.060540	0.000135	1.347122	0.456417	-0.010862
1224	6.1150e-01	-8.8730	-18.178137	0.000292	2.916996	0.988305	-0.023519
1225	6.1200e-01	-8.9452	-18.179847	0.000004	0.042429	0.014375	-0.000342
1226	6.1250e-01	-8.9677	-18.297872	0.000293	2.927603	0.991899	-0.023605
1227	6.1300e-01	-9.0126	-18.376555	0.000195	1.951736	0.661266	-0.015737
1228	6.1350e-01	-9.0735	-18.459942	0.000207	2.068415	0.700798	-0.016677
1229	6.1400e-01	-9.1040	-18.507836	0.000119	1.188013	0.402510	-0.009579
1230	6.1450e-01	-9.1409	-18.636123	0.000318	3.182177	1.078151	-0.025658
1231	6.1500e-01	-9.1826	-18.698984	0.000156	1.559267	0.528294	-0.012572
1232	6.1550e-01	-9.1971	-18.736615	0.000093	0.933439	0.316258	-0.007526
1233	6.1600e-01	-9.2468	-18.864048	0.000316	3.160963	1.070963	-0.025486
1234	6.1650e-01	-9.2917	-18.910231	0.000115	1.145584	0.388134	-0.009237
1235	6.1700e-01	-9.3575	-18.970526	0.000150	1.495623	0.506731	-0.012059
1236	6.1750e-01	-9.3783	-19.043223	0.000180	1.803234	0.610952	-0.014539
1237	6.1800e-01	-9.3928	-19.195885	0.000379	3.786791	1.283000	-0.030532
1238	6.1850e-01	-9.4329	-19.247200	0.000127	1.272871	0.431260	-0.010263
1239	6.1900e-01	-9.4826	-19.318613	0.000177	1.771412	0.600171	-0.014283
1240	6.1950e-01	-9.5259	-19.337001	0.000046	0.456112	0.154535	-0.003678
1241	6.2000e-01	-9.5869	-19.434927	0.000243	2.429062	0.822989	-0.019585
1242	6.2050e-01	-9.6142	-19.598708	0.000406	4.062580	1.376439	-0.032756
1243	6.2100e-01	-9.6479	-19.641043	0.000105	1.050119	0.355790	-0.008467
1244	6.2150e-01	-9.6912	-19.691930	0.000126	1.262264	0.427667	-0.010177
1245	6.2200e-01	-9.7136	-19.781731	0.000223	2.227524	0.754706	-0.017960
1246	6.2250e-01	-9.7682	-19.843737	0.000154	1.538052	0.521106	-0.012401
1247	6.2300e-01	-9.8243	-19.921992	0.000194	1.941128	0.657672	-0.015651
1248	6.2350e-01	-9.8436	-20.071234	0.000370	3.701933	1.254249	-0.029848
1249	6.2400e-01	-9.8805	-20.098174	0.000067	0.668257	0.226412	-0.005388
1250	6.2450e-01	-9.9398	-20.181989	0.000208	2.079023	0.704392	-0.016763
1251	6.2500e-01	-9.9719	-20.229027	0.000117	1.166798	0.395322	-0.009408
1252	6.2550e-01	-10.0265	-20.337644	0.000269	2.694244	0.912834	-0.021723
1253	6.2600e-01	-10.0393	-20.403926	0.000164	1.644125	0.557045	-0.013256
1254	6.2650e-01	-10.1067	-20.511688	0.000267	2.673029	0.905647	-0.021552
1255	6.2700e-01	-10.1307	-20.566424	0.000136	1.357729	0.460011	-0.010947
1256	6.2750e-01	-10.1965	-20.602344	0.000089	0.891010	0.301882	-0.007184
1257	6.2800e-01	-10.2190	-20.709678	0.000266	2.662422	0.902053	-0.021467
1258	6.2850e-01	-10.2671	-20.801618	0.000228	2.280561	0.772675	-0.018388
1259	6.2900e-01	-10.3008	-20.866617	0.000161	1.612303	0.546263	-0.013000
1260	6.2950e-01	-10.3264	-20.952997	0.000214	2.142666	0.725955	-0.017276
1261	6.3000e-01	-10.3826	-20.996615	0.000108	1.081940	0.366571	-0.008724
1262	6.3050e-01	-10.4163	-21.071449	0.000186	1.856270	0.628921	-0.014967
1263	6.3100e-01	-10.4307	-21.193750	0.000303	3.033676	1.027837	-0.024460
1264	6.3150e-01	-10.4885	-21.261742	0.000169	1.686554	0.571420	-0.013598
1265	6.3200e-01	-10.5350	-21.310492	0.000121	1.209227	0.409697	-0.009750
1266	6.3250e-01	-10.5671	-21.341281	0.000076	0.763723	0.258756	-0.006158
1267	6.3300e-01	-10.6264	-21.425523	0.000209	2.089630	0.707986	-0.016848
1268	6.3350e-01	-10.6425	-21.577330	0.000377	3.765577	1.275812	-0.030361
1269	6.3400e-01	-10.6681	-21.676111	0.000245	2.450277	0.830176	-0.019756
1270	6.3450e-01	-10.7179	-21.709039	0.000082	0.816759	0.276725	-0.006585
1271	6.3500e-01	-10.7724	-21.781307	0.000179	1.792627	0.607358	-0.014454
1272	6.3550e-01	-10.8093	-21.880944	0.000247	2.471491	0.837364	-0.019927
1273	6.3600e-01	-10.8703	-21.882654	0.000004	0.042429	0.014375	-0.000342
1274	6.3650e-01	-10.8863	-22.013508	0.000325	3.245821	1.099714	-0.026171
1275	6.3700e-01	-10.9232	-22.095184	0.000203	2.025986	0.686423	-0.016335
1276	6.3750e-01	-10.9938	-22.130677	0.000088	0.880402	0.298288	-0.007099
1277	6.3800e-01	-11.0082	-22.182420	0.000128	1.283478	0.434854	-0.010349
1278	6.3850e-01	-11.0435	-22.265807	0.000207	2.068415	0.700798	-0.016677
1279	6.3900e-01	-11.0965	-22.398798	0.000330	3.298857	1.117683	-0.026598
1280	6.3950e-01	-11.1205	-22.456100	0.000142	1.421373	0.481574	-0.011460
1281	6.4000e-01	-11.1799	-22.524520	0.000170	1.697161	0.575014	-0.013684
1282	6.4050e-01	-11.2232	-22.590802	0.000164	1.644125	0.557045	-0.013256
1283	6.4100e-01	-11.2489	-22.718234	0.000316	3.160963	1.070963	-0.025486
1284	6.4150e-01	-11.3098	-22.737477	0.000048	0.477327	0.161723	-0.003849
1285	6.4200e-01	-11.2906	-22.851653	-0.000283	-2.832138	-0.959554	-0.022835
1286	6.4250e-01	-11.3628	-22.955994	0.000259	2.588171	0.876896	-0.020868
1287	6.4300e-01	-11.4318	-22.987210	0.000077	0.774330	0.262350	-0.006243
1288	6.4350e-01	-11.4430	-23.053920	0.000165	1.654732	0.560638	-0.013342
1289	6.4400e-01	-11.4975	-23.126616	0.000180	1.803234	0.610952	-0.014539
1290	6.4450e-01	-11.5409	-23.153129	0.000066	0.657650	0.222818	-0.005303
1291	6.4500e-01	-11.5794	-23.309640	0.000388	3.882257	1.315344	-0.031302
1292	6.4550e-01	-11.6179	-23.341712	0.000080	0.795544	0.269538	-0.006414
1293	6.4600e-01	-11.6387	-23.458026	0.000289	2.885174	0.977523	-0.023263
1294	6.4650e-01	-11.6916	-23.540985	0.000206	2.057808	0.697204	-0.016592
1295	6.4700e-01	-11.7253	-23.569636	0.000071	0.710686	0.240787	-0.005730
1296	6.4750e-01	-11.7670	-23.682529	0.000280	2.800316	0.948773	-0.022579
1297	6.4800e-01	-11.8280	-23.694075	0.000029	0.286396	0.097034	-0.002309
1298	6.4850e-01	-11.8408	-23.892921	0.000493	4.932375	1.671134	-0.039769
1299	6.4900e-01	-11.9162	-23.807396	-0.000212	-2.121452	-0.718767	0.017105
1300	6.4950e-01	-11.9259	-23.922427	0.000285	2.853352	0.966742	-0.023006
1301	6.5000e-01	-11.9692	-24.058839	0.000338	3.383715	1.146434	-0.027282
1302	6.5050e-01	-11.9981	-24.153345	0.000234	2.344204	0.794238	-0.018901
1303	6.5100e-01	-12.0622	-24.193969	0.000101	1.007690	0.341414	-0.008125
1304	6.5150e-01	-12.0975	-24.282915	0.000221	2.206310	0.747518	-0.017789
1305	6.5200e-01	-12.1505	-24.356039	0.000181	1.813841	0.614546	-0.014625
1306	6.5250e-01	-12.1585	-24.426170	0.000174	1.739590	0.589389	-0.014026
1307	6.5300e-01	-12.2002	-24.559161	0.000330	3.298857	1.117683	-0.026598
1308	6.5350e-01	-12.2563	-24.575838	0.000041	0.413683	0.140160	-0.003335
1309	6.5400e-01	-12.2820	-24.675475	0.000247	2.471491	0.837364	-0.019927
1310	6.5450e-01	-12.3317	-24.717810	0.000105	1.050119	0.355790	-0.008467
1311	6.5500e-01	-12.3718	-24.796921	0.000196	1.962343	0.664860	-0.015822
1312	6.5550e-01	-12.4119	-24.842249	0.000112	1.124369	0.380947	-0.009066
1313	6.5600e-01	-12.4408	-24.991918	0.000371	3.712540	1.257843	-0.029934
1314	6.5650e-01	-12.5082	-25.016720	0.000062	0.615221	0.208443	-0.004960
1315	6.5700e-01	-12.5275	-25.169810	0.000380	3.797398	1.286593	-0.030618
1316	6.5750e-01	-12.5724	-25.166389	-0.000008	-0.084858	-0.028751	0.000684
1317	6.5800e-01	-12.6317	-25.241223	0.000186	1.856270	0.628921	-0.014967
1318	6.5850e-01	-12.6269	-25.379774	-0.000344	-3.436752	-1.164403	-0.027710
1319	6.5900e-01	-12.6943	-25.416122	0.000090	0.901617	0.305476	-0.007270
1320	6.5950e-01	-12.7168	-25.502502	0.000214	2.142666	0.725955	-0.017276
1321	6.6000e-01	-12.7809	-25.508061	0.000014	0.137894	0.046720	-0.001112
1322	6.6050e-01	-12.8050	-25.605560	0.000242	2.418455	0.819395	-0.019500
1323	6.6100e-01	-12.8483	-25.754801	0.000370	3.701933	1.254249	-0.029848
1324	6.6150e-01	-12.8676	-25.845030	0.000224	2.238131	0.758299	-0.018046
1325	6.6200e-01	-12.9462	-25.838188	-0.000017	-0.169716	-0.057501	0.001368
1326	6.6250e-01	-12.9526	-25.942529	0.000259	2.588171	0.876896	-0.020868
1327	6.6300e-01	-13.0216	-26.027626	0.000211	2.110844	0.715173	-0.017019
1328	6.6350e-01	-13.0569	-26.065257	0.000093	0.933439	0.316258	-0.007526
1329	6.6400e-01	-13.0857	-26.156341	0.000226	2.259346	0.765487	-0.018217
1330	6.6450e-01	-13.1162	-26.226044	0.000173	1.728983	0.585795	-0.013941
1331	6.6500e-01	-13.1740	-26.314135	0.000219	2.185095	0.740330	-0.017618
1332	6.6550e-01	-13.2125	-26.378707	0.000160	1.601696	0.542669	-0.012914
1333	6.6600e-01	-13.2494	-26.432587	0.000134	1.336515	0.452823	-0.010776
1334	6.6650e-01	-13.3023	-26.433015	0.000001	0.010607	0.003594	-0.000086
1335	6.6700e-01	-13.3151	-26.595085	0.000402	4.020151	1.362064	-0.032414
1336	6.6750e-01	-13.3472	-26.685741	0.000225	2.248739	0.761893	-0.018131
1337	6.6800e-01	-13.4146	-26.721234	0.000088	0.880402	0.298288	-0.007099
1338	6.6850e-01	-13.4403	-26.853798	0.000329	3.288250	1.114089	-0.026513
1339	6.6900e-01	-13.4916	-26.828996	-0.000062	-0.615221	-0.208443	0.004960
1340	6.6950e-01	-13.5269	-26.983796	0.000384	3.839827	1.300969	-0.030960
1341	6.7000e-01	-13.5413	-27.051361	0.000168	1.675947	0.567826	-0.013513
1342	6.7050e-01	-13.6039	-27.093696	0.000105	1.050119	0.355790	-0.008467
1343	6.7100e-01	-13.6504	-27.259615	0.000412	4.115616	1.394409	-0.033184
1344	6.7150e-01	-13.6825	-27.259615	-0.000000	-0.000000	-0.000000	0.000000
1345	6.7200e-01	-13.7274	-27.382771	0.000305	3.054890	1.035025	-0.024631
1346	6.7250e-01	-13.7900	-27.404580	0.000054	0.540970	0.183286	-0.004362
1347	6.7300e-01	-13.8124	-27.525597	0.000300	3.001854	1.017056	-0.024204
1348	6.7350e-01	-13.8654	-27.607274	0.000203	2.025986	0.686423	-0.016335
1349	6.7400e-01	-13.8911	-27.609412	0.000005	0.053036	0.017969	-0.000428
1350	6.7450e-01	-13.9424	-27.694937	0.000212	2.121452	0.718767	-0.017105
1351	6.7500e-01	-13.9857	-27.768489	0.000182	1.824448	0.618140	-0.014710
1352	6.7550e-01	-14.0130	-27.893355	0.000310	3.097319	1.049400	-0.024973
1353	6.7600e-01	-14.0627	-27.930559	0.000092	0.922831	0.312664	-0.007441
1354	6.7650e-01	-14.0948	-28.019505	0.000221	2.206310	0.747518	-0.017789
1355	6.7700e-01	-14.1509	-28.090063	0.000175	1.750198	0.592983	-0.014112
1356	6.7750e-01	-14.1654	-28.131543	0.000103	1.028904	0.348602	-0.008296
1357	6.7800e-01	-14.2247	-28.197397	0.000163	1.633518	0.553451	-0.013171
1358	6.7850e-01	-14.2536	-28.365881	0.000418	4.179260	1.415972	-0.033697
1359	6.7900e-01	-14.3017	-28.329961	-0.000089	-0.891010	-0.301882	0.007184
1360	6.7950e-01	-14.3338	-28.353480	0.000058	0.583399	0.197661	-0.004704
1361	6.8000e-01	-14.3579	-28.529234	0.000436	4.359583	1.477067	-0.035151
1362	6.8050e-01	-14.4237	-28.619035	0.000223	2.227524	0.754706	-0.017960
1363	6.8100e-01	-14.4541	-28.628871	0.000024	0.243967	0.082658	-0.001967
1364	6.8150e-01	-14.4766	-28.793506	0.000408	4.083794	1.383627	-0.032927
1365	6.8200e-01	-14.5279	-28.846104	0.000130	1.304693	0.442042	-0.010520
1366	6.8250e-01	-14.5745	-28.884163	0.000094	0.944046	0.319851	-0.007612
1367	6.8300e-01	-14.6081	-28.976102	0.000228	2.280561	0.772675	-0.018388
1368	6.8350e-01	-14.6643	-29.025279	0.000122	1.219835	0.413291	-0.009835
1369	6.8400e-01	-14.6851	-29.053075	0.000069	0.689472	0.233599	-0.005559
1370	6.8450e-01	-14.7349	-29.162975	0.000273	2.726065	0.923616	-0.021980
1371	6.8500e-01	-14.7878	-29.229684	0.000165	1.654732	0.560638	-0.013342
1372	6.8550e-01	-14.7958	-29.300670	0.000176	1.760805	0.596577	-0.014197
1373	6.8600e-01	-14.8472	-29.437510	0.000339	3.394323	1.150028	-0.027368
1374	6.8650e-01	-14.8728	-29.495240	0.000143	1.431980	0.485168	-0.011546
1375	6.8700e-01	-14.9386	-29.508496	0.000033	0.328825	0.111409	-0.002651
1376	6.8750e-01	-14.9675	-29.589745	0.000202	2.015379	0.682829	-0.016250
1377	6.8800e-01	-15.0092	-29.753953	0.000407	4.073187	1.380033	-0.032842
1378	6.8850e-01	-15.0493	-29.746683	-0.000018	-0.180323	-0.061095	0.001454
1379	6.8900e-01	-15.1135	-29.790729	0.000109	1.092548	0.370165	-0.008809
1380	6.8950e-01	-15.1472	-29.910891	0.000298	2.980640	1.009868	-0.024033
1381	6.9000e-01	-15.1728	-29.959641	0.000121	1.209227	0.409697	-0.009750
1382	6.9050e-01	-15.1969	-30.066974	0.000266	2.662422	0.902053	-0.021467
1383	6.9100e-01	-15.2498	-30.095198	0.000070	0.700079	0.237193	-0.005645
1384	6.9150e-01	-15.2964	-30.249998	0.000384	3.839827	1.300969	-0.030960
1385	6.9200e-01	-15.3429	-30.262399	0.000031	0.307610	0.104221	-0.002480
1386	6.9250e-01	-15.3782	-30.356477	0.000233	2.333597	0.790644	-0.018816
1387	6.9300e-01	-15.4231	-30.415489	0.000146	1.463802	0.495949	-0.011802
1388	6.9350e-01	-15.4648	-30.468087	0.000130	1.304693	0.442042	-0.010520
1389	6.9400e-01	-15.5065	-30.593381	0.000311	3.107927	1.052994	-0.025059
1390	6.9450e-01	-15.5113	-30.672064	0.000195	1.951736	0.661266	-0.015737
1391	6.9500e-01	-15.5659	-30.706702	0.000086	0.859188	0.291101	-0.006928
1392	6.9550e-01	-15.6012	-30.802062	0.000237	2.365419	0.801426	-0.019072
1393	6.9600e-01	-15.6718	-30.876042	0.000184	1.835056	0.621734	-0.014796
1394	6.9650e-01	-15.6910	-30.953869	0.000193	1.930521	0.654078	-0.015566
1395	6.9700e-01	-15.7295	-31.016730	0.000156	1.559267	0.528294	-0.012572
1396	6.9750e-01	-15.7712	-31.145873	0.000320	3.203392	1.085339	-0.025829
1397	6.9800e-01	-15.8209	-31.134327	-0.000029	-0.286396	-0.097034	0.002309
1398	6.9850e-01	-15.8274	-31.195478	0.000152	1.516838	0.513919	-0.012230
1399	6.9900e-01	-15.8867	-31.315640	0.000298	2.980640	1.009868	-0.024033
1400	6.9950e-01	-15.9204	-31.404586	0.000221	2.206310	0.747518	-0.017789
1401	7.0000e-01	-15.9573	-31.411001	0.000016	0.159109	0.053908	-0.001283
1402	7.0050e-01	-16.0022	-31.566656	0.000386	3.861042	1.308156	-0.031131
1403	7.0100e-01	-16.0696	-31.578630	0.000030	0.297003	0.100627	-0.002395
1404	7.0150e-01	-16.0824	-31.712049	0.000331	3.309465	1.121277	-0.026684
1405	7.0200e-01	-16.1065	-31.788166	0.000189	1.888092	0.639703	-0.015223
1406	7.0250e-01	-16.1883	-31.771489	-0.000041	-0.413683	-0.140160	0.003335
1407	7.0300e-01	-16.2220	-31.874974	0.000257	2.566956	0.869708	-0.020697
1408	7.0350e-01	-16.2637	-31.916026	0.000102	1.018297	0.345008	-0.008210
1409	7.0400e-01	-16.2814	-32.023360	0.000266	2.662422	0.902053	-0.021467
1410	7.0450e-01	-16.3519	-32.102043	0.000195	1.951736	0.661266	-0.015737
1411	7.0500e-01	-16.3744	-32.174739	0.000180	1.803234	0.610952	-0.014539
1412	7.0550e-01	-16.4209	-32.265824	0.000226	2.259346	0.765487	-0.018217
1413	7.0600e-01	-16.4594	-32.292764	0.000067	0.668257	0.226412	-0.005388
1414	7.0650e-01	-16.4995	-32.345362	0.000130	1.304693	0.442042	-0.010520
1415	7.0700e-01	-16.5188	-32.458255	0.000280	2.800316	0.948773	-0.022579
1416	7.0750e-01	-16.5846	-32.583977	0.000312	3.118534	1.056588	-0.025144
1417	7.0800e-01	-16.6215	-32.565589	-0.000046	-0.456112	-0.154535	0.003678
1418	7.0850e-01	-16.6359	-32.770421	0.000508	5.080877	1.721448	-0.040967
1419	7.0900e-01	-16.6792	-32.774270	0.000010	0.095465	0.032345	-0.000770
1420	7.0950e-01	-16.7370	-32.875190	0.000250	2.503313	0.848145	-0.020184
1421	7.1000e-01	-16.7819	-32.880321	0.000013	0.127287	0.043126	-0.001026
1422	7.1050e-01	-16.8220	-32.973116	0.000230	2.301775	0.779862	-0.018559
1423	7.1100e-01	-16.8621	-33.053937	0.000200	2.004772	0.679235	-0.016164
1424	7.1150e-01	-16.8813	-33.139034	0.000211	2.110844	0.715173	-0.017019
1425	7.1200e-01	-16.9567	-33.233112	0.000233	2.333597	0.790644	-0.018816
1426	7.1250e-01	-16.9760	-33.216862	-0.000040	-0.403076	-0.136566	0.003250
1427	7.1300e-01	-16.9952	-33.318637	0.000252	2.524527	0.855333	-0.020355
1428	7.1350e-01	-17.0434	-33.415708	0.000241	2.407848	0.815801	-0.019414
1429	7.1400e-01	-17.0706	-33.526463	0.000275	2.747280	0.930804	-0.022151
1430	7.1450e-01	-17.1284	-33.602580	0.000189	1.888092	0.639703	-0.015223
1431	7.1500e-01	-17.1653	-33.620113	0.000043	0.434898	0.147347	-0.003507
1432	7.1550e-01	-17.2118	-33.701362	0.000202	2.015379	0.682829	-0.016250
1433	7.1600e-01	-17.2583	-33.761657	0.000150	1.495623	0.506731	-0.012059
1434	7.1650e-01	-17.3145	-33.830505	0.000171	1.707769	0.578608	-0.013770
1435	7.1700e-01	-17.3402	-33.933990	0.000257	2.566956	0.869708	-0.020697
1436	7.1750e-01	-17.3915	-33.990436	0.000140	1.400158	0.474386	-0.011289
1437	7.1800e-01	-17.4268	-34.013528	0.000057	0.572792	0.194067	-0.004618
1438	7.1850e-01	-17.4460	-34.128132	0.000284	2.842745	0.963148	-0.022921
1439	7.1900e-01	-17.4942	-34.202111	0.000184	1.835056	0.621734	-0.014796
1440	7.1950e-01	-17.5503	-34.282077	0.000198	1.983557	0.672047	-0.015993
1441	7.2000e-01	-17.5680	-34.363326	0.000202	2.015379	0.682829	-0.016250
1442	7.2050e-01	-17.6049	-34.395825	0.000081	0.806152	0.273132	-0.006500
1443	7.2100e-01	-17.6947	-34.458258	0.000155	1.548660	0.524700	-0.012487
1444	7.2150e-01	-17.6915	-34.538652	-0.000199	-1.994165	-0.675641	-0.016079
1445	7.2200e-01	-17.7316	-34.676775	0.000343	3.426144	1.160809	-0.027625
1446	7.2250e-01	-17.7492	-34.714834	0.000094	0.944046	0.319851	-0.007612
1447	7.2300e-01	-17.7990	-34.797365	0.000205	2.047201	0.693610	-0.016506
1448	7.2350e-01	-17.8503	-34.859371	0.000154	1.538052	0.521106	-0.012401
1449	7.2400e-01	-17.8952	-34.932067	0.000180	1.803234	0.610952	-0.014539
1450	7.2450e-01	-17.9337	-35.004764	0.000180	1.803234	0.610952	-0.014539
1451	7.2500e-01	-17.9706	-35.075749	0.000176	1.760805	0.596577	-0.014197
1452	7.2550e-01	-18.0091	-35.106111	0.000075	0.753115	0.255162	-0.006072
1453	7.2600e-01	-18.0556	-35.201044	0.000235	2.354811	0.797832	-0.018987
1454	7.2650e-01	-18.0925	-35.305812	0.000260	2.598778	0.880490	-0.020954
1455	7.2700e-01	-18.1310	-35.393047	0.000216	2.163881	0.733143	-0.017447
1456	7.2750e-01	-18.1615	-35.421698	0.000071	0.710686	0.240787	-0.005730
1457	7.2800e-01	-18.2177	-35.518769	0.000241	2.407848	0.815801	-0.019414
1458	7.2850e-01	-18.2514	-35.554262	0.000088	0.880402	0.298288	-0.007099
1459	7.2900e-01	-18.2915	-35.659458	0.000261	2.609386	0.884084	-0.021039
1460	7.2950e-01	-18.3428	-35.773634	0.000283	2.832138	0.959554	-0.022835
1461	7.3000e-01	-18.3749	-35.786463	0.000032	0.318218	0.107815	-0.002566
1462	7.3050e-01	-18.3861	-35.825804	0.000098	0.975868	0.330633	-0.007868
1463	7.3100e-01	-18.4439	-35.940408	0.000284	2.842745	0.963148	-0.022921
1464	7.3150e-01	-18.4808	-35.969914	0.000073	0.731901	0.247975	-0.005901
1465	7.3200e-01	-18.5337	-36.106754	0.000339	3.394323	1.150028	-0.027368
1466	7.3250e-01	-18.5834	-36.152082	0.000112	1.124369	0.380947	-0.009066
1467	7.3300e-01	-18.6059	-36.208101	0.000139	1.389551	0.470793	-0.011204
1468	7.3350e-01	-18.6428	-36.285074	0.000191	1.909306	0.646891	-0.015395
1469	7.3400e-01	-18.6733	-36.445433	0.000398	3.977722	1.347689	-0.032072
1470	7.3450e-01	-18.7423	-36.432604	-0.000032	-0.318218	-0.107815	0.002566
1471	7.3500e-01	-18.7615	-36.550201	0.000292	2.916996	0.988305	-0.023519
1472	7.3550e-01	-18.8305	-36.592109	0.000104	1.039511	0.352196	-0.008381
1473	7.3600e-01	-18.8529	-36.631878	0.000099	0.986475	0.334227	-0.007954
1474	7.3650e-01	-18.9059	-36.731514	0.000247	2.471491	0.837364	-0.019927
1475	7.3700e-01	-18.9235	-36.796513	0.000161	1.612303	0.546263	-0.013000
1476	7.3750e-01	-18.9813	-36.885460	0.000221	2.206310	0.747518	-0.017789
1477	7.3800e-01	-19.0230	-36.917531	0.000080	0.795544	0.269538	-0.006414
1478	7.3850e-01	-19.0631	-36.961577	0.000109	1.092548	0.370165	-0.008809
1479	7.3900e-01	-19.0920	-37.092858	0.000326	3.256428	1.103308	-0.026256
1480	7.3950e-01	-19.1257	-37.185652	0.000230	2.301775	0.779862	-0.018559
1481	7.4000e-01	-19.1481	-37.245520	0.000149	1.485016	0.503137	-0.011974
1482	7.4050e-01	-19.2203	-37.276737	0.000077	0.774330	0.262350	-0.006243
1483	7.4100e-01	-19.2684	-37.401176	0.000309	3.086712	1.045806	-0.024888
1484	7.4150e-01	-19.2973	-37.465319	0.000159	1.591089	0.539075	-0.012829
1485	7.4200e-01	-19.2941	-37.596173	-0.000325	-3.245821	-1.099714	-0.026171
1486	7.4250e-01	-19.3647	-37.632521	0.000090	0.901617	0.305476	-0.007270
1487	7.4300e-01	-19.4016	-37.685546	0.000132	1.315300	0.445636	-0.010605
1488	7.4350e-01	-19.4642	-37.729164	0.000108	1.081940	0.366571	-0.008724
1489	7.4400e-01	-19.4866	-37.848472	0.000296	2.959425	1.002680	-0.023861
1490	7.4450e-01	-19.5187	-37.880971	0.000081	0.806152	0.273132	-0.006500
1491	7.4500e-01	-19.5460	-37.998568	0.000292	2.916996	0.988305	-0.023519
1492	7.4550e-01	-19.5973	-38.076824	0.000194	1.941128	0.657672	-0.015651
1493	7.4600e-01	-19.6583	-38.105047	0.000070	0.700079	0.237193	-0.005645
1494	7.4650e-01	-19.7016	-38.170901	0.000163	1.633518	0.553451	-0.013171
1495	7.4700e-01	-19.7160	-38.269683	0.000245	2.450277	0.830176	-0.019756
1496	7.4750e-01	-19.7834	-38.346655	0.000191	1.909306	0.646891	-0.015395
1497	7.4800e-01	-19.8075	-38.386424	0.000099	0.986475	0.334227	-0.007954
1498	7.4850e-01	-19.8428	-38.498462	0.000278	2.779102	0.941585	-0.022408
1499	7.4900e-01	-19.8941	-38.566882	0.000170	1.697161	0.575014	-0.013684
1500	7.4950e-01	-19.9246	-38.657966	0.000226	2.259346	0.765487	-0.018217
1501	7.5000e-01	-19.9759	-38.699446	0.000103	1.028904	0.348602	-0.008296
1502	7.5050e-01	-19.8925	-38.729807	-0.000075	-0.753115	-0.255162	-0.006072
1503	7.5100e-01	-19.8492	-38.618197	0.000277	2.768494	0.937991	0.022322
1504	7.5150e-01	-19.8347	-38.543790	0.000185	1.845663	0.625328	0.014881
1505	7.5200e-01	-19.8059	-38.463824	0.000198	1.983557	0.672047	0.015993
1506	7.5250e-01	-19.7417	-38.459548	0.000011	0.106073	0.035938	0.000855
1507	7.5300e-01	-19.6904	-38.454844	0.000012	0.116680	0.039532	0.000941
1508	7.5350e-01	-19.6904	-38.332116	-0.000304	-3.044283	-1.031431	0.024546
1509	7.5400e-01	-19.6069	-38.298333	0.000084	0.837973	0.283913	0.006756
1510	7.5450e-01	-19.5700	-38.288070	0.000025	0.254574	0.086252	0.002053
1511	7.5500e-01	-19.5524	-38.198269	0.000223	2.227524	0.754706	0.017960
1512	7.5550e-01	-19.5075	-38.125573	0.000180	1.803234	0.610952	0.014539
1513	7.5600e-01	-19.4674	-38.081100	0.000110	1.103155	0.373759	0.008895
1514	7.5650e-01	-19.4224	-38.007976	0.000181	1.813841	0.614546	0.014625
1515	7.5700e-01	-19.4016	-38.020805	-0.000032	-0.318218	-0.107815	-0.002566
1516	7.5750e-01	-19.3519	-37.929293	0.000227	2.269953	0.769081	0.018302
1517	7.5800e-01	-19.3182	-37.828801	0.000249	2.492706	0.844552	0.020098
1518	7.5850e-01	-19.2700	-37.753539	0.000187	1.866877	0.632515	0.015052
1519	7.5900e-01	-19.2331	-37.746697	0.000017	0.169716	0.057501	0.001368
1520	7.5950e-01	-19.1914	-37.685546	0.000152	1.516838	0.513919	0.012230
1521	7.6000e-01	-19.1449	-37.641501	0.000109	1.092548	0.370165	0.008809
1522	7.6050e-01	-19.1016	-37.529036	0.000279	2.789709	0.945179	0.022493
1523	7.6100e-01	-19.0695	-37.525187	0.000010	0.095465	0.032345	0.000770
1524	7.6150e-01	-19.0567	-37.499102	0.000065	0.647043	0.219224	0.005217
1525	7.6200e-01	-18.9941	-37.399037	0.000248	2.482098	0.840958	0.020013
1526	7.6250e-01	-18.9508	-37.377656	0.000053	0.530363	0.179692	0.004276
1527	7.6300e-01	-18.8898	-37.318644	0.000146	1.463802	0.495949	0.011802
1528	7.6350e-01	-18.8529	-37.248941	0.000173	1.728983	0.585795	0.013941
1529	7.6400e-01	-18.8449	-37.197198	0.000128	1.283478	0.434854	0.010349
1530	7.6450e-01	-18.7791	-37.133482	0.000158	1.580481	0.535482	0.012743
1531	7.6500e-01	-18.7471	-37.045819	0.000217	2.174488	0.736736	0.017533
1532	7.6550e-01	-18.7166	-36.965425	0.000199	1.994165	0.675641	0.016079
1533	7.6600e-01	-18.6556	-36.991938	-0.000066	-0.657650	-0.222818	-0.005303
1534	7.6650e-01	-18.6300	-36.830723	0.000400	3.998936	1.354876	0.032243
1535	7.6700e-01	-18.5995	-36.778126	0.000130	1.304693	0.442042	0.010520
1536	7.6750e-01	-18.5401	-36.780264	-0.000005	-0.053036	-0.017969	-0.000428
1537	7.6800e-01	-18.4792	-36.694739	0.000212	2.121452	0.718767	0.017105
1538	7.6850e-01	-18.4487	-36.681055	0.000034	0.339432	0.115003	0.002737
1539	7.6900e-01	-18.4294	-36.512143	0.000419	4.189867	1.419565	0.033782
1540	7.6950e-01	-18.3941	-36.500169	0.000030	0.297003	0.100627	0.002395
1541	7.7000e-01	-18.3348	-36.438591	0.000153	1.527445	0.517512	0.012316
1542	7.7050e-01	-18.2979	-36.376158	0.000155	1.548660	0.524700	0.012487
1543	7.7100e-01	-18.2690	-36.363757	0.000031	0.307610	0.104221	0.002480
1544	7.7150e-01	-18.2401	-36.271390	0.000229	2.291168	0.776269	0.018473
1545	7.7200e-01	-18.1952	-36.176884	0.000234	2.344204	0.794238	0.018901
1546	7.7250e-01	-18.1455	-36.140109	0.000091	0.912224	0.309070	0.007355
1547	7.7300e-01	-18.1070	-36.048169	0.000228	2.280561	0.772675	0.018388
1548	7.7350e-01	-18.0877	-35.986591	0.000153	1.527445	0.517512	0.012316
1549	7.7400e-01	-18.0396	-35.919026	0.000168	1.675947	0.567826	0.013513
1550	7.7450e-01	-18.0027	-35.847185	0.000178	1.782019	0.603765	0.014368
1551	7.7500e-01	-17.9321	-35.839916	0.000018	0.180323	0.061095	0.001454
1552	7.7550e-01	-17.9209	-35.716332	0.000307	3.065498	1.038619	0.024717
1553	7.7600e-01	-17.8776	-35.678273	0.000094	0.944046	0.319851	0.007612
1554	7.7650e-01	-17.8054	-35.676135	0.000005	0.053036	0.017969	0.000428
1555	7.7700e-01	-17.7861	-35.577354	0.000245	2.450277	0.830176	0.019756
1556	7.7750e-01	-17.7332	-35.470875	0.000264	2.641207	0.894865	0.021296
1557	7.7800e-01	-17.6963	-35.461467	0.000023	0.233360	0.079064	0.001882
1558	7.7850e-01	-17.6658	-35.328476	0.000330	3.298857	1.117683	0.026598
1559	7.7900e-01	-17.6257	-35.266898	0.000153	1.527445	0.517512	0.012316
1560	7.7950e-01	-17.6016	-35.284430	-0.000043	-0.434898	-0.147347	-0.003507
1561	7.8000e-01	-17.5391	-35.166406	0.000293	2.927603	0.991899	0.023605
1562	7.8050e-01	-17.4990	-35.166834	-0.000001	-0.010607	-0.003594	-0.000086
1563	7.8100e-01	-17.4861	-34.974402	0.000477	4.773266	1.617226	0.038486
1564	7.8150e-01	-17.4380	-34.946607	0.000069	0.689472	0.233599	0.005559
1565	7.8200e-01	-17.3979	-34.952166	-0.000014	-0.137894	-0.046720	-0.001112
1566	7.8250e-01	-17.3337	-34.870489	0.000203	2.025986	0.686423	0.016335
1567	7.8300e-01	-17.3177	-34.773418	0.000241	2.407848	0.815801	0.019414
1568	7.8350e-01	-17.2599	-34.780688	-0.000018	-0.180323	-0.061095	-0.001454
1569	7.8400e-01	-17.2535	-34.675064	0.000262	2.619993	0.887678	0.021125
1570	7.8450e-01	-17.1990	-34.554047	0.000300	3.001854	1.017056	0.024204
1571	7.8500e-01	-17.1236	-34.554047	0.000000	0.000000	0.000000	0.000000
1572	7.8550e-01	-17.1156	-34.436022	0.000293	2.927603	0.991899	0.023605
1573	7.8600e-01	-17.0803	-34.417206	0.000047	0.466719	0.158129	0.003763
1574	7.8650e-01	-17.0241	-34.361615	0.000138	1.378944	0.467199	0.011118
1575	7.8700e-01	-16.9856	-34.348359	0.000033	0.328825	0.111409	0.002651
1576	7.8750e-01	-16.9407	-34.169611	0.000443	4.433834	1.502224	0.035749
1577	7.8800e-01	-16.9086	-34.175171	-0.000014	-0.137894	-0.046720	-0.001112
1578	7.8850e-01	-16.8685	-34.059284	0.000287	2.874567	0.973930	0.023177
1579	7.8900e-01	-16.8541	-34.058856	0.000001	0.010607	0.003594	0.000086
1580	7.8950e-01	-16.7883	-33.991292	0.000168	1.675947	0.567826	0.013513
1581	7.9000e-01	-16.7658	-33.886523	0.000260	2.598778	0.880490	0.020954
1582	7.9050e-01	-16.6792	-33.854879	0.000078	0.784937	0.265944	0.006329
1583	7.9100e-01	-16.6776	-33.773203	0.000203	2.025986	0.686423	0.016335
1584	7.9150e-01	-16.6423	-33.704783	0.000170	1.697161	0.575014	0.013684
1585	7.9200e-01	-16.5781	-33.715473	-0.000027	-0.265181	-0.089846	-0.002138
1586	7.9250e-01	-16.5364	-33.637218	0.000194	1.941128	0.657672	0.015651
1587	7.9300e-01	-16.5268	-33.478997	0.000392	3.924686	1.329719	0.031644
1588	7.9350e-01	-16.4594	-33.434951	0.000109	1.092548	0.370165	0.008809
1589	7.9400e-01	-16.4129	-33.346860	0.000219	2.185095	0.740330	0.017618
1590	7.9450e-01	-16.3921	-33.358406	-0.000029	-0.286396	-0.097034	-0.002309
1591	7.9500e-01	-16.3359	-33.253638	0.000260	2.598778	0.880490	0.020954
1592	7.9550e-01	-16.3150	-33.165547	0.000219	2.185095	0.740330	0.017618
1593	7.9600e-01	-16.2525	-33.118508	0.000117	1.166798	0.395322	0.009408
1594	7.9650e-01	-16.2429	-33.073608	0.000111	1.113762	0.377353	0.008980
1595	7.9700e-01	-16.2060	-32.994925	0.000195	1.951736	0.661266	0.015737
1596	7.9750e-01	-16.1739	-32.870913	0.000308	3.076105	1.042213	0.024802
1597	7.9800e-01	-16.1001	-32.857229	0.000034	0.339432	0.115003	0.002737
1598	7.9850e-01	-16.0808	-32.762297	0.000235	2.354811	0.797832	0.018987
1599	7.9900e-01	-16.0568	-32.646410	0.000287	2.874567	0.973930	0.023177
1600	7.9950e-01	-15.9782	-32.663088	-0.000041	-0.413683	-0.140160	-0.003335
1601	8.0000e-01	-15.9461	-32.623318	0.000099	0.986475	0.334227	0.007954
1602	8.0050e-01	-15.8787	-32.571576	0.000128	1.283478	0.434854	0.010349
1603	8.0100e-01	-15.8675	-32.480064	0.000227	2.269953	0.769081	0.018302
1604	8.0150e-01	-15.7808	-32.482630	-0.000006	-0.063644	-0.021563	-0.000513
1605	8.0200e-01	-15.7921	-32.298323	-0.000457	-4.571728	-1.548943	0.036861
1606	8.0250e-01	-15.7664	-32.215364	0.000206	2.057808	0.697204	0.016592
1607	8.0300e-01	-15.7167	-32.152931	0.000155	1.548660	0.524700	0.012487
1608	8.0350e-01	-15.6669	-32.096056	0.000141	1.410765	0.477980	0.011375
1609	8.0400e-01	-15.6284	-32.055004	0.000102	1.018297	0.345008	0.008210
1610	8.0450e-01	-15.5964	-32.058853	-0.000010	-0.095465	-0.032345	-0.000770
1611	8.0500e-01	-15.5482	-31.932276	0.000314	3.139748	1.063776	0.025315
1612	8.0550e-01	-15.4857	-31.925006	0.000018	0.180323	0.061095	0.001454
1613	8.0600e-01	-15.4456	-31.777476	0.000366	3.659504	1.239874	0.029506
1614	8.0650e-01	-15.4199	-31.740700	0.000091	0.912224	0.309070	0.007355
1615	8.0700e-01	-15.3910	-31.614550	0.000313	3.129141	1.060182	0.025230
1616	8.0750e-01	-15.3493	-31.586327	0.000070	0.700079	0.237193	0.005645
1617	8.0800e-01	-15.3108	-31.519618	0.000165	1.654732	0.560638	0.013342
1618	8.0850e-01	-15.2691	-31.463171	0.000140	1.400158	0.474386	0.011289
1619	8.0900e-01	-15.2434	-31.405442	0.000143	1.431980	0.485168	0.011546
1620	8.0950e-01	-15.1921	-31.314357	0.000226	2.259346	0.765487	0.018217
1621	8.1000e-01	-15.1536	-31.276726	0.000093	0.933439	0.316258	0.007526
1622	8.1050e-01	-15.1055	-31.178373	0.000244	2.439669	0.826582	0.019671
1623	8.1100e-01	-15.0734	-31.158702	0.000049	0.487934	0.165316	0.003934
1624	8.1150e-01	-15.0268	-31.027421	0.000326	3.256428	1.103308	0.026256
1625	8.1200e-01	-14.9739	-31.030842	-0.000008	-0.084858	-0.028751	-0.000684
1626	8.1250e-01	-14.9531	-30.885022	0.000362	3.617075	1.225498	0.029164
1627	8.1300e-01	-14.9146	-30.831996	0.000132	1.315300	0.445636	0.010605
1628	8.1350e-01	-14.8392	-30.803345	0.000071	0.710686	0.240787	0.005730
1629	8.1400e-01	-14.8247	-30.732359	0.000176	1.760805	0.596577	0.014197
1630	8.1450e-01	-14.7589	-30.682755	0.000123	1.230442	0.416885	0.009921
1631	8.1500e-01	-14.7445	-30.593381	0.000222	2.216917	0.751112	0.017875
1632	8.1550e-01	-14.6948	-30.506573	0.000215	2.153273	0.729549	0.017362
1633	8.1600e-01	-14.6547	-30.444995	0.000153	1.527445	0.517512	0.012316
1634	8.1650e-01	-14.6130	-30.415917	0.000072	0.721294	0.244381	0.005816
1635	8.1700e-01	-14.5777	-30.320129	0.000238	2.376026	0.805019	0.019158
1636	8.1750e-01	-14.5472	-30.315425	0.000012	0.116680	0.039532	0.000941
1637	8.1800e-01	-14.5039	-30.185854	0.000321	3.213999	1.088932	0.025914
1638	8.1850e-01	-14.4606	-30.058422	0.000316	3.160963	1.070963	0.025486
1639	8.1900e-01	-14.4397	-30.054573	0.000010	0.095465	0.032345	0.000770
1640	8.1950e-01	-14.3803	-29.970331	0.000209	2.089630	0.707986	0.016848
1641	8.2000e-01	-14.3483	-29.919016	0.000127	1.272871	0.431260	0.010263
1642	8.2050e-01	-14.3065	-29.833919	0.000211	2.110844	0.715173	0.017019
1643	8.2100e-01	-14.2648	-29.766354	0.000168	1.675947	0.567826	0.013513
1644	8.2150e-01	-14.2135	-29.718888	0.000118	1.177406	0.398916	0.009493
1645	8.2200e-01	-14.1910	-29.628659	0.000224	2.238131	0.758299	0.018046
1646	8.2250e-01	-14.1413	-29.529022	0.000247	2.471491	0.837364	0.019927
1647	8.2300e-01	-14.1124	-29.539285	-0.000025	-0.254574	-0.086252	-0.002053
1648	8.2350e-01	-14.0627	-29.419550	0.000297	2.970032	1.006274	0.023947
1649	8.2400e-01	-13.9889	-29.396886	0.000056	0.562185	0.190473	0.004533
1650	8.2450e-01	-13.9889	-29.361820	-0.000087	-0.869795	-0.294695	0.007013
1651	8.2500e-01	-13.9215	-29.298104	0.000158	1.580481	0.535482	0.012743
1652	8.2550e-01	-13.8911	-29.177942	0.000298	2.980640	1.009868	0.024033
1653	8.2600e-01	-13.8590	-29.056924	0.000300	3.001854	1.017056	0.024204
1654	8.2650e-01	-13.8526	-28.970971	0.000213	2.132059	0.722361	0.017191
1655	8.2700e-01	-13.7884	-28.934623	0.000090	0.901617	0.305476	0.007270
1656	8.2750e-01	-13.7483	-28.904261	0.000075	0.753115	0.255162	0.006072
1657	8.2800e-01	-13.7194	-28.798210	0.000263	2.630600	0.891271	0.021210
1658	8.2850e-01	-13.6552	-28.758014	0.000100	0.997082	0.337821	0.008039
1659	8.2900e-01	-13.6264	-28.684890	0.000181	1.813841	0.614546	0.014625
1660	8.2950e-01	-13.5798	-28.603213	0.000203	2.025986	0.686423	0.016335
1661	8.3000e-01	-13.5221	-28.584398	0.000047	0.466719	0.158129	0.003763
1662	8.3050e-01	-13.5060	-28.493741	0.000225	2.248739	0.761893	0.018131
1663	8.3100e-01	-13.4515	-28.403512	0.000224	2.238131	0.758299	0.018046
1664	8.3150e-01	-13.4467	-28.353908	0.000123	1.230442	0.416885	0.009921
1665	8.3200e-01	-13.3969	-28.294040	0.000149	1.485016	0.503137	0.011974
1666	8.3250e-01	-13.3360	-28.202956	0.000226	2.259346	0.765487	0.018217
1667	8.3300e-01	-13.3055	-28.122562	0.000199	1.994165	0.675641	0.016079
1668	8.3350e-01	-13.2654	-27.995130	0.000316	3.160963	1.070963	0.025486
1669	8.3400e-01	-13.2221	-28.006676	-0.000029	-0.286396	-0.097034	-0.002309
1670	8.3450e-01	-13.2060	-27.846316	0.000398	3.977722	1.347689	0.032072
1671	8.3500e-01	-13.1515	-27.840757	0.000014	0.137894	0.046720	0.001112
1672	8.3550e-01	-13.1018	-27.811251	0.000073	0.731901	0.247975	0.005901
1673	8.3600e-01	-13.0617	-27.631221	0.000447	4.465656	1.513005	0.036006
1674	8.3650e-01	-13.0103	-27.649609	-0.000046	-0.456112	-0.154535	-0.003678
1675	8.3700e-01	-13.0087	-27.568360	0.000202	2.015379	0.682829	0.016250
1676	8.3750e-01	-12.9430	-27.476421	0.000228	2.280561	0.772675	0.018388
1677	8.3800e-01	-12.8996	-27.374218	0.000254	2.535135	0.858927	0.020440
1678	8.3850e-01	-12.8659	-27.365238	0.000022	0.222752	0.075471	0.001796
1679	8.3900e-01	-12.8483	-27.195898	0.000420	4.200474	1.423159	0.033868
1680	8.3950e-01	-12.7825	-27.249779	-0.000134	-1.336515	-0.452823	-0.010776
1681	8.4000e-01	-12.7585	-27.148004	0.000252	2.524527	0.855333	0.020355
1682	8.4050e-01	-12.6911	-27.154846	-0.000017	-0.169716	-0.057501	-0.001368
1683	8.4100e-01	-12.6574	-27.005605	0.000370	3.701933	1.254249	0.029848
1684	8.4150e-01	-12.6205	-26.917087	0.000220	2.195702	0.743924	0.017704
1685	8.4200e-01	-12.5996	-26.921791	-0.000012	-0.116680	-0.039532	-0.000941
1686	8.4250e-01	-12.5515	-26.825575	0.000239	2.386633	0.808613	0.019243
1687	8.4300e-01	-12.4922	-26.729787	0.000238	2.376026	0.805019	0.019158
1688	8.4350e-01	-12.4665	-26.689590	0.000100	0.997082	0.337821	0.008039
1689	8.4400e-01	-12.4184	-26.609624	0.000198	1.983557	0.672047	0.015993
1690	8.4450e-01	-12.3847	-26.554888	0.000136	1.357729	0.460011	0.010947
1691	8.4500e-01	-12.3430	-26.513408	0.000103	1.028904	0.348602	0.008296
1692	8.4550e-01	-12.3029	-26.335944	0.000440	4.402012	1.491442	0.035493
1693	8.4600e-01	-12.2836	-26.349628	-0.000034	-0.339432	-0.115003	-0.002737
1694	8.4650e-01	-12.2243	-26.235880	0.000282	2.821531	0.955960	0.022750
1695	8.4700e-01	-12.1793	-26.193117	0.000106	1.060726	0.359384	0.008553
1696	8.4750e-01	-12.1553	-26.102033	0.000226	2.259346	0.765487	0.018217
1697	8.4800e-01	-12.1136	-26.057560	0.000110	1.103155	0.373759	0.008895
1698	8.4850e-01	-12.0606	-25.994271	0.000157	1.569874	0.531888	0.012658
1699	8.4900e-01	-12.0125	-25.811675	0.000453	4.529299	1.534568	0.036519
1700	8.4950e-01	-11.9644	-25.833484	-0.000054	-0.540970	-0.183286	-0.004362
1701	8.5000e-01	-11.9419	-25.792005	0.000103	1.028904	0.348602	0.008296
1702	8.5050e-01	-11.8954	-25.647467	0.000359	3.585253	1.214717	0.028907
1703	8.5100e-01	-11.8457	-25.658158	-0.000027	-0.265181	-0.089846	-0.002138
1704	8.5150e-01	-11.8328	-25.517042	0.000350	3.500395	1.185966	0.028223
1705	8.5200e-01	-11.7863	-25.495233	0.000054	0.540970	0.183286	0.004362
1706	8.5250e-01	-11.7382	-25.407997	0.000216	2.163881	0.733143	0.017447
1707	8.5300e-01	-11.7109	-25.319906	0.000219	2.185095	0.740330	0.017618
1708	8.5350e-01	-11.6435	-25.327604	-0.000019	-0.190931	-0.064689	-0.001539
1709	8.5400e-01	-11.6355	-25.146290	0.000450	4.497477	1.523787	0.036263
1710	8.5450e-01	-11.5906	-25.124909	0.000053	0.530363	0.179692	0.004276
1711	8.5500e-01	-11.5441	-25.057772	0.000167	1.665340	0.564232	0.013427
1712	8.5550e-01	-11.4927	-24.968826	0.000221	2.206310	0.747518	0.017789
1713	8.5600e-01	-11.4767	-24.903399	0.000162	1.622911	0.549857	0.013085
1714	8.5650e-01	-11.4189	-24.831558	0.000178	1.782019	0.603765	0.014368
1715	8.5700e-01	-11.3981	-24.734487	0.000241	2.407848	0.815801	0.019414
1716	8.5750e-01	-11.3371	-24.713106	0.000053	0.530363	0.179692	0.004276
1717	8.5800e-01	-11.3147	-24.612186	0.000250	2.503313	0.848145	0.020184
1718	8.5850e-01	-11.3018	-24.510412	0.000252	2.524527	0.855333	0.020355
1719	8.5900e-01	-11.2216	-24.504425	0.000015	0.148502	0.050314	0.001197
1720	8.5950e-01	-11.1687	-24.415906	0.000220	2.195702	0.743924	0.017704
1721	8.6000e-01	-11.1590	-24.341500	0.000185	1.845663	0.625328	0.014881
1722	8.6050e-01	-11.0997	-24.243574	0.000243	2.429062	0.822989	0.019585
1723	8.6100e-01	-11.0660	-24.207653	0.000089	0.891010	0.301882	0.007184
1724	8.6150e-01	-11.0195	-24.139661	0.000169	1.686554	0.571420	0.013598
1725	8.6200e-01	-10.9986	-24.078938	0.000151	1.506231	0.510325	0.012145
1726	8.6250e-01	-10.9649	-23.947657	0.000326	3.256428	1.103308	0.026256
1727	8.6300e-01	-10.9136	-23.898480	0.000122	1.219835	0.413291	0.009835
1728	8.6350e-01	-10.8815	-23.865125	0.000083	0.827366	0.280319	0.006671
1729	8.6400e-01	-10.8045	-23.793284	0.000178	1.782019	0.603765	0.014368
1730	8.6450e-01	-10.7740	-23.697924	0.000237	2.365419	0.801426	0.019072
1731	8.6500e-01	-10.7548	-23.595294	0.000255	2.545742	0.862521	0.020526
1732	8.6550e-01	-10.6970	-23.526446	0.000171	1.707769	0.578608	0.013770
1733	8.6600e-01	-10.6617	-23.488815	0.000093	0.933439	0.316258	0.007526
1734	8.6650e-01	-10.6264	-23.396020	0.000230	2.301775	0.779862	0.018559
1735	8.6700e-01	-10.5831	-23.307929	0.000219	2.185095	0.740330	0.017618
1736	8.6750e-01	-10.5334	-23.215562	0.000229	2.291168	0.776269	0.018473
1737	8.6800e-01	-10.5206	-23.200168	0.000038	0.381861	0.129378	0.003079
1738	8.6850e-01	-10.4676	-23.147570	0.000130	1.304693	0.442042	0.010520
1739	8.6900e-01	-10.4339	-22.983362	0.000407	4.073187	1.380033	0.032842
1740	8.6950e-01	-10.4034	-22.957704	0.000064	0.636435	0.215630	0.005132
1741	8.7000e-01	-10.3505	-22.903396	0.000135	1.347122	0.456417	0.010862
1742	8.7050e-01	-10.3136	-22.800338	0.000256	2.556349	0.866115	0.020612
1743	8.7100e-01	-10.2751	-22.783233	0.000042	0.424290	0.143753	0.003421
1744	8.7150e-01	-10.2302	-22.653235	0.000322	3.224607	1.092526	0.026000
1745	8.7200e-01	-10.1949	-22.552316	0.000250	2.503313	0.848145	0.020184
1746	8.7250e-01	-10.1388	-22.525375	0.000067	0.668257	0.226412	0.005388
1747	8.7300e-01	-10.0906	-22.512974	0.000031	0.307610	0.104221	0.002480
1748	8.7350e-01	-10.0762	-22.338075	0.000434	4.338369	1.469879	0.034980
1749	8.7400e-01	-10.0168	-22.372713	-0.000086	-0.859188	-0.291101	-0.006928
1750	8.7450e-01	-9.9896	-22.226893	0.000362	3.617075	1.225498	0.029164
1751	8.7500e-01	-9.9270	-22.172584	0.000135	1.347122	0.456417	0.010862
1752	8.7550e-01	-9.8901	-22.148637	0.000059	0.594006	0.201255	0.004789
1753	8.7600e-01	-9.8660	-22.043014	0.000262	2.619993	0.887678	0.021125
1754	8.7650e-01	-9.8259	-21.908740	0.000333	3.330679	1.128465	0.026855
1755	8.7700e-01	-9.7762	-21.891634	0.000042	0.424290	0.143753	0.003421
1756	8.7750e-01	-9.7409	-21.838181	0.000133	1.325907	0.449230	0.010691
1757	8.7800e-01	-9.7281	-21.717163	0.000300	3.001854	1.017056	0.024204
1758	8.7850e-01	-9.6815	-21.652164	0.000161	1.612303	0.546263	0.013000
1759	8.7900e-01	-9.6270	-21.594863	0.000142	1.421373	0.481574	0.011460
1760	8.7950e-01	-9.5901	-21.512759	0.000204	2.036594	0.690017	0.016421
1761	8.8000e-01	-9.5741	-21.418253	0.000234	2.344204	0.794238	0.018901
1762	8.8050e-01	-9.5195	-21.335294	0.000206	2.057808	0.697204	0.016592
1763	8.8100e-01	-9.4794	-21.303222	0.000080	0.795544	0.269538	0.006414
1764	8.8150e-01	-9.4473	-21.230953	0.000179	1.792627	0.607358	0.014454
1765	8.8200e-01	-9.3912	-21.150132	0.000200	2.004772	0.679235	0.016164
1766	8.8250e-01	-9.3543	-21.117205	0.000082	0.816759	0.276725	0.006585
1767	8.8300e-01	-9.2933	-20.984214	0.000330	3.298857	1.117683	0.026598
1768	8.8350e-01	-9.2596	-20.914511	0.000173	1.728983	0.585795	0.013941
1769	8.8400e-01	-9.2147	-20.935464	-0.000052	-0.519756	-0.176098	-0.004191
1770	8.8450e-01	-9.1858	-20.815302	0.000298	2.980640	1.009868	0.024033
1771	8.8500e-01	-9.1409	-20.719941	0.000237	2.365419	0.801426	0.019072
1772	8.8550e-01	-9.1104	-20.612607	0.000266	2.662422	0.902053	0.021467
1773	8.8600e-01	-9.0623	-20.643396	-0.000076	-0.763723	-0.258756	-0.006158
1774	8.8650e-01	-9.0286	-20.433432	0.000521	5.208164	1.764574	0.041993
1775	8.8700e-01	-9.0078	-20.399222	0.000085	0.848581	0.287507	0.006842
1776	8.8750e-01	-8.9580	-20.336361	0.000156	1.559267	0.528294	0.012572
1777	8.8800e-01	-8.9243	-20.303007	0.000083	0.827366	0.280319	0.006671
1778	8.8850e-01	-8.8698	-20.129818	0.000430	4.295940	1.455504	0.034638
1779	8.8900e-01	-8.8361	-20.124259	0.000014	0.137894	0.046720	0.001112
1780	8.8950e-01	-8.7976	-20.057550	0.000165	1.654732	0.560638	0.013342
1781	8.9000e-01	-8.7495	-19.975873	0.000203	2.025986	0.686423	0.016335
1782	8.9050e-01	-8.7158	-19.865118	0.000275	2.747280	0.930804	0.022151
1783	8.9100e-01	-8.6516	-19.896335	-0.000077	-0.774330	-0.262350	-0.006243
1784	8.9150e-01	-8.6420	-19.737686	0.000394	3.935293	1.333313	0.031730
1785	8.9200e-01	-8.5907	-19.683805	0.000134	1.336515	0.452823	0.010776
1786	8.9250e-01	-8.5409	-19.606833	0.000191	1.909306	0.646891	0.015395
1787	8.9300e-01	-8.4928	-19.535847	0.000176	1.760805	0.596577	0.014197
1788	8.9350e-01	-8.4784	-19.453315	0.000205	2.047201	0.693610	0.016506
1789	8.9400e-01	-8.4367	-19.372922	0.000199	1.994165	0.675641	0.016079
1790	8.9450e-01	-8.3901	-19.322034	0.000126	1.262264	0.427667	0.010177
1791	8.9500e-01	-8.3388	-19.194602	0.000316	3.160963	1.070963	0.025486
1792	8.9550e-01	-8.3276	-19.132596	0.000154	1.538052	0.521106	0.012401
1793	8.9600e-01	-8.2666	-19.120195	0.000031	0.307610	0.104221	0.002480
1794	8.9650e-01	-8.2490	-18.990625	0.000321	3.213999	1.088932	0.025914
1795	8.9700e-01	-8.1800	-18.896975	0.000232	2.322990	0.787050	0.018730
1796	8.9750e-01	-8.1832	-18.787503	-0.000272	-2.715458	-0.920022	0.021894
1797	8.9800e-01	-8.1046	-18.800331	-0.000032	-0.318218	-0.107815	-0.002566
1798	8.9850e-01	-8.0950	-18.695563	0.000260	2.598778	0.880490	0.020954
1799	8.9900e-01	-8.0228	-18.615170	0.000199	1.994165	0.675641	0.016079
1800	8.9950e-01	-7.9875	-18.536059	0.000196	1.962343	0.664860	0.015822
1801	9.0000e-01	-7.9554	-18.418462	0.000292	2.916996	0.988305	0.023519
1802	9.0050e-01	-7.9121	-18.430863	-0.000031	-0.307610	-0.104221	-0.002480
1803	9.0100e-01	-7.8800	-18.359450	0.000177	1.771412	0.600171	0.014283
1804	9.0150e-01	-7.8142	-18.248695	0.000275	2.747280	0.930804	0.022151
1805	9.0200e-01	-7.8030	-18.170439	0.000194	1.941128	0.657672	0.015651
1806	9.0250e-01	-7.7500	-18.090901	0.000197	1.972950	0.668454	0.015908
1807	9.0300e-01	-7.7180	-18.059684	0.000077	0.774330	0.262350	0.006243
1808	9.0350e-01	-7.6714	-17.908733	0.000374	3.744362	1.268624	0.030190
1809	9.0400e-01	-7.6345	-17.899325	0.000023	0.233360	0.079064	0.001882
1810	9.0450e-01	-7.5816	-17.840740	0.000145	1.453194	0.492356	0.011717
1811	9.0500e-01	-7.5495	-17.764195	0.000190	1.898699	0.643297	0.015309
1812	9.0550e-01	-7.5030	-17.686368	0.000193	1.930521	0.654078	0.015566
1813	9.0600e-01	-7.4773	-17.585876	0.000249	2.492706	0.844552	0.020098
1814	9.0650e-01	-7.4116	-17.517883	0.000169	1.686554	0.571420	0.013598
1815	9.0700e-01	-7.3907	-17.466568	0.000127	1.272871	0.431260	0.010263
1816	9.0750e-01	-7.3442	-17.419102	0.000118	1.177406	0.398916	0.009493
1817	9.0800e-01	-7.2961	-17.269005	0.000372	3.723148	1.261437	0.030019
1818	9.0850e-01	-7.2688	-17.195026	0.000184	1.835056	0.621734	0.014796
1819	9.0900e-01	-7.2142	-17.166375	0.000071	0.710686	0.240787	0.005730
1820	9.0950e-01	-7.1725	-17.087265	0.000196	1.962343	0.664860	0.015822
1821	9.1000e-01	-7.1501	-17.037660	0.000123	1.230442	0.416885	0.009921
1822	9.1050e-01	-7.1100	-16.924339	0.000281	2.810923	0.952367	0.022664
1823	9.1100e-01	-7.0875	-16.808880	0.000286	2.863960	0.970336	0.023092
1824	9.1150e-01	-7.0410	-16.743881	0.000161	1.612303	0.546263	0.013000
1825	9.1200e-01	-6.9816	-16.683586	0.000150	1.495623	0.506731	0.012059
1826	9.1250e-01	-6.9560	-16.557437	0.000313	3.129141	1.060182	0.025230
1827	9.1300e-01	-6.8982	-16.564279	-0.000017	-0.169716	-0.057501	-0.001368
1828	9.1350e-01	-6.8838	-16.379972	0.000457	4.571728	1.548943	0.036861
1829	9.1400e-01	-6.8244	-16.374841	0.000013	0.127287	0.043126	0.001026
1830	9.1450e-01	-6.7683	-16.367144	0.000019	0.190931	0.064689	0.001539
1831	9.1500e-01	-6.7346	-16.266652	0.000249	2.492706	0.844552	0.020098
1832	9.1550e-01	-6.7169	-16.165304	0.000251	2.513920	0.851739	0.020269
1833	9.1600e-01	-6.6624	-16.087049	0.000194	1.941128	0.657672	0.015651
1834	9.1650e-01	-6.6207	-16.022050	0.000161	1.612303	0.546263	0.013000
1835	9.1700e-01	-6.5693	-15.933959	0.000219	2.185095	0.740330	0.017618
1836	9.1750e-01	-6.5549	-15.872809	0.000152	1.516838	0.513919	0.012230
1837	9.1800e-01	-6.5228	-15.759060	0.000282	2.821531	0.955960	0.022750
1838	9.1850e-01	-6.4731	-15.678667	0.000199	1.994165	0.675641	0.016079
1839	9.1900e-01	-6.4314	-15.635477	0.000107	1.071333	0.362977	0.008638
1840	9.1950e-01	-6.4314	-15.439197	-0.000487	-4.868732	-1.649571	0.039256
1841	9.2000e-01	-6.3255	-15.559787	-0.000299	-2.991247	-1.013462	-0.024118
1842	9.2050e-01	-6.2998	-15.419526	0.000348	3.479181	1.178778	0.028052
1843	9.2100e-01	-6.2677	-15.354955	0.000160	1.601696	0.542669	0.012914
1844	9.2150e-01	-6.2164	-15.286535	0.000170	1.697161	0.575014	0.013684
1845	9.2200e-01	-6.1972	-15.154398	0.000328	3.277643	1.110495	0.026427
1846	9.2250e-01	-6.1635	-15.022690	0.000327	3.267036	1.106902	0.026342
1847	9.2300e-01	-6.0993	-15.039795	-0.000042	-0.424290	-0.143753	-0.003421
1848	9.2350e-01	-6.0816	-14.892692	0.000365	3.648897	1.236280	0.029421
1849	9.2400e-01	-6.0704	-14.819568	0.000181	1.813841	0.614546	0.014625
1850	9.2450e-01	-5.9581	-14.831114	-0.000029	-0.286396	-0.097034	-0.002309
1851	9.2500e-01	-5.9485	-14.719931	0.000276	2.757887	0.934397	0.022237
1852	9.2550e-01	-5.9068	-14.624998	0.000235	2.354811	0.797832	0.018987
1853	9.2600e-01	-5.8603	-14.598058	0.000067	0.668257	0.226412	0.005388
1854	9.2650e-01	-5.8346	-14.448817	0.000370	3.701933	1.254249	0.029848
1855	9.2700e-01	-5.7897	-14.438981	0.000024	0.243967	0.082658	0.001967
1856	9.2750e-01	-5.7672	-14.313259	0.000312	3.118534	1.056588	0.025144
1857	9.2800e-01	-5.7239	-14.234149	0.000196	1.962343	0.664860	0.015822
1858	9.2850e-01	-5.6950	-14.200794	0.000083	0.827366	0.280319	0.006671
1859	9.2900e-01	-5.6485	-14.056257	0.000359	3.585253	1.214717	0.028907
1860	9.2950e-01	-5.5827	-13.995534	0.000151	1.506231	0.510325	0.012145
1861	9.3000e-01	-5.5506	-13.939087	0.000140	1.400158	0.474386	0.011289
1862	9.3050e-01	-5.5218	-13.815931	0.000305	3.054890	1.035025	0.024631
1863	9.3100e-01	-5.4432	-13.792839	0.000057	0.572792	0.194067	0.004618
1864	9.3150e-01	-5.4287	-13.672249	0.000299	2.991247	1.013462	0.024118
1865	9.3200e-01	-5.3838	-13.623500	0.000121	1.209227	0.409697	0.009750
1866	9.3250e-01	-5.3565	-13.564488	0.000146	1.463802	0.495949	0.011802
1867	9.3300e-01	-5.2811	-13.511462	0.000132	1.315300	0.445636	0.010605
1868	9.3350e-01	-5.2619	-13.469982	0.000103	1.028904	0.348602	0.008296
1869	9.3400e-01	-5.2346	-13.278406	0.000475	4.752052	1.610039	0.038315
1870	9.3450e-01	-5.1881	-13.272419	0.000015	0.148502	0.050314	0.001197
1871	9.3500e-01	-5.1656	-13.201006	0.000177	1.771412	0.600171	0.014283
1872	9.3550e-01	-5.1191	-13.072718	0.000318	3.182177	1.078151	0.025658
1873	9.3600e-01	-5.0614	-13.056469	0.000040	0.403076	0.136566	0.003250
1874	9.3650e-01	-5.0212	-12.912359	0.000357	3.574646	1.211123	0.028822
1875	9.3700e-01	-4.9908	-12.925188	-0.000032	-0.318218	-0.107815	-0.002566
1876	9.3750e-01	-4.9811	-12.767822	0.000390	3.903471	1.322532	0.031473
1877	9.3800e-01	-4.9170	-12.735750	0.000080	0.795544	0.269538	0.006414
1878	9.3850e-01	-4.8576	-12.653218	0.000205	2.047201	0.693610	0.016506
1879	9.3900e-01	-4.8448	-12.536904	0.000289	2.885174	0.977523	0.023263
1880	9.3950e-01	-4.7822	-12.492431	0.000110	1.103155	0.373759	0.008895
1881	9.4000e-01	-4.7533	-12.332927	0.000396	3.956507	1.340501	0.031901
1882	9.4050e-01	-4.7084	-12.384242	-0.000127	-1.272871	-0.431260	-0.010263
1883	9.4100e-01	-4.6972	-12.235428	0.000369	3.691326	1.250655	0.029763
1884	9.4150e-01	-4.6266	-12.186679	0.000121	1.209227	0.409697	0.009750
1885	9.4200e-01	-4.5993	-12.041286	0.000361	3.606468	1.221904	0.029079
1886	9.4250e-01	-4.5416	-11.975860	0.000162	1.622911	0.549857	0.013085
1887	9.4300e-01	-4.5207	-11.913854	0.000154	1.538052	0.521106	0.012401
1888	9.4350e-01	-4.4485	-11.881782	0.000080	0.795544	0.269538	0.006414
1889	9.4400e-01	-4.4453	-11.784711	0.000241	2.407848	0.815801	0.019414
1890	9.4450e-01	-4.3603	-11.703890	0.000200	2.004772	0.679235	0.016164
1891	9.4500e-01	-4.3715	-11.673101	-0.000076	-0.763723	-0.258756	0.006158
1892	9.4550e-01	-4.2961	-11.582444	0.000225	2.248739	0.761893	0.018131
1893	9.4600e-01	-4.2576	-11.509748	0.000180	1.803234	0.610952	0.014539
1894	9.4650e-01	-4.2384	-11.356658	0.000380	3.797398	1.286593	0.030618
1895	9.4700e-01	-4.1774	-11.341264	0.000038	0.381861	0.129378	0.003079
1896	9.4750e-01	-4.1518	-11.286528	0.000136	1.357729	0.460011	0.010947
1897	9.4800e-01	-4.1116	-11.165510	0.000300	3.001854	1.017056	0.024204
1898	9.4850e-01	-4.0764	-11.107780	0.000143	1.431980	0.485168	0.011546
1899	9.4900e-01	-4.0619	-11.007716	0.000248	2.482098	0.840958	0.020013
1900	9.4950e-01	-4.0058	-10.896106	0.000277	2.768494	0.937991	0.022322
1901	9.5000e-01	-3.9400	-10.827258	0.000171	1.707769	0.578608	0.013770
1902	9.5050e-01	-3.9127	-10.744726	0.000205	2.047201	0.693610	0.016506
1903	9.5100e-01	-3.8774	-10.712227	0.000081	0.806152	0.273132	0.006500
1904	9.5150e-01	-3.8373	-10.569400	0.000354	3.542824	1.200341	0.028565
1905	9.5200e-01	-3.7988	-10.554861	0.000036	0.360647	0.122190	0.002908
1906	9.5250e-01	-3.7523	-10.403481	0.000375	3.754969	1.272218	0.030276
1907	9.5300e-01	-3.6945	-10.344042	0.000147	1.474409	0.499543	0.011888
1908	9.5350e-01	-3.6657	-10.350884	-0.000017	-0.169716	-0.057501	-0.001368
1909	9.5400e-01	-3.6400	-10.196511	0.000383	3.829220	1.297375	0.030875
1910	9.5450e-01	-3.5999	-10.134078	0.000155	1.548660	0.524700	0.012487
1911	9.5500e-01	-3.5309	-10.010066	0.000308	3.076105	1.042213	0.024802
1912	9.5550e-01	-3.5117	-9.941219	0.000171	1.707769	0.578608	0.013770
1913	9.5600e-01	-3.4619	-9.921120	0.000050	0.498541	0.168910	0.004020
1914	9.5650e-01	-3.4347	-9.863391	0.000143	1.431980	0.485168	0.011546
1915	9.5700e-01	-3.3962	-9.752636	0.000275	2.747280	0.930804	0.022151
1916	9.5750e-01	-3.3448	-9.697900	0.000136	1.357729	0.460011	0.010947
1917	9.5800e-01	-3.2983	-9.588428	0.000272	2.715458	0.920022	0.021894
1918	9.5850e-01	-3.2823	-9.457147	0.000326	3.256428	1.103308	0.026256
1919	9.5900e-01	-3.2229	-9.470403	-0.000033	-0.328825	-0.111409	-0.002651
1920	9.5950e-01	-3.1908	-9.357082	0.000281	2.810923	0.952367	0.022664
1921	9.6000e-01	-3.1603	-9.246755	0.000274	2.736673	0.927210	0.022065
1922	9.6050e-01	-3.1138	-9.221098	0.000064	0.636435	0.215630	0.005132
1923	9.6100e-01	-3.0881	-9.131724	0.000222	2.216917	0.751112	0.017875
1924	9.6150e-01	-3.0368	-9.022679	0.000270	2.704851	0.916428	0.021809
1925	9.6200e-01	-2.9919	-8.964095	0.000145	1.453194	0.492356	0.011717
1926	9.6250e-01	-2.9614	-8.840511	0.000307	3.065498	1.038619	0.024717
1927	9.6300e-01	-2.9261	-8.831103	0.000023	0.233360	0.079064	0.001882
1928	9.6350e-01	-2.8748	-8.749427	0.000203	2.025986	0.686423	0.016335
1929	9.6400e-01	-2.8764	-8.583081	-0.000413	-4.126223	-1.398002	0.033269
1930	9.6450e-01	-2.7882	-8.534331	0.000121	1.209227	0.409697	0.009750
1931	9.6500e-01	-2.7673	-8.463773	0.000175	1.750198	0.592983	0.014112
1932	9.6550e-01	-2.7128	-8.370123	0.000232	2.322990	0.787050	0.018730
1933	9.6600e-01	-2.6566	-8.314960	0.000137	1.368336	0.463605	0.011033
1934	9.6650e-01	-2.6277	-8.267493	0.000118	1.177406	0.398916	0.009493
1935	9.6700e-01	-2.6005	-8.166146	0.000251	2.513920	0.851739	0.020269
1936	9.6750e-01	-2.5379	-8.079338	0.000215	2.153273	0.729549	0.017362
1937	9.6800e-01	-2.5122	-8.082759	-0.000008	-0.084858	-0.028751	-0.000684
1938	9.6850e-01	-2.4625	-7.919834	0.000404	4.041365	1.369252	0.032585
1939	9.6900e-01	-2.4192	-7.818059	0.000252	2.524527	0.855333	0.020355
1940	9.6950e-01	-2.3598	-7.816349	0.000004	0.042429	0.014375	0.000342
1941	9.7000e-01	-2.3422	-7.736383	0.000198	1.983557	0.672047	0.015993
1942	9.7050e-01	-2.3197	-7.572175	0.000407	4.073187	1.380033	0.032842
1943	9.7100e-01	-2.2892	-7.539675	0.000081	0.806152	0.273132	0.006500
1944	9.7150e-01	-2.2556	-7.430631	0.000270	2.704851	0.916428	0.021809
1945	9.7200e-01	-2.1930	-7.336125	0.000234	2.344204	0.794238	0.018901
1946	9.7250e-01	-2.1320	-7.318593	0.000043	0.434898	0.147347	0.003507
1947	9.7300e-01	-2.1112	-7.238627	0.000198	1.983557	0.672047	0.015993
1948	9.7350e-01	-2.0871	-7.102642	0.000337	3.373108	1.142840	0.027197
1949	9.7400e-01	-2.0165	-7.005571	0.000241	2.407848	0.815801	0.019414
1950	9.7450e-01	-1.9812	-6.932447	0.000181	1.813841	0.614546	0.014625
1951	9.7500e-01	-1.9219	-6.949552	-0.000042	-0.424290	-0.143753	-0.003421
1952	9.7550e-01	-1.9187	-6.803304	0.000363	3.627682	1.229092	0.029250
1953	9.7600e-01	-1.8914	-6.677582	0.000312	3.118534	1.056588	0.025144
1954	9.7650e-01	-1.8368	-6.696826	-0.000048	-0.477327	-0.161723	-0.003849
1955	9.7700e-01	-1.7983	-6.568110	0.000319	3.192785	1.081745	0.025743
1956	9.7750e-01	-1.7342	-6.546302	0.000054	0.540970	0.183286	0.004362
1957	9.7800e-01	-1.7085	-6.421863	0.000309	3.086712	1.045806	0.024888
1958	9.7850e-01	-1.6893	-6.312390	0.000272	2.715458	0.920022	0.021894
1959	9.7900e-01	-1.6058	-6.333772	-0.000053	-0.530363	-0.179692	-0.004276
1960	9.7950e-01	-1.5705	-6.196504	0.000340	3.404930	1.153621	0.027454
1961	9.8000e-01	-1.5545	-6.081900	0.000284	2.842745	0.963148	0.022921
1962	9.8050e-01	-1.4967	-5.998086	0.000208	2.079023	0.704392	0.016763
1963	9.8100e-01	-1.4855	-5.942495	0.000138	1.378944	0.467199	0.011118
1964	9.8150e-01	-1.4358	-5.834305	0.000268	2.683636	0.909241	0.021638
1965	9.8200e-01	-1.3780	-5.759043	0.000187	1.866877	0.632515	0.015052
1966	9.8250e-01	-1.3379	-5.770162	-0.000028	-0.275789	-0.093440	-0.002224
1967	9.8300e-01	-1.3058	-5.631183	0.000345	3.447359	1.167997	0.027796
1968	9.8350e-01	-1.2722	-5.492205	0.000345	3.447359	1.167997	0.027796
1969	9.8400e-01	-1.2192	-5.452436	0.000099	0.986475	0.334227	0.007954
1970	9.8450e-01	-1.1679	-5.434903	0.000043	0.434898	0.147347	0.003507
1971	9.8500e-01	-1.1663	-5.267702	0.000415	4.147438	1.405190	0.033440
1972	9.8550e-01	-1.1198	-5.187736	0.000198	1.983557	0.672047	0.015993
1973	9.8600e-01	-1.0813	-5.135566	0.000129	1.294086	0.438448	0.010434
1974	9.8650e-01	-1.0379	-5.069711	0.000163	1.633518	0.553451	0.013171
1975	9.8700e-01	-0.9994	-4.947411	0.000303	3.033676	1.027837	0.024460
1976	9.8750e-01	-0.9561	-4.898234	0.000122	1.219835	0.413291	0.009835
1977	9.8800e-01	-0.9240	-4.854188	0.000109	1.092548	0.370165	0.008809
1978	9.8850e-01	-0.8711	-4.772940	0.000202	2.015379	0.682829	0.016250
1979	9.8900e-01	-0.8438	-4.596758	0.000437	4.370190	1.480661	0.035236
1980	9.8950e-01	-0.7732	-4.598041	-0.000003	-0.031822	-0.010782	-0.000257
1981	9.9000e-01	-0.7444	-4.399623	0.000492	4.921768	1.667540	0.039684
1982	9.9050e-01	-0.6850	-4.522351	-0.000304	-3.044283	-1.031431	-0.024546
1983	9.9100e-01	-0.6625	-4.352584	0.000421	4.211082	1.426753	0.033953
1984	9.9150e-01	-0.6529	-4.257651	0.000235	2.354811	0.797832	0.018987
1985	9.9200e-01	-0.5984	-4.132784	0.000310	3.097319	1.049400	0.024973
1986	9.9250e-01	-0.5663	-4.070351	0.000155	1.548660	0.524700	0.012487
1987	9.9300e-01	-0.5085	-3.936504	0.000332	3.320072	1.124871	0.026769
1988	9.9350e-01	-0.4909	-3.913413	0.000057	0.572792	0.194067	0.004618
1989	9.9400e-01	-0.4380	-3.869795	0.000108	1.081940	0.366571	0.008724
1990	9.9450e-01	-0.3995	-3.770158	0.000247	2.471491	0.837364	0.019927
1991	9.9500e-01	-0.3449	-3.654272	0.000287	2.874567	0.973930	0.023177
1992	9.9550e-01	-0.3112	-3.623055	0.000077	0.774330	0.262350	0.006243
1993	9.9600e-01	-0.2679	-3.540951	0.000204	2.036594	0.690017	0.016421
1994	9.9650e-01	-0.2246	-3.449439	0.000227	2.269953	0.769081	0.018302
1995	9.9700e-01	-0.1652	-3.404111	0.000112	1.124369	0.380947	0.009066
1996	9.9750e-01	-0.1380	-3.260429	0.000356	3.564039	1.207529	0.028736
1997	9.9800e-01	-0.1139	-3.245890	0.000036	0.360647	0.122190	0.002908
1998	9.9850e-01	-0.0866	-3.076550	0.000420	4.200474	1.423159	0.033868
1999	9.9900e-01	-0.0305	-2.984611	0.000228	2.280561	0.772675	0.018388
2000	9.9950e-01	0.0080	-2.983755	0.000002	0.021215	0.007188	0.000171
2001	1.0000e+00	0.0433	-2.842211	0.000002	0.021215	0.007188	0.028309

PMax (uC/cm2):	4.04e+01
Pr (uC/cm2):	1.24e+00
-Pr (uC/cm2):	-1.20e+00
PLoss (uC/cm2):	-1.19e+00
-Vc:	-6.45e-01
C (Max-Eff) (nF):	2.01e-01
K (Eff):	6.83e+02
Vert. (+/-Pr) Shift (uC/cm2):	2.26e-02
Offset (uC/cm2):	1.64e+00

A (Loop Area - uC/cm2·Volts):	-1.11e-02



Hysteresis Version: 5.48.1 - Radiant Technologies, Inc., 1999 - 9/12/24

