»»»»»»»»»»»»»»»»»»»»»»»»»»»»»»»»»»»» Hysteresis ««««««««««««««««««««««««««««««««««««
»»»  Executed Version:	5.48.1
»»»  Vision Version:	5.48.4 (R)
»»»  Vision Compiled:	9/18/24
»»»  Driver Version:	5.47.0
»»»  Windows Version:	Windows 8 or 8.1
»»»  Processor Information:	x86 (AMD or Intel) - 32 Processors
»»»  Tester Name:	PMF21124-494 (100V)
»»»  Tester S/N:	PMF21124-494
»»»  Internal Amp Type:	100V RevK 270k
»»»  Internal Amp S/N:	iAB2-596/K     
»»»  Execution Count:	1
»»»»»»»»»»»»»»»»»»»»»»»»»»»»»»»»»»»»»»»»»»««««««««««««««««««««««««««««««««««««««««««

Stored:	6/19/2025 - 11:48:26
Configured:	06/19/25 10:04:32 AM
Executed:	06/19/25 11:48:03 AM

»»»»»»»»»»»»»»»»»»»»»»»»»»»»»»»»»»» Sample Info ««««««««««««««««««««««««««««««««««««
Sample Name:	
Lot Name:	
Wafer Name:	
Die Row/Column:	0/0
Capacitor Number:	0
Sample Area (cm2):	1.00e-04
Sample Thickness (microns):	3.00e-01

Amplifier:	Internal

»»»»»»»»»»»»»»»»»»»»»»»»»»»»»»»»»»» Tester Info «««««««««««««««««««««««««««««««««««
Tester Name:	PMF21124-494 (100V)
Tester Serial Number:	PMF21124-494
Return Signal Amp. Level:	1.79 [Index: 2]

»»»»»»»»»»»»»»»»»»»»»»»»»»»»»»»» Hysteresis Info ««««««««««««««««««««««««««««««««««
Task Name:	Hyst-1168
Volts:	20.00
Field:	666.67 (kV/cm)
DCBias:	0.00
DCField:	0.00 (kV/cm)
Hysteresis Period (ms):	1.00e+00
Preset:	Enabled
Preset Delay (ms):	1.00e+03
Profile:	Standard Bipolar

»»»»»»»»»»»»»»»»»»»»»»»»»»»»»»»»»»»»»» Data «««««««««««««««««««««««««««««««««««««««
Points:	2001

Valid Data

Point	Time (ms)	Drive Voltage	Measured Polarization (uC/cm2)	Capacitance (uF)	Normalized Capacitance (uF/cm2)	Dielectric Constant	Instantaneous Current (mA)
   1	0.0000e+00	0.0497	-1.590338	0.000063	0.633855	0.214756	0.005132
   2	5.0000e-04	0.1075	-1.564681	0.000063	0.633855	0.214756	0.005132
   3	1.0000e-03	0.1428	-1.540306	0.000060	0.602163	0.204018	0.004875
   4	1.5000e-03	0.1684	-1.474024	0.000164	1.637460	0.554786	0.013256
   5	2.0000e-03	0.2262	-1.420144	0.000133	1.331096	0.450988	0.010776
   6	2.5000e-03	0.2503	-1.346164	0.000183	1.827616	0.619213	0.014796
   7	3.0000e-03	0.2823	-1.273468	0.000180	1.795924	0.608475	0.014539
   8	3.5000e-03	0.3337	-1.214028	0.000147	1.468432	0.497518	0.011888
   9	4.0000e-03	0.3786	-1.146891	0.000166	1.658588	0.561945	0.013427
  10	4.5000e-03	0.3962	-1.077188	0.000172	1.721974	0.583420	0.013941
  11	5.0000e-03	0.4652	-1.013472	0.000157	1.574074	0.533311	0.012743
  12	5.5000e-03	0.4636	-0.918539	-0.000235	-2.345265	-0.794597	0.018987
  13	6.0000e-03	0.5567	-0.867652	0.000126	1.257146	0.425933	0.010177
  14	6.5000e-03	0.5952	-0.800942	0.000165	1.648024	0.558366	0.013342
  15	7.0000e-03	0.6321	-0.732522	0.000169	1.690281	0.572683	0.013684
  16	7.5000e-03	0.6593	-0.658115	0.000184	1.838181	0.622792	0.014881
  17	8.0000e-03	0.6978	-0.587985	0.000173	1.732538	0.587000	0.014026
  18	8.5000e-03	0.7315	-0.523841	0.000158	1.584638	0.536890	0.012829
  19	9.0000e-03	0.7716	-0.460125	0.000157	1.574074	0.533311	0.012743
  20	9.5000e-03	0.8133	-0.382725	0.000191	1.912130	0.647847	0.015480
  21	1.0000e-02	0.8583	-0.314732	0.000168	1.679717	0.569103	0.013598
  22	1.0500e-02	0.8936	-0.234339	0.000199	1.986080	0.672902	0.016079
  23	1.1000e-02	0.9561	-0.177892	0.000139	1.394482	0.472463	0.011289
  24	1.1500e-02	0.9641	-0.098354	0.000196	1.964952	0.665744	0.015908
  25	1.2000e-02	1.0123	-0.028223	0.000173	1.732538	0.587000	0.014026
  26	1.2500e-02	1.0508	0.040197	0.000169	1.690281	0.572683	0.013684
  27	1.3000e-02	1.0957	0.113321	0.000181	1.806488	0.612055	0.014625
  28	1.3500e-02	1.1550	0.170195	0.000141	1.405046	0.476042	0.011375
  29	1.4000e-02	1.1743	0.251444	0.000201	2.007209	0.680061	0.016250
  30	1.4500e-02	1.2096	0.317726	0.000164	1.637460	0.554786	0.013256
  31	1.5000e-02	1.2593	0.395981	0.000193	1.933259	0.655006	0.015651
  32	1.5500e-02	1.2946	0.471243	0.000186	1.859309	0.629951	0.015052
  33	1.6000e-02	1.3492	0.525979	0.000135	1.352225	0.458146	0.010947
  34	1.6500e-02	1.3604	0.598675	0.000180	1.795924	0.608475	0.014539
  35	1.7000e-02	1.4246	0.677786	0.000195	1.954387	0.662164	0.015822
  36	1.7500e-02	1.4663	0.738936	0.000151	1.510689	0.511835	0.012230
  37	1.8000e-02	1.5353	0.806929	0.000168	1.679717	0.569103	0.013598
  38	1.8500e-02	1.5481	0.888605	0.000202	2.017773	0.683640	0.016335
  39	1.9000e-02	1.5641	0.960874	0.000179	1.785359	0.604896	0.014454
  40	1.9500e-02	1.6042	1.030149	0.000171	1.711409	0.579841	0.013855
  41	2.0000e-02	1.6828	1.090872	0.000150	1.500124	0.508256	0.012145
  42	2.0500e-02	1.6652	1.175970	-0.000210	-2.102287	-0.712274	0.017019
  43	2.1000e-02	1.7534	1.237975	0.000153	1.531817	0.518994	0.012401
  44	2.1500e-02	1.7743	1.320934	0.000205	2.049466	0.694378	0.016592
  45	2.2000e-02	1.8160	1.400473	0.000196	1.964952	0.665744	0.015908
  46	2.2500e-02	1.8561	1.448367	0.000118	1.183197	0.400878	0.009579
  47	2.3000e-02	1.9187	1.518925	0.000174	1.743102	0.590579	0.014112
  48	2.3500e-02	1.9187	1.603167	-0.000208	-2.081158	-0.705116	0.016848
  49	2.4000e-02	1.9604	1.668594	0.000162	1.616331	0.547628	0.013085
  50	2.4500e-02	2.0101	1.743001	0.000184	1.838181	0.622792	0.014881
  51	2.5000e-02	2.0438	1.813559	0.000174	1.743102	0.590579	0.014112
  52	2.5500e-02	2.0695	1.888393	0.000185	1.848745	0.626372	0.014967
  53	2.6000e-02	2.1561	1.955530	0.000166	1.658588	0.561945	0.013427
  54	2.6500e-02	2.1753	2.029937	0.000184	1.838181	0.622792	0.014881
  55	2.7000e-02	2.2154	2.097930	0.000168	1.679717	0.569103	0.013598
  56	2.7500e-02	2.2491	2.177468	0.000196	1.964952	0.665744	0.015908
  57	2.8000e-02	2.2989	2.246316	0.000170	1.700845	0.576262	0.013770
  58	2.8500e-02	2.3326	2.310887	0.000160	1.595203	0.540469	0.012914
  59	2.9000e-02	2.3823	2.390425	0.000196	1.964952	0.665744	0.015908
  60	2.9500e-02	2.4208	2.463977	0.000182	1.817052	0.615634	0.014710
  61	3.0000e-02	2.4834	2.525555	0.000152	1.521253	0.515414	0.012316
  62	3.0500e-02	2.4689	2.617067	-0.000226	-2.260751	-0.765963	0.018302
  63	3.1000e-02	2.5090	2.673086	0.000138	1.383918	0.468884	0.011204
  64	3.1500e-02	2.5796	2.744927	0.000177	1.774795	0.601317	0.014368
  65	3.2000e-02	2.5812	2.820616	0.000187	1.869873	0.633530	0.015138
  66	3.2500e-02	2.6646	2.882622	0.000153	1.531817	0.518994	0.012401
  67	3.3000e-02	2.6887	2.957029	0.000184	1.838181	0.622792	0.014881
  68	3.3500e-02	2.7464	3.024594	0.000167	1.669152	0.565524	0.013513
  69	3.4000e-02	2.7721	3.112684	0.000218	2.176237	0.737329	0.017618
  70	3.4500e-02	2.8090	3.190940	0.000193	1.933259	0.655006	0.015651
  71	3.5000e-02	2.8684	3.256366	0.000162	1.616331	0.547628	0.013085
  72	3.5500e-02	2.8764	3.305971	0.000123	1.225454	0.415195	0.009921
  73	3.6000e-02	2.9181	3.394489	0.000219	2.186801	0.740908	0.017704
  74	3.6500e-02	2.9839	3.466330	0.000177	1.774795	0.601317	0.014368
  75	3.7000e-02	3.0400	3.549290	0.000205	2.049466	0.694378	0.016592
  76	3.7500e-02	3.0577	3.627973	0.000194	1.943823	0.658585	0.015737
  77	3.8000e-02	3.0914	3.687413	0.000147	1.468432	0.497518	0.011888
  78	3.8500e-02	3.1202	3.759681	0.000179	1.785359	0.604896	0.014454
  79	3.9000e-02	3.1908	3.847772	0.000218	2.176237	0.737329	0.017618
  80	3.9500e-02	3.2149	3.917903	0.000173	1.732538	0.587000	0.014026
  81	4.0000e-02	3.2678	3.980764	0.000155	1.552946	0.526152	0.012572
  82	4.0500e-02	3.3095	4.062012	0.000201	2.007209	0.680061	0.016250
  83	4.1000e-02	3.3448	4.124873	0.000155	1.552946	0.526152	0.012572
  84	4.1500e-02	3.3833	4.201418	0.000189	1.891002	0.640689	0.015309
  85	4.2000e-02	3.4218	4.276253	0.000185	1.848745	0.626372	0.014967
  86	4.2500e-02	3.4603	4.355791	0.000196	1.964952	0.665744	0.015908
  87	4.3000e-02	3.5069	4.430198	0.000184	1.838181	0.622792	0.014881
  88	4.3500e-02	3.5389	4.503749	0.000182	1.817052	0.615634	0.014710
  89	4.4000e-02	3.5919	4.570887	0.000166	1.658588	0.561945	0.013427
  90	4.4500e-02	3.6063	4.643155	0.000179	1.785359	0.604896	0.014454
  91	4.5000e-02	3.6641	4.724404	0.000201	2.007209	0.680061	0.016250
  92	4.5500e-02	3.7122	4.798383	0.000183	1.827616	0.619213	0.014796
  93	4.6000e-02	3.7330	4.878777	0.000199	1.986080	0.672902	0.016079
  94	4.6500e-02	3.7603	4.942065	0.000156	1.563510	0.529731	0.012658
  95	4.7000e-02	3.8470	5.009202	0.000166	1.658588	0.561945	0.013427
  96	4.7500e-02	3.8614	5.082754	0.000182	1.817052	0.615634	0.014710
  97	4.8000e-02	3.8903	5.152457	0.000172	1.721974	0.583420	0.013941
  98	4.8500e-02	3.9496	5.243113	0.000224	2.239622	0.758805	0.018131
  99	4.9000e-02	3.9769	5.306830	0.000157	1.574074	0.533311	0.012743
 100	4.9500e-02	4.0314	5.370546	0.000157	1.574074	0.533311	0.012743
 101	5.0000e-02	4.0972	5.444097	0.000182	1.817052	0.615634	0.014710
 102	5.0500e-02	4.0876	5.531761	-0.000217	-2.165672	-0.733750	0.017533
 103	5.1000e-02	4.1534	5.607023	0.000186	1.859309	0.629951	0.015052
 104	5.1500e-02	4.1790	5.680147	0.000181	1.806488	0.612055	0.014625
 105	5.2000e-02	4.2031	5.746856	0.000165	1.648024	0.558366	0.013342
 106	5.2500e-02	4.2624	5.823829	0.000190	1.901566	0.644268	0.015395
 107	5.3000e-02	4.3186	5.893532	0.000172	1.721974	0.583420	0.013941
 108	5.3500e-02	4.3507	5.979057	0.000211	2.112851	0.715853	0.017105
 109	5.4000e-02	4.3876	6.048332	0.000171	1.711409	0.579841	0.013855
 110	5.4500e-02	4.4165	6.126587	0.000193	1.933259	0.655006	0.015651
 111	5.5000e-02	4.4598	6.198428	0.000177	1.774795	0.601317	0.014368
 112	5.5500e-02	4.5095	6.275401	0.000190	1.901566	0.644268	0.015395
 113	5.6000e-02	4.5239	6.338689	0.000156	1.563510	0.529731	0.012658
 114	5.6500e-02	4.5624	6.414379	0.000187	1.869873	0.633530	0.015138
 115	5.7000e-02	4.6138	6.501187	0.000214	2.144544	0.726591	0.017362
 116	5.7500e-02	4.6619	6.579442	0.000193	1.933259	0.655006	0.015651
 117	5.8000e-02	4.7036	6.652566	0.000181	1.806488	0.612055	0.014625
 118	5.8500e-02	4.7180	6.721414	0.000170	1.700845	0.576262	0.013770
 119	5.9000e-02	4.7678	6.803518	0.000203	2.028337	0.687219	0.016421
 120	5.9500e-02	4.8159	6.878780	0.000186	1.859309	0.629951	0.015052
 121	6.0000e-02	4.8785	6.938648	0.000148	1.478996	0.501097	0.011974
 122	6.0500e-02	4.9106	7.025883	0.000216	2.155108	0.730170	0.017447
 123	6.1000e-02	4.9138	7.109698	0.000207	2.070594	0.701536	0.016763
 124	6.1500e-02	4.9956	7.148184	0.000095	0.950783	0.322134	0.007697
 125	6.2000e-02	5.0212	7.233282	0.000210	2.102287	0.712274	0.017019
 126	6.2500e-02	5.0501	7.321800	0.000219	2.186801	0.740908	0.017704
 127	6.3000e-02	5.0870	7.385516	0.000157	1.574074	0.533311	0.012743
 128	6.3500e-02	5.1319	7.480449	0.000235	2.345265	0.794597	0.018987
 129	6.4000e-02	5.1737	7.554856	0.000184	1.838181	0.622792	0.014881
 130	6.4500e-02	5.2170	7.612158	0.000142	1.415610	0.479622	0.011460
 131	6.5000e-02	5.2667	7.678012	0.000163	1.626895	0.551207	0.013171
 132	6.5500e-02	5.2956	7.769096	0.000225	2.250187	0.762384	0.018217
 133	6.6000e-02	5.3437	7.838371	0.000171	1.711409	0.579841	0.013855
 134	6.6500e-02	5.3613	7.922613	0.000208	2.081158	0.705116	0.016848
 135	6.7000e-02	5.4031	8.011560	0.000220	2.197365	0.744487	0.017789
 136	6.7500e-02	5.4688	8.069717	0.000144	1.436739	0.486780	0.011631
 137	6.8000e-02	5.4801	8.149682	0.000198	1.975516	0.669323	0.015993
 138	6.8500e-02	5.5458	8.232214	0.000204	2.038901	0.690798	0.016506
 139	6.9000e-02	5.5843	8.287378	0.000136	1.362789	0.461725	0.011033
 140	6.9500e-02	5.6293	8.376324	0.000220	2.197365	0.744487	0.017789
 141	7.0000e-02	5.6469	8.455007	0.000194	1.943823	0.658585	0.015737
 142	7.0500e-02	5.7175	8.519578	0.000160	1.595203	0.540469	0.012914
 143	7.1000e-02	5.7319	8.603393	0.000207	2.070594	0.701536	0.016763
 144	7.1500e-02	5.7688	8.687207	0.000207	2.070594	0.701536	0.016763
 145	7.2000e-02	5.8137	8.755200	0.000168	1.679717	0.569103	0.013598
 146	7.2500e-02	5.8202	8.840297	0.000210	2.102287	0.712274	0.017019
 147	7.3000e-02	5.9068	8.898882	0.000145	1.447303	0.490360	0.011717
 148	7.3500e-02	5.9421	8.974572	0.000187	1.869873	0.633530	0.015138
 149	7.4000e-02	5.9549	9.072925	0.000243	2.429779	0.823231	0.019671
 150	7.4500e-02	6.0496	9.124240	0.000127	1.267711	0.429512	0.010263
 151	7.5000e-02	6.0367	9.218746	-0.000233	-2.334701	-0.791018	0.018901
 152	7.5500e-02	6.1025	9.286738	0.000168	1.679717	0.569103	0.013598
 153	7.6000e-02	6.1250	9.376539	0.000222	2.218494	0.751646	0.017960
 154	7.6500e-02	6.1554	9.437262	0.000150	1.500124	0.508256	0.012145
 155	7.7000e-02	6.2084	9.522787	0.000211	2.112851	0.715853	0.017105
 156	7.7500e-02	6.2677	9.590352	0.000167	1.669152	0.565524	0.013513
 157	7.8000e-02	6.3046	9.657489	0.000166	1.658588	0.561945	0.013427
 158	7.8500e-02	6.3255	9.744297	0.000214	2.144544	0.726591	0.017362
 159	7.9000e-02	6.3688	9.823835	0.000196	1.964952	0.665744	0.015908
 160	7.9500e-02	6.4121	9.896532	0.000180	1.795924	0.608475	0.014539
 161	8.0000e-02	6.4426	9.986761	0.000223	2.229058	0.755225	0.018046
 162	8.0500e-02	6.5212	10.055608	0.000170	1.700845	0.576262	0.013770
 163	8.1000e-02	6.5260	10.157811	0.000252	2.524857	0.855445	0.020440
 164	8.1500e-02	6.5790	10.211692	0.000133	1.331096	0.450988	0.010776
 165	8.2000e-02	6.6143	10.291657	0.000198	1.975516	0.669323	0.015993
 166	8.2500e-02	6.6415	10.350670	0.000146	1.457867	0.493939	0.011802
 167	8.3000e-02	6.6961	10.425504	0.000185	1.848745	0.626372	0.014967
 168	8.3500e-02	6.7201	10.501621	0.000188	1.880438	0.637109	0.015223
 169	8.4000e-02	6.7699	10.582870	0.000201	2.007209	0.680061	0.016250
 170	8.4500e-02	6.8276	10.645304	0.000154	1.542381	0.522573	0.012487
 171	8.5000e-02	6.8533	10.724414	0.000195	1.954387	0.662164	0.015822
 172	8.5500e-02	6.8934	10.807374	0.000205	2.049466	0.694378	0.016592
 173	8.6000e-02	6.9303	10.885201	0.000192	1.922695	0.651427	0.015566
 174	8.6500e-02	6.9704	10.963457	0.000193	1.933259	0.655006	0.015651
 175	8.7000e-02	7.0378	11.041712	0.000193	1.933259	0.655006	0.015651
 176	8.7500e-02	7.0650	11.113981	0.000179	1.785359	0.604896	0.014454
 177	8.8000e-02	7.0731	11.212762	0.000244	2.440343	0.826811	0.019756
 178	8.8500e-02	7.1404	11.277334	0.000160	1.595203	0.540469	0.012914
 179	8.9000e-02	7.1565	11.348747	0.000176	1.764231	0.597738	0.014283
 180	8.9500e-02	7.2223	11.421871	0.000181	1.806488	0.612055	0.014625
 181	9.0000e-02	7.2447	11.497988	0.000188	1.880438	0.637109	0.015223
 182	9.0500e-02	7.2768	11.591211	0.000230	2.303008	0.780280	0.018644
 183	9.1000e-02	7.3313	11.657493	0.000164	1.637460	0.554786	0.013256
 184	9.1500e-02	7.3650	11.731899	0.000184	1.838181	0.622792	0.014881
 185	9.2000e-02	7.4276	11.809300	0.000191	1.912130	0.647847	0.015480
 186	9.2500e-02	7.4212	11.896535	-0.000216	-2.155108	-0.730170	0.017447
 187	9.3000e-02	7.5014	11.970087	0.000182	1.817052	0.615634	0.014710
 188	9.3500e-02	7.5319	12.036796	0.000165	1.648024	0.558366	0.013342
 189	9.4000e-02	7.5688	12.124032	0.000216	2.155108	0.730170	0.017447
 190	9.4500e-02	7.6185	12.185182	0.000151	1.510689	0.511835	0.012230
 191	9.5000e-02	7.6329	12.274984	0.000222	2.218494	0.751646	0.017960
 192	9.5500e-02	7.6939	12.364785	0.000222	2.218494	0.751646	0.017960
 193	9.6000e-02	7.7292	12.426790	0.000153	1.531817	0.518994	0.012401
 194	9.6500e-02	7.7565	12.510605	0.000207	2.070594	0.701536	0.016763
 195	9.7000e-02	7.7853	12.588433	0.000192	1.922695	0.651427	0.015566
 196	9.7500e-02	7.8415	12.676524	0.000218	2.176237	0.737329	0.017618
 197	9.8000e-02	7.8960	12.743233	0.000165	1.648024	0.558366	0.013342
 198	9.8500e-02	7.9506	12.818923	0.000187	1.869873	0.633530	0.015138
 199	9.9000e-02	7.9586	12.903165	0.000208	2.081158	0.705116	0.016848
 200	9.9500e-02	8.0212	12.963460	0.000149	1.489560	0.504677	0.012059
 201	1.0000e-01	8.0516	13.055827	0.000228	2.281879	0.773122	0.018473
 202	1.0050e-01	8.1206	13.113129	0.000142	1.415610	0.479622	0.011460
 203	1.0100e-01	8.1206	13.215759	-0.000254	-2.535421	-0.859024	0.020526
 204	1.0150e-01	8.1720	13.283752	0.000168	1.679717	0.569103	0.013598
 205	1.0200e-01	8.1736	13.370132	0.000213	2.133980	0.723012	0.017276
 206	1.0250e-01	8.2602	13.438124	0.000168	1.679717	0.569103	0.013598
 207	1.0300e-01	8.3099	13.512103	0.000183	1.827616	0.619213	0.014796
 208	1.0350e-01	8.3661	13.585227	0.000181	1.806488	0.612055	0.014625
 209	1.0400e-01	8.3645	13.672035	-0.000214	-2.144544	-0.726591	0.017362
 210	1.0450e-01	8.3966	13.749008	0.000190	1.901566	0.644268	0.015395
 211	1.0500e-01	8.4367	13.824698	0.000187	1.869873	0.633530	0.015138
 212	1.0550e-01	8.4575	13.901242	0.000189	1.891002	0.640689	0.015309
 213	1.0600e-01	8.5249	13.993182	0.000227	2.271315	0.769542	0.018388
 214	1.0650e-01	8.5730	14.072720	0.000196	1.964952	0.665744	0.015908
 215	1.0700e-01	8.6532	14.127029	0.000134	1.341660	0.454567	0.010862
 216	1.0750e-01	8.6436	14.226238	-0.000245	-2.450907	-0.830390	0.019842
 217	1.0800e-01	8.6982	14.278836	0.000130	1.299403	0.440250	0.010520
 218	1.0850e-01	8.7495	14.362222	0.000206	2.060030	0.697957	0.016677
 219	1.0900e-01	8.7639	14.442188	0.000198	1.975516	0.669323	0.015993
 220	1.0950e-01	8.8153	14.514885	0.000180	1.795924	0.608475	0.014539
 221	1.1000e-01	8.8457	14.600410	0.000211	2.112851	0.715853	0.017105
 222	1.1050e-01	8.8858	14.683797	0.000206	2.060030	0.697957	0.016677
 223	1.1100e-01	8.9308	14.747940	0.000158	1.584638	0.536890	0.012829
 224	1.1150e-01	8.9773	14.832610	0.000209	2.091723	0.708695	0.016934
 225	1.1200e-01	9.0062	14.916425	0.000207	2.070594	0.701536	0.016763
 226	1.1250e-01	9.0639	14.977148	0.000150	1.500124	0.508256	0.012145
 227	1.1300e-01	9.1072	15.067804	0.000224	2.239622	0.758805	0.018131
 228	1.1350e-01	9.1473	15.136224	0.000169	1.690281	0.572683	0.013684
 229	1.1400e-01	9.1714	15.227308	0.000225	2.250187	0.762384	0.018217
 230	1.1450e-01	9.2195	15.295728	0.000169	1.690281	0.572683	0.013684
 231	1.1500e-01	9.2484	15.382964	0.000216	2.155108	0.730170	0.017447
 232	1.1550e-01	9.2821	15.466779	0.000207	2.070594	0.701536	0.016763
 233	1.1600e-01	9.3094	15.536481	0.000172	1.721974	0.583420	0.013941
 234	1.1650e-01	9.3655	15.621579	0.000210	2.102287	0.712274	0.017019
 235	1.1700e-01	9.4265	15.689999	0.000169	1.690281	0.572683	0.013684
 236	1.1750e-01	9.4570	15.767827	0.000192	1.922695	0.651427	0.015566
 237	1.1800e-01	9.4971	15.849503	0.000202	2.017773	0.683640	0.016335
 238	1.1850e-01	9.5275	15.925193	0.000187	1.869873	0.633530	0.015138
 239	1.1900e-01	9.5725	15.988054	0.000155	1.552946	0.526152	0.012572
 240	1.1950e-01	9.6061	16.080421	0.000228	2.281879	0.773122	0.018473
 241	1.2000e-01	9.6607	16.152689	0.000179	1.785359	0.604896	0.014454
 242	1.2050e-01	9.6944	16.230945	0.000193	1.933259	0.655006	0.015651
 243	1.2100e-01	9.7345	16.342983	0.000277	2.767835	0.937768	0.022408
 244	1.2150e-01	9.7521	16.393015	0.000124	1.236018	0.418774	0.010006
 245	1.2200e-01	9.8227	16.455448	0.000154	1.542381	0.522573	0.012487
 246	1.2250e-01	9.8628	16.548671	0.000230	2.303008	0.780280	0.018644
 247	1.2300e-01	9.8532	16.620512	-0.000177	-1.774795	-0.601317	0.014368
 248	1.2350e-01	9.9527	16.702188	0.000202	2.017773	0.683640	0.016335
 249	1.2400e-01	9.9783	16.784292	0.000203	2.028337	0.687219	0.016421
 250	1.2450e-01	10.0216	16.856988	0.000180	1.795924	0.608475	0.014539
 251	1.2500e-01	10.0537	16.933961	0.000190	1.901566	0.644268	0.015395
 252	1.2550e-01	10.0826	17.014354	0.000199	1.986080	0.672902	0.016079
 253	1.2600e-01	10.1339	17.084485	0.000173	1.732538	0.587000	0.014026
 254	1.2650e-01	10.1564	17.161885	0.000191	1.912130	0.647847	0.015480
 255	1.2700e-01	10.2093	17.230305	0.000169	1.690281	0.572683	0.013684
 256	1.2750e-01	10.2591	17.315830	0.000211	2.112851	0.715853	0.017105
 257	1.2800e-01	10.2912	17.409053	0.000230	2.303008	0.780280	0.018644
 258	1.2850e-01	10.3393	17.478328	0.000171	1.711409	0.579841	0.013855
 259	1.2900e-01	10.3874	17.545465	0.000166	1.658588	0.561945	0.013427
 260	1.2950e-01	10.4179	17.632701	0.000216	2.155108	0.730170	0.017447
 261	1.3000e-01	10.4853	17.701121	0.000169	1.690281	0.572683	0.013684
 262	1.3050e-01	10.4756	17.798192	-0.000240	-2.398086	-0.812494	0.019414
 263	1.3100e-01	10.5430	17.860197	0.000153	1.531817	0.518994	0.012401
 264	1.3150e-01	10.5751	17.952137	0.000227	2.271315	0.769542	0.018388
 265	1.3200e-01	10.6361	18.018846	0.000165	1.648024	0.558366	0.013342
 266	1.3250e-01	10.6473	18.108648	0.000222	2.218494	0.751646	0.017960
 267	1.3300e-01	10.6842	18.189896	0.000201	2.007209	0.680061	0.016250
 268	1.3350e-01	10.7419	18.261737	0.000177	1.774795	0.601317	0.014368
 269	1.3400e-01	10.7949	18.336999	0.000186	1.859309	0.629951	0.015052
 270	1.3450e-01	10.7981	18.409696	0.000180	1.795924	0.608475	0.014539
 271	1.3500e-01	10.8350	18.502490	0.000229	2.292444	0.776701	0.018559
 272	1.3550e-01	10.8895	18.579891	0.000191	1.912130	0.647847	0.015480
 273	1.3600e-01	10.9425	18.635482	0.000137	1.373353	0.465305	0.011118
 274	1.3650e-01	10.9617	18.723145	0.000217	2.165672	0.733750	0.017533
 275	1.3700e-01	11.0371	18.810381	0.000216	2.155108	0.730170	0.017447
 276	1.3750e-01	11.0500	18.876235	0.000163	1.626895	0.551207	0.013171
 277	1.3800e-01	11.0869	18.953207	0.000190	1.901566	0.644268	0.015395
 278	1.3850e-01	11.1366	19.038305	0.000210	2.102287	0.712274	0.017019
 279	1.3900e-01	11.1639	19.110146	0.000177	1.774795	0.601317	0.014368
 280	1.3950e-01	11.2008	19.192678	0.000204	2.038901	0.690798	0.016506
 281	1.4000e-01	11.2729	19.265374	0.000180	1.795924	0.608475	0.014539
 282	1.4050e-01	11.2906	19.362017	0.000239	2.387522	0.808914	0.019329
 283	1.4100e-01	11.3355	19.422312	0.000149	1.489560	0.504677	0.012059
 284	1.4150e-01	11.3836	19.516390	0.000232	2.324136	0.787439	0.018816
 285	1.4200e-01	11.4173	19.580106	0.000157	1.574074	0.533311	0.012743
 286	1.4250e-01	11.4430	19.669052	0.000220	2.197365	0.744487	0.017789
 287	1.4300e-01	11.4927	19.744314	0.000186	1.859309	0.629951	0.015052
 288	1.4350e-01	11.5296	19.811024	0.000165	1.648024	0.558366	0.013342
 289	1.4400e-01	11.5777	19.887996	0.000190	1.901566	0.644268	0.015395
 290	1.4450e-01	11.6259	19.970100	0.000203	2.028337	0.687219	0.016421
 291	1.4500e-01	11.6676	20.048356	0.000193	1.933259	0.655006	0.015651
 292	1.4550e-01	11.6756	20.121907	0.000182	1.817052	0.615634	0.014710
 293	1.4600e-01	11.7526	20.212991	0.000225	2.250187	0.762384	0.018217
 294	1.4650e-01	11.7831	20.282267	0.000171	1.711409	0.579841	0.013855
 295	1.4700e-01	11.8216	20.359667	0.000191	1.912130	0.647847	0.015480
 296	1.4750e-01	11.8408	20.448185	0.000219	2.186801	0.740908	0.017704
 297	1.4800e-01	11.9419	20.503349	0.000136	1.362789	0.461725	0.011033
 298	1.4850e-01	11.9339	20.596144	-0.000229	-2.292444	-0.776701	0.018559
 299	1.4900e-01	11.9708	20.680814	0.000209	2.091723	0.708695	0.016934
 300	1.4950e-01	12.0141	20.749661	0.000170	1.700845	0.576262	0.013770
 301	1.5000e-01	12.0478	20.827061	0.000191	1.912130	0.647847	0.015480
 302	1.5050e-01	12.0959	20.904034	0.000190	1.901566	0.644268	0.015395
 303	1.5100e-01	12.1456	20.981434	0.000191	1.912130	0.647847	0.015480
 304	1.5150e-01	12.1841	21.070380	0.000220	2.197365	0.744487	0.017789
 305	1.5200e-01	12.2210	21.129392	0.000146	1.457867	0.493939	0.011802
 306	1.5250e-01	12.2595	21.217056	0.000217	2.165672	0.733750	0.017533
 307	1.5300e-01	12.2852	21.291890	0.000185	1.848745	0.626372	0.014967
 308	1.5350e-01	12.3285	21.374849	0.000205	2.049466	0.694378	0.016592
 309	1.5400e-01	12.3622	21.459947	0.000210	2.102287	0.712274	0.017019
 310	1.5450e-01	12.3927	21.537775	0.000192	1.922695	0.651427	0.015566
 311	1.5500e-01	12.4488	21.601063	0.000156	1.563510	0.529731	0.012658
 312	1.5550e-01	12.5307	21.674187	0.000181	1.806488	0.612055	0.014625
 313	1.5600e-01	12.5339	21.756291	0.000203	2.028337	0.687219	0.016421
 314	1.5650e-01	12.5676	21.839250	0.000205	2.049466	0.694378	0.016592
 315	1.5700e-01	12.5996	21.927341	0.000218	2.176237	0.737329	0.017618
 316	1.5750e-01	12.6654	21.985498	0.000144	1.436739	0.486780	0.011631
 317	1.5800e-01	12.6783	22.080003	0.000233	2.334701	0.791018	0.018901
 318	1.5850e-01	12.7264	22.150989	0.000175	1.753666	0.594158	0.014197
 319	1.5900e-01	12.7553	22.239508	0.000219	2.186801	0.740908	0.017704
 320	1.5950e-01	12.8098	22.318618	0.000195	1.954387	0.662164	0.015822
 321	1.6000e-01	12.8258	22.391315	0.000180	1.795924	0.608475	0.014539
 322	1.6050e-01	12.8836	22.466577	0.000186	1.859309	0.629951	0.015052
 323	1.6100e-01	12.9462	22.540128	0.000182	1.817052	0.615634	0.014710
 324	1.6150e-01	12.9510	22.637199	0.000240	2.398086	0.812494	0.019414
 325	1.6200e-01	13.0135	22.699632	0.000154	1.542381	0.522573	0.012487
 326	1.6250e-01	13.0488	22.769763	0.000173	1.732538	0.587000	0.014026
 327	1.6300e-01	13.0697	22.835190	0.000162	1.616331	0.547628	0.013085
 328	1.6350e-01	13.1178	22.925419	0.000223	2.229058	0.755225	0.018046
 329	1.6400e-01	13.1756	23.014365	0.000220	2.197365	0.744487	0.017789
 330	1.6450e-01	13.2333	23.072094	0.000143	1.426175	0.483201	0.011546
 331	1.6500e-01	13.2654	23.153770	0.000202	2.017773	0.683640	0.016335
 332	1.6550e-01	13.2830	23.261532	0.000266	2.662192	0.901975	0.021552
 333	1.6600e-01	13.3183	23.309426	0.000118	1.183197	0.400878	0.009579
 334	1.6650e-01	13.3825	23.376991	0.000167	1.669152	0.565524	0.013513
 335	1.6700e-01	13.4130	23.467647	0.000224	2.239622	0.758805	0.018131
 336	1.6750e-01	13.4419	23.552317	0.000209	2.091723	0.708695	0.016934
 337	1.6800e-01	13.4996	23.616033	0.000157	1.574074	0.533311	0.012743
 338	1.6850e-01	13.4996	23.703269	-0.000216	-2.155108	-0.730170	0.017447
 339	1.6900e-01	13.5734	23.783663	0.000199	1.986080	0.672902	0.016079
 340	1.6950e-01	13.5862	23.856786	0.000181	1.806488	0.612055	0.014625
 341	1.7000e-01	13.6488	23.934614	0.000192	1.922695	0.651427	0.015566
 342	1.7050e-01	13.6777	24.002179	0.000167	1.669152	0.565524	0.013513
 343	1.7100e-01	13.7066	24.088559	0.000213	2.133980	0.723012	0.017276
 344	1.7150e-01	13.7675	24.169381	0.000200	1.996644	0.676481	0.016164
 345	1.7200e-01	13.8012	24.236090	0.000165	1.648024	0.558366	0.013342
 346	1.7250e-01	13.8542	24.326319	0.000223	2.229058	0.755225	0.018046
 347	1.7300e-01	13.8782	24.392601	0.000164	1.637460	0.554786	0.013256
 348	1.7350e-01	13.9215	24.463159	0.000174	1.743102	0.590579	0.014112
 349	1.7400e-01	13.9729	24.562796	0.000246	2.461472	0.833969	0.019927
 350	1.7450e-01	13.9841	24.631216	0.000169	1.690281	0.572683	0.013684
 351	1.7500e-01	14.0258	24.700063	0.000170	1.700845	0.576262	0.013770
 352	1.7550e-01	14.0804	24.778319	0.000193	1.933259	0.655006	0.015651
 353	1.7600e-01	14.1317	24.859995	0.000202	2.017773	0.683640	0.016335
 354	1.7650e-01	14.1301	24.932692	-0.000180	-1.795924	-0.608475	0.014539
 355	1.7700e-01	14.2215	25.004105	0.000176	1.764231	0.597738	0.014283
 356	1.7750e-01	14.2408	25.102886	0.000244	2.440343	0.826811	0.019756
 357	1.7800e-01	14.2793	25.173872	0.000175	1.753666	0.594158	0.014197
 358	1.7850e-01	14.3226	25.254266	0.000199	1.986080	0.672902	0.016079
 359	1.7900e-01	14.3579	25.327390	0.000181	1.806488	0.612055	0.014625
 360	1.7950e-01	14.4108	25.399231	0.000177	1.774795	0.601317	0.014368
 361	1.8000e-01	14.4525	25.487749	0.000219	2.186801	0.740908	0.017704
 362	1.8050e-01	14.4798	25.562584	0.000185	1.848745	0.626372	0.014967
 363	1.8100e-01	14.5039	25.633142	0.000174	1.743102	0.590579	0.014112
 364	1.8150e-01	14.5568	25.713963	0.000200	1.996644	0.676481	0.016164
 365	1.8200e-01	14.6097	25.787942	0.000183	1.827616	0.619213	0.014796
 366	1.8250e-01	14.6370	25.860638	0.000180	1.795924	0.608475	0.014539
 367	1.8300e-01	14.6659	25.939322	0.000194	1.943823	0.658585	0.015737
 368	1.8350e-01	14.7269	26.012873	0.000182	1.817052	0.615634	0.014710
 369	1.8400e-01	14.7573	26.109944	0.000240	2.398086	0.812494	0.019414
 370	1.8450e-01	14.7974	26.174515	0.000160	1.595203	0.540469	0.012914
 371	1.8500e-01	14.8408	26.255337	0.000200	1.996644	0.676481	0.016164
 372	1.8550e-01	14.8584	26.328033	0.000180	1.795924	0.608475	0.014539
 373	1.8600e-01	14.9210	26.403295	0.000186	1.859309	0.629951	0.015052
 374	1.8650e-01	14.9723	26.489248	0.000212	2.123415	0.719433	0.017191
 375	1.8700e-01	15.0076	26.567075	0.000192	1.922695	0.651427	0.015566
 376	1.8750e-01	15.0525	26.647041	0.000198	1.975516	0.669323	0.015993
 377	1.8800e-01	15.0862	26.721021	0.000183	1.827616	0.619213	0.014796
 378	1.8850e-01	15.1247	26.805690	0.000209	2.091723	0.708695	0.016934
 379	1.8900e-01	15.1728	26.870262	0.000160	1.595203	0.540469	0.012914
 380	1.8950e-01	15.2338	26.961774	0.000226	2.260751	0.765963	0.018302
 381	1.9000e-01	15.2498	27.034042	0.000179	1.785359	0.604896	0.014454
 382	1.9050e-01	15.2964	27.103318	0.000171	1.711409	0.579841	0.013855
 383	1.9100e-01	15.3349	27.173020	0.000172	1.721974	0.583420	0.013941
 384	1.9150e-01	15.3509	27.245717	0.000180	1.795924	0.608475	0.014539
 385	1.9200e-01	15.4071	27.340222	0.000233	2.334701	0.791018	0.018901
 386	1.9250e-01	15.4680	27.406504	0.000164	1.637460	0.554786	0.013256
 387	1.9300e-01	15.4905	27.495878	0.000221	2.207929	0.748067	0.017875
 388	1.9350e-01	15.5306	27.573705	0.000192	1.922695	0.651427	0.015566
 389	1.9400e-01	15.5803	27.643408	0.000172	1.721974	0.583420	0.013941
 390	1.9450e-01	15.6188	27.729361	0.000212	2.123415	0.719433	0.017191
 391	1.9500e-01	15.6525	27.797781	0.000169	1.690281	0.572683	0.013684
 392	1.9550e-01	15.6894	27.872188	0.000184	1.838181	0.622792	0.014881
 393	1.9600e-01	15.7327	27.945312	0.000181	1.806488	0.612055	0.014625
 394	1.9650e-01	15.7873	28.025278	0.000198	1.975516	0.669323	0.015993
 395	1.9700e-01	15.8113	28.104388	0.000195	1.954387	0.662164	0.015822
 396	1.9750e-01	15.8723	28.183499	0.000195	1.954387	0.662164	0.015822
 397	1.9800e-01	15.8739	28.273300	0.000222	2.218494	0.751646	0.017960
 398	1.9850e-01	15.9364	28.326753	0.000132	1.320532	0.447408	0.010691
 399	1.9900e-01	15.9701	28.402443	0.000187	1.869873	0.633530	0.015138
 400	1.9950e-01	16.0295	28.484120	0.000202	2.017773	0.683640	0.016335
 401	2.0000e-01	16.0423	28.573066	0.000220	2.197365	0.744487	0.017789
 402	2.0050e-01	16.0824	28.651749	0.000194	1.943823	0.658585	0.015737
 403	2.0100e-01	16.1594	28.719313	0.000167	1.669152	0.565524	0.013513
 404	2.0150e-01	16.1803	28.803983	0.000209	2.091723	0.708695	0.016934
 405	2.0200e-01	16.2156	28.896778	0.000229	2.292444	0.776701	0.018559
 406	2.0250e-01	16.2525	28.954935	0.000144	1.436739	0.486780	0.011631
 407	2.0300e-01	16.2653	29.040032	0.000210	2.102287	0.712274	0.017019
 408	2.0350e-01	16.3407	29.103749	0.000157	1.574074	0.533311	0.012743
 409	2.0400e-01	16.3664	29.193550	0.000222	2.218494	0.751646	0.017960
 410	2.0450e-01	16.3937	29.265819	0.000179	1.785359	0.604896	0.014454
 411	2.0500e-01	16.4257	29.334239	0.000169	1.690281	0.572683	0.013684
 412	2.0550e-01	16.4931	29.405224	0.000175	1.753666	0.594158	0.014197
 413	2.0600e-01	16.4979	29.483480	0.000193	1.933259	0.655006	0.015651
 414	2.0650e-01	16.5669	29.564729	0.000201	2.007209	0.680061	0.016250
 415	2.0700e-01	16.5942	29.653675	0.000220	2.197365	0.744487	0.017789
 416	2.0750e-01	16.6519	29.716963	0.000156	1.563510	0.529731	0.012658
 417	2.0800e-01	16.6985	29.790515	0.000182	1.817052	0.615634	0.014710
 418	2.0850e-01	16.7386	29.869198	0.000194	1.943823	0.658585	0.015737
 419	2.0900e-01	16.7434	29.950874	0.000202	2.017773	0.683640	0.016335
 420	2.0950e-01	16.8172	30.038110	0.000216	2.155108	0.730170	0.017447
 421	2.1000e-01	16.8412	30.093273	0.000136	1.362789	0.461725	0.011033
 422	2.1050e-01	16.8781	30.173667	0.000199	1.986080	0.672902	0.016079
 423	2.1100e-01	16.8974	30.260903	0.000216	2.155108	0.730170	0.017447
 424	2.1150e-01	16.9664	30.335309	0.000184	1.838181	0.622792	0.014881
 425	2.1200e-01	17.0177	30.403729	0.000169	1.690281	0.572683	0.013684
 426	2.1250e-01	17.0514	30.501228	0.000241	2.408650	0.816073	0.019500
 427	2.1300e-01	17.1043	30.559385	0.000144	1.436739	0.486780	0.011631
 428	2.1350e-01	17.1204	30.642344	0.000205	2.049466	0.694378	0.016592
 429	2.1400e-01	17.1717	30.709909	0.000167	1.669152	0.565524	0.013513
 430	2.1450e-01	17.2150	30.799710	0.000222	2.218494	0.751646	0.017960
 431	2.1500e-01	17.2182	30.881387	0.000202	2.017773	0.683640	0.016335
 432	2.1550e-01	17.3177	30.942537	0.000151	1.510689	0.511835	0.012230
 433	2.1600e-01	17.3289	31.020365	0.000192	1.922695	0.651427	0.015566
 434	2.1650e-01	17.3385	31.108883	0.000219	2.186801	0.740908	0.017704
 435	2.1700e-01	17.3803	31.180297	0.000176	1.764231	0.597738	0.014283
 436	2.1750e-01	17.4332	31.249572	0.000171	1.711409	0.579841	0.013855
 437	2.1800e-01	17.4845	31.339801	0.000223	2.229058	0.755225	0.018046
 438	2.1850e-01	17.5214	31.416346	0.000189	1.891002	0.640689	0.015309
 439	2.1900e-01	17.5359	31.501016	0.000209	2.091723	0.708695	0.016934
 440	2.1950e-01	17.6241	31.558318	0.000142	1.415610	0.479622	0.011460
 441	2.2000e-01	17.6369	31.638284	0.000198	1.975516	0.669323	0.015993
 442	2.2050e-01	17.6963	31.713973	0.000187	1.869873	0.633530	0.015138
 443	2.2100e-01	17.7476	31.776407	0.000154	1.542381	0.522573	0.012487
 444	2.2150e-01	17.7765	31.867063	0.000224	2.239622	0.758805	0.018131
 445	2.2200e-01	17.8038	31.941898	0.000185	1.848745	0.626372	0.014967
 446	2.2250e-01	17.8519	32.002193	0.000149	1.489560	0.504677	0.012059
 447	2.2300e-01	17.8904	32.089856	0.000217	2.165672	0.733750	0.017533
 448	2.2350e-01	17.9385	32.164690	0.000185	1.848745	0.626372	0.014967
 449	2.2400e-01	17.9674	32.251498	0.000214	2.144544	0.726591	0.017362
 450	2.2450e-01	17.9979	32.330609	0.000195	1.954387	0.662164	0.015822
 451	2.2500e-01	18.0492	32.403305	0.000180	1.795924	0.608475	0.014539
 452	2.2550e-01	18.0765	32.471725	0.000169	1.690281	0.572683	0.013684
 453	2.2600e-01	18.1278	32.544422	0.000180	1.795924	0.608475	0.014539
 454	2.2650e-01	18.1776	32.638071	0.000231	2.313572	0.783859	0.018730
 455	2.2700e-01	18.2064	32.709485	0.000176	1.764231	0.597738	0.014283
 456	2.2750e-01	18.2321	32.781326	0.000177	1.774795	0.601317	0.014368
 457	2.2800e-01	18.3171	32.853595	0.000179	1.785359	0.604896	0.014454
 458	2.2850e-01	18.3460	32.935271	0.000202	2.017773	0.683640	0.016335
 459	2.2900e-01	18.3620	33.013099	0.000192	1.922695	0.651427	0.015566
 460	2.2950e-01	18.4342	33.077243	0.000158	1.584638	0.536890	0.012829
 461	2.3000e-01	18.4535	33.162340	0.000210	2.102287	0.712274	0.017019
 462	2.3050e-01	18.4743	33.240168	0.000192	1.922695	0.651427	0.015566
 463	2.3100e-01	18.5385	33.306877	0.000165	1.648024	0.558366	0.013342
 464	2.3150e-01	18.6011	33.373159	0.000164	1.637460	0.554786	0.013256
 465	2.3200e-01	18.6187	33.471513	0.000243	2.429779	0.823231	0.019671
 466	2.3250e-01	18.6284	33.539078	0.000167	1.669152	0.565524	0.013513
 467	2.3300e-01	18.6893	33.621610	0.000204	2.038901	0.690798	0.016506
 468	2.3350e-01	18.7310	33.692595	0.000175	1.753666	0.594158	0.014197
 469	2.3400e-01	18.7663	33.773844	0.000201	2.007209	0.680061	0.016250
 470	2.3450e-01	18.8177	33.833712	0.000148	1.478996	0.501097	0.011974
 471	2.3500e-01	18.8465	33.919237	0.000211	2.112851	0.715853	0.017105
 472	2.3550e-01	18.9075	33.990223	0.000175	1.753666	0.594158	0.014197
 473	2.3600e-01	18.9348	34.063774	0.000182	1.817052	0.615634	0.014710
 474	2.3650e-01	18.9829	34.145023	0.000201	2.007209	0.680061	0.016250
 475	2.3700e-01	19.0037	34.222851	0.000192	1.922695	0.651427	0.015566
 476	2.3750e-01	19.0310	34.307093	0.000208	2.081158	0.705116	0.016848
 477	2.3800e-01	19.0775	34.377651	0.000174	1.743102	0.590579	0.014112
 478	2.3850e-01	19.1225	34.451203	0.000182	1.817052	0.615634	0.014710
 479	2.3900e-01	19.1738	34.523044	0.000177	1.774795	0.601317	0.014368
 480	2.3950e-01	19.2267	34.597878	0.000185	1.848745	0.626372	0.014967
 481	2.4000e-01	19.2620	34.666298	0.000169	1.690281	0.572683	0.013684
 482	2.4050e-01	19.2861	34.756955	0.000224	2.239622	0.758805	0.018131
 483	2.4100e-01	19.3262	34.829223	0.000179	1.785359	0.604896	0.014454
 484	2.4150e-01	19.3807	34.910900	0.000202	2.017773	0.683640	0.016335
 485	2.4200e-01	19.4144	34.972050	0.000151	1.510689	0.511835	0.012230
 486	2.4250e-01	19.4241	35.076391	0.000258	2.577678	0.873341	0.020868
 487	2.4300e-01	19.5075	35.139679	0.000156	1.563510	0.529731	0.012658
 488	2.4350e-01	19.5091	35.209810	0.000173	1.732538	0.587000	0.014026
 489	2.4400e-01	19.5668	35.282079	0.000179	1.785359	0.604896	0.014454
 490	2.4450e-01	19.6005	35.354347	0.000179	1.785359	0.604896	0.014454
 491	2.4500e-01	19.6454	35.436879	0.000204	2.038901	0.690798	0.016506
 492	2.4550e-01	19.7064	35.518983	0.000203	2.028337	0.687219	0.016421
 493	2.4600e-01	19.7369	35.595100	0.000188	1.880438	0.637109	0.015223
 494	2.4650e-01	19.7674	35.666086	0.000175	1.753666	0.594158	0.014197
 495	2.4700e-01	19.8091	35.743914	0.000192	1.922695	0.651427	0.015566
 496	2.4750e-01	19.8412	35.811051	0.000166	1.658588	0.561945	0.013427
 497	2.4800e-01	19.8748	35.891445	0.000199	1.986080	0.672902	0.016079
 498	2.4850e-01	19.9406	35.953450	0.000153	1.531817	0.518994	0.012401
 499	2.4900e-01	19.9679	36.042824	0.000221	2.207929	0.748067	0.017875
 500	2.4950e-01	20.0208	36.110389	0.000167	1.669152	0.565524	0.013513
 501	2.5000e-01	20.0497	36.189072	0.000194	1.943823	0.658585	0.015737
 502	2.5050e-01	19.9807	36.226703	-0.000093	-0.929655	-0.314975	0.007526
 503	2.5100e-01	19.9438	36.214302	0.000031	0.306363	0.103799	-0.002480
 504	2.5150e-01	19.9069	36.153151	0.000151	1.510689	0.511835	-0.012230
 505	2.5200e-01	19.8620	36.123645	0.000073	0.728934	0.246969	-0.005901
 506	2.5250e-01	19.8363	36.056508	0.000166	1.658588	0.561945	-0.013427
 507	2.5300e-01	19.7946	36.008614	0.000118	1.183197	0.400878	-0.009579
 508	2.5350e-01	19.7337	35.950884	0.000143	1.426175	0.483201	-0.011546
 509	2.5400e-01	19.6936	35.894438	0.000139	1.394482	0.472463	-0.011289
 510	2.5450e-01	19.6551	35.831577	0.000155	1.552946	0.526152	-0.012572
 511	2.5500e-01	19.6470	35.751183	0.000199	1.986080	0.672902	-0.016079
 512	2.5550e-01	19.6101	35.695592	0.000137	1.373353	0.465305	-0.011118
 513	2.5600e-01	19.5363	35.660527	0.000087	0.866269	0.293500	-0.007013
 514	2.5650e-01	19.5139	35.589541	0.000175	1.753666	0.594158	-0.014197
 515	2.5700e-01	19.4674	35.536516	0.000131	1.309968	0.443829	-0.010605
 516	2.5750e-01	19.4192	35.459971	0.000189	1.891002	0.640689	-0.015309
 517	2.5800e-01	19.3952	35.384281	0.000187	1.869873	0.633530	-0.015138
 518	2.5850e-01	19.3294	35.348788	0.000088	0.876833	0.297079	-0.007099
 519	2.5900e-01	19.3214	35.278658	0.000173	1.732538	0.587000	-0.014026
 520	2.5950e-01	19.2508	35.231619	0.000116	1.162068	0.393719	-0.009408
 521	2.6000e-01	19.2331	35.164909	0.000165	1.648024	0.558366	-0.013342
 522	2.6050e-01	19.1818	35.118726	0.000114	1.140940	0.386561	-0.009237
 523	2.6100e-01	19.1497	35.044747	0.000183	1.827616	0.619213	-0.014796
 524	2.6150e-01	19.1016	34.969057	0.000187	1.869873	0.633530	-0.015138
 525	2.6200e-01	19.0583	34.915604	0.000132	1.320532	0.447408	-0.010691
 526	2.6250e-01	19.0182	34.860012	0.000137	1.373353	0.465305	-0.011118
 527	2.6300e-01	18.9909	34.804421	0.000137	1.373353	0.465305	-0.011118
 528	2.6350e-01	18.9316	34.739850	0.000160	1.595203	0.540469	-0.012914
 529	2.6400e-01	18.8979	34.679555	0.000149	1.489560	0.504677	-0.012059
 530	2.6450e-01	18.8786	34.608996	0.000174	1.743102	0.590579	-0.014112
 531	2.6500e-01	18.8481	34.541432	0.000167	1.669152	0.565524	-0.013513
 532	2.6550e-01	18.7791	34.466170	0.000186	1.859309	0.629951	-0.015052
 533	2.6600e-01	18.7599	34.402881	0.000156	1.563510	0.529731	-0.012658
 534	2.6650e-01	18.7182	34.342586	0.000149	1.489560	0.504677	-0.012059
 535	2.6700e-01	18.6669	34.257916	0.000209	2.091723	0.708695	-0.016934
 536	2.6750e-01	18.6348	34.207884	0.000124	1.236018	0.418774	-0.010006
 537	2.6800e-01	18.5722	34.149299	0.000145	1.447303	0.490360	-0.011717
 538	2.6850e-01	18.5754	34.083445	-0.000163	-1.626895	-0.551207	-0.013171
 539	2.6900e-01	18.5000	34.015452	0.000168	1.679717	0.569103	-0.013598
 540	2.6950e-01	18.4679	33.946177	0.000171	1.711409	0.579841	-0.013855
 541	2.7000e-01	18.4439	33.889731	0.000139	1.394482	0.472463	-0.011289
 542	2.7050e-01	18.3829	33.825159	0.000160	1.595203	0.540469	-0.012914
 543	2.7100e-01	18.3637	33.751180	0.000183	1.827616	0.619213	-0.014796
 544	2.7150e-01	18.3139	33.690457	0.000150	1.500124	0.508256	-0.012145
 545	2.7200e-01	18.2899	33.616478	0.000183	1.827616	0.619213	-0.014796
 546	2.7250e-01	18.2257	33.566018	0.000125	1.246582	0.422353	-0.010092
 547	2.7300e-01	18.1679	33.503157	0.000155	1.552946	0.526152	-0.012572
 548	2.7350e-01	18.1519	33.436448	0.000165	1.648024	0.558366	-0.013342
 549	2.7400e-01	18.1086	33.354344	0.000203	2.028337	0.687219	-0.016421
 550	2.7450e-01	18.0669	33.304312	0.000124	1.236018	0.418774	-0.010006
 551	2.7500e-01	18.0332	33.233753	0.000174	1.743102	0.590579	-0.014112
 552	2.7550e-01	17.9883	33.172175	0.000152	1.521253	0.515414	-0.012316
 553	2.7600e-01	17.9417	33.104611	0.000167	1.669152	0.565524	-0.013513
 554	2.7650e-01	17.8936	33.043888	0.000150	1.500124	0.508256	-0.012145
 555	2.7700e-01	17.8487	32.983165	0.000150	1.500124	0.508256	-0.012145
 556	2.7750e-01	17.8054	32.904910	0.000193	1.933259	0.655006	-0.015651
 557	2.7800e-01	17.7797	32.835207	0.000172	1.721974	0.583420	-0.013941
 558	2.7850e-01	17.7589	32.770208	0.000161	1.605767	0.544049	-0.013000
 559	2.7900e-01	17.6706	32.715899	0.000134	1.341660	0.454567	-0.010862
 560	2.7950e-01	17.6802	32.632940	-0.000205	-2.049466	-0.694378	-0.016592
 561	2.8000e-01	17.6145	32.572217	0.000150	1.500124	0.508256	-0.012145
 562	2.8050e-01	17.5888	32.510212	0.000153	1.531817	0.518994	-0.012401
 563	2.8100e-01	17.5663	32.429818	0.000199	1.986080	0.672902	-0.016079
 564	2.8150e-01	17.4942	32.375510	0.000134	1.341660	0.454567	-0.010862
 565	2.8200e-01	17.4749	32.296826	0.000194	1.943823	0.658585	-0.015737
 566	2.8250e-01	17.4107	32.248077	0.000120	1.204325	0.408036	-0.009750
 567	2.8300e-01	17.3931	32.165118	0.000205	2.049466	0.694378	-0.016592
 568	2.8350e-01	17.3273	32.100974	0.000158	1.584638	0.536890	-0.012829
 569	2.8400e-01	17.2904	32.037686	0.000156	1.563510	0.529731	-0.012658
 570	2.8450e-01	17.2407	31.965417	0.000179	1.785359	0.604896	-0.014454
 571	2.8500e-01	17.1958	31.909398	0.000138	1.383918	0.468884	-0.011204
 572	2.8550e-01	17.1926	31.834991	0.000184	1.838181	0.622792	-0.014881
 573	2.8600e-01	17.1460	31.765716	0.000171	1.711409	0.579841	-0.013855
 574	2.8650e-01	17.1107	31.704993	0.000150	1.500124	0.508256	-0.012145
 575	2.8700e-01	17.0658	31.644698	0.000149	1.489560	0.504677	-0.012059
 576	2.8750e-01	17.0209	31.572429	0.000179	1.785359	0.604896	-0.014454
 577	2.8800e-01	16.9712	31.508285	0.000158	1.584638	0.536890	-0.012829
 578	2.8850e-01	16.9263	31.433879	0.000184	1.838181	0.622792	-0.014881
 579	2.8900e-01	16.8990	31.371873	0.000153	1.531817	0.518994	-0.012401
 580	2.8950e-01	16.8509	31.307302	0.000160	1.595203	0.540469	-0.012914
 581	2.9000e-01	16.8509	31.218356	0.000220	2.197365	0.744487	-0.017789
 582	2.9050e-01	16.7578	31.166185	0.000129	1.288839	0.436671	-0.010434
 583	2.9100e-01	16.7450	31.080660	0.000211	2.112851	0.715853	-0.017105
 584	2.9150e-01	16.6969	31.030200	0.000125	1.246582	0.422353	-0.010092
 585	2.9200e-01	16.6696	30.963919	0.000164	1.637460	0.554786	-0.013256
 586	2.9250e-01	16.6519	30.883097	0.000200	1.996644	0.676481	-0.016164
 587	2.9300e-01	16.5958	30.826223	0.000141	1.405046	0.476042	-0.011375
 588	2.9350e-01	16.5316	30.751389	0.000185	1.848745	0.626372	-0.014967
 589	2.9400e-01	16.4931	30.691521	0.000148	1.478996	0.501097	-0.011974
 590	2.9450e-01	16.4466	30.617114	0.000184	1.838181	0.622792	-0.014881
 591	2.9500e-01	16.4322	30.556819	0.000149	1.489560	0.504677	-0.012059
 592	2.9550e-01	16.3696	30.481985	0.000185	1.848745	0.626372	-0.014967
 593	2.9600e-01	16.3311	30.408006	0.000183	1.827616	0.619213	-0.014796
 594	2.9650e-01	16.2958	30.348993	0.000146	1.457867	0.493939	-0.011802
 595	2.9700e-01	16.2605	30.277580	0.000176	1.764231	0.597738	-0.014283
 596	2.9750e-01	16.2108	30.201890	0.000187	1.869873	0.633530	-0.015138
 597	2.9800e-01	16.1947	30.138602	0.000156	1.563510	0.529731	-0.012658
 598	2.9850e-01	16.1434	30.060774	0.000192	1.922695	0.651427	-0.015566
 599	2.9900e-01	16.0969	29.995347	0.000162	1.616331	0.547628	-0.013085
 600	2.9950e-01	16.0600	29.904691	0.000224	2.239622	0.758805	-0.018131
 601	3.0000e-01	16.0327	29.853376	0.000127	1.267711	0.429512	-0.010263
 602	3.0050e-01	15.9814	29.789232	0.000158	1.584638	0.536890	-0.012829
 603	3.0100e-01	15.9381	29.734923	0.000134	1.341660	0.454567	-0.010862
 604	3.0150e-01	15.9060	29.663082	0.000177	1.774795	0.601317	-0.014368
 605	3.0200e-01	15.8514	29.593807	0.000171	1.711409	0.579841	-0.013855
 606	3.0250e-01	15.8466	29.500585	0.000230	2.303008	0.780280	-0.018644
 607	3.0300e-01	15.7520	29.470651	0.000074	0.739498	0.250549	-0.005987
 608	3.0350e-01	15.7327	29.385554	0.000210	2.102287	0.712274	-0.017019
 609	3.0400e-01	15.6942	29.323120	0.000154	1.542381	0.522573	-0.012487
 610	3.0450e-01	15.6573	29.248714	0.000184	1.838181	0.622792	-0.014881
 611	3.0500e-01	15.6060	29.167892	0.000200	1.996644	0.676481	-0.016164
 612	3.0550e-01	15.5819	29.131544	0.000090	0.897962	0.304238	-0.007270
 613	3.0600e-01	15.5306	29.047302	0.000208	2.081158	0.705116	-0.016848
 614	3.0650e-01	15.4953	28.978027	0.000171	1.711409	0.579841	-0.013855
 615	3.0700e-01	15.4584	28.900627	0.000191	1.912130	0.647847	-0.015480
 616	3.0750e-01	15.4231	28.840759	0.000148	1.478996	0.501097	-0.011974
 617	3.0800e-01	15.3846	28.765925	0.000185	1.848745	0.626372	-0.014967
 618	3.0850e-01	15.3541	28.703491	0.000154	1.542381	0.522573	-0.012487
 619	3.0900e-01	15.2964	28.623953	0.000196	1.964952	0.665744	-0.015908
 620	3.0950e-01	15.2530	28.550401	0.000182	1.817052	0.615634	-0.014710
 621	3.1000e-01	15.2242	28.487113	0.000156	1.563510	0.529731	-0.012658
 622	3.1050e-01	15.2017	28.395173	0.000227	2.271315	0.769542	-0.018388
 623	3.1100e-01	15.1568	28.326753	0.000169	1.690281	0.572683	-0.013684
 624	3.1150e-01	15.0942	28.274583	0.000129	1.288839	0.436671	-0.010434
 625	3.1200e-01	15.0670	28.190341	0.000208	2.081158	0.705116	-0.016848
 626	3.1250e-01	15.0397	28.128335	0.000153	1.531817	0.518994	-0.012401
 627	3.1300e-01	14.9851	28.058205	0.000173	1.732538	0.587000	-0.014026
 628	3.1350e-01	14.9418	27.982943	0.000186	1.859309	0.629951	-0.015052
 629	3.1400e-01	14.9033	27.922220	0.000150	1.500124	0.508256	-0.012145
 630	3.1450e-01	14.8600	27.852089	0.000173	1.732538	0.587000	-0.014026
 631	3.1500e-01	14.8311	27.781959	0.000173	1.732538	0.587000	-0.014026
 632	3.1550e-01	14.7750	27.719953	0.000153	1.531817	0.518994	-0.012401
 633	3.1600e-01	14.7333	27.644264	0.000187	1.869873	0.633530	-0.015138
 634	3.1650e-01	14.6948	27.578837	0.000162	1.616331	0.547628	-0.013085
 635	3.1700e-01	14.6563	27.492029	0.000214	2.144544	0.726591	-0.017362
 636	3.1750e-01	14.6162	27.421043	0.000175	1.753666	0.594158	-0.014197
 637	3.1800e-01	14.5777	27.367590	0.000132	1.320532	0.447408	-0.010691
 638	3.1850e-01	14.5584	27.293183	0.000184	1.838181	0.622792	-0.014881
 639	3.1900e-01	14.5151	27.214928	0.000193	1.933259	0.655006	-0.015651
 640	3.1950e-01	14.4525	27.159336	0.000137	1.373353	0.465305	-0.011118
 641	3.2000e-01	14.4221	27.070390	0.000220	2.197365	0.744487	-0.017789
 642	3.2050e-01	14.3819	27.017365	0.000131	1.309968	0.443829	-0.010605
 643	3.2100e-01	14.3370	26.953649	0.000157	1.574074	0.533311	-0.012743
 644	3.2150e-01	14.3033	26.880097	0.000182	1.817052	0.615634	-0.014710
 645	3.2200e-01	14.2825	26.800131	0.000198	1.975516	0.669323	-0.015993
 646	3.2250e-01	14.2295	26.717172	0.000205	2.049466	0.694378	-0.016592
 647	3.2300e-01	14.1910	26.653883	0.000156	1.563510	0.529731	-0.012658
 648	3.2350e-01	14.1558	26.585463	0.000169	1.690281	0.572683	-0.013684
 649	3.2400e-01	14.1205	26.523458	0.000153	1.531817	0.518994	-0.012401
 650	3.2450e-01	14.0755	26.449051	0.000184	1.838181	0.622792	-0.014881
 651	3.2500e-01	14.0435	26.375927	0.000181	1.806488	0.612055	-0.014625
 652	3.2550e-01	13.9825	26.314777	0.000151	1.510689	0.511835	-0.012230
 653	3.2600e-01	13.9215	26.241653	0.000181	1.806488	0.612055	-0.014625
 654	3.2650e-01	13.9231	26.150568	-0.000225	-2.250187	-0.762384	-0.018217
 655	3.2700e-01	13.8397	26.097543	0.000131	1.309968	0.443829	-0.010605
 656	3.2750e-01	13.7948	26.034254	0.000156	1.563510	0.529731	-0.012658
 657	3.2800e-01	13.7884	25.952150	0.000203	2.028337	0.687219	-0.016421
 658	3.2850e-01	13.7226	25.889289	0.000155	1.552946	0.526152	-0.012572
 659	3.2900e-01	13.6873	25.807185	0.000203	2.028337	0.687219	-0.016421
 660	3.2950e-01	13.6777	25.737910	0.000171	1.711409	0.579841	-0.013855
 661	3.3000e-01	13.5879	25.672483	0.000162	1.616331	0.547628	-0.013085
 662	3.3050e-01	13.5606	25.574557	0.000242	2.419215	0.819652	-0.019585
 663	3.3100e-01	13.5381	25.532650	0.000104	1.035297	0.350768	-0.008381
 664	3.3150e-01	13.4916	25.449691	0.000205	2.049466	0.694378	-0.016592
 665	3.3200e-01	13.4547	25.383836	0.000163	1.626895	0.551207	-0.013171
 666	3.3250e-01	13.4322	25.296173	0.000217	2.165672	0.733750	-0.017533
 667	3.3300e-01	13.3889	25.233312	0.000155	1.552946	0.526152	-0.012572
 668	3.3350e-01	13.3280	25.185846	0.000117	1.172632	0.397299	-0.009493
 669	3.3400e-01	13.2975	25.087920	0.000242	2.419215	0.819652	-0.019585
 670	3.3450e-01	13.2670	25.021210	0.000165	1.648024	0.558366	-0.013342
 671	3.3500e-01	13.2076	24.965191	0.000138	1.383918	0.468884	-0.011204
 672	3.3550e-01	13.1708	24.883942	0.000201	2.007209	0.680061	-0.016250
 673	3.3600e-01	13.1611	24.799700	0.000208	2.081158	0.705116	-0.016848
 674	3.3650e-01	13.1002	24.738977	0.000150	1.500124	0.508256	-0.012145
 675	3.3700e-01	13.0552	24.665853	0.000181	1.806488	0.612055	-0.014625
 676	3.3750e-01	13.0248	24.602565	0.000156	1.563510	0.529731	-0.012658
 677	3.3800e-01	12.9622	24.529013	0.000182	1.817052	0.615634	-0.014710
 678	3.3850e-01	12.9333	24.466580	0.000154	1.542381	0.522573	-0.012487
 679	3.3900e-01	12.9253	24.363095	0.000256	2.556550	0.866183	-0.020697
 680	3.3950e-01	12.8756	24.307503	0.000137	1.373353	0.465305	-0.011118
 681	3.4000e-01	12.8258	24.230103	0.000191	1.912130	0.647847	-0.015480
 682	3.4050e-01	12.7777	24.164677	0.000162	1.616331	0.547628	-0.013085
 683	3.4100e-01	12.7456	24.092836	0.000177	1.774795	0.601317	-0.014368
 684	3.4150e-01	12.6927	24.027837	0.000161	1.605767	0.544049	-0.013000
 685	3.4200e-01	12.6590	23.964548	0.000156	1.563510	0.529731	-0.012658
 686	3.4250e-01	12.6349	23.875174	0.000221	2.207929	0.748067	-0.017875
 687	3.4300e-01	12.5948	23.816162	0.000146	1.457867	0.493939	-0.011802
 688	3.4350e-01	12.5627	23.739189	0.000190	1.901566	0.644268	-0.015395
 689	3.4400e-01	12.5066	23.668631	0.000174	1.743102	0.590579	-0.014112
 690	3.4450e-01	12.4697	23.577120	0.000226	2.260751	0.765963	-0.018302
 691	3.4500e-01	12.4216	23.514686	0.000154	1.542381	0.522573	-0.012487
 692	3.4550e-01	12.3895	23.430444	0.000208	2.081158	0.705116	-0.016848
 693	3.4600e-01	12.3462	23.376563	0.000133	1.331096	0.450988	-0.010776
 694	3.4650e-01	12.3013	23.296170	0.000199	1.986080	0.672902	-0.016079
 695	3.4700e-01	12.2483	23.240578	0.000137	1.373353	0.465305	-0.011118
 696	3.4750e-01	12.2275	23.149067	0.000226	2.260751	0.765963	-0.018302
 697	3.4800e-01	12.1665	23.077653	0.000176	1.764231	0.597738	-0.014283
 698	3.4850e-01	12.1376	23.025055	0.000130	1.299403	0.440250	-0.010520
 699	3.4900e-01	12.0831	22.942951	0.000203	2.028337	0.687219	-0.016421
 700	3.4950e-01	12.0494	22.878380	0.000160	1.595203	0.540469	-0.012914
 701	3.5000e-01	12.0029	22.794993	0.000206	2.060030	0.697957	-0.016677
 702	3.5050e-01	11.9900	22.723152	0.000177	1.774795	0.601317	-0.014368
 703	3.5100e-01	11.9451	22.649173	0.000183	1.827616	0.619213	-0.014796
 704	3.5150e-01	11.9002	22.577332	0.000177	1.774795	0.601317	-0.014368
 705	3.5200e-01	11.8601	22.509339	0.000168	1.679717	0.569103	-0.013598
 706	3.5250e-01	11.8457	22.429373	0.000198	1.975516	0.669323	-0.015993
 707	3.5300e-01	11.7863	22.359670	0.000172	1.721974	0.583420	-0.013941
 708	3.5350e-01	11.7478	22.286974	0.000180	1.795924	0.608475	-0.014539
 709	3.5400e-01	11.7285	22.207436	0.000196	1.964952	0.665744	-0.015908
 710	3.5450e-01	11.6483	22.147996	0.000147	1.468432	0.497518	-0.011888
 711	3.5500e-01	11.6130	22.059905	0.000218	2.176237	0.737329	-0.017618
 712	3.5550e-01	11.5745	22.000038	0.000148	1.478996	0.501097	-0.011974
 713	3.5600e-01	11.5569	21.929907	0.000173	1.732538	0.587000	-0.014026
 714	3.5650e-01	11.4863	21.849513	0.000199	1.986080	0.672902	-0.016079
 715	3.5700e-01	11.4671	21.792212	0.000142	1.415610	0.479622	-0.011460
 716	3.5750e-01	11.4334	21.693003	0.000245	2.450907	0.830390	-0.019842
 717	3.5800e-01	11.3852	21.639549	0.000132	1.320532	0.447408	-0.010691
 718	3.5850e-01	11.3499	21.556162	0.000206	2.060030	0.697957	-0.016677
 719	3.5900e-01	11.2970	21.477052	0.000195	1.954387	0.662164	-0.015822
 720	3.5950e-01	11.2473	21.419322	0.000143	1.426175	0.483201	-0.011546
 721	3.6000e-01	11.2264	21.345771	0.000182	1.817052	0.615634	-0.014710
 722	3.6050e-01	11.1655	21.267515	0.000193	1.933259	0.655006	-0.015651
 723	3.6100e-01	11.1350	21.187977	0.000196	1.964952	0.665744	-0.015908
 724	3.6150e-01	11.0933	21.126399	0.000152	1.521253	0.515414	-0.012316
 725	3.6200e-01	11.0692	21.047288	0.000195	1.954387	0.662164	-0.015822
 726	3.6250e-01	11.0371	20.971171	0.000188	1.880438	0.637109	-0.015223
 727	3.6300e-01	10.9954	20.891633	0.000196	1.964952	0.665744	-0.015908
 728	3.6350e-01	10.9649	20.826634	0.000161	1.605767	0.544049	-0.013000
 729	3.6400e-01	10.8831	20.754365	0.000179	1.785359	0.604896	-0.014454
 730	3.6450e-01	10.8719	20.658577	0.000237	2.366393	0.801756	-0.019158
 731	3.6500e-01	10.8077	20.616242	0.000105	1.045861	0.354347	-0.008467
 732	3.6550e-01	10.7756	20.522165	0.000232	2.324136	0.787439	-0.018816
 733	3.6600e-01	10.7516	20.467856	0.000134	1.341660	0.454567	-0.010862
 734	3.6650e-01	10.6970	20.384897	0.000205	2.049466	0.694378	-0.016592
 735	3.6700e-01	10.6313	20.321181	0.000157	1.574074	0.533311	-0.012743
 736	3.6750e-01	10.6120	20.231807	0.000221	2.207929	0.748067	-0.017875
 737	3.6800e-01	10.5911	20.179637	0.000129	1.288839	0.436671	-0.010434
 738	3.6850e-01	10.5366	20.084276	0.000236	2.355829	0.798176	-0.019072
 739	3.6900e-01	10.4901	20.013718	0.000174	1.743102	0.590579	-0.014112
 740	3.6950e-01	10.4596	19.940594	0.000181	1.806488	0.612055	-0.014625
 741	3.7000e-01	10.4179	19.855069	0.000211	2.112851	0.715853	-0.017105
 742	3.7050e-01	10.4002	19.797340	0.000143	1.426175	0.483201	-0.011546
 743	3.7100e-01	10.3457	19.721222	0.000188	1.880438	0.637109	-0.015223
 744	3.7150e-01	10.3008	19.658789	0.000154	1.542381	0.522573	-0.012487
 745	3.7200e-01	10.2206	19.581817	0.000190	1.901566	0.644268	-0.015395
 746	3.7250e-01	10.2013	19.510831	0.000175	1.753666	0.594158	-0.014197
 747	3.7300e-01	10.1901	19.437279	0.000182	1.817052	0.615634	-0.014710
 748	3.7350e-01	10.1163	19.341491	0.000237	2.366393	0.801756	-0.019158
 749	3.7400e-01	10.0874	19.282907	0.000145	1.447303	0.490360	-0.011717
 750	3.7450e-01	10.0361	19.213631	0.000171	1.711409	0.579841	-0.013855
 751	3.7500e-01	10.0168	19.136659	0.000190	1.901566	0.644268	-0.015395
 752	3.7550e-01	9.9815	19.059258	0.000191	1.912130	0.647847	-0.015480
 753	3.7600e-01	9.9398	18.980575	0.000194	1.943823	0.658585	-0.015737
 754	3.7650e-01	9.8612	18.914721	0.000163	1.626895	0.551207	-0.013171
 755	3.7700e-01	9.8388	18.823637	0.000225	2.250187	0.762384	-0.018217
 756	3.7750e-01	9.8580	18.751796	-0.000177	-1.774795	-0.601317	-0.014368
 757	3.7800e-01	9.7666	18.680382	0.000176	1.764231	0.597738	-0.014283
 758	3.7850e-01	9.7810	18.603410	-0.000190	-1.901566	-0.644268	-0.015395
 759	3.7900e-01	9.7120	18.527720	0.000187	1.869873	0.633530	-0.015138
 760	3.7950e-01	9.6655	18.461866	0.000163	1.626895	0.551207	-0.013171
 761	3.8000e-01	9.6254	18.393018	0.000170	1.700845	0.576262	-0.013770
 762	3.8050e-01	9.5949	18.316473	0.000189	1.891002	0.640689	-0.015309
 763	3.8100e-01	9.5388	18.242494	0.000183	1.827616	0.619213	-0.014796
 764	3.8150e-01	9.4778	18.161245	0.000201	2.007209	0.680061	-0.016250
 765	3.8200e-01	9.4521	18.106937	0.000134	1.341660	0.454567	-0.010862
 766	3.8250e-01	9.4297	18.010721	0.000238	2.376958	0.805335	-0.019243
 767	3.8300e-01	9.3816	17.949999	0.000150	1.500124	0.508256	-0.012145
 768	3.8350e-01	9.3286	17.878157	0.000177	1.774795	0.601317	-0.014368
 769	3.8400e-01	9.2997	17.790922	0.000216	2.155108	0.730170	-0.017447
 770	3.8450e-01	9.2548	17.733620	0.000142	1.415610	0.479622	-0.011460
 771	3.8500e-01	9.2195	17.637832	0.000237	2.366393	0.801756	-0.019158
 772	3.8550e-01	9.1858	17.566846	0.000175	1.753666	0.594158	-0.014197
 773	3.8600e-01	9.1217	17.491584	0.000186	1.859309	0.629951	-0.015052
 774	3.8650e-01	9.0960	17.420171	0.000176	1.764231	0.597738	-0.014283
 775	3.8700e-01	9.0735	17.341915	0.000193	1.933259	0.655006	-0.015651
 776	3.8750e-01	9.0222	17.267081	0.000185	1.848745	0.626372	-0.014967
 777	3.8800e-01	8.9853	17.193529	0.000182	1.817052	0.615634	-0.014710
 778	3.8850e-01	8.9276	17.132379	0.000151	1.510689	0.511835	-0.012230
 779	3.8900e-01	8.9243	17.072939	0.000147	1.468432	0.497518	-0.011888
 780	3.8950e-01	8.8666	16.972875	0.000247	2.472036	0.837548	-0.020013
 781	3.9000e-01	8.8281	16.895902	0.000190	1.901566	0.644268	-0.015395
 782	3.9050e-01	8.7880	16.820213	0.000187	1.869873	0.633530	-0.015138
 783	3.9100e-01	8.7318	16.764194	0.000138	1.383918	0.468884	-0.011204
 784	3.9150e-01	8.6917	16.671827	0.000228	2.281879	0.773122	-0.018473
 785	3.9200e-01	8.6548	16.616235	0.000137	1.373353	0.465305	-0.011118
 786	3.9250e-01	8.6484	16.520447	0.000237	2.366393	0.801756	-0.019158
 787	3.9300e-01	8.5554	16.458014	0.000154	1.542381	0.522573	-0.012487
 788	3.9350e-01	8.5217	16.384035	0.000183	1.827616	0.619213	-0.014796
 789	3.9400e-01	8.4912	16.293378	0.000224	2.239622	0.758805	-0.018131
 790	3.9450e-01	8.4575	16.226241	0.000166	1.658588	0.561945	-0.013427
 791	3.9500e-01	8.4254	16.146703	0.000196	1.964952	0.665744	-0.015908
 792	3.9550e-01	8.3629	16.071441	0.000186	1.859309	0.629951	-0.015052
 793	3.9600e-01	8.3308	16.009007	0.000154	1.542381	0.522573	-0.012487
 794	3.9650e-01	8.2987	15.914075	0.000235	2.345265	0.794597	-0.018987
 795	3.9700e-01	8.2393	15.849076	0.000161	1.605767	0.544049	-0.013000
 796	3.9750e-01	8.2265	15.787498	0.000152	1.521253	0.515414	-0.012316
 797	3.9800e-01	8.1784	15.713518	0.000183	1.827616	0.619213	-0.014796
 798	3.9850e-01	8.1303	15.628849	0.000209	2.091723	0.708695	-0.016934
 799	3.9900e-01	8.1190	15.551021	0.000192	1.922695	0.651427	-0.015566
 800	3.9950e-01	8.0532	15.464213	0.000214	2.144544	0.726591	-0.017362
 801	4.0000e-01	8.0115	15.397931	0.000164	1.637460	0.554786	-0.013256
 802	4.0050e-01	7.9811	15.337208	0.000150	1.500124	0.508256	-0.012145
 803	4.0100e-01	7.9522	15.244413	0.000229	2.292444	0.776701	-0.018559
 804	4.0150e-01	7.8832	15.180697	0.000157	1.574074	0.533311	-0.012743
 805	4.0200e-01	7.8752	15.096455	0.000208	2.081158	0.705116	-0.016848
 806	4.0250e-01	7.8254	15.022048	0.000184	1.838181	0.622792	-0.014881
 807	4.0300e-01	7.7837	14.959615	0.000154	1.542381	0.522573	-0.012487
 808	4.0350e-01	7.7356	14.886491	0.000181	1.806488	0.612055	-0.014625
 809	4.0400e-01	7.6955	14.798400	0.000218	2.176237	0.737329	-0.017618
 810	4.0450e-01	7.6458	14.721428	0.000190	1.901566	0.644268	-0.015395
 811	4.0500e-01	7.6025	14.658139	0.000156	1.563510	0.529731	-0.012658
 812	4.0550e-01	7.6041	14.573897	-0.000208	-2.081158	-0.705116	-0.016848
 813	4.0600e-01	7.5527	14.492648	0.000201	2.007209	0.680061	-0.016250
 814	4.0650e-01	7.4741	14.433208	0.000147	1.468432	0.497518	-0.011888
 815	4.0700e-01	7.4436	14.357519	0.000187	1.869873	0.633530	-0.015138
 816	4.0750e-01	7.4148	14.261731	0.000237	2.366393	0.801756	-0.019158
 817	4.0800e-01	7.3779	14.193738	0.000168	1.679717	0.569103	-0.013598
 818	4.0850e-01	7.3426	14.124890	0.000170	1.700845	0.576262	-0.013770
 819	4.0900e-01	7.2977	14.033806	0.000225	2.250187	0.762384	-0.018217
 820	4.0950e-01	7.2415	13.961538	0.000179	1.785359	0.604896	-0.014454
 821	4.1000e-01	7.2303	13.901242	0.000149	1.489560	0.504677	-0.012059
 822	4.1050e-01	7.1789	13.816145	0.000210	2.102287	0.712274	-0.017019
 823	4.1100e-01	7.1372	13.746870	0.000171	1.711409	0.579841	-0.013855
 824	4.1150e-01	7.0827	13.673318	0.000182	1.817052	0.615634	-0.014710
 825	4.1200e-01	7.0682	13.592497	0.000200	1.996644	0.676481	-0.016164
 826	4.1250e-01	7.0233	13.514242	0.000193	1.933259	0.655006	-0.015651
 827	4.1300e-01	6.9672	13.454374	0.000148	1.478996	0.501097	-0.011974
 828	4.1350e-01	6.9527	13.367138	0.000216	2.155108	0.730170	-0.017447
 829	4.1400e-01	6.8838	13.290166	0.000190	1.901566	0.644268	-0.015395
 830	4.1450e-01	6.8485	13.202930	0.000216	2.155108	0.730170	-0.017447
 831	4.1500e-01	6.8116	13.130662	0.000179	1.785359	0.604896	-0.014454
 832	4.1550e-01	6.7779	13.060959	0.000172	1.721974	0.583420	-0.013941
 833	4.1600e-01	6.7169	12.985269	0.000187	1.869873	0.633530	-0.015138
 834	4.1650e-01	6.7089	12.905303	0.000198	1.975516	0.669323	-0.015993
 835	4.1700e-01	6.6351	12.832607	0.000180	1.795924	0.608475	-0.014539
 836	4.1750e-01	6.6223	12.760766	0.000177	1.774795	0.601317	-0.014368
 837	4.1800e-01	6.5870	12.684649	0.000188	1.880438	0.637109	-0.015223
 838	4.1850e-01	6.5356	12.602117	0.000204	2.038901	0.690798	-0.016506
 839	4.1900e-01	6.4795	12.525144	0.000190	1.901566	0.644268	-0.015395
 840	4.1950e-01	6.4939	12.431067	-0.000232	-2.324136	-0.787439	-0.018816
 841	4.2000e-01	6.4266	12.375903	0.000136	1.362789	0.461725	-0.011033
 842	4.2050e-01	6.3816	12.302779	0.000181	1.806488	0.612055	-0.014625
 843	4.2100e-01	6.3383	12.224524	0.000193	1.933259	0.655006	-0.015651
 844	4.2150e-01	6.3030	12.154821	0.000172	1.721974	0.583420	-0.013941
 845	4.2200e-01	6.2453	12.083407	0.000176	1.764231	0.597738	-0.014283
 846	4.2250e-01	6.2244	12.001731	0.000202	2.017773	0.683640	-0.016335
 847	4.2300e-01	6.1859	11.917916	0.000207	2.070594	0.701536	-0.016763
 848	4.2350e-01	6.1250	11.840944	0.000190	1.901566	0.644268	-0.015395
 849	4.2400e-01	6.0993	11.779793	0.000151	1.510689	0.511835	-0.012230
 850	4.2450e-01	6.0768	11.692986	0.000214	2.144544	0.726591	-0.017362
 851	4.2500e-01	6.0271	11.627986	0.000161	1.605767	0.544049	-0.013000
 852	4.2550e-01	5.9758	11.539896	0.000218	2.176237	0.737329	-0.017618
 853	4.2600e-01	5.9325	11.471048	0.000170	1.700845	0.576262	-0.013770
 854	4.2650e-01	5.9228	11.382530	0.000219	2.186801	0.740908	-0.017704
 855	4.2700e-01	5.8619	11.322234	0.000149	1.489560	0.504677	-0.012059
 856	4.2750e-01	5.8073	11.237565	0.000209	2.091723	0.708695	-0.016934
 857	4.2800e-01	5.7913	11.161875	0.000187	1.869873	0.633530	-0.015138
 858	4.2850e-01	5.7335	11.091744	0.000173	1.732538	0.587000	-0.014026
 859	4.2900e-01	5.6886	11.004081	0.000217	2.165672	0.733750	-0.017533
 860	4.2950e-01	5.6597	10.945497	0.000145	1.447303	0.490360	-0.011717
 861	4.3000e-01	5.6116	10.845005	0.000248	2.482600	0.841128	-0.020098
 862	4.3050e-01	5.5635	10.787703	0.000142	1.415610	0.479622	-0.011460
 863	4.3100e-01	5.5522	10.693198	0.000233	2.334701	0.791018	-0.018901
 864	4.3150e-01	5.4929	10.631192	0.000153	1.531817	0.518994	-0.012401
 865	4.3200e-01	5.4624	10.547805	0.000206	2.060030	0.697957	-0.016677
 866	4.3250e-01	5.4383	10.474253	0.000182	1.817052	0.615634	-0.014710
 867	4.3300e-01	5.3822	10.407972	0.000164	1.637460	0.554786	-0.013256
 868	4.3350e-01	5.3277	10.327578	0.000199	1.986080	0.672902	-0.016079
 869	4.3400e-01	5.3020	10.255309	0.000179	1.785359	0.604896	-0.014454
 870	4.3450e-01	5.2539	10.168929	0.000213	2.133980	0.723012	-0.017276
 871	4.3500e-01	5.2218	10.083404	0.000211	2.112851	0.715853	-0.017105
 872	4.3550e-01	5.1704	10.023964	0.000147	1.468432	0.497518	-0.011888
 873	4.3600e-01	5.0950	9.950413	0.000182	1.817052	0.615634	-0.014710
 874	4.3650e-01	5.0983	9.869591	-0.000200	-1.996644	-0.676481	-0.016164
 875	4.3700e-01	5.0501	9.791764	0.000192	1.922695	0.651427	-0.015566
 876	4.3750e-01	5.0357	9.716929	0.000185	1.848745	0.626372	-0.014967
 877	4.3800e-01	4.9811	9.636108	0.000200	1.996644	0.676481	-0.016164
 878	4.3850e-01	4.9651	9.552721	0.000206	2.060030	0.697957	-0.016677
 879	4.3900e-01	4.8881	9.492853	0.000148	1.478996	0.501097	-0.011974
 880	4.3950e-01	4.8544	9.413743	0.000195	1.954387	0.662164	-0.015822
 881	4.4000e-01	4.8255	9.323514	0.000223	2.229058	0.755225	-0.018046
 882	4.4050e-01	4.7726	9.251245	0.000179	1.785359	0.604896	-0.014454
 883	4.4100e-01	4.7437	9.171707	0.000196	1.964952	0.665744	-0.015908
 884	4.4150e-01	4.6844	9.097300	0.000184	1.838181	0.622792	-0.014881
 885	4.4200e-01	4.6763	9.017762	0.000196	1.964952	0.665744	-0.015908
 886	4.4250e-01	4.6378	8.946348	0.000176	1.764231	0.597738	-0.014283
 887	4.4300e-01	4.6138	8.874080	0.000179	1.785359	0.604896	-0.014454
 888	4.4350e-01	4.4951	8.800528	0.000182	1.817052	0.615634	-0.014710
 889	4.4400e-01	4.5031	8.715431	-0.000210	-2.102287	-0.712274	-0.017019
 890	4.4450e-01	4.4421	8.644017	0.000176	1.764231	0.597738	-0.014283
 891	4.4500e-01	4.4229	8.567900	0.000188	1.880438	0.637109	-0.015223
 892	4.4550e-01	4.3812	8.478099	0.000222	2.218494	0.751646	-0.017960
 893	4.4600e-01	4.3298	8.411389	0.000165	1.648024	0.558366	-0.013342
 894	4.4650e-01	4.3154	8.329713	0.000202	2.017773	0.683640	-0.016335
 895	4.4700e-01	4.2448	8.261720	0.000168	1.679717	0.569103	-0.013598
 896	4.4750e-01	4.2127	8.191162	0.000174	1.743102	0.590579	-0.014112
 897	4.4800e-01	4.1806	8.102216	0.000220	2.197365	0.744487	-0.017789
 898	4.4850e-01	4.1469	8.026099	0.000188	1.880438	0.637109	-0.015223
 899	4.4900e-01	4.1116	7.945705	0.000199	1.986080	0.672902	-0.016079
 900	4.4950e-01	4.0683	7.861035	0.000209	2.091723	0.708695	-0.016934
 901	4.5000e-01	4.0346	7.803306	0.000143	1.426175	0.483201	-0.011546
 902	4.5050e-01	3.9833	7.711794	0.000226	2.260751	0.765963	-0.018302
 903	4.5100e-01	3.9512	7.628835	0.000205	2.049466	0.694378	-0.016592
 904	4.5150e-01	3.8646	7.570250	0.000145	1.447303	0.490360	-0.011717
 905	4.5200e-01	3.8566	7.499264	0.000175	1.753666	0.594158	-0.014197
 906	4.5250e-01	3.8036	7.418871	0.000199	1.986080	0.672902	-0.016079
 907	4.5300e-01	3.7732	7.333773	0.000210	2.102287	0.712274	-0.017019
 908	4.5350e-01	3.7523	7.252097	0.000202	2.017773	0.683640	-0.016335
 909	4.5400e-01	3.7026	7.179828	0.000179	1.785359	0.604896	-0.014454
 910	4.5450e-01	3.6593	7.106704	0.000181	1.806488	0.612055	-0.014625
 911	4.5500e-01	3.6240	7.034863	0.000177	1.774795	0.601317	-0.014368
 912	4.5550e-01	3.5774	6.953615	0.000201	2.007209	0.680061	-0.016250
 913	4.5600e-01	3.5341	6.869800	0.000207	2.070594	0.701536	-0.016763
 914	4.5650e-01	3.4892	6.798387	0.000176	1.764231	0.597738	-0.014283
 915	4.5700e-01	3.4603	6.724407	0.000183	1.827616	0.619213	-0.014796
 916	4.5750e-01	3.4443	6.641876	0.000204	2.038901	0.690798	-0.016506
 917	4.5800e-01	3.3833	6.556778	0.000210	2.102287	0.712274	-0.017019
 918	4.5850e-01	3.3256	6.493490	0.000156	1.563510	0.529731	-0.012658
 919	4.5900e-01	3.3192	6.404544	0.000220	2.197365	0.744487	-0.017789
 920	4.5950e-01	3.2726	6.342966	0.000152	1.521253	0.515414	-0.012316
 921	4.6000e-01	3.2406	6.239480	0.000256	2.556550	0.866183	-0.020697
 922	4.6050e-01	3.1539	6.186882	0.000130	1.299403	0.440250	-0.010520
 923	4.6100e-01	3.1379	6.092805	0.000232	2.324136	0.787439	-0.018816
 924	4.6150e-01	3.0833	6.013267	0.000196	1.964952	0.665744	-0.015908
 925	4.6200e-01	3.0849	5.952971	-0.000149	-1.489560	-0.504677	-0.012059
 926	4.6250e-01	3.0416	5.860177	0.000229	2.292444	0.776701	-0.018559
 927	4.6300e-01	2.9887	5.806296	0.000133	1.331096	0.450988	-0.010776
 928	4.6350e-01	2.9438	5.710080	0.000238	2.376958	0.805335	-0.019243
 929	4.6400e-01	2.8988	5.657910	0.000129	1.288839	0.436671	-0.010434
 930	4.6450e-01	2.8684	5.577089	0.000200	1.996644	0.676481	-0.016164
 931	4.6500e-01	2.7994	5.494557	0.000204	2.038901	0.690798	-0.016506
 932	4.6550e-01	2.8058	5.423144	-0.000176	-1.764231	-0.597738	-0.014283
 933	4.6600e-01	2.7641	5.337619	0.000211	2.112851	0.715853	-0.017105
 934	4.6650e-01	2.7160	5.264067	0.000182	1.817052	0.615634	-0.014710
 935	4.6700e-01	2.6630	5.189660	0.000184	1.838181	0.622792	-0.014881
 936	4.6750e-01	2.6197	5.108412	0.000201	2.007209	0.680061	-0.016250
 937	4.6800e-01	2.5732	5.032722	0.000187	1.869873	0.633530	-0.015138
 938	4.6850e-01	2.5299	4.952756	0.000198	1.975516	0.669323	-0.015993
 939	4.6900e-01	2.4689	4.891178	0.000152	1.521253	0.515414	-0.012316
 940	4.6950e-01	2.4866	4.792396	-0.000244	-2.440343	-0.826811	-0.019756
 941	4.7000e-01	2.4192	4.712431	0.000198	1.975516	0.669323	-0.015993
 942	4.7050e-01	2.3791	4.646149	0.000164	1.637460	0.554786	-0.013256
 943	4.7100e-01	2.3277	4.567466	0.000194	1.943823	0.658585	-0.015737
 944	4.7150e-01	2.2908	4.505460	0.000153	1.531817	0.518994	-0.012401
 945	4.7200e-01	2.2844	4.410527	0.000235	2.345265	0.794597	-0.018987
 946	4.7250e-01	2.2267	4.339541	0.000175	1.753666	0.594158	-0.014197
 947	4.7300e-01	2.1753	4.260431	0.000195	1.954387	0.662164	-0.015822
 948	4.7350e-01	2.1192	4.184313	0.000188	1.880438	0.637109	-0.015223
 949	4.7400e-01	2.0903	4.111617	0.000180	1.795924	0.608475	-0.014539
 950	4.7450e-01	2.0823	4.015829	0.000237	2.366393	0.801756	-0.019158
 951	4.7500e-01	2.0261	3.947409	0.000169	1.690281	0.572683	-0.013684
 952	4.7550e-01	1.9764	3.879844	0.000167	1.669152	0.565524	-0.013513
 953	4.7600e-01	1.9475	3.789188	0.000224	2.239622	0.758805	-0.018131
 954	4.7650e-01	1.8914	3.721195	0.000168	1.679717	0.569103	-0.013598
 955	4.7700e-01	1.8513	3.646788	0.000184	1.838181	0.622792	-0.014881
 956	4.7750e-01	1.8128	3.586921	0.000148	1.478996	0.501097	-0.011974
 957	4.7800e-01	1.7823	3.493271	0.000231	2.313572	0.783859	-0.018730
 958	4.7850e-01	1.7438	3.387220	0.000262	2.619935	0.887658	-0.021210
 959	4.7900e-01	1.6957	3.343602	0.000108	1.077554	0.365085	-0.008724
 960	4.7950e-01	1.6524	3.254228	0.000221	2.207929	0.748067	-0.017875
 961	4.8000e-01	1.6299	3.177256	0.000190	1.901566	0.644268	-0.015395
 962	4.8050e-01	1.5786	3.107553	0.000172	1.721974	0.583420	-0.013941
 963	4.8100e-01	1.5417	3.041271	0.000164	1.637460	0.554786	-0.013256
 964	4.8150e-01	1.4984	2.965581	0.000187	1.869873	0.633530	-0.015138
 965	4.8200e-01	1.4631	2.863806	0.000251	2.514293	0.851865	-0.020355
 966	4.8250e-01	1.4406	2.802656	0.000151	1.510689	0.511835	-0.012230
 967	4.8300e-01	1.3684	2.725256	0.000191	1.912130	0.647847	-0.015480
 968	4.8350e-01	1.3155	2.654698	0.000174	1.743102	0.590579	-0.014112
 969	4.8400e-01	1.2770	2.578153	0.000189	1.891002	0.640689	-0.015309
 970	4.8450e-01	1.2641	2.484075	0.000232	2.324136	0.787439	-0.018816
 971	4.8500e-01	1.1952	2.410951	0.000181	1.806488	0.612055	-0.014625
 972	4.8550e-01	1.1743	2.338683	0.000179	1.785359	0.604896	-0.014454
 973	4.8600e-01	1.1422	2.270263	0.000169	1.690281	0.572683	-0.013684
 974	4.8650e-01	1.1133	2.179178	0.000225	2.250187	0.762384	-0.018217
 975	4.8700e-01	1.0315	2.119311	0.000148	1.478996	0.501097	-0.011974
 976	4.8750e-01	1.0203	2.037634	0.000202	2.017773	0.683640	-0.016335
 977	4.8800e-01	0.9674	1.959379	0.000193	1.933259	0.655006	-0.015651
 978	4.8850e-01	0.9192	1.878130	0.000201	2.007209	0.680061	-0.016250
 979	4.8900e-01	0.9144	1.790039	0.000218	2.176237	0.737329	-0.017618
 980	4.8950e-01	0.8775	1.719054	0.000175	1.753666	0.594158	-0.014197
 981	4.9000e-01	0.8278	1.642081	0.000190	1.901566	0.644268	-0.015395
 982	4.9050e-01	0.7764	1.573661	0.000169	1.690281	0.572683	-0.013684
 983	4.9100e-01	0.7299	1.509090	0.000160	1.595203	0.540469	-0.012914
 984	4.9150e-01	0.6914	1.408170	0.000249	2.493164	0.844707	-0.020184
 985	4.9200e-01	0.6417	1.335046	0.000181	1.806488	0.612055	-0.014625
 986	4.9250e-01	0.6096	1.258929	0.000188	1.880438	0.637109	-0.015223
 987	4.9300e-01	0.5888	1.169555	0.000221	2.207929	0.748067	-0.017875
 988	4.9350e-01	0.5374	1.104556	0.000161	1.605767	0.544049	-0.013000
 989	4.9400e-01	0.4813	1.024163	0.000199	1.986080	0.672902	-0.016079
 990	4.9450e-01	0.4749	0.951466	0.000180	1.795924	0.608475	-0.014539
 991	4.9500e-01	0.4203	0.872783	0.000194	1.943823	0.658585	-0.015737
 992	4.9550e-01	0.3754	0.791534	0.000201	2.007209	0.680061	-0.016250
 993	4.9600e-01	0.3401	0.733377	0.000144	1.436739	0.486780	-0.011631
 994	4.9650e-01	0.3032	0.646569	0.000214	2.144544	0.726591	-0.017362
 995	4.9700e-01	0.2214	0.576011	0.000174	1.743102	0.590579	-0.014112
 996	4.9750e-01	0.2230	0.501177	-0.000185	-1.848745	-0.626372	-0.014967
 997	4.9800e-01	0.1781	0.417790	0.000206	2.060030	0.697957	-0.016677
 998	4.9850e-01	0.1251	0.348942	0.000170	1.700845	0.576262	-0.013770
 999	4.9900e-01	0.0963	0.256575	0.000228	2.281879	0.773122	-0.018473
1000	4.9950e-01	0.0818	0.191576	0.000161	1.605767	0.544049	-0.013000
1001	5.0000e-01	0.0610	0.093650	0.000242	2.419215	0.819652	-0.019585
1002	5.0050e-01	-0.0016	0.053026	0.000100	1.003604	0.340030	-0.008125
1003	5.0100e-01	-0.0545	-0.029079	0.000203	2.028337	0.687219	-0.016421
1004	5.0150e-01	-0.1043	-0.098781	0.000172	1.721974	0.583420	-0.013941
1005	5.0200e-01	-0.1540	-0.182596	0.000207	2.070594	0.701536	-0.016763
1006	5.0250e-01	-0.1941	-0.259996	0.000191	1.912130	0.647847	-0.015480
1007	5.0300e-01	-0.2005	-0.328416	0.000169	1.690281	0.572683	-0.013684
1008	5.0350e-01	-0.2615	-0.404534	0.000188	1.880438	0.637109	-0.015223
1009	5.0400e-01	-0.2791	-0.485782	0.000201	2.007209	0.680061	-0.016250
1010	5.0450e-01	-0.3481	-0.564465	0.000194	1.943823	0.658585	-0.015737
1011	5.0500e-01	-0.3818	-0.638872	0.000184	1.838181	0.622792	-0.014881
1012	5.0550e-01	-0.4235	-0.718838	0.000198	1.975516	0.669323	-0.015993
1013	5.0600e-01	-0.4668	-0.792390	0.000182	1.817052	0.615634	-0.014710
1014	5.0650e-01	-0.5005	-0.885612	0.000230	2.303008	0.780280	-0.018644
1015	5.0700e-01	-0.5310	-0.954460	0.000170	1.700845	0.576262	-0.013770
1016	5.0750e-01	-0.5952	-1.021597	0.000166	1.658588	0.561945	-0.013427
1017	5.0800e-01	-0.6257	-1.097714	0.000188	1.880438	0.637109	-0.015223
1018	5.0850e-01	-0.6513	-1.183239	0.000211	2.112851	0.715853	-0.017105
1019	5.0900e-01	-0.7139	-1.248238	0.000161	1.605767	0.544049	-0.013000
1020	5.0950e-01	-0.7444	-1.325638	0.000191	1.912130	0.647847	-0.015480
1021	5.1000e-01	-0.7813	-1.391493	0.000163	1.626895	0.551207	-0.013171
1022	5.1050e-01	-0.8551	-1.463334	0.000177	1.774795	0.601317	-0.014368
1023	5.1100e-01	-0.8583	-1.550569	0.000216	2.155108	0.730170	-0.017447
1024	5.1150e-01	-0.9032	-1.630963	0.000199	1.986080	0.672902	-0.016079
1025	5.1200e-01	-0.9481	-1.707508	0.000189	1.891002	0.640689	-0.015309
1026	5.1250e-01	-0.9706	-1.796881	0.000221	2.207929	0.748067	-0.017875
1027	5.1300e-01	-0.9962	-1.867012	0.000173	1.732538	0.587000	-0.014026
1028	5.1350e-01	-1.0684	-1.948261	0.000201	2.007209	0.680061	-0.016250
1029	5.1400e-01	-1.1294	-2.014115	0.000163	1.626895	0.551207	-0.013171
1030	5.1450e-01	-1.1406	-2.099640	0.000211	2.112851	0.715853	-0.017105
1031	5.1500e-01	-1.1919	-2.169343	0.000172	1.721974	0.583420	-0.013941
1032	5.1550e-01	-1.2112	-2.252302	0.000205	2.049466	0.694378	-0.016592
1033	5.1600e-01	-1.2689	-2.317729	0.000162	1.616331	0.547628	-0.013085
1034	5.1650e-01	-1.3042	-2.392563	0.000185	1.848745	0.626372	-0.014967
1035	5.1700e-01	-1.3460	-2.463122	0.000174	1.743102	0.590579	-0.014112
1036	5.1750e-01	-1.3604	-2.554206	0.000225	2.250187	0.762384	-0.018217
1037	5.1800e-01	-1.3941	-2.636310	0.000203	2.028337	0.687219	-0.016421
1038	5.1850e-01	-1.4663	-2.700454	0.000158	1.584638	0.536890	-0.012829
1039	5.1900e-01	-1.4855	-2.773150	0.000180	1.795924	0.608475	-0.014539
1040	5.1950e-01	-1.5401	-2.868510	0.000236	2.355829	0.798176	-0.019072
1041	5.2000e-01	-1.5786	-2.951897	0.000206	2.060030	0.697957	-0.016677
1042	5.2050e-01	-1.6074	-3.019890	0.000168	1.679717	0.569103	-0.013598
1043	5.2100e-01	-1.6684	-3.079757	0.000148	1.478996	0.501097	-0.011974
1044	5.2150e-01	-1.7101	-3.155875	0.000188	1.880438	0.637109	-0.015223
1045	5.2200e-01	-1.7310	-3.238834	0.000205	2.049466	0.694378	-0.016592
1046	5.2250e-01	-1.7887	-3.298701	0.000148	1.478996	0.501097	-0.011974
1047	5.2300e-01	-1.8048	-3.387647	0.000220	2.197365	0.744487	-0.017789
1048	5.2350e-01	-1.8368	-3.466758	0.000195	1.954387	0.662164	-0.015822
1049	5.2400e-01	-1.8962	-3.541165	0.000184	1.838181	0.622792	-0.014881
1050	5.2450e-01	-1.9235	-3.624552	0.000206	2.060030	0.697957	-0.016677
1051	5.2500e-01	-1.9716	-3.686985	0.000154	1.542381	0.522573	-0.012487
1052	5.2550e-01	-1.9764	-3.781490	0.000233	2.334701	0.791018	-0.018901
1053	5.2600e-01	-2.0486	-3.852048	0.000174	1.743102	0.590579	-0.014112
1054	5.2650e-01	-2.0775	-3.932014	0.000198	1.975516	0.669323	-0.015993
1055	5.2700e-01	-2.1336	-3.988889	0.000141	1.405046	0.476042	-0.011375
1056	5.2750e-01	-2.1850	-4.069282	0.000199	1.986080	0.672902	-0.016079
1057	5.2800e-01	-2.1994	-4.146682	0.000191	1.912130	0.647847	-0.015480
1058	5.2850e-01	-2.2700	-4.227503	0.000200	1.996644	0.676481	-0.016164
1059	5.2900e-01	-2.3149	-4.295924	0.000169	1.690281	0.572683	-0.013684
1060	5.2950e-01	-2.3117	-4.385297	-0.000221	-2.207929	-0.748067	-0.017875
1061	5.3000e-01	-2.3791	-4.449013	0.000157	1.574074	0.533311	-0.012743
1062	5.3050e-01	-2.4320	-4.530262	0.000201	2.007209	0.680061	-0.016250
1063	5.3100e-01	-2.4529	-4.605524	0.000186	1.859309	0.629951	-0.015052
1064	5.3150e-01	-2.4817	-4.688056	0.000204	2.038901	0.690798	-0.016506
1065	5.3200e-01	-2.5363	-4.763746	0.000187	1.869873	0.633530	-0.015138
1066	5.3250e-01	-2.5844	-4.835587	0.000177	1.774795	0.601317	-0.014368
1067	5.3300e-01	-2.6005	-4.907000	0.000176	1.764231	0.597738	-0.014283
1068	5.3350e-01	-2.6566	-4.982690	0.000187	1.869873	0.633530	-0.015138
1069	5.3400e-01	-2.7224	-5.047261	0.000160	1.595203	0.540469	-0.012914
1070	5.3450e-01	-2.7448	-5.122951	0.000187	1.869873	0.633530	-0.015138
1071	5.3500e-01	-2.7930	-5.214035	0.000225	2.250187	0.762384	-0.018217
1072	5.3550e-01	-2.8138	-5.302126	0.000218	2.176237	0.737329	-0.017618
1073	5.3600e-01	-2.8828	-5.366270	0.000158	1.584638	0.536890	-0.012829
1074	5.3650e-01	-2.8876	-5.420578	0.000134	1.341660	0.454567	-0.010862
1075	5.3700e-01	-2.9422	-5.520642	0.000247	2.472036	0.837548	-0.020013
1076	5.3750e-01	-2.9710	-5.588635	0.000168	1.679717	0.569103	-0.013598
1077	5.3800e-01	-3.0368	-5.668173	0.000196	1.964952	0.665744	-0.015908
1078	5.3850e-01	-3.0593	-5.733600	0.000162	1.616331	0.547628	-0.013085
1079	5.3900e-01	-3.1106	-5.820408	0.000214	2.144544	0.726591	-0.017362
1080	5.3950e-01	-3.1379	-5.895670	0.000186	1.859309	0.629951	-0.015052
1081	5.4000e-01	-3.2197	-5.955110	0.000147	1.468432	0.497518	-0.011888
1082	5.4050e-01	-3.2101	-6.054319	-0.000245	-2.450907	-0.830390	-0.019842
1083	5.4100e-01	-3.2357	-6.127870	0.000182	1.817052	0.615634	-0.014710
1084	5.4150e-01	-3.2999	-6.199284	0.000176	1.764231	0.597738	-0.014283
1085	5.4200e-01	-3.3400	-6.265993	0.000165	1.648024	0.558366	-0.013342
1086	5.4250e-01	-3.3817	-6.343393	0.000191	1.912130	0.647847	-0.015480
1087	5.4300e-01	-3.4395	-6.416945	0.000182	1.817052	0.615634	-0.014710
1088	5.4350e-01	-3.4828	-6.478095	0.000151	1.510689	0.511835	-0.012230
1089	5.4400e-01	-3.4908	-6.573883	0.000237	2.366393	0.801756	-0.019158
1090	5.4450e-01	-3.5373	-6.652566	0.000194	1.943823	0.658585	-0.015737
1091	5.4500e-01	-3.5678	-6.740230	0.000217	2.165672	0.733750	-0.017533
1092	5.4550e-01	-3.6175	-6.806511	0.000164	1.637460	0.554786	-0.013256
1093	5.4600e-01	-3.6416	-6.879635	0.000181	1.806488	0.612055	-0.014625
1094	5.4650e-01	-3.7106	-6.947628	0.000168	1.679717	0.569103	-0.013598
1095	5.4700e-01	-3.7218	-7.045126	0.000241	2.408650	0.816073	-0.019500
1096	5.4750e-01	-3.7667	-7.111836	0.000165	1.648024	0.558366	-0.013342
1097	5.4800e-01	-3.8389	-7.181539	0.000172	1.721974	0.583420	-0.013941
1098	5.4850e-01	-3.8726	-7.264498	0.000205	2.049466	0.694378	-0.016592
1099	5.4900e-01	-3.8774	-7.326931	0.000154	1.542381	0.522573	-0.012487
1100	5.4950e-01	-3.9159	-7.400483	0.000182	1.817052	0.615634	-0.014710
1101	5.5000e-01	-3.9448	-7.480449	0.000198	1.975516	0.669323	-0.015993
1102	5.5050e-01	-4.0250	-7.574099	0.000231	2.313572	0.783859	-0.018730
1103	5.5100e-01	-4.0346	-7.633111	0.000146	1.457867	0.493939	-0.011802
1104	5.5150e-01	-4.0988	-7.705807	0.000180	1.795924	0.608475	-0.014539
1105	5.5200e-01	-4.1437	-7.771234	0.000162	1.616331	0.547628	-0.013085
1106	5.5250e-01	-4.1774	-7.855476	0.000208	2.081158	0.705116	-0.016848
1107	5.5300e-01	-4.2175	-7.942712	0.000216	2.155108	0.730170	-0.017447
1108	5.5350e-01	-4.2352	-8.011132	0.000169	1.690281	0.572683	-0.013684
1109	5.5400e-01	-4.2897	-8.084256	0.000181	1.806488	0.612055	-0.014625
1110	5.5450e-01	-4.3523	-8.162511	0.000193	1.933259	0.655006	-0.015651
1111	5.5500e-01	-4.3780	-8.230931	0.000169	1.690281	0.572683	-0.013684
1112	5.5550e-01	-4.4197	-8.305766	0.000185	1.848745	0.626372	-0.014967
1113	5.5600e-01	-4.4550	-8.386159	0.000199	1.986080	0.672902	-0.016079
1114	5.5650e-01	-4.5031	-8.452869	0.000165	1.648024	0.558366	-0.013342
1115	5.5700e-01	-4.5480	-8.522572	0.000172	1.721974	0.583420	-0.013941
1116	5.5750e-01	-4.5705	-8.607242	0.000209	2.091723	0.708695	-0.016934
1117	5.5800e-01	-4.6330	-8.692339	0.000210	2.102287	0.712274	-0.017019
1118	5.5850e-01	-4.6699	-8.754345	0.000153	1.531817	0.518994	-0.012401
1119	5.5900e-01	-4.6940	-8.836021	0.000202	2.017773	0.683640	-0.016335
1120	5.5950e-01	-4.7646	-8.907862	0.000177	1.774795	0.601317	-0.014368
1121	5.6000e-01	-4.7902	-8.989111	0.000201	2.007209	0.680061	-0.016250
1122	5.6050e-01	-4.8063	-9.050261	0.000151	1.510689	0.511835	-0.012230
1123	5.6100e-01	-4.8769	-9.137069	0.000214	2.144544	0.726591	-0.017362
1124	5.6150e-01	-4.9138	-9.205062	0.000168	1.679717	0.569103	-0.013598
1125	5.6200e-01	-4.9491	-9.276047	0.000175	1.753666	0.594158	-0.014197
1126	5.6250e-01	-4.9699	-9.344895	0.000170	1.700845	0.576262	-0.013770
1127	5.6300e-01	-5.0261	-9.435552	0.000224	2.239622	0.758805	-0.018131
1128	5.6350e-01	-5.0598	-9.505682	0.000173	1.732538	0.587000	-0.014026
1129	5.6400e-01	-5.0838	-9.591635	0.000212	2.123415	0.719433	-0.017191
1130	5.6450e-01	-5.1111	-9.672884	0.000201	2.007209	0.680061	-0.016250
1131	5.6500e-01	-5.1833	-9.737028	0.000158	1.584638	0.536890	-0.012829
1132	5.6550e-01	-5.2025	-9.823835	0.000214	2.144544	0.726591	-0.017362
1133	5.6600e-01	-5.2507	-9.878999	0.000136	1.362789	0.461725	-0.011033
1134	5.6650e-01	-5.2763	-9.958965	0.000198	1.975516	0.669323	-0.015993
1135	5.6700e-01	-5.3293	-10.037220	0.000193	1.933259	0.655006	-0.015651
1136	5.6750e-01	-5.3710	-10.121035	0.000207	2.070594	0.701536	-0.016763
1137	5.6800e-01	-5.4239	-10.206988	0.000212	2.123415	0.719433	-0.017191
1138	5.6850e-01	-5.4351	-10.274552	0.000167	1.669152	0.565524	-0.013513
1139	5.6900e-01	-5.4913	-10.334420	0.000148	1.478996	0.501097	-0.011974
1140	5.6950e-01	-5.5410	-10.408399	0.000183	1.827616	0.619213	-0.014796
1141	5.7000e-01	-5.5747	-10.486655	0.000193	1.933259	0.655006	-0.015651
1142	5.7050e-01	-5.5908	-10.563200	0.000189	1.891002	0.640689	-0.015309
1143	5.7100e-01	-5.6597	-10.638034	0.000185	1.848745	0.626372	-0.014967
1144	5.7150e-01	-5.6982	-10.709020	0.000175	1.753666	0.594158	-0.014197
1145	5.7200e-01	-5.7448	-10.783854	0.000185	1.848745	0.626372	-0.014967
1146	5.7250e-01	-5.8137	-10.856123	0.000179	1.785359	0.604896	-0.014454
1147	5.7300e-01	-5.8490	-10.912569	0.000139	1.394482	0.472463	-0.011289
1148	5.7350e-01	-5.8603	-11.008785	0.000238	2.376958	0.805335	-0.019243
1149	5.7400e-01	-5.8891	-11.078488	0.000172	1.721974	0.583420	-0.013941
1150	5.7450e-01	-5.9677	-11.160592	0.000203	2.028337	0.687219	-0.016421
1151	5.7500e-01	-5.9854	-11.232433	0.000177	1.774795	0.601317	-0.014368
1152	5.7550e-01	-6.0159	-11.299570	0.000166	1.658588	0.561945	-0.013427
1153	5.7600e-01	-6.0672	-11.377398	0.000192	1.922695	0.651427	-0.015566
1154	5.7650e-01	-6.0849	-11.470193	0.000229	2.292444	0.776701	-0.018559
1155	5.7700e-01	-6.1234	-11.520225	0.000124	1.236018	0.418774	-0.010006
1156	5.7750e-01	-6.1811	-11.597625	0.000191	1.912130	0.647847	-0.015480
1157	5.7800e-01	-6.2164	-11.674170	0.000189	1.891002	0.640689	-0.015309
1158	5.7850e-01	-6.2389	-11.762261	0.000218	2.176237	0.737329	-0.017618
1159	5.7900e-01	-6.2774	-11.828543	0.000164	1.637460	0.554786	-0.013256
1160	5.7950e-01	-6.3415	-11.894825	0.000164	1.637460	0.554786	-0.013256
1161	5.8000e-01	-6.3736	-11.965383	0.000174	1.743102	0.590579	-0.014112
1162	5.8050e-01	-6.4089	-12.050908	0.000211	2.112851	0.715853	-0.017105
1163	5.8100e-01	-6.4073	-12.151400	-0.000248	-2.482600	-0.841128	-0.020098
1164	5.8150e-01	-6.5148	-12.189886	0.000095	0.950783	0.322134	-0.007697
1165	5.8200e-01	-6.5661	-12.268569	0.000194	1.943823	0.658585	-0.015737
1166	5.8250e-01	-6.5870	-12.328009	0.000147	1.468432	0.497518	-0.011888
1167	5.8300e-01	-6.6046	-12.409258	0.000201	2.007209	0.680061	-0.016250
1168	5.8350e-01	-6.6495	-12.525572	0.000287	2.873478	0.973561	-0.023263
1169	5.8400e-01	-6.6864	-12.558499	0.000081	0.813448	0.275604	-0.006585
1170	5.8450e-01	-6.7362	-12.618367	0.000148	1.478996	0.501097	-0.011974
1171	5.8500e-01	-6.7779	-12.712017	0.000231	2.313572	0.783859	-0.018730
1172	5.8550e-01	-6.8084	-12.781292	0.000171	1.711409	0.579841	-0.013855
1173	5.8600e-01	-6.8453	-12.863824	0.000204	2.038901	0.690798	-0.016506
1174	5.8650e-01	-6.8854	-12.929250	0.000162	1.616331	0.547628	-0.013085
1175	5.8700e-01	-6.9367	-13.013920	0.000209	2.091723	0.708695	-0.016934
1176	5.8750e-01	-6.9832	-13.080630	0.000165	1.648024	0.558366	-0.013342
1177	5.8800e-01	-6.9736	-13.163589	-0.000205	-2.049466	-0.694378	-0.016592
1178	5.8850e-01	-7.0474	-13.231581	0.000168	1.679717	0.569103	-0.013598
1179	5.8900e-01	-7.0939	-13.299146	0.000167	1.669152	0.565524	-0.013513
1180	5.8950e-01	-7.1629	-13.376546	0.000191	1.912130	0.647847	-0.015480
1181	5.9000e-01	-7.1805	-13.445394	0.000170	1.700845	0.576262	-0.013770
1182	5.9050e-01	-7.2174	-13.512959	0.000167	1.669152	0.565524	-0.013513
1183	5.9100e-01	-7.2287	-13.604470	0.000226	2.260751	0.765963	-0.018302
1184	5.9150e-01	-7.2977	-13.673746	0.000171	1.711409	0.579841	-0.013855
1185	5.9200e-01	-7.3490	-13.728909	0.000136	1.362789	0.461725	-0.011033
1186	5.9250e-01	-7.3907	-13.812296	0.000206	2.060030	0.697957	-0.016677
1187	5.9300e-01	-7.4083	-13.889697	0.000191	1.912130	0.647847	-0.015480
1188	5.9350e-01	-7.4356	-13.970518	0.000200	1.996644	0.676481	-0.016164
1189	5.9400e-01	-7.4950	-14.040648	0.000173	1.732538	0.587000	-0.014026
1190	5.9450e-01	-7.5239	-14.116338	0.000187	1.869873	0.633530	-0.015138
1191	5.9500e-01	-7.5736	-14.188179	0.000177	1.774795	0.601317	-0.014368
1192	5.9550e-01	-7.6009	-14.270283	0.000203	2.028337	0.687219	-0.016421
1193	5.9600e-01	-7.6554	-14.337420	0.000166	1.658588	0.561945	-0.013427
1194	5.9650e-01	-7.7035	-14.406696	0.000171	1.711409	0.579841	-0.013855
1195	5.9700e-01	-7.7148	-14.495642	0.000220	2.197365	0.744487	-0.017789
1196	5.9750e-01	-7.7757	-14.549522	0.000133	1.331096	0.450988	-0.010776
1197	5.9800e-01	-7.8463	-14.617942	0.000169	1.690281	0.572683	-0.013684
1198	5.9850e-01	-7.8639	-14.698336	0.000199	1.986080	0.672902	-0.016079
1199	5.9900e-01	-7.8944	-14.775308	0.000190	1.901566	0.644268	-0.015395
1200	5.9950e-01	-7.9265	-14.847577	0.000179	1.785359	0.604896	-0.014454
1201	6.0000e-01	-7.9811	-14.918991	0.000176	1.764231	0.597738	-0.014283
1202	6.0050e-01	-8.0035	-15.006226	0.000216	2.155108	0.730170	-0.017447
1203	6.0100e-01	-8.0452	-15.079350	0.000181	1.806488	0.612055	-0.014625
1204	6.0150e-01	-8.1046	-15.130665	0.000127	1.267711	0.429512	-0.010263
1205	6.0200e-01	-8.1270	-15.211486	0.000200	1.996644	0.676481	-0.016164
1206	6.0250e-01	-8.1736	-15.294446	0.000205	2.049466	0.694378	-0.016592
1207	6.0300e-01	-8.2089	-15.350037	0.000137	1.373353	0.465305	-0.011118
1208	6.0350e-01	-8.2442	-15.429575	0.000196	1.964952	0.665744	-0.015908
1209	6.0400e-01	-8.3099	-15.499706	0.000173	1.732538	0.587000	-0.014026
1210	6.0450e-01	-8.3500	-15.581810	0.000203	2.028337	0.687219	-0.016421
1211	6.0500e-01	-8.3917	-15.650657	0.000170	1.700845	0.576262	-0.013770
1212	6.0550e-01	-8.4126	-15.726347	0.000187	1.869873	0.633530	-0.015138
1213	6.0600e-01	-8.4607	-15.796050	0.000172	1.721974	0.583420	-0.013941
1214	6.0650e-01	-8.4848	-15.879437	0.000206	2.060030	0.697957	-0.016677
1215	6.0700e-01	-8.5441	-15.944008	0.000160	1.595203	0.540469	-0.012914
1216	6.0750e-01	-8.5891	-16.007725	0.000157	1.574074	0.533311	-0.012743
1217	6.0800e-01	-8.6324	-16.097953	0.000223	2.229058	0.755225	-0.018046
1218	6.0850e-01	-8.6821	-16.159104	0.000151	1.510689	0.511835	-0.012230
1219	6.0900e-01	-8.7014	-16.243774	0.000209	2.091723	0.708695	-0.016934
1220	6.0950e-01	-8.7046	-16.325450	0.000202	2.017773	0.683640	-0.016335
1221	6.1000e-01	-8.7848	-16.382324	0.000141	1.405046	0.476042	-0.011375
1222	6.1050e-01	-8.7944	-16.455876	0.000182	1.817052	0.615634	-0.014710
1223	6.1100e-01	-8.8618	-16.539263	0.000206	2.060030	0.697957	-0.016677
1224	6.1150e-01	-8.9147	-16.604689	0.000162	1.616331	0.547628	-0.013085
1225	6.1200e-01	-8.9500	-16.681234	0.000189	1.891002	0.640689	-0.015309
1226	6.1250e-01	-8.9789	-16.731266	0.000124	1.236018	0.418774	-0.010006
1227	6.1300e-01	-9.0366	-16.821495	0.000223	2.229058	0.755225	-0.018046
1228	6.1350e-01	-9.0302	-16.910014	-0.000219	-2.186801	-0.740908	-0.017704
1229	6.1400e-01	-9.0655	-16.992546	0.000204	2.038901	0.690798	-0.016506
1230	6.1450e-01	-9.1457	-17.041295	0.000120	1.204325	0.408036	-0.009750
1231	6.1500e-01	-9.1794	-17.112708	0.000176	1.764231	0.597738	-0.014283
1232	6.1550e-01	-9.2131	-17.187970	0.000186	1.859309	0.629951	-0.015052
1233	6.1600e-01	-9.2612	-17.249976	0.000153	1.531817	0.518994	-0.012401
1234	6.1650e-01	-9.3110	-17.328231	0.000193	1.933259	0.655006	-0.015651
1235	6.1700e-01	-9.3527	-17.400928	0.000180	1.795924	0.608475	-0.014539
1236	6.1750e-01	-9.3655	-17.486453	0.000211	2.112851	0.715853	-0.017105
1237	6.1800e-01	-9.4056	-17.560004	0.000182	1.817052	0.615634	-0.014710
1238	6.1850e-01	-9.4361	-17.640825	0.000200	1.996644	0.676481	-0.016164
1239	6.1900e-01	-9.5035	-17.694279	0.000132	1.320532	0.447408	-0.010691
1240	6.1950e-01	-9.5275	-17.784080	0.000222	2.218494	0.751646	-0.017960
1241	6.2000e-01	-9.5917	-17.833684	0.000123	1.225454	0.415195	-0.009921
1242	6.2050e-01	-9.6318	-17.917499	0.000207	2.070594	0.701536	-0.016763
1243	6.2100e-01	-9.6463	-17.986774	0.000171	1.711409	0.579841	-0.013855
1244	6.2150e-01	-9.6976	-18.045787	0.000146	1.457867	0.493939	-0.011802
1245	6.2200e-01	-9.7457	-18.134305	0.000219	2.186801	0.740908	-0.017704
1246	6.2250e-01	-9.7746	-18.209995	0.000187	1.869873	0.633530	-0.015138
1247	6.2300e-01	-9.8227	-18.267296	0.000142	1.415610	0.479622	-0.011460
1248	6.2350e-01	-9.8676	-18.341703	0.000184	1.838181	0.622792	-0.014881
1249	6.2400e-01	-9.8949	-18.422097	0.000199	1.986080	0.672902	-0.016079
1250	6.2450e-01	-9.9382	-18.487951	0.000163	1.626895	0.551207	-0.013171
1251	6.2500e-01	-9.9735	-18.561930	0.000183	1.827616	0.619213	-0.014796
1252	6.2550e-01	-9.9992	-18.655580	0.000231	2.313572	0.783859	-0.018730
1253	6.2600e-01	-10.0826	-18.707323	0.000128	1.278275	0.433091	-0.010349
1254	6.2650e-01	-10.0954	-18.789855	0.000204	2.038901	0.690798	-0.016506
1255	6.2700e-01	-10.1468	-18.852288	0.000154	1.542381	0.522573	-0.012487
1256	6.2750e-01	-10.1692	-18.941234	0.000220	2.197365	0.744487	-0.017789
1257	6.2800e-01	-10.2190	-19.002812	0.000152	1.521253	0.515414	-0.012316
1258	6.2850e-01	-10.2575	-19.067811	0.000161	1.605767	0.544049	-0.013000
1259	6.2900e-01	-10.3040	-19.141363	0.000182	1.817052	0.615634	-0.014710
1260	6.2950e-01	-10.3297	-19.210210	0.000170	1.700845	0.576262	-0.013770
1261	6.3000e-01	-10.3890	-19.285472	0.000186	1.859309	0.629951	-0.015052
1262	6.3050e-01	-10.4275	-19.348333	0.000155	1.552946	0.526152	-0.012572
1263	6.3100e-01	-10.4596	-19.445832	0.000241	2.408650	0.816073	-0.019500
1264	6.3150e-01	-10.5125	-19.494153	0.000119	1.193761	0.404457	-0.009664
1265	6.3200e-01	-10.5302	-19.585238	0.000225	2.250187	0.762384	-0.018217
1266	6.3250e-01	-10.5927	-19.629283	0.000109	1.088118	0.368664	-0.008809
1267	6.3300e-01	-10.6216	-19.719940	0.000224	2.239622	0.758805	-0.018131
1268	6.3350e-01	-10.6457	-19.802044	0.000203	2.028337	0.687219	-0.016421
1269	6.3400e-01	-10.7131	-19.873885	0.000177	1.774795	0.601317	-0.014368
1270	6.3450e-01	-10.7580	-19.935035	0.000151	1.510689	0.511835	-0.012230
1271	6.3500e-01	-10.7885	-19.995330	0.000149	1.489560	0.504677	-0.012059
1272	6.3550e-01	-10.8302	-20.080855	0.000211	2.112851	0.715853	-0.017105
1273	6.3600e-01	-10.8270	-20.157828	-0.000190	-1.901566	-0.644268	-0.015395
1274	6.3650e-01	-10.8831	-20.220261	0.000154	1.542381	0.522573	-0.012487
1275	6.3700e-01	-10.9345	-20.288681	0.000169	1.690281	0.572683	-0.013684
1276	6.3750e-01	-10.9826	-20.362233	0.000182	1.817052	0.615634	-0.014710
1277	6.3800e-01	-11.0548	-20.423383	0.000151	1.510689	0.511835	-0.012230
1278	6.3850e-01	-11.0692	-20.512329	0.000220	2.197365	0.744487	-0.017789
1279	6.3900e-01	-11.1238	-20.579466	0.000166	1.658588	0.561945	-0.013427
1280	6.3950e-01	-11.1398	-20.665419	0.000212	2.123415	0.719433	-0.017191
1281	6.4000e-01	-11.1975	-20.715879	0.000125	1.246582	0.422353	-0.010092
1282	6.4050e-01	-11.2360	-20.788147	0.000179	1.785359	0.604896	-0.014454
1283	6.4100e-01	-11.2585	-20.868113	0.000198	1.975516	0.669323	-0.015993
1284	6.4150e-01	-11.2713	-20.962619	0.000233	2.334701	0.791018	-0.018901
1285	6.4200e-01	-11.3243	-21.013506	0.000126	1.257146	0.425933	-0.010177
1286	6.4250e-01	-11.3836	-21.092189	0.000194	1.943823	0.658585	-0.015737
1287	6.4300e-01	-11.4430	-21.152484	0.000149	1.489560	0.504677	-0.012059
1288	6.4350e-01	-11.4655	-21.217056	0.000160	1.595203	0.540469	-0.012914
1289	6.4400e-01	-11.4975	-21.297449	0.000199	1.986080	0.672902	-0.016079
1290	6.4450e-01	-11.5553	-21.375277	0.000192	1.922695	0.651427	-0.015566
1291	6.4500e-01	-11.5922	-21.447118	0.000177	1.774795	0.601317	-0.014368
1292	6.4550e-01	-11.6098	-21.507413	0.000149	1.489560	0.504677	-0.012059
1293	6.4600e-01	-11.6612	-21.576688	0.000171	1.711409	0.579841	-0.013855
1294	6.4650e-01	-11.6916	-21.651951	0.000186	1.859309	0.629951	-0.015052
1295	6.4700e-01	-11.7446	-21.739186	0.000216	2.155108	0.730170	-0.017447
1296	6.4750e-01	-11.7687	-21.807179	0.000168	1.679717	0.569103	-0.013598
1297	6.4800e-01	-11.8296	-21.869612	0.000154	1.542381	0.522573	-0.012487
1298	6.4850e-01	-11.8441	-21.938887	0.000171	1.711409	0.579841	-0.013855
1299	6.4900e-01	-11.9162	-22.006880	0.000168	1.679717	0.569103	-0.013598
1300	6.4950e-01	-11.9531	-22.068030	0.000151	1.510689	0.511835	-0.012230
1301	6.5000e-01	-11.9756	-22.153127	0.000210	2.102287	0.712274	-0.017019
1302	6.5050e-01	-12.0173	-22.228389	0.000186	1.859309	0.629951	-0.015052
1303	6.5100e-01	-12.0670	-22.292106	0.000157	1.574074	0.533311	-0.012743
1304	6.5150e-01	-12.0799	-22.375492	0.000206	2.060030	0.697957	-0.016677
1305	6.5200e-01	-12.1553	-22.435360	0.000148	1.478996	0.501097	-0.011974
1306	6.5250e-01	-12.1874	-22.502070	0.000165	1.648024	0.558366	-0.013342
1307	6.5300e-01	-12.2435	-22.570062	0.000168	1.679717	0.569103	-0.013598
1308	6.5350e-01	-12.2788	-22.635061	0.000161	1.605767	0.544049	-0.013000
1309	6.5400e-01	-12.2916	-22.735125	0.000247	2.472036	0.837548	-0.020013
1310	6.5450e-01	-12.3558	-22.783875	0.000120	1.204325	0.408036	-0.009750
1311	6.5500e-01	-12.3718	-22.873676	0.000222	2.218494	0.751646	-0.017960
1312	6.5550e-01	-12.4184	-22.938675	0.000161	1.605767	0.544049	-0.013000
1313	6.5600e-01	-12.4376	-23.010944	0.000179	1.785359	0.604896	-0.014454
1314	6.5650e-01	-12.4954	-23.087061	0.000188	1.880438	0.637109	-0.015223
1315	6.5700e-01	-12.5323	-23.144790	0.000143	1.426175	0.483201	-0.011546
1316	6.5750e-01	-12.5756	-23.232454	0.000217	2.165672	0.733750	-0.017533
1317	6.5800e-01	-12.6012	-23.300874	0.000169	1.690281	0.572683	-0.013684
1318	6.5850e-01	-12.6510	-23.362024	0.000151	1.510689	0.511835	-0.012230
1319	6.5900e-01	-12.7071	-23.441990	0.000198	1.975516	0.669323	-0.015993
1320	6.5950e-01	-12.7344	-23.506134	0.000158	1.584638	0.536890	-0.012829
1321	6.6000e-01	-12.7841	-23.571133	0.000161	1.605767	0.544049	-0.013000
1322	6.6050e-01	-12.8162	-23.633994	0.000155	1.552946	0.526152	-0.012572
1323	6.6100e-01	-12.8419	-23.718663	0.000209	2.091723	0.708695	-0.016934
1324	6.6150e-01	-12.8836	-23.814452	0.000237	2.366393	0.801756	-0.019158
1325	6.6200e-01	-12.9510	-23.855076	0.000100	1.003604	0.340030	-0.008125
1326	6.6250e-01	-12.9686	-23.929483	0.000184	1.838181	0.622792	-0.014881
1327	6.6300e-01	-13.0472	-23.996192	0.000165	1.648024	0.558366	-0.013342
1328	6.6350e-01	-13.0585	-24.079152	0.000205	2.049466	0.694378	-0.016592
1329	6.6400e-01	-13.0954	-24.140302	0.000151	1.510689	0.511835	-0.012230
1330	6.6450e-01	-13.1387	-24.207012	0.000165	1.648024	0.558366	-0.013342
1331	6.6500e-01	-13.1691	-24.276287	0.000171	1.711409	0.579841	-0.013855
1332	6.6550e-01	-13.1948	-24.336582	0.000149	1.489560	0.504677	-0.012059
1333	6.6600e-01	-13.2397	-24.420397	0.000207	2.070594	0.701536	-0.016763
1334	6.6650e-01	-13.2959	-24.493520	0.000181	1.806488	0.612055	-0.014625
1335	6.6700e-01	-13.3649	-24.550395	0.000141	1.405046	0.476042	-0.011375
1336	6.6750e-01	-13.3697	-24.636347	0.000212	2.123415	0.719433	-0.017191
1337	6.6800e-01	-13.4290	-24.699636	0.000156	1.563510	0.529731	-0.012658
1338	6.6850e-01	-13.4467	-24.769339	0.000172	1.721974	0.583420	-0.013941
1339	6.6900e-01	-13.4932	-24.839469	0.000173	1.732538	0.587000	-0.014026
1340	6.6950e-01	-13.5477	-24.907034	0.000167	1.669152	0.565524	-0.013513
1341	6.7000e-01	-13.5702	-24.985717	0.000194	1.943823	0.658585	-0.015737
1342	6.7050e-01	-13.5943	-25.057131	0.000176	1.764231	0.597738	-0.014283
1343	6.7100e-01	-13.6729	-25.134958	0.000192	1.922695	0.651427	-0.015566
1344	6.7150e-01	-13.7098	-25.178576	0.000108	1.077554	0.365085	-0.008724
1345	6.7200e-01	-13.7386	-25.258970	0.000199	1.986080	0.672902	-0.016079
1346	6.7250e-01	-13.8173	-25.326535	0.000167	1.669152	0.565524	-0.013513
1347	6.7300e-01	-13.8253	-25.391106	0.000160	1.595203	0.540469	-0.012914
1348	6.7350e-01	-13.8493	-25.479624	0.000219	2.186801	0.740908	-0.017704
1349	6.7400e-01	-13.8766	-25.537781	0.000144	1.436739	0.486780	-0.011631
1350	6.7450e-01	-13.9552	-25.614326	0.000189	1.891002	0.640689	-0.015309
1351	6.7500e-01	-13.9697	-25.683602	0.000171	1.711409	0.579841	-0.013855
1352	6.7550e-01	-14.0066	-25.742186	0.000145	1.447303	0.490360	-0.011717
1353	6.7600e-01	-14.0547	-25.804192	0.000153	1.531817	0.518994	-0.012401
1354	6.7650e-01	-14.0868	-25.902973	0.000244	2.440343	0.826811	-0.019756
1355	6.7700e-01	-14.1541	-25.913664	0.000026	0.264106	0.089482	-0.002138
1356	6.7750e-01	-14.1574	-26.029123	0.000285	2.852349	0.966402	-0.023092
1357	6.7800e-01	-14.2023	-26.103530	0.000184	1.838181	0.622792	-0.014881
1358	6.7850e-01	-14.2745	-26.171094	0.000167	1.669152	0.565524	-0.013513
1359	6.7900e-01	-14.3338	-26.240797	0.000172	1.721974	0.583420	-0.013941
1360	6.7950e-01	-14.3499	-26.297672	0.000141	1.405046	0.476042	-0.011375
1361	6.8000e-01	-14.3643	-26.388328	0.000224	2.239622	0.758805	-0.018131
1362	6.8050e-01	-14.4124	-26.448623	0.000149	1.489560	0.504677	-0.012059
1363	6.8100e-01	-14.4814	-26.503787	0.000136	1.362789	0.461725	-0.011033
1364	6.8150e-01	-14.5023	-26.594443	0.000224	2.239622	0.758805	-0.018131
1365	6.8200e-01	-14.5472	-26.646186	0.000128	1.278275	0.433091	-0.010349
1366	6.8250e-01	-14.5825	-26.720165	0.000183	1.827616	0.619213	-0.014796
1367	6.8300e-01	-14.6290	-26.793717	0.000182	1.817052	0.615634	-0.014710
1368	6.8350e-01	-14.6771	-26.856578	0.000155	1.552946	0.526152	-0.012572
1369	6.8400e-01	-14.6996	-26.935261	0.000194	1.943823	0.658585	-0.015737
1370	6.8450e-01	-14.7461	-27.001115	0.000163	1.626895	0.551207	-0.013171
1371	6.8500e-01	-14.8103	-27.063548	0.000154	1.542381	0.522573	-0.012487
1372	6.8550e-01	-14.8215	-27.152067	0.000219	2.186801	0.740908	-0.017704
1373	6.8600e-01	-14.8744	-27.211507	0.000147	1.468432	0.497518	-0.011888
1374	6.8650e-01	-14.8953	-27.287624	0.000188	1.880438	0.637109	-0.015223
1375	6.8700e-01	-14.9450	-27.353906	0.000164	1.637460	0.554786	-0.013256
1376	6.8750e-01	-14.9851	-27.419760	0.000163	1.626895	0.551207	-0.013171
1377	6.8800e-01	-15.0204	-27.488180	0.000169	1.690281	0.572683	-0.013684
1378	6.8850e-01	-15.0621	-27.561732	0.000182	1.817052	0.615634	-0.014710
1379	6.8900e-01	-15.1167	-27.633573	0.000177	1.774795	0.601317	-0.014368
1380	6.8950e-01	-15.1504	-27.696861	0.000156	1.563510	0.529731	-0.012658
1381	6.9000e-01	-15.1776	-27.763999	0.000166	1.658588	0.561945	-0.013427
1382	6.9050e-01	-15.2017	-27.843109	0.000195	1.954387	0.662164	-0.015822
1383	6.9100e-01	-15.2739	-27.905115	0.000153	1.531817	0.518994	-0.012401
1384	6.9150e-01	-15.2851	-27.975673	0.000174	1.743102	0.590579	-0.014112
1385	6.9200e-01	-15.3686	-28.041955	0.000164	1.637460	0.554786	-0.013256
1386	6.9250e-01	-15.3413	-28.129191	-0.000216	-2.155108	-0.730170	-0.017447
1387	6.9300e-01	-15.4119	-28.186065	0.000141	1.405046	0.476042	-0.011375
1388	6.9350e-01	-15.4536	-28.265603	0.000196	1.964952	0.665744	-0.015908
1389	6.9400e-01	-15.4953	-28.332740	0.000166	1.658588	0.561945	-0.013427
1390	6.9450e-01	-15.5306	-28.392608	0.000148	1.478996	0.501097	-0.011974
1391	6.9500e-01	-15.5980	-28.466159	0.000182	1.817052	0.615634	-0.014710
1392	6.9550e-01	-15.6300	-28.532014	0.000163	1.626895	0.551207	-0.013171
1393	6.9600e-01	-15.6621	-28.587177	0.000136	1.362789	0.461725	-0.011033
1394	6.9650e-01	-15.6862	-28.670564	0.000206	2.060030	0.697957	-0.016677
1395	6.9700e-01	-15.7616	-28.733853	0.000156	1.563510	0.529731	-0.012658
1396	6.9750e-01	-15.7520	-28.809542	-0.000187	-1.869873	-0.633530	-0.015138
1397	6.9800e-01	-15.8113	-28.873259	0.000157	1.574074	0.533311	-0.012743
1398	6.9850e-01	-15.8627	-28.929705	0.000139	1.394482	0.472463	-0.011289
1399	6.9900e-01	-15.9076	-29.025066	0.000236	2.355829	0.798176	-0.019072
1400	6.9950e-01	-15.9316	-29.076808	0.000128	1.278275	0.433091	-0.010349
1401	7.0000e-01	-15.9653	-29.151215	0.000184	1.838181	0.622792	-0.014881
1402	7.0050e-01	-16.0279	-29.220063	0.000170	1.700845	0.576262	-0.013770
1403	7.0100e-01	-16.0680	-29.292331	0.000179	1.785359	0.604896	-0.014454
1404	7.0150e-01	-16.1065	-29.356903	0.000160	1.595203	0.540469	-0.012914
1405	7.0200e-01	-16.1418	-29.459533	0.000254	2.535421	0.859024	-0.020526
1406	7.0250e-01	-16.1723	-29.504861	0.000112	1.119811	0.379402	-0.009066
1407	7.0300e-01	-16.2188	-29.581406	0.000189	1.891002	0.640689	-0.015309
1408	7.0350e-01	-16.2733	-29.634432	0.000131	1.309968	0.443829	-0.010605
1409	7.0400e-01	-16.3070	-29.703707	0.000171	1.711409	0.579841	-0.013855
1410	7.0450e-01	-16.3263	-29.766140	0.000154	1.542381	0.522573	-0.012487
1411	7.0500e-01	-16.3808	-29.848244	0.000203	2.028337	0.687219	-0.016421
1412	7.0550e-01	-16.4338	-29.911105	0.000155	1.552946	0.526152	-0.012572
1413	7.0600e-01	-16.4691	-29.972256	0.000151	1.510689	0.511835	-0.012230
1414	7.0650e-01	-16.5252	-30.047090	0.000185	1.848745	0.626372	-0.014967
1415	7.0700e-01	-16.5300	-30.109951	0.000155	1.552946	0.526152	-0.012572
1416	7.0750e-01	-16.6054	-30.171529	0.000152	1.521253	0.515414	-0.012316
1417	7.0800e-01	-16.6439	-30.258764	0.000216	2.155108	0.730170	-0.017447
1418	7.0850e-01	-16.6648	-30.327612	0.000170	1.700845	0.576262	-0.013770
1419	7.0900e-01	-16.6936	-30.389190	0.000152	1.521253	0.515414	-0.012316
1420	7.0950e-01	-16.7370	-30.452479	0.000156	1.563510	0.529731	-0.012658
1421	7.1000e-01	-16.7658	-30.529024	0.000189	1.891002	0.640689	-0.015309
1422	7.1050e-01	-16.8204	-30.594023	0.000161	1.605767	0.544049	-0.013000
1423	7.1100e-01	-16.8460	-30.665436	0.000176	1.764231	0.597738	-0.014283
1424	7.1150e-01	-16.8990	-30.728725	0.000156	1.563510	0.529731	-0.012658
1425	7.1200e-01	-16.9343	-30.802276	0.000182	1.817052	0.615634	-0.014710
1426	7.1250e-01	-16.9648	-30.872407	0.000173	1.732538	0.587000	-0.014026
1427	7.1300e-01	-17.0273	-30.936123	0.000157	1.574074	0.533311	-0.012743
1428	7.1350e-01	-17.0530	-31.004115	0.000168	1.679717	0.569103	-0.013598
1429	7.1400e-01	-17.0915	-31.062700	0.000145	1.447303	0.490360	-0.011717
1430	7.1450e-01	-17.1284	-31.135396	0.000180	1.795924	0.608475	-0.014539
1431	7.1500e-01	-17.1525	-31.219211	0.000207	2.070594	0.701536	-0.016763
1432	7.1550e-01	-17.2038	-31.285920	0.000165	1.648024	0.558366	-0.013342
1433	7.1600e-01	-17.2455	-31.359472	0.000182	1.817052	0.615634	-0.014710
1434	7.1650e-01	-17.2952	-31.419767	0.000149	1.489560	0.504677	-0.012059
1435	7.1700e-01	-17.3321	-31.497595	0.000192	1.922695	0.651427	-0.015566
1436	7.1750e-01	-17.3690	-31.553614	0.000138	1.383918	0.468884	-0.011204
1437	7.1800e-01	-17.3835	-31.622461	0.000170	1.700845	0.576262	-0.013770
1438	7.1850e-01	-17.4653	-31.691309	0.000170	1.700845	0.576262	-0.013770
1439	7.1900e-01	-17.4877	-31.759302	0.000168	1.679717	0.569103	-0.013598
1440	7.1950e-01	-17.5038	-31.833708	0.000184	1.838181	0.622792	-0.014881
1441	7.2000e-01	-17.5728	-31.904694	0.000175	1.753666	0.594158	-0.014197
1442	7.2050e-01	-17.5984	-31.967127	0.000154	1.542381	0.522573	-0.012487
1443	7.2100e-01	-17.6594	-32.035975	0.000170	1.700845	0.576262	-0.013770
1444	7.2150e-01	-17.6947	-32.111237	0.000186	1.859309	0.629951	-0.015052
1445	7.2200e-01	-17.7348	-32.181795	0.000174	1.743102	0.590579	-0.014112
1446	7.2250e-01	-17.7861	-32.245084	0.000156	1.563510	0.529731	-0.012658
1447	7.2300e-01	-17.8310	-32.305379	0.000149	1.489560	0.504677	-0.012059
1448	7.2350e-01	-17.8599	-32.390049	0.000209	2.091723	0.708695	-0.016934
1449	7.2400e-01	-17.9145	-32.424686	0.000086	0.855705	0.289921	-0.006928
1450	7.2450e-01	-17.9337	-32.520475	0.000237	2.366393	0.801756	-0.019158
1451	7.2500e-01	-17.9818	-32.591888	0.000176	1.764231	0.597738	-0.014283
1452	7.2550e-01	-18.0075	-32.652611	0.000150	1.500124	0.508256	-0.012145
1453	7.2600e-01	-18.0781	-32.728300	0.000187	1.869873	0.633530	-0.015138
1454	7.2650e-01	-18.1230	-32.796720	0.000169	1.690281	0.572683	-0.013684
1455	7.2700e-01	-18.1391	-32.864713	0.000168	1.679717	0.569103	-0.013598
1456	7.2750e-01	-18.1792	-32.941685	0.000190	1.901566	0.644268	-0.015395
1457	7.2800e-01	-18.2305	-33.003263	0.000152	1.521253	0.515414	-0.012316
1458	7.2850e-01	-18.2578	-33.080236	0.000190	1.901566	0.644268	-0.015395
1459	7.2900e-01	-18.2979	-33.150367	0.000173	1.732538	0.587000	-0.014026
1460	7.2950e-01	-18.3620	-33.211089	0.000150	1.500124	0.508256	-0.012145
1461	7.3000e-01	-18.3957	-33.284213	0.000181	1.806488	0.612055	-0.014625
1462	7.3050e-01	-18.4310	-33.345364	0.000151	1.510689	0.511835	-0.012230
1463	7.3100e-01	-18.4599	-33.421053	0.000187	1.869873	0.633530	-0.015138
1464	7.3150e-01	-18.5369	-33.496743	0.000187	1.869873	0.633530	-0.015138
1465	7.3200e-01	-18.5626	-33.570722	0.000183	1.827616	0.619213	-0.014796
1466	7.3250e-01	-18.6091	-33.642136	0.000176	1.764231	0.597738	-0.014283
1467	7.3300e-01	-18.6348	-33.704569	0.000154	1.542381	0.522573	-0.012487
1468	7.3350e-01	-18.6412	-33.773417	0.000170	1.700845	0.576262	-0.013770
1469	7.3400e-01	-18.7086	-33.852100	0.000194	1.943823	0.658585	-0.015737
1470	7.3450e-01	-18.7519	-33.914961	0.000155	1.552946	0.526152	-0.012572
1471	7.3500e-01	-18.7840	-33.982525	0.000167	1.669152	0.565524	-0.013513
1472	7.3550e-01	-18.8177	-34.047952	0.000162	1.616331	0.547628	-0.013085
1473	7.3600e-01	-18.8898	-34.120221	0.000179	1.785359	0.604896	-0.014454
1474	7.3650e-01	-18.8947	-34.198904	0.000194	1.943823	0.658585	-0.015737
1475	7.3700e-01	-18.9251	-34.272028	0.000181	1.806488	0.612055	-0.014625
1476	7.3750e-01	-18.9797	-34.349000	0.000190	1.901566	0.644268	-0.015395
1477	7.3800e-01	-19.0246	-34.408868	0.000148	1.478996	0.501097	-0.011974
1478	7.3850e-01	-19.0888	-34.484985	0.000188	1.880438	0.637109	-0.015223
1479	7.3900e-01	-19.1112	-34.556398	0.000176	1.764231	0.597738	-0.014283
1480	7.3950e-01	-19.1257	-34.629950	0.000182	1.817052	0.615634	-0.014710
1481	7.4000e-01	-19.1481	-34.708633	0.000194	1.943823	0.658585	-0.015737
1482	7.4050e-01	-19.2267	-34.777053	0.000169	1.690281	0.572683	-0.013684
1483	7.4100e-01	-19.2492	-34.849749	0.000180	1.795924	0.608475	-0.014539
1484	7.4150e-01	-19.3230	-34.914321	0.000160	1.595203	0.540469	-0.012914
1485	7.4200e-01	-19.3230	-35.000273	0.000212	2.123415	0.719433	-0.017191
1486	7.4250e-01	-19.3759	-35.055865	0.000137	1.373353	0.465305	-0.011118
1487	7.4300e-01	-19.4321	-35.140535	0.000209	2.091723	0.708695	-0.016934
1488	7.4350e-01	-19.4497	-35.209810	0.000171	1.711409	0.579841	-0.013855
1489	7.4400e-01	-19.4946	-35.264118	0.000134	1.341660	0.454567	-0.010862
1490	7.4450e-01	-19.5235	-35.355202	0.000225	2.250187	0.762384	-0.018217
1491	7.4500e-01	-19.5845	-35.429182	0.000183	1.827616	0.619213	-0.014796
1492	7.4550e-01	-19.6310	-35.510858	0.000202	2.017773	0.683640	-0.016335
1493	7.4600e-01	-19.6743	-35.559180	0.000119	1.193761	0.404457	-0.009664
1494	7.4650e-01	-19.7208	-35.674211	0.000284	2.841785	0.962823	-0.023006
1495	7.4700e-01	-19.7192	-35.738355	-0.000158	-1.584638	-0.536890	-0.012829
1496	7.4750e-01	-19.7834	-35.803354	0.000161	1.605767	0.544049	-0.013000
1497	7.4800e-01	-19.8010	-35.876050	0.000180	1.795924	0.608475	-0.014539
1498	7.4850e-01	-19.8508	-35.949602	0.000182	1.817052	0.615634	-0.014710
1499	7.4900e-01	-19.8813	-36.020160	0.000174	1.743102	0.590579	-0.014112
1500	7.4950e-01	-19.9342	-36.098415	0.000193	1.933259	0.655006	-0.015651
1501	7.5000e-01	-19.9711	-36.168973	0.000174	1.743102	0.590579	-0.014112
1502	7.5050e-01	-19.9117	-36.226703	-0.000143	-1.426175	-0.483201	-0.011546
1503	7.5100e-01	-19.8684	-36.192920	0.000083	0.834576	0.282762	0.006756
1504	7.5150e-01	-19.8412	-36.177098	0.000039	0.390877	0.132433	0.003164
1505	7.5200e-01	-19.7818	-36.137329	0.000098	0.982476	0.332872	0.007954
1506	7.5250e-01	-19.7289	-36.097132	0.000099	0.993040	0.336451	0.008039
1507	7.5300e-01	-19.7128	-36.050094	0.000116	1.162068	0.393719	0.009408
1508	7.5350e-01	-19.6839	-36.015884	0.000085	0.845140	0.286341	0.006842
1509	7.5400e-01	-19.6294	-35.971838	0.000109	1.088118	0.368664	0.008809
1510	7.5450e-01	-19.5877	-35.932497	0.000097	0.971912	0.329293	0.007868
1511	7.5500e-01	-19.5636	-35.880754	0.000128	1.278275	0.433091	0.010349
1512	7.5550e-01	-19.5171	-35.841412	0.000097	0.971912	0.329293	0.007868
1513	7.5600e-01	-19.4802	-35.796512	0.000111	1.109247	0.375823	0.008980
1514	7.5650e-01	-19.4273	-35.751183	0.000112	1.119811	0.379402	0.009066
1515	7.5700e-01	-19.4064	-35.699868	0.000127	1.267711	0.429512	0.010263
1516	7.5750e-01	-19.3519	-35.654113	0.000113	1.130375	0.382982	0.009151
1517	7.5800e-01	-19.3262	-35.602797	0.000127	1.267711	0.429512	0.010263
1518	7.5850e-01	-19.3214	-35.530529	0.000179	1.785359	0.604896	0.014454
1519	7.5900e-01	-19.2396	-35.507865	0.000056	0.559906	0.189701	0.004533
1520	7.5950e-01	-19.1914	-35.462109	0.000113	1.130375	0.382982	0.009151
1521	7.6000e-01	-19.1642	-35.407800	0.000134	1.341660	0.454567	0.010862
1522	7.6050e-01	-19.1257	-35.368031	0.000098	0.982476	0.332872	0.007954
1523	7.6100e-01	-19.0807	-35.318854	0.000121	1.214889	0.411616	0.009835
1524	7.6150e-01	-19.0406	-35.259414	0.000147	1.468432	0.497518	0.011888
1525	7.6200e-01	-18.9893	-35.208527	0.000126	1.257146	0.425933	0.010177
1526	7.6250e-01	-18.9572	-35.164482	0.000109	1.088118	0.368664	0.008809
1527	7.6300e-01	-18.9203	-35.113594	0.000126	1.257146	0.425933	0.010177
1528	7.6350e-01	-18.9027	-35.056292	0.000142	1.415610	0.479622	0.011460
1529	7.6400e-01	-18.8545	-35.001556	0.000135	1.352225	0.458146	0.010947
1530	7.6450e-01	-18.8032	-34.957511	0.000109	1.088118	0.368664	0.008809
1531	7.6500e-01	-18.7647	-34.896361	0.000151	1.510689	0.511835	0.012230
1532	7.6550e-01	-18.7198	-34.842907	0.000132	1.320532	0.447408	0.010691
1533	7.6600e-01	-18.6829	-34.804421	0.000095	0.950783	0.322134	0.007697
1534	7.6650e-01	-18.6348	-34.753534	0.000126	1.257146	0.425933	0.010177
1535	7.6700e-01	-18.6075	-34.681265	0.000179	1.785359	0.604896	0.014454
1536	7.6750e-01	-18.5497	-34.637647	0.000108	1.077554	0.365085	0.008724
1537	7.6800e-01	-18.5337	-34.585049	0.000130	1.299403	0.440250	0.010520
1538	7.6850e-01	-18.4808	-34.536300	0.000120	1.204325	0.408036	0.009750
1539	7.6900e-01	-18.4374	-34.485413	0.000126	1.257146	0.425933	0.010177
1540	7.6950e-01	-18.3733	-34.435380	0.000124	1.236018	0.418774	0.010006
1541	7.7000e-01	-18.3973	-34.361829	-0.000182	-1.817052	-0.615634	0.014710
1542	7.7050e-01	-18.3252	-34.318639	0.000107	1.066990	0.361506	0.008638
1543	7.7100e-01	-18.2562	-34.253212	0.000162	1.616331	0.547628	0.013085
1544	7.7150e-01	-18.2369	-34.199759	0.000132	1.320532	0.447408	0.010691
1545	7.7200e-01	-18.2032	-34.145451	0.000134	1.341660	0.454567	0.010862
1546	7.7250e-01	-18.1407	-34.093708	0.000128	1.278275	0.433091	0.010349
1547	7.7300e-01	-18.1262	-34.032130	0.000152	1.521253	0.515414	0.012316
1548	7.7350e-01	-18.1022	-33.974400	0.000143	1.426175	0.483201	0.011546
1549	7.7400e-01	-18.0348	-33.916243	0.000144	1.436739	0.486780	0.011631
1550	7.7450e-01	-17.9883	-33.872198	0.000109	1.088118	0.368664	0.008809
1551	7.7500e-01	-17.9899	-33.814896	-0.000142	-1.415610	-0.479622	0.011460
1552	7.7550e-01	-17.9289	-33.755884	0.000146	1.457867	0.493939	0.011802
1553	7.7600e-01	-17.8856	-33.687892	0.000168	1.679717	0.569103	0.013598
1554	7.7650e-01	-17.8375	-33.642136	0.000113	1.130375	0.382982	0.009151
1555	7.7700e-01	-17.7829	-33.589110	0.000131	1.309968	0.443829	0.010605
1556	7.7750e-01	-17.7701	-33.518124	0.000175	1.753666	0.594158	0.014197
1557	7.7800e-01	-17.7155	-33.473651	0.000110	1.098683	0.372244	0.008895
1558	7.7850e-01	-17.6883	-33.415494	0.000144	1.436739	0.486780	0.011631
1559	7.7900e-01	-17.6417	-33.355199	0.000149	1.489560	0.504677	0.012059
1560	7.7950e-01	-17.6097	-33.296187	0.000146	1.457867	0.493939	0.011802
1561	7.8000e-01	-17.5503	-33.238885	0.000142	1.415610	0.479622	0.011460
1562	7.8050e-01	-17.5150	-33.170893	0.000168	1.679717	0.569103	0.013598
1563	7.8100e-01	-17.4813	-33.122571	0.000119	1.193761	0.404457	0.009664
1564	7.8150e-01	-17.4621	-33.062276	0.000149	1.489560	0.504677	0.012059
1565	7.8200e-01	-17.3787	-33.013526	0.000120	1.204325	0.408036	0.009750
1566	7.8250e-01	-17.3546	-32.960073	0.000132	1.320532	0.447408	0.010691
1567	7.8300e-01	-17.3145	-32.891226	0.000170	1.700845	0.576262	0.013770
1568	7.8350e-01	-17.2664	-32.841193	0.000124	1.236018	0.418774	0.010006
1569	7.8400e-01	-17.2295	-32.790306	0.000126	1.257146	0.425933	0.010177
1570	7.8450e-01	-17.2166	-32.718465	0.000177	1.774795	0.601317	0.014368
1571	7.8500e-01	-17.1845	-32.667578	0.000126	1.257146	0.425933	0.010177
1572	7.8550e-01	-17.1091	-32.611986	0.000137	1.373353	0.465305	0.011118
1573	7.8600e-01	-17.0658	-32.534159	0.000192	1.922695	0.651427	0.015566
1574	7.8650e-01	-17.0658	-32.478567	-0.000137	-1.373353	-0.465305	0.011118
1575	7.8700e-01	-17.0097	-32.440509	0.000094	0.940219	0.318555	0.007612
1576	7.8750e-01	-16.9359	-32.360970	0.000196	1.964952	0.665744	0.015908
1577	7.8800e-01	-16.9407	-32.298537	-0.000154	-1.542381	-0.522573	0.012487
1578	7.8850e-01	-16.8878	-32.251498	0.000116	1.162068	0.393719	0.009408
1579	7.8900e-01	-16.8140	-32.199328	0.000129	1.288839	0.436671	0.010434
1580	7.8950e-01	-16.7867	-32.122783	0.000189	1.891002	0.640689	0.015309
1581	7.9000e-01	-16.7498	-32.072323	0.000125	1.246582	0.422353	0.010092
1582	7.9050e-01	-16.6953	-32.015021	0.000142	1.415610	0.479622	0.011460
1583	7.9100e-01	-16.6953	-31.936338	-0.000194	-1.943823	-0.658585	0.015737
1584	7.9150e-01	-16.6423	-31.897852	0.000095	0.950783	0.322134	0.007697
1585	7.9200e-01	-16.6054	-31.831143	0.000165	1.648024	0.558366	0.013342
1586	7.9250e-01	-16.5701	-31.771275	0.000148	1.478996	0.501097	0.011974
1587	7.9300e-01	-16.5124	-31.722098	0.000121	1.214889	0.411616	0.009835
1588	7.9350e-01	-16.4915	-31.657954	0.000158	1.584638	0.536890	0.012829
1589	7.9400e-01	-16.4434	-31.594238	0.000157	1.574074	0.533311	0.012743
1590	7.9450e-01	-16.3969	-31.533088	0.000151	1.510689	0.511835	0.012230
1591	7.9500e-01	-16.3519	-31.488187	0.000111	1.109247	0.375823	0.008980
1592	7.9550e-01	-16.3070	-31.413353	0.000185	1.848745	0.626372	0.014967
1593	7.9600e-01	-16.2669	-31.356906	0.000139	1.394482	0.472463	0.011289
1594	7.9650e-01	-16.2236	-31.292762	0.000158	1.584638	0.536890	0.012829
1595	7.9700e-01	-16.1963	-31.226908	0.000163	1.626895	0.551207	0.013171
1596	7.9750e-01	-16.1530	-31.177731	0.000121	1.214889	0.411616	0.009835
1597	7.9800e-01	-16.1097	-31.118719	0.000146	1.457867	0.493939	0.011802
1598	7.9850e-01	-16.1017	-31.047733	0.000175	1.753666	0.594158	0.014197
1599	7.9900e-01	-16.0471	-30.994280	0.000132	1.320532	0.447408	0.010691
1600	7.9950e-01	-15.9830	-30.943392	0.000126	1.257146	0.425933	0.010177
1601	8.0000e-01	-15.9766	-30.883525	0.000148	1.478996	0.501097	0.011974
1602	8.0050e-01	-15.9124	-30.810401	0.000181	1.806488	0.612055	0.014625
1603	8.0100e-01	-15.8707	-30.757376	0.000131	1.309968	0.443829	0.010605
1604	8.0150e-01	-15.8242	-30.681686	0.000187	1.869873	0.633530	0.015138
1605	8.0200e-01	-15.8001	-30.629943	0.000128	1.278275	0.433091	0.010349
1606	8.0250e-01	-15.7407	-30.563661	0.000164	1.637460	0.554786	0.013256
1607	8.0300e-01	-15.7199	-30.504649	0.000146	1.457867	0.493939	0.011802
1608	8.0350e-01	-15.6685	-30.448202	0.000139	1.394482	0.472463	0.011289
1609	8.0400e-01	-15.6541	-30.377644	0.000174	1.743102	0.590579	0.014112
1610	8.0450e-01	-15.6156	-30.330178	0.000117	1.172632	0.397299	0.009493
1611	8.0500e-01	-15.5466	-30.261758	0.000169	1.690281	0.572683	0.013684
1612	8.0550e-01	-15.5210	-30.198042	0.000157	1.574074	0.533311	0.012743
1613	8.0600e-01	-15.5145	-30.130904	0.000166	1.658588	0.561945	0.013427
1614	8.0650e-01	-15.4263	-30.076596	0.000134	1.341660	0.454567	0.010862
1615	8.0700e-01	-15.3926	-30.021432	0.000136	1.362789	0.461725	0.011033
1616	8.0750e-01	-15.3413	-29.950447	0.000175	1.753666	0.594158	0.014197
1617	8.0800e-01	-15.2819	-29.909395	0.000101	1.014169	0.343610	0.008210
1618	8.0850e-01	-15.2755	-29.847817	0.000152	1.521253	0.515414	0.012316
1619	8.0900e-01	-15.2675	-29.753739	0.000232	2.324136	0.787439	0.018816
1620	8.0950e-01	-15.2001	-29.707128	0.000115	1.151504	0.390140	0.009322
1621	8.1000e-01	-15.1359	-29.652819	0.000134	1.341660	0.454567	0.010862
1622	8.1050e-01	-15.1263	-29.576702	0.000188	1.880438	0.637109	0.015223
1623	8.1100e-01	-15.0910	-29.527098	0.000123	1.225454	0.415195	0.009921
1624	8.1150e-01	-15.0477	-29.452691	0.000184	1.838181	0.622792	0.014881
1625	8.1200e-01	-14.9996	-29.394106	0.000145	1.447303	0.490360	0.011717
1626	8.1250e-01	-14.9819	-29.329535	0.000160	1.595203	0.540469	0.012914
1627	8.1300e-01	-14.9242	-29.277364	0.000129	1.288839	0.436671	0.010434
1628	8.1350e-01	-14.8761	-29.213648	0.000157	1.574074	0.533311	0.012743
1629	8.1400e-01	-14.8408	-29.156346	0.000142	1.415610	0.479622	0.011460
1630	8.1450e-01	-14.8007	-29.078091	0.000193	1.933259	0.655006	0.015651
1631	8.1500e-01	-14.7557	-29.041315	0.000091	0.908526	0.307817	0.007355
1632	8.1550e-01	-14.7108	-28.962632	0.000194	1.943823	0.658585	0.015737
1633	8.1600e-01	-14.6659	-28.898061	0.000160	1.595203	0.540469	0.012914
1634	8.1650e-01	-14.6210	-28.841614	0.000139	1.394482	0.472463	0.011289
1635	8.1700e-01	-14.6097	-28.756089	0.000211	2.112851	0.715853	0.017105
1636	8.1750e-01	-14.5472	-28.709906	0.000114	1.140940	0.386561	0.009237
1637	8.1800e-01	-14.5055	-28.653459	0.000139	1.394482	0.472463	0.011289
1638	8.1850e-01	-14.4541	-28.591881	0.000152	1.521253	0.515414	0.012316
1639	8.1900e-01	-14.4477	-28.530731	0.000151	1.510689	0.511835	0.012230
1640	8.1950e-01	-14.3932	-28.458890	0.000177	1.774795	0.601317	0.014368
1641	8.2000e-01	-14.3547	-28.405009	0.000133	1.331096	0.450988	0.010776
1642	8.2050e-01	-14.3306	-28.340437	0.000160	1.595203	0.540469	0.012914
1643	8.2100e-01	-14.2793	-28.273300	0.000166	1.658588	0.561945	0.013427
1644	8.2150e-01	-14.2552	-28.210439	0.000155	1.552946	0.526152	0.012572
1645	8.2200e-01	-14.1975	-28.153993	0.000139	1.394482	0.472463	0.011289
1646	8.2250e-01	-14.1429	-28.093270	0.000150	1.500124	0.508256	0.012145
1647	8.2300e-01	-14.1285	-28.023995	0.000171	1.711409	0.579841	0.013855
1648	8.2350e-01	-14.0964	-27.955147	0.000170	1.700845	0.576262	0.013770
1649	8.2400e-01	-14.0130	-27.897418	0.000143	1.426175	0.483201	0.011546
1650	8.2450e-01	-14.0001	-27.828570	0.000170	1.700845	0.576262	0.013770
1651	8.2500e-01	-13.9713	-27.773406	0.000136	1.362789	0.461725	0.011033
1652	8.2550e-01	-13.9392	-27.704559	0.000170	1.700845	0.576262	0.013770
1653	8.2600e-01	-13.8654	-27.653244	0.000127	1.267711	0.429512	0.010263
1654	8.2650e-01	-13.8205	-27.585251	0.000168	1.679717	0.569103	0.013598
1655	8.2700e-01	-13.7755	-27.529660	0.000137	1.373353	0.465305	0.011118
1656	8.2750e-01	-13.7595	-27.439859	0.000222	2.218494	0.751646	0.017960
1657	8.2800e-01	-13.7274	-27.401800	0.000094	0.940219	0.318555	0.007612
1658	8.2850e-01	-13.7018	-27.327393	0.000184	1.838181	0.622792	0.014881
1659	8.2900e-01	-13.6600	-27.255552	0.000177	1.774795	0.601317	0.014368
1660	8.2950e-01	-13.5862	-27.209369	0.000114	1.140940	0.386561	0.009237
1661	8.3000e-01	-13.5445	-27.136245	0.000181	1.806488	0.612055	0.014625
1662	8.3050e-01	-13.5173	-27.076805	0.000147	1.468432	0.497518	0.011888
1663	8.3100e-01	-13.4691	-27.007102	0.000172	1.721974	0.583420	0.013941
1664	8.3150e-01	-13.4403	-26.942103	0.000161	1.605767	0.544049	0.013000
1665	8.3200e-01	-13.3921	-26.892498	0.000123	1.225454	0.415195	0.009921
1666	8.3250e-01	-13.3536	-26.821512	0.000175	1.753666	0.594158	0.014197
1667	8.3300e-01	-13.2927	-26.760790	0.000150	1.500124	0.508256	0.012145
1668	8.3350e-01	-13.2606	-26.699639	0.000151	1.510689	0.511835	0.012230
1669	8.3400e-01	-13.2654	-26.614969	-0.000209	-2.091723	-0.708695	0.016934
1670	8.3450e-01	-13.2333	-26.541846	0.000181	1.806488	0.612055	0.014625
1671	8.3500e-01	-13.1756	-26.483689	0.000144	1.436739	0.486780	0.011631
1672	8.3550e-01	-13.0873	-26.441781	0.000104	1.035297	0.350768	0.008381
1673	8.3600e-01	-13.0681	-26.350697	0.000225	2.250187	0.762384	0.018217
1674	8.3650e-01	-13.0119	-26.312638	0.000094	0.940219	0.318555	0.007612
1675	8.3700e-01	-12.9815	-26.246784	0.000163	1.626895	0.551207	0.013171
1676	8.3750e-01	-12.9606	-26.184778	0.000153	1.531817	0.518994	0.012401
1677	8.3800e-01	-12.9494	-26.100109	0.000209	2.091723	0.708695	0.016934
1678	8.3850e-01	-12.8804	-26.047511	0.000130	1.299403	0.440250	0.010520
1679	8.3900e-01	-12.8708	-25.960703	0.000214	2.144544	0.726591	0.017362
1680	8.3950e-01	-12.8018	-25.915375	0.000112	1.119811	0.379402	0.009066
1681	8.4000e-01	-12.7553	-25.849093	0.000164	1.637460	0.554786	0.013256
1682	8.4050e-01	-12.7135	-25.797350	0.000128	1.278275	0.433091	0.010349
1683	8.4100e-01	-12.6847	-25.718239	0.000195	1.954387	0.662164	0.015822
1684	8.4150e-01	-12.6365	-25.657944	0.000149	1.489560	0.504677	0.012059
1685	8.4200e-01	-12.6012	-25.591662	0.000164	1.637460	0.554786	0.013256
1686	8.4250e-01	-12.5660	-25.539920	0.000128	1.278275	0.433091	0.010349
1687	8.4300e-01	-12.5178	-25.479197	0.000150	1.500124	0.508256	0.012145
1688	8.4350e-01	-12.4809	-25.395382	0.000207	2.070594	0.701536	0.016763
1689	8.4400e-01	-12.4729	-25.339363	0.000138	1.383918	0.468884	0.011204
1690	8.4450e-01	-12.3831	-25.268805	0.000174	1.743102	0.590579	0.014112
1691	8.4500e-01	-12.3478	-25.220483	0.000119	1.193761	0.404457	0.009664
1692	8.4550e-01	-12.3253	-25.148215	0.000179	1.785359	0.604896	0.014454
1693	8.4600e-01	-12.3061	-25.086209	0.000153	1.531817	0.518994	0.012401
1694	8.4650e-01	-12.2612	-25.003677	0.000204	2.038901	0.690798	0.016506
1695	8.4700e-01	-12.1906	-24.944665	0.000146	1.457867	0.493939	0.011802
1696	8.4750e-01	-12.1633	-24.883087	0.000152	1.521253	0.515414	0.012316
1697	8.4800e-01	-12.1216	-24.820654	0.000154	1.542381	0.522573	0.012487
1698	8.4850e-01	-12.0943	-24.756510	0.000158	1.584638	0.536890	0.012829
1699	8.4900e-01	-12.0430	-24.683386	0.000181	1.806488	0.612055	0.014625
1700	8.4950e-01	-12.0157	-24.620525	0.000155	1.552946	0.526152	0.012572
1701	8.5000e-01	-11.9660	-24.560230	0.000149	1.489560	0.504677	0.012059
1702	8.5050e-01	-11.9435	-24.477271	0.000205	2.049466	0.694378	0.016592
1703	8.5100e-01	-11.8585	-24.438357	0.000096	0.961347	0.325713	0.007783
1704	8.5150e-01	-11.8312	-24.368654	0.000172	1.721974	0.583420	0.013941
1705	8.5200e-01	-11.8055	-24.293392	0.000186	1.859309	0.629951	0.015052
1706	8.5250e-01	-11.7542	-24.236518	0.000141	1.405046	0.476042	0.011375
1707	8.5300e-01	-11.6981	-24.172802	0.000157	1.574074	0.533311	0.012743
1708	8.5350e-01	-11.6772	-24.099678	0.000181	1.806488	0.612055	0.014625
1709	8.5400e-01	-11.6451	-24.028692	0.000175	1.753666	0.594158	0.014197
1710	8.5450e-01	-11.5890	-23.966259	0.000154	1.542381	0.522573	0.012487
1711	8.5500e-01	-11.5537	-23.905963	0.000149	1.489560	0.504677	0.012059
1712	8.5550e-01	-11.5232	-23.844385	0.000152	1.521253	0.515414	0.012316
1713	8.5600e-01	-11.4959	-23.782807	0.000152	1.521253	0.515414	0.012316
1714	8.5650e-01	-11.4430	-23.704979	0.000192	1.922695	0.651427	0.015566
1715	8.5700e-01	-11.3917	-23.638698	0.000164	1.637460	0.554786	0.013256
1716	8.5750e-01	-11.3419	-23.580541	0.000144	1.436739	0.486780	0.011631
1717	8.5800e-01	-11.3082	-23.512976	0.000167	1.669152	0.565524	0.013513
1718	8.5850e-01	-11.2810	-23.442418	0.000174	1.743102	0.590579	0.014112
1719	8.5900e-01	-11.2280	-23.384688	0.000143	1.426175	0.483201	0.011546
1720	8.5950e-01	-11.2008	-23.319689	0.000161	1.605767	0.544049	0.013000
1721	8.6000e-01	-11.1655	-23.246565	0.000181	1.806488	0.612055	0.014625
1722	8.6050e-01	-11.1125	-23.189691	0.000141	1.405046	0.476042	0.011375
1723	8.6100e-01	-11.0724	-23.120416	0.000171	1.711409	0.579841	0.013855
1724	8.6150e-01	-11.0195	-23.055417	0.000161	1.605767	0.544049	0.013000
1725	8.6200e-01	-10.9746	-22.982720	0.000180	1.795924	0.608475	0.014539
1726	8.6250e-01	-10.9521	-22.924136	0.000145	1.447303	0.490360	0.011717
1727	8.6300e-01	-10.9120	-22.843742	0.000199	1.986080	0.672902	0.016079
1728	8.6350e-01	-10.8879	-22.789434	0.000134	1.341660	0.454567	0.010862
1729	8.6400e-01	-10.8494	-22.706902	0.000204	2.038901	0.690798	0.016506
1730	8.6450e-01	-10.8093	-22.655159	0.000128	1.278275	0.433091	0.010349
1731	8.6500e-01	-10.7628	-22.583318	0.000177	1.774795	0.601317	0.014368
1732	8.6550e-01	-10.7163	-22.518747	0.000160	1.595203	0.540469	0.012914
1733	8.6600e-01	-10.6537	-22.457169	0.000152	1.521253	0.515414	0.012316
1734	8.6650e-01	-10.6521	-22.396019	0.000151	1.510689	0.511835	0.012230
1735	8.6700e-01	-10.5944	-22.331447	0.000160	1.595203	0.540469	0.012914
1736	8.6750e-01	-10.5510	-22.255757	0.000187	1.869873	0.633530	0.015138
1737	8.6800e-01	-10.5222	-22.178785	0.000190	1.901566	0.644268	0.015395
1738	8.6850e-01	-10.4885	-22.127470	0.000127	1.267711	0.429512	0.010263
1739	8.6900e-01	-10.4355	-22.058195	0.000171	1.711409	0.579841	0.013855
1740	8.6950e-01	-10.3730	-21.994051	0.000158	1.584638	0.536890	0.012829
1741	8.7000e-01	-10.3329	-21.923920	0.000173	1.732538	0.587000	0.014026
1742	8.7050e-01	-10.3248	-21.849513	0.000184	1.838181	0.622792	0.014881
1743	8.7100e-01	-10.2879	-21.779810	0.000172	1.721974	0.583420	0.013941
1744	8.7150e-01	-10.2158	-21.714811	0.000161	1.605767	0.544049	0.013000
1745	8.7200e-01	-10.1997	-21.649812	0.000161	1.605767	0.544049	0.013000
1746	8.7250e-01	-10.1805	-21.583103	0.000165	1.648024	0.558366	0.013342
1747	8.7300e-01	-10.1115	-21.524518	0.000145	1.447303	0.490360	0.011717
1748	8.7350e-01	-10.0890	-21.459092	0.000162	1.616331	0.547628	0.013085
1749	8.7400e-01	-10.0537	-21.381691	0.000191	1.912130	0.647847	0.015480
1750	8.7450e-01	-10.0329	-21.316692	0.000161	1.605767	0.544049	0.013000
1751	8.7500e-01	-9.9559	-21.243141	0.000182	1.817052	0.615634	0.014710
1752	8.7550e-01	-9.8997	-21.187977	0.000136	1.362789	0.461725	0.011033
1753	8.7600e-01	-9.8596	-21.113570	0.000184	1.838181	0.622792	0.014881
1754	8.7650e-01	-9.8484	-21.051992	0.000152	1.521253	0.515414	0.012316
1755	8.7700e-01	-9.7938	-20.980151	0.000177	1.774795	0.601317	0.014368
1756	8.7750e-01	-9.7569	-20.910021	0.000173	1.732538	0.587000	0.014026
1757	8.7800e-01	-9.7072	-20.859989	0.000124	1.236018	0.418774	0.010006
1758	8.7850e-01	-9.6719	-20.791141	0.000170	1.700845	0.576262	0.013770
1759	8.7900e-01	-9.6350	-20.704761	0.000213	2.133980	0.723012	0.017276
1760	8.7950e-01	-9.6029	-20.640617	0.000158	1.584638	0.536890	0.012829
1761	8.8000e-01	-9.5372	-20.581604	0.000146	1.457867	0.493939	0.011802
1762	8.8050e-01	-9.5291	-20.506342	0.000186	1.859309	0.629951	0.015052
1763	8.8100e-01	-9.4858	-20.441771	0.000160	1.595203	0.540469	0.012914
1764	8.8150e-01	-9.4393	-20.371213	0.000174	1.743102	0.590579	0.014112
1765	8.8200e-01	-9.4008	-20.311773	0.000147	1.468432	0.497518	0.011888
1766	8.8250e-01	-9.3479	-20.250195	0.000152	1.521253	0.515414	0.012316
1767	8.8300e-01	-9.3029	-20.168946	0.000201	2.007209	0.680061	0.016250
1768	8.8350e-01	-9.2837	-20.092829	0.000188	1.880438	0.637109	0.015223
1769	8.8400e-01	-9.2243	-20.035527	0.000142	1.415610	0.479622	0.011460
1770	8.8450e-01	-9.2099	-19.971383	0.000158	1.584638	0.536890	0.012829
1771	8.8500e-01	-9.1682	-19.901680	0.000172	1.721974	0.583420	0.013941
1772	8.8550e-01	-9.1185	-19.835826	0.000163	1.626895	0.551207	0.013171
1773	8.8600e-01	-9.0687	-19.759709	0.000188	1.880438	0.637109	0.015223
1774	8.8650e-01	-9.0158	-19.699414	0.000149	1.489560	0.504677	0.012059
1775	8.8700e-01	-8.9789	-19.637835	0.000152	1.521253	0.515414	0.012316
1776	8.8750e-01	-8.9420	-19.571554	0.000164	1.637460	0.554786	0.013256
1777	8.8800e-01	-8.9211	-19.499285	0.000179	1.785359	0.604896	0.014454
1778	8.8850e-01	-8.8794	-19.428299	0.000175	1.753666	0.594158	0.014197
1779	8.8900e-01	-8.8361	-19.354748	0.000182	1.817052	0.615634	0.014710
1780	8.8950e-01	-8.7800	-19.291887	0.000155	1.552946	0.526152	0.012572
1781	8.9000e-01	-8.7447	-19.225605	0.000164	1.637460	0.554786	0.013256
1782	8.9050e-01	-8.7367	-19.152053	0.000182	1.817052	0.615634	0.014710
1783	8.9100e-01	-8.6885	-19.077219	0.000185	1.848745	0.626372	0.014967
1784	8.9150e-01	-8.6260	-19.030180	0.000116	1.162068	0.393719	0.009408
1785	8.9200e-01	-8.5971	-18.942517	0.000217	2.165672	0.733750	0.017533
1786	8.9250e-01	-8.5570	-18.873669	0.000170	1.700845	0.576262	0.013770
1787	8.9300e-01	-8.4944	-18.809098	0.000160	1.595203	0.540469	0.012914
1788	8.9350e-01	-8.4671	-18.742816	0.000164	1.637460	0.554786	0.013256
1789	8.9400e-01	-8.4190	-18.678672	0.000158	1.584638	0.536890	0.012829
1790	8.9450e-01	-8.3982	-18.603838	0.000185	1.848745	0.626372	0.014967
1791	8.9500e-01	-8.3484	-18.547819	0.000138	1.383918	0.468884	0.011204
1792	8.9550e-01	-8.3356	-18.472129	0.000187	1.869873	0.633530	0.015138
1793	8.9600e-01	-8.2810	-18.403281	0.000170	1.700845	0.576262	0.013770
1794	8.9650e-01	-8.2233	-18.346407	0.000141	1.405046	0.476042	0.011375
1795	8.9700e-01	-8.1768	-18.275421	0.000175	1.753666	0.594158	0.014197
1796	8.9750e-01	-8.1511	-18.200159	0.000186	1.859309	0.629951	0.015052
1797	8.9800e-01	-8.1286	-18.140292	0.000148	1.478996	0.501097	0.011974
1798	8.9850e-01	-8.0773	-18.054767	0.000211	2.112851	0.715853	0.017105
1799	8.9900e-01	-8.0228	-17.993189	0.000152	1.521253	0.515414	0.012316
1800	8.9950e-01	-7.9778	-17.925196	0.000168	1.679717	0.569103	0.013598
1801	9.0000e-01	-7.9554	-17.859770	0.000162	1.616331	0.547628	0.013085
1802	9.0050e-01	-7.9137	-17.793060	0.000165	1.648024	0.558366	0.013342
1803	9.0100e-01	-7.8752	-17.714805	0.000193	1.933259	0.655006	0.015651
1804	9.0150e-01	-7.8511	-17.642536	0.000179	1.785359	0.604896	0.014454
1805	9.0200e-01	-7.7821	-17.577965	0.000160	1.595203	0.540469	0.012914
1806	9.0250e-01	-7.7388	-17.518097	0.000148	1.478996	0.501097	0.011974
1807	9.0300e-01	-7.7260	-17.444118	0.000183	1.827616	0.619213	0.014796
1808	9.0350e-01	-7.6634	-17.376125	0.000168	1.679717	0.569103	0.013598
1809	9.0400e-01	-7.6073	-17.308561	0.000167	1.669152	0.565524	0.013513
1810	9.0450e-01	-7.6041	-17.236720	0.000177	1.774795	0.601317	0.014368
1811	9.0500e-01	-7.5640	-17.158464	0.000193	1.933259	0.655006	0.015651
1812	9.0550e-01	-7.5479	-17.089616	0.000170	1.700845	0.576262	0.013770
1813	9.0600e-01	-7.4709	-17.035308	0.000134	1.341660	0.454567	0.010862
1814	9.0650e-01	-7.4372	-16.951494	0.000207	2.070594	0.701536	0.016763
1815	9.0700e-01	-7.3955	-16.877514	0.000183	1.827616	0.619213	0.014796
1816	9.0750e-01	-7.3426	-16.811660	0.000163	1.626895	0.551207	0.013171
1817	9.0800e-01	-7.3233	-16.751793	0.000148	1.478996	0.501097	0.011974
1818	9.0850e-01	-7.2816	-16.675248	0.000189	1.891002	0.640689	0.015309
1819	9.0900e-01	-7.2624	-16.605117	0.000173	1.732538	0.587000	0.014026
1820	9.0950e-01	-7.1950	-16.546532	0.000145	1.447303	0.490360	0.011717
1821	9.1000e-01	-7.1501	-16.470415	0.000188	1.880438	0.637109	0.015223
1822	9.1050e-01	-7.0923	-16.426370	0.000109	1.088118	0.368664	0.008809
1823	9.1100e-01	-7.0634	-16.334430	0.000227	2.271315	0.769542	0.018388
1824	9.1150e-01	-7.0346	-16.255747	0.000194	1.943823	0.658585	0.015737
1825	9.1200e-01	-6.9896	-16.191176	0.000160	1.595203	0.540469	0.012914
1826	9.1250e-01	-6.9752	-16.118907	0.000179	1.785359	0.604896	0.014454
1827	9.1300e-01	-6.8966	-16.060322	0.000145	1.447303	0.490360	0.011717
1828	9.1350e-01	-6.8806	-15.985060	0.000186	1.859309	0.629951	0.015052
1829	9.1400e-01	-6.8132	-15.914930	0.000173	1.732538	0.587000	0.014026
1830	9.1450e-01	-6.7923	-15.843944	0.000175	1.753666	0.594158	0.014197
1831	9.1500e-01	-6.7667	-15.764406	0.000196	1.964952	0.665744	0.015908
1832	9.1550e-01	-6.7185	-15.702828	0.000152	1.521253	0.515414	0.012316
1833	9.1600e-01	-6.6816	-15.631842	0.000175	1.753666	0.594158	0.014197
1834	9.1650e-01	-6.6511	-15.559573	0.000179	1.785359	0.604896	0.014454
1835	9.1700e-01	-6.5998	-15.500133	0.000147	1.468432	0.497518	0.011888
1836	9.1750e-01	-6.5565	-15.424871	0.000186	1.859309	0.629951	0.015052
1837	9.1800e-01	-6.5260	-15.348326	0.000189	1.891002	0.640689	0.015309
1838	9.1850e-01	-6.4795	-15.285465	0.000155	1.552946	0.526152	0.012572
1839	9.1900e-01	-6.4266	-15.223032	0.000154	1.542381	0.522573	0.012487
1840	9.1950e-01	-6.4378	-15.115698	-0.000265	-2.651628	-0.898396	0.021467
1841	9.2000e-01	-6.3752	-15.081061	0.000086	0.855705	0.289921	0.006928
1842	9.2050e-01	-6.3271	-15.018200	0.000155	1.552946	0.526152	0.012572
1843	9.2100e-01	-6.2661	-14.949780	0.000169	1.690281	0.572683	0.013684
1844	9.2150e-01	-6.2485	-14.847150	0.000254	2.535421	0.859024	0.020526
1845	9.2200e-01	-6.1923	-14.809519	0.000093	0.929655	0.314975	0.007526
1846	9.2250e-01	-6.1747	-14.728697	0.000200	1.996644	0.676481	0.016164
1847	9.2300e-01	-6.1041	-14.663271	0.000162	1.616331	0.547628	0.013085
1848	9.2350e-01	-6.0784	-14.580311	0.000205	2.049466	0.694378	0.016592
1849	9.2400e-01	-6.0496	-14.507187	0.000181	1.806488	0.612055	0.014625
1850	9.2450e-01	-6.0207	-14.440478	0.000165	1.648024	0.558366	0.013342
1851	9.2500e-01	-5.9405	-14.392156	0.000119	1.193761	0.404457	0.009664
1852	9.2550e-01	-5.9244	-14.300644	0.000226	2.260751	0.765963	0.018302
1853	9.2600e-01	-5.8651	-14.237356	0.000156	1.563510	0.529731	0.012658
1854	9.2650e-01	-5.8426	-14.157818	0.000196	1.964952	0.665744	0.015908
1855	9.2700e-01	-5.7993	-14.094101	0.000157	1.574074	0.533311	0.012743
1856	9.2750e-01	-5.7560	-14.013708	0.000199	1.986080	0.672902	0.016079
1857	9.2800e-01	-5.7255	-13.950847	0.000155	1.552946	0.526152	0.012572
1858	9.2850e-01	-5.6758	-13.880289	0.000174	1.743102	0.590579	0.014112
1859	9.2900e-01	-5.6373	-13.799040	0.000201	2.007209	0.680061	0.016250
1860	9.2950e-01	-5.6020	-13.735324	0.000157	1.574074	0.533311	0.012743
1861	9.3000e-01	-5.5683	-13.666049	0.000171	1.711409	0.579841	0.013855
1862	9.3050e-01	-5.4913	-13.601905	0.000158	1.584638	0.536890	0.012829
1863	9.3100e-01	-5.4929	-13.529636	-0.000179	-1.785359	-0.604896	0.014454
1864	9.3150e-01	-5.4608	-13.460361	0.000171	1.711409	0.579841	0.013855
1865	9.3200e-01	-5.4143	-13.390230	0.000173	1.732538	0.587000	0.014026
1866	9.3250e-01	-5.3581	-13.315823	0.000184	1.838181	0.622792	0.014881
1867	9.3300e-01	-5.3180	-13.235002	0.000200	1.996644	0.676481	0.016164
1868	9.3350e-01	-5.2811	-13.169148	0.000163	1.626895	0.551207	0.013171
1869	9.3400e-01	-5.2170	-13.093886	0.000186	1.859309	0.629951	0.015052
1870	9.3450e-01	-5.1961	-13.022900	0.000175	1.753666	0.594158	0.014197
1871	9.3500e-01	-5.1544	-12.960467	0.000154	1.542381	0.522573	0.012487
1872	9.3550e-01	-5.0999	-12.892902	0.000167	1.669152	0.565524	0.013513
1873	9.3600e-01	-5.0646	-12.826192	0.000165	1.648024	0.558366	0.013342
1874	9.3650e-01	-5.0581	-12.731260	0.000235	2.345265	0.794597	0.018987
1875	9.3700e-01	-5.0068	-12.654287	0.000190	1.901566	0.644268	0.015395
1876	9.3750e-01	-4.9491	-12.600406	0.000133	1.331096	0.450988	0.010776
1877	9.3800e-01	-4.9202	-12.531131	0.000171	1.711409	0.579841	0.013855
1878	9.3850e-01	-4.9057	-12.451165	0.000198	1.975516	0.669323	0.015993
1879	9.3900e-01	-4.8656	-12.384883	0.000164	1.637460	0.554786	0.013256
1880	9.3950e-01	-4.7934	-12.314325	0.000174	1.743102	0.590579	0.014112
1881	9.4000e-01	-4.7646	-12.239063	0.000186	1.859309	0.629951	0.015052
1882	9.4050e-01	-4.7164	-12.177913	0.000151	1.510689	0.511835	0.012230
1883	9.4100e-01	-4.6812	-12.110348	0.000167	1.669152	0.565524	0.013513
1884	9.4150e-01	-4.6314	-12.023112	0.000216	2.155108	0.730170	0.017447
1885	9.4200e-01	-4.5817	-11.967093	0.000138	1.383918	0.468884	0.011204
1886	9.4250e-01	-4.5592	-11.894397	0.000180	1.795924	0.608475	0.014539
1887	9.4300e-01	-4.5175	-11.816997	0.000191	1.912130	0.647847	0.015480
1888	9.4350e-01	-4.4774	-11.735320	0.000202	2.017773	0.683640	0.016335
1889	9.4400e-01	-4.4197	-11.666900	0.000169	1.690281	0.572683	0.013684
1890	9.4450e-01	-4.3940	-11.594204	0.000180	1.795924	0.608475	0.014539
1891	9.4500e-01	-4.3715	-11.522363	0.000177	1.774795	0.601317	0.014368
1892	9.4550e-01	-4.3266	-11.441969	0.000199	1.986080	0.672902	0.016079
1893	9.4600e-01	-4.2817	-11.385095	0.000141	1.405046	0.476042	0.011375
1894	9.4650e-01	-4.2336	-11.308550	0.000189	1.891002	0.640689	0.015309
1895	9.4700e-01	-4.1710	-11.249966	0.000145	1.447303	0.490360	0.011717
1896	9.4750e-01	-4.1389	-11.163158	0.000214	2.144544	0.726591	0.017362
1897	9.4800e-01	-4.1004	-11.099869	0.000156	1.563510	0.529731	0.012658
1898	9.4850e-01	-4.0764	-11.017765	0.000203	2.028337	0.687219	0.016421
1899	9.4900e-01	-4.0443	-10.950628	0.000166	1.658588	0.561945	0.013427
1900	9.4950e-01	-4.0074	-10.873228	0.000191	1.912130	0.647847	0.015480
1901	9.5000e-01	-3.9464	-10.797966	0.000186	1.859309	0.629951	0.015052
1902	9.5050e-01	-3.9159	-10.731684	0.000164	1.637460	0.554786	0.013256
1903	9.5100e-01	-3.8662	-10.657277	0.000184	1.838181	0.622792	0.014881
1904	9.5150e-01	-3.8309	-10.582443	0.000185	1.848745	0.626372	0.014967
1905	9.5200e-01	-3.7892	-10.513595	0.000170	1.700845	0.576262	0.013770
1906	9.5250e-01	-3.7667	-10.445603	0.000168	1.679717	0.569103	0.013598
1907	9.5300e-01	-3.6978	-10.368202	0.000191	1.912130	0.647847	0.015480
1908	9.5350e-01	-3.6913	-10.298072	0.000173	1.732538	0.587000	0.014026
1909	9.5400e-01	-3.6432	-10.216823	0.000201	2.007209	0.680061	0.016250
1910	9.5450e-01	-3.5935	-10.139851	0.000190	1.901566	0.644268	0.015395
1911	9.5500e-01	-3.5630	-10.083832	0.000138	1.383918	0.468884	0.011204
1912	9.5550e-01	-3.5036	-10.002155	0.000202	2.017773	0.683640	0.016335
1913	9.5600e-01	-3.4876	-9.943571	0.000145	1.447303	0.490360	0.011717
1914	9.5650e-01	-3.4667	-9.854197	0.000221	2.207929	0.748067	0.017875
1915	9.5700e-01	-3.4026	-9.798606	0.000137	1.373353	0.465305	0.011118
1916	9.5750e-01	-3.3577	-9.714791	0.000207	2.070594	0.701536	0.016763
1917	9.5800e-01	-3.3224	-9.632687	0.000203	2.028337	0.687219	0.016421
1918	9.5850e-01	-3.2791	-9.563839	0.000170	1.700845	0.576262	0.013770
1919	9.5900e-01	-3.2293	-9.495847	0.000168	1.679717	0.569103	0.013598
1920	9.5950e-01	-3.1988	-9.435552	0.000149	1.489560	0.504677	0.012059
1921	9.6000e-01	-3.1668	-9.335487	0.000247	2.472036	0.837548	0.020013
1922	9.6050e-01	-3.1106	-9.281179	0.000134	1.341660	0.454567	0.010862
1923	9.6100e-01	-3.0865	-9.204634	0.000189	1.891002	0.640689	0.015309
1924	9.6150e-01	-3.0352	-9.140918	0.000157	1.574074	0.533311	0.012743
1925	9.6200e-01	-3.0079	-9.064801	0.000188	1.880438	0.637109	0.015223
1926	9.6250e-01	-2.9406	-8.994242	0.000174	1.743102	0.590579	0.014112
1927	9.6300e-01	-2.9021	-8.919836	0.000184	1.838181	0.622792	0.014881
1928	9.6350e-01	-2.8892	-8.839442	0.000199	1.986080	0.672902	0.016079
1929	9.6400e-01	-2.8571	-8.768456	0.000175	1.753666	0.594158	0.014197
1930	9.6450e-01	-2.7946	-8.693622	0.000185	1.848745	0.626372	0.014967
1931	9.6500e-01	-2.7320	-8.623919	0.000172	1.721974	0.583420	0.013941
1932	9.6550e-01	-2.7208	-8.542670	0.000201	2.007209	0.680061	0.016250
1933	9.6600e-01	-2.6759	-8.480237	0.000154	1.542381	0.522573	0.012487
1934	9.6650e-01	-2.6197	-8.411389	0.000170	1.700845	0.576262	0.013770
1935	9.6700e-01	-2.5989	-8.324154	0.000216	2.155108	0.730170	0.017447
1936	9.6750e-01	-2.5523	-8.243760	0.000199	1.986080	0.672902	0.016079
1937	9.6800e-01	-2.5267	-8.175768	0.000168	1.679717	0.569103	0.013598
1938	9.6850e-01	-2.4785	-8.103071	0.000180	1.795924	0.608475	0.014539
1939	9.6900e-01	-2.4352	-8.024388	0.000194	1.943823	0.658585	0.015737
1940	9.6950e-01	-2.4015	-7.981626	0.000106	1.056426	0.357927	0.008553
1941	9.7000e-01	-2.3662	-7.882844	0.000244	2.440343	0.826811	0.019756
1942	9.7050e-01	-2.2989	-7.808438	0.000184	1.838181	0.622792	0.014881
1943	9.7100e-01	-2.2748	-7.751991	0.000139	1.394482	0.472463	0.011289
1944	9.7150e-01	-2.2411	-7.662190	0.000222	2.218494	0.751646	0.017960
1945	9.7200e-01	-2.2090	-7.594197	0.000168	1.679717	0.569103	0.013598
1946	9.7250e-01	-2.1737	-7.501403	0.000229	2.292444	0.776701	0.018559
1947	9.7300e-01	-2.1192	-7.444528	0.000141	1.405046	0.476042	0.011375
1948	9.7350e-01	-2.0727	-7.372260	0.000179	1.785359	0.604896	0.014454
1949	9.7400e-01	-2.0630	-7.294432	0.000192	1.922695	0.651427	0.015566
1950	9.7450e-01	-2.0053	-7.219170	0.000186	1.859309	0.629951	0.015052
1951	9.7500e-01	-1.9780	-7.141342	0.000192	1.922695	0.651427	0.015566
1952	9.7550e-01	-1.9171	-7.078481	0.000155	1.552946	0.526152	0.012572
1953	9.7600e-01	-1.8721	-7.005357	0.000181	1.806488	0.612055	0.014625
1954	9.7650e-01	-1.8497	-6.925819	0.000196	1.964952	0.665744	0.015908
1955	9.7700e-01	-1.8016	-6.850985	0.000185	1.848745	0.626372	0.014967
1956	9.7750e-01	-1.7470	-6.778716	0.000179	1.785359	0.604896	0.014454
1957	9.7800e-01	-1.7486	-6.704309	-0.000184	-1.838181	-0.622792	0.014881
1958	9.7850e-01	-1.6877	-6.627764	0.000189	1.891002	0.640689	0.015309
1959	9.7900e-01	-1.6427	-6.556778	0.000175	1.753666	0.594158	0.014197
1960	9.7950e-01	-1.6106	-6.481089	0.000187	1.869873	0.633530	0.015138
1961	9.8000e-01	-1.5689	-6.402406	0.000194	1.943823	0.658585	0.015737
1962	9.8050e-01	-1.5433	-6.327144	0.000186	1.859309	0.629951	0.015052
1963	9.8100e-01	-1.4935	-6.249316	0.000192	1.922695	0.651427	0.015566
1964	9.8150e-01	-1.4310	-6.190731	0.000145	1.447303	0.490360	0.011717
1965	9.8200e-01	-1.3941	-6.117180	0.000182	1.817052	0.615634	0.014710
1966	9.8250e-01	-1.3460	-6.029944	0.000216	2.155108	0.730170	0.017447
1967	9.8300e-01	-1.3411	-5.953399	0.000189	1.891002	0.640689	0.015309
1968	9.8350e-01	-1.2898	-5.880275	0.000181	1.806488	0.612055	0.014625
1969	9.8400e-01	-1.2337	-5.811855	0.000169	1.690281	0.572683	0.013684
1970	9.8450e-01	-1.2048	-5.734027	0.000192	1.922695	0.651427	0.015566
1971	9.8500e-01	-1.1759	-5.660048	0.000183	1.827616	0.619213	0.014796
1972	9.8550e-01	-1.1005	-5.588635	0.000176	1.764231	0.597738	0.014283
1973	9.8600e-01	-1.0829	-5.517221	0.000176	1.764231	0.597738	0.014283
1974	9.8650e-01	-1.0492	-5.438966	0.000193	1.933259	0.655006	0.015651
1975	9.8700e-01	-1.0123	-5.366270	0.000180	1.795924	0.608475	0.014539
1976	9.8750e-01	-0.9706	-5.279462	0.000214	2.144544	0.726591	0.017362
1977	9.8800e-01	-0.9080	-5.217456	0.000153	1.531817	0.518994	0.012401
1978	9.8850e-01	-0.8936	-5.145187	0.000179	1.785359	0.604896	0.014454
1979	9.8900e-01	-0.8278	-5.064366	0.000200	1.996644	0.676481	0.016164
1980	9.8950e-01	-0.7925	-4.991670	0.000180	1.795924	0.608475	0.014539
1981	9.9000e-01	-0.7764	-4.915553	0.000188	1.880438	0.637109	0.015223
1982	9.9050e-01	-0.7059	-4.843711	0.000177	1.774795	0.601317	0.014368
1983	9.9100e-01	-0.6834	-4.777002	0.000165	1.648024	0.558366	0.013342
1984	9.9150e-01	-0.6289	-4.697891	0.000195	1.954387	0.662164	0.015822
1985	9.9200e-01	-0.5888	-4.620919	0.000190	1.901566	0.644268	0.015395
1986	9.9250e-01	-0.5583	-4.537104	0.000207	2.070594	0.701536	0.016763
1987	9.9300e-01	-0.5230	-4.470822	0.000164	1.637460	0.554786	0.013256
1988	9.9350e-01	-0.4909	-4.401547	0.000171	1.711409	0.579841	0.013855
1989	9.9400e-01	-0.4444	-4.314311	0.000216	2.155108	0.730170	0.017447
1990	9.9450e-01	-0.3946	-4.257865	0.000139	1.394482	0.472463	0.011289
1991	9.9500e-01	-0.3577	-4.175333	0.000204	2.038901	0.690798	0.016506
1992	9.9550e-01	-0.3241	-4.091091	0.000208	2.081158	0.705116	0.016848
1993	9.9600e-01	-0.3080	-4.016257	0.000185	1.848745	0.626372	0.014967
1994	9.9650e-01	-0.2390	-3.943133	0.000181	1.806488	0.612055	0.014625
1995	9.9700e-01	-0.1941	-3.872147	0.000175	1.753666	0.594158	0.014197
1996	9.9750e-01	-0.1492	-3.788332	0.000207	2.070594	0.701536	0.016763
1997	9.9800e-01	-0.1235	-3.722906	0.000162	1.616331	0.547628	0.013085
1998	9.9850e-01	-0.1107	-3.633960	0.000220	2.197365	0.744487	0.017789
1999	9.9900e-01	-0.0337	-3.565540	0.000169	1.690281	0.572683	0.013684
2000	9.9950e-01	-0.0064	-3.495837	0.000172	1.721974	0.583420	0.013941
2001	1.0000e+00	0.0273	-3.423568	0.000172	1.721974	0.583420	0.014454

PMax (uC/cm2):	3.78e+01
Pr (uC/cm2):	1.64e+00
-Pr (uC/cm2):	-1.84e+00
PLoss (uC/cm2):	-1.83e+00
-Vc:	-8.77e-01
C (Max-Eff) (nF):	1.88e-01
K (Eff):	6.38e+02
Vert. (+/-Pr) Shift (uC/cm2):	-1.01e-01
Offset (uC/cm2):	1.58e+00

A (Loop Area - uC/cm2·Volts):	-7.18e-02



Hysteresis Version: 5.48.1 - Radiant Technologies, Inc., 1999 - 9/12/24

