»»»»»»»»»»»»»»»»»»»»»»»»»»»»»»»»»»»» Hysteresis ««««««««««««««««««««««««««««««««««««
»»»  Executed Version:	5.48.1
»»»  Vision Version:	5.48.4 (R)
»»»  Vision Compiled:	9/18/24
»»»  Driver Version:	5.47.0
»»»  Windows Version:	Windows 8 or 8.1
»»»  Processor Information:	x86 (AMD or Intel) - 32 Processors
»»»  Tester Name:	PMF21124-494 (100V)
»»»  Tester S/N:	PMF21124-494
»»»  Internal Amp Type:	100V RevK 270k
»»»  Internal Amp S/N:	iAB2-596/K     
»»»  Execution Count:	1
»»»»»»»»»»»»»»»»»»»»»»»»»»»»»»»»»»»»»»»»»»««««««««««««««««««««««««««««««««««««««««««

Stored:	6/19/2025 - 13:18:48
Configured:	06/19/25 10:04:32 AM
Executed:	06/19/25 01:18:25 PM

»»»»»»»»»»»»»»»»»»»»»»»»»»»»»»»»»»» Sample Info ««««««««««««««««««««««««««««««««««««
Sample Name:	
Lot Name:	
Wafer Name:	
Die Row/Column:	0/0
Capacitor Number:	0
Sample Area (cm2):	1.00e-04
Sample Thickness (microns):	3.00e-01

Amplifier:	Internal

»»»»»»»»»»»»»»»»»»»»»»»»»»»»»»»»»»» Tester Info «««««««««««««««««««««««««««««««««««
Tester Name:	PMF21124-494 (100V)
Tester Serial Number:	PMF21124-494
Return Signal Amp. Level:	1.79 [Index: 2]

»»»»»»»»»»»»»»»»»»»»»»»»»»»»»»»» Hysteresis Info ««««««««««««««««««««««««««««««««««
Task Name:	Hyst-1168
Volts:	20.00
Field:	666.67 (kV/cm)
DCBias:	0.00
DCField:	0.00 (kV/cm)
Hysteresis Period (ms):	1.00e+00
Preset:	Enabled
Preset Delay (ms):	1.00e+03
Profile:	Standard Bipolar

»»»»»»»»»»»»»»»»»»»»»»»»»»»»»»»»»»»»»» Data «««««««««««««««««««««««««««««««««««««««
Points:	2001

Valid Data

Point	Time (ms)	Drive Voltage	Measured Polarization (uC/cm2)	Capacitance (uF)	Normalized Capacitance (uF/cm2)	Dielectric Constant	Instantaneous Current (mA)
   1	0.0000e+00	0.0449	-1.925810	-0.000135	-1.345686	-0.455931	0.010947
   2	5.0000e-04	0.0241	-1.871074	-0.000135	-1.345686	-0.455931	0.010947
   3	1.0000e-03	0.1380	-1.857390	0.000034	0.336421	0.113983	0.002737
   4	1.5000e-03	0.1684	-1.790253	0.000165	1.650568	0.559228	0.013427
   5	2.0000e-03	0.2086	-1.731241	0.000145	1.450818	0.491550	0.011802
   6	2.5000e-03	0.2374	-1.656834	0.000183	1.829292	0.619781	0.014881
   7	3.0000e-03	0.3305	-1.577296	0.000196	1.955450	0.662524	0.015908
   8	3.5000e-03	0.3481	-1.504172	0.000180	1.797752	0.609095	0.014625
   9	4.0000e-03	0.3626	-1.416936	0.000214	2.144687	0.726640	0.017447
  10	4.5000e-03	0.3818	-1.350654	0.000163	1.629542	0.552104	0.013256
  11	5.0000e-03	0.4428	-1.280524	0.000172	1.724160	0.584161	0.014026
  12	5.5000e-03	0.4957	-1.222367	0.000143	1.429791	0.484426	0.011631
  13	6.0000e-03	0.5198	-1.117599	0.000258	2.575727	0.872680	0.020954
  14	6.5000e-03	0.5583	-1.033784	0.000206	2.060582	0.698144	0.016763
  15	7.0000e-03	0.6000	-0.976482	0.000141	1.408765	0.477302	0.011460
  16	7.5000e-03	0.6385	-0.893523	0.000204	2.039555	0.691020	0.016592
  17	8.0000e-03	0.6866	-0.816123	0.000190	1.902884	0.644715	0.015480
  18	8.5000e-03	0.7283	-0.743427	0.000179	1.787239	0.605533	0.014539
  19	9.0000e-03	0.7764	-0.647638	0.000235	2.354950	0.797879	0.019158
  20	9.5000e-03	0.8101	-0.564679	0.000204	2.039555	0.691020	0.016592
  21	1.0000e-02	0.8663	-0.509516	0.000136	1.356199	0.459493	0.011033
  22	1.0500e-02	0.8855	-0.423135	0.000212	2.123661	0.719516	0.017276
  23	1.1000e-02	0.9369	-0.359847	0.000156	1.555949	0.527170	0.012658
  24	1.1500e-02	0.9674	-0.252085	0.000265	2.649319	0.897614	0.021552
  25	1.2000e-02	1.0155	-0.196066	0.000138	1.377225	0.466617	0.011204
  26	1.2500e-02	1.0283	-0.110541	0.000210	2.102634	0.712392	0.017105
  27	1.3000e-02	1.0588	-0.037417	0.000180	1.797752	0.609095	0.014625
  28	1.3500e-02	1.1294	0.030575	0.000167	1.671594	0.566351	0.013598
  29	1.4000e-02	1.1807	0.096857	0.000163	1.629542	0.552104	0.013256
  30	1.4500e-02	1.2080	0.199060	0.000251	2.512648	0.851308	0.020440
  31	1.5000e-02	1.2513	0.267907	0.000169	1.692621	0.573475	0.013770
  32	1.5500e-02	1.2930	0.353432	0.000210	2.102634	0.712392	0.017105
  33	1.6000e-02	1.2962	0.428694	0.000185	1.850318	0.626905	0.015052
  34	1.6500e-02	1.3668	0.502674	0.000182	1.818779	0.616219	0.014796
  35	1.7000e-02	1.4663	0.541160	0.000095	0.946185	0.320576	0.007697
  36	1.7500e-02	1.4390	0.666454	-0.000308	-3.080359	-1.043654	0.025059
  37	1.8000e-02	1.4599	0.746848	0.000198	1.976476	0.669648	0.016079
  38	1.8500e-02	1.5080	0.808426	0.000151	1.513897	0.512922	0.012316
  39	1.9000e-02	1.5401	0.893095	0.000208	2.081608	0.705268	0.016934
  40	1.9500e-02	1.6379	0.969213	0.000187	1.871344	0.634029	0.015223
  41	2.0000e-02	1.6395	1.041909	0.000179	1.787239	0.605533	0.014539
  42	2.0500e-02	1.6652	1.143684	0.000250	2.502135	0.847746	0.020355
  43	2.1000e-02	1.7310	1.201413	0.000142	1.419278	0.480864	0.011546
  44	2.1500e-02	1.7390	1.296774	0.000234	2.344437	0.794317	0.019072
  45	2.2000e-02	1.8032	1.379733	0.000204	2.039555	0.691020	0.016592
  46	2.2500e-02	1.8513	1.427199	0.000117	1.166962	0.395377	0.009493
  47	2.3000e-02	1.8898	1.510159	0.000204	2.039555	0.691020	0.016592
  48	2.3500e-02	1.9283	1.591407	0.000200	1.997503	0.676772	0.016250
  49	2.4000e-02	1.9700	1.670518	0.000194	1.944937	0.658962	0.015822
  50	2.4500e-02	1.9812	1.753477	0.000204	2.039555	0.691020	0.016592
  51	2.5000e-02	2.0454	1.824891	0.000176	1.755700	0.594847	0.014283
  52	2.5500e-02	2.0903	1.916403	0.000225	2.249819	0.762259	0.018302
  53	2.6000e-02	2.1384	1.980546	0.000158	1.576976	0.534294	0.012829
  54	2.6500e-02	2.1513	2.072058	0.000225	2.249819	0.762259	0.018302
  55	2.7000e-02	2.2010	2.143044	0.000175	1.745186	0.591285	0.014197
  56	2.7500e-02	2.2203	2.251233	0.000266	2.659832	0.901176	0.021638
  57	2.8000e-02	2.2828	2.292713	0.000102	1.019778	0.345510	0.008296
  58	2.8500e-02	2.3406	2.400474	0.000265	2.649319	0.897614	0.021552
  59	2.9000e-02	2.3743	2.472316	0.000177	1.766213	0.598409	0.014368
  60	2.9500e-02	2.4128	2.530045	0.000142	1.419278	0.480864	0.011546
  61	3.0000e-02	2.4288	2.622412	0.000227	2.270845	0.769383	0.018473
  62	3.0500e-02	2.4689	2.703233	0.000199	1.986989	0.673210	0.016164
  63	3.1000e-02	2.5106	2.798594	0.000234	2.344437	0.794317	0.019072
  64	3.1500e-02	2.5684	2.865303	0.000164	1.640055	0.555666	0.013342
  65	3.2000e-02	2.6069	2.917046	0.000127	1.272094	0.430997	0.010349
  66	3.2500e-02	2.6422	3.030367	0.000279	2.785990	0.943919	0.022664
  67	3.3000e-02	2.6775	3.115464	0.000209	2.092121	0.708830	0.017019
  68	3.3500e-02	2.7192	3.157371	0.000103	1.030291	0.349072	0.008381
  69	3.4000e-02	2.7817	3.244179	0.000213	2.134174	0.723078	0.017362
  70	3.4500e-02	2.8058	3.344243	0.000246	2.460082	0.833498	0.020013
  71	3.5000e-02	2.8283	3.426348	0.000202	2.018529	0.683896	0.016421
  72	3.5500e-02	2.9117	3.503320	0.000189	1.892371	0.641153	0.015395
  73	3.6000e-02	2.9213	3.583286	0.000197	1.965963	0.666086	0.015993
  74	3.6500e-02	2.9534	3.670094	0.000213	2.134174	0.723078	0.017362
  75	3.7000e-02	3.0272	3.723975	0.000132	1.324660	0.448807	0.010776
  76	3.7500e-02	3.0657	3.807789	0.000206	2.060582	0.698144	0.016763
  77	3.8000e-02	3.1250	3.881768	0.000182	1.818779	0.616219	0.014796
  78	3.8500e-02	3.1170	3.989958	-0.000266	-2.659832	-0.901176	0.021638
  79	3.9000e-02	3.1299	4.063937	0.000182	1.818779	0.616219	0.014796
  80	3.9500e-02	3.2165	4.122094	0.000143	1.429791	0.484426	0.011631
  81	4.0000e-02	3.2357	4.220020	0.000241	2.407516	0.815689	0.019585
  82	4.0500e-02	3.2983	4.303835	0.000206	2.060582	0.698144	0.016763
  83	4.1000e-02	3.3095	4.388932	0.000209	2.092121	0.708830	0.017019
  84	4.1500e-02	3.3753	4.456497	0.000166	1.661081	0.562789	0.013513
  85	4.2000e-02	3.4138	4.542022	0.000210	2.102634	0.712392	0.017105
  86	4.2500e-02	3.4363	4.624554	0.000203	2.029042	0.687458	0.016506
  87	4.3000e-02	3.5069	4.701954	0.000190	1.902884	0.644715	0.015480
  88	4.3500e-02	3.5341	4.779354	0.000190	1.902884	0.644715	0.015480
  89	4.4000e-02	3.5710	4.854188	0.000184	1.839805	0.623343	0.014967
  90	4.4500e-02	3.5919	4.952542	0.000242	2.418029	0.819251	0.019671
  91	4.5000e-02	3.6560	5.010699	0.000143	1.429791	0.484426	0.011631
  92	4.5500e-02	3.6881	5.096224	0.000210	2.102634	0.712392	0.017105
  93	4.6000e-02	3.7250	5.160368	0.000158	1.576976	0.534294	0.012829
  94	4.6500e-02	3.7860	5.274972	0.000282	2.817530	0.954605	0.022921
  95	4.7000e-02	3.8133	5.345530	0.000173	1.734673	0.587723	0.014112
  96	4.7500e-02	3.8309	5.419081	0.000181	1.808265	0.612657	0.014710
  97	4.8000e-02	3.9095	5.501185	0.000202	2.018529	0.683896	0.016421
  98	4.8500e-02	3.9288	5.583717	0.000203	2.029042	0.687458	0.016506
  99	4.9000e-02	3.9609	5.652137	0.000168	1.682107	0.569913	0.013684
 100	4.9500e-02	4.0026	5.733386	0.000200	1.997503	0.676772	0.016250
 101	5.0000e-02	4.0250	5.832167	0.000243	2.428543	0.822812	0.019756
 102	5.0500e-02	4.0828	5.936508	0.000257	2.565214	0.869118	0.020868
 103	5.1000e-02	4.1277	5.990389	0.000132	1.324660	0.448807	0.010776
 104	5.1500e-02	4.1838	6.069927	0.000196	1.955450	0.662524	0.015908
 105	5.2000e-02	4.2288	6.150748	0.000199	1.986989	0.673210	0.016164
 106	5.2500e-02	4.2464	6.242688	0.000226	2.260332	0.765821	0.018388
 107	5.3000e-02	4.2785	6.315811	0.000180	1.797752	0.609095	0.014625
 108	5.3500e-02	4.3314	6.418014	0.000251	2.512648	0.851308	0.020440
 109	5.4000e-02	4.3892	6.470184	0.000128	1.282607	0.434559	0.010434
 110	5.4500e-02	4.4068	6.561696	0.000225	2.249819	0.762259	0.018302
 111	5.5000e-02	4.4245	6.654918	0.000229	2.291871	0.776507	0.018644
 112	5.5500e-02	4.4806	6.728470	0.000181	1.808265	0.612657	0.014710
 113	5.6000e-02	4.5448	6.809291	0.000199	1.986989	0.673210	0.016164
 114	5.6500e-02	4.5689	6.884125	0.000184	1.839805	0.623343	0.014967
 115	5.7000e-02	4.6378	6.961953	0.000191	1.913397	0.648277	0.015566
 116	5.7500e-02	4.6298	7.065011	-0.000253	-2.533674	-0.858432	0.020612
 117	5.8000e-02	4.6779	7.132148	0.000165	1.650568	0.559228	0.013427
 118	5.8500e-02	4.7437	7.219384	0.000214	2.144687	0.726640	0.017447
 119	5.9000e-02	4.7870	7.280962	0.000151	1.513897	0.512922	0.012316
 120	5.9500e-02	4.8271	7.363493	0.000203	2.029042	0.687458	0.016506
 121	6.0000e-02	4.8705	7.442176	0.000193	1.934424	0.655400	0.015737
 122	6.0500e-02	4.8977	7.531978	0.000221	2.207766	0.748011	0.017960
 123	6.1000e-02	4.9186	7.626055	0.000231	2.312898	0.783631	0.018816
 124	6.1500e-02	4.9747	7.702600	0.000188	1.881858	0.637591	0.015309
 125	6.2000e-02	5.0245	7.780000	0.000190	1.902884	0.644715	0.015480
 126	6.2500e-02	5.0517	7.866381	0.000212	2.123661	0.719516	0.017276
 127	6.3000e-02	5.0758	7.972859	0.000262	2.617780	0.886928	0.021296
 128	6.3500e-02	5.1720	8.024174	0.000126	1.261581	0.427435	0.010263
 129	6.4000e-02	5.1785	8.112693	0.000218	2.176226	0.737325	0.017704
 130	6.4500e-02	5.2170	8.217889	0.000259	2.586240	0.876242	0.021039
 131	6.5000e-02	5.2458	8.273908	0.000138	1.377225	0.466617	0.011204
 132	6.5500e-02	5.2892	8.367130	0.000229	2.291871	0.776507	0.018644
 133	6.6000e-02	5.3244	8.437688	0.000173	1.734673	0.587723	0.014112
 134	6.6500e-02	5.3613	8.535614	0.000241	2.407516	0.815689	0.019585
 135	6.7000e-02	5.4063	8.624133	0.000218	2.176226	0.737325	0.017704
 136	6.7500e-02	5.4400	8.692125	0.000167	1.671594	0.566351	0.013598
 137	6.8000e-02	5.4993	8.766532	0.000183	1.829292	0.619781	0.014881
 138	6.8500e-02	5.5362	8.830676	0.000158	1.576976	0.534294	0.012829
 139	6.9000e-02	5.5956	8.952977	0.000301	3.006767	1.018720	0.024460
 140	6.9500e-02	5.6068	9.022679	0.000171	1.713647	0.580599	0.013941
 141	7.0000e-02	5.6309	9.093665	0.000175	1.745186	0.591285	0.014197
 142	7.0500e-02	5.7159	9.182184	0.000218	2.176226	0.737325	0.017704
 143	7.1000e-02	5.7415	9.263860	0.000201	2.008016	0.680334	0.016335
 144	7.1500e-02	5.7720	9.355372	0.000225	2.249819	0.762259	0.018302
 145	7.2000e-02	5.8009	9.439614	0.000207	2.071095	0.701706	0.016848
 146	7.2500e-02	5.8202	9.524284	0.000208	2.081608	0.705268	0.016934
 147	7.3000e-02	5.8715	9.602539	0.000192	1.923910	0.651838	0.015651
 148	7.3500e-02	5.9116	9.671815	0.000170	1.703134	0.577037	0.013855
 149	7.4000e-02	5.9565	9.779149	0.000264	2.638806	0.894052	0.021467
 150	7.4500e-02	5.9918	9.866384	0.000214	2.144687	0.726640	0.017447
 151	7.5000e-02	6.0319	9.926252	0.000147	1.471844	0.498674	0.011974
 152	7.5500e-02	6.0447	10.021612	0.000234	2.344437	0.794317	0.019072
 153	7.6000e-02	6.1378	10.104999	0.000205	2.050068	0.694582	0.016677
 154	7.6500e-02	6.1859	10.165722	0.000149	1.492870	0.505798	0.012145
 155	7.7000e-02	6.1811	10.270490	-0.000258	-2.575727	-0.872680	0.020954
 156	7.7500e-02	6.2373	10.342759	0.000178	1.776726	0.601971	0.014454
 157	7.8000e-02	6.2950	10.441540	0.000243	2.428543	0.822812	0.019756
 158	7.8500e-02	6.3239	10.536045	0.000232	2.323411	0.787193	0.018901
 159	7.9000e-02	6.3961	10.581374	0.000111	1.114396	0.377568	0.009066
 160	7.9500e-02	6.3913	10.697260	-0.000285	-2.849069	-0.965291	0.023177
 161	8.0000e-02	6.4217	10.769529	0.000178	1.776726	0.601971	0.014454
 162	8.0500e-02	6.4891	10.848639	0.000194	1.944937	0.658962	0.015822
 163	8.1000e-02	6.4955	10.982486	0.000329	3.290623	1.114893	0.026769
 164	8.1500e-02	6.5677	11.022683	0.000099	0.988238	0.334824	0.008039
 165	8.2000e-02	6.6175	11.077847	0.000136	1.356199	0.459493	0.011033
 166	8.2500e-02	6.6431	11.192023	0.000281	2.807017	0.951043	0.022835
 167	8.3000e-02	6.6864	11.233502	0.000102	1.019778	0.345510	0.008296
 168	8.3500e-02	6.7314	11.323303	0.000221	2.207766	0.748011	0.017960
 169	8.4000e-02	6.7570	11.419947	0.000238	2.375977	0.805003	0.019329
 170	8.4500e-02	6.7907	11.508465	0.000218	2.176226	0.737325	0.017704
 171	8.5000e-02	6.8228	11.617937	0.000269	2.691372	0.911861	0.021894
 172	8.5500e-02	6.8806	11.674384	0.000139	1.387739	0.470179	0.011289
 173	8.6000e-02	6.9367	11.737672	0.000156	1.555949	0.527170	0.012658
 174	8.6500e-02	6.9736	11.884775	0.000362	3.616531	1.225314	0.029421
 175	8.7000e-02	7.0169	11.939084	0.000134	1.335173	0.452369	0.010862
 176	8.7500e-02	7.0346	12.036582	0.000240	2.397003	0.812127	0.019500
 177	8.8000e-02	7.0811	12.097305	0.000149	1.492870	0.505798	0.012145
 178	8.8500e-02	7.1100	12.189245	0.000226	2.260332	0.765821	0.018388
 179	8.9000e-02	7.1725	12.260658	0.000176	1.755700	0.594847	0.014283
 180	8.9500e-02	7.1709	12.359012	-0.000242	-2.418029	-0.819251	0.019671
 181	9.0000e-02	7.2303	12.429998	0.000175	1.745186	0.591285	0.014197
 182	9.0500e-02	7.2880	12.499273	0.000170	1.703134	0.577037	0.013855
 183	9.1000e-02	7.3329	12.609173	0.000270	2.701885	0.915423	0.021980
 184	9.1500e-02	7.3731	12.692132	0.000204	2.039555	0.691020	0.016592
 185	9.2000e-02	7.4100	12.774236	0.000202	2.018529	0.683896	0.016421
 186	9.2500e-02	7.4757	12.851636	0.000190	1.902884	0.644715	0.015480
 187	9.3000e-02	7.5078	12.918773	0.000165	1.650568	0.559228	0.013427
 188	9.3500e-02	7.5335	13.032522	0.000280	2.796504	0.947481	0.022750
 189	9.4000e-02	7.5720	13.124461	0.000226	2.260332	0.765821	0.018388
 190	9.4500e-02	7.5976	13.174493	0.000123	1.230041	0.416749	0.010006
 191	9.5000e-02	7.6618	13.266005	0.000225	2.249819	0.762259	0.018302
 192	9.5500e-02	7.7115	13.346826	0.000199	1.986989	0.673210	0.016164
 193	9.6000e-02	7.7436	13.432351	0.000210	2.102634	0.712392	0.017105
 194	9.6500e-02	7.7741	13.516166	0.000206	2.060582	0.698144	0.016763
 195	9.7000e-02	7.8303	13.611954	0.000235	2.354950	0.797879	0.019158
 196	9.7500e-02	7.8479	13.687216	0.000185	1.850318	0.626905	0.015052
 197	9.8000e-02	7.8848	13.791129	0.000255	2.554701	0.865556	0.020783
 198	9.8500e-02	7.9361	13.857411	0.000163	1.629542	0.552104	0.013256
 199	9.9000e-02	7.9410	13.950206	0.000228	2.281358	0.772945	0.018559
 200	9.9500e-02	8.0035	14.040434	0.000222	2.218279	0.751573	0.018046
 201	1.0000e-01	8.0292	14.116124	0.000186	1.860831	0.630467	0.015138
 202	1.0050e-01	8.0901	14.191814	0.000186	1.860831	0.630467	0.015138
 203	1.0100e-01	8.1431	14.264938	0.000180	1.797752	0.609095	0.014625
 204	1.0150e-01	8.1591	14.370134	0.000259	2.586240	0.876242	0.021039
 205	1.0200e-01	8.2201	14.438981	0.000169	1.692621	0.573475	0.013770
 206	1.0250e-01	8.2682	14.515099	0.000187	1.871344	0.634029	0.015223
 207	1.0300e-01	8.2762	14.624143	0.000268	2.680859	0.908300	0.021809
 208	1.0350e-01	8.3404	14.690852	0.000164	1.640055	0.555666	0.013342
 209	1.0400e-01	8.3548	14.781081	0.000222	2.218279	0.751573	0.018046
 210	1.0450e-01	8.3982	14.869172	0.000217	2.165713	0.733764	0.017618
 211	1.0500e-01	8.4383	14.947428	0.000192	1.923910	0.651838	0.015651
 212	1.0550e-01	8.4800	15.036801	0.000220	2.197253	0.744449	0.017875
 213	1.0600e-01	8.5425	15.103083	0.000163	1.629542	0.552104	0.013256
 214	1.0650e-01	8.5586	15.215976	0.000278	2.775477	0.940357	0.022579
 215	1.0700e-01	8.6035	15.310909	0.000233	2.333924	0.790755	0.018987
 216	1.0750e-01	8.6516	15.363935	0.000130	1.303633	0.441683	0.010605
 217	1.0800e-01	8.6917	15.459295	0.000234	2.344437	0.794317	0.019072
 218	1.0850e-01	8.7302	15.541399	0.000202	2.018529	0.683896	0.016421
 219	1.0900e-01	8.7479	15.640608	0.000244	2.439056	0.826374	0.019842
 220	1.0950e-01	8.8313	15.703042	0.000153	1.534923	0.520046	0.012487
 221	1.1000e-01	8.8425	15.796264	0.000229	2.291871	0.776507	0.018644
 222	1.1050e-01	8.8810	15.873664	0.000190	1.902884	0.644715	0.015480
 223	1.1100e-01	8.9516	15.957051	0.000205	2.050068	0.694582	0.016677
 224	1.1150e-01	8.9997	16.018201	0.000150	1.503383	0.509360	0.012230
 225	1.1200e-01	9.0014	16.144778	0.000311	3.111899	1.054340	0.025315
 226	1.1250e-01	9.0719	16.214054	0.000170	1.703134	0.577037	0.013855
 227	1.1300e-01	9.0816	16.297441	0.000205	2.050068	0.694582	0.016677
 228	1.1350e-01	9.1088	16.391518	0.000231	2.312898	0.783631	0.018816
 229	1.1400e-01	9.1489	16.466353	0.000184	1.839805	0.623343	0.014967
 230	1.1450e-01	9.2243	16.557009	0.000223	2.228792	0.755135	0.018131
 231	1.1500e-01	9.2259	16.650232	0.000229	2.291871	0.776507	0.018644
 232	1.1550e-01	9.2997	16.747302	0.000239	2.386490	0.808565	0.019414
 233	1.1600e-01	9.3350	16.817005	0.000171	1.713647	0.580599	0.013941
 234	1.1650e-01	9.3559	16.918780	0.000250	2.502135	0.847746	0.020355
 235	1.1700e-01	9.4249	16.964108	0.000111	1.114396	0.377568	0.009066
 236	1.1750e-01	9.4505	17.044930	0.000199	1.986989	0.673210	0.016164
 237	1.1800e-01	9.4922	17.136441	0.000225	2.249819	0.762259	0.018302
 238	1.1850e-01	9.5468	17.241637	0.000259	2.586240	0.876242	0.021039
 239	1.1900e-01	9.5660	17.330583	0.000219	2.186740	0.740887	0.017789
 240	1.1950e-01	9.5789	17.414825	0.000207	2.071095	0.701706	0.016848
 241	1.2000e-01	9.6639	17.469989	0.000136	1.356199	0.459493	0.011033
 242	1.2050e-01	9.7008	17.588869	0.000292	2.922662	0.990225	0.023776
 243	1.2100e-01	9.7377	17.636763	0.000118	1.177475	0.398939	0.009579
 244	1.2150e-01	9.7569	17.758636	0.000300	2.996254	1.015158	0.024375
 245	1.2200e-01	9.7987	17.820214	0.000151	1.513897	0.512922	0.012316
 246	1.2250e-01	9.8580	17.918568	0.000242	2.418029	0.819251	0.019671
 247	1.2300e-01	9.8821	17.998106	0.000196	1.955450	0.662524	0.015908
 248	1.2350e-01	9.9126	18.088335	0.000222	2.218279	0.751573	0.018046
 249	1.2400e-01	9.9815	18.155900	0.000166	1.661081	0.562789	0.013513
 250	1.2450e-01	9.9960	18.257247	0.000249	2.491622	0.844184	0.020269
 251	1.2500e-01	10.0666	18.302148	0.000110	1.103883	0.374006	0.008980
 252	1.2550e-01	10.0585	18.438560	-0.000335	-3.353702	-1.136265	0.027282
 253	1.2600e-01	10.1596	18.485172	0.000115	1.145936	0.388254	0.009322
 254	1.2650e-01	10.1612	18.587802	0.000252	2.523161	0.854870	0.020526
 255	1.2700e-01	10.2254	18.651090	0.000156	1.555949	0.527170	0.012658
 256	1.2750e-01	10.2302	18.763128	0.000275	2.754451	0.933233	0.022408
 257	1.2800e-01	10.3184	18.844377	0.000200	1.997503	0.676772	0.016250
 258	1.2850e-01	10.3200	18.934178	0.000221	2.207766	0.748011	0.017960
 259	1.2900e-01	10.3409	19.000460	0.000163	1.629542	0.552104	0.013256
 260	1.2950e-01	10.4067	19.086840	0.000212	2.123661	0.719516	0.017276
 261	1.3000e-01	10.4612	19.168944	0.000202	2.018529	0.683896	0.016421
 262	1.3050e-01	10.4837	19.271574	0.000252	2.523161	0.854870	0.020526
 263	1.3100e-01	10.5350	19.343843	0.000178	1.776726	0.601971	0.014454
 264	1.3150e-01	10.5671	19.442197	0.000242	2.418029	0.819251	0.019671
 265	1.3200e-01	10.6248	19.515748	0.000181	1.808265	0.612657	0.014710
 266	1.3250e-01	10.6216	19.598280	-0.000203	-2.029042	-0.687458	0.016506
 267	1.3300e-01	10.6762	19.701765	0.000254	2.544187	0.861994	0.020697
 268	1.3350e-01	10.7259	19.777455	0.000186	1.860831	0.630467	0.015138
 269	1.3400e-01	10.7724	19.880940	0.000254	2.544187	0.861994	0.020697
 270	1.3450e-01	10.8125	19.939525	0.000144	1.440304	0.487988	0.011717
 271	1.3500e-01	10.8607	20.040872	0.000249	2.491622	0.844184	0.020269
 272	1.3550e-01	10.8927	20.106727	0.000162	1.619028	0.548542	0.013171
 273	1.3600e-01	10.9104	20.190969	0.000207	2.071095	0.701706	0.016848
 274	1.3650e-01	10.9553	20.297875	0.000263	2.628293	0.890490	0.021381
 275	1.3700e-01	11.0050	20.373992	0.000187	1.871344	0.634029	0.015223
 276	1.3750e-01	11.0564	20.450537	0.000188	1.881858	0.637591	0.015309
 277	1.3800e-01	11.1013	20.539483	0.000219	2.186740	0.740887	0.017789
 278	1.3850e-01	11.1318	20.610469	0.000175	1.745186	0.591285	0.014197
 279	1.3900e-01	11.1815	20.690007	0.000196	1.955450	0.662524	0.015908
 280	1.3950e-01	11.1975	20.790927	0.000248	2.481108	0.840622	0.020184
 281	1.4000e-01	11.2601	20.872176	0.000200	1.997503	0.676772	0.016250
 282	1.4050e-01	11.2906	20.962832	0.000223	2.228792	0.755135	0.018131
 283	1.4100e-01	11.3451	21.041515	0.000193	1.934424	0.655400	0.015737
 284	1.4150e-01	11.3836	21.131317	0.000221	2.207766	0.748011	0.017960
 285	1.4200e-01	11.4253	21.199309	0.000167	1.671594	0.566351	0.013598
 286	1.4250e-01	11.4414	21.313058	0.000280	2.796504	0.947481	0.022750
 287	1.4300e-01	11.4863	21.370787	0.000142	1.419278	0.480864	0.011546
 288	1.4350e-01	11.5056	21.459305	0.000218	2.176226	0.737325	0.017704
 289	1.4400e-01	11.5585	21.548679	0.000220	2.197253	0.744449	0.017875
 290	1.4450e-01	11.6002	21.657723	0.000268	2.680859	0.908300	0.021809
 291	1.4500e-01	11.6451	21.712460	0.000135	1.345686	0.455931	0.010947
 292	1.4550e-01	11.6949	21.803971	0.000225	2.249819	0.762259	0.018302
 293	1.4600e-01	11.7398	21.877950	0.000182	1.818779	0.616219	0.014796
 294	1.4650e-01	11.7895	21.983574	0.000260	2.596753	0.879804	0.021125
 295	1.4700e-01	11.8055	22.050711	0.000165	1.650568	0.559228	0.013427
 296	1.4750e-01	11.8424	22.155907	0.000259	2.586240	0.876242	0.021039
 297	1.4800e-01	11.9002	22.208077	0.000128	1.282607	0.434559	0.010434
 298	1.4850e-01	11.9130	22.313701	0.000260	2.596753	0.879804	0.021125
 299	1.4900e-01	11.9724	22.402219	0.000218	2.176226	0.737325	0.017704
 300	1.4950e-01	12.0253	22.455672	0.000131	1.314146	0.445245	0.010691
 301	1.5000e-01	12.0446	22.556592	0.000248	2.481108	0.840622	0.020184
 302	1.5050e-01	12.1039	22.651952	0.000234	2.344437	0.794317	0.019072
 303	1.5100e-01	12.1184	22.732346	0.000198	1.976476	0.669648	0.016079
 304	1.5150e-01	12.1473	22.826423	0.000231	2.312898	0.783631	0.018816
 305	1.5200e-01	12.2146	22.884580	0.000143	1.429791	0.484426	0.011631
 306	1.5250e-01	12.2467	22.991059	0.000262	2.617780	0.886928	0.021296
 307	1.5300e-01	12.2964	23.060334	0.000170	1.703134	0.577037	0.013855
 308	1.5350e-01	12.3606	23.145859	0.000210	2.102634	0.712392	0.017105
 309	1.5400e-01	12.3542	23.254476	-0.000267	-2.670345	-0.904738	0.021723
 310	1.5450e-01	12.4071	23.323752	0.000170	1.703134	0.577037	0.013855
 311	1.5500e-01	12.4344	23.424671	0.000248	2.481108	0.840622	0.020184
 312	1.5550e-01	12.4713	23.495657	0.000175	1.745186	0.591285	0.014197
 313	1.5600e-01	12.5307	23.578616	0.000204	2.039555	0.691020	0.016592
 314	1.5650e-01	12.5644	23.663714	0.000209	2.092121	0.708830	0.017019
 315	1.5700e-01	12.6029	23.749239	0.000210	2.102634	0.712392	0.017105
 316	1.5750e-01	12.6301	23.849303	0.000246	2.460082	0.833498	0.020013
 317	1.5800e-01	12.6911	23.920289	0.000175	1.745186	0.591285	0.014197
 318	1.5850e-01	12.7376	24.003248	0.000204	2.039555	0.691020	0.016592
 319	1.5900e-01	12.7777	24.071241	0.000167	1.671594	0.566351	0.013598
 320	1.5950e-01	12.7954	24.183706	0.000276	2.764964	0.936795	0.022493
 321	1.6000e-01	12.8499	24.255547	0.000177	1.766213	0.598409	0.014368
 322	1.6050e-01	12.8804	24.329099	0.000181	1.808265	0.612657	0.014710
 323	1.6100e-01	12.9381	24.400084	0.000175	1.745186	0.591285	0.014197
 324	1.6150e-01	12.9430	24.548043	0.000364	3.637557	1.232438	0.029592
 325	1.6200e-01	12.9911	24.589095	0.000101	1.009264	0.341948	0.008210
 326	1.6250e-01	13.0312	24.669061	0.000197	1.965963	0.666086	0.015993
 327	1.6300e-01	13.0954	24.763566	0.000232	2.323411	0.787193	0.018901
 328	1.6350e-01	13.1435	24.820868	0.000141	1.408765	0.477302	0.011460
 329	1.6400e-01	13.1675	24.934188	0.000279	2.785990	0.943919	0.022664
 330	1.6450e-01	13.2076	25.021424	0.000214	2.144687	0.726640	0.017447
 331	1.6500e-01	13.2397	25.074022	0.000129	1.293120	0.438121	0.010520
 332	1.6550e-01	13.2766	25.182639	0.000267	2.670345	0.904738	0.021723
 333	1.6600e-01	13.3344	25.262605	0.000197	1.965963	0.666086	0.015993
 334	1.6650e-01	13.3665	25.340432	0.000191	1.913397	0.648277	0.015566
 335	1.6700e-01	13.4306	25.422964	0.000203	2.029042	0.687458	0.016506
 336	1.6750e-01	13.4403	25.516186	0.000229	2.291871	0.776507	0.018644
 337	1.6800e-01	13.5012	25.600429	0.000207	2.071095	0.701706	0.016848
 338	1.6850e-01	13.4852	25.675691	-0.000185	-1.850318	-0.626905	0.015052
 339	1.6900e-01	13.5477	25.785163	0.000269	2.691372	0.911861	0.021894
 340	1.6950e-01	13.6312	25.853583	0.000168	1.682107	0.569913	0.013684
 341	1.7000e-01	13.6616	25.935259	0.000201	2.008016	0.680334	0.016335
 342	1.7050e-01	13.6729	26.012659	0.000190	1.902884	0.644715	0.015480
 343	1.7100e-01	13.7290	26.126835	0.000281	2.807017	0.951043	0.022835
 344	1.7150e-01	13.7499	26.184137	0.000141	1.408765	0.477302	0.011460
 345	1.7200e-01	13.8044	26.267524	0.000205	2.050068	0.694582	0.016677
 346	1.7250e-01	13.8429	26.355615	0.000217	2.165713	0.733764	0.017618
 347	1.7300e-01	13.9007	26.423607	0.000167	1.671594	0.566351	0.013598
 348	1.7350e-01	13.9247	26.527520	0.000255	2.554701	0.865556	0.020783
 349	1.7400e-01	13.9392	26.615611	0.000217	2.165713	0.733764	0.017618
 350	1.7450e-01	14.0210	26.680182	0.000159	1.587489	0.537856	0.012914
 351	1.7500e-01	14.0242	26.781957	0.000250	2.502135	0.847746	0.020355
 352	1.7550e-01	14.0884	26.870903	0.000219	2.186740	0.740887	0.017789
 353	1.7600e-01	14.1285	26.942317	0.000176	1.755700	0.594847	0.014283
 354	1.7650e-01	14.1750	27.047940	0.000260	2.596753	0.879804	0.021125
 355	1.7700e-01	14.1991	27.123202	0.000185	1.850318	0.626905	0.015052
 356	1.7750e-01	14.2376	27.215142	0.000226	2.260332	0.765821	0.018388
 357	1.7800e-01	14.2697	27.298528	0.000205	2.050068	0.694582	0.016677
 358	1.7850e-01	14.2969	27.380633	0.000202	2.018529	0.683896	0.016421
 359	1.7900e-01	14.3659	27.474710	0.000231	2.312898	0.783631	0.018816
 360	1.7950e-01	14.4028	27.530301	0.000137	1.366712	0.463055	0.011118
 361	1.8000e-01	14.4333	27.611550	0.000200	1.997503	0.676772	0.016250
 362	1.8050e-01	14.5183	27.698358	0.000213	2.134174	0.723078	0.017362
 363	1.8100e-01	14.5167	27.795857	-0.000240	-2.397003	-0.812127	0.019500
 364	1.8150e-01	14.5809	27.884375	0.000218	2.176226	0.737325	0.017704
 365	1.8200e-01	14.5809	27.968617	-0.000207	-2.071095	-0.701706	0.016848
 366	1.8250e-01	14.6418	28.042169	0.000181	1.808265	0.612657	0.014710
 367	1.8300e-01	14.6771	28.115720	0.000181	1.808265	0.612657	0.014710
 368	1.8350e-01	14.7140	28.220916	0.000259	2.586240	0.876242	0.021039
 369	1.8400e-01	14.8055	28.275225	0.000134	1.335173	0.452369	0.010862
 370	1.8450e-01	14.7910	28.381276	-0.000261	-2.607266	-0.883366	0.021210
 371	1.8500e-01	14.8263	28.476636	0.000234	2.344437	0.794317	0.019072
 372	1.8550e-01	14.8680	28.543346	0.000164	1.640055	0.555666	0.013342
 373	1.8600e-01	14.9258	28.636568	0.000229	2.291871	0.776507	0.018644
 374	1.8650e-01	14.9819	28.694297	0.000142	1.419278	0.480864	0.011546
 375	1.8700e-01	14.9851	28.806335	0.000275	2.754451	0.933233	0.022408
 376	1.8750e-01	15.0429	28.877321	0.000175	1.745186	0.591285	0.014197
 377	1.8800e-01	15.0525	28.982944	0.000260	2.596753	0.879804	0.021125
 378	1.8850e-01	15.1215	29.054358	0.000176	1.755700	0.594847	0.014283
 379	1.8900e-01	15.1616	29.124916	0.000173	1.734673	0.587723	0.014112
 380	1.8950e-01	15.2097	29.224553	0.000245	2.449569	0.829936	0.019927
 381	1.9000e-01	15.2482	29.278006	0.000131	1.314146	0.445245	0.010691
 382	1.9050e-01	15.2691	29.375077	0.000239	2.386490	0.808565	0.019414
 383	1.9100e-01	15.3220	29.466161	0.000224	2.239305	0.758697	0.018217
 384	1.9150e-01	15.3413	29.557673	0.000225	2.249819	0.762259	0.018302
 385	1.9200e-01	15.4151	29.638922	0.000200	1.997503	0.676772	0.016250
 386	1.9250e-01	15.4375	29.724019	0.000209	2.092121	0.708830	0.017019
 387	1.9300e-01	15.5177	29.794150	0.000172	1.724160	0.584161	0.014026
 388	1.9350e-01	15.5386	29.867273	0.000180	1.797752	0.609095	0.014625
 389	1.9400e-01	15.5691	29.986581	0.000293	2.933175	0.993787	0.023861
 390	1.9450e-01	15.5996	30.057139	0.000173	1.734673	0.587723	0.014112
 391	1.9500e-01	15.6429	30.158914	0.000250	2.502135	0.847746	0.020355
 392	1.9550e-01	15.6878	30.223913	0.000160	1.598002	0.541418	0.013000
 393	1.9600e-01	15.7263	30.296609	0.000179	1.787239	0.605533	0.014539
 394	1.9650e-01	15.7600	30.386838	0.000222	2.218279	0.751573	0.018046
 395	1.9700e-01	15.8129	30.479633	0.000228	2.281358	0.772945	0.018559
 396	1.9750e-01	15.8402	30.568579	0.000219	2.186740	0.740887	0.017789
 397	1.9800e-01	15.8771	30.640848	0.000178	1.776726	0.601971	0.014454
 398	1.9850e-01	15.9172	30.729794	0.000219	2.186740	0.740887	0.017789
 399	1.9900e-01	15.9477	30.812753	0.000204	2.039555	0.691020	0.016592
 400	1.9950e-01	15.9862	30.915383	0.000252	2.523161	0.854870	0.020526
 401	2.0000e-01	16.0375	30.989362	0.000182	1.818779	0.616219	0.014796
 402	2.0050e-01	16.1209	31.054361	0.000160	1.598002	0.541418	0.013000
 403	2.0100e-01	16.1193	31.136893	-0.000203	-2.029042	-0.687458	0.016506
 404	2.0150e-01	16.1626	31.230543	0.000230	2.302385	0.780069	0.018730
 405	2.0200e-01	16.1915	31.329752	0.000244	2.439056	0.826374	0.019842
 406	2.0250e-01	16.2429	31.376363	0.000115	1.145936	0.388254	0.009322
 407	2.0300e-01	16.2749	31.478138	0.000250	2.502135	0.847746	0.020355
 408	2.0350e-01	16.3568	31.551689	0.000181	1.808265	0.612657	0.014710
 409	2.0400e-01	16.3568	31.643201	-0.000225	-2.249819	-0.762259	0.018302
 410	2.0450e-01	16.4049	31.705207	0.000152	1.524410	0.516484	0.012401
 411	2.0500e-01	16.4530	31.800140	0.000233	2.333924	0.790755	0.018987
 412	2.0550e-01	16.5043	31.877540	0.000190	1.902884	0.644715	0.015480
 413	2.0600e-01	16.5204	31.966058	0.000218	2.176226	0.737325	0.017704
 414	2.0650e-01	16.5862	32.053722	0.000216	2.155200	0.730202	0.017533
 415	2.0700e-01	16.5958	32.138391	0.000208	2.081608	0.705268	0.016934
 416	2.0750e-01	16.6744	32.210232	0.000177	1.766213	0.598409	0.014368
 417	2.0800e-01	16.6888	32.306876	0.000238	2.375977	0.805003	0.019329
 418	2.0850e-01	16.7145	32.397532	0.000223	2.228792	0.755135	0.018131
 419	2.0900e-01	16.7723	32.470229	0.000179	1.787239	0.605533	0.014539
 420	2.0950e-01	16.8140	32.556609	0.000212	2.123661	0.719516	0.017276
 421	2.1000e-01	16.8396	32.660522	0.000255	2.554701	0.865556	0.020783
 422	2.1050e-01	16.8765	32.725948	0.000161	1.608515	0.544980	0.013085
 423	2.1100e-01	16.9214	32.804632	0.000193	1.934424	0.655400	0.015737
 424	2.1150e-01	16.9728	32.895288	0.000223	2.228792	0.755135	0.018131
 425	2.1200e-01	17.0161	32.960287	0.000160	1.598002	0.541418	0.013000
 426	2.1250e-01	17.0225	33.080877	0.000296	2.964714	1.004472	0.024118
 427	2.1300e-01	17.0867	33.158278	0.000190	1.902884	0.644715	0.015480
 428	2.1350e-01	17.1172	33.236533	0.000192	1.923910	0.651838	0.015651
 429	2.1400e-01	17.1733	33.307519	0.000175	1.745186	0.591285	0.014197
 430	2.1450e-01	17.1878	33.379788	0.000178	1.776726	0.601971	0.014454
 431	2.1500e-01	17.2439	33.499523	0.000294	2.943688	0.997348	0.023947
 432	2.1550e-01	17.2984	33.555969	0.000139	1.387739	0.470179	0.011289
 433	2.1600e-01	17.3113	33.642349	0.000212	2.123661	0.719516	0.017276
 434	2.1650e-01	17.3562	33.729585	0.000214	2.144687	0.726640	0.017447
 435	2.1700e-01	17.4107	33.807413	0.000191	1.913397	0.648277	0.015566
 436	2.1750e-01	17.4364	33.904056	0.000238	2.375977	0.805003	0.019329
 437	2.1800e-01	17.4781	33.943398	0.000097	0.967212	0.327700	0.007868
 438	2.1850e-01	17.5439	34.043462	0.000246	2.460082	0.833498	0.020013
 439	2.1900e-01	17.5615	34.133691	0.000222	2.218279	0.751573	0.018046
 440	2.1950e-01	17.6032	34.219216	0.000210	2.102634	0.712392	0.017105
 441	2.2000e-01	17.6434	34.326550	0.000264	2.638806	0.894052	0.021467
 442	2.2050e-01	17.6738	34.387700	0.000150	1.503383	0.509360	0.012230
 443	2.2100e-01	17.6931	34.495462	0.000265	2.649319	0.897614	0.021552
 444	2.2150e-01	17.7685	34.538224	0.000105	1.051317	0.356196	0.008553
 445	2.2200e-01	17.7861	34.652400	0.000281	2.807017	0.951043	0.022835
 446	2.2250e-01	17.8487	34.718682	0.000163	1.629542	0.552104	0.013256
 447	2.2300e-01	17.9081	34.776839	0.000143	1.429791	0.484426	0.011631
 448	2.2350e-01	17.9209	34.890160	0.000279	2.785990	0.943919	0.022664
 449	2.2400e-01	17.9754	34.965422	0.000185	1.850318	0.626905	0.015052
 450	2.2450e-01	17.9867	35.043677	0.000192	1.923910	0.651838	0.015651
 451	2.2500e-01	18.0428	35.132624	0.000219	2.186740	0.740887	0.017789
 452	2.2550e-01	18.1054	35.205747	0.000180	1.797752	0.609095	0.014625
 453	2.2600e-01	18.1230	35.304956	0.000244	2.439056	0.826374	0.019842
 454	2.2650e-01	18.1294	35.387061	0.000202	2.018529	0.683896	0.016421
 455	2.2700e-01	18.2385	35.464033	0.000189	1.892371	0.641153	0.015395
 456	2.2750e-01	18.2498	35.573933	0.000270	2.701885	0.915423	0.021980
 457	2.2800e-01	18.2915	35.624393	0.000124	1.240554	0.420311	0.010092
 458	2.2850e-01	18.3300	35.716760	0.000227	2.270845	0.769383	0.018473
 459	2.2900e-01	18.3845	35.780903	0.000158	1.576976	0.534294	0.012829
 460	2.2950e-01	18.4006	35.874981	0.000231	2.312898	0.783631	0.018816
 461	2.3000e-01	18.4808	35.944256	0.000170	1.703134	0.577037	0.013855
 462	2.3050e-01	18.4647	36.044748	-0.000247	-2.470595	-0.837060	0.020098
 463	2.3100e-01	18.5353	36.119583	0.000184	1.839805	0.623343	0.014967
 464	2.3150e-01	18.5674	36.212377	0.000228	2.281358	0.772945	0.018559
 465	2.3200e-01	18.5931	36.309448	0.000239	2.386490	0.808565	0.019414
 466	2.3250e-01	18.6556	36.365895	0.000139	1.387739	0.470179	0.011289
 467	2.3300e-01	18.6669	36.472801	0.000263	2.628293	0.890490	0.021381
 468	2.3350e-01	18.7102	36.571583	0.000243	2.428543	0.822812	0.019756
 469	2.3400e-01	18.7519	36.633161	0.000151	1.513897	0.512922	0.012316
 470	2.3450e-01	18.8193	36.704146	0.000175	1.745186	0.591285	0.014197
 471	2.3500e-01	18.8594	36.767435	0.000156	1.555949	0.527170	0.012658
 472	2.3550e-01	18.8818	36.882466	0.000283	2.828043	0.958167	0.023006
 473	2.3600e-01	18.9091	36.955162	0.000179	1.787239	0.605533	0.014539
 474	2.3650e-01	18.9540	37.032990	0.000191	1.913397	0.648277	0.015566
 475	2.3700e-01	18.9877	37.130489	0.000240	2.397003	0.812127	0.019500
 476	2.3750e-01	19.0487	37.230553	0.000246	2.460082	0.833498	0.020013
 477	2.3800e-01	19.1016	37.279302	0.000120	1.198502	0.406063	0.009750
 478	2.3850e-01	19.1273	37.361834	0.000203	2.029042	0.687458	0.016506
 479	2.3900e-01	19.1545	37.452918	0.000224	2.239305	0.758697	0.018217
 480	2.3950e-01	19.2171	37.531174	0.000192	1.923910	0.651838	0.015651
 481	2.4000e-01	19.2765	37.595317	0.000158	1.576976	0.534294	0.012829
 482	2.4050e-01	19.3037	37.704362	0.000268	2.680859	0.908300	0.021809
 483	2.4100e-01	19.3150	37.762091	0.000142	1.419278	0.480864	0.011546
 484	2.4150e-01	19.3839	37.859590	0.000240	2.397003	0.812127	0.019500
 485	2.4200e-01	19.4096	37.945970	0.000212	2.123661	0.719516	0.017276
 486	2.4250e-01	19.4048	38.070409	-0.000306	-3.059333	-1.036530	0.024888
 487	2.4300e-01	19.5091	38.093501	0.000057	0.567711	0.192346	0.004618
 488	2.4350e-01	19.5283	38.204683	0.000273	2.733425	0.926109	0.022237
 489	2.4400e-01	19.5620	38.283794	0.000194	1.944937	0.658962	0.015822
 490	2.4450e-01	19.6005	38.349221	0.000161	1.608515	0.544980	0.013085
 491	2.4500e-01	19.6326	38.477936	0.000316	3.164465	1.072150	0.025743
 492	2.4550e-01	19.6984	38.511718	0.000083	0.830541	0.281395	0.006756
 493	2.4600e-01	19.7208	38.594678	0.000204	2.039555	0.691020	0.016592
 494	2.4650e-01	19.7497	38.700729	0.000261	2.607266	0.883366	0.021210
 495	2.4700e-01	19.8075	38.766155	0.000161	1.608515	0.544980	0.013085
 496	2.4750e-01	19.8492	38.855102	0.000219	2.186740	0.740887	0.017789
 497	2.4800e-01	19.8748	38.924377	0.000170	1.703134	0.577037	0.013855
 498	2.4850e-01	19.9262	38.999639	0.000185	1.850318	0.626905	0.015052
 499	2.4900e-01	19.9743	39.097565	0.000241	2.407516	0.815689	0.019585
 500	2.4950e-01	20.0288	39.175393	0.000191	1.913397	0.648277	0.015566
 501	2.5000e-01	20.0417	39.253221	0.000191	1.913397	0.648277	0.015566
 502	2.5050e-01	19.9919	39.298977	-0.000112	-1.124909	-0.381130	0.009151
 503	2.5100e-01	19.9470	39.232267	0.000164	1.640055	0.555666	-0.013342
 504	2.5150e-01	19.9053	39.164702	0.000166	1.661081	0.562789	-0.013513
 505	2.5200e-01	19.8780	39.104835	0.000147	1.471844	0.498674	-0.011974
 506	2.5250e-01	19.8299	39.062500	0.000104	1.040804	0.352634	-0.008467
 507	2.5300e-01	19.7834	39.003487	0.000145	1.450818	0.491550	-0.011802
 508	2.5350e-01	19.7192	38.936350	0.000165	1.650568	0.559228	-0.013427
 509	2.5400e-01	19.7128	38.844839	0.000225	2.249819	0.762259	-0.018302
 510	2.5450e-01	19.6695	38.789247	0.000137	1.366712	0.463055	-0.011118
 511	2.5500e-01	19.6422	38.718689	0.000173	1.734673	0.587723	-0.014112
 512	2.5550e-01	19.5765	38.649414	0.000170	1.703134	0.577037	-0.013855
 513	2.5600e-01	19.5363	38.602375	0.000116	1.156449	0.391815	-0.009408
 514	2.5650e-01	19.5203	38.492475	0.000270	2.701885	0.915423	-0.021980
 515	2.5700e-01	19.4658	38.470666	0.000054	0.536172	0.181660	-0.004362
 516	2.5750e-01	19.4353	38.365471	0.000259	2.586240	0.876242	-0.021039
 517	2.5800e-01	19.3920	38.297478	0.000167	1.671594	0.566351	-0.013598
 518	2.5850e-01	19.3631	38.244025	0.000131	1.314146	0.445245	-0.010691
 519	2.5900e-01	19.2989	38.173039	0.000175	1.745186	0.591285	-0.014197
 520	2.5950e-01	19.2765	38.119158	0.000132	1.324660	0.448807	-0.010776
 521	2.6000e-01	19.2091	38.052449	0.000164	1.640055	0.555666	-0.013342
 522	2.6050e-01	19.1770	37.966496	0.000211	2.113147	0.715954	-0.017191
 523	2.6100e-01	19.1513	37.895938	0.000173	1.734673	0.587723	-0.014112
 524	2.6150e-01	19.1176	37.829228	0.000164	1.640055	0.555666	-0.013342
 525	2.6200e-01	19.0455	37.776203	0.000130	1.303633	0.441683	-0.010605
 526	2.6250e-01	19.0037	37.700086	0.000187	1.871344	0.634029	-0.015223
 527	2.6300e-01	18.9925	37.622258	0.000191	1.913397	0.648277	-0.015566
 528	2.6350e-01	18.9717	37.526470	0.000235	2.354950	0.797879	-0.019158
 529	2.6400e-01	18.8947	37.475582	0.000125	1.251067	0.423873	-0.010177
 530	2.6450e-01	18.8610	37.414004	0.000151	1.513897	0.512922	-0.012316
 531	2.6500e-01	18.8193	37.333611	0.000198	1.976476	0.669648	-0.016079
 532	2.6550e-01	18.7759	37.258349	0.000185	1.850318	0.626905	-0.015052
 533	2.6600e-01	18.7455	37.198054	0.000148	1.482357	0.502236	-0.012059
 534	2.6650e-01	18.7246	37.117660	0.000198	1.976476	0.669648	-0.016079
 535	2.6700e-01	18.6685	37.040687	0.000189	1.892371	0.641153	-0.015395
 536	2.6750e-01	18.6043	36.971412	0.000170	1.703134	0.577037	-0.013855
 537	2.6800e-01	18.5610	36.911972	0.000146	1.461331	0.495112	-0.011888
 538	2.6850e-01	18.5289	36.832006	0.000197	1.965963	0.666086	-0.015993
 539	2.6900e-01	18.5257	36.760165	0.000177	1.766213	0.598409	-0.014368
 540	2.6950e-01	18.4503	36.700725	0.000146	1.461331	0.495112	-0.011888
 541	2.7000e-01	18.4166	36.620332	0.000198	1.976476	0.669648	-0.016079
 542	2.7050e-01	18.3412	36.553622	0.000164	1.640055	0.555666	-0.013342
 543	2.7100e-01	18.3669	36.462538	-0.000224	-2.239305	-0.758697	-0.018217
 544	2.7150e-01	18.2866	36.404809	0.000142	1.419278	0.480864	-0.011546
 545	2.7200e-01	18.2642	36.338099	0.000164	1.640055	0.555666	-0.013342
 546	2.7250e-01	18.2305	36.264548	0.000181	1.808265	0.612657	-0.014710
 547	2.7300e-01	18.1904	36.177740	0.000213	2.134174	0.723078	-0.017362
 548	2.7350e-01	18.1310	36.123004	0.000135	1.345686	0.455931	-0.010947
 549	2.7400e-01	18.1006	36.041755	0.000200	1.997503	0.676772	-0.016250
 550	2.7450e-01	18.0556	35.960934	0.000199	1.986989	0.673210	-0.016164
 551	2.7500e-01	18.0364	35.895079	0.000162	1.619028	0.548542	-0.013171
 552	2.7550e-01	17.9690	35.832218	0.000155	1.545436	0.523608	-0.012572
 553	2.7600e-01	17.9289	35.749687	0.000203	2.029042	0.687458	-0.016506
 554	2.7650e-01	17.9048	35.682122	0.000166	1.661081	0.562789	-0.013513
 555	2.7700e-01	17.8647	35.592748	0.000220	2.197253	0.744449	-0.017875
 556	2.7750e-01	17.8246	35.532453	0.000148	1.482357	0.502236	-0.012059
 557	2.7800e-01	17.7653	35.462750	0.000171	1.713647	0.580599	-0.013941
 558	2.7850e-01	17.7556	35.367817	0.000233	2.333924	0.790755	-0.018987
 559	2.7900e-01	17.7155	35.306239	0.000151	1.513897	0.512922	-0.012316
 560	2.7950e-01	17.6819	35.213017	0.000229	2.291871	0.776507	-0.018644
 561	2.8000e-01	17.6273	35.151439	0.000151	1.513897	0.512922	-0.012316
 562	2.8050e-01	17.5599	35.107394	0.000108	1.082857	0.366882	-0.008809
 563	2.8100e-01	17.5375	35.029993	0.000190	1.902884	0.644715	-0.015480
 564	2.8150e-01	17.5038	34.917100	0.000278	2.775477	0.940357	-0.022579
 565	2.8200e-01	17.4621	34.871772	0.000111	1.114396	0.377568	-0.009066
 566	2.8250e-01	17.4059	34.799503	0.000178	1.776726	0.601971	-0.014454
 567	2.8300e-01	17.3899	34.718682	0.000199	1.986989	0.673210	-0.016164
 568	2.8350e-01	17.3337	34.647696	0.000175	1.745186	0.591285	-0.014197
 569	2.8400e-01	17.3049	34.562599	0.000209	2.092121	0.708830	-0.017019
 570	2.8450e-01	17.2279	34.485199	0.000190	1.902884	0.644715	-0.015480
 571	2.8500e-01	17.2134	34.418917	0.000163	1.629542	0.552104	-0.013256
 572	2.8550e-01	17.1910	34.348786	0.000172	1.724160	0.584161	-0.014026
 573	2.8600e-01	17.1589	34.260268	0.000218	2.176226	0.737325	-0.017704
 574	2.8650e-01	17.0931	34.199545	0.000149	1.492870	0.505798	-0.012145
 575	2.8700e-01	17.0370	34.132408	0.000165	1.650568	0.559228	-0.013427
 576	2.8750e-01	17.0065	34.055435	0.000189	1.892371	0.641153	-0.015395
 577	2.8800e-01	16.9872	33.973759	0.000201	2.008016	0.680334	-0.016335
 578	2.8850e-01	16.9487	33.892938	0.000199	1.986989	0.673210	-0.016164
 579	2.8900e-01	16.8958	33.809123	0.000206	2.060582	0.698144	-0.016763
 580	2.8950e-01	16.8573	33.767644	0.000102	1.019778	0.345510	-0.008296
 581	2.9000e-01	16.8011	33.685112	0.000203	2.029042	0.687458	-0.016506
 582	2.9050e-01	16.7723	33.592745	0.000227	2.270845	0.769383	-0.018473
 583	2.9100e-01	16.7546	33.511496	0.000200	1.997503	0.676772	-0.016250
 584	2.9150e-01	16.6920	33.457615	0.000132	1.324660	0.448807	-0.010776
 585	2.9200e-01	16.6423	33.374228	0.000205	2.050068	0.694582	-0.016677
 586	2.9250e-01	16.6182	33.304525	0.000171	1.713647	0.580599	-0.013941
 587	2.9300e-01	16.5814	33.213014	0.000225	2.249819	0.762259	-0.018302
 588	2.9350e-01	16.5541	33.146304	0.000164	1.640055	0.555666	-0.013342
 589	2.9400e-01	16.4674	33.069332	0.000189	1.892371	0.641153	-0.015395
 590	2.9450e-01	16.4626	32.994070	0.000185	1.850318	0.626905	-0.015052
 591	2.9500e-01	16.4225	32.928643	0.000161	1.608515	0.544980	-0.013085
 592	2.9550e-01	16.3728	32.843973	0.000208	2.081608	0.705268	-0.016934
 593	2.9600e-01	16.3215	32.769566	0.000183	1.829292	0.619781	-0.014881
 594	2.9650e-01	16.3102	32.695159	0.000183	1.829292	0.619781	-0.014881
 595	2.9700e-01	16.2364	32.629305	0.000162	1.619028	0.548542	-0.013171
 596	2.9750e-01	16.2429	32.539931	-0.000220	-2.197253	-0.744449	-0.017875
 597	2.9800e-01	16.1771	32.466808	0.000180	1.797752	0.609095	-0.014625
 598	2.9850e-01	16.1450	32.372730	0.000231	2.312898	0.783631	-0.018816
 599	2.9900e-01	16.0985	32.307303	0.000161	1.608515	0.544980	-0.013085
 600	2.9950e-01	16.0616	32.232469	0.000184	1.839805	0.623343	-0.014967
 601	3.0000e-01	16.0022	32.163194	0.000170	1.703134	0.577037	-0.013855
 602	3.0050e-01	15.9814	32.081945	0.000200	1.997503	0.676772	-0.016250
 603	3.0100e-01	15.9348	31.995564	0.000212	2.123661	0.719516	-0.017276
 604	3.0150e-01	15.8851	31.949809	0.000112	1.124909	0.381130	-0.009151
 605	3.0200e-01	15.8675	31.858724	0.000224	2.239305	0.758697	-0.018217
 606	3.0250e-01	15.8418	31.770634	0.000217	2.165713	0.733764	-0.017618
 607	3.0300e-01	15.7921	31.694944	0.000186	1.860831	0.630467	-0.015138
 608	3.0350e-01	15.7311	31.625669	0.000170	1.703134	0.577037	-0.013855
 609	3.0400e-01	15.6766	31.562380	0.000156	1.555949	0.527170	-0.012658
 610	3.0450e-01	15.6685	31.470868	0.000225	2.249819	0.762259	-0.018302
 611	3.0500e-01	15.6300	31.400310	0.000173	1.734673	0.587723	-0.014112
 612	3.0550e-01	15.6028	31.343864	0.000139	1.387739	0.470179	-0.011289
 613	3.0600e-01	15.5546	31.247220	0.000238	2.375977	0.805003	-0.019329
 614	3.0650e-01	15.5274	31.154426	0.000228	2.281358	0.772945	-0.018559
 615	3.0700e-01	15.4391	31.107814	0.000115	1.145936	0.388254	-0.009322
 616	3.0750e-01	15.4135	31.031697	0.000187	1.871344	0.634029	-0.015223
 617	3.0800e-01	15.3702	30.959856	0.000177	1.766213	0.598409	-0.014368
 618	3.0850e-01	15.3509	30.861930	0.000241	2.407516	0.815689	-0.019585
 619	3.0900e-01	15.3028	30.789234	0.000179	1.787239	0.605533	-0.014539
 620	3.0950e-01	15.2530	30.719531	0.000171	1.713647	0.580599	-0.013941
 621	3.1000e-01	15.2210	30.639992	0.000196	1.955450	0.662524	-0.015908
 622	3.1050e-01	15.1793	30.551474	0.000218	2.176226	0.737325	-0.017704
 623	3.1100e-01	15.1311	30.486475	0.000160	1.598002	0.541418	-0.013000
 624	3.1150e-01	15.0974	30.393253	0.000229	2.291871	0.776507	-0.018644
 625	3.1200e-01	15.0509	30.329964	0.000156	1.555949	0.527170	-0.012658
 626	3.1250e-01	15.0445	30.235886	0.000231	2.312898	0.783631	-0.018816
 627	3.1300e-01	14.9659	30.158059	0.000191	1.913397	0.648277	-0.015566
 628	3.1350e-01	14.9386	30.093915	0.000158	1.576976	0.534294	-0.012829
 629	3.1400e-01	14.9065	30.020363	0.000181	1.808265	0.612657	-0.014710
 630	3.1450e-01	14.8600	29.945957	0.000183	1.829292	0.619781	-0.014881
 631	3.1500e-01	14.8215	29.856155	0.000221	2.207766	0.748011	-0.017960
 632	3.1550e-01	14.7750	29.783459	0.000179	1.787239	0.605533	-0.014539
 633	3.1600e-01	14.7253	29.712046	0.000176	1.755700	0.594847	-0.014283
 634	3.1650e-01	14.7044	29.617113	0.000233	2.333924	0.790755	-0.018987
 635	3.1700e-01	14.6659	29.539713	0.000190	1.902884	0.644715	-0.015480
 636	3.1750e-01	14.6114	29.496095	0.000107	1.072343	0.363320	-0.008724
 637	3.1800e-01	14.5616	29.389616	0.000262	2.617780	0.886928	-0.021296
 638	3.1850e-01	14.5584	29.316920	0.000179	1.787239	0.605533	-0.014539
 639	3.1900e-01	14.5231	29.244223	0.000179	1.787239	0.605533	-0.014539
 640	3.1950e-01	14.4702	29.145442	0.000243	2.428543	0.822812	-0.019756
 641	3.2000e-01	14.3723	29.108239	0.000091	0.914646	0.309890	-0.007441
 642	3.2050e-01	14.3659	29.006891	0.000249	2.491622	0.844184	-0.020269
 643	3.2100e-01	14.3386	28.929064	0.000191	1.913397	0.648277	-0.015566
 644	3.2150e-01	14.2761	28.845249	0.000206	2.060582	0.698144	-0.016763
 645	3.2200e-01	14.2424	28.788375	0.000140	1.398252	0.473741	-0.011375
 646	3.2250e-01	14.2247	28.697291	0.000224	2.239305	0.758697	-0.018217
 647	3.2300e-01	14.1926	28.615614	0.000201	2.008016	0.680334	-0.016335
 648	3.2350e-01	14.1317	28.542063	0.000181	1.808265	0.612657	-0.014710
 649	3.2400e-01	14.0996	28.454400	0.000216	2.155200	0.730202	-0.017533
 650	3.2450e-01	14.0515	28.397525	0.000140	1.398252	0.473741	-0.011375
 651	3.2500e-01	14.0242	28.313283	0.000207	2.071095	0.701706	-0.016848
 652	3.2550e-01	13.9873	28.226475	0.000213	2.134174	0.723078	-0.017362
 653	3.2600e-01	13.9312	28.134536	0.000226	2.260332	0.765821	-0.018388
 654	3.2650e-01	13.8911	28.087497	0.000116	1.156449	0.391815	-0.009408
 655	3.2700e-01	13.8718	27.991281	0.000237	2.365464	0.801441	-0.019243
 656	3.2750e-01	13.8205	27.913454	0.000191	1.913397	0.648277	-0.015566
 657	3.2800e-01	13.7804	27.845461	0.000167	1.671594	0.566351	-0.013598
 658	3.2850e-01	13.7563	27.750956	0.000232	2.323411	0.787193	-0.018901
 659	3.2900e-01	13.7098	27.684246	0.000164	1.640055	0.555666	-0.013342
 660	3.2950e-01	13.6713	27.598721	0.000210	2.102634	0.712392	-0.017105
 661	3.3000e-01	13.6071	27.521321	0.000190	1.902884	0.644715	-0.015480
 662	3.3050e-01	13.5814	27.449480	0.000177	1.766213	0.598409	-0.014368
 663	3.3100e-01	13.5317	27.355403	0.000231	2.312898	0.783631	-0.018816
 664	3.3150e-01	13.5157	27.303232	0.000128	1.282607	0.434559	-0.010434
 665	3.3200e-01	13.4691	27.204451	0.000243	2.428543	0.822812	-0.019756
 666	3.3250e-01	13.4066	27.136031	0.000168	1.682107	0.569913	-0.013684
 667	3.3300e-01	13.3745	27.053499	0.000203	2.029042	0.687458	-0.016506
 668	3.3350e-01	13.3601	26.979092	0.000183	1.829292	0.619781	-0.014881
 669	3.3400e-01	13.3183	26.875179	0.000255	2.554701	0.865556	-0.020783
 670	3.3450e-01	13.2510	26.814457	0.000149	1.492870	0.505798	-0.012145
 671	3.3500e-01	13.2060	26.734063	0.000198	1.976476	0.669648	-0.016079
 672	3.3550e-01	13.1740	26.660512	0.000181	1.808265	0.612657	-0.014710
 673	3.3600e-01	13.1322	26.573704	0.000213	2.134174	0.723078	-0.017362
 674	3.3650e-01	13.1082	26.488606	0.000209	2.092121	0.708830	-0.017019
 675	3.3700e-01	13.0841	26.406930	0.000201	2.008016	0.680334	-0.016335
 676	3.3750e-01	13.0151	26.352194	0.000135	1.345686	0.455931	-0.010947
 677	3.3800e-01	12.9879	26.259827	0.000227	2.270845	0.769383	-0.018473
 678	3.3850e-01	12.9654	26.173874	0.000211	2.113147	0.715954	-0.017191
 679	3.3900e-01	12.9237	26.074665	0.000244	2.439056	0.826374	-0.019842
 680	3.3950e-01	12.8547	26.026771	0.000118	1.177475	0.398939	-0.009579
 681	3.4000e-01	12.8483	25.951509	0.000185	1.850318	0.626905	-0.015052
 682	3.4050e-01	12.8114	25.880095	0.000176	1.755700	0.594847	-0.014283
 683	3.4100e-01	12.7472	25.770623	0.000269	2.691372	0.911861	-0.021894
 684	3.4150e-01	12.7103	25.727006	0.000107	1.072343	0.363320	-0.008724
 685	3.4200e-01	12.6510	25.638487	0.000218	2.176226	0.737325	-0.017704
 686	3.4250e-01	12.6269	25.554673	0.000206	2.060582	0.698144	-0.016763
 687	3.4300e-01	12.5740	25.482404	0.000178	1.776726	0.601971	-0.014454
 688	3.4350e-01	12.5611	25.381057	0.000249	2.491622	0.844184	-0.020269
 689	3.4400e-01	12.5050	25.328459	0.000129	1.293120	0.438121	-0.010520
 690	3.4450e-01	12.4376	25.244217	0.000207	2.071095	0.701706	-0.016848
 691	3.4500e-01	12.4312	25.167672	0.000188	1.881858	0.637591	-0.015309
 692	3.4550e-01	12.3815	25.076588	0.000224	2.239305	0.758697	-0.018217
 693	3.4600e-01	12.3301	24.998760	0.000191	1.913397	0.648277	-0.015566
 694	3.4650e-01	12.2997	24.917939	0.000199	1.986989	0.673210	-0.016164
 695	3.4700e-01	12.2612	24.861064	0.000140	1.398252	0.473741	-0.011375
 696	3.4750e-01	12.2259	24.756296	0.000258	2.575727	0.872680	-0.020954
 697	3.4800e-01	12.1713	24.684455	0.000177	1.766213	0.598409	-0.014368
 698	3.4850e-01	12.1376	24.607055	0.000190	1.902884	0.644715	-0.015480
 699	3.4900e-01	12.1184	24.506135	0.000248	2.481108	0.840622	-0.020184
 700	3.4950e-01	12.0767	24.450117	0.000138	1.377225	0.466617	-0.011204
 701	3.5000e-01	12.0173	24.344493	0.000260	2.596753	0.879804	-0.021125
 702	3.5050e-01	11.9740	24.283343	0.000150	1.503383	0.509360	-0.012230
 703	3.5100e-01	11.9451	24.211074	0.000178	1.776726	0.601971	-0.014454
 704	3.5150e-01	11.9291	24.120845	0.000222	2.218279	0.751573	-0.018046
 705	3.5200e-01	11.8521	24.046438	0.000183	1.829292	0.619781	-0.014881
 706	3.5250e-01	11.8328	23.961768	0.000208	2.081608	0.705268	-0.016934
 707	3.5300e-01	11.7895	23.876671	0.000209	2.092121	0.708830	-0.017019
 708	3.5350e-01	11.7590	23.821507	0.000136	1.356199	0.459493	-0.011033
 709	3.5400e-01	11.7093	23.721443	0.000246	2.460082	0.833498	-0.020013
 710	3.5450e-01	11.6387	23.618813	0.000252	2.523161	0.854870	-0.020526
 711	3.5500e-01	11.6291	23.550821	0.000167	1.671594	0.566351	-0.013598
 712	3.5550e-01	11.6050	23.489243	0.000151	1.513897	0.512922	-0.012316
 713	3.5600e-01	11.5505	23.394737	0.000232	2.323411	0.787193	-0.018901
 714	3.5650e-01	11.5007	23.320331	0.000183	1.829292	0.619781	-0.014881
 715	3.5700e-01	11.4334	23.233950	0.000212	2.123661	0.719516	-0.017276
 716	3.5750e-01	11.4093	23.176221	0.000142	1.419278	0.480864	-0.011546
 717	3.5800e-01	11.3852	23.061617	0.000282	2.817530	0.954605	-0.022921
 718	3.5850e-01	11.3403	23.016717	0.000110	1.103883	0.374006	-0.008980
 719	3.5900e-01	11.3066	22.912804	0.000255	2.554701	0.865556	-0.020783
 720	3.5950e-01	11.2826	22.842245	0.000173	1.734673	0.587723	-0.014112
 721	3.6000e-01	11.2312	22.750306	0.000226	2.260332	0.765821	-0.018388
 722	3.6050e-01	11.1751	22.694287	0.000138	1.377225	0.466617	-0.011204
 723	3.6100e-01	11.1574	22.587808	0.000262	2.617780	0.886928	-0.021296
 724	3.6150e-01	11.1157	22.522382	0.000161	1.608515	0.544980	-0.013085
 725	3.6200e-01	11.0403	22.451396	0.000175	1.745186	0.591285	-0.014197
 726	3.6250e-01	11.0355	22.344917	0.000262	2.617780	0.886928	-0.021296
 727	3.6300e-01	10.9842	22.274359	0.000173	1.734673	0.587723	-0.014112
 728	3.6350e-01	10.9184	22.195248	0.000194	1.944937	0.658962	-0.015822
 729	3.6400e-01	10.8992	22.094757	0.000247	2.470595	0.837060	-0.020098
 730	3.6450e-01	10.8462	22.031468	0.000156	1.555949	0.527170	-0.012658
 731	3.6500e-01	10.8109	21.965614	0.000162	1.619028	0.548542	-0.013171
 732	3.6550e-01	10.7837	21.859990	0.000260	2.596753	0.879804	-0.021125
 733	3.6600e-01	10.7355	21.818083	0.000103	1.030291	0.349072	-0.008381
 734	3.6650e-01	10.6954	21.704762	0.000279	2.785990	0.943919	-0.022664
 735	3.6700e-01	10.6409	21.641901	0.000155	1.545436	0.523608	-0.012572
 736	3.6750e-01	10.6200	21.550817	0.000224	2.239305	0.758697	-0.018217
 737	3.6800e-01	10.5751	21.479831	0.000175	1.745186	0.591285	-0.014197
 738	3.6850e-01	10.5398	21.410556	0.000170	1.703134	0.577037	-0.013855
 739	3.6900e-01	10.4965	21.304505	0.000261	2.607266	0.883366	-0.021210
 740	3.6950e-01	10.4532	21.227105	0.000190	1.902884	0.644715	-0.015480
 741	3.7000e-01	10.4179	21.148849	0.000192	1.923910	0.651838	-0.015651
 742	3.7050e-01	10.3617	21.054772	0.000231	2.312898	0.783631	-0.018816
 743	3.7100e-01	10.3457	20.983786	0.000175	1.745186	0.591285	-0.014197
 744	3.7150e-01	10.3168	20.893129	0.000223	2.228792	0.755135	-0.018131
 745	3.7200e-01	10.2575	20.821716	0.000176	1.755700	0.594847	-0.014283
 746	3.7250e-01	10.2158	20.743033	0.000193	1.934424	0.655400	-0.015737
 747	3.7300e-01	10.1756	20.637410	0.000260	2.596753	0.879804	-0.021125
 748	3.7350e-01	10.1323	20.593364	0.000108	1.082857	0.366882	-0.008809
 749	3.7400e-01	10.0970	20.512543	0.000199	1.986989	0.673210	-0.016164
 750	3.7450e-01	10.0666	20.389387	0.000303	3.027793	1.025844	-0.024631
 751	3.7500e-01	10.0313	20.348763	0.000100	0.998751	0.338386	-0.008125
 752	3.7550e-01	9.9912	20.249553	0.000244	2.439056	0.826374	-0.019842
 753	3.7600e-01	9.9398	20.181561	0.000167	1.671594	0.566351	-0.013598
 754	3.7650e-01	9.9093	20.105444	0.000187	1.871344	0.634029	-0.015223
 755	3.7700e-01	9.8404	20.010511	0.000233	2.333924	0.790755	-0.018987
 756	3.7750e-01	9.8291	19.917716	0.000228	2.281358	0.772945	-0.018559
 757	3.7800e-01	9.7987	19.832191	0.000210	2.102634	0.712392	-0.017105
 758	3.7850e-01	9.7393	19.738114	0.000231	2.312898	0.783631	-0.018816
 759	3.7900e-01	9.7072	19.648312	0.000221	2.207766	0.748011	-0.017960
 760	3.7950e-01	9.6430	19.596142	0.000128	1.282607	0.434559	-0.010434
 761	3.8000e-01	9.6302	19.520452	0.000186	1.860831	0.630467	-0.015138
 762	3.8050e-01	9.5853	19.446046	0.000183	1.829292	0.619781	-0.014881
 763	3.8100e-01	9.5115	19.353678	0.000227	2.270845	0.769383	-0.018473
 764	3.8150e-01	9.4922	19.295949	0.000142	1.419278	0.480864	-0.011546
 765	3.8200e-01	9.4682	19.195457	0.000247	2.470595	0.837060	-0.020098
 766	3.8250e-01	9.4088	19.134734	0.000149	1.492870	0.505798	-0.012145
 767	3.8300e-01	9.3816	19.026545	0.000266	2.659832	0.901176	-0.021638
 768	3.8350e-01	9.3350	18.955559	0.000175	1.745186	0.591285	-0.014197
 769	3.8400e-01	9.2885	18.873883	0.000201	2.008016	0.680334	-0.016335
 770	3.8450e-01	9.2580	18.789641	0.000207	2.071095	0.701706	-0.016848
 771	3.8500e-01	9.2083	18.707109	0.000203	2.029042	0.687458	-0.016506
 772	3.8550e-01	9.1826	18.629281	0.000191	1.913397	0.648277	-0.015566
 773	3.8600e-01	9.1313	18.551453	0.000191	1.913397	0.648277	-0.015566
 774	3.8650e-01	9.1024	18.451389	0.000246	2.460082	0.833498	-0.020013
 775	3.8700e-01	9.0703	18.367147	0.000207	2.071095	0.701706	-0.016848
 776	3.8750e-01	9.0366	18.293595	0.000181	1.808265	0.612657	-0.014710
 777	3.8800e-01	8.9885	18.180275	0.000279	2.785990	0.943919	-0.022664
 778	3.8850e-01	8.9500	18.116559	0.000157	1.566463	0.530732	-0.012743
 779	3.8900e-01	8.8730	18.065671	0.000125	1.251067	0.423873	-0.010177
 780	3.8950e-01	8.8473	17.964752	0.000248	2.481108	0.840622	-0.020184
 781	3.9000e-01	8.8137	17.908733	0.000138	1.377225	0.466617	-0.011204
 782	3.9050e-01	8.7880	17.783011	0.000309	3.090872	1.047216	-0.025144
 783	3.9100e-01	8.7399	17.726137	0.000140	1.398252	0.473741	-0.011375
 784	3.9150e-01	8.6917	17.635480	0.000223	2.228792	0.755135	-0.018131
 785	3.9200e-01	8.6725	17.565777	0.000171	1.713647	0.580599	-0.013941
 786	3.9250e-01	8.6228	17.474693	0.000224	2.239305	0.758697	-0.018217
 787	3.9300e-01	8.5746	17.407128	0.000166	1.661081	0.562789	-0.013513
 788	3.9350e-01	8.5409	17.305781	0.000249	2.491622	0.844184	-0.020269
 789	3.9400e-01	8.5089	17.210421	0.000234	2.344437	0.794317	-0.019072
 790	3.9450e-01	8.4591	17.153974	0.000139	1.387739	0.470179	-0.011289
 791	3.9500e-01	8.4238	17.045785	0.000266	2.659832	0.901176	-0.021638
 792	3.9550e-01	8.3853	16.963681	0.000202	2.018529	0.683896	-0.016421
 793	3.9600e-01	8.3388	16.894833	0.000169	1.692621	0.573475	-0.013770
 794	3.9650e-01	8.3019	16.818288	0.000188	1.881858	0.637591	-0.015309
 795	3.9700e-01	8.2778	16.739178	0.000194	1.944937	0.658962	-0.015822
 796	3.9750e-01	8.2185	16.639969	0.000244	2.439056	0.826374	-0.019842
 797	3.9800e-01	8.1880	16.574969	0.000160	1.598002	0.541418	-0.013000
 798	3.9850e-01	8.1399	16.484741	0.000222	2.218279	0.751573	-0.018046
 799	3.9900e-01	8.1094	16.405202	0.000196	1.955450	0.662524	-0.015908
 800	3.9950e-01	8.0516	16.320960	0.000207	2.071095	0.701706	-0.016848
 801	4.0000e-01	8.0388	16.235435	0.000210	2.102634	0.712392	-0.017105
 802	4.0050e-01	7.9778	16.142640	0.000228	2.281358	0.772945	-0.018559
 803	4.0100e-01	7.9426	16.059681	0.000204	2.039555	0.691020	-0.016592
 804	4.0150e-01	7.8864	15.999386	0.000148	1.482357	0.502236	-0.012059
 805	4.0200e-01	7.8944	15.895473	-0.000255	-2.554701	-0.865556	-0.020783
 806	4.0250e-01	7.8110	15.828336	0.000165	1.650568	0.559228	-0.013427
 807	4.0300e-01	7.8062	15.747515	0.000199	1.986989	0.673210	-0.016164
 808	4.0350e-01	7.7340	15.679950	0.000166	1.661081	0.562789	-0.013513
 809	4.0400e-01	7.6971	15.558077	0.000300	2.996254	1.015158	-0.024375
 810	4.0450e-01	7.6682	15.497781	0.000148	1.482357	0.502236	-0.012059
 811	4.0500e-01	7.6169	15.424230	0.000181	1.808265	0.612657	-0.014710
 812	4.0550e-01	7.5768	15.337422	0.000213	2.134174	0.723078	-0.017362
 813	4.0600e-01	7.5543	15.231371	0.000261	2.607266	0.883366	-0.021210
 814	4.0650e-01	7.4918	15.174069	0.000141	1.408765	0.477302	-0.011460
 815	4.0700e-01	7.4805	15.071011	0.000253	2.533674	0.858432	-0.020612
 816	4.0750e-01	7.4372	14.981210	0.000221	2.207766	0.748011	-0.017960
 817	4.0800e-01	7.3474	14.929467	0.000127	1.272094	0.430997	-0.010349
 818	4.0850e-01	7.3233	14.851640	0.000191	1.913397	0.648277	-0.015566
 819	4.0900e-01	7.2977	14.746444	0.000259	2.586240	0.876242	-0.021039
 820	4.0950e-01	7.2880	14.651511	0.000233	2.333924	0.790755	-0.018987
 821	4.1000e-01	7.2046	14.573683	0.000191	1.913397	0.648277	-0.015566
 822	4.1050e-01	7.1982	14.512960	0.000149	1.492870	0.505798	-0.012145
 823	4.1100e-01	7.1501	14.401350	0.000274	2.743938	0.929671	-0.022322
 824	4.1150e-01	7.0875	14.348752	0.000129	1.293120	0.438121	-0.010520
 825	4.1200e-01	7.0458	14.233293	0.000284	2.838556	0.961729	-0.023092
 826	4.1250e-01	7.0217	14.167867	0.000161	1.608515	0.544980	-0.013085
 827	4.1300e-01	6.9672	14.082342	0.000210	2.102634	0.712392	-0.017105
 828	4.1350e-01	6.9399	13.981422	0.000248	2.481108	0.840622	-0.020184
 829	4.1400e-01	6.9191	13.904450	0.000189	1.892371	0.641153	-0.015395
 830	4.1450e-01	6.8693	13.839023	0.000161	1.608515	0.544980	-0.013085
 831	4.1500e-01	6.8148	13.741952	0.000239	2.386490	0.808565	-0.019414
 832	4.1550e-01	6.7763	13.660703	0.000200	1.997503	0.676772	-0.016250
 833	4.1600e-01	6.7602	13.596559	0.000158	1.576976	0.534294	-0.012829
 834	4.1650e-01	6.7073	13.485377	0.000273	2.733425	0.926109	-0.022237
 835	4.1700e-01	6.6351	13.418240	0.000165	1.650568	0.559228	-0.013427
 836	4.1750e-01	6.6159	13.348964	0.000170	1.703134	0.577037	-0.013855
 837	4.1800e-01	6.5870	13.248900	0.000246	2.460082	0.833498	-0.020013
 838	4.1850e-01	6.5421	13.173210	0.000186	1.860831	0.630467	-0.015138
 839	4.1900e-01	6.5004	13.075712	0.000240	2.397003	0.812127	-0.019500
 840	4.1950e-01	6.5020	12.951701	-0.000305	-3.048820	-1.032968	-0.024802
 841	4.2000e-01	6.4025	12.951273	0.000001	0.010513	0.003562	-0.000086
 842	4.2050e-01	6.3961	12.822558	0.000316	3.164465	1.072150	-0.025743
 843	4.2100e-01	6.3528	12.766966	0.000137	1.366712	0.463055	-0.011118
 844	4.2150e-01	6.3046	12.677165	0.000221	2.207766	0.748011	-0.017960
 845	4.2200e-01	6.2517	12.592068	0.000209	2.092121	0.708830	-0.017019
 846	4.2250e-01	6.2292	12.520654	0.000176	1.755700	0.594847	-0.014283
 847	4.2300e-01	6.1779	12.421445	0.000244	2.439056	0.826374	-0.019842
 848	4.2350e-01	6.1586	12.322664	0.000243	2.428543	0.822812	-0.019756
 849	4.2400e-01	6.1025	12.238849	0.000206	2.060582	0.698144	-0.016763
 850	4.2450e-01	6.0833	12.166153	0.000179	1.787239	0.605533	-0.014539
 851	4.2500e-01	6.0143	12.087470	0.000193	1.934424	0.655400	-0.015737
 852	4.2550e-01	5.9694	12.019477	0.000167	1.671594	0.566351	-0.013598
 853	4.2600e-01	5.9501	11.917703	0.000250	2.502135	0.847746	-0.020355
 854	4.2650e-01	5.9212	11.839020	0.000193	1.934424	0.655400	-0.015737
 855	4.2700e-01	5.8522	11.764613	0.000183	1.829292	0.619781	-0.014881
 856	4.2750e-01	5.8137	11.651720	0.000278	2.775477	0.940357	-0.022579
 857	4.2800e-01	5.8041	11.586293	0.000161	1.608515	0.544980	-0.013085
 858	4.2850e-01	5.7271	11.509748	0.000188	1.881858	0.637591	-0.015309
 859	4.2900e-01	5.6966	11.451591	0.000143	1.429791	0.484426	-0.011631
 860	4.2950e-01	5.6886	11.322448	0.000317	3.174978	1.075712	-0.025829
 861	4.3000e-01	5.6196	11.248897	0.000181	1.808265	0.612657	-0.014710
 862	4.3050e-01	5.5956	11.164654	0.000207	2.071095	0.701706	-0.016848
 863	4.3100e-01	5.5218	11.083833	0.000199	1.986989	0.673210	-0.016164
 864	4.3150e-01	5.4945	11.013703	0.000172	1.724160	0.584161	-0.014026
 865	4.3200e-01	5.4688	10.928605	0.000209	2.092121	0.708830	-0.017019
 866	4.3250e-01	5.4383	10.840942	0.000216	2.155200	0.730202	-0.017533
 867	4.3300e-01	5.3581	10.764397	0.000188	1.881858	0.637591	-0.015309
 868	4.3350e-01	5.3357	10.685287	0.000194	1.944937	0.658962	-0.015822
 869	4.3400e-01	5.3036	10.598479	0.000213	2.134174	0.723078	-0.017362
 870	4.3450e-01	5.2683	10.500980	0.000240	2.397003	0.812127	-0.019500
 871	4.3500e-01	5.2009	10.444106	0.000140	1.398252	0.473741	-0.011375
 872	4.3550e-01	5.1576	10.343614	0.000247	2.470595	0.837060	-0.020098
 873	4.3600e-01	5.1063	10.268780	0.000184	1.839805	0.623343	-0.014967
 874	4.3650e-01	5.0710	10.183254	0.000210	2.102634	0.712392	-0.017105
 875	4.3700e-01	5.0565	10.099440	0.000206	2.060582	0.698144	-0.016763
 876	4.3750e-01	5.0132	9.994244	0.000259	2.586240	0.876242	-0.021039
 877	4.3800e-01	4.9940	9.924114	0.000172	1.724160	0.584161	-0.014026
 878	4.3850e-01	4.9603	9.800102	0.000305	3.048820	1.032968	-0.024802
 879	4.3900e-01	4.9250	9.737669	0.000153	1.534923	0.520046	-0.012487
 880	4.3950e-01	4.8608	9.660696	0.000189	1.892371	0.641153	-0.015395
 881	4.4000e-01	4.8031	9.590138	0.000173	1.734673	0.587723	-0.014112
 882	4.4050e-01	4.7646	9.513166	0.000189	1.892371	0.641153	-0.015395
 883	4.4100e-01	4.7485	9.414812	0.000242	2.418029	0.819251	-0.019671
 884	4.4150e-01	4.7245	9.324155	0.000223	2.228792	0.755135	-0.018131
 885	4.4200e-01	4.6747	9.230933	0.000229	2.291871	0.776507	-0.018644
 886	4.4250e-01	4.6282	9.163368	0.000166	1.661081	0.562789	-0.013513
 887	4.4300e-01	4.5865	9.072284	0.000224	2.239305	0.758697	-0.018217
 888	4.4350e-01	4.5271	9.010706	0.000151	1.513897	0.512922	-0.012316
 889	4.4400e-01	4.5207	8.909359	0.000249	2.491622	0.844184	-0.020269
 890	4.4450e-01	4.4742	8.825544	0.000206	2.060582	0.698144	-0.016763
 891	4.4500e-01	4.4325	8.740874	0.000208	2.081608	0.705268	-0.016934
 892	4.4550e-01	4.3796	8.676731	0.000158	1.576976	0.534294	-0.012829
 893	4.4600e-01	4.3459	8.584791	0.000226	2.260332	0.765821	-0.018388
 894	4.4650e-01	4.3250	8.492424	0.000227	2.270845	0.769383	-0.018473
 895	4.4700e-01	4.2544	8.428708	0.000157	1.566463	0.530732	-0.012743
 896	4.4750e-01	4.2272	8.332920	0.000235	2.354950	0.797879	-0.019158
 897	4.4800e-01	4.1742	8.256375	0.000188	1.881858	0.637591	-0.015309
 898	4.4850e-01	4.1582	8.146048	0.000271	2.712398	0.918985	-0.022065
 899	4.4900e-01	4.1084	8.063088	0.000204	2.039555	0.691020	-0.016592
 900	4.4950e-01	4.0731	8.006642	0.000139	1.387739	0.470179	-0.011289
 901	4.5000e-01	4.0266	7.901446	0.000259	2.586240	0.876242	-0.021039
 902	4.5050e-01	3.9929	7.816349	0.000209	2.092121	0.708830	-0.017019
 903	4.5100e-01	3.9384	7.733817	0.000203	2.029042	0.687458	-0.016506
 904	4.5150e-01	3.8871	7.660693	0.000180	1.797752	0.609095	-0.014625
 905	4.5200e-01	3.8598	7.574313	0.000212	2.123661	0.719516	-0.017276
 906	4.5250e-01	3.8181	7.493492	0.000199	1.986989	0.673210	-0.016164
 907	4.5300e-01	3.7635	7.410105	0.000205	2.050068	0.694582	-0.016677
 908	4.5350e-01	3.7443	7.322014	0.000217	2.165713	0.733764	-0.017618
 909	4.5400e-01	3.7058	7.230074	0.000226	2.260332	0.765821	-0.018388
 910	4.5450e-01	3.6625	7.146260	0.000206	2.060582	0.698144	-0.016763
 911	4.5500e-01	3.5951	7.058597	0.000216	2.155200	0.730202	-0.017533
 912	4.5550e-01	3.5790	6.988038	0.000173	1.734673	0.587723	-0.014112
 913	4.5600e-01	3.5566	6.886691	0.000249	2.491622	0.844184	-0.020269
 914	4.5650e-01	3.5261	6.804587	0.000202	2.018529	0.683896	-0.016421
 915	4.5700e-01	3.4684	6.739588	0.000160	1.598002	0.541418	-0.013000
 916	4.5750e-01	3.4138	6.672879	0.000164	1.640055	0.555666	-0.013342
 917	4.5800e-01	3.3785	6.558703	0.000281	2.807017	0.951043	-0.022835
 918	4.5850e-01	3.3416	6.474888	0.000206	2.060582	0.698144	-0.016763
 919	4.5900e-01	3.3031	6.404758	0.000172	1.724160	0.584161	-0.014026
 920	4.5950e-01	3.2919	6.294858	0.000270	2.701885	0.915423	-0.021980
 921	4.6000e-01	3.2293	6.206339	0.000218	2.176226	0.737325	-0.017704
 922	4.6050e-01	3.1716	6.134926	0.000176	1.755700	0.594847	-0.014283
 923	4.6100e-01	3.1507	6.035717	0.000244	2.439056	0.826374	-0.019842
 924	4.6150e-01	3.0817	5.980981	0.000135	1.345686	0.455931	-0.010947
 925	4.6200e-01	3.0978	5.882627	-0.000242	-2.418029	-0.819251	-0.019671
 926	4.6250e-01	3.0288	5.800095	0.000203	2.029042	0.687458	-0.016506
 927	4.6300e-01	3.0079	5.717136	0.000204	2.039555	0.691020	-0.016592
 928	4.6350e-01	2.9566	5.624769	0.000227	2.270845	0.769383	-0.018473
 929	4.6400e-01	2.9069	5.553783	0.000175	1.745186	0.591285	-0.014197
 930	4.6450e-01	2.8796	5.467403	0.000212	2.123661	0.719516	-0.017276
 931	4.6500e-01	2.8363	5.381450	0.000211	2.113147	0.715954	-0.017191
 932	4.6550e-01	2.7914	5.302340	0.000194	1.944937	0.658962	-0.015822
 933	4.6600e-01	2.7384	5.231354	0.000175	1.745186	0.591285	-0.014197
 934	4.6650e-01	2.7031	5.146256	0.000209	2.092121	0.708830	-0.017019
 935	4.6700e-01	2.6694	5.064152	0.000202	2.018529	0.683896	-0.016421
 936	4.6750e-01	2.6358	4.947838	0.000286	2.859583	0.968853	-0.023263
 937	4.6800e-01	2.5796	4.912345	0.000087	0.872593	0.295643	-0.007099
 938	4.6850e-01	2.5475	4.778926	0.000328	3.280109	1.111331	-0.026684
 939	4.6900e-01	2.5010	4.720342	0.000144	1.440304	0.487988	-0.011717
 940	4.6950e-01	2.4657	4.652349	0.000167	1.671594	0.566351	-0.013598
 941	4.7000e-01	2.4320	4.548436	0.000255	2.554701	0.865556	-0.020783
 942	4.7050e-01	2.3743	4.467615	0.000199	1.986989	0.673210	-0.016164
 943	4.7100e-01	2.3229	4.400478	0.000165	1.650568	0.559228	-0.013427
 944	4.7150e-01	2.2973	4.308111	0.000227	2.270845	0.769383	-0.018473
 945	4.7200e-01	2.2604	4.208047	0.000246	2.460082	0.833498	-0.020013
 946	4.7250e-01	2.2154	4.153738	0.000134	1.335173	0.452369	-0.010862
 947	4.7300e-01	2.1753	4.057522	0.000237	2.365464	0.801441	-0.019243
 948	4.7350e-01	2.1465	3.978412	0.000194	1.944937	0.658962	-0.015822
 949	4.7400e-01	2.1015	3.859960	0.000291	2.912148	0.986663	-0.023690
 950	4.7450e-01	2.0438	3.829171	0.000076	0.756948	0.256461	-0.006158
 951	4.7500e-01	2.0149	3.710291	0.000292	2.922662	0.990225	-0.023776
 952	4.7550e-01	2.0021	3.611509	0.000243	2.428543	0.822812	-0.019756
 953	4.7600e-01	1.9507	3.539668	0.000177	1.766213	0.598409	-0.014368
 954	4.7650e-01	1.9010	3.466117	0.000181	1.808265	0.612657	-0.014710
 955	4.7700e-01	1.8673	3.375888	0.000222	2.218279	0.751573	-0.018046
 956	4.7750e-01	1.8401	3.304474	0.000176	1.755700	0.594847	-0.014283
 957	4.7800e-01	1.7839	3.223653	0.000199	1.986989	0.673210	-0.016164
 958	4.7850e-01	1.7518	3.114609	0.000268	2.680859	0.908300	-0.021809
 959	4.7900e-01	1.6941	3.029084	0.000210	2.102634	0.712392	-0.017105
 960	4.7950e-01	1.6427	2.953822	0.000185	1.850318	0.626905	-0.015052
 961	4.8000e-01	1.6363	2.860172	0.000230	2.302385	0.780069	-0.018730
 962	4.8050e-01	1.5705	2.802015	0.000143	1.429791	0.484426	-0.011631
 963	4.8100e-01	1.5433	2.697674	0.000257	2.565214	0.869118	-0.020868
 964	4.8150e-01	1.4935	2.638234	0.000146	1.461331	0.495112	-0.011888
 965	4.8200e-01	1.4518	2.562544	0.000186	1.860831	0.630467	-0.015138
 966	4.8250e-01	1.4165	2.463335	0.000244	2.439056	0.826374	-0.019842
 967	4.8300e-01	1.3877	2.378666	0.000208	2.081608	0.705268	-0.016934
 968	4.8350e-01	1.3460	2.288437	0.000222	2.218279	0.751573	-0.018046
 969	4.8400e-01	1.3074	2.196070	0.000227	2.270845	0.769383	-0.018473
 970	4.8450e-01	1.2272	2.125511	0.000173	1.734673	0.587723	-0.014112
 971	4.8500e-01	1.2385	2.039986	-0.000210	-2.102634	-0.712392	-0.017105
 972	4.8550e-01	1.1807	1.953606	0.000212	2.123661	0.719516	-0.017276
 973	4.8600e-01	1.1262	1.857818	0.000235	2.354950	0.797879	-0.019158
 974	4.8650e-01	1.1021	1.792391	0.000161	1.608515	0.544980	-0.013085
 975	4.8700e-01	1.0572	1.692755	0.000245	2.449569	0.829936	-0.019927
 976	4.8750e-01	1.0187	1.612361	0.000198	1.976476	0.669648	-0.016079
 977	4.8800e-01	0.9706	1.534106	0.000192	1.923910	0.651838	-0.015651
 978	4.8850e-01	0.9449	1.451146	0.000204	2.039555	0.691020	-0.016592
 979	4.8900e-01	0.9000	1.360490	0.000223	2.228792	0.755135	-0.018131
 980	4.8950e-01	0.8502	1.258715	0.000250	2.502135	0.847746	-0.020355
 981	4.9000e-01	0.8278	1.199703	0.000145	1.450818	0.491550	-0.011802
 982	4.9050e-01	0.7861	1.119309	0.000198	1.976476	0.669648	-0.016079
 983	4.9100e-01	0.7636	1.022238	0.000239	2.386490	0.808565	-0.019414
 984	4.9150e-01	0.7123	0.949114	0.000180	1.797752	0.609095	-0.014625
 985	4.9200e-01	0.6401	0.879411	0.000171	1.713647	0.580599	-0.013941
 986	4.9250e-01	0.5952	0.810136	0.000170	1.703134	0.577037	-0.013855
 987	4.9300e-01	0.5695	0.700236	0.000270	2.701885	0.915423	-0.021980
 988	4.9350e-01	0.5599	0.633099	0.000165	1.650568	0.559228	-0.013427
 989	4.9400e-01	0.4861	0.536884	0.000237	2.365464	0.801441	-0.019243
 990	4.9450e-01	0.4765	0.438957	0.000241	2.407516	0.815689	-0.019585
 991	4.9500e-01	0.3995	0.369254	0.000171	1.713647	0.580599	-0.013941
 992	4.9550e-01	0.3593	0.292282	0.000189	1.892371	0.641153	-0.015395
 993	4.9600e-01	0.3449	0.204191	0.000217	2.165713	0.733764	-0.017618
 994	4.9650e-01	0.3241	0.114817	0.000220	2.197253	0.744449	-0.017875
 995	4.9700e-01	0.2759	0.028437	0.000212	2.123661	0.719516	-0.017276
 996	4.9750e-01	0.2118	-0.020312	0.000120	1.198502	0.406063	-0.009750
 997	4.9800e-01	0.1428	-0.125936	0.000260	2.596753	0.879804	-0.021125
 998	4.9850e-01	0.1508	-0.210605	-0.000208	-2.081608	-0.705268	-0.016934
 999	4.9900e-01	0.1139	-0.296986	0.000212	2.123661	0.719516	-0.017276
1000	4.9950e-01	0.0545	-0.362412	0.000161	1.608515	0.544980	-0.013085
1001	5.0000e-01	0.0626	-0.509088	-0.000361	-3.606018	-1.221752	-0.029335
1002	5.0050e-01	-0.0144	-0.530042	0.000052	0.515145	0.174536	-0.004191
1003	5.0100e-01	-0.0465	-0.618560	0.000218	2.176226	0.737325	-0.017704
1004	5.0150e-01	-0.0802	-0.710072	0.000225	2.249819	0.762259	-0.018302
1005	5.0200e-01	-0.1476	-0.767374	0.000141	1.408765	0.477302	-0.011460
1006	5.0250e-01	-0.1492	-0.859741	0.000227	2.270845	0.769383	-0.018473
1007	5.0300e-01	-0.1925	-0.953391	0.000230	2.302385	0.780069	-0.018730
1008	5.0350e-01	-0.2535	-1.018390	0.000160	1.598002	0.541418	-0.013000
1009	5.0400e-01	-0.2920	-1.112040	0.000230	2.302385	0.780069	-0.018730
1010	5.0450e-01	-0.3289	-1.186874	0.000184	1.839805	0.623343	-0.014967
1011	5.0500e-01	-0.3706	-1.261708	0.000184	1.839805	0.623343	-0.014967
1012	5.0550e-01	-0.4075	-1.327135	0.000161	1.608515	0.544980	-0.013085
1013	5.0600e-01	-0.4428	-1.431048	0.000255	2.554701	0.865556	-0.020783
1014	5.0650e-01	-0.4893	-1.539237	0.000266	2.659832	0.901176	-0.021638
1015	5.0700e-01	-0.5342	-1.599105	0.000147	1.471844	0.498674	-0.011974
1016	5.0750e-01	-0.5904	-1.675222	0.000187	1.871344	0.634029	-0.015223
1017	5.0800e-01	-0.6257	-1.757754	0.000203	2.029042	0.687458	-0.016506
1018	5.0850e-01	-0.6545	-1.839002	0.000200	1.997503	0.676772	-0.016250
1019	5.0900e-01	-0.7091	-1.915975	0.000189	1.892371	0.641153	-0.015395
1020	5.0950e-01	-0.7331	-2.022026	0.000261	2.607266	0.883366	-0.021210
1021	5.1000e-01	-0.7492	-2.081038	0.000145	1.450818	0.491550	-0.011802
1022	5.1050e-01	-0.7909	-2.187089	0.000261	2.607266	0.883366	-0.021210
1023	5.1100e-01	-0.8551	-2.264062	0.000189	1.892371	0.641153	-0.015395
1024	5.1150e-01	-0.8871	-2.330772	0.000164	1.640055	0.555666	-0.013342
1025	5.1200e-01	-0.9417	-2.433402	0.000252	2.523161	0.854870	-0.020526
1026	5.1250e-01	-0.9898	-2.493697	0.000148	1.482357	0.502236	-0.012059
1027	5.1300e-01	-0.9946	-2.605735	0.000275	2.754451	0.933233	-0.022408
1028	5.1350e-01	-1.0925	-2.663036	0.000141	1.408765	0.477302	-0.011460
1029	5.1400e-01	-1.0796	-2.745996	-0.000204	-2.039555	-0.691020	-0.016592
1030	5.1450e-01	-1.1182	-2.846915	0.000248	2.481108	0.840622	-0.020184
1031	5.1500e-01	-1.1968	-2.923460	0.000188	1.881858	0.637591	-0.015309
1032	5.1550e-01	-1.2337	-3.003854	0.000198	1.976476	0.669648	-0.016079
1033	5.1600e-01	-1.2513	-3.094510	0.000223	2.228792	0.755135	-0.018131
1034	5.1650e-01	-1.2914	-3.171483	0.000189	1.892371	0.641153	-0.015395
1035	5.1700e-01	-1.3171	-3.270692	0.000244	2.439056	0.826374	-0.019842
1036	5.1750e-01	-1.3764	-3.339540	0.000169	1.692621	0.573475	-0.013770
1037	5.1800e-01	-1.3748	-3.426348	-0.000213	-2.134174	-0.723078	-0.017362
1038	5.1850e-01	-1.4711	-3.499899	0.000181	1.808265	0.612657	-0.014710
1039	5.1900e-01	-1.4791	-3.577299	0.000190	1.902884	0.644715	-0.015480
1040	5.1950e-01	-1.5353	-3.649996	0.000179	1.787239	0.605533	-0.014539
1041	5.2000e-01	-1.5786	-3.750060	0.000246	2.460082	0.833498	-0.020013
1042	5.2050e-01	-1.6042	-3.840289	0.000222	2.218279	0.751573	-0.018046
1043	5.2100e-01	-1.6508	-3.912985	0.000179	1.787239	0.605533	-0.014539
1044	5.2150e-01	-1.7005	-3.985254	0.000178	1.776726	0.601971	-0.014454
1045	5.2200e-01	-1.7165	-4.071634	0.000212	2.123661	0.719516	-0.017276
1046	5.2250e-01	-1.7598	-4.185382	0.000280	2.796504	0.947481	-0.022750
1047	5.2300e-01	-1.8144	-4.244822	0.000146	1.461331	0.495112	-0.011888
1048	5.2350e-01	-1.8673	-4.315808	0.000175	1.745186	0.591285	-0.014197
1049	5.2400e-01	-1.9155	-4.415872	0.000246	2.460082	0.833498	-0.020013
1050	5.2450e-01	-1.9491	-4.477023	0.000150	1.503383	0.509360	-0.012230
1051	5.2500e-01	-1.9395	-4.595903	-0.000292	-2.922662	-0.990225	-0.023776
1052	5.2550e-01	-2.0245	-4.654487	0.000144	1.440304	0.487988	-0.011717
1053	5.2600e-01	-2.0518	-4.745144	0.000223	2.228792	0.755135	-0.018131
1054	5.2650e-01	-2.1048	-4.802446	0.000141	1.408765	0.477302	-0.011460
1055	5.2700e-01	-2.1224	-4.914483	0.000275	2.754451	0.933233	-0.022408
1056	5.2750e-01	-2.1721	-4.967509	0.000130	1.303633	0.441683	-0.010605
1057	5.2800e-01	-2.1994	-5.060304	0.000228	2.281358	0.772945	-0.018559
1058	5.2850e-01	-2.2507	-5.145829	0.000210	2.102634	0.712392	-0.017105
1059	5.2900e-01	-2.2989	-5.224939	0.000194	1.944937	0.658962	-0.015822
1060	5.2950e-01	-2.3293	-5.313458	0.000218	2.176226	0.737325	-0.017704
1061	5.3000e-01	-2.3759	-5.374608	0.000150	1.503383	0.509360	-0.012230
1062	5.3050e-01	-2.4384	-5.462271	0.000216	2.155200	0.730202	-0.017533
1063	5.3100e-01	-2.4657	-5.558915	0.000238	2.375977	0.805003	-0.019329
1064	5.3150e-01	-2.4721	-5.664111	0.000259	2.586240	0.876242	-0.021039
1065	5.3200e-01	-2.5395	-5.709439	0.000111	1.114396	0.377568	-0.009066
1066	5.3250e-01	-2.5796	-5.801806	0.000227	2.270845	0.769383	-0.018473
1067	5.3300e-01	-2.6101	-5.876213	0.000183	1.829292	0.619781	-0.014881
1068	5.3350e-01	-2.6454	-5.976277	0.000246	2.460082	0.833498	-0.020013
1069	5.3400e-01	-2.6823	-6.054105	0.000191	1.913397	0.648277	-0.015566
1070	5.3450e-01	-2.7336	-6.130650	0.000188	1.881858	0.637591	-0.015309
1071	5.3500e-01	-2.7625	-6.234563	0.000255	2.554701	0.865556	-0.020783
1072	5.3550e-01	-2.7898	-6.307687	0.000180	1.797752	0.609095	-0.014625
1073	5.3600e-01	-2.8636	-6.382093	0.000183	1.829292	0.619781	-0.014881
1074	5.3650e-01	-2.9005	-6.449231	0.000165	1.650568	0.559228	-0.013427
1075	5.3700e-01	-2.9293	-6.520644	0.000176	1.755700	0.594847	-0.014283
1076	5.3750e-01	-2.9919	-6.612583	0.000226	2.260332	0.765821	-0.018388
1077	5.3800e-01	-3.0320	-6.720345	0.000265	2.649319	0.897614	-0.021552
1078	5.3850e-01	-3.0400	-6.785772	0.000161	1.608515	0.544980	-0.013085
1079	5.3900e-01	-3.1074	-6.872152	0.000212	2.123661	0.719516	-0.017276
1080	5.3950e-01	-3.1331	-6.941855	0.000171	1.713647	0.580599	-0.013941
1081	5.4000e-01	-3.1780	-7.026525	0.000208	2.081608	0.705268	-0.016934
1082	5.4050e-01	-3.2101	-7.123596	0.000239	2.386490	0.808565	-0.019414
1083	5.4100e-01	-3.2710	-7.194154	0.000173	1.734673	0.587723	-0.014112
1084	5.4150e-01	-3.2871	-7.286948	0.000228	2.281358	0.772945	-0.018559
1085	5.4200e-01	-3.3320	-7.346388	0.000146	1.461331	0.495112	-0.011888
1086	5.4250e-01	-3.4042	-7.438755	0.000227	2.270845	0.769383	-0.018473
1087	5.4300e-01	-3.4058	-7.519149	0.000198	1.976476	0.669648	-0.016079
1088	5.4350e-01	-3.4539	-7.614937	0.000235	2.354950	0.797879	-0.019158
1089	5.4400e-01	-3.4924	-7.686778	0.000177	1.766213	0.598409	-0.014368
1090	5.4450e-01	-3.5181	-7.776152	0.000220	2.197253	0.744449	-0.017875
1091	5.4500e-01	-3.5855	-7.852697	0.000188	1.881858	0.637591	-0.015309
1092	5.4550e-01	-3.5903	-7.972432	0.000294	2.943688	0.997348	-0.023947
1093	5.4600e-01	-3.6641	-8.025885	0.000131	1.314146	0.445245	-0.010691
1094	5.4650e-01	-3.6721	-8.093450	0.000166	1.661081	0.562789	-0.013513
1095	5.4700e-01	-3.7363	-8.161870	0.000168	1.682107	0.569913	-0.013684
1096	5.4750e-01	-3.7764	-8.263645	0.000250	2.502135	0.847746	-0.020355
1097	5.4800e-01	-3.8309	-8.326506	0.000155	1.545436	0.523608	-0.012572
1098	5.4850e-01	-3.8486	-8.429136	0.000252	2.523161	0.854870	-0.020526
1099	5.4900e-01	-3.8774	-8.503542	0.000183	1.829292	0.619781	-0.014881
1100	5.4950e-01	-3.9544	-8.571535	0.000167	1.671594	0.566351	-0.013598
1101	5.5000e-01	-3.9833	-8.675020	0.000254	2.544187	0.861994	-0.020697
1102	5.5050e-01	-4.0330	-8.731467	0.000139	1.387739	0.470179	-0.011289
1103	5.5100e-01	-4.0298	-8.832814	-0.000249	-2.491622	-0.844184	-0.020269
1104	5.5150e-01	-4.0940	-8.899096	0.000163	1.629542	0.552104	-0.013256
1105	5.5200e-01	-4.1373	-9.005147	0.000261	2.607266	0.883366	-0.021210
1106	5.5250e-01	-4.1566	-9.083402	0.000192	1.923910	0.651838	-0.015651
1107	5.5300e-01	-4.2159	-9.159520	0.000187	1.871344	0.634029	-0.015223
1108	5.5350e-01	-4.2657	-9.232216	0.000179	1.787239	0.605533	-0.014539
1109	5.5400e-01	-4.3026	-9.316886	0.000208	2.081608	0.705268	-0.016934
1110	5.5450e-01	-4.3555	-9.390865	0.000182	1.818779	0.616219	-0.014796
1111	5.5500e-01	-4.3667	-9.479383	0.000218	2.176226	0.737325	-0.017704
1112	5.5550e-01	-4.4116	-9.550797	0.000176	1.755700	0.594847	-0.014283
1113	5.5600e-01	-4.4646	-9.632045	0.000200	1.997503	0.676772	-0.016250
1114	5.5650e-01	-4.4919	-9.732537	0.000247	2.470595	0.837060	-0.020098
1115	5.5700e-01	-4.5336	-9.793688	0.000150	1.503383	0.509360	-0.012230
1116	5.5750e-01	-4.5512	-9.908719	0.000283	2.828043	0.958167	-0.023006
1117	5.5800e-01	-4.6090	-9.975429	0.000164	1.640055	0.555666	-0.013342
1118	5.5850e-01	-4.6667	-10.039145	0.000157	1.566463	0.530732	-0.012743
1119	5.5900e-01	-4.6908	-10.110986	0.000177	1.766213	0.598409	-0.014368
1120	5.5950e-01	-4.7437	-10.215754	0.000258	2.575727	0.872680	-0.020954
1121	5.6000e-01	-4.7646	-10.286312	0.000173	1.734673	0.587723	-0.014112
1122	5.6050e-01	-4.8047	-10.367133	0.000199	1.986989	0.673210	-0.016164
1123	5.6100e-01	-4.8688	-10.450520	0.000205	2.050068	0.694582	-0.016677
1124	5.6150e-01	-4.9073	-10.506967	0.000139	1.387739	0.470179	-0.011289
1125	5.6200e-01	-4.9298	-10.612590	0.000260	2.596753	0.879804	-0.021125
1126	5.6250e-01	-4.9795	-10.688280	0.000186	1.860831	0.630467	-0.015138
1127	5.6300e-01	-5.0373	-10.740023	0.000127	1.272094	0.430997	-0.010349
1128	5.6350e-01	-5.0293	-10.861041	-0.000298	-2.975227	-1.008034	-0.024204
1129	5.6400e-01	-5.0918	-10.941006	0.000197	1.965963	0.666086	-0.015993
1130	5.6450e-01	-5.1672	-11.008144	0.000165	1.650568	0.559228	-0.013427
1131	5.6500e-01	-5.1672	-11.110774	0.000252	2.523161	0.854870	-0.020526
1132	5.6550e-01	-5.2073	-11.180049	0.000170	1.703134	0.577037	-0.013855
1133	5.6600e-01	-5.2587	-11.249752	0.000171	1.713647	0.580599	-0.013941
1134	5.6650e-01	-5.2892	-11.336987	0.000214	2.144687	0.726640	-0.017447
1135	5.6700e-01	-5.3196	-11.410539	0.000181	1.808265	0.612657	-0.014710
1136	5.6750e-01	-5.3694	-11.501196	0.000223	2.228792	0.755135	-0.018131
1137	5.6800e-01	-5.4255	-11.577313	0.000187	1.871344	0.634029	-0.015223
1138	5.6850e-01	-5.4897	-11.650864	0.000181	1.808265	0.612657	-0.014710
1139	5.6900e-01	-5.4881	-11.729975	-0.000194	-1.944937	-0.658962	-0.015822
1140	5.6950e-01	-5.5458	-11.795402	0.000161	1.608515	0.544980	-0.013085
1141	5.7000e-01	-5.5715	-11.902308	0.000263	2.628293	0.890490	-0.021381
1142	5.7050e-01	-5.6357	-11.987406	0.000209	2.092121	0.708830	-0.017019
1143	5.7100e-01	-5.6645	-12.055398	0.000167	1.671594	0.566351	-0.013598
1144	5.7150e-01	-5.6998	-12.155035	0.000245	2.449569	0.829936	-0.019927
1145	5.7200e-01	-5.7335	-12.233718	0.000193	1.934424	0.655400	-0.015737
1146	5.7250e-01	-5.7833	-12.294868	0.000150	1.503383	0.509360	-0.012230
1147	5.7300e-01	-5.8169	-12.400064	0.000259	2.586240	0.876242	-0.021039
1148	5.7350e-01	-5.8186	-12.482168	0.000202	2.018529	0.683896	-0.016421
1149	5.7400e-01	-5.9116	-12.525786	0.000107	1.072343	0.363320	-0.008724
1150	5.7450e-01	-5.9260	-12.623712	0.000241	2.407516	0.815689	-0.019585
1151	5.7500e-01	-5.9854	-12.689994	0.000163	1.629542	0.552104	-0.013256
1152	5.7550e-01	-5.9934	-12.795617	0.000260	2.596753	0.879804	-0.021125
1153	5.7600e-01	-6.0560	-12.860616	0.000160	1.598002	0.541418	-0.013000
1154	5.7650e-01	-6.0849	-12.951273	0.000223	2.228792	0.755135	-0.018131
1155	5.7700e-01	-6.1651	-13.018410	0.000165	1.650568	0.559228	-0.013427
1156	5.7750e-01	-6.1635	-13.105218	-0.000213	-2.134174	-0.723078	-0.017362
1157	5.7800e-01	-6.2116	-13.196730	0.000225	2.249819	0.762259	-0.018302
1158	5.7850e-01	-6.2918	-13.246762	0.000123	1.230041	0.416749	-0.010006
1159	5.7900e-01	-6.3046	-13.355379	0.000267	2.670345	0.904738	-0.021723
1160	5.7950e-01	-6.3335	-13.426365	0.000175	1.745186	0.591285	-0.014197
1161	5.8000e-01	-6.3800	-13.505475	0.000194	1.944937	0.658962	-0.015822
1162	5.8050e-01	-6.4266	-13.596132	0.000223	2.228792	0.755135	-0.018131
1163	5.8100e-01	-6.4266	-13.698762	0.000252	2.523161	0.854870	-0.020526
1164	5.8150e-01	-6.5036	-13.735110	0.000089	0.893620	0.302767	-0.007270
1165	5.8200e-01	-6.5597	-13.814221	0.000194	1.944937	0.658962	-0.015822
1166	5.8250e-01	-6.5902	-13.883924	0.000171	1.713647	0.580599	-0.013941
1167	5.8300e-01	-6.6110	-13.982277	0.000242	2.418029	0.819251	-0.019671
1168	5.8350e-01	-6.6447	-14.068658	0.000212	2.123661	0.719516	-0.017276
1169	5.8400e-01	-6.7185	-14.121683	0.000130	1.303633	0.441683	-0.010605
1170	5.8450e-01	-6.7346	-14.228162	0.000262	2.617780	0.886928	-0.021296
1171	5.8500e-01	-6.7843	-14.314115	0.000211	2.113147	0.715954	-0.017191
1172	5.8550e-01	-6.8356	-14.356877	0.000105	1.051317	0.356196	-0.008553
1173	5.8600e-01	-6.8404	-14.457797	0.000248	2.481108	0.840622	-0.020184
1174	5.8650e-01	-6.8998	-14.534769	0.000189	1.892371	0.641153	-0.015395
1175	5.8700e-01	-6.9303	-14.610887	0.000187	1.871344	0.634029	-0.015223
1176	5.8750e-01	-6.9864	-14.698122	0.000214	2.144687	0.726640	-0.017447
1177	5.8800e-01	-7.0041	-14.768253	0.000172	1.724160	0.584161	-0.014026
1178	5.8850e-01	-7.0666	-14.823416	0.000136	1.356199	0.459493	-0.011033
1179	5.8900e-01	-7.1116	-14.930323	0.000263	2.628293	0.890490	-0.021381
1180	5.8950e-01	-7.1051	-15.009433	-0.000194	-1.944937	-0.658962	-0.015822
1181	5.9000e-01	-7.1757	-15.080847	0.000176	1.755700	0.594847	-0.014283
1182	5.9050e-01	-7.1789	-15.186470	0.000260	2.596753	0.879804	-0.021125
1183	5.9100e-01	-7.2527	-15.243772	0.000141	1.408765	0.477302	-0.011460
1184	5.9150e-01	-7.2832	-15.337850	0.000231	2.312898	0.783631	-0.018816
1185	5.9200e-01	-7.3378	-15.409691	0.000177	1.766213	0.598409	-0.014368
1186	5.9250e-01	-7.3714	-15.476400	0.000164	1.640055	0.555666	-0.013342
1187	5.9300e-01	-7.4035	-15.576892	0.000247	2.470595	0.837060	-0.020098
1188	5.9350e-01	-7.4485	-15.645740	0.000169	1.692621	0.573475	-0.013770
1189	5.9400e-01	-7.5319	-15.696627	0.000125	1.251067	0.423873	-0.010177
1190	5.9450e-01	-7.5351	-15.800540	0.000255	2.554701	0.865556	-0.020783
1191	5.9500e-01	-7.5688	-15.894618	0.000231	2.312898	0.783631	-0.018816
1192	5.9550e-01	-7.6025	-15.960472	0.000162	1.619028	0.548542	-0.013171
1193	5.9600e-01	-7.6378	-16.043004	0.000203	2.029042	0.687458	-0.016506
1194	5.9650e-01	-7.6666	-16.128101	0.000209	2.092121	0.708830	-0.017019
1195	5.9700e-01	-7.7324	-16.190107	0.000152	1.524410	0.516484	-0.012401
1196	5.9750e-01	-7.7853	-16.286750	0.000238	2.375977	0.805003	-0.019329
1197	5.9800e-01	-7.8271	-16.359446	0.000179	1.787239	0.605533	-0.014539
1198	5.9850e-01	-7.8623	-16.434708	0.000185	1.850318	0.626905	-0.015052
1199	5.9900e-01	-7.9025	-16.526648	0.000226	2.260332	0.765821	-0.018388
1200	5.9950e-01	-7.9361	-16.604476	0.000191	1.913397	0.648277	-0.015566
1201	6.0000e-01	-7.9730	-16.683159	0.000193	1.934424	0.655400	-0.015737
1202	6.0050e-01	-8.0196	-16.747730	0.000159	1.587489	0.537856	-0.012914
1203	6.0100e-01	-8.0420	-16.834110	0.000212	2.123661	0.719516	-0.017276
1204	6.0150e-01	-8.1030	-16.894406	0.000148	1.482357	0.502236	-0.012059
1205	6.0200e-01	-8.1303	-17.005160	0.000272	2.722911	0.922547	-0.022151
1206	6.0250e-01	-8.1704	-17.065456	0.000148	1.482357	0.502236	-0.012059
1207	6.0300e-01	-8.2121	-17.138152	0.000179	1.787239	0.605533	-0.014539
1208	6.0350e-01	-8.2506	-17.228381	0.000222	2.218279	0.751573	-0.018046
1209	6.0400e-01	-8.2891	-17.301932	0.000181	1.808265	0.612657	-0.014710
1210	6.0450e-01	-8.3404	-17.377622	0.000186	1.860831	0.630467	-0.015138
1211	6.0500e-01	-8.3789	-17.459726	0.000202	2.018529	0.683896	-0.016421
1212	6.0550e-01	-8.4078	-17.545679	0.000211	2.113147	0.715954	-0.017191
1213	6.0600e-01	-8.4527	-17.604263	0.000144	1.440304	0.487988	-0.011717
1214	6.0650e-01	-8.4960	-17.691927	0.000216	2.155200	0.730202	-0.017533
1215	6.0700e-01	-8.5281	-17.774031	0.000202	2.018529	0.683896	-0.016421
1216	6.0750e-01	-8.5602	-17.869391	0.000234	2.344437	0.794317	-0.019072
1217	6.0800e-01	-8.6340	-17.911298	0.000103	1.030291	0.349072	-0.008381
1218	6.0850e-01	-8.6516	-18.019488	0.000266	2.659832	0.901176	-0.021638
1219	6.0900e-01	-8.6949	-18.094322	0.000184	1.839805	0.623343	-0.014967
1220	6.0950e-01	-8.7030	-18.180702	0.000212	2.123661	0.719516	-0.017276
1221	6.1000e-01	-8.7768	-18.247412	0.000164	1.640055	0.555666	-0.013342
1222	6.1050e-01	-8.7832	-18.347476	0.000246	2.460082	0.833498	-0.020013
1223	6.1100e-01	-8.8682	-18.409482	0.000152	1.524410	0.516484	-0.012401
1224	6.1150e-01	-8.8842	-18.482606	0.000180	1.797752	0.609095	-0.014625
1225	6.1200e-01	-8.9420	-18.568558	0.000211	2.113147	0.715954	-0.017191
1226	6.1250e-01	-8.9853	-18.627143	0.000144	1.440304	0.487988	-0.011717
1227	6.1300e-01	-9.0126	-18.717800	0.000223	2.228792	0.755135	-0.018131
1228	6.1350e-01	-9.0431	-18.796055	0.000192	1.923910	0.651838	-0.015651
1229	6.1400e-01	-9.0928	-18.881153	0.000209	2.092121	0.708830	-0.017019
1230	6.1450e-01	-9.1634	-18.947434	0.000163	1.629542	0.552104	-0.013256
1231	6.1500e-01	-9.1778	-19.040229	0.000228	2.281358	0.772945	-0.018559
1232	6.1550e-01	-9.2324	-19.109504	0.000170	1.703134	0.577037	-0.013855
1233	6.1600e-01	-9.2532	-19.189470	0.000197	1.965963	0.666086	-0.015993
1234	6.1650e-01	-9.2869	-19.259601	0.000172	1.724160	0.584161	-0.014026
1235	6.1700e-01	-9.3190	-19.354961	0.000234	2.344437	0.794317	-0.019072
1236	6.1750e-01	-9.3944	-19.434072	0.000194	1.944937	0.658962	-0.015822
1237	6.1800e-01	-9.4088	-19.493084	0.000145	1.450818	0.491550	-0.011802
1238	6.1850e-01	-9.4441	-19.567491	0.000183	1.829292	0.619781	-0.014881
1239	6.1900e-01	-9.4682	-19.662424	0.000233	2.333924	0.790755	-0.018987
1240	6.1950e-01	-9.5484	-19.732982	0.000173	1.734673	0.587723	-0.014112
1241	6.2000e-01	-9.5773	-19.814659	0.000201	2.008016	0.680334	-0.016335
1242	6.2050e-01	-9.6078	-19.898473	0.000206	2.060582	0.698144	-0.016763
1243	6.2100e-01	-9.6286	-19.995544	0.000239	2.386490	0.808565	-0.019414
1244	6.2150e-01	-9.7120	-20.034886	0.000097	0.967212	0.327700	-0.007868
1245	6.2200e-01	-9.7585	-20.117845	0.000204	2.039555	0.691020	-0.016592
1246	6.2250e-01	-9.7666	-20.212778	0.000233	2.333924	0.790755	-0.018987
1247	6.2300e-01	-9.8323	-20.264948	0.000128	1.282607	0.434559	-0.010434
1248	6.2350e-01	-9.8644	-20.346197	0.000200	1.997503	0.676772	-0.016250
1249	6.2400e-01	-9.8933	-20.418465	0.000178	1.776726	0.601971	-0.014454
1250	6.2450e-01	-9.9414	-20.521095	0.000252	2.523161	0.854870	-0.020526
1251	6.2500e-01	-9.9767	-20.607476	0.000212	2.123661	0.719516	-0.017276
1252	6.2550e-01	-9.9992	-20.650238	0.000105	1.051317	0.356196	-0.008553
1253	6.2600e-01	-10.0489	-20.733198	0.000204	2.039555	0.691020	-0.016592
1254	6.2650e-01	-10.0954	-20.830696	0.000240	2.397003	0.812127	-0.019500
1255	6.2700e-01	-10.1564	-20.905103	0.000183	1.829292	0.619781	-0.014881
1256	6.2750e-01	-10.1821	-20.975661	0.000173	1.734673	0.587723	-0.014112
1257	6.2800e-01	-10.2254	-21.043226	0.000166	1.661081	0.562789	-0.013513
1258	6.2850e-01	-10.2703	-21.108225	0.000160	1.598002	0.541418	-0.013000
1259	6.2900e-01	-10.3104	-21.220690	0.000276	2.764964	0.936795	-0.022493
1260	6.2950e-01	-10.3425	-21.273288	0.000129	1.293120	0.438121	-0.010520
1261	6.3000e-01	-10.3954	-21.353682	0.000198	1.976476	0.669648	-0.016079
1262	6.3050e-01	-10.4163	-21.423385	0.000171	1.713647	0.580599	-0.013941
1263	6.3100e-01	-10.4548	-21.516180	0.000228	2.281358	0.772945	-0.018559
1264	6.3150e-01	-10.5077	-21.581179	0.000160	1.598002	0.541418	-0.013000
1265	6.3200e-01	-10.5382	-21.676111	0.000233	2.333924	0.790755	-0.018987
1266	6.3250e-01	-10.5992	-21.747525	0.000176	1.755700	0.594847	-0.014283
1267	6.3300e-01	-10.6232	-21.829201	0.000201	2.008016	0.680334	-0.016335
1268	6.3350e-01	-10.6601	-21.903608	0.000183	1.829292	0.619781	-0.014881
1269	6.3400e-01	-10.6986	-21.990416	0.000213	2.134174	0.723078	-0.017362
1270	6.3450e-01	-10.7307	-22.065250	0.000184	1.839805	0.623343	-0.014967
1271	6.3500e-01	-10.7788	-22.127684	0.000153	1.534923	0.520046	-0.012487
1272	6.3550e-01	-10.8254	-22.213636	0.000211	2.113147	0.715954	-0.017191
1273	6.3600e-01	-10.8607	-22.276070	0.000153	1.534923	0.520046	-0.012487
1274	6.3650e-01	-10.9040	-22.357746	0.000201	2.008016	0.680334	-0.016335
1275	6.3700e-01	-10.9409	-22.436001	0.000192	1.923910	0.651838	-0.015651
1276	6.3750e-01	-11.0179	-22.507843	0.000177	1.766213	0.598409	-0.014368
1277	6.3800e-01	-11.0211	-22.599354	0.000225	2.249819	0.762259	-0.018302
1278	6.3850e-01	-11.0564	-22.655801	0.000139	1.387739	0.470179	-0.011289
1279	6.3900e-01	-11.1013	-22.729352	0.000181	1.808265	0.612657	-0.014710
1280	6.3950e-01	-11.0997	-22.847805	-0.000291	-2.912148	-0.986663	-0.023690
1281	6.4000e-01	-11.1462	-22.920501	0.000179	1.787239	0.605533	-0.014539
1282	6.4050e-01	-11.2120	-22.973954	0.000131	1.314146	0.445245	-0.010691
1283	6.4100e-01	-11.2810	-23.044940	0.000175	1.745186	0.591285	-0.014197
1284	6.4150e-01	-11.2649	-23.141583	-0.000238	-2.375977	-0.805003	-0.019329
1285	6.4200e-01	-11.3323	-23.208293	0.000164	1.640055	0.555666	-0.013342
1286	6.4250e-01	-11.3884	-23.271154	0.000155	1.545436	0.523608	-0.012572
1287	6.4300e-01	-11.4205	-23.354113	0.000204	2.039555	0.691020	-0.016592
1288	6.4350e-01	-11.4542	-23.421678	0.000166	1.661081	0.562789	-0.013513
1289	6.4400e-01	-11.4943	-23.520459	0.000243	2.428543	0.822812	-0.019756
1290	6.4450e-01	-11.5360	-23.585458	0.000160	1.598002	0.541418	-0.013000
1291	6.4500e-01	-11.5360	-23.676115	0.000223	2.228792	0.755135	-0.018131
1292	6.4550e-01	-11.5986	-23.736410	0.000148	1.482357	0.502236	-0.012059
1293	6.4600e-01	-11.6740	-23.814238	0.000191	1.913397	0.648277	-0.015566
1294	6.4650e-01	-11.7013	-23.882230	0.000167	1.671594	0.566351	-0.013598
1295	6.4700e-01	-11.7253	-23.967755	0.000210	2.102634	0.712392	-0.017105
1296	6.4750e-01	-11.7606	-24.067392	0.000245	2.449569	0.829936	-0.019927
1297	6.4800e-01	-11.8152	-24.114431	0.000116	1.156449	0.391815	-0.009408
1298	6.4850e-01	-11.8521	-24.189693	0.000185	1.850318	0.626905	-0.015052
1299	6.4900e-01	-11.9034	-24.275645	0.000211	2.113147	0.715954	-0.017191
1300	6.4950e-01	-11.9467	-24.343638	0.000167	1.671594	0.566351	-0.013598
1301	6.5000e-01	-11.9692	-24.430018	0.000212	2.123661	0.719516	-0.017276
1302	6.5050e-01	-12.0334	-24.488603	0.000144	1.440304	0.487988	-0.011717
1303	6.5100e-01	-12.0590	-24.583536	0.000233	2.333924	0.790755	-0.018987
1304	6.5150e-01	-12.1039	-24.659653	0.000187	1.871344	0.634029	-0.015223
1305	6.5200e-01	-12.1489	-24.717382	0.000142	1.419278	0.480864	-0.011546
1306	6.5250e-01	-12.1745	-24.829848	0.000276	2.764964	0.936795	-0.022493
1307	6.5300e-01	-12.2098	-24.881163	0.000126	1.261581	0.427435	-0.010263
1308	6.5350e-01	-12.2836	-24.955570	0.000183	1.829292	0.619781	-0.014881
1309	6.5400e-01	-12.3205	-25.025700	0.000172	1.724160	0.584161	-0.014026
1310	6.5450e-01	-12.3317	-25.114646	0.000219	2.186740	0.740887	-0.017789
1311	6.5500e-01	-12.3702	-25.199316	0.000208	2.081608	0.705268	-0.016934
1312	6.5550e-01	-12.4200	-25.260039	0.000149	1.492870	0.505798	-0.012145
1313	6.5600e-01	-12.4649	-25.332735	0.000179	1.787239	0.605533	-0.014539
1314	6.5650e-01	-12.4729	-25.431517	0.000243	2.428543	0.822812	-0.019756
1315	6.5700e-01	-12.5226	-25.492667	0.000150	1.503383	0.509360	-0.012230
1316	6.5750e-01	-12.5916	-25.548258	0.000137	1.366712	0.463055	-0.011118
1317	6.5800e-01	-12.6269	-25.629507	0.000200	1.997503	0.676772	-0.016250
1318	6.5850e-01	-12.6670	-25.721446	0.000226	2.260332	0.765821	-0.018388
1319	6.5900e-01	-12.6975	-25.800985	0.000196	1.955450	0.662524	-0.015908
1320	6.5950e-01	-12.7440	-25.868977	0.000167	1.671594	0.566351	-0.013598
1321	6.6000e-01	-12.7938	-25.946805	0.000191	1.913397	0.648277	-0.015566
1322	6.6050e-01	-12.8290	-26.018218	0.000176	1.755700	0.594847	-0.014283
1323	6.6100e-01	-12.8611	-26.098184	0.000197	1.965963	0.666086	-0.015993
1324	6.6150e-01	-12.8627	-26.222196	0.000305	3.048820	1.032968	-0.024802
1325	6.6200e-01	-12.9413	-26.242294	0.000049	0.494119	0.167412	-0.004020
1326	6.6250e-01	-12.9815	-26.324826	0.000203	2.029042	0.687458	-0.016506
1327	6.6300e-01	-12.9959	-26.398805	0.000182	1.818779	0.616219	-0.014796
1328	6.6350e-01	-13.0424	-26.486040	0.000214	2.144687	0.726640	-0.017447
1329	6.6400e-01	-13.0857	-26.557881	0.000177	1.766213	0.598409	-0.014368
1330	6.6450e-01	-13.1339	-26.633571	0.000186	1.860831	0.630467	-0.015138
1331	6.6500e-01	-13.1756	-26.698143	0.000159	1.587489	0.537856	-0.012914
1332	6.6550e-01	-13.2093	-26.768273	0.000172	1.724160	0.584161	-0.014026
1333	6.6600e-01	-13.2766	-26.842680	0.000183	1.829292	0.619781	-0.014881
1334	6.6650e-01	-13.2879	-26.911955	0.000170	1.703134	0.577037	-0.013855
1335	6.6700e-01	-13.3296	-27.000046	0.000217	2.165713	0.733764	-0.017618
1336	6.6750e-01	-13.3905	-27.076163	0.000187	1.871344	0.634029	-0.015223
1337	6.6800e-01	-13.4499	-27.138169	0.000152	1.524410	0.516484	-0.012401
1338	6.6850e-01	-13.4707	-27.216852	0.000193	1.934424	0.655400	-0.015737
1339	6.6900e-01	-13.4820	-27.300667	0.000206	2.060582	0.698144	-0.016763
1340	6.6950e-01	-13.5253	-27.376784	0.000187	1.871344	0.634029	-0.015223
1341	6.7000e-01	-13.5686	-27.443066	0.000163	1.629542	0.552104	-0.013256
1342	6.7050e-01	-13.5911	-27.528591	0.000210	2.102634	0.712392	-0.017105
1343	6.7100e-01	-13.6488	-27.607274	0.000193	1.934424	0.655400	-0.015737
1344	6.7150e-01	-13.6584	-27.702207	0.000233	2.333924	0.790755	-0.018987
1345	6.7200e-01	-13.7739	-27.742831	0.000100	0.998751	0.338386	-0.008125
1346	6.7250e-01	-13.7483	-27.851448	-0.000267	-2.670345	-0.904738	-0.021723
1347	6.7300e-01	-13.8269	-27.886086	0.000085	0.851567	0.288519	-0.006928
1348	6.7350e-01	-13.8606	-27.992137	0.000261	2.607266	0.883366	-0.021210
1349	6.7400e-01	-13.8959	-28.051149	0.000145	1.450818	0.491550	-0.011802
1350	6.7450e-01	-13.9247	-28.117858	0.000164	1.640055	0.555666	-0.013342
1351	6.7500e-01	-13.9937	-28.192265	0.000183	1.829292	0.619781	-0.014881
1352	6.7550e-01	-14.0162	-28.275225	0.000204	2.039555	0.691020	-0.016592
1353	6.7600e-01	-14.0531	-28.351770	0.000188	1.881858	0.637591	-0.015309
1354	6.7650e-01	-14.0739	-28.452261	0.000247	2.470595	0.837060	-0.020098
1355	6.7700e-01	-14.1285	-28.500155	0.000118	1.177475	0.398939	-0.009579
1356	6.7750e-01	-14.1702	-28.550188	0.000123	1.230041	0.416749	-0.010006
1357	6.7800e-01	-14.2023	-28.666074	0.000285	2.849069	0.965291	-0.023177
1358	6.7850e-01	-14.2295	-28.720383	0.000134	1.335173	0.452369	-0.010862
1359	6.7900e-01	-14.3065	-28.803342	0.000204	2.039555	0.691020	-0.016592
1360	6.7950e-01	-14.3467	-28.855084	0.000127	1.272094	0.430997	-0.010349
1361	6.8000e-01	-14.3627	-28.962846	0.000265	2.649319	0.897614	-0.021552
1362	6.8050e-01	-14.4092	-29.019720	0.000140	1.398252	0.473741	-0.011375
1363	6.8100e-01	-14.4606	-29.098831	0.000194	1.944937	0.658962	-0.015822
1364	6.8150e-01	-14.5055	-29.175803	0.000189	1.892371	0.641153	-0.015395
1365	6.8200e-01	-14.5504	-29.235671	0.000147	1.471844	0.498674	-0.011974
1366	6.8250e-01	-14.5921	-29.300670	0.000160	1.598002	0.541418	-0.013000
1367	6.8300e-01	-14.6097	-29.385767	0.000209	2.092121	0.708830	-0.017019
1368	6.8350e-01	-14.6515	-29.481555	0.000235	2.354950	0.797879	-0.019158
1369	6.8400e-01	-14.7060	-29.542278	0.000149	1.492870	0.505798	-0.012145
1370	6.8450e-01	-14.7349	-29.620961	0.000193	1.934424	0.655400	-0.015737
1371	6.8500e-01	-14.7974	-29.688099	0.000165	1.650568	0.559228	-0.013427
1372	6.8550e-01	-14.8568	-29.774479	0.000212	2.123661	0.719516	-0.017276
1373	6.8600e-01	-14.8600	-29.851024	0.000188	1.881858	0.637591	-0.015309
1374	6.8650e-01	-14.8889	-29.914312	0.000156	1.555949	0.527170	-0.012658
1375	6.8700e-01	-14.9434	-29.996416	0.000202	2.018529	0.683896	-0.016421
1376	6.8750e-01	-14.9723	-30.052435	0.000138	1.377225	0.466617	-0.011204
1377	6.8800e-01	-15.0060	-30.135822	0.000205	2.050068	0.694582	-0.016677
1378	6.8850e-01	-15.0397	-30.217071	0.000200	1.997503	0.676772	-0.016250
1379	6.8900e-01	-15.1247	-30.287202	0.000172	1.724160	0.584161	-0.014026
1380	6.8950e-01	-15.1295	-30.357760	0.000173	1.734673	0.587723	-0.014112
1381	6.9000e-01	-15.1712	-30.453548	0.000235	2.354950	0.797879	-0.019158
1382	6.9050e-01	-15.2338	-30.523251	0.000171	1.713647	0.580599	-0.013941
1383	6.9100e-01	-15.2659	-30.592098	0.000169	1.692621	0.573475	-0.013770
1384	6.9150e-01	-15.3028	-30.668643	0.000188	1.881858	0.637591	-0.015309
1385	6.9200e-01	-15.3429	-30.737491	0.000169	1.692621	0.573475	-0.013770
1386	6.9250e-01	-15.3814	-30.802062	0.000159	1.587489	0.537856	-0.012914
1387	6.9300e-01	-15.3862	-30.896995	0.000233	2.333924	0.790755	-0.018987
1388	6.9350e-01	-15.4456	-30.959001	0.000152	1.524410	0.516484	-0.012401
1389	6.9400e-01	-15.4712	-31.028276	0.000170	1.703134	0.577037	-0.013855
1390	6.9450e-01	-15.5193	-31.115939	0.000216	2.155200	0.730202	-0.017533
1391	6.9500e-01	-15.5675	-31.185642	0.000171	1.713647	0.580599	-0.013941
1392	6.9550e-01	-15.6300	-31.257056	0.000176	1.755700	0.594847	-0.014283
1393	6.9600e-01	-15.6557	-31.329324	0.000178	1.776726	0.601971	-0.014454
1394	6.9650e-01	-15.7119	-31.399882	0.000173	1.734673	0.587723	-0.014112
1395	6.9700e-01	-15.7247	-31.479848	0.000197	1.965963	0.666086	-0.015993
1396	6.9750e-01	-15.7632	-31.553828	0.000182	1.818779	0.616219	-0.014796
1397	6.9800e-01	-15.8161	-31.636787	0.000204	2.039555	0.691020	-0.016592
1398	6.9850e-01	-15.8466	-31.697937	0.000150	1.503383	0.509360	-0.012230
1399	6.9900e-01	-15.8675	-31.771061	0.000180	1.797752	0.609095	-0.014625
1400	6.9950e-01	-15.9140	-31.871981	0.000248	2.481108	0.840622	-0.020184
1401	7.0000e-01	-15.9862	-31.923723	0.000127	1.272094	0.430997	-0.010349
1402	7.0050e-01	-15.9926	-31.987440	0.000157	1.566463	0.530732	-0.012743
1403	7.0100e-01	-16.0728	-32.054149	0.000164	1.640055	0.555666	-0.013342
1404	7.0150e-01	-16.0905	-32.131977	0.000191	1.913397	0.648277	-0.015566
1405	7.0200e-01	-16.1129	-32.234179	0.000251	2.512648	0.851308	-0.020440
1406	7.0250e-01	-16.2011	-32.266251	0.000079	0.788488	0.267147	-0.006414
1407	7.0300e-01	-16.2220	-32.372730	0.000262	2.617780	0.886928	-0.021296
1408	7.0350e-01	-16.2621	-32.446282	0.000181	1.808265	0.612657	-0.014710
1409	7.0400e-01	-16.3295	-32.495031	0.000120	1.198502	0.406063	-0.009750
1410	7.0450e-01	-16.3215	-32.596378	-0.000249	-2.491622	-0.844184	-0.020269
1411	7.0500e-01	-16.3856	-32.663088	0.000164	1.640055	0.555666	-0.013342
1412	7.0550e-01	-16.4145	-32.718679	0.000137	1.366712	0.463055	-0.011118
1413	7.0600e-01	-16.4610	-32.801638	0.000204	2.039555	0.691020	-0.016592
1414	7.0650e-01	-16.5124	-32.863644	0.000152	1.524410	0.516484	-0.012401
1415	7.0700e-01	-16.5011	-32.962853	-0.000244	-2.439056	-0.826374	-0.019842
1416	7.0750e-01	-16.5621	-33.012457	0.000122	1.219528	0.413187	-0.009921
1417	7.0800e-01	-16.5990	-33.109101	0.000238	2.375977	0.805003	-0.019329
1418	7.0850e-01	-16.6728	-33.166402	0.000141	1.408765	0.477302	-0.011460
1419	7.0900e-01	-16.6840	-33.252355	0.000211	2.113147	0.715954	-0.017191
1420	7.0950e-01	-16.7289	-33.305808	0.000131	1.314146	0.445245	-0.010691
1421	7.1000e-01	-16.7562	-33.383209	0.000190	1.902884	0.644715	-0.015480
1422	7.1050e-01	-16.8220	-33.464885	0.000201	2.008016	0.680334	-0.016335
1423	7.1100e-01	-16.8188	-33.542713	-0.000191	-1.913397	-0.648277	-0.015566
1424	7.1150e-01	-16.8846	-33.601725	0.000145	1.450818	0.491550	-0.011802
1425	7.1200e-01	-16.9439	-33.675277	0.000181	1.808265	0.612657	-0.014710
1426	7.1250e-01	-16.9503	-33.762084	0.000213	2.134174	0.723078	-0.017362
1427	7.1300e-01	-17.0113	-33.851458	0.000220	2.197253	0.744449	-0.017875
1428	7.1350e-01	-17.0337	-33.932279	0.000199	1.986989	0.673210	-0.016164
1429	7.1400e-01	-17.0835	-33.960503	0.000069	0.693869	0.235089	-0.005645
1430	7.1450e-01	-17.1284	-34.054153	0.000230	2.302385	0.780069	-0.018730
1431	7.1500e-01	-17.1829	-34.113165	0.000145	1.450818	0.491550	-0.011802
1432	7.1550e-01	-17.2134	-34.191848	0.000193	1.934424	0.655400	-0.015737
1433	7.1600e-01	-17.2696	-34.255564	0.000157	1.566463	0.530732	-0.012743
1434	7.1650e-01	-17.3081	-34.342372	0.000213	2.134174	0.723078	-0.017362
1435	7.1700e-01	-17.3466	-34.400957	0.000144	1.440304	0.487988	-0.011717
1436	7.1750e-01	-17.3642	-34.504014	0.000253	2.533674	0.858432	-0.020612
1437	7.1800e-01	-17.4220	-34.555329	0.000126	1.261581	0.427435	-0.010263
1438	7.1850e-01	-17.4701	-34.627598	0.000178	1.776726	0.601971	-0.014454
1439	7.1900e-01	-17.4749	-34.699439	0.000177	1.766213	0.598409	-0.014368
1440	7.1950e-01	-17.5214	-34.784537	0.000209	2.092121	0.708830	-0.017019
1441	7.2000e-01	-17.5519	-34.869634	0.000209	2.092121	0.708830	-0.017019
1442	7.2050e-01	-17.6049	-34.914962	0.000111	1.114396	0.377568	-0.009066
1443	7.2100e-01	-17.6434	-34.997922	0.000204	2.039555	0.691020	-0.016592
1444	7.2150e-01	-17.6915	-35.053513	0.000137	1.366712	0.463055	-0.011118
1445	7.2200e-01	-17.7091	-35.155288	0.000250	2.502135	0.847746	-0.020355
1446	7.2250e-01	-17.7701	-35.220287	0.000160	1.598002	0.541418	-0.013000
1447	7.2300e-01	-17.8343	-35.273740	0.000131	1.314146	0.445245	-0.010691
1448	7.2350e-01	-17.8647	-35.372949	0.000244	2.439056	0.826374	-0.019842
1449	7.2400e-01	-17.8856	-35.464461	0.000225	2.249819	0.762259	-0.018302
1450	7.2450e-01	-17.9337	-35.518769	0.000134	1.335173	0.452369	-0.010862
1451	7.2500e-01	-17.9658	-35.571367	0.000129	1.293120	0.438121	-0.010520
1452	7.2550e-01	-18.0252	-35.659885	0.000218	2.176226	0.737325	-0.017704
1453	7.2600e-01	-18.0508	-35.746266	0.000212	2.123661	0.719516	-0.017276
1454	7.2650e-01	-18.0845	-35.809982	0.000157	1.566463	0.530732	-0.012743
1455	7.2700e-01	-18.1070	-35.876264	0.000163	1.629542	0.552104	-0.013256
1456	7.2750e-01	-18.2016	-35.952809	0.000188	1.881858	0.637591	-0.015309
1457	7.2800e-01	-18.2129	-36.017808	0.000160	1.598002	0.541418	-0.013000
1458	7.2850e-01	-18.2578	-36.099912	0.000202	2.018529	0.683896	-0.016421
1459	7.2900e-01	-18.3155	-36.151227	0.000126	1.261581	0.427435	-0.010263
1460	7.2950e-01	-18.3412	-36.244449	0.000229	2.291871	0.776507	-0.018644
1461	7.3000e-01	-18.3300	-36.320567	-0.000187	-1.871344	-0.634029	-0.015223
1462	7.3050e-01	-18.4198	-36.380006	0.000146	1.461331	0.495112	-0.011888
1463	7.3100e-01	-18.4423	-36.463393	0.000205	2.050068	0.694582	-0.016677
1464	7.3150e-01	-18.4888	-36.536090	0.000179	1.787239	0.605533	-0.014539
1465	7.3200e-01	-18.5481	-36.611352	0.000185	1.850318	0.626905	-0.015052
1466	7.3250e-01	-18.5931	-36.662239	0.000125	1.251067	0.423873	-0.010177
1467	7.3300e-01	-18.6027	-36.768718	0.000262	2.617780	0.886928	-0.021296
1468	7.3350e-01	-18.6444	-36.832434	0.000157	1.566463	0.530732	-0.012743
1469	7.3400e-01	-18.7134	-36.900426	0.000167	1.671594	0.566351	-0.013598
1470	7.3450e-01	-18.7647	-36.976544	0.000187	1.871344	0.634029	-0.015223
1471	7.3500e-01	-18.8032	-37.028714	0.000128	1.282607	0.434559	-0.010434
1472	7.3550e-01	-18.8305	-37.110818	0.000202	2.018529	0.683896	-0.016421
1473	7.3600e-01	-18.8770	-37.198481	0.000216	2.155200	0.730202	-0.017533
1474	7.3650e-01	-18.8930	-37.256638	0.000143	1.429791	0.484426	-0.011631
1475	7.3700e-01	-18.9316	-37.333183	0.000188	1.881858	0.637591	-0.015309
1476	7.3750e-01	-18.9556	-37.425978	0.000228	2.281358	0.772945	-0.018559
1477	7.3800e-01	-19.0134	-37.484990	0.000145	1.450818	0.491550	-0.011802
1478	7.3850e-01	-19.0551	-37.551700	0.000164	1.640055	0.555666	-0.013342
1479	7.3900e-01	-19.1160	-37.642784	0.000224	2.239305	0.758697	-0.018217
1480	7.3950e-01	-19.1401	-37.691533	0.000120	1.198502	0.406063	-0.009750
1481	7.4000e-01	-19.1690	-37.774065	0.000203	2.029042	0.687458	-0.016506
1482	7.4050e-01	-19.2123	-37.857452	0.000205	2.050068	0.694582	-0.016677
1483	7.4100e-01	-19.2684	-37.939128	0.000201	2.008016	0.680334	-0.016335
1484	7.4150e-01	-19.2845	-38.016101	0.000189	1.892371	0.641153	-0.015395
1485	7.4200e-01	-19.2957	-38.119586	0.000254	2.544187	0.861994	-0.020697
1486	7.4250e-01	-19.3727	-38.149520	0.000074	0.735922	0.249337	-0.005987
1487	7.4300e-01	-19.3984	-38.241887	0.000227	2.270845	0.769383	-0.018473
1488	7.4350e-01	-19.4497	-38.299189	0.000141	1.408765	0.477302	-0.011460
1489	7.4400e-01	-19.5155	-38.356490	0.000141	1.408765	0.477302	-0.011460
1490	7.4450e-01	-19.5347	-38.448430	0.000226	2.260332	0.765821	-0.018388
1491	7.4500e-01	-19.5636	-38.530106	0.000201	2.008016	0.680334	-0.016335
1492	7.4550e-01	-19.6101	-38.599382	0.000170	1.703134	0.577037	-0.013855
1493	7.4600e-01	-19.6470	-38.668229	0.000169	1.692621	0.573475	-0.013770
1494	7.4650e-01	-19.7016	-38.750761	0.000203	2.029042	0.687458	-0.016506
1495	7.4700e-01	-19.7497	-38.817898	0.000165	1.650568	0.559228	-0.013427
1496	7.4750e-01	-19.7962	-38.900430	0.000203	2.029042	0.687458	-0.016506
1497	7.4800e-01	-19.8075	-38.979540	0.000194	1.944937	0.658962	-0.015822
1498	7.4850e-01	-19.8508	-39.033421	0.000132	1.324660	0.448807	-0.010776
1499	7.4900e-01	-19.8684	-39.140328	0.000263	2.628293	0.890490	-0.021381
1500	7.4950e-01	-19.9438	-39.182235	0.000103	1.030291	0.349072	-0.008381
1501	7.5000e-01	-19.9599	-39.268615	0.000212	2.123661	0.719516	-0.017276
1502	7.5050e-01	-19.8973	-39.298977	-0.000075	-0.746435	-0.252899	-0.006072
1503	7.5100e-01	-19.8877	-39.257497	0.000102	1.019778	0.345510	0.008296
1504	7.5150e-01	-19.8235	-39.236116	0.000053	0.525659	0.178098	0.004276
1505	7.5200e-01	-19.8235	-39.139472	-0.000238	-2.375977	-0.805003	0.019329
1506	7.5250e-01	-19.7433	-39.128354	0.000027	0.273342	0.092611	0.002224
1507	7.5300e-01	-19.7176	-39.061217	0.000165	1.650568	0.559228	0.013427
1508	7.5350e-01	-19.6791	-39.027862	0.000082	0.820027	0.277833	0.006671
1509	7.5400e-01	-19.6326	-38.939771	0.000217	2.165713	0.733764	0.017618
1510	7.5450e-01	-19.5700	-38.917107	0.000056	0.557198	0.188784	0.004533
1511	7.5500e-01	-19.5412	-38.839707	0.000190	1.902884	0.644715	0.015480
1512	7.5550e-01	-19.4898	-38.792668	0.000116	1.156449	0.391815	0.009408
1513	7.5600e-01	-19.4770	-38.747340	0.000111	1.114396	0.377568	0.009066
1514	7.5650e-01	-19.4192	-38.697308	0.000123	1.230041	0.416749	0.010006
1515	7.5700e-01	-19.4144	-38.628032	0.000170	1.703134	0.577037	0.013855
1516	7.5750e-01	-19.3599	-38.579283	0.000120	1.198502	0.406063	0.009750
1517	7.5800e-01	-19.3037	-38.529251	0.000123	1.230041	0.416749	0.010006
1518	7.5850e-01	-19.2941	-38.439877	0.000220	2.197253	0.744449	0.017875
1519	7.5900e-01	-19.2412	-38.397970	0.000103	1.030291	0.349072	0.008381
1520	7.5950e-01	-19.1738	-38.374878	0.000057	0.567711	0.192346	0.004618
1521	7.6000e-01	-19.1529	-38.309879	0.000160	1.598002	0.541418	0.013000
1522	7.6050e-01	-19.0856	-38.254288	0.000137	1.366712	0.463055	0.011118
1523	7.6100e-01	-19.0390	-38.205111	0.000121	1.209015	0.409625	0.009835
1524	7.6150e-01	-19.0438	-38.122579	-0.000203	-2.029042	-0.687458	0.016506
1525	7.6200e-01	-18.9636	-38.081527	0.000101	1.009264	0.341948	0.008210
1526	7.6250e-01	-18.9380	-38.013535	0.000167	1.671594	0.566351	0.013598
1527	7.6300e-01	-18.8834	-37.965641	0.000118	1.177475	0.398939	0.009579
1528	7.6350e-01	-18.8594	-37.899359	0.000163	1.629542	0.552104	0.013256
1529	7.6400e-01	-18.8225	-37.826663	0.000179	1.787239	0.605533	0.014539
1530	7.6450e-01	-18.7984	-37.788604	0.000094	0.935672	0.317014	0.007612
1531	7.6500e-01	-18.7551	-37.712487	0.000187	1.871344	0.634029	0.015223
1532	7.6550e-01	-18.6845	-37.671862	0.000100	0.998751	0.338386	0.008125
1533	7.6600e-01	-18.6701	-37.582061	0.000221	2.207766	0.748011	0.017960
1534	7.6650e-01	-18.6107	-37.522194	0.000147	1.471844	0.498674	0.011974
1535	7.6700e-01	-18.5738	-37.465319	0.000140	1.398252	0.473741	0.011375
1536	7.6750e-01	-18.5594	-37.411866	0.000131	1.314146	0.445245	0.010691
1537	7.6800e-01	-18.5193	-37.340880	0.000175	1.745186	0.591285	0.014197
1538	7.6850e-01	-18.4679	-37.301111	0.000098	0.977725	0.331262	0.007954
1539	7.6900e-01	-18.4262	-37.228843	0.000178	1.776726	0.601971	0.014454
1540	7.6950e-01	-18.3588	-37.183087	0.000112	1.124909	0.381130	0.009151
1541	7.7000e-01	-18.3460	-37.102693	0.000198	1.976476	0.669648	0.016079
1542	7.7050e-01	-18.3155	-37.038122	0.000159	1.587489	0.537856	0.012914
1543	7.7100e-01	-18.2979	-36.975688	0.000153	1.534923	0.520046	0.012487
1544	7.7150e-01	-18.2209	-36.911972	0.000157	1.566463	0.530732	0.012743
1545	7.7200e-01	-18.1904	-36.868782	0.000106	1.061830	0.359758	0.008638
1546	7.7250e-01	-18.1679	-36.800362	0.000168	1.682107	0.569913	0.013684
1547	7.7300e-01	-18.1086	-36.742205	0.000143	1.429791	0.484426	0.011631
1548	7.7350e-01	-18.0621	-36.674640	0.000166	1.661081	0.562789	0.013513
1549	7.7400e-01	-18.0171	-36.623753	0.000125	1.251067	0.423873	0.010177
1550	7.7450e-01	-17.9995	-36.542504	0.000200	1.997503	0.676772	0.016250
1551	7.7500e-01	-17.9433	-36.511287	0.000077	0.767462	0.260023	0.006243
1552	7.7550e-01	-17.9161	-36.420631	0.000223	2.228792	0.755135	0.018131
1553	7.7600e-01	-17.8904	-36.336389	0.000207	2.071095	0.701706	0.016848
1554	7.7650e-01	-17.8198	-36.294909	0.000102	1.019778	0.345510	0.008296
1555	7.7700e-01	-17.7925	-36.241456	0.000131	1.314146	0.445245	0.010691
1556	7.7750e-01	-17.7268	-36.173036	0.000168	1.682107	0.569913	0.013684
1557	7.7800e-01	-17.7027	-36.112313	0.000149	1.492870	0.505798	0.012145
1558	7.7850e-01	-17.6706	-36.050735	0.000151	1.513897	0.512922	0.012316
1559	7.7900e-01	-17.6225	-35.981032	0.000171	1.713647	0.580599	0.013941
1560	7.7950e-01	-17.5647	-35.905770	0.000185	1.850318	0.626905	0.015052
1561	7.8000e-01	-17.5503	-35.846758	0.000145	1.450818	0.491550	0.011802
1562	7.8050e-01	-17.5214	-35.776627	0.000172	1.724160	0.584161	0.014026
1563	7.8100e-01	-17.4701	-35.722319	0.000134	1.335173	0.452369	0.010862
1564	7.8150e-01	-17.4284	-35.665872	0.000139	1.387739	0.470179	0.011289
1565	7.8200e-01	-17.3851	-35.597025	0.000169	1.692621	0.573475	0.013770
1566	7.8250e-01	-17.3674	-35.533308	0.000157	1.566463	0.530732	0.012743
1567	7.8300e-01	-17.3081	-35.462750	0.000173	1.734673	0.587723	0.014112
1568	7.8350e-01	-17.2631	-35.407159	0.000137	1.366712	0.463055	0.011118
1569	7.8400e-01	-17.2487	-35.334463	0.000179	1.787239	0.605533	0.014539
1570	7.8450e-01	-17.1861	-35.282292	0.000128	1.282607	0.434559	0.010434
1571	7.8500e-01	-17.1476	-35.219004	0.000156	1.555949	0.527170	0.012658
1572	7.8550e-01	-17.0803	-35.163413	0.000137	1.366712	0.463055	0.011118
1573	7.8600e-01	-17.0706	-35.090716	0.000179	1.787239	0.605533	0.014539
1574	7.8650e-01	-17.0321	-35.027428	0.000156	1.555949	0.527170	0.012658
1575	7.8700e-01	-17.0209	-34.956442	0.000175	1.745186	0.591285	0.014197
1576	7.8750e-01	-16.9664	-34.888022	0.000168	1.682107	0.569913	0.013684
1577	7.8800e-01	-16.8942	-34.833286	0.000135	1.345686	0.455931	0.010947
1578	7.8850e-01	-16.8685	-34.769570	0.000157	1.566463	0.530732	0.012743
1579	7.8900e-01	-16.8332	-34.678913	0.000223	2.228792	0.755135	0.018131
1580	7.8950e-01	-16.7867	-34.618618	0.000148	1.482357	0.502236	0.012059
1581	7.9000e-01	-16.7706	-34.575000	0.000107	1.072343	0.363320	0.008724
1582	7.9050e-01	-16.7081	-34.507008	0.000167	1.671594	0.566351	0.013598
1583	7.9100e-01	-16.6712	-34.430463	0.000188	1.881858	0.637591	0.015309
1584	7.9150e-01	-16.5974	-34.394542	0.000088	0.883106	0.299205	0.007184
1585	7.9200e-01	-16.5509	-34.320135	0.000183	1.829292	0.619781	0.014881
1586	7.9250e-01	-16.5509	-34.242308	-0.000191	-1.913397	-0.648277	0.015566
1587	7.9300e-01	-16.5076	-34.182013	0.000148	1.482357	0.502236	0.012059
1588	7.9350e-01	-16.4787	-34.109316	0.000179	1.787239	0.605533	0.014539
1589	7.9400e-01	-16.4289	-34.041324	0.000167	1.671594	0.566351	0.013598
1590	7.9450e-01	-16.4033	-33.997278	0.000108	1.082857	0.366882	0.008809
1591	7.9500e-01	-16.3535	-33.915174	0.000202	2.018529	0.683896	0.016421
1592	7.9550e-01	-16.2814	-33.875405	0.000098	0.977725	0.331262	0.007954
1593	7.9600e-01	-16.2685	-33.793729	0.000201	2.008016	0.680334	0.016335
1594	7.9650e-01	-16.2364	-33.724026	0.000171	1.713647	0.580599	0.013941
1595	7.9700e-01	-16.1851	-33.654751	0.000170	1.703134	0.577037	0.013855
1596	7.9750e-01	-16.1322	-33.605146	0.000122	1.219528	0.413187	0.009921
1597	7.9800e-01	-16.0921	-33.538436	0.000164	1.640055	0.555666	0.013342
1598	7.9850e-01	-16.0808	-33.454622	0.000206	2.060582	0.698144	0.016763
1599	7.9900e-01	-16.0151	-33.396037	0.000144	1.440304	0.487988	0.011717
1600	7.9950e-01	-16.0022	-33.321203	0.000184	1.839805	0.623343	0.014967
1601	8.0000e-01	-15.9124	-33.257914	0.000156	1.555949	0.527170	0.012658
1602	8.0050e-01	-15.9268	-33.193343	-0.000159	-1.587489	-0.537856	0.012914
1603	8.0100e-01	-15.8691	-33.106107	0.000214	2.144687	0.726640	0.017447
1604	8.0150e-01	-15.8161	-33.062490	0.000107	1.072343	0.363320	0.008724
1605	8.0200e-01	-15.7568	-33.021865	0.000100	0.998751	0.338386	0.008125
1606	8.0250e-01	-15.7279	-32.926932	0.000233	2.333924	0.790755	0.018987
1607	8.0300e-01	-15.6878	-32.884170	0.000105	1.051317	0.356196	0.008553
1608	8.0350e-01	-15.7054	-32.789665	-0.000232	-2.323411	-0.787193	0.018901
1609	8.0400e-01	-15.6268	-32.731080	0.000144	1.440304	0.487988	0.011717
1610	8.0450e-01	-15.6012	-32.654535	0.000188	1.881858	0.637591	0.015309
1611	8.0500e-01	-15.5418	-32.608779	0.000112	1.124909	0.381130	0.009151
1612	8.0550e-01	-15.5161	-32.508715	0.000246	2.460082	0.833498	0.020013
1613	8.0600e-01	-15.4616	-32.458255	0.000124	1.240554	0.420311	0.010092
1614	8.0650e-01	-15.4199	-32.398815	0.000146	1.461331	0.495112	0.011888
1615	8.0700e-01	-15.3637	-32.338092	0.000149	1.492870	0.505798	0.012145
1616	8.0750e-01	-15.3204	-32.251712	0.000212	2.123661	0.719516	0.017276
1617	8.0800e-01	-15.2915	-32.190562	0.000150	1.503383	0.509360	0.012230
1618	8.0850e-01	-15.2883	-32.118293	0.000178	1.776726	0.601971	0.014454
1619	8.0900e-01	-15.2226	-32.046024	0.000178	1.776726	0.601971	0.014454
1620	8.0950e-01	-15.1825	-31.998985	0.000116	1.156449	0.391815	0.009408
1621	8.1000e-01	-15.1456	-31.917737	0.000200	1.997503	0.676772	0.016250
1622	8.1050e-01	-15.0894	-31.855303	0.000153	1.534923	0.520046	0.012487
1623	8.1100e-01	-15.0317	-31.799284	0.000138	1.377225	0.466617	0.011204
1624	8.1150e-01	-15.0172	-31.727443	0.000177	1.766213	0.598409	0.014368
1625	8.1200e-01	-15.0044	-31.647050	0.000198	1.976476	0.669648	0.016079
1626	8.1250e-01	-14.9579	-31.570505	0.000188	1.881858	0.637591	0.015309
1627	8.1300e-01	-14.8937	-31.523894	0.000115	1.145936	0.388254	0.009322
1628	8.1350e-01	-14.8712	-31.461033	0.000155	1.545436	0.523608	0.012572
1629	8.1400e-01	-14.8504	-31.363962	0.000239	2.386490	0.808565	0.019414
1630	8.1450e-01	-14.7718	-31.306660	0.000141	1.408765	0.477302	0.011460
1631	8.1500e-01	-14.7269	-31.252779	0.000132	1.324660	0.448807	0.010776
1632	8.1550e-01	-14.6900	-31.181366	0.000176	1.755700	0.594847	0.014283
1633	8.1600e-01	-14.6595	-31.109525	0.000177	1.766213	0.598409	0.014368
1634	8.1650e-01	-14.6146	-31.053934	0.000137	1.366712	0.463055	0.011118
1635	8.1700e-01	-14.5889	-30.975251	0.000193	1.934424	0.655400	0.015737
1636	8.1750e-01	-14.5167	-30.908969	0.000163	1.629542	0.552104	0.013256
1637	8.1800e-01	-14.5007	-30.847818	0.000150	1.503383	0.509360	0.012230
1638	8.1850e-01	-14.4590	-30.775122	0.000179	1.787239	0.605533	0.014539
1639	8.1900e-01	-14.4381	-30.704136	0.000175	1.745186	0.591285	0.014197
1640	8.1950e-01	-14.3932	-30.618611	0.000210	2.102634	0.712392	0.017105
1641	8.2000e-01	-14.3370	-30.571572	0.000116	1.156449	0.391815	0.009408
1642	8.2050e-01	-14.3322	-30.485192	0.000212	2.123661	0.719516	0.017276
1643	8.2100e-01	-14.2713	-30.433877	0.000126	1.261581	0.427435	0.010263
1644	8.2150e-01	-14.2151	-30.348352	0.000210	2.102634	0.712392	0.017105
1645	8.2200e-01	-14.1734	-30.289340	0.000145	1.450818	0.491550	0.011802
1646	8.2250e-01	-14.1381	-30.225623	0.000157	1.566463	0.530732	0.012743
1647	8.2300e-01	-14.1140	-30.147368	0.000192	1.923910	0.651838	0.015651
1648	8.2350e-01	-14.0499	-30.067830	0.000196	1.955450	0.662524	0.015908
1649	8.2400e-01	-14.0242	-30.009245	0.000144	1.440304	0.487988	0.011717
1650	8.2450e-01	-13.9793	-29.960068	0.000121	1.209015	0.409625	0.009835
1651	8.2500e-01	-13.9777	-29.874971	0.000209	2.092121	0.708830	0.017019
1652	8.2550e-01	-13.8975	-29.812110	0.000155	1.545436	0.523608	0.012572
1653	8.2600e-01	-13.8686	-29.753953	0.000143	1.429791	0.484426	0.011631
1654	8.2650e-01	-13.8221	-29.671421	0.000203	2.029042	0.687458	0.016506
1655	8.2700e-01	-13.7820	-29.595731	0.000186	1.860831	0.630467	0.015138
1656	8.2750e-01	-13.7515	-29.529877	0.000162	1.619028	0.548542	0.013171
1657	8.2800e-01	-13.6937	-29.475569	0.000134	1.335173	0.452369	0.010862
1658	8.2850e-01	-13.6729	-29.401162	0.000183	1.829292	0.619781	0.014881
1659	8.2900e-01	-13.6183	-29.298960	0.000251	2.512648	0.851308	0.020440
1660	8.2950e-01	-13.5830	-29.268598	0.000075	0.746435	0.252899	0.006072
1661	8.3000e-01	-13.5381	-29.180080	0.000218	2.176226	0.737325	0.017704
1662	8.3050e-01	-13.5060	-29.114225	0.000162	1.619028	0.548542	0.013171
1663	8.3100e-01	-13.4675	-29.072318	0.000103	1.030291	0.349072	0.008381
1664	8.3150e-01	-13.4210	-28.977385	0.000233	2.333924	0.790755	0.018987
1665	8.3200e-01	-13.3825	-28.892715	0.000208	2.081608	0.705268	0.016934
1666	8.3250e-01	-13.3536	-28.837979	0.000135	1.345686	0.455931	0.010947
1667	8.3300e-01	-13.3023	-28.762717	0.000185	1.850318	0.626905	0.015052
1668	8.3350e-01	-13.2558	-28.694297	0.000168	1.682107	0.569913	0.013684
1669	8.3400e-01	-13.2606	-28.628015	-0.000163	-1.629542	-0.552104	0.013256
1670	8.3450e-01	-13.1756	-28.551898	0.000187	1.871344	0.634029	0.015223
1671	8.3500e-01	-13.1419	-28.495452	0.000139	1.387739	0.470179	0.011289
1672	8.3550e-01	-13.0873	-28.412065	0.000205	2.050068	0.694582	0.016677
1673	8.3600e-01	-13.0472	-28.350059	0.000152	1.524410	0.516484	0.012401
1674	8.3650e-01	-13.0071	-28.271376	0.000193	1.934424	0.655400	0.015737
1675	8.3700e-01	-12.9446	-28.221344	0.000123	1.230041	0.416749	0.010006
1676	8.3750e-01	-12.9349	-28.128977	0.000227	2.270845	0.769383	0.018473
1677	8.3800e-01	-12.8900	-28.066971	0.000152	1.524410	0.516484	0.012401
1678	8.3850e-01	-12.8467	-28.000689	0.000163	1.629542	0.552104	0.013256
1679	8.3900e-01	-12.8499	-27.893783	-0.000263	-2.628293	-0.890490	0.021381
1680	8.3950e-01	-12.7825	-27.873684	0.000049	0.494119	0.167412	0.004020
1681	8.4000e-01	-12.7585	-27.783456	0.000222	2.218279	0.751573	0.018046
1682	8.4050e-01	-12.6766	-27.735134	0.000119	1.187988	0.402501	0.009664
1683	8.4100e-01	-12.6365	-27.644050	0.000224	2.239305	0.758697	0.018217
1684	8.4150e-01	-12.6414	-27.588458	-0.000137	-1.366712	-0.463055	0.011118
1685	8.4200e-01	-12.6109	-27.504216	0.000207	2.071095	0.701706	0.016848
1686	8.4250e-01	-12.5515	-27.439645	0.000159	1.587489	0.537856	0.012914
1687	8.4300e-01	-12.5050	-27.378067	0.000151	1.513897	0.512922	0.012316
1688	8.4350e-01	-12.4505	-27.307936	0.000172	1.724160	0.584161	0.014026
1689	8.4400e-01	-12.4312	-27.227543	0.000198	1.976476	0.669648	0.016079
1690	8.4450e-01	-12.4039	-27.161688	0.000162	1.619028	0.548542	0.013171
1691	8.4500e-01	-12.3093	-27.094551	0.000165	1.650568	0.559228	0.013427
1692	8.4550e-01	-12.2708	-27.015441	0.000194	1.944937	0.658962	0.015822
1693	8.4600e-01	-12.2708	-26.938896	-0.000188	-1.881858	-0.637591	0.015309
1694	8.4650e-01	-12.2307	-26.890146	0.000120	1.198502	0.406063	0.009750
1695	8.4700e-01	-12.2066	-26.820871	0.000170	1.703134	0.577037	0.013855
1696	8.4750e-01	-12.1344	-26.752023	0.000169	1.692621	0.573475	0.013770
1697	8.4800e-01	-12.1055	-26.677617	0.000183	1.829292	0.619781	0.014881
1698	8.4850e-01	-12.0542	-26.580118	0.000240	2.397003	0.812127	0.019500
1699	8.4900e-01	-12.0317	-26.510843	0.000170	1.703134	0.577037	0.013855
1700	8.4950e-01	-11.9948	-26.459100	0.000127	1.272094	0.430997	0.010349
1701	8.5000e-01	-11.9499	-26.381700	0.000190	1.902884	0.644715	0.015480
1702	8.5050e-01	-11.9066	-26.295320	0.000212	2.123661	0.719516	0.017276
1703	8.5100e-01	-11.8617	-26.236735	0.000144	1.440304	0.487988	0.011717
1704	8.5150e-01	-11.7799	-26.177723	0.000145	1.450818	0.491550	0.011802
1705	8.5200e-01	-11.7815	-26.083217	-0.000232	-2.323411	-0.787193	0.018901
1706	8.5250e-01	-11.7398	-26.014370	0.000169	1.692621	0.573475	0.013770
1707	8.5300e-01	-11.7045	-25.947660	0.000164	1.640055	0.555666	0.013342
1708	8.5350e-01	-11.6531	-25.882661	0.000160	1.598002	0.541418	0.013000
1709	8.5400e-01	-11.5906	-25.836478	0.000114	1.135422	0.384692	0.009237
1710	8.5450e-01	-11.5986	-25.745821	-0.000223	-2.228792	-0.755135	0.018131
1711	8.5500e-01	-11.5328	-25.653026	0.000228	2.281358	0.772945	0.018559
1712	8.5550e-01	-11.4975	-25.577337	0.000186	1.860831	0.630467	0.015138
1713	8.5600e-01	-11.4719	-25.511482	0.000162	1.619028	0.548542	0.013171
1714	8.5650e-01	-11.4157	-25.471713	0.000098	0.977725	0.331262	0.007954
1715	8.5700e-01	-11.3756	-25.358393	0.000279	2.785990	0.943919	0.022664
1716	8.5750e-01	-11.3580	-25.290400	0.000167	1.671594	0.566351	0.013598
1717	8.5800e-01	-11.3339	-25.215993	0.000183	1.829292	0.619781	0.014881
1718	8.5850e-01	-11.2681	-25.185204	0.000076	0.756948	0.256461	0.006158
1719	8.5900e-01	-11.2360	-25.073594	0.000274	2.743938	0.929671	0.022322
1720	8.5950e-01	-11.1671	-25.006885	0.000164	1.640055	0.555666	0.013342
1721	8.6000e-01	-11.1398	-24.932905	0.000182	1.818779	0.616219	0.014796
1722	8.6050e-01	-11.0869	-24.893564	0.000097	0.967212	0.327700	0.007868
1723	8.6100e-01	-11.0692	-24.804190	0.000220	2.197253	0.744449	0.017875
1724	8.6150e-01	-11.0259	-24.713534	0.000223	2.228792	0.755135	0.018131
1725	8.6200e-01	-10.9858	-24.668205	0.000111	1.114396	0.377568	0.009066
1726	8.6250e-01	-10.9441	-24.580115	0.000217	2.165713	0.733764	0.017618
1727	8.6300e-01	-10.9008	-24.509556	0.000173	1.734673	0.587723	0.014112
1728	8.6350e-01	-10.8655	-24.441564	0.000167	1.671594	0.566351	0.013598
1729	8.6400e-01	-10.8302	-24.358177	0.000205	2.050068	0.694582	0.016677
1730	8.6450e-01	-10.7708	-24.308145	0.000123	1.230041	0.416749	0.010006
1731	8.6500e-01	-10.7692	-24.208081	0.000246	2.460082	0.833498	0.020013
1732	8.6550e-01	-10.6714	-24.162752	0.000111	1.114396	0.377568	0.009066
1733	8.6600e-01	-10.6585	-24.073806	0.000219	2.186740	0.740887	0.017789
1734	8.6650e-01	-10.6329	-23.995123	0.000193	1.934424	0.655400	0.015737
1735	8.6700e-01	-10.6056	-23.936539	0.000144	1.440304	0.487988	0.011717
1736	8.6750e-01	-10.5719	-23.839040	0.000240	2.397003	0.812127	0.019500
1737	8.6800e-01	-10.4933	-23.784304	0.000135	1.345686	0.455931	0.010947
1738	8.6850e-01	-10.4708	-23.703483	0.000199	1.986989	0.673210	0.016164
1739	8.6900e-01	-10.4243	-23.646609	0.000140	1.398252	0.473741	0.011375
1740	8.6950e-01	-10.3649	-23.579044	0.000166	1.661081	0.562789	0.013513
1741	8.7000e-01	-10.3345	-23.503354	0.000186	1.860831	0.630467	0.015138
1742	8.7050e-01	-10.2735	-23.437500	0.000162	1.619028	0.548542	0.013171
1743	8.7100e-01	-10.2767	-23.340001	-0.000240	-2.397003	-0.812127	0.019500
1744	8.7150e-01	-10.2575	-23.267305	0.000179	1.787239	0.605533	0.014539
1745	8.7200e-01	-10.1805	-23.203161	0.000158	1.576976	0.534294	0.012829
1746	8.7250e-01	-10.1275	-23.133458	0.000171	1.713647	0.580599	0.013941
1747	8.7300e-01	-10.0762	-23.056058	0.000190	1.902884	0.644715	0.015480
1748	8.7350e-01	-10.0521	-22.976520	0.000196	1.955450	0.662524	0.015908
1749	8.7400e-01	-10.0249	-22.911521	0.000160	1.598002	0.541418	0.013000
1750	8.7450e-01	-9.9896	-22.814450	0.000239	2.386490	0.808565	0.019414
1751	8.7500e-01	-9.9286	-22.777246	0.000091	0.914646	0.309890	0.007441
1752	8.7550e-01	-9.8965	-22.693860	0.000205	2.050068	0.694582	0.016677
1753	8.7600e-01	-9.8612	-22.595933	0.000241	2.407516	0.815689	0.019585
1754	8.7650e-01	-9.8259	-22.548467	0.000117	1.166962	0.395377	0.009493
1755	8.7700e-01	-9.7970	-22.478336	0.000172	1.724160	0.584161	0.014026
1756	8.7750e-01	-9.7489	-22.397515	0.000199	1.986989	0.673210	0.016164
1757	8.7800e-01	-9.6912	-22.319687	0.000191	1.913397	0.648277	0.015566
1758	8.7850e-01	-9.6479	-22.249984	0.000171	1.713647	0.580599	0.013941
1759	8.7900e-01	-9.6318	-22.184558	0.000161	1.608515	0.544980	0.013085
1760	8.7950e-01	-9.5773	-22.079362	0.000259	2.586240	0.876242	0.021039
1761	8.8000e-01	-9.5356	-22.024198	0.000136	1.356199	0.459493	0.011033
1762	8.8050e-01	-9.4906	-21.950219	0.000182	1.818779	0.616219	0.014796
1763	8.8100e-01	-9.4553	-21.879233	0.000175	1.745186	0.591285	0.014197
1764	8.8150e-01	-9.4425	-21.788149	0.000224	2.239305	0.758697	0.018217
1765	8.8200e-01	-9.4008	-21.722723	0.000161	1.608515	0.544980	0.013085
1766	8.8250e-01	-9.3334	-21.672263	0.000124	1.240554	0.420311	0.010092
1767	8.8300e-01	-9.3094	-21.570488	0.000250	2.502135	0.847746	0.020355
1768	8.8350e-01	-9.2837	-21.484963	0.000210	2.102634	0.712392	0.017105
1769	8.8400e-01	-9.2436	-21.427661	0.000141	1.408765	0.477302	0.011460
1770	8.8450e-01	-9.2083	-21.354537	0.000180	1.797752	0.609095	0.014625
1771	8.8500e-01	-9.1233	-21.300656	0.000132	1.324660	0.448807	0.010776
1772	8.8550e-01	-9.0928	-21.200164	0.000247	2.470595	0.837060	0.020098
1773	8.8600e-01	-9.0655	-21.147994	0.000128	1.282607	0.434559	0.010434
1774	8.8650e-01	-9.0174	-21.051778	0.000237	2.365464	0.801441	0.019243
1775	8.8700e-01	-9.0078	-20.983786	0.000167	1.671594	0.566351	0.013598
1776	8.8750e-01	-8.9404	-20.918787	0.000160	1.598002	0.541418	0.013000
1777	8.8800e-01	-8.9019	-20.848656	0.000172	1.724160	0.584161	0.014026
1778	8.8850e-01	-8.8249	-20.758855	0.000221	2.207766	0.748011	0.017960
1779	8.8900e-01	-8.8393	-20.695139	-0.000157	-1.566463	-0.530732	0.012743
1780	8.8950e-01	-8.7864	-20.616028	0.000194	1.944937	0.658962	0.015822
1781	8.9000e-01	-8.7703	-20.531358	0.000208	2.081608	0.705268	0.016934
1782	8.9050e-01	-8.6869	-20.483464	0.000118	1.177475	0.398939	0.009579
1783	8.9100e-01	-8.6645	-20.403926	0.000196	1.955450	0.662524	0.015908
1784	8.9150e-01	-8.6163	-20.321394	0.000203	2.029042	0.687458	0.016506
1785	8.9200e-01	-8.5810	-20.249553	0.000177	1.766213	0.598409	0.014368
1786	8.9250e-01	-8.5409	-20.167877	0.000201	2.008016	0.680334	0.016335
1787	8.9300e-01	-8.5169	-20.065247	0.000252	2.523161	0.854870	0.020526
1788	8.9350e-01	-8.4607	-20.025478	0.000098	0.977725	0.331262	0.007954
1789	8.9400e-01	-8.4078	-19.943374	0.000202	2.018529	0.683896	0.016421
1790	8.9450e-01	-8.3741	-19.858704	0.000208	2.081608	0.705268	0.016934
1791	8.9500e-01	-8.3372	-19.806961	0.000127	1.272094	0.430997	0.010349
1792	8.9550e-01	-8.3083	-19.710746	0.000237	2.365464	0.801441	0.019243
1793	8.9600e-01	-8.2522	-19.655154	0.000137	1.366712	0.463055	0.011118
1794	8.9650e-01	-8.2201	-19.570057	0.000209	2.092121	0.708830	0.017019
1795	8.9700e-01	-8.2024	-19.490519	0.000196	1.955450	0.662524	0.015908
1796	8.9750e-01	-8.1303	-19.400290	0.000222	2.218279	0.751573	0.018046
1797	8.9800e-01	-8.1222	-19.329304	0.000175	1.745186	0.591285	0.014197
1798	8.9850e-01	-8.0581	-19.276706	0.000129	1.293120	0.438121	0.010520
1799	8.9900e-01	-8.0276	-19.188188	0.000218	2.176226	0.737325	0.017704
1800	8.9950e-01	-7.9971	-19.103945	0.000207	2.071095	0.701706	0.016848
1801	9.0000e-01	-7.9377	-19.052630	0.000126	1.261581	0.427435	0.010263
1802	9.0050e-01	-7.9217	-18.966250	0.000212	2.123661	0.719516	0.017276
1803	9.0100e-01	-7.8688	-18.877732	0.000218	2.176226	0.737325	0.017704
1804	9.0150e-01	-7.8174	-18.825989	0.000127	1.272094	0.430997	0.010349
1805	9.0200e-01	-7.7966	-18.716517	0.000269	2.691372	0.911861	0.021894
1806	9.0250e-01	-7.7244	-18.683590	0.000081	0.809514	0.274271	0.006585
1807	9.0300e-01	-7.7099	-18.595071	0.000218	2.176226	0.737325	0.017704
1808	9.0350e-01	-7.6586	-18.506125	0.000219	2.186740	0.740887	0.017789
1809	9.0400e-01	-7.6297	-18.443692	0.000153	1.534923	0.520046	0.012487
1810	9.0450e-01	-7.5463	-18.370140	0.000181	1.808265	0.612657	0.014710
1811	9.0500e-01	-7.5431	-18.283332	0.000213	2.134174	0.723078	0.017362
1812	9.0550e-01	-7.4886	-18.203794	0.000196	1.955450	0.662524	0.015908
1813	9.0600e-01	-7.4565	-18.150341	0.000131	1.314146	0.445245	0.010691
1814	9.0650e-01	-7.4180	-18.054553	0.000235	2.354950	0.797879	0.019158
1815	9.0700e-01	-7.3987	-17.975442	0.000194	1.944937	0.658962	0.015822
1816	9.0750e-01	-7.3586	-17.930969	0.000109	1.093370	0.370444	0.008895
1817	9.0800e-01	-7.3041	-17.842878	0.000217	2.165713	0.733764	0.017618
1818	9.0850e-01	-7.2415	-17.770610	0.000178	1.776726	0.601971	0.014454
1819	9.0900e-01	-7.2223	-17.676960	0.000230	2.302385	0.780069	0.018730
1820	9.0950e-01	-7.1741	-17.630349	0.000115	1.145936	0.388254	0.009322
1821	9.1000e-01	-7.1292	-17.546106	0.000207	2.071095	0.701706	0.016848
1822	9.1050e-01	-7.0955	-17.464858	0.000200	1.997503	0.676772	0.016250
1823	9.1100e-01	-7.0666	-17.370352	0.000232	2.323411	0.787193	0.018901
1824	9.1150e-01	-7.0201	-17.291242	0.000194	1.944937	0.658962	0.015822
1825	9.1200e-01	-6.9752	-17.236078	0.000136	1.356199	0.459493	0.011033
1826	9.1250e-01	-6.9351	-17.152264	0.000206	2.060582	0.698144	0.016763
1827	9.1300e-01	-6.8918	-17.076574	0.000186	1.860831	0.630467	0.015138
1828	9.1350e-01	-6.8565	-16.988911	0.000216	2.155200	0.730202	0.017533
1829	9.1400e-01	-6.8421	-16.909800	0.000194	1.944937	0.658962	0.015822
1830	9.1450e-01	-6.8019	-16.825130	0.000208	2.081608	0.705268	0.016934
1831	9.1500e-01	-6.7410	-16.754572	0.000173	1.734673	0.587723	0.014112
1832	9.1550e-01	-6.7009	-16.673751	0.000199	1.986989	0.673210	0.016164
1833	9.1600e-01	-6.7057	-16.601482	-0.000178	-1.776726	-0.601971	0.014454
1834	9.1650e-01	-6.6319	-16.540332	0.000150	1.503383	0.509360	0.012230
1835	9.1700e-01	-6.5790	-16.461221	0.000194	1.944937	0.658962	0.015822
1836	9.1750e-01	-6.5453	-16.383393	0.000191	1.913397	0.648277	0.015566
1837	9.1800e-01	-6.5036	-16.293164	0.000222	2.218279	0.751573	0.018046
1838	9.1850e-01	-6.4618	-16.240139	0.000130	1.303633	0.441683	0.010605
1839	9.1900e-01	-6.4522	-16.136226	0.000255	2.554701	0.865556	0.020783
1840	9.1950e-01	-6.4057	-16.025043	0.000273	2.733425	0.926109	0.022237
1841	9.2000e-01	-6.3287	-16.001952	0.000057	0.567711	0.192346	0.004618
1842	9.2050e-01	-6.2918	-15.932249	0.000171	1.713647	0.580599	0.013941
1843	9.2100e-01	-6.2517	-15.874519	0.000142	1.419278	0.480864	0.011546
1844	9.2150e-01	-6.2549	-15.764620	-0.000270	-2.701885	-0.915423	0.021980
1845	9.2200e-01	-6.1715	-15.718436	0.000114	1.135422	0.384692	0.009237
1846	9.2250e-01	-6.1234	-15.610247	0.000266	2.659832	0.901176	0.021638
1847	9.2300e-01	-6.1121	-15.537551	0.000179	1.787239	0.605533	0.014539
1848	9.2350e-01	-6.0688	-15.455874	0.000201	2.008016	0.680334	0.016335
1849	9.2400e-01	-6.0351	-15.373342	0.000203	2.029042	0.687458	0.016506
1850	9.2450e-01	-5.9806	-15.315613	0.000142	1.419278	0.480864	0.011546
1851	9.2500e-01	-5.9405	-15.225384	0.000222	2.218279	0.751573	0.018046
1852	9.2550e-01	-5.9180	-15.159957	0.000161	1.608515	0.544980	0.013085
1853	9.2600e-01	-5.8827	-15.073149	0.000213	2.134174	0.723078	0.017362
1854	9.2650e-01	-5.8282	-14.986769	0.000212	2.123661	0.719516	0.017276
1855	9.2700e-01	-5.7849	-14.926474	0.000148	1.482357	0.502236	0.012059
1856	9.2750e-01	-5.7207	-14.849501	0.000189	1.892371	0.641153	0.015395
1857	9.2800e-01	-5.7159	-14.763549	0.000211	2.113147	0.715954	0.017191
1858	9.2850e-01	-5.6469	-14.701971	0.000151	1.513897	0.512922	0.012316
1859	9.2900e-01	-5.6004	-14.613025	0.000219	2.186740	0.740887	0.017789
1860	9.2950e-01	-5.5795	-14.555295	0.000142	1.419278	0.480864	0.011546
1861	9.3000e-01	-5.5651	-14.458652	0.000238	2.375977	0.805003	0.019329
1862	9.3050e-01	-5.5121	-14.382535	0.000187	1.871344	0.634029	0.015223
1863	9.3100e-01	-5.4592	-14.290168	0.000227	2.270845	0.769383	0.018473
1864	9.3150e-01	-5.4480	-14.216188	0.000182	1.818779	0.616219	0.014796
1865	9.3200e-01	-5.3998	-14.123394	0.000228	2.281358	0.772945	0.018559
1866	9.3250e-01	-5.3533	-14.076355	0.000116	1.156449	0.391815	0.009408
1867	9.3300e-01	-5.3244	-13.971587	0.000258	2.575727	0.872680	0.020954
1868	9.3350e-01	-5.2555	-13.916851	0.000135	1.345686	0.455931	0.010947
1869	9.3400e-01	-5.2282	-13.827477	0.000220	2.197253	0.744449	0.017875
1870	9.3450e-01	-5.1769	-13.743235	0.000207	2.071095	0.701706	0.016848
1871	9.3500e-01	-5.1351	-13.645736	0.000240	2.397003	0.812127	0.019500
1872	9.3550e-01	-5.1159	-13.602119	0.000107	1.072343	0.363320	0.008724
1873	9.3600e-01	-5.0726	-13.503337	0.000243	2.428543	0.822812	0.019756
1874	9.3650e-01	-5.0309	-13.443897	0.000146	1.461331	0.495112	0.011888
1875	9.3700e-01	-4.9779	-13.376760	0.000165	1.650568	0.559228	0.013427
1876	9.3750e-01	-4.9314	-13.291663	0.000209	2.092121	0.708830	0.017019
1877	9.3800e-01	-4.9234	-13.201861	0.000221	2.207766	0.748011	0.017960
1878	9.3850e-01	-4.8785	-13.128737	0.000180	1.797752	0.609095	0.014625
1879	9.3900e-01	-4.8271	-13.041502	0.000214	2.144687	0.726640	0.017447
1880	9.3950e-01	-4.7758	-12.977358	0.000158	1.576976	0.534294	0.012829
1881	9.4000e-01	-4.7373	-12.900385	0.000189	1.892371	0.641153	0.015395
1882	9.4050e-01	-4.7004	-12.828117	0.000178	1.776726	0.601971	0.014454
1883	9.4100e-01	-4.6683	-12.740026	0.000217	2.165713	0.733764	0.017618
1884	9.4150e-01	-4.6282	-12.665192	0.000184	1.839805	0.623343	0.014967
1885	9.4200e-01	-4.5753	-12.580522	0.000208	2.081608	0.705268	0.016934
1886	9.4250e-01	-4.5721	-12.495424	0.000209	2.092121	0.708830	0.017019
1887	9.4300e-01	-4.5127	-12.407334	0.000217	2.165713	0.733764	0.017618
1888	9.4350e-01	-4.4726	-12.347038	0.000148	1.482357	0.502236	0.012059
1889	9.4400e-01	-4.4084	-12.288026	0.000145	1.450818	0.491550	0.011802
1890	9.4450e-01	-4.4052	-12.184541	0.000254	2.544187	0.861994	0.020697
1891	9.4500e-01	-4.3443	-12.115265	0.000170	1.703134	0.577037	0.013855
1892	9.4550e-01	-4.3346	-12.021188	0.000231	2.312898	0.783631	0.018816
1893	9.4600e-01	-4.2592	-11.959182	0.000152	1.524410	0.516484	0.012401
1894	9.4650e-01	-4.2304	-11.867670	0.000225	2.249819	0.762259	0.018302
1895	9.4700e-01	-4.1903	-11.795402	0.000178	1.776726	0.601971	0.014454
1896	9.4750e-01	-4.1437	-11.715436	0.000197	1.965963	0.666086	0.015993
1897	9.4800e-01	-4.1133	-11.641457	0.000182	1.818779	0.616219	0.014796
1898	9.4850e-01	-4.0475	-11.557214	0.000207	2.071095	0.701706	0.016848
1899	9.4900e-01	-3.9961	-11.488794	0.000168	1.682107	0.569913	0.013684
1900	9.4950e-01	-3.9994	-11.378895	-0.000270	-2.701885	-0.915423	0.021980
1901	9.5000e-01	-3.9641	-11.297646	0.000200	1.997503	0.676772	0.016250
1902	9.5050e-01	-3.9095	-11.242910	0.000135	1.345686	0.455931	0.010947
1903	9.5100e-01	-3.8582	-11.162944	0.000197	1.965963	0.666086	0.015993
1904	9.5150e-01	-3.8309	-11.060314	0.000252	2.523161	0.854870	0.020526
1905	9.5200e-01	-3.7716	-11.006861	0.000131	1.314146	0.445245	0.010691
1906	9.5250e-01	-3.7539	-10.917915	0.000219	2.186740	0.740887	0.017789
1907	9.5300e-01	-3.7234	-10.825975	0.000226	2.260332	0.765821	0.018388
1908	9.5350e-01	-3.6272	-10.793476	0.000080	0.799001	0.270709	0.006500
1909	9.5400e-01	-3.6384	-10.682293	-0.000273	-2.733425	-0.926109	0.022237
1910	9.5450e-01	-3.5823	-10.600617	0.000201	2.008016	0.680334	0.016335
1911	9.5500e-01	-3.5694	-10.514236	0.000212	2.123661	0.719516	0.017276
1912	9.5550e-01	-3.4956	-10.451376	0.000155	1.545436	0.523608	0.012572
1913	9.5600e-01	-3.4684	-10.370127	0.000200	1.997503	0.676772	0.016250
1914	9.5650e-01	-3.4298	-10.289306	0.000199	1.986989	0.673210	0.016164
1915	9.5700e-01	-3.3785	-10.215754	0.000181	1.808265	0.612657	0.014710
1916	9.5750e-01	-3.3625	-10.131512	0.000207	2.071095	0.701706	0.016848
1917	9.5800e-01	-3.2903	-10.051546	0.000197	1.965963	0.666086	0.015993
1918	9.5850e-01	-3.2855	-9.978422	0.000180	1.797752	0.609095	0.014625
1919	9.5900e-01	-3.2357	-9.895890	0.000203	2.029042	0.687458	0.016506
1920	9.5950e-01	-3.1764	-9.799675	0.000237	2.365464	0.801441	0.019243
1921	9.6000e-01	-3.1908	-9.718426	-0.000200	-1.997503	-0.676772	0.016250
1922	9.6050e-01	-3.0898	-9.663690	0.000135	1.345686	0.455931	0.010947
1923	9.6100e-01	-3.0785	-9.569185	0.000232	2.323411	0.787193	0.018901
1924	9.6150e-01	-3.0320	-9.487081	0.000202	2.018529	0.683896	0.016421
1925	9.6200e-01	-2.9935	-9.411391	0.000186	1.860831	0.630467	0.015138
1926	9.6250e-01	-2.9598	-9.318169	0.000229	2.291871	0.776507	0.018644
1927	9.6300e-01	-2.8844	-9.252742	0.000161	1.608515	0.544980	0.013085
1928	9.6350e-01	-2.8443	-9.193730	0.000145	1.450818	0.491550	0.011802
1929	9.6400e-01	-2.8234	-9.104356	0.000220	2.197253	0.744449	0.017875
1930	9.6450e-01	-2.7817	-9.014127	0.000222	2.218279	0.751573	0.018046
1931	9.6500e-01	-2.7224	-8.942286	0.000177	1.766213	0.598409	0.014368
1932	9.6550e-01	-2.7031	-8.837090	0.000259	2.586240	0.876242	0.021039
1933	9.6600e-01	-2.6614	-8.773374	0.000157	1.566463	0.530732	0.012743
1934	9.6650e-01	-2.5908	-8.698540	0.000184	1.839805	0.623343	0.014967
1935	9.6700e-01	-2.5764	-8.619429	0.000194	1.944937	0.658962	0.015822
1936	9.6750e-01	-2.5347	-8.532621	0.000213	2.134174	0.723078	0.017362
1937	9.6800e-01	-2.5010	-8.457359	0.000185	1.850318	0.626905	0.015052
1938	9.6850e-01	-2.4753	-8.368840	0.000218	2.176226	0.737325	0.017704
1939	9.6900e-01	-2.4561	-8.283743	0.000209	2.092121	0.708830	0.017019
1940	9.6950e-01	-2.4112	-8.215751	0.000167	1.671594	0.566351	0.013598
1941	9.7000e-01	-2.3486	-8.112265	0.000254	2.544187	0.861994	0.020697
1942	9.7050e-01	-2.2941	-8.054963	0.000141	1.408765	0.477302	0.011460
1943	9.7100e-01	-2.2652	-7.986971	0.000167	1.671594	0.566351	0.013598
1944	9.7150e-01	-2.2315	-7.898880	0.000217	2.165713	0.733764	0.017618
1945	9.7200e-01	-2.1882	-7.818914	0.000197	1.965963	0.666086	0.015993
1946	9.7250e-01	-2.1481	-7.719278	0.000245	2.449569	0.829936	0.019927
1947	9.7300e-01	-2.1240	-7.645298	0.000182	1.818779	0.616219	0.014796
1948	9.7350e-01	-2.0663	-7.551221	0.000231	2.312898	0.783631	0.018816
1949	9.7400e-01	-2.0133	-7.481946	0.000170	1.703134	0.577037	0.013855
1950	9.7450e-01	-1.9812	-7.399414	0.000203	2.029042	0.687458	0.016506
1951	9.7500e-01	-1.9556	-7.336981	0.000153	1.534923	0.520046	0.012487
1952	9.7550e-01	-1.9251	-7.237344	0.000245	2.449569	0.829936	0.019927
1953	9.7600e-01	-1.8689	-7.155240	0.000202	2.018529	0.683896	0.016421
1954	9.7650e-01	-1.8320	-7.072281	0.000204	2.039555	0.691020	0.016592
1955	9.7700e-01	-1.7759	-7.017972	0.000134	1.335173	0.452369	0.010862
1956	9.7750e-01	-1.7278	-6.924750	0.000229	2.291871	0.776507	0.018644
1957	9.7800e-01	-1.7181	-6.852481	0.000178	1.776726	0.601971	0.014454
1958	9.7850e-01	-1.6957	-6.749424	0.000253	2.533674	0.858432	0.020612
1959	9.7900e-01	-1.6074	-6.677155	0.000178	1.776726	0.601971	0.014454
1960	9.7950e-01	-1.6010	-6.602320	0.000184	1.839805	0.623343	0.014967
1961	9.8000e-01	-1.5433	-6.522782	0.000196	1.955450	0.662524	0.015908
1962	9.8050e-01	-1.5080	-6.455645	0.000165	1.650568	0.559228	0.013427
1963	9.8100e-01	-1.4679	-6.341469	0.000281	2.807017	0.951043	0.022835
1964	9.8150e-01	-1.4165	-6.281601	0.000147	1.471844	0.498674	0.011974
1965	9.8200e-01	-1.3796	-6.194794	0.000213	2.134174	0.723078	0.017362
1966	9.8250e-01	-1.3347	-6.124663	0.000172	1.724160	0.584161	0.014026
1967	9.8300e-01	-1.2882	-6.049829	0.000184	1.839805	0.623343	0.014967
1968	9.8350e-01	-1.2561	-5.947626	0.000251	2.512648	0.851308	0.020440
1969	9.8400e-01	-1.2176	-5.860818	0.000213	2.134174	0.723078	0.017362
1970	9.8450e-01	-1.1903	-5.794536	0.000163	1.629542	0.552104	0.013256
1971	9.8500e-01	-1.1358	-5.719702	0.000184	1.839805	0.623343	0.014967
1972	9.8550e-01	-1.1165	-5.618355	0.000249	2.491622	0.844184	0.020269
1973	9.8600e-01	-1.0829	-5.526843	0.000225	2.249819	0.762259	0.018302
1974	9.8650e-01	-1.0075	-5.475955	0.000125	1.251067	0.423873	0.010177
1975	9.8700e-01	-0.9609	-5.399411	0.000188	1.881858	0.637591	0.015309
1976	9.8750e-01	-0.9690	-5.301484	-0.000241	-2.407516	-0.815689	0.019585
1977	9.8800e-01	-0.8936	-5.224512	0.000189	1.892371	0.641153	0.015395
1978	9.8850e-01	-0.8454	-5.150533	0.000182	1.818779	0.616219	0.014796
1979	9.8900e-01	-0.8663	-5.033791	-0.000287	-2.870096	-0.972415	0.023348
1980	9.8950e-01	-0.7684	-4.977344	0.000139	1.387739	0.470179	0.011289
1981	9.9000e-01	-0.7379	-4.903793	0.000181	1.808265	0.612657	0.014710
1982	9.9050e-01	-0.6914	-4.828103	0.000186	1.860831	0.630467	0.015138
1983	9.9100e-01	-0.6609	-4.728039	0.000246	2.460082	0.833498	0.020013
1984	9.9150e-01	-0.6160	-4.663040	0.000160	1.598002	0.541418	0.013000
1985	9.9200e-01	-0.5727	-4.578798	0.000207	2.071095	0.701706	0.016848
1986	9.9250e-01	-0.5278	-4.483010	0.000235	2.354950	0.797879	0.019158
1987	9.9300e-01	-0.4957	-4.408175	0.000184	1.839805	0.623343	0.014967
1988	9.9350e-01	-0.4636	-4.320512	0.000216	2.155200	0.730202	0.017533
1989	9.9400e-01	-0.4428	-4.220448	0.000246	2.460082	0.833498	0.020013
1990	9.9450e-01	-0.3674	-4.153738	0.000164	1.640055	0.555666	0.013342
1991	9.9500e-01	-0.3273	-4.094726	0.000145	1.450818	0.491550	0.011802
1992	9.9550e-01	-0.2984	-3.999365	0.000234	2.344437	0.794317	0.019072
1993	9.9600e-01	-0.2711	-3.898873	0.000247	2.470595	0.837060	0.020098
1994	9.9650e-01	-0.2406	-3.802230	0.000238	2.375977	0.805003	0.019329
1995	9.9700e-01	-0.1925	-3.764171	0.000094	0.935672	0.317014	0.007612
1996	9.9750e-01	-0.1476	-3.671804	0.000227	2.270845	0.769383	0.018473
1997	9.9800e-01	-0.1171	-3.575161	0.000238	2.375977	0.805003	0.019329
1998	9.9850e-01	-0.0417	-3.509734	0.000161	1.608515	0.544980	0.013085
1999	9.9900e-01	-0.0257	-3.429341	0.000198	1.976476	0.669648	0.016079
2000	9.9950e-01	0.0016	-3.331842	0.000240	2.397003	0.812127	0.019500
2001	1.0000e+00	0.0722	-3.302764	0.000240	2.397003	0.812127	0.005816

PMax (uC/cm2):	4.12e+01
Pr (uC/cm2):	1.42e+00
-Pr (uC/cm2):	-1.35e+00
PLoss (uC/cm2):	-1.38e+00
-Vc:	-7.16e-01
C (Max-Eff) (nF):	2.06e-01
K (Eff):	6.97e+02
Vert. (+/-Pr) Shift (uC/cm2):	3.36e-02
Offset (uC/cm2):	1.95e+00

A (Loop Area - uC/cm2·Volts):	1.40e-01



Hysteresis Version: 5.48.1 - Radiant Technologies, Inc., 1999 - 9/12/24

