»»»»»»»»»»»»»»»»»»»»»»»»»»»»»»»»»»»» Hysteresis ««««««««««««««««««««««««««««««««««««
»»»  Executed Version:	5.48.1
»»»  Vision Version:	5.48.4 (R)
»»»  Vision Compiled:	9/18/24
»»»  Driver Version:	5.47.0
»»»  Windows Version:	Windows 8 or 8.1
»»»  Processor Information:	x86 (AMD or Intel) - 32 Processors
»»»  Tester Name:	PMF21124-494 (100V)
»»»  Tester S/N:	PMF21124-494
»»»  Internal Amp Type:	100V RevK 270k
»»»  Internal Amp S/N:	iAB2-596/K     
»»»  Execution Count:	1
»»»»»»»»»»»»»»»»»»»»»»»»»»»»»»»»»»»»»»»»»»««««««««««««««««««««««««««««««««««««««««««

Stored:	6/19/2025 - 14:26:39
Configured:	06/19/25 10:04:32 AM
Executed:	06/19/25 02:26:11 PM

»»»»»»»»»»»»»»»»»»»»»»»»»»»»»»»»»»» Sample Info ««««««««««««««««««««««««««««««««««««
Sample Name:	
Lot Name:	
Wafer Name:	
Die Row/Column:	0/0
Capacitor Number:	0
Sample Area (cm2):	1.00e-04
Sample Thickness (microns):	3.00e-01

Amplifier:	Internal

»»»»»»»»»»»»»»»»»»»»»»»»»»»»»»»»»»» Tester Info «««««««««««««««««««««««««««««««««««
Tester Name:	PMF21124-494 (100V)
Tester Serial Number:	PMF21124-494
Return Signal Amp. Level:	0.19 [Index: 3]

»»»»»»»»»»»»»»»»»»»»»»»»»»»»»»»» Hysteresis Info ««««««««««««««««««««««««««««««««««
Task Name:	Hyst-1168
Volts:	20.00
Field:	666.67 (kV/cm)
DCBias:	0.00
DCField:	0.00 (kV/cm)
Hysteresis Period (ms):	2.00e+02
Preset:	Enabled
Preset Delay (ms):	1.00e+03
Profile:	Standard Bipolar

»»»»»»»»»»»»»»»»»»»»»»»»»»»»»»»»»»»»»» Data «««««««««««««««««««««««««««««««««««««««
Points:	2009

Valid Data

Point	Time (ms)	Drive Voltage	Measured Polarization (uC/cm2)	Capacitance (uF)	Normalized Capacitance (uF/cm2)	Dielectric Constant	Instantaneous Current (mA)
   1	0.0000e+00	0.0128	-2.200239	0.000101	1.013709	0.343454	0.000041
   2	9.9500e-02	0.0369	-2.159868	0.000101	1.013709	0.343454	0.000041
   3	1.9900e-01	0.0834	-2.014531	0.000365	3.649352	1.236434	0.000146
   4	2.9850e-01	0.1155	-1.945899	0.000172	1.723305	0.583872	0.000069
   5	3.9800e-01	0.1556	-1.844971	0.000253	2.534272	0.858635	0.000101
   6	4.9750e-01	0.1925	-1.756154	0.000223	2.230159	0.755598	0.000089
   7	5.9700e-01	0.2342	-1.675411	0.000203	2.027418	0.686908	0.000081
   8	6.9650e-01	0.2775	-1.586594	0.000223	2.230159	0.755598	0.000089
   9	7.9600e-01	0.3273	-1.497777	0.000223	2.230159	0.755598	0.000089
  10	8.9550e-01	0.3642	-1.368589	0.000324	3.243868	1.099052	0.000130
  11	9.9500e-01	0.3914	-1.271698	0.000243	2.432901	0.824289	0.000097
  12	1.0945e+00	0.4380	-1.203066	0.000172	1.723305	0.583872	0.000069
  13	1.1940e+00	0.4732	-1.065804	0.000345	3.446610	1.167743	0.000138
  14	1.2935e+00	0.5069	-0.976987	0.000223	2.230159	0.755598	0.000089
  15	1.3930e+00	0.5519	-0.884133	0.000233	2.331530	0.789944	0.000093
  16	1.4925e+00	0.6016	-0.771093	0.000284	2.838385	0.961671	0.000114
  17	1.5920e+00	0.6369	-0.730722	0.000101	1.013709	0.343454	0.000041
  18	1.6915e+00	0.6786	-0.637867	0.000233	2.331530	0.789944	0.000093
  19	1.7910e+00	0.7091	-0.476382	0.000405	4.054835	1.373815	0.000162
  20	1.8905e+00	0.7492	-0.387565	0.000223	2.230159	0.755598	0.000089
  21	1.9900e+00	0.8005	-0.318934	0.000172	1.723305	0.583872	0.000069
  22	2.0895e+00	0.8278	-0.197820	0.000304	3.041126	1.030362	0.000122
  23	2.1890e+00	0.8695	-0.100928	0.000243	2.432901	0.824289	0.000097
  24	2.2885e+00	0.9160	0.032297	0.000335	3.345239	1.133398	0.000134
  25	2.3880e+00	0.9449	0.084780	0.000132	1.317821	0.446490	0.000053
  26	2.4875e+00	0.9882	0.201857	0.000294	2.939756	0.996016	0.000118
  27	2.5870e+00	1.0299	0.286637	0.000213	2.128789	0.721253	0.000085
  28	2.6865e+00	1.0764	0.391602	0.000264	2.635643	0.892980	0.000105
  29	2.7860e+00	1.1182	0.508679	0.000294	2.939756	0.996016	0.000118
  30	2.8855e+00	1.1550	0.597496	0.000223	2.230159	0.755598	0.000089
  31	2.9850e+00	1.1952	0.690350	0.000233	2.331530	0.789944	0.000093
  32	3.0845e+00	1.2321	0.771093	0.000203	2.027418	0.686908	0.000081
  33	3.1840e+00	1.2786	0.876058	0.000264	2.635643	0.892980	0.000105
  34	3.2835e+00	1.3187	1.009284	0.000335	3.345239	1.133398	0.000134
  35	3.3830e+00	1.3604	1.098101	0.000223	2.230159	0.755598	0.000089
  36	3.4825e+00	1.3925	1.235364	0.000345	3.446610	1.167743	0.000138
  37	3.5820e+00	1.4310	1.332255	0.000243	2.432901	0.824289	0.000097
  38	3.6815e+00	1.4743	1.445295	0.000284	2.838385	0.961671	0.000114
  39	3.7810e+00	1.5096	1.522000	0.000193	1.926047	0.652562	0.000077
  40	3.8805e+00	1.5497	1.618891	0.000243	2.432901	0.824289	0.000097
  41	3.9800e+00	1.5962	1.703671	0.000213	2.128789	0.721253	0.000085
  42	4.0795e+00	1.6331	1.853045	0.000375	3.750723	1.270779	0.000150
  43	4.1790e+00	1.6764	1.941862	0.000223	2.230159	0.755598	0.000089
  44	4.2785e+00	1.7133	2.046828	0.000264	2.635643	0.892980	0.000105
  45	4.3780e+00	1.7454	2.123533	0.000193	1.926047	0.652562	0.000077
  46	4.4775e+00	1.7919	2.268870	0.000365	3.649352	1.236434	0.000146
  47	4.5770e+00	1.8320	2.365762	0.000243	2.432901	0.824289	0.000097
  48	4.6765e+00	1.8641	2.385947	0.000051	0.506854	0.171727	0.000020
  49	4.7760e+00	1.9155	2.555507	0.000426	4.257577	1.442506	0.000170
  50	4.8755e+00	1.9507	2.624138	0.000172	1.723305	0.583872	0.000069
  51	4.9750e+00	1.9892	2.700844	0.000193	1.926047	0.652562	0.000077
  52	5.0745e+00	2.0278	2.862329	0.000405	4.054835	1.373815	0.000162
  53	5.1740e+00	2.0630	2.939035	0.000193	1.926047	0.652562	0.000077
  54	5.2735e+00	2.1048	3.015740	0.000193	1.926047	0.652562	0.000077
  55	5.3730e+00	2.1465	3.157040	0.000355	3.547981	1.202088	0.000142
  56	5.4725e+00	2.1898	3.257969	0.000253	2.534272	0.858635	0.000101
  57	5.5720e+00	2.2331	3.342748	0.000213	2.128789	0.721253	0.000085
  58	5.6715e+00	2.2716	3.459825	0.000294	2.939756	0.996016	0.000118
  59	5.7710e+00	2.3053	3.548642	0.000223	2.230159	0.755598	0.000089
  60	5.8705e+00	2.3502	3.661682	0.000284	2.838385	0.961671	0.000114
  61	5.9700e+00	2.3967	3.746462	0.000213	2.128789	0.721253	0.000085
  62	6.0695e+00	2.4384	3.815093	0.000172	1.723305	0.583872	0.000069
  63	6.1690e+00	2.4673	3.928133	0.000284	2.838385	0.961671	0.000114
  64	6.2685e+00	2.5090	4.041173	0.000284	2.838385	0.961671	0.000114
  65	6.3680e+00	2.5491	4.154213	0.000284	2.838385	0.961671	0.000114
  66	6.4675e+00	2.5940	4.247067	0.000233	2.331530	0.789944	0.000093
  67	6.5670e+00	2.6309	4.372218	0.000314	3.142497	1.064707	0.000126
  68	6.6665e+00	2.6743	4.424701	0.000132	1.317821	0.446490	0.000053
  69	6.7660e+00	2.7063	4.517555	0.000233	2.331530	0.789944	0.000093
  70	6.8655e+00	2.7497	4.662892	0.000365	3.649352	1.236434	0.000146
  71	6.9650e+00	2.8042	4.739597	0.000193	1.926047	0.652562	0.000077
  72	7.0645e+00	2.8299	4.880897	0.000355	3.547981	1.202088	0.000142
  73	7.1640e+00	2.8684	4.945491	0.000162	1.621934	0.549526	0.000065
  74	7.2635e+00	2.8956	5.078717	0.000335	3.345239	1.133398	0.000134
  75	7.3630e+00	2.9518	5.175608	0.000243	2.432901	0.824289	0.000097
  76	7.4625e+00	2.9807	5.296722	0.000304	3.041126	1.030362	0.000122
  77	7.5620e+00	3.0272	5.369391	0.000182	1.824676	0.618217	0.000073
  78	7.6615e+00	3.0657	5.470319	0.000253	2.534272	0.858635	0.000101
  79	7.7610e+00	3.1026	5.555099	0.000213	2.128789	0.721253	0.000085
  80	7.8605e+00	3.1539	5.676213	0.000304	3.041126	1.030362	0.000122
  81	7.9600e+00	3.1924	5.821550	0.000365	3.649352	1.236434	0.000146
  82	8.0595e+00	3.2277	5.886144	0.000162	1.621934	0.549526	0.000065
  83	8.1590e+00	3.2678	5.983035	0.000243	2.432901	0.824289	0.000097
  84	8.2585e+00	3.3047	6.116261	0.000335	3.345239	1.133398	0.000134
  85	8.3580e+00	3.3368	6.213152	0.000243	2.432901	0.824289	0.000097
  86	8.4575e+00	3.3833	6.354452	0.000355	3.547981	1.202088	0.000142
  87	8.5570e+00	3.4282	6.463454	0.000274	2.737014	0.927325	0.000110
  88	8.6565e+00	3.4667	6.528048	0.000162	1.621934	0.549526	0.000065
  89	8.7560e+00	3.5036	6.641088	0.000284	2.838385	0.961671	0.000114
  90	8.8555e+00	3.5502	6.721831	0.000203	2.027418	0.686908	0.000081
  91	8.9550e+00	3.5951	6.846982	0.000314	3.142497	1.064707	0.000126
  92	9.0545e+00	3.6191	6.915614	0.000172	1.723305	0.583872	0.000069
  93	9.1540e+00	3.6705	7.093247	0.000446	4.460319	1.511197	0.000179
  94	9.2535e+00	3.7106	7.169953	0.000193	1.926047	0.652562	0.000077
  95	9.3530e+00	3.7443	7.258770	0.000223	2.230159	0.755598	0.000089
  96	9.4525e+00	3.7876	7.335476	0.000193	1.926047	0.652562	0.000077
  97	9.5520e+00	3.8245	7.476775	0.000355	3.547981	1.202088	0.000142
  98	9.6515e+00	3.8614	7.553481	0.000193	1.926047	0.652562	0.000077
  99	9.7510e+00	3.8999	7.654409	0.000253	2.534272	0.858635	0.000101
 100	9.8505e+00	3.9464	7.783598	0.000324	3.243868	1.099052	0.000130
 101	9.9500e+00	3.9833	7.888563	0.000264	2.635643	0.892980	0.000105
 102	1.0050e+01	4.0154	8.021789	0.000335	3.345239	1.133398	0.000134
 103	1.0149e+01	4.0587	8.126754	0.000264	2.635643	0.892980	0.000105
 104	1.0248e+01	4.1052	8.223645	0.000243	2.432901	0.824289	0.000097
 105	1.0348e+01	4.1437	8.344760	0.000304	3.041126	1.030362	0.000122
 106	1.0447e+01	4.1758	8.429539	0.000213	2.128789	0.721253	0.000085
 107	1.0547e+01	4.2320	8.518356	0.000223	2.230159	0.755598	0.000089
 108	1.0646e+01	4.2657	8.671768	0.000385	3.852093	1.305125	0.000154
 109	1.0746e+01	4.3026	8.736362	0.000162	1.621934	0.549526	0.000065
 110	1.0845e+01	4.3394	8.881699	0.000365	3.649352	1.236434	0.000146
 111	1.0945e+01	4.3780	8.974553	0.000233	2.331530	0.789944	0.000093
 112	1.1044e+01	4.4277	9.099704	0.000314	3.142497	1.064707	0.000126
 113	1.1144e+01	4.4598	9.152187	0.000132	1.317821	0.446490	0.000053
 114	1.1243e+01	4.5015	9.281375	0.000324	3.243868	1.099052	0.000130
 115	1.1343e+01	4.5432	9.366155	0.000213	2.128789	0.721253	0.000085
 116	1.1443e+01	4.5785	9.507455	0.000355	3.547981	1.202088	0.000142
 117	1.1542e+01	4.6218	9.551863	0.000112	1.115080	0.377799	0.000045
 118	1.1642e+01	4.6603	9.685089	0.000335	3.345239	1.133398	0.000134
 119	1.1741e+01	4.7036	9.802166	0.000294	2.939756	0.996016	0.000118
 120	1.1841e+01	4.7405	9.911168	0.000274	2.737014	0.927325	0.000110
 121	1.1940e+01	4.7742	10.024208	0.000284	2.838385	0.961671	0.000114
 122	1.2040e+01	4.8111	10.121099	0.000243	2.432901	0.824289	0.000097
 123	1.2139e+01	4.8512	10.234139	0.000284	2.838385	0.961671	0.000114
 124	1.2239e+01	4.8945	10.326993	0.000233	2.331530	0.789944	0.000093
 125	1.2338e+01	4.9410	10.431959	0.000264	2.635643	0.892980	0.000105
 126	1.2438e+01	4.9715	10.549036	0.000294	2.939756	0.996016	0.000118
 127	1.2537e+01	5.0229	10.637853	0.000223	2.230159	0.755598	0.000089
 128	1.2636e+01	5.0581	10.791264	0.000385	3.852093	1.305125	0.000154
 129	1.2736e+01	5.0983	10.872007	0.000203	2.027418	0.686908	0.000081
 130	1.2835e+01	5.1271	10.997158	0.000314	3.142497	1.064707	0.000126
 131	1.2935e+01	5.1801	11.106160	0.000274	2.737014	0.927325	0.000110
 132	1.3034e+01	5.2234	11.146532	0.000101	1.013709	0.343454	0.000041
 133	1.3134e+01	5.2555	11.364537	0.000547	5.474028	1.854651	0.000219
 134	1.3233e+01	5.2972	11.396834	0.000081	0.810967	0.274763	0.000032
 135	1.3333e+01	5.3373	11.534097	0.000345	3.446610	1.167743	0.000138
 136	1.3432e+01	5.3790	11.606765	0.000182	1.824676	0.618217	0.000073
 137	1.3532e+01	5.4095	11.764214	0.000395	3.953464	1.339470	0.000158
 138	1.3632e+01	5.4496	11.865142	0.000253	2.534272	0.858635	0.000101
 139	1.3731e+01	5.4945	11.982219	0.000294	2.939756	0.996016	0.000118
 140	1.3831e+01	5.5346	12.075073	0.000233	2.331530	0.789944	0.000093
 141	1.3930e+01	5.5747	12.204261	0.000324	3.243868	1.099052	0.000130
 142	1.4030e+01	5.6196	12.313264	0.000274	2.737014	0.927325	0.000110
 143	1.4129e+01	5.6581	12.406118	0.000233	2.331530	0.789944	0.000093
 144	1.4229e+01	5.7014	12.523195	0.000294	2.939756	0.996016	0.000118
 145	1.4328e+01	5.7480	12.664495	0.000355	3.547981	1.202088	0.000142
 146	1.4428e+01	5.7752	12.781572	0.000294	2.939756	0.996016	0.000118
 147	1.4527e+01	5.8153	12.858277	0.000193	1.926047	0.652562	0.000077
 148	1.4627e+01	5.8554	12.979391	0.000304	3.041126	1.030362	0.000122
 149	1.4726e+01	5.8859	13.092431	0.000284	2.838385	0.961671	0.000114
 150	1.4825e+01	5.9276	13.189322	0.000243	2.432901	0.824289	0.000097
 151	1.4925e+01	5.9677	13.318511	0.000324	3.243868	1.099052	0.000130
 152	1.5024e+01	6.0111	13.399254	0.000203	2.027418	0.686908	0.000081
 153	1.5124e+01	6.0608	13.548628	0.000375	3.750723	1.270779	0.000150
 154	1.5223e+01	6.0961	13.633407	0.000213	2.128789	0.721253	0.000085
 155	1.5323e+01	6.1314	13.794893	0.000405	4.054835	1.373815	0.000162
 156	1.5422e+01	6.1747	13.891784	0.000243	2.432901	0.824289	0.000097
 157	1.5522e+01	6.2276	14.004824	0.000284	2.838385	0.961671	0.000114
 158	1.5621e+01	6.2581	14.081529	0.000193	1.926047	0.652562	0.000077
 159	1.5721e+01	6.2854	14.230903	0.000375	3.750723	1.270779	0.000150
 160	1.5820e+01	6.3415	14.311646	0.000203	2.027418	0.686908	0.000081
 161	1.5920e+01	6.3768	14.396426	0.000213	2.128789	0.721253	0.000085
 162	1.6020e+01	6.4153	14.561949	0.000416	4.156206	1.408161	0.000166
 163	1.6119e+01	6.4490	14.630580	0.000172	1.723305	0.583872	0.000069
 164	1.6218e+01	6.4859	14.747657	0.000294	2.939756	0.996016	0.000118
 165	1.6318e+01	6.5389	14.884919	0.000345	3.446610	1.167743	0.000138
 166	1.6418e+01	6.5693	15.001996	0.000294	2.939756	0.996016	0.000118
 167	1.6517e+01	6.6014	15.106962	0.000264	2.635643	0.892980	0.000105
 168	1.6616e+01	6.6592	15.248262	0.000355	3.547981	1.202088	0.000142
 169	1.6716e+01	6.6945	15.320930	0.000182	1.824676	0.618217	0.000073
 170	1.6816e+01	6.7282	15.442044	0.000304	3.041126	1.030362	0.000122
 171	1.6915e+01	6.7667	15.538935	0.000243	2.432901	0.824289	0.000097
 172	1.7015e+01	6.8100	15.643901	0.000264	2.635643	0.892980	0.000105
 173	1.7114e+01	6.8469	15.736755	0.000233	2.331530	0.789944	0.000093
 174	1.7213e+01	6.8870	15.882092	0.000365	3.649352	1.236434	0.000146
 175	1.7313e+01	6.9367	15.987058	0.000264	2.635643	0.892980	0.000105
 176	1.7413e+01	6.9768	16.075875	0.000223	2.230159	0.755598	0.000089
 177	1.7512e+01	7.0073	16.205063	0.000324	3.243868	1.099052	0.000130
 178	1.7611e+01	7.0458	16.330214	0.000314	3.142497	1.064707	0.000126
 179	1.7711e+01	7.0923	16.398845	0.000172	1.723305	0.583872	0.000069
 180	1.7811e+01	7.1340	16.503811	0.000264	2.635643	0.892980	0.000105
 181	1.7910e+01	7.1629	16.669333	0.000416	4.156206	1.408161	0.000166
 182	1.8009e+01	7.2030	16.758150	0.000223	2.230159	0.755598	0.000089
 183	1.8109e+01	7.2463	16.867153	0.000274	2.737014	0.927325	0.000110
 184	1.8209e+01	7.2800	16.976156	0.000274	2.737014	0.927325	0.000110
 185	1.8308e+01	7.3362	17.089196	0.000284	2.838385	0.961671	0.000114
 186	1.8407e+01	7.3666	17.198198	0.000274	2.737014	0.927325	0.000110
 187	1.8507e+01	7.4019	17.278941	0.000203	2.027418	0.686908	0.000081
 188	1.8607e+01	7.4452	17.420241	0.000355	3.547981	1.202088	0.000142
 189	1.8706e+01	7.4886	17.513095	0.000233	2.331530	0.789944	0.000093
 190	1.8805e+01	7.5206	17.674580	0.000405	4.054835	1.373815	0.000162
 191	1.8905e+01	7.5672	17.759360	0.000213	2.128789	0.721253	0.000085
 192	1.9005e+01	7.6105	17.880474	0.000304	3.041126	1.030362	0.000122
 193	1.9104e+01	7.6506	17.957180	0.000193	1.926047	0.652562	0.000077
 194	1.9203e+01	7.6795	18.126739	0.000426	4.257577	1.442506	0.000170
 195	1.9303e+01	7.7340	18.150962	0.000061	0.608225	0.206072	0.000024
 196	1.9402e+01	7.7645	18.296299	0.000365	3.649352	1.236434	0.000146
 197	1.9502e+01	7.8222	18.445673	0.000375	3.750723	1.270779	0.000150
 198	1.9602e+01	7.8415	18.518342	0.000182	1.824676	0.618217	0.000073
 199	1.9701e+01	7.8848	18.631381	0.000284	2.838385	0.961671	0.000114
 200	1.9800e+01	7.9217	18.740384	0.000274	2.737014	0.927325	0.000110
 201	1.9900e+01	7.9666	18.877647	0.000345	3.446610	1.167743	0.000138
 202	2.0000e+01	8.0051	18.982612	0.000264	2.635643	0.892980	0.000105
 203	2.0099e+01	8.0468	19.095652	0.000284	2.838385	0.961671	0.000114
 204	2.0198e+01	8.0789	19.184469	0.000223	2.230159	0.755598	0.000089
 205	2.0298e+01	8.1254	19.329806	0.000365	3.649352	1.236434	0.000146
 206	2.0398e+01	8.1655	19.402474	0.000182	1.824676	0.618217	0.000073
 207	2.0497e+01	8.2008	19.559923	0.000395	3.953464	1.339470	0.000158
 208	2.0596e+01	8.2393	19.648740	0.000223	2.230159	0.755598	0.000089
 209	2.0696e+01	8.2827	19.777928	0.000324	3.243868	1.099052	0.000130
 210	2.0796e+01	8.3260	19.886931	0.000274	2.737014	0.927325	0.000110
 211	2.0895e+01	8.3597	19.991896	0.000264	2.635643	0.892980	0.000105
 212	2.0994e+01	8.4094	20.072639	0.000203	2.027418	0.686908	0.000081
 213	2.1094e+01	8.4479	20.217976	0.000365	3.649352	1.236434	0.000146
 214	2.1194e+01	8.4800	20.331016	0.000284	2.838385	0.961671	0.000114
 215	2.1293e+01	8.5217	20.444055	0.000284	2.838385	0.961671	0.000114
 216	2.1392e+01	8.5602	20.557095	0.000284	2.838385	0.961671	0.000114
 217	2.1492e+01	8.6019	20.653986	0.000243	2.432901	0.824289	0.000097
 218	2.1591e+01	8.6420	20.779138	0.000314	3.142497	1.064707	0.000126
 219	2.1691e+01	8.6869	20.871992	0.000233	2.331530	0.789944	0.000093
 220	2.1791e+01	8.7222	20.972920	0.000253	2.534272	0.858635	0.000101
 221	2.1890e+01	8.7575	21.073849	0.000253	2.534272	0.858635	0.000101
 222	2.1989e+01	8.7960	21.231297	0.000395	3.953464	1.339470	0.000158
 223	2.2089e+01	8.8393	21.320114	0.000223	2.230159	0.755598	0.000089
 224	2.2189e+01	8.8858	21.404894	0.000213	2.128789	0.721253	0.000085
 225	2.2288e+01	8.9243	21.513896	0.000274	2.737014	0.927325	0.000110
 226	2.2387e+01	8.9645	21.582528	0.000172	1.723305	0.583872	0.000069
 227	2.2487e+01	8.9933	21.760162	0.000446	4.460319	1.511197	0.000179
 228	2.2587e+01	9.0447	21.857053	0.000243	2.432901	0.824289	0.000097
 229	2.2686e+01	9.0800	21.970093	0.000284	2.838385	0.961671	0.000114
 230	2.2785e+01	9.1153	22.058910	0.000223	2.230159	0.755598	0.000089
 231	2.2885e+01	9.1666	22.171949	0.000284	2.838385	0.961671	0.000114
 232	2.2985e+01	9.2035	22.252692	0.000203	2.027418	0.686908	0.000081
 233	2.3084e+01	9.2484	22.389955	0.000345	3.446610	1.167743	0.000138
 234	2.3183e+01	9.2821	22.490883	0.000253	2.534272	0.858635	0.000101
 235	2.3283e+01	9.3286	22.599886	0.000274	2.737014	0.927325	0.000110
 236	2.3383e+01	9.3623	22.704851	0.000264	2.635643	0.892980	0.000105
 237	2.3482e+01	9.3992	22.813854	0.000274	2.737014	0.927325	0.000110
 238	2.3581e+01	9.4361	22.922857	0.000274	2.737014	0.927325	0.000110
 239	2.3681e+01	9.4826	23.060119	0.000345	3.446610	1.167743	0.000138
 240	2.3780e+01	9.5227	23.136825	0.000193	1.926047	0.652562	0.000077
 241	2.3880e+01	9.5596	23.302347	0.000416	4.156206	1.408161	0.000166
 242	2.3980e+01	9.6029	23.346756	0.000112	1.115080	0.377799	0.000045
 243	2.4079e+01	9.6366	23.475944	0.000324	3.243868	1.099052	0.000130
 244	2.4178e+01	9.6783	23.572836	0.000243	2.432901	0.824289	0.000097
 245	2.4278e+01	9.7249	23.673764	0.000253	2.534272	0.858635	0.000101
 246	2.4378e+01	9.7730	23.786804	0.000284	2.838385	0.961671	0.000114
 247	2.4477e+01	9.7954	23.907918	0.000304	3.041126	1.030362	0.000122
 248	2.4576e+01	9.8484	24.008846	0.000253	2.534272	0.858635	0.000101
 249	2.4676e+01	9.8821	24.150146	0.000355	3.547981	1.202088	0.000142
 250	2.4776e+01	9.9206	24.243000	0.000233	2.331530	0.789944	0.000093
 251	2.4875e+01	9.9623	24.356040	0.000284	2.838385	0.961671	0.000114
 252	2.4974e+01	10.0008	24.452931	0.000243	2.432901	0.824289	0.000097
 253	2.5074e+01	10.0345	24.553860	0.000253	2.534272	0.858635	0.000101
 254	2.5174e+01	10.0730	24.666899	0.000284	2.838385	0.961671	0.000114
 255	2.5273e+01	10.1195	24.767828	0.000253	2.534272	0.858635	0.000101
 256	2.5372e+01	10.1516	24.892979	0.000314	3.142497	1.064707	0.000126
 257	2.5472e+01	10.2029	25.006019	0.000284	2.838385	0.961671	0.000114
 258	2.5572e+01	10.2414	25.094836	0.000223	2.230159	0.755598	0.000089
 259	2.5671e+01	10.2815	25.203838	0.000274	2.737014	0.927325	0.000110
 260	2.5770e+01	10.3184	25.328990	0.000314	3.142497	1.064707	0.000126
 261	2.5870e+01	10.3585	25.458178	0.000324	3.243868	1.099052	0.000130
 262	2.5970e+01	10.3986	25.587366	0.000324	3.243868	1.099052	0.000130
 263	2.6069e+01	10.4275	25.684258	0.000243	2.432901	0.824289	0.000097
 264	2.6169e+01	10.4756	25.777112	0.000233	2.331530	0.789944	0.000093
 265	2.6268e+01	10.5141	25.874003	0.000243	2.432901	0.824289	0.000097
 266	2.6367e+01	10.5494	25.999154	0.000314	3.142497	1.064707	0.000126
 267	2.6467e+01	10.5927	26.132380	0.000335	3.345239	1.133398	0.000134
 268	2.6567e+01	10.6393	26.221197	0.000223	2.230159	0.755598	0.000089
 269	2.6666e+01	10.6810	26.289828	0.000172	1.723305	0.583872	0.000069
 270	2.6765e+01	10.7131	26.459388	0.000426	4.257577	1.442506	0.000170
 271	2.6865e+01	10.7564	26.540130	0.000203	2.027418	0.686908	0.000081
 272	2.6965e+01	10.7917	26.677393	0.000345	3.446610	1.167743	0.000138
 273	2.7064e+01	10.8334	26.754099	0.000193	1.926047	0.652562	0.000077
 274	2.7163e+01	10.8639	26.867138	0.000284	2.838385	0.961671	0.000114
 275	2.7263e+01	10.9104	26.968067	0.000253	2.534272	0.858635	0.000101
 276	2.7363e+01	10.9537	27.085144	0.000294	2.939756	0.996016	0.000118
 277	2.7462e+01	10.9970	27.202221	0.000294	2.939756	0.996016	0.000118
 278	2.7561e+01	11.0275	27.291038	0.000223	2.230159	0.755598	0.000089
 279	2.7661e+01	11.0692	27.396003	0.000264	2.635643	0.892980	0.000105
 280	2.7761e+01	11.1109	27.541340	0.000365	3.649352	1.236434	0.000146
 281	2.7860e+01	11.1623	27.638231	0.000243	2.432901	0.824289	0.000097
 282	2.7959e+01	11.1959	27.735123	0.000243	2.432901	0.824289	0.000097
 283	2.8059e+01	11.2312	27.856237	0.000304	3.041126	1.030362	0.000122
 284	2.8159e+01	11.2729	27.949091	0.000233	2.331530	0.789944	0.000093
 285	2.8258e+01	11.3114	28.094428	0.000365	3.649352	1.236434	0.000146
 286	2.8358e+01	11.3499	28.183245	0.000223	2.230159	0.755598	0.000089
 287	2.8457e+01	11.3917	28.276099	0.000233	2.331530	0.789944	0.000093
 288	2.8556e+01	11.4253	28.433547	0.000395	3.953464	1.339470	0.000158
 289	2.8656e+01	11.4799	28.530438	0.000243	2.432901	0.824289	0.000097
 290	2.8756e+01	11.5056	28.615218	0.000213	2.128789	0.721253	0.000085
 291	2.8855e+01	11.5601	28.732295	0.000294	2.939756	0.996016	0.000118
 292	2.8954e+01	11.6002	28.841298	0.000274	2.737014	0.927325	0.000110
 293	2.9054e+01	11.6339	28.938189	0.000243	2.432901	0.824289	0.000097
 294	2.9154e+01	11.6740	29.083526	0.000365	3.649352	1.236434	0.000146
 295	2.9253e+01	11.7253	29.180417	0.000243	2.432901	0.824289	0.000097
 296	2.9352e+01	11.7558	29.281346	0.000253	2.534272	0.858635	0.000101
 297	2.9452e+01	11.7959	29.386311	0.000264	2.635643	0.892980	0.000105
 298	2.9552e+01	11.8312	29.495314	0.000274	2.737014	0.927325	0.000110
 299	2.9651e+01	11.8681	29.600279	0.000264	2.635643	0.892980	0.000105
 300	2.9750e+01	11.9130	29.685059	0.000213	2.128789	0.721253	0.000085
 301	2.9850e+01	11.9467	29.818285	0.000335	3.345239	1.133398	0.000134
 302	2.9950e+01	11.9836	29.959584	0.000355	3.547981	1.202088	0.000142
 303	3.0049e+01	12.0253	30.052438	0.000233	2.331530	0.789944	0.000093
 304	3.0148e+01	12.0767	30.189701	0.000345	3.446610	1.167743	0.000138
 305	3.0248e+01	12.1087	30.282555	0.000233	2.331530	0.789944	0.000093
 306	3.0348e+01	12.1521	30.391558	0.000274	2.737014	0.927325	0.000110
 307	3.0447e+01	12.1938	30.496523	0.000264	2.635643	0.892980	0.000105
 308	3.0547e+01	12.2243	30.637823	0.000355	3.547981	1.202088	0.000142
 309	3.0646e+01	12.2708	30.754900	0.000294	2.939756	0.996016	0.000118
 310	3.0745e+01	12.3061	30.880051	0.000314	3.142497	1.064707	0.000126
 311	3.0845e+01	12.3526	30.932534	0.000132	1.317821	0.446490	0.000053
 312	3.0945e+01	12.3847	31.081908	0.000375	3.750723	1.270779	0.000150
 313	3.1044e+01	12.4248	31.207059	0.000314	3.142497	1.064707	0.000126
 314	3.1143e+01	12.4697	31.312025	0.000264	2.635643	0.892980	0.000105
 315	3.1243e+01	12.5178	31.396805	0.000213	2.128789	0.721253	0.000085
 316	3.1343e+01	12.5467	31.521956	0.000314	3.142497	1.064707	0.000126
 317	3.1442e+01	12.5852	31.630959	0.000274	2.737014	0.927325	0.000110
 318	3.1541e+01	12.6253	31.768221	0.000345	3.446610	1.167743	0.000138
 319	3.1641e+01	12.6654	31.897409	0.000324	3.243868	1.099052	0.000130
 320	3.1741e+01	12.7039	32.006412	0.000274	2.737014	0.927325	0.000110
 321	3.1840e+01	12.7472	32.087155	0.000203	2.027418	0.686908	0.000081
 322	3.1939e+01	12.7905	32.208269	0.000304	3.041126	1.030362	0.000122
 323	3.2039e+01	12.8290	32.341494	0.000335	3.345239	1.133398	0.000134
 324	3.2139e+01	12.8643	32.434349	0.000233	2.331530	0.789944	0.000093
 325	3.2238e+01	12.9077	32.555463	0.000304	3.041126	1.030362	0.000122
 326	3.2337e+01	12.9413	32.648317	0.000233	2.331530	0.789944	0.000093
 327	3.2437e+01	12.9798	32.729059	0.000203	2.027418	0.686908	0.000081
 328	3.2536e+01	13.0296	32.862285	0.000335	3.345239	1.133398	0.000134
 329	3.2636e+01	13.0681	32.975325	0.000284	2.838385	0.961671	0.000114
 330	3.2736e+01	13.1002	33.064142	0.000223	2.230159	0.755598	0.000089
 331	3.2835e+01	13.1499	33.193330	0.000324	3.243868	1.099052	0.000130
 332	3.2934e+01	13.1868	33.306370	0.000284	2.838385	0.961671	0.000114
 333	3.3034e+01	13.2333	33.427484	0.000304	3.041126	1.030362	0.000122
 334	3.3133e+01	13.2654	33.544561	0.000294	2.939756	0.996016	0.000118
 335	3.3233e+01	13.2991	33.669712	0.000314	3.142497	1.064707	0.000126
 336	3.3333e+01	13.3408	33.746418	0.000193	1.926047	0.652562	0.000077
 337	3.3432e+01	13.3793	33.875606	0.000324	3.243868	1.099052	0.000130
 338	3.3532e+01	13.4226	34.004794	0.000324	3.243868	1.099052	0.000130
 339	3.3631e+01	13.4659	34.085537	0.000203	2.027418	0.686908	0.000081
 340	3.3730e+01	13.4996	34.190503	0.000264	2.635643	0.892980	0.000105
 341	3.3830e+01	13.5494	34.295468	0.000264	2.635643	0.892980	0.000105
 342	3.3929e+01	13.5830	34.396396	0.000253	2.534272	0.858635	0.000101
 343	3.4029e+01	13.6183	34.537696	0.000355	3.547981	1.202088	0.000142
 344	3.4129e+01	13.6649	34.638625	0.000253	2.534272	0.858635	0.000101
 345	3.4228e+01	13.7050	34.783962	0.000365	3.649352	1.236434	0.000146
 346	3.4328e+01	13.7338	34.848556	0.000162	1.621934	0.549526	0.000065
 347	3.4427e+01	13.7852	35.001967	0.000385	3.852093	1.305125	0.000154
 348	3.4526e+01	13.8221	35.070598	0.000172	1.723305	0.583872	0.000069
 349	3.4626e+01	13.8590	35.207861	0.000345	3.446610	1.167743	0.000138
 350	3.4725e+01	13.9007	35.324938	0.000294	2.939756	0.996016	0.000118
 351	3.4825e+01	13.9408	35.421829	0.000243	2.432901	0.824289	0.000097
 352	3.4925e+01	13.9841	35.538906	0.000294	2.939756	0.996016	0.000118
 353	3.5024e+01	14.0194	35.607537	0.000172	1.723305	0.583872	0.000069
 354	3.5123e+01	14.0659	35.748837	0.000355	3.547981	1.202088	0.000142
 355	3.5223e+01	14.1012	35.878025	0.000324	3.243868	1.099052	0.000130
 356	3.5322e+01	14.1461	35.966842	0.000223	2.230159	0.755598	0.000089
 357	3.5422e+01	14.1878	36.075845	0.000274	2.737014	0.927325	0.000110
 358	3.5522e+01	14.2215	36.164662	0.000223	2.230159	0.755598	0.000089
 359	3.5621e+01	14.2616	36.301925	0.000345	3.446610	1.167743	0.000138
 360	3.5721e+01	14.3017	36.406890	0.000264	2.635643	0.892980	0.000105
 361	3.5820e+01	14.3483	36.515893	0.000274	2.737014	0.927325	0.000110
 362	3.5919e+01	14.3787	36.653155	0.000345	3.446610	1.167743	0.000138
 363	3.6019e+01	14.4237	36.762158	0.000274	2.737014	0.927325	0.000110
 364	3.6118e+01	14.4606	36.875198	0.000284	2.838385	0.961671	0.000114
 365	3.6218e+01	14.5023	36.996312	0.000304	3.041126	1.030362	0.000122
 366	3.6318e+01	14.5440	37.081092	0.000213	2.128789	0.721253	0.000085
 367	3.6417e+01	14.5841	37.210280	0.000324	3.243868	1.099052	0.000130
 368	3.6517e+01	14.6146	37.323320	0.000284	2.838385	0.961671	0.000114
 369	3.6616e+01	14.6595	37.428285	0.000264	2.635643	0.892980	0.000105
 370	3.6715e+01	14.6996	37.549399	0.000304	3.041126	1.030362	0.000122
 371	3.6815e+01	14.7365	37.618031	0.000172	1.723305	0.583872	0.000069
 372	3.6914e+01	14.7846	37.795665	0.000446	4.460319	1.511197	0.000179
 373	3.7014e+01	14.8151	37.896593	0.000253	2.534272	0.858635	0.000101
 374	3.7114e+01	14.8504	37.981373	0.000213	2.128789	0.721253	0.000085
 375	3.7213e+01	14.8953	38.082301	0.000253	2.534272	0.858635	0.000101
 376	3.7313e+01	14.9402	38.243787	0.000405	4.054835	1.373815	0.000162
 377	3.7412e+01	14.9771	38.328567	0.000213	2.128789	0.721253	0.000085
 378	3.7511e+01	15.0124	38.437569	0.000274	2.737014	0.927325	0.000110
 379	3.7611e+01	15.0573	38.562721	0.000314	3.142497	1.064707	0.000126
 380	3.7711e+01	15.0958	38.647500	0.000213	2.128789	0.721253	0.000085
 381	3.7810e+01	15.1327	38.764577	0.000294	2.939756	0.996016	0.000118
 382	3.7910e+01	15.1696	38.869543	0.000264	2.635643	0.892980	0.000105
 383	3.8009e+01	15.2129	38.982583	0.000284	2.838385	0.961671	0.000114
 384	3.8108e+01	15.2611	39.079474	0.000243	2.432901	0.824289	0.000097
 385	3.8208e+01	15.3028	39.152142	0.000182	1.824676	0.618217	0.000073
 386	3.8307e+01	15.3381	39.309591	0.000395	3.953464	1.339470	0.000158
 387	3.8407e+01	15.3798	39.454928	0.000365	3.649352	1.236434	0.000146
 388	3.8507e+01	15.4167	39.547782	0.000233	2.331530	0.789944	0.000093
 389	3.8606e+01	15.4584	39.612376	0.000162	1.621934	0.549526	0.000065
 390	3.8706e+01	15.4969	39.721379	0.000274	2.737014	0.927325	0.000110
 391	3.8805e+01	15.5274	39.806158	0.000213	2.128789	0.721253	0.000085
 392	3.8904e+01	15.5691	39.927272	0.000304	3.041126	1.030362	0.000122
 393	3.9004e+01	15.6188	40.024164	0.000243	2.432901	0.824289	0.000097
 394	3.9103e+01	15.6525	40.141241	0.000294	2.939756	0.996016	0.000118
 395	3.9203e+01	15.7006	40.238132	0.000243	2.432901	0.824289	0.000097
 396	3.9303e+01	15.7327	40.347135	0.000274	2.737014	0.927325	0.000110
 397	3.9402e+01	15.7776	40.480360	0.000335	3.345239	1.133398	0.000134
 398	3.9502e+01	15.8065	40.557066	0.000193	1.926047	0.652562	0.000077
 399	3.9601e+01	15.8514	40.686254	0.000324	3.243868	1.099052	0.000130
 400	3.9700e+01	15.8931	40.795257	0.000274	2.737014	0.927325	0.000110
 401	3.9800e+01	15.9332	40.920408	0.000314	3.142497	1.064707	0.000126
 402	3.9900e+01	15.9669	40.993076	0.000182	1.824676	0.618217	0.000073
 403	3.9999e+01	16.0215	41.118227	0.000314	3.142497	1.064707	0.000126
 404	4.0099e+01	16.0552	41.239342	0.000304	3.041126	1.030362	0.000122
 405	4.0198e+01	16.0969	41.307973	0.000172	1.723305	0.583872	0.000069
 406	4.0297e+01	16.1290	41.445235	0.000345	3.446610	1.167743	0.000138
 407	4.0397e+01	16.1659	41.554238	0.000274	2.737014	0.927325	0.000110
 408	4.0496e+01	16.2108	41.671315	0.000294	2.939756	0.996016	0.000118
 409	4.0596e+01	16.2445	41.719761	0.000122	1.216451	0.412145	0.000049
 410	4.0696e+01	16.2878	41.848949	0.000324	3.243868	1.099052	0.000130
 411	4.0795e+01	16.3375	41.966026	0.000294	2.939756	0.996016	0.000118
 412	4.0895e+01	16.3680	42.083103	0.000294	2.939756	0.996016	0.000118
 413	4.0994e+01	16.4241	42.184031	0.000253	2.534272	0.858635	0.000101
 414	4.1093e+01	16.4498	42.321294	0.000345	3.446610	1.167743	0.000138
 415	4.1193e+01	16.4899	42.418185	0.000243	2.432901	0.824289	0.000097
 416	4.1292e+01	16.5316	42.531225	0.000284	2.838385	0.961671	0.000114
 417	4.1392e+01	16.5621	42.652339	0.000304	3.041126	1.030362	0.000122
 418	4.1492e+01	16.6182	42.725008	0.000182	1.824676	0.618217	0.000073
 419	4.1591e+01	16.6535	42.850159	0.000314	3.142497	1.064707	0.000126
 420	4.1691e+01	16.6953	42.934939	0.000213	2.128789	0.721253	0.000085
 421	4.1790e+01	16.7273	43.056053	0.000304	3.041126	1.030362	0.000122
 422	4.1889e+01	16.7706	43.169092	0.000284	2.838385	0.961671	0.000114
 423	4.1989e+01	16.8092	43.241761	0.000182	1.824676	0.618217	0.000073
 424	4.2089e+01	16.8509	43.342689	0.000253	2.534272	0.858635	0.000101
 425	4.2188e+01	16.8846	43.475915	0.000335	3.345239	1.133398	0.000134
 426	4.2288e+01	16.9407	43.609140	0.000335	3.345239	1.133398	0.000134
 427	4.2387e+01	16.9680	43.706031	0.000243	2.432901	0.824289	0.000097
 428	4.2486e+01	17.0145	43.790811	0.000213	2.128789	0.721253	0.000085
 429	4.2586e+01	17.0466	43.920000	0.000324	3.243868	1.099052	0.000130
 430	4.2685e+01	17.0803	44.057262	0.000345	3.446610	1.167743	0.000138
 431	4.2785e+01	17.1236	44.129931	0.000182	1.824676	0.618217	0.000073
 432	4.2885e+01	17.1749	44.255082	0.000314	3.142497	1.064707	0.000126
 433	4.2984e+01	17.2102	44.339862	0.000213	2.128789	0.721253	0.000085
 434	4.3084e+01	17.2487	44.452902	0.000284	2.838385	0.961671	0.000114
 435	4.3183e+01	17.2872	44.549793	0.000243	2.432901	0.824289	0.000097
 436	4.3282e+01	17.3209	44.654758	0.000264	2.635643	0.892980	0.000105
 437	4.3382e+01	17.3626	44.783947	0.000324	3.243868	1.099052	0.000130
 438	4.3481e+01	17.4043	44.909098	0.000314	3.142497	1.064707	0.000126
 439	4.3581e+01	17.4541	44.981766	0.000182	1.824676	0.618217	0.000073
 440	4.3681e+01	17.4926	45.106918	0.000314	3.142497	1.064707	0.000126
 441	4.3780e+01	17.5262	45.179586	0.000182	1.824676	0.618217	0.000073
 442	4.3880e+01	17.5744	45.292626	0.000284	2.838385	0.961671	0.000114
 443	4.3979e+01	17.6097	45.421814	0.000324	3.243868	1.099052	0.000130
 444	4.4078e+01	17.6385	45.518705	0.000243	2.432901	0.824289	0.000097
 445	4.4178e+01	17.6931	45.668079	0.000375	3.750723	1.270779	0.000150
 446	4.4278e+01	17.7268	45.688265	0.000051	0.506854	0.171727	0.000020
 447	4.4377e+01	17.7717	45.825528	0.000345	3.446610	1.167743	0.000138
 448	4.4477e+01	17.8102	45.930493	0.000264	2.635643	0.892980	0.000105
 449	4.4576e+01	17.8471	46.043533	0.000284	2.838385	0.961671	0.000114
 450	4.4675e+01	17.8824	46.168684	0.000314	3.142497	1.064707	0.000126
 451	4.4775e+01	17.9241	46.265576	0.000243	2.432901	0.824289	0.000097
 452	4.4874e+01	17.9722	46.366504	0.000253	2.534272	0.858635	0.000101
 453	4.4974e+01	18.0027	46.491655	0.000314	3.142497	1.064707	0.000126
 454	4.5074e+01	18.0396	46.588546	0.000243	2.432901	0.824289	0.000097
 455	4.5173e+01	18.0813	46.689475	0.000253	2.534272	0.858635	0.000101
 456	4.5273e+01	18.1182	46.802515	0.000284	2.838385	0.961671	0.000114
 457	4.5372e+01	18.1631	46.907480	0.000264	2.635643	0.892980	0.000105
 458	4.5471e+01	18.2000	47.052817	0.000365	3.649352	1.236434	0.000146
 459	4.5571e+01	18.2514	47.129523	0.000193	1.926047	0.652562	0.000077
 460	4.5670e+01	18.2915	47.254674	0.000314	3.142497	1.064707	0.000126
 461	4.5770e+01	18.3268	47.335417	0.000203	2.027418	0.686908	0.000081
 462	4.5870e+01	18.3685	47.464605	0.000324	3.243868	1.099052	0.000130
 463	4.5969e+01	18.4038	47.557459	0.000233	2.331530	0.789944	0.000093
 464	4.6069e+01	18.4503	47.670499	0.000284	2.838385	0.961671	0.000114
 465	4.6168e+01	18.4808	47.759316	0.000223	2.230159	0.755598	0.000089
 466	4.6267e+01	18.5289	47.876393	0.000294	2.939756	0.996016	0.000118
 467	4.6367e+01	18.5642	47.981358	0.000264	2.635643	0.892980	0.000105
 468	4.6467e+01	18.5995	48.086324	0.000264	2.635643	0.892980	0.000105
 469	4.6566e+01	18.6412	48.239735	0.000385	3.852093	1.305125	0.000154
 470	4.6666e+01	18.6829	48.292218	0.000132	1.317821	0.446490	0.000053
 471	4.6765e+01	18.7214	48.413332	0.000304	3.041126	1.030362	0.000122
 472	4.6864e+01	18.7631	48.510223	0.000243	2.432901	0.824289	0.000097
 473	4.6964e+01	18.7936	48.647486	0.000345	3.446610	1.167743	0.000138
 474	4.7063e+01	18.8321	48.752451	0.000264	2.635643	0.892980	0.000105
 475	4.7163e+01	18.8850	48.861454	0.000274	2.737014	0.927325	0.000110
 476	4.7263e+01	18.9267	49.002754	0.000355	3.547981	1.202088	0.000142
 477	4.7362e+01	18.9588	49.067348	0.000162	1.621934	0.549526	0.000065
 478	4.7462e+01	19.0053	49.212685	0.000365	3.649352	1.236434	0.000146
 479	4.7561e+01	19.0390	49.297464	0.000213	2.128789	0.721253	0.000085
 480	4.7660e+01	19.0759	49.410504	0.000284	2.838385	0.961671	0.000114
 481	4.7760e+01	19.1289	49.551804	0.000355	3.547981	1.202088	0.000142
 482	4.7859e+01	19.1610	49.636584	0.000213	2.128789	0.721253	0.000085
 483	4.7959e+01	19.1979	49.753661	0.000294	2.939756	0.996016	0.000118
 484	4.8059e+01	19.2364	49.862664	0.000274	2.737014	0.927325	0.000110
 485	4.8158e+01	19.2797	49.959555	0.000243	2.432901	0.824289	0.000097
 486	4.8258e+01	19.3134	50.117003	0.000395	3.953464	1.339470	0.000158
 487	4.8357e+01	19.3567	50.193709	0.000193	1.926047	0.652562	0.000077
 488	4.8456e+01	19.4064	50.294637	0.000253	2.534272	0.858635	0.000101
 489	4.8556e+01	19.4385	50.456122	0.000405	4.054835	1.373815	0.000162
 490	4.8656e+01	19.4818	50.557051	0.000253	2.534272	0.858635	0.000101
 491	4.8755e+01	19.5171	50.653942	0.000243	2.432901	0.824289	0.000097
 492	4.8855e+01	19.5556	50.750833	0.000243	2.432901	0.824289	0.000097
 493	4.8954e+01	19.5941	50.867910	0.000294	2.939756	0.996016	0.000118
 494	4.9053e+01	19.6390	50.984987	0.000294	2.939756	0.996016	0.000118
 495	4.9153e+01	19.6855	51.045544	0.000152	1.520563	0.515181	0.000061
 496	4.9252e+01	19.7192	51.182807	0.000345	3.446610	1.167743	0.000138
 497	4.9352e+01	19.7577	51.287772	0.000264	2.635643	0.892980	0.000105
 498	4.9452e+01	19.7914	51.420998	0.000335	3.345239	1.133398	0.000134
 499	4.9551e+01	19.8283	51.493666	0.000182	1.824676	0.618217	0.000073
 500	4.9651e+01	19.8780	51.630929	0.000345	3.446610	1.167743	0.000138
 501	4.9750e+01	19.9101	51.743969	0.000284	2.838385	0.961671	0.000114
 502	4.9849e+01	19.9567	51.877194	0.000335	3.345239	1.133398	0.000134
 503	4.9949e+01	19.9984	51.957937	0.000203	2.027418	0.686908	0.000081
 504	5.0048e+01	19.9551	51.897380	0.000152	1.520563	0.515181	-0.000061
 505	5.0148e+01	19.9133	51.857009	0.000101	1.013709	0.343454	-0.000041
 506	5.0248e+01	19.8716	51.723783	0.000335	3.345239	1.133398	-0.000134
 507	5.0347e+01	19.8251	51.659189	0.000162	1.621934	0.549526	-0.000065
 508	5.0447e+01	19.8010	51.582483	0.000193	1.926047	0.652562	-0.000077
 509	5.0546e+01	19.7674	51.542112	0.000101	1.013709	0.343454	-0.000041
 510	5.0645e+01	19.7208	51.441184	0.000253	2.534272	0.858635	-0.000101
 511	5.0745e+01	19.6807	51.364478	0.000193	1.926047	0.652562	-0.000077
 512	5.0844e+01	19.6390	51.275661	0.000223	2.230159	0.755598	-0.000089
 513	5.0944e+01	19.5941	51.259512	0.000041	0.405484	0.137382	-0.000016
 514	5.1044e+01	19.5572	51.150510	0.000274	2.737014	0.927325	-0.000110
 515	5.1143e+01	19.5155	51.057656	0.000233	2.331530	0.789944	-0.000093
 516	5.1242e+01	19.4834	50.976913	0.000203	2.027418	0.686908	-0.000081
 517	5.1342e+01	19.4497	50.920393	0.000142	1.419192	0.480835	-0.000057
 518	5.1441e+01	19.3936	50.811390	0.000274	2.737014	0.927325	-0.000110
 519	5.1541e+01	19.3567	50.742759	0.000172	1.723305	0.583872	-0.000069
 520	5.1641e+01	19.3230	50.653942	0.000223	2.230159	0.755598	-0.000089
 521	5.1740e+01	19.2877	50.553014	0.000253	2.534272	0.858635	-0.000101
 522	5.1840e+01	19.2460	50.500531	0.000132	1.317821	0.446490	-0.000053
 523	5.1939e+01	19.1979	50.435937	0.000162	1.621934	0.549526	-0.000065
 524	5.2038e+01	19.1577	50.359231	0.000193	1.926047	0.652562	-0.000077
 525	5.2138e+01	19.1176	50.230043	0.000324	3.243868	1.099052	-0.000130
 526	5.2237e+01	19.0888	50.137189	0.000233	2.331530	0.789944	-0.000093
 527	5.2337e+01	19.0310	50.076632	0.000152	1.520563	0.515181	-0.000061
 528	5.2437e+01	19.0037	50.003963	0.000182	1.824676	0.618217	-0.000073
 529	5.2536e+01	18.9668	49.927258	0.000193	1.926047	0.652562	-0.000077
 530	5.2636e+01	18.9251	49.810181	0.000294	2.939756	0.996016	-0.000118
 531	5.2735e+01	18.8850	49.753661	0.000142	1.419192	0.480835	-0.000057
 532	5.2834e+01	18.8433	49.644658	0.000274	2.737014	0.927325	-0.000110
 533	5.2934e+01	18.8000	49.596213	0.000122	1.216451	0.412145	-0.000049
 534	5.3033e+01	18.7487	49.471061	0.000314	3.142497	1.064707	-0.000126
 535	5.3133e+01	18.7214	49.410504	0.000152	1.520563	0.515181	-0.000061
 536	5.3233e+01	18.6845	49.313613	0.000243	2.432901	0.824289	-0.000097
 537	5.3332e+01	18.6428	49.249019	0.000162	1.621934	0.549526	-0.000065
 538	5.3431e+01	18.6091	49.135979	0.000284	2.838385	0.961671	-0.000114
 539	5.3531e+01	18.5642	49.087533	0.000122	1.216451	0.412145	-0.000049
 540	5.3630e+01	18.5225	49.026976	0.000152	1.520563	0.515181	-0.000061
 541	5.3730e+01	18.4856	48.966419	0.000152	1.520563	0.515181	-0.000061
 542	5.3830e+01	18.4407	48.796860	0.000426	4.257577	1.442506	-0.000170
 543	5.3929e+01	18.4086	48.667671	0.000324	3.243868	1.099052	-0.000130
 544	5.4029e+01	18.3653	48.643449	0.000061	0.608225	0.206072	-0.000024
 545	5.4128e+01	18.3219	48.542520	0.000253	2.534272	0.858635	-0.000101
 546	5.4227e+01	18.2866	48.457740	0.000213	2.128789	0.721253	-0.000085
 547	5.4327e+01	18.2481	48.336626	0.000304	3.041126	1.030362	-0.000122
 548	5.4426e+01	18.2016	48.276069	0.000152	1.520563	0.515181	-0.000061
 549	5.4526e+01	18.1647	48.239735	0.000091	0.912338	0.309108	-0.000037
 550	5.4626e+01	18.1214	48.106509	0.000335	3.345239	1.133398	-0.000134
 551	5.4725e+01	18.0861	47.993470	0.000284	2.838385	0.961671	-0.000114
 552	5.4825e+01	18.0492	47.957135	0.000091	0.912338	0.309108	-0.000037
 553	5.4924e+01	18.0091	47.860244	0.000243	2.432901	0.824289	-0.000097
 554	5.5023e+01	17.9610	47.747204	0.000284	2.838385	0.961671	-0.000114
 555	5.5123e+01	17.9241	47.658387	0.000223	2.230159	0.755598	-0.000089
 556	5.5222e+01	17.8872	47.517088	0.000355	3.547981	1.202088	-0.000142
 557	5.5322e+01	17.8487	47.476716	0.000101	1.013709	0.343454	-0.000041
 558	5.5422e+01	17.8070	47.395974	0.000203	2.027418	0.686908	-0.000081
 559	5.5521e+01	17.7669	47.286971	0.000274	2.737014	0.927325	-0.000110
 560	5.5620e+01	17.7252	47.194117	0.000233	2.331530	0.789944	-0.000093
 561	5.5720e+01	17.6754	47.093188	0.000253	2.534272	0.858635	-0.000101
 562	5.5819e+01	17.6385	46.996297	0.000243	2.432901	0.824289	-0.000097
 563	5.5919e+01	17.6129	46.895369	0.000253	2.534272	0.858635	-0.000101
 564	5.6019e+01	17.5647	46.806552	0.000223	2.230159	0.755598	-0.000089
 565	5.6118e+01	17.5198	46.701586	0.000264	2.635643	0.892980	-0.000105
 566	5.6218e+01	17.4861	46.604695	0.000243	2.432901	0.824289	-0.000097
 567	5.6317e+01	17.4476	46.511841	0.000233	2.331530	0.789944	-0.000093
 568	5.6416e+01	17.4107	46.394764	0.000294	2.939756	0.996016	-0.000118
 569	5.6516e+01	17.3642	46.362467	0.000081	0.810967	0.274763	-0.000032
 570	5.6615e+01	17.3193	46.205019	0.000395	3.953464	1.339470	-0.000158
 571	5.6715e+01	17.2792	46.116202	0.000223	2.230159	0.755598	-0.000089
 572	5.6815e+01	17.2471	46.075830	0.000101	1.013709	0.343454	-0.000041
 573	5.6914e+01	17.2070	45.954716	0.000304	3.041126	1.030362	-0.000122
 574	5.7014e+01	17.1653	45.845713	0.000274	2.737014	0.927325	-0.000110
 575	5.7113e+01	17.1268	45.760934	0.000213	2.128789	0.721253	-0.000085
 576	5.7212e+01	17.0803	45.668079	0.000233	2.331530	0.789944	-0.000093
 577	5.7312e+01	17.0434	45.587337	0.000203	2.027418	0.686908	-0.000081
 578	5.7411e+01	17.0081	45.482371	0.000264	2.635643	0.892980	-0.000105
 579	5.7511e+01	16.9680	45.377406	0.000264	2.635643	0.892980	-0.000105
 580	5.7611e+01	16.9263	45.312812	0.000162	1.621934	0.549526	-0.000065
 581	5.7710e+01	16.8797	45.199772	0.000284	2.838385	0.961671	-0.000114
 582	5.7809e+01	16.8573	45.098843	0.000253	2.534272	0.858635	-0.000101
 583	5.7909e+01	16.8188	45.022138	0.000193	1.926047	0.652562	-0.000077
 584	5.8008e+01	16.7674	44.949469	0.000182	1.824676	0.618217	-0.000073
 585	5.8108e+01	16.7305	44.812207	0.000345	3.446610	1.167743	-0.000138
 586	5.8208e+01	16.6936	44.715315	0.000243	2.432901	0.824289	-0.000097
 587	5.8307e+01	16.6439	44.650721	0.000162	1.621934	0.549526	-0.000065
 588	5.8407e+01	16.6118	44.505384	0.000365	3.649352	1.236434	-0.000146
 589	5.8506e+01	16.5669	44.456939	0.000122	1.216451	0.412145	-0.000049
 590	5.8605e+01	16.5332	44.343899	0.000284	2.838385	0.961671	-0.000114
 591	5.8705e+01	16.4883	44.247008	0.000243	2.432901	0.824289	-0.000097
 592	5.8804e+01	16.4530	44.154154	0.000233	2.331530	0.789944	-0.000093
 593	5.8904e+01	16.4145	44.057262	0.000243	2.432901	0.824289	-0.000097
 594	5.9004e+01	16.3664	43.956334	0.000253	2.534272	0.858635	-0.000101
 595	5.9103e+01	16.3263	43.851368	0.000264	2.635643	0.892980	-0.000105
 596	5.9203e+01	16.2846	43.754477	0.000243	2.432901	0.824289	-0.000097
 597	5.9302e+01	16.2541	43.685846	0.000172	1.723305	0.583872	-0.000069
 598	5.9401e+01	16.2076	43.601066	0.000213	2.128789	0.721253	-0.000085
 599	5.9501e+01	16.1803	43.463803	0.000345	3.446610	1.167743	-0.000138
 600	5.9600e+01	16.1306	43.362875	0.000253	2.534272	0.858635	-0.000101
 601	5.9700e+01	16.0985	43.278095	0.000213	2.128789	0.721253	-0.000085
 602	5.9800e+01	16.0536	43.209464	0.000172	1.723305	0.583872	-0.000069
 603	5.9899e+01	16.0135	43.108535	0.000253	2.534272	0.858635	-0.000101
 604	5.9998e+01	15.9717	42.983384	0.000314	3.142497	1.064707	-0.000126
 605	6.0098e+01	15.9316	42.926864	0.000142	1.419192	0.480835	-0.000057
 606	6.0197e+01	15.8979	42.781527	0.000365	3.649352	1.236434	-0.000146
 607	6.0297e+01	15.8466	42.708859	0.000182	1.824676	0.618217	-0.000073
 608	6.0397e+01	15.8097	42.611968	0.000243	2.432901	0.824289	-0.000097
 609	6.0496e+01	15.7776	42.527188	0.000213	2.128789	0.721253	-0.000085
 610	6.0596e+01	15.7407	42.426259	0.000253	2.534272	0.858635	-0.000101
 611	6.0695e+01	15.7006	42.337442	0.000223	2.230159	0.755598	-0.000089
 612	6.0794e+01	15.6573	42.220366	0.000294	2.939756	0.996016	-0.000118
 613	6.0894e+01	15.6108	42.123474	0.000243	2.432901	0.824289	-0.000097
 614	6.0993e+01	15.5755	42.054843	0.000172	1.723305	0.583872	-0.000069
 615	6.1093e+01	15.5386	41.966026	0.000223	2.230159	0.755598	-0.000089
 616	6.1193e+01	15.5001	41.832801	0.000335	3.345239	1.133398	-0.000134
 617	6.1292e+01	15.4584	41.715724	0.000294	2.939756	0.996016	-0.000118
 618	6.1392e+01	15.4167	41.655167	0.000152	1.520563	0.515181	-0.000061
 619	6.1491e+01	15.3766	41.542127	0.000284	2.838385	0.961671	-0.000114
 620	6.1590e+01	15.3381	41.449273	0.000233	2.331530	0.789944	-0.000093
 621	6.1690e+01	15.2948	41.332196	0.000294	2.939756	0.996016	-0.000118
 622	6.1789e+01	15.2514	41.243379	0.000223	2.230159	0.755598	-0.000089
 623	6.1889e+01	15.2129	41.138413	0.000264	2.635643	0.892980	-0.000105
 624	6.1989e+01	15.1793	41.073819	0.000162	1.621934	0.549526	-0.000065
 625	6.2088e+01	15.1263	40.936556	0.000345	3.446610	1.167743	-0.000138
 626	6.2188e+01	15.0990	40.863888	0.000182	1.824676	0.618217	-0.000073
 627	6.2287e+01	15.0477	40.750848	0.000284	2.838385	0.961671	-0.000114
 628	6.2386e+01	15.0092	40.641845	0.000274	2.737014	0.927325	-0.000110
 629	6.2486e+01	14.9771	40.528806	0.000284	2.838385	0.961671	-0.000114
 630	6.2586e+01	14.9306	40.448063	0.000203	2.027418	0.686908	-0.000081
 631	6.2685e+01	14.9001	40.347135	0.000253	2.534272	0.858635	-0.000101
 632	6.2785e+01	14.8568	40.266392	0.000203	2.027418	0.686908	-0.000081
 633	6.2884e+01	14.8119	40.161426	0.000264	2.635643	0.892980	-0.000105
 634	6.2983e+01	14.7798	40.056461	0.000264	2.635643	0.892980	-0.000105
 635	6.3083e+01	14.7285	39.943421	0.000284	2.838385	0.961671	-0.000114
 636	6.3182e+01	14.7012	39.854604	0.000223	2.230159	0.755598	-0.000089
 637	6.3282e+01	14.6482	39.814233	0.000101	1.013709	0.343454	-0.000041
 638	6.3382e+01	14.6194	39.668896	0.000365	3.649352	1.236434	-0.000146
 639	6.3481e+01	14.5825	39.580079	0.000223	2.230159	0.755598	-0.000089
 640	6.3581e+01	14.5376	39.515485	0.000162	1.621934	0.549526	-0.000065
 641	6.3680e+01	14.5023	39.390333	0.000314	3.142497	1.064707	-0.000126
 642	6.3779e+01	14.4573	39.305554	0.000213	2.128789	0.721253	-0.000085
 643	6.3879e+01	14.4124	39.204625	0.000253	2.534272	0.858635	-0.000101
 644	6.3978e+01	14.3819	39.107734	0.000243	2.432901	0.824289	-0.000097
 645	6.4078e+01	14.3418	38.994694	0.000284	2.838385	0.961671	-0.000114
 646	6.4177e+01	14.2969	38.885691	0.000274	2.737014	0.927325	-0.000110
 647	6.4277e+01	14.2600	38.804949	0.000203	2.027418	0.686908	-0.000081
 648	6.4376e+01	14.2183	38.716132	0.000223	2.230159	0.755598	-0.000089
 649	6.4476e+01	14.1814	38.627315	0.000223	2.230159	0.755598	-0.000089
 650	6.4576e+01	14.1429	38.526386	0.000253	2.534272	0.858635	-0.000101
 651	6.4675e+01	14.0948	38.417384	0.000274	2.737014	0.927325	-0.000110
 652	6.4775e+01	14.0595	38.292232	0.000314	3.142497	1.064707	-0.000126
 653	6.4874e+01	14.0130	38.243787	0.000122	1.216451	0.412145	-0.000049
 654	6.4974e+01	13.9777	38.122673	0.000304	3.041126	1.030362	-0.000122
 655	6.5073e+01	13.9488	38.070190	0.000132	1.317821	0.446490	-0.000053
 656	6.5172e+01	13.9039	37.916779	0.000385	3.852093	1.305125	-0.000154
 657	6.5272e+01	13.8606	37.819888	0.000243	2.432901	0.824289	-0.000097
 658	6.5371e+01	13.8333	37.767405	0.000132	1.317821	0.446490	-0.000053
 659	6.5471e+01	13.7852	37.682625	0.000213	2.128789	0.721253	-0.000085
 660	6.5570e+01	13.7354	37.525177	0.000395	3.953464	1.339470	-0.000158
 661	6.5670e+01	13.6937	37.444434	0.000203	2.027418	0.686908	-0.000081
 662	6.5769e+01	13.6568	37.347543	0.000243	2.432901	0.824289	-0.000097
 663	6.5869e+01	13.6312	37.295060	0.000132	1.317821	0.446490	-0.000053
 664	6.5969e+01	13.5782	37.173946	0.000304	3.041126	1.030362	-0.000122
 665	6.6068e+01	13.5333	37.085129	0.000223	2.230159	0.755598	-0.000089
 666	6.6168e+01	13.5012	36.943829	0.000355	3.547981	1.202088	-0.000142
 667	6.6267e+01	13.4611	36.846938	0.000243	2.432901	0.824289	-0.000097
 668	6.6367e+01	13.4226	36.790418	0.000142	1.419192	0.480835	-0.000057
 669	6.6466e+01	13.3697	36.669304	0.000304	3.041126	1.030362	-0.000122
 670	6.6566e+01	13.3504	36.564338	0.000264	2.635643	0.892980	-0.000105
 671	6.6665e+01	13.2991	36.435150	0.000324	3.243868	1.099052	-0.000130
 672	6.6764e+01	13.2654	36.362482	0.000182	1.824676	0.618217	-0.000073
 673	6.6864e+01	13.2237	36.241368	0.000304	3.041126	1.030362	-0.000122
 674	6.6963e+01	13.1852	36.160625	0.000203	2.027418	0.686908	-0.000081
 675	6.7063e+01	13.1467	36.059696	0.000253	2.534272	0.858635	-0.000101
 676	6.7162e+01	13.1098	35.982991	0.000193	1.926047	0.652562	-0.000077
 677	6.7262e+01	13.0601	35.857840	0.000314	3.142497	1.064707	-0.000126
 678	6.7362e+01	13.0232	35.756911	0.000253	2.534272	0.858635	-0.000101
 679	6.7461e+01	12.9847	35.688280	0.000172	1.723305	0.583872	-0.000069
 680	6.7561e+01	12.9413	35.579277	0.000274	2.737014	0.927325	-0.000110
 681	6.7660e+01	12.9077	35.482386	0.000243	2.432901	0.824289	-0.000097
 682	6.7760e+01	12.8692	35.401643	0.000203	2.027418	0.686908	-0.000081
 683	6.7859e+01	12.8323	35.256306	0.000365	3.649352	1.236434	-0.000146
 684	6.7959e+01	12.7841	35.183638	0.000182	1.824676	0.618217	-0.000073
 685	6.8058e+01	12.7472	35.086747	0.000243	2.432901	0.824289	-0.000097
 686	6.8157e+01	12.7119	34.981781	0.000264	2.635643	0.892980	-0.000105
 687	6.8257e+01	12.6622	34.860667	0.000304	3.041126	1.030362	-0.000122
 688	6.8356e+01	12.6237	34.775887	0.000213	2.128789	0.721253	-0.000085
 689	6.8456e+01	12.5932	34.670922	0.000264	2.635643	0.892980	-0.000105
 690	6.8555e+01	12.5499	34.618439	0.000132	1.317821	0.446490	-0.000053
 691	6.8655e+01	12.5050	34.489251	0.000324	3.243868	1.099052	-0.000130
 692	6.8754e+01	12.4697	34.388322	0.000253	2.534272	0.858635	-0.000101
 693	6.8854e+01	12.4344	34.271245	0.000294	2.939756	0.996016	-0.000118
 694	6.8954e+01	12.3911	34.190503	0.000203	2.027418	0.686908	-0.000081
 695	6.9053e+01	12.3558	34.089574	0.000253	2.534272	0.858635	-0.000101
 696	6.9153e+01	12.3013	33.960386	0.000324	3.243868	1.099052	-0.000130
 697	6.9252e+01	12.2660	33.887717	0.000182	1.824676	0.618217	-0.000073
 698	6.9352e+01	12.2291	33.766603	0.000304	3.041126	1.030362	-0.000122
 699	6.9451e+01	12.1906	33.702009	0.000162	1.621934	0.549526	-0.000065
 700	6.9550e+01	12.1456	33.580895	0.000304	3.041126	1.030362	-0.000122
 701	6.9650e+01	12.1120	33.451707	0.000324	3.243868	1.099052	-0.000130
 702	6.9749e+01	12.0702	33.346741	0.000264	2.635643	0.892980	-0.000105
 703	6.9849e+01	12.0334	33.278110	0.000172	1.723305	0.583872	-0.000069
 704	6.9948e+01	11.9852	33.148922	0.000324	3.243868	1.099052	-0.000130
 705	7.0048e+01	11.9467	33.084327	0.000162	1.621934	0.549526	-0.000065
 706	7.0147e+01	11.9114	32.947065	0.000345	3.446610	1.167743	-0.000138
 707	7.0247e+01	11.8761	32.866322	0.000203	2.027418	0.686908	-0.000081
 708	7.0347e+01	11.8296	32.797691	0.000172	1.723305	0.583872	-0.000069
 709	7.0446e+01	11.7879	32.680614	0.000294	2.939756	0.996016	-0.000118
 710	7.0546e+01	11.7510	32.587760	0.000233	2.331530	0.789944	-0.000093
 711	7.0645e+01	11.7173	32.442423	0.000365	3.649352	1.236434	-0.000146
 712	7.0745e+01	11.6708	32.365717	0.000193	1.926047	0.652562	-0.000077
 713	7.0844e+01	11.6339	32.268826	0.000243	2.432901	0.824289	-0.000097
 714	7.0944e+01	11.5874	32.159823	0.000274	2.737014	0.927325	-0.000110
 715	7.1043e+01	11.5505	32.058895	0.000253	2.534272	0.858635	-0.000101
 716	7.1142e+01	11.5168	31.962004	0.000243	2.432901	0.824289	-0.000097
 717	7.1242e+01	11.4767	31.925669	0.000091	0.912338	0.309108	-0.000037
 718	7.1341e+01	11.4334	31.752073	0.000436	4.358948	1.476852	-0.000174
 719	7.1441e+01	11.3917	31.639033	0.000284	2.838385	0.961671	-0.000114
 720	7.1540e+01	11.3499	31.554253	0.000213	2.128789	0.721253	-0.000085
 721	7.1640e+01	11.3114	31.461399	0.000233	2.331530	0.789944	-0.000093
 722	7.1740e+01	11.2762	31.336248	0.000314	3.142497	1.064707	-0.000126
 723	7.1839e+01	11.2360	31.231282	0.000264	2.635643	0.892980	-0.000105
 724	7.1939e+01	11.1927	31.142465	0.000223	2.230159	0.755598	-0.000089
 725	7.2038e+01	11.1478	31.033462	0.000274	2.737014	0.927325	-0.000110
 726	7.2138e+01	11.1189	30.900237	0.000335	3.345239	1.133398	-0.000134
 727	7.2237e+01	11.0724	30.827568	0.000182	1.824676	0.618217	-0.000073
 728	7.2337e+01	11.0323	30.714529	0.000284	2.838385	0.961671	-0.000114
 729	7.2436e+01	10.9970	30.633786	0.000203	2.027418	0.686908	-0.000081
 730	7.2535e+01	10.9601	30.544969	0.000223	2.230159	0.755598	-0.000089
 731	7.2635e+01	10.9120	30.395595	0.000375	3.750723	1.270779	-0.000150
 732	7.2734e+01	10.8799	30.290629	0.000264	2.635643	0.892980	-0.000105
 733	7.2834e+01	10.8254	30.189701	0.000253	2.534272	0.858635	-0.000101
 734	7.2933e+01	10.7949	30.064550	0.000314	3.142497	1.064707	-0.000126
 735	7.3033e+01	10.7548	29.951510	0.000284	2.838385	0.961671	-0.000114
 736	7.3132e+01	10.7195	29.850582	0.000253	2.534272	0.858635	-0.000101
 737	7.3232e+01	10.6794	29.785987	0.000162	1.621934	0.549526	-0.000065
 738	7.3332e+01	10.6329	29.672948	0.000284	2.838385	0.961671	-0.000114
 739	7.3431e+01	10.5783	29.543759	0.000324	3.243868	1.099052	-0.000130
 740	7.3531e+01	10.5591	29.430720	0.000284	2.838385	0.961671	-0.000114
 741	7.3630e+01	10.5093	29.317680	0.000284	2.838385	0.961671	-0.000114
 742	7.3730e+01	10.4756	29.212714	0.000264	2.635643	0.892980	-0.000105
 743	7.3829e+01	10.4355	29.075452	0.000345	3.446610	1.167743	-0.000138
 744	7.3928e+01	10.3970	29.006820	0.000172	1.723305	0.583872	-0.000069
 745	7.4028e+01	10.3601	28.881669	0.000314	3.142497	1.064707	-0.000126
 746	7.4127e+01	10.3168	28.813038	0.000172	1.723305	0.583872	-0.000069
 747	7.4227e+01	10.2751	28.708072	0.000264	2.635643	0.892980	-0.000105
 748	7.4326e+01	10.2398	28.562735	0.000365	3.649352	1.236434	-0.000146
 749	7.4426e+01	10.1949	28.494104	0.000172	1.723305	0.583872	-0.000069
 750	7.4525e+01	10.1548	28.385101	0.000274	2.737014	0.927325	-0.000110
 751	7.4625e+01	10.1195	28.284173	0.000253	2.534272	0.858635	-0.000101
 752	7.4725e+01	10.0730	28.163059	0.000304	3.041126	1.030362	-0.000122
 753	7.4824e+01	10.0329	28.029833	0.000335	3.345239	1.133398	-0.000134
 754	7.4924e+01	9.9960	27.941016	0.000223	2.230159	0.755598	-0.000089
 755	7.5023e+01	9.9495	27.827977	0.000284	2.838385	0.961671	-0.000114
 756	7.5123e+01	9.9174	27.690714	0.000345	3.446610	1.167743	-0.000138
 757	7.5222e+01	9.8789	27.626120	0.000162	1.621934	0.549526	-0.000065
 758	7.5322e+01	9.8372	27.492894	0.000335	3.345239	1.133398	-0.000134
 759	7.5421e+01	9.8035	27.391966	0.000253	2.534272	0.858635	-0.000101
 760	7.5520e+01	9.7618	27.282963	0.000274	2.737014	0.927325	-0.000110
 761	7.5620e+01	9.7136	27.182035	0.000253	2.534272	0.858635	-0.000101
 762	7.5719e+01	9.6848	27.089181	0.000233	2.331530	0.789944	-0.000093
 763	7.5819e+01	9.6366	27.024587	0.000162	1.621934	0.549526	-0.000065
 764	7.5918e+01	9.5997	26.895398	0.000324	3.243868	1.099052	-0.000130
 765	7.6018e+01	9.5580	26.782358	0.000284	2.838385	0.961671	-0.000114
 766	7.6118e+01	9.5163	26.693541	0.000223	2.230159	0.755598	-0.000089
 767	7.6217e+01	9.4842	26.568390	0.000314	3.142497	1.064707	-0.000126
 768	7.6317e+01	9.4377	26.459388	0.000274	2.737014	0.927325	-0.000110
 769	7.6416e+01	9.3992	26.374608	0.000213	2.128789	0.721253	-0.000085
 770	7.6516e+01	9.3591	26.269642	0.000264	2.635643	0.892980	-0.000105
 771	7.6615e+01	9.3270	26.172751	0.000243	2.432901	0.824289	-0.000097
 772	7.6715e+01	9.2773	26.063748	0.000274	2.737014	0.927325	-0.000110
 773	7.6814e+01	9.2404	25.958783	0.000264	2.635643	0.892980	-0.000105
 774	7.6913e+01	9.2019	25.829594	0.000324	3.243868	1.099052	-0.000130
 775	7.7013e+01	9.1650	25.760963	0.000172	1.723305	0.583872	-0.000069
 776	7.7112e+01	9.1153	25.623701	0.000345	3.446610	1.167743	-0.000138
 777	7.7212e+01	9.0800	25.506624	0.000294	2.939756	0.996016	-0.000118
 778	7.7311e+01	9.0415	25.421844	0.000213	2.128789	0.721253	-0.000085
 779	7.7411e+01	9.0110	25.308804	0.000284	2.838385	0.961671	-0.000114
 780	7.7510e+01	8.9628	25.179616	0.000324	3.243868	1.099052	-0.000130
 781	7.7610e+01	8.9179	25.090799	0.000223	2.230159	0.755598	-0.000089
 782	7.7710e+01	8.8891	24.961610	0.000324	3.243868	1.099052	-0.000130
 783	7.7809e+01	8.8425	24.905090	0.000142	1.419192	0.480835	-0.000057
 784	7.7909e+01	8.8024	24.816273	0.000223	2.230159	0.755598	-0.000089
 785	7.8008e+01	8.7719	24.666899	0.000375	3.750723	1.270779	-0.000150
 786	7.8108e+01	8.7222	24.525600	0.000355	3.547981	1.202088	-0.000142
 787	7.8207e+01	8.6805	24.424671	0.000253	2.534272	0.858635	-0.000101
 788	7.8306e+01	8.6436	24.335854	0.000223	2.230159	0.755598	-0.000089
 789	7.8406e+01	8.6019	24.206666	0.000324	3.243868	1.099052	-0.000130
 790	7.8505e+01	8.5634	24.125923	0.000203	2.027418	0.686908	-0.000081
 791	7.8605e+01	8.5201	24.020958	0.000264	2.635643	0.892980	-0.000105
 792	7.8704e+01	8.4816	23.875621	0.000365	3.649352	1.236434	-0.000146
 793	7.8804e+01	8.4463	23.790841	0.000213	2.128789	0.721253	-0.000085
 794	7.8903e+01	8.4126	23.702024	0.000223	2.230159	0.755598	-0.000089
 795	7.9003e+01	8.3645	23.597058	0.000264	2.635643	0.892980	-0.000105
 796	7.9103e+01	8.3212	23.463833	0.000335	3.345239	1.133398	-0.000134
 797	7.9202e+01	8.2859	23.375016	0.000223	2.230159	0.755598	-0.000089
 798	7.9302e+01	8.2458	23.270050	0.000264	2.635643	0.892980	-0.000105
 799	7.9401e+01	8.2057	23.165085	0.000264	2.635643	0.892980	-0.000105
 800	7.9501e+01	8.1688	23.015711	0.000375	3.750723	1.270779	-0.000150
 801	7.9600e+01	8.1206	22.906708	0.000274	2.737014	0.927325	-0.000110
 802	7.9700e+01	8.0918	22.842114	0.000162	1.621934	0.549526	-0.000065
 803	7.9799e+01	8.0468	22.721000	0.000304	3.041126	1.030362	-0.000122
 804	7.9898e+01	8.0099	22.611997	0.000274	2.737014	0.927325	-0.000110
 805	7.9998e+01	7.9586	22.543366	0.000172	1.723305	0.583872	-0.000069
 806	8.0097e+01	7.9169	22.414178	0.000324	3.243868	1.099052	-0.000130
 807	8.0197e+01	7.8928	22.333435	0.000203	2.027418	0.686908	-0.000081
 808	8.0296e+01	7.8431	22.208284	0.000314	3.142497	1.064707	-0.000126
 809	8.0396e+01	7.7998	22.103318	0.000264	2.635643	0.892980	-0.000105
 810	8.0496e+01	7.7661	21.966056	0.000345	3.446610	1.167743	-0.000138
 811	8.0595e+01	7.7196	21.889350	0.000193	1.926047	0.652562	-0.000077
 812	8.0695e+01	7.6875	21.768236	0.000304	3.041126	1.030362	-0.000122
 813	8.0794e+01	7.6474	21.715753	0.000132	1.317821	0.446490	-0.000053
 814	8.0894e+01	7.6137	21.562342	0.000385	3.852093	1.305125	-0.000154
 815	8.0993e+01	7.5672	21.481599	0.000203	2.027418	0.686908	-0.000081
 816	8.1093e+01	7.5351	21.404894	0.000193	1.926047	0.652562	-0.000077
 817	8.1192e+01	7.4757	21.295891	0.000274	2.737014	0.927325	-0.000110
 818	8.1291e+01	7.4485	21.150554	0.000365	3.649352	1.236434	-0.000146
 819	8.1391e+01	7.4116	21.081923	0.000172	1.723305	0.583872	-0.000069
 820	8.1490e+01	7.3666	20.940623	0.000355	3.547981	1.202088	-0.000142
 821	8.1590e+01	7.3265	20.855843	0.000213	2.128789	0.721253	-0.000085
 822	8.1689e+01	7.2880	20.730692	0.000314	3.142497	1.064707	-0.000126
 823	8.1789e+01	7.2495	20.625726	0.000264	2.635643	0.892980	-0.000105
 824	8.1888e+01	7.2142	20.573244	0.000132	1.317821	0.446490	-0.000053
 825	8.1988e+01	7.1709	20.444055	0.000324	3.243868	1.099052	-0.000130
 826	8.2088e+01	7.1356	20.363313	0.000203	2.027418	0.686908	-0.000081
 827	8.2187e+01	7.0923	20.234124	0.000324	3.243868	1.099052	-0.000130
 828	8.2287e+01	7.0506	20.125122	0.000274	2.737014	0.927325	-0.000110
 829	8.2386e+01	7.0089	19.987859	0.000345	3.446610	1.167743	-0.000138
 830	8.2486e+01	6.9752	19.890968	0.000243	2.432901	0.824289	-0.000097
 831	8.2585e+01	6.9319	19.802151	0.000223	2.230159	0.755598	-0.000089
 832	8.2684e+01	6.8838	19.693148	0.000274	2.737014	0.927325	-0.000110
 833	8.2784e+01	6.8453	19.588183	0.000264	2.635643	0.892980	-0.000105
 834	8.2883e+01	6.8196	19.463031	0.000314	3.142497	1.064707	-0.000126
 835	8.2983e+01	6.7683	19.370177	0.000233	2.331530	0.789944	-0.000093
 836	8.3082e+01	6.7282	19.281360	0.000223	2.230159	0.755598	-0.000089
 837	8.3182e+01	6.6864	19.164283	0.000294	2.939756	0.996016	-0.000118
 838	8.3281e+01	6.6447	19.083541	0.000203	2.027418	0.686908	-0.000081
 839	8.3381e+01	6.6110	18.942241	0.000355	3.547981	1.202088	-0.000142
 840	8.3481e+01	6.5774	18.845350	0.000243	2.432901	0.824289	-0.000097
 841	8.3580e+01	6.5228	18.744421	0.000253	2.534272	0.858635	-0.000101
 842	8.3680e+01	6.4923	18.631381	0.000284	2.838385	0.961671	-0.000114
 843	8.3779e+01	6.4602	18.534490	0.000243	2.432901	0.824289	-0.000097
 844	8.3879e+01	6.4089	18.421450	0.000284	2.838385	0.961671	-0.000114
 845	8.3978e+01	6.3720	18.324559	0.000243	2.432901	0.824289	-0.000097
 846	8.4078e+01	6.3319	18.179222	0.000365	3.649352	1.236434	-0.000146
 847	8.4177e+01	6.2966	18.078294	0.000253	2.534272	0.858635	-0.000101
 848	8.4276e+01	6.2533	18.021774	0.000142	1.419192	0.480835	-0.000057
 849	8.4376e+01	6.2196	17.832029	0.000476	4.764431	1.614233	-0.000191
 850	8.4475e+01	6.1763	17.763397	0.000172	1.723305	0.583872	-0.000069
 851	8.4575e+01	6.1378	17.674580	0.000223	2.230159	0.755598	-0.000089
 852	8.4674e+01	6.0961	17.549429	0.000314	3.142497	1.064707	-0.000126
 853	8.4774e+01	6.0367	17.468686	0.000203	2.027418	0.686908	-0.000081
 854	8.4874e+01	6.0159	17.335461	0.000335	3.345239	1.133398	-0.000134
 855	8.4973e+01	5.9710	17.242607	0.000233	2.331530	0.789944	-0.000093
 856	8.5073e+01	5.9341	17.133604	0.000274	2.737014	0.927325	-0.000110
 857	8.5172e+01	5.8956	17.036713	0.000243	2.432901	0.824289	-0.000097
 858	8.5272e+01	5.8490	16.903487	0.000335	3.345239	1.133398	-0.000134
 859	8.5371e+01	5.8137	16.806596	0.000243	2.432901	0.824289	-0.000097
 860	8.5471e+01	5.7784	16.693556	0.000284	2.838385	0.961671	-0.000114
 861	8.5570e+01	5.7319	16.584554	0.000274	2.737014	0.927325	-0.000110
 862	8.5669e+01	5.6934	16.523997	0.000152	1.520563	0.515181	-0.000061
 863	8.5769e+01	5.6597	16.386734	0.000345	3.446610	1.167743	-0.000138
 864	8.5868e+01	5.6116	16.257546	0.000324	3.243868	1.099052	-0.000130
 865	8.5968e+01	5.5747	16.136432	0.000304	3.041126	1.030362	-0.000122
 866	8.6067e+01	5.5330	16.063763	0.000182	1.824676	0.618217	-0.000073
 867	8.6167e+01	5.4945	15.974946	0.000223	2.230159	0.755598	-0.000089
 868	8.6266e+01	5.4528	15.853832	0.000304	3.041126	1.030362	-0.000122
 869	8.6366e+01	5.4223	15.748867	0.000264	2.635643	0.892980	-0.000105
 870	8.6466e+01	5.3790	15.635827	0.000284	2.838385	0.961671	-0.000114
 871	8.6565e+01	5.3373	15.526824	0.000274	2.737014	0.927325	-0.000110
 872	8.6665e+01	5.3004	15.409747	0.000294	2.939756	0.996016	-0.000118
 873	8.6764e+01	5.2587	15.341116	0.000172	1.723305	0.583872	-0.000069
 874	8.6864e+01	5.2170	15.224039	0.000294	2.939756	0.996016	-0.000118
 875	8.6963e+01	5.1817	15.094851	0.000324	3.243868	1.099052	-0.000130
 876	8.7063e+01	5.1319	14.961625	0.000335	3.345239	1.133398	-0.000134
 877	8.7162e+01	5.0934	14.876845	0.000213	2.128789	0.721253	-0.000085
 878	8.7261e+01	5.0549	14.783991	0.000233	2.331530	0.789944	-0.000093
 879	8.7361e+01	5.0196	14.662877	0.000304	3.041126	1.030362	-0.000122
 880	8.7460e+01	4.9844	14.557911	0.000264	2.635643	0.892980	-0.000105
 881	8.7560e+01	4.9475	14.444872	0.000284	2.838385	0.961671	-0.000114
 882	8.7659e+01	4.9041	14.335869	0.000274	2.737014	0.927325	-0.000110
 883	8.7759e+01	4.8576	14.238978	0.000243	2.432901	0.824289	-0.000097
 884	8.7859e+01	4.8191	14.150161	0.000223	2.230159	0.755598	-0.000089
 885	8.7958e+01	4.7790	14.025010	0.000314	3.142497	1.064707	-0.000126
 886	8.8058e+01	4.7357	13.839301	0.000466	4.663061	1.579888	-0.000187
 887	8.8157e+01	4.7004	13.766633	0.000182	1.824676	0.618217	-0.000073
 888	8.8257e+01	4.6539	13.714150	0.000132	1.317821	0.446490	-0.000053
 889	8.8356e+01	4.6058	13.552665	0.000405	4.054835	1.373815	-0.000162
 890	8.8456e+01	4.5881	13.459811	0.000233	2.331530	0.789944	-0.000093
 891	8.8555e+01	4.5336	13.338696	0.000304	3.041126	1.030362	-0.000122
 892	8.8654e+01	4.4983	13.249879	0.000223	2.230159	0.755598	-0.000089
 893	8.8754e+01	4.4582	13.120691	0.000324	3.243868	1.099052	-0.000130
 894	8.8853e+01	4.4245	13.035911	0.000213	2.128789	0.721253	-0.000085
 895	8.8953e+01	4.3812	12.906723	0.000324	3.243868	1.099052	-0.000130
 896	8.9052e+01	4.3411	12.753312	0.000385	3.852093	1.305125	-0.000154
 897	8.9152e+01	4.2961	12.656421	0.000243	2.432901	0.824289	-0.000097
 898	8.9251e+01	4.2673	12.575678	0.000203	2.027418	0.686908	-0.000081
 899	8.9351e+01	4.2207	12.434378	0.000355	3.547981	1.202088	-0.000142
 900	8.9451e+01	4.1742	12.357672	0.000193	1.926047	0.652562	-0.000077
 901	8.9550e+01	4.1405	12.232521	0.000314	3.142497	1.064707	-0.000126
 902	8.9650e+01	4.0988	12.131593	0.000253	2.534272	0.858635	-0.000101
 903	8.9749e+01	4.0635	12.010479	0.000304	3.041126	1.030362	-0.000122
 904	8.9849e+01	4.0218	11.925699	0.000213	2.128789	0.721253	-0.000085
 905	8.9948e+01	3.9785	11.780362	0.000365	3.649352	1.236434	-0.000146
 906	9.0047e+01	3.9432	11.691545	0.000223	2.230159	0.755598	-0.000089
 907	9.0147e+01	3.9063	11.546208	0.000365	3.649352	1.236434	-0.000146
 908	9.0246e+01	3.8566	11.457391	0.000223	2.230159	0.755598	-0.000089
 909	9.0346e+01	3.8181	11.328203	0.000324	3.243868	1.099052	-0.000130
 910	9.0445e+01	3.7732	11.190940	0.000345	3.446610	1.167743	-0.000138
 911	9.0545e+01	3.7363	11.130383	0.000152	1.520563	0.515181	-0.000061
 912	9.0644e+01	3.6962	11.033492	0.000243	2.432901	0.824289	-0.000097
 913	9.0744e+01	3.6528	10.912378	0.000304	3.041126	1.030362	-0.000122
 914	9.0844e+01	3.6208	10.799338	0.000284	2.838385	0.961671	-0.000114
 915	9.0943e+01	3.5903	10.654001	0.000365	3.649352	1.236434	-0.000146
 916	9.1043e+01	3.5389	10.508664	0.000365	3.649352	1.236434	-0.000146
 917	9.1142e+01	3.5052	10.456182	0.000132	1.317821	0.446490	-0.000053
 918	9.1242e+01	3.4603	10.306808	0.000375	3.750723	1.270779	-0.000150
 919	9.1341e+01	3.4186	10.234139	0.000182	1.824676	0.618217	-0.000073
 920	9.1441e+01	3.3785	10.108988	0.000314	3.142497	1.064707	-0.000126
 921	9.1540e+01	3.3561	9.999985	0.000274	2.737014	0.927325	-0.000110
 922	9.1639e+01	3.3047	9.866760	0.000335	3.345239	1.133398	-0.000134
 923	9.1739e+01	3.2614	9.761794	0.000264	2.635643	0.892980	-0.000105
 924	9.1838e+01	3.2325	9.677014	0.000213	2.128789	0.721253	-0.000085
 925	9.1938e+01	3.1860	9.568012	0.000274	2.737014	0.927325	-0.000110
 926	9.2037e+01	3.1427	9.438823	0.000324	3.243868	1.099052	-0.000130
 927	9.2137e+01	3.1058	9.333858	0.000264	2.635643	0.892980	-0.000105
 928	9.2237e+01	3.0641	9.196595	0.000345	3.446610	1.167743	-0.000138
 929	9.2336e+01	3.0192	9.099704	0.000243	2.432901	0.824289	-0.000097
 930	9.2436e+01	2.9871	9.002813	0.000243	2.432901	0.824289	-0.000097
 931	9.2535e+01	2.9422	8.873624	0.000324	3.243868	1.099052	-0.000130
 932	9.2635e+01	2.9005	8.813067	0.000152	1.520563	0.515181	-0.000061
 933	9.2734e+01	2.8668	8.687916	0.000314	3.142497	1.064707	-0.000126
 934	9.2834e+01	2.8267	8.566802	0.000304	3.041126	1.030362	-0.000122
 935	9.2933e+01	2.7930	8.433577	0.000335	3.345239	1.133398	-0.000134
 936	9.3032e+01	2.7416	8.324574	0.000274	2.737014	0.927325	-0.000110
 937	9.3132e+01	2.7112	8.183274	0.000355	3.547981	1.202088	-0.000142
 938	9.3231e+01	2.6662	8.118680	0.000162	1.621934	0.549526	-0.000065
 939	9.3331e+01	2.6277	8.005640	0.000284	2.838385	0.961671	-0.000114
 940	9.3430e+01	2.5860	7.892600	0.000284	2.838385	0.961671	-0.000114
 941	9.3530e+01	2.5491	7.739189	0.000385	3.852093	1.305125	-0.000154
 942	9.3629e+01	2.4946	7.670558	0.000172	1.723305	0.583872	-0.000069
 943	9.3729e+01	2.4801	7.537332	0.000335	3.345239	1.133398	-0.000134
 944	9.3829e+01	2.4384	7.460627	0.000193	1.926047	0.652562	-0.000077
 945	9.3928e+01	2.3967	7.347587	0.000284	2.838385	0.961671	-0.000114
 946	9.4028e+01	2.3438	7.242622	0.000264	2.635643	0.892980	-0.000105
 947	9.4127e+01	2.3069	7.125545	0.000294	2.939756	0.996016	-0.000118
 948	9.4227e+01	2.2668	7.024616	0.000253	2.534272	0.858635	-0.000101
 949	9.4326e+01	2.2267	6.911576	0.000284	2.838385	0.961671	-0.000114
 950	9.4425e+01	2.1818	6.778351	0.000335	3.345239	1.133398	-0.000134
 951	9.4525e+01	2.1465	6.685497	0.000233	2.331530	0.789944	-0.000093
 952	9.4624e+01	2.1048	6.568420	0.000294	2.939756	0.996016	-0.000118
 953	9.4724e+01	2.0663	6.382712	0.000466	4.663061	1.579888	-0.000187
 954	9.4823e+01	2.0294	6.330229	0.000132	1.317821	0.446490	-0.000053
 955	9.4923e+01	1.9828	6.201040	0.000324	3.243868	1.099052	-0.000130
 956	9.5022e+01	1.9524	6.096075	0.000264	2.635643	0.892980	-0.000105
 957	9.5122e+01	1.9235	5.995147	0.000253	2.534272	0.858635	-0.000101
 958	9.5222e+01	1.8673	5.878070	0.000294	2.939756	0.996016	-0.000118
 959	9.5321e+01	1.8336	5.769067	0.000274	2.737014	0.927325	-0.000110
 960	9.5421e+01	1.7999	5.656027	0.000284	2.838385	0.961671	-0.000114
 961	9.5520e+01	1.7550	5.559136	0.000243	2.432901	0.824289	-0.000097
 962	9.5620e+01	1.7037	5.442059	0.000294	2.939756	0.996016	-0.000118
 963	9.5719e+01	1.6716	5.292685	0.000375	3.750723	1.270779	-0.000150
 964	9.5819e+01	1.6363	5.207905	0.000213	2.128789	0.721253	-0.000085
 965	9.5918e+01	1.5930	5.102940	0.000264	2.635643	0.892980	-0.000105
 966	9.6017e+01	1.5497	5.006048	0.000243	2.432901	0.824289	-0.000097
 967	9.6117e+01	1.5048	4.880897	0.000314	3.142497	1.064707	-0.000126
 968	9.6216e+01	1.4663	4.731523	0.000375	3.750723	1.270779	-0.000150
 969	9.6316e+01	1.4262	4.666929	0.000162	1.621934	0.549526	-0.000065
 970	9.6415e+01	1.3861	4.582149	0.000213	2.128789	0.721253	-0.000085
 971	9.6515e+01	1.3588	4.440849	0.000355	3.547981	1.202088	-0.000142
 972	9.6615e+01	1.3091	4.307624	0.000335	3.345239	1.133398	-0.000134
 973	9.6714e+01	1.2673	4.178435	0.000324	3.243868	1.099052	-0.000130
 974	9.6814e+01	1.2272	4.085581	0.000233	2.331530	0.789944	-0.000093
 975	9.6913e+01	1.1952	4.041173	0.000112	1.115080	0.377799	-0.000045
 976	9.7013e+01	1.1438	3.879687	0.000405	4.054835	1.373815	-0.000162
 977	9.7112e+01	1.1069	3.770685	0.000274	2.737014	0.927325	-0.000110
 978	9.7212e+01	1.0813	3.669756	0.000253	2.534272	0.858635	-0.000101
 979	9.7311e+01	1.0251	3.572865	0.000243	2.432901	0.824289	-0.000097
 980	9.7410e+01	0.9946	3.455788	0.000294	2.939756	0.996016	-0.000118
 981	9.7510e+01	0.9545	3.326600	0.000324	3.243868	1.099052	-0.000130
 982	9.7609e+01	0.9208	3.241820	0.000213	2.128789	0.721253	-0.000085
 983	9.7709e+01	0.8775	3.124743	0.000294	2.939756	0.996016	-0.000118
 984	9.7808e+01	0.8294	3.039963	0.000213	2.128789	0.721253	-0.000085
 985	9.7908e+01	0.8005	2.914812	0.000314	3.142497	1.064707	-0.000126
 986	9.8007e+01	0.7492	2.850218	0.000162	1.621934	0.549526	-0.000065
 987	9.8107e+01	0.7059	2.700844	0.000375	3.750723	1.270779	-0.000150
 988	9.8207e+01	0.6738	2.599915	0.000253	2.534272	0.858635	-0.000101
 989	9.8306e+01	0.6369	2.523210	0.000193	1.926047	0.652562	-0.000077
 990	9.8406e+01	0.5952	2.402096	0.000304	3.041126	1.030362	-0.000122
 991	9.8505e+01	0.5535	2.256759	0.000365	3.649352	1.236434	-0.000146
 992	9.8605e+01	0.5150	2.139682	0.000294	2.939756	0.996016	-0.000118
 993	9.8704e+01	0.4749	2.087199	0.000132	1.317821	0.446490	-0.000053
 994	9.8803e+01	0.4251	1.974159	0.000284	2.838385	0.961671	-0.000114
 995	9.8903e+01	0.3930	1.873231	0.000253	2.534272	0.858635	-0.000101
 996	9.9002e+01	0.3385	1.719820	0.000385	3.852093	1.305125	-0.000154
 997	9.9102e+01	0.3112	1.626966	0.000233	2.331530	0.789944	-0.000093
 998	9.9201e+01	0.2759	1.493740	0.000335	3.345239	1.133398	-0.000134
 999	9.9301e+01	0.2438	1.396849	0.000243	2.432901	0.824289	-0.000097
1000	9.9400e+01	0.1877	1.291883	0.000264	2.635643	0.892980	-0.000105
1001	9.9500e+01	0.1620	1.203066	0.000223	2.230159	0.755598	-0.000089
1002	9.9600e+01	0.1203	1.081952	0.000304	3.041126	1.030362	-0.000122
1003	9.9699e+01	0.0738	0.972950	0.000274	2.737014	0.927325	-0.000110
1004	9.9799e+01	0.0417	0.835687	0.000345	3.446610	1.167743	-0.000138
1005	9.9898e+01	0.0016	0.775130	0.000152	1.520563	0.515181	-0.000061
1006	9.9998e+01	-0.0353	0.649979	0.000314	3.142497	1.064707	-0.000126
1007	1.0010e+02	-0.0802	0.532902	0.000294	2.939756	0.996016	-0.000118
1008	1.0020e+02	-0.1123	0.460233	0.000182	1.824676	0.618217	-0.000073
1009	1.0030e+02	-0.1524	0.310859	0.000375	3.750723	1.270779	-0.000150
1010	1.0040e+02	-0.1957	0.238191	0.000182	1.824676	0.618217	-0.000073
1011	1.0050e+02	-0.2342	0.080743	0.000395	3.953464	1.339470	-0.000158
1012	1.0059e+02	-0.2679	-0.012111	0.000233	2.331530	0.789944	-0.000093
1013	1.0069e+02	-0.3112	-0.145337	0.000335	3.345239	1.133398	-0.000134
1014	1.0079e+02	-0.3545	-0.213968	0.000172	1.723305	0.583872	-0.000069
1015	1.0089e+02	-0.3995	-0.327008	0.000284	2.838385	0.961671	-0.000114
1016	1.0099e+02	-0.4396	-0.448122	0.000304	3.041126	1.030362	-0.000122
1017	1.0109e+02	-0.4684	-0.512716	0.000162	1.621934	0.549526	-0.000065
1018	1.0119e+02	-0.5101	-0.605570	0.000233	2.331530	0.789944	-0.000093
1019	1.0129e+02	-0.5567	-0.754944	0.000375	3.750723	1.270779	-0.000150
1020	1.0139e+02	-0.5936	-0.892207	0.000345	3.446610	1.167743	-0.000138
1021	1.0149e+02	-0.6289	-1.001210	0.000274	2.737014	0.927325	-0.000110
1022	1.0159e+02	-0.6802	-1.094064	0.000233	2.331530	0.789944	-0.000093
1023	1.0169e+02	-0.7123	-1.211141	0.000294	2.939756	0.996016	-0.000118
1024	1.0179e+02	-0.7572	-1.328218	0.000294	2.939756	0.996016	-0.000118
1025	1.0189e+02	-0.7925	-1.421072	0.000233	2.331530	0.789944	-0.000093
1026	1.0199e+02	-0.8358	-1.501814	0.000203	2.027418	0.686908	-0.000081
1027	1.0209e+02	-0.8631	-1.635040	0.000335	3.345239	1.133398	-0.000134
1028	1.0219e+02	-0.9112	-1.748080	0.000284	2.838385	0.961671	-0.000114
1029	1.0229e+02	-0.9577	-1.861120	0.000284	2.838385	0.961671	-0.000114
1030	1.0239e+02	-0.9914	-1.974159	0.000284	2.838385	0.961671	-0.000114
1031	1.0248e+02	-1.0267	-2.071051	0.000243	2.432901	0.824289	-0.000097
1032	1.0258e+02	-1.0652	-2.192165	0.000304	3.041126	1.030362	-0.000122
1033	1.0268e+02	-1.1182	-2.309242	0.000294	2.939756	0.996016	-0.000118
1034	1.0278e+02	-1.1518	-2.373836	0.000162	1.621934	0.549526	-0.000065
1035	1.0288e+02	-1.1919	-2.531284	0.000395	3.953464	1.339470	-0.000158
1036	1.0298e+02	-1.2321	-2.660472	0.000324	3.243868	1.099052	-0.000130
1037	1.0308e+02	-1.2722	-2.716992	0.000142	1.419192	0.480835	-0.000057
1038	1.0318e+02	-1.3058	-2.850218	0.000335	3.345239	1.133398	-0.000134
1039	1.0328e+02	-1.3540	-2.939035	0.000223	2.230159	0.755598	-0.000089
1040	1.0338e+02	-1.3845	-3.048037	0.000274	2.737014	0.927325	-0.000110
1041	1.0348e+02	-1.4326	-3.165114	0.000294	2.939756	0.996016	-0.000118
1042	1.0358e+02	-1.4695	-3.286228	0.000304	3.041126	1.030362	-0.000122
1043	1.0368e+02	-1.5160	-3.354860	0.000172	1.723305	0.583872	-0.000069
1044	1.0378e+02	-1.5449	-3.475974	0.000304	3.041126	1.030362	-0.000122
1045	1.0388e+02	-1.5882	-3.589014	0.000284	2.838385	0.961671	-0.000114
1046	1.0398e+02	-1.6283	-3.689942	0.000253	2.534272	0.858635	-0.000101
1047	1.0408e+02	-1.6700	-3.839316	0.000375	3.750723	1.270779	-0.000150
1048	1.0418e+02	-1.7117	-3.924096	0.000213	2.128789	0.721253	-0.000085
1049	1.0428e+02	-1.7518	-3.984653	0.000152	1.520563	0.515181	-0.000061
1050	1.0438e+02	-1.7871	-4.125953	0.000355	3.547981	1.202088	-0.000142
1051	1.0447e+02	-1.8385	-4.279364	0.000385	3.852093	1.305125	-0.000154
1052	1.0457e+02	-1.8657	-4.352032	0.000182	1.824676	0.618217	-0.000073
1053	1.0467e+02	-1.9026	-4.469109	0.000294	2.939756	0.996016	-0.000118
1054	1.0477e+02	-1.9491	-4.622520	0.000385	3.852093	1.305125	-0.000154
1055	1.0487e+02	-1.9892	-4.666929	0.000112	1.115080	0.377799	-0.000045
1056	1.0497e+02	-2.0294	-4.804192	0.000345	3.446610	1.167743	-0.000138
1057	1.0507e+02	-2.0630	-4.897046	0.000233	2.331530	0.789944	-0.000093
1058	1.0517e+02	-2.0983	-5.054494	0.000395	3.953464	1.339470	-0.000158
1059	1.0527e+02	-2.1417	-5.135237	0.000203	2.027418	0.686908	-0.000081
1060	1.0537e+02	-2.1834	-5.256351	0.000304	3.041126	1.030362	-0.000122
1061	1.0547e+02	-2.2283	-5.377465	0.000304	3.041126	1.030362	-0.000122
1062	1.0557e+02	-2.2684	-5.486467	0.000274	2.737014	0.927325	-0.000110
1063	1.0567e+02	-2.3037	-5.611619	0.000314	3.142497	1.064707	-0.000126
1064	1.0577e+02	-2.3486	-5.720621	0.000274	2.737014	0.927325	-0.000110
1065	1.0587e+02	-2.3839	-5.817513	0.000243	2.432901	0.824289	-0.000097
1066	1.0597e+02	-2.4256	-5.910367	0.000233	2.331530	0.789944	-0.000093
1067	1.0607e+02	-2.4625	-6.023407	0.000284	2.838385	0.961671	-0.000114
1068	1.0617e+02	-2.5026	-6.172781	0.000375	3.750723	1.270779	-0.000150
1069	1.0627e+02	-2.5443	-6.277746	0.000264	2.635643	0.892980	-0.000105
1070	1.0637e+02	-2.5812	-6.382712	0.000264	2.635643	0.892980	-0.000105
1071	1.0647e+02	-2.6197	-6.475566	0.000233	2.331530	0.789944	-0.000093
1072	1.0656e+02	-2.6614	-6.608791	0.000335	3.345239	1.133398	-0.000134
1073	1.0666e+02	-2.7031	-6.701645	0.000233	2.331530	0.789944	-0.000093
1074	1.0676e+02	-2.7448	-6.810648	0.000274	2.737014	0.927325	-0.000110
1075	1.0686e+02	-2.7833	-6.972133	0.000405	4.054835	1.373815	-0.000162
1076	1.0696e+02	-2.8218	-7.081136	0.000274	2.737014	0.927325	-0.000110
1077	1.0706e+02	-2.8652	-7.173990	0.000233	2.331530	0.789944	-0.000093
1078	1.0716e+02	-2.9069	-7.282993	0.000274	2.737014	0.927325	-0.000110
1079	1.0726e+02	-2.9454	-7.408144	0.000314	3.142497	1.064707	-0.000126
1080	1.0736e+02	-2.9871	-7.496961	0.000223	2.230159	0.755598	-0.000089
1081	1.0746e+02	-3.0192	-7.614038	0.000294	2.939756	0.996016	-0.000118
1082	1.0756e+02	-3.0737	-7.702855	0.000223	2.230159	0.755598	-0.000089
1083	1.0766e+02	-3.0994	-7.803783	0.000253	2.534272	0.858635	-0.000101
1084	1.0776e+02	-3.1459	-7.957195	0.000385	3.852093	1.305125	-0.000154
1085	1.0786e+02	-3.1844	-8.058123	0.000253	2.534272	0.858635	-0.000101
1086	1.0796e+02	-3.2229	-8.195386	0.000345	3.446610	1.167743	-0.000138
1087	1.0806e+02	-3.2646	-8.251905	0.000142	1.419192	0.480835	-0.000057
1088	1.0816e+02	-3.2999	-8.352834	0.000253	2.534272	0.858635	-0.000101
1089	1.0826e+02	-3.3416	-8.498171	0.000365	3.649352	1.236434	-0.000146
1090	1.0836e+02	-3.3817	-8.631396	0.000335	3.345239	1.133398	-0.000134
1091	1.0845e+02	-3.4202	-8.728287	0.000243	2.432901	0.824289	-0.000097
1092	1.0855e+02	-3.4587	-8.853439	0.000314	3.142497	1.064707	-0.000126
1093	1.0865e+02	-3.5052	-8.922070	0.000172	1.723305	0.583872	-0.000069
1094	1.0875e+02	-3.5421	-9.039147	0.000294	2.939756	0.996016	-0.000118
1095	1.0885e+02	-3.5855	-9.176410	0.000345	3.446610	1.167743	-0.000138
1096	1.0895e+02	-3.6272	-9.313672	0.000345	3.446610	1.167743	-0.000138
1097	1.0905e+02	-3.6609	-9.350006	0.000091	0.912338	0.309108	-0.000037
1098	1.0915e+02	-3.6962	-9.499380	0.000375	3.750723	1.270779	-0.000150
1099	1.0925e+02	-3.7491	-9.572049	0.000182	1.824676	0.618217	-0.000073
1100	1.0935e+02	-3.7780	-9.729497	0.000395	3.953464	1.339470	-0.000158
1101	1.0945e+02	-3.8293	-9.818314	0.000223	2.230159	0.755598	-0.000089
1102	1.0955e+02	-3.8550	-9.935391	0.000294	2.939756	0.996016	-0.000118
1103	1.0965e+02	-3.8935	-10.036319	0.000253	2.534272	0.858635	-0.000101
1104	1.0975e+02	-3.9336	-10.173582	0.000345	3.446610	1.167743	-0.000138
1105	1.0985e+02	-3.9769	-10.205879	0.000081	0.810967	0.274763	-0.000032
1106	1.0995e+02	-4.0202	-10.343142	0.000345	3.446610	1.167743	-0.000138
1107	1.1005e+02	-4.0603	-10.500590	0.000395	3.953464	1.339470	-0.000158
1108	1.1015e+02	-4.0892	-10.621704	0.000304	3.041126	1.030362	-0.000122
1109	1.1025e+02	-4.1405	-10.698410	0.000193	1.926047	0.652562	-0.000077
1110	1.1035e+02	-4.1822	-10.807412	0.000274	2.737014	0.927325	-0.000110
1111	1.1044e+02	-4.2143	-10.928526	0.000304	3.041126	1.030362	-0.000122
1112	1.1054e+02	-4.2721	-11.053678	0.000314	3.142497	1.064707	-0.000126
1113	1.1064e+02	-4.2977	-11.142495	0.000223	2.230159	0.755598	-0.000089
1114	1.1074e+02	-4.3443	-11.283794	0.000355	3.547981	1.202088	-0.000142
1115	1.1084e+02	-4.3812	-11.344351	0.000152	1.520563	0.515181	-0.000061
1116	1.1094e+02	-4.4181	-11.461428	0.000294	2.939756	0.996016	-0.000118
1117	1.1104e+02	-4.4614	-11.570431	0.000274	2.737014	0.927325	-0.000110
1118	1.1114e+02	-4.5015	-11.683471	0.000284	2.838385	0.961671	-0.000114
1119	1.1124e+02	-4.5464	-11.840919	0.000395	3.953464	1.339470	-0.000158
1120	1.1134e+02	-4.5833	-11.913588	0.000182	1.824676	0.618217	-0.000073
1121	1.1144e+02	-4.6138	-12.034702	0.000304	3.041126	1.030362	-0.000122
1122	1.1154e+02	-4.6571	-12.127556	0.000233	2.331530	0.789944	-0.000093
1123	1.1164e+02	-4.6924	-12.200224	0.000182	1.824676	0.618217	-0.000073
1124	1.1174e+02	-4.7421	-12.337487	0.000345	3.446610	1.167743	-0.000138
1125	1.1184e+02	-4.7758	-12.438415	0.000253	2.534272	0.858635	-0.000101
1126	1.1194e+02	-4.8223	-12.551455	0.000284	2.838385	0.961671	-0.000114
1127	1.1204e+02	-4.8512	-12.692755	0.000355	3.547981	1.202088	-0.000142
1128	1.1214e+02	-4.8929	-12.846166	0.000385	3.852093	1.305125	-0.000154
1129	1.1224e+02	-4.9442	-12.943057	0.000243	2.432901	0.824289	-0.000097
1130	1.1234e+02	-4.9844	-13.023800	0.000203	2.027418	0.686908	-0.000081
1131	1.1244e+02	-5.0116	-13.128765	0.000264	2.635643	0.892980	-0.000105
1132	1.1253e+02	-5.0565	-13.278139	0.000375	3.750723	1.270779	-0.000150
1133	1.1263e+02	-5.0950	-13.354845	0.000193	1.926047	0.652562	-0.000077
1134	1.1273e+02	-5.1400	-13.439625	0.000213	2.128789	0.721253	-0.000085
1135	1.1283e+02	-5.1801	-13.556702	0.000294	2.939756	0.996016	-0.000118
1136	1.1293e+02	-5.2138	-13.702039	0.000365	3.649352	1.236434	-0.000146
1137	1.1303e+02	-5.2619	-13.790856	0.000223	2.230159	0.755598	-0.000089
1138	1.1313e+02	-5.2972	-13.895821	0.000264	2.635643	0.892980	-0.000105
1139	1.1323e+02	-5.3325	-13.964453	0.000172	1.723305	0.583872	-0.000069
1140	1.1333e+02	-5.3774	-14.101715	0.000345	3.446610	1.167743	-0.000138
1141	1.1343e+02	-5.4127	-14.206681	0.000264	2.635643	0.892980	-0.000105
1142	1.1353e+02	-5.4528	-14.315683	0.000274	2.737014	0.927325	-0.000110
1143	1.1363e+02	-5.4929	-14.412575	0.000243	2.432901	0.824289	-0.000097
1144	1.1373e+02	-5.5282	-14.545800	0.000335	3.345239	1.133398	-0.000134
1145	1.1383e+02	-5.5827	-14.654803	0.000274	2.737014	0.927325	-0.000110
1146	1.1393e+02	-5.6084	-14.739583	0.000213	2.128789	0.721253	-0.000085
1147	1.1403e+02	-5.6613	-14.848585	0.000274	2.737014	0.927325	-0.000110
1148	1.1413e+02	-5.6838	-14.937402	0.000223	2.230159	0.755598	-0.000089
1149	1.1423e+02	-5.7271	-15.054479	0.000294	2.939756	0.996016	-0.000118
1150	1.1433e+02	-5.7768	-15.127148	0.000182	1.824676	0.618217	-0.000073
1151	1.1442e+02	-5.8137	-15.268447	0.000355	3.547981	1.202088	-0.000142
1152	1.1452e+02	-5.8571	-15.353227	0.000213	2.128789	0.721253	-0.000085
1153	1.1462e+02	-5.8940	-15.470304	0.000294	2.939756	0.996016	-0.000118
1154	1.1472e+02	-5.9308	-15.534898	0.000162	1.621934	0.549526	-0.000065
1155	1.1482e+02	-5.9677	-15.688309	0.000385	3.852093	1.305125	-0.000154
1156	1.1492e+02	-6.0143	-15.797312	0.000274	2.737014	0.927325	-0.000110
1157	1.1502e+02	-6.0512	-15.902278	0.000264	2.635643	0.892980	-0.000105
1158	1.1512e+02	-6.0881	-15.991095	0.000223	2.230159	0.755598	-0.000089
1159	1.1522e+02	-6.1378	-16.108172	0.000294	2.939756	0.996016	-0.000118
1160	1.1532e+02	-6.1699	-16.213137	0.000264	2.635643	0.892980	-0.000105
1161	1.1542e+02	-6.2084	-16.305991	0.000233	2.331530	0.789944	-0.000093
1162	1.1552e+02	-6.2581	-16.398845	0.000233	2.331530	0.789944	-0.000093
1163	1.1562e+02	-6.2886	-16.515922	0.000294	2.939756	0.996016	-0.000118
1164	1.1572e+02	-6.3271	-16.600702	0.000213	2.128789	0.721253	-0.000085
1165	1.1582e+02	-6.3656	-16.717779	0.000294	2.939756	0.996016	-0.000118
1166	1.1592e+02	-6.4121	-16.838893	0.000304	3.041126	1.030362	-0.000122
1167	1.1602e+02	-6.4410	-16.960007	0.000304	3.041126	1.030362	-0.000122
1168	1.1612e+02	-6.4827	-17.052861	0.000233	2.331530	0.789944	-0.000093
1169	1.1622e+02	-6.5164	-17.157827	0.000264	2.635643	0.892980	-0.000105
1170	1.1632e+02	-6.5741	-17.262792	0.000264	2.635643	0.892980	-0.000105
1171	1.1642e+02	-6.6046	-17.363721	0.000253	2.534272	0.858635	-0.000101
1172	1.1651e+02	-6.6479	-17.464649	0.000253	2.534272	0.858635	-0.000101
1173	1.1661e+02	-6.6864	-17.553466	0.000223	2.230159	0.755598	-0.000089
1174	1.1671e+02	-6.7249	-17.670543	0.000294	2.939756	0.996016	-0.000118
1175	1.1681e+02	-6.7731	-17.759360	0.000223	2.230159	0.755598	-0.000089
1176	1.1691e+02	-6.8084	-17.888548	0.000324	3.243868	1.099052	-0.000130
1177	1.1701e+02	-6.8421	-18.017737	0.000324	3.243868	1.099052	-0.000130
1178	1.1711e+02	-6.8757	-18.078294	0.000152	1.520563	0.515181	-0.000061
1179	1.1721e+02	-6.9287	-18.175185	0.000243	2.432901	0.824289	-0.000097
1180	1.1731e+02	-6.9624	-18.348782	0.000436	4.358948	1.476852	-0.000174
1181	1.1741e+02	-6.9993	-18.385116	0.000091	0.912338	0.309108	-0.000037
1182	1.1751e+02	-7.0362	-18.546602	0.000405	4.054835	1.373815	-0.000162
1183	1.1761e+02	-7.0827	-18.615233	0.000172	1.723305	0.583872	-0.000069
1184	1.1771e+02	-7.1212	-18.740384	0.000314	3.142497	1.064707	-0.000126
1185	1.1781e+02	-7.1693	-18.813053	0.000182	1.824676	0.618217	-0.000073
1186	1.1791e+02	-7.2062	-18.970501	0.000395	3.953464	1.339470	-0.000158
1187	1.1801e+02	-7.2463	-19.075466	0.000264	2.635643	0.892980	-0.000105
1188	1.1811e+02	-7.2912	-19.196580	0.000304	3.041126	1.030362	-0.000122
1189	1.1821e+02	-7.3201	-19.261175	0.000162	1.621934	0.549526	-0.000065
1190	1.1831e+02	-7.3618	-19.402474	0.000355	3.547981	1.202088	-0.000142
1191	1.1841e+02	-7.4116	-19.495328	0.000233	2.331530	0.789944	-0.000093
1192	1.1850e+02	-7.4517	-19.547811	0.000132	1.317821	0.446490	-0.000053
1193	1.1860e+02	-7.4902	-19.705260	0.000395	3.953464	1.339470	-0.000158
1194	1.1870e+02	-7.5174	-19.834448	0.000324	3.243868	1.099052	-0.000130
1195	1.1880e+02	-7.5640	-19.935376	0.000253	2.534272	0.858635	-0.000101
1196	1.1890e+02	-7.6057	-20.008045	0.000182	1.824676	0.618217	-0.000073
1197	1.1900e+02	-7.6426	-20.133196	0.000314	3.142497	1.064707	-0.000126
1198	1.1910e+02	-7.6875	-20.193753	0.000152	1.520563	0.515181	-0.000061
1199	1.1920e+02	-7.7212	-20.302756	0.000274	2.737014	0.927325	-0.000110
1200	1.1930e+02	-7.7741	-20.427907	0.000314	3.142497	1.064707	-0.000126
1201	1.1940e+02	-7.8046	-20.536909	0.000274	2.737014	0.927325	-0.000110
1202	1.1950e+02	-7.8431	-20.605541	0.000172	1.723305	0.583872	-0.000069
1203	1.1960e+02	-7.8816	-20.714543	0.000274	2.737014	0.927325	-0.000110
1204	1.1970e+02	-7.9169	-20.827583	0.000284	2.838385	0.961671	-0.000114
1205	1.1980e+02	-7.9586	-20.972920	0.000365	3.649352	1.236434	-0.000146
1206	1.1990e+02	-8.0067	-21.061737	0.000223	2.230159	0.755598	-0.000089
1207	1.2000e+02	-8.0532	-21.142480	0.000203	2.027418	0.686908	-0.000081
1208	1.2010e+02	-8.0789	-21.279742	0.000345	3.446610	1.167743	-0.000138
1209	1.2020e+02	-8.1126	-21.336262	0.000142	1.419192	0.480835	-0.000057
1210	1.2030e+02	-8.1688	-21.457376	0.000304	3.041126	1.030362	-0.000122
1211	1.2039e+02	-8.2073	-21.542156	0.000213	2.128789	0.721253	-0.000085
1212	1.2049e+02	-8.2474	-21.659233	0.000294	2.939756	0.996016	-0.000118
1213	1.2059e+02	-8.2875	-21.752087	0.000233	2.331530	0.789944	-0.000093
1214	1.2069e+02	-8.3212	-21.893387	0.000355	3.547981	1.202088	-0.000142
1215	1.2079e+02	-8.3581	-22.006427	0.000284	2.838385	0.961671	-0.000114
1216	1.2089e+02	-8.4062	-22.107355	0.000253	2.534272	0.858635	-0.000101
1217	1.2099e+02	-8.4367	-22.188098	0.000203	2.027418	0.686908	-0.000081
1218	1.2109e+02	-8.4768	-22.284989	0.000243	2.432901	0.824289	-0.000097
1219	1.2119e+02	-8.5265	-22.389955	0.000264	2.635643	0.892980	-0.000105
1220	1.2129e+02	-8.5682	-22.507032	0.000294	2.939756	0.996016	-0.000118
1221	1.2139e+02	-8.5939	-22.607960	0.000253	2.534272	0.858635	-0.000101
1222	1.2149e+02	-8.6436	-22.696777	0.000223	2.230159	0.755598	-0.000089
1223	1.2159e+02	-8.6757	-22.850188	0.000385	3.852093	1.305125	-0.000154
1224	1.2169e+02	-8.7222	-22.947080	0.000243	2.432901	0.824289	-0.000097
1225	1.2179e+02	-8.7607	-23.043971	0.000243	2.432901	0.824289	-0.000097
1226	1.2189e+02	-8.7880	-23.161048	0.000294	2.939756	0.996016	-0.000118
1227	1.2199e+02	-8.8361	-23.233716	0.000182	1.824676	0.618217	-0.000073
1228	1.2209e+02	-8.8826	-23.383090	0.000375	3.750723	1.270779	-0.000150
1229	1.2219e+02	-8.9276	-23.479981	0.000243	2.432901	0.824289	-0.000097
1230	1.2229e+02	-8.9516	-23.572836	0.000233	2.331530	0.789944	-0.000093
1231	1.2239e+02	-9.0014	-23.685875	0.000284	2.838385	0.961671	-0.000114
1232	1.2248e+02	-9.0415	-23.790841	0.000264	2.635643	0.892980	-0.000105
1233	1.2258e+02	-9.0832	-23.907918	0.000294	2.939756	0.996016	-0.000118
1234	1.2268e+02	-9.1120	-24.016921	0.000274	2.737014	0.927325	-0.000110
1235	1.2278e+02	-9.1554	-24.085552	0.000172	1.723305	0.583872	-0.000069
1236	1.2288e+02	-9.1939	-24.283371	0.000497	4.967173	1.682924	-0.000199
1237	1.2298e+02	-9.2324	-24.343929	0.000152	1.520563	0.515181	-0.000061
1238	1.2308e+02	-9.2821	-24.465043	0.000304	3.041126	1.030362	-0.000122
1239	1.2318e+02	-9.3206	-24.549822	0.000213	2.128789	0.721253	-0.000085
1240	1.2328e+02	-9.3607	-24.674974	0.000314	3.142497	1.064707	-0.000126
1241	1.2338e+02	-9.4008	-24.775902	0.000253	2.534272	0.858635	-0.000101
1242	1.2348e+02	-9.4361	-24.901053	0.000314	3.142497	1.064707	-0.000126
1243	1.2358e+02	-9.4714	-24.993907	0.000233	2.331530	0.789944	-0.000093
1244	1.2368e+02	-9.5195	-25.094836	0.000253	2.534272	0.858635	-0.000101
1245	1.2378e+02	-9.5548	-25.211913	0.000294	2.939756	0.996016	-0.000118
1246	1.2388e+02	-9.6045	-25.304767	0.000233	2.331530	0.789944	-0.000093
1247	1.2398e+02	-9.6334	-25.429918	0.000314	3.142497	1.064707	-0.000126
1248	1.2408e+02	-9.6831	-25.502586	0.000182	1.824676	0.618217	-0.000073
1249	1.2418e+02	-9.7200	-25.664072	0.000405	4.054835	1.373815	-0.000162
1250	1.2428e+02	-9.7521	-25.752889	0.000223	2.230159	0.755598	-0.000089
1251	1.2438e+02	-9.7874	-25.797297	0.000112	1.115080	0.377799	-0.000045
1252	1.2447e+02	-9.8291	-25.958783	0.000405	4.054835	1.373815	-0.000162
1253	1.2457e+02	-9.8708	-26.039526	0.000203	2.027418	0.686908	-0.000081
1254	1.2467e+02	-9.9077	-26.160640	0.000304	3.041126	1.030362	-0.000122
1255	1.2477e+02	-9.9462	-26.273679	0.000284	2.838385	0.961671	-0.000114
1256	1.2487e+02	-9.9928	-26.350385	0.000193	1.926047	0.652562	-0.000077
1257	1.2497e+02	-10.0249	-26.459388	0.000274	2.737014	0.927325	-0.000110
1258	1.2507e+02	-10.0762	-26.556279	0.000243	2.432901	0.824289	-0.000097
1259	1.2517e+02	-10.1147	-26.681430	0.000314	3.142497	1.064707	-0.000126
1260	1.2527e+02	-10.1580	-26.794470	0.000284	2.838385	0.961671	-0.000114
1261	1.2537e+02	-10.1853	-26.863101	0.000172	1.723305	0.583872	-0.000069
1262	1.2547e+02	-10.2286	-27.028624	0.000416	4.156206	1.408161	-0.000166
1263	1.2557e+02	-10.2719	-27.101292	0.000182	1.824676	0.618217	-0.000073
1264	1.2567e+02	-10.3120	-27.198183	0.000243	2.432901	0.824289	-0.000097
1265	1.2577e+02	-10.3601	-27.359669	0.000405	4.054835	1.373815	-0.000162
1266	1.2587e+02	-10.3906	-27.400040	0.000101	1.013709	0.343454	-0.000041
1267	1.2597e+02	-10.4275	-27.537303	0.000345	3.446610	1.167743	-0.000138
1268	1.2607e+02	-10.4756	-27.646306	0.000274	2.737014	0.927325	-0.000110
1269	1.2617e+02	-10.5125	-27.702825	0.000142	1.419192	0.480835	-0.000057
1270	1.2627e+02	-10.5446	-27.791642	0.000223	2.230159	0.755598	-0.000089
1271	1.2636e+02	-10.5960	-27.916794	0.000314	3.142497	1.064707	-0.000126
1272	1.2646e+02	-10.6280	-28.050019	0.000335	3.345239	1.133398	-0.000134
1273	1.2656e+02	-10.6681	-28.138836	0.000223	2.230159	0.755598	-0.000089
1274	1.2666e+02	-10.7131	-28.243802	0.000264	2.635643	0.892980	-0.000105
1275	1.2676e+02	-10.7580	-28.324544	0.000203	2.027418	0.686908	-0.000081
1276	1.2686e+02	-10.7933	-28.449696	0.000314	3.142497	1.064707	-0.000126
1277	1.2696e+02	-10.8286	-28.582921	0.000335	3.345239	1.133398	-0.000134
1278	1.2706e+02	-10.8751	-28.655589	0.000182	1.824676	0.618217	-0.000073
1279	1.2716e+02	-10.9056	-28.752481	0.000243	2.432901	0.824289	-0.000097
1280	1.2726e+02	-10.9521	-28.845335	0.000233	2.331530	0.789944	-0.000093
1281	1.2736e+02	-10.9970	-28.966449	0.000304	3.041126	1.030362	-0.000122
1282	1.2746e+02	-11.0323	-29.103712	0.000345	3.446610	1.167743	-0.000138
1283	1.2756e+02	-11.0740	-29.168306	0.000162	1.621934	0.549526	-0.000065
1284	1.2766e+02	-11.1141	-29.261160	0.000233	2.331530	0.789944	-0.000093
1285	1.2776e+02	-11.1542	-29.410534	0.000375	3.750723	1.270779	-0.000150
1286	1.2786e+02	-11.1895	-29.527611	0.000294	2.939756	0.996016	-0.000118
1287	1.2796e+02	-11.2200	-29.580094	0.000132	1.317821	0.446490	-0.000053
1288	1.2806e+02	-11.2617	-29.701208	0.000304	3.041126	1.030362	-0.000122
1289	1.2816e+02	-11.3114	-29.810210	0.000274	2.737014	0.927325	-0.000110
1290	1.2826e+02	-11.3467	-29.890953	0.000203	2.027418	0.686908	-0.000081
1291	1.2835e+02	-11.3852	-29.987844	0.000243	2.432901	0.824289	-0.000097
1292	1.2845e+02	-11.4334	-30.125107	0.000345	3.446610	1.167743	-0.000138
1293	1.2855e+02	-11.4655	-30.213924	0.000223	2.230159	0.755598	-0.000089
1294	1.2865e+02	-11.5040	-30.355224	0.000355	3.547981	1.202088	-0.000142
1295	1.2875e+02	-11.5505	-30.444041	0.000223	2.230159	0.755598	-0.000089
1296	1.2885e+02	-11.5842	-30.540932	0.000243	2.432901	0.824289	-0.000097
1297	1.2895e+02	-11.6355	-30.625712	0.000213	2.128789	0.721253	-0.000085
1298	1.2905e+02	-11.6676	-30.762974	0.000345	3.446610	1.167743	-0.000138
1299	1.2915e+02	-11.7093	-30.847754	0.000213	2.128789	0.721253	-0.000085
1300	1.2925e+02	-11.7430	-30.952720	0.000264	2.635643	0.892980	-0.000105
1301	1.2935e+02	-11.7927	-31.037500	0.000213	2.128789	0.721253	-0.000085
1302	1.2945e+02	-11.8344	-31.138428	0.000253	2.534272	0.858635	-0.000101
1303	1.2955e+02	-11.8697	-31.235319	0.000243	2.432901	0.824289	-0.000097
1304	1.2965e+02	-11.9034	-31.376619	0.000355	3.547981	1.202088	-0.000142
1305	1.2975e+02	-11.9499	-31.449287	0.000182	1.824676	0.618217	-0.000073
1306	1.2985e+02	-11.9852	-31.574439	0.000314	3.142497	1.064707	-0.000126
1307	1.2995e+02	-12.0317	-31.667293	0.000233	2.331530	0.789944	-0.000093
1308	1.3005e+02	-12.0654	-31.772258	0.000264	2.635643	0.892980	-0.000105
1309	1.3015e+02	-12.1087	-31.885298	0.000284	2.838385	0.961671	-0.000114
1310	1.3025e+02	-12.1521	-31.970078	0.000213	2.128789	0.721253	-0.000085
1311	1.3034e+02	-12.1793	-32.083118	0.000284	2.838385	0.961671	-0.000114
1312	1.3044e+02	-12.2243	-32.143675	0.000152	1.520563	0.515181	-0.000061
1313	1.3054e+02	-12.2595	-32.248640	0.000264	2.635643	0.892980	-0.000105
1314	1.3064e+02	-12.3045	-32.353606	0.000264	2.635643	0.892980	-0.000105
1315	1.3074e+02	-12.3462	-32.446460	0.000233	2.331530	0.789944	-0.000093
1316	1.3084e+02	-12.3879	-32.571611	0.000314	3.142497	1.064707	-0.000126
1317	1.3094e+02	-12.4200	-32.664465	0.000233	2.331530	0.789944	-0.000093
1318	1.3104e+02	-12.4697	-32.741171	0.000193	1.926047	0.652562	-0.000077
1319	1.3114e+02	-12.4970	-32.842099	0.000253	2.534272	0.858635	-0.000101
1320	1.3124e+02	-12.5451	-32.943028	0.000253	2.534272	0.858635	-0.000101
1321	1.3134e+02	-12.5836	-33.068179	0.000314	3.142497	1.064707	-0.000126
1322	1.3144e+02	-12.6237	-33.132773	0.000162	1.621934	0.549526	-0.000065
1323	1.3154e+02	-12.6654	-33.257924	0.000314	3.142497	1.064707	-0.000126
1324	1.3164e+02	-12.7071	-33.362890	0.000264	2.635643	0.892980	-0.000105
1325	1.3174e+02	-12.7472	-33.427484	0.000162	1.621934	0.549526	-0.000065
1326	1.3184e+02	-12.7793	-33.576858	0.000375	3.750723	1.270779	-0.000150
1327	1.3194e+02	-12.8130	-33.609155	0.000081	0.810967	0.274763	-0.000032
1328	1.3204e+02	-12.8676	-33.794863	0.000466	4.663061	1.579888	-0.000187
1329	1.3214e+02	-12.9093	-33.843309	0.000122	1.216451	0.412145	-0.000049
1330	1.3224e+02	-12.9478	-33.928089	0.000213	2.128789	0.721253	-0.000085
1331	1.3234e+02	-12.9782	-34.029017	0.000253	2.534272	0.858635	-0.000101
1332	1.3243e+02	-13.0376	-34.109760	0.000203	2.027418	0.686908	-0.000081
1333	1.3253e+02	-13.0601	-34.251060	0.000355	3.547981	1.202088	-0.000142
1334	1.3263e+02	-13.1098	-34.356025	0.000264	2.635643	0.892980	-0.000105
1335	1.3273e+02	-13.1451	-34.436768	0.000203	2.027418	0.686908	-0.000081
1336	1.3283e+02	-13.1804	-34.537696	0.000253	2.534272	0.858635	-0.000101
1337	1.3293e+02	-13.2269	-34.634587	0.000243	2.432901	0.824289	-0.000097
1338	1.3303e+02	-13.2574	-34.747627	0.000284	2.838385	0.961671	-0.000114
1339	1.3313e+02	-13.3055	-34.828370	0.000203	2.027418	0.686908	-0.000081
1340	1.3323e+02	-13.3360	-34.969670	0.000355	3.547981	1.202088	-0.000142
1341	1.3333e+02	-13.3777	-35.054450	0.000213	2.128789	0.721253	-0.000085
1342	1.3343e+02	-13.4194	-35.163452	0.000274	2.737014	0.927325	-0.000110
1343	1.3353e+02	-13.4627	-35.240158	0.000193	1.926047	0.652562	-0.000077
1344	1.3363e+02	-13.4996	-35.337049	0.000243	2.432901	0.824289	-0.000097
1345	1.3373e+02	-13.5429	-35.425866	0.000223	2.230159	0.755598	-0.000089
1346	1.3383e+02	-13.5750	-35.526794	0.000253	2.534272	0.858635	-0.000101
1347	1.3393e+02	-13.6183	-35.635797	0.000274	2.737014	0.927325	-0.000110
1348	1.3403e+02	-13.6584	-35.732688	0.000243	2.432901	0.824289	-0.000097
1349	1.3413e+02	-13.6937	-35.841691	0.000274	2.737014	0.927325	-0.000110
1350	1.3423e+02	-13.7419	-35.922434	0.000203	2.027418	0.686908	-0.000081
1351	1.3432e+02	-13.7772	-36.051622	0.000324	3.243868	1.099052	-0.000130
1352	1.3442e+02	-13.8157	-36.144476	0.000233	2.331530	0.789944	-0.000093
1353	1.3452e+02	-13.8526	-36.245405	0.000253	2.534272	0.858635	-0.000101
1354	1.3462e+02	-13.8975	-36.362482	0.000294	2.939756	0.996016	-0.000118
1355	1.3472e+02	-13.9424	-36.463410	0.000253	2.534272	0.858635	-0.000101
1356	1.3482e+02	-13.9745	-36.532041	0.000172	1.723305	0.583872	-0.000069
1357	1.3492e+02	-14.0178	-36.632970	0.000253	2.534272	0.858635	-0.000101
1358	1.3502e+02	-14.0483	-36.697564	0.000162	1.621934	0.549526	-0.000065
1359	1.3512e+02	-14.0932	-36.855012	0.000395	3.953464	1.339470	-0.000158
1360	1.3522e+02	-14.1333	-36.955941	0.000253	2.534272	0.858635	-0.000101
1361	1.3532e+02	-14.1830	-37.064943	0.000274	2.737014	0.927325	-0.000110
1362	1.3542e+02	-14.2103	-37.149723	0.000213	2.128789	0.721253	-0.000085
1363	1.3552e+02	-14.2568	-37.246614	0.000243	2.432901	0.824289	-0.000097
1364	1.3562e+02	-14.2969	-37.363691	0.000294	2.939756	0.996016	-0.000118
1365	1.3572e+02	-14.3467	-37.452508	0.000223	2.230159	0.755598	-0.000089
1366	1.3582e+02	-14.3691	-37.521140	0.000172	1.723305	0.583872	-0.000069
1367	1.3592e+02	-14.4012	-37.654365	0.000335	3.345239	1.133398	-0.000134
1368	1.3602e+02	-14.4541	-37.702811	0.000122	1.216451	0.412145	-0.000049
1369	1.3612e+02	-14.4862	-37.811813	0.000274	2.737014	0.927325	-0.000110
1370	1.3622e+02	-14.5279	-37.936965	0.000314	3.142497	1.064707	-0.000126
1371	1.3631e+02	-14.5712	-38.017707	0.000203	2.027418	0.686908	-0.000081
1372	1.3641e+02	-14.6178	-38.163044	0.000365	3.649352	1.236434	-0.000146
1373	1.3651e+02	-14.6547	-38.219564	0.000142	1.419192	0.480835	-0.000057
1374	1.3661e+02	-14.6980	-38.328567	0.000274	2.737014	0.927325	-0.000110
1375	1.3671e+02	-14.7365	-38.437569	0.000274	2.737014	0.927325	-0.000110
1376	1.3681e+02	-14.7750	-38.534461	0.000243	2.432901	0.824289	-0.000097
1377	1.3691e+02	-14.8167	-38.611166	0.000193	1.926047	0.652562	-0.000077
1378	1.3701e+02	-14.8584	-38.728243	0.000294	2.939756	0.996016	-0.000118
1379	1.3711e+02	-14.8953	-38.829172	0.000253	2.534272	0.858635	-0.000101
1380	1.3721e+02	-14.9354	-38.877617	0.000122	1.216451	0.412145	-0.000049
1381	1.3731e+02	-14.9739	-39.002768	0.000314	3.142497	1.064707	-0.000126
1382	1.3741e+02	-15.0172	-39.075437	0.000182	1.824676	0.618217	-0.000073
1383	1.3751e+02	-15.0461	-39.204625	0.000324	3.243868	1.099052	-0.000130
1384	1.3761e+02	-15.0990	-39.301516	0.000243	2.432901	0.824289	-0.000097
1385	1.3771e+02	-15.1295	-39.366111	0.000162	1.621934	0.549526	-0.000065
1386	1.3781e+02	-15.1664	-39.463002	0.000243	2.432901	0.824289	-0.000097
1387	1.3791e+02	-15.2145	-39.580079	0.000294	2.939756	0.996016	-0.000118
1388	1.3801e+02	-15.2627	-39.693119	0.000284	2.838385	0.961671	-0.000114
1389	1.3811e+02	-15.2932	-39.790010	0.000243	2.432901	0.824289	-0.000097
1390	1.3821e+02	-15.3300	-39.890938	0.000253	2.534272	0.858635	-0.000101
1391	1.3831e+02	-15.3750	-40.024164	0.000335	3.345239	1.133398	-0.000134
1392	1.3840e+02	-15.4119	-40.121055	0.000243	2.432901	0.824289	-0.000097
1393	1.3850e+02	-15.4504	-40.181612	0.000152	1.520563	0.515181	-0.000061
1394	1.3860e+02	-15.4873	-40.282540	0.000253	2.534272	0.858635	-0.000101
1395	1.3870e+02	-15.5338	-40.399617	0.000294	2.939756	0.996016	-0.000118
1396	1.3880e+02	-15.5723	-40.544954	0.000365	3.649352	1.236434	-0.000146
1397	1.3890e+02	-15.6108	-40.609548	0.000162	1.621934	0.549526	-0.000065
1398	1.3900e+02	-15.6509	-40.686254	0.000193	1.926047	0.652562	-0.000077
1399	1.3910e+02	-15.6926	-40.819479	0.000335	3.345239	1.133398	-0.000134
1400	1.3920e+02	-15.7263	-40.940594	0.000304	3.041126	1.030362	-0.000122
1401	1.3930e+02	-15.7776	-41.009225	0.000172	1.723305	0.583872	-0.000069
1402	1.3940e+02	-15.8145	-41.110153	0.000253	2.534272	0.858635	-0.000101
1403	1.3950e+02	-15.8482	-41.207044	0.000243	2.432901	0.824289	-0.000097
1404	1.3960e+02	-15.8867	-41.340270	0.000335	3.345239	1.133398	-0.000134
1405	1.3970e+02	-15.9364	-41.425050	0.000213	2.128789	0.721253	-0.000085
1406	1.3980e+02	-15.9717	-41.538090	0.000284	2.838385	0.961671	-0.000114
1407	1.3990e+02	-16.0118	-41.655167	0.000294	2.939756	0.996016	-0.000118
1408	1.4000e+02	-16.0552	-41.735909	0.000203	2.027418	0.686908	-0.000081
1409	1.4010e+02	-16.0776	-41.832801	0.000243	2.432901	0.824289	-0.000097
1410	1.4020e+02	-16.1338	-41.949877	0.000294	2.939756	0.996016	-0.000118
1411	1.4029e+02	-16.1771	-42.018509	0.000172	1.723305	0.583872	-0.000069
1412	1.4039e+02	-16.2124	-42.135586	0.000294	2.939756	0.996016	-0.000118
1413	1.4049e+02	-16.2445	-42.220366	0.000213	2.128789	0.721253	-0.000085
1414	1.4059e+02	-16.2926	-42.321294	0.000253	2.534272	0.858635	-0.000101
1415	1.4069e+02	-16.3215	-42.434334	0.000284	2.838385	0.961671	-0.000114
1416	1.4079e+02	-16.3696	-42.551411	0.000294	2.939756	0.996016	-0.000118
1417	1.4089e+02	-16.4017	-42.656376	0.000264	2.635643	0.892980	-0.000105
1418	1.4099e+02	-16.4386	-42.753267	0.000243	2.432901	0.824289	-0.000097
1419	1.4109e+02	-16.4867	-42.829973	0.000193	1.926047	0.652562	-0.000077
1420	1.4119e+02	-16.5284	-42.943013	0.000284	2.838385	0.961671	-0.000114
1421	1.4129e+02	-16.5685	-43.084313	0.000355	3.547981	1.202088	-0.000142
1422	1.4139e+02	-16.6118	-43.156981	0.000182	1.824676	0.618217	-0.000073
1423	1.4149e+02	-16.6439	-43.229649	0.000182	1.824676	0.618217	-0.000073
1424	1.4159e+02	-16.6840	-43.354801	0.000314	3.142497	1.064707	-0.000126
1425	1.4169e+02	-16.7257	-43.467840	0.000284	2.838385	0.961671	-0.000114
1426	1.4179e+02	-16.7739	-43.556657	0.000223	2.230159	0.755598	-0.000089
1427	1.4189e+02	-16.8043	-43.641437	0.000213	2.128789	0.721253	-0.000085
1428	1.4199e+02	-16.8348	-43.754477	0.000284	2.838385	0.961671	-0.000114
1429	1.4209e+02	-16.8974	-43.839257	0.000213	2.128789	0.721253	-0.000085
1430	1.4219e+02	-16.9311	-43.928074	0.000223	2.230159	0.755598	-0.000089
1431	1.4228e+02	-16.9712	-44.049188	0.000304	3.041126	1.030362	-0.000122
1432	1.4238e+02	-17.0081	-44.133968	0.000213	2.128789	0.721253	-0.000085
1433	1.4248e+02	-17.0450	-44.255082	0.000304	3.041126	1.030362	-0.000122
1434	1.4258e+02	-17.0883	-44.339862	0.000213	2.128789	0.721253	-0.000085
1435	1.4268e+02	-17.1188	-44.396382	0.000142	1.419192	0.480835	-0.000057
1436	1.4278e+02	-17.1685	-44.525570	0.000324	3.243868	1.099052	-0.000130
1437	1.4288e+02	-17.1958	-44.650721	0.000314	3.142497	1.064707	-0.000126
1438	1.4298e+02	-17.2471	-44.747613	0.000243	2.432901	0.824289	-0.000097
1439	1.4308e+02	-17.2888	-44.876801	0.000324	3.243868	1.099052	-0.000130
1440	1.4318e+02	-17.3305	-44.953506	0.000193	1.926047	0.652562	-0.000077
1441	1.4328e+02	-17.3642	-45.034249	0.000203	2.027418	0.686908	-0.000081
1442	1.4338e+02	-17.4027	-45.123066	0.000223	2.230159	0.755598	-0.000089
1443	1.4348e+02	-17.4492	-45.232069	0.000274	2.737014	0.927325	-0.000110
1444	1.4358e+02	-17.4765	-45.353183	0.000304	3.041126	1.030362	-0.000122
1445	1.4368e+02	-17.5246	-45.429888	0.000193	1.926047	0.652562	-0.000077
1446	1.4378e+02	-17.5615	-45.546965	0.000294	2.939756	0.996016	-0.000118
1447	1.4388e+02	-17.6129	-45.635782	0.000223	2.230159	0.755598	-0.000089
1448	1.4398e+02	-17.6353	-45.740748	0.000264	2.635643	0.892980	-0.000105
1449	1.4408e+02	-17.6819	-45.829565	0.000223	2.230159	0.755598	-0.000089
1450	1.4418e+02	-17.7236	-45.958753	0.000324	3.243868	1.099052	-0.000130
1451	1.4428e+02	-17.7637	-46.087942	0.000324	3.243868	1.099052	-0.000130
1452	1.4437e+02	-17.8102	-46.176759	0.000223	2.230159	0.755598	-0.000089
1453	1.4447e+02	-17.8391	-46.269613	0.000233	2.331530	0.789944	-0.000093
1454	1.4457e+02	-17.8760	-46.362467	0.000233	2.331530	0.789944	-0.000093
1455	1.4467e+02	-17.9241	-46.467432	0.000264	2.635643	0.892980	-0.000105
1456	1.4477e+02	-17.9498	-46.560286	0.000233	2.331530	0.789944	-0.000093
1457	1.4487e+02	-18.0027	-46.657178	0.000243	2.432901	0.824289	-0.000097
1458	1.4497e+02	-18.0476	-46.745995	0.000223	2.230159	0.755598	-0.000089
1459	1.4507e+02	-18.0765	-46.875183	0.000324	3.243868	1.099052	-0.000130
1460	1.4517e+02	-18.1214	-46.972074	0.000243	2.432901	0.824289	-0.000097
1461	1.4527e+02	-18.1663	-47.089151	0.000294	2.939756	0.996016	-0.000118
1462	1.4537e+02	-18.1984	-47.198154	0.000274	2.737014	0.927325	-0.000110
1463	1.4547e+02	-18.2369	-47.291008	0.000233	2.331530	0.789944	-0.000093
1464	1.4557e+02	-18.2866	-47.404048	0.000284	2.838385	0.961671	-0.000114
1465	1.4567e+02	-18.3155	-47.496902	0.000233	2.331530	0.789944	-0.000093
1466	1.4577e+02	-18.3556	-47.618016	0.000304	3.041126	1.030362	-0.000122
1467	1.4587e+02	-18.3957	-47.702796	0.000213	2.128789	0.721253	-0.000085
1468	1.4597e+02	-18.4471	-47.803724	0.000253	2.534272	0.858635	-0.000101
1469	1.4607e+02	-18.4759	-47.904653	0.000253	2.534272	0.858635	-0.000101
1470	1.4617e+02	-18.5209	-48.017692	0.000284	2.838385	0.961671	-0.000114
1471	1.4626e+02	-18.5546	-48.114584	0.000243	2.432901	0.824289	-0.000097
1472	1.4636e+02	-18.5898	-48.235698	0.000304	3.041126	1.030362	-0.000122
1473	1.4646e+02	-18.6364	-48.324515	0.000223	2.230159	0.755598	-0.000089
1474	1.4656e+02	-18.6781	-48.469852	0.000365	3.649352	1.236434	-0.000146
1475	1.4666e+02	-18.7326	-48.514260	0.000112	1.115080	0.377799	-0.000045
1476	1.4676e+02	-18.7599	-48.623263	0.000274	2.737014	0.927325	-0.000110
1477	1.4686e+02	-18.7984	-48.699968	0.000193	1.926047	0.652562	-0.000077
1478	1.4696e+02	-18.8369	-48.869528	0.000426	4.257577	1.442506	-0.000170
1479	1.4706e+02	-18.8802	-48.942197	0.000182	1.824676	0.618217	-0.000073
1480	1.4716e+02	-18.9235	-49.055236	0.000284	2.838385	0.961671	-0.000114
1481	1.4726e+02	-18.9492	-49.075422	0.000051	0.506854	0.171727	-0.000020
1482	1.4736e+02	-19.0021	-49.240945	0.000416	4.156206	1.408161	-0.000166
1483	1.4746e+02	-19.0374	-49.337836	0.000243	2.432901	0.824289	-0.000097
1484	1.4756e+02	-19.0727	-49.475098	0.000345	3.446610	1.167743	-0.000138
1485	1.4766e+02	-19.1112	-49.531618	0.000142	1.419192	0.480835	-0.000057
1486	1.4776e+02	-19.1513	-49.660807	0.000324	3.243868	1.099052	-0.000130
1487	1.4786e+02	-19.1979	-49.769809	0.000274	2.737014	0.927325	-0.000110
1488	1.4796e+02	-19.2444	-49.858626	0.000223	2.230159	0.755598	-0.000089
1489	1.4806e+02	-19.2845	-49.967629	0.000274	2.737014	0.927325	-0.000110
1490	1.4816e+02	-19.3198	-50.056446	0.000223	2.230159	0.755598	-0.000089
1491	1.4825e+02	-19.3599	-50.177560	0.000304	3.041126	1.030362	-0.000122
1492	1.4835e+02	-19.4032	-50.278488	0.000253	2.534272	0.858635	-0.000101
1493	1.4845e+02	-19.4321	-50.435937	0.000395	3.953464	1.339470	-0.000158
1494	1.4855e+02	-19.4722	-50.520717	0.000213	2.128789	0.721253	-0.000085
1495	1.4865e+02	-19.5155	-50.601459	0.000203	2.027418	0.686908	-0.000081
1496	1.4875e+02	-19.5588	-50.738722	0.000345	3.446610	1.167743	-0.000138
1497	1.4885e+02	-19.6069	-50.815428	0.000193	1.926047	0.652562	-0.000077
1498	1.4895e+02	-19.6310	-50.932504	0.000294	2.939756	0.996016	-0.000118
1499	1.4905e+02	-19.6727	-51.037470	0.000264	2.635643	0.892980	-0.000105
1500	1.4915e+02	-19.7112	-51.162621	0.000314	3.142497	1.064707	-0.000126
1501	1.4925e+02	-19.7545	-51.251438	0.000223	2.230159	0.755598	-0.000089
1502	1.4935e+02	-19.7914	-51.376589	0.000314	3.142497	1.064707	-0.000126
1503	1.4945e+02	-19.8347	-51.525963	0.000375	3.750723	1.270779	-0.000150
1504	1.4955e+02	-19.8716	-51.614780	0.000223	2.230159	0.755598	-0.000089
1505	1.4965e+02	-19.9069	-51.727820	0.000284	2.838385	0.961671	-0.000114
1506	1.4975e+02	-19.9647	-51.832786	0.000264	2.635643	0.892980	-0.000105
1507	1.4985e+02	-19.9936	-51.957937	0.000314	3.142497	1.064707	-0.000126
1508	1.4995e+02	-19.9534	-51.889306	0.000172	1.723305	0.583872	0.000069
1509	1.5005e+02	-19.9037	-51.869120	0.000051	0.506854	0.171727	0.000020
1510	1.5015e+02	-19.8748	-51.848934	0.000051	0.506854	0.171727	0.000020
1511	1.5025e+02	-19.8315	-51.800489	0.000122	1.216451	0.412145	0.000049
1512	1.5034e+02	-19.7930	-51.703597	0.000243	2.432901	0.824289	0.000097
1513	1.5044e+02	-19.7561	-51.675337	0.000071	0.709596	0.240418	0.000028
1514	1.5054e+02	-19.7112	-51.618818	0.000142	1.419192	0.480835	0.000057
1515	1.5064e+02	-19.6727	-51.602669	0.000041	0.405484	0.137382	0.000016
1516	1.5074e+02	-19.6326	-51.497703	0.000264	2.635643	0.892980	0.000105
1517	1.5084e+02	-19.5989	-51.388701	0.000274	2.737014	0.927325	0.000110
1518	1.5094e+02	-19.5540	-51.368515	0.000051	0.506854	0.171727	0.000020
1519	1.5104e+02	-19.5203	-51.360441	0.000020	0.202742	0.068691	0.000008
1520	1.5114e+02	-19.4770	-51.211067	0.000375	3.750723	1.270779	0.000150
1521	1.5124e+02	-19.4321	-51.223178	-0.000030	-0.304113	-0.103036	-0.000012
1522	1.5134e+02	-19.3920	-51.085916	0.000345	3.446610	1.167743	0.000138
1523	1.5144e+02	-19.3583	-51.085916	0.000000	0.000000	0.000000	0.000000
1524	1.5154e+02	-19.3246	-51.005173	0.000203	2.027418	0.686908	0.000081
1525	1.5164e+02	-19.2781	-50.904245	0.000253	2.534272	0.858635	0.000101
1526	1.5174e+02	-19.2428	-50.871947	0.000081	0.810967	0.274763	0.000032
1527	1.5184e+02	-19.2027	-50.851762	0.000051	0.506854	0.171727	0.000020
1528	1.5194e+02	-19.1513	-50.762945	0.000223	2.230159	0.755598	0.000089
1529	1.5204e+02	-19.1241	-50.718536	0.000112	1.115080	0.377799	0.000045
1530	1.5214e+02	-19.0823	-50.617608	0.000253	2.534272	0.858635	0.000101
1531	1.5224e+02	-19.0358	-50.557051	0.000152	1.520563	0.515181	0.000061
1532	1.5233e+02	-19.0005	-50.484382	0.000182	1.824676	0.618217	0.000073
1533	1.5243e+02	-18.9588	-50.379417	0.000264	2.635643	0.892980	0.000105
1534	1.5253e+02	-18.9251	-50.363268	0.000041	0.405484	0.137382	0.000016
1535	1.5263e+02	-18.8786	-50.302711	0.000152	1.520563	0.515181	0.000061
1536	1.5273e+02	-18.8417	-50.209857	0.000233	2.331530	0.789944	0.000093
1537	1.5283e+02	-18.8016	-50.121040	0.000223	2.230159	0.755598	0.000089
1538	1.5293e+02	-18.7535	-50.052409	0.000172	1.723305	0.583872	0.000069
1539	1.5303e+02	-18.7182	-49.975703	0.000193	1.926047	0.652562	0.000077
1540	1.5313e+02	-18.6813	-49.890923	0.000213	2.128789	0.721253	0.000085
1541	1.5323e+02	-18.6348	-49.830366	0.000152	1.520563	0.515181	0.000061
1542	1.5333e+02	-18.6059	-49.761735	0.000172	1.723305	0.583872	0.000069
1543	1.5343e+02	-18.5562	-49.701178	0.000152	1.520563	0.515181	0.000061
1544	1.5353e+02	-18.5193	-49.632547	0.000172	1.723305	0.583872	0.000069
1545	1.5363e+02	-18.4808	-49.519507	0.000284	2.838385	0.961671	0.000114
1546	1.5373e+02	-18.4407	-49.471061	0.000122	1.216451	0.412145	0.000049
1547	1.5383e+02	-18.3973	-49.390319	0.000203	2.027418	0.686908	0.000081
1548	1.5393e+02	-18.3620	-49.313613	0.000193	1.926047	0.652562	0.000077
1549	1.5403e+02	-18.3107	-49.240945	0.000182	1.824676	0.618217	0.000073
1550	1.5413e+02	-18.2770	-49.188462	0.000132	1.317821	0.446490	0.000053
1551	1.5422e+02	-18.2385	-49.067348	0.000304	3.041126	1.030362	0.000122
1552	1.5432e+02	-18.2016	-49.006791	0.000152	1.520563	0.515181	0.000061
1553	1.5442e+02	-18.1551	-48.942197	0.000162	1.621934	0.549526	0.000065
1554	1.5452e+02	-18.1166	-48.821082	0.000304	3.041126	1.030362	0.000122
1555	1.5462e+02	-18.0765	-48.768600	0.000132	1.317821	0.446490	0.000053
1556	1.5472e+02	-18.0380	-48.659597	0.000274	2.737014	0.927325	0.000110
1557	1.5482e+02	-17.9995	-48.647486	0.000030	0.304113	0.103036	0.000012
1558	1.5492e+02	-17.9562	-48.582891	0.000162	1.621934	0.549526	0.000065
1559	1.5502e+02	-17.9273	-48.498112	0.000213	2.128789	0.721253	0.000085
1560	1.5512e+02	-17.8728	-48.421406	0.000193	1.926047	0.652562	0.000077
1561	1.5522e+02	-17.8359	-48.336626	0.000213	2.128789	0.721253	0.000085
1562	1.5532e+02	-17.8022	-48.259921	0.000193	1.926047	0.652562	0.000077
1563	1.5542e+02	-17.7685	-48.223586	0.000091	0.912338	0.309108	0.000037
1564	1.5552e+02	-17.7171	-48.090361	0.000335	3.345239	1.133398	0.000134
1565	1.5562e+02	-17.6802	-48.054027	0.000091	0.912338	0.309108	0.000037
1566	1.5572e+02	-17.6434	-47.953098	0.000253	2.534272	0.858635	0.000101
1567	1.5582e+02	-17.6113	-47.864281	0.000223	2.230159	0.755598	0.000089
1568	1.5592e+02	-17.5583	-47.827947	0.000091	0.912338	0.309108	0.000037
1569	1.5602e+02	-17.5246	-47.727019	0.000253	2.534272	0.858635	0.000101
1570	1.5612e+02	-17.4861	-47.642239	0.000213	2.128789	0.721253	0.000085
1571	1.5622e+02	-17.4524	-47.577645	0.000162	1.621934	0.549526	0.000065
1572	1.5631e+02	-17.4027	-47.488828	0.000223	2.230159	0.755598	0.000089
1573	1.5641e+02	-17.3722	-47.436345	0.000132	1.317821	0.446490	0.000053
1574	1.5651e+02	-17.3337	-47.371751	0.000162	1.621934	0.549526	0.000065
1575	1.5661e+02	-17.2904	-47.291008	0.000203	2.027418	0.686908	0.000081
1576	1.5671e+02	-17.2551	-47.214302	0.000193	1.926047	0.652562	0.000077
1577	1.5681e+02	-17.2038	-47.145671	0.000172	1.723305	0.583872	0.000069
1578	1.5691e+02	-17.1701	-47.085114	0.000152	1.520563	0.515181	0.000061
1579	1.5701e+02	-17.1396	-46.976111	0.000274	2.737014	0.927325	0.000110
1580	1.5711e+02	-17.0883	-46.907480	0.000172	1.723305	0.583872	0.000069
1581	1.5721e+02	-17.0418	-46.830775	0.000193	1.926047	0.652562	0.000077
1582	1.5731e+02	-17.0081	-46.762143	0.000172	1.723305	0.583872	0.000069
1583	1.5741e+02	-16.9712	-46.677363	0.000213	2.128789	0.721253	0.000085
1584	1.5751e+02	-16.9263	-46.608732	0.000172	1.723305	0.583872	0.000069
1585	1.5761e+02	-16.8829	-46.499729	0.000274	2.737014	0.927325	0.000110
1586	1.5771e+02	-16.8589	-46.439172	0.000152	1.520563	0.515181	0.000061
1587	1.5781e+02	-16.8156	-46.423024	0.000041	0.405484	0.137382	0.000016
1588	1.5791e+02	-16.7642	-46.289798	0.000335	3.345239	1.133398	0.000134
1589	1.5801e+02	-16.7257	-46.192907	0.000243	2.432901	0.824289	0.000097
1590	1.5811e+02	-16.6920	-46.148499	0.000112	1.115080	0.377799	0.000045
1591	1.5821e+02	-16.6487	-46.051607	0.000243	2.432901	0.824289	0.000097
1592	1.5830e+02	-16.6247	-45.942605	0.000274	2.737014	0.927325	0.000110
1593	1.5840e+02	-16.5589	-45.873973	0.000172	1.723305	0.583872	0.000069
1594	1.5850e+02	-16.5220	-45.841676	0.000081	0.810967	0.274763	0.000032
1595	1.5860e+02	-16.4851	-45.752859	0.000223	2.230159	0.755598	0.000089
1596	1.5870e+02	-16.4466	-45.623671	0.000324	3.243868	1.099052	0.000130
1597	1.5880e+02	-16.4097	-45.546965	0.000193	1.926047	0.652562	0.000077
1598	1.5890e+02	-16.3728	-45.470260	0.000193	1.926047	0.652562	0.000077
1599	1.5900e+02	-16.3295	-45.413740	0.000142	1.419192	0.480835	0.000057
1600	1.5910e+02	-16.2894	-45.316849	0.000243	2.432901	0.824289	0.000097
1601	1.5920e+02	-16.2493	-45.240143	0.000193	1.926047	0.652562	0.000077
1602	1.5930e+02	-16.2044	-45.143252	0.000243	2.432901	0.824289	0.000097
1603	1.5940e+02	-16.1739	-45.058472	0.000213	2.128789	0.721253	0.000085
1604	1.5950e+02	-16.1370	-44.985804	0.000182	1.824676	0.618217	0.000073
1605	1.5960e+02	-16.0889	-44.905061	0.000203	2.027418	0.686908	0.000081
1606	1.5970e+02	-16.0520	-44.832392	0.000182	1.824676	0.618217	0.000073
1607	1.5980e+02	-16.0070	-44.727427	0.000264	2.635643	0.892980	0.000105
1608	1.5990e+02	-15.9701	-44.638610	0.000223	2.230159	0.755598	0.000089
1609	1.6000e+02	-15.9364	-44.569979	0.000172	1.723305	0.583872	0.000069
1610	1.6010e+02	-15.8931	-44.460976	0.000274	2.737014	0.927325	0.000110
1611	1.6019e+02	-15.8594	-44.408493	0.000132	1.317821	0.446490	0.000053
1612	1.6029e+02	-15.8145	-44.307565	0.000253	2.534272	0.858635	0.000101
1613	1.6039e+02	-15.7664	-44.247008	0.000152	1.520563	0.515181	0.000061
1614	1.6049e+02	-15.7327	-44.150116	0.000243	2.432901	0.824289	0.000097
1615	1.6059e+02	-15.6926	-44.109745	0.000101	1.013709	0.343454	0.000041
1616	1.6069e+02	-15.6477	-43.996705	0.000284	2.838385	0.961671	0.000114
1617	1.6079e+02	-15.6108	-43.907888	0.000223	2.230159	0.755598	0.000089
1618	1.6089e+02	-15.5723	-43.806960	0.000253	2.534272	0.858635	0.000101
1619	1.6099e+02	-15.5338	-43.738329	0.000172	1.723305	0.583872	0.000069
1620	1.6109e+02	-15.4953	-43.685846	0.000132	1.317821	0.446490	0.000053
1621	1.6119e+02	-15.4456	-43.597029	0.000223	2.230159	0.755598	0.000089
1622	1.6129e+02	-15.4103	-43.532435	0.000162	1.621934	0.549526	0.000065
1623	1.6139e+02	-15.3702	-43.431506	0.000253	2.534272	0.858635	0.000101
1624	1.6149e+02	-15.3317	-43.362875	0.000172	1.723305	0.583872	0.000069
1625	1.6159e+02	-15.2899	-43.237724	0.000314	3.142497	1.064707	0.000126
1626	1.6169e+02	-15.2482	-43.193315	0.000112	1.115080	0.377799	0.000045
1627	1.6179e+02	-15.2242	-43.084313	0.000274	2.737014	0.927325	0.000110
1628	1.6189e+02	-15.1728	-43.011644	0.000182	1.824676	0.618217	0.000073
1629	1.6199e+02	-15.1327	-42.947050	0.000162	1.621934	0.549526	0.000065
1630	1.6209e+02	-15.0942	-42.846122	0.000253	2.534272	0.858635	0.000101
1631	1.6219e+02	-15.0477	-42.773453	0.000182	1.824676	0.618217	0.000073
1632	1.6228e+02	-15.0156	-42.656376	0.000294	2.939756	0.996016	0.000118
1633	1.6238e+02	-14.9707	-42.595819	0.000152	1.520563	0.515181	0.000061
1634	1.6248e+02	-14.9370	-42.507002	0.000223	2.230159	0.755598	0.000089
1635	1.6258e+02	-14.9001	-42.410111	0.000243	2.432901	0.824289	0.000097
1636	1.6268e+02	-14.8584	-42.345517	0.000162	1.621934	0.549526	0.000065
1637	1.6278e+02	-14.8071	-42.293034	0.000132	1.317821	0.446490	0.000053
1638	1.6288e+02	-14.7734	-42.179994	0.000284	2.838385	0.961671	0.000114
1639	1.6298e+02	-14.7349	-42.054843	0.000314	3.142497	1.064707	0.000126
1640	1.6308e+02	-14.6964	-41.970063	0.000213	2.128789	0.721253	0.000085
1641	1.6318e+02	-14.6547	-41.909506	0.000152	1.520563	0.515181	0.000061
1642	1.6328e+02	-14.6130	-41.812615	0.000243	2.432901	0.824289	0.000097
1643	1.6338e+02	-14.5761	-41.679389	0.000335	3.345239	1.133398	0.000134
1644	1.6348e+02	-14.5488	-41.643055	0.000091	0.912338	0.309108	0.000037
1645	1.6358e+02	-14.4975	-41.530015	0.000284	2.838385	0.961671	0.000114
1646	1.6368e+02	-14.4590	-41.449273	0.000203	2.027418	0.686908	0.000081
1647	1.6378e+02	-14.4172	-41.364493	0.000213	2.128789	0.721253	0.000085
1648	1.6388e+02	-14.3787	-41.340270	0.000061	0.608225	0.206072	0.000024
1649	1.6398e+02	-14.3418	-41.170710	0.000426	4.257577	1.442506	0.000170
1650	1.6408e+02	-14.2889	-41.142450	0.000071	0.709596	0.240418	0.000028
1651	1.6418e+02	-14.2584	-40.997113	0.000365	3.649352	1.236434	0.000146
1652	1.6427e+02	-14.2071	-40.916371	0.000203	2.027418	0.686908	0.000081
1653	1.6437e+02	-14.1782	-40.819479	0.000243	2.432901	0.824289	0.000097
1654	1.6447e+02	-14.1381	-40.771034	0.000122	1.216451	0.412145	0.000049
1655	1.6457e+02	-14.1060	-40.641845	0.000324	3.243868	1.099052	0.000130
1656	1.6467e+02	-14.0579	-40.557066	0.000213	2.128789	0.721253	0.000085
1657	1.6477e+02	-14.0226	-40.456137	0.000253	2.534272	0.858635	0.000101
1658	1.6487e+02	-13.9793	-40.371357	0.000213	2.128789	0.721253	0.000085
1659	1.6497e+02	-13.9328	-40.274466	0.000243	2.432901	0.824289	0.000097
1660	1.6507e+02	-13.8943	-40.197761	0.000193	1.926047	0.652562	0.000077
1661	1.6517e+02	-13.8558	-40.129129	0.000172	1.723305	0.583872	0.000069
1662	1.6527e+02	-13.8189	-40.024164	0.000264	2.635643	0.892980	0.000105
1663	1.6537e+02	-13.7739	-39.899012	0.000314	3.142497	1.064707	0.000126
1664	1.6547e+02	-13.7386	-39.818270	0.000203	2.027418	0.686908	0.000081
1665	1.6557e+02	-13.6953	-39.741564	0.000193	1.926047	0.652562	0.000077
1666	1.6567e+02	-13.6568	-39.664859	0.000193	1.926047	0.652562	0.000077
1667	1.6577e+02	-13.6183	-39.592190	0.000182	1.824676	0.618217	0.000073
1668	1.6587e+02	-13.5750	-39.463002	0.000324	3.243868	1.099052	0.000130
1669	1.6597e+02	-13.5429	-39.374185	0.000223	2.230159	0.755598	0.000089
1670	1.6607e+02	-13.5028	-39.297479	0.000193	1.926047	0.652562	0.000077
1671	1.6616e+02	-13.4515	-39.172328	0.000314	3.142497	1.064707	0.000126
1672	1.6626e+02	-13.4162	-39.099660	0.000182	1.824676	0.618217	0.000073
1673	1.6636e+02	-13.3857	-39.018917	0.000203	2.027418	0.686908	0.000081
1674	1.6646e+02	-13.3488	-38.950286	0.000172	1.723305	0.583872	0.000069
1675	1.6656e+02	-13.3007	-38.861469	0.000223	2.230159	0.755598	0.000089
1676	1.6666e+02	-13.2558	-38.772652	0.000223	2.230159	0.755598	0.000089
1677	1.6676e+02	-13.2269	-38.695946	0.000193	1.926047	0.652562	0.000077
1678	1.6686e+02	-13.1836	-38.574832	0.000304	3.041126	1.030362	0.000122
1679	1.6696e+02	-13.1547	-38.437569	0.000345	3.446610	1.167743	0.000138
1680	1.6706e+02	-13.0986	-38.381049	0.000142	1.419192	0.480835	0.000057
1681	1.6716e+02	-13.0665	-38.308381	0.000182	1.824676	0.618217	0.000073
1682	1.6726e+02	-13.0264	-38.235713	0.000182	1.824676	0.618217	0.000073
1683	1.6736e+02	-12.9782	-38.122673	0.000284	2.838385	0.961671	0.000114
1684	1.6746e+02	-12.9478	-38.037893	0.000213	2.128789	0.721253	0.000085
1685	1.6756e+02	-12.8964	-37.961187	0.000193	1.926047	0.652562	0.000077
1686	1.6766e+02	-12.8676	-37.856222	0.000264	2.635643	0.892980	0.000105
1687	1.6776e+02	-12.8258	-37.747219	0.000274	2.737014	0.927325	0.000110
1688	1.6786e+02	-12.7825	-37.662439	0.000213	2.128789	0.721253	0.000085
1689	1.6796e+02	-12.7504	-37.557474	0.000264	2.635643	0.892980	0.000105
1690	1.6806e+02	-12.7119	-37.460583	0.000243	2.432901	0.824289	0.000097
1691	1.6816e+02	-12.6590	-37.400025	0.000152	1.520563	0.515181	0.000061
1692	1.6825e+02	-12.6205	-37.286986	0.000284	2.838385	0.961671	0.000114
1693	1.6835e+02	-12.5868	-37.230466	0.000142	1.419192	0.480835	0.000057
1694	1.6845e+02	-12.5483	-37.133575	0.000243	2.432901	0.824289	0.000097
1695	1.6855e+02	-12.4986	-37.008423	0.000314	3.142497	1.064707	0.000126
1696	1.6865e+02	-12.4633	-36.923643	0.000213	2.128789	0.721253	0.000085
1697	1.6875e+02	-12.4184	-36.863086	0.000152	1.520563	0.515181	0.000061
1698	1.6885e+02	-12.3879	-36.766195	0.000243	2.432901	0.824289	0.000097
1699	1.6895e+02	-12.3478	-36.717750	0.000122	1.216451	0.412145	0.000049
1700	1.6905e+02	-12.3061	-36.592598	0.000314	3.142497	1.064707	0.000126
1701	1.6915e+02	-12.2628	-36.459373	0.000335	3.345239	1.133398	0.000134
1702	1.6925e+02	-12.2323	-36.382667	0.000193	1.926047	0.652562	0.000077
1703	1.6935e+02	-12.1906	-36.285776	0.000243	2.432901	0.824289	0.000097
1704	1.6945e+02	-12.1392	-36.192922	0.000233	2.331530	0.789944	0.000093
1705	1.6955e+02	-12.1039	-36.136402	0.000142	1.419192	0.480835	0.000057
1706	1.6965e+02	-12.0622	-36.047585	0.000223	2.230159	0.755598	0.000089
1707	1.6975e+02	-12.0334	-35.946657	0.000253	2.534272	0.858635	0.000101
1708	1.6985e+02	-11.9836	-35.833617	0.000284	2.838385	0.961671	0.000114
1709	1.6995e+02	-11.9499	-35.712503	0.000304	3.041126	1.030362	0.000122
1710	1.7005e+02	-11.9034	-35.643871	0.000172	1.723305	0.583872	0.000069
1711	1.7015e+02	-11.8649	-35.571203	0.000182	1.824676	0.618217	0.000073
1712	1.7024e+02	-11.8184	-35.482386	0.000223	2.230159	0.755598	0.000089
1713	1.7034e+02	-11.7943	-35.333012	0.000375	3.750723	1.270779	0.000150
1714	1.7044e+02	-11.7446	-35.256306	0.000193	1.926047	0.652562	0.000077
1715	1.7054e+02	-11.7093	-35.207861	0.000122	1.216451	0.412145	0.000049
1716	1.7064e+02	-11.6660	-35.082710	0.000314	3.142497	1.064707	0.000126
1717	1.7074e+02	-11.6227	-34.973707	0.000274	2.737014	0.927325	0.000110
1718	1.7084e+02	-11.5874	-34.880853	0.000233	2.331530	0.789944	0.000093
1719	1.7094e+02	-11.5521	-34.824333	0.000142	1.419192	0.480835	0.000057
1720	1.7104e+02	-11.5023	-34.695145	0.000324	3.243868	1.099052	0.000130
1721	1.7114e+02	-11.4703	-34.646699	0.000122	1.216451	0.412145	0.000049
1722	1.7124e+02	-11.4205	-34.505399	0.000355	3.547981	1.202088	0.000142
1723	1.7134e+02	-11.3965	-34.469065	0.000091	0.912338	0.309108	0.000037
1724	1.7144e+02	-11.3499	-34.287394	0.000456	4.561690	1.545542	0.000183
1725	1.7154e+02	-11.3130	-34.275282	0.000030	0.304113	0.103036	0.000012
1726	1.7164e+02	-11.2745	-34.166280	0.000274	2.737014	0.927325	0.000110
1727	1.7174e+02	-11.2248	-34.061314	0.000264	2.635643	0.892980	0.000105
1728	1.7184e+02	-11.1863	-33.984609	0.000193	1.926047	0.652562	0.000077
1729	1.7194e+02	-11.1462	-33.895792	0.000223	2.230159	0.755598	0.000089
1730	1.7204e+02	-11.1061	-33.819086	0.000193	1.926047	0.652562	0.000077
1731	1.7213e+02	-11.0692	-33.706046	0.000284	2.838385	0.961671	0.000114
1732	1.7223e+02	-11.0339	-33.580895	0.000314	3.142497	1.064707	0.000126
1733	1.7233e+02	-10.9874	-33.520338	0.000152	1.520563	0.515181	0.000061
1734	1.7243e+02	-10.9489	-33.423447	0.000243	2.432901	0.824289	0.000097
1735	1.7253e+02	-10.9120	-33.338667	0.000213	2.128789	0.721253	0.000085
1736	1.7263e+02	-10.8719	-33.286184	0.000132	1.317821	0.446490	0.000053
1737	1.7273e+02	-10.8270	-33.140847	0.000365	3.649352	1.236434	0.000146
1738	1.7283e+02	-10.7949	-33.072216	0.000172	1.723305	0.583872	0.000069
1739	1.7293e+02	-10.7484	-32.951102	0.000304	3.041126	1.030362	0.000122
1740	1.7303e+02	-10.7147	-32.882471	0.000172	1.723305	0.583872	0.000069
1741	1.7313e+02	-10.6681	-32.785579	0.000243	2.432901	0.824289	0.000097
1742	1.7323e+02	-10.6345	-32.749245	0.000091	0.912338	0.309108	0.000037
1743	1.7333e+02	-10.5927	-32.624094	0.000314	3.142497	1.064707	0.000126
1744	1.7343e+02	-10.5510	-32.563537	0.000152	1.520563	0.515181	0.000061
1745	1.7353e+02	-10.5157	-32.414163	0.000375	3.750723	1.270779	0.000150
1746	1.7363e+02	-10.4692	-32.345532	0.000172	1.723305	0.583872	0.000069
1747	1.7373e+02	-10.4259	-32.276900	0.000172	1.723305	0.583872	0.000069
1748	1.7383e+02	-10.3970	-32.155786	0.000304	3.041126	1.030362	0.000122
1749	1.7393e+02	-10.3537	-32.071006	0.000213	2.128789	0.721253	0.000085
1750	1.7403e+02	-10.3152	-31.953929	0.000294	2.939756	0.996016	0.000118
1751	1.7413e+02	-10.2655	-31.877224	0.000193	1.926047	0.652562	0.000077
1752	1.7422e+02	-10.2382	-31.756110	0.000304	3.041126	1.030362	0.000122
1753	1.7432e+02	-10.1949	-31.699590	0.000142	1.419192	0.480835	0.000057
1754	1.7442e+02	-10.1516	-31.578476	0.000304	3.041126	1.030362	0.000122
1755	1.7452e+02	-10.1067	-31.497733	0.000203	2.027418	0.686908	0.000081
1756	1.7462e+02	-10.0794	-31.412953	0.000213	2.128789	0.721253	0.000085
1757	1.7472e+02	-10.0313	-31.320099	0.000233	2.331530	0.789944	0.000093
1758	1.7482e+02	-9.9863	-31.198985	0.000304	3.041126	1.030362	0.000122
1759	1.7492e+02	-9.9495	-31.146502	0.000132	1.317821	0.446490	0.000053
1760	1.7502e+02	-9.9029	-31.025388	0.000304	3.041126	1.030362	0.000122
1761	1.7512e+02	-9.8692	-30.948683	0.000193	1.926047	0.652562	0.000077
1762	1.7522e+02	-9.8339	-30.827568	0.000304	3.041126	1.030362	0.000122
1763	1.7532e+02	-9.8003	-30.750863	0.000193	1.926047	0.652562	0.000077
1764	1.7542e+02	-9.7553	-30.670120	0.000203	2.027418	0.686908	0.000081
1765	1.7552e+02	-9.7088	-30.561118	0.000274	2.737014	0.927325	0.000110
1766	1.7562e+02	-9.6719	-30.468263	0.000233	2.331530	0.789944	0.000093
1767	1.7572e+02	-9.6463	-30.331001	0.000345	3.446610	1.167743	0.000138
1768	1.7582e+02	-9.5933	-30.250258	0.000203	2.027418	0.686908	0.000081
1769	1.7592e+02	-9.5564	-30.185664	0.000162	1.621934	0.549526	0.000065
1770	1.7602e+02	-9.5163	-30.068587	0.000294	2.939756	0.996016	0.000118
1771	1.7612e+02	-9.4826	-29.979770	0.000223	2.230159	0.755598	0.000089
1772	1.7621e+02	-9.4345	-29.899027	0.000203	2.027418	0.686908	0.000081
1773	1.7631e+02	-9.4024	-29.798099	0.000253	2.534272	0.858635	0.000101
1774	1.7641e+02	-9.3511	-29.705245	0.000233	2.331530	0.789944	0.000093
1775	1.7651e+02	-9.3110	-29.608354	0.000243	2.432901	0.824289	0.000097
1776	1.7661e+02	-9.2725	-29.523574	0.000213	2.128789	0.721253	0.000085
1777	1.7671e+02	-9.2420	-29.410534	0.000284	2.838385	0.961671	0.000114
1778	1.7681e+02	-9.1971	-29.321717	0.000223	2.230159	0.755598	0.000089
1779	1.7691e+02	-9.1586	-29.184454	0.000345	3.446610	1.167743	0.000138
1780	1.7701e+02	-9.1185	-29.111786	0.000182	1.824676	0.618217	0.000073
1781	1.7711e+02	-9.0784	-29.051229	0.000152	1.520563	0.515181	0.000061
1782	1.7721e+02	-9.0415	-28.913966	0.000345	3.446610	1.167743	0.000138
1783	1.7731e+02	-8.9965	-28.837261	0.000193	1.926047	0.652562	0.000077
1784	1.7741e+02	-8.9596	-28.740369	0.000243	2.432901	0.824289	0.000097
1785	1.7751e+02	-8.9227	-28.635404	0.000264	2.635643	0.892980	0.000105
1786	1.7761e+02	-8.8762	-28.522364	0.000284	2.838385	0.961671	0.000114
1787	1.7771e+02	-8.8409	-28.453733	0.000172	1.723305	0.583872	0.000069
1788	1.7781e+02	-8.7976	-28.377027	0.000193	1.926047	0.652562	0.000077
1789	1.7791e+02	-8.7527	-28.288210	0.000223	2.230159	0.755598	0.000089
1790	1.7801e+02	-8.7142	-28.183245	0.000264	2.635643	0.892980	0.000105
1791	1.7810e+02	-8.6805	-28.098465	0.000213	2.128789	0.721253	0.000085
1792	1.7820e+02	-8.6340	-27.993499	0.000264	2.635643	0.892980	0.000105
1793	1.7830e+02	-8.5939	-27.868348	0.000314	3.142497	1.064707	0.000126
1794	1.7840e+02	-8.5570	-27.743197	0.000314	3.142497	1.064707	0.000126
1795	1.7850e+02	-8.5153	-27.718974	0.000061	0.608225	0.206072	0.000024
1796	1.7860e+02	-8.4816	-27.597860	0.000304	3.041126	1.030362	0.000122
1797	1.7870e+02	-8.4463	-27.525191	0.000182	1.824676	0.618217	0.000073
1798	1.7880e+02	-8.4046	-27.420226	0.000264	2.635643	0.892980	0.000105
1799	1.7890e+02	-8.3709	-27.295075	0.000314	3.142497	1.064707	0.000126
1800	1.7900e+02	-8.3260	-27.210295	0.000213	2.128789	0.721253	0.000085
1801	1.7910e+02	-8.2827	-27.077069	0.000335	3.345239	1.133398	0.000134
1802	1.7920e+02	-8.2345	-27.008438	0.000172	1.723305	0.583872	0.000069
1803	1.7930e+02	-8.1992	-26.964030	0.000112	1.115080	0.377799	0.000045
1804	1.7940e+02	-8.1591	-26.863101	0.000253	2.534272	0.858635	0.000101
1805	1.7950e+02	-8.1174	-26.729876	0.000335	3.345239	1.133398	0.000134
1806	1.7960e+02	-8.0853	-26.637022	0.000233	2.331530	0.789944	0.000093
1807	1.7970e+02	-8.0436	-26.495722	0.000355	3.547981	1.202088	0.000142
1808	1.7980e+02	-8.0019	-26.427091	0.000172	1.723305	0.583872	0.000069
1809	1.7990e+02	-7.9586	-26.382682	0.000112	1.115080	0.377799	0.000045
1810	1.8000e+02	-7.9185	-26.209085	0.000436	4.358948	1.476852	0.000174
1811	1.8009e+02	-7.8896	-26.116231	0.000233	2.331530	0.789944	0.000093
1812	1.8019e+02	-7.8479	-26.031451	0.000213	2.128789	0.721253	0.000085
1813	1.8029e+02	-7.8078	-25.938597	0.000233	2.331530	0.789944	0.000093
1814	1.8039e+02	-7.7613	-25.801335	0.000345	3.446610	1.167743	0.000138
1815	1.8049e+02	-7.7196	-25.724629	0.000193	1.926047	0.652562	0.000077
1816	1.8059e+02	-7.6827	-25.639849	0.000213	2.128789	0.721253	0.000085
1817	1.8069e+02	-7.6474	-25.514698	0.000314	3.142497	1.064707	0.000126
1818	1.8079e+02	-7.6073	-25.405695	0.000274	2.737014	0.927325	0.000110
1819	1.8089e+02	-7.5559	-25.320915	0.000213	2.128789	0.721253	0.000085
1820	1.8099e+02	-7.5174	-25.240173	0.000203	2.027418	0.686908	0.000081
1821	1.8109e+02	-7.4854	-25.131170	0.000274	2.737014	0.927325	0.000110
1822	1.8119e+02	-7.4452	-24.989870	0.000355	3.547981	1.202088	0.000142
1823	1.8129e+02	-7.3971	-24.884905	0.000264	2.635643	0.892980	0.000105
1824	1.8139e+02	-7.3682	-24.844533	0.000101	1.013709	0.343454	0.000041
1825	1.8149e+02	-7.3233	-24.707271	0.000345	3.446610	1.167743	0.000138
1826	1.8159e+02	-7.2896	-24.602305	0.000264	2.635643	0.892980	0.000105
1827	1.8169e+02	-7.2431	-24.473117	0.000324	3.243868	1.099052	0.000130
1828	1.8179e+02	-7.2046	-24.416597	0.000142	1.419192	0.480835	0.000057
1829	1.8189e+02	-7.1725	-24.279334	0.000345	3.446610	1.167743	0.000138
1830	1.8199e+02	-7.1244	-24.182443	0.000243	2.432901	0.824289	0.000097
1831	1.8209e+02	-7.0875	-24.069403	0.000284	2.838385	0.961671	0.000114
1832	1.8218e+02	-7.0410	-23.996735	0.000182	1.824676	0.618217	0.000073
1833	1.8228e+02	-7.0089	-23.867546	0.000324	3.243868	1.099052	0.000130
1834	1.8238e+02	-6.9672	-23.774692	0.000233	2.331530	0.789944	0.000093
1835	1.8248e+02	-6.9255	-23.673764	0.000253	2.534272	0.858635	0.000101
1836	1.8258e+02	-6.8822	-23.560724	0.000284	2.838385	0.961671	0.000114
1837	1.8268e+02	-6.8469	-23.484019	0.000193	1.926047	0.652562	0.000077
1838	1.8278e+02	-6.8100	-23.391164	0.000233	2.331530	0.789944	0.000093
1839	1.8288e+02	-6.7634	-23.282162	0.000274	2.737014	0.927325	0.000110
1840	1.8298e+02	-6.7249	-23.181233	0.000253	2.534272	0.858635	0.000101
1841	1.8308e+02	-6.6945	-23.084342	0.000243	2.432901	0.824289	0.000097
1842	1.8318e+02	-6.6367	-22.939005	0.000365	3.649352	1.236434	0.000146
1843	1.8328e+02	-6.5998	-22.866337	0.000182	1.824676	0.618217	0.000073
1844	1.8338e+02	-6.5806	-22.805780	0.000152	1.520563	0.515181	0.000061
1845	1.8348e+02	-6.5260	-22.684666	0.000304	3.041126	1.030362	0.000122
1846	1.8358e+02	-6.4875	-22.555477	0.000324	3.243868	1.099052	0.000130
1847	1.8368e+02	-6.4506	-22.490883	0.000162	1.621934	0.549526	0.000065
1848	1.8378e+02	-6.4121	-22.373806	0.000294	2.939756	0.996016	0.000118
1849	1.8388e+02	-6.3704	-22.284989	0.000223	2.230159	0.755598	0.000089
1850	1.8398e+02	-6.3255	-22.200209	0.000213	2.128789	0.721253	0.000085
1851	1.8407e+02	-6.2918	-21.994316	0.000517	5.169915	1.751615	0.000207
1852	1.8417e+02	-6.2501	-21.937796	0.000142	1.419192	0.480835	0.000057
1853	1.8427e+02	-6.2116	-21.873201	0.000162	1.621934	0.549526	0.000065
1854	1.8437e+02	-6.1763	-21.764199	0.000274	2.737014	0.927325	0.000110
1855	1.8447e+02	-6.1314	-21.651159	0.000284	2.838385	0.961671	0.000114
1856	1.8457e+02	-6.0961	-21.534082	0.000294	2.939756	0.996016	0.000118
1857	1.8467e+02	-6.0624	-21.429116	0.000264	2.635643	0.892980	0.000105
1858	1.8477e+02	-6.0127	-21.368559	0.000152	1.520563	0.515181	0.000061
1859	1.8487e+02	-5.9790	-21.243408	0.000314	3.142497	1.064707	0.000126
1860	1.8497e+02	-5.9373	-21.178814	0.000162	1.621934	0.549526	0.000065
1861	1.8507e+02	-5.8940	-21.049626	0.000324	3.243868	1.099052	0.000130
1862	1.8517e+02	-5.8538	-20.940623	0.000274	2.737014	0.927325	0.000110
1863	1.8527e+02	-5.8169	-20.843732	0.000243	2.432901	0.824289	0.000097
1864	1.8537e+02	-5.7736	-20.722618	0.000304	3.041126	1.030362	0.000122
1865	1.8547e+02	-5.7448	-20.662061	0.000152	1.520563	0.515181	0.000061
1866	1.8557e+02	-5.7014	-20.520761	0.000355	3.547981	1.202088	0.000142
1867	1.8567e+02	-5.6533	-20.444055	0.000193	1.926047	0.652562	0.000077
1868	1.8577e+02	-5.6100	-20.335053	0.000274	2.737014	0.927325	0.000110
1869	1.8587e+02	-5.5715	-20.230087	0.000264	2.635643	0.892980	0.000105
1870	1.8597e+02	-5.5362	-20.108973	0.000304	3.041126	1.030362	0.000122
1871	1.8606e+02	-5.5041	-20.020156	0.000223	2.230159	0.755598	0.000089
1872	1.8616e+02	-5.4560	-19.931339	0.000223	2.230159	0.755598	0.000089
1873	1.8626e+02	-5.4175	-19.790039	0.000355	3.547981	1.202088	0.000142
1874	1.8636e+02	-5.3710	-19.729482	0.000152	1.520563	0.515181	0.000061
1875	1.8646e+02	-5.3357	-19.608368	0.000304	3.041126	1.030362	0.000122
1876	1.8656e+02	-5.2940	-19.467069	0.000355	3.547981	1.202088	0.000142
1877	1.8666e+02	-5.2667	-19.394400	0.000182	1.824676	0.618217	0.000073
1878	1.8676e+02	-5.2138	-19.273286	0.000304	3.041126	1.030362	0.000122
1879	1.8686e+02	-5.1801	-19.184469	0.000223	2.230159	0.755598	0.000089
1880	1.8696e+02	-5.1384	-19.079503	0.000264	2.635643	0.892980	0.000105
1881	1.8706e+02	-5.0966	-18.982612	0.000243	2.432901	0.824289	0.000097
1882	1.8716e+02	-5.0565	-18.849387	0.000335	3.345239	1.133398	0.000134
1883	1.8726e+02	-5.0164	-18.772681	0.000193	1.926047	0.652562	0.000077
1884	1.8736e+02	-4.9731	-18.655604	0.000294	2.939756	0.996016	0.000118
1885	1.8746e+02	-4.9298	-18.530453	0.000314	3.142497	1.064707	0.000126
1886	1.8756e+02	-4.8977	-18.441636	0.000223	2.230159	0.755598	0.000089
1887	1.8766e+02	-4.8496	-18.340708	0.000253	2.534272	0.858635	0.000101
1888	1.8776e+02	-4.8159	-18.239779	0.000253	2.534272	0.858635	0.000101
1889	1.8786e+02	-4.7758	-18.126739	0.000284	2.838385	0.961671	0.000114
1890	1.8796e+02	-4.7373	-18.013700	0.000284	2.838385	0.961671	0.000114
1891	1.8806e+02	-4.6924	-17.945068	0.000172	1.723305	0.583872	0.000069
1892	1.8815e+02	-4.6443	-17.832029	0.000284	2.838385	0.961671	0.000114
1893	1.8825e+02	-4.6170	-17.706877	0.000314	3.142497	1.064707	0.000126
1894	1.8835e+02	-4.5849	-17.605949	0.000253	2.534272	0.858635	0.000101
1895	1.8845e+02	-4.5336	-17.500983	0.000264	2.635643	0.892980	0.000105
1896	1.8855e+02	-4.4983	-17.387944	0.000284	2.838385	0.961671	0.000114
1897	1.8865e+02	-4.4630	-17.307201	0.000203	2.027418	0.686908	0.000081
1898	1.8875e+02	-4.4132	-17.230495	0.000193	1.926047	0.652562	0.000077
1899	1.8885e+02	-4.3876	-17.105344	0.000314	3.142497	1.064707	0.000126
1900	1.8895e+02	-4.3378	-17.020564	0.000213	2.128789	0.721253	0.000085
1901	1.8905e+02	-4.2993	-16.915599	0.000264	2.635643	0.892980	0.000105
1902	1.8915e+02	-4.2560	-16.802559	0.000284	2.838385	0.961671	0.000114
1903	1.8925e+02	-4.2207	-16.729890	0.000182	1.824676	0.618217	0.000073
1904	1.8935e+02	-4.1758	-16.600702	0.000324	3.243868	1.099052	0.000130
1905	1.8945e+02	-4.1389	-16.511885	0.000223	2.230159	0.755598	0.000089
1906	1.8955e+02	-4.0940	-16.427105	0.000213	2.128789	0.721253	0.000085
1907	1.8965e+02	-4.0587	-16.318103	0.000274	2.737014	0.927325	0.000110
1908	1.8975e+02	-4.0170	-16.168729	0.000375	3.750723	1.270779	0.000150
1909	1.8985e+02	-3.9721	-16.096060	0.000182	1.824676	0.618217	0.000073
1910	1.8995e+02	-3.9352	-16.003206	0.000233	2.331530	0.789944	0.000093
1911	1.9004e+02	-3.9063	-15.914389	0.000223	2.230159	0.755598	0.000089
1912	1.9014e+02	-3.8550	-15.777126	0.000345	3.446610	1.167743	0.000138
1913	1.9024e+02	-3.8181	-15.704458	0.000182	1.824676	0.618217	0.000073
1914	1.9034e+02	-3.7748	-15.595455	0.000274	2.737014	0.927325	0.000110
1915	1.9044e+02	-3.7395	-15.490490	0.000264	2.635643	0.892980	0.000105
1916	1.9054e+02	-3.7042	-15.377450	0.000284	2.838385	0.961671	0.000114
1917	1.9064e+02	-3.6609	-15.252299	0.000314	3.142497	1.064707	0.000126
1918	1.9074e+02	-3.6143	-15.155408	0.000243	2.432901	0.824289	0.000097
1919	1.9084e+02	-3.5774	-15.078702	0.000193	1.926047	0.652562	0.000077
1920	1.9094e+02	-3.5486	-14.981811	0.000243	2.432901	0.824289	0.000097
1921	1.9104e+02	-3.4988	-14.880882	0.000253	2.534272	0.858635	0.000101
1922	1.9114e+02	-3.4700	-14.771880	0.000274	2.737014	0.927325	0.000110
1923	1.9124e+02	-3.4250	-14.683063	0.000223	2.230159	0.755598	0.000089
1924	1.9134e+02	-3.3849	-14.545800	0.000345	3.446610	1.167743	0.000138
1925	1.9144e+02	-3.3384	-14.473132	0.000182	1.824676	0.618217	0.000073
1926	1.9154e+02	-3.2967	-14.299535	0.000436	4.358948	1.476852	0.000174
1927	1.9164e+02	-3.2678	-14.247052	0.000132	1.317821	0.446490	0.000053
1928	1.9174e+02	-3.2277	-14.105752	0.000355	3.547981	1.202088	0.000142
1929	1.9184e+02	-3.1796	-14.041158	0.000162	1.621934	0.549526	0.000065
1930	1.9194e+02	-3.1491	-13.924081	0.000294	2.939756	0.996016	0.000118
1931	1.9203e+02	-3.1042	-13.794893	0.000324	3.243868	1.099052	0.000130
1932	1.9213e+02	-3.0673	-13.677816	0.000294	2.939756	0.996016	0.000118
1933	1.9223e+02	-3.0208	-13.580925	0.000243	2.432901	0.824289	0.000097
1934	1.9233e+02	-2.9839	-13.504219	0.000193	1.926047	0.652562	0.000077
1935	1.9243e+02	-2.9374	-13.423476	0.000203	2.027418	0.686908	0.000081
1936	1.9253e+02	-2.9037	-13.310437	0.000284	2.838385	0.961671	0.000114
1937	1.9263e+02	-2.8684	-13.189322	0.000304	3.041126	1.030362	0.000122
1938	1.9273e+02	-2.8234	-13.064171	0.000314	3.142497	1.064707	0.000126
1939	1.9283e+02	-2.7689	-12.979391	0.000213	2.128789	0.721253	0.000085
1940	1.9293e+02	-2.7448	-12.858277	0.000304	3.041126	1.030362	0.000122
1941	1.9303e+02	-2.7063	-12.757349	0.000253	2.534272	0.858635	0.000101
1942	1.9313e+02	-2.6646	-12.652383	0.000264	2.635643	0.892980	0.000105
1943	1.9323e+02	-2.6293	-12.551455	0.000253	2.534272	0.858635	0.000101
1944	1.9333e+02	-2.5860	-12.438415	0.000284	2.838385	0.961671	0.000114
1945	1.9343e+02	-2.5459	-12.345561	0.000233	2.331530	0.789944	0.000093
1946	1.9353e+02	-2.5026	-12.244633	0.000253	2.534272	0.858635	0.000101
1947	1.9363e+02	-2.4593	-12.099296	0.000365	3.649352	1.236434	0.000146
1948	1.9373e+02	-2.4288	-12.014516	0.000213	2.128789	0.721253	0.000085
1949	1.9383e+02	-2.3871	-11.905513	0.000274	2.737014	0.927325	0.000110
1950	1.9393e+02	-2.3438	-11.788436	0.000294	2.939756	0.996016	0.000118
1951	1.9403e+02	-2.3005	-11.719805	0.000172	1.723305	0.583872	0.000069
1952	1.9412e+02	-2.2732	-11.606765	0.000284	2.838385	0.961671	0.000114
1953	1.9422e+02	-2.2283	-11.457391	0.000375	3.750723	1.270779	0.000150
1954	1.9432e+02	-2.1930	-11.376649	0.000203	2.027418	0.686908	0.000081
1955	1.9442e+02	-2.1433	-11.291869	0.000213	2.128789	0.721253	0.000085
1956	1.9452e+02	-2.1031	-11.186903	0.000264	2.635643	0.892980	0.000105
1957	1.9462e+02	-2.0727	-11.077900	0.000274	2.737014	0.927325	0.000110
1958	1.9472e+02	-2.0294	-10.960824	0.000294	2.939756	0.996016	0.000118
1959	1.9482e+02	-1.9812	-10.851821	0.000274	2.737014	0.927325	0.000110
1960	1.9492e+02	-1.9491	-10.758967	0.000233	2.331530	0.789944	0.000093
1961	1.9502e+02	-1.9058	-10.654001	0.000264	2.635643	0.892980	0.000105
1962	1.9512e+02	-1.8657	-10.536924	0.000294	2.939756	0.996016	0.000118
1963	1.9522e+02	-1.8256	-10.456182	0.000203	2.027418	0.686908	0.000081
1964	1.9532e+02	-1.7903	-10.326993	0.000324	3.243868	1.099052	0.000130
1965	1.9542e+02	-1.7550	-10.209916	0.000294	2.939756	0.996016	0.000118
1966	1.9552e+02	-1.7021	-10.104951	0.000264	2.635643	0.892980	0.000105
1967	1.9562e+02	-1.6748	-10.016134	0.000223	2.230159	0.755598	0.000089
1968	1.9572e+02	-1.6251	-9.939428	0.000193	1.926047	0.652562	0.000077
1969	1.9582e+02	-1.5882	-9.802166	0.000345	3.446610	1.167743	0.000138
1970	1.9592e+02	-1.5513	-9.713349	0.000223	2.230159	0.755598	0.000089
1971	1.9601e+02	-1.5064	-9.584160	0.000324	3.243868	1.099052	0.000130
1972	1.9611e+02	-1.4647	-9.527640	0.000142	1.419192	0.480835	0.000057
1973	1.9621e+02	-1.4278	-9.382303	0.000365	3.649352	1.236434	0.000146
1974	1.9631e+02	-1.3845	-9.253115	0.000324	3.243868	1.099052	0.000130
1975	1.9641e+02	-1.3540	-9.168335	0.000213	2.128789	0.721253	0.000085
1976	1.9651e+02	-1.3091	-9.035110	0.000335	3.345239	1.133398	0.000134
1977	1.9661e+02	-1.2770	-8.934181	0.000253	2.534272	0.858635	0.000101
1978	1.9671e+02	-1.2321	-8.817104	0.000294	2.939756	0.996016	0.000118
1979	1.9681e+02	-1.1823	-8.712139	0.000264	2.635643	0.892980	0.000105
1980	1.9691e+02	-1.1454	-8.578913	0.000335	3.345239	1.133398	0.000134
1981	1.9701e+02	-1.1101	-8.469911	0.000274	2.737014	0.927325	0.000110
1982	1.9711e+02	-1.0748	-8.393205	0.000193	1.926047	0.652562	0.000077
1983	1.9721e+02	-1.0395	-8.259980	0.000335	3.345239	1.133398	0.000134
1984	1.9731e+02	-0.9978	-8.150977	0.000274	2.737014	0.927325	0.000110
1985	1.9741e+02	-0.9481	-8.066197	0.000213	2.128789	0.721253	0.000085
1986	1.9751e+02	-0.9160	-7.924897	0.000355	3.547981	1.202088	0.000142
1987	1.9761e+02	-0.8695	-7.795709	0.000324	3.243868	1.099052	0.000130
1988	1.9771e+02	-0.8358	-7.686706	0.000274	2.737014	0.927325	0.000110
1989	1.9781e+02	-0.7861	-7.601927	0.000213	2.128789	0.721253	0.000085
1990	1.9791e+02	-0.7556	-7.448515	0.000385	3.852093	1.305125	0.000154
1991	1.9800e+02	-0.7139	-7.375847	0.000182	1.824676	0.618217	0.000073
1992	1.9810e+02	-0.6674	-7.278956	0.000243	2.432901	0.824289	0.000097
1993	1.9820e+02	-0.6337	-7.165916	0.000284	2.838385	0.961671	0.000114
1994	1.9830e+02	-0.5920	-7.008468	0.000395	3.953464	1.339470	0.000158
1995	1.9840e+02	-0.5615	-6.935799	0.000182	1.824676	0.618217	0.000073
1996	1.9850e+02	-0.5134	-6.826797	0.000274	2.737014	0.927325	0.000110
1997	1.9860e+02	-0.4749	-6.733942	0.000233	2.331530	0.789944	0.000093
1998	1.9870e+02	-0.4267	-6.592643	0.000355	3.547981	1.202088	0.000142
1999	1.9880e+02	-0.3962	-6.483640	0.000274	2.737014	0.927325	0.000110
2000	1.9890e+02	-0.3561	-6.370600	0.000284	2.838385	0.961671	0.000114
2001	1.9900e+02	-0.3192	-6.225263	0.000365	3.649352	1.236434	0.000146
2002	1.9910e+02	-0.2759	-6.148558	0.000193	1.926047	0.652562	0.000077
2003	1.9920e+02	-0.2278	-6.019369	0.000324	3.243868	1.099052	0.000130
2004	1.9930e+02	-0.1845	-5.942664	0.000193	1.926047	0.652562	0.000077
2005	1.9940e+02	-0.1556	-5.821550	0.000304	3.041126	1.030362	0.000122
2006	1.9950e+02	-0.1171	-5.724658	0.000243	2.432901	0.824289	0.000097
2007	1.9960e+02	-0.0754	-5.615656	0.000274	2.737014	0.927325	0.000110
2008	1.9970e+02	-0.0321	-5.506653	0.000274	2.737014	0.927325	0.000110
2009	1.9980e+02	-0.0016	-5.405725	0.000274	2.737014	0.927325	0.000101

PMax (uC/cm2):	5.42e+01
Pr (uC/cm2):	2.99e+00
-Pr (uC/cm2):	-3.19e+00
PLoss (uC/cm2):	-3.21e+00
-Vc:	-1.08e+00
C (Max-Eff) (nF):	2.71e-01
K (Eff):	9.18e+02
Vert. (+/-Pr) Shift (uC/cm2):	-1.02e-01
Offset (uC/cm2):	2.22e+00

A (Loop Area - uC/cm2·Volts):	2.78e-03



Hysteresis Version: 5.48.1 - Radiant Technologies, Inc., 1999 - 9/12/24

