»»»»»»»»»»»»»»»»»»»»»»»»»»»»»»»»»»»» Hysteresis ««««««««««««««««««««««««««««««««««««
»»»  Executed Version:	5.48.1
»»»  Vision Version:	5.48.4 (R)
»»»  Vision Compiled:	9/18/24
»»»  Driver Version:	5.47.0
»»»  Windows Version:	Windows 8 or 8.1
»»»  Processor Information:	x86 (AMD or Intel) - 32 Processors
»»»  Tester Name:	PMF21124-494 (100V)
»»»  Tester S/N:	PMF21124-494
»»»  Internal Amp Type:	100V RevK 270k
»»»  Internal Amp S/N:	iAB2-596/K     
»»»  Execution Count:	1
»»»»»»»»»»»»»»»»»»»»»»»»»»»»»»»»»»»»»»»»»»««««««««««««««««««««««««««««««««««««««««««

Stored:	6/19/2025 - 14:58:34
Configured:	06/19/25 10:04:32 AM
Executed:	06/19/25 02:58:01 PM

»»»»»»»»»»»»»»»»»»»»»»»»»»»»»»»»»»» Sample Info ««««««««««««««««««««««««««««««««««««
Sample Name:	
Lot Name:	
Wafer Name:	
Die Row/Column:	0/0
Capacitor Number:	0
Sample Area (cm2):	1.00e-04
Sample Thickness (microns):	3.00e-01

Amplifier:	Internal

»»»»»»»»»»»»»»»»»»»»»»»»»»»»»»»»»»» Tester Info «««««««««««««««««««««««««««««««««««
Tester Name:	PMF21124-494 (100V)
Tester Serial Number:	PMF21124-494
Return Signal Amp. Level:	0.19 [Index: 3]

»»»»»»»»»»»»»»»»»»»»»»»»»»»»»»»» Hysteresis Info ««««««««««««««««««««««««««««««««««
Task Name:	Hyst-1168
Volts:	20.00
Field:	666.67 (kV/cm)
DCBias:	0.00
DCField:	0.00 (kV/cm)
Hysteresis Period (ms):	2.00e+02
Preset:	Enabled
Preset Delay (ms):	1.00e+03
Profile:	Standard Bipolar

»»»»»»»»»»»»»»»»»»»»»»»»»»»»»»»»»»»»»» Data «««««««««««««««««««««««««««««««««««««««
Points:	2009

Valid Data

Point	Time (ms)	Drive Voltage	Measured Polarization (uC/cm2)	Capacitance (uF)	Normalized Capacitance (uF/cm2)	Dielectric Constant	Instantaneous Current (mA)
   1	0.0000e+00	0.0144	-12.345561	0.000314	3.142939	1.064856	0.000126
   2	9.9500e-02	0.0289	-12.220410	0.000314	3.142939	1.064856	0.000126
   3	1.9900e-01	0.0834	-12.083147	0.000345	3.447094	1.167907	0.000138
   4	2.9850e-01	0.1171	-11.994330	0.000223	2.230473	0.755705	0.000089
   5	3.9800e-01	0.1508	-11.869179	0.000314	3.142939	1.064856	0.000126
   6	4.9750e-01	0.2005	-11.776325	0.000233	2.331858	0.790055	0.000093
   7	5.9700e-01	0.2342	-11.639062	0.000345	3.447094	1.167907	0.000138
   8	6.9650e-01	0.2727	-11.521985	0.000294	2.940168	0.996156	0.000118
   9	7.9600e-01	0.3225	-11.453354	0.000172	1.723547	0.583954	0.000069
  10	8.9550e-01	0.3610	-11.279757	0.000436	4.359560	1.477059	0.000174
  11	9.9500e-01	0.3978	-11.186903	0.000233	2.331858	0.790055	0.000093
  12	1.0945e+00	0.4331	-11.081938	0.000264	2.636013	0.893105	0.000105
  13	1.1940e+00	0.4700	-10.993121	0.000223	2.230473	0.755705	0.000089
  14	1.2935e+00	0.5118	-10.831635	0.000406	4.055405	1.374008	0.000162
  15	1.3930e+00	0.5599	-10.746855	0.000213	2.129087	0.721354	0.000085
  16	1.4925e+00	0.5855	-10.597481	0.000375	3.751249	1.270958	0.000150
  17	1.5920e+00	0.6369	-10.536924	0.000152	1.520777	0.515253	0.000061
  18	1.6915e+00	0.6706	-10.419847	0.000294	2.940168	0.996156	0.000118
  19	1.7910e+00	0.7187	-10.302770	0.000294	2.940168	0.996156	0.000118
  20	1.8905e+00	0.7540	-10.153396	0.000375	3.751249	1.270958	0.000150
  21	1.9900e+00	0.7845	-10.044394	0.000274	2.737398	0.927456	0.000110
  22	2.0895e+00	0.8422	-9.907131	0.000345	3.447094	1.167907	0.000138
  23	2.1890e+00	0.8871	-9.818314	0.000223	2.230473	0.755705	0.000089
  24	2.2885e+00	0.9128	-9.660866	0.000395	3.954020	1.339658	0.000158
  25	2.3880e+00	0.9545	-9.584160	0.000193	1.926317	0.652654	0.000077
  26	2.4875e+00	0.9946	-9.442860	0.000355	3.548479	1.202257	0.000142
  27	2.5870e+00	1.0347	-9.317709	0.000314	3.142939	1.064856	0.000126
  28	2.6865e+00	1.0748	-9.188521	0.000324	3.244324	1.099207	0.000130
  29	2.7860e+00	1.1182	-9.095667	0.000233	2.331858	0.790055	0.000093
  30	2.8855e+00	1.1567	-8.958404	0.000345	3.447094	1.167907	0.000138
  31	2.9850e+00	1.1935	-8.909959	0.000122	1.216621	0.412202	0.000049
  32	3.0845e+00	1.2272	-8.744436	0.000416	4.156790	1.408359	0.000166
  33	3.1840e+00	1.2770	-8.607173	0.000345	3.447094	1.167907	0.000138
  34	3.2835e+00	1.3251	-8.494134	0.000284	2.838783	0.961806	0.000114
  35	3.3830e+00	1.3572	-8.405317	0.000223	2.230473	0.755705	0.000089
  36	3.4825e+00	1.3925	-8.284203	0.000304	3.041554	1.030506	0.000122
  37	3.5820e+00	1.4326	-8.167126	0.000294	2.940168	0.996156	0.000118
  38	3.6815e+00	1.4679	-8.041974	0.000314	3.142939	1.064856	0.000126
  39	3.7810e+00	1.5208	-7.969306	0.000182	1.824932	0.618304	0.000073
  40	3.8805e+00	1.5593	-7.852229	0.000294	2.940168	0.996156	0.000118
  41	3.9800e+00	1.5914	-7.698818	0.000385	3.852634	1.305308	0.000154
  42	4.0795e+00	1.6331	-7.618075	0.000203	2.027702	0.687004	0.000081
  43	4.1790e+00	1.6748	-7.456590	0.000406	4.055405	1.374008	0.000162
  44	4.2785e+00	1.7085	-7.351624	0.000264	2.636013	0.893105	0.000105
  45	4.3780e+00	1.7534	-7.246659	0.000264	2.636013	0.893105	0.000105
  46	4.4775e+00	1.7935	-7.105359	0.000355	3.548479	1.202257	0.000142
  47	4.5770e+00	1.8385	-7.044802	0.000152	1.520777	0.515253	0.000061
  48	4.6765e+00	1.8721	-6.923688	0.000304	3.041554	1.030506	0.000122
  49	4.7760e+00	1.9042	-6.834871	0.000223	2.230473	0.755705	0.000089
  50	4.8755e+00	1.9395	-6.713757	0.000304	3.041554	1.030506	0.000122
  51	4.9750e+00	1.9860	-6.524011	0.000477	4.765101	1.614460	0.000191
  52	5.0745e+00	2.0261	-6.487677	0.000091	0.912466	0.309152	0.000037
  53	5.1740e+00	2.0695	-6.338303	0.000375	3.751249	1.270958	0.000150
  54	5.2735e+00	2.1064	-6.221226	0.000294	2.940168	0.996156	0.000118
  55	5.3730e+00	2.1497	-6.083964	0.000345	3.447094	1.167907	0.000138
  56	5.4725e+00	2.1866	-5.974961	0.000274	2.737398	0.927456	0.000110
  57	5.5720e+00	2.2299	-5.878070	0.000243	2.433243	0.824405	0.000097
  58	5.6715e+00	2.2748	-5.769067	0.000274	2.737398	0.927456	0.000110
  59	5.7710e+00	2.3069	-5.627767	0.000355	3.548479	1.202257	0.000142
  60	5.8705e+00	2.3470	-5.534913	0.000233	2.331858	0.790055	0.000093
  61	5.9700e+00	2.3871	-5.405725	0.000324	3.244324	1.099207	0.000130
  62	6.0695e+00	2.4336	-5.252314	0.000385	3.852634	1.305308	0.000154
  63	6.1690e+00	2.4593	-5.139274	0.000284	2.838783	0.961806	0.000114
  64	6.2685e+00	2.5010	-5.022197	0.000294	2.940168	0.996156	0.000118
  65	6.3680e+00	2.5459	-4.905120	0.000294	2.940168	0.996156	0.000118
  66	6.4675e+00	2.5796	-4.784006	0.000304	3.041554	1.030506	0.000122
  67	6.5670e+00	2.6277	-4.654818	0.000324	3.244324	1.099207	0.000130
  68	6.6665e+00	2.6678	-4.578112	0.000193	1.926317	0.652654	0.000077
  69	6.7660e+00	2.7112	-4.428738	0.000375	3.751249	1.270958	0.000150
  70	6.8655e+00	2.7464	-4.291475	0.000345	3.447094	1.167907	0.000138
  71	6.9650e+00	2.7914	-4.234955	0.000142	1.419392	0.480903	0.000057
  72	7.0645e+00	2.8267	-4.089619	0.000365	3.649864	1.236607	0.000146
  73	7.1640e+00	2.8652	-3.956393	0.000335	3.345709	1.133557	0.000134
  74	7.2635e+00	2.9149	-3.851427	0.000264	2.636013	0.893105	0.000105
  75	7.3630e+00	2.9486	-3.738388	0.000284	2.838783	0.961806	0.000114
  76	7.4625e+00	2.9935	-3.625348	0.000284	2.838783	0.961806	0.000114
  77	7.5620e+00	3.0240	-3.496160	0.000324	3.244324	1.099207	0.000130
  78	7.6615e+00	3.0705	-3.362934	0.000335	3.345709	1.133557	0.000134
  79	7.7610e+00	3.1042	-3.241820	0.000304	3.041554	1.030506	0.000122
  80	7.8605e+00	3.1427	-3.084372	0.000395	3.954020	1.339658	0.000158
  81	7.9600e+00	3.1844	-3.015740	0.000172	1.723547	0.583954	0.000069
  82	8.0595e+00	3.2373	-2.886552	0.000324	3.244324	1.099207	0.000130
  83	8.1590e+00	3.2646	-2.729104	0.000395	3.954020	1.339658	0.000158
  84	8.2585e+00	3.3192	-2.672584	0.000142	1.419392	0.480903	0.000057
  85	8.3580e+00	3.3464	-2.535321	0.000345	3.447094	1.167907	0.000138
  86	8.4575e+00	3.3946	-2.406133	0.000324	3.244324	1.099207	0.000130
  87	8.5570e+00	3.4218	-2.244647	0.000406	4.055405	1.374008	0.000162
  88	8.6565e+00	3.4651	-2.155830	0.000223	2.230473	0.755705	0.000089
  89	8.7560e+00	3.5020	-2.014531	0.000355	3.548479	1.202257	0.000142
  90	8.8555e+00	3.5421	-1.933788	0.000203	2.027702	0.687004	0.000081
  91	8.9550e+00	3.5806	-1.800563	0.000335	3.345709	1.133557	0.000134
  92	9.0545e+00	3.6224	-1.651189	0.000375	3.751249	1.270958	0.000150
  93	9.1540e+00	3.6609	-1.534112	0.000294	2.940168	0.996156	0.000118
  94	9.2535e+00	3.7026	-1.441257	0.000233	2.331858	0.790055	0.000093
  95	9.3530e+00	3.7379	-1.271698	0.000426	4.258175	1.442709	0.000170
  96	9.4525e+00	3.7828	-1.162695	0.000274	2.737398	0.927456	0.000110
  97	9.5520e+00	3.8197	-1.021395	0.000355	3.548479	1.202257	0.000142
  98	9.6515e+00	3.8694	-0.932578	0.000223	2.230473	0.755705	0.000089
  99	9.7510e+00	3.8999	-0.783204	0.000375	3.751249	1.270958	0.000150
 100	9.8505e+00	3.9400	-0.706499	0.000193	1.926317	0.652654	0.000077
 101	9.9500e+00	3.9801	-0.573273	0.000335	3.345709	1.133557	0.000134
 102	1.0050e+01	4.0282	-0.431974	0.000355	3.548479	1.202257	0.000142
 103	1.0149e+01	4.0635	-0.339119	0.000233	2.331858	0.790055	0.000093
 104	1.0248e+01	4.1020	-0.213968	0.000314	3.142939	1.064856	0.000126
 105	1.0348e+01	4.1405	-0.100928	0.000284	2.838783	0.961806	0.000114
 106	1.0447e+01	4.1758	0.004037	0.000264	2.636013	0.893105	0.000105
 107	1.0547e+01	4.2223	0.157448	0.000385	3.852634	1.305308	0.000154
 108	1.0646e+01	4.2592	0.262414	0.000264	2.636013	0.893105	0.000105
 109	1.0746e+01	4.3009	0.403714	0.000355	3.548479	1.202257	0.000142
 110	1.0845e+01	4.3491	0.540976	0.000345	3.447094	1.167907	0.000138
 111	1.0945e+01	4.3812	0.621719	0.000203	2.027702	0.687004	0.000081
 112	1.1044e+01	4.4245	0.730722	0.000274	2.737398	0.927456	0.000110
 113	1.1144e+01	4.4630	0.843761	0.000284	2.838783	0.961806	0.000114
 114	1.1243e+01	4.4967	0.981024	0.000345	3.447094	1.167907	0.000138
 115	1.1343e+01	4.5416	1.094064	0.000284	2.838783	0.961806	0.000114
 116	1.1443e+01	4.5785	1.247475	0.000385	3.852634	1.305308	0.000154
 117	1.1542e+01	4.6106	1.364552	0.000294	2.940168	0.996156	0.000118
 118	1.1642e+01	4.6603	1.461443	0.000243	2.433243	0.824405	0.000097
 119	1.1741e+01	4.6956	1.590631	0.000324	3.244324	1.099207	0.000130
 120	1.1841e+01	4.7421	1.768265	0.000446	4.460945	1.511409	0.000179
 121	1.1940e+01	4.7790	1.853045	0.000213	2.129087	0.721354	0.000085
 122	1.2040e+01	4.8175	1.982234	0.000324	3.244324	1.099207	0.000130
 123	1.2139e+01	4.8576	2.127571	0.000365	3.649864	1.236607	0.000146
 124	1.2239e+01	4.8993	2.248685	0.000304	3.041554	1.030506	0.000122
 125	1.2338e+01	4.9394	2.381910	0.000335	3.345709	1.133557	0.000134
 126	1.2438e+01	4.9763	2.527247	0.000365	3.649864	1.236607	0.000146
 127	1.2537e+01	5.0229	2.612027	0.000213	2.129087	0.721354	0.000085
 128	1.2636e+01	5.0678	2.761401	0.000375	3.751249	1.270958	0.000150
 129	1.2736e+01	5.0966	2.874441	0.000284	2.838783	0.961806	0.000114
 130	1.2835e+01	5.1400	2.987480	0.000284	2.838783	0.961806	0.000114
 131	1.2935e+01	5.1785	3.116669	0.000324	3.244324	1.099207	0.000130
 132	1.3034e+01	5.2202	3.233746	0.000294	2.940168	0.996156	0.000118
 133	1.3134e+01	5.2555	3.358897	0.000314	3.142939	1.064856	0.000126
 134	1.3233e+01	5.2988	3.451751	0.000233	2.331858	0.790055	0.000093
 135	1.3333e+01	5.3469	3.617274	0.000416	4.156790	1.408359	0.000166
 136	1.3432e+01	5.3742	3.754536	0.000345	3.447094	1.167907	0.000138
 137	1.3532e+01	5.4175	3.895836	0.000355	3.548479	1.202257	0.000142
 138	1.3632e+01	5.4496	4.008876	0.000284	2.838783	0.961806	0.000114
 139	1.3731e+01	5.4961	4.093656	0.000213	2.129087	0.721354	0.000085
 140	1.3831e+01	5.5426	4.279364	0.000466	4.663715	1.580110	0.000187
 141	1.3930e+01	5.5795	4.388367	0.000274	2.737398	0.927456	0.000110
 142	1.4030e+01	5.6132	4.529666	0.000355	3.548479	1.202257	0.000142
 143	1.4129e+01	5.6629	4.634632	0.000264	2.636013	0.893105	0.000105
 144	1.4229e+01	5.6950	4.771894	0.000345	3.447094	1.167907	0.000138
 145	1.4328e+01	5.7448	4.905120	0.000335	3.345709	1.133557	0.000134
 146	1.4428e+01	5.7784	4.977788	0.000182	1.824932	0.618304	0.000073
 147	1.4527e+01	5.8121	5.143311	0.000416	4.156790	1.408359	0.000166
 148	1.4627e+01	5.8587	5.260388	0.000294	2.940168	0.996156	0.000118
 149	1.4726e+01	5.9036	5.389576	0.000324	3.244324	1.099207	0.000130
 150	1.4825e+01	5.9405	5.514727	0.000314	3.142939	1.064856	0.000126
 151	1.4925e+01	5.9806	5.656027	0.000355	3.548479	1.202257	0.000142
 152	1.5024e+01	6.0079	5.736770	0.000203	2.027702	0.687004	0.000081
 153	1.5124e+01	6.0544	5.882107	0.000365	3.649864	1.236607	0.000146
 154	1.5223e+01	6.0929	6.007258	0.000314	3.142939	1.064856	0.000126
 155	1.5323e+01	6.1346	6.144521	0.000345	3.447094	1.167907	0.000138
 156	1.5422e+01	6.1667	6.293895	0.000375	3.751249	1.270958	0.000150
 157	1.5522e+01	6.2180	6.398860	0.000264	2.636013	0.893105	0.000105
 158	1.5621e+01	6.2437	6.515937	0.000294	2.940168	0.996156	0.000118
 159	1.5721e+01	6.3030	6.633014	0.000294	2.940168	0.996156	0.000118
 160	1.5820e+01	6.3399	6.758165	0.000314	3.142939	1.064856	0.000126
 161	1.5920e+01	6.3752	6.891391	0.000335	3.345709	1.133557	0.000134
 162	1.6020e+01	6.4121	6.980208	0.000223	2.230473	0.755705	0.000089
 163	1.6119e+01	6.4586	7.129582	0.000375	3.751249	1.270958	0.000150
 164	1.6218e+01	6.4891	7.278956	0.000375	3.751249	1.270958	0.000150
 165	1.6318e+01	6.5308	7.379884	0.000253	2.534628	0.858755	0.000101
 166	1.6418e+01	6.5693	7.553481	0.000436	4.359560	1.477059	0.000174
 167	1.6517e+01	6.6078	7.638261	0.000213	2.129087	0.721354	0.000085
 168	1.6616e+01	6.6528	7.755338	0.000294	2.940168	0.996156	0.000118
 169	1.6716e+01	6.6864	7.876452	0.000304	3.041554	1.030506	0.000122
 170	1.6816e+01	6.7282	8.013714	0.000345	3.447094	1.167907	0.000138
 171	1.6915e+01	6.7683	8.155014	0.000355	3.548479	1.202257	0.000142
 172	1.7015e+01	6.8212	8.288240	0.000335	3.345709	1.133557	0.000134
 173	1.7114e+01	6.8485	8.397242	0.000274	2.737398	0.927456	0.000110
 174	1.7213e+01	6.8902	8.518356	0.000304	3.041554	1.030506	0.000122
 175	1.7313e+01	6.9287	8.631396	0.000284	2.838783	0.961806	0.000114
 176	1.7413e+01	6.9720	8.796919	0.000416	4.156790	1.408359	0.000166
 177	1.7512e+01	7.0105	8.881699	0.000213	2.129087	0.721354	0.000085
 178	1.7611e+01	7.0554	9.027036	0.000365	3.649864	1.236607	0.000146
 179	1.7711e+01	7.0843	9.119890	0.000233	2.331858	0.790055	0.000093
 180	1.7811e+01	7.1292	9.257152	0.000345	3.447094	1.167907	0.000138
 181	1.7910e+01	7.1629	9.406526	0.000375	3.751249	1.270958	0.000150
 182	1.8009e+01	7.2094	9.531677	0.000314	3.142939	1.064856	0.000126
 183	1.8109e+01	7.2447	9.628569	0.000243	2.433243	0.824405	0.000097
 184	1.8209e+01	7.2784	9.781980	0.000385	3.852634	1.305308	0.000154
 185	1.8308e+01	7.3297	9.907131	0.000314	3.142939	1.064856	0.000126
 186	1.8407e+01	7.3698	10.080728	0.000436	4.359560	1.477059	0.000174
 187	1.8507e+01	7.4100	10.181656	0.000253	2.534628	0.858755	0.000101
 188	1.8607e+01	7.4533	10.314882	0.000335	3.345709	1.133557	0.000134
 189	1.8706e+01	7.4757	10.395625	0.000203	2.027702	0.687004	0.000081
 190	1.8805e+01	7.5367	10.597481	0.000507	5.069256	1.717510	0.000203
 191	1.8905e+01	7.5672	10.682261	0.000213	2.129087	0.721354	0.000085
 192	1.9005e+01	7.6057	10.811450	0.000324	3.244324	1.099207	0.000130
 193	1.9104e+01	7.6458	10.944675	0.000335	3.345709	1.133557	0.000134
 194	1.9203e+01	7.6891	11.065789	0.000304	3.041554	1.030506	0.000122
 195	1.9303e+01	7.7244	11.215163	0.000375	3.751249	1.270958	0.000150
 196	1.9402e+01	7.7645	11.324166	0.000274	2.737398	0.927456	0.000110
 197	1.9502e+01	7.8110	11.481614	0.000395	3.954020	1.339658	0.000158
 198	1.9602e+01	7.8527	11.586580	0.000264	2.636013	0.893105	0.000105
 199	1.9701e+01	7.8864	11.752102	0.000416	4.156790	1.408359	0.000166
 200	1.9800e+01	7.9201	11.840919	0.000223	2.230473	0.755705	0.000089
 201	1.9900e+01	7.9634	11.966070	0.000314	3.142939	1.064856	0.000126
 202	2.0000e+01	8.0003	12.103333	0.000345	3.447094	1.167907	0.000138
 203	2.0099e+01	8.0516	12.212336	0.000274	2.737398	0.927456	0.000110
 204	2.0198e+01	8.0869	12.377858	0.000416	4.156790	1.408359	0.000166
 205	2.0298e+01	8.1238	12.478787	0.000253	2.534628	0.858755	0.000101
 206	2.0398e+01	8.1671	12.599901	0.000304	3.041554	1.030506	0.000122
 207	2.0497e+01	8.2024	12.733126	0.000335	3.345709	1.133557	0.000134
 208	2.0596e+01	8.2522	12.878463	0.000365	3.649864	1.236607	0.000146
 209	2.0696e+01	8.2794	12.983429	0.000264	2.636013	0.893105	0.000105
 210	2.0796e+01	8.3356	13.144914	0.000406	4.055405	1.374008	0.000162
 211	2.0895e+01	8.3661	13.266028	0.000304	3.041554	1.030506	0.000122
 212	2.0994e+01	8.4030	13.387142	0.000304	3.041554	1.030506	0.000122
 213	2.1094e+01	8.4367	13.479996	0.000233	2.331858	0.790055	0.000093
 214	2.1194e+01	8.4768	13.617259	0.000345	3.447094	1.167907	0.000138
 215	2.1293e+01	8.5169	13.734336	0.000294	2.940168	0.996156	0.000118
 216	2.1392e+01	8.5650	13.859487	0.000314	3.142939	1.064856	0.000126
 217	2.1492e+01	8.5955	13.996750	0.000345	3.447094	1.167907	0.000138
 218	2.1591e+01	8.6452	14.089604	0.000233	2.331858	0.790055	0.000093
 219	2.1691e+01	8.6821	14.234941	0.000365	3.649864	1.236607	0.000146
 220	2.1791e+01	8.7302	14.343943	0.000274	2.737398	0.927456	0.000110
 221	2.1890e+01	8.7543	14.521577	0.000446	4.460945	1.511409	0.000179
 222	2.1989e+01	8.8153	14.679026	0.000395	3.954020	1.339658	0.000158
 223	2.2089e+01	8.8361	14.751694	0.000182	1.824932	0.618304	0.000073
 224	2.2189e+01	8.8858	14.880882	0.000324	3.244324	1.099207	0.000130
 225	2.2288e+01	8.9195	14.989885	0.000274	2.737398	0.927456	0.000110
 226	2.2387e+01	8.9612	15.167519	0.000446	4.460945	1.511409	0.000179
 227	2.2487e+01	8.9997	15.248262	0.000203	2.027702	0.687004	0.000081
 228	2.2587e+01	9.0382	15.405710	0.000395	3.954020	1.339658	0.000158
 229	2.2686e+01	9.0832	15.494527	0.000223	2.230473	0.755705	0.000089
 230	2.2785e+01	9.1153	15.664087	0.000426	4.258175	1.442709	0.000170
 231	2.2885e+01	9.1570	15.748867	0.000213	2.129087	0.721354	0.000085
 232	2.2985e+01	9.2035	15.865943	0.000294	2.940168	0.996156	0.000118
 233	2.3084e+01	9.2420	16.039540	0.000436	4.359560	1.477059	0.000174
 234	2.3183e+01	9.2725	16.172766	0.000335	3.345709	1.133557	0.000134
 235	2.3283e+01	9.3222	16.277731	0.000264	2.636013	0.893105	0.000105
 236	2.3383e+01	9.3639	16.443254	0.000416	4.156790	1.408359	0.000166
 237	2.3482e+01	9.4008	16.536108	0.000233	2.331858	0.790055	0.000093
 238	2.3581e+01	9.4377	16.677408	0.000355	3.548479	1.202257	0.000142
 239	2.3681e+01	9.4794	16.806596	0.000324	3.244324	1.099207	0.000130
 240	2.3780e+01	9.5179	16.939822	0.000335	3.345709	1.133557	0.000134
 241	2.3880e+01	9.5628	17.105344	0.000416	4.156790	1.408359	0.000166
 242	2.3980e+01	9.6029	17.210310	0.000264	2.636013	0.893105	0.000105
 243	2.4079e+01	9.6398	17.307201	0.000243	2.433243	0.824405	0.000097
 244	2.4178e+01	9.6848	17.436389	0.000324	3.244324	1.099207	0.000130
 245	2.4278e+01	9.7249	17.581726	0.000365	3.649864	1.236607	0.000146
 246	2.4378e+01	9.7682	17.747249	0.000416	4.156790	1.408359	0.000166
 247	2.4477e+01	9.7954	17.819917	0.000182	1.824932	0.618304	0.000073
 248	2.4576e+01	9.8404	17.973328	0.000385	3.852634	1.305308	0.000154
 249	2.4676e+01	9.8853	18.102517	0.000324	3.244324	1.099207	0.000130
 250	2.4776e+01	9.9142	18.268039	0.000416	4.156790	1.408359	0.000166
 251	2.4875e+01	9.9495	18.344745	0.000193	1.926317	0.652654	0.000077
 252	2.4974e+01	10.0008	18.461822	0.000294	2.940168	0.996156	0.000118
 253	2.5074e+01	10.0393	18.595047	0.000335	3.345709	1.133557	0.000134
 254	2.5174e+01	10.0810	18.760570	0.000416	4.156790	1.408359	0.000166
 255	2.5273e+01	10.1179	18.901870	0.000355	3.548479	1.202257	0.000142
 256	2.5372e+01	10.1532	19.014909	0.000284	2.838783	0.961806	0.000114
 257	2.5472e+01	10.1917	19.156209	0.000355	3.548479	1.202257	0.000142
 258	2.5572e+01	10.2302	19.289435	0.000335	3.345709	1.133557	0.000134
 259	2.5671e+01	10.2783	19.426697	0.000345	3.447094	1.167907	0.000138
 260	2.5770e+01	10.3120	19.551848	0.000314	3.142939	1.064856	0.000126
 261	2.5870e+01	10.3553	19.689111	0.000345	3.447094	1.167907	0.000138
 262	2.5970e+01	10.4002	19.810225	0.000304	3.041554	1.030506	0.000122
 263	2.6069e+01	10.4371	19.955562	0.000365	3.649864	1.236607	0.000146
 264	2.6169e+01	10.4788	20.060527	0.000264	2.636013	0.893105	0.000105
 265	2.6268e+01	10.5206	20.193753	0.000335	3.345709	1.133557	0.000134
 266	2.6367e+01	10.5494	20.335053	0.000355	3.548479	1.202257	0.000142
 267	2.6467e+01	10.5960	20.468278	0.000335	3.345709	1.133557	0.000134
 268	2.6567e+01	10.6313	20.593429	0.000314	3.142939	1.064856	0.000126
 269	2.6666e+01	10.6730	20.722618	0.000324	3.244324	1.099207	0.000130
 270	2.6765e+01	10.7131	20.859880	0.000345	3.447094	1.167907	0.000138
 271	2.6865e+01	10.7564	20.960809	0.000253	2.534628	0.858755	0.000101
 272	2.6965e+01	10.7933	21.061737	0.000253	2.534628	0.858755	0.000101
 273	2.7064e+01	10.8286	21.255520	0.000487	4.866486	1.648810	0.000195
 274	2.7163e+01	10.8703	21.396819	0.000355	3.548479	1.202257	0.000142
 275	2.7263e+01	10.9120	21.513896	0.000294	2.940168	0.996156	0.000118
 276	2.7363e+01	10.9457	21.622899	0.000274	2.737398	0.927456	0.000110
 277	2.7462e+01	10.9986	21.764199	0.000355	3.548479	1.202257	0.000142
 278	2.7561e+01	11.0307	21.901461	0.000345	3.447094	1.167907	0.000138
 279	2.7661e+01	11.0692	22.022575	0.000304	3.041554	1.030506	0.000122
 280	2.7761e+01	11.1189	22.175987	0.000385	3.852634	1.305308	0.000154
 281	2.7860e+01	11.1526	22.280952	0.000264	2.636013	0.893105	0.000105
 282	2.7959e+01	11.1927	22.418215	0.000345	3.447094	1.167907	0.000138
 283	2.8059e+01	11.2312	22.498957	0.000203	2.027702	0.687004	0.000081
 284	2.8159e+01	11.2729	22.672554	0.000436	4.359560	1.477059	0.000174
 285	2.8258e+01	11.3130	22.817891	0.000365	3.649864	1.236607	0.000146
 286	2.8358e+01	11.3580	22.955154	0.000345	3.447094	1.167907	0.000138
 287	2.8457e+01	11.3933	23.092416	0.000345	3.447094	1.167907	0.000138
 288	2.8556e+01	11.4334	23.217568	0.000314	3.142939	1.064856	0.000126
 289	2.8656e+01	11.4767	23.330607	0.000284	2.838783	0.961806	0.000114
 290	2.8756e+01	11.5216	23.504204	0.000436	4.359560	1.477059	0.000174
 291	2.8855e+01	11.5569	23.641467	0.000345	3.447094	1.167907	0.000138
 292	2.8954e+01	11.5906	23.762581	0.000304	3.041554	1.030506	0.000122
 293	2.9054e+01	11.6259	23.895806	0.000335	3.345709	1.133557	0.000134
 294	2.9154e+01	11.6724	24.033069	0.000345	3.447094	1.167907	0.000138
 295	2.9253e+01	11.7141	24.154183	0.000304	3.041554	1.030506	0.000122
 296	2.9352e+01	11.7590	24.319706	0.000416	4.156790	1.408359	0.000166
 297	2.9452e+01	11.7863	24.440820	0.000304	3.041554	1.030506	0.000122
 298	2.9552e+01	11.8392	24.565971	0.000314	3.142939	1.064856	0.000126
 299	2.9651e+01	11.8665	24.715345	0.000375	3.751249	1.270958	0.000150
 300	2.9750e+01	11.9066	24.836459	0.000304	3.041554	1.030506	0.000122
 301	2.9850e+01	11.9563	24.981796	0.000365	3.649864	1.236607	0.000146
 302	2.9950e+01	11.9965	25.106947	0.000314	3.142939	1.064856	0.000126
 303	3.0049e+01	12.0317	25.256321	0.000375	3.751249	1.270958	0.000150
 304	3.0148e+01	12.0702	25.446067	0.000477	4.765101	1.614460	0.000191
 305	3.0248e+01	12.1071	25.571218	0.000314	3.142939	1.064856	0.000126
 306	3.0348e+01	12.1601	25.643886	0.000182	1.824932	0.618304	0.000073
 307	3.0447e+01	12.1825	25.781149	0.000345	3.447094	1.167907	0.000138
 308	3.0547e+01	12.2275	25.946671	0.000416	4.156790	1.408359	0.000166
 309	3.0646e+01	12.2788	26.067785	0.000304	3.041554	1.030506	0.000122
 310	3.0745e+01	12.3061	26.229271	0.000406	4.055405	1.374008	0.000162
 311	3.0845e+01	12.3510	26.334236	0.000264	2.636013	0.893105	0.000105
 312	3.0945e+01	12.3911	26.491685	0.000395	3.954020	1.339658	0.000158
 313	3.1044e+01	12.4264	26.604725	0.000284	2.838783	0.961806	0.000114
 314	3.1143e+01	12.4713	26.758136	0.000385	3.852634	1.305308	0.000154
 315	3.1243e+01	12.5066	26.911547	0.000385	3.852634	1.305308	0.000154
 316	3.1343e+01	12.5483	26.988252	0.000193	1.926317	0.652654	0.000077
 317	3.1442e+01	12.5900	27.125515	0.000345	3.447094	1.167907	0.000138
 318	3.1541e+01	12.6365	27.291038	0.000416	4.156790	1.408359	0.000166
 319	3.1641e+01	12.6750	27.448486	0.000395	3.954020	1.339658	0.000158
 320	3.1741e+01	12.7055	27.585748	0.000345	3.447094	1.167907	0.000138
 321	3.1840e+01	12.7424	27.678603	0.000233	2.331858	0.790055	0.000093
 322	3.1939e+01	12.7809	27.864311	0.000466	4.663715	1.580110	0.000187
 323	3.2039e+01	12.8258	28.017722	0.000385	3.852634	1.305308	0.000154
 324	3.2139e+01	12.8659	28.134799	0.000294	2.940168	0.996156	0.000118
 325	3.2238e+01	12.9157	28.296284	0.000406	4.055405	1.374008	0.000162
 326	3.2337e+01	12.9462	28.352804	0.000142	1.419392	0.480903	0.000057
 327	3.2437e+01	12.9911	28.494104	0.000355	3.548479	1.202257	0.000142
 328	3.2536e+01	13.0232	28.671738	0.000446	4.460945	1.511409	0.000179
 329	3.2636e+01	13.0681	28.800926	0.000324	3.244324	1.099207	0.000130
 330	3.2736e+01	13.1098	28.954338	0.000385	3.852634	1.305308	0.000154
 331	3.2835e+01	13.1467	29.075452	0.000304	3.041554	1.030506	0.000122
 332	3.2934e+01	13.1804	29.196566	0.000304	3.041554	1.030506	0.000122
 333	3.3034e+01	13.2301	29.354014	0.000395	3.954020	1.339658	0.000158
 334	3.3133e+01	13.2702	29.483202	0.000324	3.244324	1.099207	0.000130
 335	3.3233e+01	13.2975	29.660836	0.000446	4.460945	1.511409	0.000179
 336	3.3333e+01	13.3472	29.749653	0.000223	2.230473	0.755705	0.000089
 337	3.3432e+01	13.3825	29.894990	0.000365	3.649864	1.236607	0.000146
 338	3.3532e+01	13.4274	30.036290	0.000355	3.548479	1.202257	0.000142
 339	3.3631e+01	13.4691	30.221998	0.000466	4.663715	1.580110	0.000187
 340	3.3730e+01	13.4996	30.322927	0.000253	2.534628	0.858755	0.000101
 341	3.3830e+01	13.5413	30.468263	0.000365	3.649864	1.236607	0.000146
 342	3.3929e+01	13.5734	30.601489	0.000335	3.345709	1.133557	0.000134
 343	3.4029e+01	13.6247	30.742789	0.000355	3.548479	1.202257	0.000142
 344	3.4129e+01	13.6713	30.888126	0.000365	3.649864	1.236607	0.000146
 345	3.4228e+01	13.7050	30.993091	0.000264	2.636013	0.893105	0.000105
 346	3.4328e+01	13.7451	31.162651	0.000426	4.258175	1.442709	0.000170
 347	3.4427e+01	13.7868	31.324136	0.000406	4.055405	1.374008	0.000162
 348	3.4526e+01	13.8221	31.437176	0.000284	2.838783	0.961806	0.000114
 349	3.4626e+01	13.8670	31.582513	0.000365	3.649864	1.236607	0.000146
 350	3.4725e+01	13.9023	31.719775	0.000345	3.447094	1.167907	0.000138
 351	3.4825e+01	13.9376	31.840890	0.000304	3.041554	1.030506	0.000122
 352	3.4925e+01	13.9777	31.994301	0.000385	3.852634	1.305308	0.000154
 353	3.5024e+01	14.0210	32.115415	0.000304	3.041554	1.030506	0.000122
 354	3.5123e+01	14.0611	32.244603	0.000324	3.244324	1.099207	0.000130
 355	3.5223e+01	14.1060	32.418200	0.000436	4.359560	1.477059	0.000174
 356	3.5322e+01	14.1413	32.547388	0.000324	3.244324	1.099207	0.000130
 357	3.5422e+01	14.1718	32.708874	0.000406	4.055405	1.374008	0.000162
 358	3.5522e+01	14.2263	32.829988	0.000304	3.041554	1.030506	0.000122
 359	3.5621e+01	14.2552	32.999548	0.000426	4.258175	1.442709	0.000170
 360	3.5721e+01	14.3017	33.124699	0.000314	3.142939	1.064856	0.000126
 361	3.5820e+01	14.3354	33.265998	0.000355	3.548479	1.202257	0.000142
 362	3.5919e+01	14.3803	33.439595	0.000436	4.359560	1.477059	0.000174
 363	3.6019e+01	14.4253	33.560709	0.000304	3.041554	1.030506	0.000122
 364	3.6118e+01	14.4638	33.645489	0.000213	2.129087	0.721354	0.000085
 365	3.6218e+01	14.5007	33.839272	0.000487	4.866486	1.648810	0.000195
 366	3.6318e+01	14.5392	33.996720	0.000395	3.954020	1.339658	0.000158
 367	3.6417e+01	14.5825	34.105723	0.000274	2.737398	0.927456	0.000110
 368	3.6517e+01	14.6162	34.238948	0.000335	3.345709	1.133557	0.000134
 369	3.6616e+01	14.6595	34.404471	0.000416	4.156790	1.408359	0.000166
 370	3.6715e+01	14.6948	34.529622	0.000314	3.142939	1.064856	0.000126
 371	3.6815e+01	14.7381	34.666885	0.000345	3.447094	1.167907	0.000138
 372	3.6914e+01	14.7766	34.832407	0.000416	4.156790	1.408359	0.000166
 373	3.7014e+01	14.8247	34.941410	0.000274	2.737398	0.927456	0.000110
 374	3.7114e+01	14.8648	35.078672	0.000345	3.447094	1.167907	0.000138
 375	3.7213e+01	14.9033	35.240158	0.000406	4.055405	1.374008	0.000162
 376	3.7313e+01	14.9354	35.345123	0.000264	2.636013	0.893105	0.000105
 377	3.7412e+01	14.9707	35.526794	0.000456	4.562330	1.545759	0.000183
 378	3.7511e+01	15.0204	35.627723	0.000253	2.534628	0.858755	0.000101
 379	3.7611e+01	15.0557	35.801320	0.000436	4.359560	1.477059	0.000174
 380	3.7711e+01	15.0942	35.954731	0.000385	3.852634	1.305308	0.000154
 381	3.7810e+01	15.1327	36.055659	0.000253	2.534628	0.858755	0.000101
 382	3.7910e+01	15.1825	36.225219	0.000426	4.258175	1.442709	0.000170
 383	3.8009e+01	15.2194	36.378630	0.000385	3.852634	1.305308	0.000154
 384	3.8108e+01	15.2579	36.455336	0.000193	1.926317	0.652654	0.000077
 385	3.8208e+01	15.2964	36.608747	0.000385	3.852634	1.305308	0.000154
 386	3.8307e+01	15.3381	36.754084	0.000365	3.649864	1.236607	0.000146
 387	3.8407e+01	15.3702	36.915569	0.000406	4.055405	1.374008	0.000162
 388	3.8507e+01	15.4135	37.060906	0.000365	3.649864	1.236607	0.000146
 389	3.8606e+01	15.4568	37.173946	0.000284	2.838783	0.961806	0.000114
 390	3.8706e+01	15.4937	37.327357	0.000385	3.852634	1.305308	0.000154
 391	3.8805e+01	15.5338	37.480768	0.000385	3.852634	1.305308	0.000154
 392	3.8904e+01	15.5787	37.581697	0.000253	2.534628	0.858755	0.000101
 393	3.9004e+01	15.6172	37.751256	0.000426	4.258175	1.442709	0.000170
 394	3.9103e+01	15.6493	37.916779	0.000416	4.156790	1.408359	0.000166
 395	3.9203e+01	15.6910	38.037893	0.000304	3.041554	1.030506	0.000122
 396	3.9303e+01	15.7311	38.195341	0.000395	3.954020	1.339658	0.000158
 397	3.9402e+01	15.7744	38.340678	0.000365	3.649864	1.236607	0.000146
 398	3.9502e+01	15.8129	38.453718	0.000284	2.838783	0.961806	0.000114
 399	3.9601e+01	15.8514	38.607129	0.000385	3.852634	1.305308	0.000154
 400	3.9700e+01	15.8963	38.780726	0.000436	4.359560	1.477059	0.000174
 401	3.9800e+01	15.9316	38.909914	0.000324	3.244324	1.099207	0.000130
 402	3.9900e+01	15.9750	39.055251	0.000365	3.649864	1.236607	0.000146
 403	3.9999e+01	16.0086	39.204625	0.000375	3.751249	1.270958	0.000150
 404	4.0099e+01	16.0439	39.325739	0.000304	3.041554	1.030506	0.000122
 405	4.0198e+01	16.0937	39.511447	0.000466	4.663715	1.580110	0.000187
 406	4.0297e+01	16.1354	39.644673	0.000335	3.345709	1.133557	0.000134
 407	4.0397e+01	16.1659	39.781936	0.000345	3.447094	1.167907	0.000138
 408	4.0496e+01	16.2124	39.907087	0.000314	3.142939	1.064856	0.000126
 409	4.0596e+01	16.2509	40.088758	0.000456	4.562330	1.545759	0.000183
 410	4.0696e+01	16.2926	40.238132	0.000375	3.751249	1.270958	0.000150
 411	4.0795e+01	16.3279	40.375395	0.000345	3.447094	1.167907	0.000138
 412	4.0895e+01	16.3760	40.500546	0.000314	3.142939	1.064856	0.000126
 413	4.0994e+01	16.4161	40.726625	0.000568	5.677567	1.923612	0.000227
 414	4.1093e+01	16.4594	40.847739	0.000304	3.041554	1.030506	0.000122
 415	4.1193e+01	16.4947	40.997113	0.000375	3.751249	1.270958	0.000150
 416	4.1292e+01	16.5284	41.138413	0.000355	3.548479	1.202257	0.000142
 417	4.1392e+01	16.5749	41.239342	0.000253	2.534628	0.858755	0.000101
 418	4.1492e+01	16.6102	41.416976	0.000446	4.460945	1.511409	0.000179
 419	4.1591e+01	16.6551	41.562312	0.000365	3.649864	1.236607	0.000146
 420	4.1691e+01	16.6920	41.715724	0.000385	3.852634	1.305308	0.000154
 421	4.1790e+01	16.7209	41.857023	0.000355	3.548479	1.202257	0.000142
 422	4.1889e+01	16.7626	42.006397	0.000375	3.751249	1.270958	0.000150
 423	4.1989e+01	16.8140	42.167883	0.000406	4.055405	1.374008	0.000162
 424	4.2089e+01	16.8541	42.317257	0.000375	3.751249	1.270958	0.000150
 425	4.2188e+01	16.8813	42.498928	0.000456	4.562330	1.545759	0.000183
 426	4.2288e+01	16.9279	42.616005	0.000294	2.940168	0.996156	0.000118
 427	4.2387e+01	16.9712	42.785565	0.000426	4.258175	1.442709	0.000170
 428	4.2486e+01	17.0065	42.894567	0.000274	2.737398	0.927456	0.000110
 429	4.2586e+01	17.0530	43.064127	0.000426	4.258175	1.442709	0.000170
 430	4.2685e+01	17.0835	43.241761	0.000446	4.460945	1.511409	0.000179
 431	4.2785e+01	17.1380	43.383061	0.000355	3.548479	1.202257	0.000142
 432	4.2885e+01	17.1749	43.516286	0.000335	3.345709	1.133557	0.000134
 433	4.2984e+01	17.2102	43.665660	0.000375	3.751249	1.270958	0.000150
 434	4.3084e+01	17.2487	43.839257	0.000436	4.359560	1.477059	0.000174
 435	4.3183e+01	17.2888	43.980557	0.000355	3.548479	1.202257	0.000142
 436	4.3282e+01	17.3257	44.113782	0.000335	3.345709	1.133557	0.000134
 437	4.3382e+01	17.3594	44.255082	0.000355	3.548479	1.202257	0.000142
 438	4.3481e+01	17.4011	44.477124	0.000558	5.576181	1.889261	0.000223
 439	4.3581e+01	17.4428	44.598238	0.000304	3.041554	1.030506	0.000122
 440	4.3681e+01	17.4926	44.751650	0.000385	3.852634	1.305308	0.000154
 441	4.3780e+01	17.5343	44.913135	0.000406	4.055405	1.374008	0.000162
 442	4.3880e+01	17.5599	45.030212	0.000294	2.940168	0.996156	0.000118
 443	4.3979e+01	17.6097	45.183623	0.000385	3.852634	1.305308	0.000154
 444	4.4078e+01	17.6498	45.316849	0.000335	3.345709	1.133557	0.000134
 445	4.4178e+01	17.6867	45.506594	0.000477	4.765101	1.614460	0.000191
 446	4.4278e+01	17.7204	45.639820	0.000335	3.345709	1.133557	0.000134
 447	4.4377e+01	17.7685	45.764971	0.000314	3.142939	1.064856	0.000126
 448	4.4477e+01	17.8054	45.930493	0.000416	4.156790	1.408359	0.000166
 449	4.4576e+01	17.8407	46.104090	0.000436	4.359560	1.477059	0.000174
 450	4.4675e+01	17.8872	46.257501	0.000385	3.852634	1.305308	0.000154
 451	4.4775e+01	17.9225	46.398801	0.000355	3.548479	1.202257	0.000142
 452	4.4874e+01	17.9562	46.564324	0.000416	4.156790	1.408359	0.000166
 453	4.4974e+01	18.0107	46.705623	0.000355	3.548479	1.202257	0.000142
 454	4.5074e+01	18.0412	46.907480	0.000507	5.069256	1.717510	0.000203
 455	4.5173e+01	18.0829	47.064928	0.000395	3.954020	1.339658	0.000158
 456	4.5273e+01	18.1134	47.186043	0.000304	3.041554	1.030506	0.000122
 457	4.5372e+01	18.1567	47.335417	0.000375	3.751249	1.270958	0.000150
 458	4.5471e+01	18.2080	47.541310	0.000517	5.170641	1.751861	0.000207
 459	4.5571e+01	18.2385	47.690684	0.000375	3.751249	1.270958	0.000150
 460	4.5670e+01	18.2899	47.864281	0.000436	4.359560	1.477059	0.000174
 461	4.5770e+01	18.3219	47.981358	0.000294	2.940168	0.996156	0.000118
 462	4.5870e+01	18.3653	48.163029	0.000456	4.562330	1.545759	0.000183
 463	4.5969e+01	18.4086	48.332589	0.000426	4.258175	1.442709	0.000170
 464	4.6069e+01	18.4423	48.461777	0.000324	3.244324	1.099207	0.000130
 465	4.6168e+01	18.4872	48.675746	0.000537	5.373411	1.820561	0.000215
 466	4.6267e+01	18.5241	48.804934	0.000324	3.244324	1.099207	0.000130
 467	4.6367e+01	18.5674	48.970457	0.000416	4.156790	1.408359	0.000166
 468	4.6467e+01	18.6059	49.135979	0.000416	4.156790	1.408359	0.000166
 469	4.6566e+01	18.6348	49.297464	0.000406	4.055405	1.374008	0.000162
 470	4.6666e+01	18.6845	49.467024	0.000426	4.258175	1.442709	0.000170
 471	4.6765e+01	18.7150	49.632547	0.000416	4.156790	1.408359	0.000166
 472	4.6864e+01	18.7631	49.745587	0.000284	2.838783	0.961806	0.000114
 473	4.6964e+01	18.8048	49.927258	0.000456	4.562330	1.545759	0.000183
 474	4.7063e+01	18.8449	50.068557	0.000355	3.548479	1.202257	0.000142
 475	4.7163e+01	18.8834	50.258303	0.000477	4.765101	1.614460	0.000191
 476	4.7263e+01	18.9219	50.427863	0.000426	4.258175	1.442709	0.000170
 477	4.7362e+01	18.9636	50.585311	0.000395	3.954020	1.339658	0.000158
 478	4.7462e+01	19.0070	50.726611	0.000355	3.548479	1.202257	0.000142
 479	4.7561e+01	19.0342	50.908282	0.000456	4.562330	1.545759	0.000183
 480	4.7660e+01	19.0743	51.061693	0.000385	3.852634	1.305308	0.000154
 481	4.7760e+01	19.1192	51.202993	0.000355	3.548479	1.202257	0.000142
 482	4.7859e+01	19.1594	51.372552	0.000426	4.258175	1.442709	0.000170
 483	4.7959e+01	19.2027	51.542112	0.000426	4.258175	1.442709	0.000170
 484	4.8059e+01	19.2476	51.651115	0.000274	2.737398	0.927456	0.000110
 485	4.8158e+01	19.2749	51.857009	0.000517	5.170641	1.751861	0.000207
 486	4.8258e+01	19.3246	52.042717	0.000466	4.663715	1.580110	0.000187
 487	4.8357e+01	19.3535	52.171905	0.000324	3.244324	1.099207	0.000130
 488	4.8456e+01	19.4064	52.357613	0.000466	4.663715	1.580110	0.000187
 489	4.8556e+01	19.4289	52.539284	0.000456	4.562330	1.545759	0.000183
 490	4.8656e+01	19.4786	52.708844	0.000426	4.258175	1.442709	0.000170
 491	4.8755e+01	19.5235	52.862255	0.000385	3.852634	1.305308	0.000154
 492	4.8855e+01	19.5668	53.023741	0.000406	4.055405	1.374008	0.000162
 493	4.8954e+01	19.6021	53.185226	0.000406	4.055405	1.374008	0.000162
 494	4.9053e+01	19.6358	53.370934	0.000466	4.663715	1.580110	0.000187
 495	4.9153e+01	19.6807	53.528383	0.000395	3.954020	1.339658	0.000158
 496	4.9252e+01	19.7208	53.685831	0.000395	3.954020	1.339658	0.000158
 497	4.9352e+01	19.7593	53.875576	0.000477	4.765101	1.614460	0.000191
 498	4.9452e+01	19.7914	54.053210	0.000446	4.460945	1.511409	0.000179
 499	4.9551e+01	19.8460	54.238919	0.000466	4.663715	1.580110	0.000187
 500	4.9651e+01	19.8829	54.347921	0.000274	2.737398	0.927456	0.000110
 501	4.9750e+01	19.9149	54.553815	0.000517	5.170641	1.751861	0.000207
 502	4.9849e+01	19.9518	54.699152	0.000365	3.649864	1.236607	0.000146
 503	4.9949e+01	19.9887	54.880823	0.000456	4.562330	1.545759	0.000183
 504	5.0048e+01	19.9518	54.840452	0.000101	1.013851	0.343502	-0.000041
 505	5.0148e+01	19.9166	54.844489	-0.000010	-0.101385	-0.034350	0.000004
 506	5.0248e+01	19.8764	54.755672	0.000223	2.230473	0.755705	-0.000089
 507	5.0347e+01	19.8412	54.707226	0.000122	1.216621	0.412202	-0.000049
 508	5.0447e+01	19.7962	54.634558	0.000182	1.824932	0.618304	-0.000073
 509	5.0546e+01	19.7561	54.634558	-0.000000	-0.000000	-0.000000	0.000000
 510	5.0645e+01	19.7208	54.590149	0.000112	1.115236	0.377852	-0.000045
 511	5.0745e+01	19.6823	54.549778	0.000101	1.013851	0.343502	-0.000041
 512	5.0844e+01	19.6342	54.497295	0.000132	1.318007	0.446553	-0.000053
 513	5.0944e+01	19.5909	54.424627	0.000182	1.824932	0.618304	-0.000073
 514	5.1044e+01	19.5636	54.351958	0.000182	1.824932	0.618304	-0.000073
 515	5.1143e+01	19.5139	54.355996	-0.000010	-0.101385	-0.034350	0.000004
 516	5.1242e+01	19.4738	54.291401	0.000162	1.622162	0.549603	-0.000065
 517	5.1342e+01	19.4465	54.242956	0.000122	1.216621	0.412202	-0.000049
 518	5.1441e+01	19.4032	54.174324	0.000172	1.723547	0.583954	-0.000069
 519	5.1541e+01	19.3567	54.129916	0.000112	1.115236	0.377852	-0.000045
 520	5.1641e+01	19.3310	54.089545	0.000101	1.013851	0.343502	-0.000041
 521	5.1740e+01	19.2765	54.033025	0.000142	1.419392	0.480903	-0.000057
 522	5.1840e+01	19.2428	53.944208	0.000223	2.230473	0.755705	-0.000089
 523	5.1939e+01	19.2011	53.936133	0.000020	0.202770	0.068700	-0.000008
 524	5.2038e+01	19.1577	53.891725	0.000112	1.115236	0.377852	-0.000045
 525	5.2138e+01	19.1080	53.802908	0.000223	2.230473	0.755705	-0.000089
 526	5.2237e+01	19.0856	53.754462	0.000122	1.216621	0.412202	-0.000049
 527	5.2337e+01	19.0358	53.681794	0.000182	1.824932	0.618304	-0.000073
 528	5.2437e+01	19.0021	53.621237	0.000152	1.520777	0.515253	-0.000061
 529	5.2536e+01	18.9604	53.564717	0.000142	1.419392	0.480903	-0.000057
 530	5.2636e+01	18.9203	53.524346	0.000101	1.013851	0.343502	-0.000041
 531	5.2735e+01	18.8850	53.435529	0.000223	2.230473	0.755705	-0.000089
 532	5.2834e+01	18.8465	53.387083	0.000122	1.216621	0.412202	-0.000049
 533	5.2934e+01	18.8016	53.298266	0.000223	2.230473	0.755705	-0.000089
 534	5.3033e+01	18.7615	53.278080	0.000051	0.506926	0.171751	-0.000020
 535	5.3133e+01	18.7166	53.205412	0.000182	1.824932	0.618304	-0.000073
 536	5.3233e+01	18.6829	53.108521	0.000243	2.433243	0.824405	-0.000097
 537	5.3332e+01	18.6476	53.076224	0.000081	0.811081	0.274802	-0.000032
 538	5.3431e+01	18.5979	52.991444	0.000213	2.129087	0.721354	-0.000085
 539	5.3531e+01	18.5642	52.934924	0.000142	1.419392	0.480903	-0.000057
 540	5.3630e+01	18.5257	52.842070	0.000233	2.331858	0.790055	-0.000093
 541	5.3730e+01	18.4808	52.797661	0.000112	1.115236	0.377852	-0.000045
 542	5.3830e+01	18.4439	52.733067	0.000162	1.622162	0.549603	-0.000065
 543	5.3929e+01	18.4070	52.652324	0.000203	2.027702	0.687004	-0.000081
 544	5.4029e+01	18.3572	52.611953	0.000101	1.013851	0.343502	-0.000041
 545	5.4128e+01	18.3235	52.531210	0.000203	2.027702	0.687004	-0.000081
 546	5.4227e+01	18.2866	52.454505	0.000193	1.926317	0.652654	-0.000077
 547	5.4327e+01	18.2417	52.389910	0.000162	1.622162	0.549603	-0.000065
 548	5.4426e+01	18.2000	52.361651	0.000071	0.709696	0.240451	-0.000028
 549	5.4526e+01	18.1615	52.248611	0.000284	2.838783	0.961806	-0.000114
 550	5.4626e+01	18.1278	52.179979	0.000172	1.723547	0.583954	-0.000069
 551	5.4725e+01	18.0829	52.131534	0.000122	1.216621	0.412202	-0.000049
 552	5.4825e+01	18.0428	52.046754	0.000213	2.129087	0.721354	-0.000085
 553	5.4924e+01	18.0059	52.010420	0.000091	0.912466	0.309152	-0.000037
 554	5.5023e+01	17.9626	51.909491	0.000253	2.534628	0.858755	-0.000101
 555	5.5123e+01	17.9289	51.816637	0.000233	2.331858	0.790055	-0.000093
 556	5.5222e+01	17.8856	51.764154	0.000132	1.318007	0.446553	-0.000053
 557	5.5322e+01	17.8519	51.671300	0.000233	2.331858	0.790055	-0.000093
 558	5.5422e+01	17.8006	51.647077	0.000061	0.608311	0.206101	-0.000024
 559	5.5521e+01	17.7685	51.538075	0.000274	2.737398	0.927456	-0.000110
 560	5.5620e+01	17.7236	51.497703	0.000101	1.013851	0.343502	-0.000041
 561	5.5720e+01	17.6867	51.433109	0.000162	1.622162	0.549603	-0.000065
 562	5.5819e+01	17.6417	51.352367	0.000203	2.027702	0.687004	-0.000081
 563	5.5919e+01	17.6065	51.295847	0.000142	1.419392	0.480903	-0.000057
 564	5.6019e+01	17.5631	51.207030	0.000223	2.230473	0.755705	-0.000089
 565	5.6118e+01	17.5246	51.126287	0.000203	2.027702	0.687004	-0.000081
 566	5.6218e+01	17.4893	51.057656	0.000172	1.723547	0.583954	-0.000069
 567	5.6317e+01	17.4460	50.989024	0.000172	1.723547	0.583954	-0.000069
 568	5.6416e+01	17.4091	50.948653	0.000101	1.013851	0.343502	-0.000041
 569	5.6516e+01	17.3690	50.855799	0.000233	2.331858	0.790055	-0.000093
 570	5.6615e+01	17.3209	50.758908	0.000243	2.433243	0.824405	-0.000097
 571	5.6715e+01	17.2840	50.730648	0.000071	0.709696	0.240451	-0.000028
 572	5.6815e+01	17.2519	50.637794	0.000233	2.331858	0.790055	-0.000093
 573	5.6914e+01	17.2134	50.577237	0.000152	1.520777	0.515253	-0.000061
 574	5.7014e+01	17.1733	50.472271	0.000264	2.636013	0.893105	-0.000105
 575	5.7113e+01	17.1300	50.423825	0.000122	1.216621	0.412202	-0.000049
 576	5.7212e+01	17.0867	50.339046	0.000213	2.129087	0.721354	-0.000085
 577	5.7312e+01	17.0386	50.250229	0.000223	2.230473	0.755705	-0.000089
 578	5.7411e+01	16.9985	50.177560	0.000182	1.824932	0.618304	-0.000073
 579	5.7511e+01	16.9744	50.125077	0.000132	1.318007	0.446553	-0.000053
 580	5.7611e+01	16.9327	50.028186	0.000243	2.433243	0.824405	-0.000097
 581	5.7710e+01	16.8910	49.967629	0.000152	1.520777	0.515253	-0.000061
 582	5.7809e+01	16.8444	49.890923	0.000193	1.926317	0.652654	-0.000077
 583	5.7909e+01	16.8124	49.830366	0.000152	1.520777	0.515253	-0.000061
 584	5.8008e+01	16.7626	49.757698	0.000182	1.824932	0.618304	-0.000073
 585	5.8108e+01	16.7289	49.672918	0.000213	2.129087	0.721354	-0.000085
 586	5.8208e+01	16.6888	49.576027	0.000243	2.433243	0.824405	-0.000097
 587	5.8307e+01	16.6584	49.507396	0.000172	1.723547	0.583954	-0.000069
 588	5.8407e+01	16.6150	49.458950	0.000122	1.216621	0.412202	-0.000049
 589	5.8506e+01	16.5733	49.353984	0.000264	2.636013	0.893105	-0.000105
 590	5.8605e+01	16.5364	49.281316	0.000182	1.824932	0.618304	-0.000073
 591	5.8705e+01	16.4867	49.216722	0.000162	1.622162	0.549603	-0.000065
 592	5.8804e+01	16.4530	49.135979	0.000203	2.027702	0.687004	-0.000081
 593	5.8904e+01	16.4177	49.067348	0.000172	1.723547	0.583954	-0.000069
 594	5.9004e+01	16.3760	49.006791	0.000152	1.520777	0.515253	-0.000061
 595	5.9103e+01	16.3295	48.913937	0.000233	2.331858	0.790055	-0.000093
 596	5.9203e+01	16.2910	48.845305	0.000172	1.723547	0.583954	-0.000069
 597	5.9302e+01	16.2557	48.740340	0.000264	2.636013	0.893105	-0.000105
 598	5.9401e+01	16.2188	48.695931	0.000112	1.115236	0.377852	-0.000045
 599	5.9501e+01	16.1755	48.615189	0.000203	2.027702	0.687004	-0.000081
 600	5.9600e+01	16.1306	48.542520	0.000182	1.824932	0.618304	-0.000073
 601	5.9700e+01	16.0985	48.441592	0.000253	2.534628	0.858755	-0.000101
 602	5.9800e+01	16.0487	48.372960	0.000172	1.723547	0.583954	-0.000069
 603	5.9899e+01	16.0167	48.292218	0.000203	2.027702	0.687004	-0.000081
 604	5.9998e+01	15.9782	48.179178	0.000284	2.838783	0.961806	-0.000114
 605	6.0098e+01	15.9284	48.138807	0.000101	1.013851	0.343502	-0.000041
 606	6.0197e+01	15.8851	48.025767	0.000284	2.838783	0.961806	-0.000114
 607	6.0297e+01	15.8514	47.953098	0.000182	1.824932	0.618304	-0.000073
 608	6.0397e+01	15.8065	47.888504	0.000162	1.622162	0.549603	-0.000065
 609	6.0496e+01	15.7760	47.795650	0.000233	2.331858	0.790055	-0.000093
 610	6.0596e+01	15.7375	47.718944	0.000193	1.926317	0.652654	-0.000077
 611	6.0695e+01	15.6958	47.609942	0.000274	2.737398	0.927456	-0.000110
 612	6.0794e+01	15.6589	47.541310	0.000172	1.723547	0.583954	-0.000069
 613	6.0894e+01	15.6156	47.444419	0.000243	2.433243	0.824405	-0.000097
 614	6.0993e+01	15.5803	47.387899	0.000142	1.419392	0.480903	-0.000057
 615	6.1093e+01	15.5306	47.311194	0.000193	1.926317	0.652654	-0.000077
 616	6.1193e+01	15.5017	47.246600	0.000162	1.622162	0.549603	-0.000065
 617	6.1292e+01	15.4536	47.161820	0.000213	2.129087	0.721354	-0.000085
 618	6.1392e+01	15.4183	47.064928	0.000243	2.433243	0.824405	-0.000097
 619	6.1491e+01	15.3734	46.959963	0.000264	2.636013	0.893105	-0.000105
 620	6.1590e+01	15.3413	46.919592	0.000101	1.013851	0.343502	-0.000041
 621	6.1690e+01	15.2980	46.806552	0.000284	2.838783	0.961806	-0.000114
 622	6.1789e+01	15.2595	46.729846	0.000193	1.926317	0.652654	-0.000077
 623	6.1889e+01	15.2161	46.645066	0.000213	2.129087	0.721354	-0.000085
 624	6.1989e+01	15.1696	46.588546	0.000142	1.419392	0.480903	-0.000057
 625	6.2088e+01	15.1295	46.499729	0.000223	2.230473	0.755705	-0.000089
 626	6.2188e+01	15.0990	46.406875	0.000233	2.331858	0.790055	-0.000093
 627	6.2287e+01	15.0541	46.318058	0.000223	2.230473	0.755705	-0.000089
 628	6.2386e+01	15.0188	46.253464	0.000162	1.622162	0.549603	-0.000065
 629	6.2486e+01	14.9771	46.156573	0.000243	2.433243	0.824405	-0.000097
 630	6.2586e+01	14.9434	46.087942	0.000172	1.723547	0.583954	-0.000069
 631	6.2685e+01	14.8905	45.999125	0.000223	2.230473	0.755705	-0.000089
 632	6.2785e+01	14.8568	45.934530	0.000162	1.622162	0.549603	-0.000065
 633	6.2884e+01	14.8151	45.845713	0.000223	2.230473	0.755705	-0.000089
 634	6.2983e+01	14.7846	45.732674	0.000284	2.838783	0.961806	-0.000114
 635	6.3083e+01	14.7365	45.655968	0.000193	1.926317	0.652654	-0.000077
 636	6.3182e+01	14.6948	45.567151	0.000223	2.230473	0.755705	-0.000089
 637	6.3282e+01	14.6547	45.538891	0.000071	0.709696	0.240451	-0.000028
 638	6.3382e+01	14.6210	45.417777	0.000304	3.041554	1.030506	-0.000122
 639	6.3481e+01	14.5793	45.369331	0.000122	1.216621	0.412202	-0.000049
 640	6.3581e+01	14.5343	45.244180	0.000314	3.142939	1.064856	-0.000126
 641	6.3680e+01	14.4975	45.155363	0.000223	2.230473	0.755705	-0.000089
 642	6.3779e+01	14.4622	45.082695	0.000182	1.824932	0.618304	-0.000073
 643	6.3879e+01	14.4204	45.022138	0.000152	1.520777	0.515253	-0.000061
 644	6.3978e+01	14.3836	44.945432	0.000193	1.926317	0.652654	-0.000077
 645	6.4078e+01	14.3418	44.824318	0.000304	3.041554	1.030506	-0.000122
 646	6.4177e+01	14.3001	44.743575	0.000203	2.027702	0.687004	-0.000081
 647	6.4277e+01	14.2552	44.654758	0.000223	2.230473	0.755705	-0.000089
 648	6.4376e+01	14.2151	44.594201	0.000152	1.520777	0.515253	-0.000061
 649	6.4476e+01	14.1702	44.497310	0.000243	2.433243	0.824405	-0.000097
 650	6.4576e+01	14.1397	44.384270	0.000284	2.838783	0.961806	-0.000114
 651	6.4675e+01	14.1028	44.283342	0.000253	2.534628	0.858755	-0.000101
 652	6.4775e+01	14.0643	44.206636	0.000193	1.926317	0.652654	-0.000077
 653	6.4874e+01	14.0194	44.162228	0.000112	1.115236	0.377852	-0.000045
 654	6.4974e+01	13.9761	44.089559	0.000182	1.824932	0.618304	-0.000073
 655	6.5073e+01	13.9344	43.956334	0.000335	3.345709	1.133557	-0.000134
 656	6.5172e+01	13.8991	43.843294	0.000284	2.838783	0.961806	-0.000114
 657	6.5272e+01	13.8670	43.798886	0.000112	1.115236	0.377852	-0.000045
 658	6.5371e+01	13.8285	43.710069	0.000223	2.230473	0.755705	-0.000089
 659	6.5471e+01	13.7852	43.609140	0.000253	2.534628	0.858755	-0.000101
 660	6.5570e+01	13.7370	43.488026	0.000304	3.041554	1.030506	-0.000122
 661	6.5670e+01	13.6985	43.415358	0.000182	1.824932	0.618304	-0.000073
 662	6.5769e+01	13.6745	43.366912	0.000122	1.216621	0.412202	-0.000049
 663	6.5869e+01	13.6199	43.253872	0.000284	2.838783	0.961806	-0.000114
 664	6.5969e+01	13.5846	43.161018	0.000233	2.331858	0.790055	-0.000093
 665	6.6068e+01	13.5317	43.068164	0.000233	2.331858	0.790055	-0.000093
 666	6.6168e+01	13.5076	42.995496	0.000182	1.824932	0.618304	-0.000073
 667	6.6267e+01	13.4659	42.874382	0.000304	3.041554	1.030506	-0.000122
 668	6.6367e+01	13.4242	42.805750	0.000172	1.723547	0.583954	-0.000069
 669	6.6466e+01	13.3841	42.696748	0.000274	2.737398	0.927456	-0.000110
 670	6.6566e+01	13.3392	42.616005	0.000203	2.027702	0.687004	-0.000081
 671	6.6665e+01	13.3023	42.527188	0.000223	2.230473	0.755705	-0.000089
 672	6.6764e+01	13.2638	42.410111	0.000294	2.940168	0.996156	-0.000118
 673	6.6864e+01	13.2157	42.345517	0.000162	1.622162	0.549603	-0.000065
 674	6.6963e+01	13.1788	42.224403	0.000304	3.041554	1.030506	-0.000122
 675	6.7063e+01	13.1483	42.151734	0.000182	1.824932	0.618304	-0.000073
 676	6.7162e+01	13.1018	42.026583	0.000314	3.142939	1.064856	-0.000126
 677	6.7262e+01	13.0617	41.966026	0.000152	1.520777	0.515253	-0.000061
 678	6.7362e+01	13.0248	41.865098	0.000253	2.534628	0.858755	-0.000101
 679	6.7461e+01	12.9718	41.735909	0.000324	3.244324	1.099207	-0.000130
 680	6.7561e+01	12.9430	41.695538	0.000101	1.013851	0.343502	-0.000041
 681	6.7660e+01	12.9093	41.578461	0.000294	2.940168	0.996156	-0.000118
 682	6.7760e+01	12.8676	41.517904	0.000152	1.520777	0.515253	-0.000061
 683	6.7859e+01	12.8290	41.404864	0.000284	2.838783	0.961806	-0.000114
 684	6.7959e+01	12.7889	41.312010	0.000233	2.331858	0.790055	-0.000093
 685	6.8058e+01	12.7472	41.223193	0.000223	2.230473	0.755705	-0.000089
 686	6.8157e+01	12.7184	41.122265	0.000253	2.534628	0.858755	-0.000101
 687	6.8257e+01	12.6638	41.017299	0.000264	2.636013	0.893105	-0.000105
 688	6.8356e+01	12.6237	40.928482	0.000223	2.230473	0.755705	-0.000089
 689	6.8456e+01	12.5820	40.863888	0.000162	1.622162	0.549603	-0.000065
 690	6.8555e+01	12.5547	40.742774	0.000304	3.041554	1.030506	-0.000122
 691	6.8655e+01	12.5050	40.625697	0.000294	2.940168	0.996156	-0.000118
 692	6.8754e+01	12.4729	40.581288	0.000112	1.115236	0.377852	-0.000045
 693	6.8854e+01	12.4216	40.452100	0.000324	3.244324	1.099207	-0.000130
 694	6.8954e+01	12.3911	40.387506	0.000162	1.622162	0.549603	-0.000065
 695	6.9053e+01	12.3462	40.270429	0.000294	2.940168	0.996156	-0.000118
 696	6.9153e+01	12.3061	40.165463	0.000264	2.636013	0.893105	-0.000105
 697	6.9252e+01	12.2644	40.068572	0.000243	2.433243	0.824405	-0.000097
 698	6.9352e+01	12.2307	39.943421	0.000314	3.142939	1.064856	-0.000126
 699	6.9451e+01	12.1890	39.903050	0.000101	1.013851	0.343502	-0.000041
 700	6.9550e+01	12.1489	39.790010	0.000284	2.838783	0.961806	-0.000114
 701	6.9650e+01	12.1152	39.713304	0.000193	1.926317	0.652654	-0.000077
 702	6.9749e+01	12.0751	39.580079	0.000335	3.345709	1.133557	-0.000134
 703	6.9849e+01	12.0382	39.503373	0.000193	1.926317	0.652654	-0.000077
 704	6.9948e+01	11.9836	39.438779	0.000162	1.622162	0.549603	-0.000065
 705	7.0048e+01	11.9531	39.261145	0.000446	4.460945	1.511409	-0.000179
 706	7.0147e+01	11.9178	39.188477	0.000182	1.824932	0.618304	-0.000073
 707	7.0247e+01	11.8745	39.091585	0.000243	2.433243	0.824405	-0.000097
 708	7.0347e+01	11.8216	39.014880	0.000193	1.926317	0.652654	-0.000077
 709	7.0446e+01	11.7895	38.909914	0.000264	2.636013	0.893105	-0.000105
 710	7.0546e+01	11.7446	38.768614	0.000355	3.548479	1.202257	-0.000142
 711	7.0645e+01	11.7141	38.687872	0.000203	2.027702	0.687004	-0.000081
 712	7.0745e+01	11.6804	38.578869	0.000274	2.737398	0.927456	-0.000110
 713	7.0844e+01	11.6371	38.494089	0.000213	2.129087	0.721354	-0.000085
 714	7.0944e+01	11.5906	38.356827	0.000345	3.447094	1.167907	-0.000138
 715	7.1043e+01	11.5537	38.300307	0.000142	1.419392	0.480903	-0.000057
 716	7.1142e+01	11.5184	38.159007	0.000355	3.548479	1.202257	-0.000142
 717	7.1242e+01	11.4783	38.082301	0.000193	1.926317	0.652654	-0.000077
 718	7.1341e+01	11.4398	37.965224	0.000294	2.940168	0.996156	-0.000118
 719	7.1441e+01	11.3884	37.896593	0.000172	1.723547	0.583954	-0.000069
 720	7.1540e+01	11.3516	37.731071	0.000416	4.156790	1.408359	-0.000166
 721	7.1640e+01	11.2986	37.642254	0.000223	2.230473	0.755705	-0.000089
 722	7.1740e+01	11.2681	37.537288	0.000264	2.636013	0.893105	-0.000105
 723	7.1839e+01	11.2360	37.464620	0.000182	1.824932	0.618304	-0.000073
 724	7.1939e+01	11.1895	37.323320	0.000355	3.548479	1.202257	-0.000142
 725	7.2038e+01	11.1494	37.206243	0.000294	2.940168	0.996156	-0.000118
 726	7.2138e+01	11.1077	37.157797	0.000122	1.216621	0.412202	-0.000049
 727	7.2237e+01	11.0740	37.008423	0.000375	3.751249	1.270958	-0.000150
 728	7.2337e+01	11.0451	36.923643	0.000213	2.129087	0.721354	-0.000085
 729	7.2436e+01	10.9938	36.766195	0.000395	3.954020	1.339658	-0.000158
 730	7.2535e+01	10.9473	36.697564	0.000172	1.723547	0.583954	-0.000069
 731	7.2635e+01	10.9168	36.604710	0.000233	2.331858	0.790055	-0.000093
 732	7.2734e+01	10.8735	36.463410	0.000355	3.548479	1.202257	-0.000142
 733	7.2834e+01	10.8382	36.382667	0.000203	2.027702	0.687004	-0.000081
 734	7.2933e+01	10.7949	36.277702	0.000264	2.636013	0.893105	-0.000105
 735	7.3033e+01	10.7548	36.164662	0.000284	2.838783	0.961806	-0.000114
 736	7.3132e+01	10.7195	36.047585	0.000294	2.940168	0.996156	-0.000118
 737	7.3232e+01	10.6746	35.991065	0.000142	1.419392	0.480903	-0.000057
 738	7.3332e+01	10.6345	35.841691	0.000375	3.751249	1.270958	-0.000150
 739	7.3431e+01	10.6072	35.764986	0.000193	1.926317	0.652654	-0.000077
 740	7.3531e+01	10.5559	35.668094	0.000243	2.433243	0.824405	-0.000097
 741	7.3630e+01	10.5206	35.534869	0.000335	3.345709	1.133557	-0.000134
 742	7.3730e+01	10.4740	35.450089	0.000213	2.129087	0.721354	-0.000085
 743	7.3829e+01	10.4452	35.312826	0.000345	3.447094	1.167907	-0.000138
 744	7.3928e+01	10.3890	35.244195	0.000172	1.723547	0.583954	-0.000069
 745	7.4028e+01	10.3521	35.147304	0.000243	2.433243	0.824405	-0.000097
 746	7.4127e+01	10.3232	35.022153	0.000314	3.142939	1.064856	-0.000126
 747	7.4227e+01	10.2783	34.901038	0.000304	3.041554	1.030506	-0.000122
 748	7.4326e+01	10.2382	34.804147	0.000243	2.433243	0.824405	-0.000097
 749	7.4426e+01	10.2029	34.707256	0.000243	2.433243	0.824405	-0.000097
 750	7.4525e+01	10.1612	34.582105	0.000314	3.142939	1.064856	-0.000126
 751	7.4625e+01	10.1291	34.456954	0.000314	3.142939	1.064856	-0.000126
 752	7.4725e+01	10.0794	34.356025	0.000253	2.534628	0.858755	-0.000101
 753	7.4824e+01	10.0409	34.259134	0.000243	2.433243	0.824405	-0.000097
 754	7.4924e+01	10.0024	34.121871	0.000345	3.447094	1.167907	-0.000138
 755	7.5023e+01	9.9591	34.016906	0.000264	2.636013	0.893105	-0.000105
 756	7.5123e+01	9.9190	33.984609	0.000081	0.811081	0.274802	-0.000032
 757	7.5222e+01	9.8789	33.851383	0.000335	3.345709	1.133557	-0.000134
 758	7.5322e+01	9.8372	33.734306	0.000294	2.940168	0.996156	-0.000118
 759	7.5421e+01	9.7987	33.593006	0.000355	3.548479	1.202257	-0.000142
 760	7.5520e+01	9.7553	33.496115	0.000243	2.433243	0.824405	-0.000097
 761	7.5620e+01	9.7217	33.395187	0.000253	2.534628	0.858755	-0.000101
 762	7.5719e+01	9.6751	33.274073	0.000304	3.041554	1.030506	-0.000122
 763	7.5819e+01	9.6414	33.177181	0.000243	2.433243	0.824405	-0.000097
 764	7.5918e+01	9.5981	33.080290	0.000243	2.433243	0.824405	-0.000097
 765	7.6018e+01	9.5612	32.963213	0.000294	2.940168	0.996156	-0.000118
 766	7.6118e+01	9.5211	32.846136	0.000294	2.940168	0.996156	-0.000118
 767	7.6217e+01	9.4874	32.753282	0.000233	2.331858	0.790055	-0.000093
 768	7.6317e+01	9.4345	32.656391	0.000243	2.433243	0.824405	-0.000097
 769	7.6416e+01	9.3960	32.511054	0.000365	3.649864	1.236607	-0.000146
 770	7.6516e+01	9.3639	32.414163	0.000243	2.433243	0.824405	-0.000097
 771	7.6615e+01	9.3190	32.309197	0.000264	2.636013	0.893105	-0.000105
 772	7.6715e+01	9.2821	32.175972	0.000335	3.345709	1.133557	-0.000134
 773	7.6814e+01	9.2404	32.083118	0.000233	2.331858	0.790055	-0.000093
 774	7.6913e+01	9.2003	31.949892	0.000335	3.345709	1.133557	-0.000134
 775	7.7013e+01	9.1650	31.792444	0.000395	3.954020	1.339658	-0.000158
 776	7.7112e+01	9.1233	31.719775	0.000182	1.824932	0.618304	-0.000073
 777	7.7212e+01	9.0784	31.622884	0.000243	2.433243	0.824405	-0.000097
 778	7.7311e+01	9.0415	31.509844	0.000284	2.838783	0.961806	-0.000114
 779	7.7411e+01	9.0014	31.400842	0.000274	2.737398	0.927456	-0.000110
 780	7.7510e+01	8.9628	31.267616	0.000335	3.345709	1.133557	-0.000134
 781	7.7610e+01	8.9211	31.154576	0.000284	2.838783	0.961806	-0.000114
 782	7.7710e+01	8.8762	31.069797	0.000213	2.129087	0.721354	-0.000085
 783	7.7809e+01	8.8361	30.928497	0.000355	3.548479	1.202257	-0.000142
 784	7.7909e+01	8.8056	30.795271	0.000335	3.345709	1.133557	-0.000134
 785	7.8008e+01	8.7559	30.714529	0.000203	2.027702	0.687004	-0.000081
 786	7.8108e+01	8.7222	30.637823	0.000193	1.926317	0.652654	-0.000077
 787	7.8207e+01	8.6869	30.452115	0.000466	4.663715	1.580110	-0.000187
 788	7.8306e+01	8.6484	30.359261	0.000233	2.331858	0.790055	-0.000093
 789	7.8406e+01	8.5955	30.266407	0.000233	2.331858	0.790055	-0.000093
 790	7.8505e+01	8.5666	30.157404	0.000274	2.737398	0.927456	-0.000110
 791	7.8605e+01	8.5201	30.060513	0.000243	2.433243	0.824405	-0.000097
 792	7.8704e+01	8.4864	29.886916	0.000436	4.359560	1.477059	-0.000174
 793	7.8804e+01	8.4335	29.822322	0.000162	1.622162	0.549603	-0.000065
 794	7.8903e+01	8.3982	29.693133	0.000324	3.244324	1.099207	-0.000130
 795	7.9003e+01	8.3597	29.584131	0.000274	2.737398	0.927456	-0.000110
 796	7.9103e+01	8.3244	29.450905	0.000335	3.345709	1.133557	-0.000134
 797	7.9202e+01	8.2827	29.362088	0.000223	2.230473	0.755705	-0.000089
 798	7.9302e+01	8.2442	29.204640	0.000395	3.954020	1.339658	-0.000158
 799	7.9401e+01	8.2040	29.103712	0.000253	2.534628	0.858755	-0.000101
 800	7.9501e+01	8.1655	28.986635	0.000294	2.940168	0.996156	-0.000118
 801	7.9600e+01	8.1254	28.913966	0.000182	1.824932	0.618304	-0.000073
 802	7.9700e+01	8.0853	28.768629	0.000365	3.649864	1.236607	-0.000146
 803	7.9799e+01	8.0420	28.691924	0.000193	1.926317	0.652654	-0.000077
 804	7.9898e+01	8.0099	28.574847	0.000294	2.940168	0.996156	-0.000118
 805	7.9998e+01	7.9602	28.437584	0.000345	3.447094	1.167907	-0.000138
 806	8.0097e+01	7.9249	28.340693	0.000243	2.433243	0.824405	-0.000097
 807	8.0197e+01	7.8896	28.231690	0.000274	2.737398	0.927456	-0.000110
 808	8.0296e+01	7.8543	28.106539	0.000314	3.142939	1.064856	-0.000126
 809	8.0396e+01	7.8046	28.013685	0.000233	2.331858	0.790055	-0.000093
 810	8.0496e+01	7.7741	27.912756	0.000253	2.534628	0.858755	-0.000101
 811	8.0595e+01	7.7212	27.791642	0.000304	3.041554	1.030506	-0.000122
 812	8.0695e+01	7.6923	27.658417	0.000335	3.345709	1.133557	-0.000134
 813	8.0794e+01	7.6522	27.533266	0.000314	3.142939	1.064856	-0.000126
 814	8.0894e+01	7.6057	27.391966	0.000355	3.548479	1.202257	-0.000142
 815	8.0993e+01	7.5720	27.307186	0.000213	2.129087	0.721354	-0.000085
 816	8.1093e+01	7.5319	27.157812	0.000375	3.751249	1.270958	-0.000150
 817	8.1192e+01	7.4966	27.056884	0.000253	2.534628	0.858755	-0.000101
 818	8.1291e+01	7.4485	26.947881	0.000274	2.737398	0.927456	-0.000110
 819	8.1391e+01	7.4083	26.842916	0.000264	2.636013	0.893105	-0.000105
 820	8.1490e+01	7.3763	26.693541	0.000375	3.751249	1.270958	-0.000150
 821	8.1590e+01	7.3249	26.624910	0.000172	1.723547	0.583954	-0.000069
 822	8.1689e+01	7.2880	26.471499	0.000385	3.852634	1.305308	-0.000154
 823	8.1789e+01	7.2431	26.382682	0.000223	2.230473	0.755705	-0.000089
 824	8.1888e+01	7.2142	26.233308	0.000375	3.751249	1.270958	-0.000150
 825	8.1988e+01	7.1757	26.120268	0.000284	2.838783	0.961806	-0.000114
 826	8.2088e+01	7.1276	25.999154	0.000304	3.041554	1.030506	-0.000122
 827	8.2187e+01	7.0891	25.906300	0.000233	2.331858	0.790055	-0.000093
 828	8.2287e+01	7.0426	25.760963	0.000365	3.649864	1.236607	-0.000146
 829	8.2386e+01	7.0137	25.647923	0.000284	2.838783	0.961806	-0.000114
 830	8.2486e+01	6.9704	25.563143	0.000213	2.129087	0.721354	-0.000085
 831	8.2585e+01	6.9255	25.393584	0.000426	4.258175	1.442709	-0.000170
 832	8.2684e+01	6.8870	25.324952	0.000172	1.723547	0.583954	-0.000069
 833	8.2784e+01	6.8501	25.163467	0.000406	4.055405	1.374008	-0.000162
 834	8.2883e+01	6.8100	25.050427	0.000284	2.838783	0.961806	-0.000114
 835	8.2983e+01	6.7618	24.921239	0.000324	3.244324	1.099207	-0.000130
 836	8.3082e+01	6.7233	24.848570	0.000182	1.824932	0.618304	-0.000073
 837	8.3182e+01	6.6913	24.707271	0.000355	3.548479	1.202257	-0.000142
 838	8.3281e+01	6.6528	24.610379	0.000243	2.433243	0.824405	-0.000097
 839	8.3381e+01	6.6110	24.461005	0.000375	3.751249	1.270958	-0.000150
 840	8.3481e+01	6.5790	24.360077	0.000253	2.534628	0.858755	-0.000101
 841	8.3580e+01	6.5356	24.222814	0.000345	3.447094	1.167907	-0.000138
 842	8.3680e+01	6.5004	24.101700	0.000304	3.041554	1.030506	-0.000122
 843	8.3779e+01	6.4554	24.012883	0.000223	2.230473	0.755705	-0.000089
 844	8.3879e+01	6.4089	23.891769	0.000304	3.041554	1.030506	-0.000122
 845	8.3978e+01	6.3816	23.742395	0.000375	3.751249	1.270958	-0.000150
 846	8.4078e+01	6.3383	23.637430	0.000264	2.636013	0.893105	-0.000105
 847	8.4177e+01	6.2870	23.556687	0.000203	2.027702	0.687004	-0.000081
 848	8.4276e+01	6.2501	23.403276	0.000385	3.852634	1.305308	-0.000154
 849	8.4376e+01	6.2116	23.270050	0.000335	3.345709	1.133557	-0.000134
 850	8.4475e+01	6.1715	23.132788	0.000345	3.447094	1.167907	-0.000138
 851	8.4575e+01	6.1410	23.007637	0.000314	3.142939	1.064856	-0.000126
 852	8.4674e+01	6.0897	22.922857	0.000213	2.129087	0.721354	-0.000085
 853	8.4774e+01	6.0496	22.789631	0.000335	3.345709	1.133557	-0.000134
 854	8.4874e+01	6.0127	22.668517	0.000304	3.041554	1.030506	-0.000122
 855	8.4973e+01	5.9742	22.567589	0.000253	2.534628	0.858755	-0.000101
 856	8.5073e+01	5.9405	22.446475	0.000304	3.041554	1.030506	-0.000122
 857	8.5172e+01	5.8972	22.309212	0.000345	3.447094	1.167907	-0.000138
 858	8.5272e+01	5.8603	22.175987	0.000335	3.345709	1.133557	-0.000134
 859	8.5371e+01	5.8057	22.079095	0.000243	2.433243	0.824405	-0.000097
 860	8.5471e+01	5.7768	21.953944	0.000314	3.142939	1.064856	-0.000126
 861	8.5570e+01	5.7415	21.836867	0.000294	2.940168	0.996156	-0.000118
 862	8.5669e+01	5.6966	21.703642	0.000335	3.345709	1.133557	-0.000134
 863	8.5769e+01	5.6533	21.610788	0.000233	2.331858	0.790055	-0.000093
 864	8.5868e+01	5.6180	21.489674	0.000304	3.041554	1.030506	-0.000122
 865	8.5968e+01	5.5811	21.344337	0.000365	3.649864	1.236607	-0.000146
 866	8.6067e+01	5.5362	21.223223	0.000304	3.041554	1.030506	-0.000122
 867	8.6167e+01	5.4881	21.122294	0.000253	2.534628	0.858755	-0.000101
 868	8.6266e+01	5.4512	20.993106	0.000324	3.244324	1.099207	-0.000130
 869	8.6366e+01	5.4127	20.908326	0.000213	2.129087	0.721354	-0.000085
 870	8.6466e+01	5.3726	20.787212	0.000304	3.041554	1.030506	-0.000122
 871	8.6565e+01	5.3421	20.645912	0.000355	3.548479	1.202257	-0.000142
 872	8.6665e+01	5.2924	20.492501	0.000385	3.852634	1.305308	-0.000154
 873	8.6764e+01	5.2651	20.383498	0.000274	2.737398	0.927456	-0.000110
 874	8.6864e+01	5.2186	20.278533	0.000264	2.636013	0.893105	-0.000105
 875	8.6963e+01	5.1753	20.165493	0.000284	2.838783	0.961806	-0.000114
 876	8.7063e+01	5.1384	19.999970	0.000416	4.156790	1.408359	-0.000166
 877	8.7162e+01	5.0983	19.862708	0.000345	3.447094	1.167907	-0.000138
 878	8.7261e+01	5.0565	19.737557	0.000314	3.142939	1.064856	-0.000126
 879	8.7361e+01	5.0293	19.616443	0.000304	3.041554	1.030506	-0.000122
 880	8.7460e+01	4.9683	19.523588	0.000233	2.331858	0.790055	-0.000093
 881	8.7560e+01	4.9314	19.390363	0.000335	3.345709	1.133557	-0.000134
 882	8.7659e+01	4.9025	19.249063	0.000355	3.548479	1.202257	-0.000142
 883	8.7759e+01	4.8656	19.164283	0.000213	2.129087	0.721354	-0.000085
 884	8.7859e+01	4.8191	19.010872	0.000385	3.852634	1.305308	-0.000154
 885	8.7958e+01	4.7742	18.873610	0.000345	3.447094	1.167907	-0.000138
 886	8.8058e+01	4.7421	18.760570	0.000284	2.838783	0.961806	-0.000114
 887	8.8157e+01	4.7004	18.643493	0.000294	2.940168	0.996156	-0.000118
 888	8.8257e+01	4.6635	18.526416	0.000294	2.940168	0.996156	-0.000118
 889	8.8356e+01	4.6186	18.368968	0.000395	3.954020	1.339658	-0.000158
 890	8.8456e+01	4.5801	18.251891	0.000294	2.940168	0.996156	-0.000118
 891	8.8555e+01	4.5416	18.130777	0.000304	3.041554	1.030506	-0.000122
 892	8.8654e+01	4.4951	18.017737	0.000284	2.838783	0.961806	-0.000114
 893	8.8754e+01	4.4566	17.872400	0.000365	3.649864	1.236607	-0.000146
 894	8.8853e+01	4.4229	17.755323	0.000294	2.940168	0.996156	-0.000118
 895	8.8953e+01	4.3908	17.642283	0.000284	2.838783	0.961806	-0.000114
 896	8.9052e+01	4.3427	17.517132	0.000314	3.142939	1.064856	-0.000126
 897	8.9152e+01	4.3074	17.391981	0.000314	3.142939	1.064856	-0.000126
 898	8.9251e+01	4.2641	17.274904	0.000294	2.940168	0.996156	-0.000118
 899	8.9351e+01	4.2304	17.169938	0.000264	2.636013	0.893105	-0.000105
 900	8.9451e+01	4.1758	17.036713	0.000335	3.345709	1.133557	-0.000134
 901	8.9550e+01	4.1373	16.875227	0.000406	4.055405	1.374008	-0.000162
 902	8.9650e+01	4.0972	16.798522	0.000193	1.926317	0.652654	-0.000077
 903	8.9749e+01	4.0603	16.657222	0.000355	3.548479	1.202257	-0.000142
 904	8.9849e+01	4.0234	16.471514	0.000466	4.663715	1.580110	-0.000187
 905	8.9948e+01	3.9769	16.390771	0.000203	2.027702	0.687004	-0.000081
 906	9.0047e+01	3.9480	16.281768	0.000274	2.737398	0.927456	-0.000110
 907	9.0147e+01	3.8967	16.160654	0.000304	3.041554	1.030506	-0.000122
 908	9.0246e+01	3.8630	15.987058	0.000436	4.359560	1.477059	-0.000174
 909	9.0346e+01	3.8197	15.926500	0.000152	1.520777	0.515253	-0.000061
 910	9.0445e+01	3.7844	15.765015	0.000406	4.055405	1.374008	-0.000162
 911	9.0545e+01	3.7379	15.672161	0.000233	2.331858	0.790055	-0.000093
 912	9.0644e+01	3.7042	15.522787	0.000375	3.751249	1.270958	-0.000150
 913	9.0744e+01	3.6560	15.397636	0.000314	3.142939	1.064856	-0.000126
 914	9.0844e+01	3.6224	15.228076	0.000426	4.258175	1.442709	-0.000170
 915	9.0943e+01	3.5758	15.110999	0.000294	2.940168	0.996156	-0.000118
 916	9.1043e+01	3.5550	15.018145	0.000233	2.331858	0.790055	-0.000093
 917	9.1142e+01	3.5036	14.897031	0.000304	3.041554	1.030506	-0.000122
 918	9.1242e+01	3.4571	14.747657	0.000375	3.751249	1.270958	-0.000150
 919	9.1341e+01	3.4315	14.602320	0.000365	3.649864	1.236607	-0.000146
 920	9.1441e+01	3.3769	14.521577	0.000203	2.027702	0.687004	-0.000081
 921	9.1540e+01	3.3448	14.416612	0.000264	2.636013	0.893105	-0.000105
 922	9.1639e+01	3.2983	14.251089	0.000416	4.156790	1.408359	-0.000166
 923	9.1739e+01	3.2726	14.121901	0.000324	3.244324	1.099207	-0.000130
 924	9.1838e+01	3.2277	14.000787	0.000304	3.041554	1.030506	-0.000122
 925	9.1938e+01	3.1876	13.899858	0.000253	2.534628	0.858755	-0.000101
 926	9.2037e+01	3.1523	13.774707	0.000314	3.142939	1.064856	-0.000126
 927	9.2137e+01	3.1154	13.645519	0.000324	3.244324	1.099207	-0.000130
 928	9.2237e+01	3.0721	13.540553	0.000264	2.636013	0.893105	-0.000105
 929	9.2336e+01	3.0224	13.391179	0.000375	3.751249	1.270958	-0.000150
 930	9.2436e+01	2.9871	13.229694	0.000406	4.055405	1.374008	-0.000162
 931	9.2535e+01	2.9390	13.157025	0.000182	1.824932	0.618304	-0.000073
 932	9.2635e+01	2.9021	13.003614	0.000385	3.852634	1.305308	-0.000154
 933	9.2734e+01	2.8668	12.894612	0.000274	2.737398	0.927456	-0.000110
 934	9.2834e+01	2.8251	12.777535	0.000294	2.940168	0.996156	-0.000118
 935	9.2933e+01	2.7882	12.656421	0.000304	3.041554	1.030506	-0.000122
 936	9.3032e+01	2.7448	12.539344	0.000294	2.940168	0.996156	-0.000118
 937	9.3132e+01	2.7128	12.389970	0.000375	3.751249	1.270958	-0.000150
 938	9.3231e+01	2.6678	12.305190	0.000213	2.129087	0.721354	-0.000085
 939	9.3331e+01	2.6325	12.131593	0.000436	4.359560	1.477059	-0.000174
 940	9.3430e+01	2.5876	11.990293	0.000355	3.548479	1.202257	-0.000142
 941	9.3530e+01	2.5443	11.905513	0.000213	2.129087	0.721354	-0.000085
 942	9.3629e+01	2.5106	11.768251	0.000345	3.447094	1.167907	-0.000138
 943	9.3729e+01	2.4657	11.655211	0.000284	2.838783	0.961806	-0.000114
 944	9.3829e+01	2.4256	11.497763	0.000395	3.954020	1.339658	-0.000158
 945	9.3928e+01	2.3871	11.404908	0.000233	2.331858	0.790055	-0.000093
 946	9.4028e+01	2.3438	11.255534	0.000375	3.751249	1.270958	-0.000150
 947	9.4127e+01	2.3101	11.102123	0.000385	3.852634	1.305308	-0.000154
 948	9.4227e+01	2.2732	11.025418	0.000193	1.926317	0.652654	-0.000077
 949	9.4326e+01	2.2395	10.880081	0.000365	3.649864	1.236607	-0.000146
 950	9.4425e+01	2.1914	10.775115	0.000264	2.636013	0.893105	-0.000105
 951	9.4525e+01	2.1529	10.613630	0.000406	4.055405	1.374008	-0.000162
 952	9.4624e+01	2.1048	10.472330	0.000355	3.548479	1.202257	-0.000142
 953	9.4724e+01	2.0679	10.375439	0.000243	2.433243	0.824405	-0.000097
 954	9.4823e+01	2.0326	10.230102	0.000365	3.649864	1.236607	-0.000146
 955	9.4923e+01	1.9957	10.121099	0.000274	2.737398	0.927456	-0.000110
 956	9.5022e+01	1.9556	9.975762	0.000365	3.649864	1.236607	-0.000146
 957	9.5122e+01	1.9106	9.846574	0.000324	3.244324	1.099207	-0.000130
 958	9.5222e+01	1.8705	9.713349	0.000335	3.345709	1.133557	-0.000134
 959	9.5321e+01	1.8336	9.640680	0.000182	1.824932	0.618304	-0.000073
 960	9.5421e+01	1.7871	9.487269	0.000385	3.852634	1.305308	-0.000154
 961	9.5520e+01	1.7534	9.390378	0.000243	2.433243	0.824405	-0.000097
 962	9.5620e+01	1.7197	9.273301	0.000294	2.940168	0.996156	-0.000118
 963	9.5719e+01	1.6636	9.136038	0.000345	3.447094	1.167907	-0.000138
 964	9.5819e+01	1.6235	9.006850	0.000324	3.244324	1.099207	-0.000130
 965	9.5918e+01	1.5962	8.889773	0.000294	2.940168	0.996156	-0.000118
 966	9.6017e+01	1.5465	8.736362	0.000385	3.852634	1.305308	-0.000154
 967	9.6117e+01	1.5080	8.671768	0.000162	1.622162	0.549603	-0.000065
 968	9.6216e+01	1.4711	8.526431	0.000365	3.649864	1.236607	-0.000146
 969	9.6316e+01	1.4310	8.377057	0.000375	3.751249	1.270958	-0.000150
 970	9.6415e+01	1.3925	8.255943	0.000304	3.041554	1.030506	-0.000122
 971	9.6515e+01	1.3508	8.183274	0.000182	1.824932	0.618304	-0.000073
 972	9.6615e+01	1.3155	8.050049	0.000335	3.345709	1.133557	-0.000134
 973	9.6714e+01	1.2738	7.904712	0.000365	3.649864	1.236607	-0.000146
 974	9.6814e+01	1.2288	7.783598	0.000304	3.041554	1.030506	-0.000122
 975	9.6913e+01	1.1871	7.686706	0.000243	2.433243	0.824405	-0.000097
 976	9.7013e+01	1.1663	7.525221	0.000406	4.055405	1.374008	-0.000162
 977	9.7112e+01	1.1149	7.412181	0.000284	2.838783	0.961806	-0.000114
 978	9.7212e+01	1.0796	7.274919	0.000345	3.447094	1.167907	-0.000138
 979	9.7311e+01	1.0363	7.153805	0.000304	3.041554	1.030506	-0.000122
 980	9.7410e+01	0.9914	7.048839	0.000264	2.636013	0.893105	-0.000105
 981	9.7510e+01	0.9561	6.883316	0.000416	4.156790	1.408359	-0.000166
 982	9.7609e+01	0.9208	6.798537	0.000213	2.129087	0.721354	-0.000085
 983	9.7709e+01	0.8759	6.645125	0.000385	3.852634	1.305308	-0.000154
 984	9.7808e+01	0.8342	6.524011	0.000304	3.041554	1.030506	-0.000122
 985	9.7908e+01	0.7893	6.415009	0.000274	2.737398	0.927456	-0.000110
 986	9.8007e+01	0.7476	6.301969	0.000284	2.838783	0.961806	-0.000114
 987	9.8107e+01	0.7139	6.108186	0.000487	4.866486	1.648810	-0.000195
 988	9.8207e+01	0.6625	6.019369	0.000223	2.230473	0.755705	-0.000089
 989	9.8306e+01	0.6353	5.898255	0.000304	3.041554	1.030506	-0.000122
 990	9.8406e+01	0.5936	5.752918	0.000365	3.649864	1.236607	-0.000146
 991	9.8505e+01	0.5567	5.643916	0.000274	2.737398	0.927456	-0.000110
 992	9.8605e+01	0.5182	5.547025	0.000243	2.433243	0.824405	-0.000097
 993	9.8704e+01	0.4781	5.429948	0.000294	2.940168	0.996156	-0.000118
 994	9.8803e+01	0.4347	5.316908	0.000284	2.838783	0.961806	-0.000114
 995	9.8903e+01	0.3978	5.147348	0.000426	4.258175	1.442709	-0.000170
 996	9.9002e+01	0.3610	5.002011	0.000365	3.649864	1.236607	-0.000146
 997	9.9102e+01	0.3208	4.921268	0.000203	2.027702	0.687004	-0.000081
 998	9.9201e+01	0.2856	4.836489	0.000213	2.129087	0.721354	-0.000085
 999	9.9301e+01	0.2406	4.670966	0.000416	4.156790	1.408359	-0.000166
1000	9.9400e+01	0.1957	4.561963	0.000274	2.737398	0.927456	-0.000110
1001	9.9500e+01	0.1604	4.412589	0.000375	3.751249	1.270958	-0.000150
1002	9.9600e+01	0.1203	4.295512	0.000294	2.940168	0.996156	-0.000118
1003	9.9699e+01	0.0722	4.198621	0.000243	2.433243	0.824405	-0.000097
1004	9.9799e+01	0.0321	4.049247	0.000375	3.751249	1.270958	-0.000150
1005	9.9898e+01	0.0048	3.932170	0.000294	2.940168	0.996156	-0.000118
1006	9.9998e+01	-0.0289	3.871613	0.000152	1.520777	0.515253	-0.000061
1007	1.0010e+02	-0.0802	3.714165	0.000395	3.954020	1.339658	-0.000158
1008	1.0020e+02	-0.1091	3.584977	0.000324	3.244324	1.099207	-0.000130
1009	1.0030e+02	-0.1572	3.471937	0.000284	2.838783	0.961806	-0.000114
1010	1.0040e+02	-0.1925	3.322563	0.000375	3.751249	1.270958	-0.000150
1011	1.0050e+02	-0.2342	3.229709	0.000233	2.331858	0.790055	-0.000093
1012	1.0059e+02	-0.2807	3.072260	0.000395	3.954020	1.339658	-0.000158
1013	1.0069e+02	-0.3096	2.967295	0.000264	2.636013	0.893105	-0.000105
1014	1.0079e+02	-0.3529	2.813884	0.000385	3.852634	1.305308	-0.000154
1015	1.0089e+02	-0.3995	2.716992	0.000243	2.433243	0.824405	-0.000097
1016	1.0099e+02	-0.4315	2.551470	0.000416	4.156790	1.408359	-0.000166
1017	1.0109e+02	-0.4797	2.490913	0.000152	1.520777	0.515253	-0.000061
1018	1.0119e+02	-0.5118	2.329427	0.000406	4.055405	1.374008	-0.000162
1019	1.0129e+02	-0.5567	2.212350	0.000294	2.940168	0.996156	-0.000118
1020	1.0139e+02	-0.6016	2.087199	0.000314	3.142939	1.064856	-0.000126
1021	1.0149e+02	-0.6321	1.986271	0.000253	2.534628	0.858755	-0.000101
1022	1.0159e+02	-0.6722	1.857082	0.000324	3.244324	1.099207	-0.000130
1023	1.0169e+02	-0.7139	1.719820	0.000345	3.447094	1.167907	-0.000138
1024	1.0179e+02	-0.7540	1.586594	0.000335	3.345709	1.133557	-0.000134
1025	1.0189e+02	-0.7845	1.433183	0.000385	3.852634	1.305308	-0.000154
1026	1.0199e+02	-0.8326	1.308032	0.000314	3.142939	1.064856	-0.000126
1027	1.0209e+02	-0.8727	1.227289	0.000203	2.027702	0.687004	-0.000081
1028	1.0219e+02	-0.9192	1.106175	0.000304	3.041554	1.030506	-0.000122
1029	1.0229e+02	-0.9545	0.976987	0.000324	3.244324	1.099207	-0.000130
1030	1.0239e+02	-0.9898	0.843761	0.000335	3.345709	1.133557	-0.000134
1031	1.0248e+02	-1.0331	0.738796	0.000264	2.636013	0.893105	-0.000105
1032	1.0258e+02	-1.0636	0.621719	0.000294	2.940168	0.996156	-0.000118
1033	1.0268e+02	-1.1069	0.484456	0.000345	3.447094	1.167907	-0.000138
1034	1.0278e+02	-1.1534	0.391602	0.000233	2.331858	0.790055	-0.000093
1035	1.0288e+02	-1.1919	0.242228	0.000375	3.751249	1.270958	-0.000150
1036	1.0298e+02	-1.2449	0.117077	0.000314	3.142939	1.064856	-0.000126
1037	1.0308e+02	-1.2738	0.008074	0.000274	2.737398	0.927456	-0.000110
1038	1.0318e+02	-1.3074	-0.129188	0.000345	3.447094	1.167907	-0.000138
1039	1.0328e+02	-1.3524	-0.266451	0.000345	3.447094	1.167907	-0.000138
1040	1.0338e+02	-1.3941	-0.363342	0.000243	2.433243	0.824405	-0.000097
1041	1.0348e+02	-1.4326	-0.504642	0.000355	3.548479	1.202257	-0.000142
1042	1.0358e+02	-1.4647	-0.625756	0.000304	3.041554	1.030506	-0.000122
1043	1.0368e+02	-1.5096	-0.771093	0.000365	3.649864	1.236607	-0.000146
1044	1.0378e+02	-1.5593	-0.880096	0.000274	2.737398	0.927456	-0.000110
1045	1.0388e+02	-1.5930	-0.997173	0.000294	2.940168	0.996156	-0.000118
1046	1.0398e+02	-1.6235	-1.170769	0.000436	4.359560	1.477059	-0.000174
1047	1.0408e+02	-1.6700	-1.295921	0.000314	3.142939	1.064856	-0.000126
1048	1.0418e+02	-1.7101	-1.384738	0.000223	2.230473	0.755705	-0.000089
1049	1.0428e+02	-1.7454	-1.517963	0.000335	3.345709	1.133557	-0.000134
1050	1.0438e+02	-1.7871	-1.631003	0.000284	2.838783	0.961806	-0.000114
1051	1.0447e+02	-1.8272	-1.796525	0.000416	4.156790	1.408359	-0.000166
1052	1.0457e+02	-1.8641	-1.901491	0.000264	2.636013	0.893105	-0.000105
1053	1.0467e+02	-1.9106	-2.034716	0.000335	3.345709	1.133557	-0.000134
1054	1.0477e+02	-1.9459	-2.135645	0.000253	2.534628	0.858755	-0.000101
1055	1.0487e+02	-1.9909	-2.272907	0.000345	3.447094	1.167907	-0.000138
1056	1.0497e+02	-2.0245	-2.398059	0.000314	3.142939	1.064856	-0.000126
1057	1.0507e+02	-2.0598	-2.535321	0.000345	3.447094	1.167907	-0.000138
1058	1.0517e+02	-2.1128	-2.648361	0.000284	2.838783	0.961806	-0.000114
1059	1.0527e+02	-2.1417	-2.797735	0.000375	3.751249	1.270958	-0.000150
1060	1.0537e+02	-2.1914	-2.910775	0.000284	2.838783	0.961806	-0.000114
1061	1.0547e+02	-2.2379	-3.031889	0.000304	3.041554	1.030506	-0.000122
1062	1.0557e+02	-2.2668	-3.140892	0.000274	2.737398	0.927456	-0.000110
1063	1.0567e+02	-2.3021	-3.249894	0.000274	2.737398	0.927456	-0.000110
1064	1.0577e+02	-2.3454	-3.354860	0.000264	2.636013	0.893105	-0.000105
1065	1.0587e+02	-2.3903	-3.532494	0.000446	4.460945	1.511409	-0.000179
1066	1.0597e+02	-2.4224	-3.653608	0.000304	3.041554	1.030506	-0.000122
1067	1.0607e+02	-2.4641	-3.746462	0.000233	2.331858	0.790055	-0.000093
1068	1.0617e+02	-2.5010	-3.916022	0.000426	4.258175	1.442709	-0.000170
1069	1.0627e+02	-2.5507	-3.996764	0.000203	2.027702	0.687004	-0.000081
1070	1.0637e+02	-2.5924	-4.170361	0.000436	4.359560	1.477059	-0.000174
1071	1.0647e+02	-2.6277	-4.279364	0.000274	2.737398	0.927456	-0.000110
1072	1.0656e+02	-2.6614	-4.396441	0.000294	2.940168	0.996156	-0.000118
1073	1.0666e+02	-2.7079	-4.513518	0.000294	2.940168	0.996156	-0.000118
1074	1.0676e+02	-2.7400	-4.630595	0.000294	2.940168	0.996156	-0.000118
1075	1.0686e+02	-2.7817	-4.808229	0.000446	4.460945	1.511409	-0.000179
1076	1.0696e+02	-2.8234	-4.921268	0.000284	2.838783	0.961806	-0.000114
1077	1.0706e+02	-2.8571	-5.018160	0.000243	2.433243	0.824405	-0.000097
1078	1.0716e+02	-2.9005	-5.098902	0.000203	2.027702	0.687004	-0.000081
1079	1.0726e+02	-2.9470	-5.284611	0.000466	4.663715	1.580110	-0.000187
1080	1.0736e+02	-2.9983	-5.417836	0.000335	3.345709	1.133557	-0.000134
1081	1.0746e+02	-3.0304	-5.530876	0.000284	2.838783	0.961806	-0.000114
1082	1.0756e+02	-3.0657	-5.607582	0.000193	1.926317	0.652654	-0.000077
1083	1.0766e+02	-3.1026	-5.760993	0.000385	3.852634	1.305308	-0.000154
1084	1.0776e+02	-3.1427	-5.878070	0.000294	2.940168	0.996156	-0.000118
1085	1.0786e+02	-3.1844	-6.031481	0.000385	3.852634	1.305308	-0.000154
1086	1.0796e+02	-3.2293	-6.108186	0.000193	1.926317	0.652654	-0.000077
1087	1.0806e+02	-3.2614	-6.217189	0.000274	2.737398	0.927456	-0.000110
1088	1.0816e+02	-3.2967	-6.402897	0.000466	4.663715	1.580110	-0.000187
1089	1.0826e+02	-3.3432	-6.511900	0.000274	2.737398	0.927456	-0.000110
1090	1.0836e+02	-3.3833	-6.653200	0.000355	3.548479	1.202257	-0.000142
1091	1.0845e+02	-3.4250	-6.729905	0.000193	1.926317	0.652654	-0.000077
1092	1.0855e+02	-3.4603	-6.883316	0.000385	3.852634	1.305308	-0.000154
1093	1.0865e+02	-3.5036	-6.996356	0.000284	2.838783	0.961806	-0.000114
1094	1.0875e+02	-3.5438	-7.109396	0.000284	2.838783	0.961806	-0.000114
1095	1.0885e+02	-3.5790	-7.234547	0.000314	3.142939	1.064856	-0.000126
1096	1.0895e+02	-3.6272	-7.379884	0.000365	3.649864	1.236607	-0.000146
1097	1.0905e+02	-3.6528	-7.500998	0.000304	3.041554	1.030506	-0.000122
1098	1.0915e+02	-3.6929	-7.618075	0.000294	2.940168	0.996156	-0.000118
1099	1.0925e+02	-3.7379	-7.714966	0.000243	2.433243	0.824405	-0.000097
1100	1.0935e+02	-3.7796	-7.856266	0.000355	3.548479	1.202257	-0.000142
1101	1.0945e+02	-3.8245	-7.957195	0.000253	2.534628	0.858755	-0.000101
1102	1.0955e+02	-3.8630	-8.102531	0.000365	3.649864	1.236607	-0.000146
1103	1.0965e+02	-3.8951	-8.243831	0.000355	3.548479	1.202257	-0.000142
1104	1.0975e+02	-3.9432	-8.356871	0.000284	2.838783	0.961806	-0.000114
1105	1.0985e+02	-3.9817	-8.506245	0.000375	3.751249	1.270958	-0.000150
1106	1.0995e+02	-4.0154	-8.607173	0.000253	2.534628	0.858755	-0.000101
1107	1.1005e+02	-4.0587	-8.720213	0.000284	2.838783	0.961806	-0.000114
1108	1.1015e+02	-4.0988	-8.861513	0.000355	3.548479	1.202257	-0.000142
1109	1.1025e+02	-4.1341	-8.986664	0.000314	3.142939	1.064856	-0.000126
1110	1.1035e+02	-4.1774	-9.140075	0.000385	3.852634	1.305308	-0.000154
1111	1.1044e+02	-4.2191	-9.257152	0.000294	2.940168	0.996156	-0.000118
1112	1.1054e+02	-4.2448	-9.358081	0.000253	2.534628	0.858755	-0.000101
1113	1.1064e+02	-4.3026	-9.511492	0.000385	3.852634	1.305308	-0.000154
1114	1.1074e+02	-4.3378	-9.616457	0.000264	2.636013	0.893105	-0.000105
1115	1.1084e+02	-4.3828	-9.717386	0.000253	2.534628	0.858755	-0.000101
1116	1.1094e+02	-4.4229	-9.818314	0.000253	2.534628	0.858755	-0.000101
1117	1.1104e+02	-4.4501	-9.967688	0.000375	3.751249	1.270958	-0.000150
1118	1.1114e+02	-4.4983	-10.084765	0.000294	2.940168	0.996156	-0.000118
1119	1.1124e+02	-4.5287	-10.226065	0.000355	3.548479	1.202257	-0.000142
1120	1.1134e+02	-4.5833	-10.343142	0.000294	2.940168	0.996156	-0.000118
1121	1.1144e+02	-4.6202	-10.472330	0.000324	3.244324	1.099207	-0.000130
1122	1.1154e+02	-4.6555	-10.593444	0.000304	3.041554	1.030506	-0.000122
1123	1.1164e+02	-4.6924	-10.682261	0.000223	2.230473	0.755705	-0.000089
1124	1.1174e+02	-4.7341	-10.803375	0.000304	3.041554	1.030506	-0.000122
1125	1.1184e+02	-4.7790	-10.912378	0.000274	2.737398	0.927456	-0.000110
1126	1.1194e+02	-4.8111	-11.077900	0.000416	4.156790	1.408359	-0.000166
1127	1.1204e+02	-4.8560	-11.158643	0.000203	2.027702	0.687004	-0.000081
1128	1.1214e+02	-4.9009	-11.320129	0.000406	4.055405	1.374008	-0.000162
1129	1.1224e+02	-4.9410	-11.364537	0.000112	1.115236	0.377852	-0.000045
1130	1.1234e+02	-4.9715	-11.517948	0.000385	3.852634	1.305308	-0.000154
1131	1.1244e+02	-5.0052	-11.711731	0.000487	4.866486	1.648810	-0.000195
1132	1.1253e+02	-5.0501	-11.788436	0.000193	1.926317	0.652654	-0.000077
1133	1.1263e+02	-5.0918	-11.877253	0.000223	2.230473	0.755705	-0.000089
1134	1.1273e+02	-5.1335	-12.014516	0.000345	3.447094	1.167907	-0.000138
1135	1.1283e+02	-5.1737	-12.155816	0.000355	3.548479	1.202257	-0.000142
1136	1.1293e+02	-5.2138	-12.260781	0.000264	2.636013	0.893105	-0.000105
1137	1.1303e+02	-5.2458	-12.385932	0.000314	3.142939	1.064856	-0.000126
1138	1.1313e+02	-5.2876	-12.527232	0.000355	3.548479	1.202257	-0.000142
1139	1.1323e+02	-5.3309	-12.624123	0.000243	2.433243	0.824405	-0.000097
1140	1.1333e+02	-5.3758	-12.721015	0.000243	2.433243	0.824405	-0.000097
1141	1.1343e+02	-5.4175	-12.870389	0.000375	3.751249	1.270958	-0.000150
1142	1.1353e+02	-5.4592	-12.987466	0.000294	2.940168	0.996156	-0.000118
1143	1.1363e+02	-5.4961	-13.068208	0.000203	2.027702	0.687004	-0.000081
1144	1.1373e+02	-5.5266	-13.197397	0.000324	3.244324	1.099207	-0.000130
1145	1.1383e+02	-5.5699	-13.370994	0.000436	4.359560	1.477059	-0.000174
1146	1.1393e+02	-5.6116	-13.415402	0.000112	1.115236	0.377852	-0.000045
1147	1.1403e+02	-5.6613	-13.584962	0.000426	4.258175	1.442709	-0.000170
1148	1.1413e+02	-5.6886	-13.685890	0.000253	2.534628	0.858755	-0.000101
1149	1.1423e+02	-5.7303	-13.831227	0.000365	3.649864	1.236607	-0.000146
1150	1.1433e+02	-5.7817	-13.924081	0.000233	2.331858	0.790055	-0.000093
1151	1.1442e+02	-5.8009	-14.089604	0.000416	4.156790	1.408359	-0.000166
1152	1.1452e+02	-5.8490	-14.166309	0.000193	1.926317	0.652654	-0.000077
1153	1.1462e+02	-5.8956	-14.303572	0.000345	3.447094	1.167907	-0.000138
1154	1.1472e+02	-5.9325	-14.404500	0.000253	2.534628	0.858755	-0.000101
1155	1.1482e+02	-5.9645	-14.553874	0.000375	3.751249	1.270958	-0.000150
1156	1.1492e+02	-6.0143	-14.715360	0.000406	4.055405	1.374008	-0.000162
1157	1.1502e+02	-6.0496	-14.759768	0.000112	1.115236	0.377852	-0.000045
1158	1.1512e+02	-6.0897	-14.909142	0.000375	3.751249	1.270958	-0.000150
1159	1.1522e+02	-6.1298	-15.018145	0.000274	2.737398	0.927456	-0.000110
1160	1.1532e+02	-6.1699	-15.155408	0.000345	3.447094	1.167907	-0.000138
1161	1.1542e+02	-6.2116	-15.276522	0.000304	3.041554	1.030506	-0.000122
1162	1.1552e+02	-6.2549	-15.373413	0.000243	2.433243	0.824405	-0.000097
1163	1.1562e+02	-6.2886	-15.506638	0.000335	3.345709	1.133557	-0.000134
1164	1.1572e+02	-6.3255	-15.623715	0.000294	2.940168	0.996156	-0.000118
1165	1.1582e+02	-6.3672	-15.756941	0.000335	3.345709	1.133557	-0.000134
1166	1.1592e+02	-6.4057	-15.849795	0.000233	2.331858	0.790055	-0.000093
1167	1.1602e+02	-6.4458	-15.962835	0.000284	2.838783	0.961806	-0.000114
1168	1.1612e+02	-6.4907	-16.071837	0.000274	2.737398	0.927456	-0.000110
1169	1.1622e+02	-6.5276	-16.213137	0.000355	3.548479	1.202257	-0.000142
1170	1.1632e+02	-6.5725	-16.314066	0.000253	2.534628	0.858755	-0.000101
1171	1.1642e+02	-6.6110	-16.435180	0.000304	3.041554	1.030506	-0.000122
1172	1.1651e+02	-6.6447	-16.536108	0.000253	2.534628	0.858755	-0.000101
1173	1.1661e+02	-6.6848	-16.669333	0.000335	3.345709	1.133557	-0.000134
1174	1.1671e+02	-6.7282	-16.810633	0.000355	3.548479	1.202257	-0.000142
1175	1.1681e+02	-6.7731	-16.931747	0.000304	3.041554	1.030506	-0.000122
1176	1.1691e+02	-6.8019	-17.060936	0.000324	3.244324	1.099207	-0.000130
1177	1.1701e+02	-6.8388	-17.169938	0.000274	2.737398	0.927456	-0.000110
1178	1.1711e+02	-6.8773	-17.258755	0.000223	2.230473	0.755705	-0.000089
1179	1.1721e+02	-6.9351	-17.424278	0.000416	4.156790	1.408359	-0.000166
1180	1.1731e+02	-6.9656	-17.525206	0.000253	2.534628	0.858755	-0.000101
1181	1.1741e+02	-7.0041	-17.618060	0.000233	2.331858	0.790055	-0.000093
1182	1.1751e+02	-7.0442	-17.775509	0.000395	3.954020	1.339658	-0.000158
1183	1.1761e+02	-7.0859	-17.908734	0.000335	3.345709	1.133557	-0.000134
1184	1.1771e+02	-7.1260	-18.013700	0.000264	2.636013	0.893105	-0.000105
1185	1.1781e+02	-7.1677	-18.110591	0.000243	2.433243	0.824405	-0.000097
1186	1.1791e+02	-7.2126	-18.251891	0.000355	3.548479	1.202257	-0.000142
1187	1.1801e+02	-7.2511	-18.348782	0.000243	2.433243	0.824405	-0.000097
1188	1.1811e+02	-7.2832	-18.449710	0.000253	2.534628	0.858755	-0.000101
1189	1.1821e+02	-7.3185	-18.599084	0.000375	3.751249	1.270958	-0.000150
1190	1.1831e+02	-7.3634	-18.748458	0.000375	3.751249	1.270958	-0.000150
1191	1.1841e+02	-7.4051	-18.853424	0.000264	2.636013	0.893105	-0.000105
1192	1.1850e+02	-7.4340	-18.938204	0.000213	2.129087	0.721354	-0.000085
1193	1.1860e+02	-7.4870	-19.063355	0.000314	3.142939	1.064856	-0.000126
1194	1.1870e+02	-7.5287	-19.168320	0.000264	2.636013	0.893105	-0.000105
1195	1.1880e+02	-7.5656	-19.281360	0.000284	2.838783	0.961806	-0.000114
1196	1.1890e+02	-7.5976	-19.410549	0.000324	3.244324	1.099207	-0.000130
1197	1.1900e+02	-7.6410	-19.503403	0.000233	2.331858	0.790055	-0.000093
1198	1.1910e+02	-7.6827	-19.636628	0.000335	3.345709	1.133557	-0.000134
1199	1.1920e+02	-7.7308	-19.749668	0.000284	2.838783	0.961806	-0.000114
1200	1.1930e+02	-7.7645	-19.899042	0.000375	3.751249	1.270958	-0.000150
1201	1.1940e+02	-7.7950	-19.995933	0.000243	2.433243	0.824405	-0.000097
1202	1.1950e+02	-7.8351	-20.133196	0.000345	3.447094	1.167907	-0.000138
1203	1.1960e+02	-7.8832	-20.197790	0.000162	1.622162	0.549603	-0.000065
1204	1.1970e+02	-7.9121	-20.326978	0.000324	3.244324	1.099207	-0.000130
1205	1.1980e+02	-7.9682	-20.484427	0.000395	3.954020	1.339658	-0.000158
1206	1.1990e+02	-8.0019	-20.565169	0.000203	2.027702	0.687004	-0.000081
1207	1.2000e+02	-8.0372	-20.702432	0.000345	3.447094	1.167907	-0.000138
1208	1.2010e+02	-8.0757	-20.855843	0.000385	3.852634	1.305308	-0.000154
1209	1.2020e+02	-8.1174	-20.916400	0.000152	1.520777	0.515253	-0.000061
1210	1.2030e+02	-8.1559	-21.033477	0.000294	2.940168	0.996156	-0.000118
1211	1.2039e+02	-8.2089	-21.211111	0.000446	4.460945	1.511409	-0.000179
1212	1.2049e+02	-8.2425	-21.340300	0.000324	3.244324	1.099207	-0.000130
1213	1.2059e+02	-8.2762	-21.441228	0.000253	2.534628	0.858755	-0.000101
1214	1.2069e+02	-8.3228	-21.517933	0.000193	1.926317	0.652654	-0.000077
1215	1.2079e+02	-8.3597	-21.659233	0.000355	3.548479	1.202257	-0.000142
1216	1.2089e+02	-8.3966	-21.796496	0.000345	3.447094	1.167907	-0.000138
1217	1.2099e+02	-8.4399	-21.877239	0.000203	2.027702	0.687004	-0.000081
1218	1.2109e+02	-8.4896	-22.018538	0.000355	3.548479	1.202257	-0.000142
1219	1.2119e+02	-8.5137	-22.147727	0.000324	3.244324	1.099207	-0.000130
1220	1.2129e+02	-8.5618	-22.268841	0.000304	3.041554	1.030506	-0.000122
1221	1.2139e+02	-8.5923	-22.373806	0.000264	2.636013	0.893105	-0.000105
1222	1.2149e+02	-8.6372	-22.519143	0.000365	3.649864	1.236607	-0.000146
1223	1.2159e+02	-8.6869	-22.595849	0.000193	1.926317	0.652654	-0.000077
1224	1.2169e+02	-8.7222	-22.741186	0.000365	3.649864	1.236607	-0.000146
1225	1.2179e+02	-8.7559	-22.862300	0.000304	3.041554	1.030506	-0.000122
1226	1.2189e+02	-8.7992	-22.975339	0.000284	2.838783	0.961806	-0.000114
1227	1.2199e+02	-8.8345	-23.112602	0.000345	3.447094	1.167907	-0.000138
1228	1.2209e+02	-8.8842	-23.221605	0.000274	2.737398	0.927456	-0.000110
1229	1.2219e+02	-8.9147	-23.346756	0.000314	3.142939	1.064856	-0.000126
1230	1.2229e+02	-8.9580	-23.500167	0.000385	3.852634	1.305308	-0.000154
1231	1.2239e+02	-8.9965	-23.568798	0.000172	1.723547	0.583954	-0.000069
1232	1.2248e+02	-9.0431	-23.693950	0.000314	3.142939	1.064856	-0.000126
1233	1.2258e+02	-9.0767	-23.794878	0.000253	2.534628	0.858755	-0.000101
1234	1.2268e+02	-9.1136	-23.948289	0.000385	3.852634	1.305308	-0.000154
1235	1.2278e+02	-9.1634	-24.041143	0.000233	2.331858	0.790055	-0.000093
1236	1.2288e+02	-9.1939	-24.146109	0.000264	2.636013	0.893105	-0.000105
1237	1.2298e+02	-9.2420	-24.287409	0.000355	3.548479	1.202257	-0.000142
1238	1.2308e+02	-9.2677	-24.404486	0.000294	2.940168	0.996156	-0.000118
1239	1.2318e+02	-9.3174	-24.505414	0.000253	2.534628	0.858755	-0.000101
1240	1.2328e+02	-9.3591	-24.679011	0.000436	4.359560	1.477059	-0.000174
1241	1.2338e+02	-9.3896	-24.735531	0.000142	1.419392	0.480903	-0.000057
1242	1.2348e+02	-9.4425	-24.880868	0.000365	3.649864	1.236607	-0.000146
1243	1.2358e+02	-9.4778	-25.014093	0.000335	3.345709	1.133557	-0.000134
1244	1.2368e+02	-9.5163	-25.127133	0.000284	2.838783	0.961806	-0.000114
1245	1.2378e+02	-9.5580	-25.268433	0.000355	3.548479	1.202257	-0.000142
1246	1.2388e+02	-9.5933	-25.333027	0.000162	1.622162	0.549603	-0.000065
1247	1.2398e+02	-9.6366	-25.470289	0.000345	3.447094	1.167907	-0.000138
1248	1.2408e+02	-9.6719	-25.599478	0.000324	3.244324	1.099207	-0.000130
1249	1.2418e+02	-9.7184	-25.716555	0.000294	2.940168	0.996156	-0.000118
1250	1.2428e+02	-9.7505	-25.837669	0.000304	3.041554	1.030506	-0.000122
1251	1.2438e+02	-9.7938	-25.934560	0.000243	2.433243	0.824405	-0.000097
1252	1.2447e+02	-9.8388	-26.031451	0.000243	2.433243	0.824405	-0.000097
1253	1.2457e+02	-9.8757	-26.168714	0.000345	3.447094	1.167907	-0.000138
1254	1.2467e+02	-9.9013	-26.310014	0.000355	3.548479	1.202257	-0.000142
1255	1.2477e+02	-9.9575	-26.419016	0.000274	2.737398	0.927456	-0.000110
1256	1.2487e+02	-9.9880	-26.556279	0.000345	3.447094	1.167907	-0.000138
1257	1.2497e+02	-10.0377	-26.641059	0.000213	2.129087	0.721354	-0.000085
1258	1.2507e+02	-10.0682	-26.770247	0.000324	3.244324	1.099207	-0.000130
1259	1.2517e+02	-10.1115	-26.855027	0.000213	2.129087	0.721354	-0.000085
1260	1.2527e+02	-10.1516	-26.988252	0.000335	3.345709	1.133557	-0.000134
1261	1.2537e+02	-10.1885	-27.105329	0.000294	2.940168	0.996156	-0.000118
1262	1.2547e+02	-10.2302	-27.234518	0.000324	3.244324	1.099207	-0.000130
1263	1.2557e+02	-10.2719	-27.315260	0.000203	2.027702	0.687004	-0.000081
1264	1.2567e+02	-10.3136	-27.460597	0.000365	3.649864	1.236607	-0.000146
1265	1.2577e+02	-10.3489	-27.581711	0.000304	3.041554	1.030506	-0.000122
1266	1.2587e+02	-10.3858	-27.678603	0.000243	2.433243	0.824405	-0.000097
1267	1.2597e+02	-10.4275	-27.823940	0.000365	3.649864	1.236607	-0.000146
1268	1.2607e+02	-10.4708	-27.892571	0.000172	1.723547	0.583954	-0.000069
1269	1.2617e+02	-10.5109	-28.017722	0.000314	3.142939	1.064856	-0.000126
1270	1.2627e+02	-10.5494	-28.126725	0.000274	2.737398	0.927456	-0.000110
1271	1.2636e+02	-10.5895	-28.223616	0.000243	2.433243	0.824405	-0.000097
1272	1.2646e+02	-10.6329	-28.344730	0.000304	3.041554	1.030506	-0.000122
1273	1.2656e+02	-10.6778	-28.526401	0.000456	4.562330	1.545759	-0.000183
1274	1.2666e+02	-10.7115	-28.590995	0.000162	1.622162	0.549603	-0.000065
1275	1.2676e+02	-10.7516	-28.748444	0.000395	3.954020	1.339658	-0.000158
1276	1.2686e+02	-10.7933	-28.837261	0.000223	2.230473	0.755705	-0.000089
1277	1.2696e+02	-10.8254	-28.958375	0.000304	3.041554	1.030506	-0.000122
1278	1.2706e+02	-10.8735	-29.075452	0.000294	2.940168	0.996156	-0.000118
1279	1.2716e+02	-10.9088	-29.200603	0.000314	3.142939	1.064856	-0.000126
1280	1.2726e+02	-10.9553	-29.337865	0.000345	3.447094	1.167907	-0.000138
1281	1.2736e+02	-11.0018	-29.402460	0.000162	1.622162	0.549603	-0.000065
1282	1.2746e+02	-11.0387	-29.592205	0.000477	4.765101	1.614460	-0.000191
1283	1.2756e+02	-11.0676	-29.660836	0.000172	1.723547	0.583954	-0.000069
1284	1.2766e+02	-11.1013	-29.769839	0.000274	2.737398	0.927456	-0.000110
1285	1.2776e+02	-11.1574	-29.894990	0.000314	3.142939	1.064856	-0.000126
1286	1.2786e+02	-11.1815	-30.003993	0.000274	2.737398	0.927456	-0.000110
1287	1.2796e+02	-11.2264	-30.137218	0.000335	3.345709	1.133557	-0.000134
1288	1.2806e+02	-11.2633	-30.254295	0.000294	2.940168	0.996156	-0.000118
1289	1.2816e+02	-11.3114	-30.355224	0.000253	2.534628	0.858755	-0.000101
1290	1.2826e+02	-11.3483	-30.480375	0.000314	3.142939	1.064856	-0.000126
1291	1.2835e+02	-11.3852	-30.573229	0.000233	2.331858	0.790055	-0.000093
1292	1.2845e+02	-11.4302	-30.710492	0.000345	3.447094	1.167907	-0.000138
1293	1.2855e+02	-11.4687	-30.827568	0.000294	2.940168	0.996156	-0.000118
1294	1.2865e+02	-11.4975	-30.940608	0.000284	2.838783	0.961806	-0.000114
1295	1.2875e+02	-11.5537	-30.997128	0.000142	1.419392	0.480903	-0.000057
1296	1.2885e+02	-11.5842	-31.158614	0.000406	4.055405	1.374008	-0.000162
1297	1.2895e+02	-11.6275	-31.291839	0.000335	3.345709	1.133557	-0.000134
1298	1.2905e+02	-11.6772	-31.372582	0.000203	2.027702	0.687004	-0.000081
1299	1.2915e+02	-11.7013	-31.489659	0.000294	2.940168	0.996156	-0.000118
1300	1.2925e+02	-11.7462	-31.562327	0.000182	1.824932	0.618304	-0.000073
1301	1.2935e+02	-11.7927	-31.703627	0.000355	3.548479	1.202257	-0.000142
1302	1.2945e+02	-11.8328	-31.828778	0.000314	3.142939	1.064856	-0.000126
1303	1.2955e+02	-11.8697	-31.929707	0.000253	2.534628	0.858755	-0.000101
1304	1.2965e+02	-11.9034	-32.087155	0.000395	3.954020	1.339658	-0.000158
1305	1.2975e+02	-11.9531	-32.196158	0.000274	2.737398	0.927456	-0.000110
1306	1.2985e+02	-11.9868	-32.256715	0.000152	1.520777	0.515253	-0.000061
1307	1.2995e+02	-12.0269	-32.365717	0.000274	2.737398	0.927456	-0.000110
1308	1.3005e+02	-12.0702	-32.474720	0.000274	2.737398	0.927456	-0.000110
1309	1.3015e+02	-12.1039	-32.607945	0.000335	3.345709	1.133557	-0.000134
1310	1.3025e+02	-12.1456	-32.725022	0.000294	2.940168	0.996156	-0.000118
1311	1.3034e+02	-12.1874	-32.838062	0.000284	2.838783	0.961806	-0.000114
1312	1.3044e+02	-12.2243	-32.922842	0.000213	2.129087	0.721354	-0.000085
1313	1.3054e+02	-12.2644	-33.035882	0.000284	2.838783	0.961806	-0.000114
1314	1.3064e+02	-12.3077	-33.177181	0.000355	3.548479	1.202257	-0.000142
1315	1.3074e+02	-12.3414	-33.286184	0.000274	2.737398	0.927456	-0.000110
1316	1.3084e+02	-12.3799	-33.379038	0.000233	2.331858	0.790055	-0.000093
1317	1.3094e+02	-12.4280	-33.516301	0.000345	3.447094	1.167907	-0.000138
1318	1.3104e+02	-12.4665	-33.609155	0.000233	2.331858	0.790055	-0.000093
1319	1.3114e+02	-12.5002	-33.718158	0.000274	2.737398	0.927456	-0.000110
1320	1.3124e+02	-12.5467	-33.839272	0.000304	3.041554	1.030506	-0.000122
1321	1.3134e+02	-12.5948	-33.932126	0.000233	2.331858	0.790055	-0.000093
1322	1.3144e+02	-12.6237	-34.069388	0.000345	3.447094	1.167907	-0.000138
1323	1.3154e+02	-12.6574	-34.166280	0.000243	2.433243	0.824405	-0.000097
1324	1.3164e+02	-12.7023	-34.271245	0.000264	2.636013	0.893105	-0.000105
1325	1.3174e+02	-12.7392	-34.396396	0.000314	3.142939	1.064856	-0.000126
1326	1.3184e+02	-12.7841	-34.485213	0.000223	2.230473	0.755705	-0.000089
1327	1.3194e+02	-12.8114	-34.602290	0.000294	2.940168	0.996156	-0.000118
1328	1.3204e+02	-12.8643	-34.727442	0.000314	3.142939	1.064856	-0.000126
1329	1.3214e+02	-12.8964	-34.812221	0.000213	2.129087	0.721354	-0.000085
1330	1.3224e+02	-12.9413	-34.949484	0.000345	3.447094	1.167907	-0.000138
1331	1.3234e+02	-12.9847	-35.086747	0.000345	3.447094	1.167907	-0.000138
1332	1.3243e+02	-13.0216	-35.175564	0.000223	2.230473	0.755705	-0.000089
1333	1.3253e+02	-13.0665	-35.272455	0.000243	2.433243	0.824405	-0.000097
1334	1.3263e+02	-13.1018	-35.393569	0.000304	3.041554	1.030506	-0.000122
1335	1.3273e+02	-13.1435	-35.490460	0.000243	2.433243	0.824405	-0.000097
1336	1.3283e+02	-13.1756	-35.615611	0.000314	3.142939	1.064856	-0.000126
1337	1.3293e+02	-13.2237	-35.724614	0.000274	2.737398	0.927456	-0.000110
1338	1.3303e+02	-13.2686	-35.857840	0.000335	3.345709	1.133557	-0.000134
1339	1.3313e+02	-13.3007	-35.922434	0.000162	1.622162	0.549603	-0.000065
1340	1.3323e+02	-13.3360	-36.083919	0.000406	4.055405	1.374008	-0.000162
1341	1.3333e+02	-13.3809	-36.176773	0.000233	2.331858	0.790055	-0.000093
1342	1.3343e+02	-13.4146	-36.297887	0.000304	3.041554	1.030506	-0.000122
1343	1.3353e+02	-13.4595	-36.406890	0.000274	2.737398	0.927456	-0.000110
1344	1.3363e+02	-13.4996	-36.507818	0.000253	2.534628	0.858755	-0.000101
1345	1.3373e+02	-13.5461	-36.657193	0.000375	3.751249	1.270958	-0.000150
1346	1.3383e+02	-13.5766	-36.762158	0.000264	2.636013	0.893105	-0.000105
1347	1.3393e+02	-13.6247	-36.867124	0.000264	2.636013	0.893105	-0.000105
1348	1.3403e+02	-13.6616	-36.984200	0.000294	2.940168	0.996156	-0.000118
1349	1.3413e+02	-13.6937	-37.056869	0.000182	1.824932	0.618304	-0.000073
1350	1.3423e+02	-13.7467	-37.173946	0.000294	2.940168	0.996156	-0.000118
1351	1.3432e+02	-13.7739	-37.295060	0.000304	3.041554	1.030506	-0.000122
1352	1.3442e+02	-13.8205	-37.416174	0.000304	3.041554	1.030506	-0.000122
1353	1.3452e+02	-13.8590	-37.521140	0.000264	2.636013	0.893105	-0.000105
1354	1.3462e+02	-13.8943	-37.622068	0.000253	2.534628	0.858755	-0.000101
1355	1.3472e+02	-13.9296	-37.739145	0.000294	2.940168	0.996156	-0.000118
1356	1.3482e+02	-13.9841	-37.920816	0.000456	4.562330	1.545759	-0.000183
1357	1.3492e+02	-14.0146	-37.965224	0.000112	1.115236	0.377852	-0.000045
1358	1.3502e+02	-14.0547	-38.094413	0.000324	3.244324	1.099207	-0.000130
1359	1.3512e+02	-14.0932	-38.179193	0.000213	2.129087	0.721354	-0.000085
1360	1.3522e+02	-14.1269	-38.300307	0.000304	3.041554	1.030506	-0.000122
1361	1.3532e+02	-14.1782	-38.364901	0.000162	1.622162	0.549603	-0.000065
1362	1.3542e+02	-14.2151	-38.538498	0.000436	4.359560	1.477059	-0.000174
1363	1.3552e+02	-14.2584	-38.631352	0.000233	2.331858	0.790055	-0.000093
1364	1.3562e+02	-14.2889	-38.744392	0.000284	2.838783	0.961806	-0.000114
1365	1.3572e+02	-14.3450	-38.841283	0.000243	2.433243	0.824405	-0.000097
1366	1.3582e+02	-14.3755	-38.970471	0.000324	3.244324	1.099207	-0.000130
1367	1.3592e+02	-14.4124	-39.099660	0.000324	3.244324	1.099207	-0.000130
1368	1.3602e+02	-14.4654	-39.188477	0.000223	2.230473	0.755705	-0.000089
1369	1.3612e+02	-14.4910	-39.277294	0.000223	2.230473	0.755705	-0.000089
1370	1.3622e+02	-14.5408	-39.370148	0.000233	2.331858	0.790055	-0.000093
1371	1.3631e+02	-14.5777	-39.487225	0.000294	2.940168	0.996156	-0.000118
1372	1.3641e+02	-14.6226	-39.624487	0.000345	3.447094	1.167907	-0.000138
1373	1.3651e+02	-14.6515	-39.717341	0.000233	2.331858	0.790055	-0.000093
1374	1.3661e+02	-14.6835	-39.830381	0.000284	2.838783	0.961806	-0.000114
1375	1.3671e+02	-14.7349	-39.927272	0.000243	2.433243	0.824405	-0.000097
1376	1.3681e+02	-14.7798	-40.052424	0.000314	3.142939	1.064856	-0.000126
1377	1.3691e+02	-14.8135	-40.157389	0.000264	2.636013	0.893105	-0.000105
1378	1.3701e+02	-14.8504	-40.290615	0.000335	3.345709	1.133557	-0.000134
1379	1.3711e+02	-14.8953	-40.407692	0.000294	2.940168	0.996156	-0.000118
1380	1.3721e+02	-14.9322	-40.524769	0.000294	2.940168	0.996156	-0.000118
1381	1.3731e+02	-14.9755	-40.613586	0.000223	2.230473	0.755705	-0.000089
1382	1.3741e+02	-15.0092	-40.718551	0.000264	2.636013	0.893105	-0.000105
1383	1.3751e+02	-15.0541	-40.835628	0.000294	2.940168	0.996156	-0.000118
1384	1.3761e+02	-15.0974	-40.940594	0.000264	2.636013	0.893105	-0.000105
1385	1.3771e+02	-15.1343	-41.049596	0.000274	2.737398	0.927456	-0.000110
1386	1.3781e+02	-15.1760	-41.194933	0.000365	3.649864	1.236607	-0.000146
1387	1.3791e+02	-15.2210	-41.295861	0.000253	2.534628	0.858755	-0.000101
1388	1.3801e+02	-15.2579	-41.392753	0.000243	2.433243	0.824405	-0.000097
1389	1.3811e+02	-15.2948	-41.534052	0.000355	3.548479	1.202257	-0.000142
1390	1.3821e+02	-15.3349	-41.626907	0.000233	2.331858	0.790055	-0.000093
1391	1.3831e+02	-15.3734	-41.735909	0.000274	2.737398	0.927456	-0.000110
1392	1.3840e+02	-15.4135	-41.844912	0.000274	2.737398	0.927456	-0.000110
1393	1.3850e+02	-15.4488	-41.974100	0.000324	3.244324	1.099207	-0.000130
1394	1.3860e+02	-15.4760	-42.083103	0.000274	2.737398	0.927456	-0.000110
1395	1.3870e+02	-15.5306	-42.179994	0.000243	2.433243	0.824405	-0.000097
1396	1.3880e+02	-15.5659	-42.309183	0.000324	3.244324	1.099207	-0.000130
1397	1.3890e+02	-15.6140	-42.414148	0.000264	2.636013	0.893105	-0.000105
1398	1.3900e+02	-15.6429	-42.502965	0.000223	2.230473	0.755705	-0.000089
1399	1.3910e+02	-15.6910	-42.660413	0.000395	3.954020	1.339658	-0.000158
1400	1.3920e+02	-15.7343	-42.777490	0.000294	2.940168	0.996156	-0.000118
1401	1.3930e+02	-15.7792	-42.878419	0.000253	2.534628	0.858755	-0.000101
1402	1.3940e+02	-15.8161	-42.999533	0.000304	3.041554	1.030506	-0.000122
1403	1.3950e+02	-15.8482	-43.092387	0.000233	2.331858	0.790055	-0.000093
1404	1.3960e+02	-15.8963	-43.209464	0.000294	2.940168	0.996156	-0.000118
1405	1.3970e+02	-15.9300	-43.318466	0.000274	2.737398	0.927456	-0.000110
1406	1.3980e+02	-15.9717	-43.391135	0.000182	1.824932	0.618304	-0.000073
1407	1.3990e+02	-16.0151	-43.580880	0.000477	4.765101	1.614460	-0.000191
1408	1.4000e+02	-16.0520	-43.669697	0.000223	2.230473	0.755705	-0.000089
1409	1.4010e+02	-16.0840	-43.758514	0.000223	2.230473	0.755705	-0.000089
1410	1.4020e+02	-16.1418	-43.859443	0.000253	2.534628	0.858755	-0.000101
1411	1.4029e+02	-16.1675	-43.980557	0.000304	3.041554	1.030506	-0.000122
1412	1.4039e+02	-16.2044	-44.117819	0.000345	3.447094	1.167907	-0.000138
1413	1.4049e+02	-16.2557	-44.214711	0.000243	2.433243	0.824405	-0.000097
1414	1.4059e+02	-16.2910	-44.287379	0.000182	1.824932	0.618304	-0.000073
1415	1.4069e+02	-16.3199	-44.408493	0.000304	3.041554	1.030506	-0.000122
1416	1.4079e+02	-16.3648	-44.549793	0.000355	3.548479	1.202257	-0.000142
1417	1.4089e+02	-16.4001	-44.634573	0.000213	2.129087	0.721354	-0.000085
1418	1.4099e+02	-16.4482	-44.759724	0.000314	3.142939	1.064856	-0.000126
1419	1.4109e+02	-16.4851	-44.848541	0.000223	2.230473	0.755705	-0.000089
1420	1.4119e+02	-16.5284	-44.949469	0.000253	2.534628	0.858755	-0.000101
1421	1.4129e+02	-16.5589	-45.090769	0.000355	3.548479	1.202257	-0.000142
1422	1.4139e+02	-16.6102	-45.179586	0.000223	2.230473	0.755705	-0.000089
1423	1.4149e+02	-16.6471	-45.300700	0.000304	3.041554	1.030506	-0.000122
1424	1.4159e+02	-16.6872	-45.409703	0.000274	2.737398	0.927456	-0.000110
1425	1.4169e+02	-16.7305	-45.494483	0.000213	2.129087	0.721354	-0.000085
1426	1.4179e+02	-16.7739	-45.603485	0.000274	2.737398	0.927456	-0.000110
1427	1.4189e+02	-16.8059	-45.712488	0.000274	2.737398	0.927456	-0.000110
1428	1.4199e+02	-16.8428	-45.869936	0.000395	3.954020	1.339658	-0.000158
1429	1.4209e+02	-16.8894	-45.946642	0.000193	1.926317	0.652654	-0.000077
1430	1.4219e+02	-16.9263	-46.031422	0.000213	2.129087	0.721354	-0.000085
1431	1.4228e+02	-16.9616	-46.172721	0.000355	3.548479	1.202257	-0.000142
1432	1.4238e+02	-17.0145	-46.285761	0.000284	2.838783	0.961806	-0.000114
1433	1.4248e+02	-17.0386	-46.382652	0.000243	2.433243	0.824405	-0.000097
1434	1.4258e+02	-17.0803	-46.459358	0.000193	1.926317	0.652654	-0.000077
1435	1.4268e+02	-17.1188	-46.568361	0.000274	2.737398	0.927456	-0.000110
1436	1.4278e+02	-17.1685	-46.713698	0.000365	3.649864	1.236607	-0.000146
1437	1.4288e+02	-17.2006	-46.842886	0.000324	3.244324	1.099207	-0.000130
1438	1.4298e+02	-17.2455	-46.927666	0.000213	2.129087	0.721354	-0.000085
1439	1.4308e+02	-17.2824	-47.052817	0.000314	3.142939	1.064856	-0.000126
1440	1.4318e+02	-17.3273	-47.161820	0.000274	2.737398	0.927456	-0.000110
1441	1.4328e+02	-17.3674	-47.266785	0.000264	2.636013	0.893105	-0.000105
1442	1.4338e+02	-17.4011	-47.363676	0.000243	2.433243	0.824405	-0.000097
1443	1.4348e+02	-17.4476	-47.504976	0.000355	3.548479	1.202257	-0.000142
1444	1.4358e+02	-17.4813	-47.581682	0.000193	1.926317	0.652654	-0.000077
1445	1.4368e+02	-17.5262	-47.710870	0.000324	3.244324	1.099207	-0.000130
1446	1.4378e+02	-17.5696	-47.827947	0.000294	2.940168	0.996156	-0.000118
1447	1.4388e+02	-17.6016	-47.932913	0.000264	2.636013	0.893105	-0.000105
1448	1.4398e+02	-17.6450	-48.033841	0.000253	2.534628	0.858755	-0.000101
1449	1.4408e+02	-17.6851	-48.171104	0.000345	3.447094	1.167907	-0.000138
1450	1.4418e+02	-17.7188	-48.235698	0.000162	1.622162	0.549603	-0.000065
1451	1.4428e+02	-17.7589	-48.368923	0.000335	3.345709	1.133557	-0.000134
1452	1.4437e+02	-17.8054	-48.494074	0.000314	3.142939	1.064856	-0.000126
1453	1.4447e+02	-17.8327	-48.631337	0.000345	3.447094	1.167907	-0.000138
1454	1.4457e+02	-17.8920	-48.720154	0.000223	2.230473	0.755705	-0.000089
1455	1.4467e+02	-17.9257	-48.837231	0.000294	2.940168	0.996156	-0.000118
1456	1.4477e+02	-17.9690	-48.942197	0.000264	2.636013	0.893105	-0.000105
1457	1.4487e+02	-18.0075	-49.026976	0.000213	2.129087	0.721354	-0.000085
1458	1.4497e+02	-18.0332	-49.160202	0.000335	3.345709	1.133557	-0.000134
1459	1.4507e+02	-18.0749	-49.265167	0.000264	2.636013	0.893105	-0.000105
1460	1.4517e+02	-18.1182	-49.374170	0.000274	2.737398	0.927456	-0.000110
1461	1.4527e+02	-18.1567	-49.475098	0.000253	2.534628	0.858755	-0.000101
1462	1.4537e+02	-18.2064	-49.580064	0.000264	2.636013	0.893105	-0.000105
1463	1.4547e+02	-18.2385	-49.733475	0.000385	3.852634	1.305308	-0.000154
1464	1.4557e+02	-18.2786	-49.818255	0.000213	2.129087	0.721354	-0.000085
1465	1.4567e+02	-18.3219	-49.894961	0.000193	1.926317	0.652654	-0.000077
1466	1.4577e+02	-18.3637	-50.100855	0.000517	5.170641	1.751861	-0.000207
1467	1.4587e+02	-18.4022	-50.125077	0.000061	0.608311	0.206101	-0.000024
1468	1.4597e+02	-18.4326	-50.266377	0.000355	3.548479	1.202257	-0.000142
1469	1.4607e+02	-18.4856	-50.339046	0.000182	1.824932	0.618304	-0.000073
1470	1.4617e+02	-18.5241	-50.480345	0.000355	3.548479	1.202257	-0.000142
1471	1.4626e+02	-18.5578	-50.617608	0.000345	3.447094	1.167907	-0.000138
1472	1.4636e+02	-18.5898	-50.682202	0.000162	1.622162	0.549603	-0.000065
1473	1.4646e+02	-18.6428	-50.819465	0.000345	3.447094	1.167907	-0.000138
1474	1.4656e+02	-18.6797	-50.920393	0.000253	2.534628	0.858755	-0.000101
1475	1.4666e+02	-18.7198	-51.037470	0.000294	2.940168	0.996156	-0.000118
1476	1.4676e+02	-18.7567	-51.130324	0.000233	2.331858	0.790055	-0.000093
1477	1.4686e+02	-18.8016	-51.267587	0.000345	3.447094	1.167907	-0.000138
1478	1.4696e+02	-18.8417	-51.380627	0.000284	2.838783	0.961806	-0.000114
1479	1.4706e+02	-18.8770	-51.473481	0.000233	2.331858	0.790055	-0.000093
1480	1.4716e+02	-18.9155	-51.622855	0.000375	3.751249	1.270958	-0.000150
1481	1.4726e+02	-18.9588	-51.671300	0.000122	1.216621	0.412202	-0.000049
1482	1.4736e+02	-18.9989	-51.840860	0.000426	4.258175	1.442709	-0.000170
1483	1.4746e+02	-19.0390	-51.978123	0.000345	3.447094	1.167907	-0.000138
1484	1.4756e+02	-19.0775	-52.050791	0.000182	1.824932	0.618304	-0.000073
1485	1.4766e+02	-19.1241	-52.167868	0.000294	2.940168	0.996156	-0.000118
1486	1.4776e+02	-19.1674	-52.325316	0.000395	3.954020	1.339658	-0.000158
1487	1.4786e+02	-19.1898	-52.393948	0.000172	1.723547	0.583954	-0.000069
1488	1.4796e+02	-19.2396	-52.555433	0.000406	4.055405	1.374008	-0.000162
1489	1.4806e+02	-19.2765	-52.664436	0.000274	2.737398	0.927456	-0.000110
1490	1.4816e+02	-19.3085	-52.749216	0.000213	2.129087	0.721354	-0.000085
1491	1.4825e+02	-19.3567	-52.914738	0.000416	4.156790	1.408359	-0.000166
1492	1.4835e+02	-19.3984	-53.027778	0.000284	2.838783	0.961806	-0.000114
1493	1.4845e+02	-19.4353	-53.140818	0.000284	2.838783	0.961806	-0.000114
1494	1.4855e+02	-19.4722	-53.257895	0.000294	2.940168	0.996156	-0.000118
1495	1.4865e+02	-19.5027	-53.358823	0.000253	2.534628	0.858755	-0.000101
1496	1.4875e+02	-19.5540	-53.467826	0.000274	2.737398	0.927456	-0.000110
1497	1.4885e+02	-19.5925	-53.613163	0.000365	3.649864	1.236607	-0.000146
1498	1.4895e+02	-19.6294	-53.722165	0.000274	2.737398	0.927456	-0.000110
1499	1.4905e+02	-19.6839	-53.851354	0.000324	3.244324	1.099207	-0.000130
1500	1.4915e+02	-19.7096	-53.988616	0.000345	3.447094	1.167907	-0.000138
1501	1.4925e+02	-19.7545	-54.101656	0.000284	2.838783	0.961806	-0.000114
1502	1.4935e+02	-19.8010	-54.242956	0.000355	3.548479	1.202257	-0.000142
1503	1.4945e+02	-19.8379	-54.364070	0.000304	3.041554	1.030506	-0.000122
1504	1.4955e+02	-19.8732	-54.501332	0.000345	3.447094	1.167907	-0.000138
1505	1.4965e+02	-19.9214	-54.622447	0.000304	3.041554	1.030506	-0.000122
1506	1.4975e+02	-19.9551	-54.751635	0.000324	3.244324	1.099207	-0.000130
1507	1.4985e+02	-19.9936	-54.880823	0.000324	3.244324	1.099207	-0.000130
1508	1.4995e+02	-19.9518	-54.820266	0.000152	1.520777	0.515253	0.000061
1509	1.5005e+02	-19.9149	-54.796043	0.000061	0.608311	0.206101	0.000024
1510	1.5015e+02	-19.8732	-54.699152	0.000243	2.433243	0.824405	0.000097
1511	1.5025e+02	-19.8379	-54.638595	0.000152	1.520777	0.515253	0.000061
1512	1.5034e+02	-19.7978	-54.618409	0.000051	0.506926	0.171751	0.000020
1513	1.5044e+02	-19.7561	-54.537667	0.000203	2.027702	0.687004	0.000081
1514	1.5054e+02	-19.7128	-54.477110	0.000152	1.520777	0.515253	0.000061
1515	1.5064e+02	-19.6791	-54.404441	0.000182	1.824932	0.618304	0.000073
1516	1.5074e+02	-19.6310	-54.380218	0.000061	0.608311	0.206101	0.000024
1517	1.5084e+02	-19.5973	-54.315624	0.000162	1.622162	0.549603	0.000065
1518	1.5094e+02	-19.5540	-54.174324	0.000355	3.548479	1.202257	0.000142
1519	1.5104e+02	-19.5219	-54.174324	0.000000	0.000000	0.000000	0.000000
1520	1.5114e+02	-19.4690	-54.129916	0.000112	1.115236	0.377852	0.000045
1521	1.5124e+02	-19.4401	-54.012839	0.000294	2.940168	0.996156	0.000118
1522	1.5134e+02	-19.3968	-53.924022	0.000223	2.230473	0.755705	0.000089
1523	1.5144e+02	-19.3567	-53.847316	0.000193	1.926317	0.652654	0.000077
1524	1.5154e+02	-19.3118	-53.774648	0.000182	1.824932	0.618304	0.000073
1525	1.5164e+02	-19.2700	-53.701980	0.000182	1.824932	0.618304	0.000073
1526	1.5174e+02	-19.2412	-53.605088	0.000243	2.433243	0.824405	0.000097
1527	1.5184e+02	-19.2011	-53.597014	0.000020	0.202770	0.068700	0.000008
1528	1.5194e+02	-19.1626	-53.488011	0.000274	2.737398	0.927456	0.000110
1529	1.5204e+02	-19.1209	-53.403232	0.000213	2.129087	0.721354	0.000085
1530	1.5214e+02	-19.0759	-53.334600	0.000172	1.723547	0.583954	0.000069
1531	1.5224e+02	-19.0406	-53.225598	0.000274	2.737398	0.927456	0.000110
1532	1.5233e+02	-18.9989	-53.161003	0.000162	1.622162	0.549603	0.000065
1533	1.5243e+02	-18.9540	-53.108521	0.000132	1.318007	0.446553	0.000053
1534	1.5253e+02	-18.9251	-52.995481	0.000284	2.838783	0.961806	0.000114
1535	1.5263e+02	-18.8802	-52.874367	0.000304	3.041554	1.030506	0.000122
1536	1.5273e+02	-18.8401	-52.805735	0.000172	1.723547	0.583954	0.000069
1537	1.5283e+02	-18.8000	-52.765364	0.000101	1.013851	0.343502	0.000041
1538	1.5293e+02	-18.7615	-52.676547	0.000223	2.230473	0.755705	0.000089
1539	1.5303e+02	-18.7134	-52.595804	0.000203	2.027702	0.687004	0.000081
1540	1.5313e+02	-18.6813	-52.458542	0.000345	3.447094	1.167907	0.000138
1541	1.5323e+02	-18.6332	-52.418170	0.000101	1.013851	0.343502	0.000041
1542	1.5333e+02	-18.6043	-52.337428	0.000203	2.027702	0.687004	0.000081
1543	1.5343e+02	-18.5562	-52.220351	0.000294	2.940168	0.996156	0.000118
1544	1.5353e+02	-18.5064	-52.196128	0.000061	0.608311	0.206101	0.000024
1545	1.5363e+02	-18.4824	-52.103274	0.000233	2.331858	0.790055	0.000093
1546	1.5373e+02	-18.4374	-52.006383	0.000243	2.433243	0.824405	0.000097
1547	1.5383e+02	-18.4038	-51.925640	0.000203	2.027702	0.687004	0.000081
1548	1.5393e+02	-18.3701	-51.877194	0.000122	1.216621	0.412202	0.000049
1549	1.5403e+02	-18.3187	-51.756080	0.000304	3.041554	1.030506	0.000122
1550	1.5413e+02	-18.2754	-51.695523	0.000152	1.520777	0.515253	0.000061
1551	1.5422e+02	-18.2498	-51.622855	0.000182	1.824932	0.618304	0.000073
1552	1.5432e+02	-18.1968	-51.542112	0.000203	2.027702	0.687004	0.000081
1553	1.5442e+02	-18.1711	-51.433109	0.000274	2.737398	0.927456	0.000110
1554	1.5452e+02	-18.1182	-51.368515	0.000162	1.622162	0.549603	0.000065
1555	1.5462e+02	-18.0845	-51.243364	0.000314	3.142939	1.064856	0.000126
1556	1.5472e+02	-18.0396	-51.146473	0.000243	2.433243	0.824405	0.000097
1557	1.5482e+02	-18.0075	-51.118213	0.000071	0.709696	0.240451	0.000028
1558	1.5492e+02	-17.9530	-51.013247	0.000264	2.636013	0.893105	0.000105
1559	1.5502e+02	-17.9161	-50.912319	0.000253	2.534628	0.858755	0.000101
1560	1.5512e+02	-17.8760	-50.855799	0.000142	1.419392	0.480903	0.000057
1561	1.5522e+02	-17.8391	-50.791205	0.000162	1.622162	0.549603	0.000065
1562	1.5532e+02	-17.7893	-50.698351	0.000233	2.331858	0.790055	0.000093
1563	1.5542e+02	-17.7540	-50.605496	0.000233	2.331858	0.790055	0.000093
1564	1.5552e+02	-17.7236	-50.480345	0.000314	3.142939	1.064856	0.000126
1565	1.5562e+02	-17.6770	-50.423825	0.000142	1.419392	0.480903	0.000057
1566	1.5572e+02	-17.6369	-50.326934	0.000243	2.433243	0.824405	0.000097
1567	1.5582e+02	-17.6113	-50.246191	0.000203	2.027702	0.687004	0.000081
1568	1.5592e+02	-17.5728	-50.177560	0.000172	1.723547	0.583954	0.000069
1569	1.5602e+02	-17.5198	-50.064520	0.000284	2.838783	0.961806	0.000114
1570	1.5612e+02	-17.4717	-50.016075	0.000122	1.216621	0.412202	0.000049
1571	1.5622e+02	-17.4428	-49.882849	0.000335	3.345709	1.133557	0.000134
1572	1.5631e+02	-17.4091	-49.830366	0.000132	1.318007	0.446553	0.000053
1573	1.5641e+02	-17.3594	-49.733475	0.000243	2.433243	0.824405	0.000097
1574	1.5651e+02	-17.3273	-49.620435	0.000284	2.838783	0.961806	0.000114
1575	1.5661e+02	-17.2856	-49.531618	0.000223	2.230473	0.755705	0.000089
1576	1.5671e+02	-17.2439	-49.462987	0.000172	1.723547	0.583954	0.000069
1577	1.5681e+02	-17.1974	-49.366096	0.000243	2.433243	0.824405	0.000097
1578	1.5691e+02	-17.1637	-49.273242	0.000233	2.331858	0.790055	0.000093
1579	1.5701e+02	-17.1236	-49.172313	0.000253	2.534628	0.858755	0.000101
1580	1.5711e+02	-17.0867	-49.107719	0.000162	1.622162	0.549603	0.000065
1581	1.5721e+02	-17.0434	-48.986605	0.000304	3.041554	1.030506	0.000122
1582	1.5731e+02	-16.9968	-48.889714	0.000243	2.433243	0.824405	0.000097
1583	1.5741e+02	-16.9696	-48.796860	0.000233	2.331858	0.790055	0.000093
1584	1.5751e+02	-16.9327	-48.708043	0.000223	2.230473	0.755705	0.000089
1585	1.5761e+02	-16.8910	-48.619226	0.000223	2.230473	0.755705	0.000089
1586	1.5771e+02	-16.8509	-48.538483	0.000203	2.027702	0.687004	0.000081
1587	1.5781e+02	-16.8092	-48.437555	0.000253	2.534628	0.858755	0.000101
1588	1.5791e+02	-16.7674	-48.320478	0.000294	2.940168	0.996156	0.000118
1589	1.5801e+02	-16.7321	-48.239735	0.000203	2.027702	0.687004	0.000081
1590	1.5811e+02	-16.6808	-48.187252	0.000132	1.318007	0.446553	0.000053
1591	1.5821e+02	-16.6535	-48.090361	0.000243	2.433243	0.824405	0.000097
1592	1.5830e+02	-16.6006	-48.029804	0.000152	1.520777	0.515253	0.000061
1593	1.5840e+02	-16.5669	-47.916764	0.000284	2.838783	0.961806	0.000114
1594	1.5850e+02	-16.5284	-47.811799	0.000264	2.636013	0.893105	0.000105
1595	1.5860e+02	-16.4915	-47.694722	0.000294	2.940168	0.996156	0.000118
1596	1.5870e+02	-16.4482	-47.630127	0.000162	1.622162	0.549603	0.000065
1597	1.5880e+02	-16.4033	-47.569570	0.000152	1.520777	0.515253	0.000061
1598	1.5890e+02	-16.3680	-47.428271	0.000355	3.548479	1.202257	0.000142
1599	1.5900e+02	-16.3359	-47.327342	0.000253	2.534628	0.858755	0.000101
1600	1.5910e+02	-16.2846	-47.254674	0.000182	1.824932	0.618304	0.000073
1601	1.5920e+02	-16.2413	-47.149708	0.000264	2.636013	0.893105	0.000105
1602	1.5930e+02	-16.2060	-47.060891	0.000223	2.230473	0.755705	0.000089
1603	1.5940e+02	-16.1675	-46.939777	0.000304	3.041554	1.030506	0.000122
1604	1.5950e+02	-16.1274	-46.850960	0.000223	2.230473	0.755705	0.000089
1605	1.5960e+02	-16.0921	-46.774255	0.000193	1.926317	0.652654	0.000077
1606	1.5970e+02	-16.0503	-46.657178	0.000294	2.940168	0.996156	0.000118
1607	1.5980e+02	-16.0102	-46.604695	0.000132	1.318007	0.446553	0.000053
1608	1.5990e+02	-15.9685	-46.503767	0.000253	2.534628	0.858755	0.000101
1609	1.6000e+02	-15.9348	-46.431098	0.000182	1.824932	0.618304	0.000073
1610	1.6010e+02	-15.8851	-46.289798	0.000355	3.548479	1.202257	0.000142
1611	1.6019e+02	-15.8578	-46.209056	0.000203	2.027702	0.687004	0.000081
1612	1.6029e+02	-15.8161	-46.144461	0.000162	1.622162	0.549603	0.000065
1613	1.6039e+02	-15.7776	-46.019310	0.000314	3.142939	1.064856	0.000126
1614	1.6049e+02	-15.7295	-45.962790	0.000142	1.419392	0.480903	0.000057
1615	1.6059e+02	-15.6942	-45.853788	0.000274	2.737398	0.927456	0.000110
1616	1.6069e+02	-15.6573	-45.736711	0.000294	2.940168	0.996156	0.000118
1617	1.6079e+02	-15.6092	-45.680191	0.000142	1.419392	0.480903	0.000057
1618	1.6089e+02	-15.5691	-45.591374	0.000223	2.230473	0.755705	0.000089
1619	1.6099e+02	-15.5338	-45.482371	0.000274	2.737398	0.927456	0.000110
1620	1.6109e+02	-15.5001	-45.373369	0.000274	2.737398	0.927456	0.000110
1621	1.6119e+02	-15.4552	-45.312812	0.000152	1.520777	0.515253	0.000061
1622	1.6129e+02	-15.4151	-45.203809	0.000274	2.737398	0.927456	0.000110
1623	1.6139e+02	-15.3702	-45.143252	0.000152	1.520777	0.515253	0.000061
1624	1.6149e+02	-15.3365	-44.997915	0.000365	3.649864	1.236607	0.000146
1625	1.6159e+02	-15.2915	-44.909098	0.000223	2.230473	0.755705	0.000089
1626	1.6169e+02	-15.2466	-44.812207	0.000243	2.433243	0.824405	0.000097
1627	1.6179e+02	-15.2097	-44.723390	0.000223	2.230473	0.755705	0.000089
1628	1.6189e+02	-15.1696	-44.594201	0.000324	3.244324	1.099207	0.000130
1629	1.6199e+02	-15.1327	-44.509422	0.000213	2.129087	0.721354	0.000085
1630	1.6209e+02	-15.0942	-44.388307	0.000304	3.041554	1.030506	0.000122
1631	1.6219e+02	-15.0509	-44.287379	0.000253	2.534628	0.858755	0.000101
1632	1.6228e+02	-15.0092	-44.226822	0.000152	1.520777	0.515253	0.000061
1633	1.6238e+02	-14.9691	-44.089559	0.000345	3.447094	1.167907	0.000138
1634	1.6248e+02	-14.9354	-43.976520	0.000284	2.838783	0.961806	0.000114
1635	1.6258e+02	-14.8937	-43.920000	0.000142	1.419392	0.480903	0.000057
1636	1.6268e+02	-14.8504	-43.823108	0.000243	2.433243	0.824405	0.000097
1637	1.6278e+02	-14.8151	-43.706031	0.000294	2.940168	0.996156	0.000118
1638	1.6288e+02	-14.7734	-43.621252	0.000213	2.129087	0.721354	0.000085
1639	1.6298e+02	-14.7317	-43.520323	0.000253	2.534628	0.858755	0.000101
1640	1.6308e+02	-14.7044	-43.399209	0.000304	3.041554	1.030506	0.000122
1641	1.6318e+02	-14.6466	-43.286169	0.000284	2.838783	0.961806	0.000114
1642	1.6328e+02	-14.6130	-43.205427	0.000203	2.027702	0.687004	0.000081
1643	1.6338e+02	-14.5696	-43.112573	0.000233	2.331858	0.790055	0.000093
1644	1.6348e+02	-14.5376	-42.991458	0.000304	3.041554	1.030506	0.000122
1645	1.6358e+02	-14.4958	-42.914753	0.000193	1.926317	0.652654	0.000077
1646	1.6368e+02	-14.4445	-42.825936	0.000223	2.230473	0.755705	0.000089
1647	1.6378e+02	-14.4092	-42.720970	0.000264	2.636013	0.893105	0.000105
1648	1.6388e+02	-14.3803	-42.640228	0.000203	2.027702	0.687004	0.000081
1649	1.6398e+02	-14.3386	-42.511039	0.000324	3.244324	1.099207	0.000130
1650	1.6408e+02	-14.2921	-42.426259	0.000213	2.129087	0.721354	0.000085
1651	1.6418e+02	-14.2584	-42.317257	0.000274	2.737398	0.927456	0.000110
1652	1.6427e+02	-14.2135	-42.204217	0.000284	2.838783	0.961806	0.000114
1653	1.6437e+02	-14.1782	-42.119437	0.000213	2.129087	0.721354	0.000085
1654	1.6447e+02	-14.1317	-42.038694	0.000203	2.027702	0.687004	0.000081
1655	1.6457e+02	-14.0948	-41.929692	0.000274	2.737398	0.927456	0.000110
1656	1.6467e+02	-14.0579	-41.808578	0.000304	3.041554	1.030506	0.000122
1657	1.6477e+02	-14.0162	-41.695538	0.000284	2.838783	0.961806	0.000114
1658	1.6487e+02	-13.9921	-41.606721	0.000223	2.230473	0.755705	0.000089
1659	1.6497e+02	-13.9344	-41.534052	0.000182	1.824932	0.618304	0.000073
1660	1.6507e+02	-13.8943	-41.408901	0.000314	3.142939	1.064856	0.000126
1661	1.6517e+02	-13.8702	-41.312010	0.000243	2.433243	0.824405	0.000097
1662	1.6527e+02	-13.8076	-41.207044	0.000264	2.636013	0.893105	0.000105
1663	1.6537e+02	-13.7884	-41.130339	0.000193	1.926317	0.652654	0.000077
1664	1.6547e+02	-13.7386	-41.017299	0.000284	2.838783	0.961806	0.000114
1665	1.6557e+02	-13.7050	-40.932519	0.000213	2.129087	0.721354	0.000085
1666	1.6567e+02	-13.6568	-40.791219	0.000355	3.548479	1.202257	0.000142
1667	1.6577e+02	-13.6215	-40.746811	0.000112	1.115236	0.377852	0.000045
1668	1.6587e+02	-13.5718	-40.625697	0.000304	3.041554	1.030506	0.000122
1669	1.6597e+02	-13.5397	-40.548991	0.000193	1.926317	0.652654	0.000077
1670	1.6607e+02	-13.4980	-40.419803	0.000324	3.244324	1.099207	0.000130
1671	1.6616e+02	-13.4499	-40.322912	0.000243	2.433243	0.824405	0.000097
1672	1.6626e+02	-13.4194	-40.213909	0.000274	2.737398	0.927456	0.000110
1673	1.6636e+02	-13.3809	-40.096832	0.000294	2.940168	0.996156	0.000118
1674	1.6646e+02	-13.3376	-40.040312	0.000142	1.419392	0.480903	0.000057
1675	1.6656e+02	-13.2943	-39.911124	0.000324	3.244324	1.099207	0.000130
1676	1.6666e+02	-13.2622	-39.826344	0.000213	2.129087	0.721354	0.000085
1677	1.6676e+02	-13.2221	-39.672933	0.000385	3.852634	1.305308	0.000154
1678	1.6686e+02	-13.1756	-39.616413	0.000142	1.419392	0.480903	0.000057
1679	1.6696e+02	-13.1371	-39.539707	0.000193	1.926317	0.652654	0.000077
1680	1.6706e+02	-13.0921	-39.418593	0.000304	3.041554	1.030506	0.000122
1681	1.6716e+02	-13.0585	-39.321702	0.000243	2.433243	0.824405	0.000097
1682	1.6726e+02	-13.0248	-39.184439	0.000345	3.447094	1.167907	0.000138
1683	1.6736e+02	-12.9782	-39.087548	0.000243	2.433243	0.824405	0.000097
1684	1.6746e+02	-12.9558	-38.990657	0.000243	2.433243	0.824405	0.000097
1685	1.6756e+02	-12.9061	-38.913951	0.000193	1.926317	0.652654	0.000077
1686	1.6766e+02	-12.8676	-38.825134	0.000223	2.230473	0.755705	0.000089
1687	1.6776e+02	-12.8178	-38.704020	0.000304	3.041554	1.030506	0.000122
1688	1.6786e+02	-12.7873	-38.574832	0.000324	3.244324	1.099207	0.000130
1689	1.6796e+02	-12.7488	-38.461792	0.000284	2.838783	0.961806	0.000114
1690	1.6806e+02	-12.7007	-38.393161	0.000172	1.723547	0.583954	0.000069
1691	1.6816e+02	-12.6718	-38.284158	0.000274	2.737398	0.927456	0.000110
1692	1.6825e+02	-12.6285	-38.175156	0.000274	2.737398	0.927456	0.000110
1693	1.6835e+02	-12.5900	-38.037893	0.000345	3.447094	1.167907	0.000138
1694	1.6845e+02	-12.5451	-37.949076	0.000223	2.230473	0.755705	0.000089
1695	1.6855e+02	-12.5082	-37.880445	0.000172	1.723547	0.583954	0.000069
1696	1.6865e+02	-12.4633	-37.731071	0.000375	3.751249	1.270958	0.000150
1697	1.6875e+02	-12.4248	-37.626105	0.000264	2.636013	0.893105	0.000105
1698	1.6885e+02	-12.3895	-37.545362	0.000203	2.027702	0.687004	0.000081
1699	1.6895e+02	-12.3462	-37.472694	0.000182	1.824932	0.618304	0.000073
1700	1.6905e+02	-12.2964	-37.351580	0.000304	3.041554	1.030506	0.000122
1701	1.6915e+02	-12.2612	-37.250651	0.000253	2.534628	0.858755	0.000101
1702	1.6925e+02	-12.2210	-37.077055	0.000436	4.359560	1.477059	0.000174
1703	1.6935e+02	-12.1793	-37.016498	0.000152	1.520777	0.515253	0.000061
1704	1.6945e+02	-12.1392	-36.935755	0.000203	2.027702	0.687004	0.000081
1705	1.6955e+02	-12.1055	-36.826752	0.000274	2.737398	0.927456	0.000110
1706	1.6965e+02	-12.0654	-36.713712	0.000284	2.838783	0.961806	0.000114
1707	1.6975e+02	-12.0317	-36.600673	0.000284	2.838783	0.961806	0.000114
1708	1.6985e+02	-11.9804	-36.479559	0.000304	3.041554	1.030506	0.000122
1709	1.6995e+02	-11.9515	-36.378630	0.000253	2.534628	0.858755	0.000101
1710	1.7005e+02	-11.9066	-36.322110	0.000142	1.419392	0.480903	0.000057
1711	1.7015e+02	-11.8633	-36.213108	0.000274	2.737398	0.927456	0.000110
1712	1.7024e+02	-11.8264	-36.075845	0.000345	3.447094	1.167907	0.000138
1713	1.7034e+02	-11.7831	-35.954731	0.000304	3.041554	1.030506	0.000122
1714	1.7044e+02	-11.7430	-35.882062	0.000182	1.824932	0.618304	0.000073
1715	1.7054e+02	-11.7077	-35.813431	0.000172	1.723547	0.583954	0.000069
1716	1.7064e+02	-11.6644	-35.692317	0.000304	3.041554	1.030506	0.000122
1717	1.7074e+02	-11.6243	-35.587352	0.000264	2.636013	0.893105	0.000105
1718	1.7084e+02	-11.5874	-35.462200	0.000314	3.142939	1.064856	0.000126
1719	1.7094e+02	-11.5553	-35.365309	0.000243	2.433243	0.824405	0.000097
1720	1.7104e+02	-11.5040	-35.296678	0.000172	1.723547	0.583954	0.000069
1721	1.7114e+02	-11.4703	-35.151341	0.000365	3.649864	1.236607	0.000146
1722	1.7124e+02	-11.4334	-35.102895	0.000122	1.216621	0.412202	0.000049
1723	1.7134e+02	-11.3884	-34.981781	0.000304	3.041554	1.030506	0.000122
1724	1.7144e+02	-11.3548	-34.880853	0.000253	2.534628	0.858755	0.000101
1725	1.7154e+02	-11.3147	-34.775887	0.000264	2.636013	0.893105	0.000105
1726	1.7164e+02	-11.2633	-34.670922	0.000264	2.636013	0.893105	0.000105
1727	1.7174e+02	-11.2344	-34.561919	0.000274	2.737398	0.927456	0.000110
1728	1.7184e+02	-11.1959	-34.489251	0.000182	1.824932	0.618304	0.000073
1729	1.7194e+02	-11.1526	-34.339877	0.000375	3.751249	1.270958	0.000150
1730	1.7204e+02	-11.1061	-34.255097	0.000213	2.129087	0.721354	0.000085
1731	1.7213e+02	-11.0548	-34.121871	0.000335	3.345709	1.133557	0.000134
1732	1.7223e+02	-11.0275	-34.073426	0.000122	1.216621	0.412202	0.000049
1733	1.7233e+02	-10.9874	-33.920014	0.000385	3.852634	1.305308	0.000154
1734	1.7243e+02	-10.9521	-33.827160	0.000233	2.331858	0.790055	0.000093
1735	1.7253e+02	-10.9040	-33.710083	0.000294	2.940168	0.996156	0.000118
1736	1.7263e+02	-10.8607	-33.641452	0.000172	1.723547	0.583954	0.000069
1737	1.7273e+02	-10.8286	-33.512264	0.000324	3.244324	1.099207	0.000130
1738	1.7283e+02	-10.8013	-33.362890	0.000375	3.751249	1.270958	0.000150
1739	1.7293e+02	-10.7500	-33.326556	0.000091	0.912466	0.309152	0.000037
1740	1.7303e+02	-10.7131	-33.209479	0.000294	2.940168	0.996156	0.000118
1741	1.7313e+02	-10.6649	-33.052030	0.000395	3.954020	1.339658	0.000158
1742	1.7323e+02	-10.6345	-33.011659	0.000101	1.013851	0.343502	0.000041
1743	1.7333e+02	-10.5895	-32.926879	0.000213	2.129087	0.721354	0.000085
1744	1.7343e+02	-10.5575	-32.769431	0.000395	3.954020	1.339658	0.000158
1745	1.7353e+02	-10.5029	-32.676577	0.000233	2.331858	0.790055	0.000093
1746	1.7363e+02	-10.4660	-32.531240	0.000365	3.649864	1.236607	0.000146
1747	1.7373e+02	-10.4355	-32.446460	0.000213	2.129087	0.721354	0.000085
1748	1.7383e+02	-10.3906	-32.353606	0.000233	2.331858	0.790055	0.000093
1749	1.7393e+02	-10.3489	-32.224417	0.000324	3.244324	1.099207	0.000130
1750	1.7403e+02	-10.3104	-32.123489	0.000253	2.534628	0.858755	0.000101
1751	1.7413e+02	-10.2623	-32.034672	0.000223	2.230473	0.755705	0.000089
1752	1.7422e+02	-10.2270	-31.949892	0.000213	2.129087	0.721354	0.000085
1753	1.7432e+02	-10.1853	-31.796481	0.000385	3.852634	1.305308	0.000154
1754	1.7442e+02	-10.1532	-31.719775	0.000193	1.926317	0.652654	0.000077
1755	1.7452e+02	-10.1051	-31.626921	0.000233	2.331858	0.790055	0.000093
1756	1.7462e+02	-10.0730	-31.501770	0.000314	3.142939	1.064856	0.000126
1757	1.7472e+02	-10.0377	-31.376619	0.000314	3.142939	1.064856	0.000126
1758	1.7482e+02	-9.9960	-31.251468	0.000314	3.142939	1.064856	0.000126
1759	1.7492e+02	-9.9478	-31.211096	0.000101	1.013851	0.343502	0.000041
1760	1.7502e+02	-9.9142	-31.029425	0.000456	4.562330	1.545759	0.000183
1761	1.7512e+02	-9.8741	-30.952720	0.000193	1.926317	0.652654	0.000077
1762	1.7522e+02	-9.8339	-30.867940	0.000213	2.129087	0.721354	0.000085
1763	1.7532e+02	-9.7954	-30.754900	0.000284	2.838783	0.961806	0.000114
1764	1.7542e+02	-9.7569	-30.621675	0.000335	3.345709	1.133557	0.000134
1765	1.7552e+02	-9.7104	-30.516709	0.000264	2.636013	0.893105	0.000105
1766	1.7562e+02	-9.6671	-30.407706	0.000274	2.737398	0.927456	0.000110
1767	1.7572e+02	-9.6398	-30.322927	0.000213	2.129087	0.721354	0.000085
1768	1.7582e+02	-9.5965	-30.197775	0.000314	3.142939	1.064856	0.000126
1769	1.7592e+02	-9.5532	-30.076661	0.000304	3.041554	1.030506	0.000122
1770	1.7602e+02	-9.5179	-29.999956	0.000193	1.926317	0.652654	0.000077
1771	1.7612e+02	-9.4714	-29.899027	0.000253	2.534628	0.858755	0.000101
1772	1.7621e+02	-9.4425	-29.814247	0.000213	2.129087	0.721354	0.000085
1773	1.7631e+02	-9.4056	-29.652762	0.000406	4.055405	1.374008	0.000162
1774	1.7641e+02	-9.3575	-29.547796	0.000264	2.636013	0.893105	0.000105
1775	1.7651e+02	-9.3094	-29.434757	0.000284	2.838783	0.961806	0.000114
1776	1.7661e+02	-9.2821	-29.345940	0.000223	2.230473	0.755705	0.000089
1777	1.7671e+02	-9.2340	-29.220788	0.000314	3.142939	1.064856	0.000126
1778	1.7681e+02	-9.1939	-29.099674	0.000304	3.041554	1.030506	0.000122
1779	1.7691e+02	-9.1586	-29.051229	0.000122	1.216621	0.412202	0.000049
1780	1.7701e+02	-9.1201	-28.922040	0.000324	3.244324	1.099207	0.000130
1781	1.7711e+02	-9.0784	-28.796889	0.000314	3.142939	1.064856	0.000126
1782	1.7721e+02	-9.0447	-28.695961	0.000253	2.534628	0.858755	0.000101
1783	1.7731e+02	-9.0014	-28.582921	0.000284	2.838783	0.961806	0.000114
1784	1.7741e+02	-8.9596	-28.486030	0.000243	2.433243	0.824405	0.000097
1785	1.7751e+02	-8.9211	-28.364916	0.000304	3.041554	1.030506	0.000122
1786	1.7761e+02	-8.8842	-28.243802	0.000304	3.041554	1.030506	0.000122
1787	1.7771e+02	-8.8361	-28.187282	0.000142	1.419392	0.480903	0.000057
1788	1.7781e+02	-8.7960	-28.037908	0.000375	3.751249	1.270958	0.000150
1789	1.7791e+02	-8.7639	-27.936979	0.000253	2.534628	0.858755	0.000101
1790	1.7801e+02	-8.7238	-27.856237	0.000203	2.027702	0.687004	0.000081
1791	1.7810e+02	-8.6837	-27.723011	0.000335	3.345709	1.133557	0.000134
1792	1.7820e+02	-8.6388	-27.642268	0.000203	2.027702	0.687004	0.000081
1793	1.7830e+02	-8.5971	-27.525191	0.000294	2.940168	0.996156	0.000118
1794	1.7840e+02	-8.5586	-27.359669	0.000416	4.156790	1.408359	0.000166
1795	1.7850e+02	-8.5169	-27.258741	0.000253	2.534628	0.858755	0.000101
1796	1.7860e+02	-8.4864	-27.153775	0.000264	2.636013	0.893105	0.000105
1797	1.7870e+02	-8.4383	-27.020549	0.000335	3.345709	1.133557	0.000134
1798	1.7880e+02	-8.4062	-26.907510	0.000284	2.838783	0.961806	0.000114
1799	1.7890e+02	-8.3581	-26.806581	0.000253	2.534628	0.858755	0.000101
1800	1.7900e+02	-8.3244	-26.705653	0.000253	2.534628	0.858755	0.000101
1801	1.7910e+02	-8.2827	-26.580502	0.000314	3.142939	1.064856	0.000126
1802	1.7920e+02	-8.2425	-26.507833	0.000182	1.824932	0.618304	0.000073
1803	1.7930e+02	-8.2008	-26.338274	0.000426	4.258175	1.442709	0.000170
1804	1.7940e+02	-8.1655	-26.261568	0.000193	1.926317	0.652654	0.000077
1805	1.7950e+02	-8.1142	-26.160640	0.000253	2.534628	0.858755	0.000101
1806	1.7960e+02	-8.0821	-25.995117	0.000416	4.156790	1.408359	0.000166
1807	1.7970e+02	-8.0500	-25.898226	0.000243	2.433243	0.824405	0.000097
1808	1.7980e+02	-7.9987	-25.797297	0.000253	2.534628	0.858755	0.000101
1809	1.7990e+02	-7.9698	-25.672146	0.000314	3.142939	1.064856	0.000126
1810	1.8000e+02	-7.9233	-25.571218	0.000253	2.534628	0.858755	0.000101
1811	1.8009e+02	-7.8896	-25.462215	0.000274	2.737398	0.927456	0.000110
1812	1.8019e+02	-7.8431	-25.333027	0.000324	3.244324	1.099207	0.000130
1813	1.8029e+02	-7.8046	-25.236135	0.000243	2.433243	0.824405	0.000097
1814	1.8039e+02	-7.7597	-25.131170	0.000264	2.636013	0.893105	0.000105
1815	1.8049e+02	-7.7244	-25.014093	0.000294	2.940168	0.996156	0.000118
1816	1.8059e+02	-7.6827	-24.892979	0.000304	3.041554	1.030506	0.000122
1817	1.8069e+02	-7.6458	-24.775902	0.000294	2.940168	0.996156	0.000118
1818	1.8079e+02	-7.6025	-24.674974	0.000253	2.534628	0.858755	0.000101
1819	1.8089e+02	-7.5559	-24.565971	0.000274	2.737398	0.927456	0.000110
1820	1.8099e+02	-7.5255	-24.456968	0.000274	2.737398	0.927456	0.000110
1821	1.8109e+02	-7.4773	-24.339891	0.000294	2.940168	0.996156	0.000118
1822	1.8119e+02	-7.4436	-24.214740	0.000314	3.142939	1.064856	0.000126
1823	1.8129e+02	-7.4003	-24.109775	0.000264	2.636013	0.893105	0.000105
1824	1.8139e+02	-7.3634	-23.992698	0.000294	2.940168	0.996156	0.000118
1825	1.8149e+02	-7.3362	-23.940215	0.000132	1.318007	0.446553	0.000053
1826	1.8159e+02	-7.2928	-23.782767	0.000395	3.954020	1.339658	0.000158
1827	1.8169e+02	-7.2367	-23.661653	0.000304	3.041554	1.030506	0.000122
1828	1.8179e+02	-7.1982	-23.540538	0.000304	3.041554	1.030506	0.000122
1829	1.8189e+02	-7.1581	-23.415387	0.000314	3.142939	1.064856	0.000126
1830	1.8199e+02	-7.1260	-23.306385	0.000274	2.737398	0.927456	0.000110
1831	1.8209e+02	-7.0859	-23.205456	0.000253	2.534628	0.858755	0.000101
1832	1.8218e+02	-7.0442	-23.076268	0.000324	3.244324	1.099207	0.000130
1833	1.8228e+02	-7.0105	-22.967265	0.000274	2.737398	0.927456	0.000110
1834	1.8238e+02	-6.9672	-22.862300	0.000264	2.636013	0.893105	0.000105
1835	1.8248e+02	-6.9255	-22.749260	0.000284	2.838783	0.961806	0.000114
1836	1.8258e+02	-6.8918	-22.636220	0.000284	2.838783	0.961806	0.000114
1837	1.8268e+02	-6.8485	-22.523180	0.000284	2.838783	0.961806	0.000114
1838	1.8278e+02	-6.8100	-22.422252	0.000253	2.534628	0.858755	0.000101
1839	1.8288e+02	-6.7683	-22.284989	0.000345	3.447094	1.167907	0.000138
1840	1.8298e+02	-6.7249	-22.159838	0.000314	3.142939	1.064856	0.000126
1841	1.8308e+02	-6.6864	-22.050835	0.000274	2.737398	0.927456	0.000110
1842	1.8318e+02	-6.6479	-21.937796	0.000284	2.838783	0.961806	0.000114
1843	1.8328e+02	-6.6014	-21.848979	0.000223	2.230473	0.755705	0.000089
1844	1.8338e+02	-6.5774	-21.731902	0.000294	2.940168	0.996156	0.000118
1845	1.8348e+02	-6.5228	-21.578491	0.000385	3.852634	1.305308	0.000154
1846	1.8358e+02	-6.4827	-21.485636	0.000233	2.331858	0.790055	0.000093
1847	1.8368e+02	-6.4426	-21.408931	0.000193	1.926317	0.652654	0.000077
1848	1.8378e+02	-6.4121	-21.223223	0.000466	4.663715	1.580110	0.000187
1849	1.8388e+02	-6.3656	-21.150554	0.000182	1.824932	0.618304	0.000073
1850	1.8398e+02	-6.3303	-21.033477	0.000294	2.940168	0.996156	0.000118
1851	1.8407e+02	-6.2870	-20.900252	0.000335	3.345709	1.133557	0.000134
1852	1.8417e+02	-6.2549	-20.839695	0.000152	1.520777	0.515253	0.000061
1853	1.8427e+02	-6.2164	-20.678209	0.000406	4.055405	1.374008	0.000162
1854	1.8437e+02	-6.1699	-20.573244	0.000264	2.636013	0.893105	0.000105
1855	1.8447e+02	-6.1266	-20.472315	0.000253	2.534628	0.858755	0.000101
1856	1.8457e+02	-6.0913	-20.347164	0.000314	3.142939	1.064856	0.000126
1857	1.8467e+02	-6.0528	-20.230087	0.000294	2.940168	0.996156	0.000118
1858	1.8477e+02	-6.0014	-20.141270	0.000223	2.230473	0.755705	0.000089
1859	1.8487e+02	-5.9774	-20.012082	0.000324	3.244324	1.099207	0.000130
1860	1.8497e+02	-5.9357	-19.862708	0.000375	3.751249	1.270958	0.000150
1861	1.8507e+02	-5.8859	-19.749668	0.000284	2.838783	0.961806	0.000114
1862	1.8517e+02	-5.8554	-19.677000	0.000182	1.824932	0.618304	0.000073
1863	1.8527e+02	-5.8089	-19.551848	0.000314	3.142939	1.064856	0.000126
1864	1.8537e+02	-5.7752	-19.398437	0.000385	3.852634	1.305308	0.000154
1865	1.8547e+02	-5.7351	-19.313657	0.000213	2.129087	0.721354	0.000085
1866	1.8557e+02	-5.6966	-19.144098	0.000426	4.258175	1.442709	0.000170
1867	1.8567e+02	-5.6485	-19.059318	0.000213	2.129087	0.721354	0.000085
1868	1.8577e+02	-5.6180	-18.974538	0.000213	2.129087	0.721354	0.000085
1869	1.8587e+02	-5.5731	-18.809015	0.000416	4.156790	1.408359	0.000166
1870	1.8597e+02	-5.5266	-18.712124	0.000243	2.433243	0.824405	0.000097
1871	1.8606e+02	-5.4945	-18.591010	0.000304	3.041554	1.030506	0.000122
1872	1.8616e+02	-5.4576	-18.482007	0.000274	2.737398	0.927456	0.000110
1873	1.8626e+02	-5.4111	-18.348782	0.000335	3.345709	1.133557	0.000134
1874	1.8636e+02	-5.3678	-18.243816	0.000264	2.636013	0.893105	0.000105
1875	1.8646e+02	-5.3309	-18.082331	0.000406	4.055405	1.374008	0.000162
1876	1.8656e+02	-5.2972	-17.997551	0.000213	2.129087	0.721354	0.000085
1877	1.8666e+02	-5.2507	-17.888548	0.000274	2.737398	0.927456	0.000110
1878	1.8676e+02	-5.2202	-17.767434	0.000304	3.041554	1.030506	0.000122
1879	1.8686e+02	-5.1785	-17.642283	0.000314	3.142939	1.064856	0.000126
1880	1.8696e+02	-5.1303	-17.561540	0.000203	2.027702	0.687004	0.000081
1881	1.8706e+02	-5.0934	-17.460612	0.000253	2.534628	0.858755	0.000101
1882	1.8716e+02	-5.0549	-17.339498	0.000304	3.041554	1.030506	0.000122
1883	1.8726e+02	-5.0116	-17.214347	0.000314	3.142939	1.064856	0.000126
1884	1.8736e+02	-4.9747	-17.093233	0.000304	3.041554	1.030506	0.000122
1885	1.8746e+02	-4.9378	-16.947896	0.000365	3.649864	1.236607	0.000146
1886	1.8756e+02	-4.8993	-16.855042	0.000233	2.331858	0.790055	0.000093
1887	1.8766e+02	-4.8560	-16.786410	0.000172	1.723547	0.583954	0.000069
1888	1.8776e+02	-4.8159	-16.620888	0.000416	4.156790	1.408359	0.000166
1889	1.8786e+02	-4.7726	-16.552257	0.000172	1.723547	0.583954	0.000069
1890	1.8796e+02	-4.7389	-16.398845	0.000385	3.852634	1.305308	0.000154
1891	1.8806e+02	-4.6988	-16.322140	0.000193	1.926317	0.652654	0.000077
1892	1.8815e+02	-4.6555	-16.213137	0.000274	2.737398	0.927456	0.000110
1893	1.8825e+02	-4.6186	-16.059726	0.000385	3.852634	1.305308	0.000154
1894	1.8835e+02	-4.5737	-15.974946	0.000213	2.129087	0.721354	0.000085
1895	1.8845e+02	-4.5384	-15.813461	0.000406	4.055405	1.374008	0.000162
1896	1.8855e+02	-4.4919	-15.712532	0.000253	2.534628	0.858755	0.000101
1897	1.8865e+02	-4.4678	-15.599492	0.000284	2.838783	0.961806	0.000114
1898	1.8875e+02	-4.4148	-15.494527	0.000264	2.636013	0.893105	0.000105
1899	1.8885e+02	-4.3747	-15.361301	0.000335	3.345709	1.133557	0.000134
1900	1.8895e+02	-4.3443	-15.248262	0.000284	2.838783	0.961806	0.000114
1901	1.8905e+02	-4.2961	-15.147333	0.000253	2.534628	0.858755	0.000101
1902	1.8915e+02	-4.2657	-15.046405	0.000253	2.534628	0.858755	0.000101
1903	1.8925e+02	-4.2159	-14.909142	0.000345	3.447094	1.167907	0.000138
1904	1.8935e+02	-4.1694	-14.796102	0.000284	2.838783	0.961806	0.000114
1905	1.8945e+02	-4.1373	-14.699211	0.000243	2.433243	0.824405	0.000097
1906	1.8955e+02	-4.0988	-14.574060	0.000314	3.142939	1.064856	0.000126
1907	1.8965e+02	-4.0523	-14.452946	0.000304	3.041554	1.030506	0.000122
1908	1.8975e+02	-4.0250	-14.311646	0.000355	3.548479	1.202257	0.000142
1909	1.8985e+02	-3.9865	-14.210718	0.000253	2.534628	0.858755	0.000101
1910	1.8995e+02	-3.9320	-14.081529	0.000324	3.244324	1.099207	0.000130
1911	1.9004e+02	-3.8967	-13.996750	0.000213	2.129087	0.721354	0.000085
1912	1.9014e+02	-3.8582	-13.851413	0.000365	3.649864	1.236607	0.000146
1913	1.9024e+02	-3.8213	-13.718187	0.000335	3.345709	1.133557	0.000134
1914	1.9034e+02	-3.7732	-13.649556	0.000172	1.723547	0.583954	0.000069
1915	1.9044e+02	-3.7427	-13.512293	0.000345	3.447094	1.167907	0.000138
1916	1.9054e+02	-3.7010	-13.370994	0.000355	3.548479	1.202257	0.000142
1917	1.9064e+02	-3.6657	-13.241805	0.000324	3.244324	1.099207	0.000130
1918	1.9074e+02	-3.6240	-13.132803	0.000274	2.737398	0.927456	0.000110
1919	1.9084e+02	-3.5823	-13.003614	0.000324	3.244324	1.099207	0.000130
1920	1.9094e+02	-3.5454	-12.890574	0.000284	2.838783	0.961806	0.000114
1921	1.9104e+02	-3.4972	-12.781572	0.000274	2.737398	0.927456	0.000110
1922	1.9114e+02	-3.4571	-12.620086	0.000406	4.055405	1.374008	0.000162
1923	1.9124e+02	-3.4250	-12.551455	0.000172	1.723547	0.583954	0.000069
1924	1.9134e+02	-3.3849	-12.394007	0.000395	3.954020	1.339658	0.000158
1925	1.9144e+02	-3.3448	-12.325375	0.000172	1.723547	0.583954	0.000069
1926	1.9154e+02	-3.3111	-12.167927	0.000395	3.954020	1.339658	0.000158
1927	1.9164e+02	-3.2646	-12.075073	0.000233	2.331858	0.790055	0.000093
1928	1.9174e+02	-3.2165	-11.978182	0.000243	2.433243	0.824405	0.000097
1929	1.9184e+02	-3.1876	-11.792473	0.000466	4.663715	1.580110	0.000187
1930	1.9194e+02	-3.1395	-11.744028	0.000122	1.216621	0.412202	0.000049
1931	1.9203e+02	-3.1138	-11.610802	0.000335	3.345709	1.133557	0.000134
1932	1.9213e+02	-3.0673	-11.449317	0.000406	4.055405	1.374008	0.000162
1933	1.9223e+02	-3.0208	-11.336277	0.000284	2.838783	0.961806	0.000114
1934	1.9233e+02	-2.9839	-11.211126	0.000314	3.142939	1.064856	0.000126
1935	1.9243e+02	-2.9454	-11.118272	0.000233	2.331858	0.790055	0.000093
1936	1.9253e+02	-2.9037	-10.985046	0.000335	3.345709	1.133557	0.000134
1937	1.9263e+02	-2.8700	-10.888155	0.000243	2.433243	0.824405	0.000097
1938	1.9273e+02	-2.8347	-10.754930	0.000335	3.345709	1.133557	0.000134
1939	1.9283e+02	-2.7833	-10.637853	0.000294	2.940168	0.996156	0.000118
1940	1.9293e+02	-2.7416	-10.520776	0.000294	2.940168	0.996156	0.000118
1941	1.9303e+02	-2.7063	-10.379476	0.000355	3.548479	1.202257	0.000142
1942	1.9313e+02	-2.6582	-10.274510	0.000264	2.636013	0.893105	0.000105
1943	1.9323e+02	-2.6165	-10.161471	0.000284	2.838783	0.961806	0.000114
1944	1.9333e+02	-2.5764	-10.072654	0.000223	2.230473	0.755705	0.000089
1945	1.9343e+02	-2.5523	-9.903094	0.000426	4.258175	1.442709	0.000170
1946	1.9353e+02	-2.5106	-9.826388	0.000193	1.926317	0.652654	0.000077
1947	1.9363e+02	-2.4657	-9.685089	0.000355	3.548479	1.202257	0.000142
1948	1.9373e+02	-2.4192	-9.580123	0.000264	2.636013	0.893105	0.000105
1949	1.9383e+02	-2.3951	-9.442860	0.000345	3.447094	1.167907	0.000138
1950	1.9393e+02	-2.3374	-9.333858	0.000274	2.737398	0.927456	0.000110
1951	1.9403e+02	-2.3085	-9.192558	0.000355	3.548479	1.202257	0.000142
1952	1.9412e+02	-2.2716	-9.083555	0.000274	2.737398	0.927456	0.000110
1953	1.9422e+02	-2.2299	-8.974553	0.000274	2.737398	0.927456	0.000110
1954	1.9432e+02	-2.1898	-8.885736	0.000223	2.230473	0.755705	0.000089
1955	1.9442e+02	-2.1449	-8.691953	0.000487	4.866486	1.648810	0.000195
1956	1.9452e+02	-2.1096	-8.578913	0.000284	2.838783	0.961806	0.000114
1957	1.9462e+02	-2.0711	-8.506245	0.000182	1.824932	0.618304	0.000073
1958	1.9472e+02	-2.0278	-8.364945	0.000355	3.548479	1.202257	0.000142
1959	1.9482e+02	-1.9892	-8.219608	0.000365	3.649864	1.236607	0.000146
1960	1.9492e+02	-1.9507	-8.110606	0.000274	2.737398	0.927456	0.000110
1961	1.9502e+02	-1.8978	-8.005640	0.000264	2.636013	0.893105	0.000105
1962	1.9512e+02	-1.8689	-7.896638	0.000274	2.737398	0.927456	0.000110
1963	1.9522e+02	-1.8320	-7.723041	0.000436	4.359560	1.477059	0.000174
1964	1.9532e+02	-1.7903	-7.642298	0.000203	2.027702	0.687004	0.000081
1965	1.9542e+02	-1.7486	-7.513110	0.000324	3.244324	1.099207	0.000130
1966	1.9552e+02	-1.7117	-7.371810	0.000355	3.548479	1.202257	0.000142
1967	1.9562e+02	-1.6684	-7.270881	0.000253	2.534628	0.858755	0.000101
1968	1.9572e+02	-1.6379	-7.133619	0.000345	3.447094	1.167907	0.000138
1969	1.9582e+02	-1.5882	-6.992319	0.000355	3.548479	1.202257	0.000142
1970	1.9592e+02	-1.5497	-6.895428	0.000243	2.433243	0.824405	0.000097
1971	1.9601e+02	-1.5048	-6.758165	0.000345	3.447094	1.167907	0.000138
1972	1.9611e+02	-1.4679	-6.649163	0.000274	2.737398	0.927456	0.000110
1973	1.9621e+02	-1.4358	-6.548234	0.000253	2.534628	0.858755	0.000101
1974	1.9631e+02	-1.3893	-6.410972	0.000345	3.447094	1.167907	0.000138
1975	1.9641e+02	-1.3524	-6.245449	0.000416	4.156790	1.408359	0.000166
1976	1.9651e+02	-1.3139	-6.152595	0.000233	2.331858	0.790055	0.000093
1977	1.9661e+02	-1.2818	-6.019369	0.000335	3.345709	1.133557	0.000134
1978	1.9671e+02	-1.2321	-5.898255	0.000304	3.041554	1.030506	0.000122
1979	1.9681e+02	-1.1919	-5.744844	0.000385	3.852634	1.305308	0.000154
1980	1.9691e+02	-1.1534	-5.615656	0.000324	3.244324	1.099207	0.000130
1981	1.9701e+02	-1.1133	-5.498579	0.000294	2.940168	0.996156	0.000118
1982	1.9711e+02	-1.0748	-5.385539	0.000284	2.838783	0.961806	0.000114
1983	1.9721e+02	-1.0283	-5.240202	0.000365	3.649864	1.236607	0.000146
1984	1.9731e+02	-0.9834	-5.151385	0.000223	2.230473	0.755705	0.000089
1985	1.9741e+02	-0.9674	-4.989900	0.000406	4.055405	1.374008	0.000162
1986	1.9751e+02	-0.9112	-4.888971	0.000253	2.534628	0.858755	0.000101
1987	1.9761e+02	-0.8727	-4.759783	0.000324	3.244324	1.099207	0.000130
1988	1.9771e+02	-0.8406	-4.662892	0.000243	2.433243	0.824405	0.000097
1989	1.9781e+02	-0.7877	-4.533703	0.000324	3.244324	1.099207	0.000130
1990	1.9791e+02	-0.7524	-4.408552	0.000314	3.142939	1.064856	0.000126
1991	1.9800e+02	-0.7139	-4.283401	0.000314	3.142939	1.064856	0.000126
1992	1.9810e+02	-0.6738	-4.170361	0.000284	2.838783	0.961806	0.000114
1993	1.9820e+02	-0.6321	-4.065396	0.000264	2.636013	0.893105	0.000105
1994	1.9830e+02	-0.5871	-3.903910	0.000406	4.055405	1.374008	0.000162
1995	1.9840e+02	-0.5615	-3.758573	0.000365	3.649864	1.236607	0.000146
1996	1.9850e+02	-0.5166	-3.718202	0.000101	1.013851	0.343502	0.000041
1997	1.9860e+02	-0.4749	-3.524419	0.000487	4.866486	1.648810	0.000195
1998	1.9870e+02	-0.4331	-3.427528	0.000243	2.433243	0.824405	0.000097
1999	1.9880e+02	-0.3866	-3.274117	0.000385	3.852634	1.305308	0.000154
2000	1.9890e+02	-0.3545	-3.128780	0.000365	3.649864	1.236607	0.000146
2001	1.9900e+02	-0.3112	-3.019778	0.000274	2.737398	0.927456	0.000110
2002	1.9910e+02	-0.2775	-2.939035	0.000203	2.027702	0.687004	0.000081
2003	1.9920e+02	-0.2326	-2.793698	0.000365	3.649864	1.236607	0.000146
2004	1.9930e+02	-0.1925	-2.656435	0.000345	3.447094	1.167907	0.000138
2005	1.9940e+02	-0.1556	-2.547433	0.000274	2.737398	0.927456	0.000110
2006	1.9950e+02	-0.1187	-2.422281	0.000314	3.142939	1.064856	0.000126
2007	1.9960e+02	-0.0722	-2.268870	0.000385	3.852634	1.305308	0.000154
2008	1.9970e+02	-0.0433	-2.180053	0.000223	2.230473	0.755705	0.000089
2009	1.9980e+02	0.0080	-2.050865	0.000223	2.230473	0.755705	0.000130

PMax (uC/cm2):	6.71e+01
Pr (uC/cm2):	1.62e+01
-Pr (uC/cm2):	1.02e+01
PLoss (uC/cm2):	1.03e+01
Vc:	-3.33e+00
-Vc:	-5.22e+00
C (Max-Eff) (nF):	3.36e-01
K (Eff):	1.14e+03
Vert. (+/-Pr) Shift (uC/cm2):	1.32e+01
Horiz. Shift (+/-Vc):	-4.27e+00
Offset (uC/cm2):	1.23e+01

A (Loop Area - uC/cm2·Volts):	-6.16e-01



Hysteresis Version: 5.48.1 - Radiant Technologies, Inc., 1999 - 9/12/24

