»»»»»»»»»»»»»»»»»»»»»»»»»»»»»»»»»»»» Hysteresis ««««««««««««««««««««««««««««««««««««
»»»  Executed Version:	5.48.1
»»»  Vision Version:	5.48.4 (R)
»»»  Vision Compiled:	9/18/24
»»»  Driver Version:	5.47.0
»»»  Windows Version:	Windows 8 or 8.1
»»»  Processor Information:	x86 (AMD or Intel) - 32 Processors
»»»  Tester Name:	PMF21124-494 (100V)
»»»  Tester S/N:	PMF21124-494
»»»  Internal Amp Type:	100V RevK 270k
»»»  Internal Amp S/N:	iAB2-596/K     
»»»  Execution Count:	1
»»»»»»»»»»»»»»»»»»»»»»»»»»»»»»»»»»»»»»»»»»««««««««««««««««««««««««««««««««««««««««««

Stored:	6/19/2025 - 15:2:49
Configured:	06/19/25 10:04:32 AM
Executed:	06/19/25 03:02:15 PM

»»»»»»»»»»»»»»»»»»»»»»»»»»»»»»»»»»» Sample Info ««««««««««««««««««««««««««««««««««««
Sample Name:	
Lot Name:	
Wafer Name:	
Die Row/Column:	0/0
Capacitor Number:	0
Sample Area (cm2):	1.00e-04
Sample Thickness (microns):	3.00e-01

Amplifier:	Internal

»»»»»»»»»»»»»»»»»»»»»»»»»»»»»»»»»»» Tester Info «««««««««««««««««««««««««««««««««««
Tester Name:	PMF21124-494 (100V)
Tester Serial Number:	PMF21124-494
Return Signal Amp. Level:	0.19 [Index: 3]

»»»»»»»»»»»»»»»»»»»»»»»»»»»»»»»» Hysteresis Info ««««««««««««««««««««««««««««««««««
Task Name:	Hyst-1168
Volts:	20.00
Field:	666.67 (kV/cm)
DCBias:	0.00
DCField:	0.00 (kV/cm)
Hysteresis Period (ms):	2.00e+02
Preset:	Enabled
Preset Delay (ms):	1.00e+03
Profile:	Standard Bipolar

»»»»»»»»»»»»»»»»»»»»»»»»»»»»»»»»»»»»»» Data «««««««««««««««««««««««««««««««««««««««
Points:	2009

Valid Data

Point	Time (ms)	Drive Voltage	Measured Polarization (uC/cm2)	Capacitance (uF)	Normalized Capacitance (uF/cm2)	Dielectric Constant	Instantaneous Current (mA)
   1	0.0000e+00	0.0048	-17.941031	0.000193	1.925583	0.652405	0.000077
   2	9.9500e-02	0.0385	-17.864326	0.000193	1.925583	0.652405	0.000077
   3	1.9900e-01	0.0754	-17.694766	0.000426	4.256552	1.442159	0.000170
   4	2.9850e-01	0.1139	-17.585763	0.000274	2.736355	0.927102	0.000110
   5	3.9800e-01	0.1636	-17.488872	0.000243	2.432316	0.824091	0.000097
   6	4.9750e-01	0.2005	-17.375832	0.000284	2.837702	0.961439	0.000114
   7	5.9700e-01	0.2438	-17.270867	0.000264	2.635009	0.892765	0.000105
   8	6.9650e-01	0.2791	-17.137641	0.000334	3.344434	1.133125	0.000134
   9	7.9600e-01	0.3208	-17.085158	0.000132	1.317504	0.446383	0.000053
  10	8.9550e-01	0.3545	-16.960007	0.000314	3.141741	1.064451	0.000126
  11	9.9500e-01	0.3850	-16.830819	0.000324	3.243087	1.098788	0.000130
  12	1.0945e+00	0.4380	-16.729890	0.000253	2.533662	0.858428	0.000101
  13	1.1940e+00	0.4829	-16.632999	0.000243	2.432316	0.824091	0.000097
  14	1.2935e+00	0.5134	-16.552257	0.000203	2.026930	0.686742	0.000081
  15	1.3930e+00	0.5519	-16.427105	0.000314	3.141741	1.064451	0.000126
  16	1.4925e+00	0.5936	-16.301954	0.000314	3.141741	1.064451	0.000126
  17	1.5920e+00	0.6321	-16.196989	0.000264	2.635009	0.892765	0.000105
  18	1.6915e+00	0.6722	-16.067800	0.000324	3.243087	1.098788	0.000130
  19	1.7910e+00	0.7123	-15.946686	0.000304	3.040395	1.030114	0.000122
  20	1.8905e+00	0.7524	-15.841721	0.000264	2.635009	0.892765	0.000105
  21	1.9900e+00	0.7941	-15.716569	0.000314	3.141741	1.064451	0.000126
  22	2.0895e+00	0.8342	-15.591418	0.000314	3.141741	1.064451	0.000126
  23	2.1890e+00	0.8663	-15.442044	0.000375	3.749820	1.270473	0.000150
  24	2.2885e+00	0.9144	-15.324967	0.000294	2.939048	0.995776	0.000118
  25	2.3880e+00	0.9593	-15.232113	0.000233	2.330969	0.789754	0.000093
  26	2.4875e+00	1.0059	-15.115036	0.000294	2.939048	0.995776	0.000118
  27	2.5870e+00	1.0299	-15.050442	0.000162	1.621544	0.549394	0.000065
  28	2.6865e+00	1.0780	-14.884919	0.000416	4.155206	1.407822	0.000166
  29	2.7860e+00	1.1101	-14.783991	0.000253	2.533662	0.858428	0.000101
  30	2.8855e+00	1.1550	-14.662877	0.000304	3.040395	1.030114	0.000122
  31	2.9850e+00	1.1968	-14.557911	0.000264	2.635009	0.892765	0.000105
  32	3.0845e+00	1.2385	-14.452946	0.000264	2.635009	0.892765	0.000105
  33	3.1840e+00	1.2786	-14.299535	0.000385	3.851166	1.304810	0.000154
  34	3.2835e+00	1.3074	-14.170346	0.000324	3.243087	1.098788	0.000130
  35	3.3830e+00	1.3604	-14.085567	0.000213	2.128276	0.721079	0.000085
  36	3.4825e+00	1.3941	-13.936193	0.000375	3.749820	1.270473	0.000150
  37	3.5820e+00	1.4262	-13.871598	0.000162	1.621544	0.549394	0.000065
  38	3.6815e+00	1.4711	-13.714150	0.000395	3.952513	1.339148	0.000158
  39	3.7810e+00	1.5176	-13.568813	0.000365	3.648473	1.236136	0.000146
  40	3.8805e+00	1.5465	-13.439625	0.000324	3.243087	1.098788	0.000130
  41	3.9800e+00	1.5930	-13.366956	0.000182	1.824237	0.618068	0.000073
  42	4.0795e+00	1.6267	-13.181248	0.000466	4.661938	1.579507	0.000187
  43	4.1790e+00	1.6796	-13.056097	0.000314	3.141741	1.064451	0.000126
  44	4.2785e+00	1.7053	-12.951131	0.000264	2.635009	0.892765	0.000105
  45	4.3780e+00	1.7502	-12.902686	0.000122	1.216158	0.412045	0.000049
  46	4.4775e+00	1.7839	-12.773497	0.000324	3.243087	1.098788	0.000130
  47	4.5770e+00	1.8272	-12.672569	0.000253	2.533662	0.858428	0.000101
  48	4.6765e+00	1.8721	-12.507047	0.000416	4.155206	1.407822	0.000166
  49	4.7760e+00	1.9090	-12.466675	0.000101	1.013465	0.343371	0.000041
  50	4.8755e+00	1.9572	-12.272893	0.000486	4.864631	1.648182	0.000195
  51	4.9750e+00	1.9876	-12.163890	0.000274	2.736355	0.927102	0.000110
  52	5.0745e+00	2.0358	-12.071036	0.000233	2.330969	0.789754	0.000093
  53	5.1740e+00	2.0679	-11.941848	0.000324	3.243087	1.098788	0.000130
  54	5.2735e+00	2.1112	-11.800548	0.000355	3.547127	1.201799	0.000142
  55	5.3730e+00	2.1529	-11.739991	0.000152	1.520197	0.515057	0.000061
  56	5.4725e+00	2.1834	-11.570431	0.000426	4.256552	1.442159	0.000170
  57	5.5720e+00	2.2299	-11.412983	0.000395	3.952513	1.339148	0.000158
  58	5.6715e+00	2.2732	-11.312054	0.000253	2.533662	0.858428	0.000101
  59	5.7710e+00	2.3053	-11.207089	0.000264	2.635009	0.892765	0.000105
  60	5.8705e+00	2.3454	-11.090012	0.000294	2.939048	0.995776	0.000118
  61	5.9700e+00	2.3871	-10.932564	0.000395	3.952513	1.339148	0.000158
  62	6.0695e+00	2.4272	-10.803375	0.000324	3.243087	1.098788	0.000130
  63	6.1690e+00	2.4753	-10.706484	0.000243	2.432316	0.824091	0.000097
  64	6.2685e+00	2.5170	-10.629778	0.000193	1.925583	0.652405	0.000077
  65	6.3680e+00	2.5379	-10.512701	0.000294	2.939048	0.995776	0.000118
  66	6.4675e+00	2.5908	-10.363327	0.000375	3.749820	1.270473	0.000150
  67	6.5670e+00	2.6309	-10.286622	0.000193	1.925583	0.652405	0.000077
  68	6.6665e+00	2.6646	-10.121099	0.000416	4.155206	1.407822	0.000166
  69	6.7660e+00	2.7095	-10.032282	0.000223	2.229623	0.755417	0.000089
  70	6.8655e+00	2.7497	-9.919243	0.000284	2.837702	0.961439	0.000114
  71	6.9650e+00	2.7833	-9.781980	0.000345	3.445780	1.167462	0.000138
  72	7.0645e+00	2.8299	-9.660866	0.000304	3.040395	1.030114	0.000122
  73	7.1640e+00	2.8716	-9.568012	0.000233	2.330969	0.789754	0.000093
  74	7.2635e+00	2.9085	-9.426712	0.000355	3.547127	1.201799	0.000142
  75	7.3630e+00	2.9422	-9.301561	0.000314	3.141741	1.064451	0.000126
  76	7.4625e+00	2.9887	-9.176410	0.000314	3.141741	1.064451	0.000126
  77	7.5620e+00	3.0176	-9.051258	0.000314	3.141741	1.064451	0.000126
  78	7.6615e+00	3.0657	-8.913996	0.000345	3.445780	1.167462	0.000138
  79	7.7610e+00	3.1010	-8.776733	0.000345	3.445780	1.167462	0.000138
  80	7.8605e+00	3.1539	-8.623322	0.000385	3.851166	1.304810	0.000154
  81	7.9600e+00	3.1908	-8.538542	0.000213	2.128276	0.721079	0.000085
  82	8.0595e+00	3.2325	-8.393205	0.000365	3.648473	1.236136	0.000146
  83	8.1590e+00	3.2678	-8.324574	0.000172	1.722890	0.583731	0.000069
  84	8.2585e+00	3.3031	-8.223645	0.000253	2.533662	0.858428	0.000101
  85	8.3580e+00	3.3432	-8.114643	0.000274	2.736355	0.927102	0.000110
  86	8.4575e+00	3.3897	-7.949120	0.000416	4.155206	1.407822	0.000166
  87	8.5570e+00	3.4186	-7.848192	0.000253	2.533662	0.858428	0.000101
  88	8.6565e+00	3.4603	-7.735152	0.000284	2.837702	0.961439	0.000114
  89	8.7560e+00	3.4988	-7.597889	0.000345	3.445780	1.167462	0.000138
  90	8.8555e+00	3.5373	-7.513110	0.000213	2.128276	0.721079	0.000085
  91	8.9550e+00	3.5855	-7.359698	0.000385	3.851166	1.304810	0.000154
  92	9.0545e+00	3.6272	-7.258770	0.000253	2.533662	0.858428	0.000101
  93	9.1540e+00	3.6641	-7.129582	0.000324	3.243087	1.098788	0.000130
  94	9.2535e+00	3.7026	-7.008468	0.000304	3.040395	1.030114	0.000122
  95	9.3530e+00	3.7427	-6.859094	0.000375	3.749820	1.270473	0.000150
  96	9.4525e+00	3.7796	-6.729905	0.000324	3.243087	1.098788	0.000130
  97	9.5520e+00	3.8277	-6.580531	0.000375	3.749820	1.270473	0.000150
  98	9.6515e+00	3.8614	-6.451343	0.000324	3.243087	1.098788	0.000130
  99	9.7510e+00	3.9063	-6.346377	0.000264	2.635009	0.892765	0.000105
 100	9.8505e+00	3.9384	-6.265635	0.000203	2.026930	0.686742	0.000081
 101	9.9500e+00	3.9945	-6.136446	0.000324	3.243087	1.098788	0.000130
 102	1.0050e+01	4.0186	-6.035518	0.000253	2.533662	0.858428	0.000101
 103	1.0149e+01	4.0667	-5.930552	0.000264	2.635009	0.892765	0.000105
 104	1.0248e+01	4.0988	-5.821550	0.000274	2.736355	0.927102	0.000110
 105	1.0348e+01	4.1357	-5.668139	0.000385	3.851166	1.304810	0.000154
 106	1.0447e+01	4.1854	-5.579322	0.000223	2.229623	0.755417	0.000089
 107	1.0547e+01	4.2368	-5.433985	0.000365	3.648473	1.236136	0.000146
 108	1.0646e+01	4.2641	-5.337093	0.000243	2.432316	0.824091	0.000097
 109	1.0746e+01	4.2977	-5.207905	0.000324	3.243087	1.098788	0.000130
 110	1.0845e+01	4.3346	-5.078717	0.000324	3.243087	1.098788	0.000130
 111	1.0945e+01	4.3747	-4.973751	0.000264	2.635009	0.892765	0.000105
 112	1.1044e+01	4.4229	-4.884934	0.000223	2.229623	0.755417	0.000089
 113	1.1144e+01	4.4582	-4.731523	0.000385	3.851166	1.304810	0.000154
 114	1.1243e+01	4.5111	-4.594260	0.000345	3.445780	1.167462	0.000138
 115	1.1343e+01	4.5448	-4.469109	0.000314	3.141741	1.064451	0.000126
 116	1.1443e+01	4.5849	-4.311661	0.000395	3.952513	1.339148	0.000158
 117	1.1542e+01	4.6170	-4.202658	0.000274	2.736355	0.927102	0.000110
 118	1.1642e+01	4.6635	-4.085581	0.000294	2.939048	0.995776	0.000118
 119	1.1741e+01	4.6924	-3.972542	0.000284	2.837702	0.961439	0.000114
 120	1.1841e+01	4.7582	-3.867576	0.000264	2.635009	0.892765	0.000105
 121	1.1940e+01	4.7806	-3.823168	0.000111	1.114811	0.377708	0.000045
 122	1.2040e+01	4.8159	-3.661682	0.000405	4.053859	1.373485	0.000162
 123	1.2139e+01	4.8608	-3.540568	0.000304	3.040395	1.030114	0.000122
 124	1.2239e+01	4.9057	-3.439640	0.000253	2.533662	0.858428	0.000101
 125	1.2338e+01	4.9346	-3.354860	0.000213	2.128276	0.721079	0.000085
 126	1.2438e+01	4.9876	-3.213560	0.000355	3.547127	1.201799	0.000142
 127	1.2537e+01	5.0132	-3.088409	0.000314	3.141741	1.064451	0.000126
 128	1.2636e+01	5.0662	-2.955183	0.000334	3.344434	1.133125	0.000134
 129	1.2736e+01	5.0966	-2.866366	0.000223	2.229623	0.755417	0.000089
 130	1.2835e+01	5.1384	-2.692770	0.000436	4.357899	1.476496	0.000174
 131	1.2935e+01	5.1785	-2.599915	0.000233	2.330969	0.789754	0.000093
 132	1.3034e+01	5.2154	-2.430356	0.000426	4.256552	1.442159	0.000170
 133	1.3134e+01	5.2603	-2.301167	0.000324	3.243087	1.098788	0.000130
 134	1.3233e+01	5.2956	-2.180053	0.000304	3.040395	1.030114	0.000122
 135	1.3333e+01	5.3421	-2.058939	0.000304	3.040395	1.030114	0.000122
 136	1.3432e+01	5.3742	-1.909565	0.000375	3.749820	1.270473	0.000150
 137	1.3532e+01	5.4239	-1.788451	0.000304	3.040395	1.030114	0.000122
 138	1.3632e+01	5.4560	-1.703671	0.000213	2.128276	0.721079	0.000085
 139	1.3731e+01	5.5009	-1.594669	0.000274	2.736355	0.927102	0.000110
 140	1.3831e+01	5.5378	-1.477592	0.000294	2.939048	0.995776	0.000118
 141	1.3930e+01	5.5731	-1.364552	0.000284	2.837702	0.961439	0.000114
 142	1.4030e+01	5.6052	-1.247475	0.000294	2.939048	0.995776	0.000118
 143	1.4129e+01	5.6581	-1.126361	0.000304	3.040395	1.030114	0.000122
 144	1.4229e+01	5.6982	-0.985061	0.000355	3.547127	1.201799	0.000142
 145	1.4328e+01	5.7367	-0.900281	0.000213	2.128276	0.721079	0.000085
 146	1.4428e+01	5.7768	-0.730722	0.000426	4.256552	1.442159	0.000170
 147	1.4527e+01	5.8089	-0.625756	0.000264	2.635009	0.892765	0.000105
 148	1.4627e+01	5.8538	-0.504642	0.000304	3.040395	1.030114	0.000122
 149	1.4726e+01	5.9052	-0.363342	0.000355	3.547127	1.201799	0.000142
 150	1.4825e+01	5.9341	-0.242228	0.000304	3.040395	1.030114	0.000122
 151	1.4925e+01	5.9661	-0.133225	0.000274	2.736355	0.927102	0.000110
 152	1.5024e+01	6.0207	0.040371	0.000436	4.357899	1.476496	0.000174
 153	1.5124e+01	6.0544	0.177634	0.000345	3.445780	1.167462	0.000138
 154	1.5223e+01	6.0977	0.270488	0.000233	2.330969	0.789754	0.000093
 155	1.5323e+01	6.1314	0.367379	0.000243	2.432316	0.824091	0.000097
 156	1.5422e+01	6.1763	0.500605	0.000334	3.344434	1.133125	0.000134
 157	1.5522e+01	6.2116	0.581348	0.000203	2.026930	0.686742	0.000081
 158	1.5621e+01	6.2565	0.710536	0.000324	3.243087	1.098788	0.000130
 159	1.5721e+01	6.2982	0.843761	0.000334	3.344434	1.133125	0.000134
 160	1.5820e+01	6.3367	0.976987	0.000334	3.344434	1.133125	0.000134
 161	1.5920e+01	6.3704	1.069841	0.000233	2.330969	0.789754	0.000093
 162	1.6020e+01	6.4169	1.194992	0.000314	3.141741	1.064451	0.000126
 163	1.6119e+01	6.4586	1.324181	0.000324	3.243087	1.098788	0.000130
 164	1.6218e+01	6.5004	1.437220	0.000284	2.837702	0.961439	0.000114
 165	1.6318e+01	6.5389	1.578520	0.000355	3.547127	1.201799	0.000142
 166	1.6418e+01	6.5709	1.695597	0.000294	2.939048	0.995776	0.000118
 167	1.6517e+01	6.6030	1.832860	0.000345	3.445780	1.167462	0.000138
 168	1.6616e+01	6.6576	1.933788	0.000253	2.533662	0.858428	0.000101
 169	1.6716e+01	6.6864	2.075088	0.000355	3.547127	1.201799	0.000142
 170	1.6816e+01	6.7265	2.212350	0.000345	3.445780	1.167462	0.000138
 171	1.6915e+01	6.7715	2.377873	0.000416	4.155206	1.407822	0.000166
 172	1.7015e+01	6.8036	2.531284	0.000385	3.851166	1.304810	0.000154
 173	1.7114e+01	6.8517	2.644324	0.000284	2.837702	0.961439	0.000114
 174	1.7213e+01	6.8838	2.745252	0.000253	2.533662	0.858428	0.000101
 175	1.7313e+01	6.9367	2.878478	0.000334	3.344434	1.133125	0.000134
 176	1.7413e+01	6.9752	2.987480	0.000274	2.736355	0.927102	0.000110
 177	1.7512e+01	7.0153	3.084372	0.000243	2.432316	0.824091	0.000097
 178	1.7611e+01	7.0506	3.225671	0.000355	3.547127	1.201799	0.000142
 179	1.7711e+01	7.0811	3.330637	0.000264	2.635009	0.892765	0.000105
 180	1.7811e+01	7.1308	3.492122	0.000405	4.053859	1.373485	0.000162
 181	1.7910e+01	7.1661	3.625348	0.000334	3.344434	1.133125	0.000134
 182	1.8009e+01	7.2014	3.726276	0.000253	2.533662	0.858428	0.000101
 183	1.8109e+01	7.2431	3.835279	0.000274	2.736355	0.927102	0.000110
 184	1.8209e+01	7.2928	4.000802	0.000416	4.155206	1.407822	0.000166
 185	1.8308e+01	7.3265	4.085581	0.000213	2.128276	0.721079	0.000085
 186	1.8407e+01	7.3618	4.234955	0.000375	3.749820	1.270473	0.000150
 187	1.8507e+01	7.4035	4.384329	0.000375	3.749820	1.270473	0.000150
 188	1.8607e+01	7.4468	4.533703	0.000375	3.749820	1.270473	0.000150
 189	1.8706e+01	7.4934	4.646743	0.000284	2.837702	0.961439	0.000114
 190	1.8805e+01	7.5222	4.816303	0.000426	4.256552	1.442159	0.000170
 191	1.8905e+01	7.5591	4.969714	0.000385	3.851166	1.304810	0.000154
 192	1.9005e+01	7.6057	5.082754	0.000284	2.837702	0.961439	0.000114
 193	1.9104e+01	7.6426	5.203868	0.000304	3.040395	1.030114	0.000122
 194	1.9203e+01	7.6891	5.389576	0.000466	4.661938	1.579507	0.000187
 195	1.9303e+01	7.7308	5.506653	0.000294	2.939048	0.995776	0.000118
 196	1.9402e+01	7.7661	5.538950	0.000081	0.810772	0.274697	0.000032
 197	1.9502e+01	7.7998	5.688324	0.000375	3.749820	1.270473	0.000150
 198	1.9602e+01	7.8511	5.825587	0.000345	3.445780	1.167462	0.000138
 199	1.9701e+01	7.8864	5.962849	0.000345	3.445780	1.167462	0.000138
 200	1.9800e+01	7.9313	6.083964	0.000304	3.040395	1.030114	0.000122
 201	1.9900e+01	7.9730	6.257560	0.000436	4.357899	1.476496	0.000174
 202	2.0000e+01	8.0019	6.358489	0.000253	2.533662	0.858428	0.000101
 203	2.0099e+01	8.0468	6.519974	0.000405	4.053859	1.373485	0.000162
 204	2.0198e+01	8.0789	6.624940	0.000264	2.635009	0.892765	0.000105
 205	2.0298e+01	8.1190	6.770277	0.000365	3.648473	1.236136	0.000146
 206	2.0398e+01	8.1671	6.903502	0.000334	3.344434	1.133125	0.000134
 207	2.0497e+01	8.2008	7.052876	0.000375	3.749820	1.270473	0.000150
 208	2.0596e+01	8.2409	7.186102	0.000334	3.344434	1.133125	0.000134
 209	2.0696e+01	8.2730	7.327401	0.000355	3.547127	1.201799	0.000142
 210	2.0796e+01	8.3292	7.484850	0.000395	3.952513	1.339148	0.000158
 211	2.0895e+01	8.3661	7.622112	0.000345	3.445780	1.167462	0.000138
 212	2.0994e+01	8.3982	7.751301	0.000324	3.243087	1.098788	0.000130
 213	2.1094e+01	8.4463	7.916823	0.000416	4.155206	1.407822	0.000166
 214	2.1194e+01	8.4880	8.009677	0.000233	2.330969	0.789754	0.000093
 215	2.1293e+01	8.5233	8.134829	0.000314	3.141741	1.064451	0.000126
 216	2.1392e+01	8.5618	8.223645	0.000223	2.229623	0.755417	0.000089
 217	2.1492e+01	8.6035	8.356871	0.000334	3.344434	1.133125	0.000134
 218	2.1591e+01	8.6484	8.502208	0.000365	3.648473	1.236136	0.000146
 219	2.1691e+01	8.6885	8.643508	0.000355	3.547127	1.201799	0.000142
 220	2.1791e+01	8.7174	8.792882	0.000375	3.749820	1.270473	0.000150
 221	2.1890e+01	8.7752	8.897847	0.000264	2.635009	0.892765	0.000105
 222	2.1989e+01	8.8008	9.031073	0.000334	3.344434	1.133125	0.000134
 223	2.2089e+01	8.8473	9.132001	0.000253	2.533662	0.858428	0.000101
 224	2.2189e+01	8.8891	9.293486	0.000405	4.053859	1.373485	0.000162
 225	2.2288e+01	8.9211	9.422675	0.000324	3.243087	1.098788	0.000130
 226	2.2387e+01	8.9516	9.547826	0.000314	3.141741	1.064451	0.000126
 227	2.2487e+01	8.9965	9.757757	0.000527	5.270017	1.785530	0.000211
 228	2.2587e+01	9.0431	9.919243	0.000405	4.053859	1.373485	0.000162
 229	2.2686e+01	9.0751	10.052468	0.000334	3.344434	1.133125	0.000134
 230	2.2785e+01	9.1201	10.185693	0.000334	3.344434	1.133125	0.000134
 231	2.2885e+01	9.1634	10.310845	0.000314	3.141741	1.064451	0.000126
 232	2.2985e+01	9.2035	10.452144	0.000355	3.547127	1.201799	0.000142
 233	2.3084e+01	9.2468	10.553073	0.000253	2.533662	0.858428	0.000101
 234	2.3183e+01	9.2837	10.662075	0.000274	2.736355	0.927102	0.000110
 235	2.3283e+01	9.3238	10.831635	0.000426	4.256552	1.442159	0.000170
 236	2.3383e+01	9.3735	10.900266	0.000172	1.722890	0.583731	0.000069
 237	2.3482e+01	9.4024	11.061752	0.000405	4.053859	1.373485	0.000162
 238	2.3581e+01	9.4377	11.190940	0.000324	3.243087	1.098788	0.000130
 239	2.3681e+01	9.4906	11.348389	0.000395	3.952513	1.339148	0.000158
 240	2.3780e+01	9.5211	11.473540	0.000314	3.141741	1.064451	0.000126
 241	2.3880e+01	9.5548	11.586580	0.000284	2.837702	0.961439	0.000114
 242	2.3980e+01	9.5981	11.764214	0.000446	4.459245	1.510833	0.000179
 243	2.4079e+01	9.6382	11.873216	0.000274	2.736355	0.927102	0.000110
 244	2.4178e+01	9.6864	12.022590	0.000375	3.749820	1.270473	0.000150
 245	2.4278e+01	9.7136	12.204261	0.000456	4.560592	1.545170	0.000183
 246	2.4378e+01	9.7602	12.349598	0.000365	3.648473	1.236136	0.000146
 247	2.4477e+01	9.7954	12.482824	0.000334	3.344434	1.133125	0.000134
 248	2.4576e+01	9.8323	12.591826	0.000274	2.736355	0.927102	0.000110
 249	2.4676e+01	9.8805	12.817906	0.000568	5.675403	1.922879	0.000227
 250	2.4776e+01	9.9206	12.910760	0.000233	2.330969	0.789754	0.000093
 251	2.4875e+01	9.9575	13.027837	0.000294	2.939048	0.995776	0.000118
 252	2.4974e+01	10.0056	13.140877	0.000284	2.837702	0.961439	0.000114
 253	2.5074e+01	10.0361	13.241805	0.000253	2.533662	0.858428	0.000101
 254	2.5174e+01	10.0762	13.427513	0.000466	4.661938	1.579507	0.000187
 255	2.5273e+01	10.1179	13.540553	0.000284	2.837702	0.961439	0.000114
 256	2.5372e+01	10.1564	13.698002	0.000395	3.952513	1.339148	0.000158
 257	2.5472e+01	10.1901	13.839301	0.000355	3.547127	1.201799	0.000142
 258	2.5572e+01	10.2302	13.976564	0.000345	3.445780	1.167462	0.000138
 259	2.5671e+01	10.2703	14.097678	0.000304	3.040395	1.030114	0.000122
 260	2.5770e+01	10.3232	14.230903	0.000334	3.344434	1.133125	0.000134
 261	2.5870e+01	10.3553	14.376240	0.000365	3.648473	1.236136	0.000146
 262	2.5970e+01	10.3922	14.497354	0.000304	3.040395	1.030114	0.000122
 263	2.6069e+01	10.4339	14.630580	0.000334	3.344434	1.133125	0.000134
 264	2.6169e+01	10.4708	14.783991	0.000385	3.851166	1.304810	0.000154
 265	2.6268e+01	10.5270	14.961625	0.000446	4.459245	1.510833	0.000179
 266	2.6367e+01	10.5462	15.086776	0.000314	3.141741	1.064451	0.000126
 267	2.6467e+01	10.5847	15.256336	0.000426	4.256552	1.442159	0.000170
 268	2.6567e+01	10.6409	15.377450	0.000304	3.040395	1.030114	0.000122
 269	2.6666e+01	10.6794	15.555084	0.000446	4.459245	1.510833	0.000179
 270	2.6765e+01	10.7115	15.647938	0.000233	2.330969	0.789754	0.000093
 271	2.6865e+01	10.7564	15.773089	0.000314	3.141741	1.064451	0.000126
 272	2.6965e+01	10.7933	15.882092	0.000274	2.736355	0.927102	0.000110
 273	2.7064e+01	10.8366	16.047615	0.000416	4.155206	1.407822	0.000166
 274	2.7163e+01	10.8767	16.164691	0.000294	2.939048	0.995776	0.000118
 275	2.7263e+01	10.9136	16.310028	0.000365	3.648473	1.236136	0.000146
 276	2.7363e+01	10.9537	16.410957	0.000253	2.533662	0.858428	0.000101
 277	2.7462e+01	10.9938	16.588591	0.000446	4.459245	1.510833	0.000179
 278	2.7561e+01	11.0371	16.709705	0.000304	3.040395	1.030114	0.000122
 279	2.7661e+01	11.0708	16.846967	0.000345	3.445780	1.167462	0.000138
 280	2.7761e+01	11.1189	16.996341	0.000375	3.749820	1.270473	0.000150
 281	2.7860e+01	11.1510	17.113418	0.000294	2.939048	0.995776	0.000118
 282	2.7959e+01	11.1975	17.282978	0.000426	4.256552	1.442159	0.000170
 283	2.8059e+01	11.2312	17.440426	0.000395	3.952513	1.339148	0.000158
 284	2.8159e+01	11.2745	17.601912	0.000405	4.053859	1.373485	0.000162
 285	2.8258e+01	11.3163	17.763397	0.000405	4.053859	1.373485	0.000162
 286	2.8358e+01	11.3435	17.888548	0.000314	3.141741	1.064451	0.000126
 287	2.8457e+01	11.4029	18.013700	0.000314	3.141741	1.064451	0.000126
 288	2.8556e+01	11.4253	18.126739	0.000284	2.837702	0.961439	0.000114
 289	2.8656e+01	11.4783	18.255928	0.000324	3.243087	1.098788	0.000130
 290	2.8756e+01	11.5152	18.344745	0.000223	2.229623	0.755417	0.000089
 291	2.8855e+01	11.5537	18.486045	0.000355	3.547127	1.201799	0.000142
 292	2.8954e+01	11.5890	18.631381	0.000365	3.648473	1.236136	0.000146
 293	2.9054e+01	11.6259	18.772681	0.000355	3.547127	1.201799	0.000142
 294	2.9154e+01	11.6724	18.885721	0.000284	2.837702	0.961439	0.000114
 295	2.9253e+01	11.7109	19.039132	0.000385	3.851166	1.304810	0.000154
 296	2.9352e+01	11.7606	19.156209	0.000294	2.939048	0.995776	0.000118
 297	2.9452e+01	11.7959	19.285397	0.000324	3.243087	1.098788	0.000130
 298	2.9552e+01	11.8328	19.467069	0.000456	4.560592	1.545170	0.000183
 299	2.9651e+01	11.8826	19.612405	0.000365	3.648473	1.236136	0.000146
 300	2.9750e+01	11.9114	19.753705	0.000355	3.547127	1.201799	0.000142
 301	2.9850e+01	11.9499	19.886931	0.000334	3.344434	1.133125	0.000134
 302	2.9950e+01	11.9916	20.084750	0.000497	4.965978	1.682519	0.000199
 303	3.0049e+01	12.0221	20.197790	0.000284	2.837702	0.961439	0.000114
 304	3.0148e+01	12.0799	20.383498	0.000466	4.661938	1.579507	0.000187
 305	3.0248e+01	12.1071	20.508650	0.000314	3.141741	1.064451	0.000126
 306	3.0348e+01	12.1505	20.649949	0.000355	3.547127	1.201799	0.000142
 307	3.0447e+01	12.1938	20.783175	0.000334	3.344434	1.133125	0.000134
 308	3.0547e+01	12.2291	20.920437	0.000345	3.445780	1.167462	0.000138
 309	3.0646e+01	12.2612	20.993106	0.000182	1.824237	0.618068	0.000073
 310	3.0745e+01	12.3157	21.154591	0.000405	4.053859	1.373485	0.000162
 311	3.0845e+01	12.3478	21.299928	0.000365	3.648473	1.236136	0.000146
 312	3.0945e+01	12.3911	21.449302	0.000375	3.749820	1.270473	0.000150
 313	3.1044e+01	12.4216	21.574453	0.000314	3.141741	1.064451	0.000126
 314	3.1143e+01	12.4633	21.748050	0.000436	4.357899	1.476496	0.000174
 315	3.1243e+01	12.5130	21.881276	0.000334	3.344434	1.133125	0.000134
 316	3.1343e+01	12.5451	22.046798	0.000416	4.155206	1.407822	0.000166
 317	3.1442e+01	12.5884	22.180024	0.000334	3.344434	1.133125	0.000134
 318	3.1541e+01	12.6237	22.333435	0.000385	3.851166	1.304810	0.000154
 319	3.1641e+01	12.6654	22.454549	0.000304	3.040395	1.030114	0.000122
 320	3.1741e+01	12.6975	22.636220	0.000456	4.560592	1.545170	0.000183
 321	3.1840e+01	12.7440	22.817891	0.000456	4.560592	1.545170	0.000183
 322	3.1939e+01	12.7905	22.947080	0.000324	3.243087	1.098788	0.000130
 323	3.2039e+01	12.8274	23.084342	0.000345	3.445780	1.167462	0.000138
 324	3.2139e+01	12.8676	23.233716	0.000375	3.749820	1.270473	0.000150
 325	3.2238e+01	12.9012	23.354830	0.000304	3.040395	1.030114	0.000122
 326	3.2337e+01	12.9494	23.488056	0.000334	3.344434	1.133125	0.000134
 327	3.2437e+01	12.9911	23.564761	0.000193	1.925583	0.652405	0.000077
 328	3.2536e+01	13.0248	23.758544	0.000486	4.864631	1.648182	0.000195
 329	3.2636e+01	13.0745	23.887732	0.000324	3.243087	1.098788	0.000130
 330	3.2736e+01	13.1034	24.020958	0.000334	3.344434	1.133125	0.000134
 331	3.2835e+01	13.1371	24.190517	0.000426	4.256552	1.442159	0.000170
 332	3.2934e+01	13.1820	24.283371	0.000233	2.330969	0.789754	0.000093
 333	3.3034e+01	13.2253	24.444857	0.000405	4.053859	1.373485	0.000162
 334	3.3133e+01	13.2638	24.565971	0.000304	3.040395	1.030114	0.000122
 335	3.3233e+01	13.2991	24.747642	0.000456	4.560592	1.545170	0.000183
 336	3.3333e+01	13.3472	24.897016	0.000375	3.749820	1.270473	0.000150
 337	3.3432e+01	13.3857	25.074650	0.000446	4.459245	1.510833	0.000179
 338	3.3532e+01	13.4114	25.252284	0.000446	4.459245	1.510833	0.000179
 339	3.3631e+01	13.4643	25.405695	0.000385	3.851166	1.304810	0.000154
 340	3.3730e+01	13.4996	25.555069	0.000375	3.749820	1.270473	0.000150
 341	3.3830e+01	13.5349	25.736740	0.000456	4.560592	1.545170	0.000183
 342	3.3929e+01	13.5830	25.869966	0.000334	3.344434	1.133125	0.000134
 343	3.4029e+01	13.6215	26.011266	0.000355	3.547127	1.201799	0.000142
 344	3.4129e+01	13.6616	26.124305	0.000284	2.837702	0.961439	0.000114
 345	3.4228e+01	13.6985	26.249457	0.000314	3.141741	1.064451	0.000126
 346	3.4328e+01	13.7483	26.402868	0.000385	3.851166	1.304810	0.000154
 347	3.4427e+01	13.7804	26.507833	0.000264	2.635009	0.892765	0.000105
 348	3.4526e+01	13.8205	26.713727	0.000517	5.168671	1.751193	0.000207
 349	3.4626e+01	13.8654	26.842916	0.000324	3.243087	1.098788	0.000130
 350	3.4725e+01	13.8959	27.000364	0.000395	3.952513	1.339148	0.000158
 351	3.4825e+01	13.9279	27.177998	0.000446	4.459245	1.510833	0.000179
 352	3.4925e+01	13.9777	27.295075	0.000294	2.939048	0.995776	0.000118
 353	3.5024e+01	14.0258	27.428300	0.000334	3.344434	1.133125	0.000134
 354	3.5123e+01	14.0595	27.573637	0.000365	3.648473	1.236136	0.000146
 355	3.5223e+01	14.0964	27.751271	0.000446	4.459245	1.510833	0.000179
 356	3.5322e+01	14.1413	27.916794	0.000416	4.155206	1.407822	0.000166
 357	3.5422e+01	14.1750	28.110576	0.000486	4.864631	1.648182	0.000195
 358	3.5522e+01	14.2215	28.288210	0.000446	4.459245	1.510833	0.000179
 359	3.5621e+01	14.2584	28.425473	0.000345	3.445780	1.167462	0.000138
 360	3.5721e+01	14.3017	28.599070	0.000436	4.357899	1.476496	0.000174
 361	3.5820e+01	14.3515	28.712109	0.000284	2.837702	0.961439	0.000114
 362	3.5919e+01	14.3787	28.901855	0.000476	4.763285	1.613845	0.000191
 363	3.6019e+01	14.4188	29.039117	0.000345	3.445780	1.167462	0.000138
 364	3.6118e+01	14.4590	29.184454	0.000365	3.648473	1.236136	0.000146
 365	3.6218e+01	14.4975	29.277308	0.000233	2.330969	0.789754	0.000093
 366	3.6318e+01	14.5360	29.454942	0.000446	4.459245	1.510833	0.000179
 367	3.6417e+01	14.5745	29.620465	0.000416	4.155206	1.407822	0.000166
 368	3.6517e+01	14.6097	29.794062	0.000436	4.357899	1.476496	0.000174
 369	3.6616e+01	14.6579	29.894990	0.000253	2.533662	0.858428	0.000101
 370	3.6715e+01	14.6996	30.100884	0.000517	5.168671	1.751193	0.000207
 371	3.6815e+01	14.7381	30.205850	0.000264	2.635009	0.892765	0.000105
 372	3.6914e+01	14.7782	30.363298	0.000395	3.952513	1.339148	0.000158
 373	3.7014e+01	14.8199	30.544969	0.000456	4.560592	1.545170	0.000183
 374	3.7114e+01	14.8568	30.730677	0.000466	4.661938	1.579507	0.000187
 375	3.7213e+01	14.9017	30.920423	0.000476	4.763285	1.613845	0.000191
 376	3.7313e+01	14.9402	31.081908	0.000405	4.053859	1.373485	0.000162
 377	3.7412e+01	14.9787	31.271653	0.000476	4.763285	1.613845	0.000191
 378	3.7511e+01	15.0124	31.408916	0.000345	3.445780	1.167462	0.000138
 379	3.7611e+01	15.0477	31.586550	0.000446	4.459245	1.510833	0.000179
 380	3.7711e+01	15.0910	31.723813	0.000345	3.445780	1.167462	0.000138
 381	3.7810e+01	15.1391	31.909521	0.000466	4.661938	1.579507	0.000187
 382	3.7910e+01	15.1680	32.038709	0.000324	3.243087	1.098788	0.000130
 383	3.8009e+01	15.2129	32.131563	0.000233	2.330969	0.789754	0.000093
 384	3.8108e+01	15.2595	32.284974	0.000385	3.851166	1.304810	0.000154
 385	3.8208e+01	15.2915	32.502980	0.000547	5.472710	1.854204	0.000219
 386	3.8307e+01	15.3397	32.648317	0.000365	3.648473	1.236136	0.000146
 387	3.8407e+01	15.3814	32.785579	0.000345	3.445780	1.167462	0.000138
 388	3.8507e+01	15.4151	32.963213	0.000446	4.459245	1.510833	0.000179
 389	3.8606e+01	15.4568	33.084327	0.000304	3.040395	1.030114	0.000122
 390	3.8706e+01	15.5081	33.294258	0.000527	5.270017	1.785530	0.000211
 391	3.8805e+01	15.5370	33.427484	0.000334	3.344434	1.133125	0.000134
 392	3.8904e+01	15.5771	33.649526	0.000557	5.574057	1.888542	0.000223
 393	3.9004e+01	15.6220	33.794863	0.000365	3.648473	1.236136	0.000146
 394	3.9103e+01	15.6493	33.988646	0.000486	4.864631	1.648182	0.000195
 395	3.9203e+01	15.6958	34.146094	0.000395	3.952513	1.339148	0.000158
 396	3.9303e+01	15.7231	34.323728	0.000446	4.459245	1.510833	0.000179
 397	3.9402e+01	15.7792	34.489251	0.000416	4.155206	1.407822	0.000166
 398	3.9502e+01	15.8097	34.614402	0.000314	3.141741	1.064451	0.000126
 399	3.9601e+01	15.8498	34.828370	0.000537	5.371364	1.819867	0.000215
 400	3.9700e+01	15.8899	34.949484	0.000304	3.040395	1.030114	0.000122
 401	3.9800e+01	15.9332	35.127118	0.000446	4.459245	1.510833	0.000179
 402	3.9900e+01	15.9733	35.252269	0.000314	3.141741	1.064451	0.000126
 403	3.9999e+01	16.0054	35.381458	0.000324	3.243087	1.098788	0.000130
 404	4.0099e+01	16.0520	35.534869	0.000385	3.851166	1.304810	0.000154
 405	4.0198e+01	16.0921	35.708466	0.000436	4.357899	1.476496	0.000174
 406	4.0297e+01	16.1354	35.894174	0.000466	4.661938	1.579507	0.000187
 407	4.0397e+01	16.1594	36.039511	0.000365	3.648473	1.236136	0.000146
 408	4.0496e+01	16.2140	36.209070	0.000426	4.256552	1.442159	0.000170
 409	4.0596e+01	16.2525	36.398816	0.000476	4.763285	1.613845	0.000191
 410	4.0696e+01	16.2926	36.580487	0.000456	4.560592	1.545170	0.000183
 411	4.0795e+01	16.3359	36.750047	0.000426	4.256552	1.442159	0.000170
 412	4.0895e+01	16.3696	36.927681	0.000446	4.459245	1.510833	0.000179
 413	4.0994e+01	16.4161	37.101277	0.000436	4.357899	1.476496	0.000174
 414	4.1093e+01	16.4514	37.286986	0.000466	4.661938	1.579507	0.000187
 415	4.1193e+01	16.4835	37.460583	0.000436	4.357899	1.476496	0.000174
 416	4.1292e+01	16.5300	37.609957	0.000375	3.749820	1.270473	0.000150
 417	4.1392e+01	16.5749	37.779516	0.000426	4.256552	1.442159	0.000170
 418	4.1492e+01	16.6199	37.957150	0.000446	4.459245	1.510833	0.000179
 419	4.1591e+01	16.6471	38.114599	0.000395	3.952513	1.339148	0.000158
 420	4.1691e+01	16.6888	38.276084	0.000405	4.053859	1.373485	0.000162
 421	4.1790e+01	16.7305	38.393161	0.000294	2.939048	0.995776	0.000118
 422	4.1889e+01	16.7642	38.570795	0.000446	4.459245	1.510833	0.000179
 423	4.1989e+01	16.8140	38.687872	0.000294	2.939048	0.995776	0.000118
 424	4.2089e+01	16.8509	38.885691	0.000497	4.965978	1.682519	0.000199
 425	4.2188e+01	16.8829	39.051214	0.000416	4.155206	1.407822	0.000166
 426	4.2288e+01	16.9263	39.236922	0.000466	4.661938	1.579507	0.000187
 427	4.2387e+01	16.9712	39.406482	0.000426	4.256552	1.442159	0.000170
 428	4.2486e+01	17.0033	39.551819	0.000365	3.648473	1.236136	0.000146
 429	4.2586e+01	17.0562	39.745601	0.000486	4.864631	1.648182	0.000195
 430	4.2685e+01	17.0883	39.979755	0.000588	5.878096	1.991553	0.000235
 431	4.2785e+01	17.1204	40.121055	0.000355	3.547127	1.201799	0.000142
 432	4.2885e+01	17.1701	40.322912	0.000507	5.067324	1.716856	0.000203
 433	4.2984e+01	17.2038	40.488434	0.000416	4.155206	1.407822	0.000166
 434	4.3084e+01	17.2583	40.617623	0.000324	3.243087	1.098788	0.000130
 435	4.3183e+01	17.2840	40.811405	0.000486	4.864631	1.648182	0.000195
 436	4.3282e+01	17.3321	40.964816	0.000385	3.851166	1.304810	0.000154
 437	4.3382e+01	17.3626	41.154562	0.000476	4.763285	1.613845	0.000191
 438	4.3481e+01	17.4156	41.324121	0.000426	4.256552	1.442159	0.000170
 439	4.3581e+01	17.4524	41.485607	0.000405	4.053859	1.373485	0.000162
 440	4.3681e+01	17.4926	41.618832	0.000334	3.344434	1.133125	0.000134
 441	4.3780e+01	17.5295	41.752058	0.000334	3.344434	1.133125	0.000134
 442	4.3880e+01	17.5663	41.933729	0.000456	4.560592	1.545170	0.000183
 443	4.3979e+01	17.6145	42.099251	0.000416	4.155206	1.407822	0.000166
 444	4.4078e+01	17.6498	42.252663	0.000385	3.851166	1.304810	0.000154
 445	4.4178e+01	17.6867	42.458557	0.000517	5.168671	1.751193	0.000207
 446	4.4278e+01	17.7332	42.575633	0.000294	2.939048	0.995776	0.000118
 447	4.4377e+01	17.7653	42.777490	0.000507	5.067324	1.716856	0.000203
 448	4.4477e+01	17.8054	42.938976	0.000405	4.053859	1.373485	0.000162
 449	4.4576e+01	17.8455	43.116610	0.000446	4.459245	1.510833	0.000179
 450	4.4675e+01	17.8824	43.310392	0.000486	4.864631	1.648182	0.000195
 451	4.4775e+01	17.9241	43.467840	0.000395	3.952513	1.339148	0.000158
 452	4.4874e+01	17.9642	43.633363	0.000416	4.155206	1.407822	0.000166
 453	4.4974e+01	18.0011	43.798886	0.000416	4.155206	1.407822	0.000166
 454	4.5074e+01	18.0524	43.968445	0.000426	4.256552	1.442159	0.000170
 455	4.5173e+01	18.0893	44.125894	0.000395	3.952513	1.339148	0.000158
 456	4.5273e+01	18.1326	44.360047	0.000588	5.878096	1.991553	0.000235
 457	4.5372e+01	18.1727	44.497310	0.000345	3.445780	1.167462	0.000138
 458	4.5471e+01	18.2048	44.638610	0.000355	3.547127	1.201799	0.000142
 459	4.5571e+01	18.2465	44.739538	0.000253	2.533662	0.858428	0.000101
 460	4.5670e+01	18.2850	44.909098	0.000426	4.256552	1.442159	0.000170
 461	4.5770e+01	18.3252	45.102880	0.000486	4.864631	1.648182	0.000195
 462	4.5870e+01	18.3588	45.280514	0.000446	4.459245	1.510833	0.000179
 463	4.5969e+01	18.4070	45.433926	0.000385	3.851166	1.304810	0.000154
 464	4.6069e+01	18.4487	45.627708	0.000486	4.864631	1.648182	0.000195
 465	4.6168e+01	18.4840	45.773045	0.000365	3.648473	1.236136	0.000146
 466	4.6267e+01	18.5241	45.995087	0.000557	5.574057	1.888542	0.000223
 467	4.6367e+01	18.5690	46.152536	0.000395	3.952513	1.339148	0.000158
 468	4.6467e+01	18.6043	46.378615	0.000568	5.675403	1.922879	0.000227
 469	4.6566e+01	18.6364	46.556249	0.000446	4.459245	1.510833	0.000179
 470	4.6666e+01	18.6893	46.737920	0.000456	4.560592	1.545170	0.000183
 471	4.6765e+01	18.7182	46.911517	0.000436	4.357899	1.476496	0.000174
 472	4.6864e+01	18.7583	47.101263	0.000476	4.763285	1.613845	0.000191
 473	4.6964e+01	18.7936	47.282934	0.000456	4.560592	1.545170	0.000183
 474	4.7063e+01	18.8385	47.468642	0.000466	4.661938	1.579507	0.000187
 475	4.7163e+01	18.8802	47.630127	0.000405	4.053859	1.373485	0.000162
 476	4.7263e+01	18.9267	47.831984	0.000507	5.067324	1.716856	0.000203
 477	4.7362e+01	18.9636	47.985395	0.000385	3.851166	1.304810	0.000154
 478	4.7462e+01	19.0134	48.126695	0.000355	3.547127	1.201799	0.000142
 479	4.7561e+01	19.0438	48.284143	0.000395	3.952513	1.339148	0.000158
 480	4.7660e+01	19.0823	48.506186	0.000557	5.574057	1.888542	0.000223
 481	4.7760e+01	19.1160	48.627300	0.000304	3.040395	1.030114	0.000122
 482	4.7859e+01	19.1642	48.841268	0.000537	5.371364	1.819867	0.000215
 483	4.7959e+01	19.2059	49.006791	0.000416	4.155206	1.407822	0.000166
 484	4.8059e+01	19.2460	49.236907	0.000578	5.776750	1.957216	0.000231
 485	4.8158e+01	19.2765	49.414541	0.000446	4.459245	1.510833	0.000179
 486	4.8258e+01	19.3214	49.612361	0.000497	4.965978	1.682519	0.000199
 487	4.8357e+01	19.3503	49.870738	0.000649	6.486175	2.197576	0.000260
 488	4.8456e+01	19.4016	50.052409	0.000456	4.560592	1.545170	0.000183
 489	4.8556e+01	19.4289	50.201783	0.000375	3.749820	1.270473	0.000150
 490	4.8656e+01	19.4754	50.427863	0.000568	5.675403	1.922879	0.000227
 491	4.8755e+01	19.5187	50.601459	0.000436	4.357899	1.476496	0.000174
 492	4.8855e+01	19.5620	50.791205	0.000476	4.763285	1.613845	0.000191
 493	4.8954e+01	19.5989	50.989024	0.000497	4.965978	1.682519	0.000199
 494	4.9053e+01	19.6326	51.178770	0.000476	4.763285	1.613845	0.000191
 495	4.9153e+01	19.6759	51.372552	0.000486	4.864631	1.648182	0.000195
 496	4.9252e+01	19.7240	51.521926	0.000375	3.749820	1.270473	0.000150
 497	4.9352e+01	19.7577	51.691486	0.000426	4.256552	1.442159	0.000170
 498	4.9452e+01	19.7962	51.873157	0.000456	4.560592	1.545170	0.000183
 499	4.9551e+01	19.8347	52.070977	0.000497	4.965978	1.682519	0.000199
 500	4.9651e+01	19.8893	52.228425	0.000395	3.952513	1.339148	0.000158
 501	4.9750e+01	19.9149	52.442393	0.000537	5.371364	1.819867	0.000215
 502	4.9849e+01	19.9534	52.660399	0.000547	5.472710	1.854204	0.000219
 503	4.9949e+01	19.9936	52.846107	0.000466	4.661938	1.579507	0.000187
 504	5.0048e+01	19.9599	52.854181	-0.000020	-0.202693	-0.068674	0.000008
 505	5.0148e+01	19.9166	52.886478	-0.000081	-0.810772	-0.274697	0.000032
 506	5.0248e+01	19.8829	52.850144	0.000091	0.912118	0.309034	-0.000037
 507	5.0347e+01	19.8379	52.838033	0.000030	0.304039	0.103011	-0.000012
 508	5.0447e+01	19.7882	52.854181	-0.000041	-0.405386	-0.137348	0.000016
 509	5.0546e+01	19.7641	52.801698	0.000132	1.317504	0.446383	-0.000053
 510	5.0645e+01	19.7112	52.757290	0.000111	1.114811	0.377708	-0.000045
 511	5.0745e+01	19.6743	52.761327	-0.000010	-0.101346	-0.034337	0.000004
 512	5.0844e+01	19.6358	52.745178	0.000041	0.405386	0.137348	-0.000016
 513	5.0944e+01	19.6005	52.684621	0.000152	1.520197	0.515057	-0.000061
 514	5.1044e+01	19.5492	52.668473	0.000041	0.405386	0.137348	-0.000016
 515	5.1143e+01	19.5251	52.648287	0.000051	0.506732	0.171686	-0.000020
 516	5.1242e+01	19.4882	52.571582	0.000193	1.925583	0.652405	-0.000077
 517	5.1342e+01	19.4465	52.486802	0.000213	2.128276	0.721079	-0.000085
 518	5.1441e+01	19.3936	52.474690	0.000030	0.304039	0.103011	-0.000012
 519	5.1541e+01	19.3599	52.434319	0.000101	1.013465	0.343371	-0.000041
 520	5.1641e+01	19.3262	52.389910	0.000111	1.114811	0.377708	-0.000045
 521	5.1740e+01	19.2749	52.373762	0.000041	0.405386	0.137348	-0.000016
 522	5.1840e+01	19.2460	52.397985	-0.000061	-0.608079	-0.206023	0.000024
 523	5.1939e+01	19.1946	52.333391	0.000162	1.621544	0.549394	-0.000065
 524	5.2038e+01	19.1529	52.333391	-0.000000	-0.000000	-0.000000	0.000000
 525	5.2138e+01	19.1225	52.288982	0.000111	1.114811	0.377708	-0.000045
 526	5.2237e+01	19.0759	52.293019	-0.000010	-0.101346	-0.034337	0.000004
 527	5.2337e+01	19.0374	52.248611	0.000111	1.114811	0.377708	-0.000045
 528	5.2437e+01	19.0086	52.216314	0.000081	0.810772	0.274697	-0.000032
 529	5.2536e+01	18.9652	52.175942	0.000101	1.013465	0.343371	-0.000041
 530	5.2636e+01	18.9235	52.159794	0.000041	0.405386	0.137348	-0.000016
 531	5.2735e+01	18.8706	52.103274	0.000142	1.418851	0.480720	-0.000057
 532	5.2834e+01	18.8465	52.091162	0.000030	0.304039	0.103011	-0.000012
 533	5.2934e+01	18.7952	52.018494	0.000182	1.824237	0.618068	-0.000073
 534	5.3033e+01	18.7567	51.978123	0.000101	1.013465	0.343371	-0.000041
 535	5.3133e+01	18.7166	51.905454	0.000182	1.824237	0.618068	-0.000073
 536	5.3233e+01	18.6765	51.897380	0.000020	0.202693	0.068674	-0.000008
 537	5.3332e+01	18.6476	51.832786	0.000162	1.621544	0.549394	-0.000065
 538	5.3431e+01	18.5915	51.776266	0.000142	1.418851	0.480720	-0.000057
 539	5.3531e+01	18.5626	51.784340	-0.000020	-0.202693	-0.068674	0.000008
 540	5.3630e+01	18.5321	51.743969	0.000101	1.013465	0.343371	-0.000041
 541	5.3730e+01	18.4872	51.715709	0.000071	0.709425	0.240360	-0.000028
 542	5.3830e+01	18.4358	51.703597	0.000030	0.304039	0.103011	-0.000012
 543	5.3929e+01	18.4022	51.675337	0.000071	0.709425	0.240360	-0.000028
 544	5.4029e+01	18.3653	51.566335	0.000274	2.736355	0.927102	-0.000110
 545	5.4128e+01	18.3235	51.570372	-0.000010	-0.101346	-0.034337	0.000004
 546	5.4227e+01	18.2818	51.534038	0.000091	0.912118	0.309034	-0.000037
 547	5.4327e+01	18.2449	51.477518	0.000142	1.418851	0.480720	-0.000057
 548	5.4426e+01	18.2032	51.433109	0.000111	1.114811	0.377708	-0.000045
 549	5.4526e+01	18.1615	51.404849	0.000071	0.709425	0.240360	-0.000028
 550	5.4626e+01	18.1214	51.364478	0.000101	1.013465	0.343371	-0.000041
 551	5.4725e+01	18.0781	51.283735	0.000203	2.026930	0.686742	-0.000081
 552	5.4825e+01	18.0444	51.227215	0.000142	1.418851	0.480720	-0.000057
 553	5.4924e+01	18.0091	51.194918	0.000081	0.810772	0.274697	-0.000032
 554	5.5023e+01	17.9706	51.102064	0.000233	2.330969	0.789754	-0.000093
 555	5.5123e+01	17.9209	51.033433	0.000172	1.722890	0.583731	-0.000069
 556	5.5222e+01	17.8808	50.984987	0.000122	1.216158	0.412045	-0.000049
 557	5.5322e+01	17.8519	50.952690	0.000081	0.810772	0.274697	-0.000032
 558	5.5422e+01	17.8102	50.904245	0.000122	1.216158	0.412045	-0.000049
 559	5.5521e+01	17.7573	50.916356	-0.000030	-0.304039	-0.103011	0.000012
 560	5.5620e+01	17.7252	50.847725	0.000172	1.722890	0.583731	-0.000069
 561	5.5720e+01	17.6867	50.803316	0.000111	1.114811	0.377708	-0.000045
 562	5.5819e+01	17.6466	50.762945	0.000101	1.013465	0.343371	-0.000041
 563	5.5919e+01	17.6145	50.698351	0.000162	1.621544	0.549394	-0.000065
 564	5.6019e+01	17.5663	50.674128	0.000061	0.608079	0.206023	-0.000024
 565	5.6118e+01	17.5278	50.597422	0.000193	1.925583	0.652405	-0.000077
 566	5.6218e+01	17.4877	50.548977	0.000122	1.216158	0.412045	-0.000049
 567	5.6317e+01	17.4573	50.484382	0.000162	1.621544	0.549394	-0.000065
 568	5.6416e+01	17.4059	50.431900	0.000132	1.317504	0.446383	-0.000053
 569	5.6516e+01	17.3530	50.391528	0.000101	1.013465	0.343371	-0.000041
 570	5.6615e+01	17.3273	50.351157	0.000101	1.013465	0.343371	-0.000041
 571	5.6715e+01	17.2808	50.262340	0.000223	2.229623	0.755417	-0.000089
 572	5.6815e+01	17.2503	50.209857	0.000132	1.317504	0.446383	-0.000053
 573	5.6914e+01	17.2086	50.112966	0.000243	2.432316	0.824091	-0.000097
 574	5.7014e+01	17.1749	50.068557	0.000111	1.114811	0.377708	-0.000045
 575	5.7113e+01	17.1316	50.036260	0.000081	0.810772	0.274697	-0.000032
 576	5.7212e+01	17.0915	49.975703	0.000152	1.520197	0.515057	-0.000061
 577	5.7312e+01	17.0386	49.955518	0.000051	0.506732	0.171686	-0.000020
 578	5.7411e+01	17.0129	49.898998	0.000142	1.418851	0.480720	-0.000057
 579	5.7511e+01	16.9648	49.842478	0.000142	1.418851	0.480720	-0.000057
 580	5.7611e+01	16.9214	49.761735	0.000203	2.026930	0.686742	-0.000081
 581	5.7710e+01	16.8990	49.709252	0.000132	1.317504	0.446383	-0.000053
 582	5.7809e+01	16.8493	49.685030	0.000061	0.608079	0.206023	-0.000024
 583	5.7909e+01	16.8043	49.604287	0.000203	2.026930	0.686742	-0.000081
 584	5.8008e+01	16.7690	49.559878	0.000111	1.114811	0.377708	-0.000045
 585	5.8108e+01	16.7354	49.503358	0.000142	1.418851	0.480720	-0.000057
 586	5.8208e+01	16.6856	49.418579	0.000213	2.128276	0.721079	-0.000085
 587	5.8307e+01	16.6519	49.370133	0.000122	1.216158	0.412045	-0.000049
 588	5.8407e+01	16.6054	49.317650	0.000132	1.317504	0.446383	-0.000053
 589	5.8506e+01	16.5653	49.240945	0.000193	1.925583	0.652405	-0.000077
 590	5.8605e+01	16.5300	49.144053	0.000243	2.432316	0.824091	-0.000097
 591	5.8705e+01	16.4899	49.063311	0.000203	2.026930	0.686742	-0.000081
 592	5.8804e+01	16.4530	49.022939	0.000101	1.013465	0.343371	-0.000041
 593	5.8904e+01	16.4177	48.917974	0.000264	2.635009	0.892765	-0.000105
 594	5.9004e+01	16.3696	48.881640	0.000091	0.912118	0.309034	-0.000037
 595	5.9103e+01	16.3295	48.833194	0.000122	1.216158	0.412045	-0.000049
 596	5.9203e+01	16.2862	48.784748	0.000122	1.216158	0.412045	-0.000049
 597	5.9302e+01	16.2525	48.776674	0.000020	0.202693	0.068674	-0.000008
 598	5.9401e+01	16.2188	48.655560	0.000304	3.040395	1.030114	-0.000122
 599	5.9501e+01	16.1771	48.623263	0.000081	0.810772	0.274697	-0.000032
 600	5.9600e+01	16.1225	48.550594	0.000182	1.824237	0.618068	-0.000073
 601	5.9700e+01	16.0889	48.473889	0.000193	1.925583	0.652405	-0.000077
 602	5.9800e+01	16.0536	48.397183	0.000193	1.925583	0.652405	-0.000077
 603	5.9899e+01	16.0054	48.348738	0.000122	1.216158	0.412045	-0.000049
 604	5.9998e+01	15.9733	48.251846	0.000243	2.432316	0.824091	-0.000097
 605	6.0098e+01	15.9348	48.231661	0.000051	0.506732	0.171686	-0.000020
 606	6.0197e+01	15.8947	48.146881	0.000213	2.128276	0.721079	-0.000085
 607	6.0297e+01	15.8498	48.045952	0.000253	2.533662	0.858428	-0.000101
 608	6.0397e+01	15.8193	48.021730	0.000061	0.608079	0.206023	-0.000024
 609	6.0496e+01	15.7696	47.912727	0.000274	2.736355	0.927102	-0.000110
 610	6.0596e+01	15.7295	47.767390	0.000365	3.648473	1.236136	-0.000146
 611	6.0695e+01	15.6974	47.731056	0.000091	0.912118	0.309034	-0.000037
 612	6.0794e+01	15.6669	47.658387	0.000182	1.824237	0.618068	-0.000073
 613	6.0894e+01	15.6204	47.577645	0.000203	2.026930	0.686742	-0.000081
 614	6.0993e+01	15.5739	47.561496	0.000041	0.405386	0.137348	-0.000016
 615	6.1093e+01	15.5354	47.464605	0.000243	2.432316	0.824091	-0.000097
 616	6.1193e+01	15.5049	47.404048	0.000152	1.520197	0.515057	-0.000061
 617	6.1292e+01	15.4552	47.347528	0.000142	1.418851	0.480720	-0.000057
 618	6.1392e+01	15.4103	47.258711	0.000223	2.229623	0.755417	-0.000089
 619	6.1491e+01	15.3862	47.230451	0.000071	0.709425	0.240360	-0.000028
 620	6.1590e+01	15.3300	47.085114	0.000365	3.648473	1.236136	-0.000146
 621	6.1690e+01	15.2948	47.044743	0.000101	1.013465	0.343371	-0.000041
 622	6.1789e+01	15.2595	46.947851	0.000243	2.432316	0.824091	-0.000097
 623	6.1889e+01	15.2161	46.867109	0.000203	2.026930	0.686742	-0.000081
 624	6.1989e+01	15.1744	46.814626	0.000132	1.317504	0.446383	-0.000053
 625	6.2088e+01	15.1424	46.729846	0.000213	2.128276	0.721079	-0.000085
 626	6.2188e+01	15.0958	46.673326	0.000142	1.418851	0.480720	-0.000057
 627	6.2287e+01	15.0493	46.532027	0.000355	3.547127	1.201799	-0.000142
 628	6.2386e+01	15.0220	46.435135	0.000243	2.432316	0.824091	-0.000097
 629	6.2486e+01	14.9723	46.354393	0.000203	2.026930	0.686742	-0.000081
 630	6.2586e+01	14.9338	46.261538	0.000233	2.330969	0.789754	-0.000093
 631	6.2685e+01	14.8985	46.221167	0.000101	1.013465	0.343371	-0.000041
 632	6.2785e+01	14.8616	46.136387	0.000213	2.128276	0.721079	-0.000085
 633	6.2884e+01	14.8103	46.055644	0.000203	2.026930	0.686742	-0.000081
 634	6.2983e+01	14.7814	45.991050	0.000162	1.621544	0.549394	-0.000065
 635	6.3083e+01	14.7285	45.918382	0.000182	1.824237	0.618068	-0.000073
 636	6.3182e+01	14.6996	45.882048	0.000091	0.912118	0.309034	-0.000037
 637	6.3282e+01	14.6515	45.748822	0.000334	3.344434	1.133125	-0.000134
 638	6.3382e+01	14.6194	45.696339	0.000132	1.317504	0.446383	-0.000053
 639	6.3481e+01	14.5761	45.607522	0.000223	2.229623	0.755417	-0.000089
 640	6.3581e+01	14.5456	45.502557	0.000264	2.635009	0.892765	-0.000105
 641	6.3680e+01	14.5087	45.442000	0.000152	1.520197	0.515057	-0.000061
 642	6.3779e+01	14.4557	45.361257	0.000203	2.026930	0.686742	-0.000081
 643	6.3879e+01	14.4221	45.260329	0.000253	2.533662	0.858428	-0.000101
 644	6.3978e+01	14.3627	45.211883	0.000122	1.216158	0.412045	-0.000049
 645	6.4078e+01	14.3418	45.119029	0.000233	2.330969	0.789754	-0.000093
 646	6.4177e+01	14.2985	45.046361	0.000182	1.824237	0.618068	-0.000073
 647	6.4277e+01	14.2600	44.929284	0.000294	2.939048	0.995776	-0.000118
 648	6.4376e+01	14.2215	44.804132	0.000314	3.141741	1.064451	-0.000126
 649	6.4476e+01	14.1846	44.719353	0.000213	2.128276	0.721079	-0.000085
 650	6.4576e+01	14.1429	44.687055	0.000081	0.810772	0.274697	-0.000032
 651	6.4675e+01	14.1012	44.626498	0.000152	1.520197	0.515057	-0.000061
 652	6.4775e+01	14.0515	44.525570	0.000253	2.533662	0.858428	-0.000101
 653	6.4874e+01	14.0258	44.444827	0.000203	2.026930	0.686742	-0.000081
 654	6.4974e+01	13.9793	44.368122	0.000193	1.925583	0.652405	-0.000077
 655	6.5073e+01	13.9344	44.287379	0.000203	2.026930	0.686742	-0.000081
 656	6.5172e+01	13.8911	44.206636	0.000203	2.026930	0.686742	-0.000081
 657	6.5272e+01	13.8574	44.113782	0.000233	2.330969	0.789754	-0.000093
 658	6.5371e+01	13.8124	44.000742	0.000284	2.837702	0.961439	-0.000114
 659	6.5471e+01	13.7916	43.936148	0.000162	1.621544	0.549394	-0.000065
 660	6.5570e+01	13.7435	43.831183	0.000264	2.635009	0.892765	-0.000105
 661	6.5670e+01	13.6921	43.758514	0.000182	1.824237	0.618068	-0.000073
 662	6.5769e+01	13.6616	43.681809	0.000193	1.925583	0.652405	-0.000077
 663	6.5869e+01	13.6247	43.568769	0.000284	2.837702	0.961439	-0.000114
 664	6.5969e+01	13.5862	43.443618	0.000314	3.141741	1.064451	-0.000126
 665	6.6068e+01	13.5317	43.366912	0.000193	1.925583	0.652405	-0.000077
 666	6.6168e+01	13.4996	43.249835	0.000294	2.939048	0.995776	-0.000118
 667	6.6267e+01	13.4563	43.165055	0.000213	2.128276	0.721079	-0.000085
 668	6.6367e+01	13.4306	43.072201	0.000233	2.330969	0.789754	-0.000093
 669	6.6466e+01	13.3793	42.971273	0.000253	2.533662	0.858428	-0.000101
 670	6.6566e+01	13.3392	42.914753	0.000142	1.418851	0.480720	-0.000057
 671	6.6665e+01	13.3007	42.870344	0.000111	1.114811	0.377708	-0.000045
 672	6.6764e+01	13.2590	42.781527	0.000223	2.229623	0.755417	-0.000089
 673	6.6864e+01	13.2109	42.656376	0.000314	3.141741	1.064451	-0.000126
 674	6.6963e+01	13.1788	42.611968	0.000111	1.114811	0.377708	-0.000045
 675	6.7063e+01	13.1483	42.519114	0.000233	2.330969	0.789754	-0.000093
 676	6.7162e+01	13.1050	42.398000	0.000304	3.040395	1.030114	-0.000122
 677	6.7262e+01	13.0617	42.321294	0.000193	1.925583	0.652405	-0.000077
 678	6.7362e+01	13.0183	42.212291	0.000274	2.736355	0.927102	-0.000110
 679	6.7461e+01	12.9847	42.151734	0.000152	1.520197	0.515057	-0.000061
 680	6.7561e+01	12.9510	42.046769	0.000264	2.635009	0.892765	-0.000105
 681	6.7660e+01	12.9044	41.978137	0.000172	1.722890	0.583731	-0.000069
 682	6.7760e+01	12.8724	41.877209	0.000253	2.533662	0.858428	-0.000101
 683	6.7859e+01	12.8323	41.772243	0.000264	2.635009	0.892765	-0.000105
 684	6.7959e+01	12.7938	41.647092	0.000314	3.141741	1.064451	-0.000126
 685	6.8058e+01	12.7408	41.505793	0.000355	3.547127	1.201799	-0.000142
 686	6.8157e+01	12.7071	41.437161	0.000172	1.722890	0.583731	-0.000069
 687	6.8257e+01	12.6686	41.400827	0.000091	0.912118	0.309034	-0.000037
 688	6.8356e+01	12.6285	41.328159	0.000182	1.824237	0.618068	-0.000073
 689	6.8456e+01	12.5868	41.243379	0.000213	2.128276	0.721079	-0.000085
 690	6.8555e+01	12.5579	41.154562	0.000223	2.229623	0.755417	-0.000089
 691	6.8655e+01	12.5114	41.057670	0.000243	2.432316	0.824091	-0.000097
 692	6.8754e+01	12.4697	40.940594	0.000294	2.939048	0.995776	-0.000118
 693	6.8854e+01	12.4360	40.859851	0.000203	2.026930	0.686742	-0.000081
 694	6.8954e+01	12.3847	40.762960	0.000243	2.432316	0.824091	-0.000097
 695	6.9053e+01	12.3494	40.678180	0.000213	2.128276	0.721079	-0.000085
 696	6.9153e+01	12.3237	40.577251	0.000253	2.533662	0.858428	-0.000101
 697	6.9252e+01	12.2740	40.488434	0.000223	2.229623	0.755417	-0.000089
 698	6.9352e+01	12.2210	40.407692	0.000203	2.026930	0.686742	-0.000081
 699	6.9451e+01	12.1890	40.294652	0.000284	2.837702	0.961439	-0.000114
 700	6.9550e+01	12.1537	40.230058	0.000162	1.621544	0.549394	-0.000065
 701	6.9650e+01	12.1168	40.137204	0.000233	2.330969	0.789754	-0.000093
 702	6.9749e+01	12.0654	40.048387	0.000223	2.229623	0.755417	-0.000089
 703	6.9849e+01	12.0382	39.874790	0.000436	4.357899	1.476496	-0.000174
 704	6.9948e+01	11.9900	39.785973	0.000223	2.229623	0.755417	-0.000089
 705	7.0048e+01	11.9467	39.709267	0.000193	1.925583	0.652405	-0.000077
 706	7.0147e+01	11.9082	39.620450	0.000223	2.229623	0.755417	-0.000089
 707	7.0247e+01	11.8649	39.539707	0.000203	2.026930	0.686742	-0.000081
 708	7.0347e+01	11.8328	39.450890	0.000223	2.229623	0.755417	-0.000089
 709	7.0446e+01	11.7831	39.386296	0.000162	1.621544	0.549394	-0.000065
 710	7.0546e+01	11.7558	39.305554	0.000203	2.026930	0.686742	-0.000081
 711	7.0645e+01	11.7157	39.240959	0.000162	1.621544	0.549394	-0.000065
 712	7.0745e+01	11.6772	39.095622	0.000365	3.648473	1.236136	-0.000146
 713	7.0844e+01	11.6355	39.026991	0.000172	1.722890	0.583731	-0.000069
 714	7.0944e+01	11.5826	38.881654	0.000365	3.648473	1.236136	-0.000146
 715	7.1043e+01	11.5569	38.817060	0.000162	1.621544	0.549394	-0.000065
 716	7.1142e+01	11.5184	38.708057	0.000274	2.736355	0.927102	-0.000110
 717	7.1242e+01	11.4767	38.627315	0.000203	2.026930	0.686742	-0.000081
 718	7.1341e+01	11.4366	38.477941	0.000375	3.749820	1.270473	-0.000150
 719	7.1441e+01	11.3949	38.429495	0.000122	1.216158	0.412045	-0.000049
 720	7.1540e+01	11.3580	38.336641	0.000233	2.330969	0.789754	-0.000093
 721	7.1640e+01	11.3098	38.167081	0.000426	4.256552	1.442159	-0.000170
 722	7.1740e+01	11.2745	38.098450	0.000172	1.722890	0.583731	-0.000069
 723	7.1839e+01	11.2296	37.985410	0.000284	2.837702	0.961439	-0.000114
 724	7.1939e+01	11.1863	37.884482	0.000253	2.533662	0.858428	-0.000101
 725	7.2038e+01	11.1542	37.783553	0.000253	2.533662	0.858428	-0.000101
 726	7.2138e+01	11.1125	37.743182	0.000101	1.013465	0.343371	-0.000041
 727	7.2237e+01	11.0756	37.622068	0.000304	3.040395	1.030114	-0.000122
 728	7.2337e+01	11.0387	37.480768	0.000355	3.547127	1.201799	-0.000142
 729	7.2436e+01	10.9906	37.395988	0.000213	2.128276	0.721079	-0.000085
 730	7.2535e+01	10.9585	37.315246	0.000203	2.026930	0.686742	-0.000081
 731	7.2635e+01	10.9104	37.202206	0.000284	2.837702	0.961439	-0.000114
 732	7.2734e+01	10.8687	37.101277	0.000253	2.533662	0.858428	-0.000101
 733	7.2834e+01	10.8334	36.959978	0.000355	3.547127	1.201799	-0.000142
 734	7.2933e+01	10.7965	36.895384	0.000162	1.621544	0.549394	-0.000065
 735	7.3033e+01	10.7516	36.810604	0.000213	2.128276	0.721079	-0.000085
 736	7.3132e+01	10.7066	36.665267	0.000365	3.648473	1.236136	-0.000146
 737	7.3232e+01	10.6746	36.596635	0.000172	1.722890	0.583731	-0.000069
 738	7.3332e+01	10.6313	36.479559	0.000294	2.939048	0.995776	-0.000118
 739	7.3431e+01	10.6056	36.350370	0.000324	3.243087	1.098788	-0.000130
 740	7.3531e+01	10.5510	36.277702	0.000182	1.824237	0.618068	-0.000073
 741	7.3630e+01	10.5109	36.144476	0.000334	3.344434	1.133125	-0.000134
 742	7.3730e+01	10.4821	36.007214	0.000345	3.445780	1.167462	-0.000138
 743	7.3829e+01	10.4339	35.987028	0.000051	0.506732	0.171686	-0.000020
 744	7.3928e+01	10.4002	35.873988	0.000284	2.837702	0.961439	-0.000114
 745	7.4028e+01	10.3569	35.793245	0.000203	2.026930	0.686742	-0.000081
 746	7.4127e+01	10.3152	35.688280	0.000264	2.635009	0.892765	-0.000105
 747	7.4227e+01	10.2799	35.583314	0.000264	2.635009	0.892765	-0.000105
 748	7.4326e+01	10.2302	35.450089	0.000334	3.344434	1.133125	-0.000134
 749	7.4426e+01	10.1885	35.365309	0.000213	2.128276	0.721079	-0.000085
 750	7.4525e+01	10.1596	35.296678	0.000172	1.722890	0.583731	-0.000069
 751	7.4625e+01	10.1147	35.183638	0.000284	2.837702	0.961439	-0.000114
 752	7.4725e+01	10.0762	35.082710	0.000253	2.533662	0.858428	-0.000101
 753	7.4824e+01	10.0313	34.929298	0.000385	3.851166	1.304810	-0.000154
 754	7.4924e+01	9.9960	34.852593	0.000193	1.925583	0.652405	-0.000077
 755	7.5023e+01	9.9543	34.751664	0.000253	2.533662	0.858428	-0.000101
 756	7.5123e+01	9.9174	34.630550	0.000304	3.040395	1.030114	-0.000122
 757	7.5222e+01	9.8741	34.545771	0.000213	2.128276	0.721079	-0.000085
 758	7.5322e+01	9.8420	34.428694	0.000294	2.939048	0.995776	-0.000118
 759	7.5421e+01	9.8115	34.311617	0.000294	2.939048	0.995776	-0.000118
 760	7.5520e+01	9.7521	34.146094	0.000416	4.155206	1.407822	-0.000166
 761	7.5620e+01	9.7104	34.029017	0.000294	2.939048	0.995776	-0.000118
 762	7.5719e+01	9.6815	33.984609	0.000111	1.114811	0.377708	-0.000045
 763	7.5819e+01	9.6446	33.887717	0.000243	2.432316	0.824091	-0.000097
 764	7.5918e+01	9.6126	33.758529	0.000324	3.243087	1.098788	-0.000130
 765	7.6018e+01	9.5580	33.673749	0.000213	2.128276	0.721079	-0.000085
 766	7.6118e+01	9.5147	33.580895	0.000233	2.330969	0.789754	-0.000093
 767	7.6217e+01	9.4778	33.455744	0.000314	3.141741	1.064451	-0.000126
 768	7.6317e+01	9.4473	33.346741	0.000274	2.736355	0.927102	-0.000110
 769	7.6416e+01	9.3944	33.257924	0.000223	2.229623	0.755417	-0.000089
 770	7.6516e+01	9.3607	33.124699	0.000334	3.344434	1.133125	-0.000134
 771	7.6615e+01	9.3206	33.035882	0.000223	2.229623	0.755417	-0.000089
 772	7.6715e+01	9.2853	32.870359	0.000416	4.155206	1.407822	-0.000166
 773	7.6814e+01	9.2436	32.813839	0.000142	1.418851	0.480720	-0.000057
 774	7.6913e+01	9.1987	32.684651	0.000324	3.243087	1.098788	-0.000130
 775	7.7013e+01	9.1570	32.559500	0.000314	3.141741	1.064451	-0.000126
 776	7.7112e+01	9.1217	32.446460	0.000284	2.837702	0.961439	-0.000114
 777	7.7212e+01	9.0832	32.389940	0.000142	1.418851	0.480720	-0.000057
 778	7.7311e+01	9.0415	32.256715	0.000334	3.344434	1.133125	-0.000134
 779	7.7411e+01	9.0014	32.087155	0.000426	4.256552	1.442159	-0.000170
 780	7.7510e+01	8.9677	31.998338	0.000223	2.229623	0.755417	-0.000089
 781	7.7610e+01	8.9260	31.897409	0.000253	2.533662	0.858428	-0.000101
 782	7.7710e+01	8.8891	31.784370	0.000284	2.837702	0.961439	-0.000114
 783	7.7809e+01	8.8393	31.671330	0.000284	2.837702	0.961439	-0.000114
 784	7.7909e+01	8.8008	31.574439	0.000243	2.432316	0.824091	-0.000097
 785	7.8008e+01	8.7623	31.412953	0.000405	4.053859	1.373485	-0.000162
 786	7.8108e+01	8.7254	31.372582	0.000101	1.013465	0.343371	-0.000041
 787	7.8207e+01	8.6741	31.219171	0.000385	3.851166	1.304810	-0.000154
 788	7.8306e+01	8.6436	31.081908	0.000345	3.445780	1.167462	-0.000138
 789	7.8406e+01	8.5923	30.980980	0.000253	2.533662	0.858428	-0.000101
 790	7.8505e+01	8.5666	30.855828	0.000314	3.141741	1.064451	-0.000126
 791	7.8605e+01	8.5185	30.734714	0.000304	3.040395	1.030114	-0.000122
 792	7.8704e+01	8.4896	30.645897	0.000223	2.229623	0.755417	-0.000089
 793	7.8804e+01	8.4335	30.508635	0.000345	3.445780	1.167462	-0.000138
 794	7.8903e+01	8.4046	30.423855	0.000213	2.128276	0.721079	-0.000085
 795	7.9003e+01	8.3677	30.286592	0.000345	3.445780	1.167462	-0.000138
 796	7.9103e+01	8.3228	30.165478	0.000304	3.040395	1.030114	-0.000122
 797	7.9202e+01	8.2923	30.024178	0.000355	3.547127	1.201799	-0.000142
 798	7.9302e+01	8.2442	29.907102	0.000294	2.939048	0.995776	-0.000118
 799	7.9401e+01	8.2024	29.818285	0.000223	2.229623	0.755417	-0.000089
 800	7.9501e+01	8.1607	29.713319	0.000264	2.635009	0.892765	-0.000105
 801	7.9600e+01	8.1319	29.563945	0.000375	3.749820	1.270473	-0.000150
 802	7.9700e+01	8.0853	29.471091	0.000233	2.330969	0.789754	-0.000093
 803	7.9799e+01	8.0436	29.362088	0.000274	2.736355	0.927102	-0.000110
 804	7.9898e+01	8.0003	29.240974	0.000304	3.040395	1.030114	-0.000122
 805	7.9998e+01	7.9730	29.111786	0.000324	3.243087	1.098788	-0.000130
 806	8.0097e+01	7.9313	29.018932	0.000233	2.330969	0.789754	-0.000093
 807	8.0197e+01	7.8848	28.918003	0.000253	2.533662	0.858428	-0.000101
 808	8.0296e+01	7.8431	28.788815	0.000324	3.243087	1.098788	-0.000130
 809	8.0396e+01	7.8078	28.687887	0.000253	2.533662	0.858428	-0.000101
 810	8.0496e+01	7.7661	28.562735	0.000314	3.141741	1.064451	-0.000126
 811	8.0595e+01	7.7180	28.425473	0.000345	3.445780	1.167462	-0.000138
 812	8.0695e+01	7.6875	28.340693	0.000213	2.128276	0.721079	-0.000085
 813	8.0794e+01	7.6394	28.183245	0.000395	3.952513	1.339148	-0.000158
 814	8.0894e+01	7.6121	28.118650	0.000162	1.621544	0.549394	-0.000065
 815	8.0993e+01	7.5575	28.001573	0.000294	2.939048	0.995776	-0.000118
 816	8.1093e+01	7.5287	27.852199	0.000375	3.749820	1.270473	-0.000150
 817	8.1192e+01	7.4805	27.763382	0.000223	2.229623	0.755417	-0.000089
 818	8.1291e+01	7.4468	27.626120	0.000345	3.445780	1.167462	-0.000138
 819	8.1391e+01	7.4051	27.525191	0.000253	2.533662	0.858428	-0.000101
 820	8.1490e+01	7.3714	27.400040	0.000314	3.141741	1.064451	-0.000126
 821	8.1590e+01	7.3313	27.282963	0.000294	2.939048	0.995776	-0.000118
 822	8.1689e+01	7.2864	27.153775	0.000324	3.243087	1.098788	-0.000130
 823	8.1789e+01	7.2527	27.077069	0.000193	1.925583	0.652405	-0.000077
 824	8.1888e+01	7.2078	26.907510	0.000426	4.256552	1.442159	-0.000170
 825	8.1988e+01	7.1709	26.782358	0.000314	3.141741	1.064451	-0.000126
 826	8.2088e+01	7.1212	26.669319	0.000284	2.837702	0.961439	-0.000114
 827	8.2187e+01	7.0907	26.572427	0.000243	2.432316	0.824091	-0.000097
 828	8.2287e+01	7.0474	26.439202	0.000334	3.344434	1.133125	-0.000134
 829	8.2386e+01	7.0025	26.297902	0.000355	3.547127	1.201799	-0.000142
 830	8.2486e+01	6.9640	26.201011	0.000243	2.432316	0.824091	-0.000097
 831	8.2585e+01	6.9239	26.100083	0.000253	2.533662	0.858428	-0.000101
 832	8.2684e+01	6.8918	25.970894	0.000324	3.243087	1.098788	-0.000130
 833	8.2784e+01	6.8453	25.829594	0.000355	3.547127	1.201799	-0.000142
 834	8.2883e+01	6.8100	25.704443	0.000314	3.141741	1.064451	-0.000126
 835	8.2983e+01	6.7586	25.619663	0.000213	2.128276	0.721079	-0.000085
 836	8.3082e+01	6.7282	25.530846	0.000223	2.229623	0.755417	-0.000089
 837	8.3182e+01	6.6993	25.377435	0.000385	3.851166	1.304810	-0.000154
 838	8.3281e+01	6.6528	25.252284	0.000314	3.141741	1.064451	-0.000126
 839	8.3381e+01	6.6191	25.147319	0.000264	2.635009	0.892765	-0.000105
 840	8.3481e+01	6.5741	25.026204	0.000304	3.040395	1.030114	-0.000122
 841	8.3580e+01	6.5180	24.884905	0.000355	3.547127	1.201799	-0.000142
 842	8.3680e+01	6.4891	24.783976	0.000253	2.533662	0.858428	-0.000101
 843	8.3779e+01	6.4474	24.622491	0.000405	4.053859	1.373485	-0.000162
 844	8.3879e+01	6.4185	24.549822	0.000182	1.824237	0.618068	-0.000073
 845	8.3978e+01	6.3720	24.396411	0.000385	3.851166	1.304810	-0.000154
 846	8.4078e+01	6.3319	24.327780	0.000172	1.722890	0.583731	-0.000069
 847	8.4177e+01	6.2950	24.202629	0.000314	3.141741	1.064451	-0.000126
 848	8.4276e+01	6.2517	24.073440	0.000324	3.243087	1.098788	-0.000130
 849	8.4376e+01	6.2116	23.988661	0.000213	2.128276	0.721079	-0.000085
 850	8.4475e+01	6.1763	23.831212	0.000395	3.952513	1.339148	-0.000158
 851	8.4575e+01	6.1362	23.689913	0.000355	3.547127	1.201799	-0.000142
 852	8.4674e+01	6.0961	23.601096	0.000223	2.229623	0.755417	-0.000089
 853	8.4774e+01	6.0544	23.479981	0.000304	3.040395	1.030114	-0.000122
 854	8.4874e+01	6.0111	23.358867	0.000304	3.040395	1.030114	-0.000122
 855	8.4973e+01	5.9806	23.229679	0.000324	3.243087	1.098788	-0.000130
 856	8.5073e+01	5.9308	23.132788	0.000243	2.432316	0.824091	-0.000097
 857	8.5172e+01	5.8972	23.048008	0.000213	2.128276	0.721079	-0.000085
 858	8.5272e+01	5.8571	22.902671	0.000365	3.648473	1.236136	-0.000146
 859	8.5371e+01	5.8153	22.769446	0.000334	3.344434	1.133125	-0.000134
 860	8.5471e+01	5.7688	22.656406	0.000284	2.837702	0.961439	-0.000114
 861	8.5570e+01	5.7319	22.547403	0.000274	2.736355	0.927102	-0.000110
 862	8.5669e+01	5.6966	22.398029	0.000375	3.749820	1.270473	-0.000150
 863	8.5769e+01	5.6533	22.321323	0.000193	1.925583	0.652405	-0.000077
 864	8.5868e+01	5.6132	22.204247	0.000294	2.939048	0.995776	-0.000118
 865	8.5968e+01	5.5635	22.083132	0.000304	3.040395	1.030114	-0.000122
 866	8.6067e+01	5.5394	21.949907	0.000334	3.344434	1.133125	-0.000134
 867	8.6167e+01	5.4881	21.865127	0.000213	2.128276	0.721079	-0.000085
 868	8.6266e+01	5.4544	21.703642	0.000405	4.053859	1.373485	-0.000162
 869	8.6366e+01	5.4223	21.618862	0.000213	2.128276	0.721079	-0.000085
 870	8.6466e+01	5.3806	21.465451	0.000385	3.851166	1.304810	-0.000154
 871	8.6565e+01	5.3373	21.396819	0.000172	1.722890	0.583731	-0.000069
 872	8.6665e+01	5.3004	21.239371	0.000395	3.952513	1.339148	-0.000158
 873	8.6764e+01	5.2603	21.122294	0.000294	2.939048	0.995776	-0.000118
 874	8.6864e+01	5.2138	21.013292	0.000274	2.736355	0.927102	-0.000110
 875	8.6963e+01	5.1769	20.884103	0.000324	3.243087	1.098788	-0.000130
 876	8.7063e+01	5.1368	20.791249	0.000233	2.330969	0.789754	-0.000093
 877	8.7162e+01	5.0918	20.698395	0.000233	2.330969	0.789754	-0.000093
 878	8.7261e+01	5.0581	20.553058	0.000365	3.648473	1.236136	-0.000146
 879	8.7361e+01	5.0277	20.435981	0.000294	2.939048	0.995776	-0.000118
 880	8.7460e+01	4.9763	20.335053	0.000253	2.533662	0.858428	-0.000101
 881	8.7560e+01	4.9410	20.189716	0.000365	3.648473	1.236136	-0.000146
 882	8.7659e+01	4.8929	20.084750	0.000264	2.635009	0.892765	-0.000105
 883	8.7759e+01	4.8544	19.939413	0.000365	3.648473	1.236136	-0.000146
 884	8.7859e+01	4.8207	19.842522	0.000243	2.432316	0.824091	-0.000097
 885	8.7958e+01	4.7790	19.709297	0.000334	3.344434	1.133125	-0.000134
 886	8.8058e+01	4.7357	19.612405	0.000243	2.432316	0.824091	-0.000097
 887	8.8157e+01	4.6940	19.471106	0.000355	3.547127	1.201799	-0.000142
 888	8.8257e+01	4.6539	19.325769	0.000365	3.648473	1.236136	-0.000146
 889	8.8356e+01	4.6218	19.228878	0.000243	2.432316	0.824091	-0.000097
 890	8.8456e+01	4.5881	19.063355	0.000416	4.155206	1.407822	-0.000166
 891	8.8555e+01	4.5432	19.014909	0.000122	1.216158	0.412045	-0.000049
 892	8.8654e+01	4.4967	18.881684	0.000334	3.344434	1.133125	-0.000134
 893	8.8754e+01	4.4582	18.760570	0.000304	3.040395	1.030114	-0.000122
 894	8.8853e+01	4.4229	18.639456	0.000304	3.040395	1.030114	-0.000122
 895	8.8953e+01	4.3812	18.534490	0.000264	2.635009	0.892765	-0.000105
 896	8.9052e+01	4.3427	18.385116	0.000375	3.749820	1.270473	-0.000150
 897	8.9152e+01	4.2977	18.280151	0.000264	2.635009	0.892765	-0.000105
 898	8.9251e+01	4.2624	18.154999	0.000314	3.141741	1.064451	-0.000126
 899	8.9351e+01	4.2223	18.033885	0.000304	3.040395	1.030114	-0.000122
 900	8.9451e+01	4.1774	17.892586	0.000355	3.547127	1.201799	-0.000142
 901	8.9550e+01	4.1453	17.815880	0.000193	1.925583	0.652405	-0.000077
 902	8.9650e+01	4.1004	17.658432	0.000395	3.952513	1.339148	-0.000158
 903	8.9749e+01	4.0619	17.557503	0.000253	2.533662	0.858428	-0.000101
 904	8.9849e+01	4.0298	17.412166	0.000365	3.648473	1.236136	-0.000146
 905	8.9948e+01	3.9849	17.315275	0.000243	2.432316	0.824091	-0.000097
 906	9.0047e+01	3.9352	17.178013	0.000345	3.445780	1.167462	-0.000138
 907	9.0147e+01	3.9047	17.060936	0.000294	2.939048	0.995776	-0.000118
 908	9.0246e+01	3.8614	16.907524	0.000385	3.851166	1.304810	-0.000154
 909	9.0346e+01	3.8229	16.794485	0.000284	2.837702	0.961439	-0.000114
 910	9.0445e+01	3.7860	16.661259	0.000334	3.344434	1.133125	-0.000134
 911	9.0545e+01	3.7491	16.592628	0.000172	1.722890	0.583731	-0.000069
 912	9.0644e+01	3.7042	16.443254	0.000375	3.749820	1.270473	-0.000150
 913	9.0744e+01	3.6625	16.390771	0.000132	1.317504	0.446383	-0.000053
 914	9.0844e+01	3.6159	16.237360	0.000385	3.851166	1.304810	-0.000154
 915	9.0943e+01	3.5710	16.096060	0.000355	3.547127	1.201799	-0.000142
 916	9.1043e+01	3.5470	15.978983	0.000294	2.939048	0.995776	-0.000118
 917	9.1142e+01	3.5069	15.898241	0.000203	2.026930	0.686742	-0.000081
 918	9.1242e+01	3.4635	15.777126	0.000304	3.040395	1.030114	-0.000122
 919	9.1341e+01	3.4186	15.627752	0.000375	3.749820	1.270473	-0.000150
 920	9.1441e+01	3.3881	15.502601	0.000314	3.141741	1.064451	-0.000126
 921	9.1540e+01	3.3416	15.405710	0.000243	2.432316	0.824091	-0.000097
 922	9.1639e+01	3.2967	15.280559	0.000314	3.141741	1.064451	-0.000126
 923	9.1739e+01	3.2710	15.159445	0.000304	3.040395	1.030114	-0.000122
 924	9.1838e+01	3.2261	15.034293	0.000314	3.141741	1.064451	-0.000126
 925	9.1938e+01	3.1780	14.925291	0.000274	2.736355	0.927102	-0.000110
 926	9.2037e+01	3.1491	14.771880	0.000385	3.851166	1.304810	-0.000154
 927	9.2137e+01	3.1106	14.565986	0.000517	5.168671	1.751193	-0.000207
 928	9.2237e+01	3.0753	14.509466	0.000142	1.418851	0.480720	-0.000057
 929	9.2336e+01	3.0208	14.380277	0.000324	3.243087	1.098788	-0.000130
 930	9.2436e+01	2.9919	14.307609	0.000182	1.824237	0.618068	-0.000073
 931	9.2535e+01	2.9470	14.158235	0.000375	3.749820	1.270473	-0.000150
 932	9.2635e+01	2.9149	14.041158	0.000294	2.939048	0.995776	-0.000118
 933	9.2734e+01	2.8587	13.899858	0.000355	3.547127	1.201799	-0.000142
 934	9.2834e+01	2.8299	13.786819	0.000284	2.837702	0.961439	-0.000114
 935	9.2933e+01	2.7769	13.689927	0.000243	2.432316	0.824091	-0.000097
 936	9.3032e+01	2.7497	13.560739	0.000324	3.243087	1.098788	-0.000130
 937	9.3132e+01	2.6983	13.431551	0.000324	3.243087	1.098788	-0.000130
 938	9.3231e+01	2.6694	13.278139	0.000385	3.851166	1.304810	-0.000154
 939	9.3331e+01	2.6245	13.205471	0.000182	1.824237	0.618068	-0.000073
 940	9.3430e+01	2.5860	13.064171	0.000355	3.547127	1.201799	-0.000142
 941	9.3530e+01	2.5475	12.882500	0.000456	4.560592	1.545170	-0.000183
 942	9.3629e+01	2.5138	12.801757	0.000203	2.026930	0.686742	-0.000081
 943	9.3729e+01	2.4657	12.688718	0.000284	2.837702	0.961439	-0.000114
 944	9.3829e+01	2.4288	12.519158	0.000426	4.256552	1.442159	-0.000170
 945	9.3928e+01	2.3871	12.394007	0.000314	3.141741	1.064451	-0.000126
 946	9.4028e+01	2.3486	12.248670	0.000365	3.648473	1.236136	-0.000146
 947	9.4127e+01	2.3021	12.139667	0.000274	2.736355	0.927102	-0.000110
 948	9.4227e+01	2.2652	12.066999	0.000182	1.824237	0.618068	-0.000073
 949	9.4326e+01	2.2251	11.937810	0.000324	3.243087	1.098788	-0.000130
 950	9.4425e+01	2.1866	11.840919	0.000243	2.432316	0.824091	-0.000097
 951	9.4525e+01	2.1497	11.647137	0.000486	4.864631	1.648182	-0.000195
 952	9.4624e+01	2.1096	11.566394	0.000203	2.026930	0.686742	-0.000081
 953	9.4724e+01	2.0679	11.408946	0.000395	3.952513	1.339148	-0.000158
 954	9.4823e+01	2.0278	11.279757	0.000324	3.243087	1.098788	-0.000130
 955	9.4923e+01	1.9941	11.142495	0.000345	3.445780	1.167462	-0.000138
 956	9.5022e+01	1.9556	11.037529	0.000264	2.635009	0.892765	-0.000105
 957	9.5122e+01	1.9074	10.920452	0.000294	2.939048	0.995776	-0.000118
 958	9.5222e+01	1.8737	10.779152	0.000355	3.547127	1.201799	-0.000142
 959	9.5321e+01	1.8272	10.654001	0.000314	3.141741	1.064451	-0.000126
 960	9.5421e+01	1.7919	10.553073	0.000253	2.533662	0.858428	-0.000101
 961	9.5520e+01	1.7406	10.399662	0.000385	3.851166	1.304810	-0.000154
 962	9.5620e+01	1.7101	10.286622	0.000284	2.837702	0.961439	-0.000114
 963	9.5719e+01	1.6732	10.129174	0.000395	3.952513	1.339148	-0.000158
 964	9.5819e+01	1.6395	9.995948	0.000334	3.344434	1.133125	-0.000134
 965	9.5918e+01	1.5914	9.862723	0.000334	3.344434	1.133125	-0.000134
 966	9.6017e+01	1.5561	9.729497	0.000334	3.344434	1.133125	-0.000134
 967	9.6117e+01	1.5144	9.664903	0.000162	1.621544	0.549394	-0.000065
 968	9.6216e+01	1.4711	9.523603	0.000355	3.547127	1.201799	-0.000142
 969	9.6316e+01	1.4310	9.390378	0.000334	3.344434	1.133125	-0.000134
 970	9.6415e+01	1.3957	9.313672	0.000193	1.925583	0.652405	-0.000077
 971	9.6515e+01	1.3556	9.180447	0.000334	3.344434	1.133125	-0.000134
 972	9.6615e+01	1.3155	9.055295	0.000314	3.141741	1.064451	-0.000126
 973	9.6714e+01	1.2657	8.877661	0.000446	4.459245	1.510833	-0.000179
 974	9.6814e+01	1.2272	8.764622	0.000284	2.837702	0.961439	-0.000114
 975	9.6913e+01	1.1919	8.675805	0.000223	2.229623	0.755417	-0.000089
 976	9.7013e+01	1.1486	8.558728	0.000294	2.939048	0.995776	-0.000118
 977	9.7112e+01	1.1198	8.360908	0.000497	4.965978	1.682519	-0.000199
 978	9.7212e+01	1.0684	8.284203	0.000193	1.925583	0.652405	-0.000077
 979	9.7311e+01	1.0363	8.191348	0.000233	2.330969	0.789754	-0.000093
 980	9.7410e+01	0.9882	8.025826	0.000416	4.155206	1.407822	-0.000166
 981	9.7510e+01	0.9497	7.884526	0.000355	3.547127	1.201799	-0.000142
 982	9.7609e+01	0.9160	7.779561	0.000264	2.635009	0.892765	-0.000105
 983	9.7709e+01	0.8759	7.593852	0.000466	4.661938	1.579507	-0.000187
 984	9.7808e+01	0.8342	7.476775	0.000294	2.939048	0.995776	-0.000118
 985	9.7908e+01	0.7925	7.387958	0.000223	2.229623	0.755417	-0.000089
 986	9.8007e+01	0.7524	7.287030	0.000253	2.533662	0.858428	-0.000101
 987	9.8107e+01	0.7139	7.182064	0.000264	2.635009	0.892765	-0.000105
 988	9.8207e+01	0.6738	7.064988	0.000294	2.939048	0.995776	-0.000118
 989	9.8306e+01	0.6369	6.903502	0.000405	4.053859	1.373485	-0.000162
 990	9.8406e+01	0.5952	6.778351	0.000314	3.141741	1.064451	-0.000126
 991	9.8505e+01	0.5599	6.681460	0.000243	2.432316	0.824091	-0.000097
 992	9.8605e+01	0.5182	6.544197	0.000345	3.445780	1.167462	-0.000138
 993	9.8704e+01	0.4716	6.390786	0.000385	3.851166	1.304810	-0.000154
 994	9.8803e+01	0.4380	6.289857	0.000253	2.533662	0.858428	-0.000101
 995	9.8903e+01	0.3946	6.156632	0.000334	3.344434	1.133125	-0.000134
 996	9.9002e+01	0.3561	6.043592	0.000284	2.837702	0.961439	-0.000114
 997	9.9102e+01	0.3160	5.869995	0.000436	4.357899	1.476496	-0.000174
 998	9.9201e+01	0.2791	5.793290	0.000193	1.925583	0.652405	-0.000077
 999	9.9301e+01	0.2342	5.651990	0.000355	3.547127	1.201799	-0.000142
1000	9.9400e+01	0.1957	5.498579	0.000385	3.851166	1.304810	-0.000154
1001	9.9500e+01	0.1556	5.349205	0.000375	3.749820	1.270473	-0.000150
1002	9.9600e+01	0.1139	5.220017	0.000324	3.243087	1.098788	-0.000130
1003	9.9699e+01	0.0738	5.167534	0.000132	1.317504	0.446383	-0.000053
1004	9.9799e+01	0.0337	5.010085	0.000395	3.952513	1.339148	-0.000158
1005	9.9898e+01	0.0080	4.905120	0.000264	2.635009	0.892765	-0.000105
1006	9.9998e+01	-0.0337	4.804192	0.000253	2.533662	0.858428	-0.000101
1007	1.0010e+02	-0.0754	4.691152	0.000284	2.837702	0.961439	-0.000114
1008	1.0020e+02	-0.1139	4.545815	0.000365	3.648473	1.236136	-0.000146
1009	1.0030e+02	-0.1540	4.456998	0.000223	2.229623	0.755417	-0.000089
1010	1.0040e+02	-0.1989	4.335884	0.000304	3.040395	1.030114	-0.000122
1011	1.0050e+02	-0.2326	4.182473	0.000385	3.851166	1.304810	-0.000154
1012	1.0059e+02	-0.2615	4.073470	0.000274	2.736355	0.927102	-0.000110
1013	1.0069e+02	-0.3225	3.952356	0.000304	3.040395	1.030114	-0.000122
1014	1.0079e+02	-0.3577	3.851427	0.000253	2.533662	0.858428	-0.000101
1015	1.0089e+02	-0.3995	3.693979	0.000395	3.952513	1.339148	-0.000158
1016	1.0099e+02	-0.4364	3.597088	0.000243	2.432316	0.824091	-0.000097
1017	1.0109e+02	-0.4749	3.496160	0.000253	2.533662	0.858428	-0.000101
1018	1.0119e+02	-0.5246	3.314488	0.000456	4.560592	1.545170	-0.000183
1019	1.0129e+02	-0.5551	3.185300	0.000324	3.243087	1.098788	-0.000130
1020	1.0139e+02	-0.5936	3.060149	0.000314	3.141741	1.064451	-0.000126
1021	1.0149e+02	-0.6353	2.939035	0.000304	3.040395	1.030114	-0.000122
1022	1.0159e+02	-0.6818	2.858292	0.000203	2.026930	0.686742	-0.000081
1023	1.0169e+02	-0.7123	2.733141	0.000314	3.141741	1.064451	-0.000126
1024	1.0179e+02	-0.7572	2.628175	0.000264	2.635009	0.892765	-0.000105
1025	1.0189e+02	-0.8037	2.498987	0.000324	3.243087	1.098788	-0.000130
1026	1.0199e+02	-0.8390	2.353650	0.000365	3.648473	1.236136	-0.000146
1027	1.0209e+02	-0.8663	2.268870	0.000213	2.128276	0.721079	-0.000085
1028	1.0219e+02	-0.9144	2.135645	0.000334	3.344434	1.133125	-0.000134
1029	1.0229e+02	-0.9561	2.010494	0.000314	3.141741	1.064451	-0.000126
1030	1.0239e+02	-0.9946	1.885342	0.000314	3.141741	1.064451	-0.000126
1031	1.0248e+02	-1.0411	1.756154	0.000324	3.243087	1.098788	-0.000130
1032	1.0258e+02	-1.0732	1.671374	0.000213	2.128276	0.721079	-0.000085
1033	1.0268e+02	-1.1182	1.530074	0.000355	3.547127	1.201799	-0.000142
1034	1.0278e+02	-1.1550	1.404923	0.000314	3.141741	1.064451	-0.000126
1035	1.0288e+02	-1.2016	1.299958	0.000264	2.635009	0.892765	-0.000105
1036	1.0298e+02	-1.2240	1.178844	0.000304	3.040395	1.030114	-0.000122
1037	1.0308e+02	-1.2754	1.045618	0.000334	3.344434	1.133125	-0.000134
1038	1.0318e+02	-1.3091	0.908356	0.000345	3.445780	1.167462	-0.000138
1039	1.0328e+02	-1.3524	0.779167	0.000324	3.243087	1.098788	-0.000130
1040	1.0338e+02	-1.3764	0.658053	0.000304	3.040395	1.030114	-0.000122
1041	1.0348e+02	-1.4326	0.528865	0.000324	3.243087	1.098788	-0.000130
1042	1.0358e+02	-1.4663	0.444085	0.000213	2.128276	0.721079	-0.000085
1043	1.0368e+02	-1.5144	0.343157	0.000253	2.533662	0.858428	-0.000101
1044	1.0378e+02	-1.5449	0.222042	0.000304	3.040395	1.030114	-0.000122
1045	1.0388e+02	-1.5914	0.113040	0.000274	2.736355	0.927102	-0.000110
1046	1.0398e+02	-1.6283	0.008074	0.000264	2.635009	0.892765	-0.000105
1047	1.0408e+02	-1.6652	-0.117077	0.000314	3.141741	1.064451	-0.000126
1048	1.0418e+02	-1.7117	-0.254340	0.000345	3.445780	1.167462	-0.000138
1049	1.0428e+02	-1.7614	-0.347194	0.000233	2.330969	0.789754	-0.000093
1050	1.0438e+02	-1.7951	-0.496568	0.000375	3.749820	1.270473	-0.000150
1051	1.0447e+02	-1.8320	-0.601533	0.000264	2.635009	0.892765	-0.000105
1052	1.0457e+02	-1.8689	-0.718610	0.000294	2.939048	0.995776	-0.000118
1053	1.0467e+02	-1.9122	-0.827613	0.000274	2.736355	0.927102	-0.000110
1054	1.0477e+02	-1.9411	-0.989098	0.000405	4.053859	1.373485	-0.000162
1055	1.0487e+02	-1.9844	-1.114249	0.000314	3.141741	1.064451	-0.000126
1056	1.0497e+02	-2.0278	-1.263623	0.000375	3.749820	1.270473	-0.000150
1057	1.0507e+02	-2.0598	-1.380700	0.000294	2.939048	0.995776	-0.000118
1058	1.0517e+02	-2.1048	-1.481629	0.000253	2.533662	0.858428	-0.000101
1059	1.0527e+02	-2.1481	-1.598706	0.000294	2.939048	0.995776	-0.000118
1060	1.0537e+02	-2.1818	-1.663300	0.000162	1.621544	0.549394	-0.000065
1061	1.0547e+02	-2.2283	-1.788451	0.000314	3.141741	1.064451	-0.000126
1062	1.0557e+02	-2.2620	-1.929751	0.000355	3.547127	1.201799	-0.000142
1063	1.0567e+02	-2.3021	-2.038754	0.000274	2.736355	0.927102	-0.000110
1064	1.0577e+02	-2.3470	-2.176016	0.000345	3.445780	1.167462	-0.000138
1065	1.0587e+02	-2.3823	-2.301167	0.000314	3.141741	1.064451	-0.000126
1066	1.0597e+02	-2.4320	-2.422281	0.000304	3.040395	1.030114	-0.000122
1067	1.0607e+02	-2.4673	-2.535321	0.000284	2.837702	0.961439	-0.000114
1068	1.0617e+02	-2.5074	-2.644324	0.000274	2.736355	0.927102	-0.000110
1069	1.0627e+02	-2.5507	-2.777549	0.000334	3.344434	1.133125	-0.000134
1070	1.0637e+02	-2.5860	-2.934998	0.000395	3.952513	1.339148	-0.000158
1071	1.0647e+02	-2.6293	-3.007666	0.000182	1.824237	0.618068	-0.000073
1072	1.0656e+02	-2.6662	-3.124743	0.000294	2.939048	0.995776	-0.000118
1073	1.0666e+02	-2.7176	-3.229709	0.000264	2.635009	0.892765	-0.000105
1074	1.0676e+02	-2.7513	-3.375045	0.000365	3.648473	1.236136	-0.000146
1075	1.0686e+02	-2.7785	-3.488085	0.000284	2.837702	0.961439	-0.000114
1076	1.0696e+02	-2.8234	-3.629385	0.000355	3.547127	1.201799	-0.000142
1077	1.0706e+02	-2.8636	-3.722239	0.000233	2.330969	0.789754	-0.000093
1078	1.0716e+02	-2.9021	-3.855465	0.000334	3.344434	1.133125	-0.000134
1079	1.0726e+02	-2.9470	-3.984653	0.000324	3.243087	1.098788	-0.000130
1080	1.0736e+02	-2.9759	-4.089619	0.000264	2.635009	0.892765	-0.000105
1081	1.0746e+02	-3.0256	-4.206695	0.000294	2.939048	0.995776	-0.000118
1082	1.0756e+02	-3.0641	-4.327810	0.000304	3.040395	1.030114	-0.000122
1083	1.0766e+02	-3.1058	-4.440849	0.000284	2.837702	0.961439	-0.000114
1084	1.0776e+02	-3.1363	-4.545815	0.000264	2.635009	0.892765	-0.000105
1085	1.0786e+02	-3.1908	-4.658855	0.000284	2.837702	0.961439	-0.000114
1086	1.0796e+02	-3.2197	-4.796117	0.000345	3.445780	1.167462	-0.000138
1087	1.0806e+02	-3.2678	-4.941454	0.000365	3.648473	1.236136	-0.000146
1088	1.0816e+02	-3.3063	-5.038345	0.000243	2.432316	0.824091	-0.000097
1089	1.0826e+02	-3.3352	-5.167534	0.000324	3.243087	1.098788	-0.000130
1090	1.0836e+02	-3.3817	-5.284611	0.000294	2.939048	0.995776	-0.000118
1091	1.0845e+02	-3.4234	-5.397650	0.000284	2.837702	0.961439	-0.000114
1092	1.0855e+02	-3.4651	-5.551062	0.000385	3.851166	1.304810	-0.000154
1093	1.0865e+02	-3.4940	-5.623730	0.000182	1.824237	0.618068	-0.000073
1094	1.0875e+02	-3.5325	-5.773104	0.000375	3.749820	1.270473	-0.000150
1095	1.0885e+02	-3.5823	-5.869995	0.000243	2.432316	0.824091	-0.000097
1096	1.0895e+02	-3.6208	-5.991109	0.000304	3.040395	1.030114	-0.000122
1097	1.0905e+02	-3.6609	-6.160669	0.000426	4.256552	1.442159	-0.000170
1098	1.0915e+02	-3.6962	-6.229300	0.000172	1.722890	0.583731	-0.000069
1099	1.0925e+02	-3.7363	-6.374637	0.000365	3.648473	1.236136	-0.000146
1100	1.0935e+02	-3.7796	-6.479603	0.000264	2.635009	0.892765	-0.000105
1101	1.0945e+02	-3.8165	-6.572457	0.000233	2.330969	0.789754	-0.000093
1102	1.0955e+02	-3.8486	-6.729905	0.000395	3.952513	1.339148	-0.000158
1103	1.0965e+02	-3.9031	-6.842945	0.000284	2.837702	0.961439	-0.000114
1104	1.0975e+02	-3.9448	-6.964059	0.000304	3.040395	1.030114	-0.000122
1105	1.0985e+02	-3.9817	-7.089210	0.000314	3.141741	1.064451	-0.000126
1106	1.0995e+02	-4.0314	-7.226473	0.000345	3.445780	1.167462	-0.000138
1107	1.1005e+02	-4.0731	-7.363736	0.000345	3.445780	1.167462	-0.000138
1108	1.1015e+02	-4.1116	-7.448515	0.000213	2.128276	0.721079	-0.000085
1109	1.1025e+02	-4.1502	-7.573667	0.000314	3.141741	1.064451	-0.000126
1110	1.1035e+02	-4.1822	-7.674595	0.000253	2.533662	0.858428	-0.000101
1111	1.1044e+02	-4.2239	-7.815895	0.000355	3.547127	1.201799	-0.000142
1112	1.1054e+02	-4.2624	-7.981417	0.000416	4.155206	1.407822	-0.000166
1113	1.1064e+02	-4.2993	-8.062160	0.000203	2.026930	0.686742	-0.000081
1114	1.1074e+02	-4.3330	-8.195386	0.000334	3.344434	1.133125	-0.000134
1115	1.1084e+02	-4.3731	-8.300351	0.000264	2.635009	0.892765	-0.000105
1116	1.1094e+02	-4.4165	-8.437614	0.000345	3.445780	1.167462	-0.000138
1117	1.1104e+02	-4.4598	-8.570839	0.000334	3.344434	1.133125	-0.000134
1118	1.1114e+02	-4.4935	-8.720213	0.000375	3.749820	1.270473	-0.000150
1119	1.1124e+02	-4.5384	-8.804993	0.000213	2.128276	0.721079	-0.000085
1120	1.1134e+02	-4.5705	-8.913996	0.000274	2.736355	0.927102	-0.000110
1121	1.1144e+02	-4.6170	-9.059333	0.000365	3.648473	1.236136	-0.000146
1122	1.1154e+02	-4.6603	-9.208707	0.000375	3.749820	1.270473	-0.000150
1123	1.1164e+02	-4.6988	-9.305598	0.000243	2.432316	0.824091	-0.000097
1124	1.1174e+02	-4.7405	-9.430749	0.000314	3.141741	1.064451	-0.000126
1125	1.1184e+02	-4.7822	-9.555900	0.000314	3.141741	1.064451	-0.000126
1126	1.1194e+02	-4.8159	-9.685089	0.000324	3.243087	1.098788	-0.000130
1127	1.1204e+02	-4.8592	-9.830426	0.000365	3.648473	1.236136	-0.000146
1128	1.1214e+02	-4.8945	-9.903094	0.000182	1.824237	0.618068	-0.000073
1129	1.1224e+02	-4.9250	-10.056505	0.000385	3.851166	1.304810	-0.000154
1130	1.1234e+02	-4.9795	-10.181656	0.000314	3.141741	1.064451	-0.000126
1131	1.1244e+02	-5.0212	-10.310845	0.000324	3.243087	1.098788	-0.000130
1132	1.1253e+02	-5.0614	-10.371402	0.000152	1.520197	0.515057	-0.000061
1133	1.1263e+02	-5.0918	-10.500590	0.000324	3.243087	1.098788	-0.000130
1134	1.1273e+02	-5.1335	-10.674187	0.000436	4.357899	1.476496	-0.000174
1135	1.1283e+02	-5.1769	-10.779152	0.000264	2.635009	0.892765	-0.000105
1136	1.1293e+02	-5.2105	-10.880081	0.000253	2.533662	0.858428	-0.000101
1137	1.1303e+02	-5.2523	-11.017343	0.000345	3.445780	1.167462	-0.000138
1138	1.1313e+02	-5.2859	-11.130383	0.000284	2.837702	0.961439	-0.000114
1139	1.1323e+02	-5.3421	-11.251497	0.000304	3.040395	1.030114	-0.000122
1140	1.1333e+02	-5.3742	-11.400871	0.000375	3.749820	1.270473	-0.000150
1141	1.1343e+02	-5.4175	-11.513911	0.000284	2.837702	0.961439	-0.000114
1142	1.1353e+02	-5.4592	-11.598691	0.000213	2.128276	0.721079	-0.000085
1143	1.1363e+02	-5.4961	-11.735954	0.000345	3.445780	1.167462	-0.000138
1144	1.1373e+02	-5.5330	-11.836882	0.000253	2.533662	0.858428	-0.000101
1145	1.1383e+02	-5.5827	-12.006442	0.000426	4.256552	1.442159	-0.000170
1146	1.1393e+02	-5.6100	-12.107370	0.000253	2.533662	0.858428	-0.000101
1147	1.1403e+02	-5.6469	-12.212336	0.000264	2.635009	0.892765	-0.000105
1148	1.1413e+02	-5.6870	-12.309227	0.000243	2.432316	0.824091	-0.000097
1149	1.1423e+02	-5.7271	-12.450527	0.000355	3.547127	1.201799	-0.000142
1150	1.1433e+02	-5.7752	-12.555492	0.000264	2.635009	0.892765	-0.000105
1151	1.1442e+02	-5.8041	-12.684680	0.000324	3.243087	1.098788	-0.000130
1152	1.1452e+02	-5.8522	-12.813869	0.000324	3.243087	1.098788	-0.000130
1153	1.1462e+02	-5.8923	-12.947094	0.000334	3.344434	1.133125	-0.000134
1154	1.1472e+02	-5.9325	-13.056097	0.000274	2.736355	0.927102	-0.000110
1155	1.1482e+02	-5.9613	-13.185285	0.000324	3.243087	1.098788	-0.000130
1156	1.1492e+02	-6.0175	-13.306399	0.000304	3.040395	1.030114	-0.000122
1157	1.1502e+02	-6.0528	-13.443662	0.000345	3.445780	1.167462	-0.000138
1158	1.1512e+02	-6.0945	-13.548628	0.000264	2.635009	0.892765	-0.000105
1159	1.1522e+02	-6.1298	-13.665704	0.000294	2.939048	0.995776	-0.000118
1160	1.1532e+02	-6.1779	-13.798930	0.000334	3.344434	1.133125	-0.000134
1161	1.1542e+02	-6.2116	-13.903895	0.000264	2.635009	0.892765	-0.000105
1162	1.1552e+02	-6.2469	-14.041158	0.000345	3.445780	1.167462	-0.000138
1163	1.1562e+02	-6.2934	-14.178421	0.000345	3.445780	1.167462	-0.000138
1164	1.1572e+02	-6.3399	-14.287423	0.000274	2.736355	0.927102	-0.000110
1165	1.1582e+02	-6.3736	-14.372203	0.000213	2.128276	0.721079	-0.000085
1166	1.1592e+02	-6.4089	-14.541763	0.000426	4.256552	1.442159	-0.000170
1167	1.1602e+02	-6.4426	-14.666914	0.000314	3.141741	1.064451	-0.000126
1168	1.1612e+02	-6.4923	-14.727471	0.000152	1.520197	0.515057	-0.000061
1169	1.1622e+02	-6.5260	-14.905105	0.000446	4.459245	1.510833	-0.000179
1170	1.1632e+02	-6.5709	-14.989885	0.000213	2.128276	0.721079	-0.000085
1171	1.1642e+02	-6.6046	-15.106962	0.000294	2.939048	0.995776	-0.000118
1172	1.1651e+02	-6.6528	-15.240187	0.000334	3.344434	1.133125	-0.000134
1173	1.1661e+02	-6.6848	-15.341116	0.000253	2.533662	0.858428	-0.000101
1174	1.1671e+02	-6.7362	-15.470304	0.000324	3.243087	1.098788	-0.000130
1175	1.1681e+02	-6.7715	-15.559121	0.000223	2.229623	0.755417	-0.000089
1176	1.1691e+02	-6.7971	-15.688309	0.000324	3.243087	1.098788	-0.000130
1177	1.1701e+02	-6.8453	-15.801349	0.000284	2.837702	0.961439	-0.000114
1178	1.1711e+02	-6.8966	-15.934575	0.000334	3.344434	1.133125	-0.000134
1179	1.1721e+02	-6.9239	-16.079912	0.000365	3.648473	1.236136	-0.000146
1180	1.1731e+02	-6.9752	-16.205063	0.000314	3.141741	1.064451	-0.000126
1181	1.1741e+02	-7.0041	-16.297917	0.000233	2.330969	0.789754	-0.000093
1182	1.1751e+02	-7.0538	-16.390771	0.000233	2.330969	0.789754	-0.000093
1183	1.1761e+02	-7.0923	-16.552257	0.000405	4.053859	1.373485	-0.000162
1184	1.1771e+02	-7.1324	-16.665296	0.000284	2.837702	0.961439	-0.000114
1185	1.1781e+02	-7.1645	-16.750076	0.000213	2.128276	0.721079	-0.000085
1186	1.1791e+02	-7.1966	-16.871190	0.000304	3.040395	1.030114	-0.000122
1187	1.1801e+02	-7.2447	-16.988267	0.000294	2.939048	0.995776	-0.000118
1188	1.1811e+02	-7.2848	-17.125530	0.000345	3.445780	1.167462	-0.000138
1189	1.1821e+02	-7.3265	-17.242607	0.000294	2.939048	0.995776	-0.000118
1190	1.1831e+02	-7.3650	-17.343535	0.000253	2.533662	0.858428	-0.000101
1191	1.1841e+02	-7.3971	-17.492909	0.000375	3.749820	1.270473	-0.000150
1192	1.1850e+02	-7.4468	-17.585763	0.000233	2.330969	0.789754	-0.000093
1193	1.1860e+02	-7.4870	-17.718989	0.000334	3.344434	1.133125	-0.000134
1194	1.1870e+02	-7.5222	-17.791657	0.000182	1.824237	0.618068	-0.000073
1195	1.1880e+02	-7.5640	-17.945068	0.000385	3.851166	1.304810	-0.000154
1196	1.1890e+02	-7.6073	-18.070220	0.000314	3.141741	1.064451	-0.000126
1197	1.1900e+02	-7.6394	-18.187296	0.000294	2.939048	0.995776	-0.000118
1198	1.1910e+02	-7.6859	-18.280151	0.000233	2.330969	0.789754	-0.000093
1199	1.1920e+02	-7.7244	-18.385116	0.000264	2.635009	0.892765	-0.000105
1200	1.1930e+02	-7.7629	-18.510267	0.000314	3.141741	1.064451	-0.000126
1201	1.1940e+02	-7.8030	-18.607159	0.000243	2.432316	0.824091	-0.000097
1202	1.1950e+02	-7.8479	-18.748458	0.000355	3.547127	1.201799	-0.000142
1203	1.1960e+02	-7.8784	-18.857461	0.000274	2.736355	0.927102	-0.000110
1204	1.1970e+02	-7.9233	-18.934167	0.000193	1.925583	0.652405	-0.000077
1205	1.1980e+02	-7.9538	-19.059318	0.000314	3.141741	1.064451	-0.000126
1206	1.1990e+02	-8.0035	-19.192543	0.000334	3.344434	1.133125	-0.000134
1207	1.2000e+02	-8.0436	-19.277323	0.000213	2.128276	0.721079	-0.000085
1208	1.2010e+02	-8.0757	-19.402474	0.000314	3.141741	1.064451	-0.000126
1209	1.2020e+02	-8.1222	-19.515514	0.000284	2.837702	0.961439	-0.000114
1210	1.2030e+02	-8.1607	-19.640665	0.000314	3.141741	1.064451	-0.000126
1211	1.2039e+02	-8.2040	-19.745631	0.000264	2.635009	0.892765	-0.000105
1212	1.2049e+02	-8.2538	-19.866745	0.000304	3.040395	1.030114	-0.000122
1213	1.2059e+02	-8.2827	-19.943451	0.000193	1.925583	0.652405	-0.000077
1214	1.2069e+02	-8.3244	-20.084750	0.000355	3.547127	1.201799	-0.000142
1215	1.2079e+02	-8.3597	-20.197790	0.000284	2.837702	0.961439	-0.000114
1216	1.2089e+02	-8.3982	-20.302756	0.000264	2.635009	0.892765	-0.000105
1217	1.2099e+02	-8.4431	-20.440018	0.000345	3.445780	1.167462	-0.000138
1218	1.2109e+02	-8.4880	-20.573244	0.000334	3.344434	1.133125	-0.000134
1219	1.2119e+02	-8.5169	-20.674172	0.000253	2.533662	0.858428	-0.000101
1220	1.2129e+02	-8.5554	-20.767026	0.000233	2.330969	0.789754	-0.000093
1221	1.2139e+02	-8.6003	-20.855843	0.000223	2.229623	0.755417	-0.000089
1222	1.2149e+02	-8.6404	-20.976957	0.000304	3.040395	1.030114	-0.000122
1223	1.2159e+02	-8.6805	-21.085960	0.000274	2.736355	0.927102	-0.000110
1224	1.2169e+02	-8.7222	-21.239371	0.000385	3.851166	1.304810	-0.000154
1225	1.2179e+02	-8.7655	-21.324151	0.000213	2.128276	0.721079	-0.000085
1226	1.2189e+02	-8.7976	-21.509859	0.000466	4.661938	1.579507	-0.000187
1227	1.2199e+02	-8.8345	-21.610788	0.000253	2.533662	0.858428	-0.000101
1228	1.2209e+02	-8.8762	-21.707679	0.000243	2.432316	0.824091	-0.000097
1229	1.2219e+02	-8.9324	-21.792459	0.000213	2.128276	0.721079	-0.000085
1230	1.2229e+02	-8.9628	-21.945870	0.000385	3.851166	1.304810	-0.000154
1231	1.2239e+02	-8.9949	-22.034687	0.000223	2.229623	0.755417	-0.000089
1232	1.2248e+02	-9.0238	-22.188098	0.000385	3.851166	1.304810	-0.000154
1233	1.2258e+02	-9.0735	-22.248655	0.000152	1.520197	0.515057	-0.000061
1234	1.2268e+02	-9.1169	-22.369769	0.000304	3.040395	1.030114	-0.000122
1235	1.2278e+02	-9.1570	-22.498957	0.000324	3.243087	1.098788	-0.000130
1236	1.2288e+02	-9.1971	-22.591812	0.000233	2.330969	0.789754	-0.000093
1237	1.2298e+02	-9.2404	-22.721000	0.000324	3.243087	1.098788	-0.000130
1238	1.2308e+02	-9.2773	-22.866337	0.000365	3.648473	1.236136	-0.000146
1239	1.2318e+02	-9.3190	-22.967265	0.000253	2.533662	0.858428	-0.000101
1240	1.2328e+02	-9.3527	-23.076268	0.000274	2.736355	0.927102	-0.000110
1241	1.2338e+02	-9.3976	-23.157011	0.000203	2.026930	0.686742	-0.000081
1242	1.2348e+02	-9.4313	-23.298310	0.000355	3.547127	1.201799	-0.000142
1243	1.2358e+02	-9.4746	-23.423462	0.000314	3.141741	1.064451	-0.000126
1244	1.2368e+02	-9.5147	-23.492093	0.000172	1.722890	0.583731	-0.000069
1245	1.2378e+02	-9.5532	-23.649541	0.000395	3.952513	1.339148	-0.000158
1246	1.2388e+02	-9.5981	-23.754507	0.000264	2.635009	0.892765	-0.000105
1247	1.2398e+02	-9.6254	-23.883695	0.000324	3.243087	1.098788	-0.000130
1248	1.2408e+02	-9.6767	-23.968475	0.000213	2.128276	0.721079	-0.000085
1249	1.2418e+02	-9.7200	-24.093626	0.000314	3.141741	1.064451	-0.000126
1250	1.2428e+02	-9.7634	-24.178406	0.000213	2.128276	0.721079	-0.000085
1251	1.2438e+02	-9.7922	-24.299520	0.000304	3.040395	1.030114	-0.000122
1252	1.2447e+02	-9.8356	-24.436783	0.000345	3.445780	1.167462	-0.000138
1253	1.2457e+02	-9.8724	-24.549822	0.000284	2.837702	0.961439	-0.000114
1254	1.2467e+02	-9.9158	-24.646714	0.000243	2.432316	0.824091	-0.000097
1255	1.2477e+02	-9.9527	-24.739568	0.000233	2.330969	0.789754	-0.000093
1256	1.2487e+02	-9.9960	-24.832422	0.000233	2.330969	0.789754	-0.000093
1257	1.2497e+02	-10.0297	-24.973722	0.000355	3.547127	1.201799	-0.000142
1258	1.2507e+02	-10.0698	-25.110984	0.000345	3.445780	1.167462	-0.000138
1259	1.2517e+02	-10.1083	-25.240173	0.000324	3.243087	1.098788	-0.000130
1260	1.2527e+02	-10.1468	-25.337064	0.000243	2.432316	0.824091	-0.000097
1261	1.2537e+02	-10.1917	-25.437992	0.000253	2.533662	0.858428	-0.000101
1262	1.2547e+02	-10.2286	-25.546995	0.000274	2.736355	0.927102	-0.000110
1263	1.2557e+02	-10.2703	-25.688295	0.000355	3.547127	1.201799	-0.000142
1264	1.2567e+02	-10.3056	-25.789223	0.000253	2.533662	0.858428	-0.000101
1265	1.2577e+02	-10.3521	-25.865929	0.000193	1.925583	0.652405	-0.000077
1266	1.2587e+02	-10.3874	-26.011266	0.000365	3.648473	1.236136	-0.000146
1267	1.2597e+02	-10.4339	-26.120268	0.000274	2.736355	0.927102	-0.000110
1268	1.2607e+02	-10.4756	-26.237345	0.000294	2.939048	0.995776	-0.000118
1269	1.2617e+02	-10.5141	-26.346348	0.000274	2.736355	0.927102	-0.000110
1270	1.2627e+02	-10.5542	-26.447276	0.000253	2.533662	0.858428	-0.000101
1271	1.2636e+02	-10.5927	-26.596650	0.000375	3.749820	1.270473	-0.000150
1272	1.2646e+02	-10.6393	-26.693541	0.000243	2.432316	0.824091	-0.000097
1273	1.2656e+02	-10.6778	-26.802544	0.000274	2.736355	0.927102	-0.000110
1274	1.2666e+02	-10.7179	-26.911547	0.000274	2.736355	0.927102	-0.000110
1275	1.2676e+02	-10.7484	-27.056884	0.000365	3.648473	1.236136	-0.000146
1276	1.2686e+02	-10.7837	-27.190109	0.000334	3.344434	1.133125	-0.000134
1277	1.2696e+02	-10.8270	-27.278926	0.000223	2.229623	0.755417	-0.000089
1278	1.2706e+02	-10.8783	-27.436374	0.000395	3.952513	1.339148	-0.000158
1279	1.2716e+02	-10.9056	-27.525191	0.000223	2.229623	0.755417	-0.000089
1280	1.2726e+02	-10.9489	-27.605934	0.000203	2.026930	0.686742	-0.000081
1281	1.2736e+02	-10.9954	-27.710900	0.000264	2.635009	0.892765	-0.000105
1282	1.2746e+02	-11.0339	-27.819902	0.000274	2.736355	0.927102	-0.000110
1283	1.2756e+02	-11.0756	-27.941016	0.000304	3.040395	1.030114	-0.000122
1284	1.2766e+02	-11.1077	-28.070205	0.000324	3.243087	1.098788	-0.000130
1285	1.2776e+02	-11.1462	-28.191319	0.000304	3.040395	1.030114	-0.000122
1286	1.2786e+02	-11.1927	-28.308396	0.000294	2.939048	0.995776	-0.000118
1287	1.2796e+02	-11.2248	-28.465844	0.000395	3.952513	1.339148	-0.000158
1288	1.2806e+02	-11.2762	-28.546587	0.000203	2.026930	0.686742	-0.000081
1289	1.2816e+02	-11.3082	-28.671738	0.000314	3.141741	1.064451	-0.000126
1290	1.2826e+02	-11.3596	-28.784778	0.000284	2.837702	0.961439	-0.000114
1291	1.2835e+02	-11.3965	-28.869558	0.000213	2.128276	0.721079	-0.000085
1292	1.2845e+02	-11.4366	-28.970486	0.000253	2.533662	0.858428	-0.000101
1293	1.2855e+02	-11.4687	-29.107749	0.000345	3.445780	1.167462	-0.000138
1294	1.2865e+02	-11.5007	-29.236937	0.000324	3.243087	1.098788	-0.000130
1295	1.2875e+02	-11.5489	-29.402460	0.000416	4.155206	1.407822	-0.000166
1296	1.2885e+02	-11.5729	-29.535685	0.000334	3.344434	1.133125	-0.000134
1297	1.2895e+02	-11.6291	-29.604316	0.000172	1.722890	0.583731	-0.000069
1298	1.2905e+02	-11.6644	-29.717356	0.000284	2.837702	0.961439	-0.000114
1299	1.2915e+02	-11.7061	-29.826359	0.000274	2.736355	0.927102	-0.000110
1300	1.2925e+02	-11.7414	-29.939399	0.000284	2.837702	0.961439	-0.000114
1301	1.2935e+02	-11.7863	-30.056476	0.000294	2.939048	0.995776	-0.000118
1302	1.2945e+02	-11.8264	-30.161441	0.000264	2.635009	0.892765	-0.000105
1303	1.2955e+02	-11.8601	-30.290629	0.000324	3.243087	1.098788	-0.000130
1304	1.2965e+02	-11.8986	-30.407706	0.000294	2.939048	0.995776	-0.000118
1305	1.2975e+02	-11.9435	-30.553043	0.000365	3.648473	1.236136	-0.000146
1306	1.2985e+02	-11.9900	-30.605526	0.000132	1.317504	0.446383	-0.000053
1307	1.2995e+02	-12.0301	-30.754900	0.000375	3.749820	1.270473	-0.000150
1308	1.3005e+02	-12.0735	-30.880051	0.000314	3.141741	1.064451	-0.000126
1309	1.3015e+02	-12.1039	-30.997128	0.000294	2.939048	0.995776	-0.000118
1310	1.3025e+02	-12.1408	-31.069797	0.000182	1.824237	0.618068	-0.000073
1311	1.3034e+02	-12.1858	-31.223208	0.000385	3.851166	1.304810	-0.000154
1312	1.3044e+02	-12.2339	-31.360470	0.000345	3.445780	1.167462	-0.000138
1313	1.3054e+02	-12.2612	-31.461399	0.000253	2.533662	0.858428	-0.000101
1314	1.3064e+02	-12.2980	-31.574439	0.000284	2.837702	0.961439	-0.000114
1315	1.3074e+02	-12.3462	-31.667293	0.000233	2.330969	0.789754	-0.000093
1316	1.3084e+02	-12.3831	-31.768221	0.000253	2.533662	0.858428	-0.000101
1317	1.3094e+02	-12.4312	-31.921632	0.000385	3.851166	1.304810	-0.000154
1318	1.3104e+02	-12.4681	-32.014486	0.000233	2.330969	0.789754	-0.000093
1319	1.3114e+02	-12.5082	-32.123489	0.000274	2.736355	0.927102	-0.000110
1320	1.3124e+02	-12.5467	-32.244603	0.000304	3.040395	1.030114	-0.000122
1321	1.3134e+02	-12.5868	-32.345532	0.000253	2.533662	0.858428	-0.000101
1322	1.3144e+02	-12.6189	-32.442423	0.000243	2.432316	0.824091	-0.000097
1323	1.3154e+02	-12.6622	-32.543351	0.000253	2.533662	0.858428	-0.000101
1324	1.3164e+02	-12.7071	-32.700799	0.000395	3.952513	1.339148	-0.000158
1325	1.3174e+02	-12.7408	-32.809802	0.000274	2.736355	0.927102	-0.000110
1326	1.3184e+02	-12.7873	-32.930916	0.000304	3.040395	1.030114	-0.000122
1327	1.3194e+02	-12.8226	-33.043956	0.000284	2.837702	0.961439	-0.000114
1328	1.3204e+02	-12.8740	-33.165070	0.000304	3.040395	1.030114	-0.000122
1329	1.3214e+02	-12.8964	-33.286184	0.000304	3.040395	1.030114	-0.000122
1330	1.3224e+02	-12.9397	-33.403261	0.000294	2.939048	0.995776	-0.000118
1331	1.3234e+02	-12.9750	-33.479967	0.000193	1.925583	0.652405	-0.000077
1332	1.3243e+02	-13.0200	-33.584932	0.000264	2.635009	0.892765	-0.000105
1333	1.3253e+02	-13.0585	-33.697972	0.000284	2.837702	0.961439	-0.000114
1334	1.3263e+02	-13.1034	-33.827160	0.000324	3.243087	1.098788	-0.000130
1335	1.3273e+02	-13.1403	-33.911940	0.000213	2.128276	0.721079	-0.000085
1336	1.3283e+02	-13.1772	-34.049203	0.000345	3.445780	1.167462	-0.000138
1337	1.3293e+02	-13.2237	-34.166280	0.000294	2.939048	0.995776	-0.000118
1338	1.3303e+02	-13.2590	-34.279320	0.000284	2.837702	0.961439	-0.000114
1339	1.3313e+02	-13.3039	-34.343914	0.000162	1.621544	0.549394	-0.000065
1340	1.3323e+02	-13.3488	-34.477139	0.000334	3.344434	1.133125	-0.000134
1341	1.3333e+02	-13.3793	-34.626513	0.000375	3.749820	1.270473	-0.000150
1342	1.3343e+02	-13.4146	-34.707256	0.000203	2.026930	0.686742	-0.000081
1343	1.3353e+02	-13.4659	-34.828370	0.000304	3.040395	1.030114	-0.000122
1344	1.3363e+02	-13.5060	-34.969670	0.000355	3.547127	1.201799	-0.000142
1345	1.3373e+02	-13.5413	-35.042338	0.000182	1.824237	0.618068	-0.000073
1346	1.3383e+02	-13.5782	-35.215935	0.000436	4.357899	1.476496	-0.000174
1347	1.3393e+02	-13.6135	-35.300715	0.000213	2.128276	0.721079	-0.000085
1348	1.3403e+02	-13.6600	-35.454126	0.000385	3.851166	1.304810	-0.000154
1349	1.3413e+02	-13.7098	-35.579277	0.000314	3.141741	1.064451	-0.000126
1350	1.3423e+02	-13.7322	-35.623686	0.000111	1.114811	0.377708	-0.000045
1351	1.3432e+02	-13.7788	-35.712503	0.000223	2.229623	0.755417	-0.000089
1352	1.3442e+02	-13.8157	-35.825543	0.000284	2.837702	0.961439	-0.000114
1353	1.3452e+02	-13.8526	-35.946657	0.000304	3.040395	1.030114	-0.000122
1354	1.3462e+02	-13.8991	-36.051622	0.000264	2.635009	0.892765	-0.000105
1355	1.3472e+02	-13.9424	-36.168699	0.000294	2.939048	0.995776	-0.000118
1356	1.3482e+02	-13.9841	-36.293850	0.000314	3.141741	1.064451	-0.000126
1357	1.3492e+02	-14.0114	-36.386704	0.000233	2.330969	0.789754	-0.000093
1358	1.3502e+02	-14.0595	-36.479559	0.000233	2.330969	0.789754	-0.000093
1359	1.3512e+02	-14.0948	-36.628933	0.000375	3.749820	1.270473	-0.000150
1360	1.3522e+02	-14.1397	-36.701601	0.000182	1.824237	0.618068	-0.000073
1361	1.3532e+02	-14.1814	-36.838864	0.000345	3.445780	1.167462	-0.000138
1362	1.3542e+02	-14.2151	-36.931718	0.000233	2.330969	0.789754	-0.000093
1363	1.3552e+02	-14.2600	-37.016498	0.000213	2.128276	0.721079	-0.000085
1364	1.3562e+02	-14.3049	-37.145686	0.000324	3.243087	1.098788	-0.000130
1365	1.3572e+02	-14.3386	-37.250651	0.000264	2.635009	0.892765	-0.000105
1366	1.3582e+02	-14.3723	-37.363691	0.000284	2.837702	0.961439	-0.000114
1367	1.3592e+02	-14.4204	-37.557474	0.000486	4.864631	1.648182	-0.000195
1368	1.3602e+02	-14.4606	-37.650328	0.000233	2.330969	0.789754	-0.000093
1369	1.3612e+02	-14.4910	-37.690699	0.000101	1.013465	0.343371	-0.000041
1370	1.3622e+02	-14.5327	-37.799702	0.000274	2.736355	0.927102	-0.000110
1371	1.3631e+02	-14.5696	-37.916779	0.000294	2.939048	0.995776	-0.000118
1372	1.3641e+02	-14.6242	-38.013670	0.000243	2.432316	0.824091	-0.000097
1373	1.3651e+02	-14.6579	-38.134784	0.000304	3.040395	1.030114	-0.000122
1374	1.3661e+02	-14.6948	-38.223601	0.000223	2.229623	0.755417	-0.000089
1375	1.3671e+02	-14.7333	-38.320492	0.000243	2.432316	0.824091	-0.000097
1376	1.3681e+02	-14.7734	-38.429495	0.000274	2.736355	0.927102	-0.000110
1377	1.3691e+02	-14.8183	-38.554646	0.000314	3.141741	1.064451	-0.000126
1378	1.3701e+02	-14.8552	-38.643463	0.000223	2.229623	0.755417	-0.000089
1379	1.3711e+02	-14.8857	-38.752466	0.000274	2.736355	0.927102	-0.000110
1380	1.3721e+02	-14.9354	-38.869543	0.000294	2.939048	0.995776	-0.000118
1381	1.3731e+02	-14.9675	-38.978546	0.000274	2.736355	0.927102	-0.000110
1382	1.3741e+02	-15.0076	-39.075437	0.000243	2.432316	0.824091	-0.000097
1383	1.3751e+02	-15.0525	-39.180402	0.000264	2.635009	0.892765	-0.000105
1384	1.3761e+02	-15.0878	-39.321702	0.000355	3.547127	1.201799	-0.000142
1385	1.3771e+02	-15.1327	-39.434742	0.000284	2.837702	0.961439	-0.000114
1386	1.3781e+02	-15.1696	-39.539707	0.000264	2.635009	0.892765	-0.000105
1387	1.3791e+02	-15.2210	-39.636599	0.000243	2.432316	0.824091	-0.000097
1388	1.3801e+02	-15.2546	-39.705230	0.000172	1.722890	0.583731	-0.000069
1389	1.3811e+02	-15.2915	-39.838455	0.000334	3.344434	1.133125	-0.000134
1390	1.3821e+02	-15.3349	-39.939384	0.000253	2.533662	0.858428	-0.000101
1391	1.3831e+02	-15.3702	-40.048387	0.000274	2.736355	0.927102	-0.000110
1392	1.3840e+02	-15.4087	-40.133166	0.000213	2.128276	0.721079	-0.000085
1393	1.3850e+02	-15.4584	-40.238132	0.000264	2.635009	0.892765	-0.000105
1394	1.3860e+02	-15.4921	-40.326949	0.000223	2.229623	0.755417	-0.000089
1395	1.3870e+02	-15.5322	-40.435952	0.000274	2.736355	0.927102	-0.000110
1396	1.3880e+02	-15.5723	-40.577251	0.000355	3.547127	1.201799	-0.000142
1397	1.3890e+02	-15.6204	-40.690291	0.000284	2.837702	0.961439	-0.000114
1398	1.3900e+02	-15.6573	-40.803331	0.000284	2.837702	0.961439	-0.000114
1399	1.3910e+02	-15.6958	-40.892148	0.000223	2.229623	0.755417	-0.000089
1400	1.3920e+02	-15.7311	-41.013262	0.000304	3.040395	1.030114	-0.000122
1401	1.3930e+02	-15.7632	-41.138413	0.000314	3.141741	1.064451	-0.000126
1402	1.3940e+02	-15.8065	-41.279713	0.000355	3.547127	1.201799	-0.000142
1403	1.3950e+02	-15.8530	-41.388716	0.000274	2.736355	0.927102	-0.000110
1404	1.3960e+02	-15.8883	-41.489644	0.000253	2.533662	0.858428	-0.000101
1405	1.3970e+02	-15.9284	-41.626907	0.000345	3.445780	1.167462	-0.000138
1406	1.3980e+02	-15.9637	-41.671315	0.000111	1.114811	0.377708	-0.000045
1407	1.3990e+02	-16.0102	-41.788392	0.000294	2.939048	0.995776	-0.000118
1408	1.4000e+02	-16.0455	-41.861060	0.000182	1.824237	0.618068	-0.000073
1409	1.4010e+02	-16.0921	-42.010434	0.000375	3.749820	1.270473	-0.000150
1410	1.4020e+02	-16.1257	-42.075029	0.000162	1.621544	0.549394	-0.000065
1411	1.4029e+02	-16.1626	-42.192106	0.000294	2.939048	0.995776	-0.000118
1412	1.4039e+02	-16.2108	-42.288997	0.000243	2.432316	0.824091	-0.000097
1413	1.4049e+02	-16.2461	-42.410111	0.000304	3.040395	1.030114	-0.000122
1414	1.4059e+02	-16.2910	-42.507002	0.000243	2.432316	0.824091	-0.000097
1415	1.4069e+02	-16.3327	-42.652339	0.000365	3.648473	1.236136	-0.000146
1416	1.4079e+02	-16.3712	-42.737119	0.000213	2.128276	0.721079	-0.000085
1417	1.4089e+02	-16.4017	-42.842084	0.000264	2.635009	0.892765	-0.000105
1418	1.4099e+02	-16.4530	-42.955124	0.000284	2.837702	0.961439	-0.000114
1419	1.4109e+02	-16.4867	-43.060090	0.000264	2.635009	0.892765	-0.000105
1420	1.4119e+02	-16.5236	-43.185241	0.000314	3.141741	1.064451	-0.000126
1421	1.4129e+02	-16.5637	-43.306355	0.000304	3.040395	1.030114	-0.000122
1422	1.4139e+02	-16.6086	-43.407283	0.000253	2.533662	0.858428	-0.000101
1423	1.4149e+02	-16.6343	-43.504175	0.000243	2.432316	0.824091	-0.000097
1424	1.4159e+02	-16.6760	-43.592992	0.000223	2.229623	0.755417	-0.000089
1425	1.4169e+02	-16.7305	-43.681809	0.000223	2.229623	0.755417	-0.000089
1426	1.4179e+02	-16.7562	-43.758514	0.000193	1.925583	0.652405	-0.000077
1427	1.4189e+02	-16.8075	-43.879628	0.000304	3.040395	1.030114	-0.000122
1428	1.4199e+02	-16.8541	-44.004780	0.000314	3.141741	1.064451	-0.000126
1429	1.4209e+02	-16.8846	-44.097634	0.000233	2.330969	0.789754	-0.000093
1430	1.4219e+02	-16.9279	-44.234896	0.000345	3.445780	1.167462	-0.000138
1431	1.4228e+02	-16.9632	-44.351973	0.000294	2.939048	0.995776	-0.000118
1432	1.4238e+02	-17.0081	-44.465013	0.000284	2.837702	0.961439	-0.000114
1433	1.4248e+02	-17.0450	-44.525570	0.000152	1.520197	0.515057	-0.000061
1434	1.4258e+02	-17.0899	-44.674944	0.000375	3.749820	1.270473	-0.000150
1435	1.4268e+02	-17.1252	-44.767798	0.000233	2.330969	0.789754	-0.000093
1436	1.4278e+02	-17.1637	-44.913135	0.000365	3.648473	1.236136	-0.000146
1437	1.4288e+02	-17.2054	-44.993878	0.000203	2.026930	0.686742	-0.000081
1438	1.4298e+02	-17.2311	-45.123066	0.000324	3.243087	1.098788	-0.000130
1439	1.4308e+02	-17.2888	-45.252254	0.000324	3.243087	1.098788	-0.000130
1440	1.4318e+02	-17.3193	-45.381443	0.000324	3.243087	1.098788	-0.000130
1441	1.4328e+02	-17.3722	-45.474297	0.000233	2.330969	0.789754	-0.000093
1442	1.4338e+02	-17.4027	-45.587337	0.000284	2.837702	0.961439	-0.000114
1443	1.4348e+02	-17.4508	-45.688265	0.000253	2.533662	0.858428	-0.000101
1444	1.4358e+02	-17.4845	-45.764971	0.000193	1.925583	0.652405	-0.000077
1445	1.4368e+02	-17.5230	-45.853788	0.000223	2.229623	0.755417	-0.000089
1446	1.4378e+02	-17.5712	-45.974902	0.000304	3.040395	1.030114	-0.000122
1447	1.4388e+02	-17.6032	-46.071793	0.000243	2.432316	0.824091	-0.000097
1448	1.4398e+02	-17.6434	-46.188870	0.000294	2.939048	0.995776	-0.000118
1449	1.4408e+02	-17.6883	-46.314021	0.000314	3.141741	1.064451	-0.000126
1450	1.4418e+02	-17.7188	-46.406875	0.000233	2.330969	0.789754	-0.000093
1451	1.4428e+02	-17.7685	-46.592584	0.000466	4.661938	1.579507	-0.000187
1452	1.4437e+02	-17.7974	-46.665252	0.000182	1.824237	0.618068	-0.000073
1453	1.4447e+02	-17.8439	-46.745995	0.000203	2.026930	0.686742	-0.000081
1454	1.4457e+02	-17.8824	-46.838849	0.000233	2.330969	0.789754	-0.000093
1455	1.4467e+02	-17.9209	-47.008409	0.000426	4.256552	1.442159	-0.000170
1456	1.4477e+02	-17.9546	-47.089151	0.000203	2.026930	0.686742	-0.000081
1457	1.4487e+02	-17.9995	-47.202191	0.000284	2.837702	0.961439	-0.000114
1458	1.4497e+02	-18.0332	-47.351565	0.000375	3.749820	1.270473	-0.000150
1459	1.4507e+02	-18.0829	-47.472679	0.000304	3.040395	1.030114	-0.000122
1460	1.4517e+02	-18.1118	-47.593793	0.000304	3.040395	1.030114	-0.000122
1461	1.4527e+02	-18.1631	-47.682610	0.000223	2.229623	0.755417	-0.000089
1462	1.4537e+02	-18.2000	-47.759316	0.000193	1.925583	0.652405	-0.000077
1463	1.4547e+02	-18.2465	-47.872356	0.000284	2.837702	0.961439	-0.000114
1464	1.4557e+02	-18.2883	-48.017692	0.000365	3.648473	1.236136	-0.000146
1465	1.4567e+02	-18.3155	-48.102472	0.000213	2.128276	0.721079	-0.000085
1466	1.4577e+02	-18.3717	-48.215512	0.000284	2.837702	0.961439	-0.000114
1467	1.4587e+02	-18.4038	-48.332589	0.000294	2.939048	0.995776	-0.000118
1468	1.4597e+02	-18.4455	-48.425443	0.000233	2.330969	0.789754	-0.000093
1469	1.4607e+02	-18.4840	-48.534446	0.000274	2.736355	0.927102	-0.000110
1470	1.4617e+02	-18.5257	-48.639411	0.000264	2.635009	0.892765	-0.000105
1471	1.4626e+02	-18.5562	-48.780711	0.000355	3.547127	1.201799	-0.000142
1472	1.4636e+02	-18.6043	-48.849342	0.000172	1.722890	0.583731	-0.000069
1473	1.4646e+02	-18.6300	-48.990642	0.000355	3.547127	1.201799	-0.000142
1474	1.4656e+02	-18.6813	-49.140016	0.000375	3.749820	1.270473	-0.000150
1475	1.4666e+02	-18.7134	-49.249019	0.000274	2.736355	0.927102	-0.000110
1476	1.4676e+02	-18.7647	-49.398393	0.000375	3.749820	1.270473	-0.000150
1477	1.4686e+02	-18.8048	-49.462987	0.000162	1.621544	0.549394	-0.000065
1478	1.4696e+02	-18.8369	-49.592175	0.000324	3.243087	1.098788	-0.000130
1479	1.4706e+02	-18.8834	-49.701178	0.000274	2.736355	0.927102	-0.000110
1480	1.4716e+02	-18.9187	-49.777884	0.000193	1.925583	0.652405	-0.000077
1481	1.4726e+02	-18.9492	-49.874775	0.000243	2.432316	0.824091	-0.000097
1482	1.4736e+02	-19.0086	-49.987815	0.000284	2.837702	0.961439	-0.000114
1483	1.4746e+02	-19.0374	-50.088743	0.000253	2.533662	0.858428	-0.000101
1484	1.4756e+02	-19.0840	-50.221969	0.000334	3.344434	1.133125	-0.000134
1485	1.4766e+02	-19.1160	-50.339046	0.000294	2.939048	0.995776	-0.000118
1486	1.4776e+02	-19.1529	-50.427863	0.000223	2.229623	0.755417	-0.000089
1487	1.4786e+02	-19.1962	-50.540902	0.000284	2.837702	0.961439	-0.000114
1488	1.4796e+02	-19.2364	-50.613571	0.000182	1.824237	0.618068	-0.000073
1489	1.4806e+02	-19.2781	-50.762945	0.000375	3.749820	1.270473	-0.000150
1490	1.4816e+02	-19.3198	-50.900207	0.000345	3.445780	1.167462	-0.000138
1491	1.4825e+02	-19.3503	-51.013247	0.000284	2.837702	0.961439	-0.000114
1492	1.4835e+02	-19.3904	-51.154547	0.000355	3.547127	1.201799	-0.000142
1493	1.4845e+02	-19.4401	-51.287772	0.000334	3.344434	1.133125	-0.000134
1494	1.4855e+02	-19.4754	-51.396775	0.000274	2.736355	0.927102	-0.000110
1495	1.4865e+02	-19.5171	-51.505778	0.000274	2.736355	0.927102	-0.000110
1496	1.4875e+02	-19.5508	-51.647077	0.000355	3.547127	1.201799	-0.000142
1497	1.4885e+02	-19.5941	-51.727820	0.000203	2.026930	0.686742	-0.000081
1498	1.4895e+02	-19.6278	-51.832786	0.000264	2.635009	0.892765	-0.000105
1499	1.4905e+02	-19.6759	-51.921603	0.000223	2.229623	0.755417	-0.000089
1500	1.4915e+02	-19.7096	-52.030605	0.000274	2.736355	0.927102	-0.000110
1501	1.4925e+02	-19.7545	-52.155757	0.000314	3.141741	1.064451	-0.000126
1502	1.4935e+02	-19.7834	-52.248611	0.000233	2.330969	0.789754	-0.000093
1503	1.4945e+02	-19.8315	-52.406059	0.000395	3.952513	1.339148	-0.000158
1504	1.4955e+02	-19.8700	-52.519099	0.000284	2.837702	0.961439	-0.000114
1505	1.4965e+02	-19.9166	-52.648287	0.000324	3.243087	1.098788	-0.000130
1506	1.4975e+02	-19.9518	-52.741141	0.000233	2.330969	0.789754	-0.000093
1507	1.4985e+02	-20.0016	-52.886478	0.000365	3.648473	1.236136	-0.000146
1508	1.4995e+02	-19.9518	-52.850144	0.000091	0.912118	0.309034	0.000037
1509	1.5005e+02	-19.9133	-52.757290	0.000233	2.330969	0.789754	0.000093
1510	1.5015e+02	-19.8700	-52.777476	-0.000051	-0.506732	-0.171686	-0.000020
1511	1.5025e+02	-19.8444	-52.712881	0.000162	1.621544	0.549394	0.000065
1512	1.5034e+02	-19.7898	-52.587730	0.000314	3.141741	1.064451	0.000126
1513	1.5044e+02	-19.7561	-52.571582	0.000041	0.405386	0.137348	0.000016
1514	1.5054e+02	-19.7048	-52.506987	0.000162	1.621544	0.549394	0.000065
1515	1.5064e+02	-19.6663	-52.434319	0.000182	1.824237	0.618068	0.000073
1516	1.5074e+02	-19.6342	-52.357613	0.000193	1.925583	0.652405	0.000077
1517	1.5084e+02	-19.5829	-52.220351	0.000345	3.445780	1.167462	0.000138
1518	1.5094e+02	-19.5524	-52.155757	0.000162	1.621544	0.549394	0.000065
1519	1.5104e+02	-19.5091	-52.066940	0.000223	2.229623	0.755417	0.000089
1520	1.5114e+02	-19.4770	-51.978123	0.000223	2.229623	0.755417	0.000089
1521	1.5124e+02	-19.4449	-51.933714	0.000111	1.114811	0.377708	0.000045
1522	1.5134e+02	-19.3984	-51.824711	0.000274	2.736355	0.927102	0.000110
1523	1.5144e+02	-19.3519	-51.752043	0.000182	1.824237	0.618068	0.000073
1524	1.5154e+02	-19.3198	-51.695523	0.000142	1.418851	0.480720	0.000057
1525	1.5164e+02	-19.2733	-51.578446	0.000294	2.939048	0.995776	0.000118
1526	1.5174e+02	-19.2315	-51.542112	0.000091	0.912118	0.309034	0.000037
1527	1.5184e+02	-19.1962	-51.469444	0.000182	1.824237	0.618068	0.000073
1528	1.5194e+02	-19.1561	-51.420998	0.000122	1.216158	0.412045	0.000049
1529	1.5204e+02	-19.1192	-51.348329	0.000182	1.824237	0.618068	0.000073
1530	1.5214e+02	-19.0807	-51.251438	0.000243	2.432316	0.824091	0.000097
1531	1.5224e+02	-19.0310	-51.190881	0.000152	1.520197	0.515057	0.000061
1532	1.5233e+02	-19.0021	-51.098027	0.000233	2.330969	0.789754	0.000093
1533	1.5243e+02	-18.9588	-50.997099	0.000253	2.533662	0.858428	0.000101
1534	1.5253e+02	-18.9251	-50.936542	0.000152	1.520197	0.515057	0.000061
1535	1.5263e+02	-18.8850	-50.835613	0.000253	2.533662	0.858428	0.000101
1536	1.5273e+02	-18.8433	-50.726611	0.000274	2.736355	0.927102	0.000110
1537	1.5283e+02	-18.7984	-50.629719	0.000243	2.432316	0.824091	0.000097
1538	1.5293e+02	-18.7583	-50.504568	0.000314	3.141741	1.064451	0.000126
1539	1.5303e+02	-18.7134	-50.439974	0.000162	1.621544	0.549394	0.000065
1540	1.5313e+02	-18.6845	-50.347120	0.000233	2.330969	0.789754	0.000093
1541	1.5323e+02	-18.6428	-50.266377	0.000203	2.026930	0.686742	0.000081
1542	1.5333e+02	-18.6059	-50.185634	0.000203	2.026930	0.686742	0.000081
1543	1.5343e+02	-18.5722	-50.096817	0.000223	2.229623	0.755417	0.000089
1544	1.5353e+02	-18.5177	-49.991852	0.000264	2.635009	0.892765	0.000105
1545	1.5363e+02	-18.4759	-49.939369	0.000132	1.317504	0.446383	0.000053
1546	1.5373e+02	-18.4358	-49.907072	0.000081	0.810772	0.274697	0.000032
1547	1.5383e+02	-18.3957	-49.806144	0.000253	2.533662	0.858428	0.000101
1548	1.5393e+02	-18.3669	-49.737512	0.000172	1.722890	0.583731	0.000069
1549	1.5403e+02	-18.3187	-49.612361	0.000314	3.141741	1.064451	0.000126
1550	1.5413e+02	-18.2738	-49.515470	0.000243	2.432316	0.824091	0.000097
1551	1.5422e+02	-18.2401	-49.406467	0.000274	2.736355	0.927102	0.000110
1552	1.5432e+02	-18.2048	-49.329762	0.000193	1.925583	0.652405	0.000077
1553	1.5442e+02	-18.1647	-49.273242	0.000142	1.418851	0.480720	0.000057
1554	1.5452e+02	-18.1310	-49.152128	0.000304	3.040395	1.030114	0.000122
1555	1.5462e+02	-18.0749	-49.039088	0.000284	2.837702	0.961439	0.000114
1556	1.5472e+02	-18.0396	-48.901825	0.000345	3.445780	1.167462	0.000138
1557	1.5482e+02	-18.0043	-48.829157	0.000182	1.824237	0.618068	0.000073
1558	1.5492e+02	-17.9594	-48.748414	0.000203	2.026930	0.686742	0.000081
1559	1.5502e+02	-17.9225	-48.619226	0.000324	3.243087	1.098788	0.000130
1560	1.5512e+02	-17.8760	-48.538483	0.000203	2.026930	0.686742	0.000081
1561	1.5522e+02	-17.8439	-48.465815	0.000182	1.824237	0.618068	0.000073
1562	1.5532e+02	-17.7990	-48.381035	0.000213	2.128276	0.721079	0.000085
1563	1.5542e+02	-17.7508	-48.308366	0.000182	1.824237	0.618068	0.000073
1564	1.5552e+02	-17.7155	-48.239735	0.000172	1.722890	0.583731	0.000069
1565	1.5562e+02	-17.6819	-48.167066	0.000182	1.824237	0.618068	0.000073
1566	1.5572e+02	-17.6417	-48.106509	0.000152	1.520197	0.515057	0.000061
1567	1.5582e+02	-17.6032	-47.981358	0.000314	3.141741	1.064451	0.000126
1568	1.5592e+02	-17.5567	-47.908690	0.000182	1.824237	0.618068	0.000073
1569	1.5602e+02	-17.5230	-47.831984	0.000193	1.925583	0.652405	0.000077
1570	1.5612e+02	-17.4781	-47.718944	0.000284	2.837702	0.961439	0.000114
1571	1.5622e+02	-17.4444	-47.626090	0.000233	2.330969	0.789754	0.000093
1572	1.5631e+02	-17.4011	-47.549385	0.000193	1.925583	0.652405	0.000077
1573	1.5641e+02	-17.3690	-47.416159	0.000334	3.344434	1.133125	0.000134
1574	1.5651e+02	-17.3257	-47.250637	0.000416	4.155206	1.407822	0.000166
1575	1.5661e+02	-17.2920	-47.214302	0.000091	0.912118	0.309034	0.000037
1576	1.5671e+02	-17.2391	-47.113374	0.000253	2.533662	0.858428	0.000101
1577	1.5681e+02	-17.2150	-46.988223	0.000314	3.141741	1.064451	0.000126
1578	1.5691e+02	-17.1701	-46.907480	0.000203	2.026930	0.686742	0.000081
1579	1.5701e+02	-17.1300	-46.834812	0.000182	1.824237	0.618068	0.000073
1580	1.5711e+02	-17.0931	-46.758106	0.000193	1.925583	0.652405	0.000077
1581	1.5721e+02	-17.0610	-46.645066	0.000284	2.837702	0.961439	0.000114
1582	1.5731e+02	-17.0033	-46.592584	0.000132	1.317504	0.446383	0.000053
1583	1.5741e+02	-16.9599	-46.523952	0.000172	1.722890	0.583731	0.000069
1584	1.5751e+02	-16.9279	-46.447247	0.000193	1.925583	0.652405	0.000077
1585	1.5761e+02	-16.8829	-46.346318	0.000253	2.533662	0.858428	0.000101
1586	1.5771e+02	-16.8428	-46.241353	0.000264	2.635009	0.892765	0.000105
1587	1.5781e+02	-16.8043	-46.168684	0.000182	1.824237	0.618068	0.000073
1588	1.5791e+02	-16.7690	-46.079867	0.000223	2.229623	0.755417	0.000089
1589	1.5801e+02	-16.7305	-45.950679	0.000324	3.243087	1.098788	0.000130
1590	1.5811e+02	-16.6936	-45.833602	0.000294	2.939048	0.995776	0.000118
1591	1.5821e+02	-16.6535	-45.744785	0.000223	2.229623	0.755417	0.000089
1592	1.5830e+02	-16.6118	-45.635782	0.000274	2.736355	0.927102	0.000110
1593	1.5840e+02	-16.5701	-45.514668	0.000304	3.040395	1.030114	0.000122
1594	1.5850e+02	-16.5316	-45.397591	0.000294	2.939048	0.995776	0.000118
1595	1.5860e+02	-16.4915	-45.312812	0.000213	2.128276	0.721079	0.000085
1596	1.5870e+02	-16.4498	-45.256292	0.000142	1.418851	0.480720	0.000057
1597	1.5880e+02	-16.4065	-45.123066	0.000334	3.344434	1.133125	0.000134
1598	1.5890e+02	-16.3712	-45.074621	0.000122	1.216158	0.412045	0.000049
1599	1.5900e+02	-16.3199	-45.005989	0.000172	1.722890	0.583731	0.000069
1600	1.5910e+02	-16.2910	-44.925246	0.000203	2.026930	0.686742	0.000081
1601	1.5920e+02	-16.2541	-44.856615	0.000172	1.722890	0.583731	0.000069
1602	1.5930e+02	-16.2092	-44.723390	0.000334	3.344434	1.133125	0.000134
1603	1.5940e+02	-16.1691	-44.654758	0.000172	1.722890	0.583731	0.000069
1604	1.5950e+02	-16.1338	-44.541719	0.000284	2.837702	0.961439	0.000114
1605	1.5960e+02	-16.0937	-44.469050	0.000182	1.824237	0.618068	0.000073
1606	1.5970e+02	-16.0391	-44.364085	0.000264	2.635009	0.892765	0.000105
1607	1.5980e+02	-16.0086	-44.287379	0.000193	1.925583	0.652405	0.000077
1608	1.5990e+02	-15.9717	-44.166265	0.000304	3.040395	1.030114	0.000122
1609	1.6000e+02	-15.9364	-44.008817	0.000395	3.952513	1.339148	0.000158
1610	1.6010e+02	-15.8915	-43.936148	0.000182	1.824237	0.618068	0.000073
1611	1.6019e+02	-15.8546	-43.871554	0.000162	1.621544	0.549394	0.000065
1612	1.6029e+02	-15.8049	-43.710069	0.000405	4.053859	1.373485	0.000162
1613	1.6039e+02	-15.7648	-43.657586	0.000132	1.317504	0.446383	0.000053
1614	1.6049e+02	-15.7423	-43.576843	0.000203	2.026930	0.686742	0.000081
1615	1.6059e+02	-15.6878	-43.467840	0.000274	2.736355	0.927102	0.000110
1616	1.6069e+02	-15.6445	-43.383061	0.000213	2.128276	0.721079	0.000085
1617	1.6079e+02	-15.6156	-43.334615	0.000122	1.216158	0.412045	0.000049
1618	1.6089e+02	-15.5691	-43.245798	0.000223	2.229623	0.755417	0.000089
1619	1.6099e+02	-15.5338	-43.152944	0.000233	2.330969	0.789754	0.000093
1620	1.6109e+02	-15.4905	-43.047978	0.000264	2.635009	0.892765	0.000105
1621	1.6119e+02	-15.4472	-42.947050	0.000253	2.533662	0.858428	0.000101
1622	1.6129e+02	-15.4199	-42.882456	0.000162	1.621544	0.549394	0.000065
1623	1.6139e+02	-15.3734	-42.789602	0.000233	2.330969	0.789754	0.000093
1624	1.6149e+02	-15.3268	-42.704822	0.000213	2.128276	0.721079	0.000085
1625	1.6159e+02	-15.2932	-42.591782	0.000284	2.837702	0.961439	0.000114
1626	1.6169e+02	-15.2498	-42.470668	0.000304	3.040395	1.030114	0.000122
1627	1.6179e+02	-15.2097	-42.373777	0.000243	2.432316	0.824091	0.000097
1628	1.6189e+02	-15.1712	-42.288997	0.000213	2.128276	0.721079	0.000085
1629	1.6199e+02	-15.1391	-42.208254	0.000203	2.026930	0.686742	0.000081
1630	1.6209e+02	-15.0894	-42.062917	0.000365	3.648473	1.236136	0.000146
1631	1.6219e+02	-15.0573	-41.994286	0.000172	1.722890	0.583731	0.000069
1632	1.6228e+02	-15.0108	-41.905469	0.000223	2.229623	0.755417	0.000089
1633	1.6238e+02	-14.9659	-41.804541	0.000253	2.533662	0.858428	0.000101
1634	1.6248e+02	-14.9338	-41.711686	0.000233	2.330969	0.789754	0.000093
1635	1.6258e+02	-14.8921	-41.622869	0.000223	2.229623	0.755417	0.000089
1636	1.6268e+02	-14.8584	-41.570387	0.000132	1.317504	0.446383	0.000053
1637	1.6278e+02	-14.8135	-41.489644	0.000203	2.026930	0.686742	0.000081
1638	1.6288e+02	-14.7798	-41.376604	0.000284	2.837702	0.961439	0.000114
1639	1.6298e+02	-14.7317	-41.287787	0.000223	2.229623	0.755417	0.000089
1640	1.6308e+02	-14.6932	-41.203007	0.000213	2.128276	0.721079	0.000085
1641	1.6318e+02	-14.6579	-41.085930	0.000294	2.939048	0.995776	0.000118
1642	1.6328e+02	-14.6146	-41.009225	0.000193	1.925583	0.652405	0.000077
1643	1.6338e+02	-14.5729	-40.920408	0.000223	2.229623	0.755417	0.000089
1644	1.6348e+02	-14.5327	-40.819479	0.000253	2.533662	0.858428	0.000101
1645	1.6358e+02	-14.4942	-40.682217	0.000345	3.445780	1.167462	0.000138
1646	1.6368e+02	-14.4670	-40.601474	0.000203	2.026930	0.686742	0.000081
1647	1.6378e+02	-14.4221	-40.464212	0.000345	3.445780	1.167462	0.000138
1648	1.6388e+02	-14.3819	-40.363283	0.000253	2.533662	0.858428	0.000101
1649	1.6398e+02	-14.3338	-40.274466	0.000223	2.229623	0.755417	0.000089
1650	1.6408e+02	-14.2985	-40.145278	0.000324	3.243087	1.098788	0.000130
1651	1.6418e+02	-14.2552	-40.108944	0.000091	0.912118	0.309034	0.000037
1652	1.6427e+02	-14.2087	-40.020127	0.000223	2.229623	0.755417	0.000089
1653	1.6437e+02	-14.1686	-39.915161	0.000264	2.635009	0.892765	0.000105
1654	1.6447e+02	-14.1349	-39.826344	0.000223	2.229623	0.755417	0.000089
1655	1.6457e+02	-14.0916	-39.733490	0.000233	2.330969	0.789754	0.000093
1656	1.6467e+02	-14.0595	-39.648710	0.000213	2.128276	0.721079	0.000085
1657	1.6477e+02	-14.0194	-39.543745	0.000264	2.635009	0.892765	0.000105
1658	1.6487e+02	-13.9793	-39.454928	0.000223	2.229623	0.755417	0.000089
1659	1.6497e+02	-13.9424	-39.313628	0.000355	3.547127	1.201799	0.000142
1660	1.6507e+02	-13.8943	-39.273256	0.000101	1.013465	0.343371	0.000041
1661	1.6517e+02	-13.8670	-39.160217	0.000284	2.837702	0.961439	0.000114
1662	1.6527e+02	-13.8173	-39.075437	0.000213	2.128276	0.721079	0.000085
1663	1.6537e+02	-13.7820	-38.950286	0.000314	3.141741	1.064451	0.000126
1664	1.6547e+02	-13.7403	-38.829172	0.000304	3.040395	1.030114	0.000122
1665	1.6557e+02	-13.7050	-38.712095	0.000294	2.939048	0.995776	0.000118
1666	1.6567e+02	-13.6584	-38.631352	0.000203	2.026930	0.686742	0.000081
1667	1.6577e+02	-13.6183	-38.534461	0.000243	2.432316	0.824091	0.000097
1668	1.6587e+02	-13.5750	-38.413347	0.000304	3.040395	1.030114	0.000122
1669	1.6597e+02	-13.5317	-38.372975	0.000101	1.013465	0.343371	0.000041
1670	1.6607e+02	-13.4948	-38.263973	0.000274	2.736355	0.927102	0.000110
1671	1.6616e+02	-13.4627	-38.191304	0.000182	1.824237	0.618068	0.000073
1672	1.6626e+02	-13.4162	-38.098450	0.000233	2.330969	0.789754	0.000093
1673	1.6636e+02	-13.3777	-37.973299	0.000314	3.141741	1.064451	0.000126
1674	1.6646e+02	-13.3392	-37.856222	0.000294	2.939048	0.995776	0.000118
1675	1.6656e+02	-13.3071	-37.807776	0.000122	1.216158	0.412045	0.000049
1676	1.6666e+02	-13.2574	-37.694736	0.000284	2.837702	0.961439	0.000114
1677	1.6676e+02	-13.2141	-37.577659	0.000294	2.939048	0.995776	0.000118
1678	1.6686e+02	-13.1756	-37.504991	0.000182	1.824237	0.618068	0.000073
1679	1.6696e+02	-13.1419	-37.367728	0.000345	3.445780	1.167462	0.000138
1680	1.6706e+02	-13.1018	-37.286986	0.000203	2.026930	0.686742	0.000081
1681	1.6716e+02	-13.0649	-37.186057	0.000253	2.533662	0.858428	0.000101
1682	1.6726e+02	-13.0216	-37.073017	0.000284	2.837702	0.961439	0.000114
1683	1.6736e+02	-12.9766	-36.927681	0.000365	3.648473	1.236136	0.000146
1684	1.6746e+02	-12.9446	-36.822715	0.000264	2.635009	0.892765	0.000105
1685	1.6756e+02	-12.8996	-36.750047	0.000182	1.824237	0.618068	0.000073
1686	1.6766e+02	-12.8563	-36.653155	0.000243	2.432316	0.824091	0.000097
1687	1.6776e+02	-12.8098	-36.556264	0.000243	2.432316	0.824091	0.000097
1688	1.6786e+02	-12.7841	-36.487633	0.000172	1.722890	0.583731	0.000069
1689	1.6796e+02	-12.7472	-36.358444	0.000324	3.243087	1.098788	0.000130
1690	1.6806e+02	-12.7007	-36.245405	0.000284	2.837702	0.961439	0.000114
1691	1.6816e+02	-12.6638	-36.188885	0.000142	1.418851	0.480720	0.000057
1692	1.6825e+02	-12.6221	-36.063734	0.000314	3.141741	1.064451	0.000126
1693	1.6835e+02	-12.5932	-35.982991	0.000203	2.026930	0.686742	0.000081
1694	1.6845e+02	-12.5467	-35.906285	0.000193	1.925583	0.652405	0.000077
1695	1.6855e+02	-12.5050	-35.732688	0.000436	4.357899	1.476496	0.000174
1696	1.6865e+02	-12.4537	-35.676169	0.000142	1.418851	0.480720	0.000057
1697	1.6875e+02	-12.4168	-35.559092	0.000294	2.939048	0.995776	0.000118
1698	1.6885e+02	-12.3863	-35.450089	0.000274	2.736355	0.927102	0.000110
1699	1.6895e+02	-12.3462	-35.333012	0.000294	2.939048	0.995776	0.000118
1700	1.6905e+02	-12.3109	-35.240158	0.000233	2.330969	0.789754	0.000093
1701	1.6915e+02	-12.2788	-35.086747	0.000385	3.851166	1.304810	0.000154
1702	1.6925e+02	-12.2162	-35.022153	0.000162	1.621544	0.549394	0.000065
1703	1.6935e+02	-12.1825	-34.905076	0.000294	2.939048	0.995776	0.000118
1704	1.6945e+02	-12.1376	-34.792036	0.000284	2.837702	0.961439	0.000114
1705	1.6955e+02	-12.1071	-34.691107	0.000253	2.533662	0.858428	0.000101
1706	1.6965e+02	-12.0719	-34.642662	0.000122	1.216158	0.412045	0.000049
1707	1.6975e+02	-12.0205	-34.509436	0.000334	3.344434	1.133125	0.000134
1708	1.6985e+02	-11.9852	-34.380248	0.000324	3.243087	1.098788	0.000130
1709	1.6995e+02	-11.9499	-34.291431	0.000223	2.229623	0.755417	0.000089
1710	1.7005e+02	-11.9082	-34.178391	0.000284	2.837702	0.961439	0.000114
1711	1.7015e+02	-11.8713	-34.061314	0.000294	2.939048	0.995776	0.000118
1712	1.7024e+02	-11.8344	-33.952312	0.000274	2.736355	0.927102	0.000110
1713	1.7034e+02	-11.7783	-33.851383	0.000253	2.533662	0.858428	0.000101
1714	1.7044e+02	-11.7542	-33.742380	0.000274	2.736355	0.927102	0.000110
1715	1.7054e+02	-11.7141	-33.629341	0.000284	2.837702	0.961439	0.000114
1716	1.7064e+02	-11.6644	-33.524375	0.000264	2.635009	0.892765	0.000105
1717	1.7074e+02	-11.6323	-33.443632	0.000203	2.026930	0.686742	0.000081
1718	1.7084e+02	-11.5874	-33.310407	0.000334	3.344434	1.133125	0.000134
1719	1.7094e+02	-11.5457	-33.221590	0.000223	2.229623	0.755417	0.000089
1720	1.7104e+02	-11.5136	-33.136810	0.000213	2.128276	0.721079	0.000085
1721	1.7114e+02	-11.4687	-33.060105	0.000193	1.925583	0.652405	0.000077
1722	1.7124e+02	-11.4205	-32.930916	0.000324	3.243087	1.098788	0.000130
1723	1.7134e+02	-11.3868	-32.785579	0.000365	3.648473	1.236136	0.000146
1724	1.7144e+02	-11.3499	-32.672540	0.000284	2.837702	0.961439	0.000114
1725	1.7154e+02	-11.3082	-32.567574	0.000264	2.635009	0.892765	0.000105
1726	1.7164e+02	-11.2729	-32.438386	0.000324	3.243087	1.098788	0.000130
1727	1.7174e+02	-11.2200	-32.398014	0.000101	1.013465	0.343371	0.000041
1728	1.7184e+02	-11.1911	-32.264789	0.000334	3.344434	1.133125	0.000134
1729	1.7194e+02	-11.1526	-32.163860	0.000253	2.533662	0.858428	0.000101
1730	1.7204e+02	-11.1029	-32.058895	0.000264	2.635009	0.892765	0.000105
1731	1.7213e+02	-11.0740	-31.949892	0.000274	2.736355	0.927102	0.000110
1732	1.7223e+02	-11.0307	-31.792444	0.000395	3.952513	1.339148	0.000158
1733	1.7233e+02	-10.9922	-31.743998	0.000122	1.216158	0.412045	0.000049
1734	1.7243e+02	-10.9537	-31.622884	0.000304	3.040395	1.030114	0.000122
1735	1.7253e+02	-10.9072	-31.542142	0.000203	2.026930	0.686742	0.000081
1736	1.7263e+02	-10.8783	-31.433139	0.000274	2.736355	0.927102	0.000110
1737	1.7273e+02	-10.8318	-31.344322	0.000223	2.229623	0.755417	0.000089
1738	1.7283e+02	-10.7772	-31.239356	0.000264	2.635009	0.892765	0.000105
1739	1.7293e+02	-10.7548	-31.142465	0.000243	2.432316	0.824091	0.000097
1740	1.7303e+02	-10.7066	-31.025388	0.000294	2.939048	0.995776	0.000118
1741	1.7313e+02	-10.6649	-30.876014	0.000375	3.749820	1.270473	0.000150
1742	1.7323e+02	-10.6280	-30.791234	0.000213	2.128276	0.721079	0.000085
1743	1.7333e+02	-10.5863	-30.649935	0.000355	3.547127	1.201799	0.000142
1744	1.7343e+02	-10.5510	-30.573229	0.000193	1.925583	0.652405	0.000077
1745	1.7353e+02	-10.5029	-30.427892	0.000365	3.648473	1.236136	0.000146
1746	1.7363e+02	-10.4708	-30.331001	0.000243	2.432316	0.824091	0.000097
1747	1.7373e+02	-10.4387	-30.246221	0.000213	2.128276	0.721079	0.000085
1748	1.7383e+02	-10.4002	-30.092810	0.000385	3.851166	1.304810	0.000154
1749	1.7393e+02	-10.3505	-30.036290	0.000142	1.418851	0.480720	0.000057
1750	1.7403e+02	-10.3168	-29.923250	0.000284	2.837702	0.961439	0.000114
1751	1.7413e+02	-10.2815	-29.830396	0.000233	2.330969	0.789754	0.000093
1752	1.7422e+02	-10.2366	-29.741579	0.000223	2.229623	0.755417	0.000089
1753	1.7432e+02	-10.1949	-29.604316	0.000345	3.445780	1.167462	0.000138
1754	1.7442e+02	-10.1548	-29.515499	0.000223	2.229623	0.755417	0.000089
1755	1.7452e+02	-10.1195	-29.398422	0.000294	2.939048	0.995776	0.000118
1756	1.7462e+02	-10.0730	-29.269234	0.000324	3.243087	1.098788	0.000130
1757	1.7472e+02	-10.0249	-29.212714	0.000142	1.418851	0.480720	0.000057
1758	1.7482e+02	-9.9847	-29.071414	0.000355	3.547127	1.201799	0.000142
1759	1.7492e+02	-9.9495	-28.970486	0.000253	2.533662	0.858428	0.000101
1760	1.7502e+02	-9.9126	-28.857446	0.000284	2.837702	0.961439	0.000114
1761	1.7512e+02	-9.8741	-28.740369	0.000294	2.939048	0.995776	0.000118
1762	1.7522e+02	-9.8291	-28.631367	0.000274	2.736355	0.927102	0.000110
1763	1.7532e+02	-9.7970	-28.518327	0.000284	2.837702	0.961439	0.000114
1764	1.7542e+02	-9.7425	-28.397213	0.000304	3.040395	1.030114	0.000122
1765	1.7552e+02	-9.7168	-28.280136	0.000294	2.939048	0.995776	0.000118
1766	1.7562e+02	-9.6799	-28.179207	0.000253	2.533662	0.858428	0.000101
1767	1.7572e+02	-9.6350	-28.094428	0.000213	2.128276	0.721079	0.000085
1768	1.7582e+02	-9.5933	-27.953128	0.000355	3.547127	1.201799	0.000142
1769	1.7592e+02	-9.5660	-27.872385	0.000203	2.026930	0.686742	0.000081
1770	1.7602e+02	-9.5163	-27.714937	0.000395	3.952513	1.339148	0.000158
1771	1.7612e+02	-9.4794	-27.654380	0.000152	1.520197	0.515057	0.000061
1772	1.7621e+02	-9.4329	-27.577674	0.000193	1.925583	0.652405	0.000077
1773	1.7631e+02	-9.4040	-27.444449	0.000334	3.344434	1.133125	0.000134
1774	1.7641e+02	-9.3527	-27.347557	0.000243	2.432316	0.824091	0.000097
1775	1.7651e+02	-9.3190	-27.282963	0.000162	1.621544	0.549394	0.000065
1776	1.7661e+02	-9.2757	-27.190109	0.000233	2.330969	0.789754	0.000093
1777	1.7671e+02	-9.2340	-27.052847	0.000345	3.445780	1.167462	0.000138
1778	1.7681e+02	-9.1971	-26.955955	0.000243	2.432316	0.824091	0.000097
1779	1.7691e+02	-9.1489	-26.859064	0.000243	2.432316	0.824091	0.000097
1780	1.7701e+02	-9.1217	-26.717764	0.000355	3.547127	1.201799	0.000142
1781	1.7711e+02	-9.0880	-26.620873	0.000243	2.432316	0.824091	0.000097
1782	1.7721e+02	-9.0447	-26.495722	0.000314	3.141741	1.064451	0.000126
1783	1.7731e+02	-9.0046	-26.378645	0.000294	2.939048	0.995776	0.000118
1784	1.7741e+02	-8.9628	-26.261568	0.000294	2.939048	0.995776	0.000118
1785	1.7751e+02	-8.9227	-26.156602	0.000264	2.635009	0.892765	0.000105
1786	1.7761e+02	-8.8842	-26.023377	0.000334	3.344434	1.133125	0.000134
1787	1.7771e+02	-8.8281	-25.958783	0.000162	1.621544	0.549394	0.000065
1788	1.7781e+02	-8.8008	-25.865929	0.000233	2.330969	0.789754	0.000093
1789	1.7791e+02	-8.7607	-25.696369	0.000426	4.256552	1.442159	0.000170
1790	1.7801e+02	-8.7254	-25.668109	0.000071	0.709425	0.240360	0.000028
1791	1.7810e+02	-8.6885	-25.538921	0.000324	3.243087	1.098788	0.000130
1792	1.7820e+02	-8.6372	-25.442029	0.000243	2.432316	0.824091	0.000097
1793	1.7830e+02	-8.5971	-25.341101	0.000253	2.533662	0.858428	0.000101
1794	1.7840e+02	-8.5554	-25.272470	0.000172	1.722890	0.583731	0.000069
1795	1.7850e+02	-8.5137	-25.147319	0.000314	3.141741	1.064451	0.000126
1796	1.7860e+02	-8.4768	-25.074650	0.000182	1.824237	0.618068	0.000073
1797	1.7870e+02	-8.4335	-24.933350	0.000355	3.547127	1.201799	0.000142
1798	1.7880e+02	-8.4014	-24.868756	0.000162	1.621544	0.549394	0.000065
1799	1.7890e+02	-8.3661	-24.707271	0.000405	4.053859	1.373485	0.000162
1800	1.7900e+02	-8.3340	-24.565971	0.000355	3.547127	1.201799	0.000142
1801	1.7910e+02	-8.2778	-24.497340	0.000172	1.722890	0.583731	0.000069
1802	1.7920e+02	-8.2409	-24.400448	0.000243	2.432316	0.824091	0.000097
1803	1.7930e+02	-8.2024	-24.255112	0.000365	3.648473	1.236136	0.000146
1804	1.7940e+02	-8.1655	-24.133997	0.000304	3.040395	1.030114	0.000122
1805	1.7950e+02	-8.1238	-24.041143	0.000233	2.330969	0.789754	0.000093
1806	1.7960e+02	-8.0837	-23.920029	0.000304	3.040395	1.030114	0.000122
1807	1.7970e+02	-8.0484	-23.806989	0.000284	2.837702	0.961439	0.000114
1808	1.7980e+02	-8.0067	-23.722210	0.000213	2.128276	0.721079	0.000085
1809	1.7990e+02	-7.9618	-23.572836	0.000375	3.749820	1.270473	0.000150
1810	1.8000e+02	-7.9169	-23.459796	0.000284	2.837702	0.961439	0.000114
1811	1.8009e+02	-7.8784	-23.407313	0.000132	1.317504	0.446383	0.000053
1812	1.8019e+02	-7.8559	-23.326570	0.000203	2.026930	0.686742	0.000081
1813	1.8029e+02	-7.8014	-23.225642	0.000253	2.533662	0.858428	0.000101
1814	1.8039e+02	-7.7597	-23.104528	0.000304	3.040395	1.030114	0.000122
1815	1.8049e+02	-7.7180	-22.999562	0.000264	2.635009	0.892765	0.000105
1816	1.8059e+02	-7.6859	-22.894597	0.000264	2.635009	0.892765	0.000105
1817	1.8069e+02	-7.6394	-22.821928	0.000182	1.824237	0.618068	0.000073
1818	1.8079e+02	-7.5993	-22.632183	0.000476	4.763285	1.613845	0.000191
1819	1.8089e+02	-7.5656	-22.531255	0.000253	2.533662	0.858428	0.000101
1820	1.8099e+02	-7.5271	-22.414178	0.000294	2.939048	0.995776	0.000118
1821	1.8109e+02	-7.4805	-22.256729	0.000395	3.952513	1.339148	0.000158
1822	1.8119e+02	-7.4452	-22.159838	0.000243	2.432316	0.824091	0.000097
1823	1.8129e+02	-7.4051	-22.062947	0.000243	2.432316	0.824091	0.000097
1824	1.8139e+02	-7.3698	-21.966056	0.000243	2.432316	0.824091	0.000097
1825	1.8149e+02	-7.3329	-21.853016	0.000284	2.837702	0.961439	0.000114
1826	1.8159e+02	-7.2848	-21.727865	0.000314	3.141741	1.064451	0.000126
1827	1.8169e+02	-7.2463	-21.663270	0.000162	1.621544	0.549394	0.000065
1828	1.8179e+02	-7.1998	-21.558305	0.000264	2.635009	0.892765	0.000105
1829	1.8189e+02	-7.1645	-21.493711	0.000162	1.621544	0.549394	0.000065
1830	1.8199e+02	-7.1228	-21.392782	0.000253	2.533662	0.858428	0.000101
1831	1.8209e+02	-7.0859	-21.239371	0.000385	3.851166	1.304810	0.000154
1832	1.8218e+02	-7.0474	-21.126331	0.000284	2.837702	0.961439	0.000114
1833	1.8228e+02	-7.0009	-21.037514	0.000223	2.229623	0.755417	0.000089
1834	1.8238e+02	-6.9704	-20.912363	0.000314	3.141741	1.064451	0.000126
1835	1.8248e+02	-6.9223	-20.787212	0.000314	3.141741	1.064451	0.000126
1836	1.8258e+02	-6.8822	-20.682246	0.000264	2.635009	0.892765	0.000105
1837	1.8268e+02	-6.8469	-20.544984	0.000345	3.445780	1.167462	0.000138
1838	1.8278e+02	-6.8116	-20.423870	0.000304	3.040395	1.030114	0.000122
1839	1.8288e+02	-6.7634	-20.343127	0.000203	2.026930	0.686742	0.000081
1840	1.8298e+02	-6.7394	-20.189716	0.000385	3.851166	1.304810	0.000154
1841	1.8308e+02	-6.6832	-20.104936	0.000213	2.128276	0.721079	0.000085
1842	1.8318e+02	-6.6479	-20.024193	0.000203	2.026930	0.686742	0.000081
1843	1.8328e+02	-6.6078	-19.890968	0.000334	3.344434	1.133125	0.000134
1844	1.8338e+02	-6.5645	-19.777928	0.000284	2.837702	0.961439	0.000114
1845	1.8348e+02	-6.5228	-19.689111	0.000223	2.229623	0.755417	0.000089
1846	1.8358e+02	-6.4939	-19.584145	0.000264	2.635009	0.892765	0.000105
1847	1.8368e+02	-6.4442	-19.491291	0.000233	2.330969	0.789754	0.000093
1848	1.8378e+02	-6.4089	-19.398437	0.000233	2.330969	0.789754	0.000093
1849	1.8388e+02	-6.3688	-19.277323	0.000304	3.040395	1.030114	0.000122
1850	1.8398e+02	-6.3287	-19.156209	0.000304	3.040395	1.030114	0.000122
1851	1.8407e+02	-6.2854	-19.027021	0.000324	3.243087	1.098788	0.000130
1852	1.8417e+02	-6.2517	-18.966464	0.000152	1.520197	0.515057	0.000061
1853	1.8427e+02	-6.2068	-18.833238	0.000334	3.344434	1.133125	0.000134
1854	1.8437e+02	-6.1683	-18.700013	0.000334	3.344434	1.133125	0.000134
1855	1.8447e+02	-6.1282	-18.502193	0.000497	4.965978	1.682519	0.000199
1856	1.8457e+02	-6.1009	-18.437599	0.000162	1.621544	0.549394	0.000065
1857	1.8467e+02	-6.0544	-18.312448	0.000314	3.141741	1.064451	0.000126
1858	1.8477e+02	-6.0143	-18.211519	0.000253	2.533662	0.858428	0.000101
1859	1.8487e+02	-5.9758	-18.094442	0.000294	2.939048	0.995776	0.000118
1860	1.8497e+02	-5.9308	-17.993514	0.000253	2.533662	0.858428	0.000101
1861	1.8507e+02	-5.8940	-17.827991	0.000416	4.155206	1.407822	0.000166
1862	1.8517e+02	-5.8506	-17.803769	0.000061	0.608079	0.206023	0.000024
1863	1.8527e+02	-5.8089	-17.658432	0.000365	3.648473	1.236136	0.000146
1864	1.8537e+02	-5.7720	-17.601912	0.000142	1.418851	0.480720	0.000057
1865	1.8547e+02	-5.7399	-17.440426	0.000405	4.053859	1.373485	0.000162
1866	1.8557e+02	-5.6854	-17.331424	0.000274	2.736355	0.927102	0.000110
1867	1.8567e+02	-5.6581	-17.246644	0.000213	2.128276	0.721079	0.000085
1868	1.8577e+02	-5.6196	-17.117456	0.000324	3.243087	1.098788	0.000130
1869	1.8587e+02	-5.5827	-16.955970	0.000405	4.053859	1.373485	0.000162
1870	1.8597e+02	-5.5298	-16.875227	0.000203	2.026930	0.686742	0.000081
1871	1.8606e+02	-5.4881	-16.810633	0.000162	1.621544	0.549394	0.000065
1872	1.8616e+02	-5.4576	-16.645111	0.000416	4.155206	1.407822	0.000166
1873	1.8626e+02	-5.4287	-16.503811	0.000355	3.547127	1.201799	0.000142
1874	1.8636e+02	-5.3742	-16.350400	0.000385	3.851166	1.304810	0.000154
1875	1.8646e+02	-5.3421	-16.217174	0.000334	3.344434	1.133125	0.000134
1876	1.8656e+02	-5.3036	-16.100097	0.000294	2.939048	0.995776	0.000118
1877	1.8666e+02	-5.2507	-15.987058	0.000284	2.837702	0.961439	0.000114
1878	1.8676e+02	-5.2105	-15.886129	0.000253	2.533662	0.858428	0.000101
1879	1.8686e+02	-5.1785	-15.765015	0.000304	3.040395	1.030114	0.000122
1880	1.8696e+02	-5.1384	-15.647938	0.000294	2.939048	0.995776	0.000118
1881	1.8706e+02	-5.0886	-15.555084	0.000233	2.330969	0.789754	0.000093
1882	1.8716e+02	-5.0501	-15.450118	0.000264	2.635009	0.892765	0.000105
1883	1.8726e+02	-5.0261	-15.345153	0.000264	2.635009	0.892765	0.000105
1884	1.8736e+02	-4.9747	-15.256336	0.000223	2.229623	0.755417	0.000089
1885	1.8746e+02	-4.9346	-15.098888	0.000395	3.952513	1.339148	0.000158
1886	1.8756e+02	-4.9025	-14.981811	0.000294	2.939048	0.995776	0.000118
1887	1.8766e+02	-4.8608	-14.864734	0.000294	2.939048	0.995776	0.000118
1888	1.8776e+02	-4.8255	-14.731508	0.000334	3.344434	1.133125	0.000134
1889	1.8786e+02	-4.7790	-14.626543	0.000264	2.635009	0.892765	0.000105
1890	1.8796e+02	-4.7325	-14.505429	0.000304	3.040395	1.030114	0.000122
1891	1.8806e+02	-4.6940	-14.388352	0.000294	2.939048	0.995776	0.000118
1892	1.8815e+02	-4.6555	-14.214755	0.000436	4.357899	1.476496	0.000174
1893	1.8825e+02	-4.6250	-14.093641	0.000304	3.040395	1.030114	0.000122
1894	1.8835e+02	-4.5801	-13.996750	0.000243	2.432316	0.824091	0.000097
1895	1.8845e+02	-4.5432	-13.867561	0.000324	3.243087	1.098788	0.000130
1896	1.8855e+02	-4.4967	-13.762596	0.000264	2.635009	0.892765	0.000105
1897	1.8865e+02	-4.4630	-13.669742	0.000233	2.330969	0.789754	0.000093
1898	1.8875e+02	-4.4132	-13.540553	0.000324	3.243087	1.098788	0.000130
1899	1.8885e+02	-4.3667	-13.443662	0.000243	2.432316	0.824091	0.000097
1900	1.8895e+02	-4.3411	-13.334659	0.000274	2.736355	0.927102	0.000110
1901	1.8905e+02	-4.2929	-13.229694	0.000264	2.635009	0.892765	0.000105
1902	1.8915e+02	-4.2624	-13.148951	0.000203	2.026930	0.686742	0.000081
1903	1.8925e+02	-4.2223	-13.027837	0.000304	3.040395	1.030114	0.000122
1904	1.8935e+02	-4.1822	-12.874426	0.000385	3.851166	1.304810	0.000154
1905	1.8945e+02	-4.1469	-12.773497	0.000253	2.533662	0.858428	0.000101
1906	1.8955e+02	-4.1020	-12.603938	0.000426	4.256552	1.442159	0.000170
1907	1.8965e+02	-4.0587	-12.498972	0.000264	2.635009	0.892765	0.000105
1908	1.8975e+02	-4.0186	-12.389970	0.000274	2.736355	0.927102	0.000110
1909	1.8985e+02	-3.9721	-12.256744	0.000334	3.344434	1.133125	0.000134
1910	1.8995e+02	-3.9480	-12.091222	0.000416	4.155206	1.407822	0.000166
1911	1.9004e+02	-3.9063	-11.994330	0.000243	2.432316	0.824091	0.000097
1912	1.9014e+02	-3.8614	-11.869179	0.000314	3.141741	1.064451	0.000126
1913	1.9024e+02	-3.8261	-11.772288	0.000243	2.432316	0.824091	0.000097
1914	1.9034e+02	-3.7860	-11.643099	0.000324	3.243087	1.098788	0.000130
1915	1.9044e+02	-3.7475	-11.509874	0.000334	3.344434	1.133125	0.000134
1916	1.9054e+02	-3.6994	-11.396834	0.000284	2.837702	0.961439	0.000114
1917	1.9064e+02	-3.6593	-11.283794	0.000284	2.837702	0.961439	0.000114
1918	1.9074e+02	-3.6127	-11.190940	0.000233	2.330969	0.789754	0.000093
1919	1.9084e+02	-3.5758	-11.094049	0.000243	2.432316	0.824091	0.000097
1920	1.9094e+02	-3.5373	-10.956786	0.000345	3.445780	1.167462	0.000138
1921	1.9104e+02	-3.5020	-10.823561	0.000334	3.344434	1.133125	0.000134
1922	1.9114e+02	-3.4635	-10.742818	0.000203	2.026930	0.686742	0.000081
1923	1.9124e+02	-3.4282	-10.617667	0.000314	3.141741	1.064451	0.000126
1924	1.9134e+02	-3.3817	-10.488479	0.000324	3.243087	1.098788	0.000130
1925	1.9144e+02	-3.3512	-10.355253	0.000334	3.344434	1.133125	0.000134
1926	1.9154e+02	-3.2903	-10.286622	0.000172	1.722890	0.583731	0.000069
1927	1.9164e+02	-3.2614	-10.137248	0.000375	3.749820	1.270473	0.000150
1928	1.9174e+02	-3.2229	-10.012097	0.000314	3.141741	1.064451	0.000126
1929	1.9184e+02	-3.1844	-9.870797	0.000355	3.547127	1.201799	0.000142
1930	1.9194e+02	-3.1475	-9.745646	0.000314	3.141741	1.064451	0.000126
1931	1.9203e+02	-3.1106	-9.612420	0.000334	3.344434	1.133125	0.000134
1932	1.9213e+02	-3.0657	-9.519566	0.000233	2.330969	0.789754	0.000093
1933	1.9223e+02	-3.0288	-9.362118	0.000395	3.952513	1.339148	0.000158
1934	1.9233e+02	-2.9823	-9.269264	0.000233	2.330969	0.789754	0.000093
1935	1.9243e+02	-2.9406	-9.160261	0.000274	2.736355	0.927102	0.000110
1936	1.9253e+02	-2.9069	-9.031073	0.000324	3.243087	1.098788	0.000130
1937	1.9263e+02	-2.8700	-8.922070	0.000274	2.736355	0.927102	0.000110
1938	1.9273e+02	-2.8234	-8.845364	0.000193	1.925583	0.652405	0.000077
1939	1.9283e+02	-2.7898	-8.695990	0.000375	3.749820	1.270473	0.000150
1940	1.9293e+02	-2.7416	-8.615248	0.000203	2.026930	0.686742	0.000081
1941	1.9303e+02	-2.7079	-8.518356	0.000243	2.432316	0.824091	0.000097
1942	1.9313e+02	-2.6662	-8.409354	0.000274	2.736355	0.927102	0.000110
1943	1.9323e+02	-2.6261	-8.247868	0.000405	4.053859	1.373485	0.000162
1944	1.9333e+02	-2.5876	-8.138866	0.000274	2.736355	0.927102	0.000110
1945	1.9343e+02	-2.5555	-7.969306	0.000426	4.256552	1.442159	0.000170
1946	1.9353e+02	-2.5122	-7.916823	0.000132	1.317504	0.446383	0.000053
1947	1.9363e+02	-2.4673	-7.751301	0.000416	4.155206	1.407822	0.000166
1948	1.9373e+02	-2.4320	-7.618075	0.000334	3.344434	1.133125	0.000134
1949	1.9383e+02	-2.3951	-7.505035	0.000284	2.837702	0.961439	0.000114
1950	1.9393e+02	-2.3454	-7.355661	0.000375	3.749820	1.270473	0.000150
1951	1.9403e+02	-2.3069	-7.258770	0.000243	2.432316	0.824091	0.000097
1952	1.9412e+02	-2.2636	-7.113433	0.000365	3.648473	1.236136	0.000146
1953	1.9422e+02	-2.2219	-7.028653	0.000213	2.128276	0.721079	0.000085
1954	1.9432e+02	-2.1850	-6.887354	0.000355	3.547127	1.201799	0.000142
1955	1.9442e+02	-2.1400	-6.782388	0.000264	2.635009	0.892765	0.000105
1956	1.9452e+02	-2.1080	-6.705682	0.000193	1.925583	0.652405	0.000077
1957	1.9462e+02	-2.0743	-6.620903	0.000213	2.128276	0.721079	0.000085
1958	1.9472e+02	-2.0278	-6.467491	0.000385	3.851166	1.304810	0.000154
1959	1.9482e+02	-1.9876	-6.358489	0.000274	2.736355	0.927102	0.000110
1960	1.9492e+02	-1.9459	-6.261598	0.000243	2.432316	0.824091	0.000097
1961	1.9502e+02	-1.9090	-6.164706	0.000243	2.432316	0.824091	0.000097
1962	1.9512e+02	-1.8753	-6.063778	0.000253	2.533662	0.858428	0.000101
1963	1.9522e+02	-1.8304	-5.930552	0.000334	3.344434	1.133125	0.000134
1964	1.9532e+02	-1.7903	-5.785216	0.000365	3.648473	1.236136	0.000146
1965	1.9542e+02	-1.7454	-5.688324	0.000243	2.432316	0.824091	0.000097
1966	1.9552e+02	-1.7069	-5.551062	0.000345	3.445780	1.167462	0.000138
1967	1.9562e+02	-1.6716	-5.417836	0.000334	3.344434	1.133125	0.000134
1968	1.9572e+02	-1.6235	-5.300759	0.000294	2.939048	0.995776	0.000118
1969	1.9582e+02	-1.5898	-5.191757	0.000274	2.736355	0.927102	0.000110
1970	1.9592e+02	-1.5433	-5.062568	0.000324	3.243087	1.098788	0.000130
1971	1.9601e+02	-1.5080	-4.901083	0.000405	4.053859	1.373485	0.000162
1972	1.9611e+02	-1.4775	-4.828414	0.000182	1.824237	0.618068	0.000073
1973	1.9621e+02	-1.4326	-4.711337	0.000294	2.939048	0.995776	0.000118
1974	1.9631e+02	-1.3861	-4.630595	0.000203	2.026930	0.686742	0.000081
1975	1.9641e+02	-1.3540	-4.489295	0.000355	3.547127	1.201799	0.000142
1976	1.9651e+02	-1.3058	-4.384329	0.000264	2.635009	0.892765	0.000105
1977	1.9661e+02	-1.2706	-4.275327	0.000274	2.736355	0.927102	0.000110
1978	1.9671e+02	-1.2272	-4.166324	0.000274	2.736355	0.927102	0.000110
1979	1.9681e+02	-1.1935	-4.073470	0.000233	2.330969	0.789754	0.000093
1980	1.9691e+02	-1.1454	-3.964467	0.000274	2.736355	0.927102	0.000110
1981	1.9701e+02	-1.1198	-3.843353	0.000304	3.040395	1.030114	0.000122
1982	1.9711e+02	-1.0732	-3.673794	0.000426	4.256552	1.442159	0.000170
1983	1.9721e+02	-1.0379	-3.564791	0.000274	2.736355	0.927102	0.000110
1984	1.9731e+02	-0.9834	-3.443677	0.000304	3.040395	1.030114	0.000122
1985	1.9741e+02	-0.9561	-3.306414	0.000345	3.445780	1.167462	0.000138
1986	1.9751e+02	-0.9128	-3.157040	0.000375	3.749820	1.270473	0.000150
1987	1.9761e+02	-0.8679	-3.052075	0.000264	2.635009	0.892765	0.000105
1988	1.9771e+02	-0.8358	-2.890589	0.000405	4.053859	1.373485	0.000162
1989	1.9781e+02	-0.7941	-2.797735	0.000233	2.330969	0.789754	0.000093
1990	1.9791e+02	-0.7556	-2.660472	0.000345	3.445780	1.167462	0.000138
1991	1.9800e+02	-0.7091	-2.563581	0.000243	2.432316	0.824091	0.000097
1992	1.9810e+02	-0.6754	-2.458616	0.000264	2.635009	0.892765	0.000105
1993	1.9820e+02	-0.6273	-2.353650	0.000264	2.635009	0.892765	0.000105
1994	1.9830e+02	-0.5871	-2.228499	0.000314	3.141741	1.064451	0.000126
1995	1.9840e+02	-0.5567	-2.135645	0.000233	2.330969	0.789754	0.000093
1996	1.9850e+02	-0.5150	-2.038754	0.000243	2.432316	0.824091	0.000097
1997	1.9860e+02	-0.4716	-1.885342	0.000385	3.851166	1.304810	0.000154
1998	1.9870e+02	-0.4364	-1.780377	0.000264	2.635009	0.892765	0.000105
1999	1.9880e+02	-0.3802	-1.671374	0.000274	2.736355	0.927102	0.000110
2000	1.9890e+02	-0.3626	-1.542186	0.000324	3.243087	1.098788	0.000130
2001	1.9900e+02	-0.3064	-1.408960	0.000334	3.344434	1.133125	0.000134
2002	1.9910e+02	-0.2695	-1.291883	0.000294	2.939048	0.995776	0.000118
2003	1.9920e+02	-0.2406	-1.174806	0.000294	2.939048	0.995776	0.000118
2004	1.9930e+02	-0.1989	-1.009284	0.000416	4.155206	1.407822	0.000166
2005	1.9940e+02	-0.1508	-0.867984	0.000355	3.547127	1.201799	0.000142
2006	1.9950e+02	-0.1155	-0.767056	0.000253	2.533662	0.858428	0.000101
2007	1.9960e+02	-0.0754	-0.645942	0.000304	3.040395	1.030114	0.000122
2008	1.9970e+02	-0.0433	-0.504642	0.000355	3.547127	1.201799	0.000142
2009	1.9980e+02	0.0032	-0.395639	0.000355	3.547127	1.201799	0.000110

PMax (uC/cm2):	7.08e+01
Pr (uC/cm2):	2.28e+01
-Pr (uC/cm2):	1.75e+01
PLoss (uC/cm2):	1.75e+01
Vc:	-5.92e+00
-Vc:	-7.56e+00
C (Max-Eff) (nF):	3.54e-01
K (Eff):	1.20e+03
Vert. (+/-Pr) Shift (uC/cm2):	2.02e+01
Horiz. Shift (+/-Vc):	-6.74e+00
Offset (uC/cm2):	1.79e+01

A (Loop Area - uC/cm2·Volts):	-1.30e+00



Hysteresis Version: 5.48.1 - Radiant Technologies, Inc., 1999 - 9/12/24

