»»»»»»»»»»»»»»»»»»»»»»»»»»»»»»»»»»»» Hysteresis ««««««««««««««««««««««««««««««««««««
»»»  Executed Version:	5.48.1
»»»  Vision Version:	5.48.4 (R)
»»»  Vision Compiled:	9/18/24
»»»  Driver Version:	5.47.0
»»»  Windows Version:	Windows 8 or 8.1
»»»  Processor Information:	x86 (AMD or Intel) - 32 Processors
»»»  Tester Name:	PMF21124-494 (100V)
»»»  Tester S/N:	PMF21124-494
»»»  Internal Amp Type:	100V RevK 270k
»»»  Internal Amp S/N:	iAB2-596/K     
»»»  Execution Count:	1
»»»»»»»»»»»»»»»»»»»»»»»»»»»»»»»»»»»»»»»»»»««««««««««««««««««««««««««««««««««««««««««

Stored:	6/19/2025 - 14:47:9
Configured:	06/19/25 10:04:32 AM
Executed:	06/19/25 02:46:47 PM

»»»»»»»»»»»»»»»»»»»»»»»»»»»»»»»»»»» Sample Info ««««««««««««««««««««««««««««««««««««
Sample Name:	
Lot Name:	
Wafer Name:	
Die Row/Column:	0/0
Capacitor Number:	0
Sample Area (cm2):	1.00e-04
Sample Thickness (microns):	3.00e-01

Amplifier:	Internal

»»»»»»»»»»»»»»»»»»»»»»»»»»»»»»»»»»» Tester Info «««««««««««««««««««««««««««««««««««
Tester Name:	PMF21124-494 (100V)
Tester Serial Number:	PMF21124-494
Return Signal Amp. Level:	0.19 [Index: 3]

»»»»»»»»»»»»»»»»»»»»»»»»»»»»»»»» Hysteresis Info ««««««««««««««««««««««««««««««««««
Task Name:	Hyst-1168
Volts:	20.00
Field:	666.67 (kV/cm)
DCBias:	0.00
DCField:	0.00 (kV/cm)
Hysteresis Period (ms):	2.00e+02
Preset:	Enabled
Preset Delay (ms):	1.00e+03
Profile:	Standard Bipolar

»»»»»»»»»»»»»»»»»»»»»»»»»»»»»»»»»»»»»» Data «««««««««««««««««««««««««««««««««««««««
Points:	2009

Valid Data

Point	Time (ms)	Drive Voltage	Measured Polarization (uC/cm2)	Capacitance (uF)	Normalized Capacitance (uF/cm2)	Dielectric Constant	Instantaneous Current (mA)
   1	0.0000e+00	0.0096	-2.517154	0.000203	2.026930	0.686742	0.000081
   2	9.9500e-02	0.0385	-2.436411	0.000203	2.026930	0.686742	0.000081
   3	1.9900e-01	0.0722	-2.363743	0.000182	1.824237	0.618068	0.000073
   4	2.9850e-01	0.1187	-2.250703	0.000284	2.837702	0.961439	0.000114
   5	3.9800e-01	0.1604	-2.157849	0.000233	2.330969	0.789754	0.000093
   6	4.9750e-01	0.1925	-2.064995	0.000233	2.330969	0.789754	0.000093
   7	5.9700e-01	0.2422	-1.964067	0.000253	2.533662	0.858428	0.000101
   8	6.9650e-01	0.2727	-1.859101	0.000264	2.635009	0.892765	0.000105
   9	7.9600e-01	0.3192	-1.742024	0.000294	2.939048	0.995776	0.000118
  10	8.9550e-01	0.3626	-1.657244	0.000213	2.128276	0.721079	0.000085
  11	9.9500e-01	0.3962	-1.568427	0.000223	2.229623	0.755417	0.000089
  12	1.0945e+00	0.4380	-1.455387	0.000284	2.837702	0.961439	0.000114
  13	1.1940e+00	0.4732	-1.334273	0.000304	3.040395	1.030114	0.000122
  14	1.2935e+00	0.5053	-1.201048	0.000334	3.344434	1.133125	0.000134
  15	1.3930e+00	0.5454	-1.136454	0.000162	1.621544	0.549394	0.000065
  16	1.4925e+00	0.5968	-1.019377	0.000294	2.939048	0.995776	0.000118
  17	1.5920e+00	0.6353	-0.942671	0.000193	1.925583	0.652405	0.000077
  18	1.6915e+00	0.6722	-0.817520	0.000314	3.141741	1.064451	0.000126
  19	1.7910e+00	0.7107	-0.672183	0.000365	3.648473	1.236136	0.000146
  20	1.8905e+00	0.7444	-0.611626	0.000152	1.520197	0.515057	0.000061
  21	1.9900e+00	0.7941	-0.498586	0.000284	2.837702	0.961439	0.000114
  22	2.0895e+00	0.8278	-0.401695	0.000243	2.432316	0.824091	0.000097
  23	2.1890e+00	0.8823	-0.300767	0.000253	2.533662	0.858428	0.000101
  24	2.2885e+00	0.9128	-0.191764	0.000274	2.736355	0.927102	0.000110
  25	2.3880e+00	0.9545	-0.054501	0.000345	3.445780	1.167462	0.000138
  26	2.4875e+00	0.9978	0.034316	0.000223	2.229623	0.755417	0.000089
  27	2.5870e+00	1.0299	0.175615	0.000355	3.547127	1.201799	0.000142
  28	2.6865e+00	1.0716	0.284618	0.000274	2.736355	0.927102	0.000110
  29	2.7860e+00	1.1085	0.329027	0.000111	1.114811	0.377708	0.000045
  30	2.8855e+00	1.1567	0.478401	0.000375	3.749820	1.270473	0.000150
  31	2.9850e+00	1.1935	0.587403	0.000274	2.736355	0.927102	0.000110
  32	3.0845e+00	1.2353	0.647960	0.000152	1.520197	0.515057	0.000061
  33	3.1840e+00	1.2722	0.789260	0.000355	3.547127	1.201799	0.000142
  34	3.2835e+00	1.3171	0.882114	0.000233	2.330969	0.789754	0.000093
  35	3.3830e+00	1.3524	1.003228	0.000304	3.040395	1.030114	0.000122
  36	3.4825e+00	1.4005	1.104157	0.000253	2.533662	0.858428	0.000101
  37	3.5820e+00	1.4310	1.221234	0.000294	2.939048	0.995776	0.000118
  38	3.6815e+00	1.4775	1.342348	0.000304	3.040395	1.030114	0.000122
  39	3.7810e+00	1.5112	1.451350	0.000274	2.736355	0.927102	0.000110
  40	3.8805e+00	1.5561	1.556316	0.000264	2.635009	0.892765	0.000105
  41	3.9800e+00	1.5930	1.637059	0.000203	2.026930	0.686742	0.000081
  42	4.0795e+00	1.6347	1.778358	0.000355	3.547127	1.201799	0.000142
  43	4.1790e+00	1.6780	1.899472	0.000304	3.040395	1.030114	0.000122
  44	4.2785e+00	1.7133	1.972141	0.000182	1.824237	0.618068	0.000073
  45	4.3780e+00	1.7598	2.105366	0.000334	3.344434	1.133125	0.000134
  46	4.4775e+00	1.7887	2.202258	0.000243	2.432316	0.824091	0.000097
  47	4.5770e+00	1.8288	2.311260	0.000274	2.736355	0.927102	0.000110
  48	4.6765e+00	1.8705	2.440449	0.000324	3.243087	1.098788	0.000130
  49	4.7760e+00	1.9171	2.537340	0.000243	2.432316	0.824091	0.000097
  50	4.8755e+00	1.9475	2.638268	0.000253	2.533662	0.858428	0.000101
  51	4.9750e+00	1.9860	2.739197	0.000253	2.533662	0.858428	0.000101
  52	5.0745e+00	2.0261	2.860311	0.000304	3.040395	1.030114	0.000122
  53	5.1740e+00	2.0775	2.977388	0.000294	2.939048	0.995776	0.000118
  54	5.2735e+00	2.1048	3.070242	0.000233	2.330969	0.789754	0.000093
  55	5.3730e+00	2.1577	3.195393	0.000314	3.141741	1.064451	0.000126
  56	5.4725e+00	2.1882	3.288247	0.000233	2.330969	0.789754	0.000093
  57	5.5720e+00	2.2283	3.433584	0.000365	3.648473	1.236136	0.000146
  58	5.6715e+00	2.2748	3.502215	0.000172	1.722890	0.583731	0.000069
  59	5.7710e+00	2.3117	3.599107	0.000243	2.432316	0.824091	0.000097
  60	5.8705e+00	2.3438	3.740406	0.000355	3.547127	1.201799	0.000142
  61	5.9700e+00	2.3919	3.865557	0.000314	3.141741	1.064451	0.000126
  62	6.0695e+00	2.4240	3.970523	0.000264	2.635009	0.892765	0.000105
  63	6.1690e+00	2.4689	4.031080	0.000152	1.520197	0.515057	0.000061
  64	6.2685e+00	2.4978	4.184491	0.000385	3.851166	1.304810	0.000154
  65	6.3680e+00	2.5491	4.277345	0.000233	2.330969	0.789754	0.000093
  66	6.4675e+00	2.5812	4.374237	0.000243	2.432316	0.824091	0.000097
  67	6.5670e+00	2.6213	4.515536	0.000355	3.547127	1.201799	0.000142
  68	6.6665e+00	2.6662	4.628576	0.000284	2.837702	0.961439	0.000114
  69	6.7660e+00	2.6999	4.745653	0.000294	2.939048	0.995776	0.000118
  70	6.8655e+00	2.7545	4.822359	0.000193	1.925583	0.652405	0.000077
  71	6.9650e+00	2.7898	4.935398	0.000284	2.837702	0.961439	0.000114
  72	7.0645e+00	2.8347	5.064587	0.000324	3.243087	1.098788	0.000130
  73	7.1640e+00	2.8748	5.153404	0.000223	2.229623	0.755417	0.000089
  74	7.2635e+00	2.9165	5.282592	0.000324	3.243087	1.098788	0.000130
  75	7.3630e+00	2.9422	5.395632	0.000284	2.837702	0.961439	0.000114
  76	7.4625e+00	2.9951	5.528857	0.000334	3.344434	1.133125	0.000134
  77	7.5620e+00	3.0208	5.641897	0.000284	2.837702	0.961439	0.000114
  78	7.6615e+00	3.0657	5.758974	0.000294	2.939048	0.995776	0.000118
  79	7.7610e+00	3.1154	5.867977	0.000274	2.736355	0.927102	0.000110
  80	7.8605e+00	3.1443	5.940645	0.000182	1.824237	0.618068	0.000073
  81	7.9600e+00	3.1876	6.053685	0.000284	2.837702	0.961439	0.000114
  82	8.0595e+00	3.2293	6.162688	0.000274	2.736355	0.927102	0.000110
  83	8.1590e+00	3.2694	6.312062	0.000375	3.749820	1.270473	0.000150
  84	8.2585e+00	3.3095	6.368582	0.000142	1.418851	0.480720	0.000057
  85	8.3580e+00	3.3432	6.554290	0.000466	4.661938	1.579507	0.000187
  86	8.4575e+00	3.3785	6.618884	0.000162	1.621544	0.549394	0.000065
  87	8.5570e+00	3.4266	6.764221	0.000365	3.648473	1.236136	0.000146
  88	8.6565e+00	3.4684	6.857075	0.000233	2.330969	0.789754	0.000093
  89	8.7560e+00	3.5069	7.002412	0.000365	3.648473	1.236136	0.000146
  90	8.8555e+00	3.5502	7.071043	0.000172	1.722890	0.583731	0.000069
  91	8.9550e+00	3.5951	7.155823	0.000213	2.128276	0.721079	0.000085
  92	9.0545e+00	3.6272	7.301160	0.000365	3.648473	1.236136	0.000146
  93	9.1540e+00	3.6673	7.418237	0.000294	2.939048	0.995776	0.000118
  94	9.2535e+00	3.6962	7.503017	0.000213	2.128276	0.721079	0.000085
  95	9.3530e+00	3.7475	7.620094	0.000294	2.939048	0.995776	0.000118
  96	9.4525e+00	3.7860	7.785616	0.000416	4.155206	1.407822	0.000166
  97	9.5520e+00	3.8197	7.882508	0.000243	2.432316	0.824091	0.000097
  98	9.6515e+00	3.8566	7.959213	0.000193	1.925583	0.652405	0.000077
  99	9.7510e+00	3.9031	8.092439	0.000334	3.344434	1.133125	0.000134
 100	9.8505e+00	3.9464	8.197404	0.000264	2.635009	0.892765	0.000105
 101	9.9500e+00	3.9849	8.314481	0.000294	2.939048	0.995776	0.000118
 102	1.0050e+01	4.0298	8.467892	0.000385	3.851166	1.304810	0.000154
 103	1.0149e+01	4.0667	8.536524	0.000172	1.722890	0.583731	0.000069
 104	1.0248e+01	4.0956	8.641489	0.000264	2.635009	0.892765	0.000105
 105	1.0348e+01	4.1437	8.782789	0.000355	3.547127	1.201799	0.000142
 106	1.0447e+01	4.1838	8.891791	0.000274	2.736355	0.927102	0.000110
 107	1.0547e+01	4.2272	9.004831	0.000284	2.837702	0.961439	0.000114
 108	1.0646e+01	4.2657	9.121908	0.000294	2.939048	0.995776	0.000118
 109	1.0746e+01	4.2993	9.214762	0.000233	2.330969	0.789754	0.000093
 110	1.0845e+01	4.3459	9.331839	0.000294	2.939048	0.995776	0.000118
 111	1.0945e+01	4.3763	9.469102	0.000345	3.445780	1.167462	0.000138
 112	1.1044e+01	4.4229	9.570030	0.000253	2.533662	0.858428	0.000101
 113	1.1144e+01	4.4550	9.670959	0.000253	2.533662	0.858428	0.000101
 114	1.1243e+01	4.5047	9.824370	0.000385	3.851166	1.304810	0.000154
 115	1.1343e+01	4.5368	9.897038	0.000182	1.824237	0.618068	0.000073
 116	1.1443e+01	4.5881	10.034301	0.000345	3.445780	1.167462	0.000138
 117	1.1542e+01	4.6234	10.135229	0.000253	2.533662	0.858428	0.000101
 118	1.1642e+01	4.6603	10.272492	0.000345	3.445780	1.167462	0.000138
 119	1.1741e+01	4.6972	10.333049	0.000152	1.520197	0.515057	0.000061
 120	1.1841e+01	4.7373	10.482423	0.000375	3.749820	1.270473	0.000150
 121	1.1940e+01	4.7774	10.587388	0.000264	2.635009	0.892765	0.000105
 122	1.2040e+01	4.8287	10.712540	0.000314	3.141741	1.064451	0.000126
 123	1.2139e+01	4.8560	10.821542	0.000274	2.736355	0.927102	0.000110
 124	1.2239e+01	4.8945	10.918434	0.000243	2.432316	0.824091	0.000097
 125	1.2338e+01	4.9314	11.043585	0.000314	3.141741	1.064451	0.000126
 126	1.2438e+01	4.9795	11.136439	0.000233	2.330969	0.789754	0.000093
 127	1.2537e+01	5.0196	11.289850	0.000385	3.851166	1.304810	0.000154
 128	1.2636e+01	5.0646	11.398853	0.000274	2.736355	0.927102	0.000110
 129	1.2736e+01	5.0886	11.532078	0.000334	3.344434	1.133125	0.000134
 130	1.2835e+01	5.1384	11.608784	0.000193	1.925583	0.652405	0.000077
 131	1.2935e+01	5.1769	11.733935	0.000314	3.141741	1.064451	0.000126
 132	1.3034e+01	5.2138	11.863123	0.000324	3.243087	1.098788	0.000130
 133	1.3134e+01	5.2571	11.984237	0.000304	3.040395	1.030114	0.000122
 134	1.3233e+01	5.3004	12.089203	0.000264	2.635009	0.892765	0.000105
 135	1.3333e+01	5.3405	12.190131	0.000253	2.533662	0.858428	0.000101
 136	1.3432e+01	5.3758	12.311245	0.000304	3.040395	1.030114	0.000122
 137	1.3532e+01	5.4287	12.448508	0.000345	3.445780	1.167462	0.000138
 138	1.3632e+01	5.4512	12.513102	0.000162	1.621544	0.549394	0.000065
 139	1.3731e+01	5.4993	12.650365	0.000345	3.445780	1.167462	0.000138
 140	1.3831e+01	5.5378	12.759368	0.000274	2.736355	0.927102	0.000110
 141	1.3930e+01	5.5715	12.892593	0.000334	3.344434	1.133125	0.000134
 142	1.4030e+01	5.6180	13.017744	0.000314	3.141741	1.064451	0.000126
 143	1.4129e+01	5.6549	13.094450	0.000193	1.925583	0.652405	0.000077
 144	1.4229e+01	5.6966	13.199415	0.000264	2.635009	0.892765	0.000105
 145	1.4328e+01	5.7319	13.332641	0.000334	3.344434	1.133125	0.000134
 146	1.4428e+01	5.7752	13.457792	0.000314	3.141741	1.064451	0.000126
 147	1.4527e+01	5.8186	13.570832	0.000284	2.837702	0.961439	0.000114
 148	1.4627e+01	5.8554	13.691946	0.000304	3.040395	1.030114	0.000122
 149	1.4726e+01	5.8940	13.776726	0.000213	2.128276	0.721079	0.000085
 150	1.4825e+01	5.9389	13.909951	0.000334	3.344434	1.133125	0.000134
 151	1.4925e+01	5.9774	14.039140	0.000324	3.243087	1.098788	0.000130
 152	1.5024e+01	6.0191	14.119882	0.000203	2.026930	0.686742	0.000081
 153	1.5124e+01	6.0608	14.253108	0.000334	3.344434	1.133125	0.000134
 154	1.5223e+01	6.0913	14.398445	0.000365	3.648473	1.236136	0.000146
 155	1.5323e+01	6.1314	14.523596	0.000314	3.141741	1.064451	0.000126
 156	1.5422e+01	6.1715	14.568004	0.000111	1.114811	0.377708	0.000045
 157	1.5522e+01	6.2116	14.725453	0.000395	3.952513	1.339148	0.000158
 158	1.5621e+01	6.2629	14.822344	0.000243	2.432316	0.824091	0.000097
 159	1.5721e+01	6.2982	14.963644	0.000355	3.547127	1.201799	0.000142
 160	1.5820e+01	6.3367	15.088795	0.000314	3.141741	1.064451	0.000126
 161	1.5920e+01	6.3640	15.153389	0.000162	1.621544	0.549394	0.000065
 162	1.6020e+01	6.4105	15.331023	0.000446	4.459245	1.510833	0.000179
 163	1.6119e+01	6.4474	15.440026	0.000274	2.736355	0.927102	0.000110
 164	1.6218e+01	6.4923	15.549028	0.000274	2.736355	0.927102	0.000110
 165	1.6318e+01	6.5276	15.653994	0.000264	2.635009	0.892765	0.000105
 166	1.6418e+01	6.5629	15.742811	0.000223	2.229623	0.755417	0.000089
 167	1.6517e+01	6.6175	15.871999	0.000324	3.243087	1.098788	0.000130
 168	1.6616e+01	6.6528	15.976965	0.000264	2.635009	0.892765	0.000105
 169	1.6716e+01	6.6880	16.102116	0.000314	3.141741	1.064451	0.000126
 170	1.6816e+01	6.7346	16.203044	0.000253	2.533662	0.858428	0.000101
 171	1.6915e+01	6.7667	16.324158	0.000304	3.040395	1.030114	0.000122
 172	1.7015e+01	6.8116	16.425087	0.000253	2.533662	0.858428	0.000101
 173	1.7114e+01	6.8453	16.534089	0.000274	2.736355	0.927102	0.000110
 174	1.7213e+01	6.8902	16.663278	0.000324	3.243087	1.098788	0.000130
 175	1.7313e+01	6.9367	16.764206	0.000253	2.533662	0.858428	0.000101
 176	1.7413e+01	6.9736	16.917617	0.000385	3.851166	1.304810	0.000154
 177	1.7512e+01	7.0105	16.994323	0.000193	1.925583	0.652405	0.000077
 178	1.7611e+01	7.0554	17.135623	0.000355	3.547127	1.201799	0.000142
 179	1.7711e+01	7.0907	17.252700	0.000294	2.939048	0.995776	0.000118
 180	1.7811e+01	7.1260	17.369777	0.000294	2.939048	0.995776	0.000118
 181	1.7910e+01	7.1693	17.486853	0.000294	2.939048	0.995776	0.000118
 182	1.8009e+01	7.2126	17.591819	0.000264	2.635009	0.892765	0.000105
 183	1.8109e+01	7.2495	17.700822	0.000274	2.736355	0.927102	0.000110
 184	1.8209e+01	7.2816	17.821936	0.000304	3.040395	1.030114	0.000122
 185	1.8308e+01	7.3329	17.886530	0.000162	1.621544	0.549394	0.000065
 186	1.8407e+01	7.3634	18.039941	0.000385	3.851166	1.304810	0.000154
 187	1.8507e+01	7.3955	18.161055	0.000304	3.040395	1.030114	0.000122
 188	1.8607e+01	7.4436	18.302355	0.000355	3.547127	1.201799	0.000142
 189	1.8706e+01	7.4886	18.370986	0.000172	1.722890	0.583731	0.000069
 190	1.8805e+01	7.5271	18.524397	0.000385	3.851166	1.304810	0.000154
 191	1.8905e+01	7.5704	18.637437	0.000284	2.837702	0.961439	0.000114
 192	1.9005e+01	7.6057	18.758551	0.000304	3.040395	1.030114	0.000122
 193	1.9104e+01	7.6442	18.855442	0.000243	2.432316	0.824091	0.000097
 194	1.9203e+01	7.6907	18.964445	0.000274	2.736355	0.927102	0.000110
 195	1.9303e+01	7.7212	19.121893	0.000395	3.952513	1.339148	0.000158
 196	1.9402e+01	7.7725	19.190525	0.000172	1.722890	0.583731	0.000069
 197	1.9502e+01	7.8094	19.299527	0.000274	2.736355	0.927102	0.000110
 198	1.9602e+01	7.8479	19.428716	0.000324	3.243087	1.098788	0.000130
 199	1.9701e+01	7.8864	19.529644	0.000253	2.533662	0.858428	0.000101
 200	1.9800e+01	7.9169	19.646721	0.000294	2.939048	0.995776	0.000118
 201	1.9900e+01	7.9714	19.788021	0.000355	3.547127	1.201799	0.000142
 202	2.0000e+01	8.0035	19.880875	0.000233	2.330969	0.789754	0.000093
 203	2.0099e+01	8.0452	20.026212	0.000365	3.648473	1.236136	0.000146
 204	2.0198e+01	8.0821	20.090806	0.000162	1.621544	0.549394	0.000065
 205	2.0298e+01	8.1206	20.224031	0.000334	3.344434	1.133125	0.000134
 206	2.0398e+01	8.1671	20.353220	0.000324	3.243087	1.098788	0.000130
 207	2.0497e+01	8.2008	20.510668	0.000395	3.952513	1.339148	0.000158
 208	2.0596e+01	8.2458	20.583337	0.000182	1.824237	0.618068	0.000073
 209	2.0696e+01	8.2827	20.651968	0.000172	1.722890	0.583731	0.000069
 210	2.0796e+01	8.3244	20.817490	0.000416	4.155206	1.407822	0.000166
 211	2.0895e+01	8.3629	20.898233	0.000203	2.026930	0.686742	0.000081
 212	2.0994e+01	8.4014	21.043570	0.000365	3.648473	1.236136	0.000146
 213	2.1094e+01	8.4527	21.140461	0.000243	2.432316	0.824091	0.000097
 214	2.1194e+01	8.4800	21.277724	0.000345	3.445780	1.167462	0.000138
 215	2.1293e+01	8.5169	21.398838	0.000304	3.040395	1.030114	0.000122
 216	2.1392e+01	8.5666	21.511878	0.000284	2.837702	0.961439	0.000114
 217	2.1492e+01	8.5987	21.604732	0.000233	2.330969	0.789754	0.000093
 218	2.1591e+01	8.6452	21.750069	0.000365	3.648473	1.236136	0.000146
 219	2.1691e+01	8.6741	21.806589	0.000142	1.418851	0.480720	0.000057
 220	2.1791e+01	8.7254	21.960000	0.000385	3.851166	1.304810	0.000154
 221	2.1890e+01	8.7687	22.073040	0.000284	2.837702	0.961439	0.000114
 222	2.1989e+01	8.8104	22.190117	0.000294	2.939048	0.995776	0.000118
 223	2.2089e+01	8.8441	22.311231	0.000304	3.040395	1.030114	0.000122
 224	2.2189e+01	8.8826	22.428308	0.000294	2.939048	0.995776	0.000118
 225	2.2288e+01	8.9131	22.533273	0.000264	2.635009	0.892765	0.000105
 226	2.2387e+01	8.9661	22.650350	0.000294	2.939048	0.995776	0.000118
 227	2.2487e+01	9.0014	22.787613	0.000345	3.445780	1.167462	0.000138
 228	2.2587e+01	9.0431	22.908727	0.000304	3.040395	1.030114	0.000122
 229	2.2686e+01	9.0848	22.989469	0.000203	2.026930	0.686742	0.000081
 230	2.2785e+01	9.1169	23.114621	0.000314	3.141741	1.064451	0.000126
 231	2.2885e+01	9.1554	23.247846	0.000334	3.344434	1.133125	0.000134
 232	2.2985e+01	9.1987	23.368960	0.000304	3.040395	1.030114	0.000122
 233	2.3084e+01	9.2292	23.457777	0.000223	2.229623	0.755417	0.000089
 234	2.3183e+01	9.2885	23.570817	0.000284	2.837702	0.961439	0.000114
 235	2.3283e+01	9.3238	23.704042	0.000334	3.344434	1.133125	0.000134
 236	2.3383e+01	9.3527	23.825157	0.000304	3.040395	1.030114	0.000122
 237	2.3482e+01	9.4104	23.926085	0.000253	2.533662	0.858428	0.000101
 238	2.3581e+01	9.4361	24.027013	0.000253	2.533662	0.858428	0.000101
 239	2.3681e+01	9.4778	24.119867	0.000233	2.330969	0.789754	0.000093
 240	2.3780e+01	9.5163	24.236944	0.000294	2.939048	0.995776	0.000118
 241	2.3880e+01	9.5612	24.390356	0.000385	3.851166	1.304810	0.000154
 242	2.3980e+01	9.6013	24.515507	0.000314	3.141741	1.064451	0.000126
 243	2.4079e+01	9.6334	24.616435	0.000253	2.533662	0.858428	0.000101
 244	2.4178e+01	9.6799	24.693141	0.000193	1.925583	0.652405	0.000077
 245	2.4278e+01	9.7168	24.862700	0.000426	4.256552	1.442159	0.000170
 246	2.4378e+01	9.7553	24.951517	0.000223	2.229623	0.755417	0.000089
 247	2.4477e+01	9.8083	25.092817	0.000355	3.547127	1.201799	0.000142
 248	2.4576e+01	9.8356	25.185671	0.000233	2.330969	0.789754	0.000093
 249	2.4676e+01	9.8805	25.322934	0.000345	3.445780	1.167462	0.000138
 250	2.4776e+01	9.9158	25.427899	0.000264	2.635009	0.892765	0.000105
 251	2.4875e+01	9.9639	25.544976	0.000294	2.939048	0.995776	0.000118
 252	2.4974e+01	9.9896	25.682239	0.000345	3.445780	1.167462	0.000138
 253	2.5074e+01	10.0345	25.738759	0.000142	1.418851	0.480720	0.000057
 254	2.5174e+01	10.0858	25.863910	0.000314	3.141741	1.064451	0.000126
 255	2.5273e+01	10.1147	26.021358	0.000395	3.952513	1.339148	0.000158
 256	2.5372e+01	10.1500	26.098064	0.000193	1.925583	0.652405	0.000077
 257	2.5472e+01	10.1965	26.235327	0.000345	3.445780	1.167462	0.000138
 258	2.5572e+01	10.2366	26.356441	0.000304	3.040395	1.030114	0.000122
 259	2.5671e+01	10.2815	26.461406	0.000264	2.635009	0.892765	0.000105
 260	2.5770e+01	10.3232	26.598669	0.000345	3.445780	1.167462	0.000138
 261	2.5870e+01	10.3521	26.679412	0.000203	2.026930	0.686742	0.000081
 262	2.5970e+01	10.4067	26.816674	0.000345	3.445780	1.167462	0.000138
 263	2.6069e+01	10.4420	26.917603	0.000253	2.533662	0.858428	0.000101
 264	2.6169e+01	10.4724	27.034679	0.000294	2.939048	0.995776	0.000118
 265	2.6268e+01	10.5141	27.180016	0.000365	3.648473	1.236136	0.000146
 266	2.6367e+01	10.5559	27.268833	0.000223	2.229623	0.755417	0.000089
 267	2.6467e+01	10.5944	27.393985	0.000314	3.141741	1.064451	0.000126
 268	2.6567e+01	10.6393	27.519136	0.000314	3.141741	1.064451	0.000126
 269	2.6666e+01	10.6842	27.652361	0.000334	3.344434	1.133125	0.000134
 270	2.6765e+01	10.7211	27.688695	0.000091	0.912118	0.309034	0.000037
 271	2.6865e+01	10.7435	27.838069	0.000375	3.749820	1.270473	0.000150
 272	2.6965e+01	10.7949	27.967258	0.000324	3.243087	1.098788	0.000130
 273	2.7064e+01	10.8366	28.108558	0.000355	3.547127	1.201799	0.000142
 274	2.7163e+01	10.8703	28.169115	0.000152	1.520197	0.515057	0.000061
 275	2.7263e+01	10.9232	28.306377	0.000345	3.445780	1.167462	0.000138
 276	2.7363e+01	10.9489	28.439603	0.000334	3.344434	1.133125	0.000134
 277	2.7462e+01	10.9890	28.536494	0.000243	2.432316	0.824091	0.000097
 278	2.7561e+01	11.0339	28.649534	0.000284	2.837702	0.961439	0.000114
 279	2.7661e+01	11.0740	28.770648	0.000304	3.040395	1.030114	0.000122
 280	2.7761e+01	11.1157	28.871576	0.000253	2.533662	0.858428	0.000101
 281	2.7860e+01	11.1510	28.964430	0.000233	2.330969	0.789754	0.000093
 282	2.7959e+01	11.1943	29.097656	0.000334	3.344434	1.133125	0.000134
 283	2.8059e+01	11.2328	29.222807	0.000314	3.141741	1.064451	0.000126
 284	2.8159e+01	11.2697	29.327773	0.000264	2.635009	0.892765	0.000105
 285	2.8258e+01	11.3082	29.440812	0.000284	2.837702	0.961439	0.000114
 286	2.8358e+01	11.3532	29.586149	0.000365	3.648473	1.236136	0.000146
 287	2.8457e+01	11.3965	29.679003	0.000233	2.330969	0.789754	0.000093
 288	2.8556e+01	11.4334	29.800117	0.000304	3.040395	1.030114	0.000122
 289	2.8656e+01	11.4783	29.933343	0.000334	3.344434	1.133125	0.000134
 290	2.8756e+01	11.5152	30.022160	0.000223	2.229623	0.755417	0.000089
 291	2.8855e+01	11.5585	30.171534	0.000375	3.749820	1.270473	0.000150
 292	2.8954e+01	11.5890	30.248240	0.000193	1.925583	0.652405	0.000077
 293	2.9054e+01	11.6323	30.425873	0.000446	4.459245	1.510833	0.000179
 294	2.9154e+01	11.6724	30.506616	0.000203	2.026930	0.686742	0.000081
 295	2.9253e+01	11.7029	30.607545	0.000253	2.533662	0.858428	0.000101
 296	2.9352e+01	11.7558	30.700399	0.000233	2.330969	0.789754	0.000093
 297	2.9452e+01	11.7847	30.845736	0.000365	3.648473	1.236136	0.000146
 298	2.9552e+01	11.8344	30.950701	0.000264	2.635009	0.892765	0.000105
 299	2.9651e+01	11.8761	31.047592	0.000243	2.432316	0.824091	0.000097
 300	2.9750e+01	11.9162	31.136409	0.000223	2.229623	0.755417	0.000089
 301	2.9850e+01	11.9531	31.289821	0.000385	3.851166	1.304810	0.000154
 302	2.9950e+01	11.9965	31.423046	0.000334	3.344434	1.133125	0.000134
 303	3.0049e+01	12.0334	31.552234	0.000324	3.243087	1.098788	0.000130
 304	3.0148e+01	12.0654	31.612791	0.000152	1.520197	0.515057	0.000061
 305	3.0248e+01	12.1071	31.750054	0.000345	3.445780	1.167462	0.000138
 306	3.0348e+01	12.1505	31.859057	0.000274	2.736355	0.927102	0.000110
 307	3.0447e+01	12.1938	31.980171	0.000304	3.040395	1.030114	0.000122
 308	3.0547e+01	12.2194	32.117433	0.000345	3.445780	1.167462	0.000138
 309	3.0646e+01	12.2628	32.222399	0.000264	2.635009	0.892765	0.000105
 310	3.0745e+01	12.3045	32.319290	0.000243	2.432316	0.824091	0.000097
 311	3.0845e+01	12.3446	32.464627	0.000365	3.648473	1.236136	0.000146
 312	3.0945e+01	12.3911	32.561518	0.000243	2.432316	0.824091	0.000097
 313	3.1044e+01	12.4328	32.638224	0.000193	1.925583	0.652405	0.000077
 314	3.1143e+01	12.4681	32.791635	0.000385	3.851166	1.304810	0.000154
 315	3.1243e+01	12.5034	32.900638	0.000274	2.736355	0.927102	0.000110
 316	3.1343e+01	12.5531	33.029826	0.000324	3.243087	1.098788	0.000130
 317	3.1442e+01	12.5916	33.126717	0.000243	2.432316	0.824091	0.000097
 318	3.1541e+01	12.6285	33.255906	0.000324	3.243087	1.098788	0.000130
 319	3.1641e+01	12.6638	33.364908	0.000274	2.736355	0.927102	0.000110
 320	3.1741e+01	12.7184	33.486022	0.000304	3.040395	1.030114	0.000122
 321	3.1840e+01	12.7472	33.590988	0.000264	2.635009	0.892765	0.000105
 322	3.1939e+01	12.7873	33.695953	0.000264	2.635009	0.892765	0.000105
 323	3.2039e+01	12.8226	33.800919	0.000264	2.635009	0.892765	0.000105
 324	3.2139e+01	12.8627	33.934144	0.000334	3.344434	1.133125	0.000134
 325	3.2238e+01	12.9141	34.063333	0.000324	3.243087	1.098788	0.000130
 326	3.2337e+01	12.9558	34.140038	0.000193	1.925583	0.652405	0.000077
 327	3.2437e+01	12.9766	34.257115	0.000294	2.939048	0.995776	0.000118
 328	3.2536e+01	13.0280	34.341895	0.000213	2.128276	0.721079	0.000085
 329	3.2636e+01	13.0569	34.495306	0.000385	3.851166	1.304810	0.000154
 330	3.2736e+01	13.1050	34.616420	0.000304	3.040395	1.030114	0.000122
 331	3.2835e+01	13.1435	34.693126	0.000193	1.925583	0.652405	0.000077
 332	3.2934e+01	13.1788	34.826351	0.000334	3.344434	1.133125	0.000134
 333	3.3034e+01	13.2237	34.979763	0.000385	3.851166	1.304810	0.000154
 334	3.3133e+01	13.2558	35.064542	0.000213	2.128276	0.721079	0.000085
 335	3.3233e+01	13.2959	35.133174	0.000172	1.722890	0.583731	0.000069
 336	3.3333e+01	13.3472	35.250251	0.000294	2.939048	0.995776	0.000118
 337	3.3432e+01	13.3841	35.399625	0.000375	3.749820	1.270473	0.000150
 338	3.3532e+01	13.4210	35.488442	0.000223	2.229623	0.755417	0.000089
 339	3.3631e+01	13.4675	35.674150	0.000466	4.661938	1.579507	0.000187
 340	3.3730e+01	13.5076	35.750856	0.000193	1.925583	0.652405	0.000077
 341	3.3830e+01	13.5397	35.843710	0.000233	2.330969	0.789754	0.000093
 342	3.3929e+01	13.5766	35.956749	0.000284	2.837702	0.961439	0.000114
 343	3.4029e+01	13.6199	36.110161	0.000385	3.851166	1.304810	0.000154
 344	3.4129e+01	13.6633	36.194940	0.000213	2.128276	0.721079	0.000085
 345	3.4228e+01	13.6953	36.299906	0.000264	2.635009	0.892765	0.000105
 346	3.4328e+01	13.7467	36.429094	0.000324	3.243087	1.098788	0.000130
 347	3.4427e+01	13.7836	36.530023	0.000253	2.533662	0.858428	0.000101
 348	3.4526e+01	13.8140	36.643063	0.000284	2.837702	0.961439	0.000114
 349	3.4626e+01	13.8622	36.796474	0.000385	3.851166	1.304810	0.000154
 350	3.4725e+01	13.9023	36.897402	0.000253	2.533662	0.858428	0.000101
 351	3.4825e+01	13.9456	37.014479	0.000294	2.939048	0.995776	0.000118
 352	3.4925e+01	13.9825	37.111370	0.000243	2.432316	0.824091	0.000097
 353	3.5024e+01	14.0162	37.236521	0.000314	3.141741	1.064451	0.000126
 354	3.5123e+01	14.0547	37.337450	0.000253	2.533662	0.858428	0.000101
 355	3.5223e+01	14.0964	37.418193	0.000203	2.026930	0.686742	0.000081
 356	3.5322e+01	14.1381	37.555455	0.000345	3.445780	1.167462	0.000138
 357	3.5422e+01	14.1782	37.648309	0.000233	2.330969	0.789754	0.000093
 358	3.5522e+01	14.2199	37.789609	0.000355	3.547127	1.201799	0.000142
 359	3.5621e+01	14.2680	37.902649	0.000284	2.837702	0.961439	0.000114
 360	3.5721e+01	14.3017	38.015689	0.000284	2.837702	0.961439	0.000114
 361	3.5820e+01	14.3515	38.161026	0.000365	3.648473	1.236136	0.000146
 362	3.5919e+01	14.3707	38.233694	0.000182	1.824237	0.618068	0.000073
 363	3.6019e+01	14.4204	38.391142	0.000395	3.952513	1.339148	0.000158
 364	3.6118e+01	14.4573	38.479959	0.000223	2.229623	0.755417	0.000089
 365	3.6218e+01	14.5023	38.592999	0.000284	2.837702	0.961439	0.000114
 366	3.6318e+01	14.5360	38.677779	0.000213	2.128276	0.721079	0.000085
 367	3.6417e+01	14.5712	38.778707	0.000253	2.533662	0.858428	0.000101
 368	3.6517e+01	14.6226	38.920007	0.000355	3.547127	1.201799	0.000142
 369	3.6616e+01	14.6627	39.029010	0.000274	2.736355	0.927102	0.000110
 370	3.6715e+01	14.6996	39.158198	0.000324	3.243087	1.098788	0.000130
 371	3.6815e+01	14.7301	39.259126	0.000253	2.533662	0.858428	0.000101
 372	3.6914e+01	14.7718	39.412538	0.000385	3.851166	1.304810	0.000154
 373	3.7014e+01	14.8167	39.469058	0.000142	1.418851	0.480720	0.000057
 374	3.7114e+01	14.8568	39.598246	0.000324	3.243087	1.098788	0.000130
 375	3.7213e+01	14.8985	39.711286	0.000284	2.837702	0.961439	0.000114
 376	3.7313e+01	14.9338	39.848548	0.000345	3.445780	1.167462	0.000138
 377	3.7412e+01	14.9835	39.929291	0.000203	2.026930	0.686742	0.000081
 378	3.7511e+01	15.0124	40.046368	0.000294	2.939048	0.995776	0.000118
 379	3.7611e+01	15.0589	40.179593	0.000334	3.344434	1.133125	0.000134
 380	3.7711e+01	15.1006	40.284559	0.000264	2.635009	0.892765	0.000105
 381	3.7810e+01	15.1391	40.365302	0.000203	2.026930	0.686742	0.000081
 382	3.7910e+01	15.1889	40.518713	0.000385	3.851166	1.304810	0.000154
 383	3.8009e+01	15.2161	40.639827	0.000304	3.040395	1.030114	0.000122
 384	3.8108e+01	15.2514	40.724607	0.000213	2.128276	0.721079	0.000085
 385	3.8208e+01	15.2948	40.833609	0.000274	2.736355	0.927102	0.000110
 386	3.8307e+01	15.3413	40.946649	0.000284	2.837702	0.961439	0.000114
 387	3.8407e+01	15.3814	41.096023	0.000375	3.749820	1.270473	0.000150
 388	3.8507e+01	15.4183	41.176766	0.000203	2.026930	0.686742	0.000081
 389	3.8606e+01	15.4552	41.305954	0.000324	3.243087	1.098788	0.000130
 390	3.8706e+01	15.5001	41.382660	0.000193	1.925583	0.652405	0.000077
 391	3.8805e+01	15.5258	41.540108	0.000395	3.952513	1.339148	0.000158
 392	3.8904e+01	15.5771	41.628925	0.000223	2.229623	0.755417	0.000089
 393	3.9004e+01	15.6108	41.733891	0.000264	2.635009	0.892765	0.000105
 394	3.9103e+01	15.6493	41.875190	0.000355	3.547127	1.201799	0.000142
 395	3.9203e+01	15.7022	42.000342	0.000314	3.141741	1.064451	0.000126
 396	3.9303e+01	15.7327	42.125493	0.000314	3.141741	1.064451	0.000126
 397	3.9402e+01	15.7728	42.190087	0.000162	1.621544	0.549394	0.000065
 398	3.9502e+01	15.8177	42.291015	0.000253	2.533662	0.858428	0.000101
 399	3.9601e+01	15.8530	42.436352	0.000365	3.648473	1.236136	0.000146
 400	3.9700e+01	15.8947	42.549392	0.000284	2.837702	0.961439	0.000114
 401	3.9800e+01	15.9348	42.618023	0.000172	1.722890	0.583731	0.000069
 402	3.9900e+01	15.9669	42.743175	0.000314	3.141741	1.064451	0.000126
 403	3.9999e+01	16.0279	42.880437	0.000345	3.445780	1.167462	0.000138
 404	4.0099e+01	16.0568	42.993477	0.000284	2.837702	0.961439	0.000114
 405	4.0198e+01	16.0937	43.041923	0.000122	1.216158	0.412045	0.000049
 406	4.0297e+01	16.1322	43.211482	0.000426	4.256552	1.442159	0.000170
 407	4.0397e+01	16.1642	43.328559	0.000294	2.939048	0.995776	0.000118
 408	4.0496e+01	16.2060	43.425451	0.000243	2.432316	0.824091	0.000097
 409	4.0596e+01	16.2541	43.534453	0.000274	2.736355	0.927102	0.000110
 410	4.0696e+01	16.2942	43.659604	0.000314	3.141741	1.064451	0.000126
 411	4.0795e+01	16.3247	43.740347	0.000203	2.026930	0.686742	0.000081
 412	4.0895e+01	16.3680	43.877610	0.000345	3.445780	1.167462	0.000138
 413	4.0994e+01	16.4193	44.026984	0.000375	3.749820	1.270473	0.000150
 414	4.1093e+01	16.4530	44.119838	0.000233	2.330969	0.789754	0.000093
 415	4.1193e+01	16.4867	44.204618	0.000213	2.128276	0.721079	0.000085
 416	4.1292e+01	16.5364	44.289398	0.000213	2.128276	0.721079	0.000085
 417	4.1392e+01	16.5749	44.450883	0.000405	4.053859	1.373485	0.000162
 418	4.1492e+01	16.6166	44.559886	0.000274	2.736355	0.927102	0.000110
 419	4.1591e+01	16.6551	44.660814	0.000253	2.533662	0.858428	0.000101
 420	4.1691e+01	16.6936	44.757705	0.000243	2.432316	0.824091	0.000097
 421	4.1790e+01	16.7418	44.870745	0.000284	2.837702	0.961439	0.000114
 422	4.1889e+01	16.7690	45.024156	0.000385	3.851166	1.304810	0.000154
 423	4.1989e+01	16.8124	45.117010	0.000233	2.330969	0.789754	0.000093
 424	4.2089e+01	16.8444	45.209865	0.000233	2.330969	0.789754	0.000093
 425	4.2188e+01	16.8813	45.359239	0.000375	3.749820	1.270473	0.000150
 426	4.2288e+01	16.9279	45.464204	0.000264	2.635009	0.892765	0.000105
 427	4.2387e+01	16.9680	45.561095	0.000243	2.432316	0.824091	0.000097
 428	4.2486e+01	17.0081	45.666061	0.000264	2.635009	0.892765	0.000105
 429	4.2586e+01	17.0514	45.819472	0.000385	3.851166	1.304810	0.000154
 430	4.2685e+01	17.0899	45.904252	0.000213	2.128276	0.721079	0.000085
 431	4.2785e+01	17.1316	46.037477	0.000334	3.344434	1.133125	0.000134
 432	4.2885e+01	17.1653	46.122257	0.000213	2.128276	0.721079	0.000085
 433	4.2984e+01	17.2086	46.255483	0.000334	3.344434	1.133125	0.000134
 434	4.3084e+01	17.2551	46.328151	0.000182	1.824237	0.618068	0.000073
 435	4.3183e+01	17.2840	46.445228	0.000294	2.939048	0.995776	0.000118
 436	4.3282e+01	17.3241	46.574416	0.000324	3.243087	1.098788	0.000130
 437	4.3382e+01	17.3770	46.679382	0.000264	2.635009	0.892765	0.000105
 438	4.3481e+01	17.4123	46.784348	0.000264	2.635009	0.892765	0.000105
 439	4.3581e+01	17.4444	46.921610	0.000345	3.445780	1.167462	0.000138
 440	4.3681e+01	17.4893	47.030613	0.000274	2.736355	0.927102	0.000110
 441	4.3780e+01	17.5230	47.143653	0.000284	2.837702	0.961439	0.000114
 442	4.3880e+01	17.5712	47.252655	0.000274	2.736355	0.927102	0.000110
 443	4.3979e+01	17.6113	47.337435	0.000213	2.128276	0.721079	0.000085
 444	4.4078e+01	17.6450	47.470661	0.000334	3.344434	1.133125	0.000134
 445	4.4178e+01	17.6786	47.599849	0.000324	3.243087	1.098788	0.000130
 446	4.4278e+01	17.7171	47.708852	0.000274	2.736355	0.927102	0.000110
 447	4.4377e+01	17.7685	47.805743	0.000243	2.432316	0.824091	0.000097
 448	4.4477e+01	17.8022	47.930894	0.000314	3.141741	1.064451	0.000126
 449	4.4576e+01	17.8567	48.011637	0.000203	2.026930	0.686742	0.000081
 450	4.4675e+01	17.8792	48.096417	0.000213	2.128276	0.721079	0.000085
 451	4.4775e+01	17.9161	48.249828	0.000385	3.851166	1.304810	0.000154
 452	4.4874e+01	17.9546	48.379016	0.000324	3.243087	1.098788	0.000130
 453	4.4974e+01	18.0107	48.479945	0.000253	2.533662	0.858428	0.000101
 454	4.5074e+01	18.0412	48.588947	0.000274	2.736355	0.927102	0.000110
 455	4.5173e+01	18.0861	48.693913	0.000264	2.635009	0.892765	0.000105
 456	4.5273e+01	18.1198	48.770618	0.000193	1.925583	0.652405	0.000077
 457	4.5372e+01	18.1615	48.899807	0.000324	3.243087	1.098788	0.000130
 458	4.5471e+01	18.2080	49.053218	0.000385	3.851166	1.304810	0.000154
 459	4.5571e+01	18.2417	49.174332	0.000304	3.040395	1.030114	0.000122
 460	4.5670e+01	18.2818	49.242963	0.000172	1.722890	0.583731	0.000069
 461	4.5770e+01	18.3300	49.384263	0.000355	3.547127	1.201799	0.000142
 462	4.5870e+01	18.3637	49.485191	0.000253	2.533662	0.858428	0.000101
 463	4.5969e+01	18.4038	49.557860	0.000182	1.824237	0.618068	0.000073
 464	4.6069e+01	18.4551	49.683011	0.000314	3.141741	1.064451	0.000126
 465	4.6168e+01	18.4824	49.824311	0.000355	3.547127	1.201799	0.000142
 466	4.6267e+01	18.5209	49.921202	0.000243	2.432316	0.824091	0.000097
 467	4.6367e+01	18.5642	50.038279	0.000294	2.939048	0.995776	0.000118
 468	4.6467e+01	18.6107	50.167467	0.000324	3.243087	1.098788	0.000130
 469	4.6566e+01	18.6380	50.240136	0.000182	1.824237	0.618068	0.000073
 470	4.6666e+01	18.6893	50.345101	0.000264	2.635009	0.892765	0.000105
 471	4.6765e+01	18.7182	50.482364	0.000345	3.445780	1.167462	0.000138
 472	4.6864e+01	18.7663	50.567144	0.000213	2.128276	0.721079	0.000085
 473	4.6964e+01	18.7984	50.736703	0.000426	4.256552	1.442159	0.000170
 474	4.7063e+01	18.8353	50.817446	0.000203	2.026930	0.686742	0.000081
 475	4.7163e+01	18.8722	50.934523	0.000294	2.939048	0.995776	0.000118
 476	4.7263e+01	18.9203	51.035451	0.000253	2.533662	0.858428	0.000101
 477	4.7362e+01	18.9668	51.152528	0.000294	2.939048	0.995776	0.000118
 478	4.7462e+01	19.0021	51.257494	0.000264	2.635009	0.892765	0.000105
 479	4.7561e+01	19.0374	51.390719	0.000334	3.344434	1.133125	0.000134
 480	4.7660e+01	19.0775	51.503759	0.000284	2.837702	0.961439	0.000114
 481	4.7760e+01	19.1273	51.564316	0.000152	1.520197	0.515057	0.000061
 482	4.7859e+01	19.1642	51.729839	0.000416	4.155206	1.407822	0.000166
 483	4.7959e+01	19.1979	51.802507	0.000182	1.824237	0.618068	0.000073
 484	4.8059e+01	19.2331	51.919584	0.000294	2.939048	0.995776	0.000118
 485	4.8158e+01	19.2829	52.012438	0.000233	2.330969	0.789754	0.000093
 486	4.8258e+01	19.3262	52.181998	0.000426	4.256552	1.442159	0.000170
 487	4.8357e+01	19.3583	52.258704	0.000193	1.925583	0.652405	0.000077
 488	4.8456e+01	19.3984	52.375780	0.000294	2.939048	0.995776	0.000118
 489	4.8556e+01	19.4385	52.488820	0.000284	2.837702	0.961439	0.000114
 490	4.8656e+01	19.4738	52.565526	0.000193	1.925583	0.652405	0.000077
 491	4.8755e+01	19.5235	52.670491	0.000264	2.635009	0.892765	0.000105
 492	4.8855e+01	19.5556	52.815828	0.000365	3.648473	1.236136	0.000146
 493	4.8954e+01	19.5973	52.908682	0.000233	2.330969	0.789754	0.000093
 494	4.9053e+01	19.6374	53.025759	0.000294	2.939048	0.995776	0.000118
 495	4.9153e+01	19.6759	53.154948	0.000324	3.243087	1.098788	0.000130
 496	4.9252e+01	19.7240	53.203393	0.000122	1.216158	0.412045	0.000049
 497	4.9352e+01	19.7481	53.352767	0.000375	3.749820	1.270473	0.000150
 498	4.9452e+01	19.8075	53.441584	0.000223	2.229623	0.755417	0.000089
 499	4.9551e+01	19.8379	53.615181	0.000436	4.357899	1.476496	0.000174
 500	4.9651e+01	19.8780	53.708035	0.000233	2.330969	0.789754	0.000093
 501	4.9750e+01	19.9149	53.792815	0.000213	2.128276	0.721079	0.000085
 502	4.9849e+01	19.9518	53.885669	0.000233	2.330969	0.789754	0.000093
 503	4.9949e+01	19.9968	54.031006	0.000365	3.648473	1.236136	0.000146
 504	5.0048e+01	19.9518	53.934115	0.000243	2.432316	0.824091	-0.000097
 505	5.0148e+01	19.9117	53.853372	0.000203	2.026930	0.686742	-0.000081
 506	5.0248e+01	19.8845	53.804927	0.000122	1.216158	0.412045	-0.000049
 507	5.0347e+01	19.8363	53.703998	0.000253	2.533662	0.858428	-0.000101
 508	5.0447e+01	19.7978	53.578847	0.000314	3.141741	1.064451	-0.000126
 509	5.0546e+01	19.7609	53.542513	0.000091	0.912118	0.309034	-0.000037
 510	5.0645e+01	19.7080	53.409287	0.000334	3.344434	1.133125	-0.000134
 511	5.0745e+01	19.6759	53.356804	0.000132	1.317504	0.446383	-0.000053
 512	5.0844e+01	19.6326	53.255876	0.000253	2.533662	0.858428	-0.000101
 513	5.0944e+01	19.5957	53.142836	0.000284	2.837702	0.961439	-0.000114
 514	5.1044e+01	19.5636	53.086316	0.000142	1.418851	0.480720	-0.000057
 515	5.1143e+01	19.5171	52.989425	0.000243	2.432316	0.824091	-0.000097
 516	5.1242e+01	19.4722	52.912720	0.000193	1.925583	0.652405	-0.000077
 517	5.1342e+01	19.4337	52.827940	0.000213	2.128276	0.721079	-0.000085
 518	5.1441e+01	19.3984	52.731048	0.000243	2.432316	0.824091	-0.000097
 519	5.1541e+01	19.3551	52.609934	0.000304	3.040395	1.030114	-0.000122
 520	5.1641e+01	19.3278	52.504969	0.000264	2.635009	0.892765	-0.000105
 521	5.1740e+01	19.2797	52.424226	0.000203	2.026930	0.686742	-0.000081
 522	5.1840e+01	19.2460	52.367706	0.000142	1.418851	0.480720	-0.000057
 523	5.1939e+01	19.1979	52.246592	0.000304	3.040395	1.030114	-0.000122
 524	5.2038e+01	19.1658	52.157775	0.000223	2.229623	0.755417	-0.000089
 525	5.2138e+01	19.1192	52.020513	0.000345	3.445780	1.167462	-0.000138
 526	5.2237e+01	19.0840	52.000327	0.000051	0.506732	0.171686	-0.000020
 527	5.2337e+01	19.0406	51.867101	0.000334	3.344434	1.133125	-0.000134
 528	5.2437e+01	18.9989	51.826730	0.000101	1.013465	0.343371	-0.000041
 529	5.2536e+01	18.9652	51.685430	0.000355	3.547127	1.201799	-0.000142
 530	5.2636e+01	18.9171	51.620836	0.000162	1.621544	0.549394	-0.000065
 531	5.2735e+01	18.8882	51.519908	0.000253	2.533662	0.858428	-0.000101
 532	5.2834e+01	18.8417	51.418979	0.000253	2.533662	0.858428	-0.000101
 533	5.2934e+01	18.7984	51.338237	0.000203	2.026930	0.686742	-0.000081
 534	5.3033e+01	18.7695	51.241345	0.000243	2.432316	0.824091	-0.000097
 535	5.3133e+01	18.7102	51.136380	0.000264	2.635009	0.892765	-0.000105
 536	5.3233e+01	18.6829	51.027377	0.000274	2.736355	0.927102	-0.000110
 537	5.3332e+01	18.6444	50.910300	0.000294	2.939048	0.995776	-0.000118
 538	5.3431e+01	18.6043	50.825520	0.000213	2.128276	0.721079	-0.000085
 539	5.3531e+01	18.5594	50.789186	0.000091	0.912118	0.309034	-0.000037
 540	5.3630e+01	18.5321	50.619626	0.000426	4.256552	1.442159	-0.000170
 541	5.3730e+01	18.4856	50.526772	0.000233	2.330969	0.789754	-0.000093
 542	5.3830e+01	18.4471	50.433918	0.000233	2.330969	0.789754	-0.000093
 543	5.3929e+01	18.4022	50.369324	0.000162	1.621544	0.549394	-0.000065
 544	5.4029e+01	18.3620	50.252247	0.000294	2.939048	0.995776	-0.000118
 545	5.4128e+01	18.3187	50.159393	0.000233	2.330969	0.789754	-0.000093
 546	5.4227e+01	18.2883	50.046353	0.000284	2.837702	0.961439	-0.000114
 547	5.4327e+01	18.2465	49.941388	0.000264	2.635009	0.892765	-0.000105
 548	5.4426e+01	18.2080	49.864682	0.000193	1.925583	0.652405	-0.000077
 549	5.4526e+01	18.1663	49.755679	0.000274	2.736355	0.927102	-0.000110
 550	5.4626e+01	18.1230	49.622454	0.000334	3.344434	1.133125	-0.000134
 551	5.4725e+01	18.0797	49.578045	0.000111	1.114811	0.377708	-0.000045
 552	5.4825e+01	18.0348	49.444820	0.000334	3.344434	1.133125	-0.000134
 553	5.4924e+01	18.0139	49.364077	0.000203	2.026930	0.686742	-0.000081
 554	5.5023e+01	17.9706	49.263149	0.000253	2.533662	0.858428	-0.000101
 555	5.5123e+01	17.9193	49.146072	0.000294	2.939048	0.995776	-0.000118
 556	5.5222e+01	17.8712	49.073403	0.000182	1.824237	0.618068	-0.000073
 557	5.5322e+01	17.8615	48.972475	0.000253	2.533662	0.858428	-0.000101
 558	5.5422e+01	17.8038	48.887695	0.000213	2.128276	0.721079	-0.000085
 559	5.5521e+01	17.7701	48.782730	0.000264	2.635009	0.892765	-0.000105
 560	5.5620e+01	17.7220	48.669690	0.000284	2.837702	0.961439	-0.000114
 561	5.5720e+01	17.6963	48.588947	0.000203	2.026930	0.686742	-0.000081
 562	5.5819e+01	17.6482	48.488019	0.000253	2.533662	0.858428	-0.000101
 563	5.5919e+01	17.6145	48.370942	0.000294	2.939048	0.995776	-0.000118
 564	5.6019e+01	17.5728	48.310385	0.000152	1.520197	0.515057	-0.000061
 565	5.6118e+01	17.5343	48.156974	0.000385	3.851166	1.304810	-0.000154
 566	5.6218e+01	17.4845	48.072194	0.000213	2.128276	0.721079	-0.000085
 567	5.6317e+01	17.4492	47.943005	0.000324	3.243087	1.098788	-0.000130
 568	5.6416e+01	17.4059	47.866300	0.000193	1.925583	0.652405	-0.000077
 569	5.6516e+01	17.3674	47.777483	0.000223	2.229623	0.755417	-0.000089
 570	5.6615e+01	17.3241	47.660406	0.000294	2.939048	0.995776	-0.000118
 571	5.6715e+01	17.2872	47.535255	0.000314	3.141741	1.064451	-0.000126
 572	5.6815e+01	17.2487	47.486809	0.000122	1.216158	0.412045	-0.000049
 573	5.6914e+01	17.2086	47.361658	0.000314	3.141741	1.064451	-0.000126
 574	5.7014e+01	17.1621	47.297064	0.000162	1.621544	0.549394	-0.000065
 575	5.7113e+01	17.1300	47.155764	0.000355	3.547127	1.201799	-0.000142
 576	5.7212e+01	17.0947	47.042724	0.000284	2.837702	0.961439	-0.000114
 577	5.7312e+01	17.0610	46.933722	0.000274	2.736355	0.927102	-0.000110
 578	5.7411e+01	17.0161	46.848942	0.000213	2.128276	0.721079	-0.000085
 579	5.7511e+01	16.9712	46.780310	0.000172	1.722890	0.583731	-0.000069
 580	5.7611e+01	16.9311	46.659196	0.000304	3.040395	1.030114	-0.000122
 581	5.7710e+01	16.8894	46.582491	0.000193	1.925583	0.652405	-0.000077
 582	5.7809e+01	16.8541	46.453302	0.000324	3.243087	1.098788	-0.000130
 583	5.7909e+01	16.8156	46.340263	0.000284	2.837702	0.961439	-0.000114
 584	5.8008e+01	16.7723	46.271631	0.000172	1.722890	0.583731	-0.000069
 585	5.8108e+01	16.7321	46.174740	0.000243	2.432316	0.824091	-0.000097
 586	5.8208e+01	16.6872	46.057663	0.000294	2.939048	0.995776	-0.000118
 587	5.8307e+01	16.6503	45.989032	0.000172	1.722890	0.583731	-0.000069
 588	5.8407e+01	16.6102	45.863881	0.000314	3.141741	1.064451	-0.000126
 589	5.8506e+01	16.5685	45.726618	0.000345	3.445780	1.167462	-0.000138
 590	5.8605e+01	16.5332	45.657987	0.000172	1.722890	0.583731	-0.000069
 591	5.8705e+01	16.4899	45.557058	0.000253	2.533662	0.858428	-0.000101
 592	5.8804e+01	16.4466	45.456130	0.000253	2.533662	0.858428	-0.000101
 593	5.8904e+01	16.4145	45.347127	0.000274	2.736355	0.927102	-0.000110
 594	5.9004e+01	16.3792	45.238125	0.000274	2.736355	0.927102	-0.000110
 595	5.9103e+01	16.3295	45.117010	0.000304	3.040395	1.030114	-0.000122
 596	5.9203e+01	16.2942	45.052416	0.000162	1.621544	0.549394	-0.000065
 597	5.9302e+01	16.2557	44.963599	0.000223	2.229623	0.755417	-0.000089
 598	5.9401e+01	16.2108	44.826337	0.000345	3.445780	1.167462	-0.000138
 599	5.9501e+01	16.1707	44.765780	0.000152	1.520197	0.515057	-0.000061
 600	5.9600e+01	16.1257	44.656777	0.000274	2.736355	0.927102	-0.000110
 601	5.9700e+01	16.0840	44.547774	0.000274	2.736355	0.927102	-0.000110
 602	5.9800e+01	16.0600	44.422623	0.000314	3.141741	1.064451	-0.000126
 603	5.9899e+01	16.0086	44.317658	0.000264	2.635009	0.892765	-0.000105
 604	5.9998e+01	15.9733	44.196543	0.000304	3.040395	1.030114	-0.000122
 605	6.0098e+01	15.9268	44.131949	0.000162	1.621544	0.549394	-0.000065
 606	6.0197e+01	15.8979	44.014872	0.000294	2.939048	0.995776	-0.000118
 607	6.0297e+01	15.8562	43.930093	0.000213	2.128276	0.721079	-0.000085
 608	6.0397e+01	15.8177	43.817053	0.000284	2.837702	0.961439	-0.000114
 609	6.0496e+01	15.7776	43.732273	0.000213	2.128276	0.721079	-0.000085
 610	6.0596e+01	15.7327	43.595010	0.000345	3.445780	1.167462	-0.000138
 611	6.0695e+01	15.6878	43.494082	0.000253	2.533662	0.858428	-0.000101
 612	6.0794e+01	15.6541	43.413339	0.000203	2.026930	0.686742	-0.000081
 613	6.0894e+01	15.6140	43.292225	0.000304	3.040395	1.030114	-0.000122
 614	6.0993e+01	15.5771	43.239742	0.000132	1.317504	0.446383	-0.000053
 615	6.1093e+01	15.5386	43.118628	0.000304	3.040395	1.030114	-0.000122
 616	6.1193e+01	15.5001	42.985403	0.000334	3.344434	1.133125	-0.000134
 617	6.1292e+01	15.4600	42.872363	0.000284	2.837702	0.961439	-0.000114
 618	6.1392e+01	15.4199	42.755286	0.000294	2.939048	0.995776	-0.000118
 619	6.1491e+01	15.3718	42.670506	0.000213	2.128276	0.721079	-0.000085
 620	6.1590e+01	15.3365	42.577652	0.000233	2.330969	0.789754	-0.000093
 621	6.1690e+01	15.2867	42.480761	0.000243	2.432316	0.824091	-0.000097
 622	6.1789e+01	15.2546	42.371758	0.000274	2.736355	0.927102	-0.000110
 623	6.1889e+01	15.2113	42.250644	0.000304	3.040395	1.030114	-0.000122
 624	6.1989e+01	15.1664	42.169901	0.000203	2.026930	0.686742	-0.000081
 625	6.2088e+01	15.1359	42.032639	0.000345	3.445780	1.167462	-0.000138
 626	6.2188e+01	15.0894	41.951896	0.000203	2.026930	0.686742	-0.000081
 627	6.2287e+01	15.0589	41.834819	0.000294	2.939048	0.995776	-0.000118
 628	6.2386e+01	15.0076	41.737928	0.000243	2.432316	0.824091	-0.000097
 629	6.2486e+01	14.9787	41.636999	0.000253	2.533662	0.858428	-0.000101
 630	6.2586e+01	14.9322	41.511848	0.000314	3.141741	1.064451	-0.000126
 631	6.2685e+01	14.8937	41.459365	0.000132	1.317504	0.446383	-0.000053
 632	6.2785e+01	14.8504	41.334214	0.000314	3.141741	1.064451	-0.000126
 633	6.2884e+01	14.8231	41.233286	0.000253	2.533662	0.858428	-0.000101
 634	6.2983e+01	14.7718	41.108135	0.000314	3.141741	1.064451	-0.000126
 635	6.3083e+01	14.7285	41.019318	0.000223	2.229623	0.755417	-0.000089
 636	6.3182e+01	14.6964	40.898204	0.000304	3.040395	1.030114	-0.000122
 637	6.3282e+01	14.6627	40.793238	0.000264	2.635009	0.892765	-0.000105
 638	6.3382e+01	14.6210	40.676161	0.000294	2.939048	0.995776	-0.000118
 639	6.3481e+01	14.5712	40.603493	0.000182	1.824237	0.618068	-0.000073
 640	6.3581e+01	14.5376	40.506601	0.000243	2.432316	0.824091	-0.000097
 641	6.3680e+01	14.4991	40.345116	0.000405	4.053859	1.373485	-0.000162
 642	6.3779e+01	14.4573	40.268410	0.000193	1.925583	0.652405	-0.000077
 643	6.3879e+01	14.4108	40.167482	0.000253	2.533662	0.858428	-0.000101
 644	6.3978e+01	14.3739	40.050405	0.000294	2.939048	0.995776	-0.000118
 645	6.4078e+01	14.3386	39.945440	0.000264	2.635009	0.892765	-0.000105
 646	6.4177e+01	14.3017	39.840474	0.000264	2.635009	0.892765	-0.000105
 647	6.4277e+01	14.2616	39.767806	0.000182	1.824237	0.618068	-0.000073
 648	6.4376e+01	14.2119	39.586134	0.000456	4.560592	1.545170	-0.000183
 649	6.4476e+01	14.1894	39.545763	0.000101	1.013465	0.343371	-0.000041
 650	6.4576e+01	14.1317	39.436760	0.000274	2.736355	0.927102	-0.000110
 651	6.4675e+01	14.1060	39.299498	0.000345	3.445780	1.167462	-0.000138
 652	6.4775e+01	14.0579	39.178384	0.000304	3.040395	1.030114	-0.000122
 653	6.4874e+01	14.0162	39.117827	0.000152	1.520197	0.515057	-0.000061
 654	6.4974e+01	13.9793	39.000750	0.000294	2.939048	0.995776	-0.000118
 655	6.5073e+01	13.9392	38.875599	0.000314	3.141741	1.064451	-0.000126
 656	6.5172e+01	13.9039	38.815042	0.000152	1.520197	0.515057	-0.000061
 657	6.5272e+01	13.8574	38.649519	0.000416	4.155206	1.407822	-0.000166
 658	6.5371e+01	13.8205	38.572813	0.000193	1.925583	0.652405	-0.000077
 659	6.5471e+01	13.7900	38.479959	0.000233	2.330969	0.789754	-0.000093
 660	6.5570e+01	13.7435	38.383068	0.000243	2.432316	0.824091	-0.000097
 661	6.5670e+01	13.7001	38.286177	0.000243	2.432316	0.824091	-0.000097
 662	6.5769e+01	13.6584	38.148914	0.000345	3.445780	1.167462	-0.000138
 663	6.5869e+01	13.6167	38.056060	0.000233	2.330969	0.789754	-0.000093
 664	6.5969e+01	13.5959	37.930909	0.000314	3.141741	1.064451	-0.000126
 665	6.6068e+01	13.5413	37.838055	0.000233	2.330969	0.789754	-0.000093
 666	6.6168e+01	13.5076	37.712903	0.000314	3.141741	1.064451	-0.000126
 667	6.6267e+01	13.4595	37.656384	0.000142	1.418851	0.480720	-0.000057
 668	6.6367e+01	13.4258	37.523158	0.000334	3.344434	1.133125	-0.000134
 669	6.6466e+01	13.3777	37.398007	0.000314	3.141741	1.064451	-0.000126
 670	6.6566e+01	13.3504	37.301116	0.000243	2.432316	0.824091	-0.000097
 671	6.6665e+01	13.3039	37.188076	0.000284	2.837702	0.961439	-0.000114
 672	6.6764e+01	13.2606	37.111370	0.000193	1.925583	0.652405	-0.000077
 673	6.6864e+01	13.2317	36.970071	0.000355	3.547127	1.201799	-0.000142
 674	6.6963e+01	13.1852	36.897402	0.000182	1.824237	0.618068	-0.000073
 675	6.7063e+01	13.1467	36.796474	0.000253	2.533662	0.858428	-0.000101
 676	6.7162e+01	13.1050	36.647100	0.000375	3.749820	1.270473	-0.000150
 677	6.7262e+01	13.0601	36.558283	0.000223	2.229623	0.755417	-0.000089
 678	6.7362e+01	13.0232	36.461391	0.000243	2.432316	0.824091	-0.000097
 679	6.7461e+01	12.9798	36.320092	0.000355	3.547127	1.201799	-0.000142
 680	6.7561e+01	12.9462	36.247423	0.000182	1.824237	0.618068	-0.000073
 681	6.7660e+01	12.9125	36.118235	0.000324	3.243087	1.098788	-0.000130
 682	6.7760e+01	12.8740	36.065752	0.000132	1.317504	0.446383	-0.000053
 683	6.7859e+01	12.8307	35.912341	0.000385	3.851166	1.304810	-0.000154
 684	6.7959e+01	12.7825	35.823524	0.000223	2.229623	0.755417	-0.000089
 685	6.8058e+01	12.7488	35.726633	0.000243	2.432316	0.824091	-0.000097
 686	6.8157e+01	12.7119	35.569184	0.000395	3.952513	1.339148	-0.000158
 687	6.8257e+01	12.6686	35.500553	0.000172	1.722890	0.583731	-0.000069
 688	6.8356e+01	12.6221	35.379439	0.000304	3.040395	1.030114	-0.000122
 689	6.8456e+01	12.5980	35.274474	0.000264	2.635009	0.892765	-0.000105
 690	6.8555e+01	12.5531	35.137211	0.000345	3.445780	1.167462	-0.000138
 691	6.8655e+01	12.5050	35.072617	0.000162	1.621544	0.549394	-0.000065
 692	6.8754e+01	12.4809	34.955540	0.000294	2.939048	0.995776	-0.000118
 693	6.8854e+01	12.4312	34.826351	0.000324	3.243087	1.098788	-0.000130
 694	6.8954e+01	12.3879	34.713312	0.000284	2.837702	0.961439	-0.000114
 695	6.9053e+01	12.3542	34.624495	0.000223	2.229623	0.755417	-0.000089
 696	6.9153e+01	12.3045	34.519529	0.000264	2.635009	0.892765	-0.000105
 697	6.9252e+01	12.2724	34.418601	0.000253	2.533662	0.858428	-0.000101
 698	6.9352e+01	12.2291	34.289412	0.000324	3.243087	1.098788	-0.000130
 699	6.9451e+01	12.1954	34.224818	0.000162	1.621544	0.549394	-0.000065
 700	6.9550e+01	12.1505	34.063333	0.000405	4.053859	1.373485	-0.000162
 701	6.9650e+01	12.1120	34.006813	0.000142	1.418851	0.480720	-0.000057
 702	6.9749e+01	12.0735	33.861476	0.000365	3.648473	1.236136	-0.000146
 703	6.9849e+01	12.0285	33.736325	0.000314	3.141741	1.064451	-0.000126
 704	6.9948e+01	11.9932	33.667693	0.000172	1.722890	0.583731	-0.000069
 705	7.0048e+01	11.9499	33.546579	0.000304	3.040395	1.030114	-0.000122
 706	7.0147e+01	11.9130	33.409317	0.000345	3.445780	1.167462	-0.000138
 707	7.0247e+01	11.8745	33.332611	0.000193	1.925583	0.652405	-0.000077
 708	7.0347e+01	11.8376	33.203423	0.000324	3.243087	1.098788	-0.000130
 709	7.0446e+01	11.7895	33.118643	0.000213	2.128276	0.721079	-0.000085
 710	7.0546e+01	11.7542	33.001566	0.000294	2.939048	0.995776	-0.000118
 711	7.0645e+01	11.7045	32.860266	0.000355	3.547127	1.201799	-0.000142
 712	7.0745e+01	11.6724	32.775486	0.000213	2.128276	0.721079	-0.000085
 713	7.0844e+01	11.6371	32.678595	0.000243	2.432316	0.824091	-0.000097
 714	7.0944e+01	11.5890	32.537295	0.000355	3.547127	1.201799	-0.000142
 715	7.1043e+01	11.5505	32.440404	0.000243	2.432316	0.824091	-0.000097
 716	7.1142e+01	11.5168	32.363699	0.000193	1.925583	0.652405	-0.000077
 717	7.1242e+01	11.4671	32.218362	0.000365	3.648473	1.236136	-0.000146
 718	7.1341e+01	11.4366	32.137619	0.000203	2.026930	0.686742	-0.000081
 719	7.1441e+01	11.3901	31.992282	0.000365	3.648473	1.236136	-0.000146
 720	7.1540e+01	11.3548	31.911539	0.000203	2.026930	0.686742	-0.000081
 721	7.1640e+01	11.3243	31.802537	0.000274	2.736355	0.927102	-0.000110
 722	7.1740e+01	11.2697	31.677386	0.000314	3.141741	1.064451	-0.000126
 723	7.1839e+01	11.2232	31.564346	0.000284	2.837702	0.961439	-0.000114
 724	7.1939e+01	11.1927	31.463417	0.000253	2.533662	0.858428	-0.000101
 725	7.2038e+01	11.1478	31.297895	0.000416	4.155206	1.407822	-0.000166
 726	7.2138e+01	11.1141	31.237338	0.000152	1.520197	0.515057	-0.000061
 727	7.2237e+01	11.0724	31.140447	0.000243	2.432316	0.824091	-0.000097
 728	7.2337e+01	11.0387	31.059704	0.000203	2.026930	0.686742	-0.000081
 729	7.2436e+01	10.9954	30.910330	0.000375	3.749820	1.270473	-0.000150
 730	7.2535e+01	10.9537	30.805364	0.000264	2.635009	0.892765	-0.000105
 731	7.2635e+01	10.9104	30.724622	0.000203	2.026930	0.686742	-0.000081
 732	7.2734e+01	10.8751	30.603507	0.000304	3.040395	1.030114	-0.000122
 733	7.2834e+01	10.8398	30.498542	0.000264	2.635009	0.892765	-0.000105
 734	7.2933e+01	10.7933	30.381465	0.000294	2.939048	0.995776	-0.000118
 735	7.3033e+01	10.7580	30.244202	0.000345	3.445780	1.167462	-0.000138
 736	7.3132e+01	10.7211	30.123088	0.000304	3.040395	1.030114	-0.000122
 737	7.3232e+01	10.6874	30.046383	0.000193	1.925583	0.652405	-0.000077
 738	7.3332e+01	10.6377	29.937380	0.000274	2.736355	0.927102	-0.000110
 739	7.3431e+01	10.6008	29.816266	0.000304	3.040395	1.030114	-0.000122
 740	7.3531e+01	10.5623	29.691115	0.000314	3.141741	1.064451	-0.000126
 741	7.3630e+01	10.5093	29.606335	0.000213	2.128276	0.721079	-0.000085
 742	7.3730e+01	10.4805	29.513481	0.000233	2.330969	0.789754	-0.000093
 743	7.3829e+01	10.4387	29.392367	0.000304	3.040395	1.030114	-0.000122
 744	7.3928e+01	10.3954	29.275290	0.000294	2.939048	0.995776	-0.000118
 745	7.4028e+01	10.3585	29.146101	0.000324	3.243087	1.098788	-0.000130
 746	7.4127e+01	10.3232	29.049210	0.000243	2.432316	0.824091	-0.000097
 747	7.4227e+01	10.2751	28.936170	0.000284	2.837702	0.961439	-0.000114
 748	7.4326e+01	10.2366	28.823131	0.000284	2.837702	0.961439	-0.000114
 749	7.4426e+01	10.1917	28.714128	0.000274	2.736355	0.927102	-0.000110
 750	7.4525e+01	10.1628	28.617237	0.000243	2.432316	0.824091	-0.000097
 751	7.4625e+01	10.1131	28.528420	0.000223	2.229623	0.755417	-0.000089
 752	7.4725e+01	10.0826	28.379046	0.000375	3.749820	1.270473	-0.000150
 753	7.4824e+01	10.0329	28.286192	0.000233	2.330969	0.789754	-0.000093
 754	7.4924e+01	9.9944	28.148929	0.000345	3.445780	1.167462	-0.000138
 755	7.5023e+01	9.9655	28.039926	0.000274	2.736355	0.927102	-0.000110
 756	7.5123e+01	9.9142	27.951109	0.000223	2.229623	0.755417	-0.000089
 757	7.5222e+01	9.8757	27.842107	0.000274	2.736355	0.927102	-0.000110
 758	7.5322e+01	9.8372	27.712918	0.000324	3.243087	1.098788	-0.000130
 759	7.5421e+01	9.7922	27.624101	0.000223	2.229623	0.755417	-0.000089
 760	7.5520e+01	9.7521	27.539321	0.000213	2.128276	0.721079	-0.000085
 761	7.5620e+01	9.7265	27.389947	0.000375	3.749820	1.270473	-0.000150
 762	7.5719e+01	9.6719	27.276908	0.000284	2.837702	0.961439	-0.000114
 763	7.5819e+01	9.6398	27.184053	0.000233	2.330969	0.789754	-0.000093
 764	7.5918e+01	9.6013	27.062939	0.000304	3.040395	1.030114	-0.000122
 765	7.6018e+01	9.5564	26.933751	0.000324	3.243087	1.098788	-0.000130
 766	7.6118e+01	9.5163	26.824748	0.000274	2.736355	0.927102	-0.000110
 767	7.6217e+01	9.4778	26.760154	0.000162	1.621544	0.549394	-0.000065
 768	7.6317e+01	9.4361	26.643077	0.000294	2.939048	0.995776	-0.000118
 769	7.6416e+01	9.4024	26.534075	0.000274	2.736355	0.927102	-0.000110
 770	7.6516e+01	9.3559	26.392775	0.000355	3.547127	1.201799	-0.000142
 771	7.6615e+01	9.3190	26.287809	0.000264	2.635009	0.892765	-0.000105
 772	7.6715e+01	9.2773	26.170732	0.000294	2.939048	0.995776	-0.000118
 773	7.6814e+01	9.2420	26.077878	0.000233	2.330969	0.789754	-0.000093
 774	7.6913e+01	9.2115	25.948690	0.000324	3.243087	1.098788	-0.000130
 775	7.7013e+01	9.1538	25.843724	0.000264	2.635009	0.892765	-0.000105
 776	7.7112e+01	9.1169	25.718573	0.000314	3.141741	1.064451	-0.000126
 777	7.7212e+01	9.0864	25.613608	0.000264	2.635009	0.892765	-0.000105
 778	7.7311e+01	9.0366	25.488456	0.000314	3.141741	1.064451	-0.000126
 779	7.7411e+01	8.9917	25.407714	0.000203	2.026930	0.686742	-0.000081
 780	7.7510e+01	8.9628	25.294674	0.000284	2.837702	0.961439	-0.000114
 781	7.7610e+01	8.9195	25.185671	0.000274	2.736355	0.927102	-0.000110
 782	7.7710e+01	8.8810	25.040334	0.000365	3.648473	1.236136	-0.000146
 783	7.7809e+01	8.8361	24.947480	0.000233	2.330969	0.789754	-0.000093
 784	7.7909e+01	8.8072	24.874812	0.000182	1.824237	0.618068	-0.000073
 785	7.8008e+01	8.7607	24.757735	0.000294	2.939048	0.995776	-0.000118
 786	7.8108e+01	8.7174	24.624509	0.000334	3.344434	1.133125	-0.000134
 787	7.8207e+01	8.6773	24.471098	0.000385	3.851166	1.304810	-0.000154
 788	7.8306e+01	8.6420	24.386318	0.000213	2.128276	0.721079	-0.000085
 789	7.8406e+01	8.6083	24.265204	0.000304	3.040395	1.030114	-0.000122
 790	7.8505e+01	8.5682	24.176387	0.000223	2.229623	0.755417	-0.000089
 791	7.8605e+01	8.5249	24.067385	0.000274	2.736355	0.927102	-0.000110
 792	7.8704e+01	8.4832	23.938196	0.000324	3.243087	1.098788	-0.000130
 793	7.8804e+01	8.4447	23.800934	0.000345	3.445780	1.167462	-0.000138
 794	7.8903e+01	8.4014	23.752488	0.000122	1.216158	0.412045	-0.000049
 795	7.9003e+01	8.3693	23.578891	0.000436	4.357899	1.476496	-0.000174
 796	7.9103e+01	8.3276	23.486037	0.000233	2.330969	0.789754	-0.000093
 797	7.9202e+01	8.2778	23.385109	0.000253	2.533662	0.858428	-0.000101
 798	7.9302e+01	8.2409	23.251883	0.000334	3.344434	1.133125	-0.000134
 799	7.9401e+01	8.2105	23.171141	0.000203	2.026930	0.686742	-0.000081
 800	7.9501e+01	8.1591	23.050026	0.000304	3.040395	1.030114	-0.000122
 801	7.9600e+01	8.1222	22.928912	0.000304	3.040395	1.030114	-0.000122
 802	7.9700e+01	8.0837	22.836058	0.000233	2.330969	0.789754	-0.000093
 803	7.9799e+01	8.0500	22.727056	0.000274	2.736355	0.927102	-0.000110
 804	7.9898e+01	8.0115	22.577682	0.000375	3.749820	1.270473	-0.000150
 805	7.9998e+01	7.9634	22.456568	0.000304	3.040395	1.030114	-0.000122
 806	8.0097e+01	7.9297	22.355639	0.000253	2.533662	0.858428	-0.000101
 807	8.0197e+01	7.8880	22.258748	0.000243	2.432316	0.824091	-0.000097
 808	8.0296e+01	7.8399	22.165894	0.000233	2.330969	0.789754	-0.000093
 809	8.0396e+01	7.8158	22.060928	0.000264	2.635009	0.892765	-0.000105
 810	8.0496e+01	7.7709	21.907517	0.000385	3.851166	1.304810	-0.000154
 811	8.0595e+01	7.7308	21.830812	0.000193	1.925583	0.652405	-0.000077
 812	8.0695e+01	7.6763	21.697586	0.000334	3.344434	1.133125	-0.000134
 813	8.0794e+01	7.6538	21.616843	0.000203	2.026930	0.686742	-0.000081
 814	8.0894e+01	7.5993	21.443246	0.000436	4.357899	1.476496	-0.000174
 815	8.0993e+01	7.5640	21.374615	0.000172	1.722890	0.583731	-0.000069
 816	8.1093e+01	7.5239	21.261575	0.000284	2.837702	0.961439	-0.000114
 817	8.1192e+01	7.4934	21.124313	0.000345	3.445780	1.167462	-0.000138
 818	8.1291e+01	7.4452	21.039533	0.000213	2.128276	0.721079	-0.000085
 819	8.1391e+01	7.4083	20.890159	0.000375	3.749820	1.270473	-0.000150
 820	8.1490e+01	7.3602	20.801342	0.000223	2.229623	0.755417	-0.000089
 821	8.1590e+01	7.3313	20.716562	0.000213	2.128276	0.721079	-0.000085
 822	8.1689e+01	7.2896	20.591411	0.000314	3.141741	1.064451	-0.000126
 823	8.1789e+01	7.2447	20.466260	0.000314	3.141741	1.064451	-0.000126
 824	8.1888e+01	7.2030	20.357257	0.000274	2.736355	0.927102	-0.000110
 825	8.1988e+01	7.1661	20.224031	0.000334	3.344434	1.133125	-0.000134
 826	8.2088e+01	7.1372	20.127140	0.000243	2.432316	0.824091	-0.000097
 827	8.2187e+01	7.0827	19.985840	0.000355	3.547127	1.201799	-0.000142
 828	8.2287e+01	7.0490	19.937395	0.000122	1.216158	0.412045	-0.000049
 829	8.2386e+01	7.0121	19.796095	0.000355	3.547127	1.201799	-0.000142
 830	8.2486e+01	6.9688	19.670944	0.000314	3.141741	1.064451	-0.000126
 831	8.2585e+01	6.9319	19.549830	0.000304	3.040395	1.030114	-0.000122
 832	8.2684e+01	6.8918	19.448901	0.000253	2.533662	0.858428	-0.000101
 833	8.2784e+01	6.8501	19.331824	0.000294	2.939048	0.995776	-0.000118
 834	8.2883e+01	6.8100	19.218785	0.000284	2.837702	0.961439	-0.000114
 835	8.2983e+01	6.7634	19.077485	0.000355	3.547127	1.201799	-0.000142
 836	8.3082e+01	6.7249	18.968482	0.000274	2.736355	0.927102	-0.000110
 837	8.3182e+01	6.6897	18.891777	0.000193	1.925583	0.652405	-0.000077
 838	8.3281e+01	6.6511	18.734328	0.000395	3.952513	1.339148	-0.000158
 839	8.3381e+01	6.6094	18.625326	0.000274	2.736355	0.927102	-0.000110
 840	8.3481e+01	6.5758	18.540546	0.000213	2.128276	0.721079	-0.000085
 841	8.3580e+01	6.5405	18.403283	0.000345	3.445780	1.167462	-0.000138
 842	8.3680e+01	6.4827	18.290243	0.000284	2.837702	0.961439	-0.000114
 843	8.3779e+01	6.4490	18.197389	0.000233	2.330969	0.789754	-0.000093
 844	8.3879e+01	6.4137	18.080312	0.000294	2.939048	0.995776	-0.000118
 845	8.3978e+01	6.3816	17.955161	0.000314	3.141741	1.064451	-0.000126
 846	8.4078e+01	6.3383	17.862307	0.000233	2.330969	0.789754	-0.000093
 847	8.4177e+01	6.2950	17.741193	0.000304	3.040395	1.030114	-0.000122
 848	8.4276e+01	6.2469	17.607968	0.000334	3.344434	1.133125	-0.000134
 849	8.4376e+01	6.2196	17.494928	0.000284	2.837702	0.961439	-0.000114
 850	8.4475e+01	6.1683	17.385925	0.000274	2.736355	0.927102	-0.000110
 851	8.4575e+01	6.1394	17.301145	0.000213	2.128276	0.721079	-0.000085
 852	8.4674e+01	6.0977	17.184068	0.000294	2.939048	0.995776	-0.000118
 853	8.4774e+01	6.0512	17.042769	0.000355	3.547127	1.201799	-0.000142
 854	8.4874e+01	6.0111	16.933766	0.000274	2.736355	0.927102	-0.000110
 855	8.4973e+01	5.9758	16.824763	0.000274	2.736355	0.927102	-0.000110
 856	8.5073e+01	5.9308	16.707686	0.000294	2.939048	0.995776	-0.000118
 857	8.5172e+01	5.8940	16.574461	0.000334	3.344434	1.133125	-0.000134
 858	8.5272e+01	5.8538	16.550238	0.000061	0.608079	0.206023	-0.000024
 859	8.5371e+01	5.8137	16.396827	0.000385	3.851166	1.304810	-0.000154
 860	8.5471e+01	5.7768	16.263601	0.000334	3.344434	1.133125	-0.000134
 861	8.5570e+01	5.7367	16.182859	0.000203	2.026930	0.686742	-0.000081
 862	8.5669e+01	5.7047	16.037522	0.000365	3.648473	1.236136	-0.000146
 863	8.5769e+01	5.6581	15.952742	0.000213	2.128276	0.721079	-0.000085
 864	8.5868e+01	5.6068	15.791256	0.000405	4.053859	1.373485	-0.000162
 865	8.5968e+01	5.5731	15.658031	0.000334	3.344434	1.133125	-0.000134
 866	8.6067e+01	5.5298	15.613622	0.000111	1.114811	0.377708	-0.000045
 867	8.6167e+01	5.5089	15.444063	0.000426	4.256552	1.442159	-0.000170
 868	8.6266e+01	5.4608	15.339097	0.000264	2.635009	0.892765	-0.000105
 869	8.6366e+01	5.4127	15.217983	0.000304	3.040395	1.030114	-0.000122
 870	8.6466e+01	5.3806	15.117055	0.000253	2.533662	0.858428	-0.000101
 871	8.6565e+01	5.3405	14.967681	0.000375	3.749820	1.270473	-0.000150
 872	8.6665e+01	5.2892	14.878864	0.000223	2.229623	0.755417	-0.000089
 873	8.6764e+01	5.2635	14.757750	0.000304	3.040395	1.030114	-0.000122
 874	8.6864e+01	5.2282	14.664896	0.000233	2.330969	0.789754	-0.000093
 875	8.6963e+01	5.1833	14.535707	0.000324	3.243087	1.098788	-0.000130
 876	8.7063e+01	5.1351	14.418630	0.000294	2.939048	0.995776	-0.000118
 877	8.7162e+01	5.0902	14.289442	0.000324	3.243087	1.098788	-0.000130
 878	8.7261e+01	5.0501	14.204662	0.000213	2.128276	0.721079	-0.000085
 879	8.7361e+01	5.0100	14.079511	0.000314	3.141741	1.064451	-0.000126
 880	8.7460e+01	4.9860	14.018954	0.000152	1.520197	0.515057	-0.000061
 881	8.7560e+01	4.9410	13.837283	0.000456	4.560592	1.545170	-0.000183
 882	8.7659e+01	4.8945	13.752503	0.000213	2.128276	0.721079	-0.000085
 883	8.7759e+01	4.8640	13.651574	0.000253	2.533662	0.858428	-0.000101
 884	8.7859e+01	4.8207	13.546609	0.000264	2.635009	0.892765	-0.000105
 885	8.7958e+01	4.7806	13.393198	0.000385	3.851166	1.304810	-0.000154
 886	8.8058e+01	4.7421	13.300344	0.000233	2.330969	0.789754	-0.000093
 887	8.8157e+01	4.7020	13.150970	0.000375	3.749820	1.270473	-0.000150
 888	8.8257e+01	4.6587	13.054078	0.000243	2.432316	0.824091	-0.000097
 889	8.8356e+01	4.6170	12.928927	0.000314	3.141741	1.064451	-0.000126
 890	8.8456e+01	4.5849	12.832036	0.000243	2.432316	0.824091	-0.000097
 891	8.8555e+01	4.5432	12.718996	0.000284	2.837702	0.961439	-0.000114
 892	8.8654e+01	4.4983	12.609993	0.000274	2.736355	0.927102	-0.000110
 893	8.8754e+01	4.4598	12.492917	0.000294	2.939048	0.995776	-0.000118
 894	8.8853e+01	4.4229	12.379877	0.000284	2.837702	0.961439	-0.000114
 895	8.8953e+01	4.3796	12.242614	0.000345	3.445780	1.167462	-0.000138
 896	8.9052e+01	4.3459	12.129574	0.000284	2.837702	0.961439	-0.000114
 897	8.9152e+01	4.2945	12.012497	0.000294	2.939048	0.995776	-0.000118
 898	8.9251e+01	4.2576	11.875235	0.000345	3.445780	1.167462	-0.000138
 899	8.9351e+01	4.2239	11.770269	0.000264	2.635009	0.892765	-0.000105
 900	8.9451e+01	4.1758	11.685489	0.000213	2.128276	0.721079	-0.000085
 901	8.9550e+01	4.1453	11.580524	0.000264	2.635009	0.892765	-0.000105
 902	8.9650e+01	4.1068	11.427113	0.000385	3.851166	1.304810	-0.000154
 903	8.9749e+01	4.0539	11.314073	0.000284	2.837702	0.961439	-0.000114
 904	8.9849e+01	4.0186	11.233330	0.000203	2.026930	0.686742	-0.000081
 905	8.9948e+01	3.9865	11.116253	0.000294	2.939048	0.995776	-0.000118
 906	9.0047e+01	3.9368	11.003213	0.000284	2.837702	0.961439	-0.000114
 907	9.0147e+01	3.8983	10.861914	0.000355	3.547127	1.201799	-0.000142
 908	9.0246e+01	3.8518	10.777134	0.000213	2.128276	0.721079	-0.000085
 909	9.0346e+01	3.8229	10.647946	0.000324	3.243087	1.098788	-0.000130
 910	9.0445e+01	3.7828	10.510683	0.000345	3.445780	1.167462	-0.000138
 911	9.0545e+01	3.7475	10.417829	0.000233	2.330969	0.789754	-0.000093
 912	9.0644e+01	3.6978	10.300752	0.000294	2.939048	0.995776	-0.000118
 913	9.0744e+01	3.6560	10.171563	0.000324	3.243087	1.098788	-0.000130
 914	9.0844e+01	3.6256	10.066598	0.000264	2.635009	0.892765	-0.000105
 915	9.0943e+01	3.5855	9.929335	0.000345	3.445780	1.167462	-0.000138
 916	9.1043e+01	3.5405	9.844555	0.000213	2.128276	0.721079	-0.000085
 917	9.1142e+01	3.5052	9.731516	0.000284	2.837702	0.961439	-0.000114
 918	9.1242e+01	3.4587	9.602327	0.000324	3.243087	1.098788	-0.000130
 919	9.1341e+01	3.4218	9.473139	0.000324	3.243087	1.098788	-0.000130
 920	9.1441e+01	3.3897	9.396433	0.000193	1.925583	0.652405	-0.000077
 921	9.1540e+01	3.3480	9.251097	0.000365	3.648473	1.236136	-0.000146
 922	9.1639e+01	3.3143	9.162280	0.000223	2.229623	0.755417	-0.000089
 923	9.1739e+01	3.2646	9.029054	0.000334	3.344434	1.133125	-0.000134
 924	9.1838e+01	3.2229	8.916014	0.000284	2.837702	0.961439	-0.000114
 925	9.1938e+01	3.1828	8.831234	0.000213	2.128276	0.721079	-0.000085
 926	9.2037e+01	3.1395	8.726269	0.000264	2.635009	0.892765	-0.000105
 927	9.2137e+01	3.1106	8.572858	0.000385	3.851166	1.304810	-0.000154
 928	9.2237e+01	3.0673	8.451744	0.000304	3.040395	1.030114	-0.000122
 929	9.2336e+01	3.0256	8.318518	0.000334	3.344434	1.133125	-0.000134
 930	9.2436e+01	2.9871	8.249887	0.000172	1.722890	0.583731	-0.000069
 931	9.2535e+01	2.9470	8.096476	0.000385	3.851166	1.304810	-0.000154
 932	9.2635e+01	2.9085	8.015733	0.000203	2.026930	0.686742	-0.000081
 933	9.2734e+01	2.8668	7.890582	0.000314	3.141741	1.064451	-0.000126
 934	9.2834e+01	2.8218	7.797728	0.000233	2.330969	0.789754	-0.000093
 935	9.2933e+01	2.7769	7.656428	0.000355	3.547127	1.201799	-0.000142
 936	9.3032e+01	2.7545	7.507054	0.000375	3.749820	1.270473	-0.000150
 937	9.3132e+01	2.7047	7.398051	0.000274	2.736355	0.927102	-0.000110
 938	9.3231e+01	2.6694	7.337494	0.000152	1.520197	0.515057	-0.000061
 939	9.3331e+01	2.6342	7.204269	0.000334	3.344434	1.133125	-0.000134
 940	9.3430e+01	2.5876	7.067006	0.000345	3.445780	1.167462	-0.000138
 941	9.3530e+01	2.5539	6.962041	0.000264	2.635009	0.892765	-0.000105
 942	9.3629e+01	2.5122	6.820741	0.000355	3.547127	1.201799	-0.000142
 943	9.3729e+01	2.4641	6.744035	0.000193	1.925583	0.652405	-0.000077
 944	9.3829e+01	2.4288	6.618884	0.000314	3.141741	1.064451	-0.000126
 945	9.3928e+01	2.3903	6.481621	0.000345	3.445780	1.167462	-0.000138
 946	9.4028e+01	2.3502	6.372619	0.000274	2.736355	0.927102	-0.000110
 947	9.4127e+01	2.3005	6.308025	0.000162	1.621544	0.549394	-0.000065
 948	9.4227e+01	2.2716	6.146539	0.000405	4.053859	1.373485	-0.000162
 949	9.4326e+01	2.2315	6.081945	0.000162	1.621544	0.549394	-0.000065
 950	9.4425e+01	2.1866	5.920460	0.000405	4.053859	1.373485	-0.000162
 951	9.4525e+01	2.1465	5.803383	0.000294	2.939048	0.995776	-0.000118
 952	9.4624e+01	2.1015	5.674194	0.000324	3.243087	1.098788	-0.000130
 953	9.4724e+01	2.0743	5.597489	0.000193	1.925583	0.652405	-0.000077
 954	9.4823e+01	2.0294	5.484449	0.000284	2.837702	0.961439	-0.000114
 955	9.4923e+01	1.9909	5.347186	0.000345	3.445780	1.167462	-0.000138
 956	9.5022e+01	1.9411	5.242221	0.000264	2.635009	0.892765	-0.000105
 957	9.5122e+01	1.9090	5.149367	0.000233	2.330969	0.789754	-0.000093
 958	9.5222e+01	1.8609	5.020178	0.000324	3.243087	1.098788	-0.000130
 959	9.5321e+01	1.8320	4.890990	0.000324	3.243087	1.098788	-0.000130
 960	9.5421e+01	1.7935	4.822359	0.000172	1.722890	0.583731	-0.000069
 961	9.5520e+01	1.7582	4.668947	0.000385	3.851166	1.304810	-0.000154
 962	9.5620e+01	1.7037	4.559945	0.000274	2.736355	0.927102	-0.000110
 963	9.5719e+01	1.6668	4.434794	0.000314	3.141741	1.064451	-0.000126
 964	9.5819e+01	1.6299	4.325791	0.000274	2.736355	0.927102	-0.000110
 965	9.5918e+01	1.5802	4.208714	0.000294	2.939048	0.995776	-0.000118
 966	9.6017e+01	1.5529	4.087600	0.000304	3.040395	1.030114	-0.000122
 967	9.6117e+01	1.5112	3.946300	0.000355	3.547127	1.201799	-0.000142
 968	9.6216e+01	1.4711	3.833260	0.000284	2.837702	0.961439	-0.000114
 969	9.6316e+01	1.4326	3.728295	0.000264	2.635009	0.892765	-0.000105
 970	9.6415e+01	1.3877	3.639478	0.000223	2.229623	0.755417	-0.000089
 971	9.6515e+01	1.3572	3.518364	0.000304	3.040395	1.030114	-0.000122
 972	9.6615e+01	1.3139	3.429547	0.000223	2.229623	0.755417	-0.000089
 973	9.6714e+01	1.2657	3.280173	0.000375	3.749820	1.270473	-0.000150
 974	9.6814e+01	1.2321	3.191356	0.000223	2.229623	0.755417	-0.000089
 975	9.6913e+01	1.2096	3.062167	0.000324	3.243087	1.098788	-0.000130
 976	9.7013e+01	1.1486	2.977388	0.000213	2.128276	0.721079	-0.000085
 977	9.7112e+01	1.1085	2.828014	0.000375	3.749820	1.270473	-0.000150
 978	9.7212e+01	1.0684	2.702862	0.000314	3.141741	1.064451	-0.000126
 979	9.7311e+01	1.0299	2.614045	0.000223	2.229623	0.755417	-0.000089
 980	9.7410e+01	1.0026	2.488894	0.000314	3.141741	1.064451	-0.000126
 981	9.7510e+01	0.9513	2.363743	0.000314	3.141741	1.064451	-0.000126
 982	9.7609e+01	0.9176	2.278963	0.000213	2.128276	0.721079	-0.000085
 983	9.7709e+01	0.8663	2.137663	0.000355	3.547127	1.201799	-0.000142
 984	9.7808e+01	0.8390	2.028661	0.000274	2.736355	0.927102	-0.000110
 985	9.7908e+01	0.7925	1.895435	0.000334	3.344434	1.133125	-0.000134
 986	9.8007e+01	0.7556	1.822767	0.000182	1.824237	0.618068	-0.000073
 987	9.8107e+01	0.7155	1.689541	0.000334	3.344434	1.133125	-0.000134
 988	9.8207e+01	0.6722	1.552279	0.000345	3.445780	1.167462	-0.000138
 989	9.8306e+01	0.6289	1.459425	0.000233	2.330969	0.789754	-0.000093
 990	9.8406e+01	0.6016	1.338310	0.000304	3.040395	1.030114	-0.000122
 991	9.8505e+01	0.5535	1.209122	0.000324	3.243087	1.098788	-0.000130
 992	9.8605e+01	0.5166	1.100119	0.000274	2.736355	0.927102	-0.000110
 993	9.8704e+01	0.4829	0.962857	0.000345	3.445780	1.167462	-0.000138
 994	9.8803e+01	0.4428	0.841743	0.000304	3.040395	1.030114	-0.000122
 995	9.8903e+01	0.3882	0.752926	0.000223	2.229623	0.755417	-0.000089
 996	9.9002e+01	0.3577	0.647960	0.000264	2.635009	0.892765	-0.000105
 997	9.9102e+01	0.3144	0.534920	0.000284	2.837702	0.961439	-0.000114
 998	9.9201e+01	0.2647	0.429955	0.000264	2.635009	0.892765	-0.000105
 999	9.9301e+01	0.2406	0.300767	0.000324	3.243087	1.098788	-0.000130
1000	9.9400e+01	0.1957	0.195801	0.000264	2.635009	0.892765	-0.000105
1001	9.9500e+01	0.1524	0.086798	0.000274	2.736355	0.927102	-0.000110
1002	9.9600e+01	0.1187	-0.054501	0.000355	3.547127	1.201799	-0.000142
1003	9.9699e+01	0.0690	-0.155430	0.000253	2.533662	0.858428	-0.000101
1004	9.9799e+01	0.0385	-0.288655	0.000334	3.344434	1.133125	-0.000134
1005	9.9898e+01	0.0048	-0.377472	0.000223	2.229623	0.755417	-0.000089
1006	9.9998e+01	-0.0305	-0.454178	0.000193	1.925583	0.652405	-0.000077
1007	1.0010e+02	-0.0738	-0.595478	0.000355	3.547127	1.201799	-0.000142
1008	1.0020e+02	-0.1203	-0.724666	0.000324	3.243087	1.098788	-0.000130
1009	1.0030e+02	-0.1556	-0.837706	0.000284	2.837702	0.961439	-0.000114
1010	1.0040e+02	-0.1957	-0.934597	0.000243	2.432316	0.824091	-0.000097
1011	1.0050e+02	-0.2374	-1.059748	0.000314	3.141741	1.064451	-0.000126
1012	1.0059e+02	-0.2856	-1.152602	0.000233	2.330969	0.789754	-0.000093
1013	1.0069e+02	-0.3144	-1.293902	0.000355	3.547127	1.201799	-0.000142
1014	1.0079e+02	-0.3577	-1.410979	0.000294	2.939048	0.995776	-0.000118
1015	1.0089e+02	-0.3898	-1.495759	0.000213	2.128276	0.721079	-0.000085
1016	1.0099e+02	-0.4380	-1.641096	0.000365	3.648473	1.236136	-0.000146
1017	1.0109e+02	-0.4684	-1.766247	0.000314	3.141741	1.064451	-0.000126
1018	1.0119e+02	-0.5166	-1.851027	0.000213	2.128276	0.721079	-0.000085
1019	1.0129e+02	-0.5535	-1.951955	0.000253	2.533662	0.858428	-0.000101
1020	1.0139e+02	-0.5888	-2.093255	0.000355	3.547127	1.201799	-0.000142
1021	1.0149e+02	-0.6385	-2.222443	0.000324	3.243087	1.098788	-0.000130
1022	1.0159e+02	-0.6770	-2.347594	0.000314	3.141741	1.064451	-0.000126
1023	1.0169e+02	-0.7139	-2.456597	0.000274	2.736355	0.927102	-0.000110
1024	1.0179e+02	-0.7556	-2.525228	0.000172	1.722890	0.583731	-0.000069
1025	1.0189e+02	-0.8005	-2.650380	0.000314	3.141741	1.064451	-0.000126
1026	1.0199e+02	-0.8262	-2.775531	0.000314	3.141741	1.064451	-0.000126
1027	1.0209e+02	-0.8695	-2.852236	0.000193	1.925583	0.652405	-0.000077
1028	1.0219e+02	-0.9128	-3.017759	0.000416	4.155206	1.407822	-0.000166
1029	1.0229e+02	-0.9465	-3.130799	0.000284	2.837702	0.961439	-0.000114
1030	1.0239e+02	-0.9834	-3.223653	0.000233	2.330969	0.789754	-0.000093
1031	1.0248e+02	-1.0363	-3.368990	0.000365	3.648473	1.236136	-0.000146
1032	1.0258e+02	-1.0684	-3.429547	0.000152	1.520197	0.515057	-0.000061
1033	1.0268e+02	-1.1085	-3.578921	0.000375	3.749820	1.270473	-0.000150
1034	1.0278e+02	-1.1470	-3.691961	0.000284	2.837702	0.961439	-0.000114
1035	1.0288e+02	-1.2000	-3.821149	0.000324	3.243087	1.098788	-0.000130
1036	1.0298e+02	-1.2272	-3.918040	0.000243	2.432316	0.824091	-0.000097
1037	1.0308e+02	-1.2609	-3.998783	0.000203	2.026930	0.686742	-0.000081
1038	1.0318e+02	-1.3091	-4.152194	0.000385	3.851166	1.304810	-0.000154
1039	1.0328e+02	-1.3508	-4.313680	0.000405	4.053859	1.373485	-0.000162
1040	1.0338e+02	-1.3877	-4.386348	0.000182	1.824237	0.618068	-0.000073
1041	1.0348e+02	-1.4342	-4.487276	0.000253	2.533662	0.858428	-0.000101
1042	1.0358e+02	-1.4743	-4.576093	0.000223	2.229623	0.755417	-0.000089
1043	1.0368e+02	-1.5048	-4.757764	0.000456	4.560592	1.545170	-0.000183
1044	1.0378e+02	-1.5529	-4.802173	0.000111	1.114811	0.377708	-0.000045
1045	1.0388e+02	-1.5914	-4.963658	0.000405	4.053859	1.373485	-0.000162
1046	1.0398e+02	-1.6235	-5.096884	0.000334	3.344434	1.133125	-0.000134
1047	1.0408e+02	-1.6700	-5.153404	0.000142	1.418851	0.480720	-0.000057
1048	1.0418e+02	-1.7069	-5.298741	0.000365	3.648473	1.236136	-0.000146
1049	1.0428e+02	-1.7470	-5.403706	0.000264	2.635009	0.892765	-0.000105
1050	1.0438e+02	-1.7887	-5.528857	0.000314	3.141741	1.064451	-0.000126
1051	1.0447e+02	-1.8256	-5.666120	0.000345	3.445780	1.167462	-0.000138
1052	1.0457e+02	-1.8625	-5.730714	0.000162	1.621544	0.549394	-0.000065
1053	1.0467e+02	-1.9138	-5.863940	0.000334	3.344434	1.133125	-0.000134
1054	1.0477e+02	-1.9540	-5.972942	0.000274	2.736355	0.927102	-0.000110
1055	1.0487e+02	-1.9860	-6.098094	0.000314	3.141741	1.064451	-0.000126
1056	1.0497e+02	-2.0326	-6.259579	0.000405	4.053859	1.373485	-0.000162
1057	1.0507e+02	-2.0614	-6.312062	0.000132	1.317504	0.446383	-0.000053
1058	1.0517e+02	-2.1096	-6.437213	0.000314	3.141741	1.064451	-0.000126
1059	1.0527e+02	-2.1529	-6.517956	0.000203	2.026930	0.686742	-0.000081
1060	1.0537e+02	-2.1946	-6.663293	0.000365	3.648473	1.236136	-0.000146
1061	1.0547e+02	-2.2251	-6.784407	0.000304	3.040395	1.030114	-0.000122
1062	1.0557e+02	-2.2732	-6.857075	0.000182	1.824237	0.618068	-0.000073
1063	1.0567e+02	-2.3021	-7.010486	0.000385	3.851166	1.304810	-0.000154
1064	1.0577e+02	-2.3438	-7.115452	0.000264	2.635009	0.892765	-0.000105
1065	1.0587e+02	-2.3823	-7.200232	0.000213	2.128276	0.721079	-0.000085
1066	1.0597e+02	-2.4160	-7.341531	0.000355	3.547127	1.201799	-0.000142
1067	1.0607e+02	-2.4657	-7.434385	0.000233	2.330969	0.789754	-0.000093
1068	1.0617e+02	-2.5106	-7.555500	0.000304	3.040395	1.030114	-0.000122
1069	1.0627e+02	-2.5475	-7.692762	0.000345	3.445780	1.167462	-0.000138
1070	1.0637e+02	-2.5812	-7.805802	0.000284	2.837702	0.961439	-0.000114
1071	1.0647e+02	-2.6293	-7.910767	0.000264	2.635009	0.892765	-0.000105
1072	1.0656e+02	-2.6630	-7.995547	0.000213	2.128276	0.721079	-0.000085
1073	1.0666e+02	-2.6999	-8.140884	0.000365	3.648473	1.236136	-0.000146
1074	1.0676e+02	-2.7432	-8.257961	0.000294	2.939048	0.995776	-0.000118
1075	1.0686e+02	-2.7914	-8.366964	0.000274	2.736355	0.927102	-0.000110
1076	1.0696e+02	-2.8234	-8.467892	0.000253	2.533662	0.858428	-0.000101
1077	1.0706e+02	-2.8652	-8.560746	0.000233	2.330969	0.789754	-0.000093
1078	1.0716e+02	-2.9005	-8.710120	0.000375	3.749820	1.270473	-0.000150
1079	1.0726e+02	-2.9341	-8.798937	0.000223	2.229623	0.755417	-0.000089
1080	1.0736e+02	-2.9839	-8.952348	0.000385	3.851166	1.304810	-0.000154
1081	1.0746e+02	-3.0224	-9.037128	0.000213	2.128276	0.721079	-0.000085
1082	1.0756e+02	-3.0641	-9.113834	0.000193	1.925583	0.652405	-0.000077
1083	1.0766e+02	-3.1058	-9.259171	0.000365	3.648473	1.236136	-0.000146
1084	1.0776e+02	-3.1427	-9.400471	0.000355	3.547127	1.201799	-0.000142
1085	1.0786e+02	-3.1940	-9.485250	0.000213	2.128276	0.721079	-0.000085
1086	1.0796e+02	-3.2213	-9.594253	0.000274	2.736355	0.927102	-0.000110
1087	1.0806e+02	-3.2630	-9.715367	0.000304	3.040395	1.030114	-0.000122
1088	1.0816e+02	-3.3031	-9.812258	0.000243	2.432316	0.824091	-0.000097
1089	1.0826e+02	-3.3416	-9.921261	0.000274	2.736355	0.927102	-0.000110
1090	1.0836e+02	-3.3849	-10.054487	0.000334	3.344434	1.133125	-0.000134
1091	1.0845e+02	-3.4234	-10.167526	0.000284	2.837702	0.961439	-0.000114
1092	1.0855e+02	-3.4603	-10.284603	0.000294	2.939048	0.995776	-0.000118
1093	1.0865e+02	-3.4988	-10.397643	0.000284	2.837702	0.961439	-0.000114
1094	1.0875e+02	-3.5373	-10.470312	0.000182	1.824237	0.618068	-0.000073
1095	1.0885e+02	-3.5806	-10.615648	0.000365	3.648473	1.236136	-0.000146
1096	1.0895e+02	-3.6288	-10.752911	0.000345	3.445780	1.167462	-0.000138
1097	1.0905e+02	-3.6625	-10.865951	0.000284	2.837702	0.961439	-0.000114
1098	1.0915e+02	-3.6978	-10.999176	0.000334	3.344434	1.133125	-0.000134
1099	1.0925e+02	-3.7379	-11.083956	0.000213	2.128276	0.721079	-0.000085
1100	1.0935e+02	-3.7780	-11.168736	0.000213	2.128276	0.721079	-0.000085
1101	1.0945e+02	-3.8084	-11.318110	0.000375	3.749820	1.270473	-0.000150
1102	1.0955e+02	-3.8646	-11.431150	0.000284	2.837702	0.961439	-0.000114
1103	1.0965e+02	-3.8903	-11.519967	0.000223	2.229623	0.755417	-0.000089
1104	1.0975e+02	-3.9432	-11.641081	0.000304	3.040395	1.030114	-0.000122
1105	1.0985e+02	-3.9721	-11.746046	0.000264	2.635009	0.892765	-0.000105
1106	1.0995e+02	-4.0330	-11.842938	0.000243	2.432316	0.824091	-0.000097
1107	1.1005e+02	-4.0571	-11.992312	0.000375	3.749820	1.270473	-0.000150
1108	1.1015e+02	-4.0972	-12.056906	0.000162	1.621544	0.549394	-0.000065
1109	1.1025e+02	-4.1405	-12.194168	0.000345	3.445780	1.167462	-0.000138
1110	1.1035e+02	-4.1806	-12.299134	0.000264	2.635009	0.892765	-0.000105
1111	1.1044e+02	-4.2159	-12.432360	0.000334	3.344434	1.133125	-0.000134
1112	1.1054e+02	-4.2624	-12.517139	0.000213	2.128276	0.721079	-0.000085
1113	1.1064e+02	-4.3074	-12.650365	0.000334	3.344434	1.133125	-0.000134
1114	1.1074e+02	-4.3411	-12.718996	0.000172	1.722890	0.583731	-0.000069
1115	1.1084e+02	-4.3812	-12.803776	0.000213	2.128276	0.721079	-0.000085
1116	1.1094e+02	-4.4293	-12.961224	0.000395	3.952513	1.339148	-0.000158
1117	1.1104e+02	-4.4614	-13.029856	0.000172	1.722890	0.583731	-0.000069
1118	1.1114e+02	-4.4919	-13.187304	0.000395	3.952513	1.339148	-0.000158
1119	1.1124e+02	-4.5400	-13.320529	0.000334	3.344434	1.133125	-0.000134
1120	1.1134e+02	-4.5769	-13.453755	0.000334	3.344434	1.133125	-0.000134
1121	1.1144e+02	-4.6202	-13.534498	0.000203	2.026930	0.686742	-0.000081
1122	1.1154e+02	-4.6571	-13.647537	0.000284	2.837702	0.961439	-0.000114
1123	1.1164e+02	-4.6940	-13.748466	0.000253	2.533662	0.858428	-0.000101
1124	1.1174e+02	-4.7277	-13.873617	0.000314	3.141741	1.064451	-0.000126
1125	1.1184e+02	-4.7790	-13.978582	0.000264	2.635009	0.892765	-0.000105
1126	1.1194e+02	-4.8175	-14.087585	0.000274	2.736355	0.927102	-0.000110
1127	1.1204e+02	-4.8544	-14.232922	0.000365	3.648473	1.236136	-0.000146
1128	1.1214e+02	-4.8961	-14.285405	0.000132	1.317504	0.446383	-0.000053
1129	1.1224e+02	-4.9362	-14.442853	0.000395	3.952513	1.339148	-0.000158
1130	1.1234e+02	-4.9731	-14.523596	0.000203	2.026930	0.686742	-0.000081
1131	1.1244e+02	-5.0180	-14.636636	0.000284	2.837702	0.961439	-0.000114
1132	1.1253e+02	-5.0485	-14.741601	0.000264	2.635009	0.892765	-0.000105
1133	1.1263e+02	-5.0902	-14.890975	0.000375	3.749820	1.270473	-0.000150
1134	1.1273e+02	-5.1303	-14.971718	0.000203	2.026930	0.686742	-0.000081
1135	1.1283e+02	-5.1769	-15.068609	0.000243	2.432316	0.824091	-0.000097
1136	1.1293e+02	-5.2122	-15.181649	0.000284	2.837702	0.961439	-0.000114
1137	1.1303e+02	-5.2571	-15.298726	0.000294	2.939048	0.995776	-0.000118
1138	1.1313e+02	-5.2940	-15.419840	0.000304	3.040395	1.030114	-0.000122
1139	1.1323e+02	-5.3293	-15.569214	0.000375	3.749820	1.270473	-0.000150
1140	1.1333e+02	-5.3694	-15.613622	0.000111	1.114811	0.377708	-0.000045
1141	1.1343e+02	-5.4159	-15.746848	0.000334	3.344434	1.133125	-0.000134
1142	1.1353e+02	-5.4560	-15.867962	0.000304	3.040395	1.030114	-0.000122
1143	1.1363e+02	-5.4977	-15.944668	0.000193	1.925583	0.652405	-0.000077
1144	1.1373e+02	-5.5362	-16.106153	0.000405	4.053859	1.373485	-0.000162
1145	1.1383e+02	-5.5715	-16.178821	0.000182	1.824237	0.618068	-0.000073
1146	1.1393e+02	-5.6132	-16.348381	0.000426	4.256552	1.442159	-0.000170
1147	1.1403e+02	-5.6533	-16.425087	0.000193	1.925583	0.652405	-0.000077
1148	1.1413e+02	-5.6886	-16.501792	0.000193	1.925583	0.652405	-0.000077
1149	1.1423e+02	-5.7335	-16.630981	0.000324	3.243087	1.098788	-0.000130
1150	1.1433e+02	-5.7768	-16.744020	0.000284	2.837702	0.961439	-0.000114
1151	1.1442e+02	-5.8153	-16.832837	0.000223	2.229623	0.755417	-0.000089
1152	1.1452e+02	-5.8587	-17.006434	0.000436	4.357899	1.476496	-0.000174
1153	1.1462e+02	-5.8940	-17.058917	0.000132	1.317504	0.446383	-0.000053
1154	1.1472e+02	-5.9405	-17.171957	0.000284	2.837702	0.961439	-0.000114
1155	1.1482e+02	-5.9726	-17.301145	0.000324	3.243087	1.098788	-0.000130
1156	1.1492e+02	-6.0095	-17.406111	0.000264	2.635009	0.892765	-0.000105
1157	1.1502e+02	-6.0447	-17.555485	0.000375	3.749820	1.270473	-0.000150
1158	1.1512e+02	-6.0961	-17.624116	0.000172	1.722890	0.583731	-0.000069
1159	1.1522e+02	-6.1394	-17.704859	0.000203	2.026930	0.686742	-0.000081
1160	1.1532e+02	-6.1731	-17.854233	0.000375	3.749820	1.270473	-0.000150
1161	1.1542e+02	-6.2052	-17.959198	0.000264	2.635009	0.892765	-0.000105
1162	1.1552e+02	-6.2517	-18.072238	0.000284	2.837702	0.961439	-0.000114
1163	1.1562e+02	-6.2902	-18.205464	0.000334	3.344434	1.133125	-0.000134
1164	1.1572e+02	-6.3367	-18.314466	0.000274	2.736355	0.927102	-0.000110
1165	1.1582e+02	-6.3752	-18.439617	0.000314	3.141741	1.064451	-0.000126
1166	1.1592e+02	-6.4105	-18.508249	0.000172	1.722890	0.583731	-0.000069
1167	1.1602e+02	-6.4506	-18.633400	0.000314	3.141741	1.064451	-0.000126
1168	1.1612e+02	-6.4907	-18.685883	0.000132	1.317504	0.446383	-0.000053
1169	1.1622e+02	-6.5148	-18.835257	0.000375	3.749820	1.270473	-0.000150
1170	1.1632e+02	-6.5725	-18.968482	0.000334	3.344434	1.133125	-0.000134
1171	1.1642e+02	-6.6126	-19.065374	0.000243	2.432316	0.824091	-0.000097
1172	1.1651e+02	-6.6447	-19.178413	0.000284	2.837702	0.961439	-0.000114
1173	1.1661e+02	-6.6784	-19.247045	0.000172	1.722890	0.583731	-0.000069
1174	1.1671e+02	-6.7298	-19.392382	0.000365	3.648473	1.236136	-0.000146
1175	1.1681e+02	-6.7602	-19.465050	0.000182	1.824237	0.618068	-0.000073
1176	1.1691e+02	-6.8052	-19.618461	0.000385	3.851166	1.304810	-0.000154
1177	1.1701e+02	-6.8453	-19.723427	0.000264	2.635009	0.892765	-0.000105
1178	1.1711e+02	-6.8870	-19.860689	0.000345	3.445780	1.167462	-0.000138
1179	1.1721e+02	-6.9319	-19.937395	0.000193	1.925583	0.652405	-0.000077
1180	1.1731e+02	-6.9704	-20.042360	0.000264	2.635009	0.892765	-0.000105
1181	1.1741e+02	-7.0105	-20.151363	0.000274	2.736355	0.927102	-0.000110
1182	1.1751e+02	-7.0458	-20.228069	0.000193	1.925583	0.652405	-0.000077
1183	1.1761e+02	-7.0827	-20.405703	0.000446	4.459245	1.510833	-0.000179
1184	1.1771e+02	-7.1180	-20.470297	0.000162	1.621544	0.549394	-0.000065
1185	1.1781e+02	-7.1629	-20.595448	0.000314	3.141741	1.064451	-0.000126
1186	1.1791e+02	-7.1998	-20.668116	0.000182	1.824237	0.618068	-0.000073
1187	1.1801e+02	-7.2495	-20.785193	0.000294	2.939048	0.995776	-0.000118
1188	1.1811e+02	-7.2832	-20.910345	0.000314	3.141741	1.064451	-0.000126
1189	1.1821e+02	-7.3249	-21.011273	0.000253	2.533662	0.858428	-0.000101
1190	1.1831e+02	-7.3666	-21.120276	0.000274	2.736355	0.927102	-0.000110
1191	1.1841e+02	-7.3987	-21.277724	0.000395	3.952513	1.339148	-0.000158
1192	1.1850e+02	-7.4485	-21.314058	0.000091	0.912118	0.309034	-0.000037
1193	1.1860e+02	-7.4837	-21.511878	0.000497	4.965978	1.682519	-0.000199
1194	1.1870e+02	-7.5206	-21.556286	0.000111	1.114811	0.377708	-0.000045
1195	1.1880e+02	-7.5527	-21.673363	0.000294	2.939048	0.995776	-0.000118
1196	1.1890e+02	-7.5960	-21.786403	0.000284	2.837702	0.961439	-0.000114
1197	1.1900e+02	-7.6345	-21.846960	0.000152	1.520197	0.515057	-0.000061
1198	1.1910e+02	-7.6779	-22.024594	0.000446	4.459245	1.510833	-0.000179
1199	1.1920e+02	-7.7276	-22.109374	0.000213	2.128276	0.721079	-0.000085
1200	1.1930e+02	-7.7645	-22.173968	0.000162	1.621544	0.549394	-0.000065
1201	1.1940e+02	-7.8078	-22.347565	0.000436	4.357899	1.476496	-0.000174
1202	1.1950e+02	-7.8399	-22.428308	0.000203	2.026930	0.686742	-0.000081
1203	1.1960e+02	-7.8816	-22.569607	0.000355	3.547127	1.201799	-0.000142
1204	1.1970e+02	-7.9153	-22.650350	0.000203	2.026930	0.686742	-0.000081
1205	1.1980e+02	-7.9586	-22.763390	0.000284	2.837702	0.961439	-0.000114
1206	1.1990e+02	-7.9939	-22.872393	0.000274	2.736355	0.927102	-0.000110
1207	1.2000e+02	-8.0452	-22.997544	0.000314	3.141741	1.064451	-0.000126
1208	1.2010e+02	-8.0837	-23.090398	0.000233	2.330969	0.789754	-0.000093
1209	1.2020e+02	-8.1238	-23.195363	0.000264	2.635009	0.892765	-0.000105
1210	1.2030e+02	-8.1575	-23.300329	0.000264	2.635009	0.892765	-0.000105
1211	1.2039e+02	-8.2089	-23.445666	0.000365	3.648473	1.236136	-0.000146
1212	1.2049e+02	-8.2393	-23.477963	0.000081	0.810772	0.274697	-0.000032
1213	1.2059e+02	-8.2859	-23.671745	0.000486	4.864631	1.648182	-0.000195
1214	1.2069e+02	-8.3260	-23.740377	0.000172	1.722890	0.583731	-0.000069
1215	1.2079e+02	-8.3613	-23.845342	0.000264	2.635009	0.892765	-0.000105
1216	1.2089e+02	-8.4046	-23.962419	0.000294	2.939048	0.995776	-0.000118
1217	1.2099e+02	-8.4399	-24.067385	0.000264	2.635009	0.892765	-0.000105
1218	1.2109e+02	-8.4864	-24.204647	0.000345	3.445780	1.167462	-0.000138
1219	1.2119e+02	-8.5153	-24.273279	0.000172	1.722890	0.583731	-0.000069
1220	1.2129e+02	-8.5666	-24.386318	0.000284	2.837702	0.961439	-0.000114
1221	1.2139e+02	-8.5971	-24.463024	0.000193	1.925583	0.652405	-0.000077
1222	1.2149e+02	-8.6452	-24.592212	0.000324	3.243087	1.098788	-0.000130
1223	1.2159e+02	-8.6853	-24.725438	0.000334	3.344434	1.133125	-0.000134
1224	1.2169e+02	-8.7238	-24.810218	0.000213	2.128276	0.721079	-0.000085
1225	1.2179e+02	-8.7559	-24.915183	0.000264	2.635009	0.892765	-0.000105
1226	1.2189e+02	-8.7896	-24.975740	0.000152	1.520197	0.515057	-0.000061
1227	1.2199e+02	-8.8313	-25.161448	0.000466	4.661938	1.579507	-0.000187
1228	1.2209e+02	-8.8762	-25.234117	0.000182	1.824237	0.618068	-0.000073
1229	1.2219e+02	-8.9163	-25.335045	0.000253	2.533662	0.858428	-0.000101
1230	1.2229e+02	-8.9468	-25.448085	0.000284	2.837702	0.961439	-0.000114
1231	1.2239e+02	-8.9981	-25.561125	0.000284	2.837702	0.961439	-0.000114
1232	1.2248e+02	-9.0431	-25.682239	0.000304	3.040395	1.030114	-0.000122
1233	1.2258e+02	-9.0880	-25.767019	0.000213	2.128276	0.721079	-0.000085
1234	1.2268e+02	-9.1120	-25.831613	0.000162	1.621544	0.549394	-0.000065
1235	1.2278e+02	-9.1505	-26.009247	0.000446	4.459245	1.510833	-0.000179
1236	1.2288e+02	-9.1971	-26.085953	0.000193	1.925583	0.652405	-0.000077
1237	1.2298e+02	-9.2308	-26.198992	0.000284	2.837702	0.961439	-0.000114
1238	1.2308e+02	-9.2709	-26.328181	0.000324	3.243087	1.098788	-0.000130
1239	1.2318e+02	-9.3206	-26.408923	0.000203	2.026930	0.686742	-0.000081
1240	1.2328e+02	-9.3559	-26.477555	0.000172	1.722890	0.583731	-0.000069
1241	1.2338e+02	-9.3944	-26.622892	0.000365	3.648473	1.236136	-0.000146
1242	1.2348e+02	-9.4297	-26.764191	0.000355	3.547127	1.201799	-0.000142
1243	1.2358e+02	-9.4762	-26.836860	0.000182	1.824237	0.618068	-0.000073
1244	1.2368e+02	-9.5163	-26.945862	0.000274	2.736355	0.927102	-0.000110
1245	1.2378e+02	-9.5596	-27.071014	0.000314	3.141741	1.064451	-0.000126
1246	1.2388e+02	-9.5965	-27.139645	0.000172	1.722890	0.583731	-0.000069
1247	1.2398e+02	-9.6430	-27.252685	0.000284	2.837702	0.961439	-0.000114
1248	1.2408e+02	-9.6703	-27.385910	0.000334	3.344434	1.133125	-0.000134
1249	1.2418e+02	-9.7136	-27.442430	0.000142	1.418851	0.480720	-0.000057
1250	1.2428e+02	-9.7569	-27.547396	0.000264	2.635009	0.892765	-0.000105
1251	1.2438e+02	-9.7987	-27.656398	0.000274	2.736355	0.927102	-0.000110
1252	1.2447e+02	-9.8356	-27.781550	0.000314	3.141741	1.064451	-0.000126
1253	1.2457e+02	-9.8757	-27.906701	0.000314	3.141741	1.064451	-0.000126
1254	1.2467e+02	-9.9222	-27.999555	0.000233	2.330969	0.789754	-0.000093
1255	1.2477e+02	-9.9575	-28.088372	0.000223	2.229623	0.755417	-0.000089
1256	1.2487e+02	-9.9928	-28.217560	0.000324	3.243087	1.098788	-0.000130
1257	1.2497e+02	-10.0313	-28.318489	0.000253	2.533662	0.858428	-0.000101
1258	1.2507e+02	-10.0762	-28.447677	0.000324	3.243087	1.098788	-0.000130
1259	1.2517e+02	-10.1179	-28.520345	0.000182	1.824237	0.618068	-0.000073
1260	1.2527e+02	-10.1596	-28.601088	0.000203	2.026930	0.686742	-0.000081
1261	1.2537e+02	-10.1933	-28.718165	0.000294	2.939048	0.995776	-0.000118
1262	1.2547e+02	-10.2286	-28.827168	0.000274	2.736355	0.927102	-0.000110
1263	1.2557e+02	-10.2751	-28.952319	0.000314	3.141741	1.064451	-0.000126
1264	1.2567e+02	-10.3088	-29.069396	0.000294	2.939048	0.995776	-0.000118
1265	1.2577e+02	-10.3537	-29.158213	0.000223	2.229623	0.755417	-0.000089
1266	1.2587e+02	-10.3954	-29.275290	0.000294	2.939048	0.995776	-0.000118
1267	1.2597e+02	-10.4211	-29.388330	0.000284	2.837702	0.961439	-0.000114
1268	1.2607e+02	-10.4708	-29.448887	0.000152	1.520197	0.515057	-0.000061
1269	1.2617e+02	-10.5190	-29.541741	0.000233	2.330969	0.789754	-0.000093
1270	1.2627e+02	-10.5559	-29.683041	0.000355	3.547127	1.201799	-0.000142
1271	1.2636e+02	-10.5879	-29.759746	0.000193	1.925583	0.652405	-0.000077
1272	1.2646e+02	-10.6345	-29.856637	0.000243	2.432316	0.824091	-0.000097
1273	1.2656e+02	-10.6681	-29.989863	0.000334	3.344434	1.133125	-0.000134
1274	1.2666e+02	-10.7179	-30.078680	0.000223	2.229623	0.755417	-0.000089
1275	1.2676e+02	-10.7516	-30.203831	0.000314	3.141741	1.064451	-0.000126
1276	1.2686e+02	-10.7885	-30.292648	0.000223	2.229623	0.755417	-0.000089
1277	1.2696e+02	-10.8189	-30.429911	0.000345	3.445780	1.167462	-0.000138
1278	1.2706e+02	-10.8607	-30.534876	0.000264	2.635009	0.892765	-0.000105
1279	1.2716e+02	-10.9088	-30.595433	0.000152	1.520197	0.515057	-0.000061
1280	1.2726e+02	-10.9473	-30.724622	0.000324	3.243087	1.098788	-0.000130
1281	1.2736e+02	-10.9874	-30.809401	0.000213	2.128276	0.721079	-0.000085
1282	1.2746e+02	-11.0355	-30.938590	0.000324	3.243087	1.098788	-0.000130
1283	1.2756e+02	-11.0676	-31.047592	0.000274	2.736355	0.927102	-0.000110
1284	1.2766e+02	-11.1093	-31.140447	0.000233	2.330969	0.789754	-0.000093
1285	1.2776e+02	-11.1542	-31.253486	0.000284	2.837702	0.961439	-0.000114
1286	1.2786e+02	-11.2008	-31.346340	0.000233	2.330969	0.789754	-0.000093
1287	1.2796e+02	-11.2344	-31.475529	0.000324	3.243087	1.098788	-0.000130
1288	1.2806e+02	-11.2762	-31.560309	0.000213	2.128276	0.721079	-0.000085
1289	1.2816e+02	-11.3114	-31.665274	0.000264	2.635009	0.892765	-0.000105
1290	1.2826e+02	-11.3596	-31.782351	0.000294	2.939048	0.995776	-0.000118
1291	1.2835e+02	-11.3836	-31.883279	0.000253	2.533662	0.858428	-0.000101
1292	1.2845e+02	-11.4318	-31.964022	0.000203	2.026930	0.686742	-0.000081
1293	1.2855e+02	-11.4767	-32.129545	0.000416	4.155206	1.407822	-0.000166
1294	1.2865e+02	-11.5072	-32.165879	0.000091	0.912118	0.309034	-0.000037
1295	1.2875e+02	-11.5553	-32.319290	0.000385	3.851166	1.304810	-0.000154
1296	1.2885e+02	-11.5794	-32.412144	0.000233	2.330969	0.789754	-0.000093
1297	1.2895e+02	-11.6211	-32.496924	0.000213	2.128276	0.721079	-0.000085
1298	1.2905e+02	-11.6660	-32.577667	0.000203	2.026930	0.686742	-0.000081
1299	1.2915e+02	-11.7077	-32.743189	0.000416	4.155206	1.407822	-0.000166
1300	1.2925e+02	-11.7558	-32.836044	0.000233	2.330969	0.789754	-0.000093
1301	1.2935e+02	-11.7783	-32.916786	0.000203	2.026930	0.686742	-0.000081
1302	1.2945e+02	-11.8312	-33.021752	0.000264	2.635009	0.892765	-0.000105
1303	1.2955e+02	-11.8761	-33.106532	0.000213	2.128276	0.721079	-0.000085
1304	1.2965e+02	-11.9082	-33.255906	0.000375	3.749820	1.270473	-0.000150
1305	1.2975e+02	-11.9483	-33.320500	0.000162	1.621544	0.549394	-0.000065
1306	1.2985e+02	-11.9804	-33.405280	0.000213	2.128276	0.721079	-0.000085
1307	1.2995e+02	-12.0221	-33.546579	0.000355	3.547127	1.201799	-0.000142
1308	1.3005e+02	-12.0670	-33.627322	0.000203	2.026930	0.686742	-0.000081
1309	1.3015e+02	-12.1023	-33.724213	0.000243	2.432316	0.824091	-0.000097
1310	1.3025e+02	-12.1456	-33.861476	0.000345	3.445780	1.167462	-0.000138
1311	1.3034e+02	-12.1793	-33.962404	0.000253	2.533662	0.858428	-0.000101
1312	1.3044e+02	-12.2307	-34.059296	0.000243	2.432316	0.824091	-0.000097
1313	1.3054e+02	-12.2628	-34.123890	0.000162	1.621544	0.549394	-0.000065
1314	1.3064e+02	-12.3077	-34.232892	0.000274	2.736355	0.927102	-0.000110
1315	1.3074e+02	-12.3382	-34.325747	0.000233	2.330969	0.789754	-0.000093
1316	1.3084e+02	-12.3863	-34.467046	0.000355	3.547127	1.201799	-0.000142
1317	1.3094e+02	-12.4264	-34.580086	0.000284	2.837702	0.961439	-0.000114
1318	1.3104e+02	-12.4633	-34.652755	0.000182	1.824237	0.618068	-0.000073
1319	1.3114e+02	-12.5066	-34.737534	0.000213	2.128276	0.721079	-0.000085
1320	1.3124e+02	-12.5435	-34.846537	0.000274	2.736355	0.927102	-0.000110
1321	1.3134e+02	-12.5852	-34.963614	0.000294	2.939048	0.995776	-0.000118
1322	1.3144e+02	-12.6205	-35.032245	0.000172	1.722890	0.583731	-0.000069
1323	1.3154e+02	-12.6494	-35.185657	0.000385	3.851166	1.304810	-0.000154
1324	1.3164e+02	-12.7135	-35.250251	0.000162	1.621544	0.549394	-0.000065
1325	1.3174e+02	-12.7392	-35.379439	0.000324	3.243087	1.098788	-0.000130
1326	1.3184e+02	-12.7873	-35.460182	0.000203	2.026930	0.686742	-0.000081
1327	1.3194e+02	-12.8194	-35.601482	0.000355	3.547127	1.201799	-0.000142
1328	1.3204e+02	-12.8579	-35.674150	0.000182	1.824237	0.618068	-0.000073
1329	1.3214e+02	-12.9093	-35.795264	0.000304	3.040395	1.030114	-0.000122
1330	1.3224e+02	-12.9381	-35.892155	0.000243	2.432316	0.824091	-0.000097
1331	1.3234e+02	-12.9847	-36.017306	0.000314	3.141741	1.064451	-0.000126
1332	1.3243e+02	-13.0216	-36.098049	0.000203	2.026930	0.686742	-0.000081
1333	1.3253e+02	-13.0601	-36.170718	0.000182	1.824237	0.618068	-0.000073
1334	1.3263e+02	-13.0970	-36.307980	0.000345	3.445780	1.167462	-0.000138
1335	1.3273e+02	-13.1419	-36.364500	0.000142	1.418851	0.480720	-0.000057
1336	1.3283e+02	-13.1756	-36.501763	0.000345	3.445780	1.167462	-0.000138
1337	1.3293e+02	-13.2157	-36.574431	0.000182	1.824237	0.618068	-0.000073
1338	1.3303e+02	-13.2606	-36.691508	0.000294	2.939048	0.995776	-0.000118
1339	1.3313e+02	-13.3055	-36.800511	0.000274	2.736355	0.927102	-0.000110
1340	1.3323e+02	-13.3376	-36.857031	0.000142	1.418851	0.480720	-0.000057
1341	1.3333e+02	-13.3809	-36.974108	0.000294	2.939048	0.995776	-0.000118
1342	1.3343e+02	-13.4210	-37.083110	0.000274	2.736355	0.927102	-0.000110
1343	1.3353e+02	-13.4563	-37.200187	0.000294	2.939048	0.995776	-0.000118
1344	1.3363e+02	-13.5060	-37.333413	0.000334	3.344434	1.133125	-0.000134
1345	1.3373e+02	-13.5461	-37.389933	0.000142	1.418851	0.480720	-0.000057
1346	1.3383e+02	-13.5702	-37.511047	0.000304	3.040395	1.030114	-0.000122
1347	1.3393e+02	-13.6199	-37.603901	0.000233	2.330969	0.789754	-0.000093
1348	1.3403e+02	-13.6633	-37.708866	0.000264	2.635009	0.892765	-0.000105
1349	1.3413e+02	-13.6921	-37.797683	0.000223	2.229623	0.755417	-0.000089
1350	1.3423e+02	-13.7370	-37.910723	0.000284	2.837702	0.961439	-0.000114
1351	1.3432e+02	-13.7836	-38.003577	0.000233	2.330969	0.789754	-0.000093
1352	1.3442e+02	-13.8140	-38.144877	0.000355	3.547127	1.201799	-0.000142
1353	1.3452e+02	-13.8606	-38.185248	0.000101	1.013465	0.343371	-0.000041
1354	1.3462e+02	-13.8959	-38.334622	0.000375	3.749820	1.270473	-0.000150
1355	1.3472e+02	-13.9344	-38.395179	0.000152	1.520197	0.515057	-0.000061
1356	1.3482e+02	-13.9777	-38.544553	0.000375	3.749820	1.270473	-0.000150
1357	1.3492e+02	-14.0162	-38.605110	0.000152	1.520197	0.515057	-0.000061
1358	1.3502e+02	-14.0483	-38.710076	0.000264	2.635009	0.892765	-0.000105
1359	1.3512e+02	-14.0932	-38.815042	0.000264	2.635009	0.892765	-0.000105
1360	1.3522e+02	-14.1365	-38.920007	0.000264	2.635009	0.892765	-0.000105
1361	1.3532e+02	-14.1718	-38.992676	0.000182	1.824237	0.618068	-0.000073
1362	1.3542e+02	-14.2087	-39.097641	0.000264	2.635009	0.892765	-0.000105
1363	1.3552e+02	-14.2616	-39.222792	0.000314	3.141741	1.064451	-0.000126
1364	1.3562e+02	-14.2985	-39.327758	0.000264	2.635009	0.892765	-0.000105
1365	1.3572e+02	-14.3386	-39.440798	0.000284	2.837702	0.961439	-0.000114
1366	1.3582e+02	-14.3819	-39.505392	0.000162	1.621544	0.549394	-0.000065
1367	1.3592e+02	-14.4140	-39.606320	0.000253	2.533662	0.858428	-0.000101
1368	1.3602e+02	-14.4557	-39.759731	0.000385	3.851166	1.304810	-0.000154
1369	1.3612e+02	-14.4926	-39.832400	0.000182	1.824237	0.618068	-0.000073
1370	1.3622e+02	-14.5376	-39.917180	0.000213	2.128276	0.721079	-0.000085
1371	1.3631e+02	-14.5745	-40.042331	0.000314	3.141741	1.064451	-0.000126
1372	1.3641e+02	-14.6130	-40.143259	0.000253	2.533662	0.858428	-0.000101
1373	1.3651e+02	-14.6434	-40.207853	0.000162	1.621544	0.549394	-0.000065
1374	1.3661e+02	-14.6996	-40.345116	0.000345	3.445780	1.167462	-0.000138
1375	1.3671e+02	-14.7381	-40.421822	0.000193	1.925583	0.652405	-0.000077
1376	1.3681e+02	-14.7734	-40.530824	0.000274	2.736355	0.927102	-0.000110
1377	1.3691e+02	-14.8039	-40.631753	0.000253	2.533662	0.858428	-0.000101
1378	1.3701e+02	-14.8536	-40.716532	0.000213	2.128276	0.721079	-0.000085
1379	1.3711e+02	-14.8985	-40.829572	0.000284	2.837702	0.961439	-0.000114
1380	1.3721e+02	-14.9306	-40.906278	0.000193	1.925583	0.652405	-0.000077
1381	1.3731e+02	-14.9723	-41.011243	0.000264	2.635009	0.892765	-0.000105
1382	1.3741e+02	-15.0156	-41.140432	0.000324	3.243087	1.098788	-0.000130
1383	1.3751e+02	-15.0557	-41.237323	0.000243	2.432316	0.824091	-0.000097
1384	1.3761e+02	-15.0862	-41.326140	0.000223	2.229623	0.755417	-0.000089
1385	1.3771e+02	-15.1391	-41.487625	0.000405	4.053859	1.373485	-0.000162
1386	1.3781e+02	-15.1728	-41.532034	0.000111	1.114811	0.377708	-0.000045
1387	1.3791e+02	-15.2226	-41.645074	0.000284	2.837702	0.961439	-0.000114
1388	1.3801e+02	-15.2546	-41.721779	0.000193	1.925583	0.652405	-0.000077
1389	1.3811e+02	-15.2964	-41.830782	0.000274	2.736355	0.927102	-0.000110
1390	1.3821e+02	-15.3381	-41.927673	0.000243	2.432316	0.824091	-0.000097
1391	1.3831e+02	-15.3862	-42.012453	0.000213	2.128276	0.721079	-0.000085
1392	1.3840e+02	-15.4215	-42.089159	0.000193	1.925583	0.652405	-0.000077
1393	1.3850e+02	-15.4536	-42.238533	0.000375	3.749820	1.270473	-0.000150
1394	1.3860e+02	-15.4921	-42.347535	0.000274	2.736355	0.927102	-0.000110
1395	1.3870e+02	-15.5354	-42.444427	0.000243	2.432316	0.824091	-0.000097
1396	1.3880e+02	-15.5771	-42.529206	0.000213	2.128276	0.721079	-0.000085
1397	1.3890e+02	-15.6140	-42.581689	0.000132	1.317504	0.446383	-0.000053
1398	1.3900e+02	-15.6525	-42.731063	0.000375	3.749820	1.270473	-0.000150
1399	1.3910e+02	-15.6974	-42.779509	0.000122	1.216158	0.412045	-0.000049
1400	1.3920e+02	-15.7327	-42.888512	0.000274	2.736355	0.927102	-0.000110
1401	1.3930e+02	-15.7696	-43.021737	0.000334	3.344434	1.133125	-0.000134
1402	1.3940e+02	-15.8129	-43.106517	0.000213	2.128276	0.721079	-0.000085
1403	1.3950e+02	-15.8482	-43.219557	0.000284	2.837702	0.961439	-0.000114
1404	1.3960e+02	-15.8899	-43.288188	0.000172	1.722890	0.583731	-0.000069
1405	1.3970e+02	-15.9316	-43.433525	0.000365	3.648473	1.236136	-0.000146
1406	1.3980e+02	-15.9669	-43.550602	0.000294	2.939048	0.995776	-0.000118
1407	1.3990e+02	-16.0151	-43.611159	0.000152	1.520197	0.515057	-0.000061
1408	1.4000e+02	-16.0503	-43.712087	0.000253	2.533662	0.858428	-0.000101
1409	1.4010e+02	-16.0905	-43.800904	0.000223	2.229623	0.755417	-0.000089
1410	1.4020e+02	-16.1257	-43.930093	0.000324	3.243087	1.098788	-0.000130
1411	1.4029e+02	-16.1642	-43.986612	0.000142	1.418851	0.480720	-0.000057
1412	1.4039e+02	-16.2028	-44.111764	0.000314	3.141741	1.064451	-0.000126
1413	1.4049e+02	-16.2525	-44.232878	0.000304	3.040395	1.030114	-0.000122
1414	1.4059e+02	-16.2974	-44.289398	0.000142	1.418851	0.480720	-0.000057
1415	1.4069e+02	-16.3311	-44.418586	0.000324	3.243087	1.098788	-0.000130
1416	1.4079e+02	-16.3680	-44.487217	0.000172	1.722890	0.583731	-0.000069
1417	1.4089e+02	-16.4129	-44.608331	0.000304	3.040395	1.030114	-0.000122
1418	1.4099e+02	-16.4370	-44.741557	0.000334	3.344434	1.133125	-0.000134
1419	1.4109e+02	-16.4835	-44.818262	0.000193	1.925583	0.652405	-0.000077
1420	1.4119e+02	-16.5236	-44.882857	0.000162	1.621544	0.549394	-0.000065
1421	1.4129e+02	-16.5701	-44.991859	0.000274	2.736355	0.927102	-0.000110
1422	1.4139e+02	-16.6102	-45.064528	0.000182	1.824237	0.618068	-0.000073
1423	1.4149e+02	-16.6407	-45.197753	0.000334	3.344434	1.133125	-0.000134
1424	1.4159e+02	-16.6888	-45.278496	0.000203	2.026930	0.686742	-0.000081
1425	1.4169e+02	-16.7305	-45.363276	0.000213	2.128276	0.721079	-0.000085
1426	1.4179e+02	-16.7578	-45.480353	0.000294	2.939048	0.995776	-0.000118
1427	1.4189e+02	-16.8059	-45.585318	0.000264	2.635009	0.892765	-0.000105
1428	1.4199e+02	-16.8396	-45.694321	0.000274	2.736355	0.927102	-0.000110
1429	1.4209e+02	-16.8813	-45.746804	0.000132	1.317504	0.446383	-0.000053
1430	1.4219e+02	-16.9295	-45.928475	0.000456	4.560592	1.545170	-0.000183
1431	1.4228e+02	-16.9680	-45.968846	0.000101	1.013465	0.343371	-0.000041
1432	1.4238e+02	-17.0017	-46.089960	0.000304	3.040395	1.030114	-0.000122
1433	1.4248e+02	-17.0450	-46.203000	0.000284	2.837702	0.961439	-0.000114
1434	1.4258e+02	-17.0819	-46.271631	0.000172	1.722890	0.583731	-0.000069
1435	1.4268e+02	-17.1204	-46.320077	0.000122	1.216158	0.412045	-0.000049
1436	1.4278e+02	-17.1637	-46.473488	0.000385	3.851166	1.304810	-0.000154
1437	1.4288e+02	-17.2054	-46.550194	0.000193	1.925583	0.652405	-0.000077
1438	1.4298e+02	-17.2423	-46.671308	0.000304	3.040395	1.030114	-0.000122
1439	1.4308e+02	-17.2888	-46.756088	0.000213	2.128276	0.721079	-0.000085
1440	1.4318e+02	-17.3209	-46.885276	0.000324	3.243087	1.098788	-0.000130
1441	1.4328e+02	-17.3658	-46.961981	0.000193	1.925583	0.652405	-0.000077
1442	1.4338e+02	-17.4027	-47.054836	0.000233	2.330969	0.789754	-0.000093
1443	1.4348e+02	-17.4508	-47.200172	0.000365	3.648473	1.236136	-0.000146
1444	1.4358e+02	-17.4813	-47.260730	0.000152	1.520197	0.515057	-0.000061
1445	1.4368e+02	-17.5182	-47.357621	0.000243	2.432316	0.824091	-0.000097
1446	1.4378e+02	-17.5583	-47.470661	0.000284	2.837702	0.961439	-0.000114
1447	1.4388e+02	-17.6000	-47.527180	0.000142	1.418851	0.480720	-0.000057
1448	1.4398e+02	-17.6498	-47.652332	0.000314	3.141741	1.064451	-0.000126
1449	1.4408e+02	-17.6802	-47.777483	0.000314	3.141741	1.064451	-0.000126
1450	1.4418e+02	-17.7204	-47.862263	0.000213	2.128276	0.721079	-0.000085
1451	1.4428e+02	-17.7637	-47.922820	0.000152	1.520197	0.515057	-0.000061
1452	1.4437e+02	-17.8006	-48.047971	0.000314	3.141741	1.064451	-0.000126
1453	1.4447e+02	-17.8455	-48.169085	0.000304	3.040395	1.030114	-0.000122
1454	1.4457e+02	-17.8792	-48.270013	0.000253	2.533662	0.858428	-0.000101
1455	1.4467e+02	-17.9257	-48.342682	0.000182	1.824237	0.618068	-0.000073
1456	1.4477e+02	-17.9578	-48.479945	0.000345	3.445780	1.167462	-0.000138
1457	1.4487e+02	-18.0027	-48.588947	0.000274	2.736355	0.927102	-0.000110
1458	1.4497e+02	-18.0300	-48.657578	0.000172	1.722890	0.583731	-0.000069
1459	1.4507e+02	-18.0781	-48.762544	0.000264	2.635009	0.892765	-0.000105
1460	1.4517e+02	-18.1294	-48.871547	0.000274	2.736355	0.927102	-0.000110
1461	1.4527e+02	-18.1583	-48.964401	0.000233	2.330969	0.789754	-0.000093
1462	1.4537e+02	-18.2048	-49.077441	0.000284	2.837702	0.961439	-0.000114
1463	1.4547e+02	-18.2401	-49.162220	0.000213	2.128276	0.721079	-0.000085
1464	1.4557e+02	-18.2722	-49.234889	0.000182	1.824237	0.618068	-0.000073
1465	1.4567e+02	-18.3219	-49.347929	0.000284	2.837702	0.961439	-0.000114
1466	1.4577e+02	-18.3540	-49.485191	0.000345	3.445780	1.167462	-0.000138
1467	1.4587e+02	-18.4054	-49.557860	0.000182	1.824237	0.618068	-0.000073
1468	1.4597e+02	-18.4423	-49.654751	0.000243	2.432316	0.824091	-0.000097
1469	1.4607e+02	-18.4888	-49.775865	0.000304	3.040395	1.030114	-0.000122
1470	1.4617e+02	-18.5209	-49.876793	0.000253	2.533662	0.858428	-0.000101
1471	1.4626e+02	-18.5562	-49.997908	0.000304	3.040395	1.030114	-0.000122
1472	1.4636e+02	-18.6011	-50.074613	0.000193	1.925583	0.652405	-0.000077
1473	1.4646e+02	-18.6380	-50.203801	0.000324	3.243087	1.098788	-0.000130
1474	1.4656e+02	-18.6861	-50.304730	0.000253	2.533662	0.858428	-0.000101
1475	1.4666e+02	-18.7246	-50.405658	0.000253	2.533662	0.858428	-0.000101
1476	1.4676e+02	-18.7599	-50.514661	0.000274	2.736355	0.927102	-0.000110
1477	1.4686e+02	-18.7952	-50.643849	0.000324	3.243087	1.098788	-0.000130
1478	1.4696e+02	-18.8433	-50.740741	0.000243	2.432316	0.824091	-0.000097
1479	1.4706e+02	-18.8818	-50.841669	0.000253	2.533662	0.858428	-0.000101
1480	1.4716e+02	-18.9171	-50.954709	0.000284	2.837702	0.961439	-0.000114
1481	1.4726e+02	-18.9476	-51.015266	0.000152	1.520197	0.515057	-0.000061
1482	1.4736e+02	-18.9973	-51.196937	0.000456	4.560592	1.545170	-0.000183
1483	1.4746e+02	-19.0358	-51.289791	0.000233	2.330969	0.789754	-0.000093
1484	1.4756e+02	-19.0856	-51.370534	0.000203	2.026930	0.686742	-0.000081
1485	1.4766e+02	-19.1192	-51.503759	0.000334	3.344434	1.133125	-0.000134
1486	1.4776e+02	-19.1545	-51.596613	0.000233	2.330969	0.789754	-0.000093
1487	1.4786e+02	-19.2011	-51.705616	0.000274	2.736355	0.927102	-0.000110
1488	1.4796e+02	-19.2412	-51.810581	0.000264	2.635009	0.892765	-0.000105
1489	1.4806e+02	-19.2749	-51.903436	0.000233	2.330969	0.789754	-0.000093
1490	1.4816e+02	-19.3278	-52.008401	0.000264	2.635009	0.892765	-0.000105
1491	1.4825e+02	-19.3583	-52.145664	0.000345	3.445780	1.167462	-0.000138
1492	1.4835e+02	-19.3952	-52.270815	0.000314	3.141741	1.064451	-0.000126
1493	1.4845e+02	-19.4465	-52.363669	0.000233	2.330969	0.789754	-0.000093
1494	1.4855e+02	-19.4658	-52.488820	0.000314	3.141741	1.064451	-0.000126
1495	1.4865e+02	-19.5187	-52.601860	0.000284	2.837702	0.961439	-0.000114
1496	1.4875e+02	-19.5572	-52.714900	0.000284	2.837702	0.961439	-0.000114
1497	1.4885e+02	-19.5989	-52.852163	0.000345	3.445780	1.167462	-0.000138
1498	1.4895e+02	-19.6278	-52.961165	0.000274	2.736355	0.927102	-0.000110
1499	1.4905e+02	-19.6695	-53.058056	0.000243	2.432316	0.824091	-0.000097
1500	1.4915e+02	-19.7112	-53.199356	0.000355	3.547127	1.201799	-0.000142
1501	1.4925e+02	-19.7497	-53.328545	0.000324	3.243087	1.098788	-0.000130
1502	1.4935e+02	-19.7946	-53.429473	0.000253	2.533662	0.858428	-0.000101
1503	1.4945e+02	-19.8331	-53.538476	0.000274	2.736355	0.927102	-0.000110
1504	1.4955e+02	-19.8732	-53.655553	0.000294	2.939048	0.995776	-0.000118
1505	1.4965e+02	-19.9198	-53.817038	0.000405	4.053859	1.373485	-0.000162
1506	1.4975e+02	-19.9454	-53.942189	0.000314	3.141741	1.064451	-0.000126
1507	1.4985e+02	-19.9984	-54.031006	0.000223	2.229623	0.755417	-0.000089
1508	1.4995e+02	-19.9502	-53.966412	0.000162	1.621544	0.549394	0.000065
1509	1.5005e+02	-19.9101	-53.958338	0.000020	0.202693	0.068674	0.000008
1510	1.5015e+02	-19.8732	-53.893744	0.000162	1.621544	0.549394	0.000065
1511	1.5025e+02	-19.8315	-53.873558	0.000051	0.506732	0.171686	0.000020
1512	1.5034e+02	-19.7834	-53.821075	0.000132	1.317504	0.446383	0.000053
1513	1.5044e+02	-19.7609	-53.776667	0.000111	1.114811	0.377708	0.000045
1514	1.5054e+02	-19.7176	-53.712072	0.000162	1.621544	0.549394	0.000065
1515	1.5064e+02	-19.6743	-53.635367	0.000193	1.925583	0.652405	0.000077
1516	1.5074e+02	-19.6294	-53.611144	0.000061	0.608079	0.206023	0.000024
1517	1.5084e+02	-19.5989	-53.570773	0.000101	1.013465	0.343371	0.000041
1518	1.5094e+02	-19.5620	-53.481956	0.000223	2.229623	0.755417	0.000089
1519	1.5104e+02	-19.5155	-53.417362	0.000162	1.621544	0.549394	0.000065
1520	1.5114e+02	-19.4658	-53.344693	0.000182	1.824237	0.618068	0.000073
1521	1.5124e+02	-19.4337	-53.296247	0.000122	1.216158	0.412045	0.000049
1522	1.5134e+02	-19.3888	-53.179171	0.000294	2.939048	0.995776	0.000118
1523	1.5144e+02	-19.3631	-53.130725	0.000122	1.216158	0.412045	0.000049
1524	1.5154e+02	-19.3150	-53.106502	0.000061	0.608079	0.206023	0.000024
1525	1.5164e+02	-19.2797	-53.033834	0.000182	1.824237	0.618068	0.000073
1526	1.5174e+02	-19.2331	-52.936942	0.000243	2.432316	0.824091	0.000097
1527	1.5184e+02	-19.1995	-52.872348	0.000162	1.621544	0.549394	0.000065
1528	1.5194e+02	-19.1481	-52.823903	0.000122	1.216158	0.412045	0.000049
1529	1.5204e+02	-19.1096	-52.755271	0.000172	1.722890	0.583731	0.000069
1530	1.5214e+02	-19.0791	-52.666454	0.000223	2.229623	0.755417	0.000089
1531	1.5224e+02	-19.0358	-52.618009	0.000122	1.216158	0.412045	0.000049
1532	1.5233e+02	-18.9941	-52.545340	0.000182	1.824237	0.618068	0.000073
1533	1.5243e+02	-18.9588	-52.448449	0.000243	2.432316	0.824091	0.000097
1534	1.5253e+02	-18.9123	-52.428263	0.000051	0.506732	0.171686	0.000020
1535	1.5263e+02	-18.8802	-52.299075	0.000324	3.243087	1.098788	0.000130
1536	1.5273e+02	-18.8449	-52.186035	0.000284	2.837702	0.961439	0.000114
1537	1.5283e+02	-18.7952	-52.149701	0.000091	0.912118	0.309034	0.000037
1538	1.5293e+02	-18.7519	-52.105292	0.000111	1.114811	0.377708	0.000045
1539	1.5303e+02	-18.7102	-52.016475	0.000223	2.229623	0.755417	0.000089
1540	1.5313e+02	-18.6749	-51.976104	0.000101	1.013465	0.343371	0.000041
1541	1.5323e+02	-18.6364	-51.871139	0.000264	2.635009	0.892765	0.000105
1542	1.5333e+02	-18.5947	-51.790396	0.000203	2.026930	0.686742	0.000081
1543	1.5343e+02	-18.5674	-51.713690	0.000193	1.925583	0.652405	0.000077
1544	1.5353e+02	-18.5177	-51.612762	0.000253	2.533662	0.858428	0.000101
1545	1.5363e+02	-18.4856	-51.560279	0.000132	1.317504	0.446383	0.000053
1546	1.5373e+02	-18.4391	-51.483573	0.000193	1.925583	0.652405	0.000077
1547	1.5383e+02	-18.4006	-51.406868	0.000193	1.925583	0.652405	0.000077
1548	1.5393e+02	-18.3588	-51.293828	0.000284	2.837702	0.961439	0.000114
1549	1.5403e+02	-18.3203	-51.245382	0.000122	1.216158	0.412045	0.000049
1550	1.5413e+02	-18.2915	-51.184825	0.000152	1.520197	0.515057	0.000061
1551	1.5422e+02	-18.2385	-51.071786	0.000284	2.837702	0.961439	0.000114
1552	1.5432e+02	-18.2096	-51.007191	0.000162	1.621544	0.549394	0.000065
1553	1.5442e+02	-18.1615	-50.894152	0.000284	2.837702	0.961439	0.000114
1554	1.5452e+02	-18.1278	-50.878003	0.000041	0.405386	0.137348	0.000016
1555	1.5462e+02	-18.0845	-50.777075	0.000253	2.533662	0.858428	0.000101
1556	1.5472e+02	-18.0428	-50.672109	0.000264	2.635009	0.892765	0.000105
1557	1.5482e+02	-18.0059	-50.607515	0.000162	1.621544	0.549394	0.000065
1558	1.5492e+02	-17.9626	-50.550995	0.000142	1.418851	0.480720	0.000057
1559	1.5502e+02	-17.9209	-50.478327	0.000182	1.824237	0.618068	0.000073
1560	1.5512e+02	-17.8760	-50.381435	0.000243	2.432316	0.824091	0.000097
1561	1.5522e+02	-17.8439	-50.276470	0.000264	2.635009	0.892765	0.000105
1562	1.5532e+02	-17.8054	-50.163430	0.000284	2.837702	0.961439	0.000114
1563	1.5542e+02	-17.7540	-50.131133	0.000081	0.810772	0.274697	0.000032
1564	1.5552e+02	-17.7284	-50.054427	0.000193	1.925583	0.652405	0.000077
1565	1.5562e+02	-17.6802	-49.985796	0.000172	1.722890	0.583731	0.000069
1566	1.5572e+02	-17.6466	-49.876793	0.000274	2.736355	0.927102	0.000110
1567	1.5582e+02	-17.6049	-49.836422	0.000101	1.013465	0.343371	0.000041
1568	1.5592e+02	-17.5599	-49.723382	0.000284	2.837702	0.961439	0.000114
1569	1.5602e+02	-17.5295	-49.662825	0.000152	1.520197	0.515057	0.000061
1570	1.5612e+02	-17.4893	-49.509414	0.000385	3.851166	1.304810	0.000154
1571	1.5622e+02	-17.4364	-49.481154	0.000071	0.709425	0.240360	0.000028
1572	1.5631e+02	-17.3963	-49.368114	0.000284	2.837702	0.961439	0.000114
1573	1.5641e+02	-17.3642	-49.327743	0.000101	1.013465	0.343371	0.000041
1574	1.5651e+02	-17.3193	-49.238926	0.000223	2.229623	0.755417	0.000089
1575	1.5661e+02	-17.2792	-49.129923	0.000274	2.736355	0.927102	0.000110
1576	1.5671e+02	-17.2407	-49.077441	0.000132	1.317504	0.446383	0.000053
1577	1.5681e+02	-17.2038	-48.980549	0.000243	2.432316	0.824091	0.000097
1578	1.5691e+02	-17.1621	-48.907881	0.000182	1.824237	0.618068	0.000073
1579	1.5701e+02	-17.1268	-48.810990	0.000243	2.432316	0.824091	0.000097
1580	1.5711e+02	-17.0835	-48.770618	0.000101	1.013465	0.343371	0.000041
1581	1.5721e+02	-17.0482	-48.633356	0.000345	3.445780	1.167462	0.000138
1582	1.5731e+02	-17.0033	-48.540502	0.000233	2.330969	0.789754	0.000093
1583	1.5741e+02	-16.9680	-48.479945	0.000152	1.520197	0.515057	0.000061
1584	1.5751e+02	-16.9295	-48.395165	0.000213	2.128276	0.721079	0.000085
1585	1.5761e+02	-16.8813	-48.310385	0.000213	2.128276	0.721079	0.000085
1586	1.5771e+02	-16.8493	-48.213494	0.000243	2.432316	0.824091	0.000097
1587	1.5781e+02	-16.8075	-48.132751	0.000203	2.026930	0.686742	0.000081
1588	1.5791e+02	-16.7690	-48.072194	0.000152	1.520197	0.515057	0.000061
1589	1.5801e+02	-16.7241	-47.967228	0.000264	2.635009	0.892765	0.000105
1590	1.5811e+02	-16.6872	-47.894560	0.000182	1.824237	0.618068	0.000073
1591	1.5821e+02	-16.6551	-47.813817	0.000203	2.026930	0.686742	0.000081
1592	1.5830e+02	-16.6054	-47.712889	0.000253	2.533662	0.858428	0.000101
1593	1.5840e+02	-16.5701	-47.579663	0.000334	3.344434	1.133125	0.000134
1594	1.5850e+02	-16.5300	-47.519106	0.000152	1.520197	0.515057	0.000061
1595	1.5860e+02	-16.4947	-47.434326	0.000213	2.128276	0.721079	0.000085
1596	1.5870e+02	-16.4434	-47.329361	0.000264	2.635009	0.892765	0.000105
1597	1.5880e+02	-16.4065	-47.268804	0.000152	1.520197	0.515057	0.000061
1598	1.5890e+02	-16.3648	-47.232470	0.000091	0.912118	0.309034	0.000037
1599	1.5900e+02	-16.3199	-47.087133	0.000365	3.648473	1.236136	0.000146
1600	1.5910e+02	-16.2894	-47.058873	0.000071	0.709425	0.240360	0.000028
1601	1.5920e+02	-16.2525	-46.917573	0.000355	3.547127	1.201799	0.000142
1602	1.5930e+02	-16.2076	-46.844905	0.000182	1.824237	0.618068	0.000073
1603	1.5940e+02	-16.1578	-46.804533	0.000101	1.013465	0.343371	0.000041
1604	1.5950e+02	-16.1338	-46.699568	0.000264	2.635009	0.892765	0.000105
1605	1.5960e+02	-16.0905	-46.578454	0.000304	3.040395	1.030114	0.000122
1606	1.5970e+02	-16.0423	-46.530008	0.000122	1.216158	0.412045	0.000049
1607	1.5980e+02	-16.0070	-46.421005	0.000274	2.736355	0.927102	0.000110
1608	1.5990e+02	-15.9637	-46.320077	0.000253	2.533662	0.858428	0.000101
1609	1.6000e+02	-15.9300	-46.231260	0.000223	2.229623	0.755417	0.000089
1610	1.6010e+02	-15.8835	-46.150517	0.000203	2.026930	0.686742	0.000081
1611	1.6019e+02	-15.8466	-46.049589	0.000253	2.533662	0.858428	0.000101
1612	1.6029e+02	-15.8049	-45.968846	0.000203	2.026930	0.686742	0.000081
1613	1.6039e+02	-15.7616	-45.880029	0.000223	2.229623	0.755417	0.000089
1614	1.6049e+02	-15.7375	-45.815435	0.000162	1.621544	0.549394	0.000065
1615	1.6059e+02	-15.6910	-45.706432	0.000274	2.736355	0.927102	0.000110
1616	1.6069e+02	-15.6493	-45.633764	0.000182	1.824237	0.618068	0.000073
1617	1.6079e+02	-15.6044	-45.508613	0.000314	3.141741	1.064451	0.000126
1618	1.6089e+02	-15.5659	-45.460167	0.000122	1.216158	0.412045	0.000049
1619	1.6099e+02	-15.5354	-45.347127	0.000284	2.837702	0.961439	0.000114
1620	1.6109e+02	-15.4937	-45.274459	0.000182	1.824237	0.618068	0.000073
1621	1.6119e+02	-15.4488	-45.185642	0.000223	2.229623	0.755417	0.000089
1622	1.6129e+02	-15.4038	-45.056453	0.000324	3.243087	1.098788	0.000130
1623	1.6139e+02	-15.3750	-45.028193	0.000071	0.709425	0.240360	0.000028
1624	1.6149e+02	-15.3317	-44.894968	0.000334	3.344434	1.133125	0.000134
1625	1.6159e+02	-15.2996	-44.846522	0.000122	1.216158	0.412045	0.000049
1626	1.6169e+02	-15.2482	-44.753668	0.000233	2.330969	0.789754	0.000093
1627	1.6179e+02	-15.2065	-44.676963	0.000193	1.925583	0.652405	0.000077
1628	1.6189e+02	-15.1760	-44.535663	0.000355	3.547127	1.201799	0.000142
1629	1.6199e+02	-15.1424	-44.471069	0.000162	1.621544	0.549394	0.000065
1630	1.6209e+02	-15.0990	-44.398400	0.000182	1.824237	0.618068	0.000073
1631	1.6219e+02	-15.0509	-44.277286	0.000304	3.040395	1.030114	0.000122
1632	1.6228e+02	-15.0108	-44.212692	0.000162	1.621544	0.549394	0.000065
1633	1.6238e+02	-14.9771	-44.063318	0.000375	3.749820	1.270473	0.000150
1634	1.6248e+02	-14.9450	-44.026984	0.000091	0.912118	0.309034	0.000037
1635	1.6258e+02	-14.8969	-43.970464	0.000142	1.418851	0.480720	0.000057
1636	1.6268e+02	-14.8504	-43.845313	0.000314	3.141741	1.064451	0.000126
1637	1.6278e+02	-14.8135	-43.728236	0.000294	2.939048	0.995776	0.000118
1638	1.6288e+02	-14.7702	-43.651530	0.000193	1.925583	0.652405	0.000077
1639	1.6298e+02	-14.7253	-43.570787	0.000203	2.026930	0.686742	0.000081
1640	1.6308e+02	-14.6996	-43.522342	0.000122	1.216158	0.412045	0.000049
1641	1.6318e+02	-14.6611	-43.417376	0.000264	2.635009	0.892765	0.000105
1642	1.6328e+02	-14.6114	-43.308374	0.000274	2.736355	0.927102	0.000110
1643	1.6338e+02	-14.5745	-43.227631	0.000203	2.026930	0.686742	0.000081
1644	1.6348e+02	-14.5360	-43.150925	0.000193	1.925583	0.652405	0.000077
1645	1.6358e+02	-14.5007	-43.021737	0.000324	3.243087	1.098788	0.000130
1646	1.6368e+02	-14.4525	-42.973291	0.000122	1.216158	0.412045	0.000049
1647	1.6378e+02	-14.4092	-42.815843	0.000395	3.952513	1.339148	0.000158
1648	1.6388e+02	-14.3723	-42.751249	0.000162	1.621544	0.549394	0.000065
1649	1.6398e+02	-14.3434	-42.682618	0.000172	1.722890	0.583731	0.000069
1650	1.6408e+02	-14.2953	-42.581689	0.000253	2.533662	0.858428	0.000101
1651	1.6418e+02	-14.2536	-42.464612	0.000294	2.939048	0.995776	0.000118
1652	1.6427e+02	-14.2183	-42.379832	0.000213	2.128276	0.721079	0.000085
1653	1.6437e+02	-14.1846	-42.303127	0.000193	1.925583	0.652405	0.000077
1654	1.6447e+02	-14.1349	-42.186050	0.000294	2.939048	0.995776	0.000118
1655	1.6457e+02	-14.0996	-42.097233	0.000223	2.229623	0.755417	0.000089
1656	1.6467e+02	-14.0563	-41.988230	0.000274	2.736355	0.927102	0.000110
1657	1.6477e+02	-14.0162	-41.887302	0.000253	2.533662	0.858428	0.000101
1658	1.6487e+02	-13.9648	-41.879228	0.000020	0.202693	0.068674	0.000008
1659	1.6497e+02	-13.9279	-41.746002	0.000334	3.344434	1.133125	0.000134
1660	1.6507e+02	-13.8975	-41.665259	0.000203	2.026930	0.686742	0.000081
1661	1.6517e+02	-13.8686	-41.584517	0.000203	2.026930	0.686742	0.000081
1662	1.6527e+02	-13.8108	-41.479551	0.000264	2.635009	0.892765	0.000105
1663	1.6537e+02	-13.7836	-41.406883	0.000182	1.824237	0.618068	0.000073
1664	1.6547e+02	-13.7386	-41.305954	0.000253	2.533662	0.858428	0.000101
1665	1.6557e+02	-13.7034	-41.184840	0.000304	3.040395	1.030114	0.000122
1666	1.6567e+02	-13.6488	-41.047578	0.000345	3.445780	1.167462	0.000138
1667	1.6577e+02	-13.6135	-41.039503	0.000020	0.202693	0.068674	0.000008
1668	1.6587e+02	-13.5830	-40.857832	0.000456	4.560592	1.545170	0.000183
1669	1.6597e+02	-13.5365	-40.825535	0.000081	0.810772	0.274697	0.000032
1670	1.6607e+02	-13.5044	-40.708458	0.000294	2.939048	0.995776	0.000118
1671	1.6616e+02	-13.4595	-40.635790	0.000182	1.824237	0.618068	0.000073
1672	1.6626e+02	-13.4194	-40.551010	0.000213	2.128276	0.721079	0.000085
1673	1.6636e+02	-13.3873	-40.442007	0.000274	2.736355	0.927102	0.000110
1674	1.6646e+02	-13.3360	-40.377413	0.000162	1.621544	0.549394	0.000065
1675	1.6656e+02	-13.2959	-40.284559	0.000233	2.330969	0.789754	0.000093
1676	1.6666e+02	-13.2638	-40.179593	0.000264	2.635009	0.892765	0.000105
1677	1.6676e+02	-13.2093	-40.070591	0.000274	2.736355	0.927102	0.000110
1678	1.6686e+02	-13.1836	-39.969662	0.000253	2.533662	0.858428	0.000101
1679	1.6696e+02	-13.1322	-39.892957	0.000193	1.925583	0.652405	0.000077
1680	1.6706e+02	-13.0970	-39.775880	0.000294	2.939048	0.995776	0.000118
1681	1.6716e+02	-13.0569	-39.695137	0.000203	2.026930	0.686742	0.000081
1682	1.6726e+02	-13.0248	-39.622469	0.000182	1.824237	0.618068	0.000073
1683	1.6736e+02	-12.9831	-39.517503	0.000264	2.635009	0.892765	0.000105
1684	1.6746e+02	-12.9333	-39.408501	0.000274	2.736355	0.927102	0.000110
1685	1.6756e+02	-12.8980	-39.287386	0.000304	3.040395	1.030114	0.000122
1686	1.6766e+02	-12.8595	-39.255089	0.000081	0.810772	0.274697	0.000032
1687	1.6776e+02	-12.8242	-39.146087	0.000274	2.736355	0.927102	0.000110
1688	1.6786e+02	-12.7905	-39.069381	0.000193	1.925583	0.652405	0.000077
1689	1.6796e+02	-12.7392	-38.948267	0.000304	3.040395	1.030114	0.000122
1690	1.6806e+02	-12.7055	-38.863487	0.000213	2.128276	0.721079	0.000085
1691	1.6816e+02	-12.6574	-38.734299	0.000324	3.243087	1.098788	0.000130
1692	1.6825e+02	-12.6205	-38.689890	0.000111	1.114811	0.377708	0.000045
1693	1.6835e+02	-12.5964	-38.584925	0.000264	2.635009	0.892765	0.000105
1694	1.6845e+02	-12.5355	-38.483996	0.000253	2.533662	0.858428	0.000101
1695	1.6855e+02	-12.5002	-38.427477	0.000142	1.418851	0.480720	0.000057
1696	1.6865e+02	-12.4729	-38.261954	0.000416	4.155206	1.407822	0.000166
1697	1.6875e+02	-12.4248	-38.193323	0.000172	1.722890	0.583731	0.000069
1698	1.6885e+02	-12.3847	-38.120654	0.000182	1.824237	0.618068	0.000073
1699	1.6895e+02	-12.3398	-37.991466	0.000324	3.243087	1.098788	0.000130
1700	1.6905e+02	-12.3093	-37.918797	0.000182	1.824237	0.618068	0.000073
1701	1.6915e+02	-12.2692	-37.825943	0.000233	2.330969	0.789754	0.000093
1702	1.6925e+02	-12.2259	-37.769423	0.000142	1.418851	0.480720	0.000057
1703	1.6935e+02	-12.1874	-37.587752	0.000456	4.560592	1.545170	0.000183
1704	1.6945e+02	-12.1489	-37.531232	0.000142	1.418851	0.480720	0.000057
1705	1.6955e+02	-12.1087	-37.422230	0.000274	2.736355	0.927102	0.000110
1706	1.6965e+02	-12.0590	-37.337450	0.000213	2.128276	0.721079	0.000085
1707	1.6975e+02	-12.0189	-37.264781	0.000182	1.824237	0.618068	0.000073
1708	1.6985e+02	-11.9836	-37.139630	0.000314	3.141741	1.064451	0.000126
1709	1.6995e+02	-11.9451	-37.083110	0.000142	1.418851	0.480720	0.000057
1710	1.7005e+02	-11.9050	-36.978145	0.000264	2.635009	0.892765	0.000105
1711	1.7015e+02	-11.8649	-36.840882	0.000345	3.445780	1.167462	0.000138
1712	1.7024e+02	-11.8248	-36.743991	0.000243	2.432316	0.824091	0.000097
1713	1.7034e+02	-11.7863	-36.691508	0.000132	1.317504	0.446383	0.000053
1714	1.7044e+02	-11.7526	-36.598654	0.000233	2.330969	0.789754	0.000093
1715	1.7054e+02	-11.7109	-36.505800	0.000233	2.330969	0.789754	0.000093
1716	1.7064e+02	-11.6660	-36.392760	0.000284	2.837702	0.961439	0.000114
1717	1.7074e+02	-11.6259	-36.263572	0.000324	3.243087	1.098788	0.000130
1718	1.7084e+02	-11.5874	-36.182829	0.000203	2.026930	0.686742	0.000081
1719	1.7094e+02	-11.5521	-36.126309	0.000142	1.418851	0.480720	0.000057
1720	1.7104e+02	-11.5120	-36.013269	0.000284	2.837702	0.961439	0.000114
1721	1.7114e+02	-11.4655	-35.920415	0.000233	2.330969	0.789754	0.000093
1722	1.7124e+02	-11.4286	-35.815450	0.000264	2.635009	0.892765	0.000105
1723	1.7134e+02	-11.3852	-35.714521	0.000253	2.533662	0.858428	0.000101
1724	1.7144e+02	-11.3628	-35.609556	0.000264	2.635009	0.892765	0.000105
1725	1.7154e+02	-11.3098	-35.488442	0.000304	3.040395	1.030114	0.000122
1726	1.7164e+02	-11.2617	-35.431922	0.000142	1.418851	0.480720	0.000057
1727	1.7174e+02	-11.2280	-35.322919	0.000274	2.736355	0.927102	0.000110
1728	1.7184e+02	-11.1815	-35.209879	0.000284	2.837702	0.961439	0.000114
1729	1.7194e+02	-11.1558	-35.125099	0.000213	2.128276	0.721079	0.000085
1730	1.7204e+02	-11.1061	-35.052431	0.000182	1.824237	0.618068	0.000073
1731	1.7213e+02	-11.0708	-34.911131	0.000355	3.547127	1.201799	0.000142
1732	1.7223e+02	-11.0323	-34.854611	0.000142	1.418851	0.480720	0.000057
1733	1.7233e+02	-10.9970	-34.701200	0.000385	3.851166	1.304810	0.000154
1734	1.7243e+02	-10.9473	-34.652755	0.000122	1.216158	0.412045	0.000049
1735	1.7253e+02	-10.9056	-34.515492	0.000345	3.445780	1.167462	0.000138
1736	1.7263e+02	-10.8687	-34.450898	0.000162	1.621544	0.549394	0.000065
1737	1.7273e+02	-10.8286	-34.366118	0.000213	2.128276	0.721079	0.000085
1738	1.7283e+02	-10.7837	-34.277301	0.000223	2.229623	0.755417	0.000089
1739	1.7293e+02	-10.7500	-34.152150	0.000314	3.141741	1.064451	0.000126
1740	1.7303e+02	-10.7050	-34.043147	0.000274	2.736355	0.927102	0.000110
1741	1.7313e+02	-10.6665	-33.962404	0.000203	2.026930	0.686742	0.000081
1742	1.7323e+02	-10.6313	-33.893773	0.000172	1.722890	0.583731	0.000069
1743	1.7333e+02	-10.5927	-33.744399	0.000375	3.749820	1.270473	0.000150
1744	1.7343e+02	-10.5494	-33.699991	0.000111	1.114811	0.377708	0.000045
1745	1.7353e+02	-10.5029	-33.566765	0.000334	3.344434	1.133125	0.000134
1746	1.7363e+02	-10.4708	-33.453725	0.000284	2.837702	0.961439	0.000114
1747	1.7373e+02	-10.4259	-33.372983	0.000203	2.026930	0.686742	0.000081
1748	1.7383e+02	-10.3874	-33.276091	0.000243	2.432316	0.824091	0.000097
1749	1.7393e+02	-10.3601	-33.130754	0.000365	3.648473	1.236136	0.000146
1750	1.7403e+02	-10.3232	-33.082309	0.000122	1.216158	0.412045	0.000049
1751	1.7413e+02	-10.2719	-32.985418	0.000243	2.432316	0.824091	0.000097
1752	1.7422e+02	-10.2366	-32.876415	0.000274	2.736355	0.927102	0.000110
1753	1.7432e+02	-10.1885	-32.783561	0.000233	2.330969	0.789754	0.000093
1754	1.7442e+02	-10.1516	-32.662447	0.000304	3.040395	1.030114	0.000122
1755	1.7452e+02	-10.1195	-32.557481	0.000264	2.635009	0.892765	0.000105
1756	1.7462e+02	-10.0714	-32.456553	0.000253	2.533662	0.858428	0.000101
1757	1.7472e+02	-10.0297	-32.351587	0.000264	2.635009	0.892765	0.000105
1758	1.7482e+02	-10.0008	-32.278919	0.000182	1.824237	0.618068	0.000073
1759	1.7492e+02	-9.9591	-32.165879	0.000284	2.837702	0.961439	0.000114
1760	1.7502e+02	-9.9222	-32.056876	0.000274	2.736355	0.927102	0.000110
1761	1.7512e+02	-9.8741	-31.959985	0.000243	2.432316	0.824091	0.000097
1762	1.7522e+02	-9.8243	-31.830797	0.000324	3.243087	1.098788	0.000130
1763	1.7532e+02	-9.7954	-31.778314	0.000132	1.317504	0.446383	0.000053
1764	1.7542e+02	-9.7553	-31.681423	0.000243	2.432316	0.824091	0.000097
1765	1.7552e+02	-9.7152	-31.584531	0.000243	2.432316	0.824091	0.000097
1766	1.7562e+02	-9.6719	-31.487640	0.000243	2.432316	0.824091	0.000097
1767	1.7572e+02	-9.6430	-31.410935	0.000193	1.925583	0.652405	0.000077
1768	1.7582e+02	-9.5981	-31.289821	0.000304	3.040395	1.030114	0.000122
1769	1.7592e+02	-9.5580	-31.221189	0.000172	1.722890	0.583731	0.000069
1770	1.7602e+02	-9.5131	-31.116224	0.000264	2.635009	0.892765	0.000105
1771	1.7612e+02	-9.4762	-30.987035	0.000324	3.243087	1.098788	0.000130
1772	1.7621e+02	-9.4233	-30.845736	0.000355	3.547127	1.201799	0.000142
1773	1.7631e+02	-9.3912	-30.781141	0.000162	1.621544	0.549394	0.000065
1774	1.7641e+02	-9.3575	-30.688287	0.000233	2.330969	0.789754	0.000093
1775	1.7651e+02	-9.3302	-30.603507	0.000213	2.128276	0.721079	0.000085
1776	1.7661e+02	-9.2805	-30.466245	0.000345	3.445780	1.167462	0.000138
1777	1.7671e+02	-9.2356	-30.385502	0.000203	2.026930	0.686742	0.000081
1778	1.7681e+02	-9.1955	-30.252277	0.000334	3.344434	1.133125	0.000134
1779	1.7691e+02	-9.1602	-30.167497	0.000213	2.128276	0.721079	0.000085
1780	1.7701e+02	-9.1153	-30.090791	0.000193	1.925583	0.652405	0.000077
1781	1.7711e+02	-9.0816	-29.965640	0.000314	3.141741	1.064451	0.000126
1782	1.7721e+02	-9.0334	-29.876823	0.000223	2.229623	0.755417	0.000089
1783	1.7731e+02	-8.9917	-29.775895	0.000253	2.533662	0.858428	0.000101
1784	1.7741e+02	-8.9596	-29.670929	0.000264	2.635009	0.892765	0.000105
1785	1.7751e+02	-8.9147	-29.574038	0.000243	2.432316	0.824091	0.000097
1786	1.7761e+02	-8.8794	-29.444850	0.000324	3.243087	1.098788	0.000130
1787	1.7771e+02	-8.8506	-29.404478	0.000101	1.013465	0.343371	0.000041
1788	1.7781e+02	-8.8072	-29.263178	0.000355	3.547127	1.201799	0.000142
1789	1.7791e+02	-8.7559	-29.202621	0.000152	1.520197	0.515057	0.000061
1790	1.7801e+02	-8.7190	-29.041136	0.000405	4.053859	1.373485	0.000162
1791	1.7810e+02	-8.6853	-28.915985	0.000314	3.141741	1.064451	0.000126
1792	1.7820e+02	-8.6420	-28.863502	0.000132	1.317504	0.446383	0.000053
1793	1.7830e+02	-8.5923	-28.778722	0.000213	2.128276	0.721079	0.000085
1794	1.7840e+02	-8.5602	-28.681831	0.000243	2.432316	0.824091	0.000097
1795	1.7850e+02	-8.5249	-28.597051	0.000213	2.128276	0.721079	0.000085
1796	1.7860e+02	-8.4720	-28.455751	0.000355	3.547127	1.201799	0.000142
1797	1.7870e+02	-8.4367	-28.334637	0.000304	3.040395	1.030114	0.000122
1798	1.7880e+02	-8.4014	-28.270043	0.000162	1.621544	0.549394	0.000065
1799	1.7890e+02	-8.3564	-28.144892	0.000314	3.141741	1.064451	0.000126
1800	1.7900e+02	-8.3147	-28.035889	0.000274	2.736355	0.927102	0.000110
1801	1.7910e+02	-8.2762	-27.943035	0.000233	2.330969	0.789754	0.000093
1802	1.7920e+02	-8.2409	-27.850181	0.000233	2.330969	0.789754	0.000093
1803	1.7930e+02	-8.2008	-27.725030	0.000314	3.141741	1.064451	0.000126
1804	1.7940e+02	-8.1559	-27.656398	0.000172	1.722890	0.583731	0.000069
1805	1.7950e+02	-8.1174	-27.543359	0.000284	2.837702	0.961439	0.000114
1806	1.7960e+02	-8.0837	-27.438393	0.000264	2.635009	0.892765	0.000105
1807	1.7970e+02	-8.0484	-27.305168	0.000334	3.344434	1.133125	0.000134
1808	1.7980e+02	-8.0035	-27.184053	0.000304	3.040395	1.030114	0.000122
1809	1.7990e+02	-7.9634	-27.139645	0.000111	1.114811	0.377708	0.000045
1810	1.8000e+02	-7.9185	-27.030642	0.000274	2.736355	0.927102	0.000110
1811	1.8009e+02	-7.8832	-26.941825	0.000223	2.229623	0.755417	0.000089
1812	1.8019e+02	-7.8431	-26.808600	0.000334	3.344434	1.133125	0.000134
1813	1.8029e+02	-7.7982	-26.691523	0.000294	2.939048	0.995776	0.000118
1814	1.8039e+02	-7.7581	-26.586557	0.000264	2.635009	0.892765	0.000105
1815	1.8049e+02	-7.7132	-26.513889	0.000182	1.824237	0.618068	0.000073
1816	1.8059e+02	-7.6746	-26.400849	0.000284	2.837702	0.961439	0.000114
1817	1.8069e+02	-7.6474	-26.307995	0.000233	2.330969	0.789754	0.000093
1818	1.8079e+02	-7.6041	-26.178807	0.000324	3.243087	1.098788	0.000130
1819	1.8089e+02	-7.5640	-26.098064	0.000203	2.026930	0.686742	0.000081
1820	1.8099e+02	-7.5206	-26.001173	0.000243	2.432316	0.824091	0.000097
1821	1.8109e+02	-7.4789	-25.867947	0.000334	3.344434	1.133125	0.000134
1822	1.8119e+02	-7.4452	-25.795279	0.000182	1.824237	0.618068	0.000073
1823	1.8129e+02	-7.3923	-25.686276	0.000274	2.736355	0.927102	0.000110
1824	1.8139e+02	-7.3698	-25.593422	0.000233	2.330969	0.789754	0.000093
1825	1.8149e+02	-7.3281	-25.452122	0.000355	3.547127	1.201799	0.000142
1826	1.8159e+02	-7.2800	-25.379454	0.000182	1.824237	0.618068	0.000073
1827	1.8169e+02	-7.2495	-25.274488	0.000264	2.635009	0.892765	0.000105
1828	1.8179e+02	-7.2046	-25.153374	0.000304	3.040395	1.030114	0.000122
1829	1.8189e+02	-7.1693	-25.064557	0.000223	2.229623	0.755417	0.000089
1830	1.8199e+02	-7.1196	-24.955555	0.000274	2.736355	0.927102	0.000110
1831	1.8209e+02	-7.0763	-24.866738	0.000223	2.229623	0.755417	0.000089
1832	1.8218e+02	-7.0490	-24.753698	0.000284	2.837702	0.961439	0.000114
1833	1.8228e+02	-7.0009	-24.620472	0.000334	3.344434	1.133125	0.000134
1834	1.8238e+02	-6.9736	-24.519544	0.000253	2.533662	0.858428	0.000101
1835	1.8248e+02	-6.9287	-24.426690	0.000233	2.330969	0.789754	0.000093
1836	1.8258e+02	-6.8838	-24.301539	0.000314	3.141741	1.064451	0.000126
1837	1.8268e+02	-6.8469	-24.249056	0.000132	1.317504	0.446383	0.000053
1838	1.8278e+02	-6.8036	-24.095645	0.000385	3.851166	1.304810	0.000154
1839	1.8288e+02	-6.7683	-24.014902	0.000203	2.026930	0.686742	0.000081
1840	1.8298e+02	-6.7249	-23.893788	0.000304	3.040395	1.030114	0.000122
1841	1.8308e+02	-6.6864	-23.813045	0.000203	2.026930	0.686742	0.000081
1842	1.8318e+02	-6.6431	-23.687894	0.000314	3.141741	1.064451	0.000126
1843	1.8328e+02	-6.6078	-23.574854	0.000284	2.837702	0.961439	0.000114
1844	1.8338e+02	-6.5629	-23.506223	0.000172	1.722890	0.583731	0.000069
1845	1.8348e+02	-6.5340	-23.409332	0.000243	2.432316	0.824091	0.000097
1846	1.8358e+02	-6.4795	-23.280143	0.000324	3.243087	1.098788	0.000130
1847	1.8368e+02	-6.4394	-23.191326	0.000223	2.229623	0.755417	0.000089
1848	1.8378e+02	-6.4073	-23.082324	0.000274	2.736355	0.927102	0.000110
1849	1.8388e+02	-6.3768	-22.977358	0.000264	2.635009	0.892765	0.000105
1850	1.8398e+02	-6.3319	-22.872393	0.000264	2.635009	0.892765	0.000105
1851	1.8407e+02	-6.2934	-22.767427	0.000264	2.635009	0.892765	0.000105
1852	1.8417e+02	-6.2549	-22.690721	0.000193	1.925583	0.652405	0.000077
1853	1.8427e+02	-6.2116	-22.609979	0.000203	2.026930	0.686742	0.000081
1854	1.8437e+02	-6.1635	-22.456568	0.000385	3.851166	1.304810	0.000154
1855	1.8447e+02	-6.1298	-22.339491	0.000294	2.939048	0.995776	0.000118
1856	1.8457e+02	-6.0945	-22.270859	0.000172	1.722890	0.583731	0.000069
1857	1.8467e+02	-6.0447	-22.178005	0.000233	2.330969	0.789754	0.000093
1858	1.8477e+02	-6.0111	-22.073040	0.000264	2.635009	0.892765	0.000105
1859	1.8487e+02	-5.9677	-21.887331	0.000466	4.661938	1.579507	0.000187
1860	1.8497e+02	-5.9325	-21.875220	0.000030	0.304039	0.103011	0.000012
1861	1.8507e+02	-5.8940	-21.705660	0.000426	4.256552	1.442159	0.000170
1862	1.8517e+02	-5.8490	-21.612806	0.000233	2.330969	0.789754	0.000093
1863	1.8527e+02	-5.8169	-21.491692	0.000304	3.040395	1.030114	0.000122
1864	1.8537e+02	-5.7688	-21.378652	0.000284	2.837702	0.961439	0.000114
1865	1.8547e+02	-5.7335	-21.285798	0.000233	2.330969	0.789754	0.000093
1866	1.8557e+02	-5.6950	-21.201018	0.000213	2.128276	0.721079	0.000085
1867	1.8567e+02	-5.6501	-21.116238	0.000213	2.128276	0.721079	0.000085
1868	1.8577e+02	-5.6116	-20.950716	0.000416	4.155206	1.407822	0.000166
1869	1.8587e+02	-5.5779	-20.878047	0.000182	1.824237	0.618068	0.000073
1870	1.8597e+02	-5.5394	-20.736748	0.000355	3.547127	1.201799	0.000142
1871	1.8606e+02	-5.4977	-20.680228	0.000142	1.418851	0.480720	0.000057
1872	1.8616e+02	-5.4432	-20.551039	0.000324	3.243087	1.098788	0.000130
1873	1.8626e+02	-5.4111	-20.438000	0.000284	2.837702	0.961439	0.000114
1874	1.8636e+02	-5.3678	-20.324960	0.000284	2.837702	0.961439	0.000114
1875	1.8646e+02	-5.3405	-20.224031	0.000253	2.533662	0.858428	0.000101
1876	1.8656e+02	-5.2956	-20.098880	0.000314	3.141741	1.064451	0.000126
1877	1.8666e+02	-5.2507	-20.026212	0.000182	1.824237	0.618068	0.000073
1878	1.8676e+02	-5.2105	-19.884912	0.000355	3.547127	1.201799	0.000142
1879	1.8686e+02	-5.1769	-19.783984	0.000253	2.533662	0.858428	0.000101
1880	1.8696e+02	-5.1384	-19.695167	0.000223	2.229623	0.755417	0.000089
1881	1.8706e+02	-5.0854	-19.594238	0.000253	2.533662	0.858428	0.000101
1882	1.8716e+02	-5.0517	-19.432753	0.000405	4.053859	1.373485	0.000162
1883	1.8726e+02	-5.0180	-19.360084	0.000182	1.824237	0.618068	0.000073
1884	1.8736e+02	-4.9699	-19.247045	0.000284	2.837702	0.961439	0.000114
1885	1.8746e+02	-4.9346	-19.117856	0.000324	3.243087	1.098788	0.000130
1886	1.8756e+02	-4.9009	-19.061336	0.000142	1.418851	0.480720	0.000057
1887	1.8766e+02	-4.8512	-18.940222	0.000304	3.040395	1.030114	0.000122
1888	1.8776e+02	-4.8175	-18.823145	0.000294	2.939048	0.995776	0.000118
1889	1.8786e+02	-4.7726	-18.710106	0.000284	2.837702	0.961439	0.000114
1890	1.8796e+02	-4.7341	-18.621289	0.000223	2.229623	0.755417	0.000089
1891	1.8806e+02	-4.7084	-18.504212	0.000294	2.939048	0.995776	0.000118
1892	1.8815e+02	-4.6555	-18.415395	0.000223	2.229623	0.755417	0.000089
1893	1.8825e+02	-4.6122	-18.310429	0.000264	2.635009	0.892765	0.000105
1894	1.8835e+02	-4.5769	-18.185278	0.000314	3.141741	1.064451	0.000126
1895	1.8845e+02	-4.5336	-18.048015	0.000345	3.445780	1.167462	0.000138
1896	1.8855e+02	-4.4951	-17.983421	0.000162	1.621544	0.549394	0.000065
1897	1.8865e+02	-4.4550	-17.886530	0.000243	2.432316	0.824091	0.000097
1898	1.8875e+02	-4.4197	-17.729082	0.000395	3.952513	1.339148	0.000158
1899	1.8885e+02	-4.3699	-17.652376	0.000193	1.925583	0.652405	0.000077
1900	1.8895e+02	-4.3346	-17.507039	0.000365	3.648473	1.236136	0.000146
1901	1.8905e+02	-4.3009	-17.442445	0.000162	1.621544	0.549394	0.000065
1902	1.8915e+02	-4.2624	-17.280960	0.000405	4.053859	1.373485	0.000162
1903	1.8925e+02	-4.2191	-17.192143	0.000223	2.229623	0.755417	0.000089
1904	1.8935e+02	-4.1726	-17.119474	0.000182	1.824237	0.618068	0.000073
1905	1.8945e+02	-4.1325	-16.970100	0.000375	3.749820	1.270473	0.000150
1906	1.8955e+02	-4.0988	-16.885320	0.000213	2.128276	0.721079	0.000085
1907	1.8965e+02	-4.0539	-16.784392	0.000253	2.533662	0.858428	0.000101
1908	1.8975e+02	-4.0218	-16.687501	0.000243	2.432316	0.824091	0.000097
1909	1.8985e+02	-3.9913	-16.570424	0.000294	2.939048	0.995776	0.000118
1910	1.8995e+02	-3.9384	-16.473532	0.000243	2.432316	0.824091	0.000097
1911	1.9004e+02	-3.8983	-16.316084	0.000395	3.952513	1.339148	0.000158
1912	1.9014e+02	-3.8646	-16.271676	0.000111	1.114811	0.377708	0.000045
1913	1.9024e+02	-3.8277	-16.098079	0.000436	4.357899	1.476496	0.000174
1914	1.9034e+02	-3.7764	-15.985039	0.000284	2.837702	0.961439	0.000114
1915	1.9044e+02	-3.7443	-15.871999	0.000284	2.837702	0.961439	0.000114
1916	1.9054e+02	-3.6978	-15.771071	0.000253	2.533662	0.858428	0.000101
1917	1.9064e+02	-3.6560	-15.670142	0.000253	2.533662	0.858428	0.000101
1918	1.9074e+02	-3.6208	-15.601511	0.000172	1.722890	0.583731	0.000069
1919	1.9084e+02	-3.5758	-15.472323	0.000324	3.243087	1.098788	0.000130
1920	1.9094e+02	-3.5405	-15.335060	0.000345	3.445780	1.167462	0.000138
1921	1.9104e+02	-3.4956	-15.209909	0.000314	3.141741	1.064451	0.000126
1922	1.9114e+02	-3.4651	-15.117055	0.000233	2.330969	0.789754	0.000093
1923	1.9124e+02	-3.4186	-15.032275	0.000213	2.128276	0.721079	0.000085
1924	1.9134e+02	-3.3833	-14.899049	0.000334	3.344434	1.133125	0.000134
1925	1.9144e+02	-3.3384	-14.814270	0.000213	2.128276	0.721079	0.000085
1926	1.9154e+02	-3.2999	-14.681044	0.000334	3.344434	1.133125	0.000134
1927	1.9164e+02	-3.2630	-14.576079	0.000264	2.635009	0.892765	0.000105
1928	1.9174e+02	-3.2213	-14.450927	0.000314	3.141741	1.064451	0.000126
1929	1.9184e+02	-3.1796	-14.341925	0.000274	2.736355	0.927102	0.000110
1930	1.9194e+02	-3.1379	-14.285405	0.000142	1.418851	0.480720	0.000057
1931	1.9203e+02	-3.1042	-14.144105	0.000355	3.547127	1.201799	0.000142
1932	1.9213e+02	-3.0513	-14.071437	0.000182	1.824237	0.618068	0.000073
1933	1.9223e+02	-3.0272	-13.901877	0.000426	4.256552	1.442159	0.000170
1934	1.9233e+02	-2.9791	-13.841320	0.000152	1.520197	0.515057	0.000061
1935	1.9243e+02	-2.9470	-13.700020	0.000355	3.547127	1.201799	0.000142
1936	1.9253e+02	-2.9021	-13.595055	0.000264	2.635009	0.892765	0.000105
1937	1.9263e+02	-2.8700	-13.482015	0.000284	2.837702	0.961439	0.000114
1938	1.9273e+02	-2.8283	-13.385124	0.000243	2.432316	0.824091	0.000097
1939	1.9283e+02	-2.7817	-13.264009	0.000304	3.040395	1.030114	0.000122
1940	1.9293e+02	-2.7432	-13.175192	0.000223	2.229623	0.755417	0.000089
1941	1.9303e+02	-2.7063	-13.054078	0.000304	3.040395	1.030114	0.000122
1942	1.9313e+02	-2.6710	-12.904704	0.000375	3.749820	1.270473	0.000150
1943	1.9323e+02	-2.6309	-12.823962	0.000203	2.026930	0.686742	0.000081
1944	1.9333e+02	-2.5876	-12.702848	0.000304	3.040395	1.030114	0.000122
1945	1.9343e+02	-2.5491	-12.569622	0.000334	3.344434	1.133125	0.000134
1946	1.9353e+02	-2.5090	-12.480805	0.000223	2.229623	0.755417	0.000089
1947	1.9363e+02	-2.4689	-12.363728	0.000294	2.939048	0.995776	0.000118
1948	1.9373e+02	-2.4320	-12.266837	0.000243	2.432316	0.824091	0.000097
1949	1.9383e+02	-2.3791	-12.161871	0.000264	2.635009	0.892765	0.000105
1950	1.9393e+02	-2.3486	-12.020572	0.000355	3.547127	1.201799	0.000142
1951	1.9403e+02	-2.3085	-11.947903	0.000182	1.824237	0.618068	0.000073
1952	1.9412e+02	-2.2668	-11.798529	0.000375	3.749820	1.270473	0.000150
1953	1.9422e+02	-2.2267	-11.717786	0.000203	2.026930	0.686742	0.000081
1954	1.9432e+02	-2.1882	-11.580524	0.000345	3.445780	1.167462	0.000138
1955	1.9442e+02	-2.1577	-11.467484	0.000284	2.837702	0.961439	0.000114
1956	1.9452e+02	-2.0999	-11.378667	0.000223	2.229623	0.755417	0.000089
1957	1.9462e+02	-2.0695	-11.261590	0.000294	2.939048	0.995776	0.000118
1958	1.9472e+02	-2.0229	-11.112216	0.000375	3.749820	1.270473	0.000150
1959	1.9482e+02	-1.9860	-11.063770	0.000122	1.216158	0.412045	0.000049
1960	1.9492e+02	-1.9524	-10.930545	0.000334	3.344434	1.133125	0.000134
1961	1.9502e+02	-1.9042	-10.793282	0.000345	3.445780	1.167462	0.000138
1962	1.9512e+02	-1.8673	-10.688317	0.000264	2.635009	0.892765	0.000105
1963	1.9522e+02	-1.8224	-10.575277	0.000284	2.837702	0.961439	0.000114
1964	1.9532e+02	-1.7903	-10.466274	0.000274	2.736355	0.927102	0.000110
1965	1.9542e+02	-1.7422	-10.345160	0.000304	3.040395	1.030114	0.000122
1966	1.9552e+02	-1.7021	-10.232121	0.000284	2.837702	0.961439	0.000114
1967	1.9562e+02	-1.6700	-10.159452	0.000182	1.824237	0.618068	0.000073
1968	1.9572e+02	-1.6283	-10.062561	0.000243	2.432316	0.824091	0.000097
1969	1.9582e+02	-1.5946	-9.945484	0.000294	2.939048	0.995776	0.000118
1970	1.9592e+02	-1.5513	-9.808221	0.000345	3.445780	1.167462	0.000138
1971	1.9601e+02	-1.5208	-9.699219	0.000274	2.736355	0.927102	0.000110
1972	1.9611e+02	-1.4631	-9.570030	0.000324	3.243087	1.098788	0.000130
1973	1.9621e+02	-1.4342	-9.452953	0.000294	2.939048	0.995776	0.000118
1974	1.9631e+02	-1.3861	-9.335876	0.000294	2.939048	0.995776	0.000118
1975	1.9641e+02	-1.3524	-9.251097	0.000213	2.128276	0.721079	0.000085
1976	1.9651e+02	-1.3074	-9.154205	0.000243	2.432316	0.824091	0.000097
1977	1.9661e+02	-1.2673	-9.016943	0.000345	3.445780	1.167462	0.000138
1978	1.9671e+02	-1.2321	-8.907940	0.000274	2.736355	0.927102	0.000110
1979	1.9681e+02	-1.1968	-8.794900	0.000284	2.837702	0.961439	0.000114
1980	1.9691e+02	-1.1470	-8.681860	0.000284	2.837702	0.961439	0.000114
1981	1.9701e+02	-1.1085	-8.584969	0.000243	2.432316	0.824091	0.000097
1982	1.9711e+02	-1.0732	-8.463855	0.000304	3.040395	1.030114	0.000122
1983	1.9721e+02	-1.0315	-8.371001	0.000233	2.330969	0.789754	0.000093
1984	1.9731e+02	-0.9930	-8.249887	0.000304	3.040395	1.030114	0.000122
1985	1.9741e+02	-0.9465	-8.084364	0.000416	4.155206	1.407822	0.000166
1986	1.9751e+02	-0.9144	-7.983436	0.000253	2.533662	0.858428	0.000101
1987	1.9761e+02	-0.8679	-7.874433	0.000274	2.736355	0.927102	0.000110
1988	1.9771e+02	-0.8342	-7.801765	0.000182	1.824237	0.618068	0.000073
1989	1.9781e+02	-0.7925	-7.672576	0.000324	3.243087	1.098788	0.000130
1990	1.9791e+02	-0.7540	-7.523202	0.000375	3.749820	1.270473	0.000150
1991	1.9800e+02	-0.7139	-7.446497	0.000193	1.925583	0.652405	0.000077
1992	1.9810e+02	-0.6770	-7.325383	0.000304	3.040395	1.030114	0.000122
1993	1.9820e+02	-0.6321	-7.196194	0.000324	3.243087	1.098788	0.000130
1994	1.9830e+02	-0.5968	-7.103340	0.000233	2.330969	0.789754	0.000093
1995	1.9840e+02	-0.5551	-6.974152	0.000324	3.243087	1.098788	0.000130
1996	1.9850e+02	-0.5166	-6.877261	0.000243	2.432316	0.824091	0.000097
1997	1.9860e+02	-0.4716	-6.744035	0.000334	3.344434	1.133125	0.000134
1998	1.9870e+02	-0.4347	-6.671367	0.000182	1.824237	0.618068	0.000073
1999	1.9880e+02	-0.4043	-6.550253	0.000304	3.040395	1.030114	0.000122
2000	1.9890e+02	-0.3529	-6.445287	0.000264	2.635009	0.892765	0.000105
2001	1.9900e+02	-0.3225	-6.303987	0.000355	3.547127	1.201799	0.000142
2002	1.9910e+02	-0.2759	-6.178836	0.000314	3.141741	1.064451	0.000126
2003	1.9920e+02	-0.2262	-6.057722	0.000304	3.040395	1.030114	0.000122
2004	1.9930e+02	-0.2021	-5.968905	0.000223	2.229623	0.755417	0.000089
2005	1.9940e+02	-0.1396	-5.872014	0.000243	2.432316	0.824091	0.000097
2006	1.9950e+02	-0.1123	-5.718603	0.000385	3.851166	1.304810	0.000154
2007	1.9960e+02	-0.0722	-5.601526	0.000294	2.939048	0.995776	0.000118
2008	1.9970e+02	-0.0321	-5.500597	0.000253	2.533662	0.858428	0.000101
2009	1.9980e+02	0.0080	-5.355261	0.000253	2.533662	0.858428	0.000146

PMax (uC/cm2):	5.66e+01
Pr (uC/cm2):	2.15e+00
-Pr (uC/cm2):	-2.82e+00
PLoss (uC/cm2):	-2.84e+00
-Vc:	-7.58e-01
C (Max-Eff) (nF):	2.83e-01
K (Eff):	9.58e+02
Vert. (+/-Pr) Shift (uC/cm2):	-3.38e-01
Offset (uC/cm2):	2.53e+00

A (Loop Area - uC/cm2·Volts):	2.61e-02



Hysteresis Version: 5.48.1 - Radiant Technologies, Inc., 1999 - 9/12/24

