»»»»»»»»»»»»»»»»»»»»»»»»»»»»»»»»»»»» Hysteresis ««««««««««««««««««««««««««««««««««««
»»»  Executed Version:	5.48.1
»»»  Vision Version:	5.48.4 (R)
»»»  Vision Compiled:	9/18/24
»»»  Driver Version:	5.47.0
»»»  Windows Version:	Windows 8 or 8.1
»»»  Processor Information:	x86 (AMD or Intel) - 32 Processors
»»»  Tester Name:	PMF21124-494 (100V)
»»»  Tester S/N:	PMF21124-494
»»»  Internal Amp Type:	100V RevK 270k
»»»  Internal Amp S/N:	iAB2-596/K     
»»»  Execution Count:	1
»»»»»»»»»»»»»»»»»»»»»»»»»»»»»»»»»»»»»»»»»»««««««««««««««««««««««««««««««««««««««««««

Stored:	6/19/2025 - 14:51:17
Configured:	06/19/25 10:04:32 AM
Executed:	06/19/25 02:50:48 PM

»»»»»»»»»»»»»»»»»»»»»»»»»»»»»»»»»»» Sample Info ««««««««««««««««««««««««««««««««««««
Sample Name:	
Lot Name:	
Wafer Name:	
Die Row/Column:	0/0
Capacitor Number:	0
Sample Area (cm2):	1.00e-04
Sample Thickness (microns):	3.00e-01

Amplifier:	Internal

»»»»»»»»»»»»»»»»»»»»»»»»»»»»»»»»»»» Tester Info «««««««««««««««««««««««««««««««««««
Tester Name:	PMF21124-494 (100V)
Tester Serial Number:	PMF21124-494
Return Signal Amp. Level:	0.19 [Index: 3]

»»»»»»»»»»»»»»»»»»»»»»»»»»»»»»»» Hysteresis Info ««««««««««««««««««««««««««««««««««
Task Name:	Hyst-1168
Volts:	20.00
Field:	666.67 (kV/cm)
DCBias:	0.00
DCField:	0.00 (kV/cm)
Hysteresis Period (ms):	2.00e+02
Preset:	Enabled
Preset Delay (ms):	1.00e+03
Profile:	Standard Bipolar

»»»»»»»»»»»»»»»»»»»»»»»»»»»»»»»»»»»»»» Data «««««««««««««««««««««««««««««««««««««««
Points:	2009

Valid Data

Point	Time (ms)	Drive Voltage	Measured Polarization (uC/cm2)	Capacitance (uF)	Normalized Capacitance (uF/cm2)	Dielectric Constant	Instantaneous Current (mA)
   1	0.0000e+00	0.0080	-4.132008	0.000122	1.216353	0.412112	0.000049
   2	9.9500e-02	0.0321	-4.083563	0.000122	1.216353	0.412112	0.000049
   3	1.9900e-01	0.0786	-3.982634	0.000253	2.534069	0.858566	0.000101
   4	2.9850e-01	0.1235	-3.849409	0.000334	3.344971	1.133307	0.000134
   5	3.9800e-01	0.1572	-3.800963	0.000122	1.216353	0.412112	0.000049
   6	4.9750e-01	0.1989	-3.627366	0.000436	4.358598	1.476733	0.000174
   7	5.9700e-01	0.2374	-3.574884	0.000132	1.317716	0.446454	0.000053
   8	6.9650e-01	0.2695	-3.421473	0.000385	3.851784	1.305020	0.000154
   9	7.9600e-01	0.3032	-3.368990	0.000132	1.317716	0.446454	0.000053
  10	8.9550e-01	0.3497	-3.243839	0.000314	3.142245	1.064621	0.000126
  11	9.9500e-01	0.3914	-3.138873	0.000264	2.635431	0.892908	0.000105
  12	1.0945e+00	0.4380	-3.041982	0.000243	2.432706	0.824223	0.000097
  13	1.1940e+00	0.4716	-2.912793	0.000324	3.243608	1.098964	0.000130
  14	1.2935e+00	0.5198	-2.811865	0.000253	2.534069	0.858566	0.000101
  15	1.3930e+00	0.5519	-2.706900	0.000264	2.635431	0.892908	0.000105
  16	1.4925e+00	0.6016	-2.593860	0.000284	2.838157	0.961594	0.000114
  17	1.5920e+00	0.6433	-2.464671	0.000324	3.243608	1.098964	0.000130
  18	1.6915e+00	0.6642	-2.363743	0.000253	2.534069	0.858566	0.000101
  19	1.7910e+00	0.7187	-2.242629	0.000304	3.040882	1.030279	0.000122
  20	1.8905e+00	0.7636	-2.165923	0.000193	1.925892	0.652510	0.000077
  21	1.9900e+00	0.8021	-2.036735	0.000324	3.243608	1.098964	0.000130
  22	2.0895e+00	0.8358	-1.927732	0.000274	2.736794	0.927251	0.000110
  23	2.1890e+00	0.8679	-1.778358	0.000375	3.750422	1.270677	0.000150
  24	2.2885e+00	0.9256	-1.685504	0.000233	2.331343	0.789880	0.000093
  25	2.3880e+00	0.9481	-1.584576	0.000253	2.534069	0.858566	0.000101
  26	2.4875e+00	0.9834	-1.487685	0.000243	2.432706	0.824223	0.000097
  27	2.5870e+00	1.0347	-1.358496	0.000324	3.243608	1.098964	0.000130
  28	2.6865e+00	1.0716	-1.285828	0.000182	1.824529	0.618167	0.000073
  29	2.7860e+00	1.1133	-1.144528	0.000355	3.547696	1.201992	0.000142
  30	2.8855e+00	1.1518	-1.047637	0.000243	2.432706	0.824223	0.000097
  31	2.9850e+00	1.1839	-0.926523	0.000304	3.040882	1.030279	0.000122
  32	3.0845e+00	1.2401	-0.813483	0.000284	2.838157	0.961594	0.000114
  33	3.1840e+00	1.2738	-0.700443	0.000284	2.838157	0.961594	0.000114
  34	3.2835e+00	1.3171	-0.623737	0.000193	1.925892	0.652510	0.000077
  35	3.3830e+00	1.3460	-0.482438	0.000355	3.547696	1.201992	0.000142
  36	3.4825e+00	1.3925	-0.373435	0.000274	2.736794	0.927251	0.000110
  37	3.5820e+00	1.4197	-0.268470	0.000264	2.635431	0.892908	0.000105
  38	3.6815e+00	1.4695	-0.175615	0.000233	2.331343	0.789880	0.000093
  39	3.7810e+00	1.5032	-0.062576	0.000284	2.838157	0.961594	0.000114
  40	3.8805e+00	1.5561	0.086798	0.000375	3.750422	1.270677	0.000150
  41	3.9800e+00	1.5882	0.159467	0.000182	1.824529	0.618167	0.000073
  42	4.0795e+00	1.6299	0.256358	0.000243	2.432706	0.824223	0.000097
  43	4.1790e+00	1.6636	0.413806	0.000395	3.953147	1.339363	0.000158
  44	4.2785e+00	1.7197	0.514735	0.000253	2.534069	0.858566	0.000101
  45	4.3780e+00	1.7438	0.631812	0.000294	2.939520	0.995936	0.000118
  46	4.4775e+00	1.7887	0.704480	0.000182	1.824529	0.618167	0.000073
  47	4.5770e+00	1.8288	0.857891	0.000385	3.851784	1.305020	0.000154
  48	4.6765e+00	1.8737	0.966894	0.000274	2.736794	0.927251	0.000110
  49	4.7760e+00	1.9122	1.079934	0.000284	2.838157	0.961594	0.000114
  50	4.8755e+00	1.9491	1.197011	0.000294	2.939520	0.995936	0.000118
  51	4.9750e+00	1.9973	1.285828	0.000223	2.229980	0.755538	0.000089
  52	5.0745e+00	2.0438	1.423090	0.000345	3.446333	1.167649	0.000138
  53	5.1740e+00	2.0646	1.580539	0.000395	3.953147	1.339363	0.000158
  54	5.2735e+00	2.1112	1.673393	0.000233	2.331343	0.789880	0.000093
  55	5.3730e+00	2.1449	1.770284	0.000243	2.432706	0.824223	0.000097
  56	5.4725e+00	2.1785	1.879287	0.000274	2.736794	0.927251	0.000110
  57	5.5720e+00	2.2267	1.992326	0.000284	2.838157	0.961594	0.000114
  58	5.6715e+00	2.2716	2.105366	0.000284	2.838157	0.961594	0.000114
  59	5.7710e+00	2.3069	2.218406	0.000284	2.838157	0.961594	0.000114
  60	5.8705e+00	2.3534	2.331446	0.000284	2.838157	0.961594	0.000114
  61	5.9700e+00	2.3887	2.432374	0.000253	2.534069	0.858566	0.000101
  62	6.0695e+00	2.4272	2.529266	0.000243	2.432706	0.824223	0.000097
  63	6.1690e+00	2.4673	2.686714	0.000395	3.953147	1.339363	0.000158
  64	6.2685e+00	2.5042	2.791679	0.000264	2.635431	0.892908	0.000105
  65	6.3680e+00	2.5523	2.896645	0.000264	2.635431	0.892908	0.000105
  66	6.4675e+00	2.5892	3.009685	0.000284	2.838157	0.961594	0.000114
  67	6.5670e+00	2.6245	3.106576	0.000243	2.432706	0.824223	0.000097
  68	6.6665e+00	2.6582	3.239801	0.000334	3.344971	1.133307	0.000134
  69	6.7660e+00	2.7015	3.364953	0.000314	3.142245	1.064621	0.000126
  70	6.8655e+00	2.7497	3.453770	0.000223	2.229980	0.755538	0.000089
  71	6.9650e+00	2.7801	3.570847	0.000294	2.939520	0.995936	0.000118
  72	7.0645e+00	2.8267	3.716183	0.000365	3.649059	1.236335	0.000146
  73	7.1640e+00	2.8636	3.796926	0.000203	2.027255	0.686853	0.000081
  74	7.2635e+00	2.9053	3.922077	0.000314	3.142245	1.064621	0.000126
  75	7.3630e+00	2.9518	4.027043	0.000264	2.635431	0.892908	0.000105
  76	7.4625e+00	2.9903	4.111823	0.000213	2.128618	0.721195	0.000085
  77	7.5620e+00	3.0224	4.249085	0.000345	3.446333	1.167649	0.000138
  78	7.6615e+00	3.0673	4.390385	0.000355	3.547696	1.201992	0.000142
  79	7.7610e+00	3.0930	4.463054	0.000182	1.824529	0.618167	0.000073
  80	7.8605e+00	3.1427	4.588205	0.000314	3.142245	1.064621	0.000126
  81	7.9600e+00	3.1876	4.709319	0.000304	3.040882	1.030279	0.000122
  82	8.0595e+00	3.2277	4.822359	0.000284	2.838157	0.961594	0.000114
  83	8.1590e+00	3.2646	4.927324	0.000264	2.635431	0.892908	0.000105
  84	8.2585e+00	3.3047	5.080735	0.000385	3.851784	1.305020	0.000154
  85	8.3580e+00	3.3416	5.169552	0.000223	2.229980	0.755538	0.000089
  86	8.4575e+00	3.3881	5.262406	0.000233	2.331343	0.789880	0.000093
  87	8.5570e+00	3.4282	5.391595	0.000324	3.243608	1.098964	0.000130
  88	8.6565e+00	3.4619	5.504635	0.000284	2.838157	0.961594	0.000114
  89	8.7560e+00	3.5069	5.597489	0.000233	2.331343	0.789880	0.000093
  90	8.8555e+00	3.5486	5.702454	0.000264	2.635431	0.892908	0.000105
  91	8.9550e+00	3.5726	5.803383	0.000253	2.534069	0.858566	0.000101
  92	9.0545e+00	3.6224	5.936608	0.000334	3.344971	1.133307	0.000134
  93	9.1540e+00	3.6689	5.997165	0.000152	1.520441	0.515139	0.000061
  94	9.2535e+00	3.7058	6.150576	0.000385	3.851784	1.305020	0.000154
  95	9.3530e+00	3.7411	6.275728	0.000314	3.142245	1.064621	0.000126
  96	9.4525e+00	3.7796	6.368582	0.000233	2.331343	0.789880	0.000093
  97	9.5520e+00	3.8229	6.501807	0.000334	3.344971	1.133307	0.000134
  98	9.6515e+00	3.8582	6.606773	0.000264	2.635431	0.892908	0.000105
  99	9.7510e+00	3.8935	6.667330	0.000152	1.520441	0.515139	0.000061
 100	9.8505e+00	3.9448	6.824778	0.000395	3.953147	1.339363	0.000158
 101	9.9500e+00	3.9817	6.925706	0.000253	2.534069	0.858566	0.000101
 102	1.0050e+01	4.0266	7.042783	0.000294	2.939520	0.995936	0.000118
 103	1.0149e+01	4.0651	7.159860	0.000294	2.939520	0.995936	0.000118
 104	1.0248e+01	4.0956	7.264826	0.000264	2.635431	0.892908	0.000105
 105	1.0348e+01	4.1373	7.369791	0.000264	2.635431	0.892908	0.000105
 106	1.0447e+01	4.1806	7.507054	0.000345	3.446333	1.167649	0.000138
 107	1.0547e+01	4.2304	7.603945	0.000243	2.432706	0.824223	0.000097
 108	1.0646e+01	4.2544	7.749282	0.000365	3.649059	1.236335	0.000146
 109	1.0746e+01	4.3090	7.858285	0.000274	2.736794	0.927251	0.000110
 110	1.0845e+01	4.3411	7.967287	0.000274	2.736794	0.927251	0.000110
 111	1.0945e+01	4.3812	8.043993	0.000193	1.925892	0.652510	0.000077
 112	1.1044e+01	4.4197	8.189330	0.000365	3.649059	1.236335	0.000146
 113	1.1144e+01	4.4598	8.318518	0.000324	3.243608	1.098964	0.000130
 114	1.1243e+01	4.4983	8.415409	0.000243	2.432706	0.824223	0.000097
 115	1.1343e+01	4.5496	8.528449	0.000284	2.838157	0.961594	0.000114
 116	1.1443e+01	4.5865	8.657638	0.000324	3.243608	1.098964	0.000130
 117	1.1542e+01	4.6154	8.762603	0.000264	2.635431	0.892908	0.000105
 118	1.1642e+01	4.6651	8.871606	0.000274	2.736794	0.927251	0.000110
 119	1.1741e+01	4.6972	8.984646	0.000284	2.838157	0.961594	0.000114
 120	1.1841e+01	4.7405	9.109797	0.000314	3.142245	1.064621	0.000126
 121	1.1940e+01	4.7838	9.226874	0.000294	2.939520	0.995936	0.000118
 122	1.2040e+01	4.8175	9.327802	0.000253	2.534069	0.858566	0.000101
 123	1.2139e+01	4.8640	9.432768	0.000264	2.635431	0.892908	0.000105
 124	1.2239e+01	4.9041	9.565993	0.000334	3.344971	1.133307	0.000134
 125	1.2338e+01	4.9378	9.674996	0.000274	2.736794	0.927251	0.000110
 126	1.2438e+01	4.9811	9.792073	0.000294	2.939520	0.995936	0.000118
 127	1.2537e+01	5.0212	9.925298	0.000334	3.344971	1.133307	0.000134
 128	1.2636e+01	5.0614	10.070635	0.000365	3.649059	1.236335	0.000146
 129	1.2736e+01	5.0918	10.167526	0.000243	2.432706	0.824223	0.000097
 130	1.2835e+01	5.1351	10.248269	0.000203	2.027255	0.686853	0.000081
 131	1.2935e+01	5.1704	10.365346	0.000294	2.939520	0.995936	0.000118
 132	1.3034e+01	5.2218	10.482423	0.000294	2.939520	0.995936	0.000118
 133	1.3134e+01	5.2539	10.623723	0.000355	3.547696	1.201992	0.000142
 134	1.3233e+01	5.2956	10.712540	0.000223	2.229980	0.755538	0.000089
 135	1.3333e+01	5.3485	10.861914	0.000375	3.750422	1.270677	0.000150
 136	1.3432e+01	5.3902	10.958805	0.000243	2.432706	0.824223	0.000097
 137	1.3532e+01	5.4207	11.059733	0.000253	2.534069	0.858566	0.000101
 138	1.3632e+01	5.4496	11.184885	0.000314	3.142245	1.064621	0.000126
 139	1.3731e+01	5.4977	11.269664	0.000213	2.128618	0.721195	0.000085
 140	1.3831e+01	5.5362	11.419038	0.000375	3.750422	1.270677	0.000150
 141	1.3930e+01	5.5763	11.511893	0.000233	2.331343	0.789880	0.000093
 142	1.4030e+01	5.6116	11.645118	0.000334	3.344971	1.133307	0.000134
 143	1.4129e+01	5.6469	11.774306	0.000324	3.243608	1.098964	0.000130
 144	1.4229e+01	5.6870	11.863123	0.000223	2.229980	0.755538	0.000089
 145	1.4328e+01	5.7303	11.992312	0.000324	3.243608	1.098964	0.000130
 146	1.4428e+01	5.7801	12.064980	0.000182	1.824529	0.618167	0.000073
 147	1.4527e+01	5.8153	12.214354	0.000375	3.750422	1.270677	0.000150
 148	1.4627e+01	5.8522	12.295097	0.000203	2.027255	0.686853	0.000081
 149	1.4726e+01	5.8972	12.428322	0.000334	3.344971	1.133307	0.000134
 150	1.4825e+01	5.9341	12.577696	0.000375	3.750422	1.270677	0.000150
 151	1.4925e+01	5.9854	12.690736	0.000284	2.838157	0.961594	0.000114
 152	1.5024e+01	6.0191	12.799739	0.000274	2.736794	0.927251	0.000110
 153	1.5124e+01	6.0399	12.924890	0.000314	3.142245	1.064621	0.000126
 154	1.5223e+01	6.0993	13.041967	0.000294	2.939520	0.995936	0.000118
 155	1.5323e+01	6.1330	13.187304	0.000365	3.649059	1.236335	0.000146
 156	1.5422e+01	6.1859	13.243824	0.000142	1.419078	0.480797	0.000057
 157	1.5522e+01	6.2132	13.385124	0.000355	3.547696	1.201992	0.000142
 158	1.5621e+01	6.2549	13.542572	0.000395	3.953147	1.339363	0.000158
 159	1.5721e+01	6.3046	13.647537	0.000264	2.635431	0.892908	0.000105
 160	1.5820e+01	6.3399	13.772689	0.000314	3.142245	1.064621	0.000126
 161	1.5920e+01	6.3704	13.845357	0.000182	1.824529	0.618167	0.000073
 162	1.6020e+01	6.4153	13.974545	0.000324	3.243608	1.098964	0.000130
 163	1.6119e+01	6.4522	14.091622	0.000294	2.939520	0.995936	0.000118
 164	1.6218e+01	6.4859	14.245033	0.000385	3.851784	1.305020	0.000154
 165	1.6318e+01	6.5148	14.281368	0.000091	0.912265	0.309084	0.000037
 166	1.6418e+01	6.5838	14.471113	0.000476	4.764049	1.614104	0.000191
 167	1.6517e+01	6.6094	14.568004	0.000243	2.432706	0.824223	0.000097
 168	1.6616e+01	6.6528	14.697193	0.000324	3.243608	1.098964	0.000130
 169	1.6716e+01	6.6897	14.806195	0.000274	2.736794	0.927251	0.000110
 170	1.6816e+01	6.7265	14.947495	0.000355	3.547696	1.201992	0.000142
 171	1.6915e+01	6.7715	15.028238	0.000203	2.027255	0.686853	0.000081
 172	1.7015e+01	6.8068	15.201835	0.000436	4.358598	1.476733	0.000174
 173	1.7114e+01	6.8549	15.294689	0.000233	2.331343	0.789880	0.000093
 174	1.7213e+01	6.9014	15.415803	0.000304	3.040882	1.030279	0.000122
 175	1.7313e+01	6.9271	15.520768	0.000264	2.635431	0.892908	0.000105
 176	1.7413e+01	6.9720	15.649957	0.000324	3.243608	1.098964	0.000130
 177	1.7512e+01	7.0009	15.811442	0.000405	4.054510	1.373705	0.000162
 178	1.7611e+01	7.0490	15.912371	0.000253	2.534069	0.858566	0.000101
 179	1.7711e+01	7.0875	16.009262	0.000243	2.432706	0.824223	0.000097
 180	1.7811e+01	7.1260	16.154599	0.000365	3.649059	1.236335	0.000146
 181	1.7910e+01	7.1549	16.235341	0.000203	2.027255	0.686853	0.000081
 182	1.8009e+01	7.2078	16.392790	0.000395	3.953147	1.339363	0.000158
 183	1.8109e+01	7.2575	16.513904	0.000304	3.040882	1.030279	0.000122
 184	1.8209e+01	7.2832	16.610795	0.000243	2.432706	0.824223	0.000097
 185	1.8308e+01	7.3249	16.748058	0.000345	3.446333	1.167649	0.000138
 186	1.8407e+01	7.3602	16.869172	0.000304	3.040882	1.030279	0.000122
 187	1.8507e+01	7.4100	17.018546	0.000375	3.750422	1.270677	0.000150
 188	1.8607e+01	7.4549	17.099288	0.000203	2.027255	0.686853	0.000081
 189	1.8706e+01	7.4918	17.228477	0.000324	3.243608	1.098964	0.000130
 190	1.8805e+01	7.5271	17.345554	0.000294	2.939520	0.995936	0.000118
 191	1.8905e+01	7.5656	17.470705	0.000314	3.142245	1.064621	0.000126
 192	1.9005e+01	7.6137	17.616042	0.000365	3.649059	1.236335	0.000146
 193	1.9104e+01	7.6506	17.716970	0.000253	2.534069	0.858566	0.000101
 194	1.9203e+01	7.6859	17.817899	0.000253	2.534069	0.858566	0.000101
 195	1.9303e+01	7.7388	17.951124	0.000334	3.344971	1.133307	0.000134
 196	1.9402e+01	7.7613	18.039941	0.000223	2.229980	0.755538	0.000089
 197	1.9502e+01	7.8062	18.181241	0.000355	3.547696	1.201992	0.000142
 198	1.9602e+01	7.8431	18.314466	0.000334	3.344971	1.133307	0.000134
 199	1.9701e+01	7.8864	18.435580	0.000304	3.040882	1.030279	0.000122
 200	1.9800e+01	7.9201	18.528434	0.000233	2.331343	0.789880	0.000093
 201	1.9900e+01	7.9714	18.657623	0.000324	3.243608	1.098964	0.000130
 202	2.0000e+01	8.0115	18.815071	0.000395	3.953147	1.339363	0.000158
 203	2.0099e+01	8.0532	18.932148	0.000294	2.939520	0.995936	0.000118
 204	2.0198e+01	8.0805	19.004816	0.000182	1.824529	0.618167	0.000073
 205	2.0298e+01	8.1254	19.162265	0.000395	3.953147	1.339363	0.000158
 206	2.0398e+01	8.1704	19.234933	0.000182	1.824529	0.618167	0.000073
 207	2.0497e+01	8.2089	19.376233	0.000355	3.547696	1.201992	0.000142
 208	2.0596e+01	8.2409	19.485236	0.000274	2.736794	0.927251	0.000110
 209	2.0696e+01	8.2810	19.614424	0.000324	3.243608	1.098964	0.000130
 210	2.0796e+01	8.3179	19.735538	0.000304	3.040882	1.030279	0.000122
 211	2.0895e+01	8.3613	19.876838	0.000355	3.547696	1.201992	0.000142
 212	2.0994e+01	8.4078	19.957581	0.000203	2.027255	0.686853	0.000081
 213	2.1094e+01	8.4399	20.090806	0.000334	3.344971	1.133307	0.000134
 214	2.1194e+01	8.4832	20.236143	0.000365	3.649059	1.236335	0.000146
 215	2.1293e+01	8.5249	20.381480	0.000365	3.649059	1.236335	0.000146
 216	2.1392e+01	8.5586	20.466260	0.000213	2.128618	0.721195	0.000085
 217	2.1492e+01	8.5939	20.623708	0.000395	3.953147	1.339363	0.000158
 218	2.1591e+01	8.6500	20.716562	0.000233	2.331343	0.789880	0.000093
 219	2.1691e+01	8.6853	20.833639	0.000294	2.939520	0.995936	0.000118
 220	2.1791e+01	8.7142	20.930530	0.000243	2.432706	0.824223	0.000097
 221	2.1890e+01	8.7607	21.055681	0.000314	3.142245	1.064621	0.000126
 222	2.1989e+01	8.8104	21.180833	0.000314	3.142245	1.064621	0.000126
 223	2.2089e+01	8.8425	21.273687	0.000233	2.331343	0.789880	0.000093
 224	2.2189e+01	8.8874	21.406912	0.000334	3.344971	1.133307	0.000134
 225	2.2288e+01	8.9227	21.519952	0.000284	2.838157	0.961594	0.000114
 226	2.2387e+01	8.9628	21.693549	0.000436	4.358598	1.476733	0.000174
 227	2.2487e+01	8.9997	21.770254	0.000193	1.925892	0.652510	0.000077
 228	2.2587e+01	9.0415	21.899443	0.000324	3.243608	1.098964	0.000130
 229	2.2686e+01	9.0784	22.064965	0.000416	4.155873	1.408048	0.000166
 230	2.2785e+01	9.1249	22.109374	0.000111	1.114990	0.377769	0.000045
 231	2.2885e+01	9.1634	22.242599	0.000334	3.344971	1.133307	0.000134
 232	2.2985e+01	9.2019	22.347565	0.000264	2.635431	0.892908	0.000105
 233	2.3084e+01	9.2388	22.529236	0.000456	4.561324	1.545418	0.000183
 234	2.3183e+01	9.2821	22.646313	0.000294	2.939520	0.995936	0.000118
 235	2.3283e+01	9.3238	22.731093	0.000213	2.128618	0.721195	0.000085
 236	2.3383e+01	9.3607	22.836058	0.000264	2.635431	0.892908	0.000105
 237	2.3482e+01	9.4008	22.969284	0.000334	3.344971	1.133307	0.000134
 238	2.3581e+01	9.4489	23.106546	0.000345	3.446333	1.167649	0.000138
 239	2.3681e+01	9.4842	23.239772	0.000334	3.344971	1.133307	0.000134
 240	2.3780e+01	9.5227	23.324552	0.000213	2.128618	0.721195	0.000085
 241	2.3880e+01	9.5580	23.465851	0.000355	3.547696	1.201992	0.000142
 242	2.3980e+01	9.6061	23.566780	0.000253	2.534069	0.858566	0.000101
 243	2.4079e+01	9.6446	23.691931	0.000314	3.142245	1.064621	0.000126
 244	2.4178e+01	9.6815	23.813045	0.000304	3.040882	1.030279	0.000122
 245	2.4278e+01	9.7249	23.922048	0.000274	2.736794	0.927251	0.000110
 246	2.4378e+01	9.7602	24.059310	0.000345	3.446333	1.167649	0.000138
 247	2.4477e+01	9.7938	24.188499	0.000324	3.243608	1.098964	0.000130
 248	2.4576e+01	9.8388	24.232907	0.000111	1.114990	0.377769	0.000045
 249	2.4676e+01	9.8837	24.378244	0.000365	3.649059	1.236335	0.000146
 250	2.4776e+01	9.9190	24.507432	0.000324	3.243608	1.098964	0.000130
 251	2.4875e+01	9.9527	24.640658	0.000334	3.344971	1.133307	0.000134
 252	2.4974e+01	9.9992	24.741586	0.000253	2.534069	0.858566	0.000101
 253	2.5074e+01	10.0441	24.834440	0.000233	2.331343	0.789880	0.000093
 254	2.5174e+01	10.0730	24.975740	0.000355	3.547696	1.201992	0.000142
 255	2.5273e+01	10.1195	25.100891	0.000314	3.142245	1.064621	0.000126
 256	2.5372e+01	10.1516	25.222006	0.000304	3.040882	1.030279	0.000122
 257	2.5472e+01	10.1885	25.294674	0.000182	1.824529	0.618167	0.000073
 258	2.5572e+01	10.2414	25.411751	0.000294	2.939520	0.995936	0.000118
 259	2.5671e+01	10.2687	25.565162	0.000385	3.851784	1.305020	0.000154
 260	2.5770e+01	10.3232	25.694350	0.000324	3.243608	1.098964	0.000130
 261	2.5870e+01	10.3698	25.734722	0.000101	1.013627	0.343426	0.000041
 262	2.5970e+01	10.3906	25.908319	0.000436	4.358598	1.476733	0.000174
 263	2.6069e+01	10.4387	25.997136	0.000223	2.229980	0.755538	0.000089
 264	2.6169e+01	10.4805	26.138435	0.000355	3.547696	1.201992	0.000142
 265	2.6268e+01	10.5270	26.231289	0.000233	2.331343	0.789880	0.000093
 266	2.6367e+01	10.5639	26.324144	0.000233	2.331343	0.789880	0.000093
 267	2.6467e+01	10.5992	26.489666	0.000416	4.155873	1.408048	0.000166
 268	2.6567e+01	10.6441	26.566372	0.000193	1.925892	0.652510	0.000077
 269	2.6666e+01	10.6746	26.691523	0.000314	3.142245	1.064621	0.000126
 270	2.6765e+01	10.7147	26.832823	0.000355	3.547696	1.201992	0.000142
 271	2.6865e+01	10.7644	26.905491	0.000182	1.824529	0.618167	0.000073
 272	2.6965e+01	10.7933	27.066977	0.000405	4.054510	1.373705	0.000162
 273	2.7064e+01	10.8382	27.151756	0.000213	2.128618	0.721195	0.000085
 274	2.7163e+01	10.8767	27.301130	0.000375	3.750422	1.270677	0.000150
 275	2.7263e+01	10.9104	27.385910	0.000213	2.128618	0.721195	0.000085
 276	2.7363e+01	10.9489	27.551433	0.000416	4.155873	1.408048	0.000166
 277	2.7462e+01	10.9906	27.620064	0.000172	1.723167	0.583825	0.000069
 278	2.7561e+01	11.0387	27.733104	0.000284	2.838157	0.961594	0.000114
 279	2.7661e+01	11.0676	27.821921	0.000223	2.229980	0.755538	0.000089
 280	2.7761e+01	11.1157	27.951109	0.000324	3.243608	1.098964	0.000130
 281	2.7860e+01	11.1574	28.092409	0.000355	3.547696	1.201992	0.000142
 282	2.7959e+01	11.1911	28.249857	0.000395	3.953147	1.339363	0.000158
 283	2.8059e+01	11.2280	28.322526	0.000182	1.824529	0.618167	0.000073
 284	2.8159e+01	11.2633	28.463826	0.000355	3.547696	1.201992	0.000142
 285	2.8258e+01	11.3130	28.584940	0.000304	3.040882	1.030279	0.000122
 286	2.8358e+01	11.3483	28.681831	0.000243	2.432706	0.824223	0.000097
 287	2.8457e+01	11.3901	28.843316	0.000405	4.054510	1.373705	0.000162
 288	2.8556e+01	11.4237	28.924059	0.000203	2.027255	0.686853	0.000081
 289	2.8656e+01	11.4655	29.029025	0.000264	2.635431	0.892908	0.000105
 290	2.8756e+01	11.5023	29.190510	0.000405	4.054510	1.373705	0.000162
 291	2.8855e+01	11.5617	29.295475	0.000264	2.635431	0.892908	0.000105
 292	2.8954e+01	11.5842	29.396404	0.000253	2.534069	0.858566	0.000101
 293	2.9054e+01	11.6227	29.521555	0.000314	3.142245	1.064621	0.000126
 294	2.9154e+01	11.6660	29.646706	0.000314	3.142245	1.064621	0.000126
 295	2.9253e+01	11.7093	29.771858	0.000314	3.142245	1.064621	0.000126
 296	2.9352e+01	11.7446	29.860674	0.000223	2.229980	0.755538	0.000089
 297	2.9452e+01	11.7927	29.985826	0.000314	3.142245	1.064621	0.000126
 298	2.9552e+01	11.8344	30.115014	0.000324	3.243608	1.098964	0.000130
 299	2.9651e+01	11.8649	30.240165	0.000314	3.142245	1.064621	0.000126
 300	2.9750e+01	11.9050	30.337057	0.000243	2.432706	0.824223	0.000097
 301	2.9850e+01	11.9515	30.458171	0.000304	3.040882	1.030279	0.000122
 302	2.9950e+01	11.9965	30.579285	0.000304	3.040882	1.030279	0.000122
 303	3.0049e+01	12.0269	30.700399	0.000304	3.040882	1.030279	0.000122
 304	3.0148e+01	12.0702	30.809401	0.000274	2.736794	0.927251	0.000110
 305	3.0248e+01	12.1136	30.898218	0.000223	2.229980	0.755538	0.000089
 306	3.0348e+01	12.1521	30.999147	0.000253	2.534069	0.858566	0.000101
 307	3.0447e+01	12.1906	31.096038	0.000243	2.432706	0.824223	0.000097
 308	3.0547e+01	12.2355	31.289821	0.000487	4.865412	1.648446	0.000195
 309	3.0646e+01	12.2756	31.378638	0.000223	2.229980	0.755538	0.000089
 310	3.0745e+01	12.3029	31.503789	0.000314	3.142245	1.064621	0.000126
 311	3.0845e+01	12.3526	31.592606	0.000223	2.229980	0.755538	0.000089
 312	3.0945e+01	12.3863	31.721794	0.000324	3.243608	1.098964	0.000130
 313	3.1044e+01	12.4248	31.883279	0.000405	4.054510	1.373705	0.000162
 314	3.1143e+01	12.4745	31.951911	0.000172	1.723167	0.583825	0.000069
 315	3.1243e+01	12.5050	32.064951	0.000284	2.838157	0.961594	0.000114
 316	3.1343e+01	12.5515	32.198176	0.000334	3.344971	1.133307	0.000134
 317	3.1442e+01	12.5788	32.299104	0.000253	2.534069	0.858566	0.000101
 318	3.1541e+01	12.6285	32.395996	0.000243	2.432706	0.824223	0.000097
 319	3.1641e+01	12.6638	32.565555	0.000426	4.257235	1.442390	0.000170
 320	3.1741e+01	12.7023	32.702818	0.000345	3.446333	1.167649	0.000138
 321	3.1840e+01	12.7520	32.803746	0.000253	2.534069	0.858566	0.000101
 322	3.1939e+01	12.7857	32.912749	0.000274	2.736794	0.927251	0.000110
 323	3.2039e+01	12.8258	33.041937	0.000324	3.243608	1.098964	0.000130
 324	3.2139e+01	12.8708	33.167089	0.000314	3.142245	1.064621	0.000126
 325	3.2238e+01	12.9109	33.251869	0.000213	2.128618	0.721195	0.000085
 326	3.2337e+01	12.9462	33.377020	0.000314	3.142245	1.064621	0.000126
 327	3.2437e+01	12.9879	33.554654	0.000446	4.459961	1.511076	0.000179
 328	3.2536e+01	13.0216	33.635396	0.000203	2.027255	0.686853	0.000081
 329	3.2636e+01	13.0617	33.728251	0.000233	2.331343	0.789880	0.000093
 330	3.2736e+01	13.1050	33.917996	0.000476	4.764049	1.614104	0.000191
 331	3.2835e+01	13.1483	34.002776	0.000213	2.128618	0.721195	0.000085
 332	3.2934e+01	13.1804	34.091593	0.000223	2.229980	0.755538	0.000089
 333	3.3034e+01	13.2189	34.269227	0.000446	4.459961	1.511076	0.000179
 334	3.3133e+01	13.2670	34.349969	0.000203	2.027255	0.686853	0.000081
 335	3.3233e+01	13.2959	34.499343	0.000375	3.750422	1.270677	0.000150
 336	3.3333e+01	13.3360	34.580086	0.000203	2.027255	0.686853	0.000081
 337	3.3432e+01	13.3793	34.701200	0.000304	3.040882	1.030279	0.000122
 338	3.3532e+01	13.4210	34.806166	0.000264	2.635431	0.892908	0.000105
 339	3.3631e+01	13.4563	34.955540	0.000375	3.750422	1.270677	0.000150
 340	3.3730e+01	13.4980	35.064542	0.000274	2.736794	0.927251	0.000110
 341	3.3830e+01	13.5429	35.205842	0.000355	3.547696	1.201992	0.000142
 342	3.3929e+01	13.5830	35.326956	0.000304	3.040882	1.030279	0.000122
 343	3.4029e+01	13.6247	35.444033	0.000294	2.939520	0.995936	0.000118
 344	3.4129e+01	13.6665	35.593407	0.000375	3.750422	1.270677	0.000150
 345	3.4228e+01	13.7050	35.662039	0.000172	1.723167	0.583825	0.000069
 346	3.4328e+01	13.7419	35.815450	0.000385	3.851784	1.305020	0.000154
 347	3.4427e+01	13.7852	35.916378	0.000253	2.534069	0.858566	0.000101
 348	3.4526e+01	13.8205	36.049604	0.000334	3.344971	1.133307	0.000134
 349	3.4626e+01	13.8670	36.190903	0.000355	3.547696	1.201992	0.000142
 350	3.4725e+01	13.8975	36.312017	0.000304	3.040882	1.030279	0.000122
 351	3.4825e+01	13.9504	36.412946	0.000253	2.534069	0.858566	0.000101
 352	3.4925e+01	13.9761	36.558283	0.000365	3.649059	1.236335	0.000146
 353	3.5024e+01	14.0242	36.647100	0.000223	2.229980	0.755538	0.000089
 354	3.5123e+01	14.0579	36.796474	0.000375	3.750422	1.270677	0.000150
 355	3.5223e+01	14.1028	36.925662	0.000324	3.243608	1.098964	0.000130
 356	3.5322e+01	14.1349	37.054850	0.000324	3.243608	1.098964	0.000130
 357	3.5422e+01	14.1750	37.163853	0.000274	2.736794	0.927251	0.000110
 358	3.5522e+01	14.2199	37.276893	0.000284	2.838157	0.961594	0.000114
 359	3.5621e+01	14.2520	37.381858	0.000264	2.635431	0.892908	0.000105
 360	3.5721e+01	14.3033	37.519121	0.000345	3.446333	1.167649	0.000138
 361	3.5820e+01	14.3386	37.607938	0.000223	2.229980	0.755538	0.000089
 362	3.5919e+01	14.3739	37.785572	0.000446	4.459961	1.511076	0.000179
 363	3.6019e+01	14.4221	37.878426	0.000233	2.331343	0.789880	0.000093
 364	3.6118e+01	14.4590	37.999540	0.000304	3.040882	1.030279	0.000122
 365	3.6218e+01	14.4894	38.100469	0.000253	2.534069	0.858566	0.000101
 366	3.6318e+01	14.5376	38.249843	0.000375	3.750422	1.270677	0.000150
 367	3.6417e+01	14.5793	38.379031	0.000324	3.243608	1.098964	0.000130
 368	3.6517e+01	14.6226	38.471885	0.000233	2.331343	0.789880	0.000093
 369	3.6616e+01	14.6531	38.613185	0.000355	3.547696	1.201992	0.000142
 370	3.6715e+01	14.7012	38.738336	0.000314	3.142245	1.064621	0.000126
 371	3.6815e+01	14.7397	38.835227	0.000243	2.432706	0.824223	0.000097
 372	3.6914e+01	14.7750	38.944230	0.000274	2.736794	0.927251	0.000110
 373	3.7014e+01	14.8103	39.061307	0.000294	2.939520	0.995936	0.000118
 374	3.7114e+01	14.8600	39.214718	0.000385	3.851784	1.305020	0.000154
 375	3.7213e+01	14.8969	39.323721	0.000274	2.736794	0.927251	0.000110
 376	3.7313e+01	14.9354	39.460983	0.000345	3.446333	1.167649	0.000138
 377	3.7412e+01	14.9803	39.582097	0.000304	3.040882	1.030279	0.000122
 378	3.7511e+01	15.0092	39.658803	0.000193	1.925892	0.652510	0.000077
 379	3.7611e+01	15.0589	39.787991	0.000324	3.243608	1.098964	0.000130
 380	3.7711e+01	15.1006	39.949477	0.000405	4.054510	1.373705	0.000162
 381	3.7810e+01	15.1311	40.038294	0.000223	2.229980	0.755538	0.000089
 382	3.7910e+01	15.1712	40.151333	0.000284	2.838157	0.961594	0.000114
 383	3.8009e+01	15.2113	40.284559	0.000334	3.344971	1.133307	0.000134
 384	3.8108e+01	15.2627	40.397599	0.000284	2.838157	0.961594	0.000114
 385	3.8208e+01	15.2964	40.546973	0.000375	3.750422	1.270677	0.000150
 386	3.8307e+01	15.3365	40.664050	0.000294	2.939520	0.995936	0.000118
 387	3.8407e+01	15.3814	40.793238	0.000324	3.243608	1.098964	0.000130
 388	3.8507e+01	15.4103	40.922426	0.000324	3.243608	1.098964	0.000130
 389	3.8606e+01	15.4504	40.995095	0.000182	1.824529	0.618167	0.000073
 390	3.8706e+01	15.5001	41.124283	0.000324	3.243608	1.098964	0.000130
 391	3.8805e+01	15.5418	41.261546	0.000345	3.446333	1.167649	0.000138
 392	3.8904e+01	15.5835	41.362474	0.000253	2.534069	0.858566	0.000101
 393	3.9004e+01	15.6156	41.532034	0.000426	4.257235	1.442390	0.000170
 394	3.9103e+01	15.6573	41.612777	0.000203	2.027255	0.686853	0.000081
 395	3.9203e+01	15.6990	41.729854	0.000294	2.939520	0.995936	0.000118
 396	3.9303e+01	15.7375	41.863079	0.000334	3.344971	1.133307	0.000134
 397	3.9402e+01	15.7760	42.012453	0.000375	3.750422	1.270677	0.000150
 398	3.9502e+01	15.8161	42.101270	0.000223	2.229980	0.755538	0.000089
 399	3.9601e+01	15.8498	42.218347	0.000294	2.939520	0.995936	0.000118
 400	3.9700e+01	15.8947	42.331387	0.000284	2.838157	0.961594	0.000114
 401	3.9800e+01	15.9364	42.460575	0.000324	3.243608	1.098964	0.000130
 402	3.9900e+01	15.9605	42.557466	0.000243	2.432706	0.824223	0.000097
 403	3.9999e+01	16.0167	42.666469	0.000274	2.736794	0.927251	0.000110
 404	4.0099e+01	16.0552	42.860252	0.000487	4.865412	1.648446	0.000195
 405	4.0198e+01	16.0889	42.932920	0.000182	1.824529	0.618167	0.000073
 406	4.0297e+01	16.1241	43.082294	0.000375	3.750422	1.270677	0.000150
 407	4.0397e+01	16.1691	43.175148	0.000233	2.331343	0.789880	0.000093
 408	4.0496e+01	16.2092	43.263965	0.000223	2.229980	0.755538	0.000089
 409	4.0596e+01	16.2525	43.425451	0.000405	4.054510	1.373705	0.000162
 410	4.0696e+01	16.2862	43.546565	0.000304	3.040882	1.030279	0.000122
 411	4.0795e+01	16.3311	43.663642	0.000294	2.939520	0.995936	0.000118
 412	4.0895e+01	16.3744	43.712087	0.000122	1.216353	0.412112	0.000049
 413	4.0994e+01	16.4145	43.869535	0.000395	3.953147	1.339363	0.000158
 414	4.1093e+01	16.4498	44.014872	0.000365	3.649059	1.236335	0.000146
 415	4.1193e+01	16.4867	44.095615	0.000203	2.027255	0.686853	0.000081
 416	4.1292e+01	16.5332	44.216729	0.000304	3.040882	1.030279	0.000122
 417	4.1392e+01	16.5701	44.337843	0.000304	3.040882	1.030279	0.000122
 418	4.1492e+01	16.6054	44.487217	0.000375	3.750422	1.270677	0.000150
 419	4.1591e+01	16.6391	44.612368	0.000314	3.142245	1.064621	0.000126
 420	4.1691e+01	16.6936	44.709260	0.000243	2.432706	0.824223	0.000097
 421	4.1790e+01	16.7257	44.838448	0.000324	3.243608	1.098964	0.000130
 422	4.1889e+01	16.7739	44.947451	0.000274	2.736794	0.927251	0.000110
 423	4.1989e+01	16.8140	45.052416	0.000264	2.635431	0.892908	0.000105
 424	4.2089e+01	16.8525	45.165456	0.000284	2.838157	0.961594	0.000114
 425	4.2188e+01	16.8894	45.282533	0.000294	2.939520	0.995936	0.000118
 426	4.2288e+01	16.9327	45.423833	0.000355	3.547696	1.201992	0.000142
 427	4.2387e+01	16.9712	45.557058	0.000334	3.344971	1.133307	0.000134
 428	4.2486e+01	17.0129	45.625690	0.000172	1.723167	0.583825	0.000069
 429	4.2586e+01	17.0514	45.799286	0.000436	4.358598	1.476733	0.000174
 430	4.2685e+01	17.0947	45.875992	0.000193	1.925892	0.652510	0.000077
 431	4.2785e+01	17.1268	45.997106	0.000304	3.040882	1.030279	0.000122
 432	4.2885e+01	17.1669	46.118220	0.000304	3.040882	1.030279	0.000122
 433	4.2984e+01	17.2038	46.251446	0.000334	3.344971	1.133307	0.000134
 434	4.3084e+01	17.2375	46.352374	0.000253	2.534069	0.858566	0.000101
 435	4.3183e+01	17.2824	46.453302	0.000253	2.534069	0.858566	0.000101
 436	4.3282e+01	17.3273	46.582491	0.000324	3.243608	1.098964	0.000130
 437	4.3382e+01	17.3722	46.675345	0.000233	2.331343	0.789880	0.000093
 438	4.3481e+01	17.4043	46.816645	0.000355	3.547696	1.201992	0.000142
 439	4.3581e+01	17.4492	46.949870	0.000334	3.344971	1.133307	0.000134
 440	4.3681e+01	17.4877	47.099244	0.000375	3.750422	1.270677	0.000150
 441	4.3780e+01	17.5311	47.175950	0.000193	1.925892	0.652510	0.000077
 442	4.3880e+01	17.5663	47.301101	0.000314	3.142245	1.064621	0.000126
 443	4.3979e+01	17.6016	47.402029	0.000253	2.534069	0.858566	0.000101
 444	4.4078e+01	17.6530	47.519106	0.000294	2.939520	0.995936	0.000118
 445	4.4178e+01	17.6931	47.632146	0.000284	2.838157	0.961594	0.000114
 446	4.4278e+01	17.7155	47.757297	0.000314	3.142245	1.064621	0.000126
 447	4.4377e+01	17.7685	47.906671	0.000375	3.750422	1.270677	0.000150
 448	4.4477e+01	17.8118	47.963191	0.000142	1.419078	0.480797	0.000057
 449	4.4576e+01	17.8439	48.076231	0.000284	2.838157	0.961594	0.000114
 450	4.4675e+01	17.8776	48.253865	0.000446	4.459961	1.511076	0.000179
 451	4.4775e+01	17.9257	48.362868	0.000274	2.736794	0.927251	0.000110
 452	4.4874e+01	17.9674	48.459759	0.000243	2.432706	0.824223	0.000097
 453	4.4974e+01	18.0091	48.609133	0.000375	3.750422	1.270677	0.000150
 454	4.5074e+01	18.0476	48.734284	0.000314	3.142245	1.064621	0.000126
 455	4.5173e+01	18.0813	48.839250	0.000264	2.635431	0.892908	0.000105
 456	4.5273e+01	18.1214	48.940178	0.000253	2.534069	0.858566	0.000101
 457	4.5372e+01	18.1599	49.121849	0.000456	4.561324	1.545418	0.000183
 458	4.5471e+01	18.2129	49.190480	0.000172	1.723167	0.583825	0.000069
 459	4.5571e+01	18.2433	49.331780	0.000355	3.547696	1.201992	0.000142
 460	4.5670e+01	18.2850	49.440783	0.000274	2.736794	0.927251	0.000110
 461	4.5770e+01	18.3219	49.574008	0.000334	3.344971	1.133307	0.000134
 462	4.5870e+01	18.3588	49.662825	0.000223	2.229980	0.755538	0.000089
 463	4.5969e+01	18.4054	49.840459	0.000446	4.459961	1.511076	0.000179
 464	4.6069e+01	18.4455	49.933313	0.000233	2.331343	0.789880	0.000093
 465	4.6168e+01	18.4824	50.046353	0.000284	2.838157	0.961594	0.000114
 466	4.6267e+01	18.5257	50.179579	0.000334	3.344971	1.133307	0.000134
 467	4.6367e+01	18.5626	50.256284	0.000193	1.925892	0.652510	0.000077
 468	4.6467e+01	18.5979	50.401621	0.000365	3.649059	1.236335	0.000146
 469	4.6566e+01	18.6428	50.567144	0.000416	4.155873	1.408048	0.000166
 470	4.6666e+01	18.6813	50.655961	0.000223	2.229980	0.755538	0.000089
 471	4.6765e+01	18.7294	50.752852	0.000243	2.432706	0.824223	0.000097
 472	4.6864e+01	18.7679	50.898189	0.000365	3.649059	1.236335	0.000146
 473	4.6964e+01	18.7968	50.987006	0.000223	2.229980	0.755538	0.000089
 474	4.7063e+01	18.8465	51.148491	0.000405	4.054510	1.373705	0.000162
 475	4.7163e+01	18.8818	51.257494	0.000274	2.736794	0.927251	0.000110
 476	4.7263e+01	18.9187	51.342274	0.000213	2.128618	0.721195	0.000085
 477	4.7362e+01	18.9636	51.491648	0.000375	3.750422	1.270677	0.000150
 478	4.7462e+01	19.0037	51.580465	0.000223	2.229980	0.755538	0.000089
 479	4.7561e+01	19.0358	51.741950	0.000405	4.054510	1.373705	0.000162
 480	4.7660e+01	19.0823	51.838841	0.000243	2.432706	0.824223	0.000097
 481	4.7760e+01	19.1144	51.943807	0.000264	2.635431	0.892908	0.000105
 482	4.7859e+01	19.1610	52.121441	0.000446	4.459961	1.511076	0.000179
 483	4.7959e+01	19.1962	52.234481	0.000284	2.838157	0.961594	0.000114
 484	4.8059e+01	19.2396	52.347521	0.000284	2.838157	0.961594	0.000114
 485	4.8158e+01	19.2829	52.480746	0.000334	3.344971	1.133307	0.000134
 486	4.8258e+01	19.3230	52.573600	0.000233	2.331343	0.789880	0.000093
 487	4.8357e+01	19.3599	52.743160	0.000426	4.257235	1.442390	0.000170
 488	4.8456e+01	19.4032	52.836014	0.000233	2.331343	0.789880	0.000093
 489	4.8556e+01	19.4353	52.945017	0.000274	2.736794	0.927251	0.000110
 490	4.8656e+01	19.4786	53.029796	0.000213	2.128618	0.721195	0.000085
 491	4.8755e+01	19.5235	53.187245	0.000395	3.953147	1.339363	0.000158
 492	4.8855e+01	19.5556	53.308359	0.000304	3.040882	1.030279	0.000122
 493	4.8954e+01	19.5989	53.445621	0.000345	3.446333	1.167649	0.000138
 494	4.9053e+01	19.6342	53.558661	0.000284	2.838157	0.961594	0.000114
 495	4.9153e+01	19.6791	53.679775	0.000304	3.040882	1.030279	0.000122
 496	4.9252e+01	19.7192	53.833186	0.000385	3.851784	1.305020	0.000154
 497	4.9352e+01	19.7545	53.970449	0.000345	3.446333	1.167649	0.000138
 498	4.9452e+01	19.7994	54.055229	0.000213	2.128618	0.721195	0.000085
 499	4.9551e+01	19.8363	54.184417	0.000324	3.243608	1.098964	0.000130
 500	4.9651e+01	19.8780	54.329754	0.000365	3.649059	1.236335	0.000146
 501	4.9750e+01	19.9166	54.462980	0.000334	3.344971	1.133307	0.000134
 502	4.9849e+01	19.9518	54.596205	0.000334	3.344971	1.133307	0.000134
 503	4.9949e+01	19.9984	54.725393	0.000324	3.243608	1.098964	0.000130
 504	5.0048e+01	19.9534	54.596205	0.000324	3.243608	1.098964	-0.000130
 505	5.0148e+01	19.9149	54.567945	0.000071	0.709539	0.240398	-0.000028
 506	5.0248e+01	19.8780	54.483165	0.000213	2.128618	0.721195	-0.000085
 507	5.0347e+01	19.8412	54.434720	0.000122	1.216353	0.412112	-0.000049
 508	5.0447e+01	19.7994	54.349940	0.000213	2.128618	0.721195	-0.000085
 509	5.0546e+01	19.7641	54.293420	0.000142	1.419078	0.480797	-0.000057
 510	5.0645e+01	19.7176	54.196529	0.000243	2.432706	0.824223	-0.000097
 511	5.0745e+01	19.6727	54.135972	0.000152	1.520441	0.515139	-0.000061
 512	5.0844e+01	19.6326	54.031006	0.000264	2.635431	0.892908	-0.000105
 513	5.0944e+01	19.6005	53.982561	0.000122	1.216353	0.412112	-0.000049
 514	5.1044e+01	19.5556	53.909892	0.000182	1.824529	0.618167	-0.000073
 515	5.1143e+01	19.5219	53.772629	0.000345	3.446333	1.167649	-0.000138
 516	5.1242e+01	19.4802	53.740332	0.000081	0.810902	0.274741	-0.000032
 517	5.1342e+01	19.4337	53.627293	0.000284	2.838157	0.961594	-0.000114
 518	5.1441e+01	19.3904	53.607107	0.000051	0.506814	0.171713	-0.000020
 519	5.1541e+01	19.3599	53.490030	0.000294	2.939520	0.995936	-0.000118
 520	5.1641e+01	19.3198	53.413324	0.000193	1.925892	0.652510	-0.000077
 521	5.1740e+01	19.2861	53.296247	0.000294	2.939520	0.995936	-0.000118
 522	5.1840e+01	19.2476	53.251839	0.000111	1.114990	0.377769	-0.000045
 523	5.1939e+01	19.2059	53.183208	0.000172	1.723167	0.583825	-0.000069
 524	5.2038e+01	19.1561	53.082279	0.000253	2.534069	0.858566	-0.000101
 525	5.2138e+01	19.1241	52.985388	0.000243	2.432706	0.824223	-0.000097
 526	5.2237e+01	19.0759	52.908682	0.000193	1.925892	0.652510	-0.000077
 527	5.2337e+01	19.0422	52.767383	0.000355	3.547696	1.201992	-0.000142
 528	5.2437e+01	18.9973	52.682603	0.000213	2.128618	0.721195	-0.000085
 529	5.2536e+01	18.9684	52.601860	0.000203	2.027255	0.686853	-0.000081
 530	5.2636e+01	18.9299	52.529192	0.000182	1.824529	0.618167	-0.000073
 531	5.2735e+01	18.8770	52.492857	0.000091	0.912265	0.309084	-0.000037
 532	5.2834e+01	18.8385	52.367706	0.000314	3.142245	1.064621	-0.000126
 533	5.2934e+01	18.8016	52.262741	0.000264	2.635431	0.892908	-0.000105
 534	5.3033e+01	18.7679	52.157775	0.000264	2.635431	0.892908	-0.000105
 535	5.3133e+01	18.7182	52.109330	0.000122	1.216353	0.412112	-0.000049
 536	5.3233e+01	18.6829	52.008401	0.000253	2.534069	0.858566	-0.000101
 537	5.3332e+01	18.6396	51.895361	0.000284	2.838157	0.961594	-0.000114
 538	5.3431e+01	18.6011	51.842879	0.000132	1.317716	0.446454	-0.000053
 539	5.3531e+01	18.5658	51.741950	0.000253	2.534069	0.858566	-0.000101
 540	5.3630e+01	18.5257	51.673319	0.000172	1.723167	0.583825	-0.000069
 541	5.3730e+01	18.4872	51.576428	0.000243	2.432706	0.824223	-0.000097
 542	5.3830e+01	18.4439	51.491648	0.000213	2.128618	0.721195	-0.000085
 543	5.3929e+01	18.3989	51.382645	0.000274	2.736794	0.927251	-0.000110
 544	5.4029e+01	18.3669	51.293828	0.000223	2.229980	0.755538	-0.000089
 545	5.4128e+01	18.3252	51.184825	0.000274	2.736794	0.927251	-0.000110
 546	5.4227e+01	18.2802	51.108120	0.000193	1.925892	0.652510	-0.000077
 547	5.4327e+01	18.2401	51.007191	0.000253	2.534069	0.858566	-0.000101
 548	5.4426e+01	18.2032	50.942597	0.000162	1.621804	0.549482	-0.000065
 549	5.4526e+01	18.1599	50.845706	0.000243	2.432706	0.824223	-0.000097
 550	5.4626e+01	18.1214	50.777075	0.000172	1.723167	0.583825	-0.000069
 551	5.4725e+01	18.0974	50.623664	0.000385	3.851784	1.305020	-0.000154
 552	5.4825e+01	18.0444	50.563107	0.000152	1.520441	0.515139	-0.000061
 553	5.4924e+01	18.0059	50.470252	0.000233	2.331343	0.789880	-0.000093
 554	5.5023e+01	17.9562	50.377398	0.000233	2.331343	0.789880	-0.000093
 555	5.5123e+01	17.9225	50.264359	0.000284	2.838157	0.961594	-0.000114
 556	5.5222e+01	17.8936	50.195727	0.000172	1.723167	0.583825	-0.000069
 557	5.5322e+01	17.8359	50.102873	0.000233	2.331343	0.789880	-0.000093
 558	5.5422e+01	17.8086	50.018093	0.000213	2.128618	0.721195	-0.000085
 559	5.5521e+01	17.7685	49.941388	0.000193	1.925892	0.652510	-0.000077
 560	5.5620e+01	17.7155	49.816236	0.000314	3.142245	1.064621	-0.000126
 561	5.5720e+01	17.6883	49.707234	0.000274	2.736794	0.927251	-0.000110
 562	5.5819e+01	17.6417	49.646677	0.000152	1.520441	0.515139	-0.000061
 563	5.5919e+01	17.6145	49.553823	0.000233	2.331343	0.789880	-0.000093
 564	5.6019e+01	17.5631	49.436746	0.000294	2.939520	0.995936	-0.000118
 565	5.6118e+01	17.5246	49.368114	0.000172	1.723167	0.583825	-0.000069
 566	5.6218e+01	17.4974	49.279297	0.000223	2.229980	0.755538	-0.000089
 567	5.6317e+01	17.4476	49.162220	0.000294	2.939520	0.995936	-0.000118
 568	5.6416e+01	17.4075	49.097626	0.000162	1.621804	0.549482	-0.000065
 569	5.6516e+01	17.3658	48.952289	0.000365	3.649059	1.236335	-0.000146
 570	5.6615e+01	17.3257	48.871547	0.000203	2.027255	0.686853	-0.000081
 571	5.6715e+01	17.2904	48.782730	0.000223	2.229980	0.755538	-0.000089
 572	5.6815e+01	17.2471	48.697950	0.000213	2.128618	0.721195	-0.000085
 573	5.6914e+01	17.2054	48.544539	0.000385	3.851784	1.305020	-0.000154
 574	5.7014e+01	17.1621	48.463796	0.000203	2.027255	0.686853	-0.000081
 575	5.7113e+01	17.1268	48.387090	0.000193	1.925892	0.652510	-0.000077
 576	5.7212e+01	17.0867	48.282125	0.000264	2.635431	0.892908	-0.000105
 577	5.7312e+01	17.0450	48.161011	0.000304	3.040882	1.030279	-0.000122
 578	5.7411e+01	17.0145	48.084305	0.000193	1.925892	0.652510	-0.000077
 579	5.7511e+01	16.9712	47.995488	0.000223	2.229980	0.755538	-0.000089
 580	5.7611e+01	16.9327	47.898597	0.000243	2.432706	0.824223	-0.000097
 581	5.7710e+01	16.8846	47.777483	0.000304	3.040882	1.030279	-0.000122
 582	5.7809e+01	16.8509	47.676554	0.000253	2.534069	0.858566	-0.000101
 583	5.7909e+01	16.8140	47.587738	0.000223	2.229980	0.755538	-0.000089
 584	5.8008e+01	16.7739	47.478735	0.000274	2.736794	0.927251	-0.000110
 585	5.8108e+01	16.7321	47.381844	0.000243	2.432706	0.824223	-0.000097
 586	5.8208e+01	16.6872	47.276878	0.000264	2.635431	0.892908	-0.000105
 587	5.8307e+01	16.6503	47.224395	0.000132	1.317716	0.446454	-0.000053
 588	5.8407e+01	16.6215	47.095207	0.000324	3.243608	1.098964	-0.000130
 589	5.8506e+01	16.5701	46.978130	0.000294	2.939520	0.995936	-0.000118
 590	5.8605e+01	16.5332	46.877202	0.000253	2.534069	0.858566	-0.000101
 591	5.8705e+01	16.4819	46.764162	0.000284	2.838157	0.961594	-0.000114
 592	5.8804e+01	16.4594	46.655159	0.000274	2.736794	0.927251	-0.000110
 593	5.8904e+01	16.4113	46.594602	0.000152	1.520441	0.515139	-0.000061
 594	5.9004e+01	16.3744	46.445228	0.000375	3.750422	1.270677	-0.000150
 595	5.9103e+01	16.3295	46.348337	0.000243	2.432706	0.824223	-0.000097
 596	5.9203e+01	16.2894	46.243371	0.000264	2.635431	0.892908	-0.000105
 597	5.9302e+01	16.2573	46.162629	0.000203	2.027255	0.686853	-0.000081
 598	5.9401e+01	16.2011	46.033440	0.000324	3.243608	1.098964	-0.000130
 599	5.9501e+01	16.1610	45.972883	0.000152	1.520441	0.515139	-0.000061
 600	5.9600e+01	16.1274	45.839658	0.000334	3.344971	1.133307	-0.000134
 601	5.9700e+01	16.0953	45.758915	0.000203	2.027255	0.686853	-0.000081
 602	5.9800e+01	16.0520	45.662024	0.000243	2.432706	0.824223	-0.000097
 603	5.9899e+01	16.0102	45.540910	0.000304	3.040882	1.030279	-0.000122
 604	5.9998e+01	15.9750	45.403647	0.000345	3.446333	1.167649	-0.000138
 605	6.0098e+01	15.9364	45.310793	0.000233	2.331343	0.789880	-0.000093
 606	6.0197e+01	15.8947	45.185642	0.000314	3.142245	1.064621	-0.000126
 607	6.0297e+01	15.8514	45.149308	0.000091	0.912265	0.309084	-0.000037
 608	6.0397e+01	15.8209	45.008008	0.000355	3.547696	1.201992	-0.000142
 609	6.0496e+01	15.7728	44.894968	0.000284	2.838157	0.961594	-0.000114
 610	6.0596e+01	15.7327	44.818262	0.000193	1.925892	0.652510	-0.000077
 611	6.0695e+01	15.6878	44.689074	0.000324	3.243608	1.098964	-0.000130
 612	6.0794e+01	15.6509	44.600257	0.000223	2.229980	0.755538	-0.000089
 613	6.0894e+01	15.6172	44.442809	0.000395	3.953147	1.339363	-0.000158
 614	6.0993e+01	15.5739	44.341880	0.000253	2.534069	0.858566	-0.000101
 615	6.1093e+01	15.5274	44.285360	0.000142	1.419078	0.480797	-0.000057
 616	6.1193e+01	15.5001	44.168284	0.000294	2.939520	0.995936	-0.000118
 617	6.1292e+01	15.4568	44.083504	0.000213	2.128618	0.721195	-0.000085
 618	6.1392e+01	15.4103	43.970464	0.000284	2.838157	0.961594	-0.000114
 619	6.1491e+01	15.3750	43.877610	0.000233	2.331343	0.789880	-0.000093
 620	6.1590e+01	15.3349	43.760533	0.000294	2.939520	0.995936	-0.000118
 621	6.1690e+01	15.2883	43.647493	0.000284	2.838157	0.961594	-0.000114
 622	6.1789e+01	15.2579	43.534453	0.000284	2.838157	0.961594	-0.000114
 623	6.1889e+01	15.2065	43.441599	0.000233	2.331343	0.789880	-0.000093
 624	6.1989e+01	15.1744	43.336634	0.000264	2.635431	0.892908	-0.000105
 625	6.2088e+01	15.1295	43.243779	0.000233	2.331343	0.789880	-0.000093
 626	6.2188e+01	15.0974	43.130740	0.000284	2.838157	0.961594	-0.000114
 627	6.2287e+01	15.0429	43.009626	0.000304	3.040882	1.030279	-0.000122
 628	6.2386e+01	15.0140	42.856214	0.000385	3.851784	1.305020	-0.000154
 629	6.2486e+01	14.9739	42.807769	0.000122	1.216353	0.412112	-0.000049
 630	6.2586e+01	14.9402	42.694729	0.000284	2.838157	0.961594	-0.000114
 631	6.2685e+01	14.8937	42.601875	0.000233	2.331343	0.789880	-0.000093
 632	6.2785e+01	14.8584	42.440389	0.000405	4.054510	1.373705	-0.000162
 633	6.2884e+01	14.8215	42.343498	0.000243	2.432706	0.824223	-0.000097
 634	6.2983e+01	14.7718	42.282941	0.000152	1.520441	0.515139	-0.000061
 635	6.3083e+01	14.7397	42.186050	0.000243	2.432706	0.824223	-0.000097
 636	6.3182e+01	14.6996	42.073010	0.000284	2.838157	0.961594	-0.000114
 637	6.3282e+01	14.6595	41.903450	0.000426	4.257235	1.442390	-0.000170
 638	6.3382e+01	14.6130	41.859042	0.000111	1.114990	0.377769	-0.000045
 639	6.3481e+01	14.5761	41.770225	0.000223	2.229980	0.755538	-0.000089
 640	6.3581e+01	14.5440	41.649111	0.000304	3.040882	1.030279	-0.000122
 641	6.3680e+01	14.4991	41.523960	0.000314	3.142245	1.064621	-0.000126
 642	6.3779e+01	14.4525	41.410920	0.000284	2.838157	0.961594	-0.000114
 643	6.3879e+01	14.4172	41.326140	0.000213	2.128618	0.721195	-0.000085
 644	6.3978e+01	14.3739	41.221174	0.000264	2.635431	0.892908	-0.000105
 645	6.4078e+01	14.3370	41.108135	0.000284	2.838157	0.961594	-0.000114
 646	6.4177e+01	14.2889	40.954723	0.000385	3.851784	1.305020	-0.000154
 647	6.4277e+01	14.2600	40.853795	0.000253	2.534069	0.858566	-0.000101
 648	6.4376e+01	14.2199	40.781127	0.000182	1.824529	0.618167	-0.000073
 649	6.4476e+01	14.1798	40.672124	0.000274	2.736794	0.927251	-0.000110
 650	6.4576e+01	14.1429	40.518713	0.000385	3.851784	1.305020	-0.000154
 651	6.4675e+01	14.0980	40.421822	0.000243	2.432706	0.824223	-0.000097
 652	6.4775e+01	14.0659	40.337042	0.000213	2.128618	0.721195	-0.000085
 653	6.4874e+01	14.0194	40.215928	0.000304	3.040882	1.030279	-0.000122
 654	6.4974e+01	13.9857	40.155371	0.000152	1.520441	0.515139	-0.000061
 655	6.5073e+01	13.9424	40.058479	0.000243	2.432706	0.824223	-0.000097
 656	6.5172e+01	13.9007	39.917180	0.000355	3.547696	1.201992	-0.000142
 657	6.5272e+01	13.8606	39.820288	0.000243	2.432706	0.824223	-0.000097
 658	6.5371e+01	13.8205	39.719360	0.000253	2.534069	0.858566	-0.000101
 659	6.5471e+01	13.7884	39.626506	0.000233	2.331343	0.789880	-0.000093
 660	6.5570e+01	13.7403	39.485206	0.000355	3.547696	1.201992	-0.000142
 661	6.5670e+01	13.7034	39.380241	0.000264	2.635431	0.892908	-0.000105
 662	6.5769e+01	13.6616	39.259126	0.000304	3.040882	1.030279	-0.000122
 663	6.5869e+01	13.6199	39.162235	0.000243	2.432706	0.824223	-0.000097
 664	6.5969e+01	13.5798	39.085530	0.000193	1.925892	0.652510	-0.000077
 665	6.6068e+01	13.5413	38.952304	0.000334	3.344971	1.133307	-0.000134
 666	6.6168e+01	13.5044	38.851376	0.000253	2.534069	0.858566	-0.000101
 667	6.6267e+01	13.4611	38.726225	0.000314	3.142245	1.064621	-0.000126
 668	6.6367e+01	13.4306	38.645482	0.000203	2.027255	0.686853	-0.000081
 669	6.6466e+01	13.3921	38.532442	0.000284	2.838157	0.961594	-0.000114
 670	6.6566e+01	13.3504	38.471885	0.000152	1.520441	0.515139	-0.000061
 671	6.6665e+01	13.3007	38.342697	0.000324	3.243608	1.098964	-0.000130
 672	6.6764e+01	13.2654	38.241768	0.000253	2.534069	0.858566	-0.000101
 673	6.6864e+01	13.2093	38.124691	0.000294	2.939520	0.995936	-0.000118
 674	6.6963e+01	13.1900	37.991466	0.000334	3.344971	1.133307	-0.000134
 675	6.7063e+01	13.1435	37.918797	0.000182	1.824529	0.618167	-0.000073
 676	6.7162e+01	13.1098	37.813832	0.000264	2.635431	0.892908	-0.000105
 677	6.7262e+01	13.0649	37.733089	0.000203	2.027255	0.686853	-0.000081
 678	6.7362e+01	13.0232	37.583715	0.000375	3.750422	1.270677	-0.000150
 679	6.7461e+01	12.9831	37.531232	0.000132	1.317716	0.446454	-0.000053
 680	6.7561e+01	12.9397	37.389933	0.000355	3.547696	1.201992	-0.000142
 681	6.7660e+01	12.9093	37.272856	0.000294	2.939520	0.995936	-0.000118
 682	6.7760e+01	12.8724	37.204224	0.000172	1.723167	0.583825	-0.000069
 683	6.7859e+01	12.8226	37.087147	0.000294	2.939520	0.995936	-0.000118
 684	6.7959e+01	12.7970	36.970071	0.000294	2.939520	0.995936	-0.000118
 685	6.8058e+01	12.7520	36.848956	0.000304	3.040882	1.030279	-0.000122
 686	6.8157e+01	12.7200	36.780325	0.000172	1.723167	0.583825	-0.000069
 687	6.8257e+01	12.6766	36.683434	0.000243	2.432706	0.824223	-0.000097
 688	6.8356e+01	12.6253	36.570394	0.000284	2.838157	0.961594	-0.000114
 689	6.8456e+01	12.5852	36.449280	0.000304	3.040882	1.030279	-0.000122
 690	6.8555e+01	12.5483	36.364500	0.000213	2.128618	0.721195	-0.000085
 691	6.8655e+01	12.5066	36.247423	0.000294	2.939520	0.995936	-0.000118
 692	6.8754e+01	12.4681	36.166681	0.000203	2.027255	0.686853	-0.000081
 693	6.8854e+01	12.4360	36.029418	0.000345	3.446333	1.167649	-0.000138
 694	6.8954e+01	12.3847	35.904267	0.000314	3.142245	1.064621	-0.000126
 695	6.9053e+01	12.3558	35.839673	0.000162	1.621804	0.549482	-0.000065
 696	6.9153e+01	12.3093	35.706447	0.000334	3.344971	1.133307	-0.000134
 697	6.9252e+01	12.2724	35.605519	0.000253	2.534069	0.858566	-0.000101
 698	6.9352e+01	12.2291	35.460182	0.000365	3.649059	1.236335	-0.000146
 699	6.9451e+01	12.1841	35.359253	0.000253	2.534069	0.858566	-0.000101
 700	6.9550e+01	12.1553	35.266399	0.000233	2.331343	0.789880	-0.000093
 701	6.9650e+01	12.1071	35.141248	0.000314	3.142245	1.064621	-0.000126
 702	6.9749e+01	12.0719	35.040320	0.000253	2.534069	0.858566	-0.000101
 703	6.9849e+01	12.0301	34.927280	0.000284	2.838157	0.961594	-0.000114
 704	6.9948e+01	11.9884	34.866723	0.000152	1.520441	0.515139	-0.000061
 705	7.0048e+01	11.9596	34.757720	0.000274	2.736794	0.927251	-0.000110
 706	7.0147e+01	11.9130	34.596235	0.000405	4.054510	1.373705	-0.000162
 707	7.0247e+01	11.8745	34.523566	0.000182	1.824529	0.618167	-0.000073
 708	7.0347e+01	11.8280	34.414564	0.000274	2.736794	0.927251	-0.000110
 709	7.0446e+01	11.7959	34.297487	0.000294	2.939520	0.995936	-0.000118
 710	7.0546e+01	11.7478	34.148113	0.000375	3.750422	1.270677	-0.000150
 711	7.0645e+01	11.7173	34.071407	0.000193	1.925892	0.652510	-0.000077
 712	7.0745e+01	11.6724	33.950293	0.000304	3.040882	1.030279	-0.000122
 713	7.0844e+01	11.6275	33.869550	0.000203	2.027255	0.686853	-0.000081
 714	7.0944e+01	11.5970	33.748436	0.000304	3.040882	1.030279	-0.000122
 715	7.1043e+01	11.5569	33.663656	0.000213	2.128618	0.721195	-0.000085
 716	7.1142e+01	11.5120	33.562728	0.000253	2.534069	0.858566	-0.000101
 717	7.1242e+01	11.4751	33.425465	0.000345	3.446333	1.167649	-0.000138
 718	7.1341e+01	11.4414	33.308388	0.000294	2.939520	0.995936	-0.000118
 719	7.1441e+01	11.3901	33.195349	0.000284	2.838157	0.961594	-0.000114
 720	7.1540e+01	11.3483	33.094420	0.000253	2.534069	0.858566	-0.000101
 721	7.1640e+01	11.3082	32.973306	0.000304	3.040882	1.030279	-0.000122
 722	7.1740e+01	11.2649	32.904675	0.000172	1.723167	0.583825	-0.000069
 723	7.1839e+01	11.2344	32.751264	0.000385	3.851784	1.305020	-0.000154
 724	7.1939e+01	11.1863	32.710892	0.000101	1.013627	0.343426	-0.000041
 725	7.2038e+01	11.1510	32.573630	0.000345	3.446333	1.167649	-0.000138
 726	7.2138e+01	11.1157	32.460590	0.000284	2.838157	0.961594	-0.000114
 727	7.2237e+01	11.0740	32.323327	0.000345	3.446333	1.167649	-0.000138
 728	7.2337e+01	11.0323	32.234510	0.000223	2.229980	0.755538	-0.000089
 729	7.2436e+01	10.9986	32.153768	0.000203	2.027255	0.686853	-0.000081
 730	7.2535e+01	10.9489	32.008431	0.000365	3.649059	1.236335	-0.000146
 731	7.2635e+01	10.8976	31.931725	0.000193	1.925892	0.652510	-0.000077
 732	7.2734e+01	10.8735	31.790425	0.000355	3.547696	1.201992	-0.000142
 733	7.2834e+01	10.8366	31.693534	0.000243	2.432706	0.824223	-0.000097
 734	7.2933e+01	10.7933	31.596643	0.000243	2.432706	0.824223	-0.000097
 735	7.3033e+01	10.7612	31.479566	0.000294	2.939520	0.995936	-0.000118
 736	7.3132e+01	10.7131	31.350378	0.000324	3.243608	1.098964	-0.000130
 737	7.3232e+01	10.6794	31.261561	0.000223	2.229980	0.755538	-0.000089
 738	7.3332e+01	10.6393	31.116224	0.000365	3.649059	1.236335	-0.000146
 739	7.3431e+01	10.5879	31.023370	0.000233	2.331343	0.789880	-0.000093
 740	7.3531e+01	10.5510	30.890144	0.000334	3.344971	1.133307	-0.000134
 741	7.3630e+01	10.5125	30.756919	0.000334	3.344971	1.133307	-0.000134
 742	7.3730e+01	10.4740	30.660027	0.000243	2.432706	0.824223	-0.000097
 743	7.3829e+01	10.4371	30.571210	0.000223	2.229980	0.755538	-0.000089
 744	7.3928e+01	10.3842	30.490468	0.000203	2.027255	0.686853	-0.000081
 745	7.4028e+01	10.3585	30.304759	0.000466	4.662686	1.579761	-0.000187
 746	7.4127e+01	10.3168	30.179608	0.000314	3.142245	1.064621	-0.000126
 747	7.4227e+01	10.2799	30.082717	0.000243	2.432706	0.824223	-0.000097
 748	7.4326e+01	10.2382	30.014086	0.000172	1.723167	0.583825	-0.000069
 749	7.4426e+01	10.2013	29.888934	0.000314	3.142245	1.064621	-0.000126
 750	7.4525e+01	10.1580	29.800117	0.000223	2.229980	0.755538	-0.000089
 751	7.4625e+01	10.1179	29.666892	0.000334	3.344971	1.133307	-0.000134
 752	7.4725e+01	10.0698	29.574038	0.000233	2.331343	0.789880	-0.000093
 753	7.4824e+01	10.0409	29.477147	0.000243	2.432706	0.824223	-0.000097
 754	7.4924e+01	9.9976	29.327773	0.000375	3.750422	1.270677	-0.000150
 755	7.5023e+01	9.9607	29.182436	0.000365	3.649059	1.236335	-0.000146
 756	7.5123e+01	9.9190	29.073433	0.000274	2.736794	0.927251	-0.000110
 757	7.5222e+01	9.8901	28.972505	0.000253	2.534069	0.858566	-0.000101
 758	7.5322e+01	9.8484	28.859465	0.000284	2.838157	0.961594	-0.000114
 759	7.5421e+01	9.8019	28.722202	0.000345	3.446333	1.167649	-0.000138
 760	7.5520e+01	9.7505	28.617237	0.000264	2.635431	0.892908	-0.000105
 761	7.5620e+01	9.7152	28.500160	0.000294	2.939520	0.995936	-0.000118
 762	7.5719e+01	9.6767	28.375009	0.000314	3.142245	1.064621	-0.000126
 763	7.5819e+01	9.6350	28.294266	0.000203	2.027255	0.686853	-0.000081
 764	7.5918e+01	9.6013	28.165077	0.000324	3.243608	1.098964	-0.000130
 765	7.6018e+01	9.5548	28.072223	0.000233	2.331343	0.789880	-0.000093
 766	7.6118e+01	9.5163	27.926886	0.000365	3.649059	1.236335	-0.000146
 767	7.6217e+01	9.4778	27.809810	0.000294	2.939520	0.995936	-0.000118
 768	7.6317e+01	9.4425	27.692733	0.000294	2.939520	0.995936	-0.000118
 769	7.6416e+01	9.4040	27.587767	0.000264	2.635431	0.892908	-0.000105
 770	7.6516e+01	9.3591	27.454542	0.000334	3.344971	1.133307	-0.000134
 771	7.6615e+01	9.3206	27.377836	0.000193	1.925892	0.652510	-0.000077
 772	7.6715e+01	9.2869	27.224425	0.000385	3.851784	1.305020	-0.000154
 773	7.6814e+01	9.2452	27.087162	0.000345	3.446333	1.167649	-0.000138
 774	7.6913e+01	9.1971	26.966048	0.000304	3.040882	1.030279	-0.000122
 775	7.7013e+01	9.1554	26.873194	0.000233	2.331343	0.789880	-0.000093
 776	7.7112e+01	9.1136	26.776303	0.000243	2.432706	0.824223	-0.000097
 777	7.7212e+01	9.0784	26.647114	0.000324	3.243608	1.098964	-0.000130
 778	7.7311e+01	9.0431	26.534075	0.000284	2.838157	0.961594	-0.000114
 779	7.7411e+01	8.9997	26.400849	0.000334	3.344971	1.133307	-0.000134
 780	7.7510e+01	8.9628	26.307995	0.000233	2.331343	0.789880	-0.000093
 781	7.7610e+01	8.9276	26.170732	0.000345	3.446333	1.167649	-0.000138
 782	7.7710e+01	8.8826	26.077878	0.000233	2.331343	0.789880	-0.000093
 783	7.7809e+01	8.8409	25.936579	0.000355	3.547696	1.201992	-0.000142
 784	7.7909e+01	8.8008	25.827576	0.000274	2.736794	0.927251	-0.000110
 785	7.8008e+01	8.7607	25.726647	0.000253	2.534069	0.858566	-0.000101
 786	7.8108e+01	8.7174	25.593422	0.000334	3.344971	1.133307	-0.000134
 787	7.8207e+01	8.6837	25.504605	0.000223	2.229980	0.755538	-0.000089
 788	7.8306e+01	8.6420	25.399639	0.000264	2.635431	0.892908	-0.000105
 789	7.8406e+01	8.6035	25.254303	0.000365	3.649059	1.236335	-0.000146
 790	7.8505e+01	8.5650	25.165486	0.000223	2.229980	0.755538	-0.000089
 791	7.8605e+01	8.5313	25.024186	0.000355	3.547696	1.201992	-0.000142
 792	7.8704e+01	8.4816	24.878849	0.000365	3.649059	1.236335	-0.000146
 793	7.8804e+01	8.4447	24.822329	0.000142	1.419078	0.480797	-0.000057
 794	7.8903e+01	8.4078	24.681029	0.000355	3.547696	1.201992	-0.000142
 795	7.9003e+01	8.3629	24.543767	0.000345	3.446333	1.167649	-0.000138
 796	7.9103e+01	8.3292	24.479173	0.000162	1.621804	0.549482	-0.000065
 797	7.9202e+01	8.2794	24.345947	0.000334	3.344971	1.133307	-0.000134
 798	7.9302e+01	8.2377	24.196573	0.000375	3.750422	1.270677	-0.000150
 799	7.9401e+01	8.2040	24.111793	0.000213	2.128618	0.721195	-0.000085
 800	7.9501e+01	8.1591	24.014902	0.000243	2.432706	0.824223	-0.000097
 801	7.9600e+01	8.1222	23.849379	0.000416	4.155873	1.408048	-0.000166
 802	7.9700e+01	8.0805	23.752488	0.000243	2.432706	0.824223	-0.000097
 803	7.9799e+01	8.0420	23.655597	0.000243	2.432706	0.824223	-0.000097
 804	7.9898e+01	8.0019	23.526409	0.000324	3.243608	1.098964	-0.000130
 805	7.9998e+01	7.9586	23.437592	0.000223	2.229980	0.755538	-0.000089
 806	8.0097e+01	7.9233	23.280143	0.000395	3.953147	1.339363	-0.000158
 807	8.0197e+01	7.8848	23.175178	0.000264	2.635431	0.892908	-0.000105
 808	8.0296e+01	7.8511	23.041952	0.000334	3.344971	1.133307	-0.000134
 809	8.0396e+01	7.8078	22.896615	0.000365	3.649059	1.236335	-0.000146
 810	8.0496e+01	7.7677	22.775501	0.000304	3.040882	1.030279	-0.000122
 811	8.0595e+01	7.7260	22.714944	0.000152	1.520441	0.515139	-0.000061
 812	8.0695e+01	7.6891	22.585756	0.000324	3.243608	1.098964	-0.000130
 813	8.0794e+01	7.6442	22.464642	0.000304	3.040882	1.030279	-0.000122
 814	8.0894e+01	7.6057	22.335453	0.000324	3.243608	1.098964	-0.000130
 815	8.0993e+01	7.5624	22.230488	0.000264	2.635431	0.892908	-0.000105
 816	8.1093e+01	7.5190	22.117448	0.000284	2.838157	0.961594	-0.000114
 817	8.1192e+01	7.4821	22.032668	0.000213	2.128618	0.721195	-0.000085
 818	8.1291e+01	7.4436	21.871183	0.000405	4.054510	1.373705	-0.000162
 819	8.1391e+01	7.3971	21.750069	0.000304	3.040882	1.030279	-0.000122
 820	8.1490e+01	7.3634	21.641066	0.000274	2.736794	0.927251	-0.000110
 821	8.1590e+01	7.3265	21.540138	0.000253	2.534069	0.858566	-0.000101
 822	8.1689e+01	7.2912	21.419024	0.000304	3.040882	1.030279	-0.000122
 823	8.1789e+01	7.2383	21.314058	0.000264	2.635431	0.892908	-0.000105
 824	8.1888e+01	7.2030	21.184870	0.000324	3.243608	1.098964	-0.000130
 825	8.1988e+01	7.1677	21.063756	0.000304	3.040882	1.030279	-0.000122
 826	8.2088e+01	7.1292	21.003199	0.000152	1.520441	0.515139	-0.000061
 827	8.2187e+01	7.0955	20.886122	0.000294	2.939520	0.995936	-0.000118
 828	8.2287e+01	7.0522	20.748859	0.000345	3.446333	1.167649	-0.000138
 829	8.2386e+01	7.0105	20.627745	0.000304	3.040882	1.030279	-0.000122
 830	8.2486e+01	6.9800	20.474334	0.000385	3.851784	1.305020	-0.000154
 831	8.2585e+01	6.9239	20.381480	0.000233	2.331343	0.789880	-0.000093
 832	8.2684e+01	6.8950	20.272477	0.000274	2.736794	0.927251	-0.000110
 833	8.2784e+01	6.8437	20.139252	0.000334	3.344971	1.133307	-0.000134
 834	8.2883e+01	6.8116	20.022175	0.000294	2.939520	0.995936	-0.000118
 835	8.2983e+01	6.7795	19.913172	0.000274	2.736794	0.927251	-0.000110
 836	8.3082e+01	6.7346	19.848578	0.000162	1.621804	0.549482	-0.000065
 837	8.3182e+01	6.6848	19.711315	0.000345	3.446333	1.167649	-0.000138
 838	8.3281e+01	6.6415	19.586164	0.000314	3.142245	1.064621	-0.000126
 839	8.3381e+01	6.6110	19.493310	0.000233	2.331343	0.789880	-0.000093
 840	8.3481e+01	6.5661	19.396419	0.000243	2.432706	0.824223	-0.000097
 841	8.3580e+01	6.5276	19.279342	0.000294	2.939520	0.995936	-0.000118
 842	8.3680e+01	6.4939	19.150153	0.000324	3.243608	1.098964	-0.000130
 843	8.3779e+01	6.4570	19.037114	0.000284	2.838157	0.961594	-0.000114
 844	8.3879e+01	6.4233	18.944259	0.000233	2.331343	0.789880	-0.000093
 845	8.3978e+01	6.3672	18.806997	0.000345	3.446333	1.167649	-0.000138
 846	8.4078e+01	6.3399	18.685883	0.000304	3.040882	1.030279	-0.000122
 847	8.4177e+01	6.2966	18.588992	0.000243	2.432706	0.824223	-0.000097
 848	8.4276e+01	6.2501	18.496137	0.000233	2.331343	0.789880	-0.000093
 849	8.4376e+01	6.2148	18.346763	0.000375	3.750422	1.270677	-0.000150
 850	8.4475e+01	6.1763	18.237761	0.000274	2.736794	0.927251	-0.000110
 851	8.4575e+01	6.1282	18.128758	0.000274	2.736794	0.927251	-0.000110
 852	8.4674e+01	6.0945	18.031867	0.000243	2.432706	0.824223	-0.000097
 853	8.4774e+01	6.0496	17.930938	0.000253	2.534069	0.858566	-0.000101
 854	8.4874e+01	6.0095	17.801750	0.000324	3.243608	1.098964	-0.000130
 855	8.4973e+01	5.9774	17.712933	0.000223	2.229980	0.755538	-0.000089
 856	8.5073e+01	5.9325	17.563559	0.000375	3.750422	1.270677	-0.000150
 857	8.5172e+01	5.8956	17.434371	0.000324	3.243608	1.098964	-0.000130
 858	8.5272e+01	5.8571	17.345554	0.000223	2.229980	0.755538	-0.000089
 859	8.5371e+01	5.8202	17.192143	0.000385	3.851784	1.305020	-0.000154
 860	8.5471e+01	5.7704	17.111400	0.000203	2.027255	0.686853	-0.000081
 861	8.5570e+01	5.7399	17.002397	0.000274	2.736794	0.927251	-0.000110
 862	8.5669e+01	5.7030	16.869172	0.000334	3.344971	1.133307	-0.000134
 863	8.5769e+01	5.6533	16.768243	0.000253	2.534069	0.858566	-0.000101
 864	8.5868e+01	5.6116	16.679426	0.000223	2.229980	0.755538	-0.000089
 865	8.5968e+01	5.5811	16.546201	0.000334	3.344971	1.133307	-0.000134
 866	8.6067e+01	5.5458	16.396827	0.000375	3.750422	1.270677	-0.000150
 867	8.6167e+01	5.5025	16.279750	0.000294	2.939520	0.995936	-0.000118
 868	8.6266e+01	5.4608	16.174784	0.000264	2.635431	0.892908	-0.000105
 869	8.6366e+01	5.4175	16.069819	0.000264	2.635431	0.892908	-0.000105
 870	8.6466e+01	5.3790	15.956779	0.000284	2.838157	0.961594	-0.000114
 871	8.6565e+01	5.3373	15.851813	0.000264	2.635431	0.892908	-0.000105
 872	8.6665e+01	5.2956	15.754922	0.000243	2.432706	0.824223	-0.000097
 873	8.6764e+01	5.2651	15.625734	0.000324	3.243608	1.098964	-0.000130
 874	8.6864e+01	5.2234	15.508657	0.000294	2.939520	0.995936	-0.000118
 875	8.6963e+01	5.1720	15.379469	0.000324	3.243608	1.098964	-0.000130
 876	8.7063e+01	5.1335	15.266429	0.000284	2.838157	0.961594	-0.000114
 877	8.7162e+01	5.1031	15.161463	0.000264	2.635431	0.892908	-0.000105
 878	8.7261e+01	5.0581	15.032275	0.000324	3.243608	1.098964	-0.000130
 879	8.7361e+01	5.0132	14.890975	0.000355	3.547696	1.201992	-0.000142
 880	8.7460e+01	4.9924	14.802158	0.000223	2.229980	0.755538	-0.000089
 881	8.7560e+01	4.9426	14.685081	0.000294	2.939520	0.995936	-0.000118
 882	8.7659e+01	4.8977	14.543781	0.000355	3.547696	1.201992	-0.000142
 883	8.7759e+01	4.8592	14.454965	0.000223	2.229980	0.755538	-0.000089
 884	8.7859e+01	4.8159	14.337888	0.000294	2.939520	0.995936	-0.000118
 885	8.7958e+01	4.7774	14.232922	0.000264	2.635431	0.892908	-0.000105
 886	8.8058e+01	4.7437	14.083548	0.000375	3.750422	1.270677	-0.000150
 887	8.8157e+01	4.6988	14.031065	0.000132	1.317716	0.446454	-0.000053
 888	8.8257e+01	4.6635	13.889766	0.000355	3.547696	1.201992	-0.000142
 889	8.8356e+01	4.6250	13.760577	0.000324	3.243608	1.098964	-0.000130
 890	8.8456e+01	4.5785	13.655612	0.000264	2.635431	0.892908	-0.000105
 891	8.8555e+01	4.5464	13.546609	0.000274	2.736794	0.927251	-0.000110
 892	8.8654e+01	4.5047	13.389161	0.000395	3.953147	1.339363	-0.000158
 893	8.8754e+01	4.4566	13.296307	0.000233	2.331343	0.789880	-0.000093
 894	8.8853e+01	4.4261	13.179230	0.000294	2.939520	0.995936	-0.000118
 895	8.8953e+01	4.3796	13.074264	0.000264	2.635431	0.892908	-0.000105
 896	8.9052e+01	4.3394	12.985447	0.000223	2.229980	0.755538	-0.000089
 897	8.9152e+01	4.3058	12.840110	0.000365	3.649059	1.236335	-0.000146
 898	8.9251e+01	4.2641	12.739182	0.000253	2.534069	0.858566	-0.000101
 899	8.9351e+01	4.2239	12.589808	0.000375	3.750422	1.270677	-0.000150
 900	8.9451e+01	4.1887	12.505028	0.000213	2.128618	0.721195	-0.000085
 901	8.9550e+01	4.1373	12.387951	0.000294	2.939520	0.995936	-0.000118
 902	8.9650e+01	4.1052	12.254726	0.000334	3.344971	1.133307	-0.000134
 903	8.9749e+01	4.0555	12.133611	0.000304	3.040882	1.030279	-0.000122
 904	8.9849e+01	4.0218	12.044794	0.000223	2.229980	0.755538	-0.000089
 905	8.9948e+01	3.9817	11.875235	0.000426	4.257235	1.442390	-0.000170
 906	9.0047e+01	3.9352	11.806603	0.000172	1.723167	0.583825	-0.000069
 907	9.0147e+01	3.9079	11.653192	0.000385	3.851784	1.305020	-0.000154
 908	9.0246e+01	3.8614	11.552264	0.000253	2.534069	0.858566	-0.000101
 909	9.0346e+01	3.8261	11.439224	0.000284	2.838157	0.961594	-0.000114
 910	9.0445e+01	3.7828	11.326184	0.000284	2.838157	0.961594	-0.000114
 911	9.0545e+01	3.7411	11.209107	0.000294	2.939520	0.995936	-0.000118
 912	9.0644e+01	3.7074	11.087993	0.000304	3.040882	1.030279	-0.000122
 913	9.0744e+01	3.6641	10.966879	0.000304	3.040882	1.030279	-0.000122
 914	9.0844e+01	3.6208	10.874025	0.000233	2.331343	0.789880	-0.000093
 915	9.0943e+01	3.5839	10.732725	0.000355	3.547696	1.201992	-0.000142
 916	9.1043e+01	3.5405	10.583351	0.000375	3.750422	1.270677	-0.000150
 917	9.1142e+01	3.5004	10.494534	0.000223	2.229980	0.755538	-0.000089
 918	9.1242e+01	3.4651	10.365346	0.000324	3.243608	1.098964	-0.000130
 919	9.1341e+01	3.4154	10.256343	0.000274	2.736794	0.927251	-0.000110
 920	9.1441e+01	3.3865	10.151378	0.000264	2.635431	0.892908	-0.000105
 921	9.1540e+01	3.3416	10.018152	0.000334	3.344971	1.133307	-0.000134
 922	9.1639e+01	3.3159	9.893001	0.000314	3.142245	1.064621	-0.000126
 923	9.1739e+01	3.2646	9.771887	0.000304	3.040882	1.030279	-0.000122
 924	9.1838e+01	3.2277	9.638662	0.000334	3.344971	1.133307	-0.000134
 925	9.1938e+01	3.1860	9.529659	0.000274	2.736794	0.927251	-0.000110
 926	9.2037e+01	3.1507	9.424693	0.000264	2.635431	0.892908	-0.000105
 927	9.2137e+01	3.0978	9.287431	0.000345	3.446333	1.167649	-0.000138
 928	9.2237e+01	3.0609	9.170354	0.000294	2.939520	0.995936	-0.000118
 929	9.2336e+01	3.0176	9.069425	0.000253	2.534069	0.858566	-0.000101
 930	9.2436e+01	2.9839	8.916014	0.000385	3.851784	1.305020	-0.000154
 931	9.2535e+01	2.9534	8.807012	0.000274	2.736794	0.927251	-0.000110
 932	9.2635e+01	2.9101	8.702046	0.000264	2.635431	0.892908	-0.000105
 933	9.2734e+01	2.8716	8.564783	0.000345	3.446333	1.167649	-0.000138
 934	9.2834e+01	2.8267	8.419447	0.000365	3.649059	1.236335	-0.000146
 935	9.2933e+01	2.7882	8.326592	0.000233	2.331343	0.789880	-0.000093
 936	9.3032e+01	2.7561	8.237775	0.000223	2.229980	0.755538	-0.000089
 937	9.3132e+01	2.7095	8.056104	0.000456	4.561324	1.545418	-0.000183
 938	9.3231e+01	2.6710	7.955176	0.000253	2.534069	0.858566	-0.000101
 939	9.3331e+01	2.6261	7.846173	0.000274	2.736794	0.927251	-0.000110
 940	9.3430e+01	2.5860	7.700836	0.000365	3.649059	1.236335	-0.000146
 941	9.3530e+01	2.5491	7.616057	0.000213	2.128618	0.721195	-0.000085
 942	9.3629e+01	2.5090	7.450534	0.000416	4.155873	1.408048	-0.000166
 943	9.3729e+01	2.4657	7.357680	0.000233	2.331343	0.789880	-0.000093
 944	9.3829e+01	2.4288	7.268863	0.000223	2.229980	0.755538	-0.000089
 945	9.3928e+01	2.3839	7.131600	0.000345	3.446333	1.167649	-0.000138
 946	9.4028e+01	2.3502	6.966078	0.000416	4.155873	1.408048	-0.000166
 947	9.4127e+01	2.3021	6.901484	0.000162	1.621804	0.549482	-0.000065
 948	9.4227e+01	2.2748	6.772295	0.000324	3.243608	1.098964	-0.000130
 949	9.4326e+01	2.2363	6.643107	0.000324	3.243608	1.098964	-0.000130
 950	9.4425e+01	2.1850	6.505844	0.000345	3.446333	1.167649	-0.000138
 951	9.4525e+01	2.1352	6.372619	0.000334	3.344971	1.133307	-0.000134
 952	9.4624e+01	2.1080	6.231319	0.000355	3.547696	1.201992	-0.000142
 953	9.4724e+01	2.0679	6.190948	0.000101	1.013627	0.343426	-0.000041
 954	9.4823e+01	2.0358	6.053685	0.000345	3.446333	1.167649	-0.000138
 955	9.4923e+01	1.9925	5.924497	0.000324	3.243608	1.098964	-0.000130
 956	9.5022e+01	1.9491	5.807420	0.000294	2.939520	0.995936	-0.000118
 957	9.5122e+01	1.9171	5.694380	0.000284	2.838157	0.961594	-0.000114
 958	9.5222e+01	1.8673	5.601526	0.000233	2.331343	0.789880	-0.000093
 959	9.5321e+01	1.8320	5.431966	0.000426	4.257235	1.442390	-0.000170
 960	9.5421e+01	1.7903	5.343149	0.000223	2.229980	0.755538	-0.000089
 961	9.5520e+01	1.7502	5.254332	0.000223	2.229980	0.755538	-0.000089
 962	9.5620e+01	1.7053	5.100921	0.000385	3.851784	1.305020	-0.000154
 963	9.5719e+01	1.6572	4.983844	0.000294	2.939520	0.995936	-0.000118
 964	9.5819e+01	1.6267	4.834470	0.000375	3.750422	1.270677	-0.000150
 965	9.5918e+01	1.5946	4.701245	0.000334	3.344971	1.133307	-0.000134
 966	9.6017e+01	1.5497	4.620502	0.000203	2.027255	0.686853	-0.000081
 967	9.6117e+01	1.5064	4.519573	0.000253	2.534069	0.858566	-0.000101
 968	9.6216e+01	1.4695	4.390385	0.000324	3.243608	1.098964	-0.000130
 969	9.6316e+01	1.4294	4.257160	0.000334	3.344971	1.133307	-0.000134
 970	9.6415e+01	1.3893	4.144120	0.000284	2.838157	0.961594	-0.000114
 971	9.6515e+01	1.3524	4.002820	0.000355	3.547696	1.201992	-0.000142
 972	9.6615e+01	1.3139	3.914003	0.000223	2.229980	0.755538	-0.000089
 973	9.6714e+01	1.2786	3.792889	0.000304	3.040882	1.030279	-0.000122
 974	9.6814e+01	1.2321	3.679849	0.000284	2.838157	0.961594	-0.000114
 975	9.6913e+01	1.1952	3.554698	0.000314	3.142245	1.064621	-0.000126
 976	9.7013e+01	1.1550	3.457807	0.000243	2.432706	0.824223	-0.000097
 977	9.7112e+01	1.1149	3.276136	0.000456	4.561324	1.545418	-0.000183
 978	9.7212e+01	1.0732	3.163096	0.000284	2.838157	0.961594	-0.000114
 979	9.7311e+01	1.0267	3.066205	0.000243	2.432706	0.824223	-0.000097
 980	9.7410e+01	0.9914	2.932979	0.000334	3.344971	1.133307	-0.000134
 981	9.7510e+01	0.9481	2.844162	0.000223	2.229980	0.755538	-0.000089
 982	9.7609e+01	0.9128	2.698825	0.000365	3.649059	1.236335	-0.000146
 983	9.7709e+01	0.8743	2.561563	0.000345	3.446333	1.167649	-0.000138
 984	9.7808e+01	0.8262	2.452560	0.000274	2.736794	0.927251	-0.000110
 985	9.7908e+01	0.7925	2.343557	0.000274	2.736794	0.927251	-0.000110
 986	9.8007e+01	0.7572	2.198220	0.000365	3.649059	1.236335	-0.000146
 987	9.8107e+01	0.7075	2.149775	0.000122	1.216353	0.412112	-0.000049
 988	9.8207e+01	0.6802	2.016549	0.000334	3.344971	1.133307	-0.000134
 989	9.8306e+01	0.6353	1.871212	0.000365	3.649059	1.236335	-0.000146
 990	9.8406e+01	0.5920	1.742024	0.000324	3.243608	1.098964	-0.000130
 991	9.8505e+01	0.5503	1.649170	0.000233	2.331343	0.789880	-0.000093
 992	9.8605e+01	0.5230	1.536130	0.000284	2.838157	0.961594	-0.000114
 993	9.8704e+01	0.4797	1.398868	0.000345	3.446333	1.167649	-0.000138
 994	9.8803e+01	0.4331	1.277753	0.000304	3.040882	1.030279	-0.000122
 995	9.8903e+01	0.3866	1.201048	0.000193	1.925892	0.652510	-0.000077
 996	9.9002e+01	0.3545	1.051674	0.000375	3.750422	1.270677	-0.000150
 997	9.9102e+01	0.3273	0.938634	0.000284	2.838157	0.961594	-0.000114
 998	9.9201e+01	0.2679	0.857891	0.000203	2.027255	0.686853	-0.000081
 999	9.9301e+01	0.2390	0.724666	0.000334	3.344971	1.133307	-0.000134
1000	9.9400e+01	0.1813	0.583366	0.000355	3.547696	1.201992	-0.000142
1001	9.9500e+01	0.1588	0.482438	0.000253	2.534069	0.858566	-0.000101
1002	9.9600e+01	0.1155	0.361324	0.000304	3.040882	1.030279	-0.000122
1003	9.9699e+01	0.0754	0.268470	0.000233	2.331343	0.789880	-0.000093
1004	9.9799e+01	0.0513	0.139281	0.000324	3.243608	1.098964	-0.000130
1005	9.9898e+01	0.0096	0.042390	0.000243	2.432706	0.824223	-0.000097
1006	9.9998e+01	-0.0337	-0.102947	0.000365	3.649059	1.236335	-0.000146
1007	1.0010e+02	-0.0738	-0.163504	0.000152	1.520441	0.515139	-0.000061
1008	1.0020e+02	-0.1203	-0.268470	0.000264	2.635431	0.892908	-0.000105
1009	1.0030e+02	-0.1636	-0.413806	0.000365	3.649059	1.236335	-0.000146
1010	1.0040e+02	-0.1989	-0.542995	0.000324	3.243608	1.098964	-0.000130
1011	1.0050e+02	-0.2374	-0.643923	0.000253	2.534069	0.858566	-0.000101
1012	1.0059e+02	-0.2727	-0.720629	0.000193	1.925892	0.652510	-0.000077
1013	1.0069e+02	-0.3192	-0.865966	0.000365	3.649059	1.236335	-0.000146
1014	1.0079e+02	-0.3593	-0.987080	0.000304	3.040882	1.030279	-0.000122
1015	1.0089e+02	-0.3882	-1.116268	0.000324	3.243608	1.098964	-0.000130
1016	1.0099e+02	-0.4331	-1.213159	0.000243	2.432706	0.824223	-0.000097
1017	1.0109e+02	-0.4652	-1.326199	0.000284	2.838157	0.961594	-0.000114
1018	1.0119e+02	-0.5198	-1.427127	0.000253	2.534069	0.858566	-0.000101
1019	1.0129e+02	-0.5615	-1.568427	0.000355	3.547696	1.201992	-0.000142
1020	1.0139e+02	-0.5920	-1.665318	0.000243	2.432706	0.824223	-0.000097
1021	1.0149e+02	-0.6369	-1.794507	0.000324	3.243608	1.098964	-0.000130
1022	1.0159e+02	-0.6770	-1.883324	0.000223	2.229980	0.755538	-0.000089
1023	1.0169e+02	-0.7155	-2.060958	0.000446	4.459961	1.511076	-0.000179
1024	1.0179e+02	-0.7476	-2.109403	0.000122	1.216353	0.412112	-0.000049
1025	1.0189e+02	-0.7909	-2.202258	0.000233	2.331343	0.789880	-0.000093
1026	1.0199e+02	-0.8246	-2.331446	0.000324	3.243608	1.098964	-0.000130
1027	1.0209e+02	-0.8647	-2.448523	0.000294	2.939520	0.995936	-0.000118
1028	1.0219e+02	-0.9096	-2.601934	0.000385	3.851784	1.305020	-0.000154
1029	1.0229e+02	-0.9481	-2.698825	0.000243	2.432706	0.824223	-0.000097
1030	1.0239e+02	-0.9914	-2.832051	0.000334	3.344971	1.133307	-0.000134
1031	1.0248e+02	-1.0331	-2.924905	0.000233	2.331343	0.789880	-0.000093
1032	1.0258e+02	-1.0764	-3.050056	0.000314	3.142245	1.064621	-0.000126
1033	1.0268e+02	-1.1117	-3.175207	0.000314	3.142245	1.064621	-0.000126
1034	1.0278e+02	-1.1422	-3.288247	0.000284	2.838157	0.961594	-0.000114
1035	1.0288e+02	-1.1984	-3.425510	0.000345	3.446333	1.167649	-0.000138
1036	1.0298e+02	-1.2385	-3.490104	0.000162	1.621804	0.549482	-0.000065
1037	1.0308e+02	-1.2706	-3.599107	0.000274	2.736794	0.927251	-0.000110
1038	1.0318e+02	-1.3058	-3.732332	0.000334	3.344971	1.133307	-0.000134
1039	1.0328e+02	-1.3556	-3.873632	0.000355	3.547696	1.201992	-0.000142
1040	1.0338e+02	-1.3941	-4.002820	0.000324	3.243608	1.098964	-0.000130
1041	1.0348e+02	-1.4326	-4.095674	0.000233	2.331343	0.789880	-0.000093
1042	1.0358e+02	-1.4615	-4.184491	0.000223	2.229980	0.755538	-0.000089
1043	1.0368e+02	-1.5224	-4.321754	0.000345	3.446333	1.167649	-0.000138
1044	1.0378e+02	-1.5481	-4.426719	0.000264	2.635431	0.892908	-0.000105
1045	1.0388e+02	-1.5914	-4.576093	0.000375	3.750422	1.270677	-0.000150
1046	1.0398e+02	-1.6315	-4.636650	0.000152	1.520441	0.515139	-0.000061
1047	1.0408e+02	-1.6636	-4.781987	0.000365	3.649059	1.236335	-0.000146
1048	1.0418e+02	-1.7069	-4.907138	0.000314	3.142245	1.064621	-0.000126
1049	1.0428e+02	-1.7534	-5.016141	0.000274	2.736794	0.927251	-0.000110
1050	1.0438e+02	-1.7855	-5.161478	0.000365	3.649059	1.236335	-0.000146
1051	1.0447e+02	-1.8336	-5.242221	0.000203	2.027255	0.686853	-0.000081
1052	1.0457e+02	-1.8641	-5.359298	0.000294	2.939520	0.995936	-0.000118
1053	1.0467e+02	-1.8994	-5.496560	0.000345	3.446333	1.167649	-0.000138
1054	1.0477e+02	-1.9443	-5.585377	0.000223	2.229980	0.755538	-0.000089
1055	1.0487e+02	-1.9941	-5.710529	0.000314	3.142245	1.064621	-0.000126
1056	1.0497e+02	-2.0326	-5.803383	0.000233	2.331343	0.789880	-0.000093
1057	1.0507e+02	-2.0679	-5.956794	0.000385	3.851784	1.305020	-0.000154
1058	1.0517e+02	-2.1064	-6.069834	0.000284	2.838157	0.961594	-0.000114
1059	1.0527e+02	-2.1497	-6.178836	0.000274	2.736794	0.927251	-0.000110
1060	1.0537e+02	-2.1978	-6.308025	0.000324	3.243608	1.098964	-0.000130
1061	1.0547e+02	-2.2235	-6.364544	0.000142	1.419078	0.480797	-0.000057
1062	1.0557e+02	-2.2700	-6.550253	0.000466	4.662686	1.579761	-0.000187
1063	1.0567e+02	-2.3101	-6.635033	0.000213	2.128618	0.721195	-0.000085
1064	1.0577e+02	-2.3518	-6.719812	0.000213	2.128618	0.721195	-0.000085
1065	1.0587e+02	-2.3919	-6.816704	0.000243	2.432706	0.824223	-0.000097
1066	1.0597e+02	-2.4288	-6.962041	0.000365	3.649059	1.236335	-0.000146
1067	1.0607e+02	-2.4689	-7.083155	0.000304	3.040882	1.030279	-0.000122
1068	1.0617e+02	-2.5074	-7.167935	0.000213	2.128618	0.721195	-0.000085
1069	1.0627e+02	-2.5491	-7.309234	0.000355	3.547696	1.201992	-0.000142
1070	1.0637e+02	-2.5956	-7.422274	0.000284	2.838157	0.961594	-0.000114
1071	1.0647e+02	-2.6277	-7.527240	0.000264	2.635431	0.892908	-0.000105
1072	1.0656e+02	-2.6646	-7.636242	0.000274	2.736794	0.927251	-0.000110
1073	1.0666e+02	-2.7031	-7.749282	0.000284	2.838157	0.961594	-0.000114
1074	1.0676e+02	-2.7481	-7.854248	0.000264	2.635431	0.892908	-0.000105
1075	1.0686e+02	-2.7866	-7.995547	0.000355	3.547696	1.201992	-0.000142
1076	1.0696e+02	-2.8234	-8.112624	0.000294	2.939520	0.995936	-0.000118
1077	1.0706e+02	-2.8587	-8.229701	0.000294	2.939520	0.995936	-0.000118
1078	1.0716e+02	-2.9053	-8.338704	0.000274	2.736794	0.927251	-0.000110
1079	1.0726e+02	-2.9470	-8.463855	0.000314	3.142245	1.064621	-0.000126
1080	1.0736e+02	-2.9871	-8.601118	0.000345	3.446333	1.167649	-0.000138
1081	1.0746e+02	-3.0240	-8.730306	0.000324	3.243608	1.098964	-0.000130
1082	1.0756e+02	-3.0641	-8.798937	0.000172	1.723167	0.583825	-0.000069
1083	1.0766e+02	-3.1122	-8.936200	0.000345	3.446333	1.167649	-0.000138
1084	1.0776e+02	-3.1523	-9.049240	0.000284	2.838157	0.961594	-0.000114
1085	1.0786e+02	-3.1764	-9.146131	0.000243	2.432706	0.824223	-0.000097
1086	1.0796e+02	-3.2245	-9.295505	0.000375	3.750422	1.270677	-0.000150
1087	1.0806e+02	-3.2630	-9.388359	0.000233	2.331343	0.789880	-0.000093
1088	1.0816e+02	-3.3079	-9.509473	0.000304	3.040882	1.030279	-0.000122
1089	1.0826e+02	-3.3336	-9.630587	0.000304	3.040882	1.030279	-0.000122
1090	1.0836e+02	-3.3753	-9.735553	0.000264	2.635431	0.892908	-0.000105
1091	1.0845e+02	-3.4218	-9.864741	0.000324	3.243608	1.098964	-0.000130
1092	1.0855e+02	-3.4507	-9.985855	0.000304	3.040882	1.030279	-0.000122
1093	1.0865e+02	-3.5004	-10.111006	0.000314	3.142245	1.064621	-0.000126
1094	1.0875e+02	-3.5357	-10.232121	0.000304	3.040882	1.030279	-0.000122
1095	1.0885e+02	-3.5806	-10.357272	0.000314	3.142245	1.064621	-0.000126
1096	1.0895e+02	-3.6240	-10.458200	0.000253	2.534069	0.858566	-0.000101
1097	1.0905e+02	-3.6657	-10.603537	0.000365	3.649059	1.236335	-0.000146
1098	1.0915e+02	-3.7042	-10.716577	0.000284	2.838157	0.961594	-0.000114
1099	1.0925e+02	-3.7347	-10.821542	0.000264	2.635431	0.892908	-0.000105
1100	1.0935e+02	-3.7812	-10.946694	0.000314	3.142245	1.064621	-0.000126
1101	1.0945e+02	-3.8181	-11.043585	0.000243	2.432706	0.824223	-0.000097
1102	1.0955e+02	-3.8582	-11.172773	0.000324	3.243608	1.098964	-0.000130
1103	1.0965e+02	-3.8951	-11.293887	0.000304	3.040882	1.030279	-0.000122
1104	1.0975e+02	-3.9400	-11.410964	0.000294	2.939520	0.995936	-0.000118
1105	1.0985e+02	-3.9801	-11.532078	0.000304	3.040882	1.030279	-0.000122
1106	1.0995e+02	-4.0186	-11.645118	0.000284	2.838157	0.961594	-0.000114
1107	1.1005e+02	-4.0587	-11.798529	0.000385	3.851784	1.305020	-0.000154
1108	1.1015e+02	-4.1004	-11.915606	0.000294	2.939520	0.995936	-0.000118
1109	1.1025e+02	-4.1469	-12.016535	0.000253	2.534069	0.858566	-0.000101
1110	1.1035e+02	-4.1758	-12.117463	0.000253	2.534069	0.858566	-0.000101
1111	1.1044e+02	-4.2175	-12.210317	0.000233	2.331343	0.789880	-0.000093
1112	1.1054e+02	-4.2528	-12.347580	0.000345	3.446333	1.167649	-0.000138
1113	1.1064e+02	-4.3026	-12.476768	0.000324	3.243608	1.098964	-0.000130
1114	1.1074e+02	-4.3378	-12.601919	0.000314	3.142245	1.064621	-0.000126
1115	1.1084e+02	-4.3763	-12.694773	0.000233	2.331343	0.789880	-0.000093
1116	1.1094e+02	-4.4181	-12.799739	0.000264	2.635431	0.892908	-0.000105
1117	1.1104e+02	-4.4501	-12.945076	0.000365	3.649059	1.236335	-0.000146
1118	1.1114e+02	-4.4983	-13.058116	0.000284	2.838157	0.961594	-0.000114
1119	1.1124e+02	-4.5320	-13.175192	0.000294	2.939520	0.995936	-0.000118
1120	1.1134e+02	-4.5785	-13.288232	0.000284	2.838157	0.961594	-0.000114
1121	1.1144e+02	-4.6250	-13.393198	0.000264	2.635431	0.892908	-0.000105
1122	1.1154e+02	-4.6539	-13.538535	0.000365	3.649059	1.236335	-0.000146
1123	1.1164e+02	-4.7020	-13.635426	0.000243	2.432706	0.824223	-0.000097
1124	1.1174e+02	-4.7357	-13.736354	0.000253	2.534069	0.858566	-0.000101
1125	1.1184e+02	-4.7726	-13.865543	0.000324	3.243608	1.098964	-0.000130
1126	1.1194e+02	-4.8191	-13.958397	0.000233	2.331343	0.789880	-0.000093
1127	1.1204e+02	-4.8592	-14.119882	0.000405	4.054510	1.373705	-0.000162
1128	1.1214e+02	-4.8945	-14.236959	0.000294	2.939520	0.995936	-0.000118
1129	1.1224e+02	-4.9330	-14.317702	0.000203	2.027255	0.686853	-0.000081
1130	1.1234e+02	-4.9795	-14.410556	0.000233	2.331343	0.789880	-0.000093
1131	1.1244e+02	-5.0148	-14.551856	0.000355	3.547696	1.201992	-0.000142
1132	1.1253e+02	-5.0598	-14.668933	0.000294	2.939520	0.995936	-0.000118
1133	1.1263e+02	-5.0902	-14.786010	0.000294	2.939520	0.995936	-0.000118
1134	1.1273e+02	-5.1400	-14.895012	0.000274	2.736794	0.927251	-0.000110
1135	1.1283e+02	-5.1801	-15.012089	0.000294	2.939520	0.995936	-0.000118
1136	1.1293e+02	-5.2105	-15.153389	0.000355	3.547696	1.201992	-0.000142
1137	1.1303e+02	-5.2523	-15.226057	0.000182	1.824529	0.618167	-0.000073
1138	1.1313e+02	-5.2924	-15.391580	0.000416	4.155873	1.408048	-0.000166
1139	1.1323e+02	-5.3341	-15.480397	0.000223	2.229980	0.755538	-0.000089
1140	1.1333e+02	-5.3662	-15.581325	0.000253	2.534069	0.858566	-0.000101
1141	1.1343e+02	-5.4207	-15.730699	0.000375	3.750422	1.270677	-0.000150
1142	1.1353e+02	-5.4624	-15.819516	0.000223	2.229980	0.755538	-0.000089
1143	1.1363e+02	-5.5041	-15.940630	0.000304	3.040882	1.030279	-0.000122
1144	1.1373e+02	-5.5282	-16.090004	0.000375	3.750422	1.270677	-0.000150
1145	1.1383e+02	-5.5763	-16.186896	0.000243	2.432706	0.824223	-0.000097
1146	1.1393e+02	-5.6148	-16.299936	0.000284	2.838157	0.961594	-0.000114
1147	1.1403e+02	-5.6613	-16.404901	0.000264	2.635431	0.892908	-0.000105
1148	1.1413e+02	-5.6934	-16.538127	0.000334	3.344971	1.133307	-0.000134
1149	1.1423e+02	-5.7448	-16.671352	0.000334	3.344971	1.133307	-0.000134
1150	1.1433e+02	-5.7624	-16.739983	0.000172	1.723167	0.583825	-0.000069
1151	1.1442e+02	-5.8153	-16.865135	0.000314	3.142245	1.064621	-0.000126
1152	1.1452e+02	-5.8506	-17.014509	0.000375	3.750422	1.270677	-0.000150
1153	1.1462e+02	-5.8907	-17.107363	0.000233	2.331343	0.789880	-0.000093
1154	1.1472e+02	-5.9437	-17.188105	0.000203	2.027255	0.686853	-0.000081
1155	1.1482e+02	-5.9694	-17.305182	0.000294	2.939520	0.995936	-0.000118
1156	1.1492e+02	-6.0111	-17.438408	0.000334	3.344971	1.133307	-0.000134
1157	1.1502e+02	-6.0447	-17.551448	0.000284	2.838157	0.961594	-0.000114
1158	1.1512e+02	-6.0897	-17.684673	0.000334	3.344971	1.133307	-0.000134
1159	1.1522e+02	-6.1234	-17.761379	0.000193	1.925892	0.652510	-0.000077
1160	1.1532e+02	-6.1843	-17.898641	0.000345	3.446333	1.167649	-0.000138
1161	1.1542e+02	-6.2100	-17.991495	0.000233	2.331343	0.789880	-0.000093
1162	1.1552e+02	-6.2533	-18.144907	0.000385	3.851784	1.305020	-0.000154
1163	1.1562e+02	-6.2918	-18.205464	0.000152	1.520441	0.515139	-0.000061
1164	1.1572e+02	-6.3335	-18.358875	0.000385	3.851784	1.305020	-0.000154
1165	1.1582e+02	-6.3704	-18.471915	0.000284	2.838157	0.961594	-0.000114
1166	1.1592e+02	-6.4089	-18.572843	0.000253	2.534069	0.858566	-0.000101
1167	1.1602e+02	-6.4490	-18.665697	0.000233	2.331343	0.789880	-0.000093
1168	1.1612e+02	-6.4859	-18.794885	0.000324	3.243608	1.098964	-0.000130
1169	1.1622e+02	-6.5389	-18.928111	0.000334	3.344971	1.133307	-0.000134
1170	1.1632e+02	-6.5597	-18.992705	0.000162	1.621804	0.549482	-0.000065
1171	1.1642e+02	-6.6175	-19.117856	0.000314	3.142245	1.064621	-0.000126
1172	1.1651e+02	-6.6544	-19.234933	0.000294	2.939520	0.995936	-0.000118
1173	1.1661e+02	-6.6913	-19.352010	0.000294	2.939520	0.995936	-0.000118
1174	1.1671e+02	-6.7217	-19.456976	0.000264	2.635431	0.892908	-0.000105
1175	1.1681e+02	-6.7586	-19.545793	0.000223	2.229980	0.755538	-0.000089
1176	1.1691e+02	-6.8100	-19.670944	0.000314	3.142245	1.064621	-0.000126
1177	1.1701e+02	-6.8549	-19.755724	0.000213	2.128618	0.721195	-0.000085
1178	1.1711e+02	-6.8790	-19.905098	0.000375	3.750422	1.270677	-0.000150
1179	1.1721e+02	-6.9223	-20.014100	0.000274	2.736794	0.927251	-0.000110
1180	1.1731e+02	-6.9736	-20.131177	0.000294	2.939520	0.995936	-0.000118
1181	1.1741e+02	-7.0025	-20.199809	0.000172	1.723167	0.583825	-0.000069
1182	1.1751e+02	-7.0410	-20.320923	0.000304	3.040882	1.030279	-0.000122
1183	1.1761e+02	-7.0827	-20.454148	0.000334	3.344971	1.133307	-0.000134
1184	1.1771e+02	-7.1244	-20.542965	0.000223	2.229980	0.755538	-0.000089
1185	1.1781e+02	-7.1677	-20.615634	0.000182	1.824529	0.618167	-0.000073
1186	1.1791e+02	-7.2110	-20.724636	0.000274	2.736794	0.927251	-0.000110
1187	1.1801e+02	-7.2447	-20.845750	0.000304	3.040882	1.030279	-0.000122
1188	1.1811e+02	-7.2864	-20.958790	0.000284	2.838157	0.961594	-0.000114
1189	1.1821e+02	-7.3265	-21.087979	0.000324	3.243608	1.098964	-0.000130
1190	1.1831e+02	-7.3618	-21.184870	0.000243	2.432706	0.824223	-0.000097
1191	1.1841e+02	-7.4100	-21.285798	0.000253	2.534069	0.858566	-0.000101
1192	1.1850e+02	-7.4340	-21.398838	0.000284	2.838157	0.961594	-0.000114
1193	1.1860e+02	-7.4821	-21.503804	0.000264	2.635431	0.892908	-0.000105
1194	1.1870e+02	-7.5239	-21.637029	0.000334	3.344971	1.133307	-0.000134
1195	1.1880e+02	-7.5607	-21.717772	0.000203	2.027255	0.686853	-0.000081
1196	1.1890e+02	-7.6121	-21.818700	0.000253	2.534069	0.858566	-0.000101
1197	1.1900e+02	-7.6426	-21.939814	0.000304	3.040882	1.030279	-0.000122
1198	1.1910e+02	-7.6891	-22.073040	0.000334	3.344971	1.133307	-0.000134
1199	1.1920e+02	-7.7260	-22.173968	0.000253	2.534069	0.858566	-0.000101
1200	1.1930e+02	-7.7613	-22.262785	0.000223	2.229980	0.755538	-0.000089
1201	1.1940e+02	-7.7982	-22.383899	0.000304	3.040882	1.030279	-0.000122
1202	1.1950e+02	-7.8367	-22.496939	0.000284	2.838157	0.961594	-0.000114
1203	1.1960e+02	-7.8768	-22.614016	0.000294	2.939520	0.995936	-0.000118
1204	1.1970e+02	-7.9281	-22.706870	0.000233	2.331343	0.789880	-0.000093
1205	1.1980e+02	-7.9618	-22.832021	0.000314	3.142245	1.064621	-0.000126
1206	1.1990e+02	-7.9987	-22.949098	0.000294	2.939520	0.995936	-0.000118
1207	1.2000e+02	-8.0420	-23.050026	0.000253	2.534069	0.858566	-0.000101
1208	1.2010e+02	-8.0869	-23.142881	0.000233	2.331343	0.789880	-0.000093
1209	1.2020e+02	-8.1222	-23.268032	0.000314	3.142245	1.064621	-0.000126
1210	1.2030e+02	-8.1623	-23.377034	0.000274	2.736794	0.927251	-0.000110
1211	1.2039e+02	-8.2089	-23.494111	0.000294	2.939520	0.995936	-0.000118
1212	1.2049e+02	-8.2345	-23.591003	0.000243	2.432706	0.824223	-0.000097
1213	1.2059e+02	-8.2762	-23.700005	0.000274	2.736794	0.927251	-0.000110
1214	1.2069e+02	-8.3228	-23.857454	0.000395	3.953147	1.339363	-0.000158
1215	1.2079e+02	-8.3500	-23.946271	0.000223	2.229980	0.755538	-0.000089
1216	1.2089e+02	-8.3966	-24.067385	0.000304	3.040882	1.030279	-0.000122
1217	1.2099e+02	-8.4286	-24.172350	0.000264	2.635431	0.892908	-0.000105
1218	1.2109e+02	-8.4752	-24.228870	0.000142	1.419078	0.480797	-0.000057
1219	1.2119e+02	-8.5201	-24.349984	0.000304	3.040882	1.030279	-0.000122
1220	1.2129e+02	-8.5618	-24.471098	0.000304	3.040882	1.030279	-0.000122
1221	1.2139e+02	-8.5971	-24.567990	0.000243	2.432706	0.824223	-0.000097
1222	1.2149e+02	-8.6388	-24.697178	0.000324	3.243608	1.098964	-0.000130
1223	1.2159e+02	-8.6725	-24.794069	0.000243	2.432706	0.824223	-0.000097
1224	1.2169e+02	-8.7270	-24.899035	0.000264	2.635431	0.892908	-0.000105
1225	1.2179e+02	-8.7559	-24.987852	0.000223	2.229980	0.755538	-0.000089
1226	1.2189e+02	-8.7976	-25.096854	0.000274	2.736794	0.927251	-0.000110
1227	1.2199e+02	-8.8409	-25.201820	0.000264	2.635431	0.892908	-0.000105
1228	1.2209e+02	-8.8891	-25.322934	0.000304	3.040882	1.030279	-0.000122
1229	1.2219e+02	-8.9147	-25.419825	0.000243	2.432706	0.824223	-0.000097
1230	1.2229e+02	-8.9564	-25.524791	0.000264	2.635431	0.892908	-0.000105
1231	1.2239e+02	-8.9965	-25.666090	0.000355	3.547696	1.201992	-0.000142
1232	1.2248e+02	-9.0366	-25.758945	0.000233	2.331343	0.789880	-0.000093
1233	1.2258e+02	-9.0784	-25.863910	0.000264	2.635431	0.892908	-0.000105
1234	1.2268e+02	-9.1072	-26.001173	0.000345	3.446333	1.167649	-0.000138
1235	1.2278e+02	-9.1618	-26.106138	0.000264	2.635431	0.892908	-0.000105
1236	1.2288e+02	-9.1923	-26.166695	0.000152	1.520441	0.515139	-0.000061
1237	1.2298e+02	-9.2372	-26.283772	0.000294	2.939520	0.995936	-0.000118
1238	1.2308e+02	-9.2805	-26.421035	0.000345	3.446333	1.167649	-0.000138
1239	1.2318e+02	-9.3174	-26.526000	0.000264	2.635431	0.892908	-0.000105
1240	1.2328e+02	-9.3607	-26.630966	0.000264	2.635431	0.892908	-0.000105
1241	1.2338e+02	-9.3944	-26.760154	0.000324	3.243608	1.098964	-0.000130
1242	1.2348e+02	-9.4345	-26.865120	0.000264	2.635431	0.892908	-0.000105
1243	1.2358e+02	-9.4746	-26.962011	0.000243	2.432706	0.824223	-0.000097
1244	1.2368e+02	-9.5195	-27.091199	0.000324	3.243608	1.098964	-0.000130
1245	1.2378e+02	-9.5580	-27.171942	0.000203	2.027255	0.686853	-0.000081
1246	1.2388e+02	-9.5997	-27.317279	0.000365	3.649059	1.236335	-0.000146
1247	1.2398e+02	-9.6286	-27.422245	0.000264	2.635431	0.892908	-0.000105
1248	1.2408e+02	-9.6767	-27.502987	0.000203	2.027255	0.686853	-0.000081
1249	1.2418e+02	-9.7233	-27.644287	0.000355	3.547696	1.201992	-0.000142
1250	1.2428e+02	-9.7585	-27.737141	0.000233	2.331343	0.789880	-0.000093
1251	1.2438e+02	-9.8003	-27.882478	0.000365	3.649059	1.236335	-0.000146
1252	1.2447e+02	-9.8227	-27.959184	0.000193	1.925892	0.652510	-0.000077
1253	1.2457e+02	-9.8724	-28.060112	0.000253	2.534069	0.858566	-0.000101
1254	1.2467e+02	-9.9174	-28.152966	0.000233	2.331343	0.789880	-0.000093
1255	1.2477e+02	-9.9559	-28.302340	0.000375	3.750422	1.270677	-0.000150
1256	1.2487e+02	-9.9896	-28.383083	0.000203	2.027255	0.686853	-0.000081
1257	1.2497e+02	-10.0377	-28.520345	0.000345	3.446333	1.167649	-0.000138
1258	1.2507e+02	-10.0762	-28.564754	0.000111	1.114990	0.377769	-0.000045
1259	1.2517e+02	-10.1147	-28.738351	0.000436	4.358598	1.476733	-0.000174
1260	1.2527e+02	-10.1628	-28.859465	0.000304	3.040882	1.030279	-0.000122
1261	1.2537e+02	-10.1949	-28.960393	0.000253	2.534069	0.858566	-0.000101
1262	1.2547e+02	-10.2350	-29.101693	0.000355	3.547696	1.201992	-0.000142
1263	1.2557e+02	-10.2751	-29.190510	0.000223	2.229980	0.755538	-0.000089
1264	1.2567e+02	-10.3120	-29.271253	0.000203	2.027255	0.686853	-0.000081
1265	1.2577e+02	-10.3489	-29.412552	0.000355	3.547696	1.201992	-0.000142
1266	1.2587e+02	-10.3922	-29.517518	0.000264	2.635431	0.892908	-0.000105
1267	1.2597e+02	-10.4291	-29.630558	0.000284	2.838157	0.961594	-0.000114
1268	1.2607e+02	-10.4692	-29.707263	0.000193	1.925892	0.652510	-0.000077
1269	1.2617e+02	-10.5157	-29.872786	0.000416	4.155873	1.408048	-0.000166
1270	1.2627e+02	-10.5430	-29.941417	0.000172	1.723167	0.583825	-0.000069
1271	1.2636e+02	-10.5927	-30.054457	0.000284	2.838157	0.961594	-0.000114
1272	1.2646e+02	-10.6425	-30.175571	0.000304	3.040882	1.030279	-0.000122
1273	1.2656e+02	-10.6746	-30.316871	0.000355	3.547696	1.201992	-0.000142
1274	1.2666e+02	-10.7002	-30.421836	0.000264	2.635431	0.892908	-0.000105
1275	1.2676e+02	-10.7468	-30.526802	0.000264	2.635431	0.892908	-0.000105
1276	1.2686e+02	-10.7949	-30.668102	0.000355	3.547696	1.201992	-0.000142
1277	1.2696e+02	-10.8318	-30.764993	0.000243	2.432706	0.824223	-0.000097
1278	1.2706e+02	-10.8639	-30.829587	0.000162	1.621804	0.549482	-0.000065
1279	1.2716e+02	-10.9184	-30.991072	0.000405	4.054510	1.373705	-0.000162
1280	1.2726e+02	-10.9489	-31.096038	0.000264	2.635431	0.892908	-0.000105
1281	1.2736e+02	-10.9922	-31.160632	0.000162	1.621804	0.549482	-0.000065
1282	1.2746e+02	-11.0323	-31.301932	0.000355	3.547696	1.201992	-0.000142
1283	1.2756e+02	-11.0644	-31.406897	0.000264	2.635431	0.892908	-0.000105
1284	1.2766e+02	-11.1093	-31.483603	0.000193	1.925892	0.652510	-0.000077
1285	1.2776e+02	-11.1430	-31.632977	0.000375	3.750422	1.270677	-0.000150
1286	1.2786e+02	-11.1959	-31.689497	0.000142	1.419078	0.480797	-0.000057
1287	1.2796e+02	-11.2312	-31.802537	0.000284	2.838157	0.961594	-0.000114
1288	1.2806e+02	-11.2665	-31.943837	0.000355	3.547696	1.201992	-0.000142
1289	1.2816e+02	-11.3034	-32.044765	0.000253	2.534069	0.858566	-0.000101
1290	1.2826e+02	-11.3467	-32.165879	0.000304	3.040882	1.030279	-0.000122
1291	1.2835e+02	-11.3836	-32.291030	0.000314	3.142245	1.064621	-0.000126
1292	1.2845e+02	-11.4270	-32.395996	0.000264	2.635431	0.892908	-0.000105
1293	1.2855e+02	-11.4687	-32.492887	0.000243	2.432706	0.824223	-0.000097
1294	1.2865e+02	-11.5056	-32.609964	0.000294	2.939520	0.995936	-0.000118
1295	1.2875e+02	-11.5585	-32.694744	0.000213	2.128618	0.721195	-0.000085
1296	1.2885e+02	-11.5858	-32.803746	0.000274	2.736794	0.927251	-0.000110
1297	1.2895e+02	-11.6195	-32.916786	0.000284	2.838157	0.961594	-0.000114
1298	1.2905e+02	-11.6676	-33.005603	0.000223	2.229980	0.755538	-0.000089
1299	1.2915e+02	-11.7109	-33.126717	0.000304	3.040882	1.030279	-0.000122
1300	1.2925e+02	-11.7478	-33.251869	0.000314	3.142245	1.064621	-0.000126
1301	1.2935e+02	-11.7831	-33.385094	0.000334	3.344971	1.133307	-0.000134
1302	1.2945e+02	-11.8312	-33.469874	0.000213	2.128618	0.721195	-0.000085
1303	1.2955e+02	-11.8649	-33.542542	0.000182	1.824529	0.618167	-0.000073
1304	1.2965e+02	-11.9002	-33.643471	0.000253	2.534069	0.858566	-0.000101
1305	1.2975e+02	-11.9515	-33.776696	0.000334	3.344971	1.133307	-0.000134
1306	1.2985e+02	-11.9804	-33.869550	0.000233	2.331343	0.789880	-0.000093
1307	1.2995e+02	-12.0317	-34.002776	0.000334	3.344971	1.133307	-0.000134
1308	1.3005e+02	-12.0719	-34.115816	0.000284	2.838157	0.961594	-0.000114
1309	1.3015e+02	-12.1039	-34.184447	0.000172	1.723167	0.583825	-0.000069
1310	1.3025e+02	-12.1489	-34.325747	0.000355	3.547696	1.201992	-0.000142
1311	1.3034e+02	-12.1858	-34.430712	0.000264	2.635431	0.892908	-0.000105
1312	1.3044e+02	-12.2194	-34.511455	0.000203	2.027255	0.686853	-0.000081
1313	1.3054e+02	-12.2724	-34.664866	0.000385	3.851784	1.305020	-0.000154
1314	1.3064e+02	-12.3013	-34.741572	0.000193	1.925892	0.652510	-0.000077
1315	1.3074e+02	-12.3510	-34.846537	0.000264	2.635431	0.892908	-0.000105
1316	1.3084e+02	-12.3767	-34.955540	0.000274	2.736794	0.927251	-0.000110
1317	1.3094e+02	-12.4312	-35.068580	0.000284	2.838157	0.961594	-0.000114
1318	1.3104e+02	-12.4729	-35.213916	0.000365	3.649059	1.236335	-0.000146
1319	1.3114e+02	-12.5066	-35.274474	0.000152	1.520441	0.515139	-0.000061
1320	1.3124e+02	-12.5451	-35.419810	0.000365	3.649059	1.236335	-0.000146
1321	1.3134e+02	-12.5868	-35.520739	0.000253	2.534069	0.858566	-0.000101
1322	1.3144e+02	-12.6269	-35.617630	0.000243	2.432706	0.824223	-0.000097
1323	1.3154e+02	-12.6606	-35.734707	0.000294	2.939520	0.995936	-0.000118
1324	1.3164e+02	-12.6943	-35.819487	0.000213	2.128618	0.721195	-0.000085
1325	1.3174e+02	-12.7360	-35.908304	0.000223	2.229980	0.755538	-0.000089
1326	1.3184e+02	-12.7809	-36.029418	0.000304	3.040882	1.030279	-0.000122
1327	1.3194e+02	-12.8178	-36.138421	0.000274	2.736794	0.927251	-0.000110
1328	1.3204e+02	-12.8627	-36.247423	0.000274	2.736794	0.927251	-0.000110
1329	1.3214e+02	-12.9061	-36.336240	0.000223	2.229980	0.755538	-0.000089
1330	1.3224e+02	-12.9494	-36.433131	0.000243	2.432706	0.824223	-0.000097
1331	1.3234e+02	-12.9766	-36.550208	0.000294	2.939520	0.995936	-0.000118
1332	1.3243e+02	-13.0183	-36.663248	0.000284	2.838157	0.961594	-0.000114
1333	1.3253e+02	-13.0601	-36.756102	0.000233	2.331343	0.789880	-0.000093
1334	1.3263e+02	-13.1050	-36.865105	0.000274	2.736794	0.927251	-0.000110
1335	1.3273e+02	-13.1467	-36.966033	0.000253	2.534069	0.858566	-0.000101
1336	1.3283e+02	-13.1836	-37.062925	0.000243	2.432706	0.824223	-0.000097
1337	1.3293e+02	-13.2269	-37.192113	0.000324	3.243608	1.098964	-0.000130
1338	1.3303e+02	-13.2494	-37.276893	0.000213	2.128618	0.721195	-0.000085
1339	1.3313e+02	-13.3023	-37.381858	0.000264	2.635431	0.892908	-0.000105
1340	1.3323e+02	-13.3312	-37.490861	0.000274	2.736794	0.927251	-0.000110
1341	1.3333e+02	-13.3809	-37.579678	0.000223	2.229980	0.755538	-0.000089
1342	1.3343e+02	-13.4226	-37.668495	0.000223	2.229980	0.755538	-0.000089
1343	1.3353e+02	-13.4659	-37.785572	0.000294	2.939520	0.995936	-0.000118
1344	1.3363e+02	-13.4980	-37.890537	0.000264	2.635431	0.892908	-0.000105
1345	1.3373e+02	-13.5429	-37.983392	0.000233	2.331343	0.789880	-0.000093
1346	1.3383e+02	-13.5734	-38.080283	0.000243	2.432706	0.824223	-0.000097
1347	1.3393e+02	-13.6151	-38.193323	0.000284	2.838157	0.961594	-0.000114
1348	1.3403e+02	-13.6649	-38.314437	0.000304	3.040882	1.030279	-0.000122
1349	1.3413e+02	-13.7018	-38.399217	0.000213	2.128618	0.721195	-0.000085
1350	1.3423e+02	-13.7611	-38.479959	0.000203	2.027255	0.686853	-0.000081
1351	1.3432e+02	-13.7755	-38.597036	0.000294	2.939520	0.995936	-0.000118
1352	1.3442e+02	-13.8173	-38.689890	0.000233	2.331343	0.789880	-0.000093
1353	1.3452e+02	-13.8509	-38.790819	0.000253	2.534069	0.858566	-0.000101
1354	1.3462e+02	-13.8894	-38.915970	0.000314	3.142245	1.064621	-0.000126
1355	1.3472e+02	-13.9344	-39.020935	0.000264	2.635431	0.892908	-0.000105
1356	1.3482e+02	-13.9777	-39.125901	0.000264	2.635431	0.892908	-0.000105
1357	1.3492e+02	-14.0226	-39.198569	0.000182	1.824529	0.618167	-0.000073
1358	1.3502e+02	-14.0467	-39.319684	0.000304	3.040882	1.030279	-0.000122
1359	1.3512e+02	-14.1012	-39.372166	0.000132	1.317716	0.446454	-0.000053
1360	1.3522e+02	-14.1365	-39.541726	0.000426	4.257235	1.442390	-0.000170
1361	1.3532e+02	-14.1782	-39.626506	0.000213	2.128618	0.721195	-0.000085
1362	1.3542e+02	-14.2135	-39.719360	0.000233	2.331343	0.789880	-0.000093
1363	1.3552e+02	-14.2600	-39.792028	0.000182	1.824529	0.618167	-0.000073
1364	1.3562e+02	-14.2937	-39.884883	0.000233	2.331343	0.789880	-0.000093
1365	1.3572e+02	-14.3450	-40.038294	0.000385	3.851784	1.305020	-0.000154
1366	1.3582e+02	-14.3787	-40.110962	0.000182	1.824529	0.618167	-0.000073
1367	1.3592e+02	-14.4188	-40.199779	0.000223	2.229980	0.755538	-0.000089
1368	1.3602e+02	-14.4525	-40.333005	0.000334	3.344971	1.133307	-0.000134
1369	1.3612e+02	-14.4991	-40.462193	0.000324	3.243608	1.098964	-0.000130
1370	1.3622e+02	-14.5295	-40.506601	0.000111	1.114990	0.377769	-0.000045
1371	1.3631e+02	-14.5729	-40.647901	0.000355	3.547696	1.201992	-0.000142
1372	1.3641e+02	-14.6146	-40.740755	0.000233	2.331343	0.789880	-0.000093
1373	1.3651e+02	-14.6579	-40.821498	0.000203	2.027255	0.686853	-0.000081
1374	1.3661e+02	-14.6868	-40.926464	0.000264	2.635431	0.892908	-0.000105
1375	1.3671e+02	-14.7333	-41.007206	0.000203	2.027255	0.686853	-0.000081
1376	1.3681e+02	-14.7734	-41.148506	0.000355	3.547696	1.201992	-0.000142
1377	1.3691e+02	-14.8103	-41.253472	0.000264	2.635431	0.892908	-0.000105
1378	1.3701e+02	-14.8536	-41.358437	0.000264	2.635431	0.892908	-0.000105
1379	1.3711e+02	-14.8921	-41.443217	0.000213	2.128618	0.721195	-0.000085
1380	1.3721e+02	-14.9402	-41.568368	0.000314	3.142245	1.064621	-0.000126
1381	1.3731e+02	-14.9675	-41.624888	0.000142	1.419078	0.480797	-0.000057
1382	1.3741e+02	-15.0140	-41.782336	0.000395	3.953147	1.339363	-0.000158
1383	1.3751e+02	-15.0621	-41.895376	0.000284	2.838157	0.961594	-0.000114
1384	1.3761e+02	-15.0926	-41.951896	0.000142	1.419078	0.480797	-0.000057
1385	1.3771e+02	-15.1375	-42.077047	0.000314	3.142245	1.064621	-0.000126
1386	1.3781e+02	-15.1793	-42.173938	0.000243	2.432706	0.824223	-0.000097
1387	1.3791e+02	-15.2129	-42.278904	0.000264	2.635431	0.892908	-0.000105
1388	1.3801e+02	-15.2546	-42.375795	0.000243	2.432706	0.824223	-0.000097
1389	1.3811e+02	-15.2883	-42.472687	0.000243	2.432706	0.824223	-0.000097
1390	1.3821e+02	-15.3284	-42.561504	0.000223	2.229980	0.755538	-0.000089
1391	1.3831e+02	-15.3798	-42.694729	0.000334	3.344971	1.133307	-0.000134
1392	1.3840e+02	-15.4103	-42.755286	0.000152	1.520441	0.515139	-0.000061
1393	1.3850e+02	-15.4536	-42.900623	0.000365	3.649059	1.236335	-0.000146
1394	1.3860e+02	-15.5017	-42.981366	0.000203	2.027255	0.686853	-0.000081
1395	1.3870e+02	-15.5290	-43.058071	0.000193	1.925892	0.652510	-0.000077
1396	1.3880e+02	-15.5611	-43.167074	0.000274	2.736794	0.927251	-0.000110
1397	1.3890e+02	-15.6108	-43.288188	0.000304	3.040882	1.030279	-0.000122
1398	1.3900e+02	-15.6509	-43.356819	0.000172	1.723167	0.583825	-0.000069
1399	1.3910e+02	-15.6942	-43.449673	0.000233	2.331343	0.789880	-0.000093
1400	1.3920e+02	-15.7375	-43.546565	0.000243	2.432706	0.824223	-0.000097
1401	1.3930e+02	-15.7712	-43.655567	0.000274	2.736794	0.927251	-0.000110
1402	1.3940e+02	-15.8065	-43.756496	0.000253	2.534069	0.858566	-0.000101
1403	1.3950e+02	-15.8530	-43.905870	0.000375	3.750422	1.270677	-0.000150
1404	1.3960e+02	-15.8915	-43.946241	0.000101	1.013627	0.343426	-0.000041
1405	1.3970e+02	-15.9300	-44.095615	0.000375	3.750422	1.270677	-0.000150
1406	1.3980e+02	-15.9701	-44.204618	0.000274	2.736794	0.927251	-0.000110
1407	1.3990e+02	-16.0070	-44.232878	0.000071	0.709539	0.240398	-0.000028
1408	1.4000e+02	-16.0487	-44.386289	0.000385	3.851784	1.305020	-0.000154
1409	1.4010e+02	-16.0985	-44.458957	0.000182	1.824529	0.618167	-0.000073
1410	1.4020e+02	-16.1274	-44.588146	0.000324	3.243608	1.098964	-0.000130
1411	1.4029e+02	-16.1691	-44.676963	0.000223	2.229980	0.755538	-0.000089
1412	1.4039e+02	-16.2092	-44.806151	0.000324	3.243608	1.098964	-0.000130
1413	1.4049e+02	-16.2493	-44.874782	0.000172	1.723167	0.583825	-0.000069
1414	1.4059e+02	-16.2878	-44.999934	0.000314	3.142245	1.064621	-0.000126
1415	1.4069e+02	-16.3295	-45.108936	0.000274	2.736794	0.927251	-0.000110
1416	1.4079e+02	-16.3744	-45.230050	0.000304	3.040882	1.030279	-0.000122
1417	1.4089e+02	-16.4161	-45.290607	0.000152	1.520441	0.515139	-0.000061
1418	1.4099e+02	-16.4498	-45.427870	0.000345	3.446333	1.167649	-0.000138
1419	1.4109e+02	-16.4899	-45.492464	0.000162	1.621804	0.549482	-0.000065
1420	1.4119e+02	-16.5204	-45.597430	0.000264	2.635431	0.892908	-0.000105
1421	1.4129e+02	-16.5621	-45.746804	0.000375	3.750422	1.270677	-0.000150
1422	1.4139e+02	-16.6118	-45.819472	0.000182	1.824529	0.618167	-0.000073
1423	1.4149e+02	-16.6503	-45.920400	0.000253	2.534069	0.858566	-0.000101
1424	1.4159e+02	-16.6888	-46.057663	0.000345	3.446333	1.167649	-0.000138
1425	1.4169e+02	-16.7273	-46.122257	0.000162	1.621804	0.549482	-0.000065
1426	1.4179e+02	-16.7642	-46.243371	0.000304	3.040882	1.030279	-0.000122
1427	1.4189e+02	-16.8059	-46.340263	0.000243	2.432706	0.824223	-0.000097
1428	1.4199e+02	-16.8493	-46.461377	0.000304	3.040882	1.030279	-0.000122
1429	1.4209e+02	-16.8797	-46.566342	0.000264	2.635431	0.892908	-0.000105
1430	1.4219e+02	-16.9295	-46.634973	0.000172	1.723167	0.583825	-0.000069
1431	1.4228e+02	-16.9808	-46.760125	0.000314	3.142245	1.064621	-0.000126
1432	1.4238e+02	-17.0097	-46.865090	0.000264	2.635431	0.892908	-0.000105
1433	1.4248e+02	-17.0466	-46.982167	0.000294	2.939520	0.995936	-0.000118
1434	1.4258e+02	-17.0835	-47.079058	0.000243	2.432706	0.824223	-0.000097
1435	1.4268e+02	-17.1332	-47.175950	0.000243	2.432706	0.824223	-0.000097
1436	1.4278e+02	-17.1653	-47.264767	0.000223	2.229980	0.755538	-0.000089
1437	1.4288e+02	-17.2118	-47.434326	0.000426	4.257235	1.442390	-0.000170
1438	1.4298e+02	-17.2471	-47.486809	0.000132	1.317716	0.446454	-0.000053
1439	1.4308e+02	-17.2824	-47.640220	0.000385	3.851784	1.305020	-0.000154
1440	1.4318e+02	-17.3305	-47.664443	0.000061	0.608176	0.206056	-0.000024
1441	1.4328e+02	-17.3642	-47.825929	0.000405	4.054510	1.373705	-0.000162
1442	1.4338e+02	-17.3979	-47.878411	0.000132	1.317716	0.446454	-0.000053
1443	1.4348e+02	-17.4412	-48.068157	0.000476	4.764049	1.614104	-0.000191
1444	1.4358e+02	-17.4781	-48.181196	0.000284	2.838157	0.961594	-0.000114
1445	1.4368e+02	-17.5295	-48.197345	0.000041	0.405451	0.137371	-0.000016
1446	1.4378e+02	-17.5631	-48.322496	0.000314	3.142245	1.064621	-0.000126
1447	1.4388e+02	-17.6032	-48.439573	0.000294	2.939520	0.995936	-0.000118
1448	1.4398e+02	-17.6401	-48.544539	0.000264	2.635431	0.892908	-0.000105
1449	1.4408e+02	-17.6899	-48.653541	0.000274	2.736794	0.927251	-0.000110
1450	1.4418e+02	-17.7252	-48.718136	0.000162	1.621804	0.549482	-0.000065
1451	1.4428e+02	-17.7556	-48.806953	0.000223	2.229980	0.755538	-0.000089
1452	1.4437e+02	-17.7990	-48.980549	0.000436	4.358598	1.476733	-0.000174
1453	1.4447e+02	-17.8503	-49.037069	0.000142	1.419078	0.480797	-0.000057
1454	1.4457e+02	-17.8776	-49.125886	0.000223	2.229980	0.755538	-0.000089
1455	1.4467e+02	-17.9145	-49.255075	0.000324	3.243608	1.098964	-0.000130
1456	1.4477e+02	-17.9530	-49.392337	0.000345	3.446333	1.167649	-0.000138
1457	1.4487e+02	-17.9979	-49.444820	0.000132	1.317716	0.446454	-0.000053
1458	1.4497e+02	-18.0412	-49.561897	0.000294	2.939520	0.995936	-0.000118
1459	1.4507e+02	-18.0749	-49.678974	0.000294	2.939520	0.995936	-0.000118
1460	1.4517e+02	-18.1262	-49.727419	0.000122	1.216353	0.412112	-0.000049
1461	1.4527e+02	-18.1695	-49.864682	0.000345	3.446333	1.167649	-0.000138
1462	1.4537e+02	-18.1952	-49.933313	0.000172	1.723167	0.583825	-0.000069
1463	1.4547e+02	-18.2257	-50.066539	0.000334	3.344971	1.133307	-0.000134
1464	1.4557e+02	-18.2802	-50.187653	0.000304	3.040882	1.030279	-0.000122
1465	1.4567e+02	-18.3252	-50.276470	0.000223	2.229980	0.755538	-0.000089
1466	1.4577e+02	-18.3556	-50.377398	0.000253	2.534069	0.858566	-0.000101
1467	1.4587e+02	-18.3957	-50.474290	0.000243	2.432706	0.824223	-0.000097
1468	1.4597e+02	-18.4358	-50.579255	0.000264	2.635431	0.892908	-0.000105
1469	1.4607e+02	-18.4824	-50.659998	0.000203	2.027255	0.686853	-0.000081
1470	1.4617e+02	-18.5289	-50.805335	0.000365	3.649059	1.236335	-0.000146
1471	1.4626e+02	-18.5610	-50.894152	0.000223	2.229980	0.755538	-0.000089
1472	1.4636e+02	-18.5947	-50.974894	0.000203	2.027255	0.686853	-0.000081
1473	1.4646e+02	-18.6396	-51.128306	0.000385	3.851784	1.305020	-0.000154
1474	1.4656e+02	-18.6765	-51.209048	0.000203	2.027255	0.686853	-0.000081
1475	1.4666e+02	-18.7182	-51.289791	0.000203	2.027255	0.686853	-0.000081
1476	1.4676e+02	-18.7663	-51.439165	0.000375	3.750422	1.270677	-0.000150
1477	1.4686e+02	-18.7984	-51.519908	0.000203	2.027255	0.686853	-0.000081
1478	1.4696e+02	-18.8401	-51.612762	0.000233	2.331343	0.789880	-0.000093
1479	1.4706e+02	-18.8690	-51.721765	0.000274	2.736794	0.927251	-0.000110
1480	1.4716e+02	-18.9155	-51.830767	0.000274	2.736794	0.927251	-0.000110
1481	1.4726e+02	-18.9572	-51.943807	0.000284	2.838157	0.961594	-0.000114
1482	1.4736e+02	-18.9989	-52.008401	0.000162	1.621804	0.549482	-0.000065
1483	1.4746e+02	-19.0342	-52.149701	0.000355	3.547696	1.201992	-0.000142
1484	1.4756e+02	-19.0711	-52.238518	0.000223	2.229980	0.755538	-0.000089
1485	1.4766e+02	-19.1160	-52.383855	0.000365	3.649059	1.236335	-0.000146
1486	1.4776e+02	-19.1513	-52.432300	0.000122	1.216353	0.412112	-0.000049
1487	1.4786e+02	-19.2027	-52.618009	0.000466	4.662686	1.579761	-0.000187
1488	1.4796e+02	-19.2412	-52.674529	0.000142	1.419078	0.480797	-0.000057
1489	1.4806e+02	-19.2813	-52.803717	0.000324	3.243608	1.098964	-0.000130
1490	1.4816e+02	-19.3166	-52.856200	0.000132	1.317716	0.446454	-0.000053
1491	1.4825e+02	-19.3454	-53.013648	0.000395	3.953147	1.339363	-0.000158
1492	1.4835e+02	-19.4032	-53.122651	0.000274	2.736794	0.927251	-0.000110
1493	1.4845e+02	-19.4401	-53.235690	0.000284	2.838157	0.961594	-0.000114
1494	1.4855e+02	-19.4674	-53.308359	0.000182	1.824529	0.618167	-0.000073
1495	1.4865e+02	-19.5091	-53.433510	0.000314	3.142245	1.064621	-0.000126
1496	1.4875e+02	-19.5524	-53.542513	0.000274	2.736794	0.927251	-0.000110
1497	1.4885e+02	-19.5989	-53.631330	0.000223	2.229980	0.755538	-0.000089
1498	1.4895e+02	-19.6262	-53.784741	0.000385	3.851784	1.305020	-0.000154
1499	1.4905e+02	-19.6727	-53.869521	0.000213	2.128618	0.721195	-0.000085
1500	1.4915e+02	-19.7176	-53.974486	0.000264	2.635431	0.892908	-0.000105
1501	1.4925e+02	-19.7481	-54.099637	0.000314	3.142245	1.064621	-0.000126
1502	1.4935e+02	-19.7930	-54.168269	0.000172	1.723167	0.583825	-0.000069
1503	1.4945e+02	-19.8315	-54.309569	0.000355	3.547696	1.201992	-0.000142
1504	1.4955e+02	-19.8716	-54.446831	0.000345	3.446333	1.167649	-0.000138
1505	1.4965e+02	-19.9149	-54.551797	0.000264	2.635431	0.892908	-0.000105
1506	1.4975e+02	-19.9647	-54.652725	0.000253	2.534069	0.858566	-0.000101
1507	1.4985e+02	-19.9919	-54.725393	0.000182	1.824529	0.618167	-0.000073
1508	1.4995e+02	-19.9470	-54.689059	0.000091	0.912265	0.309084	0.000037
1509	1.5005e+02	-19.9053	-54.612354	0.000193	1.925892	0.652510	0.000077
1510	1.5015e+02	-19.8716	-54.559871	0.000132	1.317716	0.446454	0.000053
1511	1.5025e+02	-19.8347	-54.503351	0.000142	1.419078	0.480797	0.000057
1512	1.5034e+02	-19.7962	-54.438757	0.000162	1.621804	0.549482	0.000065
1513	1.5044e+02	-19.7545	-54.325717	0.000284	2.838157	0.961594	0.000114
1514	1.5054e+02	-19.7144	-54.333791	-0.000020	-0.202725	-0.068685	-0.000008
1515	1.5064e+02	-19.6711	-54.257086	0.000193	1.925892	0.652510	0.000077
1516	1.5074e+02	-19.6246	-54.184417	0.000182	1.824529	0.618167	0.000073
1517	1.5084e+02	-19.5909	-54.115786	0.000172	1.723167	0.583825	0.000069
1518	1.5094e+02	-19.5540	-54.047155	0.000172	1.723167	0.583825	0.000069
1519	1.5104e+02	-19.5155	-53.954301	0.000233	2.331343	0.789880	0.000093
1520	1.5114e+02	-19.4722	-53.913929	0.000101	1.013627	0.343426	0.000041
1521	1.5124e+02	-19.4337	-53.845298	0.000172	1.723167	0.583825	0.000069
1522	1.5134e+02	-19.3920	-53.752444	0.000233	2.331343	0.789880	0.000093
1523	1.5144e+02	-19.3535	-53.643441	0.000274	2.736794	0.927251	0.000110
1524	1.5154e+02	-19.3150	-53.590958	0.000132	1.317716	0.446454	0.000053
1525	1.5164e+02	-19.2765	-53.510216	0.000203	2.027255	0.686853	0.000081
1526	1.5174e+02	-19.2460	-53.417362	0.000233	2.331343	0.789880	0.000093
1527	1.5184e+02	-19.1962	-53.332582	0.000213	2.128618	0.721195	0.000085
1528	1.5194e+02	-19.1626	-53.276062	0.000142	1.419078	0.480797	0.000057
1529	1.5204e+02	-19.1160	-53.191282	0.000213	2.128618	0.721195	0.000085
1530	1.5214e+02	-19.0856	-53.114576	0.000193	1.925892	0.652510	0.000077
1531	1.5224e+02	-19.0342	-53.033834	0.000203	2.027255	0.686853	0.000081
1532	1.5233e+02	-18.9925	-52.977314	0.000142	1.419078	0.480797	0.000057
1533	1.5243e+02	-18.9444	-52.884460	0.000233	2.331343	0.789880	0.000093
1534	1.5253e+02	-18.9235	-52.791605	0.000233	2.331343	0.789880	0.000093
1535	1.5263e+02	-18.8786	-52.714900	0.000193	1.925892	0.652510	0.000077
1536	1.5273e+02	-18.8369	-52.666454	0.000122	1.216353	0.412112	0.000049
1537	1.5283e+02	-18.7984	-52.561489	0.000264	2.635431	0.892908	0.000105
1538	1.5293e+02	-18.7583	-52.513043	0.000122	1.216353	0.412112	0.000049
1539	1.5303e+02	-18.7214	-52.408078	0.000264	2.635431	0.892908	0.000105
1540	1.5313e+02	-18.6797	-52.307149	0.000253	2.534069	0.858566	0.000101
1541	1.5323e+02	-18.6364	-52.246592	0.000152	1.520441	0.515139	0.000061
1542	1.5333e+02	-18.5979	-52.153738	0.000233	2.331343	0.789880	0.000093
1543	1.5343e+02	-18.5674	-52.081070	0.000182	1.824529	0.618167	0.000073
1544	1.5353e+02	-18.5225	-52.000327	0.000203	2.027255	0.686853	0.000081
1545	1.5363e+02	-18.4759	-51.923621	0.000193	1.925892	0.652510	0.000077
1546	1.5373e+02	-18.4374	-51.850953	0.000182	1.824529	0.618167	0.000073
1547	1.5383e+02	-18.3989	-51.778284	0.000182	1.824529	0.618167	0.000073
1548	1.5393e+02	-18.3524	-51.677356	0.000253	2.534069	0.858566	0.000101
1549	1.5403e+02	-18.3219	-51.584502	0.000233	2.331343	0.789880	0.000093
1550	1.5413e+02	-18.2899	-51.479536	0.000264	2.635431	0.892908	0.000105
1551	1.5422e+02	-18.2353	-51.431091	0.000122	1.216353	0.412112	0.000049
1552	1.5432e+02	-18.2032	-51.326125	0.000264	2.635431	0.892908	0.000105
1553	1.5442e+02	-18.1599	-51.301902	0.000061	0.608176	0.206056	0.000024
1554	1.5452e+02	-18.1198	-51.192900	0.000274	2.736794	0.927251	0.000110
1555	1.5462e+02	-18.0813	-51.079860	0.000284	2.838157	0.961594	0.000114
1556	1.5472e+02	-18.0348	-50.991043	0.000223	2.229980	0.755538	0.000089
1557	1.5482e+02	-18.0011	-50.938560	0.000132	1.317716	0.446454	0.000053
1558	1.5492e+02	-17.9674	-50.829558	0.000274	2.736794	0.927251	0.000110
1559	1.5502e+02	-17.9177	-50.752852	0.000193	1.925892	0.652510	0.000077
1560	1.5512e+02	-17.8808	-50.611552	0.000355	3.547696	1.201992	0.000142
1561	1.5522e+02	-17.8439	-50.591367	0.000051	0.506814	0.171713	0.000020
1562	1.5532e+02	-17.8006	-50.454104	0.000345	3.446333	1.167649	0.000138
1563	1.5542e+02	-17.7621	-50.353175	0.000253	2.534069	0.858566	0.000101
1564	1.5552e+02	-17.7204	-50.288581	0.000162	1.621804	0.549482	0.000065
1565	1.5562e+02	-17.6835	-50.240136	0.000122	1.216353	0.412112	0.000049
1566	1.5572e+02	-17.6514	-50.131133	0.000274	2.736794	0.927251	0.000110
1567	1.5582e+02	-17.5968	-50.030205	0.000253	2.534069	0.858566	0.000101
1568	1.5592e+02	-17.5631	-49.905053	0.000314	3.142245	1.064621	0.000126
1569	1.5602e+02	-17.5230	-49.860645	0.000111	1.114990	0.377769	0.000045
1570	1.5612e+02	-17.4797	-49.787976	0.000182	1.824529	0.618167	0.000073
1571	1.5622e+02	-17.4508	-49.711271	0.000193	1.925892	0.652510	0.000077
1572	1.5631e+02	-17.4027	-49.594194	0.000294	2.939520	0.995936	0.000118
1573	1.5641e+02	-17.3610	-49.489228	0.000264	2.635431	0.892908	0.000105
1574	1.5651e+02	-17.3193	-49.436746	0.000132	1.317716	0.446454	0.000053
1575	1.5661e+02	-17.2872	-49.347929	0.000223	2.229980	0.755538	0.000089
1576	1.5671e+02	-17.2391	-49.291409	0.000142	1.419078	0.480797	0.000057
1577	1.5681e+02	-17.2102	-49.162220	0.000324	3.243608	1.098964	0.000130
1578	1.5691e+02	-17.1717	-49.093589	0.000172	1.723167	0.583825	0.000069
1579	1.5701e+02	-17.1236	-49.000735	0.000233	2.331343	0.789880	0.000093
1580	1.5711e+02	-17.0851	-48.911918	0.000223	2.229980	0.755538	0.000089
1581	1.5721e+02	-17.0402	-48.863472	0.000122	1.216353	0.412112	0.000049
1582	1.5731e+02	-17.0033	-48.726210	0.000345	3.446333	1.167649	0.000138
1583	1.5741e+02	-16.9664	-48.677764	0.000122	1.216353	0.412112	0.000049
1584	1.5751e+02	-16.9311	-48.552613	0.000314	3.142245	1.064621	0.000126
1585	1.5761e+02	-16.8797	-48.512242	0.000101	1.013627	0.343426	0.000041
1586	1.5771e+02	-16.8444	-48.439573	0.000182	1.824529	0.618167	0.000073
1587	1.5781e+02	-16.8092	-48.338645	0.000253	2.534069	0.858566	0.000101
1588	1.5791e+02	-16.7723	-48.237716	0.000253	2.534069	0.858566	0.000101
1589	1.5801e+02	-16.7289	-48.189271	0.000122	1.216353	0.412112	0.000049
1590	1.5811e+02	-16.6856	-48.052008	0.000345	3.446333	1.167649	0.000138
1591	1.5821e+02	-16.6519	-47.963191	0.000223	2.229980	0.755538	0.000089
1592	1.5830e+02	-16.5990	-47.882448	0.000203	2.027255	0.686853	0.000081
1593	1.5840e+02	-16.5589	-47.773446	0.000274	2.736794	0.927251	0.000110
1594	1.5850e+02	-16.5300	-47.672517	0.000253	2.534069	0.858566	0.000101
1595	1.5860e+02	-16.4851	-47.628109	0.000111	1.114990	0.377769	0.000045
1596	1.5870e+02	-16.4498	-47.543329	0.000213	2.128618	0.721195	0.000085
1597	1.5880e+02	-16.4097	-47.450475	0.000233	2.331343	0.789880	0.000093
1598	1.5890e+02	-16.3600	-47.349547	0.000253	2.534069	0.858566	0.000101
1599	1.5900e+02	-16.3343	-47.293027	0.000142	1.419078	0.480797	0.000057
1600	1.5910e+02	-16.2894	-47.196135	0.000243	2.432706	0.824223	0.000097
1601	1.5920e+02	-16.2525	-47.087133	0.000274	2.736794	0.927251	0.000110
1602	1.5930e+02	-16.2076	-47.006390	0.000203	2.027255	0.686853	0.000081
1603	1.5940e+02	-16.1642	-46.905462	0.000253	2.534069	0.858566	0.000101
1604	1.5950e+02	-16.1241	-46.873164	0.000081	0.810902	0.274741	0.000032
1605	1.5960e+02	-16.0792	-46.756088	0.000294	2.939520	0.995936	0.000118
1606	1.5970e+02	-16.0407	-46.675345	0.000203	2.027255	0.686853	0.000081
1607	1.5980e+02	-15.9974	-46.586528	0.000223	2.229980	0.755538	0.000089
1608	1.5990e+02	-15.9637	-46.521934	0.000162	1.621804	0.549482	0.000065
1609	1.6000e+02	-15.9316	-46.416968	0.000264	2.635431	0.892908	0.000105
1610	1.6010e+02	-15.8947	-46.320077	0.000243	2.432706	0.824223	0.000097
1611	1.6019e+02	-15.8482	-46.211074	0.000274	2.736794	0.927251	0.000110
1612	1.6029e+02	-15.8081	-46.162629	0.000122	1.216353	0.412112	0.000049
1613	1.6039e+02	-15.7744	-46.085923	0.000193	1.925892	0.652510	0.000077
1614	1.6049e+02	-15.7279	-45.980957	0.000264	2.635431	0.892908	0.000105
1615	1.6059e+02	-15.6830	-45.904252	0.000193	1.925892	0.652510	0.000077
1616	1.6069e+02	-15.6509	-45.811398	0.000233	2.331343	0.789880	0.000093
1617	1.6079e+02	-15.6092	-45.750841	0.000152	1.520441	0.515139	0.000061
1618	1.6089e+02	-15.5707	-45.605504	0.000365	3.649059	1.236335	0.000146
1619	1.6099e+02	-15.5306	-45.573207	0.000081	0.810902	0.274741	0.000032
1620	1.6109e+02	-15.4905	-45.444018	0.000324	3.243608	1.098964	0.000130
1621	1.6119e+02	-15.4488	-45.351164	0.000233	2.331343	0.789880	0.000093
1622	1.6129e+02	-15.4119	-45.270422	0.000203	2.027255	0.686853	0.000081
1623	1.6139e+02	-15.3734	-45.137196	0.000334	3.344971	1.133307	0.000134
1624	1.6149e+02	-15.3300	-45.076639	0.000152	1.520441	0.515139	0.000061
1625	1.6159e+02	-15.2980	-44.995896	0.000203	2.027255	0.686853	0.000081
1626	1.6169e+02	-15.2498	-44.911117	0.000213	2.128618	0.721195	0.000085
1627	1.6179e+02	-15.2145	-44.802114	0.000274	2.736794	0.927251	0.000110
1628	1.6189e+02	-15.1744	-44.733483	0.000172	1.723167	0.583825	0.000069
1629	1.6199e+02	-15.1391	-44.620443	0.000284	2.838157	0.961594	0.000114
1630	1.6209e+02	-15.0878	-44.507403	0.000284	2.838157	0.961594	0.000114
1631	1.6219e+02	-15.0525	-44.406475	0.000253	2.534069	0.858566	0.000101
1632	1.6228e+02	-15.0076	-44.321695	0.000213	2.128618	0.721195	0.000085
1633	1.6238e+02	-14.9691	-44.249026	0.000182	1.824529	0.618167	0.000073
1634	1.6248e+02	-14.9322	-44.131949	0.000294	2.939520	0.995936	0.000118
1635	1.6258e+02	-14.8921	-44.067355	0.000162	1.621804	0.549482	0.000065
1636	1.6268e+02	-14.8648	-43.990650	0.000193	1.925892	0.652510	0.000077
1637	1.6278e+02	-14.8167	-43.889721	0.000253	2.534069	0.858566	0.000101
1638	1.6288e+02	-14.7798	-43.817053	0.000182	1.824529	0.618167	0.000073
1639	1.6298e+02	-14.7365	-43.716124	0.000253	2.534069	0.858566	0.000101
1640	1.6308e+02	-14.6964	-43.623270	0.000233	2.331343	0.789880	0.000093
1641	1.6318e+02	-14.6482	-43.522342	0.000253	2.534069	0.858566	0.000101
1642	1.6328e+02	-14.6081	-43.449673	0.000182	1.824529	0.618167	0.000073
1643	1.6338e+02	-14.5729	-43.344708	0.000264	2.635431	0.892908	0.000105
1644	1.6348e+02	-14.5392	-43.259928	0.000213	2.128618	0.721195	0.000085
1645	1.6358e+02	-14.4975	-43.163037	0.000243	2.432706	0.824223	0.000097
1646	1.6368e+02	-14.4557	-43.082294	0.000203	2.027255	0.686853	0.000081
1647	1.6378e+02	-14.4044	-42.993477	0.000223	2.229980	0.755538	0.000089
1648	1.6388e+02	-14.3787	-42.864289	0.000324	3.243608	1.098964	0.000130
1649	1.6398e+02	-14.3418	-42.795657	0.000172	1.723167	0.583825	0.000069
1650	1.6408e+02	-14.2889	-42.755286	0.000101	1.013627	0.343426	0.000041
1651	1.6418e+02	-14.2536	-42.613986	0.000355	3.547696	1.201992	0.000142
1652	1.6427e+02	-14.2183	-42.492872	0.000304	3.040882	1.030279	0.000122
1653	1.6437e+02	-14.1814	-42.448464	0.000111	1.114990	0.377769	0.000045
1654	1.6447e+02	-14.1333	-42.335424	0.000284	2.838157	0.961594	0.000114
1655	1.6457e+02	-14.0980	-42.242570	0.000233	2.331343	0.789880	0.000093
1656	1.6467e+02	-14.0531	-42.157790	0.000213	2.128618	0.721195	0.000085
1657	1.6477e+02	-14.0210	-42.060899	0.000243	2.432706	0.824223	0.000097
1658	1.6487e+02	-13.9713	-41.951896	0.000274	2.736794	0.927251	0.000110
1659	1.6497e+02	-13.9376	-41.879228	0.000182	1.824529	0.618167	0.000073
1660	1.6507e+02	-13.8959	-41.766188	0.000284	2.838157	0.961594	0.000114
1661	1.6517e+02	-13.8542	-41.693519	0.000182	1.824529	0.618167	0.000073
1662	1.6527e+02	-13.8173	-41.576442	0.000294	2.939520	0.995936	0.000118
1663	1.6537e+02	-13.7772	-41.479551	0.000243	2.432706	0.824223	0.000097
1664	1.6547e+02	-13.7403	-41.386697	0.000233	2.331343	0.789880	0.000093
1665	1.6557e+02	-13.6985	-41.285769	0.000253	2.534069	0.858566	0.000101
1666	1.6567e+02	-13.6665	-41.200989	0.000213	2.128618	0.721195	0.000085
1667	1.6577e+02	-13.6215	-41.100060	0.000253	2.534069	0.858566	0.000101
1668	1.6587e+02	-13.5750	-41.003169	0.000243	2.432706	0.824223	0.000097
1669	1.6597e+02	-13.5477	-40.946649	0.000142	1.419078	0.480797	0.000057
1670	1.6607e+02	-13.4996	-40.777090	0.000426	4.257235	1.442390	0.000170
1671	1.6616e+02	-13.4531	-40.716532	0.000152	1.520441	0.515139	0.000061
1672	1.6626e+02	-13.4194	-40.639827	0.000193	1.925892	0.652510	0.000077
1673	1.6636e+02	-13.3777	-40.542936	0.000243	2.432706	0.824223	0.000097
1674	1.6646e+02	-13.3344	-40.397599	0.000365	3.649059	1.236335	0.000146
1675	1.6656e+02	-13.3007	-40.316856	0.000203	2.027255	0.686853	0.000081
1676	1.6666e+02	-13.2654	-40.228039	0.000223	2.229980	0.755538	0.000089
1677	1.6676e+02	-13.2205	-40.123074	0.000264	2.635431	0.892908	0.000105
1678	1.6686e+02	-13.1740	-40.042331	0.000203	2.027255	0.686853	0.000081
1679	1.6696e+02	-13.1387	-39.917180	0.000314	3.142245	1.064621	0.000126
1680	1.6706e+02	-13.0986	-39.832400	0.000213	2.128618	0.721195	0.000085
1681	1.6716e+02	-13.0697	-39.755694	0.000193	1.925892	0.652510	0.000077
1682	1.6726e+02	-13.0119	-39.626506	0.000324	3.243608	1.098964	0.000130
1683	1.6736e+02	-12.9766	-39.509429	0.000294	2.939520	0.995936	0.000118
1684	1.6746e+02	-12.9446	-39.408501	0.000253	2.534069	0.858566	0.000101
1685	1.6756e+02	-12.9012	-39.351981	0.000142	1.419078	0.480797	0.000057
1686	1.6766e+02	-12.8547	-39.267201	0.000213	2.128618	0.721195	0.000085
1687	1.6776e+02	-12.8210	-39.125901	0.000355	3.547696	1.201992	0.000142
1688	1.6786e+02	-12.7825	-39.057270	0.000172	1.723167	0.583825	0.000069
1689	1.6796e+02	-12.7456	-38.932118	0.000314	3.142245	1.064621	0.000126
1690	1.6806e+02	-12.7071	-38.859450	0.000182	1.824529	0.618167	0.000073
1691	1.6816e+02	-12.6622	-38.726225	0.000334	3.344971	1.133307	0.000134
1692	1.6825e+02	-12.6221	-38.617222	0.000274	2.736794	0.927251	0.000110
1693	1.6835e+02	-12.5820	-38.524368	0.000233	2.331343	0.789880	0.000093
1694	1.6845e+02	-12.5467	-38.459774	0.000162	1.621804	0.549482	0.000065
1695	1.6855e+02	-12.5018	-38.314437	0.000365	3.649059	1.236335	0.000146
1696	1.6865e+02	-12.4617	-38.213508	0.000253	2.534069	0.858566	0.000101
1697	1.6875e+02	-12.4312	-38.173137	0.000101	1.013627	0.343426	0.000041
1698	1.6885e+02	-12.3831	-37.991466	0.000456	4.561324	1.545418	0.000183
1699	1.6895e+02	-12.3494	-37.878426	0.000284	2.838157	0.961594	0.000114
1700	1.6905e+02	-12.3045	-37.825943	0.000132	1.317716	0.446454	0.000053
1701	1.6915e+02	-12.2628	-37.753275	0.000182	1.824529	0.618167	0.000073
1702	1.6925e+02	-12.2275	-37.640235	0.000284	2.838157	0.961594	0.000114
1703	1.6935e+02	-12.1874	-37.511047	0.000324	3.243608	1.098964	0.000130
1704	1.6945e+02	-12.1408	-37.406081	0.000264	2.635431	0.892908	0.000105
1705	1.6955e+02	-12.1136	-37.305153	0.000253	2.534069	0.858566	0.000101
1706	1.6965e+02	-12.0654	-37.272856	0.000081	0.810902	0.274741	0.000032
1707	1.6975e+02	-12.0205	-37.139630	0.000334	3.344971	1.133307	0.000134
1708	1.6985e+02	-11.9868	-37.034665	0.000264	2.635431	0.892908	0.000105
1709	1.6995e+02	-11.9371	-36.990256	0.000111	1.114990	0.377769	0.000045
1710	1.7005e+02	-11.9050	-36.848956	0.000355	3.547696	1.201992	0.000142
1711	1.7015e+02	-11.8681	-36.768214	0.000203	2.027255	0.686853	0.000081
1712	1.7024e+02	-11.8168	-36.651137	0.000294	2.939520	0.995936	0.000118
1713	1.7034e+02	-11.7879	-36.521948	0.000324	3.243608	1.098964	0.000130
1714	1.7044e+02	-11.7494	-36.473503	0.000122	1.216353	0.412112	0.000049
1715	1.7054e+02	-11.7093	-36.328166	0.000365	3.649059	1.236335	0.000146
1716	1.7064e+02	-11.6628	-36.235312	0.000233	2.331343	0.789880	0.000093
1717	1.7074e+02	-11.6211	-36.146495	0.000223	2.229980	0.755538	0.000089
1718	1.7084e+02	-11.5938	-36.021344	0.000314	3.142245	1.064621	0.000126
1719	1.7094e+02	-11.5441	-35.952712	0.000172	1.723167	0.583825	0.000069
1720	1.7104e+02	-11.5072	-35.823524	0.000324	3.243608	1.098964	0.000130
1721	1.7114e+02	-11.4638	-35.738744	0.000213	2.128618	0.721195	0.000085
1722	1.7124e+02	-11.4237	-35.605519	0.000334	3.344971	1.133307	0.000134
1723	1.7134e+02	-11.3949	-35.581296	0.000061	0.608176	0.206056	0.000024
1724	1.7144e+02	-11.3387	-35.395588	0.000466	4.662686	1.579761	0.000187
1725	1.7154e+02	-11.3098	-35.306771	0.000223	2.229980	0.755538	0.000089
1726	1.7164e+02	-11.2713	-35.246214	0.000152	1.520441	0.515139	0.000061
1727	1.7174e+02	-11.2264	-35.100877	0.000365	3.649059	1.236335	0.000146
1728	1.7184e+02	-11.1879	-35.052431	0.000122	1.216353	0.412112	0.000049
1729	1.7194e+02	-11.1574	-34.935354	0.000294	2.939520	0.995936	0.000118
1730	1.7204e+02	-11.1093	-34.798091	0.000345	3.446333	1.167649	0.000138
1731	1.7213e+02	-11.0692	-34.676977	0.000304	3.040882	1.030279	0.000122
1732	1.7223e+02	-11.0355	-34.608346	0.000172	1.723167	0.583825	0.000069
1733	1.7233e+02	-10.9906	-34.515492	0.000233	2.331343	0.789880	0.000093
1734	1.7243e+02	-10.9553	-34.422638	0.000233	2.331343	0.789880	0.000093
1735	1.7253e+02	-10.9040	-34.341895	0.000203	2.027255	0.686853	0.000081
1736	1.7263e+02	-10.8767	-34.192521	0.000375	3.750422	1.270677	0.000150
1737	1.7273e+02	-10.8334	-34.063333	0.000324	3.243608	1.098964	0.000130
1738	1.7283e+02	-10.7885	-33.994701	0.000172	1.723167	0.583825	0.000069
1739	1.7293e+02	-10.7484	-33.897810	0.000243	2.432706	0.824223	0.000097
1740	1.7303e+02	-10.7243	-33.808993	0.000223	2.229980	0.755538	0.000089
1741	1.7313e+02	-10.6681	-33.683842	0.000314	3.142245	1.064621	0.000126
1742	1.7323e+02	-10.6345	-33.558691	0.000314	3.142245	1.064621	0.000126
1743	1.7333e+02	-10.5847	-33.514282	0.000111	1.114990	0.377769	0.000045
1744	1.7343e+02	-10.5494	-33.377020	0.000345	3.446333	1.167649	0.000138
1745	1.7353e+02	-10.5125	-33.280128	0.000243	2.432706	0.824223	0.000097
1746	1.7363e+02	-10.4724	-33.191311	0.000223	2.229980	0.755538	0.000089
1747	1.7373e+02	-10.4371	-33.114606	0.000193	1.925892	0.652510	0.000077
1748	1.7383e+02	-10.3938	-32.985418	0.000324	3.243608	1.098964	0.000130
1749	1.7393e+02	-10.3393	-32.896601	0.000223	2.229980	0.755538	0.000089
1750	1.7403e+02	-10.3216	-32.759338	0.000345	3.446333	1.167649	0.000138
1751	1.7413e+02	-10.2687	-32.694744	0.000162	1.621804	0.549482	0.000065
1752	1.7422e+02	-10.2414	-32.593815	0.000253	2.534069	0.858566	0.000101
1753	1.7432e+02	-10.1981	-32.460590	0.000334	3.344971	1.133307	0.000134
1754	1.7442e+02	-10.1564	-32.428293	0.000081	0.810902	0.274741	0.000032
1755	1.7452e+02	-10.1227	-32.246622	0.000456	4.561324	1.545418	0.000183
1756	1.7462e+02	-10.0826	-32.194139	0.000132	1.317716	0.446454	0.000053
1757	1.7472e+02	-10.0361	-32.068988	0.000314	3.142245	1.064621	0.000126
1758	1.7482e+02	-9.9960	-31.988245	0.000203	2.027255	0.686853	0.000081
1759	1.7492e+02	-9.9527	-31.891354	0.000243	2.432706	0.824223	0.000097
1760	1.7502e+02	-9.9222	-31.798500	0.000233	2.331343	0.789880	0.000093
1761	1.7512e+02	-9.8708	-31.709683	0.000223	2.229980	0.755538	0.000089
1762	1.7522e+02	-9.8243	-31.580494	0.000324	3.243608	1.098964	0.000130
1763	1.7532e+02	-9.7970	-31.487640	0.000233	2.331343	0.789880	0.000093
1764	1.7542e+02	-9.7473	-31.386712	0.000253	2.534069	0.858566	0.000101
1765	1.7552e+02	-9.7136	-31.277709	0.000274	2.736794	0.927251	0.000110
1766	1.7562e+02	-9.6703	-31.241375	0.000091	0.912265	0.309084	0.000037
1767	1.7572e+02	-9.6414	-31.092001	0.000375	3.750422	1.270677	0.000150
1768	1.7582e+02	-9.6045	-31.003184	0.000223	2.229980	0.755538	0.000089
1769	1.7592e+02	-9.5676	-30.910330	0.000233	2.331343	0.789880	0.000093
1770	1.7602e+02	-9.5179	-30.793253	0.000294	2.939520	0.995936	0.000118
1771	1.7612e+02	-9.4762	-30.704436	0.000223	2.229980	0.755538	0.000089
1772	1.7621e+02	-9.4313	-30.603507	0.000253	2.534069	0.858566	0.000101
1773	1.7631e+02	-9.3912	-30.502579	0.000253	2.534069	0.858566	0.000101
1774	1.7641e+02	-9.3591	-30.377428	0.000314	3.142245	1.064621	0.000126
1775	1.7651e+02	-9.3142	-30.304759	0.000182	1.824529	0.618167	0.000073
1776	1.7661e+02	-9.2821	-30.195757	0.000274	2.736794	0.927251	0.000110
1777	1.7671e+02	-9.2372	-30.090791	0.000264	2.635431	0.892908	0.000105
1778	1.7681e+02	-9.2003	-29.957566	0.000334	3.344971	1.133307	0.000134
1779	1.7691e+02	-9.1698	-29.905083	0.000132	1.317716	0.446454	0.000053
1780	1.7701e+02	-9.1185	-29.792043	0.000284	2.838157	0.961594	0.000114
1781	1.7711e+02	-9.0800	-29.699189	0.000233	2.331343	0.789880	0.000093
1782	1.7721e+02	-9.0350	-29.586149	0.000284	2.838157	0.961594	0.000114
1783	1.7731e+02	-8.9965	-29.513481	0.000182	1.824529	0.618167	0.000073
1784	1.7741e+02	-8.9580	-29.384292	0.000324	3.243608	1.098964	0.000130
1785	1.7751e+02	-8.9051	-29.287401	0.000243	2.432706	0.824223	0.000097
1786	1.7761e+02	-8.8682	-29.174361	0.000284	2.838157	0.961594	0.000114
1787	1.7771e+02	-8.8297	-29.085544	0.000223	2.229980	0.755538	0.000089
1788	1.7781e+02	-8.8056	-28.972505	0.000284	2.838157	0.961594	0.000114
1789	1.7791e+02	-8.7575	-28.895799	0.000193	1.925892	0.652510	0.000077
1790	1.7801e+02	-8.7206	-28.742388	0.000385	3.851784	1.305020	0.000154
1791	1.7810e+02	-8.6805	-28.661645	0.000203	2.027255	0.686853	0.000081
1792	1.7820e+02	-8.6308	-28.556680	0.000264	2.635431	0.892908	0.000105
1793	1.7830e+02	-8.5971	-28.427491	0.000324	3.243608	1.098964	0.000130
1794	1.7840e+02	-8.5570	-28.383083	0.000111	1.114990	0.377769	0.000045
1795	1.7850e+02	-8.5169	-28.274080	0.000274	2.736794	0.927251	0.000110
1796	1.7860e+02	-8.4816	-28.165077	0.000274	2.736794	0.927251	0.000110
1797	1.7870e+02	-8.4479	-28.019741	0.000365	3.649059	1.236335	0.000146
1798	1.7880e+02	-8.3998	-27.951109	0.000172	1.723167	0.583825	0.000069
1799	1.7890e+02	-8.3548	-27.809810	0.000355	3.547696	1.201992	0.000142
1800	1.7900e+02	-8.3212	-27.765401	0.000111	1.114990	0.377769	0.000045
1801	1.7910e+02	-8.2843	-27.660436	0.000264	2.635431	0.892908	0.000105
1802	1.7920e+02	-8.2393	-27.498950	0.000405	4.054510	1.373705	0.000162
1803	1.7930e+02	-8.2040	-27.426282	0.000182	1.824529	0.618167	0.000073
1804	1.7940e+02	-8.1559	-27.313242	0.000284	2.838157	0.961594	0.000114
1805	1.7950e+02	-8.1190	-27.224425	0.000223	2.229980	0.755538	0.000089
1806	1.7960e+02	-8.0805	-27.103311	0.000304	3.040882	1.030279	0.000122
1807	1.7970e+02	-8.0404	-26.994308	0.000274	2.736794	0.927251	0.000110
1808	1.7980e+02	-8.0019	-26.925677	0.000172	1.723167	0.583825	0.000069
1809	1.7990e+02	-7.9474	-26.844934	0.000203	2.027255	0.686853	0.000081
1810	1.8000e+02	-7.9217	-26.699597	0.000365	3.649059	1.236335	0.000146
1811	1.8009e+02	-7.8768	-26.594632	0.000264	2.635431	0.892908	0.000105
1812	1.8019e+02	-7.8319	-26.465443	0.000324	3.243608	1.098964	0.000130
1813	1.8029e+02	-7.7934	-26.396812	0.000172	1.723167	0.583825	0.000069
1814	1.8039e+02	-7.7549	-26.267624	0.000324	3.243608	1.098964	0.000130
1815	1.8049e+02	-7.7228	-26.194955	0.000182	1.824529	0.618167	0.000073
1816	1.8059e+02	-7.6907	-26.077878	0.000294	2.939520	0.995936	0.000118
1817	1.8069e+02	-7.6490	-25.985024	0.000233	2.331343	0.789880	0.000093
1818	1.8079e+02	-7.5944	-25.843724	0.000355	3.547696	1.201992	0.000142
1819	1.8089e+02	-7.5640	-25.742796	0.000253	2.534069	0.858566	0.000101
1820	1.8099e+02	-7.5190	-25.670128	0.000182	1.824529	0.618167	0.000073
1821	1.8109e+02	-7.4854	-25.577273	0.000233	2.331343	0.789880	0.000093
1822	1.8119e+02	-7.4468	-25.468271	0.000274	2.736794	0.927251	0.000110
1823	1.8129e+02	-7.4067	-25.339082	0.000324	3.243608	1.098964	0.000130
1824	1.8139e+02	-7.3779	-25.226043	0.000284	2.838157	0.961594	0.000114
1825	1.8149e+02	-7.3265	-25.157411	0.000172	1.723167	0.583825	0.000069
1826	1.8159e+02	-7.2800	-25.052446	0.000264	2.635431	0.892908	0.000105
1827	1.8169e+02	-7.2367	-24.915183	0.000345	3.446333	1.167649	0.000138
1828	1.8179e+02	-7.1966	-24.810218	0.000264	2.635431	0.892908	0.000105
1829	1.8189e+02	-7.1725	-24.721401	0.000223	2.229980	0.755538	0.000089
1830	1.8199e+02	-7.1212	-24.596249	0.000314	3.142245	1.064621	0.000126
1831	1.8209e+02	-7.0763	-24.519544	0.000193	1.925892	0.652510	0.000077
1832	1.8218e+02	-7.0506	-24.402467	0.000294	2.939520	0.995936	0.000118
1833	1.8228e+02	-7.0073	-24.261167	0.000355	3.547696	1.201992	0.000142
1834	1.8238e+02	-6.9704	-24.168313	0.000233	2.331343	0.789880	0.000093
1835	1.8248e+02	-6.9223	-24.047199	0.000304	3.040882	1.030279	0.000122
1836	1.8258e+02	-6.8790	-23.978568	0.000172	1.723167	0.583825	0.000069
1837	1.8268e+02	-6.8421	-23.825157	0.000385	3.851784	1.305020	0.000154
1838	1.8278e+02	-6.8164	-23.724228	0.000253	2.534069	0.858566	0.000101
1839	1.8288e+02	-6.7650	-23.651560	0.000182	1.824529	0.618167	0.000073
1840	1.8298e+02	-6.7169	-23.498149	0.000385	3.851784	1.305020	0.000154
1841	1.8308e+02	-6.6768	-23.425480	0.000182	1.824529	0.618167	0.000073
1842	1.8318e+02	-6.6431	-23.332626	0.000233	2.331343	0.789880	0.000093
1843	1.8328e+02	-6.6143	-23.203438	0.000324	3.243608	1.098964	0.000130
1844	1.8338e+02	-6.5709	-23.106546	0.000243	2.432706	0.824223	0.000097
1845	1.8348e+02	-6.5132	-22.973321	0.000334	3.344971	1.133307	0.000134
1846	1.8358e+02	-6.4907	-22.860281	0.000284	2.838157	0.961594	0.000114
1847	1.8368e+02	-6.4410	-22.727056	0.000334	3.344971	1.133307	0.000134
1848	1.8378e+02	-6.4089	-22.658424	0.000172	1.723167	0.583825	0.000069
1849	1.8388e+02	-6.3720	-22.549422	0.000274	2.736794	0.927251	0.000110
1850	1.8398e+02	-6.3319	-22.428308	0.000304	3.040882	1.030279	0.000122
1851	1.8407e+02	-6.2886	-22.331416	0.000243	2.432706	0.824223	0.000097
1852	1.8417e+02	-6.2549	-22.198191	0.000334	3.344971	1.133307	0.000134
1853	1.8427e+02	-6.2100	-22.089188	0.000274	2.736794	0.927251	0.000110
1854	1.8437e+02	-6.1619	-22.000371	0.000223	2.229980	0.755538	0.000089
1855	1.8447e+02	-6.1282	-21.879257	0.000304	3.040882	1.030279	0.000122
1856	1.8457e+02	-6.0977	-21.766217	0.000284	2.838157	0.961594	0.000114
1857	1.8467e+02	-6.0528	-21.649140	0.000294	2.939520	0.995936	0.000118
1858	1.8477e+02	-6.0191	-21.576472	0.000182	1.824529	0.618167	0.000073
1859	1.8487e+02	-5.9758	-21.398838	0.000446	4.459961	1.511076	0.000179
1860	1.8497e+02	-5.9292	-21.305984	0.000233	2.331343	0.789880	0.000093
1861	1.8507e+02	-5.9004	-21.156610	0.000375	3.750422	1.270677	0.000150
1862	1.8517e+02	-5.8603	-21.092016	0.000162	1.621804	0.549482	0.000065
1863	1.8527e+02	-5.8202	-20.983013	0.000274	2.736794	0.927251	0.000110
1864	1.8537e+02	-5.7672	-20.861899	0.000304	3.040882	1.030279	0.000122
1865	1.8547e+02	-5.7351	-20.748859	0.000284	2.838157	0.961594	0.000114
1866	1.8557e+02	-5.6998	-20.676191	0.000182	1.824529	0.618167	0.000073
1867	1.8567e+02	-5.6549	-20.506631	0.000426	4.257235	1.442390	0.000170
1868	1.8577e+02	-5.6084	-20.421851	0.000213	2.128618	0.721195	0.000085
1869	1.8587e+02	-5.5651	-20.300737	0.000304	3.040882	1.030279	0.000122
1870	1.8597e+02	-5.5282	-20.199809	0.000253	2.534069	0.858566	0.000101
1871	1.8606e+02	-5.4929	-20.082732	0.000294	2.939520	0.995936	0.000118
1872	1.8616e+02	-5.4576	-19.989878	0.000233	2.331343	0.789880	0.000093
1873	1.8626e+02	-5.4239	-19.860689	0.000324	3.243608	1.098964	0.000130
1874	1.8636e+02	-5.3790	-19.763798	0.000243	2.432706	0.824223	0.000097
1875	1.8646e+02	-5.3309	-19.654795	0.000274	2.736794	0.927251	0.000110
1876	1.8656e+02	-5.2972	-19.517533	0.000345	3.446333	1.167649	0.000138
1877	1.8666e+02	-5.2571	-19.396419	0.000304	3.040882	1.030279	0.000122
1878	1.8676e+02	-5.2202	-19.307602	0.000223	2.229980	0.755538	0.000089
1879	1.8686e+02	-5.1833	-19.190525	0.000294	2.939520	0.995936	0.000118
1880	1.8696e+02	-5.1416	-19.085559	0.000264	2.635431	0.892908	0.000105
1881	1.8706e+02	-5.0950	-19.004816	0.000203	2.027255	0.686853	0.000081
1882	1.8716e+02	-5.0581	-18.879665	0.000314	3.142245	1.064621	0.000126
1883	1.8726e+02	-5.0180	-18.750477	0.000324	3.243608	1.098964	0.000130
1884	1.8736e+02	-4.9795	-18.629363	0.000304	3.040882	1.030279	0.000122
1885	1.8746e+02	-4.9298	-18.552657	0.000193	1.925892	0.652510	0.000077
1886	1.8756e+02	-4.8993	-18.439617	0.000284	2.838157	0.961594	0.000114
1887	1.8766e+02	-4.8608	-18.274095	0.000416	4.155873	1.408048	0.000166
1888	1.8776e+02	-4.8175	-18.225649	0.000122	1.216353	0.412112	0.000049
1889	1.8786e+02	-4.7694	-18.092424	0.000334	3.344971	1.133307	0.000134
1890	1.8796e+02	-4.7357	-17.955161	0.000345	3.446333	1.167649	0.000138
1891	1.8806e+02	-4.7036	-17.886530	0.000172	1.723167	0.583825	0.000069
1892	1.8815e+02	-4.6587	-17.749267	0.000345	3.446333	1.167649	0.000138
1893	1.8825e+02	-4.6266	-17.632190	0.000294	2.939520	0.995936	0.000118
1894	1.8835e+02	-4.5769	-17.498965	0.000334	3.344971	1.133307	0.000134
1895	1.8845e+02	-4.5352	-17.422259	0.000193	1.925892	0.652510	0.000077
1896	1.8855e+02	-4.4999	-17.305182	0.000294	2.939520	0.995936	0.000118
1897	1.8865e+02	-4.4630	-17.192143	0.000284	2.838157	0.961594	0.000114
1898	1.8875e+02	-4.4132	-17.079103	0.000284	2.838157	0.961594	0.000114
1899	1.8885e+02	-4.3699	-16.941840	0.000345	3.446333	1.167649	0.000138
1900	1.8895e+02	-4.3346	-16.840912	0.000253	2.534069	0.858566	0.000101
1901	1.8905e+02	-4.3009	-16.695575	0.000365	3.649059	1.236335	0.000146
1902	1.8915e+02	-4.2641	-16.643092	0.000132	1.317716	0.446454	0.000053
1903	1.8925e+02	-4.2207	-16.521978	0.000304	3.040882	1.030279	0.000122
1904	1.8935e+02	-4.1838	-16.421050	0.000253	2.534069	0.858566	0.000101
1905	1.8945e+02	-4.1325	-16.279750	0.000355	3.547696	1.201992	0.000142
1906	1.8955e+02	-4.0988	-16.142487	0.000345	3.446333	1.167649	0.000138
1907	1.8965e+02	-4.0587	-16.061745	0.000203	2.027255	0.686853	0.000081
1908	1.8975e+02	-4.0170	-15.948705	0.000284	2.838157	0.961594	0.000114
1909	1.8985e+02	-3.9849	-15.839702	0.000274	2.736794	0.927251	0.000110
1910	1.8995e+02	-3.9432	-15.698402	0.000355	3.547696	1.201992	0.000142
1911	1.9004e+02	-3.9079	-15.609585	0.000223	2.229980	0.755538	0.000089
1912	1.9014e+02	-3.8598	-15.492508	0.000294	2.939520	0.995936	0.000118
1913	1.9024e+02	-3.8149	-15.383506	0.000274	2.736794	0.927251	0.000110
1914	1.9034e+02	-3.7860	-15.282577	0.000253	2.534069	0.858566	0.000101
1915	1.9044e+02	-3.7411	-15.153389	0.000324	3.243608	1.098964	0.000130
1916	1.9054e+02	-3.6945	-15.060535	0.000233	2.331343	0.789880	0.000093
1917	1.9064e+02	-3.6641	-14.939421	0.000304	3.040882	1.030279	0.000122
1918	1.9074e+02	-3.6304	-14.854641	0.000213	2.128618	0.721195	0.000085
1919	1.9084e+02	-3.5855	-14.689118	0.000416	4.155873	1.408048	0.000166
1920	1.9094e+02	-3.5438	-14.604339	0.000213	2.128618	0.721195	0.000085
1921	1.9104e+02	-3.5036	-14.491299	0.000284	2.838157	0.961594	0.000114
1922	1.9114e+02	-3.4587	-14.370185	0.000304	3.040882	1.030279	0.000122
1923	1.9124e+02	-3.4234	-14.281368	0.000223	2.229980	0.755538	0.000089
1924	1.9134e+02	-3.3833	-14.127957	0.000385	3.851784	1.305020	0.000154
1925	1.9144e+02	-3.3416	-14.010880	0.000294	2.939520	0.995936	0.000118
1926	1.9154e+02	-3.2999	-13.942248	0.000172	1.723167	0.583825	0.000069
1927	1.9164e+02	-3.2630	-13.861506	0.000203	2.027255	0.686853	0.000081
1928	1.9174e+02	-3.2245	-13.704057	0.000395	3.953147	1.339363	0.000158
1929	1.9184e+02	-3.1764	-13.599092	0.000264	2.635431	0.892908	0.000105
1930	1.9194e+02	-3.1379	-13.490089	0.000274	2.736794	0.927251	0.000110
1931	1.9203e+02	-3.1026	-13.417421	0.000182	1.824529	0.618167	0.000073
1932	1.9213e+02	-3.0593	-13.276121	0.000355	3.547696	1.201992	0.000142
1933	1.9223e+02	-3.0224	-13.150970	0.000314	3.142245	1.064621	0.000126
1934	1.9233e+02	-2.9855	-13.074264	0.000193	1.925892	0.652510	0.000077
1935	1.9243e+02	-2.9486	-12.924890	0.000375	3.750422	1.270677	0.000150
1936	1.9253e+02	-2.8972	-12.832036	0.000233	2.331343	0.789880	0.000093
1937	1.9263e+02	-2.8668	-12.739182	0.000233	2.331343	0.789880	0.000093
1938	1.9273e+02	-2.8347	-12.626142	0.000284	2.838157	0.961594	0.000114
1939	1.9283e+02	-2.7817	-12.549436	0.000193	1.925892	0.652510	0.000077
1940	1.9293e+02	-2.7416	-12.408137	0.000355	3.547696	1.201992	0.000142
1941	1.9303e+02	-2.7047	-12.287023	0.000304	3.040882	1.030279	0.000122
1942	1.9313e+02	-2.6598	-12.198206	0.000223	2.229980	0.755538	0.000089
1943	1.9323e+02	-2.6325	-12.089203	0.000274	2.736794	0.927251	0.000110
1944	1.9333e+02	-2.5908	-11.968089	0.000304	3.040882	1.030279	0.000122
1945	1.9343e+02	-2.5491	-11.830826	0.000345	3.446333	1.167649	0.000138
1946	1.9353e+02	-2.5010	-11.750084	0.000203	2.027255	0.686853	0.000081
1947	1.9363e+02	-2.4737	-11.649155	0.000253	2.534069	0.858566	0.000101
1948	1.9373e+02	-2.4256	-11.515930	0.000334	3.344971	1.133307	0.000134
1949	1.9383e+02	-2.3871	-11.447298	0.000172	1.723167	0.583825	0.000069
1950	1.9393e+02	-2.3502	-11.305999	0.000355	3.547696	1.201992	0.000142
1951	1.9403e+02	-2.3069	-11.176810	0.000324	3.243608	1.098964	0.000130
1952	1.9412e+02	-2.2636	-11.063770	0.000284	2.838157	0.961594	0.000114
1953	1.9422e+02	-2.2267	-10.930545	0.000334	3.344971	1.133307	0.000134
1954	1.9432e+02	-2.1994	-10.865951	0.000162	1.621804	0.549482	0.000065
1955	1.9442e+02	-2.1481	-10.744837	0.000304	3.040882	1.030279	0.000122
1956	1.9452e+02	-2.1031	-10.611611	0.000334	3.344971	1.133307	0.000134
1957	1.9462e+02	-2.0630	-10.534906	0.000193	1.925892	0.652510	0.000077
1958	1.9472e+02	-2.0278	-10.397643	0.000345	3.446333	1.167649	0.000138
1959	1.9482e+02	-1.9844	-10.308826	0.000223	2.229980	0.755538	0.000089
1960	1.9492e+02	-1.9459	-10.171563	0.000345	3.446333	1.167649	0.000138
1961	1.9502e+02	-1.9122	-10.086784	0.000213	2.128618	0.721195	0.000085
1962	1.9512e+02	-1.8657	-9.949521	0.000345	3.446333	1.167649	0.000138
1963	1.9522e+02	-1.8336	-9.852630	0.000243	2.432706	0.824223	0.000097
1964	1.9532e+02	-1.7935	-9.674996	0.000446	4.459961	1.511076	0.000179
1965	1.9542e+02	-1.7502	-9.545807	0.000324	3.243608	1.098964	0.000130
1966	1.9552e+02	-1.6989	-9.497362	0.000122	1.216353	0.412112	0.000049
1967	1.9562e+02	-1.6668	-9.347988	0.000375	3.750422	1.270677	0.000150
1968	1.9572e+02	-1.6235	-9.226874	0.000304	3.040882	1.030279	0.000122
1969	1.9582e+02	-1.5914	-9.129982	0.000243	2.432706	0.824223	0.000097
1970	1.9592e+02	-1.5481	-9.020980	0.000274	2.736794	0.927251	0.000110
1971	1.9601e+02	-1.5048	-8.940237	0.000203	2.027255	0.686853	0.000081
1972	1.9611e+02	-1.4743	-8.794900	0.000365	3.649059	1.236335	0.000146
1973	1.9621e+02	-1.4197	-8.681860	0.000284	2.838157	0.961594	0.000114
1974	1.9631e+02	-1.3861	-8.605155	0.000193	1.925892	0.652510	0.000077
1975	1.9641e+02	-1.3476	-8.512301	0.000233	2.331343	0.789880	0.000093
1976	1.9651e+02	-1.3091	-8.326592	0.000466	4.662686	1.579761	0.000187
1977	1.9661e+02	-1.2706	-8.249887	0.000193	1.925892	0.652510	0.000077
1978	1.9671e+02	-1.2353	-8.157033	0.000233	2.331343	0.789880	0.000093
1979	1.9681e+02	-1.1952	-7.999584	0.000395	3.953147	1.339363	0.000158
1980	1.9691e+02	-1.1518	-7.898656	0.000253	2.534069	0.858566	0.000101
1981	1.9701e+02	-1.1101	-7.777542	0.000304	3.040882	1.030279	0.000122
1982	1.9711e+02	-1.0684	-7.664502	0.000284	2.838157	0.961594	0.000114
1983	1.9721e+02	-1.0267	-7.559537	0.000264	2.635431	0.892908	0.000105
1984	1.9731e+02	-0.9946	-7.454571	0.000264	2.635431	0.892908	0.000105
1985	1.9741e+02	-0.9481	-7.361717	0.000233	2.331343	0.789880	0.000093
1986	1.9751e+02	-0.9128	-7.236566	0.000314	3.142245	1.064621	0.000126
1987	1.9761e+02	-0.8695	-7.079118	0.000395	3.953147	1.339363	0.000158
1988	1.9771e+02	-0.8390	-6.990301	0.000223	2.229980	0.755538	0.000089
1989	1.9781e+02	-0.7973	-6.889372	0.000253	2.534069	0.858566	0.000101
1990	1.9791e+02	-0.7476	-6.772295	0.000294	2.939520	0.995936	0.000118
1991	1.9800e+02	-0.7059	-6.622921	0.000375	3.750422	1.270677	0.000150
1992	1.9810e+02	-0.6706	-6.550253	0.000182	1.824529	0.618167	0.000073
1993	1.9820e+02	-0.6353	-6.417027	0.000334	3.344971	1.133307	0.000134
1994	1.9830e+02	-0.5904	-6.320136	0.000243	2.432706	0.824223	0.000097
1995	1.9840e+02	-0.5567	-6.186911	0.000334	3.344971	1.133307	0.000134
1996	1.9850e+02	-0.5150	-6.061759	0.000314	3.142245	1.064621	0.000126
1997	1.9860e+02	-0.4797	-5.940645	0.000304	3.040882	1.030279	0.000122
1998	1.9870e+02	-0.4251	-5.855865	0.000213	2.128618	0.721195	0.000085
1999	1.9880e+02	-0.3898	-5.698417	0.000395	3.953147	1.339363	0.000158
2000	1.9890e+02	-0.3658	-5.605563	0.000233	2.331343	0.789880	0.000093
2001	1.9900e+02	-0.3112	-5.476375	0.000324	3.243608	1.098964	0.000130
2002	1.9910e+02	-0.2711	-5.371409	0.000264	2.635431	0.892908	0.000105
2003	1.9920e+02	-0.2294	-5.254332	0.000294	2.939520	0.995936	0.000118
2004	1.9930e+02	-0.1941	-5.133218	0.000304	3.040882	1.030279	0.000122
2005	1.9940e+02	-0.1588	-5.056513	0.000193	1.925892	0.652510	0.000077
2006	1.9950e+02	-0.1155	-4.915213	0.000355	3.547696	1.201992	0.000142
2007	1.9960e+02	-0.0802	-4.786024	0.000324	3.243608	1.098964	0.000130
2008	1.9970e+02	-0.0401	-4.660873	0.000314	3.142245	1.064621	0.000126
2009	1.9980e+02	0.0032	-4.507462	0.000314	3.142245	1.064621	0.000154

PMax (uC/cm2):	5.89e+01
Pr (uC/cm2):	4.19e+00
-Pr (uC/cm2):	-3.23e-01
PLoss (uC/cm2):	-3.75e-01
-Vc:	-1.46e+00
C (Max-Eff) (nF):	2.95e-01
K (Eff):	9.98e+02
Vert. (+/-Pr) Shift (uC/cm2):	1.94e+00
Offset (uC/cm2):	4.18e+00

A (Loop Area - uC/cm2·Volts):	1.08e-02



Hysteresis Version: 5.48.1 - Radiant Technologies, Inc., 1999 - 9/12/24

