»»»»»»»»»»»»»»»»»»»»»»»»»»»»»»»»»»»» Hysteresis ««««««««««««««««««««««««««««««««««««
»»»  Executed Version:	5.48.1
»»»  Vision Version:	5.48.4 (R)
»»»  Vision Compiled:	9/18/24
»»»  Driver Version:	5.47.0
»»»  Windows Version:	Windows 8 or 8.1
»»»  Processor Information:	x86 (AMD or Intel) - 32 Processors
»»»  Tester Name:	PMF21124-494 (100V)
»»»  Tester S/N:	PMF21124-494
»»»  Internal Amp Type:	100V RevK 270k
»»»  Internal Amp S/N:	iAB2-596/K     
»»»  Execution Count:	1
»»»»»»»»»»»»»»»»»»»»»»»»»»»»»»»»»»»»»»»»»»««««««««««««««««««««««««««««««««««««««««««

Stored:	6/19/2025 - 14:54:46
Configured:	06/19/25 10:04:32 AM
Executed:	06/19/25 02:54:23 PM

»»»»»»»»»»»»»»»»»»»»»»»»»»»»»»»»»»» Sample Info ««««««««««««««««««««««««««««««««««««
Sample Name:	
Lot Name:	
Wafer Name:	
Die Row/Column:	0/0
Capacitor Number:	0
Sample Area (cm2):	1.00e-04
Sample Thickness (microns):	3.00e-01

Amplifier:	Internal

»»»»»»»»»»»»»»»»»»»»»»»»»»»»»»»»»»» Tester Info «««««««««««««««««««««««««««««««««««
Tester Name:	PMF21124-494 (100V)
Tester Serial Number:	PMF21124-494
Return Signal Amp. Level:	0.19 [Index: 3]

»»»»»»»»»»»»»»»»»»»»»»»»»»»»»»»» Hysteresis Info ««««««««««««««««««««««««««««««««««
Task Name:	Hyst-1168
Volts:	20.00
Field:	666.67 (kV/cm)
DCBias:	0.00
DCField:	0.00 (kV/cm)
Hysteresis Period (ms):	2.00e+02
Preset:	Enabled
Preset Delay (ms):	1.00e+03
Profile:	Standard Bipolar

»»»»»»»»»»»»»»»»»»»»»»»»»»»»»»»»»»»»»» Data «««««««««««««««««««««««««««««««««««««««
Points:	2009

Valid Data

Point	Time (ms)	Drive Voltage	Measured Polarization (uC/cm2)	Capacitance (uF)	Normalized Capacitance (uF/cm2)	Dielectric Constant	Instantaneous Current (mA)
   1	0.0000e+00	0.0128	-2.668547	0.000253	2.534069	0.858566	0.000101
   2	9.9500e-02	0.0305	-2.567618	0.000253	2.534069	0.858566	0.000101
   3	1.9900e-01	0.0834	-2.458616	0.000274	2.736794	0.927251	0.000110
   4	2.9850e-01	0.1043	-2.381910	0.000193	1.925892	0.652510	0.000077
   5	3.9800e-01	0.1588	-2.232536	0.000375	3.750422	1.270677	0.000150
   6	4.9750e-01	0.2021	-2.131608	0.000253	2.534069	0.858566	0.000101
   7	5.9700e-01	0.2422	-2.038754	0.000233	2.331343	0.789880	0.000093
   8	6.9650e-01	0.2743	-1.929751	0.000274	2.736794	0.927251	0.000110
   9	7.9600e-01	0.3208	-1.784414	0.000365	3.649059	1.236335	0.000146
  10	8.9550e-01	0.3626	-1.679448	0.000264	2.635431	0.892908	0.000105
  11	9.9500e-01	0.3962	-1.598706	0.000203	2.027255	0.686853	0.000081
  12	1.0945e+00	0.4364	-1.469517	0.000324	3.243608	1.098964	0.000130
  13	1.1940e+00	0.4668	-1.352440	0.000294	2.939520	0.995936	0.000118
  14	1.2935e+00	0.5166	-1.247475	0.000264	2.635431	0.892908	0.000105
  15	1.3930e+00	0.5567	-1.130398	0.000294	2.939520	0.995936	0.000118
  16	1.4925e+00	0.5968	-1.025432	0.000264	2.635431	0.892908	0.000105
  17	1.5920e+00	0.6401	-0.916430	0.000274	2.736794	0.927251	0.000110
  18	1.6915e+00	0.6738	-0.827613	0.000223	2.229980	0.755538	0.000089
  19	1.7910e+00	0.7043	-0.678239	0.000375	3.750422	1.270677	0.000150
  20	1.8905e+00	0.7652	-0.585385	0.000233	2.331343	0.789880	0.000093
  21	1.9900e+00	0.7989	-0.500605	0.000213	2.128618	0.721195	0.000085
  22	2.0895e+00	0.8374	-0.351231	0.000375	3.750422	1.270677	0.000150
  23	2.1890e+00	0.8663	-0.230117	0.000304	3.040882	1.030279	0.000122
  24	2.2885e+00	0.9192	-0.109003	0.000304	3.040882	1.030279	0.000122
  25	2.3880e+00	0.9641	0.000000	0.000274	2.736794	0.927251	0.000110
  26	2.4875e+00	0.9994	0.096891	0.000243	2.432706	0.824223	0.000097
  27	2.5870e+00	1.0363	0.222042	0.000314	3.142245	1.064621	0.000126
  28	2.6865e+00	1.0716	0.371416	0.000375	3.750422	1.270677	0.000150
  29	2.7860e+00	1.1214	0.436011	0.000162	1.621804	0.549482	0.000065
  30	2.8855e+00	1.1550	0.520791	0.000213	2.128618	0.721195	0.000085
  31	2.9850e+00	1.1855	0.710536	0.000476	4.764049	1.614104	0.000191
  32	3.0845e+00	1.2369	0.763019	0.000132	1.317716	0.446454	0.000053
  33	3.1840e+00	1.2689	0.896244	0.000334	3.344971	1.133307	0.000134
  34	3.2835e+00	1.3123	1.057730	0.000405	4.054510	1.373705	0.000162
  35	3.3830e+00	1.3460	1.077915	0.000051	0.506814	0.171713	0.000020
  36	3.4825e+00	1.3877	1.263623	0.000466	4.662686	1.579761	0.000187
  37	3.5820e+00	1.4342	1.380700	0.000294	2.939520	0.995936	0.000118
  38	3.6815e+00	1.4679	1.501814	0.000304	3.040882	1.030279	0.000122
  39	3.7810e+00	1.5128	1.606780	0.000264	2.635431	0.892908	0.000105
  40	3.8805e+00	1.5497	1.731931	0.000314	3.142245	1.064621	0.000126
  41	3.9800e+00	1.5850	1.844971	0.000284	2.838157	0.961594	0.000114
  42	4.0795e+00	1.6363	1.913602	0.000172	1.723167	0.583825	0.000069
  43	4.1790e+00	1.6748	2.091236	0.000446	4.459961	1.511076	0.000179
  44	4.2785e+00	1.7181	2.188128	0.000243	2.432706	0.824223	0.000097
  45	4.3780e+00	1.7518	2.289056	0.000253	2.534069	0.858566	0.000101
  46	4.4775e+00	1.7935	2.438430	0.000375	3.750422	1.270677	0.000150
  47	4.5770e+00	1.8352	2.535321	0.000243	2.432706	0.824223	0.000097
  48	4.6765e+00	1.8753	2.664510	0.000324	3.243608	1.098964	0.000130
  49	4.7760e+00	1.9187	2.769475	0.000264	2.635431	0.892908	0.000105
  50	4.8755e+00	1.9588	2.914812	0.000365	3.649059	1.236335	0.000146
  51	4.9750e+00	1.9860	3.023815	0.000274	2.736794	0.927251	0.000110
  52	5.0745e+00	2.0326	3.132817	0.000274	2.736794	0.927251	0.000110
  53	5.1740e+00	2.0679	3.257969	0.000314	3.142245	1.064621	0.000126
  54	5.2735e+00	2.1128	3.407343	0.000375	3.750422	1.270677	0.000150
  55	5.3730e+00	2.1577	3.516345	0.000274	2.736794	0.927251	0.000110
  56	5.4725e+00	2.1882	3.580939	0.000162	1.621804	0.549482	0.000065
  57	5.5720e+00	2.2267	3.742425	0.000405	4.054510	1.373705	0.000162
  58	5.6715e+00	2.2732	3.875650	0.000334	3.344971	1.133307	0.000134
  59	5.7710e+00	2.3101	3.976579	0.000253	2.534069	0.858566	0.000101
  60	5.8705e+00	2.3422	4.105767	0.000324	3.243608	1.098964	0.000130
  61	5.9700e+00	2.3855	4.186510	0.000203	2.027255	0.686853	0.000081
  62	6.0695e+00	2.4352	4.323772	0.000345	3.446333	1.167649	0.000138
  63	6.1690e+00	2.4625	4.412589	0.000223	2.229980	0.755538	0.000089
  64	6.2685e+00	2.5154	4.549852	0.000345	3.446333	1.167649	0.000138
  65	6.3680e+00	2.5555	4.650780	0.000253	2.534069	0.858566	0.000101
  66	6.4675e+00	2.5860	4.775932	0.000314	3.142245	1.064621	0.000126
  67	6.5670e+00	2.6309	4.897046	0.000304	3.040882	1.030279	0.000122
  68	6.6665e+00	2.6582	5.014123	0.000294	2.939520	0.995936	0.000118
  69	6.7660e+00	2.7079	5.171571	0.000395	3.953147	1.339363	0.000158
  70	6.8655e+00	2.7416	5.300759	0.000324	3.243608	1.098964	0.000130
  71	6.9650e+00	2.7833	5.373428	0.000182	1.824529	0.618167	0.000073
  72	7.0645e+00	2.8234	5.482430	0.000274	2.736794	0.927251	0.000110
  73	7.1640e+00	2.8748	5.615656	0.000334	3.344971	1.133307	0.000134
  74	7.2635e+00	2.9053	5.740807	0.000314	3.142245	1.064621	0.000126
  75	7.3630e+00	2.9374	5.878070	0.000345	3.446333	1.167649	0.000138
  76	7.4625e+00	2.9903	5.991109	0.000284	2.838157	0.961594	0.000114
  77	7.5620e+00	3.0224	6.104149	0.000284	2.838157	0.961594	0.000114
  78	7.6615e+00	3.0705	6.229300	0.000314	3.142245	1.064621	0.000126
  79	7.7610e+00	3.1074	6.314080	0.000213	2.128618	0.721195	0.000085
  80	7.8605e+00	3.1427	6.463454	0.000375	3.750422	1.270677	0.000150
  81	7.9600e+00	3.1844	6.588606	0.000314	3.142245	1.064621	0.000126
  82	8.0595e+00	3.2229	6.701645	0.000284	2.838157	0.961594	0.000114
  83	8.1590e+00	3.2678	6.826797	0.000314	3.142245	1.064621	0.000126
  84	8.2585e+00	3.3095	6.927725	0.000253	2.534069	0.858566	0.000101
  85	8.3580e+00	3.3496	7.089210	0.000405	4.054510	1.373705	0.000162
  86	8.4575e+00	3.3753	7.141693	0.000132	1.317716	0.446454	0.000053
  87	8.5570e+00	3.4266	7.287030	0.000365	3.649059	1.236335	0.000146
  88	8.6565e+00	3.4571	7.432367	0.000365	3.649059	1.236335	0.000146
  89	8.7560e+00	3.5069	7.545407	0.000284	2.838157	0.961594	0.000114
  90	8.8555e+00	3.5389	7.658446	0.000284	2.838157	0.961594	0.000114
  91	8.9550e+00	3.5887	7.819932	0.000405	4.054510	1.373705	0.000162
  92	9.0545e+00	3.6191	7.916823	0.000243	2.432706	0.824223	0.000097
  93	9.1540e+00	3.6737	8.046012	0.000324	3.243608	1.098964	0.000130
  94	9.2535e+00	3.7122	8.134829	0.000223	2.229980	0.755538	0.000089
  95	9.3530e+00	3.7491	8.272091	0.000345	3.446333	1.167649	0.000138
  96	9.4525e+00	3.7812	8.364945	0.000233	2.331343	0.789880	0.000093
  97	9.5520e+00	3.8293	8.530468	0.000416	4.155873	1.408048	0.000166
  98	9.6515e+00	3.8630	8.607173	0.000193	1.925892	0.652510	0.000077
  99	9.7510e+00	3.9079	8.740399	0.000334	3.344971	1.133307	0.000134
 100	9.8505e+00	3.9368	8.841327	0.000253	2.534069	0.858566	0.000101
 101	9.9500e+00	3.9897	9.006850	0.000416	4.155873	1.408048	0.000166
 102	1.0050e+01	4.0314	9.152187	0.000365	3.649059	1.236335	0.000146
 103	1.0149e+01	4.0619	9.236967	0.000213	2.128618	0.721195	0.000085
 104	1.0248e+01	4.1020	9.354044	0.000294	2.939520	0.995936	0.000118
 105	1.0348e+01	4.1469	9.495343	0.000355	3.547696	1.201992	0.000142
 106	1.0447e+01	4.1790	9.636643	0.000355	3.547696	1.201992	0.000142
 107	1.0547e+01	4.2191	9.709311	0.000182	1.824529	0.618167	0.000073
 108	1.0646e+01	4.2721	9.862723	0.000385	3.851784	1.305020	0.000154
 109	1.0746e+01	4.3122	9.955577	0.000233	2.331343	0.789880	0.000093
 110	1.0845e+01	4.3523	10.113025	0.000395	3.953147	1.339363	0.000158
 111	1.0945e+01	4.3812	10.226065	0.000284	2.838157	0.961594	0.000114
 112	1.1044e+01	4.4197	10.347179	0.000304	3.040882	1.030279	0.000122
 113	1.1144e+01	4.4662	10.456182	0.000274	2.736794	0.927251	0.000110
 114	1.1243e+01	4.5031	10.593444	0.000345	3.446333	1.167649	0.000138
 115	1.1343e+01	4.5464	10.686298	0.000233	2.331343	0.789880	0.000093
 116	1.1443e+01	4.5817	10.855858	0.000426	4.257235	1.442390	0.000170
 117	1.1542e+01	4.6218	10.928526	0.000182	1.824529	0.618167	0.000073
 118	1.1642e+01	4.6651	11.069826	0.000355	3.547696	1.201992	0.000142
 119	1.1741e+01	4.7036	11.186903	0.000294	2.939520	0.995936	0.000118
 120	1.1841e+01	4.7485	11.336277	0.000375	3.750422	1.270677	0.000150
 121	1.1940e+01	4.7678	11.400871	0.000162	1.621804	0.549482	0.000065
 122	1.2040e+01	4.8239	11.602728	0.000507	5.068137	1.717131	0.000203
 123	1.2139e+01	4.8672	11.671359	0.000172	1.723167	0.583825	0.000069
 124	1.2239e+01	4.8993	11.804585	0.000334	3.344971	1.133307	0.000134
 125	1.2338e+01	4.9346	11.893402	0.000223	2.229980	0.755538	0.000089
 126	1.2438e+01	4.9860	12.050850	0.000395	3.953147	1.339363	0.000158
 127	1.2537e+01	5.0148	12.167927	0.000294	2.939520	0.995936	0.000118
 128	1.2636e+01	5.0581	12.293078	0.000314	3.142245	1.064621	0.000126
 129	1.2736e+01	5.0918	12.418230	0.000314	3.142245	1.064621	0.000126
 130	1.2835e+01	5.1351	12.543381	0.000314	3.142245	1.064621	0.000126
 131	1.2935e+01	5.1833	12.648346	0.000264	2.635431	0.892908	0.000105
 132	1.3034e+01	5.2170	12.789646	0.000355	3.547696	1.201992	0.000142
 133	1.3134e+01	5.2539	12.926909	0.000345	3.446333	1.167649	0.000138
 134	1.3233e+01	5.3068	13.019763	0.000233	2.331343	0.789880	0.000093
 135	1.3333e+01	5.3373	13.173174	0.000385	3.851784	1.305020	0.000154
 136	1.3432e+01	5.3694	13.266028	0.000233	2.331343	0.789880	0.000093
 137	1.3532e+01	5.4159	13.407328	0.000355	3.547696	1.201992	0.000142
 138	1.3632e+01	5.4528	13.488071	0.000203	2.027255	0.686853	0.000081
 139	1.3731e+01	5.4929	13.661667	0.000436	4.358598	1.476733	0.000174
 140	1.3831e+01	5.5346	13.746447	0.000213	2.128618	0.721195	0.000085
 141	1.3930e+01	5.5827	13.899858	0.000385	3.851784	1.305020	0.000154
 142	1.4030e+01	5.6212	14.016935	0.000294	2.939520	0.995936	0.000118
 143	1.4129e+01	5.6581	14.125938	0.000274	2.736794	0.927251	0.000110
 144	1.4229e+01	5.6886	14.226866	0.000253	2.534069	0.858566	0.000101
 145	1.4328e+01	5.7367	14.372203	0.000365	3.649059	1.236335	0.000146
 146	1.4428e+01	5.7817	14.489280	0.000294	2.939520	0.995936	0.000118
 147	1.4527e+01	5.8169	14.598283	0.000274	2.736794	0.927251	0.000110
 148	1.4627e+01	5.8538	14.771880	0.000436	4.358598	1.476733	0.000174
 149	1.4726e+01	5.9020	14.880882	0.000274	2.736794	0.927251	0.000110
 150	1.4825e+01	5.9389	15.034293	0.000385	3.851784	1.305020	0.000154
 151	1.4925e+01	5.9790	15.171556	0.000345	3.446333	1.167649	0.000138
 152	1.5024e+01	6.0159	15.284596	0.000284	2.838157	0.961594	0.000114
 153	1.5124e+01	6.0431	15.405710	0.000304	3.040882	1.030279	0.000122
 154	1.5223e+01	6.0929	15.526824	0.000304	3.040882	1.030279	0.000122
 155	1.5323e+01	6.1266	15.656012	0.000324	3.243608	1.098964	0.000130
 156	1.5422e+01	6.1683	15.765015	0.000274	2.736794	0.927251	0.000110
 157	1.5522e+01	6.2116	15.882092	0.000294	2.939520	0.995936	0.000118
 158	1.5621e+01	6.2565	15.999169	0.000294	2.939520	0.995936	0.000118
 159	1.5721e+01	6.2966	16.132394	0.000334	3.344971	1.133307	0.000134
 160	1.5820e+01	6.3319	16.293880	0.000405	4.054510	1.373705	0.000162
 161	1.5920e+01	6.3672	16.378660	0.000213	2.128618	0.721195	0.000085
 162	1.6020e+01	6.4089	16.507848	0.000324	3.243608	1.098964	0.000130
 163	1.6119e+01	6.4554	16.653185	0.000365	3.649059	1.236335	0.000146
 164	1.6218e+01	6.4923	16.729890	0.000193	1.925892	0.652510	0.000077
 165	1.6318e+01	6.5244	16.891376	0.000405	4.054510	1.373705	0.000162
 166	1.6418e+01	6.5725	17.040750	0.000375	3.750422	1.270677	0.000150
 167	1.6517e+01	6.6046	17.129567	0.000223	2.229980	0.755538	0.000089
 168	1.6616e+01	6.6528	17.262792	0.000334	3.344971	1.133307	0.000134
 169	1.6716e+01	6.6848	17.400055	0.000345	3.446333	1.167649	0.000138
 170	1.6816e+01	6.7394	17.513095	0.000284	2.838157	0.961594	0.000114
 171	1.6915e+01	6.7667	17.634209	0.000304	3.040882	1.030279	0.000122
 172	1.7015e+01	6.8148	17.755323	0.000304	3.040882	1.030279	0.000122
 173	1.7114e+01	6.8517	17.848177	0.000233	2.331343	0.789880	0.000093
 174	1.7213e+01	6.8886	17.985440	0.000345	3.446333	1.167649	0.000138
 175	1.7313e+01	6.9271	18.163074	0.000446	4.459961	1.511076	0.000179
 176	1.7413e+01	6.9784	18.264002	0.000253	2.534069	0.858566	0.000101
 177	1.7512e+01	7.0169	18.381079	0.000294	2.939520	0.995936	0.000118
 178	1.7611e+01	7.0554	18.558713	0.000446	4.459961	1.511076	0.000179
 179	1.7711e+01	7.0811	18.619270	0.000152	1.520441	0.515139	0.000061
 180	1.7811e+01	7.1404	18.740384	0.000304	3.040882	1.030279	0.000122
 181	1.7910e+01	7.1725	18.889758	0.000375	3.750422	1.270677	0.000150
 182	1.8009e+01	7.2014	18.982612	0.000233	2.331343	0.789880	0.000093
 183	1.8109e+01	7.2495	19.140061	0.000395	3.953147	1.339363	0.000158
 184	1.8209e+01	7.2880	19.240989	0.000253	2.534069	0.858566	0.000101
 185	1.8308e+01	7.3346	19.402474	0.000405	4.054510	1.373705	0.000162
 186	1.8407e+01	7.3763	19.519551	0.000294	2.939520	0.995936	0.000118
 187	1.8507e+01	7.4019	19.628554	0.000274	2.736794	0.927251	0.000110
 188	1.8607e+01	7.4533	19.737557	0.000274	2.736794	0.927251	0.000110
 189	1.8706e+01	7.4934	19.870782	0.000334	3.344971	1.133307	0.000134
 190	1.8805e+01	7.5287	20.024193	0.000385	3.851784	1.305020	0.000154
 191	1.8905e+01	7.5688	20.145307	0.000304	3.040882	1.030279	0.000122
 192	1.9005e+01	7.6137	20.258347	0.000284	2.838157	0.961594	0.000114
 193	1.9104e+01	7.6458	20.363313	0.000264	2.635431	0.892908	0.000105
 194	1.9203e+01	7.6923	20.476352	0.000284	2.838157	0.961594	0.000114
 195	1.9303e+01	7.7292	20.605541	0.000324	3.243608	1.098964	0.000130
 196	1.9402e+01	7.7613	20.762989	0.000395	3.953147	1.339363	0.000158
 197	1.9502e+01	7.8030	20.847769	0.000213	2.128618	0.721195	0.000085
 198	1.9602e+01	7.8479	20.980994	0.000334	3.344971	1.133307	0.000134
 199	1.9701e+01	7.8784	21.142480	0.000405	4.054510	1.373705	0.000162
 200	1.9800e+01	7.9297	21.271668	0.000324	3.243608	1.098964	0.000130
 201	1.9900e+01	7.9698	21.364522	0.000233	2.331343	0.789880	0.000093
 202	2.0000e+01	8.0035	21.501785	0.000345	3.446333	1.167649	0.000138
 203	2.0099e+01	8.0484	21.630973	0.000324	3.243608	1.098964	0.000130
 204	2.0198e+01	8.0934	21.711716	0.000203	2.027255	0.686853	0.000081
 205	2.0298e+01	8.1158	21.881276	0.000426	4.257235	1.442390	0.000170
 206	2.0398e+01	8.1479	21.994316	0.000284	2.838157	0.961594	0.000114
 207	2.0497e+01	8.2153	22.155801	0.000405	4.054510	1.373705	0.000162
 208	2.0596e+01	8.2425	22.228469	0.000182	1.824529	0.618167	0.000073
 209	2.0696e+01	8.2810	22.365732	0.000345	3.446333	1.167649	0.000138
 210	2.0796e+01	8.3179	22.502995	0.000345	3.446333	1.167649	0.000138
 211	2.0895e+01	8.3597	22.587774	0.000213	2.128618	0.721195	0.000085
 212	2.0994e+01	8.3998	22.761371	0.000436	4.358598	1.476733	0.000174
 213	2.1094e+01	8.4479	22.882485	0.000304	3.040882	1.030279	0.000122
 214	2.1194e+01	8.4880	22.983414	0.000253	2.534069	0.858566	0.000101
 215	2.1293e+01	8.5153	23.132788	0.000375	3.750422	1.270677	0.000150
 216	2.1392e+01	8.5666	23.257939	0.000314	3.142245	1.064621	0.000126
 217	2.1492e+01	8.5971	23.387127	0.000324	3.243608	1.098964	0.000130
 218	2.1591e+01	8.6420	23.516316	0.000324	3.243608	1.098964	0.000130
 219	2.1691e+01	8.6869	23.633393	0.000294	2.939520	0.995936	0.000118
 220	2.1791e+01	8.7302	23.778729	0.000365	3.649059	1.236335	0.000146
 221	2.1890e+01	8.7607	23.887732	0.000274	2.736794	0.927251	0.000110
 222	2.1989e+01	8.8008	23.984623	0.000243	2.432706	0.824223	0.000097
 223	2.2089e+01	8.8441	24.129960	0.000365	3.649059	1.236335	0.000146
 224	2.2189e+01	8.8907	24.291446	0.000405	4.054510	1.373705	0.000162
 225	2.2288e+01	8.9227	24.408523	0.000294	2.939520	0.995936	0.000118
 226	2.2387e+01	8.9693	24.497340	0.000223	2.229980	0.755538	0.000089
 227	2.2487e+01	9.0126	24.658825	0.000405	4.054510	1.373705	0.000162
 228	2.2587e+01	9.0479	24.792051	0.000334	3.344971	1.133307	0.000134
 229	2.2686e+01	9.0848	24.897016	0.000264	2.635431	0.892908	0.000105
 230	2.2785e+01	9.1233	24.973722	0.000193	1.925892	0.652510	0.000077
 231	2.2885e+01	9.1650	25.110984	0.000345	3.446333	1.167649	0.000138
 232	2.2985e+01	9.2131	25.272470	0.000405	4.054510	1.373705	0.000162
 233	2.3084e+01	9.2452	25.385510	0.000284	2.838157	0.961594	0.000114
 234	2.3183e+01	9.2837	25.486438	0.000253	2.534069	0.858566	0.000101
 235	2.3283e+01	9.3158	25.611589	0.000314	3.142245	1.064621	0.000126
 236	2.3383e+01	9.3607	25.744815	0.000334	3.344971	1.133307	0.000134
 237	2.3482e+01	9.3992	25.898226	0.000385	3.851784	1.305020	0.000154
 238	2.3581e+01	9.4377	25.962820	0.000162	1.621804	0.549482	0.000065
 239	2.3681e+01	9.4842	26.096045	0.000334	3.344971	1.133307	0.000134
 240	2.3780e+01	9.5195	26.209085	0.000284	2.838157	0.961594	0.000114
 241	2.3880e+01	9.5500	26.358459	0.000375	3.750422	1.270677	0.000150
 242	2.3980e+01	9.5965	26.467462	0.000274	2.736794	0.927251	0.000110
 243	2.4079e+01	9.6414	26.616836	0.000375	3.750422	1.270677	0.000150
 244	2.4178e+01	9.6719	26.746024	0.000324	3.243608	1.098964	0.000130
 245	2.4278e+01	9.7168	26.871175	0.000314	3.142245	1.064621	0.000126
 246	2.4378e+01	9.7602	26.955955	0.000213	2.128618	0.721195	0.000085
 247	2.4477e+01	9.8035	27.133589	0.000446	4.459961	1.511076	0.000179
 248	2.4576e+01	9.8404	27.258741	0.000314	3.142245	1.064621	0.000126
 249	2.4676e+01	9.8724	27.335446	0.000193	1.925892	0.652510	0.000077
 250	2.4776e+01	9.9142	27.484820	0.000375	3.750422	1.270677	0.000150
 251	2.4875e+01	9.9639	27.614008	0.000324	3.243608	1.098964	0.000130
 252	2.4974e+01	9.9976	27.718974	0.000264	2.635431	0.892908	0.000105
 253	2.5074e+01	10.0425	27.860274	0.000355	3.547696	1.201992	0.000142
 254	2.5174e+01	10.0762	27.945054	0.000213	2.128618	0.721195	0.000085
 255	2.5273e+01	10.1195	28.122688	0.000446	4.459961	1.511076	0.000179
 256	2.5372e+01	10.1532	28.231690	0.000274	2.736794	0.927251	0.000110
 257	2.5472e+01	10.1965	28.340693	0.000274	2.736794	0.927251	0.000110
 258	2.5572e+01	10.2254	28.457770	0.000294	2.939520	0.995936	0.000118
 259	2.5671e+01	10.2767	28.566772	0.000274	2.736794	0.927251	0.000110
 260	2.5770e+01	10.3184	28.704035	0.000345	3.446333	1.167649	0.000138
 261	2.5870e+01	10.3617	28.845335	0.000355	3.547696	1.201992	0.000142
 262	2.5970e+01	10.4034	28.970486	0.000314	3.142245	1.064621	0.000126
 263	2.6069e+01	10.4387	29.115823	0.000365	3.649059	1.236335	0.000146
 264	2.6169e+01	10.4740	29.196566	0.000203	2.027255	0.686853	0.000081
 265	2.6268e+01	10.5174	29.337865	0.000355	3.547696	1.201992	0.000142
 266	2.6367e+01	10.5575	29.454942	0.000294	2.939520	0.995936	0.000118
 267	2.6467e+01	10.5911	29.592205	0.000345	3.446333	1.167649	0.000138
 268	2.6567e+01	10.6393	29.741579	0.000375	3.750422	1.270677	0.000150
 269	2.6666e+01	10.6778	29.822322	0.000203	2.027255	0.686853	0.000081
 270	2.6765e+01	10.7147	29.967659	0.000365	3.649059	1.236335	0.000146
 271	2.6865e+01	10.7628	30.080698	0.000284	2.838157	0.961594	0.000114
 272	2.6965e+01	10.7949	30.197775	0.000294	2.939520	0.995936	0.000118
 273	2.7064e+01	10.8382	30.339075	0.000355	3.547696	1.201992	0.000142
 274	2.7163e+01	10.8831	30.444041	0.000264	2.635431	0.892908	0.000105
 275	2.7263e+01	10.9152	30.601489	0.000395	3.953147	1.339363	0.000158
 276	2.7363e+01	10.9505	30.706454	0.000264	2.635431	0.892908	0.000105
 277	2.7462e+01	10.9922	30.847754	0.000355	3.547696	1.201992	0.000142
 278	2.7561e+01	11.0371	30.964831	0.000294	2.939520	0.995936	0.000118
 279	2.7661e+01	11.0740	31.081908	0.000294	2.939520	0.995936	0.000118
 280	2.7761e+01	11.1173	31.223208	0.000355	3.547696	1.201992	0.000142
 281	2.7860e+01	11.1526	31.328173	0.000264	2.635431	0.892908	0.000105
 282	2.7959e+01	11.1975	31.493696	0.000416	4.155873	1.408048	0.000166
 283	2.8059e+01	11.2296	31.562327	0.000172	1.723167	0.583825	0.000069
 284	2.8159e+01	11.2697	31.699590	0.000345	3.446333	1.167649	0.000138
 285	2.8258e+01	11.3114	31.840890	0.000355	3.547696	1.201992	0.000142
 286	2.8358e+01	11.3580	31.937781	0.000243	2.432706	0.824223	0.000097
 287	2.8457e+01	11.3933	32.091192	0.000385	3.851784	1.305020	0.000154
 288	2.8556e+01	11.4366	32.200195	0.000274	2.736794	0.927251	0.000110
 289	2.8656e+01	11.4783	32.321309	0.000304	3.040882	1.030279	0.000122
 290	2.8756e+01	11.5040	32.458571	0.000345	3.446333	1.167649	0.000138
 291	2.8855e+01	11.5537	32.591797	0.000334	3.344971	1.133307	0.000134
 292	2.8954e+01	11.5906	32.700799	0.000274	2.736794	0.927251	0.000110
 293	2.9054e+01	11.6403	32.821914	0.000304	3.040882	1.030279	0.000122
 294	2.9154e+01	11.6708	32.955139	0.000334	3.344971	1.133307	0.000134
 295	2.9253e+01	11.7109	33.052030	0.000243	2.432706	0.824223	0.000097
 296	2.9352e+01	11.7478	33.205441	0.000385	3.851784	1.305020	0.000154
 297	2.9452e+01	11.7927	33.302333	0.000243	2.432706	0.824223	0.000097
 298	2.9552e+01	11.8328	33.411335	0.000274	2.736794	0.927251	0.000110
 299	2.9651e+01	11.8697	33.576858	0.000416	4.155873	1.408048	0.000166
 300	2.9750e+01	11.8986	33.685861	0.000274	2.736794	0.927251	0.000110
 301	2.9850e+01	11.9547	33.811012	0.000314	3.142245	1.064621	0.000126
 302	2.9950e+01	11.9900	33.928089	0.000294	2.939520	0.995936	0.000118
 303	3.0049e+01	12.0237	34.045166	0.000294	2.939520	0.995936	0.000118
 304	3.0148e+01	12.0719	34.178391	0.000334	3.344971	1.133307	0.000134
 305	3.0248e+01	12.1055	34.283357	0.000264	2.635431	0.892908	0.000105
 306	3.0348e+01	12.1537	34.404471	0.000304	3.040882	1.030279	0.000122
 307	3.0447e+01	12.1954	34.569993	0.000416	4.155873	1.408048	0.000166
 308	3.0547e+01	12.2307	34.658810	0.000223	2.229980	0.755538	0.000089
 309	3.0646e+01	12.2692	34.820296	0.000405	4.054510	1.373705	0.000162
 310	3.0745e+01	12.3077	34.925261	0.000264	2.635431	0.892908	0.000105
 311	3.0845e+01	12.3494	35.026190	0.000253	2.534069	0.858566	0.000101
 312	3.0945e+01	12.4007	35.179601	0.000385	3.851784	1.305020	0.000154
 313	3.1044e+01	12.4280	35.296678	0.000294	2.939520	0.995936	0.000118
 314	3.1143e+01	12.4697	35.381458	0.000213	2.128618	0.721195	0.000085
 315	3.1243e+01	12.5098	35.538906	0.000395	3.953147	1.339363	0.000158
 316	3.1343e+01	12.5531	35.639834	0.000253	2.534069	0.858566	0.000101
 317	3.1442e+01	12.5964	35.764986	0.000314	3.142245	1.064621	0.000126
 318	3.1541e+01	12.6381	35.890137	0.000314	3.142245	1.064621	0.000126
 319	3.1641e+01	12.6766	36.035474	0.000365	3.649059	1.236335	0.000146
 320	3.1741e+01	12.7087	36.160625	0.000314	3.142245	1.064621	0.000126
 321	3.1840e+01	12.7488	36.301925	0.000355	3.547696	1.201992	0.000142
 322	3.1939e+01	12.7954	36.419001	0.000294	2.939520	0.995936	0.000118
 323	3.2039e+01	12.8307	36.519930	0.000253	2.534069	0.858566	0.000101
 324	3.2139e+01	12.8643	36.657193	0.000345	3.446333	1.167649	0.000138
 325	3.2238e+01	12.9028	36.810604	0.000385	3.851784	1.305020	0.000154
 326	3.2337e+01	12.9494	36.923643	0.000284	2.838157	0.961594	0.000114
 327	3.2437e+01	12.9798	37.020535	0.000243	2.432706	0.824223	0.000097
 328	3.2536e+01	13.0264	37.133575	0.000284	2.838157	0.961594	0.000114
 329	3.2636e+01	13.0617	37.307171	0.000436	4.358598	1.476733	0.000174
 330	3.2736e+01	13.1130	37.412137	0.000264	2.635431	0.892908	0.000105
 331	3.2835e+01	13.1435	37.525177	0.000284	2.838157	0.961594	0.000114
 332	3.2934e+01	13.1868	37.666476	0.000355	3.547696	1.201992	0.000142
 333	3.3034e+01	13.2269	37.755293	0.000223	2.229980	0.755538	0.000089
 334	3.3133e+01	13.2654	37.904667	0.000375	3.750422	1.270677	0.000150
 335	3.3233e+01	13.3087	38.037893	0.000334	3.344971	1.133307	0.000134
 336	3.3333e+01	13.3424	38.090376	0.000132	1.317716	0.446454	0.000053
 337	3.3432e+01	13.3825	38.255898	0.000416	4.155873	1.408048	0.000166
 338	3.3532e+01	13.4210	38.364901	0.000274	2.736794	0.927251	0.000110
 339	3.3631e+01	13.4659	38.490052	0.000314	3.142245	1.064621	0.000126
 340	3.3730e+01	13.5012	38.639426	0.000375	3.750422	1.270677	0.000150
 341	3.3830e+01	13.5317	38.780726	0.000355	3.547696	1.201992	0.000142
 342	3.3929e+01	13.5798	38.873580	0.000233	2.331343	0.789880	0.000093
 343	3.4029e+01	13.6264	39.006806	0.000334	3.344971	1.133307	0.000134
 344	3.4129e+01	13.6616	39.103697	0.000243	2.432706	0.824223	0.000097
 345	3.4228e+01	13.6969	39.261145	0.000395	3.953147	1.339363	0.000158
 346	3.4328e+01	13.7451	39.394371	0.000334	3.344971	1.133307	0.000134
 347	3.4427e+01	13.7804	39.467039	0.000182	1.824529	0.618167	0.000073
 348	3.4526e+01	13.8140	39.612376	0.000365	3.649059	1.236335	0.000146
 349	3.4626e+01	13.8638	39.749638	0.000345	3.446333	1.167649	0.000138
 350	3.4725e+01	13.9071	39.866715	0.000294	2.939520	0.995936	0.000118
 351	3.4825e+01	13.9472	40.040312	0.000436	4.358598	1.476733	0.000174
 352	3.4925e+01	13.9761	40.076646	0.000091	0.912265	0.309084	0.000037
 353	3.5024e+01	14.0194	40.250243	0.000436	4.358598	1.476733	0.000174
 354	3.5123e+01	14.0659	40.371357	0.000304	3.040882	1.030279	0.000122
 355	3.5223e+01	14.1044	40.456137	0.000213	2.128618	0.721195	0.000085
 356	3.5322e+01	14.1477	40.597437	0.000355	3.547696	1.201992	0.000142
 357	3.5422e+01	14.1798	40.734700	0.000345	3.446333	1.167649	0.000138
 358	3.5522e+01	14.2183	40.847739	0.000284	2.838157	0.961594	0.000114
 359	3.5621e+01	14.2632	40.997113	0.000375	3.750422	1.270677	0.000150
 360	3.5721e+01	14.2985	41.114190	0.000294	2.939520	0.995936	0.000118
 361	3.5820e+01	14.3370	41.239342	0.000314	3.142245	1.064621	0.000126
 362	3.5919e+01	14.3836	41.376604	0.000345	3.446333	1.167649	0.000138
 363	3.6019e+01	14.4221	41.473495	0.000243	2.432706	0.824223	0.000097
 364	3.6118e+01	14.4622	41.598647	0.000314	3.142245	1.064621	0.000126
 365	3.6218e+01	14.4910	41.711686	0.000284	2.838157	0.961594	0.000114
 366	3.6318e+01	14.5440	41.877209	0.000416	4.155873	1.408048	0.000166
 367	3.6417e+01	14.5825	41.970063	0.000233	2.331343	0.789880	0.000093
 368	3.6517e+01	14.6226	42.095214	0.000314	3.142245	1.064621	0.000126
 369	3.6616e+01	14.6547	42.260737	0.000416	4.155873	1.408048	0.000166
 370	3.6715e+01	14.6916	42.333405	0.000182	1.824529	0.618167	0.000073
 371	3.6815e+01	14.7429	42.486817	0.000385	3.851784	1.305020	0.000154
 372	3.6914e+01	14.7750	42.567559	0.000203	2.027255	0.686853	0.000081
 373	3.7014e+01	14.8199	42.696748	0.000324	3.243608	1.098964	0.000130
 374	3.7114e+01	14.8552	42.821899	0.000314	3.142245	1.064621	0.000126
 375	3.7213e+01	14.8969	42.959161	0.000345	3.446333	1.167649	0.000138
 376	3.7313e+01	14.9418	43.084313	0.000314	3.142245	1.064621	0.000126
 377	3.7412e+01	14.9691	43.237724	0.000385	3.851784	1.305020	0.000154
 378	3.7511e+01	15.0156	43.354801	0.000294	2.939520	0.995936	0.000118
 379	3.7611e+01	15.0589	43.463803	0.000274	2.736794	0.927251	0.000110
 380	3.7711e+01	15.1022	43.568769	0.000264	2.635431	0.892908	0.000105
 381	3.7810e+01	15.1391	43.697957	0.000324	3.243608	1.098964	0.000130
 382	3.7910e+01	15.1825	43.810997	0.000284	2.838157	0.961594	0.000114
 383	3.8009e+01	15.2290	43.976520	0.000416	4.155873	1.408048	0.000166
 384	3.8108e+01	15.2514	44.109745	0.000334	3.344971	1.133307	0.000134
 385	3.8208e+01	15.2948	44.198562	0.000223	2.229980	0.755538	0.000089
 386	3.8307e+01	15.3397	44.315639	0.000294	2.939520	0.995936	0.000118
 387	3.8407e+01	15.3846	44.477124	0.000405	4.054510	1.373705	0.000162
 388	3.8507e+01	15.4183	44.598238	0.000304	3.040882	1.030279	0.000122
 389	3.8606e+01	15.4536	44.670907	0.000182	1.824529	0.618167	0.000073
 390	3.8706e+01	15.4937	44.763761	0.000233	2.331343	0.789880	0.000093
 391	3.8805e+01	15.5274	44.941395	0.000446	4.459961	1.511076	0.000179
 392	3.8904e+01	15.5707	45.086732	0.000365	3.649059	1.236335	0.000146
 393	3.9004e+01	15.6188	45.171512	0.000213	2.128618	0.721195	0.000085
 394	3.9103e+01	15.6493	45.296663	0.000314	3.142245	1.064621	0.000126
 395	3.9203e+01	15.6990	45.446037	0.000375	3.750422	1.270677	0.000150
 396	3.9303e+01	15.7423	45.559077	0.000284	2.838157	0.961594	0.000114
 397	3.9402e+01	15.7744	45.676154	0.000294	2.939520	0.995936	0.000118
 398	3.9502e+01	15.8097	45.789194	0.000284	2.838157	0.961594	0.000114
 399	3.9601e+01	15.8498	45.886085	0.000243	2.432706	0.824223	0.000097
 400	3.9700e+01	15.8899	46.035459	0.000375	3.750422	1.270677	0.000150
 401	3.9800e+01	15.9284	46.148499	0.000284	2.838157	0.961594	0.000114
 402	3.9900e+01	15.9717	46.241353	0.000233	2.331343	0.789880	0.000093
 403	3.9999e+01	16.0118	46.362467	0.000304	3.040882	1.030279	0.000122
 404	4.0099e+01	16.0520	46.511841	0.000375	3.750422	1.270677	0.000150
 405	4.0198e+01	16.0872	46.632955	0.000304	3.040882	1.030279	0.000122
 406	4.0297e+01	16.1241	46.782329	0.000375	3.750422	1.270677	0.000150
 407	4.0397e+01	16.1739	46.826737	0.000111	1.114990	0.377769	0.000045
 408	4.0496e+01	16.2140	46.955926	0.000324	3.243608	1.098964	0.000130
 409	4.0596e+01	16.2557	47.125485	0.000426	4.257235	1.442390	0.000170
 410	4.0696e+01	16.2846	47.186043	0.000152	1.520441	0.515139	0.000061
 411	4.0795e+01	16.3263	47.355602	0.000426	4.257235	1.442390	0.000170
 412	4.0895e+01	16.3648	47.500939	0.000365	3.649059	1.236335	0.000146
 413	4.0994e+01	16.4177	47.622053	0.000304	3.040882	1.030279	0.000122
 414	4.1093e+01	16.4482	47.747204	0.000314	3.142245	1.064621	0.000126
 415	4.1193e+01	16.4851	47.880430	0.000334	3.344971	1.133307	0.000134
 416	4.1292e+01	16.5332	47.949061	0.000172	1.723167	0.583825	0.000069
 417	4.1392e+01	16.5701	48.078250	0.000324	3.243608	1.098964	0.000130
 418	4.1492e+01	16.6086	48.207438	0.000324	3.243608	1.098964	0.000130
 419	4.1591e+01	16.6535	48.312403	0.000264	2.635431	0.892908	0.000105
 420	4.1691e+01	16.6936	48.453703	0.000355	3.547696	1.201992	0.000142
 421	4.1790e+01	16.7241	48.574817	0.000304	3.040882	1.030279	0.000122
 422	4.1889e+01	16.7755	48.687857	0.000284	2.838157	0.961594	0.000114
 423	4.1989e+01	16.8204	48.808971	0.000304	3.040882	1.030279	0.000122
 424	4.2089e+01	16.8493	48.913937	0.000264	2.635431	0.892908	0.000105
 425	4.2188e+01	16.9022	49.043125	0.000324	3.243608	1.098964	0.000130
 426	4.2288e+01	16.9327	49.204610	0.000405	4.054510	1.373705	0.000162
 427	4.2387e+01	16.9680	49.281316	0.000193	1.925892	0.652510	0.000077
 428	4.2486e+01	17.0081	49.394356	0.000284	2.838157	0.961594	0.000114
 429	4.2586e+01	17.0402	49.515470	0.000304	3.040882	1.030279	0.000122
 430	4.2685e+01	17.0867	49.652732	0.000345	3.446333	1.167649	0.000138
 431	4.2785e+01	17.1300	49.781921	0.000324	3.243608	1.098964	0.000130
 432	4.2885e+01	17.1589	49.919183	0.000345	3.446333	1.167649	0.000138
 433	4.2984e+01	17.2102	50.040297	0.000304	3.040882	1.030279	0.000122
 434	4.3084e+01	17.2551	50.112966	0.000182	1.824529	0.618167	0.000073
 435	4.3183e+01	17.2888	50.274451	0.000405	4.054510	1.373705	0.000162
 436	4.3282e+01	17.3385	50.375380	0.000253	2.534069	0.858566	0.000101
 437	4.3382e+01	17.3562	50.496494	0.000304	3.040882	1.030279	0.000122
 438	4.3481e+01	17.4091	50.657979	0.000405	4.054510	1.373705	0.000162
 439	4.3581e+01	17.4508	50.754870	0.000243	2.432706	0.824223	0.000097
 440	4.3681e+01	17.4893	50.888096	0.000334	3.344971	1.133307	0.000134
 441	4.3780e+01	17.5246	50.964802	0.000193	1.925892	0.652510	0.000077
 442	4.3880e+01	17.5776	51.114176	0.000375	3.750422	1.270677	0.000150
 443	4.3979e+01	17.6049	51.251438	0.000345	3.446333	1.167649	0.000138
 444	4.4078e+01	17.6450	51.344292	0.000233	2.331343	0.789880	0.000093
 445	4.4178e+01	17.6851	51.497703	0.000385	3.851784	1.305020	0.000154
 446	4.4278e+01	17.7236	51.594595	0.000243	2.432706	0.824223	0.000097
 447	4.4377e+01	17.7685	51.735894	0.000355	3.547696	1.201992	0.000142
 448	4.4477e+01	17.8118	51.812600	0.000193	1.925892	0.652510	0.000077
 449	4.4576e+01	17.8503	51.949863	0.000345	3.446333	1.167649	0.000138
 450	4.4675e+01	17.8888	52.062902	0.000284	2.838157	0.961594	0.000114
 451	4.4775e+01	17.9257	52.184017	0.000304	3.040882	1.030279	0.000122
 452	4.4874e+01	17.9674	52.329353	0.000365	3.649059	1.236335	0.000146
 453	4.4974e+01	18.0027	52.438356	0.000274	2.736794	0.927251	0.000110
 454	4.5074e+01	18.0476	52.543322	0.000264	2.635431	0.892908	0.000105
 455	4.5173e+01	18.0797	52.724993	0.000456	4.561324	1.545418	0.000183
 456	4.5273e+01	18.1278	52.777476	0.000132	1.317716	0.446454	0.000053
 457	4.5372e+01	18.1663	52.918775	0.000355	3.547696	1.201992	0.000142
 458	4.5471e+01	18.2032	53.035852	0.000294	2.939520	0.995936	0.000118
 459	4.5571e+01	18.2481	53.144855	0.000274	2.736794	0.927251	0.000110
 460	4.5670e+01	18.2883	53.298266	0.000385	3.851784	1.305020	0.000154
 461	4.5770e+01	18.3316	53.435529	0.000345	3.446333	1.167649	0.000138
 462	4.5870e+01	18.3685	53.540494	0.000264	2.635431	0.892908	0.000105
 463	4.5969e+01	18.4038	53.661608	0.000304	3.040882	1.030279	0.000122
 464	4.6069e+01	18.4503	53.774648	0.000284	2.838157	0.961594	0.000114
 465	4.6168e+01	18.4872	53.887688	0.000284	2.838157	0.961594	0.000114
 466	4.6267e+01	18.5353	54.016876	0.000324	3.243608	1.098964	0.000130
 467	4.6367e+01	18.5706	54.117805	0.000253	2.534069	0.858566	0.000101
 468	4.6467e+01	18.6091	54.246993	0.000324	3.243608	1.098964	0.000130
 469	4.6566e+01	18.6476	54.376181	0.000324	3.243608	1.098964	0.000130
 470	4.6666e+01	18.6813	54.485184	0.000274	2.736794	0.927251	0.000110
 471	4.6765e+01	18.7246	54.618409	0.000334	3.344971	1.133307	0.000134
 472	4.6864e+01	18.7599	54.747598	0.000324	3.243608	1.098964	0.000130
 473	4.6964e+01	18.7984	54.860638	0.000284	2.838157	0.961594	0.000114
 474	4.7063e+01	18.8497	54.949455	0.000223	2.229980	0.755538	0.000089
 475	4.7163e+01	18.8866	55.062494	0.000284	2.838157	0.961594	0.000114
 476	4.7263e+01	18.9251	55.183608	0.000304	3.040882	1.030279	0.000122
 477	4.7362e+01	18.9556	55.332982	0.000375	3.750422	1.270677	0.000150
 478	4.7462e+01	19.0086	55.450059	0.000294	2.939520	0.995936	0.000118
 479	4.7561e+01	19.0390	55.555025	0.000264	2.635431	0.892908	0.000105
 480	4.7660e+01	19.0840	55.684213	0.000324	3.243608	1.098964	0.000130
 481	4.7760e+01	19.1257	55.797253	0.000284	2.838157	0.961594	0.000114
 482	4.7859e+01	19.1658	55.918367	0.000304	3.040882	1.030279	0.000122
 483	4.7959e+01	19.1995	56.083890	0.000416	4.155873	1.408048	0.000166
 484	4.8059e+01	19.2444	56.176744	0.000233	2.331343	0.789880	0.000093
 485	4.8158e+01	19.2765	56.289784	0.000284	2.838157	0.961594	0.000114
 486	4.8258e+01	19.3214	56.414935	0.000314	3.142245	1.064621	0.000126
 487	4.8357e+01	19.3567	56.544123	0.000324	3.243608	1.098964	0.000130
 488	4.8456e+01	19.3968	56.681386	0.000345	3.446333	1.167649	0.000138
 489	4.8556e+01	19.4449	56.778277	0.000243	2.432706	0.824223	0.000097
 490	4.8656e+01	19.4722	56.907465	0.000324	3.243608	1.098964	0.000130
 491	4.8755e+01	19.5299	57.056839	0.000375	3.750422	1.270677	0.000150
 492	4.8855e+01	19.5604	57.149694	0.000233	2.331343	0.789880	0.000093
 493	4.8954e+01	19.6037	57.295030	0.000365	3.649059	1.236335	0.000146
 494	4.9053e+01	19.6358	57.404033	0.000274	2.736794	0.927251	0.000110
 495	4.9153e+01	19.6743	57.533221	0.000324	3.243608	1.098964	0.000130
 496	4.9252e+01	19.7144	57.654335	0.000304	3.040882	1.030279	0.000122
 497	4.9352e+01	19.7577	57.783524	0.000324	3.243608	1.098964	0.000130
 498	4.9452e+01	19.8043	57.860229	0.000193	1.925892	0.652510	0.000077
 499	4.9551e+01	19.8379	57.977306	0.000294	2.939520	0.995936	0.000118
 500	4.9651e+01	19.8732	58.142829	0.000416	4.155873	1.408048	0.000166
 501	4.9750e+01	19.9166	58.255869	0.000284	2.838157	0.961594	0.000114
 502	4.9849e+01	19.9695	58.364871	0.000274	2.736794	0.927251	0.000110
 503	4.9949e+01	19.9936	58.453688	0.000223	2.229980	0.755538	0.000089
 504	5.0048e+01	19.9647	58.405243	0.000122	1.216353	0.412112	-0.000049
 505	5.0148e+01	19.9182	58.336611	0.000172	1.723167	0.583825	-0.000069
 506	5.0248e+01	19.8748	58.195312	0.000355	3.547696	1.201992	-0.000142
 507	5.0347e+01	19.8428	58.146866	0.000122	1.216353	0.412112	-0.000049
 508	5.0447e+01	19.8026	58.049975	0.000243	2.432706	0.824223	-0.000097
 509	5.0546e+01	19.7561	57.981343	0.000172	1.723167	0.583825	-0.000069
 510	5.0645e+01	19.7208	57.872341	0.000274	2.736794	0.927251	-0.000110
 511	5.0745e+01	19.6791	57.743152	0.000324	3.243608	1.098964	-0.000130
 512	5.0844e+01	19.6390	57.686633	0.000142	1.419078	0.480797	-0.000057
 513	5.0944e+01	19.5989	57.573593	0.000284	2.838157	0.961594	-0.000114
 514	5.1044e+01	19.5636	57.484776	0.000223	2.229980	0.755538	-0.000089
 515	5.1143e+01	19.5187	57.379810	0.000264	2.635431	0.892908	-0.000105
 516	5.1242e+01	19.4802	57.278882	0.000253	2.534069	0.858566	-0.000101
 517	5.1342e+01	19.4513	57.186028	0.000233	2.331343	0.789880	-0.000093
 518	5.1441e+01	19.4016	57.093174	0.000233	2.331343	0.789880	-0.000093
 519	5.1541e+01	19.3711	57.000319	0.000233	2.331343	0.789880	-0.000093
 520	5.1641e+01	19.3246	56.939762	0.000152	1.520441	0.515139	-0.000061
 521	5.1740e+01	19.2781	56.826723	0.000284	2.838157	0.961594	-0.000114
 522	5.1840e+01	19.2492	56.737906	0.000223	2.229980	0.755538	-0.000089
 523	5.1939e+01	19.1979	56.628903	0.000274	2.736794	0.927251	-0.000110
 524	5.2038e+01	19.1722	56.556235	0.000182	1.824529	0.618167	-0.000073
 525	5.2138e+01	19.1209	56.402823	0.000385	3.851784	1.305020	-0.000154
 526	5.2237e+01	19.0823	56.342266	0.000152	1.520441	0.515139	-0.000061
 527	5.2337e+01	19.0455	56.221152	0.000304	3.040882	1.030279	-0.000122
 528	5.2437e+01	19.0086	56.136372	0.000213	2.128618	0.721195	-0.000085
 529	5.2536e+01	18.9668	56.023333	0.000284	2.838157	0.961594	-0.000114
 530	5.2636e+01	18.9267	55.930479	0.000233	2.331343	0.789880	-0.000093
 531	5.2735e+01	18.8850	55.865884	0.000162	1.621804	0.549482	-0.000065
 532	5.2834e+01	18.8465	55.720547	0.000365	3.649059	1.236335	-0.000146
 533	5.2934e+01	18.7936	55.587322	0.000334	3.344971	1.133307	-0.000134
 534	5.3033e+01	18.7615	55.486394	0.000253	2.534069	0.858566	-0.000101
 535	5.3133e+01	18.7278	55.425837	0.000152	1.520441	0.515139	-0.000061
 536	5.3233e+01	18.6813	55.296648	0.000324	3.243608	1.098964	-0.000130
 537	5.3332e+01	18.6476	55.215905	0.000203	2.027255	0.686853	-0.000081
 538	5.3431e+01	18.6059	55.155348	0.000152	1.520441	0.515139	-0.000061
 539	5.3531e+01	18.5530	54.989826	0.000416	4.155873	1.408048	-0.000166
 540	5.3630e+01	18.5193	54.892935	0.000243	2.432706	0.824223	-0.000097
 541	5.3730e+01	18.4840	54.804118	0.000223	2.229980	0.755538	-0.000089
 542	5.3830e+01	18.4374	54.699152	0.000264	2.635431	0.892908	-0.000105
 543	5.3929e+01	18.4054	54.606298	0.000233	2.331343	0.789880	-0.000093
 544	5.4029e+01	18.3685	54.464998	0.000355	3.547696	1.201992	-0.000142
 545	5.4128e+01	18.3332	54.388293	0.000193	1.925892	0.652510	-0.000077
 546	5.4227e+01	18.2786	54.283327	0.000264	2.635431	0.892908	-0.000105
 547	5.4327e+01	18.2417	54.178362	0.000264	2.635431	0.892908	-0.000105
 548	5.4426e+01	18.1968	54.097619	0.000203	2.027255	0.686853	-0.000081
 549	5.4526e+01	18.1663	53.972468	0.000314	3.142245	1.064621	-0.000126
 550	5.4626e+01	18.1262	53.879614	0.000233	2.331343	0.789880	-0.000093
 551	5.4725e+01	18.0861	53.774648	0.000264	2.635431	0.892908	-0.000105
 552	5.4825e+01	18.0524	53.669683	0.000264	2.635431	0.892908	-0.000105
 553	5.4924e+01	18.0059	53.548568	0.000304	3.040882	1.030279	-0.000122
 554	5.5023e+01	17.9642	53.455714	0.000233	2.331343	0.789880	-0.000093
 555	5.5123e+01	17.9193	53.374972	0.000203	2.027255	0.686853	-0.000081
 556	5.5222e+01	17.8856	53.233672	0.000355	3.547696	1.201992	-0.000142
 557	5.5322e+01	17.8423	53.108521	0.000314	3.142245	1.064621	-0.000126
 558	5.5422e+01	17.8054	53.011629	0.000243	2.432706	0.824223	-0.000097
 559	5.5521e+01	17.7669	52.914738	0.000243	2.432706	0.824223	-0.000097
 560	5.5620e+01	17.7220	52.797661	0.000294	2.939520	0.995936	-0.000118
 561	5.5720e+01	17.6915	52.708844	0.000223	2.229980	0.755538	-0.000089
 562	5.5819e+01	17.6578	52.620027	0.000223	2.229980	0.755538	-0.000089
 563	5.5919e+01	17.6049	52.486802	0.000334	3.344971	1.133307	-0.000134
 564	5.6019e+01	17.5647	52.397985	0.000223	2.229980	0.755538	-0.000089
 565	5.6118e+01	17.5230	52.272834	0.000314	3.142245	1.064621	-0.000126
 566	5.6218e+01	17.4926	52.175942	0.000243	2.432706	0.824223	-0.000097
 567	5.6317e+01	17.4492	52.091162	0.000213	2.128618	0.721195	-0.000085
 568	5.6416e+01	17.4139	51.953900	0.000345	3.446333	1.167649	-0.000138
 569	5.6516e+01	17.3626	51.852971	0.000253	2.534069	0.858566	-0.000101
 570	5.6615e+01	17.3305	51.731857	0.000304	3.040882	1.030279	-0.000122
 571	5.6715e+01	17.2824	51.630929	0.000253	2.534069	0.858566	-0.000101
 572	5.6815e+01	17.2535	51.542112	0.000223	2.229980	0.755538	-0.000089
 573	5.6914e+01	17.2118	51.416961	0.000314	3.142245	1.064621	-0.000126
 574	5.7014e+01	17.1653	51.316032	0.000253	2.534069	0.858566	-0.000101
 575	5.7113e+01	17.1284	51.223178	0.000233	2.331343	0.789880	-0.000093
 576	5.7212e+01	17.0931	51.073804	0.000375	3.750422	1.270677	-0.000150
 577	5.7312e+01	17.0498	50.972876	0.000253	2.534069	0.858566	-0.000101
 578	5.7411e+01	17.0065	50.875985	0.000243	2.432706	0.824223	-0.000097
 579	5.7511e+01	16.9696	50.758908	0.000294	2.939520	0.995936	-0.000118
 580	5.7611e+01	16.9343	50.637794	0.000304	3.040882	1.030279	-0.000122
 581	5.7710e+01	16.8990	50.553014	0.000213	2.128618	0.721195	-0.000085
 582	5.7809e+01	16.8332	50.435937	0.000294	2.939520	0.995936	-0.000118
 583	5.7909e+01	16.8092	50.335008	0.000253	2.534069	0.858566	-0.000101
 584	5.8008e+01	16.7723	50.213894	0.000304	3.040882	1.030279	-0.000122
 585	5.8108e+01	16.7354	50.121040	0.000233	2.331343	0.789880	-0.000093
 586	5.8208e+01	16.6872	50.003963	0.000294	2.939520	0.995936	-0.000118
 587	5.8307e+01	16.6487	49.886886	0.000294	2.939520	0.995936	-0.000118
 588	5.8407e+01	16.6086	49.781921	0.000264	2.635431	0.892908	-0.000105
 589	5.8506e+01	16.5717	49.680992	0.000253	2.534069	0.858566	-0.000101
 590	5.8605e+01	16.5252	49.551804	0.000324	3.243608	1.098964	-0.000130
 591	5.8705e+01	16.4979	49.434727	0.000294	2.939520	0.995936	-0.000118
 592	5.8804e+01	16.4434	49.329762	0.000264	2.635431	0.892908	-0.000105
 593	5.8904e+01	16.4113	49.236907	0.000233	2.331343	0.789880	-0.000093
 594	5.9004e+01	16.3728	49.099645	0.000345	3.446333	1.167649	-0.000138
 595	5.9103e+01	16.3295	49.002754	0.000243	2.432706	0.824223	-0.000097
 596	5.9203e+01	16.2974	48.909899	0.000233	2.331343	0.789880	-0.000093
 597	5.9302e+01	16.2557	48.817045	0.000233	2.331343	0.789880	-0.000093
 598	5.9401e+01	16.2172	48.659597	0.000395	3.953147	1.339363	-0.000158
 599	5.9501e+01	16.1771	48.538483	0.000304	3.040882	1.030279	-0.000122
 600	5.9600e+01	16.1209	48.441592	0.000243	2.432706	0.824223	-0.000097
 601	5.9700e+01	16.0905	48.344700	0.000243	2.432706	0.824223	-0.000097
 602	5.9800e+01	16.0584	48.235698	0.000274	2.736794	0.927251	-0.000110
 603	5.9899e+01	16.0135	48.118621	0.000294	2.939520	0.995936	-0.000118
 604	5.9998e+01	15.9717	48.025767	0.000233	2.331343	0.789880	-0.000093
 605	6.0098e+01	15.9332	47.928875	0.000243	2.432706	0.824223	-0.000097
 606	6.0197e+01	15.8963	47.803724	0.000314	3.142245	1.064621	-0.000126
 607	6.0297e+01	15.8482	47.694722	0.000274	2.736794	0.927251	-0.000110
 608	6.0397e+01	15.8049	47.593793	0.000253	2.534069	0.858566	-0.000101
 609	6.0496e+01	15.7744	47.468642	0.000314	3.142245	1.064621	-0.000126
 610	6.0596e+01	15.7343	47.347528	0.000304	3.040882	1.030279	-0.000122
 611	6.0695e+01	15.6894	47.234488	0.000284	2.838157	0.961594	-0.000114
 612	6.0794e+01	15.6573	47.109337	0.000314	3.142245	1.064621	-0.000126
 613	6.0894e+01	15.6172	47.020520	0.000223	2.229980	0.755538	-0.000089
 614	6.0993e+01	15.5755	46.919592	0.000253	2.534069	0.858566	-0.000101
 615	6.1093e+01	15.5290	46.790403	0.000324	3.243608	1.098964	-0.000130
 616	6.1193e+01	15.4889	46.701586	0.000223	2.229980	0.755538	-0.000089
 617	6.1292e+01	15.4568	46.556249	0.000365	3.649059	1.236335	-0.000146
 618	6.1392e+01	15.4151	46.463395	0.000233	2.331343	0.789880	-0.000093
 619	6.1491e+01	15.3718	46.354393	0.000274	2.736794	0.927251	-0.000110
 620	6.1590e+01	15.3365	46.253464	0.000253	2.534069	0.858566	-0.000101
 621	6.1690e+01	15.2948	46.140424	0.000284	2.838157	0.961594	-0.000114
 622	6.1789e+01	15.2611	46.031422	0.000274	2.736794	0.927251	-0.000110
 623	6.1889e+01	15.2178	45.910308	0.000304	3.040882	1.030279	-0.000122
 624	6.1989e+01	15.1712	45.781119	0.000324	3.243608	1.098964	-0.000130
 625	6.2088e+01	15.1407	45.672117	0.000274	2.736794	0.927251	-0.000110
 626	6.2188e+01	15.0910	45.571188	0.000253	2.534069	0.858566	-0.000101
 627	6.2287e+01	15.0589	45.442000	0.000324	3.243608	1.098964	-0.000130
 628	6.2386e+01	15.0204	45.353183	0.000223	2.229980	0.755538	-0.000089
 629	6.2486e+01	14.9851	45.191697	0.000405	4.054510	1.373705	-0.000162
 630	6.2586e+01	14.9402	45.102880	0.000223	2.229980	0.755538	-0.000089
 631	6.2685e+01	14.8937	44.977729	0.000314	3.142245	1.064621	-0.000126
 632	6.2785e+01	14.8584	44.876801	0.000253	2.534069	0.858566	-0.000101
 633	6.2884e+01	14.8087	44.808170	0.000172	1.723167	0.583825	-0.000069
 634	6.2983e+01	14.7798	44.642647	0.000416	4.155873	1.408048	-0.000166
 635	6.3083e+01	14.7381	44.537681	0.000264	2.635431	0.892908	-0.000105
 636	6.3182e+01	14.6964	44.456939	0.000203	2.027255	0.686853	-0.000081
 637	6.3282e+01	14.6595	44.299490	0.000395	3.953147	1.339363	-0.000158
 638	6.3382e+01	14.6146	44.186451	0.000284	2.838157	0.961594	-0.000114
 639	6.3481e+01	14.5809	44.061299	0.000314	3.142245	1.064621	-0.000126
 640	6.3581e+01	14.5376	43.948260	0.000284	2.838157	0.961594	-0.000114
 641	6.3680e+01	14.4958	43.855406	0.000233	2.331343	0.789880	-0.000093
 642	6.3779e+01	14.4638	43.742366	0.000284	2.838157	0.961594	-0.000114
 643	6.3879e+01	14.4188	43.629326	0.000284	2.838157	0.961594	-0.000114
 644	6.3978e+01	14.3932	43.528398	0.000253	2.534069	0.858566	-0.000101
 645	6.4078e+01	14.3402	43.411321	0.000294	2.939520	0.995936	-0.000118
 646	6.4177e+01	14.2969	43.302318	0.000274	2.736794	0.927251	-0.000110
 647	6.4277e+01	14.2536	43.161018	0.000355	3.547696	1.201992	-0.000142
 648	6.4376e+01	14.2263	43.047978	0.000284	2.838157	0.961594	-0.000114
 649	6.4476e+01	14.1782	42.947050	0.000253	2.534069	0.858566	-0.000101
 650	6.4576e+01	14.1333	42.842084	0.000264	2.635431	0.892908	-0.000105
 651	6.4675e+01	14.1044	42.700785	0.000355	3.547696	1.201992	-0.000142
 652	6.4775e+01	14.0659	42.620042	0.000203	2.027255	0.686853	-0.000081
 653	6.4874e+01	14.0162	42.511039	0.000274	2.736794	0.927251	-0.000110
 654	6.4974e+01	13.9921	42.418185	0.000233	2.331343	0.789880	-0.000093
 655	6.5073e+01	13.9392	42.264774	0.000385	3.851784	1.305020	-0.000154
 656	6.5172e+01	13.9039	42.159809	0.000264	2.635431	0.892908	-0.000105
 657	6.5272e+01	13.8590	42.038694	0.000304	3.040882	1.030279	-0.000122
 658	6.5371e+01	13.8285	41.933729	0.000264	2.635431	0.892908	-0.000105
 659	6.5471e+01	13.7852	41.808578	0.000314	3.142245	1.064621	-0.000126
 660	6.5570e+01	13.7435	41.691501	0.000294	2.939520	0.995936	-0.000118
 661	6.5670e+01	13.7001	41.594610	0.000243	2.432706	0.824223	-0.000097
 662	6.5769e+01	13.6681	41.505793	0.000223	2.229980	0.755538	-0.000089
 663	6.5869e+01	13.6167	41.364493	0.000355	3.547696	1.201992	-0.000142
 664	6.5969e+01	13.5798	41.259527	0.000264	2.635431	0.892908	-0.000105
 665	6.6068e+01	13.5413	41.122265	0.000345	3.446333	1.167649	-0.000138
 666	6.6168e+01	13.5060	41.029411	0.000233	2.331343	0.789880	-0.000093
 667	6.6267e+01	13.4627	40.932519	0.000243	2.432706	0.824223	-0.000097
 668	6.6367e+01	13.4226	40.811405	0.000304	3.040882	1.030279	-0.000122
 669	6.6466e+01	13.3841	40.690291	0.000304	3.040882	1.030279	-0.000122
 670	6.6566e+01	13.3456	40.589363	0.000253	2.534069	0.858566	-0.000101
 671	6.6665e+01	13.3023	40.500546	0.000223	2.229980	0.755538	-0.000089
 672	6.6764e+01	13.2574	40.343097	0.000395	3.953147	1.339363	-0.000158
 673	6.6864e+01	13.2285	40.234095	0.000274	2.736794	0.927251	-0.000110
 674	6.6963e+01	13.1788	40.112981	0.000304	3.040882	1.030279	-0.000122
 675	6.7063e+01	13.1515	40.003978	0.000274	2.736794	0.927251	-0.000110
 676	6.7162e+01	13.1066	39.854604	0.000375	3.750422	1.270677	-0.000150
 677	6.7262e+01	13.0601	39.761750	0.000233	2.331343	0.789880	-0.000093
 678	6.7362e+01	13.0232	39.652747	0.000274	2.736794	0.927251	-0.000110
 679	6.7461e+01	12.9863	39.543745	0.000274	2.736794	0.927251	-0.000110
 680	6.7561e+01	12.9478	39.442816	0.000253	2.534069	0.858566	-0.000101
 681	6.7660e+01	12.9125	39.305554	0.000345	3.446333	1.167649	-0.000138
 682	6.7760e+01	12.8611	39.180402	0.000314	3.142245	1.064621	-0.000126
 683	6.7859e+01	12.8274	39.091585	0.000223	2.229980	0.755538	-0.000089
 684	6.7959e+01	12.7905	38.962397	0.000324	3.243608	1.098964	-0.000130
 685	6.8058e+01	12.7504	38.869543	0.000233	2.331343	0.789880	-0.000093
 686	6.8157e+01	12.7087	38.748429	0.000304	3.040882	1.030279	-0.000122
 687	6.8257e+01	12.6750	38.582906	0.000416	4.155873	1.408048	-0.000166
 688	6.8356e+01	12.6221	38.514275	0.000172	1.723167	0.583825	-0.000069
 689	6.8456e+01	12.5900	38.389124	0.000314	3.142245	1.064621	-0.000126
 690	6.8555e+01	12.5483	38.296270	0.000233	2.331343	0.789880	-0.000093
 691	6.8655e+01	12.5098	38.134784	0.000405	4.054510	1.373705	-0.000162
 692	6.8754e+01	12.4713	38.062116	0.000182	1.824529	0.618167	-0.000073
 693	6.8854e+01	12.4200	37.912742	0.000375	3.750422	1.270677	-0.000150
 694	6.8954e+01	12.3959	37.787591	0.000314	3.142245	1.064621	-0.000126
 695	6.9053e+01	12.3558	37.678588	0.000274	2.736794	0.927251	-0.000110
 696	6.9153e+01	12.3061	37.549399	0.000324	3.243608	1.098964	-0.000130
 697	6.9252e+01	12.2676	37.464620	0.000213	2.128618	0.721195	-0.000085
 698	6.9352e+01	12.2243	37.395988	0.000172	1.723167	0.583825	-0.000069
 699	6.9451e+01	12.1906	37.230466	0.000416	4.155873	1.408048	-0.000166
 700	6.9550e+01	12.1569	37.145686	0.000213	2.128618	0.721195	-0.000085
 701	6.9650e+01	12.1087	36.984200	0.000405	4.054510	1.373705	-0.000162
 702	6.9749e+01	12.0670	36.879235	0.000264	2.635431	0.892908	-0.000105
 703	6.9849e+01	12.0301	36.798492	0.000203	2.027255	0.686853	-0.000081
 704	6.9948e+01	11.9852	36.653155	0.000365	3.649059	1.236335	-0.000146
 705	7.0048e+01	11.9499	36.528004	0.000314	3.142245	1.064621	-0.000126
 706	7.0147e+01	11.9146	36.423039	0.000264	2.635431	0.892908	-0.000105
 707	7.0247e+01	11.8649	36.265590	0.000395	3.953147	1.339363	-0.000158
 708	7.0347e+01	11.8392	36.152551	0.000284	2.838157	0.961594	-0.000114
 709	7.0446e+01	11.7911	36.051622	0.000253	2.534069	0.858566	-0.000101
 710	7.0546e+01	11.7542	35.946657	0.000264	2.635431	0.892908	-0.000105
 711	7.0645e+01	11.7173	35.833617	0.000284	2.838157	0.961594	-0.000114
 712	7.0745e+01	11.6676	35.708466	0.000314	3.142245	1.064621	-0.000126
 713	7.0844e+01	11.6323	35.575240	0.000334	3.344971	1.133307	-0.000134
 714	7.0944e+01	11.5826	35.462200	0.000284	2.838157	0.961594	-0.000114
 715	7.1043e+01	11.5585	35.361272	0.000253	2.534069	0.858566	-0.000101
 716	7.1142e+01	11.5232	35.236121	0.000314	3.142245	1.064621	-0.000126
 717	7.1242e+01	11.4719	35.131155	0.000264	2.635431	0.892908	-0.000105
 718	7.1341e+01	11.4318	35.034264	0.000243	2.432706	0.824223	-0.000097
 719	7.1441e+01	11.3933	34.884890	0.000375	3.750422	1.270677	-0.000150
 720	7.1540e+01	11.3516	34.775887	0.000274	2.736794	0.927251	-0.000110
 721	7.1640e+01	11.3163	34.650736	0.000314	3.142245	1.064621	-0.000126
 722	7.1740e+01	11.2729	34.561919	0.000223	2.229980	0.755538	-0.000089
 723	7.1839e+01	11.2312	34.444842	0.000294	2.939520	0.995936	-0.000118
 724	7.1939e+01	11.1991	34.287394	0.000395	3.953147	1.339363	-0.000158
 725	7.2038e+01	11.1526	34.178391	0.000274	2.736794	0.927251	-0.000110
 726	7.2138e+01	11.1125	34.061314	0.000294	2.939520	0.995936	-0.000118
 727	7.2237e+01	11.0756	33.948274	0.000284	2.838157	0.961594	-0.000114
 728	7.2337e+01	11.0371	33.883680	0.000162	1.621804	0.549482	-0.000065
 729	7.2436e+01	11.0002	33.722195	0.000405	4.054510	1.373705	-0.000162
 730	7.2535e+01	10.9473	33.609155	0.000284	2.838157	0.961594	-0.000114
 731	7.2635e+01	10.9168	33.488041	0.000304	3.040882	1.030279	-0.000122
 732	7.2734e+01	10.8767	33.379038	0.000274	2.736794	0.927251	-0.000110
 733	7.2834e+01	10.8414	33.225627	0.000385	3.851784	1.305020	-0.000154
 734	7.2933e+01	10.7820	33.128736	0.000243	2.432706	0.824223	-0.000097
 735	7.3033e+01	10.7500	33.003585	0.000314	3.142245	1.064621	-0.000126
 736	7.3132e+01	10.7099	32.862285	0.000355	3.547696	1.201992	-0.000142
 737	7.3232e+01	10.6794	32.757319	0.000264	2.635431	0.892908	-0.000105
 738	7.3332e+01	10.6280	32.620057	0.000345	3.446333	1.167649	-0.000138
 739	7.3431e+01	10.5879	32.523166	0.000243	2.432706	0.824223	-0.000097
 740	7.3531e+01	10.5639	32.393977	0.000324	3.243608	1.098964	-0.000130
 741	7.3630e+01	10.5061	32.280937	0.000284	2.838157	0.961594	-0.000114
 742	7.3730e+01	10.4837	32.167898	0.000284	2.838157	0.961594	-0.000114
 743	7.3829e+01	10.4436	32.030635	0.000345	3.446333	1.167649	-0.000138
 744	7.3928e+01	10.4018	31.949892	0.000203	2.027255	0.686853	-0.000081
 745	7.4028e+01	10.3569	31.784370	0.000416	4.155873	1.408048	-0.000166
 746	7.4127e+01	10.3072	31.671330	0.000284	2.838157	0.961594	-0.000114
 747	7.4227e+01	10.2863	31.546179	0.000314	3.142245	1.064621	-0.000126
 748	7.4326e+01	10.2414	31.461399	0.000213	2.128618	0.721195	-0.000085
 749	7.4426e+01	10.1933	31.332210	0.000324	3.243608	1.098964	-0.000130
 750	7.4525e+01	10.1532	31.194948	0.000345	3.446333	1.167649	-0.000138
 751	7.4625e+01	10.1179	31.077871	0.000294	2.939520	0.995936	-0.000118
 752	7.4725e+01	10.0778	31.009240	0.000172	1.723167	0.583825	-0.000069
 753	7.4824e+01	10.0393	30.851791	0.000395	3.953147	1.339363	-0.000158
 754	7.4924e+01	9.9960	30.726640	0.000314	3.142245	1.064621	-0.000126
 755	7.5023e+01	9.9655	30.613600	0.000284	2.838157	0.961594	-0.000114
 756	7.5123e+01	9.9190	30.504598	0.000274	2.736794	0.927251	-0.000110
 757	7.5222e+01	9.8757	30.371372	0.000334	3.344971	1.133307	-0.000134
 758	7.5322e+01	9.8436	30.254295	0.000294	2.939520	0.995936	-0.000118
 759	7.5421e+01	9.8019	30.125107	0.000324	3.243608	1.098964	-0.000130
 760	7.5520e+01	9.7634	29.987844	0.000345	3.446333	1.167649	-0.000138
 761	7.5620e+01	9.7233	29.886916	0.000253	2.534069	0.858566	-0.000101
 762	7.5719e+01	9.6815	29.773876	0.000284	2.838157	0.961594	-0.000114
 763	7.5819e+01	9.6382	29.668911	0.000264	2.635431	0.892908	-0.000105
 764	7.5918e+01	9.6061	29.539722	0.000324	3.243608	1.098964	-0.000130
 765	7.6018e+01	9.5676	29.406497	0.000334	3.344971	1.133307	-0.000134
 766	7.6118e+01	9.5163	29.261160	0.000365	3.649059	1.236335	-0.000146
 767	7.6217e+01	9.4874	29.188491	0.000182	1.824529	0.618167	-0.000073
 768	7.6317e+01	9.4377	29.047192	0.000355	3.547696	1.201992	-0.000142
 769	7.6416e+01	9.4008	28.918003	0.000324	3.243608	1.098964	-0.000130
 770	7.6516e+01	9.3639	28.817075	0.000253	2.534069	0.858566	-0.000101
 771	7.6615e+01	9.3190	28.699998	0.000294	2.939520	0.995936	-0.000118
 772	7.6715e+01	9.2805	28.550624	0.000375	3.750422	1.270677	-0.000150
 773	7.6814e+01	9.2356	28.469881	0.000203	2.027255	0.686853	-0.000081
 774	7.6913e+01	9.2051	28.316470	0.000385	3.851784	1.305020	-0.000154
 775	7.7013e+01	9.1586	28.187282	0.000324	3.243608	1.098964	-0.000130
 776	7.7112e+01	9.1201	28.094428	0.000233	2.331343	0.789880	-0.000093
 777	7.7212e+01	9.0832	27.957165	0.000345	3.446333	1.167649	-0.000138
 778	7.7311e+01	9.0399	27.852199	0.000264	2.635431	0.892908	-0.000105
 779	7.7411e+01	9.0062	27.739160	0.000284	2.838157	0.961594	-0.000114
 780	7.7510e+01	8.9628	27.614008	0.000314	3.142245	1.064621	-0.000126
 781	7.7610e+01	8.9147	27.484820	0.000324	3.243608	1.098964	-0.000130
 782	7.7710e+01	8.8891	27.363706	0.000304	3.040882	1.030279	-0.000122
 783	7.7809e+01	8.8393	27.206258	0.000395	3.953147	1.339363	-0.000158
 784	7.7909e+01	8.7976	27.129552	0.000193	1.925892	0.652510	-0.000077
 785	7.8008e+01	8.7671	26.996327	0.000334	3.344971	1.133307	-0.000134
 786	7.8108e+01	8.7222	26.855027	0.000355	3.547696	1.201992	-0.000142
 787	7.8207e+01	8.6837	26.770247	0.000213	2.128618	0.721195	-0.000085
 788	7.8306e+01	8.6436	26.665282	0.000264	2.635431	0.892908	-0.000105
 789	7.8406e+01	8.6115	26.511870	0.000385	3.851784	1.305020	-0.000154
 790	7.8505e+01	8.5650	26.358459	0.000385	3.851784	1.305020	-0.000154
 791	7.8605e+01	8.5233	26.293865	0.000162	1.621804	0.549482	-0.000065
 792	7.8704e+01	8.4864	26.168714	0.000314	3.142245	1.064621	-0.000126
 793	7.8804e+01	8.4511	26.047600	0.000304	3.040882	1.030279	-0.000122
 794	7.8903e+01	8.4030	25.914374	0.000334	3.344971	1.133307	-0.000134
 795	7.9003e+01	8.3581	25.793260	0.000304	3.040882	1.030279	-0.000122
 796	7.9103e+01	8.3212	25.700406	0.000233	2.331343	0.789880	-0.000093
 797	7.9202e+01	8.2939	25.551032	0.000375	3.750422	1.270677	-0.000150
 798	7.9302e+01	8.2474	25.446067	0.000264	2.635431	0.892908	-0.000105
 799	7.9401e+01	8.2008	25.264395	0.000456	4.561324	1.545418	-0.000183
 800	7.9501e+01	8.1639	25.207876	0.000142	1.419078	0.480797	-0.000057
 801	7.9600e+01	8.1270	25.030242	0.000446	4.459961	1.511076	-0.000179
 802	7.9700e+01	8.0853	24.929313	0.000253	2.534069	0.858566	-0.000101
 803	7.9799e+01	8.0420	24.824348	0.000264	2.635431	0.892908	-0.000105
 804	7.9898e+01	8.0212	24.703234	0.000304	3.040882	1.030279	-0.000122
 805	7.9998e+01	7.9666	24.578082	0.000314	3.142245	1.064621	-0.000126
 806	8.0097e+01	7.9217	24.456968	0.000304	3.040882	1.030279	-0.000122
 807	8.0197e+01	7.8864	24.339891	0.000294	2.939520	0.995936	-0.000118
 808	8.0296e+01	7.8335	24.210703	0.000324	3.243608	1.098964	-0.000130
 809	8.0396e+01	7.8014	24.089589	0.000304	3.040882	1.030279	-0.000122
 810	8.0496e+01	7.7741	23.948289	0.000355	3.547696	1.201992	-0.000142
 811	8.0595e+01	7.7308	23.843324	0.000264	2.635431	0.892908	-0.000105
 812	8.0695e+01	7.6955	23.722210	0.000304	3.040882	1.030279	-0.000122
 813	8.0794e+01	7.6474	23.588984	0.000334	3.344971	1.133307	-0.000134
 814	8.0894e+01	7.6185	23.475944	0.000284	2.838157	0.961594	-0.000114
 815	8.0993e+01	7.5704	23.370979	0.000264	2.635431	0.892908	-0.000105
 816	8.1093e+01	7.5271	23.233716	0.000345	3.446333	1.167649	-0.000138
 817	8.1192e+01	7.4918	23.112602	0.000304	3.040882	1.030279	-0.000122
 818	8.1291e+01	7.4468	23.015711	0.000243	2.432706	0.824223	-0.000097
 819	8.1391e+01	7.4116	22.825965	0.000476	4.764049	1.614104	-0.000191
 820	8.1490e+01	7.3650	22.761371	0.000162	1.621804	0.549482	-0.000065
 821	8.1590e+01	7.3265	22.607960	0.000385	3.851784	1.305020	-0.000154
 822	8.1689e+01	7.2896	22.502995	0.000264	2.635431	0.892908	-0.000105
 823	8.1789e+01	7.2479	22.434363	0.000172	1.723167	0.583825	-0.000069
 824	8.1888e+01	7.2062	22.301138	0.000334	3.344971	1.133307	-0.000134
 825	8.1988e+01	7.1693	22.127541	0.000436	4.358598	1.476733	-0.000174
 826	8.2088e+01	7.1324	22.022575	0.000264	2.635431	0.892908	-0.000105
 827	8.2187e+01	7.0811	21.913573	0.000274	2.736794	0.927251	-0.000110
 828	8.2287e+01	7.0442	21.800533	0.000284	2.838157	0.961594	-0.000114
 829	8.2386e+01	7.0089	21.671345	0.000324	3.243608	1.098964	-0.000130
 830	8.2486e+01	6.9672	21.582528	0.000223	2.229980	0.755538	-0.000089
 831	8.2585e+01	6.9255	21.437191	0.000365	3.649059	1.236335	-0.000146
 832	8.2684e+01	6.8902	21.312040	0.000314	3.142245	1.064621	-0.000126
 833	8.2784e+01	6.8453	21.174777	0.000345	3.446333	1.167649	-0.000138
 834	8.2883e+01	6.8068	21.049626	0.000314	3.142245	1.064621	-0.000126
 835	8.2983e+01	6.7715	20.936586	0.000284	2.838157	0.961594	-0.000114
 836	8.3082e+01	6.7249	20.819509	0.000294	2.939520	0.995936	-0.000118
 837	8.3182e+01	6.6961	20.694358	0.000314	3.142245	1.064621	-0.000126
 838	8.3281e+01	6.6495	20.540947	0.000385	3.851784	1.305020	-0.000154
 839	8.3381e+01	6.6094	20.452130	0.000223	2.229980	0.755538	-0.000089
 840	8.3481e+01	6.5806	20.331016	0.000304	3.040882	1.030279	-0.000122
 841	8.3580e+01	6.5340	20.213939	0.000294	2.939520	0.995936	-0.000118
 842	8.3680e+01	6.5004	20.076676	0.000345	3.446333	1.167649	-0.000138
 843	8.3779e+01	6.4522	19.983822	0.000233	2.331343	0.789880	-0.000093
 844	8.3879e+01	6.4233	19.830411	0.000385	3.851784	1.305020	-0.000154
 845	8.3978e+01	6.3736	19.721408	0.000274	2.736794	0.927251	-0.000110
 846	8.4078e+01	6.3335	19.632591	0.000223	2.229980	0.755538	-0.000089
 847	8.4177e+01	6.2870	19.487254	0.000365	3.649059	1.236335	-0.000146
 848	8.4276e+01	6.2549	19.362103	0.000314	3.142245	1.064621	-0.000126
 849	8.4376e+01	6.2116	19.220803	0.000355	3.547696	1.201992	-0.000142
 850	8.4475e+01	6.1747	19.083541	0.000345	3.446333	1.167649	-0.000138
 851	8.4575e+01	6.1442	18.998761	0.000213	2.128618	0.721195	-0.000085
 852	8.4674e+01	6.0977	18.845350	0.000385	3.851784	1.305020	-0.000154
 853	8.4774e+01	6.0560	18.752496	0.000233	2.331343	0.789880	-0.000093
 854	8.4874e+01	6.0127	18.655604	0.000243	2.432706	0.824223	-0.000097
 855	8.4973e+01	5.9694	18.522379	0.000334	3.344971	1.133307	-0.000134
 856	8.5073e+01	5.9357	18.389153	0.000334	3.344971	1.133307	-0.000134
 857	8.5172e+01	5.8956	18.255928	0.000334	3.344971	1.133307	-0.000134
 858	8.5272e+01	5.8506	18.146925	0.000274	2.736794	0.927251	-0.000110
 859	8.5371e+01	5.8202	18.058108	0.000223	2.229980	0.755538	-0.000089
 860	8.5471e+01	5.7736	17.892586	0.000416	4.155873	1.408048	-0.000166
 861	8.5570e+01	5.7351	17.771472	0.000304	3.040882	1.030279	-0.000122
 862	8.5669e+01	5.6886	17.638246	0.000334	3.344971	1.133307	-0.000134
 863	8.5769e+01	5.6565	17.500983	0.000345	3.446333	1.167649	-0.000138
 864	8.5868e+01	5.6164	17.363721	0.000345	3.446333	1.167649	-0.000138
 865	8.5968e+01	5.5763	17.299127	0.000162	1.621804	0.549482	-0.000065
 866	8.6067e+01	5.5426	17.137641	0.000405	4.054510	1.373705	-0.000162
 867	8.6167e+01	5.4945	17.012490	0.000314	3.142245	1.064621	-0.000126
 868	8.6266e+01	5.4608	16.923673	0.000223	2.229980	0.755538	-0.000089
 869	8.6366e+01	5.4223	16.798522	0.000314	3.142245	1.064621	-0.000126
 870	8.6466e+01	5.3758	16.661259	0.000345	3.446333	1.167649	-0.000138
 871	8.6565e+01	5.3437	16.540145	0.000304	3.040882	1.030279	-0.000122
 872	8.6665e+01	5.2924	16.406920	0.000334	3.344971	1.133307	-0.000134
 873	8.6764e+01	5.2539	16.269657	0.000345	3.446333	1.167649	-0.000138
 874	8.6864e+01	5.2234	16.221211	0.000122	1.216353	0.412112	-0.000049
 875	8.6963e+01	5.1785	16.019355	0.000507	5.068137	1.717131	-0.000203
 876	8.7063e+01	5.1335	15.894203	0.000314	3.142245	1.064621	-0.000126
 877	8.7162e+01	5.0918	15.797312	0.000243	2.432706	0.824223	-0.000097
 878	8.7261e+01	5.0565	15.656012	0.000355	3.547696	1.201992	-0.000142
 879	8.7361e+01	5.0084	15.518750	0.000345	3.446333	1.167649	-0.000138
 880	8.7460e+01	4.9811	15.405710	0.000284	2.838157	0.961594	-0.000114
 881	8.7560e+01	4.9394	15.272484	0.000334	3.344971	1.133307	-0.000134
 882	8.7659e+01	4.9073	15.163482	0.000274	2.736794	0.927251	-0.000110
 883	8.7759e+01	4.8592	15.062553	0.000253	2.534069	0.858566	-0.000101
 884	8.7859e+01	4.8255	14.913179	0.000375	3.750422	1.270677	-0.000150
 885	8.7958e+01	4.7854	14.804177	0.000274	2.736794	0.927251	-0.000110
 886	8.8058e+01	4.7357	14.699211	0.000264	2.635431	0.892908	-0.000105
 887	8.8157e+01	4.7004	14.561949	0.000345	3.446333	1.167649	-0.000138
 888	8.8257e+01	4.6603	14.469094	0.000233	2.331343	0.789880	-0.000093
 889	8.8356e+01	4.6266	14.319720	0.000375	3.750422	1.270677	-0.000150
 890	8.8456e+01	4.5769	14.178421	0.000355	3.547696	1.201992	-0.000142
 891	8.8555e+01	4.5432	14.057307	0.000304	3.040882	1.030279	-0.000122
 892	8.8654e+01	4.4999	13.964453	0.000233	2.331343	0.789880	-0.000093
 893	8.8754e+01	4.4566	13.807004	0.000395	3.953147	1.339363	-0.000158
 894	8.8853e+01	4.4148	13.689927	0.000294	2.939520	0.995936	-0.000118
 895	8.8953e+01	4.3812	13.580925	0.000274	2.736794	0.927251	-0.000110
 896	8.9052e+01	4.3427	13.455773	0.000314	3.142245	1.064621	-0.000126
 897	8.9152e+01	4.3026	13.330622	0.000314	3.142245	1.064621	-0.000126
 898	8.9251e+01	4.2608	13.177211	0.000385	3.851784	1.305020	-0.000154
 899	8.9351e+01	4.2175	13.108580	0.000172	1.723167	0.583825	-0.000069
 900	8.9451e+01	4.1870	12.963243	0.000365	3.649059	1.236335	-0.000146
 901	8.9550e+01	4.1405	12.825980	0.000345	3.446333	1.167649	-0.000138
 902	8.9650e+01	4.1020	12.712940	0.000284	2.838157	0.961594	-0.000114
 903	8.9749e+01	4.0635	12.595864	0.000294	2.939520	0.995936	-0.000118
 904	8.9849e+01	4.0266	12.470712	0.000314	3.142245	1.064621	-0.000126
 905	8.9948e+01	3.9865	12.325375	0.000365	3.649059	1.236335	-0.000146
 906	9.0047e+01	3.9432	12.188113	0.000345	3.446333	1.167649	-0.000138
 907	9.0147e+01	3.9031	12.066999	0.000304	3.040882	1.030279	-0.000122
 908	9.0246e+01	3.8758	11.957996	0.000274	2.736794	0.927251	-0.000110
 909	9.0346e+01	3.8181	11.836882	0.000304	3.040882	1.030279	-0.000122
 910	9.0445e+01	3.7860	11.691545	0.000365	3.649059	1.236335	-0.000146
 911	9.0545e+01	3.7475	11.578505	0.000284	2.838157	0.961594	-0.000114
 912	9.0644e+01	3.6978	11.457391	0.000304	3.040882	1.030279	-0.000122
 913	9.0744e+01	3.6657	11.352426	0.000264	2.635431	0.892908	-0.000105
 914	9.0844e+01	3.6224	11.194977	0.000395	3.953147	1.339363	-0.000158
 915	9.0943e+01	3.5839	11.081938	0.000284	2.838157	0.961594	-0.000114
 916	9.1043e+01	3.5421	10.932564	0.000375	3.750422	1.270677	-0.000150
 917	9.1142e+01	3.5117	10.819524	0.000284	2.838157	0.961594	-0.000114
 918	9.1242e+01	3.4651	10.686298	0.000334	3.344971	1.133307	-0.000134
 919	9.1341e+01	3.4234	10.565184	0.000304	3.040882	1.030279	-0.000122
 920	9.1441e+01	3.3881	10.431959	0.000334	3.344971	1.133307	-0.000134
 921	9.1540e+01	3.3320	10.322956	0.000274	2.736794	0.927251	-0.000110
 922	9.1639e+01	3.3031	10.181656	0.000355	3.547696	1.201992	-0.000142
 923	9.1739e+01	3.2630	10.076691	0.000264	2.635431	0.892908	-0.000105
 924	9.1838e+01	3.2341	9.935391	0.000355	3.547696	1.201992	-0.000142
 925	9.1938e+01	3.1844	9.822351	0.000284	2.838157	0.961594	-0.000114
 926	9.2037e+01	3.1539	9.701237	0.000304	3.040882	1.030279	-0.000122
 927	9.2137e+01	3.1122	9.576086	0.000314	3.142245	1.064621	-0.000126
 928	9.2237e+01	3.0801	9.426712	0.000375	3.750422	1.270677	-0.000150
 929	9.2336e+01	3.0288	9.345969	0.000203	2.027255	0.686853	-0.000081
 930	9.2436e+01	2.9855	9.180447	0.000416	4.155873	1.408048	-0.000166
 931	9.2535e+01	2.9486	9.099704	0.000203	2.027255	0.686853	-0.000081
 932	9.2635e+01	2.9069	8.934181	0.000416	4.155873	1.408048	-0.000166
 933	9.2734e+01	2.8620	8.853439	0.000203	2.027255	0.686853	-0.000081
 934	9.2834e+01	2.8234	8.708102	0.000365	3.649059	1.236335	-0.000146
 935	9.2933e+01	2.7769	8.603136	0.000264	2.635431	0.892908	-0.000105
 936	9.3032e+01	2.7497	8.429539	0.000436	4.358598	1.476733	-0.000174
 937	9.3132e+01	2.7095	8.340722	0.000223	2.229980	0.755538	-0.000089
 938	9.3231e+01	2.6759	8.231720	0.000274	2.736794	0.927251	-0.000110
 939	9.3331e+01	2.6293	8.062160	0.000426	4.257235	1.442390	-0.000170
 940	9.3430e+01	2.5876	7.961232	0.000253	2.534069	0.858566	-0.000101
 941	9.3530e+01	2.5491	7.819932	0.000355	3.547696	1.201992	-0.000142
 942	9.3629e+01	2.5010	7.698818	0.000304	3.040882	1.030279	-0.000122
 943	9.3729e+01	2.4625	7.610001	0.000223	2.229980	0.755538	-0.000089
 944	9.3829e+01	2.4288	7.456590	0.000385	3.851784	1.305020	-0.000154
 945	9.3928e+01	2.3839	7.323364	0.000334	3.344971	1.133307	-0.000134
 946	9.4028e+01	2.3518	7.242622	0.000203	2.027255	0.686853	-0.000081
 947	9.4127e+01	2.3021	7.064988	0.000446	4.459961	1.511076	-0.000179
 948	9.4227e+01	2.2716	6.988282	0.000193	1.925892	0.652510	-0.000077
 949	9.4326e+01	2.2299	6.826797	0.000405	4.054510	1.373705	-0.000162
 950	9.4425e+01	2.1818	6.721831	0.000264	2.635431	0.892908	-0.000105
 951	9.4525e+01	2.1513	6.572457	0.000375	3.750422	1.270677	-0.000150
 952	9.4624e+01	2.1080	6.431157	0.000355	3.547696	1.201992	-0.000142
 953	9.4724e+01	2.0791	6.330229	0.000253	2.534069	0.858566	-0.000101
 954	9.4823e+01	2.0261	6.217189	0.000284	2.838157	0.961594	-0.000114
 955	9.4923e+01	1.9876	6.079926	0.000345	3.446333	1.167649	-0.000138
 956	9.5022e+01	1.9556	5.938627	0.000355	3.547696	1.201992	-0.000142
 957	9.5122e+01	1.9026	5.813475	0.000314	3.142245	1.064621	-0.000126
 958	9.5222e+01	1.8753	5.684287	0.000324	3.243608	1.098964	-0.000130
 959	9.5321e+01	1.8272	5.619693	0.000162	1.621804	0.549482	-0.000065
 960	9.5421e+01	1.7935	5.478393	0.000355	3.547696	1.201992	-0.000142
 961	9.5520e+01	1.7422	5.377465	0.000253	2.534069	0.858566	-0.000101
 962	9.5620e+01	1.7101	5.191757	0.000466	4.662686	1.579761	-0.000187
 963	9.5719e+01	1.6764	5.106977	0.000213	2.128618	0.721195	-0.000085
 964	9.5819e+01	1.6235	4.965677	0.000355	3.547696	1.201992	-0.000142
 965	9.5918e+01	1.5914	4.828414	0.000345	3.446333	1.167649	-0.000138
 966	9.6017e+01	1.5465	4.711337	0.000294	2.939520	0.995936	-0.000118
 967	9.6117e+01	1.5128	4.594260	0.000294	2.939520	0.995936	-0.000118
 968	9.6216e+01	1.4727	4.477184	0.000294	2.939520	0.995936	-0.000118
 969	9.6316e+01	1.4326	4.315698	0.000405	4.054510	1.373705	-0.000162
 970	9.6415e+01	1.3973	4.206695	0.000274	2.736794	0.927251	-0.000110
 971	9.6515e+01	1.3508	4.049247	0.000395	3.953147	1.339363	-0.000158
 972	9.6615e+01	1.3074	3.956393	0.000233	2.331343	0.789880	-0.000093
 973	9.6714e+01	1.2722	3.811056	0.000365	3.649059	1.236335	-0.000146
 974	9.6814e+01	1.2288	3.702053	0.000274	2.736794	0.927251	-0.000110
 975	9.6913e+01	1.1935	3.580939	0.000304	3.040882	1.030279	-0.000122
 976	9.7013e+01	1.1518	3.447714	0.000334	3.344971	1.133307	-0.000134
 977	9.7112e+01	1.1133	3.306414	0.000355	3.547696	1.201992	-0.000142
 978	9.7212e+01	1.0636	3.181263	0.000314	3.142245	1.064621	-0.000126
 979	9.7311e+01	1.0299	3.088409	0.000233	2.331343	0.789880	-0.000093
 980	9.7410e+01	0.9802	2.971332	0.000294	2.939520	0.995936	-0.000118
 981	9.7510e+01	0.9481	2.785624	0.000466	4.662686	1.579761	-0.000187
 982	9.7609e+01	0.9176	2.721029	0.000162	1.621804	0.549482	-0.000065
 983	9.7709e+01	0.8775	2.575693	0.000365	3.649059	1.236335	-0.000146
 984	9.7808e+01	0.8278	2.458616	0.000294	2.939520	0.995936	-0.000118
 985	9.7908e+01	0.7829	2.349613	0.000274	2.736794	0.927251	-0.000110
 986	9.8007e+01	0.7636	2.232536	0.000294	2.939520	0.995936	-0.000118
 987	9.8107e+01	0.7171	2.058939	0.000436	4.358598	1.476733	-0.000174
 988	9.8207e+01	0.6738	1.966085	0.000233	2.331343	0.789880	-0.000093
 989	9.8306e+01	0.6337	1.857082	0.000274	2.736794	0.927251	-0.000110
 990	9.8406e+01	0.6048	1.711746	0.000365	3.649059	1.236335	-0.000146
 991	9.8505e+01	0.5470	1.570446	0.000355	3.547696	1.201992	-0.000142
 992	9.8605e+01	0.5230	1.481629	0.000223	2.229980	0.755538	-0.000089
 993	9.8704e+01	0.4732	1.336292	0.000365	3.649059	1.236335	-0.000146
 994	9.8803e+01	0.4364	1.194992	0.000355	3.547696	1.201992	-0.000142
 995	9.8903e+01	0.3962	1.098101	0.000243	2.432706	0.824223	-0.000097
 996	9.9002e+01	0.3561	0.956801	0.000355	3.547696	1.201992	-0.000142
 997	9.9102e+01	0.3160	0.799353	0.000395	3.953147	1.339363	-0.000158
 998	9.9201e+01	0.2807	0.714573	0.000213	2.128618	0.721195	-0.000085
 999	9.9301e+01	0.2438	0.621719	0.000233	2.331343	0.789880	-0.000093
1000	9.9400e+01	0.1957	0.460233	0.000405	4.054510	1.373705	-0.000162
1001	9.9500e+01	0.1588	0.363342	0.000243	2.432706	0.824223	-0.000097
1002	9.9600e+01	0.1123	0.226080	0.000345	3.446333	1.167649	-0.000138
1003	9.9699e+01	0.0770	0.141300	0.000213	2.128618	0.721195	-0.000085
1004	9.9799e+01	0.0417	0.000000	0.000355	3.547696	1.201992	-0.000142
1005	9.9898e+01	0.0048	-0.096891	0.000243	2.432706	0.824223	-0.000097
1006	9.9998e+01	-0.0273	-0.246265	0.000375	3.750422	1.270677	-0.000150
1007	1.0010e+02	-0.0722	-0.371416	0.000314	3.142245	1.064621	-0.000126
1008	1.0020e+02	-0.1235	-0.500605	0.000324	3.243608	1.098964	-0.000130
1009	1.0030e+02	-0.1556	-0.597496	0.000243	2.432706	0.824223	-0.000097
1010	1.0040e+02	-0.1941	-0.742833	0.000365	3.649059	1.236335	-0.000146
1011	1.0050e+02	-0.2326	-0.843761	0.000253	2.534069	0.858566	-0.000101
1012	1.0059e+02	-0.2695	-1.005247	0.000405	4.054510	1.373705	-0.000162
1013	1.0069e+02	-0.3128	-1.130398	0.000314	3.142245	1.064621	-0.000126
1014	1.0079e+02	-0.3449	-1.219215	0.000223	2.229980	0.755538	-0.000089
1015	1.0089e+02	-0.3882	-1.348403	0.000324	3.243608	1.098964	-0.000130
1016	1.0099e+02	-0.4235	-1.489703	0.000355	3.547696	1.201992	-0.000142
1017	1.0109e+02	-0.4749	-1.639077	0.000375	3.750422	1.270677	-0.000150
1018	1.0119e+02	-0.5118	-1.719820	0.000203	2.027255	0.686853	-0.000081
1019	1.0129e+02	-0.5551	-1.857082	0.000345	3.446333	1.167649	-0.000138
1020	1.0139e+02	-0.5904	-1.982234	0.000314	3.142245	1.064621	-0.000126
1021	1.0149e+02	-0.6353	-2.091236	0.000274	2.736794	0.927251	-0.000110
1022	1.0159e+02	-0.6658	-2.248685	0.000395	3.953147	1.339363	-0.000158
1023	1.0169e+02	-0.7139	-2.325390	0.000193	1.925892	0.652510	-0.000077
1024	1.0179e+02	-0.7428	-2.470727	0.000365	3.649059	1.236335	-0.000146
1025	1.0189e+02	-0.7925	-2.612027	0.000355	3.547696	1.201992	-0.000142
1026	1.0199e+02	-0.8310	-2.721029	0.000274	2.736794	0.927251	-0.000110
1027	1.0209e+02	-0.8759	-2.862329	0.000355	3.547696	1.201992	-0.000142
1028	1.0219e+02	-0.9176	-2.999592	0.000345	3.446333	1.167649	-0.000138
1029	1.0229e+02	-0.9561	-3.076297	0.000193	1.925892	0.652510	-0.000077
1030	1.0239e+02	-0.9882	-3.233746	0.000395	3.953147	1.339363	-0.000158
1031	1.0248e+02	-1.0347	-3.326600	0.000233	2.331343	0.789880	-0.000093
1032	1.0258e+02	-1.0684	-3.471937	0.000365	3.649059	1.236335	-0.000146
1033	1.0268e+02	-1.1165	-3.576902	0.000264	2.635431	0.892908	-0.000105
1034	1.0278e+02	-1.1502	-3.746462	0.000426	4.257235	1.442390	-0.000170
1035	1.0288e+02	-1.1935	-3.855465	0.000274	2.736794	0.927251	-0.000110
1036	1.0298e+02	-1.2304	-3.980616	0.000314	3.142245	1.064621	-0.000126
1037	1.0308e+02	-1.2770	-4.073470	0.000233	2.331343	0.789880	-0.000093
1038	1.0318e+02	-1.3091	-4.218807	0.000365	3.649059	1.236335	-0.000146
1039	1.0328e+02	-1.3556	-4.339921	0.000304	3.040882	1.030279	-0.000122
1040	1.0338e+02	-1.3877	-4.473146	0.000334	3.344971	1.133307	-0.000134
1041	1.0348e+02	-1.4294	-4.566001	0.000233	2.331343	0.789880	-0.000093
1042	1.0358e+02	-1.4695	-4.695189	0.000324	3.243608	1.098964	-0.000130
1043	1.0368e+02	-1.5080	-4.824377	0.000324	3.243608	1.098964	-0.000130
1044	1.0378e+02	-1.5433	-4.957603	0.000334	3.344971	1.133307	-0.000134
1045	1.0388e+02	-1.5914	-5.098902	0.000355	3.547696	1.201992	-0.000142
1046	1.0398e+02	-1.6235	-5.187719	0.000223	2.229980	0.755538	-0.000089
1047	1.0408e+02	-1.6700	-5.316908	0.000324	3.243608	1.098964	-0.000130
1048	1.0418e+02	-1.7085	-5.442059	0.000314	3.142245	1.064621	-0.000126
1049	1.0428e+02	-1.7470	-5.567210	0.000314	3.142245	1.064621	-0.000126
1050	1.0438e+02	-1.7887	-5.708510	0.000355	3.547696	1.201992	-0.000142
1051	1.0447e+02	-1.8336	-5.813475	0.000264	2.635431	0.892908	-0.000105
1052	1.0457e+02	-1.8721	-5.974961	0.000405	4.054510	1.373705	-0.000162
1053	1.0467e+02	-1.9155	-6.067815	0.000233	2.331343	0.789880	-0.000093
1054	1.0477e+02	-1.9556	-6.201040	0.000334	3.344971	1.133307	-0.000134
1055	1.0487e+02	-1.9860	-6.330229	0.000324	3.243608	1.098964	-0.000130
1056	1.0497e+02	-2.0278	-6.410972	0.000203	2.027255	0.686853	-0.000081
1057	1.0507e+02	-2.0695	-6.532086	0.000304	3.040882	1.030279	-0.000122
1058	1.0517e+02	-2.0983	-6.661274	0.000324	3.243608	1.098964	-0.000130
1059	1.0527e+02	-2.1497	-6.750091	0.000223	2.229980	0.755538	-0.000089
1060	1.0537e+02	-2.1850	-6.931762	0.000456	4.561324	1.545418	-0.000183
1061	1.0547e+02	-2.2203	-7.048839	0.000294	2.939520	0.995936	-0.000118
1062	1.0557e+02	-2.2764	-7.153805	0.000264	2.635431	0.892908	-0.000105
1063	1.0567e+02	-2.3053	-7.307216	0.000385	3.851784	1.305020	-0.000154
1064	1.0577e+02	-2.3486	-7.400070	0.000233	2.331343	0.789880	-0.000093
1065	1.0587e+02	-2.3839	-7.549444	0.000375	3.750422	1.270677	-0.000150
1066	1.0597e+02	-2.4224	-7.678632	0.000324	3.243608	1.098964	-0.000130
1067	1.0607e+02	-2.4657	-7.759375	0.000203	2.027255	0.686853	-0.000081
1068	1.0617e+02	-2.5042	-7.912786	0.000385	3.851784	1.305020	-0.000154
1069	1.0627e+02	-2.5443	-8.017752	0.000264	2.635431	0.892908	-0.000105
1070	1.0637e+02	-2.5876	-8.191348	0.000436	4.358598	1.476733	-0.000174
1071	1.0647e+02	-2.6229	-8.264017	0.000182	1.824529	0.618167	-0.000073
1072	1.0656e+02	-2.6759	-8.401279	0.000345	3.446333	1.167649	-0.000138
1073	1.0666e+02	-2.7015	-8.542579	0.000355	3.547696	1.201992	-0.000142
1074	1.0676e+02	-2.7400	-8.659656	0.000294	2.939520	0.995936	-0.000118
1075	1.0686e+02	-2.7930	-8.764622	0.000264	2.635431	0.892908	-0.000105
1076	1.0696e+02	-2.8251	-8.926107	0.000405	4.054510	1.373705	-0.000162
1077	1.0706e+02	-2.8620	-9.043184	0.000294	2.939520	0.995936	-0.000118
1078	1.0716e+02	-2.9037	-9.152187	0.000274	2.736794	0.927251	-0.000110
1079	1.0726e+02	-2.9502	-9.293486	0.000355	3.547696	1.201992	-0.000142
1080	1.0736e+02	-2.9775	-9.362118	0.000172	1.723167	0.583825	-0.000069
1081	1.0746e+02	-3.0256	-9.551863	0.000476	4.764049	1.614104	-0.000191
1082	1.0756e+02	-3.0657	-9.664903	0.000284	2.838157	0.961594	-0.000114
1083	1.0766e+02	-3.1058	-9.786017	0.000304	3.040882	1.030279	-0.000122
1084	1.0776e+02	-3.1395	-9.874834	0.000223	2.229980	0.755538	-0.000089
1085	1.0786e+02	-3.1860	-9.999985	0.000314	3.142245	1.064621	-0.000126
1086	1.0796e+02	-3.2309	-10.153396	0.000385	3.851784	1.305020	-0.000154
1087	1.0806e+02	-3.2742	-10.282585	0.000324	3.243608	1.098964	-0.000130
1088	1.0816e+02	-3.3095	-10.423884	0.000355	3.547696	1.201992	-0.000142
1089	1.0826e+02	-3.3416	-10.528850	0.000264	2.635431	0.892908	-0.000105
1090	1.0836e+02	-3.3849	-10.658038	0.000324	3.243608	1.098964	-0.000130
1091	1.0845e+02	-3.4234	-10.767041	0.000274	2.736794	0.927251	-0.000110
1092	1.0855e+02	-3.4555	-10.892192	0.000314	3.142245	1.064621	-0.000126
1093	1.0865e+02	-3.5036	-11.009269	0.000294	2.939520	0.995936	-0.000118
1094	1.0875e+02	-3.5373	-11.110198	0.000253	2.534069	0.858566	-0.000101
1095	1.0885e+02	-3.5887	-11.231312	0.000304	3.040882	1.030279	-0.000122
1096	1.0895e+02	-3.6175	-11.376649	0.000365	3.649059	1.236335	-0.000146
1097	1.0905e+02	-3.6577	-11.493725	0.000294	2.939520	0.995936	-0.000118
1098	1.0915e+02	-3.6962	-11.610802	0.000294	2.939520	0.995936	-0.000118
1099	1.0925e+02	-3.7411	-11.756139	0.000365	3.649059	1.236335	-0.000146
1100	1.0935e+02	-3.7764	-11.893402	0.000345	3.446333	1.167649	-0.000138
1101	1.0945e+02	-3.8181	-11.994330	0.000253	2.534069	0.858566	-0.000101
1102	1.0955e+02	-3.8502	-12.075073	0.000203	2.027255	0.686853	-0.000081
1103	1.0965e+02	-3.8935	-12.220410	0.000365	3.649059	1.236335	-0.000146
1104	1.0975e+02	-3.9384	-12.369784	0.000375	3.750422	1.270677	-0.000150
1105	1.0985e+02	-3.9961	-12.498972	0.000324	3.243608	1.098964	-0.000130
1106	1.0995e+02	-4.0250	-12.620086	0.000304	3.040882	1.030279	-0.000122
1107	1.1005e+02	-4.0619	-12.721015	0.000253	2.534069	0.858566	-0.000101
1108	1.1015e+02	-4.0972	-12.874426	0.000385	3.851784	1.305020	-0.000154
1109	1.1025e+02	-4.1405	-12.955169	0.000203	2.027255	0.686853	-0.000081
1110	1.1035e+02	-4.1951	-13.092431	0.000345	3.446333	1.167649	-0.000138
1111	1.1044e+02	-4.2239	-13.233731	0.000355	3.547696	1.201992	-0.000142
1112	1.1054e+02	-4.2592	-13.334659	0.000253	2.534069	0.858566	-0.000101
1113	1.1064e+02	-4.2865	-13.427513	0.000233	2.331343	0.789880	-0.000093
1114	1.1074e+02	-4.3394	-13.568813	0.000355	3.547696	1.201992	-0.000142
1115	1.1084e+02	-4.3780	-13.685890	0.000294	2.939520	0.995936	-0.000118
1116	1.1094e+02	-4.4181	-13.802967	0.000294	2.939520	0.995936	-0.000118
1117	1.1104e+02	-4.4517	-13.944267	0.000355	3.547696	1.201992	-0.000142
1118	1.1114e+02	-4.5047	-14.065381	0.000304	3.040882	1.030279	-0.000122
1119	1.1124e+02	-4.5432	-14.198606	0.000334	3.344971	1.133307	-0.000134
1120	1.1134e+02	-4.5785	-14.299535	0.000253	2.534069	0.858566	-0.000101
1121	1.1144e+02	-4.6154	-14.436797	0.000345	3.446333	1.167649	-0.000138
1122	1.1154e+02	-4.6555	-14.545800	0.000274	2.736794	0.927251	-0.000110
1123	1.1164e+02	-4.7004	-14.634617	0.000223	2.229980	0.755538	-0.000089
1124	1.1174e+02	-4.7389	-14.800140	0.000416	4.155873	1.408048	-0.000166
1125	1.1184e+02	-4.7790	-14.905105	0.000264	2.635431	0.892908	-0.000105
1126	1.1194e+02	-4.8175	-15.030256	0.000314	3.142245	1.064621	-0.000126
1127	1.1204e+02	-4.8592	-15.131185	0.000253	2.534069	0.858566	-0.000101
1128	1.1214e+02	-4.8977	-15.308819	0.000446	4.459961	1.511076	-0.000179
1129	1.1224e+02	-4.9314	-15.413784	0.000264	2.635431	0.892908	-0.000105
1130	1.1234e+02	-4.9747	-15.542973	0.000324	3.243608	1.098964	-0.000130
1131	1.1244e+02	-5.0100	-15.639864	0.000243	2.432706	0.824223	-0.000097
1132	1.1253e+02	-5.0565	-15.748867	0.000274	2.736794	0.927251	-0.000110
1133	1.1263e+02	-5.0886	-15.886129	0.000345	3.446333	1.167649	-0.000138
1134	1.1273e+02	-5.1384	-16.011280	0.000314	3.142245	1.064621	-0.000126
1135	1.1283e+02	-5.1785	-16.160654	0.000375	3.750422	1.270677	-0.000150
1136	1.1293e+02	-5.2186	-16.281768	0.000304	3.040882	1.030279	-0.000122
1137	1.1303e+02	-5.2523	-16.354437	0.000182	1.824529	0.618167	-0.000073
1138	1.1313e+02	-5.2908	-16.511885	0.000395	3.953147	1.339363	-0.000158
1139	1.1323e+02	-5.3421	-16.657222	0.000365	3.649059	1.236335	-0.000146
1140	1.1333e+02	-5.3822	-16.737965	0.000203	2.027255	0.686853	-0.000081
1141	1.1343e+02	-5.4159	-16.895413	0.000395	3.953147	1.339363	-0.000158
1142	1.1353e+02	-5.4416	-16.996341	0.000253	2.534069	0.858566	-0.000101
1143	1.1363e+02	-5.5009	-17.069010	0.000182	1.824529	0.618167	-0.000073
1144	1.1373e+02	-5.5234	-17.214347	0.000365	3.649059	1.236335	-0.000146
1145	1.1383e+02	-5.5699	-17.367758	0.000385	3.851784	1.305020	-0.000154
1146	1.1393e+02	-5.6116	-17.460612	0.000233	2.331343	0.789880	-0.000093
1147	1.1403e+02	-5.6549	-17.618060	0.000395	3.953147	1.339363	-0.000158
1148	1.1413e+02	-5.6966	-17.690729	0.000182	1.824529	0.618167	-0.000073
1149	1.1423e+02	-5.7303	-17.840103	0.000375	3.750422	1.270677	-0.000150
1150	1.1433e+02	-5.7720	-17.969291	0.000324	3.243608	1.098964	-0.000130
1151	1.1442e+02	-5.8121	-18.058108	0.000223	2.229980	0.755538	-0.000089
1152	1.1452e+02	-5.8506	-18.187296	0.000324	3.243608	1.098964	-0.000130
1153	1.1462e+02	-5.8907	-18.304373	0.000294	2.939520	0.995936	-0.000118
1154	1.1472e+02	-5.9357	-18.429525	0.000314	3.142245	1.064621	-0.000126
1155	1.1482e+02	-5.9806	-18.562750	0.000334	3.344971	1.133307	-0.000134
1156	1.1492e+02	-6.0207	-18.659641	0.000243	2.432706	0.824223	-0.000097
1157	1.1502e+02	-6.0512	-18.784793	0.000314	3.142245	1.064621	-0.000126
1158	1.1512e+02	-6.0993	-18.897832	0.000284	2.838157	0.961594	-0.000114
1159	1.1522e+02	-6.1378	-19.014909	0.000294	2.939520	0.995936	-0.000118
1160	1.1532e+02	-6.1779	-19.156209	0.000355	3.547696	1.201992	-0.000142
1161	1.1542e+02	-6.2148	-19.240989	0.000213	2.128618	0.721195	-0.000085
1162	1.1552e+02	-6.2501	-19.402474	0.000405	4.054510	1.373705	-0.000162
1163	1.1562e+02	-6.2854	-19.543774	0.000355	3.547696	1.201992	-0.000142
1164	1.1572e+02	-6.3335	-19.604331	0.000152	1.520441	0.515139	-0.000061
1165	1.1582e+02	-6.3784	-19.721408	0.000294	2.939520	0.995936	-0.000118
1166	1.1592e+02	-6.4089	-19.874819	0.000385	3.851784	1.305020	-0.000154
1167	1.1602e+02	-6.4554	-19.991896	0.000294	2.939520	0.995936	-0.000118
1168	1.1612e+02	-6.4827	-20.084750	0.000233	2.331343	0.789880	-0.000093
1169	1.1622e+02	-6.5196	-20.230087	0.000365	3.649059	1.236335	-0.000146
1170	1.1632e+02	-6.5661	-20.326978	0.000243	2.432706	0.824223	-0.000097
1171	1.1642e+02	-6.6014	-20.444055	0.000294	2.939520	0.995936	-0.000118
1172	1.1651e+02	-6.6511	-20.561132	0.000294	2.939520	0.995936	-0.000118
1173	1.1661e+02	-6.6880	-20.645912	0.000213	2.128618	0.721195	-0.000085
1174	1.1671e+02	-6.7233	-20.819509	0.000436	4.358598	1.476733	-0.000174
1175	1.1681e+02	-6.7634	-20.916400	0.000243	2.432706	0.824223	-0.000097
1176	1.1691e+02	-6.8068	-21.041551	0.000314	3.142245	1.064621	-0.000126
1177	1.1701e+02	-6.8469	-21.186888	0.000365	3.649059	1.236335	-0.000146
1178	1.1711e+02	-6.8838	-21.283780	0.000243	2.432706	0.824223	-0.000097
1179	1.1721e+02	-6.9175	-21.388745	0.000264	2.635431	0.892908	-0.000105
1180	1.1731e+02	-6.9608	-21.526008	0.000345	3.446333	1.167649	-0.000138
1181	1.1741e+02	-7.0153	-21.635010	0.000274	2.736794	0.927251	-0.000110
1182	1.1751e+02	-7.0442	-21.772273	0.000345	3.446333	1.167649	-0.000138
1183	1.1761e+02	-7.0859	-21.844941	0.000182	1.824529	0.618167	-0.000073
1184	1.1771e+02	-7.1276	-21.978167	0.000334	3.344971	1.133307	-0.000134
1185	1.1781e+02	-7.1677	-22.115430	0.000345	3.446333	1.167649	-0.000138
1186	1.1791e+02	-7.2078	-22.256729	0.000355	3.547696	1.201992	-0.000142
1187	1.1801e+02	-7.2431	-22.341509	0.000213	2.128618	0.721195	-0.000085
1188	1.1811e+02	-7.2800	-22.482809	0.000355	3.547696	1.201992	-0.000142
1189	1.1821e+02	-7.3233	-22.583737	0.000253	2.534069	0.858566	-0.000101
1190	1.1831e+02	-7.3666	-22.725037	0.000355	3.547696	1.201992	-0.000142
1191	1.1841e+02	-7.4116	-22.830003	0.000264	2.635431	0.892908	-0.000105
1192	1.1850e+02	-7.4404	-22.922857	0.000233	2.331343	0.789880	-0.000093
1193	1.1860e+02	-7.4837	-23.072231	0.000375	3.750422	1.270677	-0.000150
1194	1.1870e+02	-7.5255	-23.181233	0.000274	2.736794	0.927251	-0.000110
1195	1.1880e+02	-7.5624	-23.310422	0.000324	3.243608	1.098964	-0.000130
1196	1.1890e+02	-7.6089	-23.419424	0.000274	2.736794	0.927251	-0.000110
1197	1.1900e+02	-7.6361	-23.520353	0.000253	2.534069	0.858566	-0.000101
1198	1.1910e+02	-7.6779	-23.669727	0.000375	3.750422	1.270677	-0.000150
1199	1.1920e+02	-7.7276	-23.750470	0.000203	2.027255	0.686853	-0.000081
1200	1.1930e+02	-7.7613	-23.883695	0.000334	3.344971	1.133307	-0.000134
1201	1.1940e+02	-7.8046	-24.029032	0.000365	3.649059	1.236335	-0.000146
1202	1.1950e+02	-7.8399	-24.109775	0.000203	2.027255	0.686853	-0.000081
1203	1.1960e+02	-7.8880	-24.234926	0.000314	3.142245	1.064621	-0.000126
1204	1.1970e+02	-7.9185	-24.347966	0.000284	2.838157	0.961594	-0.000114
1205	1.1980e+02	-7.9522	-24.461005	0.000284	2.838157	0.961594	-0.000114
1206	1.1990e+02	-8.0019	-24.586157	0.000314	3.142245	1.064621	-0.000126
1207	1.2000e+02	-8.0468	-24.719382	0.000334	3.344971	1.133307	-0.000134
1208	1.2010e+02	-8.0853	-24.820311	0.000253	2.534069	0.858566	-0.000101
1209	1.2020e+02	-8.1222	-24.957573	0.000345	3.446333	1.167649	-0.000138
1210	1.2030e+02	-8.1671	-25.066576	0.000274	2.736794	0.927251	-0.000110
1211	1.2039e+02	-8.2057	-25.187690	0.000304	3.040882	1.030279	-0.000122
1212	1.2049e+02	-8.2329	-25.284581	0.000243	2.432706	0.824223	-0.000097
1213	1.2059e+02	-8.2778	-25.373398	0.000223	2.229980	0.755538	-0.000089
1214	1.2069e+02	-8.3228	-25.526809	0.000385	3.851784	1.305020	-0.000154
1215	1.2079e+02	-8.3564	-25.651960	0.000314	3.142245	1.064621	-0.000126
1216	1.2089e+02	-8.3966	-25.785186	0.000334	3.344971	1.133307	-0.000134
1217	1.2099e+02	-8.4335	-25.890151	0.000264	2.635431	0.892908	-0.000105
1218	1.2109e+02	-8.4720	-25.983006	0.000233	2.331343	0.789880	-0.000093
1219	1.2119e+02	-8.5249	-26.092008	0.000274	2.736794	0.927251	-0.000110
1220	1.2129e+02	-8.5650	-26.213122	0.000304	3.040882	1.030279	-0.000122
1221	1.2139e+02	-8.6051	-26.314051	0.000253	2.534069	0.858566	-0.000101
1222	1.2149e+02	-8.6420	-26.451313	0.000345	3.446333	1.167649	-0.000138
1223	1.2159e+02	-8.6805	-26.584539	0.000334	3.344971	1.133307	-0.000134
1224	1.2169e+02	-8.7110	-26.661244	0.000193	1.925892	0.652510	-0.000077
1225	1.2179e+02	-8.7607	-26.826767	0.000416	4.155873	1.408048	-0.000166
1226	1.2189e+02	-8.8040	-26.911547	0.000213	2.128618	0.721195	-0.000085
1227	1.2199e+02	-8.8377	-26.980178	0.000172	1.723167	0.583825	-0.000069
1228	1.2209e+02	-8.8842	-27.186072	0.000517	5.169500	1.751474	-0.000207
1229	1.2219e+02	-8.9147	-27.278926	0.000233	2.331343	0.789880	-0.000093
1230	1.2229e+02	-8.9532	-27.424263	0.000365	3.649059	1.236335	-0.000146
1231	1.2239e+02	-9.0046	-27.537303	0.000284	2.838157	0.961594	-0.000114
1232	1.2248e+02	-9.0334	-27.614008	0.000193	1.925892	0.652510	-0.000077
1233	1.2258e+02	-9.0848	-27.767420	0.000385	3.851784	1.305020	-0.000154
1234	1.2268e+02	-9.1201	-27.860274	0.000233	2.331343	0.789880	-0.000093
1235	1.2278e+02	-9.1554	-27.973314	0.000284	2.838157	0.961594	-0.000114
1236	1.2288e+02	-9.1955	-28.082316	0.000274	2.736794	0.927251	-0.000110
1237	1.2298e+02	-9.2340	-28.219579	0.000345	3.446333	1.167649	-0.000138
1238	1.2308e+02	-9.2741	-28.312433	0.000233	2.331343	0.789880	-0.000093
1239	1.2318e+02	-9.3110	-28.421436	0.000274	2.736794	0.927251	-0.000110
1240	1.2328e+02	-9.3575	-28.558698	0.000345	3.446333	1.167649	-0.000138
1241	1.2338e+02	-9.4024	-28.659627	0.000253	2.534069	0.858566	-0.000101
1242	1.2348e+02	-9.4361	-28.804963	0.000365	3.649059	1.236335	-0.000146
1243	1.2358e+02	-9.4730	-28.909929	0.000264	2.635431	0.892908	-0.000105
1244	1.2368e+02	-9.5099	-29.018932	0.000274	2.736794	0.927251	-0.000110
1245	1.2378e+02	-9.5564	-29.160231	0.000355	3.547696	1.201992	-0.000142
1246	1.2388e+02	-9.5965	-29.257123	0.000243	2.432706	0.824223	-0.000097
1247	1.2398e+02	-9.6286	-29.394385	0.000345	3.446333	1.167649	-0.000138
1248	1.2408e+02	-9.6719	-29.463017	0.000172	1.723167	0.583825	-0.000069
1249	1.2418e+02	-9.7184	-29.656799	0.000487	4.865412	1.648446	-0.000195
1250	1.2428e+02	-9.7489	-29.737542	0.000203	2.027255	0.686853	-0.000081
1251	1.2438e+02	-9.7938	-29.878842	0.000355	3.547696	1.201992	-0.000142
1252	1.2447e+02	-9.8291	-29.979770	0.000253	2.534069	0.858566	-0.000101
1253	1.2457e+02	-9.8821	-30.076661	0.000243	2.432706	0.824223	-0.000097
1254	1.2467e+02	-9.9093	-30.221998	0.000365	3.649059	1.236335	-0.000146
1255	1.2477e+02	-9.9543	-30.302741	0.000203	2.027255	0.686853	-0.000081
1256	1.2487e+02	-9.9928	-30.427892	0.000314	3.142245	1.064621	-0.000126
1257	1.2497e+02	-10.0345	-30.516709	0.000223	2.229980	0.755538	-0.000089
1258	1.2507e+02	-10.0762	-30.649935	0.000334	3.344971	1.133307	-0.000134
1259	1.2517e+02	-10.1147	-30.791234	0.000355	3.547696	1.201992	-0.000142
1260	1.2527e+02	-10.1548	-30.900237	0.000274	2.736794	0.927251	-0.000110
1261	1.2537e+02	-10.1853	-31.021351	0.000304	3.040882	1.030279	-0.000122
1262	1.2547e+02	-10.2350	-31.142465	0.000304	3.040882	1.030279	-0.000122
1263	1.2557e+02	-10.2687	-31.255505	0.000284	2.838157	0.961594	-0.000114
1264	1.2567e+02	-10.3168	-31.364508	0.000274	2.736794	0.927251	-0.000110
1265	1.2577e+02	-10.3617	-31.453325	0.000223	2.229980	0.755538	-0.000089
1266	1.2587e+02	-10.3906	-31.574439	0.000304	3.040882	1.030279	-0.000122
1267	1.2597e+02	-10.4371	-31.679404	0.000264	2.635431	0.892908	-0.000105
1268	1.2607e+02	-10.4740	-31.796481	0.000294	2.939520	0.995936	-0.000118
1269	1.2617e+02	-10.5045	-31.909521	0.000284	2.838157	0.961594	-0.000114
1270	1.2627e+02	-10.5575	-32.038709	0.000324	3.243608	1.098964	-0.000130
1271	1.2636e+02	-10.5976	-32.163860	0.000314	3.142245	1.064621	-0.000126
1272	1.2646e+02	-10.6345	-32.220380	0.000142	1.419078	0.480797	-0.000057
1273	1.2656e+02	-10.6762	-32.389940	0.000426	4.257235	1.442390	-0.000170
1274	1.2666e+02	-10.7115	-32.498943	0.000274	2.736794	0.927251	-0.000110
1275	1.2676e+02	-10.7484	-32.599871	0.000253	2.534069	0.858566	-0.000101
1276	1.2686e+02	-10.7788	-32.716948	0.000294	2.939520	0.995936	-0.000118
1277	1.2696e+02	-10.8318	-32.870359	0.000385	3.851784	1.305020	-0.000154
1278	1.2706e+02	-10.8783	-32.934953	0.000162	1.621804	0.549482	-0.000065
1279	1.2716e+02	-10.8992	-33.080290	0.000365	3.649059	1.236335	-0.000146
1280	1.2726e+02	-10.9505	-33.165070	0.000213	2.128618	0.721195	-0.000085
1281	1.2736e+02	-10.9890	-33.306370	0.000355	3.547696	1.201992	-0.000142
1282	1.2746e+02	-11.0339	-33.439595	0.000334	3.344971	1.133307	-0.000134
1283	1.2756e+02	-11.0724	-33.516301	0.000193	1.925892	0.652510	-0.000077
1284	1.2766e+02	-11.1109	-33.649526	0.000334	3.344971	1.133307	-0.000134
1285	1.2776e+02	-11.1542	-33.738343	0.000223	2.229980	0.755538	-0.000089
1286	1.2786e+02	-11.1943	-33.883680	0.000365	3.649059	1.236335	-0.000146
1287	1.2796e+02	-11.2280	-33.972497	0.000223	2.229980	0.755538	-0.000089
1288	1.2806e+02	-11.2681	-34.109760	0.000345	3.446333	1.167649	-0.000138
1289	1.2816e+02	-11.3050	-34.222800	0.000284	2.838157	0.961594	-0.000114
1290	1.2826e+02	-11.3499	-34.351988	0.000324	3.243608	1.098964	-0.000130
1291	1.2835e+02	-11.3836	-34.465028	0.000284	2.838157	0.961594	-0.000114
1292	1.2845e+02	-11.4205	-34.541733	0.000193	1.925892	0.652510	-0.000077
1293	1.2855e+02	-11.4687	-34.622476	0.000203	2.027255	0.686853	-0.000081
1294	1.2865e+02	-11.5088	-34.763776	0.000355	3.547696	1.201992	-0.000142
1295	1.2875e+02	-11.5392	-34.917187	0.000385	3.851784	1.305020	-0.000154
1296	1.2885e+02	-11.5874	-35.006004	0.000223	2.229980	0.755538	-0.000089
1297	1.2895e+02	-11.6291	-35.110970	0.000264	2.635431	0.892908	-0.000105
1298	1.2905e+02	-11.6676	-35.232084	0.000304	3.040882	1.030279	-0.000122
1299	1.2915e+02	-11.7093	-35.361272	0.000324	3.243608	1.098964	-0.000130
1300	1.2925e+02	-11.7478	-35.458163	0.000243	2.432706	0.824223	-0.000097
1301	1.2935e+02	-11.7895	-35.603500	0.000365	3.649059	1.236335	-0.000146
1302	1.2945e+02	-11.8296	-35.688280	0.000213	2.128618	0.721195	-0.000085
1303	1.2955e+02	-11.8697	-35.829580	0.000355	3.547696	1.201992	-0.000142
1304	1.2965e+02	-11.9050	-35.958768	0.000324	3.243608	1.098964	-0.000130
1305	1.2975e+02	-11.9531	-36.031436	0.000182	1.824529	0.618167	-0.000073
1306	1.2985e+02	-11.9932	-36.128328	0.000243	2.432706	0.824223	-0.000097
1307	1.2995e+02	-12.0221	-36.273665	0.000365	3.649059	1.236335	-0.000146
1308	1.3005e+02	-12.0590	-36.378630	0.000264	2.635431	0.892908	-0.000105
1309	1.3015e+02	-12.1039	-36.487633	0.000274	2.736794	0.927251	-0.000110
1310	1.3025e+02	-12.1473	-36.649118	0.000405	4.054510	1.373705	-0.000162
1311	1.3034e+02	-12.1874	-36.697564	0.000122	1.216353	0.412112	-0.000049
1312	1.3044e+02	-12.2210	-36.830789	0.000334	3.344971	1.133307	-0.000134
1313	1.3054e+02	-12.2708	-36.951903	0.000304	3.040882	1.030279	-0.000122
1314	1.3064e+02	-12.2997	-37.081092	0.000324	3.243608	1.098964	-0.000130
1315	1.3074e+02	-12.3414	-37.153760	0.000182	1.824529	0.618167	-0.000073
1316	1.3084e+02	-12.3815	-37.250651	0.000243	2.432706	0.824223	-0.000097
1317	1.3094e+02	-12.4248	-37.404063	0.000385	3.851784	1.305020	-0.000154
1318	1.3104e+02	-12.4601	-37.525177	0.000304	3.040882	1.030279	-0.000122
1319	1.3114e+02	-12.5050	-37.650328	0.000314	3.142245	1.064621	-0.000126
1320	1.3124e+02	-12.5419	-37.718959	0.000172	1.723167	0.583825	-0.000069
1321	1.3134e+02	-12.5740	-37.823925	0.000264	2.635431	0.892908	-0.000105
1322	1.3144e+02	-12.6285	-37.985410	0.000405	4.054510	1.373705	-0.000162
1323	1.3154e+02	-12.6622	-38.054041	0.000172	1.723167	0.583825	-0.000069
1324	1.3164e+02	-12.6991	-38.179193	0.000314	3.142245	1.064621	-0.000126
1325	1.3174e+02	-12.7488	-38.223601	0.000111	1.114990	0.377769	-0.000045
1326	1.3184e+02	-12.7841	-38.368938	0.000365	3.649059	1.236335	-0.000146
1327	1.3194e+02	-12.8323	-38.514275	0.000365	3.649059	1.236335	-0.000146
1328	1.3204e+02	-12.8531	-38.590981	0.000193	1.925892	0.652510	-0.000077
1329	1.3214e+02	-12.9061	-38.687872	0.000243	2.432706	0.824223	-0.000097
1330	1.3224e+02	-12.9510	-38.845320	0.000395	3.953147	1.339363	-0.000158
1331	1.3234e+02	-12.9750	-38.938174	0.000233	2.331343	0.789880	-0.000093
1332	1.3243e+02	-13.0200	-39.035065	0.000243	2.432706	0.824223	-0.000097
1333	1.3253e+02	-13.0552	-39.168291	0.000334	3.344971	1.133307	-0.000134
1334	1.3263e+02	-13.0954	-39.249034	0.000203	2.027255	0.686853	-0.000081
1335	1.3273e+02	-13.1371	-39.374185	0.000314	3.142245	1.064621	-0.000126
1336	1.3283e+02	-13.1804	-39.483188	0.000274	2.736794	0.927251	-0.000110
1337	1.3293e+02	-13.2333	-39.559893	0.000193	1.925892	0.652510	-0.000077
1338	1.3303e+02	-13.2590	-39.713304	0.000385	3.851784	1.305020	-0.000154
1339	1.3313e+02	-13.3071	-39.834418	0.000304	3.040882	1.030279	-0.000122
1340	1.3323e+02	-13.3440	-39.927272	0.000233	2.331343	0.789880	-0.000093
1341	1.3333e+02	-13.3729	-40.048387	0.000304	3.040882	1.030279	-0.000122
1342	1.3343e+02	-13.4242	-40.121055	0.000182	1.824529	0.618167	-0.000073
1343	1.3353e+02	-13.4627	-40.266392	0.000365	3.649059	1.236335	-0.000146
1344	1.3363e+02	-13.5012	-40.375395	0.000274	2.736794	0.927251	-0.000110
1345	1.3373e+02	-13.5317	-40.484397	0.000274	2.736794	0.927251	-0.000110
1346	1.3383e+02	-13.5718	-40.585326	0.000253	2.534069	0.858566	-0.000101
1347	1.3393e+02	-13.6264	-40.718551	0.000334	3.344971	1.133307	-0.000134
1348	1.3403e+02	-13.6616	-40.843702	0.000314	3.142245	1.064621	-0.000126
1349	1.3413e+02	-13.6921	-40.916371	0.000182	1.824529	0.618167	-0.000073
1350	1.3423e+02	-13.7386	-41.021336	0.000264	2.635431	0.892908	-0.000105
1351	1.3432e+02	-13.7755	-41.126302	0.000264	2.635431	0.892908	-0.000105
1352	1.3442e+02	-13.8237	-41.251453	0.000314	3.142245	1.064621	-0.000126
1353	1.3452e+02	-13.8477	-41.376604	0.000314	3.142245	1.064621	-0.000126
1354	1.3462e+02	-13.9007	-41.457347	0.000203	2.027255	0.686853	-0.000081
1355	1.3472e+02	-13.9424	-41.614795	0.000395	3.953147	1.339363	-0.000158
1356	1.3482e+02	-13.9777	-41.679389	0.000162	1.621804	0.549482	-0.000065
1357	1.3492e+02	-14.0178	-41.788392	0.000274	2.736794	0.927251	-0.000110
1358	1.3502e+02	-14.0547	-41.885283	0.000243	2.432706	0.824223	-0.000097
1359	1.3512e+02	-14.0900	-42.026583	0.000355	3.547696	1.201992	-0.000142
1360	1.3522e+02	-14.1381	-42.147697	0.000304	3.040882	1.030279	-0.000122
1361	1.3532e+02	-14.1686	-42.240551	0.000233	2.331343	0.789880	-0.000093
1362	1.3542e+02	-14.2183	-42.381851	0.000355	3.547696	1.201992	-0.000142
1363	1.3552e+02	-14.2536	-42.490854	0.000274	2.736794	0.927251	-0.000110
1364	1.3562e+02	-14.2969	-42.591782	0.000253	2.534069	0.858566	-0.000101
1365	1.3572e+02	-14.3338	-42.684636	0.000233	2.331343	0.789880	-0.000093
1366	1.3582e+02	-14.3787	-42.793639	0.000274	2.736794	0.927251	-0.000110
1367	1.3592e+02	-14.4140	-42.910716	0.000294	2.939520	0.995936	-0.000118
1368	1.3602e+02	-14.4509	-42.987421	0.000193	1.925892	0.652510	-0.000077
1369	1.3612e+02	-14.5023	-43.132758	0.000365	3.649059	1.236335	-0.000146
1370	1.3622e+02	-14.5311	-43.233687	0.000253	2.534069	0.858566	-0.000101
1371	1.3631e+02	-14.5712	-43.314429	0.000203	2.027255	0.686853	-0.000081
1372	1.3641e+02	-14.6130	-43.427469	0.000284	2.838157	0.961594	-0.000114
1373	1.3651e+02	-14.6466	-43.560695	0.000334	3.344971	1.133307	-0.000134
1374	1.3661e+02	-14.6900	-43.649512	0.000223	2.229980	0.755538	-0.000089
1375	1.3671e+02	-14.7333	-43.766589	0.000294	2.939520	0.995936	-0.000118
1376	1.3681e+02	-14.7718	-43.871554	0.000264	2.635431	0.892908	-0.000105
1377	1.3691e+02	-14.8119	-43.980557	0.000274	2.736794	0.927251	-0.000110
1378	1.3701e+02	-14.8488	-44.138005	0.000395	3.953147	1.339363	-0.000158
1379	1.3711e+02	-14.8937	-44.226822	0.000223	2.229980	0.755538	-0.000089
1380	1.3721e+02	-14.9338	-44.335825	0.000274	2.736794	0.927251	-0.000110
1381	1.3731e+02	-14.9787	-44.448864	0.000284	2.838157	0.961594	-0.000114
1382	1.3741e+02	-15.0060	-44.541719	0.000233	2.331343	0.789880	-0.000093
1383	1.3751e+02	-15.0525	-44.670907	0.000324	3.243608	1.098964	-0.000130
1384	1.3761e+02	-15.0926	-44.743575	0.000182	1.824529	0.618167	-0.000073
1385	1.3771e+02	-15.1295	-44.888912	0.000365	3.649059	1.236335	-0.000146
1386	1.3781e+02	-15.1696	-44.981766	0.000233	2.331343	0.789880	-0.000093
1387	1.3791e+02	-15.2065	-45.058472	0.000193	1.925892	0.652510	-0.000077
1388	1.3801e+02	-15.2498	-45.151326	0.000233	2.331343	0.789880	-0.000093
1389	1.3811e+02	-15.2964	-45.300700	0.000375	3.750422	1.270677	-0.000150
1390	1.3821e+02	-15.3317	-45.425851	0.000314	3.142245	1.064621	-0.000126
1391	1.3831e+02	-15.3734	-45.542928	0.000294	2.939520	0.995936	-0.000118
1392	1.3840e+02	-15.4071	-45.680191	0.000345	3.446333	1.167649	-0.000138
1393	1.3850e+02	-15.4536	-45.736711	0.000142	1.419078	0.480797	-0.000057
1394	1.3860e+02	-15.4905	-45.861862	0.000314	3.142245	1.064621	-0.000126
1395	1.3870e+02	-15.5274	-45.938568	0.000193	1.925892	0.652510	-0.000077
1396	1.3880e+02	-15.5723	-46.031422	0.000233	2.331343	0.789880	-0.000093
1397	1.3890e+02	-15.6124	-46.148499	0.000294	2.939520	0.995936	-0.000118
1398	1.3900e+02	-15.6477	-46.257501	0.000274	2.736794	0.927251	-0.000110
1399	1.3910e+02	-15.7022	-46.378615	0.000304	3.040882	1.030279	-0.000122
1400	1.3920e+02	-15.7263	-46.519915	0.000355	3.547696	1.201992	-0.000142
1401	1.3930e+02	-15.7824	-46.572398	0.000132	1.317716	0.446454	-0.000053
1402	1.3940e+02	-15.8065	-46.721772	0.000375	3.750422	1.270677	-0.000150
1403	1.3950e+02	-15.8482	-46.846923	0.000314	3.142245	1.064621	-0.000126
1404	1.3960e+02	-15.8931	-46.911517	0.000162	1.621804	0.549482	-0.000065
1405	1.3970e+02	-15.9348	-47.012446	0.000253	2.534069	0.858566	-0.000101
1406	1.3980e+02	-15.9750	-47.141634	0.000324	3.243608	1.098964	-0.000130
1407	1.3990e+02	-16.0038	-47.282934	0.000355	3.547696	1.201992	-0.000142
1408	1.4000e+02	-16.0455	-47.383862	0.000253	2.534069	0.858566	-0.000101
1409	1.4010e+02	-16.0824	-47.484791	0.000253	2.534069	0.858566	-0.000101
1410	1.4020e+02	-16.1241	-47.597830	0.000284	2.838157	0.961594	-0.000114
1411	1.4029e+02	-16.1659	-47.686647	0.000223	2.229980	0.755538	-0.000089
1412	1.4039e+02	-16.2108	-47.840058	0.000385	3.851784	1.305020	-0.000154
1413	1.4049e+02	-16.2493	-47.924838	0.000213	2.128618	0.721195	-0.000085
1414	1.4059e+02	-16.2894	-48.033841	0.000274	2.736794	0.927251	-0.000110
1415	1.4069e+02	-16.3327	-48.163029	0.000324	3.243608	1.098964	-0.000130
1416	1.4079e+02	-16.3712	-48.255883	0.000233	2.331343	0.789880	-0.000093
1417	1.4089e+02	-16.4049	-48.360849	0.000264	2.635431	0.892908	-0.000105
1418	1.4099e+02	-16.4434	-48.465815	0.000264	2.635431	0.892908	-0.000105
1419	1.4109e+02	-16.4867	-48.570780	0.000264	2.635431	0.892908	-0.000105
1420	1.4119e+02	-16.5316	-48.683820	0.000284	2.838157	0.961594	-0.000114
1421	1.4129e+02	-16.5701	-48.772637	0.000223	2.229980	0.755538	-0.000089
1422	1.4139e+02	-16.6118	-48.885677	0.000284	2.838157	0.961594	-0.000114
1423	1.4149e+02	-16.6487	-48.970457	0.000213	2.128618	0.721195	-0.000085
1424	1.4159e+02	-16.6920	-49.103682	0.000334	3.344971	1.133307	-0.000134
1425	1.4169e+02	-16.7289	-49.208648	0.000264	2.635431	0.892908	-0.000105
1426	1.4179e+02	-16.7690	-49.349947	0.000355	3.547696	1.201992	-0.000142
1427	1.4189e+02	-16.8124	-49.422616	0.000182	1.824529	0.618167	-0.000073
1428	1.4199e+02	-16.8493	-49.555841	0.000334	3.344971	1.133307	-0.000134
1429	1.4209e+02	-16.8878	-49.632547	0.000193	1.925892	0.652510	-0.000077
1430	1.4219e+02	-16.9263	-49.745587	0.000284	2.838157	0.961594	-0.000114
1431	1.4228e+02	-16.9648	-49.866701	0.000304	3.040882	1.030279	-0.000122
1432	1.4238e+02	-17.0033	-49.979740	0.000284	2.838157	0.961594	-0.000114
1433	1.4248e+02	-17.0514	-50.080669	0.000253	2.534069	0.858566	-0.000101
1434	1.4258e+02	-17.0899	-50.221969	0.000355	3.547696	1.201992	-0.000142
1435	1.4268e+02	-17.1172	-50.330971	0.000274	2.736794	0.927251	-0.000110
1436	1.4278e+02	-17.1637	-50.399603	0.000172	1.723167	0.583825	-0.000069
1437	1.4288e+02	-17.2070	-50.524754	0.000314	3.142245	1.064621	-0.000126
1438	1.4298e+02	-17.2519	-50.653942	0.000324	3.243608	1.098964	-0.000130
1439	1.4308e+02	-17.2840	-50.750833	0.000243	2.432706	0.824223	-0.000097
1440	1.4318e+02	-17.3273	-50.843687	0.000233	2.331343	0.789880	-0.000093
1441	1.4328e+02	-17.3562	-50.984987	0.000355	3.547696	1.201992	-0.000142
1442	1.4338e+02	-17.4043	-51.073804	0.000223	2.229980	0.755538	-0.000089
1443	1.4348e+02	-17.4428	-51.182807	0.000274	2.736794	0.927251	-0.000110
1444	1.4358e+02	-17.4797	-51.287772	0.000264	2.635431	0.892908	-0.000105
1445	1.4368e+02	-17.5214	-51.404849	0.000294	2.939520	0.995936	-0.000118
1446	1.4378e+02	-17.5599	-51.465406	0.000152	1.520441	0.515139	-0.000061
1447	1.4388e+02	-17.5984	-51.643040	0.000446	4.459961	1.511076	-0.000179
1448	1.4398e+02	-17.6450	-51.679375	0.000091	0.912265	0.309084	-0.000037
1449	1.4408e+02	-17.6867	-51.836823	0.000395	3.953147	1.339363	-0.000158
1450	1.4418e+02	-17.7268	-51.937751	0.000253	2.534069	0.858566	-0.000101
1451	1.4428e+02	-17.7589	-52.026568	0.000223	2.229980	0.755538	-0.000089
1452	1.4437e+02	-17.8038	-52.131534	0.000264	2.635431	0.892908	-0.000105
1453	1.4447e+02	-17.8391	-52.280908	0.000375	3.750422	1.270677	-0.000150
1454	1.4457e+02	-17.8808	-52.345502	0.000162	1.621804	0.549482	-0.000065
1455	1.4467e+02	-17.9289	-52.474690	0.000324	3.243608	1.098964	-0.000130
1456	1.4477e+02	-17.9610	-52.607916	0.000334	3.344971	1.133307	-0.000134
1457	1.4487e+02	-17.9931	-52.716918	0.000274	2.736794	0.927251	-0.000110
1458	1.4497e+02	-18.0412	-52.797661	0.000203	2.027255	0.686853	-0.000081
1459	1.4507e+02	-18.0797	-52.930887	0.000334	3.344971	1.133307	-0.000134
1460	1.4517e+02	-18.1182	-53.019704	0.000223	2.229980	0.755538	-0.000089
1461	1.4527e+02	-18.1583	-53.124669	0.000264	2.635431	0.892908	-0.000105
1462	1.4537e+02	-18.1984	-53.217523	0.000233	2.331343	0.789880	-0.000093
1463	1.4547e+02	-18.2353	-53.366897	0.000375	3.750422	1.270677	-0.000150
1464	1.4557e+02	-18.2802	-53.439566	0.000182	1.824529	0.618167	-0.000073
1465	1.4567e+02	-18.3155	-53.576828	0.000345	3.446333	1.167649	-0.000138
1466	1.4577e+02	-18.3637	-53.677757	0.000253	2.534069	0.858566	-0.000101
1467	1.4587e+02	-18.4038	-53.782722	0.000264	2.635431	0.892908	-0.000105
1468	1.4597e+02	-18.4423	-53.924022	0.000355	3.547696	1.201992	-0.000142
1469	1.4607e+02	-18.4808	-54.020913	0.000243	2.432706	0.824223	-0.000097
1470	1.4617e+02	-18.5193	-54.142027	0.000304	3.040882	1.030279	-0.000122
1471	1.4626e+02	-18.5562	-54.214696	0.000182	1.824529	0.618167	-0.000073
1472	1.4636e+02	-18.6059	-54.372144	0.000395	3.953147	1.339363	-0.000158
1473	1.4646e+02	-18.6396	-54.501332	0.000324	3.243608	1.098964	-0.000130
1474	1.4656e+02	-18.6781	-54.606298	0.000264	2.635431	0.892908	-0.000105
1475	1.4666e+02	-18.7246	-54.703189	0.000243	2.432706	0.824223	-0.000097
1476	1.4676e+02	-18.7647	-54.816229	0.000284	2.838157	0.961594	-0.000114
1477	1.4686e+02	-18.8016	-54.925232	0.000274	2.736794	0.927251	-0.000110
1478	1.4696e+02	-18.8337	-55.022123	0.000243	2.432706	0.824223	-0.000097
1479	1.4706e+02	-18.8818	-55.167460	0.000365	3.649059	1.236335	-0.000146
1480	1.4716e+02	-18.9059	-55.248203	0.000203	2.027255	0.686853	-0.000081
1481	1.4726e+02	-18.9556	-55.361242	0.000284	2.838157	0.961594	-0.000114
1482	1.4736e+02	-18.9941	-55.522728	0.000405	4.054510	1.373705	-0.000162
1483	1.4746e+02	-19.0294	-55.611545	0.000223	2.229980	0.755538	-0.000089
1484	1.4756e+02	-19.0775	-55.740733	0.000324	3.243608	1.098964	-0.000130
1485	1.4766e+02	-19.1144	-55.841662	0.000253	2.534069	0.858566	-0.000101
1486	1.4776e+02	-19.1626	-55.991036	0.000375	3.750422	1.270677	-0.000150
1487	1.4786e+02	-19.2011	-56.108112	0.000294	2.939520	0.995936	-0.000118
1488	1.4796e+02	-19.2364	-56.205004	0.000243	2.432706	0.824223	-0.000097
1489	1.4806e+02	-19.2861	-56.314006	0.000274	2.736794	0.927251	-0.000110
1490	1.4816e+02	-19.3069	-56.418972	0.000264	2.635431	0.892908	-0.000105
1491	1.4825e+02	-19.3599	-56.540086	0.000304	3.040882	1.030279	-0.000122
1492	1.4835e+02	-19.3968	-56.624866	0.000213	2.128618	0.721195	-0.000085
1493	1.4845e+02	-19.4321	-56.774240	0.000375	3.750422	1.270677	-0.000150
1494	1.4855e+02	-19.4690	-56.883243	0.000274	2.736794	0.927251	-0.000110
1495	1.4865e+02	-19.5187	-56.976097	0.000233	2.331343	0.789880	-0.000093
1496	1.4875e+02	-19.5428	-57.093174	0.000294	2.939520	0.995936	-0.000118
1497	1.4885e+02	-19.5973	-57.238510	0.000365	3.649059	1.236335	-0.000146
1498	1.4895e+02	-19.6406	-57.379810	0.000355	3.547696	1.201992	-0.000142
1499	1.4905e+02	-19.6823	-57.452479	0.000182	1.824529	0.618167	-0.000073
1500	1.4915e+02	-19.7144	-57.585704	0.000334	3.344971	1.133307	-0.000134
1501	1.4925e+02	-19.7529	-57.735078	0.000375	3.750422	1.270677	-0.000150
1502	1.4935e+02	-19.8010	-57.860229	0.000314	3.142245	1.064621	-0.000126
1503	1.4945e+02	-19.8363	-57.957121	0.000243	2.432706	0.824223	-0.000097
1504	1.4955e+02	-19.8700	-58.114569	0.000395	3.953147	1.339363	-0.000158
1505	1.4965e+02	-19.9069	-58.183200	0.000172	1.723167	0.583825	-0.000069
1506	1.4975e+02	-19.9534	-58.304314	0.000304	3.040882	1.030279	-0.000122
1507	1.4985e+02	-19.9968	-58.453688	0.000375	3.750422	1.270677	-0.000150
1508	1.4995e+02	-19.9583	-58.409280	0.000111	1.114990	0.377769	0.000045
1509	1.5005e+02	-19.9005	-58.368909	0.000101	1.013627	0.343426	0.000041
1510	1.5015e+02	-19.8652	-58.320463	0.000122	1.216353	0.412112	0.000049
1511	1.5025e+02	-19.8235	-58.259906	0.000152	1.520441	0.515139	0.000061
1512	1.5034e+02	-19.7946	-58.199349	0.000152	1.520441	0.515139	0.000061
1513	1.5044e+02	-19.7545	-58.134755	0.000162	1.621804	0.549482	0.000065
1514	1.5054e+02	-19.7208	-58.037863	0.000243	2.432706	0.824223	0.000097
1515	1.5064e+02	-19.6663	-57.981343	0.000142	1.419078	0.480797	0.000057
1516	1.5074e+02	-19.6278	-57.908675	0.000182	1.824529	0.618167	0.000073
1517	1.5084e+02	-19.5861	-57.884452	0.000061	0.608176	0.206056	0.000024
1518	1.5094e+02	-19.5572	-57.799672	0.000213	2.128618	0.721195	0.000085
1519	1.5104e+02	-19.5091	-57.727004	0.000182	1.824529	0.618167	0.000073
1520	1.5114e+02	-19.4706	-57.650298	0.000193	1.925892	0.652510	0.000077
1521	1.5124e+02	-19.4321	-57.577630	0.000182	1.824529	0.618167	0.000073
1522	1.5134e+02	-19.3872	-57.504961	0.000182	1.824529	0.618167	0.000073
1523	1.5144e+02	-19.3519	-57.416144	0.000223	2.229980	0.755538	0.000089
1524	1.5154e+02	-19.3150	-57.383847	0.000081	0.810902	0.274741	0.000032
1525	1.5164e+02	-19.2733	-57.254659	0.000324	3.243608	1.098964	0.000130
1526	1.5174e+02	-19.2380	-57.242548	0.000030	0.304088	0.103028	0.000012
1527	1.5184e+02	-19.2011	-57.137582	0.000264	2.635431	0.892908	0.000105
1528	1.5194e+02	-19.1545	-57.012431	0.000314	3.142245	1.064621	0.000126
1529	1.5204e+02	-19.1160	-56.939762	0.000182	1.824529	0.618167	0.000073
1530	1.5214e+02	-19.0759	-56.883243	0.000142	1.419078	0.480797	0.000057
1531	1.5224e+02	-19.0390	-56.794426	0.000223	2.229980	0.755538	0.000089
1532	1.5233e+02	-19.0070	-56.758091	0.000091	0.912265	0.309084	0.000037
1533	1.5243e+02	-18.9556	-56.693497	0.000162	1.621804	0.549482	0.000065
1534	1.5253e+02	-18.9123	-56.576420	0.000294	2.939520	0.995936	0.000118
1535	1.5263e+02	-18.8770	-56.479529	0.000243	2.432706	0.824223	0.000097
1536	1.5273e+02	-18.8289	-56.402823	0.000193	1.925892	0.652510	0.000077
1537	1.5283e+02	-18.8000	-56.330155	0.000182	1.824529	0.618167	0.000073
1538	1.5293e+02	-18.7583	-56.257487	0.000182	1.824529	0.618167	0.000073
1539	1.5303e+02	-18.7166	-56.172707	0.000213	2.128618	0.721195	0.000085
1540	1.5313e+02	-18.6829	-56.083890	0.000223	2.229980	0.755538	0.000089
1541	1.5323e+02	-18.6332	-55.999110	0.000213	2.128618	0.721195	0.000085
1542	1.5333e+02	-18.5979	-55.906256	0.000233	2.331343	0.789880	0.000093
1543	1.5343e+02	-18.5497	-55.841662	0.000162	1.621804	0.549482	0.000065
1544	1.5353e+02	-18.5241	-55.752845	0.000223	2.229980	0.755538	0.000089
1545	1.5363e+02	-18.4904	-55.643842	0.000274	2.736794	0.927251	0.000110
1546	1.5373e+02	-18.4423	-55.587322	0.000142	1.419078	0.480797	0.000057
1547	1.5383e+02	-18.3941	-55.482356	0.000264	2.635431	0.892908	0.000105
1548	1.5393e+02	-18.3604	-55.421799	0.000152	1.520441	0.515139	0.000061
1549	1.5403e+02	-18.3155	-55.312797	0.000274	2.736794	0.927251	0.000110
1550	1.5413e+02	-18.2770	-55.240128	0.000182	1.824529	0.618167	0.000073
1551	1.5422e+02	-18.2449	-55.151311	0.000223	2.229980	0.755538	0.000089
1552	1.5432e+02	-18.2000	-55.042309	0.000274	2.736794	0.927251	0.000110
1553	1.5442e+02	-18.1679	-54.977714	0.000162	1.621804	0.549482	0.000065
1554	1.5452e+02	-18.1278	-54.896972	0.000203	2.027255	0.686853	0.000081
1555	1.5462e+02	-18.0749	-54.796043	0.000253	2.534069	0.858566	0.000101
1556	1.5472e+02	-18.0476	-54.678966	0.000294	2.939520	0.995936	0.000118
1557	1.5482e+02	-18.0043	-54.634558	0.000111	1.114990	0.377769	0.000045
1558	1.5492e+02	-17.9626	-54.517481	0.000294	2.939520	0.995936	0.000118
1559	1.5502e+02	-17.9177	-54.432701	0.000213	2.128618	0.721195	0.000085
1560	1.5512e+02	-17.8808	-54.351958	0.000203	2.027255	0.686853	0.000081
1561	1.5522e+02	-17.8375	-54.263141	0.000223	2.229980	0.755538	0.000089
1562	1.5532e+02	-17.7942	-54.182399	0.000203	2.027255	0.686853	0.000081
1563	1.5542e+02	-17.7556	-54.105693	0.000193	1.925892	0.652510	0.000077
1564	1.5552e+02	-17.7188	-54.024950	0.000203	2.027255	0.686853	0.000081
1565	1.5562e+02	-17.6835	-53.883651	0.000355	3.547696	1.201992	0.000142
1566	1.5572e+02	-17.6385	-53.810982	0.000182	1.824529	0.618167	0.000073
1567	1.5582e+02	-17.6016	-53.730240	0.000203	2.027255	0.686853	0.000081
1568	1.5592e+02	-17.5583	-53.653534	0.000193	1.925892	0.652510	0.000077
1569	1.5602e+02	-17.5246	-53.572791	0.000203	2.027255	0.686853	0.000081
1570	1.5612e+02	-17.4813	-53.467826	0.000264	2.635431	0.892908	0.000105
1571	1.5622e+02	-17.4428	-53.379009	0.000223	2.229980	0.755538	0.000089
1572	1.5631e+02	-17.4059	-53.310377	0.000172	1.723167	0.583825	0.000069
1573	1.5641e+02	-17.3578	-53.229635	0.000203	2.027255	0.686853	0.000081
1574	1.5651e+02	-17.3177	-53.100446	0.000324	3.243608	1.098964	0.000130
1575	1.5661e+02	-17.2904	-53.015667	0.000213	2.128618	0.721195	0.000085
1576	1.5671e+02	-17.2487	-52.922812	0.000233	2.331343	0.789880	0.000093
1577	1.5681e+02	-17.2070	-52.870330	0.000132	1.317716	0.446454	0.000053
1578	1.5691e+02	-17.1637	-52.797661	0.000182	1.824529	0.618167	0.000073
1579	1.5701e+02	-17.1220	-52.648287	0.000375	3.750422	1.270677	0.000150
1580	1.5711e+02	-17.0851	-52.603879	0.000111	1.114990	0.377769	0.000045
1581	1.5721e+02	-17.0498	-52.515062	0.000223	2.229980	0.755538	0.000089
1582	1.5731e+02	-16.9952	-52.389910	0.000314	3.142245	1.064621	0.000126
1583	1.5741e+02	-16.9632	-52.297056	0.000233	2.331343	0.789880	0.000093
1584	1.5751e+02	-16.9279	-52.216314	0.000203	2.027255	0.686853	0.000081
1585	1.5761e+02	-16.8813	-52.159794	0.000142	1.419078	0.480797	0.000057
1586	1.5771e+02	-16.8493	-52.030605	0.000324	3.243608	1.098964	0.000130
1587	1.5781e+02	-16.8011	-51.933714	0.000243	2.432706	0.824223	0.000097
1588	1.5791e+02	-16.7658	-51.873157	0.000152	1.520441	0.515139	0.000061
1589	1.5801e+02	-16.7273	-51.804526	0.000172	1.723167	0.583825	0.000069
1590	1.5811e+02	-16.6760	-51.647077	0.000395	3.953147	1.339363	0.000158
1591	1.5821e+02	-16.6487	-51.586520	0.000152	1.520441	0.515139	0.000061
1592	1.5830e+02	-16.6006	-51.473481	0.000284	2.838157	0.961594	0.000114
1593	1.5840e+02	-16.5669	-51.376589	0.000243	2.432706	0.824223	0.000097
1594	1.5850e+02	-16.5300	-51.307958	0.000172	1.723167	0.583825	0.000069
1595	1.5860e+02	-16.4851	-51.198955	0.000274	2.736794	0.927251	0.000110
1596	1.5870e+02	-16.4514	-51.085916	0.000284	2.838157	0.961594	0.000114
1597	1.5880e+02	-16.4081	-51.017284	0.000172	1.723167	0.583825	0.000069
1598	1.5890e+02	-16.3744	-50.920393	0.000243	2.432706	0.824223	0.000097
1599	1.5900e+02	-16.3247	-50.831576	0.000223	2.229980	0.755538	0.000089
1600	1.5910e+02	-16.2798	-50.710462	0.000304	3.040882	1.030279	0.000122
1601	1.5920e+02	-16.2461	-50.613571	0.000243	2.432706	0.824223	0.000097
1602	1.5930e+02	-16.2188	-50.577237	0.000091	0.912265	0.309084	0.000037
1603	1.5940e+02	-16.1675	-50.468234	0.000274	2.736794	0.927251	0.000110
1604	1.5950e+02	-16.1290	-50.363268	0.000264	2.635431	0.892908	0.000105
1605	1.5960e+02	-16.0937	-50.254266	0.000274	2.736794	0.927251	0.000110
1606	1.5970e+02	-16.0503	-50.145263	0.000274	2.736794	0.927251	0.000110
1607	1.5980e+02	-16.0070	-50.117003	0.000071	0.709539	0.240398	0.000028
1608	1.5990e+02	-15.9669	-50.008000	0.000274	2.736794	0.927251	0.000110
1609	1.6000e+02	-15.9348	-49.915146	0.000233	2.331343	0.789880	0.000093
1610	1.6010e+02	-15.8883	-49.822292	0.000233	2.331343	0.789880	0.000093
1611	1.6019e+02	-15.8514	-49.697141	0.000314	3.142245	1.064621	0.000126
1612	1.6029e+02	-15.8081	-49.580064	0.000294	2.939520	0.995936	0.000118
1613	1.6039e+02	-15.7648	-49.499321	0.000203	2.027255	0.686853	0.000081
1614	1.6049e+02	-15.7247	-49.446839	0.000132	1.317716	0.446454	0.000053
1615	1.6059e+02	-15.6974	-49.329762	0.000294	2.939520	0.995936	0.000118
1616	1.6069e+02	-15.6541	-49.216722	0.000284	2.838157	0.961594	0.000114
1617	1.6079e+02	-15.6140	-49.119831	0.000243	2.432706	0.824223	0.000097
1618	1.6089e+02	-15.5707	-49.018902	0.000253	2.534069	0.858566	0.000101
1619	1.6099e+02	-15.5370	-48.938159	0.000203	2.027255	0.686853	0.000081
1620	1.6109e+02	-15.4905	-48.804934	0.000334	3.344971	1.133307	0.000134
1621	1.6119e+02	-15.4439	-48.716117	0.000223	2.229980	0.755538	0.000089
1622	1.6129e+02	-15.4103	-48.643449	0.000182	1.824529	0.618167	0.000073
1623	1.6139e+02	-15.3734	-48.522334	0.000304	3.040882	1.030279	0.000122
1624	1.6149e+02	-15.3365	-48.477926	0.000111	1.114990	0.377769	0.000045
1625	1.6159e+02	-15.2980	-48.360849	0.000294	2.939520	0.995936	0.000118
1626	1.6169e+02	-15.2450	-48.263958	0.000243	2.432706	0.824223	0.000097
1627	1.6179e+02	-15.2161	-48.195326	0.000172	1.723167	0.583825	0.000069
1628	1.6189e+02	-15.1728	-48.033841	0.000405	4.054510	1.373705	0.000162
1629	1.6199e+02	-15.1311	-47.973284	0.000152	1.520441	0.515139	0.000061
1630	1.6209e+02	-15.1006	-47.860244	0.000284	2.838157	0.961594	0.000114
1631	1.6219e+02	-15.0461	-47.795650	0.000162	1.621804	0.549482	0.000065
1632	1.6228e+02	-15.0092	-47.706833	0.000223	2.229980	0.755538	0.000089
1633	1.6238e+02	-14.9707	-47.561496	0.000365	3.649059	1.236335	0.000146
1634	1.6248e+02	-14.9290	-47.480753	0.000203	2.027255	0.686853	0.000081
1635	1.6258e+02	-14.8985	-47.375788	0.000264	2.635431	0.892908	0.000105
1636	1.6268e+02	-14.8536	-47.327342	0.000122	1.216353	0.412112	0.000049
1637	1.6278e+02	-14.8071	-47.169894	0.000395	3.953147	1.339363	0.000158
1638	1.6288e+02	-14.7750	-47.097226	0.000182	1.824529	0.618167	0.000073
1639	1.6298e+02	-14.7285	-46.992260	0.000264	2.635431	0.892908	0.000105
1640	1.6308e+02	-14.6916	-46.935740	0.000142	1.419078	0.480797	0.000057
1641	1.6318e+02	-14.6482	-46.794440	0.000355	3.547696	1.201992	0.000142
1642	1.6328e+02	-14.6081	-46.713698	0.000203	2.027255	0.686853	0.000081
1643	1.6338e+02	-14.5729	-46.588546	0.000314	3.142245	1.064621	0.000126
1644	1.6348e+02	-14.5279	-46.507804	0.000203	2.027255	0.686853	0.000081
1645	1.6358e+02	-14.4910	-46.414950	0.000233	2.331343	0.789880	0.000093
1646	1.6368e+02	-14.4541	-46.305947	0.000274	2.736794	0.927251	0.000110
1647	1.6378e+02	-14.4253	-46.233278	0.000182	1.824529	0.618167	0.000073
1648	1.6388e+02	-14.3659	-46.096016	0.000345	3.446333	1.167649	0.000138
1649	1.6398e+02	-14.3418	-46.019310	0.000193	1.925892	0.652510	0.000077
1650	1.6408e+02	-14.2985	-45.930493	0.000223	2.229980	0.755538	0.000089
1651	1.6418e+02	-14.2504	-45.817453	0.000284	2.838157	0.961594	0.000114
1652	1.6427e+02	-14.2167	-45.740748	0.000193	1.925892	0.652510	0.000077
1653	1.6437e+02	-14.1718	-45.607522	0.000334	3.344971	1.133307	0.000134
1654	1.6447e+02	-14.1413	-45.510631	0.000243	2.432706	0.824223	0.000097
1655	1.6457e+02	-14.0964	-45.446037	0.000162	1.621804	0.549482	0.000065
1656	1.6467e+02	-14.0547	-45.312812	0.000334	3.344971	1.133307	0.000134
1657	1.6477e+02	-14.0226	-45.228032	0.000213	2.128618	0.721195	0.000085
1658	1.6487e+02	-13.9713	-45.123066	0.000264	2.635431	0.892908	0.000105
1659	1.6497e+02	-13.9376	-45.038286	0.000213	2.128618	0.721195	0.000085
1660	1.6507e+02	-13.8878	-44.905061	0.000334	3.344971	1.133307	0.000134
1661	1.6517e+02	-13.8509	-44.800095	0.000264	2.635431	0.892908	0.000105
1662	1.6527e+02	-13.8140	-44.674944	0.000314	3.142245	1.064621	0.000126
1663	1.6537e+02	-13.7788	-44.630536	0.000111	1.114990	0.377769	0.000045
1664	1.6547e+02	-13.7370	-44.517496	0.000284	2.838157	0.961594	0.000114
1665	1.6557e+02	-13.6953	-44.388307	0.000324	3.243608	1.098964	0.000130
1666	1.6567e+02	-13.6552	-44.307565	0.000203	2.027255	0.686853	0.000081
1667	1.6577e+02	-13.6247	-44.222785	0.000213	2.128618	0.721195	0.000085
1668	1.6587e+02	-13.5798	-44.101671	0.000304	3.040882	1.030279	0.000122
1669	1.6597e+02	-13.5413	-43.992668	0.000274	2.736794	0.927251	0.000110
1670	1.6607e+02	-13.4964	-43.879628	0.000284	2.838157	0.961594	0.000114
1671	1.6616e+02	-13.4627	-43.794848	0.000213	2.128618	0.721195	0.000085
1672	1.6626e+02	-13.4114	-43.710069	0.000213	2.128618	0.721195	0.000085
1673	1.6636e+02	-13.3713	-43.584917	0.000314	3.142245	1.064621	0.000126
1674	1.6646e+02	-13.3312	-43.496100	0.000223	2.229980	0.755538	0.000089
1675	1.6656e+02	-13.3007	-43.383061	0.000284	2.838157	0.961594	0.000114
1676	1.6666e+02	-13.2638	-43.282132	0.000253	2.534069	0.858566	0.000101
1677	1.6676e+02	-13.2285	-43.181204	0.000253	2.534069	0.858566	0.000101
1678	1.6686e+02	-13.1868	-43.084313	0.000243	2.432706	0.824223	0.000097
1679	1.6696e+02	-13.1371	-42.967236	0.000294	2.939520	0.995936	0.000118
1680	1.6706e+02	-13.1050	-42.951087	0.000041	0.405451	0.137371	0.000016
1681	1.6716e+02	-13.0552	-42.720970	0.000578	5.777677	1.957530	0.000231
1682	1.6726e+02	-13.0264	-42.712896	0.000020	0.202725	0.068685	0.000008
1683	1.6736e+02	-12.9750	-42.579671	0.000334	3.344971	1.133307	0.000134
1684	1.6746e+02	-12.9317	-42.462594	0.000294	2.939520	0.995936	0.000118
1685	1.6756e+02	-12.8900	-42.337442	0.000314	3.142245	1.064621	0.000126
1686	1.6766e+02	-12.8579	-42.276885	0.000152	1.520441	0.515139	0.000061
1687	1.6776e+02	-12.8226	-42.171920	0.000264	2.635431	0.892908	0.000105
1688	1.6786e+02	-12.7857	-42.058880	0.000284	2.838157	0.961594	0.000114
1689	1.6796e+02	-12.7424	-41.966026	0.000233	2.331343	0.789880	0.000093
1690	1.6806e+02	-12.6991	-41.873172	0.000233	2.331343	0.789880	0.000093
1691	1.6816e+02	-12.6654	-41.776281	0.000243	2.432706	0.824223	0.000097
1692	1.6825e+02	-12.6221	-41.667278	0.000274	2.736794	0.927251	0.000110
1693	1.6835e+02	-12.5916	-41.546164	0.000304	3.040882	1.030279	0.000122
1694	1.6845e+02	-12.5419	-41.469458	0.000193	1.925892	0.652510	0.000077
1695	1.6855e+02	-12.4970	-41.283750	0.000466	4.662686	1.579761	0.000187
1696	1.6865e+02	-12.4617	-41.255490	0.000071	0.709539	0.240398	0.000028
1697	1.6875e+02	-12.4168	-41.146487	0.000274	2.736794	0.927251	0.000110
1698	1.6885e+02	-12.3847	-41.057670	0.000223	2.229980	0.755538	0.000089
1699	1.6895e+02	-12.3414	-40.928482	0.000324	3.243608	1.098964	0.000130
1700	1.6905e+02	-12.3125	-40.827554	0.000253	2.534069	0.858566	0.000101
1701	1.6915e+02	-12.2644	-40.742774	0.000213	2.128618	0.721195	0.000085
1702	1.6925e+02	-12.2339	-40.605511	0.000345	3.446333	1.167649	0.000138
1703	1.6935e+02	-12.1906	-40.512657	0.000233	2.331343	0.789880	0.000093
1704	1.6945e+02	-12.1424	-40.423840	0.000223	2.229980	0.755538	0.000089
1705	1.6955e+02	-12.0991	-40.306763	0.000294	2.939520	0.995936	0.000118
1706	1.6965e+02	-12.0606	-40.234095	0.000182	1.824529	0.618167	0.000073
1707	1.6975e+02	-12.0253	-40.133166	0.000253	2.534069	0.858566	0.000101
1708	1.6985e+02	-11.9916	-40.020127	0.000284	2.838157	0.961594	0.000114
1709	1.6995e+02	-11.9483	-39.927272	0.000233	2.331343	0.789880	0.000093
1710	1.7005e+02	-11.8986	-39.781936	0.000365	3.649059	1.236335	0.000146
1711	1.7015e+02	-11.8633	-39.693119	0.000223	2.229980	0.755538	0.000089
1712	1.7024e+02	-11.8216	-39.608339	0.000213	2.128618	0.721195	0.000085
1713	1.7034e+02	-11.7895	-39.479150	0.000324	3.243608	1.098964	0.000130
1714	1.7044e+02	-11.7430	-39.370148	0.000274	2.736794	0.927251	0.000110
1715	1.7054e+02	-11.7141	-39.265182	0.000264	2.635431	0.892908	0.000105
1716	1.7064e+02	-11.6660	-39.148105	0.000294	2.939520	0.995936	0.000118
1717	1.7074e+02	-11.6211	-39.075437	0.000182	1.824529	0.618167	0.000073
1718	1.7084e+02	-11.5890	-38.942211	0.000334	3.344971	1.133307	0.000134
1719	1.7094e+02	-11.5553	-38.849357	0.000233	2.331343	0.789880	0.000093
1720	1.7104e+02	-11.5007	-38.708057	0.000355	3.547696	1.201992	0.000142
1721	1.7114e+02	-11.4638	-38.635389	0.000182	1.824529	0.618167	0.000073
1722	1.7124e+02	-11.4286	-38.514275	0.000304	3.040882	1.030279	0.000122
1723	1.7134e+02	-11.3965	-38.405272	0.000274	2.736794	0.927251	0.000110
1724	1.7144e+02	-11.3403	-38.280121	0.000314	3.142245	1.064621	0.000126
1725	1.7154e+02	-11.3082	-38.219564	0.000152	1.520441	0.515139	0.000061
1726	1.7164e+02	-11.2729	-38.090376	0.000324	3.243608	1.098964	0.000130
1727	1.7174e+02	-11.2264	-37.989447	0.000253	2.534069	0.858566	0.000101
1728	1.7184e+02	-11.1895	-37.916779	0.000182	1.824529	0.618167	0.000073
1729	1.7194e+02	-11.1510	-37.751256	0.000416	4.155873	1.408048	0.000166
1730	1.7204e+02	-11.1013	-37.674551	0.000193	1.925892	0.652510	0.000077
1731	1.7213e+02	-11.0708	-37.557474	0.000294	2.939520	0.995936	0.000118
1732	1.7223e+02	-11.0339	-37.488842	0.000172	1.723167	0.583825	0.000069
1733	1.7233e+02	-10.9906	-37.359654	0.000324	3.243608	1.098964	0.000130
1734	1.7243e+02	-10.9473	-37.270837	0.000223	2.229980	0.755538	0.000089
1735	1.7253e+02	-10.9184	-37.113389	0.000395	3.953147	1.339363	0.000158
1736	1.7263e+02	-10.8687	-37.036683	0.000193	1.925892	0.652510	0.000077
1737	1.7273e+02	-10.8302	-36.947866	0.000223	2.229980	0.755538	0.000089
1738	1.7283e+02	-10.7804	-36.806567	0.000355	3.547696	1.201992	0.000142
1739	1.7293e+02	-10.7516	-36.786381	0.000051	0.506814	0.171713	0.000020
1740	1.7303e+02	-10.7083	-36.608747	0.000446	4.459961	1.511076	0.000179
1741	1.7313e+02	-10.6698	-36.495707	0.000284	2.838157	0.961594	0.000114
1742	1.7323e+02	-10.6264	-36.423039	0.000182	1.824529	0.618167	0.000073
1743	1.7333e+02	-10.5944	-36.354407	0.000172	1.723167	0.583825	0.000069
1744	1.7343e+02	-10.5542	-36.217145	0.000345	3.446333	1.167649	0.000138
1745	1.7353e+02	-10.5093	-36.100068	0.000294	2.939520	0.995936	0.000118
1746	1.7363e+02	-10.4676	-36.027399	0.000182	1.824529	0.618167	0.000073
1747	1.7373e+02	-10.4339	-35.926471	0.000253	2.534069	0.858566	0.000101
1748	1.7383e+02	-10.3938	-35.777097	0.000375	3.750422	1.270677	0.000150
1749	1.7393e+02	-10.3473	-35.696354	0.000203	2.027255	0.686853	0.000081
1750	1.7403e+02	-10.3088	-35.555054	0.000355	3.547696	1.201992	0.000142
1751	1.7413e+02	-10.2687	-35.462200	0.000233	2.331343	0.789880	0.000093
1752	1.7422e+02	-10.2350	-35.365309	0.000243	2.432706	0.824223	0.000097
1753	1.7432e+02	-10.1933	-35.276492	0.000223	2.229980	0.755538	0.000089
1754	1.7442e+02	-10.1548	-35.167489	0.000274	2.736794	0.927251	0.000110
1755	1.7452e+02	-10.1163	-35.050412	0.000294	2.939520	0.995936	0.000118
1756	1.7462e+02	-10.0714	-34.941410	0.000274	2.736794	0.927251	0.000110
1757	1.7472e+02	-10.0345	-34.816259	0.000314	3.142245	1.064621	0.000126
1758	1.7482e+02	-9.9912	-34.727442	0.000223	2.229980	0.755538	0.000089
1759	1.7492e+02	-9.9543	-34.578068	0.000375	3.750422	1.270677	0.000150
1760	1.7502e+02	-9.9222	-34.489251	0.000223	2.229980	0.755538	0.000089
1761	1.7512e+02	-9.8612	-34.424656	0.000162	1.621804	0.549482	0.000065
1762	1.7522e+02	-9.8388	-34.275282	0.000375	3.750422	1.270677	0.000150
1763	1.7532e+02	-9.7922	-34.166280	0.000274	2.736794	0.927251	0.000110
1764	1.7542e+02	-9.7553	-34.037091	0.000324	3.243608	1.098964	0.000130
1765	1.7552e+02	-9.7200	-33.984609	0.000132	1.317716	0.446454	0.000053
1766	1.7562e+02	-9.6751	-33.863495	0.000304	3.040882	1.030279	0.000122
1767	1.7572e+02	-9.6318	-33.746418	0.000294	2.939520	0.995936	0.000118
1768	1.7582e+02	-9.6045	-33.637415	0.000274	2.736794	0.927251	0.000110
1769	1.7592e+02	-9.5532	-33.516301	0.000304	3.040882	1.030279	0.000122
1770	1.7602e+02	-9.5179	-33.415373	0.000253	2.534069	0.858566	0.000101
1771	1.7612e+02	-9.4794	-33.338667	0.000193	1.925892	0.652510	0.000077
1772	1.7621e+02	-9.4409	-33.197367	0.000355	3.547696	1.201992	0.000142
1773	1.7631e+02	-9.3976	-33.144884	0.000132	1.317716	0.446454	0.000053
1774	1.7641e+02	-9.3543	-32.991473	0.000385	3.851784	1.305020	0.000154
1775	1.7651e+02	-9.3158	-32.874396	0.000294	2.939520	0.995936	0.000118
1776	1.7661e+02	-9.2789	-32.785579	0.000223	2.229980	0.755538	0.000089
1777	1.7671e+02	-9.2452	-32.656391	0.000324	3.243608	1.098964	0.000130
1778	1.7681e+02	-9.1906	-32.551425	0.000264	2.635431	0.892908	0.000105
1779	1.7691e+02	-9.1538	-32.482794	0.000172	1.723167	0.583825	0.000069
1780	1.7701e+02	-9.1169	-32.329383	0.000385	3.851784	1.305020	0.000154
1781	1.7711e+02	-9.0880	-32.228455	0.000253	2.534069	0.858566	0.000101
1782	1.7721e+02	-9.0318	-32.115415	0.000284	2.838157	0.961594	0.000114
1783	1.7731e+02	-8.9917	-32.010449	0.000264	2.635431	0.892908	0.000105
1784	1.7741e+02	-8.9596	-31.889335	0.000304	3.040882	1.030279	0.000122
1785	1.7751e+02	-8.9131	-31.735924	0.000385	3.851784	1.305020	0.000154
1786	1.7761e+02	-8.8714	-31.707664	0.000071	0.709539	0.240398	0.000028
1787	1.7771e+02	-8.8281	-31.590587	0.000294	2.939520	0.995936	0.000118
1788	1.7781e+02	-8.7912	-31.473510	0.000294	2.939520	0.995936	0.000118
1789	1.7791e+02	-8.7607	-31.332210	0.000355	3.547696	1.201992	0.000142
1790	1.7801e+02	-8.7142	-31.303951	0.000071	0.709539	0.240398	0.000028
1791	1.7810e+02	-8.6853	-31.154576	0.000375	3.750422	1.270677	0.000150
1792	1.7820e+02	-8.6356	-31.013277	0.000355	3.547696	1.201992	0.000142
1793	1.7830e+02	-8.5971	-30.912348	0.000253	2.534069	0.858566	0.000101
1794	1.7840e+02	-8.5522	-30.811420	0.000253	2.534069	0.858566	0.000101
1795	1.7850e+02	-8.5153	-30.710492	0.000253	2.534069	0.858566	0.000101
1796	1.7860e+02	-8.4848	-30.573229	0.000345	3.446333	1.167649	0.000138
1797	1.7870e+02	-8.4415	-30.452115	0.000304	3.040882	1.030279	0.000122
1798	1.7880e+02	-8.3998	-30.371372	0.000203	2.027255	0.686853	0.000081
1799	1.7890e+02	-8.3693	-30.221998	0.000375	3.750422	1.270677	0.000150
1800	1.7900e+02	-8.3083	-30.108958	0.000284	2.838157	0.961594	0.000114
1801	1.7910e+02	-8.2794	-30.060513	0.000122	1.216353	0.412112	0.000049
1802	1.7920e+02	-8.2393	-29.911139	0.000375	3.750422	1.270677	0.000150
1803	1.7930e+02	-8.2024	-29.814247	0.000243	2.432706	0.824223	0.000097
1804	1.7940e+02	-8.1511	-29.709282	0.000264	2.635431	0.892908	0.000105
1805	1.7950e+02	-8.1222	-29.596242	0.000284	2.838157	0.961594	0.000114
1806	1.7960e+02	-8.0805	-29.483202	0.000284	2.838157	0.961594	0.000114
1807	1.7970e+02	-8.0420	-29.354014	0.000324	3.243608	1.098964	0.000130
1808	1.7980e+02	-7.9987	-29.273271	0.000203	2.027255	0.686853	0.000081
1809	1.7990e+02	-7.9650	-29.148120	0.000314	3.142245	1.064621	0.000126
1810	1.8000e+02	-7.9153	-29.035080	0.000284	2.838157	0.961594	0.000114
1811	1.8009e+02	-7.8720	-28.918003	0.000294	2.939520	0.995936	0.000118
1812	1.8019e+02	-7.8351	-28.800926	0.000294	2.939520	0.995936	0.000118
1813	1.8029e+02	-7.8014	-28.691924	0.000274	2.736794	0.927251	0.000110
1814	1.8039e+02	-7.7565	-28.578884	0.000284	2.838157	0.961594	0.000114
1815	1.8049e+02	-7.7099	-28.494104	0.000213	2.128618	0.721195	0.000085
1816	1.8059e+02	-7.6698	-28.397213	0.000243	2.432706	0.824223	0.000097
1817	1.8069e+02	-7.6474	-28.272062	0.000314	3.142245	1.064621	0.000126
1818	1.8079e+02	-7.6089	-28.191319	0.000203	2.027255	0.686853	0.000081
1819	1.8089e+02	-7.5704	-28.041945	0.000375	3.750422	1.270677	0.000150
1820	1.8099e+02	-7.5158	-27.904682	0.000345	3.446333	1.167649	0.000138
1821	1.8109e+02	-7.4854	-27.795680	0.000274	2.736794	0.927251	0.000110
1822	1.8119e+02	-7.4436	-27.666491	0.000324	3.243608	1.098964	0.000130
1823	1.8129e+02	-7.4051	-27.605934	0.000152	1.520441	0.515139	0.000061
1824	1.8139e+02	-7.3634	-27.420226	0.000466	4.662686	1.579761	0.000187
1825	1.8149e+02	-7.3297	-27.335446	0.000213	2.128618	0.721195	0.000085
1826	1.8159e+02	-7.2848	-27.218369	0.000294	2.939520	0.995936	0.000118
1827	1.8169e+02	-7.2447	-27.129552	0.000223	2.229980	0.755538	0.000089
1828	1.8179e+02	-7.2062	-27.016512	0.000284	2.838157	0.961594	0.000114
1829	1.8189e+02	-7.1693	-26.899435	0.000294	2.939520	0.995936	0.000118
1830	1.8199e+02	-7.1244	-26.778321	0.000304	3.040882	1.030279	0.000122
1831	1.8209e+02	-7.0923	-26.653170	0.000314	3.142245	1.064621	0.000126
1832	1.8218e+02	-7.0410	-26.552242	0.000253	2.534069	0.858566	0.000101
1833	1.8228e+02	-7.0025	-26.439202	0.000284	2.838157	0.961594	0.000114
1834	1.8238e+02	-6.9720	-26.322125	0.000294	2.939520	0.995936	0.000118
1835	1.8248e+02	-6.9271	-26.192937	0.000324	3.243608	1.098964	0.000130
1836	1.8258e+02	-6.8838	-26.116231	0.000193	1.925892	0.652510	0.000077
1837	1.8268e+02	-6.8501	-25.966857	0.000375	3.750422	1.270677	0.000150
1838	1.8278e+02	-6.8084	-25.857854	0.000274	2.736794	0.927251	0.000110
1839	1.8288e+02	-6.7715	-25.777112	0.000203	2.027255	0.686853	0.000081
1840	1.8298e+02	-6.7249	-25.643886	0.000334	3.344971	1.133307	0.000134
1841	1.8308e+02	-6.6880	-25.555069	0.000223	2.229980	0.755538	0.000089
1842	1.8318e+02	-6.6560	-25.397621	0.000395	3.953147	1.339363	0.000158
1843	1.8328e+02	-6.6110	-25.288618	0.000274	2.736794	0.927251	0.000110
1844	1.8338e+02	-6.5597	-25.191727	0.000243	2.432706	0.824223	0.000097
1845	1.8348e+02	-6.5212	-25.066576	0.000314	3.142245	1.064621	0.000126
1846	1.8358e+02	-6.4859	-24.953536	0.000284	2.838157	0.961594	0.000114
1847	1.8368e+02	-6.4458	-24.844533	0.000274	2.736794	0.927251	0.000110
1848	1.8378e+02	-6.4041	-24.743605	0.000253	2.534069	0.858566	0.000101
1849	1.8388e+02	-6.3768	-24.614417	0.000324	3.243608	1.098964	0.000130
1850	1.8398e+02	-6.3319	-24.465043	0.000375	3.750422	1.270677	0.000150
1851	1.8407e+02	-6.2870	-24.380263	0.000213	2.128618	0.721195	0.000085
1852	1.8417e+02	-6.2501	-24.259149	0.000304	3.040882	1.030279	0.000122
1853	1.8427e+02	-6.2116	-24.178406	0.000203	2.027255	0.686853	0.000081
1854	1.8437e+02	-6.1747	-24.033069	0.000365	3.649059	1.236335	0.000146
1855	1.8447e+02	-6.1346	-23.960401	0.000182	1.824529	0.618167	0.000073
1856	1.8457e+02	-6.0897	-23.827175	0.000334	3.344971	1.133307	0.000134
1857	1.8467e+02	-6.0544	-23.697987	0.000324	3.243608	1.098964	0.000130
1858	1.8477e+02	-6.0095	-23.601096	0.000243	2.432706	0.824223	0.000097
1859	1.8487e+02	-5.9677	-23.492093	0.000274	2.736794	0.927251	0.000110
1860	1.8497e+02	-5.9308	-23.318496	0.000436	4.358598	1.476733	0.000174
1861	1.8507e+02	-5.8956	-23.282162	0.000091	0.912265	0.309084	0.000037
1862	1.8517e+02	-5.8538	-23.096454	0.000466	4.662686	1.579761	0.000187
1863	1.8527e+02	-5.8186	-22.983414	0.000284	2.838157	0.961594	0.000114
1864	1.8537e+02	-5.7752	-22.882485	0.000253	2.534069	0.858566	0.000101
1865	1.8547e+02	-5.7303	-22.757334	0.000314	3.142245	1.064621	0.000126
1866	1.8557e+02	-5.6934	-22.611997	0.000365	3.649059	1.236335	0.000146
1867	1.8567e+02	-5.6533	-22.535292	0.000193	1.925892	0.652510	0.000077
1868	1.8577e+02	-5.6212	-22.406103	0.000324	3.243608	1.098964	0.000130
1869	1.8587e+02	-5.5667	-22.353621	0.000132	1.317716	0.446454	0.000053
1870	1.8597e+02	-5.5394	-22.180024	0.000436	4.358598	1.476733	0.000174
1871	1.8606e+02	-5.4881	-22.095244	0.000213	2.128618	0.721195	0.000085
1872	1.8616e+02	-5.4464	-21.962018	0.000334	3.344971	1.133307	0.000134
1873	1.8626e+02	-5.4159	-21.857053	0.000264	2.635431	0.892908	0.000105
1874	1.8636e+02	-5.3742	-21.715753	0.000355	3.547696	1.201992	0.000142
1875	1.8646e+02	-5.3341	-21.618862	0.000243	2.432706	0.824223	0.000097
1876	1.8656e+02	-5.2988	-21.465451	0.000385	3.851784	1.305020	0.000154
1877	1.8666e+02	-5.2555	-21.388745	0.000193	1.925892	0.652510	0.000077
1878	1.8676e+02	-5.2154	-21.247445	0.000355	3.547696	1.201992	0.000142
1879	1.8686e+02	-5.1801	-21.150554	0.000243	2.432706	0.824223	0.000097
1880	1.8696e+02	-5.1448	-21.037514	0.000284	2.838157	0.961594	0.000114
1881	1.8706e+02	-5.0983	-20.928512	0.000274	2.736794	0.927251	0.000110
1882	1.8716e+02	-5.0565	-20.807398	0.000304	3.040882	1.030279	0.000122
1883	1.8726e+02	-5.0180	-20.698395	0.000274	2.736794	0.927251	0.000110
1884	1.8736e+02	-4.9747	-20.573244	0.000314	3.142245	1.064621	0.000126
1885	1.8746e+02	-4.9394	-20.427907	0.000365	3.649059	1.236335	0.000146
1886	1.8756e+02	-4.9041	-20.322941	0.000264	2.635431	0.892908	0.000105
1887	1.8766e+02	-4.8560	-20.209902	0.000284	2.838157	0.961594	0.000114
1888	1.8776e+02	-4.8175	-20.088787	0.000304	3.040882	1.030279	0.000122
1889	1.8786e+02	-4.7742	-19.951525	0.000345	3.446333	1.167649	0.000138
1890	1.8796e+02	-4.7421	-19.874819	0.000193	1.925892	0.652510	0.000077
1891	1.8806e+02	-4.7052	-19.757742	0.000294	2.939520	0.995936	0.000118
1892	1.8815e+02	-4.6523	-19.592220	0.000416	4.155873	1.408048	0.000166
1893	1.8825e+02	-4.6170	-19.479180	0.000284	2.838157	0.961594	0.000114
1894	1.8835e+02	-4.5721	-19.366140	0.000284	2.838157	0.961594	0.000114
1895	1.8845e+02	-4.5384	-19.245026	0.000304	3.040882	1.030279	0.000122
1896	1.8855e+02	-4.4999	-19.164283	0.000203	2.027255	0.686853	0.000081
1897	1.8865e+02	-4.4566	-19.027021	0.000345	3.446333	1.167649	0.000138
1898	1.8875e+02	-4.4132	-18.909944	0.000294	2.939520	0.995936	0.000118
1899	1.8885e+02	-4.3780	-18.809015	0.000253	2.534069	0.858566	0.000101
1900	1.8895e+02	-4.3394	-18.671753	0.000345	3.446333	1.167649	0.000138
1901	1.8905e+02	-4.2977	-18.558713	0.000284	2.838157	0.961594	0.000114
1902	1.8915e+02	-4.2721	-18.421450	0.000345	3.446333	1.167649	0.000138
1903	1.8925e+02	-4.2127	-18.300336	0.000304	3.040882	1.030279	0.000122
1904	1.8935e+02	-4.1742	-18.219594	0.000203	2.027255	0.686853	0.000081
1905	1.8945e+02	-4.1421	-18.098480	0.000304	3.040882	1.030279	0.000122
1906	1.8955e+02	-4.1036	-17.961217	0.000345	3.446333	1.167649	0.000138
1907	1.8965e+02	-4.0587	-17.868363	0.000233	2.331343	0.789880	0.000093
1908	1.8975e+02	-4.0202	-17.739174	0.000324	3.243608	1.098964	0.000130
1909	1.8985e+02	-3.9801	-17.609986	0.000324	3.243608	1.098964	0.000130
1910	1.8995e+02	-3.9416	-17.509058	0.000253	2.534069	0.858566	0.000101
1911	1.9004e+02	-3.8999	-17.428315	0.000203	2.027255	0.686853	0.000081
1912	1.9014e+02	-3.8566	-17.214347	0.000537	5.372226	1.820159	0.000215
1913	1.9024e+02	-3.8181	-17.141678	0.000182	1.824529	0.618167	0.000073
1914	1.9034e+02	-3.7860	-17.052861	0.000223	2.229980	0.755538	0.000089
1915	1.9044e+02	-3.7379	-16.899450	0.000385	3.851784	1.305020	0.000154
1916	1.9054e+02	-3.6945	-16.794485	0.000264	2.635431	0.892908	0.000105
1917	1.9064e+02	-3.6593	-16.697593	0.000243	2.432706	0.824223	0.000097
1918	1.9074e+02	-3.6175	-16.576479	0.000304	3.040882	1.030279	0.000122
1919	1.9084e+02	-3.5742	-16.475551	0.000253	2.534069	0.858566	0.000101
1920	1.9094e+02	-3.5341	-16.301954	0.000436	4.358598	1.476733	0.000174
1921	1.9104e+02	-3.4924	-16.184877	0.000294	2.939520	0.995936	0.000118
1922	1.9114e+02	-3.4716	-16.128357	0.000142	1.419078	0.480797	0.000057
1923	1.9124e+02	-3.4186	-15.995132	0.000334	3.344971	1.133307	0.000134
1924	1.9134e+02	-3.3865	-15.886129	0.000274	2.736794	0.927251	0.000110
1925	1.9144e+02	-3.3336	-15.728681	0.000395	3.953147	1.339363	0.000158
1926	1.9154e+02	-3.3047	-15.607567	0.000304	3.040882	1.030279	0.000122
1927	1.9164e+02	-3.2646	-15.526824	0.000203	2.027255	0.686853	0.000081
1928	1.9174e+02	-3.2245	-15.349190	0.000446	4.459961	1.511076	0.000179
1929	1.9184e+02	-3.1812	-15.203853	0.000365	3.649059	1.236335	0.000146
1930	1.9194e+02	-3.1427	-15.159445	0.000111	1.114990	0.377769	0.000045
1931	1.9203e+02	-3.1106	-14.993922	0.000416	4.155873	1.408048	0.000166
1932	1.9213e+02	-3.0641	-14.892994	0.000253	2.534069	0.858566	0.000101
1933	1.9223e+02	-3.0272	-14.767843	0.000314	3.142245	1.064621	0.000126
1934	1.9233e+02	-2.9839	-14.666914	0.000253	2.534069	0.858566	0.000101
1935	1.9243e+02	-2.9438	-14.545800	0.000304	3.040882	1.030279	0.000122
1936	1.9253e+02	-2.9085	-14.448909	0.000243	2.432706	0.824223	0.000097
1937	1.9263e+02	-2.8539	-14.303572	0.000365	3.649059	1.236335	0.000146
1938	1.9273e+02	-2.8202	-14.170346	0.000334	3.344971	1.133307	0.000134
1939	1.9283e+02	-2.7833	-14.057307	0.000284	2.838157	0.961594	0.000114
1940	1.9293e+02	-2.7464	-13.976564	0.000203	2.027255	0.686853	0.000081
1941	1.9303e+02	-2.7031	-13.802967	0.000436	4.358598	1.476733	0.000174
1942	1.9313e+02	-2.6630	-13.673779	0.000324	3.243608	1.098964	0.000130
1943	1.9323e+02	-2.6245	-13.584962	0.000223	2.229980	0.755538	0.000089
1944	1.9333e+02	-2.5796	-13.459811	0.000314	3.142245	1.064621	0.000126
1945	1.9343e+02	-2.5427	-13.366956	0.000233	2.331343	0.789880	0.000093
1946	1.9353e+02	-2.4978	-13.249879	0.000294	2.939520	0.995936	0.000118
1947	1.9363e+02	-2.4721	-13.092431	0.000395	3.953147	1.339363	0.000158
1948	1.9373e+02	-2.4224	-12.979391	0.000284	2.838157	0.961594	0.000114
1949	1.9383e+02	-2.3887	-12.846166	0.000334	3.344971	1.133307	0.000134
1950	1.9393e+02	-2.3406	-12.737163	0.000274	2.736794	0.927251	0.000110
1951	1.9403e+02	-2.3069	-12.660458	0.000193	1.925892	0.652510	0.000077
1952	1.9412e+02	-2.2636	-12.519158	0.000355	3.547696	1.201992	0.000142
1953	1.9422e+02	-2.2251	-12.406118	0.000284	2.838157	0.961594	0.000114
1954	1.9432e+02	-2.1834	-12.272893	0.000334	3.344971	1.133307	0.000134
1955	1.9442e+02	-2.1449	-12.171964	0.000253	2.534069	0.858566	0.000101
1956	1.9452e+02	-2.1080	-12.026627	0.000365	3.649059	1.236335	0.000146
1957	1.9462e+02	-2.0679	-11.897439	0.000324	3.243608	1.098964	0.000130
1958	1.9472e+02	-2.0213	-11.764214	0.000334	3.344971	1.133307	0.000134
1959	1.9482e+02	-1.9973	-11.667322	0.000243	2.432706	0.824223	0.000097
1960	1.9492e+02	-1.9443	-11.546208	0.000304	3.040882	1.030279	0.000122
1961	1.9502e+02	-1.9171	-11.437206	0.000274	2.736794	0.927251	0.000110
1962	1.9512e+02	-1.8609	-11.271683	0.000416	4.155873	1.408048	0.000166
1963	1.9522e+02	-1.8304	-11.186903	0.000213	2.128618	0.721195	0.000085
1964	1.9532e+02	-1.7871	-11.049641	0.000345	3.446333	1.167649	0.000138
1965	1.9542e+02	-1.7470	-10.944675	0.000264	2.635431	0.892908	0.000105
1966	1.9552e+02	-1.7085	-10.827598	0.000294	2.939520	0.995936	0.000118
1967	1.9562e+02	-1.6620	-10.670150	0.000395	3.953147	1.339363	0.000158
1968	1.9572e+02	-1.6139	-10.553073	0.000294	2.939520	0.995936	0.000118
1969	1.9582e+02	-1.5882	-10.423884	0.000324	3.243608	1.098964	0.000130
1970	1.9592e+02	-1.5497	-10.306808	0.000294	2.939520	0.995936	0.000118
1971	1.9601e+02	-1.5064	-10.193768	0.000284	2.838157	0.961594	0.000114
1972	1.9611e+02	-1.4647	-10.072654	0.000304	3.040882	1.030279	0.000122
1973	1.9621e+02	-1.4246	-9.919243	0.000385	3.851784	1.305020	0.000154
1974	1.9631e+02	-1.3877	-9.830426	0.000223	2.229980	0.755538	0.000089
1975	1.9641e+02	-1.3492	-9.701237	0.000324	3.243608	1.098964	0.000130
1976	1.9651e+02	-1.3123	-9.592235	0.000274	2.736794	0.927251	0.000110
1977	1.9661e+02	-1.2689	-9.463046	0.000324	3.243608	1.098964	0.000130
1978	1.9671e+02	-1.2256	-9.370192	0.000233	2.331343	0.789880	0.000093
1979	1.9681e+02	-1.1935	-9.220818	0.000375	3.750422	1.270677	0.000150
1980	1.9691e+02	-1.1486	-9.091630	0.000324	3.243608	1.098964	0.000130
1981	1.9701e+02	-1.1085	-8.954367	0.000345	3.446333	1.167649	0.000138
1982	1.9711e+02	-1.0780	-8.865550	0.000223	2.229980	0.755538	0.000089
1983	1.9721e+02	-1.0363	-8.776733	0.000223	2.229980	0.755538	0.000089
1984	1.9731e+02	-0.9914	-8.635433	0.000355	3.547696	1.201992	0.000142
1985	1.9741e+02	-0.9529	-8.502208	0.000334	3.344971	1.133307	0.000134
1986	1.9751e+02	-0.9064	-8.405317	0.000243	2.432706	0.824223	0.000097
1987	1.9761e+02	-0.8695	-8.280165	0.000314	3.142245	1.064621	0.000126
1988	1.9771e+02	-0.8358	-8.122717	0.000395	3.953147	1.339363	0.000158
1989	1.9781e+02	-0.7845	-8.005640	0.000294	2.939520	0.995936	0.000118
1990	1.9791e+02	-0.7476	-7.904712	0.000253	2.534069	0.858566	0.000101
1991	1.9800e+02	-0.7107	-7.771486	0.000334	3.344971	1.133307	0.000134
1992	1.9810e+02	-0.6674	-7.593852	0.000446	4.459961	1.511076	0.000179
1993	1.9820e+02	-0.6257	-7.517147	0.000193	1.925892	0.652510	0.000077
1994	1.9830e+02	-0.5839	-7.379884	0.000345	3.446333	1.167649	0.000138
1995	1.9840e+02	-0.5503	-7.270881	0.000274	2.736794	0.927251	0.000110
1996	1.9850e+02	-0.5069	-7.149767	0.000304	3.040882	1.030279	0.000122
1997	1.9860e+02	-0.4652	-6.992319	0.000395	3.953147	1.339363	0.000158
1998	1.9870e+02	-0.4347	-6.859094	0.000334	3.344971	1.133307	0.000134
1999	1.9880e+02	-0.4027	-6.778351	0.000203	2.027255	0.686853	0.000081
2000	1.9890e+02	-0.3577	-6.653200	0.000314	3.142245	1.064621	0.000126
2001	1.9900e+02	-0.3192	-6.491714	0.000405	4.054510	1.373705	0.000162
2002	1.9910e+02	-0.2727	-6.374637	0.000294	2.939520	0.995936	0.000118
2003	1.9920e+02	-0.2278	-6.257560	0.000294	2.939520	0.995936	0.000118
2004	1.9930e+02	-0.2005	-6.156632	0.000253	2.534069	0.858566	0.000101
2005	1.9940e+02	-0.1508	-6.035518	0.000304	3.040882	1.030279	0.000122
2006	1.9950e+02	-0.1219	-5.882107	0.000385	3.851784	1.305020	0.000154
2007	1.9960e+02	-0.0786	-5.752918	0.000324	3.243608	1.098964	0.000130
2008	1.9970e+02	-0.0337	-5.660064	0.000233	2.331343	0.789880	0.000093
2009	1.9980e+02	0.0080	-5.559136	0.000233	2.331343	0.789880	0.000101

PMax (uC/cm2):	6.11e+01
Pr (uC/cm2):	2.54e+00
-Pr (uC/cm2):	-2.90e+00
PLoss (uC/cm2):	-2.89e+00
-Vc:	-8.10e-01
C (Max-Eff) (nF):	3.06e-01
K (Eff):	1.04e+03
Vert. (+/-Pr) Shift (uC/cm2):	-1.79e-01
Offset (uC/cm2):	2.66e+00

A (Loop Area - uC/cm2·Volts):	3.02e-02



Hysteresis Version: 5.48.1 - Radiant Technologies, Inc., 1999 - 9/12/24

