»»»»»»»»»»»»»»»»»»»»»»»»»»»»»»»»»»»» Hysteresis ««««««««««««««««««««««««««««««««««««
»»»  Executed Version:	5.48.1
»»»  Vision Version:	5.48.4 (R)
»»»  Vision Compiled:	9/18/24
»»»  Driver Version:	5.47.0
»»»  Windows Version:	Windows 8 or 8.1
»»»  Processor Information:	x86 (AMD or Intel) - 32 Processors
»»»  Tester Name:	PMF21124-494 (100V)
»»»  Tester S/N:	PMF21124-494
»»»  Internal Amp Type:	100V RevK 270k
»»»  Internal Amp S/N:	iAB2-596/K     
»»»  Execution Count:	1
»»»»»»»»»»»»»»»»»»»»»»»»»»»»»»»»»»»»»»»»»»««««««««««««««««««««««««««««««««««««««««««

Stored:	6/19/2025 - 15:7:55
Configured:	06/19/25 10:04:32 AM
Executed:	06/19/25 03:06:59 PM

»»»»»»»»»»»»»»»»»»»»»»»»»»»»»»»»»»» Sample Info ««««««««««««««««««««««««««««««««««««
Sample Name:	
Lot Name:	
Wafer Name:	
Die Row/Column:	0/0
Capacitor Number:	0
Sample Area (cm2):	1.00e-04
Sample Thickness (microns):	3.00e-01

Amplifier:	Internal

»»»»»»»»»»»»»»»»»»»»»»»»»»»»»»»»»»» Tester Info «««««««««««««««««««««««««««««««««««
Tester Name:	PMF21124-494 (100V)
Tester Serial Number:	PMF21124-494
Return Signal Amp. Level:	0.19 [Index: 3]

»»»»»»»»»»»»»»»»»»»»»»»»»»»»»»»» Hysteresis Info ««««««««««««««««««««««««««««««««««
Task Name:	Hyst-1168
Volts:	20.00
Field:	666.67 (kV/cm)
DCBias:	0.00
DCField:	0.00 (kV/cm)
Hysteresis Period (ms):	2.00e+02
Preset:	Enabled
Preset Delay (ms):	1.00e+03
Profile:	Standard Bipolar

»»»»»»»»»»»»»»»»»»»»»»»»»»»»»»»»»»»»»» Data «««««««««««««««««««««««««««««««««««««««
Points:	2009

Valid Data

Point	Time (ms)	Drive Voltage	Measured Polarization (uC/cm2)	Capacitance (uF)	Normalized Capacitance (uF/cm2)	Dielectric Constant	Instantaneous Current (mA)
   1	0.0000e+00	0.0144	-6.013314	0.000233	2.331390	0.789896	0.000093
   2	9.9500e-02	0.0337	-5.920460	0.000233	2.331390	0.789896	0.000093
   3	1.9900e-01	0.0802	-5.791271	0.000324	3.243673	1.098986	0.000130
   4	2.9850e-01	0.1251	-5.710529	0.000203	2.027296	0.686866	0.000081
   5	3.9800e-01	0.1540	-5.536932	0.000436	4.358686	1.476763	0.000174
   6	4.9750e-01	0.1989	-5.395632	0.000355	3.547767	1.202016	0.000142
   7	5.9700e-01	0.2358	-5.310852	0.000213	2.128660	0.721210	0.000085
   8	6.9650e-01	0.2695	-5.222035	0.000223	2.230025	0.755553	0.000089
   9	7.9600e-01	0.3128	-5.044401	0.000446	4.460050	1.511106	0.000179
  10	8.9550e-01	0.3481	-4.931361	0.000284	2.838214	0.961613	0.000114
  11	9.9500e-01	0.3946	-4.810247	0.000304	3.040943	1.030300	0.000122
  12	1.0945e+00	0.4364	-4.677022	0.000335	3.345038	1.133329	0.000134
  13	1.1940e+00	0.4765	-4.535722	0.000355	3.547767	1.202016	0.000142
  14	1.2935e+00	0.5101	-4.394422	0.000355	3.547767	1.202016	0.000142
  15	1.3930e+00	0.5486	-4.257160	0.000345	3.446403	1.167673	0.000138
  16	1.4925e+00	0.6000	-4.160268	0.000243	2.432755	0.824240	0.000097
  17	1.5920e+00	0.6337	-3.978597	0.000456	4.561415	1.545449	0.000183
  18	1.6915e+00	0.6754	-3.845372	0.000335	3.345038	1.133329	0.000134
  19	1.7910e+00	0.7123	-3.720221	0.000314	3.142308	1.064643	0.000126
  20	1.8905e+00	0.7604	-3.603144	0.000294	2.939579	0.995956	0.000118
  21	1.9900e+00	0.7925	-3.469918	0.000335	3.345038	1.133329	0.000134
  22	2.0895e+00	0.8454	-3.348804	0.000304	3.040943	1.030300	0.000122
  23	2.1890e+00	0.8743	-3.183282	0.000416	4.155956	1.408076	0.000166
  24	2.2885e+00	0.9080	-3.070242	0.000284	2.838214	0.961613	0.000114
  25	2.3880e+00	0.9545	-2.937016	0.000335	3.345038	1.133329	0.000134
  26	2.4875e+00	0.9962	-2.775531	0.000405	4.054591	1.373733	0.000162
  27	2.5870e+00	1.0363	-2.626157	0.000375	3.750497	1.270703	0.000150
  28	2.6865e+00	1.0684	-2.561563	0.000162	1.621836	0.549493	0.000065
  29	2.7860e+00	1.1262	-2.396040	0.000416	4.155956	1.408076	0.000166
  30	2.8855e+00	1.1550	-2.202258	0.000487	4.865509	1.648479	0.000195
  31	2.9850e+00	1.1952	-2.085181	0.000294	2.939579	0.995956	0.000118
  32	3.0845e+00	1.2353	-1.964067	0.000304	3.040943	1.030300	0.000122
  33	3.1840e+00	1.2770	-1.830841	0.000335	3.345038	1.133329	0.000134
  34	3.2835e+00	1.3091	-1.713764	0.000294	2.939579	0.995956	0.000118
  35	3.3830e+00	1.3492	-1.540167	0.000436	4.358686	1.476763	0.000174
  36	3.4825e+00	1.3861	-1.443276	0.000243	2.432755	0.824240	0.000097
  37	3.5820e+00	1.4326	-1.281791	0.000405	4.054591	1.373733	0.000162
  38	3.6815e+00	1.4695	-1.164714	0.000294	2.939579	0.995956	0.000118
  39	3.7810e+00	1.5112	-1.019377	0.000365	3.649132	1.236359	0.000146
  40	3.8805e+00	1.5513	-0.914411	0.000264	2.635484	0.892926	0.000105
  41	3.9800e+00	1.5818	-0.773111	0.000355	3.547767	1.202016	0.000142
  42	4.0795e+00	1.6347	-0.680257	0.000233	2.331390	0.789896	0.000093
  43	4.1790e+00	1.6716	-0.482438	0.000497	4.966874	1.682823	0.000199
  44	4.2785e+00	1.7181	-0.341138	0.000355	3.547767	1.202016	0.000142
  45	4.3780e+00	1.7566	-0.228098	0.000284	2.838214	0.961613	0.000114
  46	4.4775e+00	1.7871	-0.066613	0.000405	4.054591	1.373733	0.000162
  47	4.5770e+00	1.8320	0.062576	0.000324	3.243673	1.098986	0.000130
  48	4.6765e+00	1.8770	0.211950	0.000375	3.750497	1.270703	0.000150
  49	4.7760e+00	1.9090	0.312878	0.000253	2.534120	0.858583	0.000101
  50	4.8755e+00	1.9459	0.466289	0.000385	3.851862	1.305046	0.000154
  51	4.9750e+00	1.9925	0.591440	0.000314	3.142308	1.064643	0.000126
  52	5.0745e+00	2.0294	0.756963	0.000416	4.155956	1.408076	0.000166
  53	5.1740e+00	2.0679	0.918448	0.000405	4.054591	1.373733	0.000162
  54	5.2735e+00	2.1176	1.015340	0.000243	2.432755	0.824240	0.000097
  55	5.3730e+00	2.1529	1.144528	0.000324	3.243673	1.098986	0.000130
  56	5.4725e+00	2.1930	1.285828	0.000355	3.547767	1.202016	0.000142
  57	5.5720e+00	2.2331	1.467499	0.000456	4.561415	1.545449	0.000183
  58	5.6715e+00	2.2764	1.564390	0.000243	2.432755	0.824240	0.000097
  59	5.7710e+00	2.3117	1.725876	0.000405	4.054591	1.373733	0.000162
  60	5.8705e+00	2.3518	1.871212	0.000365	3.649132	1.236359	0.000146
  61	5.9700e+00	2.3887	1.988289	0.000294	2.939579	0.995956	0.000118
  62	6.0695e+00	2.4304	2.145738	0.000395	3.953226	1.339389	0.000158
  63	6.1690e+00	2.4705	2.246666	0.000253	2.534120	0.858583	0.000101
  64	6.2685e+00	2.5058	2.379892	0.000335	3.345038	1.133329	0.000134
  65	6.3680e+00	2.5588	2.505043	0.000314	3.142308	1.064643	0.000126
  66	6.4675e+00	2.5908	2.674602	0.000426	4.257321	1.442419	0.000170
  67	6.5670e+00	2.6358	2.807828	0.000335	3.345038	1.133329	0.000134
  68	6.6665e+00	2.6662	2.941053	0.000335	3.345038	1.133329	0.000134
  69	6.7660e+00	2.7112	3.102539	0.000405	4.054591	1.373733	0.000162
  70	6.8655e+00	2.7513	3.235764	0.000335	3.345038	1.133329	0.000134
  71	6.9650e+00	2.7866	3.373027	0.000345	3.446403	1.167673	0.000138
  72	7.0645e+00	2.8218	3.502215	0.000324	3.243673	1.098986	0.000130
  73	7.1640e+00	2.8652	3.631404	0.000324	3.243673	1.098986	0.000130
  74	7.2635e+00	2.9101	3.768666	0.000345	3.446403	1.167673	0.000138
  75	7.3630e+00	2.9502	3.914003	0.000365	3.649132	1.236359	0.000146
  76	7.4625e+00	2.9775	4.055303	0.000355	3.547767	1.202016	0.000142
  77	7.5620e+00	3.0288	4.208714	0.000385	3.851862	1.305046	0.000154
  78	7.6615e+00	3.0593	4.370199	0.000405	4.054591	1.373733	0.000162
  79	7.7610e+00	3.1090	4.483239	0.000284	2.838214	0.961613	0.000114
  80	7.8605e+00	3.1507	4.652799	0.000426	4.257321	1.442419	0.000170
  81	7.9600e+00	3.1908	4.745653	0.000233	2.331390	0.789896	0.000093
  82	8.0595e+00	3.2261	4.935398	0.000476	4.764145	1.614136	0.000191
  83	8.1590e+00	3.2726	5.044401	0.000274	2.736849	0.927270	0.000110
  84	8.2585e+00	3.3095	5.173589	0.000324	3.243673	1.098986	0.000130
  85	8.3580e+00	3.3496	5.318926	0.000365	3.649132	1.236359	0.000146
  86	8.4575e+00	3.3930	5.496560	0.000446	4.460050	1.511106	0.000179
  87	8.5570e+00	3.4250	5.609600	0.000284	2.838214	0.961613	0.000114
  88	8.6565e+00	3.4651	5.750900	0.000355	3.547767	1.202016	0.000142
  89	8.7560e+00	3.5052	5.924497	0.000436	4.358686	1.476763	0.000174
  90	8.8555e+00	3.5421	6.041574	0.000294	2.939579	0.995956	0.000118
  91	8.9550e+00	3.5774	6.199022	0.000395	3.953226	1.339389	0.000158
  92	9.0545e+00	3.6224	6.328210	0.000324	3.243673	1.098986	0.000130
  93	9.1540e+00	3.6625	6.445287	0.000294	2.939579	0.995956	0.000118
  94	9.2535e+00	3.7042	6.590624	0.000365	3.649132	1.236359	0.000146
  95	9.3530e+00	3.7379	6.744035	0.000385	3.851862	1.305046	0.000154
  96	9.4525e+00	3.7876	6.877261	0.000335	3.345038	1.133329	0.000134
  97	9.5520e+00	3.8293	7.046820	0.000426	4.257321	1.442419	0.000170
  98	9.6515e+00	3.8662	7.171972	0.000314	3.142308	1.064643	0.000126
  99	9.7510e+00	3.8919	7.297123	0.000314	3.142308	1.064643	0.000126
 100	9.8505e+00	3.9432	7.434385	0.000345	3.446403	1.167673	0.000138
 101	9.9500e+00	3.9881	7.579722	0.000365	3.649132	1.236359	0.000146
 102	1.0050e+01	4.0234	7.737171	0.000395	3.953226	1.339389	0.000158
 103	1.0149e+01	4.0571	7.886545	0.000375	3.750497	1.270703	0.000150
 104	1.0248e+01	4.1036	7.967287	0.000203	2.027296	0.686866	0.000081
 105	1.0348e+01	4.1518	8.173181	0.000517	5.169604	1.751509	0.000207
 106	1.0447e+01	4.1774	8.286221	0.000284	2.838214	0.961613	0.000114
 107	1.0547e+01	4.2223	8.455781	0.000426	4.257321	1.442419	0.000170
 108	1.0646e+01	4.2560	8.552672	0.000243	2.432755	0.824240	0.000097
 109	1.0746e+01	4.3026	8.693972	0.000355	3.547767	1.202016	0.000142
 110	1.0845e+01	4.3475	8.847383	0.000385	3.851862	1.305046	0.000154
 111	1.0945e+01	4.3796	8.980608	0.000335	3.345038	1.133329	0.000134
 112	1.1044e+01	4.4165	9.138057	0.000395	3.953226	1.339389	0.000158
 113	1.1144e+01	4.4598	9.234948	0.000243	2.432755	0.824240	0.000097
 114	1.1243e+01	4.5031	9.400471	0.000416	4.155956	1.408076	0.000166
 115	1.1343e+01	4.5384	9.529659	0.000324	3.243673	1.098986	0.000130
 116	1.1443e+01	4.5769	9.662884	0.000335	3.345038	1.133329	0.000134
 117	1.1542e+01	4.6090	9.864741	0.000507	5.068239	1.717166	0.000203
 118	1.1642e+01	4.6555	9.953558	0.000223	2.230025	0.755553	0.000089
 119	1.1741e+01	4.6940	10.098895	0.000365	3.649132	1.236359	0.000146
 120	1.1841e+01	4.7341	10.240195	0.000355	3.547767	1.202016	0.000142
 121	1.1940e+01	4.7806	10.393606	0.000385	3.851862	1.305046	0.000154
 122	1.2040e+01	4.8223	10.518757	0.000314	3.142308	1.064643	0.000126
 123	1.2139e+01	4.8608	10.660057	0.000355	3.547767	1.202016	0.000142
 124	1.2239e+01	4.8945	10.821542	0.000405	4.054591	1.373733	0.000162
 125	1.2338e+01	4.9346	10.958805	0.000345	3.446403	1.167673	0.000138
 126	1.2438e+01	4.9779	11.128365	0.000426	4.257321	1.442419	0.000170
 127	1.2537e+01	5.0196	11.217182	0.000223	2.230025	0.755553	0.000089
 128	1.2636e+01	5.0581	11.410964	0.000487	4.865509	1.648479	0.000195
 129	1.2736e+01	5.0966	11.524004	0.000284	2.838214	0.961613	0.000114
 130	1.2835e+01	5.1384	11.689527	0.000416	4.155956	1.408076	0.000166
 131	1.2935e+01	5.1769	11.794492	0.000264	2.635484	0.892926	0.000105
 132	1.3034e+01	5.2202	11.972126	0.000446	4.460050	1.511106	0.000179
 133	1.3134e+01	5.2571	12.105352	0.000335	3.345038	1.133329	0.000134
 134	1.3233e+01	5.2972	12.202243	0.000243	2.432755	0.824240	0.000097
 135	1.3333e+01	5.3293	12.412174	0.000527	5.270969	1.785853	0.000211
 136	1.3432e+01	5.3806	12.525214	0.000284	2.838214	0.961613	0.000114
 137	1.3532e+01	5.4175	12.702848	0.000446	4.460050	1.511106	0.000179
 138	1.3632e+01	5.4544	12.832036	0.000324	3.243673	1.098986	0.000130
 139	1.3731e+01	5.5025	12.945076	0.000284	2.838214	0.961613	0.000114
 140	1.3831e+01	5.5314	13.126747	0.000456	4.561415	1.545449	0.000183
 141	1.3930e+01	5.5747	13.243824	0.000294	2.939579	0.995956	0.000118
 142	1.4030e+01	5.6180	13.401272	0.000395	3.953226	1.339389	0.000158
 143	1.4129e+01	5.6453	13.526423	0.000314	3.142308	1.064643	0.000126
 144	1.4229e+01	5.6998	13.651574	0.000314	3.142308	1.064643	0.000126
 145	1.4328e+01	5.7351	13.837283	0.000466	4.662780	1.579793	0.000187
 146	1.4428e+01	5.7801	13.966471	0.000324	3.243673	1.098986	0.000130
 147	1.4527e+01	5.8121	14.144105	0.000446	4.460050	1.511106	0.000179
 148	1.4627e+01	5.8667	14.240996	0.000243	2.432755	0.824240	0.000097
 149	1.4726e+01	5.8988	14.414593	0.000436	4.358686	1.476763	0.000174
 150	1.4825e+01	5.9421	14.531670	0.000294	2.939579	0.995956	0.000118
 151	1.4925e+01	5.9694	14.697193	0.000416	4.155956	1.408076	0.000166
 152	1.5024e+01	6.0191	14.810232	0.000284	2.838214	0.961613	0.000114
 153	1.5124e+01	6.0512	14.963644	0.000385	3.851862	1.305046	0.000154
 154	1.5223e+01	6.0897	15.076683	0.000284	2.838214	0.961613	0.000114
 155	1.5323e+01	6.1378	15.242206	0.000416	4.155956	1.408076	0.000166
 156	1.5422e+01	6.1763	15.395617	0.000385	3.851862	1.305046	0.000154
 157	1.5522e+01	6.2164	15.508657	0.000284	2.838214	0.961613	0.000114
 158	1.5621e+01	6.2565	15.694365	0.000466	4.662780	1.579793	0.000187
 159	1.5721e+01	6.2918	15.807405	0.000284	2.838214	0.961613	0.000114
 160	1.5820e+01	6.3287	16.017336	0.000527	5.270969	1.785853	0.000211
 161	1.5920e+01	6.3704	16.126339	0.000274	2.736849	0.927270	0.000110
 162	1.6020e+01	6.4121	16.239379	0.000284	2.838214	0.961613	0.000114
 163	1.6119e+01	6.4570	16.408938	0.000426	4.257321	1.442419	0.000170
 164	1.6218e+01	6.4923	16.554275	0.000365	3.649132	1.236359	0.000146
 165	1.6318e+01	6.5308	16.703649	0.000375	3.750497	1.270703	0.000150
 166	1.6418e+01	6.5725	16.812652	0.000274	2.736849	0.927270	0.000110
 167	1.6517e+01	6.6062	16.966063	0.000385	3.851862	1.305046	0.000154
 168	1.6616e+01	6.6447	17.131586	0.000416	4.155956	1.408076	0.000166
 169	1.6716e+01	6.6864	17.244625	0.000284	2.838214	0.961613	0.000114
 170	1.6816e+01	6.7314	17.402074	0.000395	3.953226	1.339389	0.000158
 171	1.6915e+01	6.7699	17.559522	0.000395	3.953226	1.339389	0.000158
 172	1.7015e+01	6.8148	17.696785	0.000345	3.446403	1.167673	0.000138
 173	1.7114e+01	6.8453	17.801750	0.000264	2.635484	0.892926	0.000105
 174	1.7213e+01	6.8854	17.959198	0.000395	3.953226	1.339389	0.000158
 175	1.7313e+01	6.9303	18.104535	0.000365	3.649132	1.236359	0.000146
 176	1.7413e+01	6.9736	18.229686	0.000314	3.142308	1.064643	0.000126
 177	1.7512e+01	7.0057	18.403283	0.000436	4.358686	1.476763	0.000174
 178	1.7611e+01	7.0458	18.532472	0.000324	3.243673	1.098986	0.000130
 179	1.7711e+01	7.0747	18.673771	0.000355	3.547767	1.202016	0.000142
 180	1.7811e+01	7.1292	18.847368	0.000436	4.358686	1.476763	0.000174
 181	1.7910e+01	7.1693	18.988668	0.000355	3.547767	1.202016	0.000142
 182	1.8009e+01	7.2014	19.121893	0.000335	3.345038	1.133329	0.000134
 183	1.8109e+01	7.2447	19.303565	0.000456	4.561415	1.545449	0.000183
 184	1.8209e+01	7.2832	19.432753	0.000324	3.243673	1.098986	0.000130
 185	1.8308e+01	7.3249	19.578090	0.000365	3.649132	1.236359	0.000146
 186	1.8407e+01	7.3747	19.715352	0.000345	3.446403	1.167673	0.000138
 187	1.8507e+01	7.4100	19.860689	0.000365	3.649132	1.236359	0.000146
 188	1.8607e+01	7.4581	20.022175	0.000405	4.054591	1.373733	0.000162
 189	1.8706e+01	7.4886	20.224031	0.000507	5.068239	1.717166	0.000203
 190	1.8805e+01	7.5239	20.324960	0.000253	2.534120	0.858583	0.000101
 191	1.8905e+01	7.5688	20.474334	0.000375	3.750497	1.270703	0.000150
 192	1.9005e+01	7.5976	20.559114	0.000213	2.128660	0.721210	0.000085
 193	1.9104e+01	7.6490	20.781156	0.000558	5.575063	1.888882	0.000223
 194	1.9203e+01	7.6827	20.934567	0.000385	3.851862	1.305046	0.000154
 195	1.9303e+01	7.7276	21.071830	0.000345	3.446403	1.167673	0.000138
 196	1.9402e+01	7.7725	21.233315	0.000405	4.054591	1.373733	0.000162
 197	1.9502e+01	7.8094	21.390764	0.000395	3.953226	1.339389	0.000158
 198	1.9602e+01	7.8463	21.463432	0.000182	1.824566	0.618180	0.000073
 199	1.9701e+01	7.8848	21.641066	0.000446	4.460050	1.511106	0.000179
 200	1.9800e+01	7.9297	21.782366	0.000355	3.547767	1.202016	0.000142
 201	1.9900e+01	7.9634	21.964037	0.000456	4.561415	1.545449	0.000183
 202	2.0000e+01	8.0067	22.064965	0.000253	2.534120	0.858583	0.000101
 203	2.0099e+01	8.0468	22.238562	0.000436	4.358686	1.476763	0.000174
 204	2.0198e+01	8.0837	22.408122	0.000426	4.257321	1.442419	0.000170
 205	2.0298e+01	8.1367	22.529236	0.000304	3.040943	1.030300	0.000122
 206	2.0398e+01	8.1559	22.690721	0.000405	4.054591	1.373733	0.000162
 207	2.0497e+01	8.2121	22.840095	0.000375	3.750497	1.270703	0.000150
 208	2.0596e+01	8.2409	22.957172	0.000294	2.939579	0.995956	0.000118
 209	2.0696e+01	8.2762	23.114621	0.000395	3.953226	1.339389	0.000158
 210	2.0796e+01	8.3356	23.263995	0.000375	3.750497	1.270703	0.000150
 211	2.0895e+01	8.3693	23.397220	0.000335	3.345038	1.133329	0.000134
 212	2.0994e+01	8.4046	23.538520	0.000355	3.547767	1.202016	0.000142
 213	2.1094e+01	8.4367	23.716154	0.000446	4.460050	1.511106	0.000179
 214	2.1194e+01	8.4896	23.873602	0.000395	3.953226	1.339389	0.000158
 215	2.1293e+01	8.5249	24.006828	0.000335	3.345038	1.133329	0.000134
 216	2.1392e+01	8.5698	24.111793	0.000264	2.635484	0.892926	0.000105
 217	2.1492e+01	8.6067	24.281353	0.000426	4.257321	1.442419	0.000170
 218	2.1591e+01	8.6548	24.418616	0.000345	3.446403	1.167673	0.000138
 219	2.1691e+01	8.6789	24.559915	0.000355	3.547767	1.202016	0.000142
 220	2.1791e+01	8.7158	24.717364	0.000395	3.953226	1.339389	0.000158
 221	2.1890e+01	8.7607	24.866738	0.000375	3.750497	1.270703	0.000150
 222	2.1989e+01	8.8008	25.024186	0.000395	3.953226	1.339389	0.000158
 223	2.2089e+01	8.8345	25.157411	0.000335	3.345038	1.133329	0.000134
 224	2.2189e+01	8.8746	25.310823	0.000385	3.851862	1.305046	0.000154
 225	2.2288e+01	8.9195	25.488456	0.000446	4.460050	1.511106	0.000179
 226	2.2387e+01	8.9564	25.617645	0.000324	3.243673	1.098986	0.000130
 227	2.2487e+01	8.9917	25.771056	0.000385	3.851862	1.305046	0.000154
 228	2.2587e+01	9.0447	25.904281	0.000335	3.345038	1.133329	0.000134
 229	2.2686e+01	9.0767	26.053655	0.000375	3.750497	1.270703	0.000150
 230	2.2785e+01	9.1185	26.190918	0.000345	3.446403	1.167673	0.000138
 231	2.2885e+01	9.1634	26.320106	0.000324	3.243673	1.098986	0.000130
 232	2.2985e+01	9.2003	26.493703	0.000436	4.358686	1.476763	0.000174
 233	2.3084e+01	9.2388	26.614817	0.000304	3.040943	1.030300	0.000122
 234	2.3183e+01	9.2837	26.796488	0.000456	4.561415	1.545449	0.000183
 235	2.3283e+01	9.3190	26.921640	0.000314	3.142308	1.064643	0.000126
 236	2.3383e+01	9.3575	27.034679	0.000284	2.838214	0.961613	0.000114
 237	2.3482e+01	9.4008	27.224425	0.000476	4.764145	1.614136	0.000191
 238	2.3581e+01	9.4393	27.349576	0.000314	3.142308	1.064643	0.000126
 239	2.3681e+01	9.4826	27.523173	0.000436	4.358686	1.476763	0.000174
 240	2.3780e+01	9.5211	27.660436	0.000345	3.446403	1.167673	0.000138
 241	2.3880e+01	9.5644	27.834032	0.000436	4.358686	1.476763	0.000174
 242	2.3980e+01	9.6094	27.955146	0.000304	3.040943	1.030300	0.000122
 243	2.4079e+01	9.6334	28.084335	0.000324	3.243673	1.098986	0.000130
 244	2.4178e+01	9.6799	28.229672	0.000365	3.649132	1.236359	0.000146
 245	2.4278e+01	9.7152	28.391157	0.000405	4.054591	1.373733	0.000162
 246	2.4378e+01	9.7569	28.524383	0.000335	3.345038	1.133329	0.000134
 247	2.4477e+01	9.8019	28.673757	0.000375	3.750497	1.270703	0.000150
 248	2.4576e+01	9.8420	28.835242	0.000405	4.054591	1.373733	0.000162
 249	2.4676e+01	9.8805	29.000765	0.000416	4.155956	1.408076	0.000166
 250	2.4776e+01	9.9270	29.125916	0.000314	3.142308	1.064643	0.000126
 251	2.4875e+01	9.9655	29.267216	0.000355	3.547767	1.202016	0.000142
 252	2.4974e+01	9.9944	29.404478	0.000345	3.446403	1.167673	0.000138
 253	2.5074e+01	10.0361	29.557889	0.000385	3.851862	1.305046	0.000154
 254	2.5174e+01	10.0810	29.670929	0.000284	2.838214	0.961613	0.000114
 255	2.5273e+01	10.1147	29.884897	0.000537	5.372333	1.820196	0.000215
 256	2.5372e+01	10.1644	30.030234	0.000365	3.649132	1.236359	0.000146
 257	2.5472e+01	10.1997	30.163460	0.000335	3.345038	1.133329	0.000134
 258	2.5572e+01	10.2302	30.308797	0.000365	3.649132	1.236359	0.000146
 259	2.5671e+01	10.2767	30.442022	0.000335	3.345038	1.133329	0.000134
 260	2.5770e+01	10.3248	30.587359	0.000365	3.649132	1.236359	0.000146
 261	2.5870e+01	10.3521	30.748844	0.000405	4.054591	1.373733	0.000162
 262	2.5970e+01	10.3954	30.865921	0.000294	2.939579	0.995956	0.000118
 263	2.6069e+01	10.4403	31.027407	0.000405	4.054591	1.373733	0.000162
 264	2.6169e+01	10.4708	31.188892	0.000405	4.054591	1.373733	0.000162
 265	2.6268e+01	10.5157	31.338266	0.000375	3.750497	1.270703	0.000150
 266	2.6367e+01	10.5542	31.475529	0.000345	3.446403	1.167673	0.000138
 267	2.6467e+01	10.6008	31.624903	0.000375	3.750497	1.270703	0.000150
 268	2.6567e+01	10.6329	31.790425	0.000416	4.155956	1.408076	0.000166
 269	2.6666e+01	10.6778	31.887317	0.000243	2.432755	0.824240	0.000097
 270	2.6765e+01	10.7163	32.040728	0.000385	3.851862	1.305046	0.000154
 271	2.6865e+01	10.7564	32.177990	0.000345	3.446403	1.167673	0.000138
 272	2.6965e+01	10.7901	32.331402	0.000385	3.851862	1.305046	0.000154
 273	2.7064e+01	10.8478	32.452516	0.000304	3.040943	1.030300	0.000122
 274	2.7163e+01	10.8655	32.634187	0.000456	4.561415	1.545449	0.000183
 275	2.7263e+01	10.9072	32.759338	0.000314	3.142308	1.064643	0.000126
 276	2.7363e+01	10.9585	32.920823	0.000405	4.054591	1.373733	0.000162
 277	2.7462e+01	10.9954	33.062123	0.000355	3.547767	1.202016	0.000142
 278	2.7561e+01	11.0339	33.207460	0.000365	3.649132	1.236359	0.000146
 279	2.7661e+01	11.0692	33.360871	0.000385	3.851862	1.305046	0.000154
 280	2.7761e+01	11.1109	33.486022	0.000314	3.142308	1.064643	0.000126
 281	2.7860e+01	11.1542	33.647508	0.000405	4.054591	1.373733	0.000162
 282	2.7959e+01	11.1911	33.760548	0.000284	2.838214	0.961613	0.000114
 283	2.8059e+01	11.2312	33.905884	0.000365	3.649132	1.236359	0.000146
 284	2.8159e+01	11.2745	34.043147	0.000345	3.446403	1.167673	0.000138
 285	2.8258e+01	11.3018	34.180410	0.000345	3.446403	1.167673	0.000138
 286	2.8358e+01	11.3580	34.333821	0.000385	3.851862	1.305046	0.000154
 287	2.8457e+01	11.3981	34.467046	0.000335	3.345038	1.133329	0.000134
 288	2.8556e+01	11.4318	34.632569	0.000416	4.155956	1.408076	0.000166
 289	2.8656e+01	11.4671	34.777906	0.000365	3.649132	1.236359	0.000146
 290	2.8756e+01	11.5040	34.907094	0.000324	3.243673	1.098986	0.000130
 291	2.8855e+01	11.5553	35.072617	0.000416	4.155956	1.408076	0.000166
 292	2.8954e+01	11.5938	35.173545	0.000253	2.534120	0.858583	0.000101
 293	2.9054e+01	11.6259	35.330993	0.000395	3.953226	1.339389	0.000158
 294	2.9154e+01	11.6788	35.504590	0.000436	4.358686	1.476763	0.000174
 295	2.9253e+01	11.7141	35.633779	0.000324	3.243673	1.098986	0.000130
 296	2.9352e+01	11.7590	35.779115	0.000365	3.649132	1.236359	0.000146
 297	2.9452e+01	11.7863	35.924452	0.000365	3.649132	1.236359	0.000146
 298	2.9552e+01	11.8296	36.094012	0.000426	4.257321	1.442419	0.000170
 299	2.9651e+01	11.8761	36.215126	0.000304	3.040943	1.030300	0.000122
 300	2.9750e+01	11.9114	36.332203	0.000294	2.939579	0.995956	0.000118
 301	2.9850e+01	11.9547	36.517911	0.000466	4.662780	1.579793	0.000187
 302	2.9950e+01	11.9916	36.659211	0.000355	3.547767	1.202016	0.000142
 303	3.0049e+01	12.0366	36.780325	0.000304	3.040943	1.030300	0.000122
 304	3.0148e+01	12.0719	36.961996	0.000456	4.561415	1.545449	0.000183
 305	3.0248e+01	12.1168	37.091185	0.000324	3.243673	1.098986	0.000130
 306	3.0348e+01	12.1553	37.228447	0.000345	3.446403	1.167673	0.000138
 307	3.0447e+01	12.1906	37.381858	0.000385	3.851862	1.305046	0.000154
 308	3.0547e+01	12.2355	37.494898	0.000284	2.838214	0.961613	0.000114
 309	3.0646e+01	12.2788	37.664458	0.000426	4.257321	1.442419	0.000170
 310	3.0745e+01	12.3141	37.809795	0.000365	3.649132	1.236359	0.000146
 311	3.0845e+01	12.3510	37.971280	0.000405	4.054591	1.373733	0.000162
 312	3.0945e+01	12.3959	38.092394	0.000304	3.040943	1.030300	0.000122
 313	3.1044e+01	12.4344	38.241768	0.000375	3.750497	1.270703	0.000150
 314	3.1143e+01	12.4681	38.411328	0.000426	4.257321	1.442419	0.000170
 315	3.1243e+01	12.5146	38.528405	0.000294	2.939579	0.995956	0.000118
 316	3.1343e+01	12.5515	38.689890	0.000405	4.054591	1.373733	0.000162
 317	3.1442e+01	12.5996	38.823116	0.000335	3.345038	1.133329	0.000134
 318	3.1541e+01	12.6285	38.980564	0.000395	3.953226	1.339389	0.000158
 319	3.1641e+01	12.6734	39.121864	0.000355	3.547767	1.202016	0.000142
 320	3.1741e+01	12.7103	39.279312	0.000395	3.953226	1.339389	0.000158
 321	3.1840e+01	12.7424	39.444835	0.000416	4.155956	1.408076	0.000166
 322	3.1939e+01	12.7825	39.574023	0.000324	3.243673	1.098986	0.000130
 323	3.2039e+01	12.8242	39.715323	0.000355	3.547767	1.202016	0.000142
 324	3.2139e+01	12.8708	39.852585	0.000345	3.446403	1.167673	0.000138
 325	3.2238e+01	12.8996	39.973700	0.000304	3.040943	1.030300	0.000122
 326	3.2337e+01	12.9542	40.191705	0.000547	5.473698	1.854539	0.000219
 327	3.2437e+01	12.9847	40.256299	0.000162	1.621836	0.549493	0.000065
 328	3.2536e+01	13.0232	40.421822	0.000416	4.155956	1.408076	0.000166
 329	3.2636e+01	13.0585	40.591381	0.000426	4.257321	1.442419	0.000170
 330	3.2736e+01	13.1002	40.736718	0.000365	3.649132	1.236359	0.000146
 331	3.2835e+01	13.1403	40.825535	0.000223	2.230025	0.755553	0.000089
 332	3.2934e+01	13.1772	41.007206	0.000456	4.561415	1.545449	0.000183
 333	3.3034e+01	13.2221	41.164655	0.000395	3.953226	1.339389	0.000158
 334	3.3133e+01	13.2702	41.277694	0.000284	2.838214	0.961613	0.000114
 335	3.3233e+01	13.2991	41.471477	0.000487	4.865509	1.648479	0.000195
 336	3.3333e+01	13.3456	41.572405	0.000253	2.534120	0.858583	0.000101
 337	3.3432e+01	13.3761	41.733891	0.000405	4.054591	1.373733	0.000162
 338	3.3532e+01	13.4162	41.887302	0.000385	3.851862	1.305046	0.000154
 339	3.3631e+01	13.4611	42.028602	0.000355	3.547767	1.202016	0.000142
 340	3.3730e+01	13.5012	42.161827	0.000335	3.345038	1.133329	0.000134
 341	3.3830e+01	13.5333	42.286978	0.000314	3.142308	1.064643	0.000126
 342	3.3929e+01	13.5830	42.408092	0.000304	3.040943	1.030300	0.000122
 343	3.4029e+01	13.6199	42.597838	0.000476	4.764145	1.614136	0.000191
 344	3.4129e+01	13.6713	42.702803	0.000264	2.635484	0.892926	0.000105
 345	3.4228e+01	13.7018	42.876400	0.000436	4.358686	1.476763	0.000174
 346	3.4328e+01	13.7451	42.997514	0.000304	3.040943	1.030300	0.000122
 347	3.4427e+01	13.7804	43.179185	0.000456	4.561415	1.545449	0.000183
 348	3.4526e+01	13.8173	43.324522	0.000365	3.649132	1.236359	0.000146
 349	3.4626e+01	13.8590	43.441599	0.000294	2.939579	0.995956	0.000118
 350	3.4725e+01	13.9103	43.599047	0.000395	3.953226	1.339389	0.000158
 351	3.4825e+01	13.9344	43.716124	0.000294	2.939579	0.995956	0.000118
 352	3.4925e+01	13.9809	43.950278	0.000588	5.879157	1.991912	0.000235
 353	3.5024e+01	14.0210	44.107727	0.000395	3.953226	1.339389	0.000158
 354	3.5123e+01	14.0531	44.192506	0.000213	2.128660	0.721210	0.000085
 355	3.5223e+01	14.0980	44.362066	0.000426	4.257321	1.442419	0.000170
 356	3.5322e+01	14.1397	44.487217	0.000314	3.142308	1.064643	0.000126
 357	3.5422e+01	14.1766	44.652740	0.000416	4.155956	1.408076	0.000166
 358	3.5522e+01	14.2215	44.834411	0.000456	4.561415	1.545449	0.000183
 359	3.5621e+01	14.2584	44.947451	0.000284	2.838214	0.961613	0.000114
 360	3.5721e+01	14.3033	45.100862	0.000385	3.851862	1.305046	0.000154
 361	3.5820e+01	14.3434	45.258310	0.000395	3.953226	1.339389	0.000158
 362	3.5919e+01	14.3868	45.403647	0.000365	3.649132	1.236359	0.000146
 363	3.6019e+01	14.4076	45.561095	0.000395	3.953226	1.339389	0.000158
 364	3.6118e+01	14.4622	45.734692	0.000436	4.358686	1.476763	0.000174
 365	3.6218e+01	14.5071	45.859843	0.000314	3.142308	1.064643	0.000126
 366	3.6318e+01	14.5504	46.009217	0.000375	3.750497	1.270703	0.000150
 367	3.6417e+01	14.5809	46.146480	0.000345	3.446403	1.167673	0.000138
 368	3.6517e+01	14.6178	46.279706	0.000335	3.345038	1.133329	0.000134
 369	3.6616e+01	14.6563	46.445228	0.000416	4.155956	1.408076	0.000166
 370	3.6715e+01	14.6948	46.614788	0.000426	4.257321	1.442419	0.000170
 371	3.6815e+01	14.7381	46.756088	0.000355	3.547767	1.202016	0.000142
 372	3.6914e+01	14.7734	46.877202	0.000304	3.040943	1.030300	0.000122
 373	3.7014e+01	14.8231	47.014464	0.000345	3.446403	1.167673	0.000138
 374	3.7114e+01	14.8568	47.220358	0.000517	5.169604	1.751509	0.000207
 375	3.7213e+01	14.8905	47.349547	0.000324	3.243673	1.098986	0.000130
 376	3.7313e+01	14.9338	47.478735	0.000324	3.243673	1.098986	0.000130
 377	3.7412e+01	14.9691	47.620035	0.000355	3.547767	1.202016	0.000142
 378	3.7511e+01	15.0188	47.777483	0.000395	3.953226	1.339389	0.000158
 379	3.7611e+01	15.0541	47.947043	0.000426	4.257321	1.442419	0.000170
 380	3.7711e+01	15.0862	48.064120	0.000294	2.939579	0.995956	0.000118
 381	3.7810e+01	15.1247	48.213494	0.000375	3.750497	1.270703	0.000150
 382	3.7910e+01	15.1728	48.383053	0.000426	4.257321	1.442419	0.000170
 383	3.8009e+01	15.2097	48.540502	0.000395	3.953226	1.339389	0.000158
 384	3.8108e+01	15.2611	48.701987	0.000405	4.054591	1.373733	0.000162
 385	3.8208e+01	15.2980	48.806953	0.000264	2.635484	0.892926	0.000105
 386	3.8307e+01	15.3333	48.960364	0.000385	3.851862	1.305046	0.000154
 387	3.8407e+01	15.3814	49.101663	0.000355	3.547767	1.202016	0.000142
 388	3.8507e+01	15.4199	49.279297	0.000446	4.460050	1.511106	0.000179
 389	3.8606e+01	15.4520	49.432709	0.000385	3.851862	1.305046	0.000154
 390	3.8706e+01	15.4985	49.557860	0.000314	3.142308	1.064643	0.000126
 391	3.8805e+01	15.5370	49.711271	0.000385	3.851862	1.305046	0.000154
 392	3.8904e+01	15.5755	49.884868	0.000436	4.358686	1.476763	0.000174
 393	3.9004e+01	15.6124	50.042316	0.000395	3.953226	1.339389	0.000158
 394	3.9103e+01	15.6509	50.187653	0.000365	3.649132	1.236359	0.000146
 395	3.9203e+01	15.6942	50.280507	0.000233	2.331390	0.789896	0.000093
 396	3.9303e+01	15.7407	50.450067	0.000426	4.257321	1.442419	0.000170
 397	3.9402e+01	15.7760	50.647886	0.000497	4.966874	1.682823	0.000199
 398	3.9502e+01	15.8209	50.781112	0.000335	3.345038	1.133329	0.000134
 399	3.9601e+01	15.8450	50.922412	0.000355	3.547767	1.202016	0.000142
 400	3.9700e+01	15.8963	51.051600	0.000324	3.243673	1.098986	0.000130
 401	3.9800e+01	15.9413	51.205011	0.000385	3.851862	1.305046	0.000154
 402	3.9900e+01	15.9717	51.334199	0.000324	3.243673	1.098986	0.000130
 403	3.9999e+01	16.0135	51.495685	0.000405	4.054591	1.373733	0.000162
 404	4.0099e+01	16.0455	51.641022	0.000365	3.649132	1.236359	0.000146
 405	4.0198e+01	16.0905	51.802507	0.000405	4.054591	1.373733	0.000162
 406	4.0297e+01	16.1193	51.939770	0.000345	3.446403	1.167673	0.000138
 407	4.0397e+01	16.1626	52.105292	0.000416	4.155956	1.408076	0.000166
 408	4.0496e+01	16.2172	52.218332	0.000284	2.838214	0.961613	0.000114
 409	4.0596e+01	16.2541	52.400003	0.000456	4.561415	1.545449	0.000183
 410	4.0696e+01	16.2942	52.545340	0.000365	3.649132	1.236359	0.000146
 411	4.0795e+01	16.3327	52.690677	0.000365	3.649132	1.236359	0.000146
 412	4.0895e+01	16.3728	52.888497	0.000497	4.966874	1.682823	0.000199
 413	4.0994e+01	16.4209	53.001537	0.000284	2.838214	0.961613	0.000114
 414	4.1093e+01	16.4610	53.142836	0.000355	3.547767	1.202016	0.000142
 415	4.1193e+01	16.4851	53.316433	0.000436	4.358686	1.476763	0.000174
 416	4.1292e+01	16.5316	53.445621	0.000324	3.243673	1.098986	0.000130
 417	4.1392e+01	16.5685	53.558661	0.000284	2.838214	0.961613	0.000114
 418	4.1492e+01	16.6199	53.748407	0.000476	4.764145	1.614136	0.000191
 419	4.1591e+01	16.6519	53.877595	0.000324	3.243673	1.098986	0.000130
 420	4.1691e+01	16.6872	54.059266	0.000456	4.561415	1.545449	0.000183
 421	4.1790e+01	16.7241	54.184417	0.000314	3.142308	1.064643	0.000126
 422	4.1889e+01	16.7803	54.349940	0.000416	4.155956	1.408076	0.000166
 423	4.1989e+01	16.8043	54.495277	0.000365	3.649132	1.236359	0.000146
 424	4.2089e+01	16.8477	54.676948	0.000456	4.561415	1.545449	0.000183
 425	4.2188e+01	16.8878	54.822285	0.000365	3.649132	1.236359	0.000146
 426	4.2288e+01	16.9295	54.955510	0.000335	3.345038	1.133329	0.000134
 427	4.2387e+01	16.9696	55.084699	0.000324	3.243673	1.098986	0.000130
 428	4.2486e+01	17.0161	55.270407	0.000466	4.662780	1.579793	0.000187
 429	4.2586e+01	17.0482	55.379409	0.000274	2.736849	0.927270	0.000110
 430	4.2685e+01	17.0947	55.548969	0.000426	4.257321	1.442419	0.000170
 431	4.2785e+01	17.1236	55.686232	0.000345	3.446403	1.167673	0.000138
 432	4.2885e+01	17.1685	55.835606	0.000375	3.750497	1.270703	0.000150
 433	4.2984e+01	17.2118	55.997091	0.000405	4.054591	1.373733	0.000162
 434	4.3084e+01	17.2439	56.134354	0.000345	3.446403	1.167673	0.000138
 435	4.3183e+01	17.2824	56.311988	0.000446	4.460050	1.511106	0.000179
 436	4.3282e+01	17.3209	56.461362	0.000375	3.750497	1.270703	0.000150
 437	4.3382e+01	17.3706	56.602662	0.000355	3.547767	1.202016	0.000142
 438	4.3481e+01	17.4139	56.747999	0.000365	3.649132	1.236359	0.000146
 439	4.3581e+01	17.4524	56.877187	0.000324	3.243673	1.098986	0.000130
 440	4.3681e+01	17.4942	57.050784	0.000436	4.358686	1.476763	0.000174
 441	4.3780e+01	17.5262	57.204195	0.000385	3.851862	1.305046	0.000154
 442	4.3880e+01	17.5599	57.321272	0.000294	2.939579	0.995956	0.000118
 443	4.3979e+01	17.6145	57.470646	0.000375	3.750497	1.270703	0.000150
 444	4.4078e+01	17.6369	57.656354	0.000466	4.662780	1.579793	0.000187
 445	4.4178e+01	17.6947	57.741134	0.000213	2.128660	0.721210	0.000085
 446	4.4278e+01	17.7268	57.922805	0.000456	4.561415	1.545449	0.000183
 447	4.4377e+01	17.7669	58.047956	0.000314	3.142308	1.064643	0.000126
 448	4.4477e+01	17.8006	58.221553	0.000436	4.358686	1.476763	0.000174
 449	4.4576e+01	17.8423	58.387076	0.000416	4.155956	1.408076	0.000166
 450	4.4675e+01	17.8872	58.496078	0.000274	2.736849	0.927270	0.000110
 451	4.4775e+01	17.9257	58.645452	0.000375	3.750497	1.270703	0.000150
 452	4.4874e+01	17.9642	58.823086	0.000446	4.460050	1.511106	0.000179
 453	4.4974e+01	18.0075	58.976497	0.000385	3.851862	1.305046	0.000154
 454	4.5074e+01	18.0444	59.093574	0.000294	2.939579	0.995956	0.000118
 455	4.5173e+01	18.0893	59.263134	0.000426	4.257321	1.442419	0.000170
 456	4.5273e+01	18.1182	59.392322	0.000324	3.243673	1.098986	0.000130
 457	4.5372e+01	18.1583	59.590142	0.000497	4.966874	1.682823	0.000199
 458	4.5471e+01	18.2016	59.739516	0.000375	3.750497	1.270703	0.000150
 459	4.5571e+01	18.2401	59.856593	0.000294	2.939579	0.995956	0.000118
 460	4.5670e+01	18.2818	60.034227	0.000446	4.460050	1.511106	0.000179
 461	4.5770e+01	18.3235	60.155341	0.000304	3.040943	1.030300	0.000122
 462	4.5870e+01	18.3572	60.337012	0.000456	4.561415	1.545449	0.000183
 463	4.5969e+01	18.4102	60.474275	0.000345	3.446403	1.167673	0.000138
 464	4.6069e+01	18.4439	60.651909	0.000446	4.460050	1.511106	0.000179
 465	4.6168e+01	18.4727	60.801283	0.000375	3.750497	1.270703	0.000150
 466	4.6267e+01	18.5369	60.914323	0.000284	2.838214	0.961613	0.000114
 467	4.6367e+01	18.5738	61.091957	0.000446	4.460050	1.511106	0.000179
 468	4.6467e+01	18.6043	61.225182	0.000335	3.345038	1.133329	0.000134
 469	4.6566e+01	18.6380	61.398779	0.000436	4.358686	1.476763	0.000174
 470	4.6666e+01	18.6749	61.527967	0.000324	3.243673	1.098986	0.000130
 471	4.6765e+01	18.7230	61.701564	0.000436	4.358686	1.476763	0.000174
 472	4.6864e+01	18.7631	61.826715	0.000314	3.142308	1.064643	0.000126
 473	4.6964e+01	18.8016	61.980126	0.000385	3.851862	1.305046	0.000154
 474	4.7063e+01	18.8481	62.153723	0.000436	4.358686	1.476763	0.000174
 475	4.7163e+01	18.8850	62.311172	0.000395	3.953226	1.339389	0.000158
 476	4.7263e+01	18.9299	62.448434	0.000345	3.446403	1.167673	0.000138
 477	4.7362e+01	18.9620	62.622031	0.000436	4.358686	1.476763	0.000174
 478	4.7462e+01	19.0086	62.779479	0.000395	3.953226	1.339389	0.000158
 479	4.7561e+01	19.0390	62.904631	0.000314	3.142308	1.064643	0.000126
 480	4.7660e+01	19.0807	63.054005	0.000375	3.750497	1.270703	0.000150
 481	4.7760e+01	19.1176	63.211453	0.000395	3.953226	1.339389	0.000158
 482	4.7859e+01	19.1642	63.340641	0.000324	3.243673	1.098986	0.000130
 483	4.7959e+01	19.1962	63.522312	0.000456	4.561415	1.545449	0.000183
 484	4.8059e+01	19.2299	63.663612	0.000355	3.547767	1.202016	0.000142
 485	4.8158e+01	19.2877	63.829135	0.000416	4.155956	1.408076	0.000166
 486	4.8258e+01	19.3230	63.986583	0.000395	3.953226	1.339389	0.000158
 487	4.8357e+01	19.3599	64.119808	0.000335	3.345038	1.133329	0.000134
 488	4.8456e+01	19.4000	64.289368	0.000426	4.257321	1.442419	0.000170
 489	4.8556e+01	19.4433	64.430668	0.000355	3.547767	1.202016	0.000142
 490	4.8656e+01	19.4818	64.571968	0.000355	3.547767	1.202016	0.000142
 491	4.8755e+01	19.5139	64.733453	0.000405	4.054591	1.373733	0.000162
 492	4.8855e+01	19.5684	64.903013	0.000426	4.257321	1.442419	0.000170
 493	4.8954e+01	19.5973	65.036238	0.000335	3.345038	1.133329	0.000134
 494	4.9053e+01	19.6390	65.189649	0.000385	3.851862	1.305046	0.000154
 495	4.9153e+01	19.6711	65.334986	0.000365	3.649132	1.236359	0.000146
 496	4.9252e+01	19.7208	65.480323	0.000365	3.649132	1.236359	0.000146
 497	4.9352e+01	19.7561	65.653920	0.000436	4.358686	1.476763	0.000174
 498	4.9452e+01	19.7930	65.803294	0.000375	3.750497	1.270703	0.000150
 499	4.9551e+01	19.8299	65.936519	0.000335	3.345038	1.133329	0.000134
 500	4.9651e+01	19.8764	66.093968	0.000395	3.953226	1.339389	0.000158
 501	4.9750e+01	19.9246	66.223156	0.000324	3.243673	1.098986	0.000130
 502	4.9849e+01	19.9518	66.408864	0.000466	4.662780	1.579793	0.000187
 503	4.9949e+01	19.9968	66.566313	0.000395	3.953226	1.339389	0.000158
 504	5.0048e+01	19.9695	66.477496	0.000223	2.230025	0.755553	-0.000089
 505	5.0148e+01	19.9149	66.425013	0.000132	1.317742	0.446463	-0.000053
 506	5.0248e+01	19.8684	66.303899	0.000304	3.040943	1.030300	-0.000122
 507	5.0347e+01	19.8347	66.186822	0.000294	2.939579	0.995956	-0.000118
 508	5.0447e+01	19.8091	66.126265	0.000152	1.520472	0.515150	-0.000061
 509	5.0546e+01	19.7625	66.029374	0.000243	2.432755	0.824240	-0.000097
 510	5.0645e+01	19.7224	65.932482	0.000243	2.432755	0.824240	-0.000097
 511	5.0745e+01	19.6791	65.835591	0.000243	2.432755	0.824240	-0.000097
 512	5.0844e+01	19.6406	65.742737	0.000233	2.331390	0.789896	-0.000093
 513	5.0944e+01	19.5941	65.645846	0.000243	2.432755	0.824240	-0.000097
 514	5.1044e+01	19.5604	65.565103	0.000203	2.027296	0.686866	-0.000081
 515	5.1143e+01	19.5203	65.435915	0.000324	3.243673	1.098986	-0.000130
 516	5.1242e+01	19.4834	65.351135	0.000213	2.128660	0.721210	-0.000085
 517	5.1342e+01	19.4465	65.282503	0.000172	1.723201	0.583836	-0.000069
 518	5.1441e+01	19.4048	65.181575	0.000253	2.534120	0.858583	-0.000101
 519	5.1541e+01	19.3583	65.072572	0.000274	2.736849	0.927270	-0.000110
 520	5.1641e+01	19.3214	64.971644	0.000253	2.534120	0.858583	-0.000101
 521	5.1740e+01	19.2829	64.890901	0.000203	2.027296	0.686866	-0.000081
 522	5.1840e+01	19.2412	64.789973	0.000253	2.534120	0.858583	-0.000101
 523	5.1939e+01	19.2043	64.713267	0.000193	1.925931	0.652523	-0.000077
 524	5.2038e+01	19.1610	64.600228	0.000284	2.838214	0.961613	-0.000114
 525	5.2138e+01	19.1241	64.462965	0.000345	3.446403	1.167673	-0.000138
 526	5.2237e+01	19.0872	64.418556	0.000112	1.115013	0.377776	-0.000045
 527	5.2337e+01	19.0487	64.277257	0.000355	3.547767	1.202016	-0.000142
 528	5.2437e+01	18.9989	64.200551	0.000193	1.925931	0.652523	-0.000077
 529	5.2536e+01	18.9668	64.099623	0.000253	2.534120	0.858583	-0.000101
 530	5.2636e+01	18.9235	64.006769	0.000233	2.331390	0.789896	-0.000093
 531	5.2735e+01	18.8898	63.897766	0.000274	2.736849	0.927270	-0.000110
 532	5.2834e+01	18.8497	63.780689	0.000294	2.939579	0.995956	-0.000118
 533	5.2934e+01	18.8016	63.695909	0.000213	2.128660	0.721210	-0.000085
 534	5.3033e+01	18.7631	63.603055	0.000233	2.331390	0.789896	-0.000093
 535	5.3133e+01	18.7214	63.477904	0.000314	3.142308	1.064643	-0.000126
 536	5.3233e+01	18.6909	63.376975	0.000253	2.534120	0.858583	-0.000101
 537	5.3332e+01	18.6412	63.276047	0.000253	2.534120	0.858583	-0.000101
 538	5.3431e+01	18.5995	63.150896	0.000314	3.142308	1.064643	-0.000126
 539	5.3531e+01	18.5642	63.070153	0.000203	2.027296	0.686866	-0.000081
 540	5.3630e+01	18.5225	62.957113	0.000284	2.838214	0.961613	-0.000114
 541	5.3730e+01	18.4792	62.835999	0.000304	3.040943	1.030300	-0.000122
 542	5.3830e+01	18.4358	62.739108	0.000243	2.432755	0.824240	-0.000097
 543	5.3929e+01	18.4006	62.622031	0.000294	2.939579	0.995956	-0.000118
 544	5.4029e+01	18.3508	62.496880	0.000314	3.142308	1.064643	-0.000126
 545	5.4128e+01	18.3187	62.436323	0.000152	1.520472	0.515150	-0.000061
 546	5.4227e+01	18.2883	62.335394	0.000253	2.534120	0.858583	-0.000101
 547	5.4327e+01	18.2353	62.206206	0.000324	3.243673	1.098986	-0.000130
 548	5.4426e+01	18.2032	62.105278	0.000253	2.534120	0.858583	-0.000101
 549	5.4526e+01	18.1599	62.020498	0.000213	2.128660	0.721210	-0.000085
 550	5.4626e+01	18.1230	61.895347	0.000314	3.142308	1.064643	-0.000126
 551	5.4725e+01	18.0797	61.782307	0.000284	2.838214	0.961613	-0.000114
 552	5.4825e+01	18.0476	61.697527	0.000213	2.128660	0.721210	-0.000085
 553	5.4924e+01	18.0027	61.552190	0.000365	3.649132	1.236359	-0.000146
 554	5.5023e+01	17.9610	61.418965	0.000335	3.345038	1.133329	-0.000134
 555	5.5123e+01	17.9257	61.350333	0.000172	1.723201	0.583836	-0.000069
 556	5.5222e+01	17.8952	61.249405	0.000253	2.534120	0.858583	-0.000101
 557	5.5322e+01	17.8519	61.144439	0.000264	2.635484	0.892926	-0.000105
 558	5.5422e+01	17.8086	61.031400	0.000284	2.838214	0.961613	-0.000114
 559	5.5521e+01	17.7685	60.942583	0.000223	2.230025	0.755553	-0.000089
 560	5.5620e+01	17.7236	60.797246	0.000365	3.649132	1.236359	-0.000146
 561	5.5720e+01	17.6851	60.744763	0.000132	1.317742	0.446463	-0.000053
 562	5.5819e+01	17.6498	60.607500	0.000345	3.446403	1.167673	-0.000138
 563	5.5919e+01	17.5984	60.498498	0.000274	2.736849	0.927270	-0.000110
 564	5.6019e+01	17.5647	60.341049	0.000395	3.953226	1.339389	-0.000158
 565	5.6118e+01	17.5311	60.272418	0.000172	1.723201	0.583836	-0.000069
 566	5.6218e+01	17.4990	60.151304	0.000304	3.040943	1.030300	-0.000122
 567	5.6317e+01	17.4557	60.030190	0.000304	3.040943	1.030300	-0.000122
 568	5.6416e+01	17.4075	59.953484	0.000193	1.925931	0.652523	-0.000077
 569	5.6516e+01	17.3738	59.824296	0.000324	3.243673	1.098986	-0.000130
 570	5.6615e+01	17.3385	59.699145	0.000314	3.142308	1.064643	-0.000126
 571	5.6715e+01	17.2824	59.557845	0.000355	3.547767	1.202016	-0.000142
 572	5.6815e+01	17.2551	59.469028	0.000223	2.230025	0.755553	-0.000089
 573	5.6914e+01	17.2086	59.404434	0.000162	1.621836	0.549493	-0.000065
 574	5.7014e+01	17.1701	59.279283	0.000314	3.142308	1.064643	-0.000126
 575	5.7113e+01	17.1252	59.121834	0.000395	3.953226	1.339389	-0.000158
 576	5.7212e+01	17.0947	59.024943	0.000243	2.432755	0.824240	-0.000097
 577	5.7312e+01	17.0546	58.915940	0.000274	2.736849	0.927270	-0.000110
 578	5.7411e+01	17.0161	58.778678	0.000345	3.446403	1.167673	-0.000138
 579	5.7511e+01	16.9632	58.685824	0.000233	2.331390	0.789896	-0.000093
 580	5.7611e+01	16.9263	58.584895	0.000253	2.534120	0.858583	-0.000101
 581	5.7710e+01	16.8862	58.471855	0.000284	2.838214	0.961613	-0.000114
 582	5.7809e+01	16.8493	58.350741	0.000304	3.040943	1.030300	-0.000122
 583	5.7909e+01	16.8092	58.209442	0.000355	3.547767	1.202016	-0.000142
 584	5.8008e+01	16.7706	58.116588	0.000233	2.331390	0.789896	-0.000093
 585	5.8108e+01	16.7241	57.971251	0.000365	3.649132	1.236359	-0.000146
 586	5.8208e+01	16.6872	57.886471	0.000213	2.128660	0.721210	-0.000085
 587	5.8307e+01	16.6455	57.761320	0.000314	3.142308	1.064643	-0.000126
 588	5.8407e+01	16.6054	57.632131	0.000324	3.243673	1.098986	-0.000130
 589	5.8506e+01	16.5733	57.523129	0.000274	2.736849	0.927270	-0.000110
 590	5.8605e+01	16.5284	57.422200	0.000253	2.534120	0.858583	-0.000101
 591	5.8705e+01	16.4947	57.293012	0.000324	3.243673	1.098986	-0.000130
 592	5.8804e+01	16.4498	57.192083	0.000253	2.534120	0.858583	-0.000101
 593	5.8904e+01	16.4113	57.087118	0.000264	2.635484	0.892926	-0.000105
 594	5.9004e+01	16.3664	56.961967	0.000314	3.142308	1.064643	-0.000126
 595	5.9103e+01	16.3183	56.840853	0.000304	3.040943	1.030300	-0.000122
 596	5.9203e+01	16.2894	56.735887	0.000264	2.635484	0.892926	-0.000105
 597	5.9302e+01	16.2573	56.602662	0.000335	3.345038	1.133329	-0.000134
 598	5.9401e+01	16.2156	56.453288	0.000375	3.750497	1.270703	-0.000150
 599	5.9501e+01	16.1707	56.320062	0.000335	3.345038	1.133329	-0.000134
 600	5.9600e+01	16.1322	56.198948	0.000304	3.040943	1.030300	-0.000122
 601	5.9700e+01	16.0856	56.102057	0.000243	2.432755	0.824240	-0.000097
 602	5.9800e+01	16.0600	55.948646	0.000385	3.851862	1.305046	-0.000154
 603	5.9899e+01	16.0135	55.823494	0.000314	3.142308	1.064643	-0.000126
 604	5.9998e+01	15.9766	55.710455	0.000284	2.838214	0.961613	-0.000114
 605	6.0098e+01	15.9429	55.577229	0.000335	3.345038	1.133329	-0.000134
 606	6.0197e+01	15.8947	55.492449	0.000213	2.128660	0.721210	-0.000085
 607	6.0297e+01	15.8562	55.322890	0.000426	4.257321	1.442419	-0.000170
 608	6.0397e+01	15.8145	55.205813	0.000294	2.939579	0.995956	-0.000118
 609	6.0496e+01	15.7776	55.108921	0.000243	2.432755	0.824240	-0.000097
 610	6.0596e+01	15.7343	54.955510	0.000385	3.851862	1.305046	-0.000154
 611	6.0695e+01	15.7022	54.822285	0.000335	3.345038	1.133329	-0.000134
 612	6.0794e+01	15.6589	54.689059	0.000335	3.345038	1.133329	-0.000134
 613	6.0894e+01	15.6076	54.592168	0.000243	2.432755	0.824240	-0.000097
 614	6.0993e+01	15.5739	54.462980	0.000324	3.243673	1.098986	-0.000130
 615	6.1093e+01	15.5418	54.341866	0.000304	3.040943	1.030300	-0.000122
 616	6.1193e+01	15.5017	54.184417	0.000395	3.953226	1.339389	-0.000158
 617	6.1292e+01	15.4616	54.091563	0.000233	2.331390	0.789896	-0.000093
 618	6.1392e+01	15.4135	53.930078	0.000405	4.054591	1.373733	-0.000162
 619	6.1491e+01	15.3718	53.829149	0.000253	2.534120	0.858583	-0.000101
 620	6.1590e+01	15.3365	53.667664	0.000405	4.054591	1.373733	-0.000162
 621	6.1690e+01	15.2899	53.518290	0.000375	3.750497	1.270703	-0.000150
 622	6.1789e+01	15.2563	53.433510	0.000213	2.128660	0.721210	-0.000085
 623	6.1889e+01	15.2178	53.308359	0.000314	3.142308	1.064643	-0.000126
 624	6.1989e+01	15.1712	53.187245	0.000304	3.040943	1.030300	-0.000122
 625	6.2088e+01	15.1391	53.066131	0.000304	3.040943	1.030300	-0.000122
 626	6.2188e+01	15.1006	52.997499	0.000172	1.723201	0.583836	-0.000069
 627	6.2287e+01	15.0525	52.827940	0.000426	4.257321	1.442419	-0.000170
 628	6.2386e+01	15.0156	52.674529	0.000385	3.851862	1.305046	-0.000154
 629	6.2486e+01	14.9787	52.573600	0.000253	2.534120	0.858583	-0.000101
 630	6.2586e+01	14.9434	52.448449	0.000314	3.142308	1.064643	-0.000126
 631	6.2685e+01	14.9001	52.315223	0.000335	3.345038	1.133329	-0.000134
 632	6.2785e+01	14.8504	52.181998	0.000335	3.345038	1.133329	-0.000134
 633	6.2884e+01	14.8231	52.016475	0.000416	4.155956	1.408076	-0.000166
 634	6.2983e+01	14.7734	51.895361	0.000304	3.040943	1.030300	-0.000122
 635	6.3083e+01	14.7285	51.782322	0.000284	2.838214	0.961613	-0.000114
 636	6.3182e+01	14.7044	51.693505	0.000223	2.230025	0.755553	-0.000089
 637	6.3282e+01	14.6531	51.564316	0.000324	3.243673	1.098986	-0.000130
 638	6.3382e+01	14.6194	51.398794	0.000416	4.155956	1.408076	-0.000166
 639	6.3481e+01	14.5745	51.314014	0.000213	2.128660	0.721210	-0.000085
 640	6.3581e+01	14.5392	51.148491	0.000416	4.155956	1.408076	-0.000166
 641	6.3680e+01	14.4958	51.047563	0.000253	2.534120	0.858583	-0.000101
 642	6.3779e+01	14.4702	50.914337	0.000335	3.345038	1.133329	-0.000134
 643	6.3879e+01	14.4140	50.785149	0.000324	3.243673	1.098986	-0.000130
 644	6.3978e+01	14.3755	50.647886	0.000345	3.446403	1.167673	-0.000138
 645	6.4078e+01	14.3338	50.571181	0.000193	1.925931	0.652523	-0.000077
 646	6.4177e+01	14.2937	50.429881	0.000355	3.547767	1.202016	-0.000142
 647	6.4277e+01	14.2616	50.276470	0.000385	3.851862	1.305046	-0.000154
 648	6.4376e+01	14.2103	50.114984	0.000405	4.054591	1.373733	-0.000162
 649	6.4476e+01	14.1878	50.042316	0.000182	1.824566	0.618180	-0.000073
 650	6.4576e+01	14.1493	49.905053	0.000345	3.446403	1.167673	-0.000138
 651	6.4675e+01	14.1044	49.787976	0.000294	2.939579	0.995956	-0.000118
 652	6.4775e+01	14.0579	49.687048	0.000253	2.534120	0.858583	-0.000101
 653	6.4874e+01	14.0226	49.533637	0.000385	3.851862	1.305046	-0.000154
 654	6.4974e+01	13.9857	49.416560	0.000294	2.939579	0.995956	-0.000118
 655	6.5073e+01	13.9392	49.255075	0.000405	4.054591	1.373733	-0.000162
 656	6.5172e+01	13.9071	49.142035	0.000284	2.838214	0.961613	-0.000114
 657	6.5272e+01	13.8670	48.972475	0.000426	4.257321	1.442419	-0.000170
 658	6.5371e+01	13.8173	48.879621	0.000233	2.331390	0.789896	-0.000093
 659	6.5471e+01	13.7755	48.774655	0.000264	2.635484	0.892926	-0.000105
 660	6.5570e+01	13.7515	48.588947	0.000466	4.662780	1.579793	-0.000187
 661	6.5670e+01	13.7066	48.483982	0.000264	2.635484	0.892926	-0.000105
 662	6.5769e+01	13.6536	48.387090	0.000243	2.432755	0.824240	-0.000097
 663	6.5869e+01	13.6199	48.249828	0.000345	3.446403	1.167673	-0.000138
 664	6.5969e+01	13.5895	48.112565	0.000345	3.446403	1.167673	-0.000138
 665	6.6068e+01	13.5461	47.975303	0.000345	3.446403	1.167673	-0.000138
 666	6.6168e+01	13.5076	47.858226	0.000294	2.939579	0.995956	-0.000118
 667	6.6267e+01	13.4691	47.720963	0.000345	3.446403	1.167673	-0.000138
 668	6.6367e+01	13.4178	47.587738	0.000335	3.345038	1.133329	-0.000134
 669	6.6466e+01	13.3889	47.470661	0.000294	2.939579	0.995956	-0.000118
 670	6.6566e+01	13.3360	47.349547	0.000304	3.040943	1.030300	-0.000122
 671	6.6665e+01	13.3023	47.200172	0.000375	3.750497	1.270703	-0.000150
 672	6.6764e+01	13.2638	47.103281	0.000243	2.432755	0.824240	-0.000097
 673	6.6864e+01	13.2269	46.945833	0.000395	3.953226	1.339389	-0.000158
 674	6.6963e+01	13.1868	46.804533	0.000355	3.547767	1.202016	-0.000142
 675	6.7063e+01	13.1371	46.639011	0.000416	4.155956	1.408076	-0.000166
 676	6.7162e+01	13.1082	46.521934	0.000294	2.939579	0.995956	-0.000118
 677	6.7262e+01	13.0633	46.412931	0.000274	2.736849	0.927270	-0.000110
 678	6.7362e+01	13.0360	46.239334	0.000436	4.358686	1.476763	-0.000174
 679	6.7461e+01	12.9879	46.122257	0.000294	2.939579	0.995956	-0.000118
 680	6.7561e+01	12.9446	45.972883	0.000375	3.750497	1.270703	-0.000150
 681	6.7660e+01	12.9125	45.892141	0.000203	2.027296	0.686866	-0.000081
 682	6.7760e+01	12.8659	45.787175	0.000264	2.635484	0.892926	-0.000105
 683	6.7859e+01	12.8339	45.617615	0.000426	4.257321	1.442419	-0.000170
 684	6.7959e+01	12.7938	45.504575	0.000284	2.838214	0.961613	-0.000114
 685	6.8058e+01	12.7488	45.395573	0.000274	2.736849	0.927270	-0.000110
 686	6.8157e+01	12.7071	45.238125	0.000395	3.953226	1.339389	-0.000158
 687	6.8257e+01	12.6606	45.112973	0.000314	3.142308	1.064643	-0.000126
 688	6.8356e+01	12.6285	44.975711	0.000345	3.446403	1.167673	-0.000138
 689	6.8456e+01	12.5804	44.866708	0.000274	2.736849	0.927270	-0.000110
 690	6.8555e+01	12.5483	44.733483	0.000335	3.345038	1.133329	-0.000134
 691	6.8655e+01	12.5082	44.624480	0.000274	2.736849	0.927270	-0.000110
 692	6.8754e+01	12.4713	44.507403	0.000294	2.939579	0.995956	-0.000118
 693	6.8854e+01	12.4248	44.366103	0.000355	3.547767	1.202016	-0.000142
 694	6.8954e+01	12.3911	44.216729	0.000375	3.750497	1.270703	-0.000150
 695	6.9053e+01	12.3494	44.075429	0.000355	3.547767	1.202016	-0.000142
 696	6.9153e+01	12.3061	43.978538	0.000243	2.432755	0.824240	-0.000097
 697	6.9252e+01	12.2756	43.841276	0.000345	3.446403	1.167673	-0.000138
 698	6.9352e+01	12.2259	43.732273	0.000274	2.736849	0.927270	-0.000110
 699	6.9451e+01	12.1954	43.534453	0.000497	4.966874	1.682823	-0.000199
 700	6.9550e+01	12.1537	43.473896	0.000152	1.520472	0.515150	-0.000061
 701	6.9650e+01	12.1087	43.320485	0.000385	3.851862	1.305046	-0.000154
 702	6.9749e+01	12.0686	43.199371	0.000304	3.040943	1.030300	-0.000122
 703	6.9849e+01	12.0205	43.086331	0.000284	2.838214	0.961613	-0.000114
 704	6.9948e+01	11.9916	42.953106	0.000335	3.345038	1.133329	-0.000134
 705	7.0048e+01	11.9467	42.791620	0.000405	4.054591	1.373733	-0.000162
 706	7.0147e+01	11.9162	42.682618	0.000274	2.736849	0.927270	-0.000110
 707	7.0247e+01	11.8681	42.533244	0.000375	3.750497	1.270703	-0.000150
 708	7.0347e+01	11.8248	42.404055	0.000324	3.243673	1.098986	-0.000130
 709	7.0446e+01	11.7879	42.250644	0.000385	3.851862	1.305046	-0.000154
 710	7.0546e+01	11.7510	42.149716	0.000253	2.534120	0.858583	-0.000101
 711	7.0645e+01	11.7189	42.004379	0.000365	3.649132	1.236359	-0.000146
 712	7.0745e+01	11.6740	41.867116	0.000345	3.446403	1.167673	-0.000138
 713	7.0844e+01	11.6371	41.750039	0.000294	2.939579	0.995956	-0.000118
 714	7.0944e+01	11.5906	41.616814	0.000335	3.345038	1.133329	-0.000134
 715	7.1043e+01	11.5505	41.467440	0.000375	3.750497	1.270703	-0.000150
 716	7.1142e+01	11.5120	41.322103	0.000365	3.649132	1.236359	-0.000146
 717	7.1242e+01	11.4815	41.209063	0.000284	2.838214	0.961613	-0.000114
 718	7.1341e+01	11.4253	41.112172	0.000243	2.432755	0.824240	-0.000097
 719	7.1441e+01	11.3917	40.930501	0.000456	4.561415	1.545449	-0.000183
 720	7.1540e+01	11.3516	40.809387	0.000304	3.040943	1.030300	-0.000122
 721	7.1640e+01	11.3130	40.664050	0.000365	3.649132	1.236359	-0.000146
 722	7.1740e+01	11.2649	40.534861	0.000324	3.243673	1.098986	-0.000130
 723	7.1839e+01	11.2409	40.417784	0.000294	2.939579	0.995956	-0.000118
 724	7.1939e+01	11.1991	40.280522	0.000345	3.446403	1.167673	-0.000138
 725	7.2038e+01	11.1494	40.155371	0.000314	3.142308	1.064643	-0.000126
 726	7.2138e+01	11.1045	40.014071	0.000355	3.547767	1.202016	-0.000142
 727	7.2237e+01	11.0740	39.876808	0.000345	3.446403	1.167673	-0.000138
 728	7.2337e+01	11.0371	39.759731	0.000294	2.939579	0.995956	-0.000118
 729	7.2436e+01	10.9938	39.626506	0.000335	3.345038	1.133329	-0.000134
 730	7.2535e+01	10.9537	39.501355	0.000314	3.142308	1.064643	-0.000126
 731	7.2635e+01	10.9200	39.343906	0.000395	3.953226	1.339389	-0.000158
 732	7.2734e+01	10.8751	39.190495	0.000385	3.851862	1.305046	-0.000154
 733	7.2834e+01	10.8318	39.085530	0.000264	2.635484	0.892926	-0.000105
 734	7.2933e+01	10.8013	38.944230	0.000355	3.547767	1.202016	-0.000142
 735	7.3033e+01	10.7596	38.819079	0.000314	3.142308	1.064643	-0.000126
 736	7.3132e+01	10.7163	38.653556	0.000416	4.155956	1.408076	-0.000166
 737	7.3232e+01	10.6778	38.576851	0.000193	1.925931	0.652523	-0.000077
 738	7.3332e+01	10.6393	38.411328	0.000416	4.155956	1.408076	-0.000166
 739	7.3431e+01	10.5927	38.282140	0.000324	3.243673	1.098986	-0.000130
 740	7.3531e+01	10.5526	38.185248	0.000243	2.432755	0.824240	-0.000097
 741	7.3630e+01	10.5157	38.023763	0.000405	4.054591	1.373733	-0.000162
 742	7.3730e+01	10.4805	37.862278	0.000405	4.054591	1.373733	-0.000162
 743	7.3829e+01	10.4275	37.716941	0.000365	3.649132	1.236359	-0.000146
 744	7.3928e+01	10.3906	37.607938	0.000274	2.736849	0.927270	-0.000110
 745	7.4028e+01	10.3585	37.466638	0.000355	3.547767	1.202016	-0.000142
 746	7.4127e+01	10.3232	37.325338	0.000355	3.547767	1.202016	-0.000142
 747	7.4227e+01	10.2799	37.208262	0.000294	2.939579	0.995956	-0.000118
 748	7.4326e+01	10.2382	37.087147	0.000304	3.040943	1.030300	-0.000122
 749	7.4426e+01	10.1917	36.957959	0.000324	3.243673	1.098986	-0.000130
 750	7.4525e+01	10.1500	36.824734	0.000335	3.345038	1.133329	-0.000134
 751	7.4625e+01	10.1163	36.647100	0.000446	4.460050	1.511106	-0.000179
 752	7.4725e+01	10.0810	36.542134	0.000264	2.635484	0.892926	-0.000105
 753	7.4824e+01	10.0313	36.388723	0.000385	3.851862	1.305046	-0.000154
 754	7.4924e+01	9.9928	36.251460	0.000345	3.446403	1.167673	-0.000138
 755	7.5023e+01	9.9575	36.146495	0.000264	2.635484	0.892926	-0.000105
 756	7.5123e+01	9.9190	35.997121	0.000375	3.750497	1.270703	-0.000150
 757	7.5222e+01	9.8789	35.884081	0.000284	2.838214	0.961613	-0.000114
 758	7.5322e+01	9.8388	35.722596	0.000405	4.054591	1.373733	-0.000162
 759	7.5421e+01	9.8003	35.609556	0.000284	2.838214	0.961613	-0.000114
 760	7.5520e+01	9.7602	35.464219	0.000365	3.649132	1.236359	-0.000146
 761	7.5620e+01	9.7152	35.363290	0.000253	2.534120	0.858583	-0.000101
 762	7.5719e+01	9.6799	35.185657	0.000446	4.460050	1.511106	-0.000179
 763	7.5819e+01	9.6398	35.072617	0.000284	2.838214	0.961613	-0.000114
 764	7.5918e+01	9.5965	34.919206	0.000385	3.851862	1.305046	-0.000154
 765	7.6018e+01	9.5580	34.790017	0.000324	3.243673	1.098986	-0.000130
 766	7.6118e+01	9.5243	34.689089	0.000253	2.534120	0.858583	-0.000101
 767	7.6217e+01	9.4778	34.531641	0.000395	3.953226	1.339389	-0.000158
 768	7.6317e+01	9.4457	34.418601	0.000284	2.838214	0.961613	-0.000114
 769	7.6416e+01	9.4024	34.253078	0.000416	4.155956	1.408076	-0.000166
 770	7.6516e+01	9.3671	34.127927	0.000314	3.142308	1.064643	-0.000126
 771	7.6615e+01	9.3190	33.946256	0.000456	4.561415	1.545449	-0.000183
 772	7.6715e+01	9.2821	33.821105	0.000314	3.142308	1.064643	-0.000126
 773	7.6814e+01	9.2436	33.687879	0.000335	3.345038	1.133329	-0.000134
 774	7.6913e+01	9.1955	33.582914	0.000264	2.635484	0.892926	-0.000105
 775	7.7013e+01	9.1698	33.397205	0.000466	4.662780	1.579793	-0.000187
 776	7.7112e+01	9.1169	33.272054	0.000314	3.142308	1.064643	-0.000126
 777	7.7212e+01	9.0784	33.150940	0.000304	3.040943	1.030300	-0.000122
 778	7.7311e+01	9.0447	32.981380	0.000426	4.257321	1.442419	-0.000170
 779	7.7411e+01	9.0030	32.852192	0.000324	3.243673	1.098986	-0.000130
 780	7.7510e+01	8.9580	32.743189	0.000274	2.736849	0.927270	-0.000110
 781	7.7610e+01	8.9211	32.557481	0.000466	4.662780	1.579793	-0.000187
 782	7.7710e+01	8.8858	32.432330	0.000314	3.142308	1.064643	-0.000126
 783	7.7809e+01	8.8473	32.303142	0.000324	3.243673	1.098986	-0.000130
 784	7.7909e+01	8.8056	32.169916	0.000335	3.345038	1.133329	-0.000134
 785	7.8008e+01	8.7639	32.008431	0.000405	4.054591	1.373733	-0.000162
 786	7.8108e+01	8.7222	31.859057	0.000375	3.750497	1.270703	-0.000150
 787	7.8207e+01	8.6869	31.778314	0.000203	2.027296	0.686866	-0.000081
 788	7.8306e+01	8.6404	31.641051	0.000345	3.446403	1.167673	-0.000138
 789	7.8406e+01	8.6035	31.451306	0.000476	4.764145	1.614136	-0.000191
 790	7.8505e+01	8.5650	31.293858	0.000395	3.953226	1.339389	-0.000158
 791	7.8605e+01	8.5281	31.172744	0.000304	3.040943	1.030300	-0.000122
 792	7.8704e+01	8.4848	31.035481	0.000345	3.446403	1.167673	-0.000138
 793	7.8804e+01	8.4415	30.906293	0.000324	3.243673	1.098986	-0.000130
 794	7.8903e+01	8.4078	30.764993	0.000355	3.547767	1.202016	-0.000142
 795	7.9003e+01	8.3661	30.627730	0.000345	3.446403	1.167673	-0.000138
 796	7.9103e+01	8.3212	30.486431	0.000355	3.547767	1.202016	-0.000142
 797	7.9202e+01	8.2827	30.308797	0.000446	4.460050	1.511106	-0.000179
 798	7.9302e+01	8.2490	30.215942	0.000233	2.331390	0.789896	-0.000093
 799	7.9401e+01	8.1976	30.058494	0.000395	3.953226	1.339389	-0.000158
 800	7.9501e+01	8.1607	29.925269	0.000335	3.345038	1.133329	-0.000134
 801	7.9600e+01	8.1367	29.751672	0.000436	4.358686	1.476763	-0.000174
 802	7.9700e+01	8.0837	29.674966	0.000193	1.925931	0.652523	-0.000077
 803	7.9799e+01	8.0484	29.513481	0.000405	4.054591	1.373733	-0.000162
 804	7.9898e+01	7.9955	29.343921	0.000426	4.257321	1.442419	-0.000170
 805	7.9998e+01	7.9586	29.267216	0.000193	1.925931	0.652523	-0.000077
 806	8.0097e+01	7.9313	29.101693	0.000416	4.155956	1.408076	-0.000166
 807	8.0197e+01	7.8960	28.928096	0.000436	4.358686	1.476763	-0.000174
 808	8.0296e+01	7.8543	28.815056	0.000284	2.838214	0.961613	-0.000114
 809	8.0396e+01	7.7998	28.693942	0.000304	3.040943	1.030300	-0.000122
 810	8.0496e+01	7.7581	28.520345	0.000436	4.358686	1.476763	-0.000174
 811	8.0595e+01	7.7388	28.411343	0.000274	2.736849	0.927270	-0.000110
 812	8.0695e+01	7.6811	28.270043	0.000355	3.547767	1.202016	-0.000142
 813	8.0794e+01	7.6442	28.132780	0.000345	3.446403	1.167673	-0.000138
 814	8.0894e+01	7.6025	27.971295	0.000405	4.054591	1.373733	-0.000162
 815	8.0993e+01	7.5784	27.846144	0.000314	3.142308	1.064643	-0.000126
 816	8.1093e+01	7.5239	27.688695	0.000395	3.953226	1.339389	-0.000158
 817	8.1192e+01	7.4886	27.555470	0.000335	3.345038	1.133329	-0.000134
 818	8.1291e+01	7.4420	27.418207	0.000345	3.446403	1.167673	-0.000138
 819	8.1391e+01	7.4180	27.293056	0.000314	3.142308	1.064643	-0.000126
 820	8.1490e+01	7.3666	27.103311	0.000476	4.764145	1.614136	-0.000191
 821	8.1590e+01	7.3233	27.002382	0.000253	2.534120	0.858583	-0.000101
 822	8.1689e+01	7.2896	26.869157	0.000335	3.345038	1.133329	-0.000134
 823	8.1789e+01	7.2399	26.707671	0.000405	4.054591	1.373733	-0.000162
 824	8.1888e+01	7.2110	26.598669	0.000274	2.736849	0.927270	-0.000110
 825	8.1988e+01	7.1645	26.429109	0.000426	4.257321	1.442419	-0.000170
 826	8.2088e+01	7.1260	26.271661	0.000395	3.953226	1.339389	-0.000158
 827	8.2187e+01	7.0891	26.178807	0.000233	2.331390	0.789896	-0.000093
 828	8.2287e+01	7.0378	26.029433	0.000375	3.750497	1.270703	-0.000150
 829	8.2386e+01	7.0105	25.896207	0.000335	3.345038	1.133329	-0.000134
 830	8.2486e+01	6.9688	25.775093	0.000304	3.040943	1.030300	-0.000122
 831	8.2585e+01	6.9287	25.585348	0.000476	4.764145	1.614136	-0.000191
 832	8.2684e+01	6.8902	25.411751	0.000436	4.358686	1.476763	-0.000174
 833	8.2784e+01	6.8453	25.310823	0.000253	2.534120	0.858583	-0.000101
 834	8.2883e+01	6.8164	25.197783	0.000284	2.838214	0.961613	-0.000114
 835	8.2983e+01	6.7763	25.016112	0.000456	4.561415	1.545449	-0.000183
 836	8.3082e+01	6.7249	24.882886	0.000335	3.345038	1.133329	-0.000134
 837	8.3182e+01	6.6848	24.741586	0.000355	3.547767	1.202016	-0.000142
 838	8.3281e+01	6.6463	24.596249	0.000365	3.649132	1.236359	-0.000146
 839	8.3381e+01	6.6046	24.454950	0.000355	3.547767	1.202016	-0.000142
 840	8.3481e+01	6.5693	24.277316	0.000446	4.460050	1.511106	-0.000179
 841	8.3580e+01	6.5340	24.164276	0.000284	2.838214	0.961613	-0.000114
 842	8.3680e+01	6.4907	24.055273	0.000274	2.736849	0.927270	-0.000110
 843	8.3779e+01	6.4554	23.897825	0.000395	3.953226	1.339389	-0.000158
 844	8.3879e+01	6.4153	23.740377	0.000395	3.953226	1.339389	-0.000158
 845	8.3978e+01	6.3784	23.599077	0.000355	3.547767	1.202016	-0.000142
 846	8.4078e+01	6.3255	23.465851	0.000335	3.345038	1.133329	-0.000134
 847	8.4177e+01	6.2918	23.292255	0.000436	4.358686	1.476763	-0.000174
 848	8.4276e+01	6.2549	23.167103	0.000314	3.142308	1.064643	-0.000126
 849	8.4376e+01	6.2148	23.001581	0.000416	4.155956	1.408076	-0.000166
 850	8.4475e+01	6.1651	22.900652	0.000253	2.534120	0.858583	-0.000101
 851	8.4575e+01	6.1378	22.735130	0.000416	4.155956	1.408076	-0.000166
 852	8.4674e+01	6.0961	22.634202	0.000253	2.534120	0.858583	-0.000101
 853	8.4774e+01	6.0576	22.472716	0.000405	4.054591	1.373733	-0.000162
 854	8.4874e+01	6.0079	22.303156	0.000426	4.257321	1.442419	-0.000170
 855	8.4973e+01	5.9694	22.178005	0.000314	3.142308	1.064643	-0.000126
 856	8.5073e+01	5.9341	22.040743	0.000345	3.446403	1.167673	-0.000138
 857	8.5172e+01	5.8956	21.895406	0.000365	3.649132	1.236359	-0.000146
 858	8.5272e+01	5.8554	21.790440	0.000264	2.635484	0.892926	-0.000105
 859	8.5371e+01	5.8218	21.600695	0.000476	4.764145	1.614136	-0.000191
 860	8.5471e+01	5.7801	21.487655	0.000284	2.838214	0.961613	-0.000114
 861	8.5570e+01	5.7448	21.346355	0.000355	3.547767	1.202016	-0.000142
 862	8.5669e+01	5.6886	21.237353	0.000274	2.736849	0.927270	-0.000110
 863	8.5769e+01	5.6678	21.075867	0.000405	4.054591	1.373733	-0.000162
 864	8.5868e+01	5.6148	20.954753	0.000304	3.040943	1.030300	-0.000122
 865	8.5968e+01	5.5811	20.797305	0.000395	3.953226	1.339389	-0.000158
 866	8.6067e+01	5.5266	20.664079	0.000335	3.345038	1.133329	-0.000134
 867	8.6167e+01	5.4945	20.518742	0.000365	3.649132	1.236359	-0.000146
 868	8.6266e+01	5.4512	20.349183	0.000426	4.257321	1.442419	-0.000170
 869	8.6366e+01	5.4175	20.232106	0.000294	2.939579	0.995956	-0.000118
 870	8.6466e+01	5.3806	20.106955	0.000314	3.142308	1.064643	-0.000126
 871	8.6565e+01	5.3389	19.969692	0.000345	3.446403	1.167673	-0.000138
 872	8.6665e+01	5.2876	19.820318	0.000375	3.750497	1.270703	-0.000150
 873	8.6764e+01	5.2539	19.670944	0.000375	3.750497	1.270703	-0.000150
 874	8.6864e+01	5.2138	19.517533	0.000385	3.851862	1.305046	-0.000154
 875	8.6963e+01	5.1801	19.412567	0.000264	2.635484	0.892926	-0.000105
 876	8.7063e+01	5.1368	19.259156	0.000385	3.851862	1.305046	-0.000154
 877	8.7162e+01	5.0950	19.125931	0.000335	3.345038	1.133329	-0.000134
 878	8.7261e+01	5.0581	19.008854	0.000294	2.939579	0.995956	-0.000118
 879	8.7361e+01	5.0164	18.786811	0.000558	5.575063	1.888882	-0.000223
 880	8.7460e+01	4.9827	18.681846	0.000264	2.635484	0.892926	-0.000105
 881	8.7560e+01	4.9346	18.536509	0.000365	3.649132	1.236359	-0.000146
 882	8.7659e+01	4.9073	18.387135	0.000375	3.750497	1.270703	-0.000150
 883	8.7759e+01	4.8592	18.270058	0.000294	2.939579	0.995956	-0.000118
 884	8.7859e+01	4.8191	18.104535	0.000416	4.155956	1.408076	-0.000166
 885	8.7958e+01	4.7838	17.983421	0.000304	3.040943	1.030300	-0.000122
 886	8.8058e+01	4.7389	17.834047	0.000375	3.750497	1.270703	-0.000150
 887	8.8157e+01	4.7036	17.696785	0.000345	3.446403	1.167673	-0.000138
 888	8.8257e+01	4.6635	17.519151	0.000446	4.460050	1.511106	-0.000179
 889	8.8356e+01	4.6138	17.398036	0.000304	3.040943	1.030300	-0.000122
 890	8.8456e+01	4.5785	17.301145	0.000243	2.432755	0.824240	-0.000097
 891	8.8555e+01	4.5352	17.151771	0.000375	3.750497	1.270703	-0.000150
 892	8.8654e+01	4.4983	16.998360	0.000385	3.851862	1.305046	-0.000154
 893	8.8754e+01	4.4582	16.844949	0.000385	3.851862	1.305046	-0.000154
 894	8.8853e+01	4.4116	16.707686	0.000345	3.446403	1.167673	-0.000138
 895	8.8953e+01	4.3812	16.542164	0.000416	4.155956	1.408076	-0.000166
 896	8.9052e+01	4.3411	16.433161	0.000274	2.736849	0.927270	-0.000110
 897	8.9152e+01	4.3026	16.275713	0.000395	3.953226	1.339389	-0.000158
 898	8.9251e+01	4.2673	16.154599	0.000304	3.040943	1.030300	-0.000122
 899	8.9351e+01	4.2127	15.976965	0.000446	4.460050	1.511106	-0.000179
 900	8.9451e+01	4.1790	15.835665	0.000355	3.547767	1.202016	-0.000142
 901	8.9550e+01	4.1437	15.734737	0.000253	2.534120	0.858583	-0.000101
 902	8.9650e+01	4.0908	15.532880	0.000507	5.068239	1.717166	-0.000203
 903	8.9749e+01	4.0619	15.399654	0.000335	3.345038	1.133329	-0.000134
 904	8.9849e+01	4.0234	15.302763	0.000243	2.432755	0.824240	-0.000097
 905	8.9948e+01	3.9865	15.149352	0.000385	3.851862	1.305046	-0.000154
 906	9.0047e+01	3.9368	14.975755	0.000436	4.358686	1.476763	-0.000174
 907	9.0147e+01	3.9079	14.834455	0.000355	3.547767	1.202016	-0.000142
 908	9.0246e+01	3.8614	14.685081	0.000375	3.750497	1.270703	-0.000150
 909	9.0346e+01	3.8261	14.555893	0.000324	3.243673	1.098986	-0.000130
 910	9.0445e+01	3.7780	14.394407	0.000405	4.054591	1.373733	-0.000162
 911	9.0545e+01	3.7395	14.269256	0.000314	3.142308	1.064643	-0.000126
 912	9.0644e+01	3.7058	14.091622	0.000446	4.460050	1.511106	-0.000179
 913	9.0744e+01	3.6737	13.974545	0.000294	2.939579	0.995956	-0.000118
 914	9.0844e+01	3.6320	13.837283	0.000345	3.446403	1.167673	-0.000138
 915	9.0943e+01	3.5839	13.704057	0.000335	3.345038	1.133329	-0.000134
 916	9.1043e+01	3.5421	13.530460	0.000436	4.358686	1.476763	-0.000174
 917	9.1142e+01	3.5069	13.401272	0.000324	3.243673	1.098986	-0.000130
 918	9.1242e+01	3.4651	13.247861	0.000385	3.851862	1.305046	-0.000154
 919	9.1341e+01	3.4266	13.155007	0.000233	2.331390	0.789896	-0.000093
 920	9.1441e+01	3.3833	12.985447	0.000426	4.257321	1.442419	-0.000170
 921	9.1540e+01	3.3416	12.860296	0.000314	3.142308	1.064643	-0.000126
 922	9.1639e+01	3.3159	12.698810	0.000405	4.054591	1.373733	-0.000162
 923	9.1739e+01	3.2726	12.565585	0.000335	3.345038	1.133329	-0.000134
 924	9.1838e+01	3.2309	12.452545	0.000284	2.838214	0.961613	-0.000114
 925	9.1938e+01	3.1828	12.335468	0.000294	2.939579	0.995956	-0.000118
 926	9.2037e+01	3.1475	12.145723	0.000476	4.764145	1.614136	-0.000191
 927	9.2137e+01	3.0962	11.980200	0.000416	4.155956	1.408076	-0.000166
 928	9.2237e+01	3.0673	11.838901	0.000355	3.547767	1.202016	-0.000142
 929	9.2336e+01	3.0240	11.725861	0.000284	2.838214	0.961613	-0.000114
 930	9.2436e+01	2.9855	11.556301	0.000426	4.257321	1.442419	-0.000170
 931	9.2535e+01	2.9470	11.435187	0.000304	3.040943	1.030300	-0.000122
 932	9.2635e+01	2.9037	11.285813	0.000375	3.750497	1.270703	-0.000150
 933	9.2734e+01	2.8684	11.104142	0.000456	4.561415	1.545449	-0.000183
 934	9.2834e+01	2.8267	10.974954	0.000324	3.243673	1.098986	-0.000130
 935	9.2933e+01	2.7898	10.845765	0.000324	3.243673	1.098986	-0.000130
 936	9.3032e+01	2.7416	10.684280	0.000405	4.054591	1.373733	-0.000162
 937	9.3132e+01	2.7112	10.547017	0.000345	3.446403	1.167673	-0.000138
 938	9.3231e+01	2.6743	10.442052	0.000264	2.635484	0.892926	-0.000105
 939	9.3331e+01	2.6358	10.260380	0.000456	4.561415	1.545449	-0.000183
 940	9.3430e+01	2.5876	10.106969	0.000385	3.851862	1.305046	-0.000154
 941	9.3530e+01	2.5491	9.989892	0.000294	2.939579	0.995956	-0.000118
 942	9.3629e+01	2.5154	9.788036	0.000507	5.068239	1.717166	-0.000203
 943	9.3729e+01	2.4641	9.695181	0.000233	2.331390	0.789896	-0.000093
 944	9.3829e+01	2.4368	9.509473	0.000466	4.662780	1.579793	-0.000187
 945	9.3928e+01	2.3967	9.380285	0.000324	3.243673	1.098986	-0.000130
 946	9.4028e+01	2.3470	9.255134	0.000314	3.142308	1.064643	-0.000126
 947	9.4127e+01	2.3085	9.089611	0.000416	4.155956	1.408076	-0.000166
 948	9.4227e+01	2.2732	8.972534	0.000294	2.939579	0.995956	-0.000118
 949	9.4326e+01	2.2251	8.778752	0.000487	4.865509	1.648479	-0.000195
 950	9.4425e+01	2.1850	8.653600	0.000314	3.142308	1.064643	-0.000126
 951	9.4525e+01	2.1497	8.480004	0.000436	4.358686	1.476763	-0.000174
 952	9.4624e+01	2.1176	8.334667	0.000365	3.649132	1.236359	-0.000146
 953	9.4724e+01	2.0695	8.217590	0.000294	2.939579	0.995956	-0.000118
 954	9.4823e+01	2.0278	8.039956	0.000446	4.460050	1.511106	-0.000179
 955	9.4923e+01	1.9925	7.914805	0.000314	3.142308	1.064643	-0.000126
 956	9.5022e+01	1.9491	7.745245	0.000426	4.257321	1.442419	-0.000170
 957	9.5122e+01	1.9090	7.620094	0.000314	3.142308	1.064643	-0.000126
 958	9.5222e+01	1.8689	7.474757	0.000365	3.649132	1.236359	-0.000146
 959	9.5321e+01	1.8352	7.333457	0.000355	3.547767	1.202016	-0.000142
 960	9.5421e+01	1.7951	7.188120	0.000365	3.649132	1.236359	-0.000146
 961	9.5520e+01	1.7582	7.010486	0.000446	4.460050	1.511106	-0.000179
 962	9.5620e+01	1.7069	6.913595	0.000243	2.432755	0.824240	-0.000097
 963	9.5719e+01	1.6684	6.711738	0.000507	5.068239	1.717166	-0.000203
 964	9.5819e+01	1.6267	6.659255	0.000132	1.317742	0.446463	-0.000053
 965	9.5918e+01	1.5818	6.453361	0.000517	5.169604	1.751509	-0.000207
 966	9.6017e+01	1.5497	6.283802	0.000426	4.257321	1.442419	-0.000170
 967	9.6117e+01	1.5112	6.150576	0.000335	3.345038	1.133329	-0.000134
 968	9.6216e+01	1.4759	5.997165	0.000385	3.851862	1.305046	-0.000154
 969	9.6316e+01	1.4214	5.851828	0.000365	3.649132	1.236359	-0.000146
 970	9.6415e+01	1.4005	5.746863	0.000264	2.635484	0.892926	-0.000105
 971	9.6515e+01	1.3508	5.605563	0.000355	3.547767	1.202016	-0.000142
 972	9.6615e+01	1.3123	5.444078	0.000405	4.054591	1.373733	-0.000162
 973	9.6714e+01	1.2706	5.286629	0.000395	3.953226	1.339389	-0.000158
 974	9.6814e+01	1.2337	5.125144	0.000405	4.054591	1.373733	-0.000162
 975	9.6913e+01	1.1952	5.004030	0.000304	3.040943	1.030300	-0.000122
 976	9.7013e+01	1.1486	4.854656	0.000375	3.750497	1.270703	-0.000150
 977	9.7112e+01	1.1101	4.717393	0.000345	3.446403	1.167673	-0.000138
 978	9.7212e+01	1.0796	4.555908	0.000405	4.054591	1.373733	-0.000162
 979	9.7311e+01	1.0235	4.438831	0.000294	2.939579	0.995956	-0.000118
 980	9.7410e+01	0.9914	4.297531	0.000355	3.547767	1.202016	-0.000142
 981	9.7510e+01	0.9529	4.132008	0.000416	4.155956	1.408076	-0.000166
 982	9.7609e+01	0.9080	3.982634	0.000375	3.750497	1.270703	-0.000150
 983	9.7709e+01	0.8727	3.857483	0.000314	3.142308	1.064643	-0.000126
 984	9.7808e+01	0.8310	3.700035	0.000395	3.953226	1.339389	-0.000158
 985	9.7908e+01	0.7925	3.546624	0.000385	3.851862	1.305046	-0.000154
 986	9.8007e+01	0.7508	3.425510	0.000304	3.040943	1.030300	-0.000122
 987	9.8107e+01	0.7187	3.300358	0.000314	3.142308	1.064643	-0.000126
 988	9.8207e+01	0.6738	3.130799	0.000426	4.257321	1.442419	-0.000170
 989	9.8306e+01	0.6273	2.957202	0.000436	4.358686	1.476763	-0.000174
 990	9.8406e+01	0.5968	2.819939	0.000345	3.446403	1.167673	-0.000138
 991	9.8505e+01	0.5519	2.686714	0.000335	3.345038	1.133329	-0.000134
 992	9.8605e+01	0.5246	2.585785	0.000253	2.534120	0.858583	-0.000101
 993	9.8704e+01	0.4716	2.424300	0.000405	4.054591	1.373733	-0.000162
 994	9.8803e+01	0.4444	2.266852	0.000395	3.953226	1.339389	-0.000158
 995	9.8903e+01	0.3995	2.129589	0.000345	3.446403	1.167673	-0.000138
 996	9.9002e+01	0.3561	1.980215	0.000375	3.750497	1.270703	-0.000150
 997	9.9102e+01	0.3257	1.830841	0.000375	3.750497	1.270703	-0.000150
 998	9.9201e+01	0.2743	1.645133	0.000466	4.662780	1.579793	-0.000187
 999	9.9301e+01	0.2374	1.503833	0.000355	3.547767	1.202016	-0.000142
1000	9.9400e+01	0.1925	1.386756	0.000294	2.939579	0.995956	-0.000118
1001	9.9500e+01	0.1572	1.225271	0.000405	4.054591	1.373733	-0.000162
1002	9.9600e+01	0.1171	1.112231	0.000284	2.838214	0.961613	-0.000114
1003	9.9699e+01	0.0834	0.946708	0.000416	4.155956	1.408076	-0.000166
1004	9.9799e+01	0.0401	0.769074	0.000446	4.460050	1.511106	-0.000179
1005	9.9898e+01	0.0128	0.692369	0.000193	1.925931	0.652523	-0.000077
1006	9.9998e+01	-0.0289	0.514735	0.000446	4.460050	1.511106	-0.000179
1007	1.0010e+02	-0.0802	0.405732	0.000274	2.736849	0.927270	-0.000110
1008	1.0020e+02	-0.1155	0.248284	0.000395	3.953226	1.339389	-0.000158
1009	1.0030e+02	-0.1540	0.078724	0.000426	4.257321	1.442419	-0.000170
1010	1.0040e+02	-0.1909	-0.050464	0.000324	3.243673	1.098986	-0.000130
1011	1.0050e+02	-0.2390	-0.199838	0.000375	3.750497	1.270703	-0.000150
1012	1.0059e+02	-0.2839	-0.337101	0.000345	3.446403	1.167673	-0.000138
1013	1.0069e+02	-0.3144	-0.506661	0.000426	4.257321	1.442419	-0.000170
1014	1.0079e+02	-0.3577	-0.631812	0.000314	3.142308	1.064643	-0.000126
1015	1.0089e+02	-0.3914	-0.809446	0.000446	4.460050	1.511106	-0.000179
1016	1.0099e+02	-0.4380	-0.926523	0.000294	2.939579	0.995956	-0.000118
1017	1.0109e+02	-0.4700	-1.047637	0.000304	3.040943	1.030300	-0.000122
1018	1.0119e+02	-0.5118	-1.229308	0.000456	4.561415	1.545449	-0.000183
1019	1.0129e+02	-0.5535	-1.334273	0.000264	2.635484	0.892926	-0.000105
1020	1.0139e+02	-0.5855	-1.528056	0.000487	4.865509	1.648479	-0.000195
1021	1.0149e+02	-0.6273	-1.624947	0.000243	2.432755	0.824240	-0.000097
1022	1.0159e+02	-0.6722	-1.786433	0.000405	4.054591	1.373733	-0.000162
1023	1.0169e+02	-0.7123	-1.927732	0.000355	3.547767	1.202016	-0.000142
1024	1.0179e+02	-0.7492	-2.056921	0.000324	3.243673	1.098986	-0.000130
1025	1.0189e+02	-0.7909	-2.210332	0.000385	3.851862	1.305046	-0.000154
1026	1.0199e+02	-0.8390	-2.355669	0.000365	3.649132	1.236359	-0.000146
1027	1.0209e+02	-0.8727	-2.452560	0.000243	2.432755	0.824240	-0.000097
1028	1.0219e+02	-0.9080	-2.618083	0.000416	4.155956	1.408076	-0.000166
1029	1.0229e+02	-0.9449	-2.747271	0.000324	3.243673	1.098986	-0.000130
1030	1.0239e+02	-0.9914	-2.880496	0.000335	3.345038	1.133329	-0.000134
1031	1.0248e+02	-1.0347	-3.070242	0.000476	4.764145	1.614136	-0.000191
1032	1.0258e+02	-1.0716	-3.179244	0.000274	2.736849	0.927270	-0.000110
1033	1.0268e+02	-1.1149	-3.324581	0.000365	3.649132	1.236359	-0.000146
1034	1.0278e+02	-1.1470	-3.473955	0.000375	3.750497	1.270703	-0.000150
1035	1.0288e+02	-1.1952	-3.627366	0.000385	3.851862	1.305046	-0.000154
1036	1.0298e+02	-1.2240	-3.752518	0.000314	3.142308	1.064643	-0.000126
1037	1.0308e+02	-1.2754	-3.918040	0.000416	4.155956	1.408076	-0.000166
1038	1.0318e+02	-1.3155	-4.031080	0.000284	2.838214	0.961613	-0.000114
1039	1.0328e+02	-1.3508	-4.184491	0.000385	3.851862	1.305046	-0.000154
1040	1.0338e+02	-1.3893	-4.277345	0.000233	2.331390	0.789896	-0.000093
1041	1.0348e+02	-1.4342	-4.438831	0.000405	4.054591	1.373733	-0.000162
1042	1.0358e+02	-1.4727	-4.612428	0.000436	4.358686	1.476763	-0.000174
1043	1.0368e+02	-1.5080	-4.733542	0.000304	3.040943	1.030300	-0.000122
1044	1.0378e+02	-1.5545	-4.907138	0.000436	4.358686	1.476763	-0.000174
1045	1.0388e+02	-1.5882	-5.028253	0.000304	3.040943	1.030300	-0.000122
1046	1.0398e+02	-1.6267	-5.177627	0.000375	3.750497	1.270703	-0.000150
1047	1.0408e+02	-1.6716	-5.331038	0.000385	3.851862	1.305046	-0.000154
1048	1.0418e+02	-1.7037	-5.440040	0.000274	2.736849	0.927270	-0.000110
1049	1.0428e+02	-1.7454	-5.613637	0.000436	4.358686	1.476763	-0.000174
1050	1.0438e+02	-1.7807	-5.746863	0.000335	3.345038	1.133329	-0.000134
1051	1.0447e+02	-1.8272	-5.876051	0.000324	3.243673	1.098986	-0.000130
1052	1.0457e+02	-1.8721	-6.013314	0.000345	3.446403	1.167673	-0.000138
1053	1.0467e+02	-1.9074	-6.150576	0.000345	3.446403	1.167673	-0.000138
1054	1.0477e+02	-1.9411	-6.336285	0.000466	4.662780	1.579793	-0.000187
1055	1.0487e+02	-1.9828	-6.453361	0.000294	2.939579	0.995956	-0.000118
1056	1.0497e+02	-2.0261	-6.582550	0.000324	3.243673	1.098986	-0.000130
1057	1.0507e+02	-2.0679	-6.756147	0.000436	4.358686	1.476763	-0.000174
1058	1.0517e+02	-2.1048	-6.865149	0.000274	2.736849	0.927270	-0.000110
1059	1.0527e+02	-2.1561	-6.998375	0.000335	3.345038	1.133329	-0.000134
1060	1.0537e+02	-2.1818	-7.147749	0.000375	3.750497	1.270703	-0.000150
1061	1.0547e+02	-2.2251	-7.301160	0.000385	3.851862	1.305046	-0.000154
1062	1.0557e+02	-2.2716	-7.442460	0.000355	3.547767	1.202016	-0.000142
1063	1.0567e+02	-2.3021	-7.603945	0.000405	4.054591	1.373733	-0.000162
1064	1.0577e+02	-2.3438	-7.757356	0.000385	3.851862	1.305046	-0.000154
1065	1.0587e+02	-2.3823	-7.866359	0.000274	2.736849	0.927270	-0.000110
1066	1.0597e+02	-2.4320	-7.991510	0.000314	3.142308	1.064643	-0.000126
1067	1.0607e+02	-2.4625	-8.165107	0.000436	4.358686	1.476763	-0.000174
1068	1.0617e+02	-2.5026	-8.302370	0.000345	3.446403	1.167673	-0.000138
1069	1.0627e+02	-2.5459	-8.423484	0.000304	3.040943	1.030300	-0.000122
1070	1.0637e+02	-2.5924	-8.584969	0.000405	4.054591	1.373733	-0.000162
1071	1.0647e+02	-2.6342	-8.738380	0.000385	3.851862	1.305046	-0.000154
1072	1.0656e+02	-2.6566	-8.899866	0.000405	4.054591	1.373733	-0.000162
1073	1.0666e+02	-2.6935	-9.012906	0.000284	2.838214	0.961613	-0.000114
1074	1.0676e+02	-2.7529	-9.158242	0.000365	3.649132	1.236359	-0.000146
1075	1.0686e+02	-2.7833	-9.238985	0.000203	2.027296	0.686866	-0.000081
1076	1.0696e+02	-2.8202	-9.481213	0.000608	6.081887	2.060599	-0.000243
1077	1.0706e+02	-2.8652	-9.594253	0.000284	2.838214	0.961613	-0.000114
1078	1.0716e+02	-2.9117	-9.723441	0.000324	3.243673	1.098986	-0.000130
1079	1.0726e+02	-2.9422	-9.897038	0.000436	4.358686	1.476763	-0.000174
1080	1.0736e+02	-2.9726	-10.006041	0.000274	2.736849	0.927270	-0.000110
1081	1.0746e+02	-3.0144	-10.171563	0.000416	4.155956	1.408076	-0.000166
1082	1.0756e+02	-3.0641	-10.333049	0.000405	4.054591	1.373733	-0.000162
1083	1.0766e+02	-3.1090	-10.429940	0.000243	2.432755	0.824240	-0.000097
1084	1.0776e+02	-3.1507	-10.583351	0.000385	3.851862	1.305046	-0.000154
1085	1.0786e+02	-3.1860	-10.724651	0.000355	3.547767	1.202016	-0.000142
1086	1.0796e+02	-3.2245	-10.825579	0.000253	2.534120	0.858583	-0.000101
1087	1.0806e+02	-3.2678	-11.003213	0.000446	4.460050	1.511106	-0.000179
1088	1.0816e+02	-3.3031	-11.132402	0.000324	3.243673	1.098986	-0.000130
1089	1.0826e+02	-3.3400	-11.281776	0.000375	3.750497	1.270703	-0.000150
1090	1.0836e+02	-3.3769	-11.406927	0.000314	3.142308	1.064643	-0.000126
1091	1.0845e+02	-3.4218	-11.548227	0.000355	3.547767	1.202016	-0.000142
1092	1.0855e+02	-3.4555	-11.677415	0.000324	3.243673	1.098986	-0.000130
1093	1.0865e+02	-3.5036	-11.798529	0.000304	3.040943	1.030300	-0.000122
1094	1.0875e+02	-3.5357	-11.960015	0.000405	4.054591	1.373733	-0.000162
1095	1.0885e+02	-3.5806	-12.097277	0.000345	3.446403	1.167673	-0.000138
1096	1.0895e+02	-3.6191	-12.238577	0.000355	3.547767	1.202016	-0.000142
1097	1.0905e+02	-3.6641	-12.379877	0.000355	3.547767	1.202016	-0.000142
1098	1.0915e+02	-3.6929	-12.500991	0.000304	3.040943	1.030300	-0.000122
1099	1.0925e+02	-3.7411	-12.678625	0.000446	4.460050	1.511106	-0.000179
1100	1.0935e+02	-3.7812	-12.815887	0.000345	3.446403	1.167673	-0.000138
1101	1.0945e+02	-3.8213	-12.941039	0.000314	3.142308	1.064643	-0.000126
1102	1.0955e+02	-3.8646	-13.098487	0.000395	3.953226	1.339389	-0.000158
1103	1.0965e+02	-3.8951	-13.272084	0.000436	4.358686	1.476763	-0.000174
1104	1.0975e+02	-3.9352	-13.364938	0.000233	2.331390	0.789896	-0.000093
1105	1.0985e+02	-3.9737	-13.522386	0.000395	3.953226	1.339389	-0.000158
1106	1.0995e+02	-4.0170	-13.695983	0.000436	4.358686	1.476763	-0.000174
1107	1.1005e+02	-4.0555	-13.796911	0.000253	2.534120	0.858583	-0.000101
1108	1.1015e+02	-4.1020	-13.986657	0.000476	4.764145	1.614136	-0.000191
1109	1.1025e+02	-4.1485	-14.099697	0.000284	2.838214	0.961613	-0.000114
1110	1.1035e+02	-4.1822	-14.245033	0.000365	3.649132	1.236359	-0.000146
1111	1.1044e+02	-4.2175	-14.378259	0.000335	3.345038	1.133329	-0.000134
1112	1.1054e+02	-4.2528	-14.535707	0.000395	3.953226	1.339389	-0.000158
1113	1.1064e+02	-4.2929	-14.664896	0.000324	3.243673	1.098986	-0.000130
1114	1.1074e+02	-4.3314	-14.822344	0.000395	3.953226	1.339389	-0.000158
1115	1.1084e+02	-4.3731	-14.939421	0.000294	2.939579	0.995956	-0.000118
1116	1.1094e+02	-4.4197	-15.121092	0.000456	4.561415	1.545449	-0.000183
1117	1.1104e+02	-4.4550	-15.226057	0.000264	2.635484	0.892926	-0.000105
1118	1.1114e+02	-4.5047	-15.399654	0.000436	4.358686	1.476763	-0.000174
1119	1.1124e+02	-4.5320	-15.508657	0.000274	2.736849	0.927270	-0.000110
1120	1.1134e+02	-4.5737	-15.690328	0.000456	4.561415	1.545449	-0.000183
1121	1.1144e+02	-4.6170	-15.819516	0.000324	3.243673	1.098986	-0.000130
1122	1.1154e+02	-4.6539	-15.985039	0.000416	4.155956	1.408076	-0.000166
1123	1.1164e+02	-4.7020	-16.122302	0.000345	3.446403	1.167673	-0.000138
1124	1.1174e+02	-4.7357	-16.255527	0.000335	3.345038	1.133329	-0.000134
1125	1.1184e+02	-4.7822	-16.352418	0.000243	2.432755	0.824240	-0.000097
1126	1.1194e+02	-4.8175	-16.530052	0.000446	4.460050	1.511106	-0.000179
1127	1.1204e+02	-4.8496	-16.707686	0.000446	4.460050	1.511106	-0.000179
1128	1.1214e+02	-4.9009	-16.816689	0.000274	2.736849	0.927270	-0.000110
1129	1.1224e+02	-4.9378	-16.945877	0.000324	3.243673	1.098986	-0.000130
1130	1.1234e+02	-4.9779	-17.099288	0.000385	3.851862	1.305046	-0.000154
1131	1.1244e+02	-5.0196	-17.240588	0.000355	3.547767	1.202016	-0.000142
1132	1.1253e+02	-5.0501	-17.410148	0.000426	4.257321	1.442419	-0.000170
1133	1.1263e+02	-5.0966	-17.515113	0.000264	2.635484	0.892926	-0.000105
1134	1.1273e+02	-5.1400	-17.640265	0.000314	3.142308	1.064643	-0.000126
1135	1.1283e+02	-5.1769	-17.834047	0.000487	4.865509	1.648479	-0.000195
1136	1.1293e+02	-5.2234	-17.930938	0.000243	2.432755	0.824240	-0.000097
1137	1.1303e+02	-5.2571	-18.072238	0.000355	3.547767	1.202016	-0.000142
1138	1.1313e+02	-5.2956	-18.237761	0.000416	4.155956	1.408076	-0.000166
1139	1.1323e+02	-5.3357	-18.379060	0.000355	3.547767	1.202016	-0.000142
1140	1.1333e+02	-5.3694	-18.471915	0.000233	2.331390	0.789896	-0.000093
1141	1.1343e+02	-5.4111	-18.645511	0.000436	4.358686	1.476763	-0.000174
1142	1.1353e+02	-5.4512	-18.782774	0.000345	3.446403	1.167673	-0.000138
1143	1.1363e+02	-5.4961	-18.944259	0.000405	4.054591	1.373733	-0.000162
1144	1.1373e+02	-5.5266	-19.061336	0.000294	2.939579	0.995956	-0.000118
1145	1.1383e+02	-5.5747	-19.218785	0.000395	3.953226	1.339389	-0.000158
1146	1.1393e+02	-5.6132	-19.295490	0.000193	1.925931	0.652523	-0.000077
1147	1.1403e+02	-5.6517	-19.477161	0.000456	4.561415	1.545449	-0.000183
1148	1.1413e+02	-5.6966	-19.626535	0.000375	3.750497	1.270703	-0.000150
1149	1.1423e+02	-5.7383	-19.755724	0.000324	3.243673	1.098986	-0.000130
1150	1.1433e+02	-5.7768	-19.905098	0.000375	3.750497	1.270703	-0.000150
1151	1.1442e+02	-5.8121	-20.054472	0.000375	3.750497	1.270703	-0.000150
1152	1.1452e+02	-5.8538	-20.191734	0.000345	3.446403	1.167673	-0.000138
1153	1.1462e+02	-5.8907	-20.369368	0.000446	4.460050	1.511106	-0.000179
1154	1.1472e+02	-5.9308	-20.474334	0.000264	2.635484	0.892926	-0.000105
1155	1.1482e+02	-5.9774	-20.611597	0.000345	3.446403	1.167673	-0.000138
1156	1.1492e+02	-6.0127	-20.756933	0.000365	3.649132	1.236359	-0.000146
1157	1.1502e+02	-6.0576	-20.869973	0.000284	2.838214	0.961613	-0.000114
1158	1.1512e+02	-6.0977	-20.983013	0.000284	2.838214	0.961613	-0.000114
1159	1.1522e+02	-6.1298	-21.140461	0.000395	3.953226	1.339389	-0.000158
1160	1.1532e+02	-6.1635	-21.326170	0.000466	4.662780	1.579793	-0.000187
1161	1.1542e+02	-6.2052	-21.471506	0.000365	3.649132	1.236359	-0.000146
1162	1.1552e+02	-6.2501	-21.584546	0.000284	2.838214	0.961613	-0.000114
1163	1.1562e+02	-6.2934	-21.725846	0.000355	3.547767	1.202016	-0.000142
1164	1.1572e+02	-6.3303	-21.859071	0.000335	3.345038	1.133329	-0.000134
1165	1.1582e+02	-6.3672	-21.968074	0.000274	2.736849	0.927270	-0.000110
1166	1.1592e+02	-6.4041	-22.125522	0.000395	3.953226	1.339389	-0.000158
1167	1.1602e+02	-6.4554	-22.270859	0.000365	3.649132	1.236359	-0.000146
1168	1.1612e+02	-6.4811	-22.412159	0.000355	3.547767	1.202016	-0.000142
1169	1.1622e+02	-6.5196	-22.545385	0.000335	3.345038	1.133329	-0.000134
1170	1.1632e+02	-6.5629	-22.674573	0.000324	3.243673	1.098986	-0.000130
1171	1.1642e+02	-6.6030	-22.840095	0.000416	4.155956	1.408076	-0.000166
1172	1.1651e+02	-6.6479	-22.985432	0.000365	3.649132	1.236359	-0.000146
1173	1.1661e+02	-6.6880	-23.110584	0.000314	3.142308	1.064643	-0.000126
1174	1.1671e+02	-6.7233	-23.251883	0.000355	3.547767	1.202016	-0.000142
1175	1.1681e+02	-6.7618	-23.413369	0.000405	4.054591	1.373733	-0.000162
1176	1.1691e+02	-6.8036	-23.522371	0.000274	2.736849	0.927270	-0.000110
1177	1.1701e+02	-6.8517	-23.700005	0.000446	4.460050	1.511106	-0.000179
1178	1.1711e+02	-6.8870	-23.780748	0.000203	2.027296	0.686866	-0.000081
1179	1.1721e+02	-6.9287	-23.954345	0.000436	4.358686	1.476763	-0.000174
1180	1.1731e+02	-6.9656	-24.119867	0.000416	4.155956	1.408076	-0.000166
1181	1.1741e+02	-7.0041	-24.208684	0.000223	2.230025	0.755553	-0.000089
1182	1.1751e+02	-7.0394	-24.390356	0.000456	4.561415	1.545449	-0.000183
1183	1.1761e+02	-7.0875	-24.547804	0.000395	3.953226	1.339389	-0.000158
1184	1.1771e+02	-7.1212	-24.693141	0.000365	3.649132	1.236359	-0.000146
1185	1.1781e+02	-7.1693	-24.814255	0.000304	3.040943	1.030300	-0.000122
1186	1.1791e+02	-7.2094	-24.899035	0.000213	2.128660	0.721210	-0.000085
1187	1.1801e+02	-7.2431	-25.032260	0.000335	3.345038	1.133329	-0.000134
1188	1.1811e+02	-7.2816	-25.165486	0.000335	3.345038	1.133329	-0.000134
1189	1.1821e+02	-7.3201	-25.351194	0.000466	4.662780	1.579793	-0.000187
1190	1.1831e+02	-7.3682	-25.448085	0.000243	2.432755	0.824240	-0.000097
1191	1.1841e+02	-7.4019	-25.597459	0.000375	3.750497	1.270703	-0.000150
1192	1.1850e+02	-7.4452	-25.698388	0.000253	2.534120	0.858583	-0.000101
1193	1.1860e+02	-7.4837	-25.851799	0.000385	3.851862	1.305046	-0.000154
1194	1.1870e+02	-7.5239	-25.997136	0.000365	3.649132	1.236359	-0.000146
1195	1.1880e+02	-7.5607	-26.170732	0.000436	4.358686	1.476763	-0.000174
1196	1.1890e+02	-7.6073	-26.283772	0.000284	2.838214	0.961613	-0.000114
1197	1.1900e+02	-7.6570	-26.404886	0.000304	3.040943	1.030300	-0.000122
1198	1.1910e+02	-7.6811	-26.509852	0.000264	2.635484	0.892926	-0.000105
1199	1.1920e+02	-7.7212	-26.675374	0.000416	4.155956	1.408076	-0.000166
1200	1.1930e+02	-7.7629	-26.812637	0.000345	3.446403	1.167673	-0.000138
1201	1.1940e+02	-7.8030	-26.897417	0.000213	2.128660	0.721210	-0.000085
1202	1.1950e+02	-7.8431	-27.058902	0.000405	4.054591	1.373733	-0.000162
1203	1.1960e+02	-7.8880	-27.200202	0.000355	3.547767	1.202016	-0.000142
1204	1.1970e+02	-7.9201	-27.333428	0.000335	3.345038	1.133329	-0.000134
1205	1.1980e+02	-7.9602	-27.478764	0.000365	3.649132	1.236359	-0.000146
1206	1.1990e+02	-7.9971	-27.636213	0.000395	3.953226	1.339389	-0.000158
1207	1.2000e+02	-8.0484	-27.749252	0.000284	2.838214	0.961613	-0.000114
1208	1.2010e+02	-8.0693	-27.898627	0.000375	3.750497	1.270703	-0.000150
1209	1.2020e+02	-8.1303	-28.007629	0.000274	2.736849	0.927270	-0.000110
1210	1.2030e+02	-8.1575	-28.152966	0.000365	3.649132	1.236359	-0.000146
1211	1.2039e+02	-8.2024	-28.298303	0.000365	3.649132	1.236359	-0.000146
1212	1.2049e+02	-8.2425	-28.431528	0.000335	3.345038	1.133329	-0.000134
1213	1.2059e+02	-8.2827	-28.552643	0.000304	3.040943	1.030300	-0.000122
1214	1.2069e+02	-8.3212	-28.693942	0.000355	3.547767	1.202016	-0.000142
1215	1.2079e+02	-8.3468	-28.863502	0.000426	4.257321	1.442419	-0.000170
1216	1.2089e+02	-8.3966	-28.960393	0.000243	2.432755	0.824240	-0.000097
1217	1.2099e+02	-8.4399	-29.049210	0.000223	2.230025	0.755553	-0.000089
1218	1.2109e+02	-8.4784	-29.210696	0.000405	4.054591	1.373733	-0.000162
1219	1.2119e+02	-8.5217	-29.351995	0.000355	3.547767	1.202016	-0.000142
1220	1.2129e+02	-8.5602	-29.509444	0.000395	3.953226	1.339389	-0.000158
1221	1.2139e+02	-8.5971	-29.622483	0.000284	2.838214	0.961613	-0.000114
1222	1.2149e+02	-8.6388	-29.800117	0.000446	4.460050	1.511106	-0.000179
1223	1.2159e+02	-8.6757	-29.913157	0.000284	2.838214	0.961613	-0.000114
1224	1.2169e+02	-8.7142	-30.018123	0.000264	2.635484	0.892926	-0.000105
1225	1.2179e+02	-8.7591	-30.163460	0.000365	3.649132	1.236359	-0.000146
1226	1.2189e+02	-8.8024	-30.284574	0.000304	3.040943	1.030300	-0.000122
1227	1.2199e+02	-8.8281	-30.482393	0.000497	4.966874	1.682823	-0.000199
1228	1.2209e+02	-8.8762	-30.595433	0.000284	2.838214	0.961613	-0.000114
1229	1.2219e+02	-8.9243	-30.748844	0.000385	3.851862	1.305046	-0.000154
1230	1.2229e+02	-8.9564	-30.841698	0.000233	2.331390	0.789896	-0.000093
1231	1.2239e+02	-9.0014	-30.966850	0.000314	3.142308	1.064643	-0.000126
1232	1.2248e+02	-9.0350	-31.136409	0.000426	4.257321	1.442419	-0.000170
1233	1.2258e+02	-9.0735	-31.249449	0.000284	2.838214	0.961613	-0.000114
1234	1.2268e+02	-9.1185	-31.394786	0.000365	3.649132	1.236359	-0.000146
1235	1.2278e+02	-9.1473	-31.580494	0.000466	4.662780	1.579793	-0.000187
1236	1.2288e+02	-9.1971	-31.689497	0.000274	2.736849	0.927270	-0.000110
1237	1.2298e+02	-9.2340	-31.782351	0.000233	2.331390	0.789896	-0.000093
1238	1.2308e+02	-9.2709	-31.923651	0.000355	3.547767	1.202016	-0.000142
1239	1.2318e+02	-9.3174	-32.040728	0.000294	2.939579	0.995956	-0.000118
1240	1.2328e+02	-9.3575	-32.202213	0.000405	4.054591	1.373733	-0.000162
1241	1.2338e+02	-9.3928	-32.355624	0.000385	3.851862	1.305046	-0.000154
1242	1.2348e+02	-9.4345	-32.476738	0.000304	3.040943	1.030300	-0.000122
1243	1.2358e+02	-9.4810	-32.605927	0.000324	3.243673	1.098986	-0.000130
1244	1.2368e+02	-9.5163	-32.710892	0.000264	2.635484	0.892926	-0.000105
1245	1.2378e+02	-9.5628	-32.868341	0.000395	3.953226	1.339389	-0.000158
1246	1.2388e+02	-9.5901	-33.005603	0.000345	3.446403	1.167673	-0.000138
1247	1.2398e+02	-9.6430	-33.106532	0.000253	2.534120	0.858583	-0.000101
1248	1.2408e+02	-9.6719	-33.251869	0.000365	3.649132	1.236359	-0.000146
1249	1.2418e+02	-9.7120	-33.385094	0.000335	3.345038	1.133329	-0.000134
1250	1.2428e+02	-9.7521	-33.502171	0.000294	2.939579	0.995956	-0.000118
1251	1.2438e+02	-9.7858	-33.647508	0.000365	3.649132	1.236359	-0.000146
1252	1.2447e+02	-9.8339	-33.796882	0.000375	3.750497	1.270703	-0.000150
1253	1.2457e+02	-9.8773	-33.930107	0.000335	3.345038	1.133329	-0.000134
1254	1.2467e+02	-9.9110	-34.059296	0.000324	3.243673	1.098986	-0.000130
1255	1.2477e+02	-9.9591	-34.172335	0.000284	2.838214	0.961613	-0.000114
1256	1.2487e+02	-9.9831	-34.337858	0.000416	4.155956	1.408076	-0.000166
1257	1.2497e+02	-10.0393	-34.430712	0.000233	2.331390	0.789896	-0.000093
1258	1.2507e+02	-10.0666	-34.576049	0.000365	3.649132	1.236359	-0.000146
1259	1.2517e+02	-10.1243	-34.749646	0.000436	4.358686	1.476763	-0.000174
1260	1.2527e+02	-10.1548	-34.854611	0.000264	2.635484	0.892926	-0.000105
1261	1.2537e+02	-10.1805	-34.987837	0.000335	3.345038	1.133329	-0.000134
1262	1.2547e+02	-10.2398	-35.084728	0.000243	2.432755	0.824240	-0.000097
1263	1.2557e+02	-10.2735	-35.258325	0.000436	4.358686	1.476763	-0.000174
1264	1.2567e+02	-10.3184	-35.379439	0.000304	3.040943	1.030300	-0.000122
1265	1.2577e+02	-10.3473	-35.492479	0.000284	2.838214	0.961613	-0.000114
1266	1.2587e+02	-10.3874	-35.633779	0.000355	3.547767	1.202016	-0.000142
1267	1.2597e+02	-10.4355	-35.750856	0.000294	2.939579	0.995956	-0.000118
1268	1.2607e+02	-10.4756	-35.896192	0.000365	3.649132	1.236359	-0.000146
1269	1.2617e+02	-10.5141	-36.061715	0.000416	4.155956	1.408076	-0.000166
1270	1.2627e+02	-10.5542	-36.154569	0.000233	2.331390	0.789896	-0.000093
1271	1.2636e+02	-10.5895	-36.356426	0.000507	5.068239	1.717166	-0.000203
1272	1.2646e+02	-10.6361	-36.453317	0.000243	2.432755	0.824240	-0.000097
1273	1.2656e+02	-10.6681	-36.586543	0.000335	3.345038	1.133329	-0.000134
1274	1.2666e+02	-10.7066	-36.711694	0.000314	3.142308	1.064643	-0.000126
1275	1.2676e+02	-10.7435	-36.865105	0.000385	3.851862	1.305046	-0.000154
1276	1.2686e+02	-10.7869	-36.966033	0.000253	2.534120	0.858583	-0.000101
1277	1.2696e+02	-10.8286	-37.123482	0.000395	3.953226	1.339389	-0.000158
1278	1.2706e+02	-10.8735	-37.264781	0.000355	3.547767	1.202016	-0.000142
1279	1.2716e+02	-10.9088	-37.406081	0.000355	3.547767	1.202016	-0.000142
1280	1.2726e+02	-10.9441	-37.502972	0.000243	2.432755	0.824240	-0.000097
1281	1.2736e+02	-10.9826	-37.668495	0.000416	4.155956	1.408076	-0.000166
1282	1.2746e+02	-11.0259	-37.809795	0.000355	3.547767	1.202016	-0.000142
1283	1.2756e+02	-11.0580	-37.930909	0.000304	3.040943	1.030300	-0.000122
1284	1.2766e+02	-11.1045	-38.076246	0.000365	3.649132	1.236359	-0.000146
1285	1.2776e+02	-11.1494	-38.189286	0.000284	2.838214	0.961613	-0.000114
1286	1.2786e+02	-11.1959	-38.334622	0.000365	3.649132	1.236359	-0.000146
1287	1.2796e+02	-11.2377	-38.496108	0.000405	4.054591	1.373733	-0.000162
1288	1.2806e+02	-11.2713	-38.633370	0.000345	3.446403	1.167673	-0.000138
1289	1.2816e+02	-11.3114	-38.718150	0.000213	2.128660	0.721210	-0.000085
1290	1.2826e+02	-11.3451	-38.859450	0.000355	3.547767	1.202016	-0.000142
1291	1.2835e+02	-11.3804	-39.024973	0.000416	4.155956	1.408076	-0.000166
1292	1.2845e+02	-11.4253	-39.182421	0.000395	3.953226	1.339389	-0.000158
1293	1.2855e+02	-11.4606	-39.295461	0.000284	2.838214	0.961613	-0.000114
1294	1.2865e+02	-11.5152	-39.412538	0.000294	2.939579	0.995956	-0.000118
1295	1.2875e+02	-11.5489	-39.533652	0.000304	3.040943	1.030300	-0.000122
1296	1.2885e+02	-11.5938	-39.678989	0.000365	3.649132	1.236359	-0.000146
1297	1.2895e+02	-11.6291	-39.828363	0.000375	3.750497	1.270703	-0.000150
1298	1.2905e+02	-11.6708	-39.888920	0.000152	1.520472	0.515150	-0.000061
1299	1.2915e+02	-11.7029	-40.098851	0.000527	5.270969	1.785853	-0.000211
1300	1.2925e+02	-11.7446	-40.207853	0.000274	2.736849	0.927270	-0.000110
1301	1.2935e+02	-11.7831	-40.361265	0.000385	3.851862	1.305046	-0.000154
1302	1.2945e+02	-11.8232	-40.442007	0.000203	2.027296	0.686866	-0.000081
1303	1.2955e+02	-11.8713	-40.567158	0.000314	3.142308	1.064643	-0.000126
1304	1.2965e+02	-11.9082	-40.752867	0.000466	4.662780	1.579793	-0.000187
1305	1.2975e+02	-11.9467	-40.837647	0.000213	2.128660	0.721210	-0.000085
1306	1.2985e+02	-11.9772	-40.987021	0.000375	3.750497	1.270703	-0.000150
1307	1.2995e+02	-12.0269	-41.152543	0.000416	4.155956	1.408076	-0.000166
1308	1.3005e+02	-12.0606	-41.277694	0.000314	3.142308	1.064643	-0.000126
1309	1.3015e+02	-12.1007	-41.382660	0.000264	2.635484	0.892926	-0.000105
1310	1.3025e+02	-12.1424	-41.552220	0.000426	4.257321	1.442419	-0.000170
1311	1.3034e+02	-12.1922	-41.693519	0.000355	3.547767	1.202016	-0.000142
1312	1.3044e+02	-12.2243	-41.802522	0.000274	2.736849	0.927270	-0.000110
1313	1.3054e+02	-12.2676	-41.915562	0.000284	2.838214	0.961613	-0.000114
1314	1.3064e+02	-12.3045	-42.081084	0.000416	4.155956	1.408076	-0.000166
1315	1.3074e+02	-12.3494	-42.190087	0.000274	2.736849	0.927270	-0.000110
1316	1.3084e+02	-12.3895	-42.315238	0.000314	3.142308	1.064643	-0.000126
1317	1.3094e+02	-12.4232	-42.456538	0.000355	3.547767	1.202016	-0.000142
1318	1.3104e+02	-12.4633	-42.601875	0.000365	3.649132	1.236359	-0.000146
1319	1.3114e+02	-12.5098	-42.702803	0.000253	2.534120	0.858583	-0.000101
1320	1.3124e+02	-12.5355	-42.852177	0.000375	3.750497	1.270703	-0.000150
1321	1.3134e+02	-12.5772	-43.017700	0.000416	4.155956	1.408076	-0.000166
1322	1.3144e+02	-12.6189	-43.078257	0.000152	1.520472	0.515150	-0.000061
1323	1.3154e+02	-12.6670	-43.219557	0.000355	3.547767	1.202016	-0.000142
1324	1.3164e+02	-12.7087	-43.368931	0.000375	3.750497	1.270703	-0.000150
1325	1.3174e+02	-12.7360	-43.490045	0.000304	3.040943	1.030300	-0.000122
1326	1.3184e+02	-12.7793	-43.635382	0.000365	3.649132	1.236359	-0.000146
1327	1.3194e+02	-12.8307	-43.788793	0.000385	3.851862	1.305046	-0.000154
1328	1.3204e+02	-12.8563	-43.893758	0.000264	2.635484	0.892926	-0.000105
1329	1.3214e+02	-12.9044	-43.994687	0.000253	2.534120	0.858583	-0.000101
1330	1.3224e+02	-12.9365	-44.140024	0.000365	3.649132	1.236359	-0.000146
1331	1.3234e+02	-12.9750	-44.261138	0.000304	3.040943	1.030300	-0.000122
1332	1.3243e+02	-13.0167	-44.390326	0.000324	3.243673	1.098986	-0.000130
1333	1.3253e+02	-13.0633	-44.535663	0.000365	3.649132	1.236359	-0.000146
1334	1.3263e+02	-13.0970	-44.697148	0.000405	4.054591	1.373733	-0.000162
1335	1.3273e+02	-13.1435	-44.781928	0.000213	2.128660	0.721210	-0.000085
1336	1.3283e+02	-13.1772	-44.915154	0.000335	3.345038	1.133329	-0.000134
1337	1.3293e+02	-13.2301	-45.064528	0.000375	3.750497	1.270703	-0.000150
1338	1.3303e+02	-13.2622	-45.173530	0.000274	2.736849	0.927270	-0.000110
1339	1.3313e+02	-13.2959	-45.347127	0.000436	4.358686	1.476763	-0.000174
1340	1.3323e+02	-13.3392	-45.423833	0.000193	1.925931	0.652523	-0.000077
1341	1.3333e+02	-13.3857	-45.617615	0.000487	4.865509	1.648479	-0.000195
1342	1.3343e+02	-13.4226	-45.714507	0.000243	2.432755	0.824240	-0.000097
1343	1.3353e+02	-13.4611	-45.880029	0.000416	4.155956	1.408076	-0.000166
1344	1.3363e+02	-13.4948	-45.989032	0.000274	2.736849	0.927270	-0.000110
1345	1.3373e+02	-13.5285	-46.122257	0.000335	3.345038	1.133329	-0.000134
1346	1.3383e+02	-13.5830	-46.203000	0.000203	2.027296	0.686866	-0.000081
1347	1.3393e+02	-13.6183	-46.356411	0.000385	3.851862	1.305046	-0.000154
1348	1.3403e+02	-13.6616	-46.530008	0.000436	4.358686	1.476763	-0.000174
1349	1.3413e+02	-13.7001	-46.647085	0.000294	2.939579	0.995956	-0.000118
1350	1.3423e+02	-13.7403	-46.731865	0.000213	2.128660	0.721210	-0.000085
1351	1.3432e+02	-13.7707	-46.893350	0.000405	4.054591	1.373733	-0.000162
1352	1.3442e+02	-13.8173	-47.002353	0.000274	2.736849	0.927270	-0.000110
1353	1.3452e+02	-13.8590	-47.127504	0.000314	3.142308	1.064643	-0.000126
1354	1.3462e+02	-13.8927	-47.305138	0.000446	4.460050	1.511106	-0.000179
1355	1.3472e+02	-13.9312	-47.406066	0.000253	2.534120	0.858583	-0.000101
1356	1.3482e+02	-13.9729	-47.523143	0.000294	2.939579	0.995956	-0.000118
1357	1.3492e+02	-14.0210	-47.656369	0.000335	3.345038	1.133329	-0.000134
1358	1.3502e+02	-14.0547	-47.765371	0.000274	2.736849	0.927270	-0.000110
1359	1.3512e+02	-14.0964	-47.894560	0.000324	3.243673	1.098986	-0.000130
1360	1.3522e+02	-14.1397	-48.056045	0.000405	4.054591	1.373733	-0.000162
1361	1.3532e+02	-14.1814	-48.152937	0.000243	2.432755	0.824240	-0.000097
1362	1.3542e+02	-14.2167	-48.278088	0.000314	3.142308	1.064643	-0.000126
1363	1.3552e+02	-14.2488	-48.423425	0.000365	3.649132	1.236359	-0.000146
1364	1.3562e+02	-14.3033	-48.532427	0.000274	2.736849	0.927270	-0.000110
1365	1.3572e+02	-14.3386	-48.653541	0.000304	3.040943	1.030300	-0.000122
1366	1.3582e+02	-14.3707	-48.806953	0.000385	3.851862	1.305046	-0.000154
1367	1.3592e+02	-14.4140	-48.928067	0.000304	3.040943	1.030300	-0.000122
1368	1.3602e+02	-14.4654	-49.037069	0.000274	2.736849	0.927270	-0.000110
1369	1.3612e+02	-14.4926	-49.142035	0.000264	2.635484	0.892926	-0.000105
1370	1.3622e+02	-14.5327	-49.299483	0.000395	3.953226	1.339389	-0.000158
1371	1.3631e+02	-14.5745	-49.400411	0.000253	2.534120	0.858583	-0.000101
1372	1.3641e+02	-14.6097	-49.545748	0.000365	3.649132	1.236359	-0.000146
1373	1.3651e+02	-14.6627	-49.674937	0.000324	3.243673	1.098986	-0.000130
1374	1.3661e+02	-14.6916	-49.808162	0.000335	3.345038	1.133329	-0.000134
1375	1.3671e+02	-14.7381	-49.909091	0.000253	2.534120	0.858583	-0.000101
1376	1.3681e+02	-14.7718	-50.042316	0.000335	3.345038	1.133329	-0.000134
1377	1.3691e+02	-14.8151	-50.179579	0.000345	3.446403	1.167673	-0.000138
1378	1.3701e+02	-14.8456	-50.308767	0.000324	3.243673	1.098986	-0.000130
1379	1.3711e+02	-14.8921	-50.425844	0.000294	2.939579	0.995956	-0.000118
1380	1.3721e+02	-14.9306	-50.522735	0.000243	2.432755	0.824240	-0.000097
1381	1.3731e+02	-14.9851	-50.676146	0.000385	3.851862	1.305046	-0.000154
1382	1.3741e+02	-15.0076	-50.833595	0.000395	3.953226	1.339389	-0.000158
1383	1.3751e+02	-15.0493	-50.970857	0.000345	3.446403	1.167673	-0.000138
1384	1.3761e+02	-15.0942	-51.067749	0.000243	2.432755	0.824240	-0.000097
1385	1.3771e+02	-15.1327	-51.205011	0.000345	3.446403	1.167673	-0.000138
1386	1.3781e+02	-15.1744	-51.305940	0.000253	2.534120	0.858583	-0.000101
1387	1.3791e+02	-15.2065	-51.451276	0.000365	3.649132	1.236359	-0.000146
1388	1.3801e+02	-15.2546	-51.532019	0.000203	2.027296	0.686866	-0.000081
1389	1.3811e+02	-15.2915	-51.697542	0.000416	4.155956	1.408076	-0.000166
1390	1.3821e+02	-15.3252	-51.794433	0.000243	2.432755	0.824240	-0.000097
1391	1.3831e+02	-15.3734	-51.959956	0.000416	4.155956	1.408076	-0.000166
1392	1.3840e+02	-15.4135	-52.068958	0.000274	2.736849	0.927270	-0.000110
1393	1.3850e+02	-15.4488	-52.198147	0.000324	3.243673	1.098986	-0.000130
1394	1.3860e+02	-15.4889	-52.327335	0.000324	3.243673	1.098986	-0.000130
1395	1.3870e+02	-15.5290	-52.424226	0.000243	2.432755	0.824240	-0.000097
1396	1.3880e+02	-15.5755	-52.553414	0.000324	3.243673	1.098986	-0.000130
1397	1.3890e+02	-15.6012	-52.714900	0.000405	4.054591	1.373733	-0.000162
1398	1.3900e+02	-15.6429	-52.815828	0.000253	2.534120	0.858583	-0.000101
1399	1.3910e+02	-15.6878	-52.953091	0.000345	3.446403	1.167673	-0.000138
1400	1.3920e+02	-15.7327	-53.086316	0.000335	3.345038	1.133329	-0.000134
1401	1.3930e+02	-15.7680	-53.243765	0.000395	3.953226	1.339389	-0.000158
1402	1.3940e+02	-15.8193	-53.360842	0.000294	2.939579	0.995956	-0.000118
1403	1.3950e+02	-15.8450	-53.449659	0.000223	2.230025	0.755553	-0.000089
1404	1.3960e+02	-15.8899	-53.611144	0.000405	4.054591	1.373733	-0.000162
1405	1.3970e+02	-15.9252	-53.687850	0.000193	1.925931	0.652523	-0.000077
1406	1.3980e+02	-15.9701	-53.792815	0.000264	2.635484	0.892926	-0.000105
1407	1.3990e+02	-16.0006	-53.974486	0.000456	4.561415	1.545449	-0.000183
1408	1.4000e+02	-16.0487	-54.091563	0.000294	2.939579	0.995956	-0.000118
1409	1.4010e+02	-16.0889	-54.228826	0.000345	3.446403	1.167673	-0.000138
1410	1.4020e+02	-16.1290	-54.345903	0.000294	2.939579	0.995956	-0.000118
1411	1.4029e+02	-16.1626	-54.467017	0.000304	3.040943	1.030300	-0.000122
1412	1.4039e+02	-16.2028	-54.612354	0.000365	3.649132	1.236359	-0.000146
1413	1.4049e+02	-16.2445	-54.709245	0.000243	2.432755	0.824240	-0.000097
1414	1.4059e+02	-16.2878	-54.850545	0.000355	3.547767	1.202016	-0.000142
1415	1.4069e+02	-16.3231	-54.963585	0.000284	2.838214	0.961613	-0.000114
1416	1.4079e+02	-16.3632	-55.088736	0.000314	3.142308	1.064643	-0.000126
1417	1.4089e+02	-16.4097	-55.234073	0.000365	3.649132	1.236359	-0.000146
1418	1.4099e+02	-16.4418	-55.351150	0.000294	2.939579	0.995956	-0.000118
1419	1.4109e+02	-16.4771	-55.448041	0.000243	2.432755	0.824240	-0.000097
1420	1.4119e+02	-16.5284	-55.593378	0.000365	3.649132	1.236359	-0.000146
1421	1.4129e+02	-16.5701	-55.694306	0.000253	2.534120	0.858583	-0.000101
1422	1.4139e+02	-16.6022	-55.827532	0.000335	3.345038	1.133329	-0.000134
1423	1.4149e+02	-16.6407	-55.952683	0.000314	3.142308	1.064643	-0.000126
1424	1.4159e+02	-16.6776	-56.045537	0.000233	2.331390	0.789896	-0.000093
1425	1.4169e+02	-16.7273	-56.198948	0.000385	3.851862	1.305046	-0.000154
1426	1.4179e+02	-16.7723	-56.336211	0.000345	3.446403	1.167673	-0.000138
1427	1.4189e+02	-16.8075	-56.441176	0.000264	2.635484	0.892926	-0.000105
1428	1.4199e+02	-16.8428	-56.590550	0.000375	3.750497	1.270703	-0.000150
1429	1.4209e+02	-16.8878	-56.659182	0.000172	1.723201	0.583836	-0.000069
1430	1.4219e+02	-16.9263	-56.832778	0.000436	4.358686	1.476763	-0.000174
1431	1.4228e+02	-16.9632	-56.925632	0.000233	2.331390	0.789896	-0.000093
1432	1.4238e+02	-17.0081	-57.066932	0.000355	3.547767	1.202016	-0.000142
1433	1.4248e+02	-17.0498	-57.216306	0.000375	3.750497	1.270703	-0.000150
1434	1.4258e+02	-17.0819	-57.305123	0.000223	2.230025	0.755553	-0.000089
1435	1.4268e+02	-17.1332	-57.446423	0.000355	3.547767	1.202016	-0.000142
1436	1.4278e+02	-17.1653	-57.595797	0.000375	3.750497	1.270703	-0.000150
1437	1.4288e+02	-17.2022	-57.700763	0.000264	2.635484	0.892926	-0.000105
1438	1.4298e+02	-17.2535	-57.825914	0.000314	3.142308	1.064643	-0.000126
1439	1.4308e+02	-17.2824	-57.955102	0.000324	3.243673	1.098986	-0.000130
1440	1.4318e+02	-17.3273	-58.084290	0.000324	3.243673	1.098986	-0.000130
1441	1.4328e+02	-17.3690	-58.189256	0.000264	2.635484	0.892926	-0.000105
1442	1.4338e+02	-17.4059	-58.322481	0.000335	3.345038	1.133329	-0.000134
1443	1.4348e+02	-17.4460	-58.479930	0.000395	3.953226	1.339389	-0.000158
1444	1.4358e+02	-17.4717	-58.601044	0.000304	3.040943	1.030300	-0.000122
1445	1.4368e+02	-17.5134	-58.706009	0.000264	2.635484	0.892926	-0.000105
1446	1.4378e+02	-17.5680	-58.839235	0.000335	3.345038	1.133329	-0.000134
1447	1.4388e+02	-17.6000	-58.972460	0.000335	3.345038	1.133329	-0.000134
1448	1.4398e+02	-17.6417	-59.085500	0.000284	2.838214	0.961613	-0.000114
1449	1.4408e+02	-17.6835	-59.218726	0.000335	3.345038	1.133329	-0.000134
1450	1.4418e+02	-17.7300	-59.360025	0.000355	3.547767	1.202016	-0.000142
1451	1.4428e+02	-17.7605	-59.477102	0.000294	2.939579	0.995956	-0.000118
1452	1.4437e+02	-17.8102	-59.618402	0.000355	3.547767	1.202016	-0.000142
1453	1.4447e+02	-17.8359	-59.743553	0.000314	3.142308	1.064643	-0.000126
1454	1.4457e+02	-17.8824	-59.852556	0.000274	2.736849	0.927270	-0.000110
1455	1.4467e+02	-17.9177	-59.985781	0.000335	3.345038	1.133329	-0.000134
1456	1.4477e+02	-17.9530	-60.143230	0.000395	3.953226	1.339389	-0.000158
1457	1.4487e+02	-17.9979	-60.215898	0.000182	1.824566	0.618180	-0.000073
1458	1.4497e+02	-18.0396	-60.373346	0.000395	3.953226	1.339389	-0.000158
1459	1.4507e+02	-18.0845	-60.502535	0.000324	3.243673	1.098986	-0.000130
1460	1.4517e+02	-18.1182	-60.651909	0.000375	3.750497	1.270703	-0.000150
1461	1.4527e+02	-18.1583	-60.720540	0.000172	1.723201	0.583836	-0.000069
1462	1.4537e+02	-18.1984	-60.882025	0.000405	4.054591	1.373733	-0.000162
1463	1.4547e+02	-18.2401	-60.991028	0.000274	2.736849	0.927270	-0.000110
1464	1.4557e+02	-18.2802	-61.095994	0.000264	2.635484	0.892926	-0.000105
1465	1.4567e+02	-18.3139	-61.237293	0.000355	3.547767	1.202016	-0.000142
1466	1.4577e+02	-18.3685	-61.382630	0.000365	3.649132	1.236359	-0.000146
1467	1.4587e+02	-18.4038	-61.471447	0.000223	2.230025	0.755553	-0.000089
1468	1.4597e+02	-18.4407	-61.608710	0.000345	3.446403	1.167673	-0.000138
1469	1.4607e+02	-18.4856	-61.750010	0.000355	3.547767	1.202016	-0.000142
1470	1.4617e+02	-18.5401	-61.895347	0.000365	3.649132	1.236359	-0.000146
1471	1.4626e+02	-18.5626	-62.036646	0.000355	3.547767	1.202016	-0.000142
1472	1.4636e+02	-18.5979	-62.089129	0.000132	1.317742	0.446463	-0.000053
1473	1.4646e+02	-18.6284	-62.234466	0.000365	3.649132	1.236359	-0.000146
1474	1.4656e+02	-18.6861	-62.408063	0.000436	4.358686	1.476763	-0.000174
1475	1.4666e+02	-18.7198	-62.496880	0.000223	2.230025	0.755553	-0.000089
1476	1.4676e+02	-18.7615	-62.658365	0.000405	4.054591	1.373733	-0.000162
1477	1.4686e+02	-18.7920	-62.743145	0.000213	2.128660	0.721210	-0.000085
1478	1.4696e+02	-18.8305	-62.888482	0.000365	3.649132	1.236359	-0.000146
1479	1.4706e+02	-18.8786	-63.009596	0.000304	3.040943	1.030300	-0.000122
1480	1.4716e+02	-18.9187	-63.102450	0.000233	2.331390	0.789896	-0.000093
1481	1.4726e+02	-18.9588	-63.267973	0.000416	4.155956	1.408076	-0.000166
1482	1.4736e+02	-19.0021	-63.409272	0.000355	3.547767	1.202016	-0.000142
1483	1.4746e+02	-19.0358	-63.518275	0.000274	2.736849	0.927270	-0.000110
1484	1.4756e+02	-19.0679	-63.659575	0.000355	3.547767	1.202016	-0.000142
1485	1.4766e+02	-19.1096	-63.784726	0.000314	3.142308	1.064643	-0.000126
1486	1.4776e+02	-19.1610	-63.881617	0.000243	2.432755	0.824240	-0.000097
1487	1.4786e+02	-19.2075	-64.030991	0.000375	3.750497	1.270703	-0.000150
1488	1.4796e+02	-19.2380	-64.160180	0.000324	3.243673	1.098986	-0.000130
1489	1.4806e+02	-19.2813	-64.257071	0.000243	2.432755	0.824240	-0.000097
1490	1.4816e+02	-19.3150	-64.378185	0.000304	3.040943	1.030300	-0.000122
1491	1.4825e+02	-19.3519	-64.551782	0.000436	4.358686	1.476763	-0.000174
1492	1.4835e+02	-19.3968	-64.640599	0.000223	2.230025	0.755553	-0.000089
1493	1.4845e+02	-19.4305	-64.745564	0.000264	2.635484	0.892926	-0.000105
1494	1.4855e+02	-19.4642	-64.878790	0.000335	3.345038	1.133329	-0.000134
1495	1.4865e+02	-19.5123	-64.995867	0.000294	2.939579	0.995956	-0.000118
1496	1.4875e+02	-19.5572	-65.145241	0.000375	3.750497	1.270703	-0.000150
1497	1.4885e+02	-19.5989	-65.250206	0.000264	2.635484	0.892926	-0.000105
1498	1.4895e+02	-19.6358	-65.379395	0.000324	3.243673	1.098986	-0.000130
1499	1.4905e+02	-19.6871	-65.520694	0.000355	3.547767	1.202016	-0.000142
1500	1.4915e+02	-19.7192	-65.678143	0.000395	3.953226	1.339389	-0.000158
1501	1.4925e+02	-19.7497	-65.787145	0.000274	2.736849	0.927270	-0.000110
1502	1.4935e+02	-19.7914	-65.920371	0.000335	3.345038	1.133329	-0.000134
1503	1.4945e+02	-19.8315	-66.049559	0.000324	3.243673	1.098986	-0.000130
1504	1.4955e+02	-19.8716	-66.158562	0.000274	2.736849	0.927270	-0.000110
1505	1.4965e+02	-19.9101	-66.328122	0.000426	4.257321	1.442419	-0.000170
1506	1.4975e+02	-19.9567	-66.437124	0.000274	2.736849	0.927270	-0.000110
1507	1.4985e+02	-19.9936	-66.566313	0.000324	3.243673	1.098986	-0.000130
1508	1.4995e+02	-19.9583	-66.465384	0.000253	2.534120	0.858583	0.000101
1509	1.5005e+02	-19.9037	-66.396753	0.000172	1.723201	0.583836	0.000069
1510	1.5015e+02	-19.8700	-66.340233	0.000142	1.419107	0.480806	0.000057
1511	1.5025e+02	-19.8363	-66.231230	0.000274	2.736849	0.927270	0.000110
1512	1.5034e+02	-19.7978	-66.190859	0.000101	1.013648	0.343433	0.000041
1513	1.5044e+02	-19.7545	-66.098005	0.000233	2.331390	0.789896	0.000093
1514	1.5054e+02	-19.7192	-65.997076	0.000253	2.534120	0.858583	0.000101
1515	1.5064e+02	-19.6759	-65.932482	0.000162	1.621836	0.549493	0.000065
1516	1.5074e+02	-19.6358	-65.855777	0.000193	1.925931	0.652523	0.000077
1517	1.5084e+02	-19.5925	-65.758885	0.000243	2.432755	0.824240	0.000097
1518	1.5094e+02	-19.5492	-65.678143	0.000203	2.027296	0.686866	0.000081
1519	1.5104e+02	-19.5171	-65.540880	0.000345	3.446403	1.167673	0.000138
1520	1.5114e+02	-19.4626	-65.516657	0.000061	0.608189	0.206060	0.000024
1521	1.5124e+02	-19.4417	-65.371320	0.000365	3.649132	1.236359	0.000146
1522	1.5134e+02	-19.4000	-65.306726	0.000162	1.621836	0.549493	0.000065
1523	1.5144e+02	-19.3631	-65.230021	0.000193	1.925931	0.652523	0.000077
1524	1.5154e+02	-19.3166	-65.157352	0.000182	1.824566	0.618180	0.000073
1525	1.5164e+02	-19.2765	-65.052387	0.000264	2.635484	0.892926	0.000105
1526	1.5174e+02	-19.2283	-64.955495	0.000243	2.432755	0.824240	0.000097
1527	1.5184e+02	-19.2027	-64.882827	0.000182	1.824566	0.618180	0.000073
1528	1.5194e+02	-19.1529	-64.757676	0.000314	3.142308	1.064643	0.000126
1529	1.5204e+02	-19.1112	-64.628487	0.000324	3.243673	1.098986	0.000130
1530	1.5214e+02	-19.0727	-64.559856	0.000172	1.723201	0.583836	0.000069
1531	1.5224e+02	-19.0422	-64.418556	0.000355	3.547767	1.202016	0.000142
1532	1.5233e+02	-18.9989	-64.353962	0.000162	1.621836	0.549493	0.000065
1533	1.5243e+02	-18.9588	-64.216700	0.000345	3.446403	1.167673	0.000138
1534	1.5253e+02	-18.9155	-64.156143	0.000152	1.520472	0.515150	0.000061
1535	1.5263e+02	-18.8786	-64.071363	0.000213	2.128660	0.721210	0.000085
1536	1.5273e+02	-18.8417	-63.974471	0.000243	2.432755	0.824240	0.000097
1537	1.5283e+02	-18.8064	-63.829135	0.000365	3.649132	1.236359	0.000146
1538	1.5293e+02	-18.7631	-63.772615	0.000142	1.419107	0.480806	0.000057
1539	1.5303e+02	-18.7166	-63.671686	0.000253	2.534120	0.858583	0.000101
1540	1.5313e+02	-18.6797	-63.615166	0.000142	1.419107	0.480806	0.000057
1541	1.5323e+02	-18.6396	-63.445607	0.000426	4.257321	1.442419	0.000170
1542	1.5333e+02	-18.5995	-63.344678	0.000253	2.534120	0.858583	0.000101
1543	1.5343e+02	-18.5610	-63.243750	0.000253	2.534120	0.858583	0.000101
1544	1.5353e+02	-18.5193	-63.163007	0.000203	2.027296	0.686866	0.000081
1545	1.5363e+02	-18.4743	-63.066116	0.000243	2.432755	0.824240	0.000097
1546	1.5373e+02	-18.4423	-62.961150	0.000264	2.635484	0.892926	0.000105
1547	1.5383e+02	-18.3973	-62.852148	0.000274	2.736849	0.927270	0.000110
1548	1.5393e+02	-18.3540	-62.735071	0.000294	2.939579	0.995956	0.000118
1549	1.5403e+02	-18.3252	-62.662402	0.000182	1.824566	0.618180	0.000073
1550	1.5413e+02	-18.2802	-62.557437	0.000264	2.635484	0.892926	0.000105
1551	1.5422e+02	-18.2305	-62.492843	0.000162	1.621836	0.549493	0.000065
1552	1.5432e+02	-18.2064	-62.323283	0.000426	4.257321	1.442419	0.000170
1553	1.5442e+02	-18.1615	-62.246577	0.000193	1.925931	0.652523	0.000077
1554	1.5452e+02	-18.1102	-62.157760	0.000223	2.230025	0.755553	0.000089
1555	1.5462e+02	-18.0861	-62.064906	0.000233	2.331390	0.789896	0.000093
1556	1.5472e+02	-18.0428	-61.955904	0.000274	2.736849	0.927270	0.000110
1557	1.5482e+02	-17.9979	-61.830752	0.000314	3.142308	1.064643	0.000126
1558	1.5492e+02	-17.9530	-61.713675	0.000294	2.939579	0.995956	0.000118
1559	1.5502e+02	-17.9241	-61.632933	0.000203	2.027296	0.686866	0.000081
1560	1.5512e+02	-17.8776	-61.556227	0.000193	1.925931	0.652523	0.000077
1561	1.5522e+02	-17.8423	-61.431076	0.000314	3.142308	1.064643	0.000126
1562	1.5532e+02	-17.8022	-61.354370	0.000193	1.925931	0.652523	0.000077
1563	1.5542e+02	-17.7733	-61.237293	0.000294	2.939579	0.995956	0.000118
1564	1.5552e+02	-17.7188	-61.108105	0.000324	3.243673	1.098986	0.000130
1565	1.5562e+02	-17.6754	-60.991028	0.000294	2.939579	0.995956	0.000118
1566	1.5572e+02	-17.6401	-60.918360	0.000182	1.824566	0.618180	0.000073
1567	1.5582e+02	-17.6081	-60.801283	0.000294	2.939579	0.995956	0.000118
1568	1.5592e+02	-17.5631	-60.708429	0.000233	2.331390	0.789896	0.000093
1569	1.5602e+02	-17.5182	-60.595389	0.000284	2.838214	0.961613	0.000114
1570	1.5612e+02	-17.4877	-60.518683	0.000193	1.925931	0.652523	0.000077
1571	1.5622e+02	-17.4428	-60.373346	0.000365	3.649132	1.236359	0.000146
1572	1.5631e+02	-17.4075	-60.296641	0.000193	1.925931	0.652523	0.000077
1573	1.5641e+02	-17.3626	-60.215898	0.000203	2.027296	0.686866	0.000081
1574	1.5651e+02	-17.3225	-60.054413	0.000405	4.054591	1.373733	0.000162
1575	1.5661e+02	-17.2872	-59.973670	0.000203	2.027296	0.686866	0.000081
1576	1.5671e+02	-17.2439	-59.880816	0.000233	2.331390	0.789896	0.000093
1577	1.5681e+02	-17.2038	-59.735479	0.000365	3.649132	1.236359	0.000146
1578	1.5691e+02	-17.1637	-59.670885	0.000162	1.621836	0.549493	0.000065
1579	1.5701e+02	-17.1348	-59.578031	0.000233	2.331390	0.789896	0.000093
1580	1.5711e+02	-17.0867	-59.380211	0.000497	4.966874	1.682823	0.000199
1581	1.5721e+02	-17.0386	-59.315617	0.000162	1.621836	0.549493	0.000065
1582	1.5731e+02	-17.0033	-59.246986	0.000172	1.723201	0.583836	0.000069
1583	1.5741e+02	-16.9616	-59.125871	0.000304	3.040943	1.030300	0.000122
1584	1.5751e+02	-16.9166	-59.020906	0.000264	2.635484	0.892926	0.000105
1585	1.5761e+02	-16.8846	-58.899792	0.000304	3.040943	1.030300	0.000122
1586	1.5771e+02	-16.8364	-58.790789	0.000274	2.736849	0.927270	0.000110
1587	1.5781e+02	-16.8108	-58.722158	0.000172	1.723201	0.583836	0.000069
1588	1.5791e+02	-16.7626	-58.605081	0.000294	2.939579	0.995956	0.000118
1589	1.5801e+02	-16.7273	-58.492041	0.000284	2.838214	0.961613	0.000114
1590	1.5811e+02	-16.6920	-58.350741	0.000355	3.547767	1.202016	0.000142
1591	1.5821e+02	-16.6487	-58.278073	0.000182	1.824566	0.618180	0.000073
1592	1.5830e+02	-16.6102	-58.152922	0.000314	3.142308	1.064643	0.000126
1593	1.5840e+02	-16.5733	-58.076216	0.000193	1.925931	0.652523	0.000077
1594	1.5850e+02	-16.5252	-57.938954	0.000345	3.446403	1.167673	0.000138
1595	1.5860e+02	-16.4931	-57.809765	0.000324	3.243673	1.098986	0.000130
1596	1.5870e+02	-16.4514	-57.672503	0.000345	3.446403	1.167673	0.000138
1597	1.5880e+02	-16.4033	-57.615983	0.000142	1.419107	0.480806	0.000057
1598	1.5890e+02	-16.3664	-57.539277	0.000193	1.925931	0.652523	0.000077
1599	1.5900e+02	-16.3263	-57.393940	0.000365	3.649132	1.236359	0.000146
1600	1.5910e+02	-16.2910	-57.248603	0.000365	3.649132	1.236359	0.000146
1601	1.5920e+02	-16.2589	-57.159786	0.000223	2.230025	0.755553	0.000089
1602	1.5930e+02	-16.2076	-57.018487	0.000355	3.547767	1.202016	0.000142
1603	1.5940e+02	-16.1707	-56.917558	0.000253	2.534120	0.858583	0.000101
1604	1.5950e+02	-16.1306	-56.865075	0.000132	1.317742	0.446463	0.000053
1605	1.5960e+02	-16.0937	-56.772221	0.000233	2.331390	0.789896	0.000093
1606	1.5970e+02	-16.0487	-56.610736	0.000405	4.054591	1.373733	0.000162
1607	1.5980e+02	-16.0135	-56.538067	0.000182	1.824566	0.618180	0.000073
1608	1.5990e+02	-15.9653	-56.388693	0.000375	3.750497	1.270703	0.000150
1609	1.6000e+02	-15.9364	-56.303914	0.000213	2.128660	0.721210	0.000085
1610	1.6010e+02	-15.8947	-56.186837	0.000294	2.939579	0.995956	0.000118
1611	1.6019e+02	-15.8514	-56.061685	0.000314	3.142308	1.064643	0.000126
1612	1.6029e+02	-15.8177	-55.997091	0.000162	1.621836	0.549493	0.000065
1613	1.6039e+02	-15.7600	-55.843680	0.000385	3.851862	1.305046	0.000154
1614	1.6049e+02	-15.7247	-55.799272	0.000112	1.115013	0.377776	0.000045
1615	1.6059e+02	-15.6926	-55.657972	0.000355	3.547767	1.202016	0.000142
1616	1.6069e+02	-15.6429	-55.524746	0.000335	3.345038	1.133329	0.000134
1617	1.6079e+02	-15.6092	-55.452078	0.000182	1.824566	0.618180	0.000073
1618	1.6089e+02	-15.5691	-55.306741	0.000365	3.649132	1.236359	0.000146
1619	1.6099e+02	-15.5306	-55.221961	0.000213	2.128660	0.721210	0.000085
1620	1.6109e+02	-15.4889	-55.169478	0.000132	1.317742	0.446463	0.000053
1621	1.6119e+02	-15.4520	-55.036253	0.000335	3.345038	1.133329	0.000134
1622	1.6129e+02	-15.4119	-54.907065	0.000324	3.243673	1.098986	0.000130
1623	1.6139e+02	-15.3718	-54.785951	0.000304	3.040943	1.030300	0.000122
1624	1.6149e+02	-15.3300	-54.693096	0.000233	2.331390	0.789896	0.000093
1625	1.6159e+02	-15.2883	-54.563908	0.000324	3.243673	1.098986	0.000130
1626	1.6169e+02	-15.2514	-54.454905	0.000274	2.736849	0.927270	0.000110
1627	1.6179e+02	-15.2145	-54.390311	0.000162	1.621836	0.549493	0.000065
1628	1.6189e+02	-15.1648	-54.269197	0.000304	3.040943	1.030300	0.000122
1629	1.6199e+02	-15.1279	-54.140009	0.000324	3.243673	1.098986	0.000130
1630	1.6209e+02	-15.0942	-53.982561	0.000395	3.953226	1.339389	0.000158
1631	1.6219e+02	-15.0509	-53.926041	0.000142	1.419107	0.480806	0.000057
1632	1.6228e+02	-15.0140	-53.833186	0.000233	2.331390	0.789896	0.000093
1633	1.6238e+02	-14.9739	-53.671701	0.000405	4.054591	1.373733	0.000162
1634	1.6248e+02	-14.9370	-53.578847	0.000233	2.331390	0.789896	0.000093
1635	1.6258e+02	-14.9081	-53.449659	0.000324	3.243673	1.098986	0.000130
1636	1.6268e+02	-14.8600	-53.397176	0.000132	1.317742	0.446463	0.000053
1637	1.6278e+02	-14.8071	-53.227616	0.000426	4.257321	1.442419	0.000170
1638	1.6288e+02	-14.7750	-53.098428	0.000324	3.243673	1.098986	0.000130
1639	1.6298e+02	-14.7397	-53.029796	0.000172	1.723201	0.583836	0.000069
1640	1.6308e+02	-14.6964	-52.920794	0.000274	2.736849	0.927270	0.000110
1641	1.6318e+02	-14.6579	-52.799680	0.000304	3.040943	1.030300	0.000122
1642	1.6328e+02	-14.6114	-52.706826	0.000233	2.331390	0.789896	0.000093
1643	1.6338e+02	-14.5745	-52.577637	0.000324	3.243673	1.098986	0.000130
1644	1.6348e+02	-14.5376	-52.452486	0.000314	3.142308	1.064643	0.000126
1645	1.6358e+02	-14.5039	-52.367706	0.000213	2.128660	0.721210	0.000085
1646	1.6368e+02	-14.4590	-52.238518	0.000324	3.243673	1.098986	0.000130
1647	1.6378e+02	-14.4188	-52.101255	0.000345	3.446403	1.167673	0.000138
1648	1.6388e+02	-14.3787	-51.996290	0.000264	2.635484	0.892926	0.000105
1649	1.6398e+02	-14.3306	-51.891324	0.000264	2.635484	0.892926	0.000105
1650	1.6408e+02	-14.2937	-51.810581	0.000203	2.027296	0.686866	0.000081
1651	1.6418e+02	-14.2456	-51.673319	0.000345	3.446403	1.167673	0.000138
1652	1.6427e+02	-14.2135	-51.536056	0.000345	3.446403	1.167673	0.000138
1653	1.6437e+02	-14.1766	-51.455314	0.000203	2.027296	0.686866	0.000081
1654	1.6447e+02	-14.1413	-51.330162	0.000314	3.142308	1.064643	0.000126
1655	1.6457e+02	-14.1076	-51.221160	0.000274	2.736849	0.927270	0.000110
1656	1.6467e+02	-14.0515	-51.108120	0.000284	2.838214	0.961613	0.000114
1657	1.6477e+02	-14.0146	-51.003154	0.000264	2.635484	0.892926	0.000105
1658	1.6487e+02	-13.9793	-50.857817	0.000365	3.649132	1.236359	0.000146
1659	1.6497e+02	-13.9312	-50.760926	0.000243	2.432755	0.824240	0.000097
1660	1.6507e+02	-13.8991	-50.639812	0.000304	3.040943	1.030300	0.000122
1661	1.6517e+02	-13.8606	-50.526772	0.000284	2.838214	0.961613	0.000114
1662	1.6527e+02	-13.8108	-50.429881	0.000243	2.432755	0.824240	0.000097
1663	1.6537e+02	-13.7723	-50.312804	0.000294	2.939579	0.995956	0.000118
1664	1.6547e+02	-13.7435	-50.191690	0.000304	3.040943	1.030300	0.000122
1665	1.6557e+02	-13.7034	-50.046353	0.000365	3.649132	1.236359	0.000146
1666	1.6567e+02	-13.6472	-49.949462	0.000243	2.432755	0.824240	0.000097
1667	1.6577e+02	-13.6167	-49.844496	0.000264	2.635484	0.892926	0.000105
1668	1.6587e+02	-13.5782	-49.715308	0.000324	3.243673	1.098986	0.000130
1669	1.6597e+02	-13.5445	-49.606305	0.000274	2.736849	0.927270	0.000110
1670	1.6607e+02	-13.4932	-49.509414	0.000243	2.432755	0.824240	0.000097
1671	1.6616e+02	-13.4611	-49.376189	0.000335	3.345038	1.133329	0.000134
1672	1.6626e+02	-13.4226	-49.267186	0.000274	2.736849	0.927270	0.000110
1673	1.6636e+02	-13.3761	-49.166258	0.000253	2.534120	0.858583	0.000101
1674	1.6646e+02	-13.3296	-49.057255	0.000274	2.736849	0.927270	0.000110
1675	1.6656e+02	-13.3039	-48.903844	0.000385	3.851862	1.305046	0.000154
1676	1.6666e+02	-13.2590	-48.810990	0.000233	2.331390	0.789896	0.000093
1677	1.6676e+02	-13.2125	-48.685838	0.000314	3.142308	1.064643	0.000126
1678	1.6686e+02	-13.1804	-48.552613	0.000335	3.345038	1.133329	0.000134
1679	1.6696e+02	-13.1451	-48.483982	0.000172	1.723201	0.583836	0.000069
1680	1.6706e+02	-13.1082	-48.358830	0.000314	3.142308	1.064643	0.000126
1681	1.6716e+02	-13.0665	-48.233679	0.000314	3.142308	1.064643	0.000126
1682	1.6726e+02	-13.0280	-48.124677	0.000274	2.736849	0.927270	0.000110
1683	1.6736e+02	-12.9750	-47.991451	0.000335	3.345038	1.133329	0.000134
1684	1.6746e+02	-12.9349	-47.906671	0.000213	2.128660	0.721210	0.000085
1685	1.6756e+02	-12.8948	-47.785557	0.000304	3.040943	1.030300	0.000122
1686	1.6766e+02	-12.8611	-47.636183	0.000375	3.750497	1.270703	0.000150
1687	1.6776e+02	-12.8242	-47.555440	0.000203	2.027296	0.686866	0.000081
1688	1.6786e+02	-12.7857	-47.410104	0.000365	3.649132	1.236359	0.000146
1689	1.6796e+02	-12.7456	-47.276878	0.000335	3.345038	1.133329	0.000134
1690	1.6806e+02	-12.7071	-47.212284	0.000162	1.621836	0.549493	0.000065
1691	1.6816e+02	-12.6574	-47.083096	0.000324	3.243673	1.098986	0.000130
1692	1.6825e+02	-12.6205	-46.893350	0.000476	4.764145	1.614136	0.000191
1693	1.6835e+02	-12.5852	-46.820682	0.000182	1.824566	0.618180	0.000073
1694	1.6845e+02	-12.5403	-46.711679	0.000274	2.736849	0.927270	0.000110
1695	1.6855e+02	-12.5098	-46.534045	0.000446	4.460050	1.511106	0.000179
1696	1.6865e+02	-12.4569	-46.481562	0.000132	1.317742	0.446463	0.000053
1697	1.6875e+02	-12.4248	-46.340263	0.000355	3.547767	1.202016	0.000142
1698	1.6885e+02	-12.3815	-46.211074	0.000324	3.243673	1.098986	0.000130
1699	1.6895e+02	-12.3430	-46.098034	0.000284	2.838214	0.961613	0.000114
1700	1.6905e+02	-12.3061	-45.984995	0.000284	2.838214	0.961613	0.000114
1701	1.6915e+02	-12.2579	-45.843695	0.000355	3.547767	1.202016	0.000142
1702	1.6925e+02	-12.2226	-45.746804	0.000243	2.432755	0.824240	0.000097
1703	1.6935e+02	-12.1906	-45.605504	0.000355	3.547767	1.202016	0.000142
1704	1.6945e+02	-12.1521	-45.496501	0.000274	2.736849	0.927270	0.000110
1705	1.6955e+02	-12.1007	-45.387499	0.000274	2.736849	0.927270	0.000110
1706	1.6965e+02	-12.0622	-45.213902	0.000436	4.358686	1.476763	0.000174
1707	1.6975e+02	-12.0253	-45.129122	0.000213	2.128660	0.721210	0.000085
1708	1.6985e+02	-11.9804	-44.995896	0.000335	3.345038	1.133329	0.000134
1709	1.6995e+02	-11.9451	-44.862671	0.000335	3.345038	1.133329	0.000134
1710	1.7005e+02	-11.8970	-44.765780	0.000243	2.432755	0.824240	0.000097
1711	1.7015e+02	-11.8681	-44.628517	0.000345	3.446403	1.167673	0.000138
1712	1.7024e+02	-11.8200	-44.531626	0.000243	2.432755	0.824240	0.000097
1713	1.7034e+02	-11.7783	-44.370140	0.000405	4.054591	1.373733	0.000162
1714	1.7044e+02	-11.7462	-44.273249	0.000243	2.432755	0.824240	0.000097
1715	1.7054e+02	-11.7093	-44.123875	0.000375	3.750497	1.270703	0.000150
1716	1.7064e+02	-11.6708	-44.043132	0.000203	2.027296	0.686866	0.000081
1717	1.7074e+02	-11.6323	-43.926055	0.000294	2.939579	0.995956	0.000118
1718	1.7084e+02	-11.5810	-43.760533	0.000416	4.155956	1.408076	0.000166
1719	1.7094e+02	-11.5553	-43.675753	0.000213	2.128660	0.721210	0.000085
1720	1.7104e+02	-11.5136	-43.490045	0.000466	4.662780	1.579793	0.000187
1721	1.7114e+02	-11.4735	-43.441599	0.000122	1.216377	0.412120	0.000049
1722	1.7124e+02	-11.4270	-43.320485	0.000304	3.040943	1.030300	0.000122
1723	1.7134e+02	-11.3804	-43.219557	0.000253	2.534120	0.858583	0.000101
1724	1.7144e+02	-11.3467	-43.058071	0.000405	4.054591	1.373733	0.000162
1725	1.7154e+02	-11.3114	-42.940994	0.000294	2.939579	0.995956	0.000118
1726	1.7164e+02	-11.2633	-42.791620	0.000375	3.750497	1.270703	0.000150
1727	1.7174e+02	-11.2232	-42.702803	0.000223	2.230025	0.755553	0.000089
1728	1.7184e+02	-11.1911	-42.565541	0.000345	3.446403	1.167673	0.000138
1729	1.7194e+02	-11.1542	-42.468649	0.000243	2.432755	0.824240	0.000097
1730	1.7204e+02	-11.1141	-42.311201	0.000395	3.953226	1.339389	0.000158
1731	1.7213e+02	-11.0580	-42.222384	0.000223	2.230025	0.755553	0.000089
1732	1.7223e+02	-11.0339	-42.056862	0.000416	4.155956	1.408076	0.000166
1733	1.7233e+02	-10.9938	-41.927673	0.000324	3.243673	1.098986	0.000130
1734	1.7243e+02	-10.9457	-41.842893	0.000213	2.128660	0.721210	0.000085
1735	1.7253e+02	-10.9088	-41.721779	0.000304	3.040943	1.030300	0.000122
1736	1.7263e+02	-10.8719	-41.576442	0.000365	3.649132	1.236359	0.000146
1737	1.7273e+02	-10.8350	-41.471477	0.000264	2.635484	0.892926	0.000105
1738	1.7283e+02	-10.7837	-41.346326	0.000314	3.142308	1.064643	0.000126
1739	1.7293e+02	-10.7516	-41.265583	0.000203	2.027296	0.686866	0.000081
1740	1.7303e+02	-10.7002	-41.075838	0.000476	4.764145	1.614136	0.000191
1741	1.7313e+02	-10.6649	-40.962798	0.000284	2.838214	0.961613	0.000114
1742	1.7323e+02	-10.6313	-40.841684	0.000304	3.040943	1.030300	0.000122
1743	1.7333e+02	-10.5895	-40.712495	0.000324	3.243673	1.098986	0.000130
1744	1.7343e+02	-10.5494	-40.615604	0.000243	2.432755	0.824240	0.000097
1745	1.7353e+02	-10.5125	-40.474304	0.000355	3.547767	1.202016	0.000142
1746	1.7363e+02	-10.4740	-40.409710	0.000162	1.621836	0.549493	0.000065
1747	1.7373e+02	-10.4275	-40.252262	0.000395	3.953226	1.339389	0.000158
1748	1.7383e+02	-10.3906	-40.135185	0.000294	2.939579	0.995956	0.000118
1749	1.7393e+02	-10.3601	-39.973700	0.000405	4.054591	1.373733	0.000162
1750	1.7403e+02	-10.3136	-39.872771	0.000253	2.534120	0.858583	0.000101
1751	1.7413e+02	-10.2735	-39.743583	0.000324	3.243673	1.098986	0.000130
1752	1.7422e+02	-10.2302	-39.642654	0.000253	2.534120	0.858583	0.000101
1753	1.7432e+02	-10.1949	-39.460983	0.000456	4.561415	1.545449	0.000183
1754	1.7442e+02	-10.1404	-39.364092	0.000243	2.432755	0.824240	0.000097
1755	1.7452e+02	-10.1083	-39.206644	0.000395	3.953226	1.339389	0.000158
1756	1.7462e+02	-10.0666	-39.113790	0.000233	2.331390	0.789896	0.000093
1757	1.7472e+02	-10.0329	-38.996713	0.000294	2.939579	0.995956	0.000118
1758	1.7482e+02	-9.9912	-38.855413	0.000355	3.547767	1.202016	0.000142
1759	1.7492e+02	-9.9527	-38.738336	0.000294	2.939579	0.995956	0.000118
1760	1.7502e+02	-9.9093	-38.560702	0.000446	4.460050	1.511106	0.000179
1761	1.7512e+02	-9.8757	-38.467848	0.000233	2.331390	0.789896	0.000093
1762	1.7522e+02	-9.8339	-38.310400	0.000395	3.953226	1.339389	0.000158
1763	1.7532e+02	-9.7970	-38.261954	0.000122	1.216377	0.412120	0.000049
1764	1.7542e+02	-9.7505	-38.104506	0.000395	3.953226	1.339389	0.000158
1765	1.7552e+02	-9.7200	-37.959169	0.000365	3.649132	1.236359	0.000146
1766	1.7562e+02	-9.6767	-37.838055	0.000304	3.040943	1.030300	0.000122
1767	1.7572e+02	-9.6318	-37.712903	0.000314	3.142308	1.064643	0.000126
1768	1.7582e+02	-9.6078	-37.616012	0.000243	2.432755	0.824240	0.000097
1769	1.7592e+02	-9.5580	-37.454527	0.000405	4.054591	1.373733	0.000162
1770	1.7602e+02	-9.5179	-37.349561	0.000264	2.635484	0.892926	0.000105
1771	1.7612e+02	-9.4826	-37.220373	0.000324	3.243673	1.098986	0.000130
1772	1.7621e+02	-9.4377	-37.066962	0.000385	3.851862	1.305046	0.000154
1773	1.7631e+02	-9.4024	-36.994293	0.000182	1.824566	0.618180	0.000073
1774	1.7641e+02	-9.3591	-36.865105	0.000324	3.243673	1.098986	0.000130
1775	1.7651e+02	-9.3222	-36.715731	0.000375	3.750497	1.270703	0.000150
1776	1.7661e+02	-9.2741	-36.590580	0.000314	3.142308	1.064643	0.000126
1777	1.7671e+02	-9.2388	-36.489651	0.000253	2.534120	0.858583	0.000101
1778	1.7681e+02	-9.2035	-36.356426	0.000335	3.345038	1.133329	0.000134
1779	1.7691e+02	-9.1634	-36.271646	0.000213	2.128660	0.721210	0.000085
1780	1.7701e+02	-9.1136	-36.114198	0.000395	3.953226	1.339389	0.000158
1781	1.7711e+02	-9.0816	-36.009232	0.000264	2.635484	0.892926	0.000105
1782	1.7721e+02	-9.0366	-35.888118	0.000304	3.040943	1.030300	0.000122
1783	1.7731e+02	-8.9901	-35.722596	0.000416	4.155956	1.408076	0.000166
1784	1.7741e+02	-8.9532	-35.645890	0.000193	1.925931	0.652523	0.000077
1785	1.7751e+02	-8.9147	-35.524776	0.000304	3.040943	1.030300	0.000122
1786	1.7761e+02	-8.8650	-35.371365	0.000385	3.851862	1.305046	0.000154
1787	1.7771e+02	-8.8409	-35.213916	0.000395	3.953226	1.339389	0.000158
1788	1.7781e+02	-8.7960	-35.121062	0.000233	2.331390	0.789896	0.000093
1789	1.7791e+02	-8.7575	-34.975725	0.000365	3.649132	1.236359	0.000146
1790	1.7801e+02	-8.7206	-34.882871	0.000233	2.331390	0.789896	0.000093
1791	1.7810e+02	-8.6741	-34.790017	0.000233	2.331390	0.789896	0.000093
1792	1.7820e+02	-8.6372	-34.644680	0.000365	3.649132	1.236359	0.000146
1793	1.7830e+02	-8.6003	-34.499343	0.000365	3.649132	1.236359	0.000146
1794	1.7840e+02	-8.5586	-34.390341	0.000274	2.736849	0.927270	0.000110
1795	1.7850e+02	-8.5169	-34.216744	0.000436	4.358686	1.476763	0.000174
1796	1.7860e+02	-8.4768	-34.131964	0.000213	2.128660	0.721210	0.000085
1797	1.7870e+02	-8.4399	-34.018924	0.000284	2.838214	0.961613	0.000114
1798	1.7880e+02	-8.4078	-33.893773	0.000314	3.142308	1.064643	0.000126
1799	1.7890e+02	-8.3725	-33.784770	0.000274	2.736849	0.927270	0.000110
1800	1.7900e+02	-8.3260	-33.619248	0.000416	4.155956	1.408076	0.000166
1801	1.7910e+02	-8.2859	-33.486022	0.000335	3.345038	1.133329	0.000134
1802	1.7920e+02	-8.2474	-33.364908	0.000304	3.040943	1.030300	0.000122
1803	1.7930e+02	-8.1960	-33.243794	0.000304	3.040943	1.030300	0.000122
1804	1.7940e+02	-8.1607	-33.118643	0.000314	3.142308	1.064643	0.000126
1805	1.7950e+02	-8.1222	-33.013677	0.000264	2.635484	0.892926	0.000105
1806	1.7960e+02	-8.0789	-32.860266	0.000385	3.851862	1.305046	0.000154
1807	1.7970e+02	-8.0372	-32.735115	0.000314	3.142308	1.064643	0.000126
1808	1.7980e+02	-8.0035	-32.609964	0.000314	3.142308	1.064643	0.000126
1809	1.7990e+02	-7.9602	-32.480776	0.000324	3.243673	1.098986	0.000130
1810	1.8000e+02	-7.9121	-32.359662	0.000304	3.040943	1.030300	0.000122
1811	1.8009e+02	-7.8784	-32.198176	0.000405	4.054591	1.373733	0.000162
1812	1.8019e+02	-7.8415	-32.089173	0.000274	2.736849	0.927270	0.000110
1813	1.8029e+02	-7.8030	-31.955948	0.000335	3.345038	1.133329	0.000134
1814	1.8039e+02	-7.7517	-31.834834	0.000304	3.040943	1.030300	0.000122
1815	1.8049e+02	-7.7196	-31.673348	0.000405	4.054591	1.373733	0.000162
1816	1.8059e+02	-7.6859	-31.572420	0.000253	2.534120	0.858583	0.000101
1817	1.8069e+02	-7.6426	-31.431120	0.000355	3.547767	1.202016	0.000142
1818	1.8079e+02	-7.5993	-31.346340	0.000213	2.128660	0.721210	0.000085
1819	1.8089e+02	-7.5591	-31.184855	0.000405	4.054591	1.373733	0.000162
1820	1.8099e+02	-7.5174	-31.087964	0.000243	2.432755	0.824240	0.000097
1821	1.8109e+02	-7.4805	-30.978961	0.000274	2.736849	0.927270	0.000110
1822	1.8119e+02	-7.4436	-30.793253	0.000466	4.662780	1.579793	0.000187
1823	1.8129e+02	-7.4100	-30.684250	0.000274	2.736849	0.927270	0.000110
1824	1.8139e+02	-7.3618	-30.542950	0.000355	3.547767	1.202016	0.000142
1825	1.8149e+02	-7.3265	-30.417799	0.000314	3.142308	1.064643	0.000126
1826	1.8159e+02	-7.2896	-30.268425	0.000375	3.750497	1.270703	0.000150
1827	1.8169e+02	-7.2415	-30.135200	0.000335	3.345038	1.133329	0.000134
1828	1.8179e+02	-7.2014	-30.038308	0.000243	2.432755	0.824240	0.000097
1829	1.8189e+02	-7.1613	-29.888934	0.000375	3.750497	1.270703	0.000150
1830	1.8199e+02	-7.1228	-29.767820	0.000304	3.040943	1.030300	0.000122
1831	1.8209e+02	-7.0875	-29.630558	0.000345	3.446403	1.167673	0.000138
1832	1.8218e+02	-7.0538	-29.485221	0.000365	3.649132	1.236359	0.000146
1833	1.8228e+02	-7.0041	-29.400441	0.000213	2.128660	0.721210	0.000085
1834	1.8238e+02	-6.9624	-29.230881	0.000426	4.257321	1.442419	0.000170
1835	1.8248e+02	-6.9223	-29.109767	0.000304	3.040943	1.030300	0.000122
1836	1.8258e+02	-6.8838	-28.976542	0.000335	3.345038	1.133329	0.000134
1837	1.8268e+02	-6.8324	-28.875613	0.000253	2.534120	0.858583	0.000101
1838	1.8278e+02	-6.8084	-28.750462	0.000314	3.142308	1.064643	0.000126
1839	1.8288e+02	-6.7715	-28.584940	0.000416	4.155956	1.408076	0.000166
1840	1.8298e+02	-6.7249	-28.479974	0.000264	2.635484	0.892926	0.000105
1841	1.8308e+02	-6.6832	-28.346749	0.000335	3.345038	1.133329	0.000134
1842	1.8318e+02	-6.6463	-28.233709	0.000284	2.838214	0.961613	0.000114
1843	1.8328e+02	-6.5982	-28.112595	0.000304	3.040943	1.030300	0.000122
1844	1.8338e+02	-6.5661	-27.926886	0.000466	4.662780	1.579793	0.000187
1845	1.8348e+02	-6.5244	-27.850181	0.000193	1.925931	0.652523	0.000077
1846	1.8358e+02	-6.4843	-27.712918	0.000345	3.446403	1.167673	0.000138
1847	1.8368e+02	-6.4506	-27.559507	0.000385	3.851862	1.305046	0.000154
1848	1.8378e+02	-6.4121	-27.438393	0.000304	3.040943	1.030300	0.000122
1849	1.8388e+02	-6.3720	-27.333428	0.000264	2.635484	0.892926	0.000105
1850	1.8398e+02	-6.3383	-27.212313	0.000304	3.040943	1.030300	0.000122
1851	1.8407e+02	-6.2982	-27.058902	0.000385	3.851862	1.305046	0.000154
1852	1.8417e+02	-6.2437	-26.937788	0.000304	3.040943	1.030300	0.000122
1853	1.8427e+02	-6.2052	-26.764191	0.000436	4.358686	1.476763	0.000174
1854	1.8437e+02	-6.1683	-26.663263	0.000253	2.534120	0.858583	0.000101
1855	1.8447e+02	-6.1346	-26.534075	0.000324	3.243673	1.098986	0.000130
1856	1.8457e+02	-6.0929	-26.421035	0.000284	2.838214	0.961613	0.000114
1857	1.8467e+02	-6.0480	-26.295884	0.000314	3.142308	1.064643	0.000126
1858	1.8477e+02	-6.0175	-26.122287	0.000436	4.358686	1.476763	0.000174
1859	1.8487e+02	-5.9726	-25.989061	0.000335	3.345038	1.133329	0.000134
1860	1.8497e+02	-5.9276	-25.871984	0.000294	2.939579	0.995956	0.000118
1861	1.8507e+02	-5.8940	-25.722610	0.000375	3.750497	1.270703	0.000150
1862	1.8517e+02	-5.8538	-25.585348	0.000345	3.446403	1.167673	0.000138
1863	1.8527e+02	-5.8186	-25.488456	0.000243	2.432755	0.824240	0.000097
1864	1.8537e+02	-5.7752	-25.335045	0.000385	3.851862	1.305046	0.000154
1865	1.8547e+02	-5.7335	-25.181634	0.000385	3.851862	1.305046	0.000154
1866	1.8557e+02	-5.6870	-25.048409	0.000335	3.345038	1.133329	0.000134
1867	1.8567e+02	-5.6613	-24.899035	0.000375	3.750497	1.270703	0.000150
1868	1.8577e+02	-5.6100	-24.733512	0.000416	4.155956	1.408076	0.000166
1869	1.8587e+02	-5.5779	-24.608361	0.000314	3.142308	1.064643	0.000126
1870	1.8597e+02	-5.5330	-24.463024	0.000365	3.649132	1.236359	0.000146
1871	1.8606e+02	-5.4977	-24.390356	0.000182	1.824566	0.618180	0.000073
1872	1.8616e+02	-5.4480	-24.249056	0.000355	3.547767	1.202016	0.000142
1873	1.8626e+02	-5.4095	-24.111793	0.000345	3.446403	1.167673	0.000138
1874	1.8636e+02	-5.3758	-23.994716	0.000294	2.939579	0.995956	0.000118
1875	1.8646e+02	-5.3309	-23.833231	0.000405	4.054591	1.373733	0.000162
1876	1.8656e+02	-5.2972	-23.659634	0.000436	4.358686	1.476763	0.000174
1877	1.8666e+02	-5.2651	-23.538520	0.000304	3.040943	1.030300	0.000122
1878	1.8676e+02	-5.2105	-23.368960	0.000426	4.257321	1.442419	0.000170
1879	1.8686e+02	-5.1801	-23.300329	0.000172	1.723201	0.583836	0.000069
1880	1.8696e+02	-5.1400	-23.142881	0.000395	3.953226	1.339389	0.000158
1881	1.8706e+02	-5.0983	-23.005618	0.000345	3.446403	1.167673	0.000138
1882	1.8716e+02	-5.0501	-22.888541	0.000294	2.939579	0.995956	0.000118
1883	1.8726e+02	-5.0277	-22.755316	0.000335	3.345038	1.133329	0.000134
1884	1.8736e+02	-4.9731	-22.605942	0.000375	3.750497	1.270703	0.000150
1885	1.8746e+02	-4.9458	-22.460605	0.000365	3.649132	1.236359	0.000146
1886	1.8756e+02	-4.8977	-22.339491	0.000304	3.040943	1.030300	0.000122
1887	1.8766e+02	-4.8576	-22.178005	0.000405	4.054591	1.373733	0.000162
1888	1.8776e+02	-4.8143	-22.069003	0.000274	2.736849	0.927270	0.000110
1889	1.8786e+02	-4.7790	-21.935777	0.000335	3.345038	1.133329	0.000134
1890	1.8796e+02	-4.7389	-21.818700	0.000294	2.939579	0.995956	0.000118
1891	1.8806e+02	-4.6940	-21.637029	0.000456	4.561415	1.545449	0.000183
1892	1.8815e+02	-4.6603	-21.515915	0.000304	3.040943	1.030300	0.000122
1893	1.8825e+02	-4.6218	-21.378652	0.000345	3.446403	1.167673	0.000138
1894	1.8835e+02	-4.5737	-21.205055	0.000436	4.358686	1.476763	0.000174
1895	1.8845e+02	-4.5464	-21.104127	0.000253	2.534120	0.858583	0.000101
1896	1.8855e+02	-4.4999	-20.958790	0.000365	3.649132	1.236359	0.000146
1897	1.8865e+02	-4.4582	-20.833639	0.000314	3.142308	1.064643	0.000126
1898	1.8875e+02	-4.4229	-20.712525	0.000304	3.040943	1.030300	0.000122
1899	1.8885e+02	-4.3763	-20.555077	0.000395	3.953226	1.339389	0.000158
1900	1.8895e+02	-4.3282	-20.433963	0.000304	3.040943	1.030300	0.000122
1901	1.8905e+02	-4.2945	-20.300737	0.000335	3.345038	1.133329	0.000134
1902	1.8915e+02	-4.2560	-20.131177	0.000426	4.257321	1.442419	0.000170
1903	1.8925e+02	-4.2175	-19.973729	0.000395	3.953226	1.339389	0.000158
1904	1.8935e+02	-4.1822	-19.880875	0.000233	2.331390	0.789896	0.000093
1905	1.8945e+02	-4.1502	-19.767835	0.000284	2.838214	0.961613	0.000114
1906	1.8955e+02	-4.0924	-19.614424	0.000385	3.851862	1.305046	0.000154
1907	1.8965e+02	-4.0603	-19.469087	0.000365	3.649132	1.236359	0.000146
1908	1.8975e+02	-4.0250	-19.364122	0.000264	2.635484	0.892926	0.000105
1909	1.8985e+02	-3.9721	-19.202636	0.000405	4.054591	1.373733	0.000162
1910	1.8995e+02	-3.9272	-19.069411	0.000335	3.345038	1.133329	0.000134
1911	1.9004e+02	-3.9015	-18.911962	0.000395	3.953226	1.339389	0.000158
1912	1.9014e+02	-3.8630	-18.786811	0.000314	3.142308	1.064643	0.000126
1913	1.9024e+02	-3.8197	-18.653586	0.000335	3.345038	1.133329	0.000134
1914	1.9034e+02	-3.7812	-18.524397	0.000324	3.243673	1.098986	0.000130
1915	1.9044e+02	-3.7363	-18.350800	0.000436	4.358686	1.476763	0.000174
1916	1.9054e+02	-3.7010	-18.241798	0.000274	2.736849	0.927270	0.000110
1917	1.9064e+02	-3.6496	-18.108572	0.000335	3.345038	1.133329	0.000134
1918	1.9074e+02	-3.6288	-17.975347	0.000335	3.345038	1.133329	0.000134
1919	1.9084e+02	-3.5726	-17.825973	0.000375	3.750497	1.270703	0.000150
1920	1.9094e+02	-3.5438	-17.692747	0.000335	3.345038	1.133329	0.000134
1921	1.9104e+02	-3.4988	-17.507039	0.000466	4.662780	1.579793	0.000187
1922	1.9114e+02	-3.4635	-17.389962	0.000294	2.939579	0.995956	0.000118
1923	1.9124e+02	-3.4154	-17.284997	0.000264	2.635484	0.892926	0.000105
1924	1.9134e+02	-3.3849	-17.127548	0.000395	3.953226	1.339389	0.000158
1925	1.9144e+02	-3.3336	-17.010471	0.000294	2.939579	0.995956	0.000118
1926	1.9154e+02	-3.3031	-16.873209	0.000345	3.446403	1.167673	0.000138
1927	1.9164e+02	-3.2678	-16.731909	0.000355	3.547767	1.202016	0.000142
1928	1.9174e+02	-3.2197	-16.594646	0.000345	3.446403	1.167673	0.000138
1929	1.9184e+02	-3.1748	-16.445272	0.000375	3.750497	1.270703	0.000150
1930	1.9194e+02	-3.1427	-16.324158	0.000304	3.040943	1.030300	0.000122
1931	1.9203e+02	-3.1122	-16.146524	0.000446	4.460050	1.511106	0.000179
1932	1.9213e+02	-3.0609	-16.017336	0.000324	3.243673	1.098986	0.000130
1933	1.9223e+02	-3.0224	-15.839702	0.000446	4.460050	1.511106	0.000179
1934	1.9233e+02	-2.9775	-15.714551	0.000314	3.142308	1.064643	0.000126
1935	1.9243e+02	-2.9406	-15.597474	0.000294	2.939579	0.995956	0.000118
1936	1.9253e+02	-2.9037	-15.448100	0.000375	3.750497	1.270703	0.000150
1937	1.9263e+02	-2.8668	-15.290652	0.000395	3.953226	1.339389	0.000158
1938	1.9273e+02	-2.8315	-15.173575	0.000294	2.939579	0.995956	0.000118
1939	1.9283e+02	-2.7849	-14.991904	0.000456	4.561415	1.545449	0.000183
1940	1.9293e+02	-2.7416	-14.895012	0.000243	2.432755	0.824240	0.000097
1941	1.9303e+02	-2.7031	-14.725453	0.000426	4.257321	1.442419	0.000170
1942	1.9313e+02	-2.6662	-14.616450	0.000274	2.736849	0.927270	0.000110
1943	1.9323e+02	-2.6213	-14.491299	0.000314	3.142308	1.064643	0.000126
1944	1.9333e+02	-2.5892	-14.337888	0.000385	3.851862	1.305046	0.000154
1945	1.9343e+02	-2.5443	-14.216774	0.000304	3.040943	1.030300	0.000122
1946	1.9353e+02	-2.5154	-14.047214	0.000426	4.257321	1.442419	0.000170
1947	1.9363e+02	-2.4641	-13.909951	0.000345	3.446403	1.167673	0.000138
1948	1.9373e+02	-2.4256	-13.776726	0.000335	3.345038	1.133329	0.000134
1949	1.9383e+02	-2.3823	-13.639463	0.000345	3.446403	1.167673	0.000138
1950	1.9393e+02	-2.3486	-13.510275	0.000324	3.243673	1.098986	0.000130
1951	1.9403e+02	-2.3069	-13.360901	0.000375	3.750497	1.270703	0.000150
1952	1.9412e+02	-2.2684	-13.280158	0.000203	2.027296	0.686866	0.000081
1953	1.9422e+02	-2.2219	-13.134821	0.000365	3.649132	1.236359	0.000146
1954	1.9432e+02	-2.1866	-12.965261	0.000426	4.257321	1.442419	0.000170
1955	1.9442e+02	-2.1465	-12.860296	0.000264	2.635484	0.892926	0.000105
1956	1.9452e+02	-2.0983	-12.690736	0.000426	4.257321	1.442419	0.000170
1957	1.9462e+02	-2.0663	-12.561548	0.000324	3.243673	1.098986	0.000130
1958	1.9472e+02	-2.0261	-12.420248	0.000355	3.547767	1.202016	0.000142
1959	1.9482e+02	-1.9909	-12.287023	0.000335	3.345038	1.133329	0.000134
1960	1.9492e+02	-1.9588	-12.157834	0.000324	3.243673	1.098986	0.000130
1961	1.9502e+02	-1.9106	-11.984237	0.000436	4.358686	1.476763	0.000174
1962	1.9512e+02	-1.8721	-11.899458	0.000213	2.128660	0.721210	0.000085
1963	1.9522e+02	-1.8320	-11.750084	0.000375	3.750497	1.270703	0.000150
1964	1.9532e+02	-1.7887	-11.572450	0.000446	4.460050	1.511106	0.000179
1965	1.9542e+02	-1.7502	-11.455373	0.000294	2.939579	0.995956	0.000118
1966	1.9552e+02	-1.7085	-11.342333	0.000284	2.838214	0.961613	0.000114
1967	1.9562e+02	-1.6620	-11.217182	0.000314	3.142308	1.064643	0.000126
1968	1.9572e+02	-1.6299	-11.027436	0.000476	4.764145	1.614136	0.000191
1969	1.9582e+02	-1.5898	-10.878062	0.000375	3.750497	1.270703	0.000150
1970	1.9592e+02	-1.5545	-10.740800	0.000345	3.446403	1.167673	0.000138
1971	1.9601e+02	-1.5096	-10.631797	0.000274	2.736849	0.927270	0.000110
1972	1.9611e+02	-1.4695	-10.438014	0.000487	4.865509	1.648479	0.000195
1973	1.9621e+02	-1.4278	-10.329012	0.000274	2.736849	0.927270	0.000110
1974	1.9631e+02	-1.3909	-10.179638	0.000375	3.750497	1.270703	0.000150
1975	1.9641e+02	-1.3540	-10.074672	0.000264	2.635484	0.892926	0.000105
1976	1.9651e+02	-1.3042	-9.893001	0.000456	4.561415	1.545449	0.000183
1977	1.9661e+02	-1.2706	-9.755739	0.000345	3.446403	1.167673	0.000138
1978	1.9671e+02	-1.2337	-9.614439	0.000355	3.547767	1.202016	0.000142
1979	1.9681e+02	-1.1871	-9.477176	0.000345	3.446403	1.167673	0.000138
1980	1.9691e+02	-1.1534	-9.352025	0.000314	3.142308	1.064643	0.000126
1981	1.9701e+02	-1.1101	-9.222837	0.000324	3.243673	1.098986	0.000130
1982	1.9711e+02	-1.0716	-9.069425	0.000385	3.851862	1.305046	0.000154
1983	1.9721e+02	-1.0315	-8.932163	0.000345	3.446403	1.167673	0.000138
1984	1.9731e+02	-0.9946	-8.790863	0.000355	3.547767	1.202016	0.000142
1985	1.9741e+02	-0.9529	-8.645526	0.000365	3.649132	1.236359	0.000146
1986	1.9751e+02	-0.9160	-8.500189	0.000365	3.649132	1.236359	0.000146
1987	1.9761e+02	-0.8743	-8.366964	0.000335	3.345038	1.133329	0.000134
1988	1.9771e+02	-0.8342	-8.229701	0.000345	3.446403	1.167673	0.000138
1989	1.9781e+02	-0.7957	-8.060142	0.000426	4.257321	1.442419	0.000170
1990	1.9791e+02	-0.7588	-7.955176	0.000264	2.635484	0.892926	0.000105
1991	1.9800e+02	-0.7091	-7.797728	0.000395	3.953226	1.339389	0.000158
1992	1.9810e+02	-0.6706	-7.656428	0.000355	3.547767	1.202016	0.000142
1993	1.9820e+02	-0.6337	-7.503017	0.000385	3.851862	1.305046	0.000154
1994	1.9830e+02	-0.5984	-7.398051	0.000264	2.635484	0.892926	0.000105
1995	1.9840e+02	-0.5567	-7.232529	0.000416	4.155956	1.408076	0.000166
1996	1.9850e+02	-0.5053	-7.054895	0.000446	4.460050	1.511106	0.000179
1997	1.9860e+02	-0.4732	-6.958003	0.000243	2.432755	0.824240	0.000097
1998	1.9870e+02	-0.4315	-6.756147	0.000507	5.068239	1.717166	0.000203
1999	1.9880e+02	-0.3962	-6.639070	0.000294	2.939579	0.995956	0.000118
2000	1.9890e+02	-0.3529	-6.554290	0.000213	2.128660	0.721210	0.000085
2001	1.9900e+02	-0.3192	-6.364544	0.000476	4.764145	1.614136	0.000191
2002	1.9910e+02	-0.2759	-6.174799	0.000476	4.764145	1.614136	0.000191
2003	1.9920e+02	-0.2374	-6.057722	0.000294	2.939579	0.995956	0.000118
2004	1.9930e+02	-0.1925	-5.924497	0.000335	3.345038	1.133329	0.000134
2005	1.9940e+02	-0.1492	-5.775123	0.000375	3.750497	1.270703	0.000150
2006	1.9950e+02	-0.1091	-5.637860	0.000345	3.446403	1.167673	0.000138
2007	1.9960e+02	-0.0770	-5.508672	0.000324	3.243673	1.098986	0.000130
2008	1.9970e+02	-0.0369	-5.403706	0.000264	2.635484	0.892926	0.000105
2009	1.9980e+02	0.0080	-5.270481	0.000264	2.635484	0.892926	0.000134

PMax (uC/cm2):	7.26e+01
Pr (uC/cm2):	6.66e+00
-Pr (uC/cm2):	7.47e-01
PLoss (uC/cm2):	7.43e-01
Vc:	-2.24e-01
-Vc:	-1.87e+00
C (Max-Eff) (nF):	3.63e-01
K (Eff):	1.23e+03
Vert. (+/-Pr) Shift (uC/cm2):	3.70e+00
Horiz. Shift (+/-Vc):	-1.05e+00
Offset (uC/cm2):	6.02e+00

A (Loop Area - uC/cm2·Volts):	-4.68e-02



Hysteresis Version: 5.48.1 - Radiant Technologies, Inc., 1999 - 9/12/24

