»»»»»»»»»»»»»»»»»»»»»»»»»»»»»»»»»»»» Hysteresis ««««««««««««««««««««««««««««««««««««
»»»  Executed Version:	5.48.1
»»»  Vision Version:	5.48.4 (R)
»»»  Vision Compiled:	9/18/24
»»»  Driver Version:	5.47.0
»»»  Windows Version:	Windows 8 or 8.1
»»»  Processor Information:	x86 (AMD or Intel) - 32 Processors
»»»  Tester Name:	PMF21124-494 (100V)
»»»  Tester S/N:	PMF21124-494
»»»  Internal Amp Type:	100V RevK 270k
»»»  Internal Amp S/N:	iAB2-596/K     
»»»  Execution Count:	1
»»»»»»»»»»»»»»»»»»»»»»»»»»»»»»»»»»»»»»»»»»««««««««««««««««««««««««««««««««««««««««««

Stored:	6/19/2025 - 15:24:52
Configured:	06/19/25 10:04:32 AM
Executed:	06/19/25 03:24:30 PM

»»»»»»»»»»»»»»»»»»»»»»»»»»»»»»»»»»» Sample Info ««««««««««««««««««««««««««««««««««««
Sample Name:	
Lot Name:	
Wafer Name:	
Die Row/Column:	0/0
Capacitor Number:	0
Sample Area (cm2):	1.00e-04
Sample Thickness (microns):	3.00e-01

Amplifier:	Internal

»»»»»»»»»»»»»»»»»»»»»»»»»»»»»»»»»»» Tester Info «««««««««««««««««««««««««««««««««««
Tester Name:	PMF21124-494 (100V)
Tester Serial Number:	PMF21124-494
Return Signal Amp. Level:	0.19 [Index: 3]

»»»»»»»»»»»»»»»»»»»»»»»»»»»»»»»» Hysteresis Info ««««««««««««««««««««««««««««««««««
Task Name:	Hyst-1168
Volts:	20.00
Field:	666.67 (kV/cm)
DCBias:	0.00
DCField:	0.00 (kV/cm)
Hysteresis Period (ms):	2.00e+02
Preset:	Enabled
Preset Delay (ms):	1.00e+03
Profile:	Standard Bipolar

»»»»»»»»»»»»»»»»»»»»»»»»»»»»»»»»»»»»»» Data «««««««««««««««««««««««««««««««««««««««
Points:	2009

Valid Data

Point	Time (ms)	Drive Voltage	Measured Polarization (uC/cm2)	Capacitance (uF)	Normalized Capacitance (uF/cm2)	Dielectric Constant	Instantaneous Current (mA)
   1	0.0000e+00	0.0064	-3.290266	0.000274	2.736739	0.927232	0.000110
   2	9.9500e-02	0.0353	-3.181263	0.000274	2.736739	0.927232	0.000110
   3	1.9900e-01	0.0738	-3.035926	0.000365	3.648986	1.236310	0.000146
   4	2.9850e-01	0.1139	-2.870404	0.000416	4.155789	1.408020	0.000166
   5	3.9800e-01	0.1588	-2.765438	0.000264	2.635379	0.892890	0.000105
   6	4.9750e-01	0.1973	-2.620101	0.000365	3.648986	1.236310	0.000146
   7	5.9700e-01	0.2454	-2.551470	0.000172	1.723132	0.583813	0.000069
   8	6.9650e-01	0.2807	-2.414207	0.000345	3.446264	1.167626	0.000138
   9	7.9600e-01	0.3160	-2.321353	0.000233	2.331296	0.789865	0.000093
  10	8.9550e-01	0.3577	-2.171979	0.000375	3.750346	1.270652	0.000150
  11	9.9500e-01	0.3882	-2.046828	0.000314	3.142182	1.064600	0.000126
  12	1.0945e+00	0.4315	-1.897454	0.000375	3.750346	1.270652	0.000150
  13	1.1940e+00	0.4749	-1.796525	0.000253	2.534018	0.858548	0.000101
  14	1.2935e+00	0.5262	-1.683486	0.000284	2.838100	0.961574	0.000114
  15	1.3930e+00	0.5535	-1.522000	0.000405	4.054429	1.373678	0.000162
  16	1.4925e+00	0.5888	-1.400886	0.000304	3.040821	1.030258	0.000122
  17	1.5920e+00	0.6305	-1.279772	0.000304	3.040821	1.030258	0.000122
  18	1.6915e+00	0.6674	-1.142509	0.000345	3.446264	1.167626	0.000138
  19	1.7910e+00	0.7139	-1.005247	0.000345	3.446264	1.167626	0.000138
  20	1.8905e+00	0.7492	-0.831650	0.000436	4.358511	1.476703	0.000174
  21	1.9900e+00	0.7877	-0.702462	0.000324	3.243543	1.098942	0.000130
  22	2.0895e+00	0.8342	-0.536939	0.000416	4.155789	1.408020	0.000166
  23	2.1890e+00	0.8663	-0.415825	0.000304	3.040821	1.030258	0.000122
  24	2.2885e+00	0.9176	-0.278562	0.000345	3.446264	1.167626	0.000138
  25	2.3880e+00	0.9641	-0.177634	0.000253	2.534018	0.858548	0.000101
  26	2.4875e+00	0.9930	-0.044408	0.000334	3.344904	1.133284	0.000134
  27	2.5870e+00	1.0299	0.064594	0.000274	2.736739	0.927232	0.000110
  28	2.6865e+00	1.0700	0.205894	0.000355	3.547625	1.201968	0.000142
  29	2.7860e+00	1.1149	0.327008	0.000304	3.040821	1.030258	0.000122
  30	2.8855e+00	1.1502	0.476382	0.000375	3.750346	1.270652	0.000150
  31	2.9850e+00	1.1871	0.585385	0.000274	2.736739	0.927232	0.000110
  32	3.0845e+00	1.2353	0.706499	0.000304	3.040821	1.030258	0.000122
  33	3.1840e+00	1.2770	0.876058	0.000426	4.257150	1.442361	0.000170
  34	3.2835e+00	1.3042	1.001210	0.000314	3.142182	1.064600	0.000126
  35	3.3830e+00	1.3540	1.166732	0.000416	4.155789	1.408020	0.000166
  36	3.4825e+00	1.3861	1.275735	0.000274	2.736739	0.927232	0.000110
  37	3.5820e+00	1.4294	1.425109	0.000375	3.750346	1.270652	0.000150
  38	3.6815e+00	1.4727	1.610817	0.000466	4.662593	1.579729	0.000187
  39	3.7810e+00	1.5112	1.776340	0.000416	4.155789	1.408020	0.000166
  40	3.8805e+00	1.5513	1.901491	0.000314	3.142182	1.064600	0.000126
  41	3.9800e+00	1.5882	2.022605	0.000304	3.040821	1.030258	0.000122
  42	4.0795e+00	1.6363	2.159868	0.000345	3.446264	1.167626	0.000138
  43	4.1790e+00	1.6748	2.236573	0.000193	1.925854	0.652497	0.000077
  44	4.2785e+00	1.7181	2.406133	0.000426	4.257150	1.442361	0.000170
  45	4.3780e+00	1.7647	2.551470	0.000365	3.648986	1.236310	0.000146
  46	4.4775e+00	1.7887	2.644324	0.000233	2.331296	0.789865	0.000093
  47	4.5770e+00	1.8304	2.781587	0.000345	3.446264	1.167626	0.000138
  48	4.6765e+00	1.8786	2.951146	0.000426	4.257150	1.442361	0.000170
  49	4.7760e+00	1.9187	3.060149	0.000274	2.736739	0.927232	0.000110
  50	4.8755e+00	1.9572	3.185300	0.000314	3.142182	1.064600	0.000126
  51	4.9750e+00	1.9812	3.379083	0.000487	4.865314	1.648413	0.000195
  52	5.0745e+00	2.0278	3.500197	0.000304	3.040821	1.030258	0.000122
  53	5.1740e+00	2.0695	3.657645	0.000395	3.953068	1.339336	0.000158
  54	5.2735e+00	2.1031	3.762611	0.000264	2.635379	0.892890	0.000105
  55	5.3730e+00	2.1417	3.907947	0.000365	3.648986	1.236310	0.000146
  56	5.4725e+00	2.1930	4.093656	0.000466	4.662593	1.579729	0.000187
  57	5.5720e+00	2.2379	4.263215	0.000426	4.257150	1.442361	0.000170
  58	5.6715e+00	2.2732	4.368181	0.000264	2.635379	0.892890	0.000105
  59	5.7710e+00	2.3117	4.521592	0.000385	3.851707	1.304994	0.000154
  60	5.8705e+00	2.3470	4.679040	0.000395	3.953068	1.339336	0.000158
  61	5.9700e+00	2.3791	4.767857	0.000223	2.229936	0.755523	0.000089
  62	6.0695e+00	2.4272	4.905120	0.000345	3.446264	1.167626	0.000138
  63	6.1690e+00	2.4689	5.042383	0.000345	3.446264	1.167626	0.000138
  64	6.2685e+00	2.5154	5.171571	0.000324	3.243543	1.098942	0.000130
  65	6.3680e+00	2.5507	5.324982	0.000385	3.851707	1.304994	0.000154
  66	6.4675e+00	2.5844	5.482430	0.000395	3.953068	1.339336	0.000158
  67	6.5670e+00	2.6309	5.603544	0.000304	3.040821	1.030258	0.000122
  68	6.6665e+00	2.6598	5.720621	0.000294	2.939461	0.995916	0.000118
  69	6.7660e+00	2.7015	5.890181	0.000426	4.257150	1.442361	0.000170
  70	6.8655e+00	2.7561	6.023407	0.000334	3.344904	1.133284	0.000134
  71	6.9650e+00	2.7833	6.140483	0.000294	2.939461	0.995916	0.000118
  72	7.0645e+00	2.8218	6.314080	0.000436	4.358511	1.476703	0.000174
  73	7.1640e+00	2.8636	6.459417	0.000365	3.648986	1.236310	0.000146
  74	7.2635e+00	2.9085	6.608791	0.000375	3.750346	1.270652	0.000150
  75	7.3630e+00	2.9470	6.802574	0.000487	4.865314	1.648413	0.000195
  76	7.4625e+00	2.9823	6.927725	0.000314	3.142182	1.064600	0.000126
  77	7.5620e+00	3.0304	7.044802	0.000294	2.939461	0.995916	0.000118
  78	7.6615e+00	3.0737	7.178027	0.000334	3.344904	1.133284	0.000134
  79	7.7610e+00	3.1106	7.295104	0.000294	2.939461	0.995916	0.000118
  80	7.8605e+00	3.1571	7.444478	0.000375	3.750346	1.270652	0.000150
  81	7.9600e+00	3.1876	7.557518	0.000284	2.838100	0.961574	0.000114
  82	8.0595e+00	3.2197	7.727078	0.000426	4.257150	1.442361	0.000170
  83	8.1590e+00	3.2726	7.852229	0.000314	3.142182	1.064600	0.000126
  84	8.2585e+00	3.3111	8.001603	0.000375	3.750346	1.270652	0.000150
  85	8.3580e+00	3.3480	8.146940	0.000365	3.648986	1.236310	0.000146
  86	8.4575e+00	3.3817	8.296314	0.000375	3.750346	1.270652	0.000150
  87	8.5570e+00	3.4186	8.477985	0.000456	4.561232	1.545387	0.000183
  88	8.6565e+00	3.4732	8.578913	0.000253	2.534018	0.858548	0.000101
  89	8.7560e+00	3.5036	8.712139	0.000334	3.344904	1.133284	0.000134
  90	8.8555e+00	3.5389	8.905921	0.000487	4.865314	1.648413	0.000195
  91	8.9550e+00	3.5790	9.031073	0.000314	3.142182	1.064600	0.000126
  92	9.0545e+00	3.6159	9.200632	0.000426	4.257150	1.442361	0.000170
  93	9.1540e+00	3.6593	9.309635	0.000274	2.736739	0.927232	0.000110
  94	9.2535e+00	3.6994	9.499380	0.000476	4.763954	1.614071	0.000191
  95	9.3530e+00	3.7459	9.644717	0.000365	3.648986	1.236310	0.000146
  96	9.4525e+00	3.7828	9.753720	0.000274	2.736739	0.927232	0.000110
  97	9.5520e+00	3.8133	9.878871	0.000314	3.142182	1.064600	0.000126
  98	9.6515e+00	3.8646	10.016134	0.000345	3.446264	1.167626	0.000138
  99	9.7510e+00	3.9063	10.177619	0.000405	4.054429	1.373678	0.000162
 100	9.8505e+00	3.9432	10.314882	0.000345	3.446264	1.167626	0.000138
 101	9.9500e+00	3.9865	10.456182	0.000355	3.547625	1.201968	0.000142
 102	1.0050e+01	4.0154	10.569221	0.000284	2.838100	0.961574	0.000114
 103	1.0149e+01	4.0587	10.771078	0.000507	5.068036	1.717097	0.000203
 104	1.0248e+01	4.1020	10.884118	0.000284	2.838100	0.961574	0.000114
 105	1.0348e+01	4.1453	11.013306	0.000324	3.243543	1.098942	0.000130
 106	1.0447e+01	4.1838	11.166717	0.000385	3.851707	1.304994	0.000154
 107	1.0547e+01	4.2255	11.299943	0.000334	3.344904	1.133284	0.000134
 108	1.0646e+01	4.2624	11.501800	0.000507	5.068036	1.717097	0.000203
 109	1.0746e+01	4.3026	11.618877	0.000294	2.939461	0.995916	0.000118
 110	1.0845e+01	4.3411	11.804585	0.000466	4.662593	1.579729	0.000187
 111	1.0945e+01	4.3828	11.986256	0.000456	4.561232	1.545387	0.000183
 112	1.1044e+01	4.4165	12.095259	0.000274	2.736739	0.927232	0.000110
 113	1.1144e+01	4.4678	12.256744	0.000405	4.054429	1.373678	0.000162
 114	1.1243e+01	4.4999	12.369784	0.000284	2.838100	0.961574	0.000114
 115	1.1343e+01	4.5384	12.511084	0.000355	3.547625	1.201968	0.000142
 116	1.1443e+01	4.5849	12.676606	0.000416	4.155789	1.408020	0.000166
 117	1.1542e+01	4.6138	12.765423	0.000223	2.229936	0.755523	0.000089
 118	1.1642e+01	4.6667	12.910760	0.000365	3.648986	1.236310	0.000146
 119	1.1741e+01	4.6972	13.023800	0.000284	2.838100	0.961574	0.000114
 120	1.1841e+01	4.7453	13.229694	0.000517	5.169396	1.751439	0.000207
 121	1.1940e+01	4.7870	13.354845	0.000314	3.142182	1.064600	0.000126
 122	1.2040e+01	4.8143	13.492108	0.000345	3.446264	1.167626	0.000138
 123	1.2139e+01	4.8480	13.661667	0.000426	4.257150	1.442361	0.000170
 124	1.2239e+01	4.8961	13.807004	0.000365	3.648986	1.236310	0.000146
 125	1.2338e+01	4.9346	13.932155	0.000314	3.142182	1.064600	0.000126
 126	1.2438e+01	4.9795	14.077492	0.000365	3.648986	1.236310	0.000146
 127	1.2537e+01	5.0245	14.214755	0.000345	3.446264	1.167626	0.000138
 128	1.2636e+01	5.0630	14.408537	0.000487	4.865314	1.648413	0.000195
 129	1.2736e+01	5.0854	14.586171	0.000446	4.459871	1.511045	0.000179
 130	1.2835e+01	5.1400	14.715360	0.000324	3.243543	1.098942	0.000130
 131	1.2935e+01	5.1753	14.880882	0.000416	4.155789	1.408020	0.000166
 132	1.3034e+01	5.2138	14.989885	0.000274	2.736739	0.927232	0.000110
 133	1.3134e+01	5.2587	15.102925	0.000284	2.838100	0.961574	0.000114
 134	1.3233e+01	5.3004	15.240187	0.000345	3.446264	1.167626	0.000138
 135	1.3333e+01	5.3421	15.389561	0.000375	3.750346	1.270652	0.000150
 136	1.3432e+01	5.3886	15.559121	0.000426	4.257150	1.442361	0.000170
 137	1.3532e+01	5.4159	15.684272	0.000314	3.142182	1.064600	0.000126
 138	1.3632e+01	5.4576	15.805386	0.000304	3.040821	1.030258	0.000122
 139	1.3731e+01	5.4961	15.987058	0.000456	4.561232	1.545387	0.000183
 140	1.3831e+01	5.5362	16.132394	0.000365	3.648986	1.236310	0.000146
 141	1.3930e+01	5.5763	16.269657	0.000345	3.446264	1.167626	0.000138
 142	1.4030e+01	5.6164	16.414994	0.000365	3.648986	1.236310	0.000146
 143	1.4129e+01	5.6645	16.568405	0.000385	3.851707	1.304994	0.000154
 144	1.4229e+01	5.6870	16.746039	0.000446	4.459871	1.511045	0.000179
 145	1.4328e+01	5.7335	16.834856	0.000223	2.229936	0.755523	0.000089
 146	1.4428e+01	5.7688	17.048824	0.000537	5.372118	1.820123	0.000215
 147	1.4527e+01	5.8137	17.206273	0.000395	3.953068	1.339336	0.000158
 148	1.4627e+01	5.8474	17.343535	0.000345	3.446264	1.167626	0.000138
 149	1.4726e+01	5.9020	17.492909	0.000375	3.750346	1.270652	0.000150
 150	1.4825e+01	5.9405	17.609986	0.000294	2.939461	0.995916	0.000118
 151	1.4925e+01	5.9838	17.771472	0.000405	4.054429	1.373678	0.000162
 152	1.5024e+01	6.0127	17.880474	0.000274	2.736739	0.927232	0.000110
 153	1.5124e+01	6.0544	18.050034	0.000426	4.257150	1.442361	0.000170
 154	1.5223e+01	6.0961	18.175185	0.000314	3.142182	1.064600	0.000126
 155	1.5323e+01	6.1458	18.296299	0.000304	3.040821	1.030258	0.000122
 156	1.5422e+01	6.1715	18.490082	0.000487	4.865314	1.648413	0.000195
 157	1.5522e+01	6.2084	18.639456	0.000375	3.750346	1.270652	0.000150
 158	1.5621e+01	6.2581	18.776718	0.000345	3.446264	1.167626	0.000138
 159	1.5721e+01	6.2886	18.905907	0.000324	3.243543	1.098942	0.000130
 160	1.5820e+01	6.3367	19.079503	0.000436	4.358511	1.476703	0.000174
 161	1.5920e+01	6.3688	19.228878	0.000375	3.750346	1.270652	0.000150
 162	1.6020e+01	6.4089	19.386326	0.000395	3.953068	1.339336	0.000158
 163	1.6119e+01	6.4554	19.531663	0.000365	3.648986	1.236310	0.000146
 164	1.6218e+01	6.4891	19.713334	0.000456	4.561232	1.545387	0.000183
 165	1.6318e+01	6.5260	19.842522	0.000324	3.243543	1.098942	0.000130
 166	1.6418e+01	6.5758	19.983822	0.000355	3.547625	1.201968	0.000142
 167	1.6517e+01	6.6126	20.068602	0.000213	2.128575	0.721181	0.000085
 168	1.6616e+01	6.6560	20.234124	0.000416	4.155789	1.408020	0.000166
 169	1.6716e+01	6.6880	20.395610	0.000405	4.054429	1.373678	0.000162
 170	1.6816e+01	6.7298	20.557095	0.000405	4.054429	1.373678	0.000162
 171	1.6915e+01	6.7827	20.698395	0.000355	3.547625	1.201968	0.000142
 172	1.7015e+01	6.8116	20.823546	0.000314	3.142182	1.064600	0.000126
 173	1.7114e+01	6.8485	20.956772	0.000334	3.344904	1.133284	0.000134
 174	1.7213e+01	6.8934	21.142480	0.000466	4.662593	1.579729	0.000187
 175	1.7313e+01	6.9239	21.263594	0.000304	3.040821	1.030258	0.000122
 176	1.7413e+01	6.9656	21.449302	0.000466	4.662593	1.579729	0.000187
 177	1.7512e+01	7.0169	21.570416	0.000304	3.040821	1.030258	0.000122
 178	1.7611e+01	7.0522	21.707679	0.000345	3.446264	1.167626	0.000138
 179	1.7711e+01	7.0843	21.877239	0.000426	4.257150	1.442361	0.000170
 180	1.7811e+01	7.1276	22.038724	0.000405	4.054429	1.373678	0.000162
 181	1.7910e+01	7.1645	22.163875	0.000314	3.142182	1.064600	0.000126
 182	1.8009e+01	7.2030	22.333435	0.000426	4.257150	1.442361	0.000170
 183	1.8109e+01	7.2495	22.519143	0.000466	4.662593	1.579729	0.000187
 184	1.8209e+01	7.2896	22.624109	0.000264	2.635379	0.892890	0.000105
 185	1.8308e+01	7.3410	22.753297	0.000324	3.243543	1.098942	0.000130
 186	1.8407e+01	7.3666	22.886522	0.000334	3.344904	1.133284	0.000134
 187	1.8507e+01	7.4067	23.084342	0.000497	4.966675	1.682755	0.000199
 188	1.8607e+01	7.4549	23.213530	0.000324	3.243543	1.098942	0.000130
 189	1.8706e+01	7.4934	23.358867	0.000365	3.648986	1.236310	0.000146
 190	1.8805e+01	7.5319	23.496130	0.000345	3.446264	1.167626	0.000138
 191	1.8905e+01	7.5688	23.649541	0.000385	3.851707	1.304994	0.000154
 192	1.9005e+01	7.6137	23.778729	0.000324	3.243543	1.098942	0.000130
 193	1.9104e+01	7.6426	23.932141	0.000385	3.851707	1.304994	0.000154
 194	1.9203e+01	7.6843	24.117849	0.000466	4.662593	1.579729	0.000187
 195	1.9303e+01	7.7276	24.251074	0.000334	3.344904	1.133284	0.000134
 196	1.9402e+01	7.7629	24.360077	0.000274	2.736739	0.927232	0.000110
 197	1.9502e+01	7.8062	24.565971	0.000517	5.169396	1.751439	0.000207
 198	1.9602e+01	7.8527	24.695159	0.000324	3.243543	1.098942	0.000130
 199	1.9701e+01	7.8896	24.892979	0.000497	4.966675	1.682755	0.000199
 200	1.9800e+01	7.9169	24.981796	0.000223	2.229936	0.755523	0.000089
 201	1.9900e+01	7.9666	25.135207	0.000385	3.851707	1.304994	0.000154
 202	2.0000e+01	7.9939	25.284581	0.000375	3.750346	1.270652	0.000150
 203	2.0099e+01	8.0500	25.425881	0.000355	3.547625	1.201968	0.000142
 204	2.0198e+01	8.0869	25.575255	0.000375	3.750346	1.270652	0.000150
 205	2.0298e+01	8.1190	25.732703	0.000395	3.953068	1.339336	0.000158
 206	2.0398e+01	8.1720	25.902263	0.000426	4.257150	1.442361	0.000170
 207	2.0497e+01	8.2024	26.003191	0.000253	2.534018	0.858548	0.000101
 208	2.0596e+01	8.2409	26.124305	0.000304	3.040821	1.030258	0.000122
 209	2.0696e+01	8.2810	26.318088	0.000487	4.865314	1.648413	0.000195
 210	2.0796e+01	8.3276	26.427091	0.000274	2.736739	0.927232	0.000110
 211	2.0895e+01	8.3725	26.600687	0.000436	4.358511	1.476703	0.000174
 212	2.0994e+01	8.4126	26.729876	0.000324	3.243543	1.098942	0.000130
 213	2.1094e+01	8.4431	26.903473	0.000436	4.358511	1.476703	0.000174
 214	2.1194e+01	8.4848	27.052847	0.000375	3.750346	1.270652	0.000150
 215	2.1293e+01	8.5217	27.214332	0.000405	4.054429	1.373678	0.000162
 216	2.1392e+01	8.5602	27.355632	0.000355	3.547625	1.201968	0.000142
 217	2.1492e+01	8.6035	27.492894	0.000345	3.446264	1.167626	0.000138
 218	2.1591e+01	8.6468	27.662454	0.000426	4.257150	1.442361	0.000170
 219	2.1691e+01	8.6789	27.771457	0.000274	2.736739	0.927232	0.000110
 220	2.1791e+01	8.7302	27.936979	0.000416	4.155789	1.408020	0.000166
 221	2.1890e+01	8.7607	28.106539	0.000426	4.257150	1.442361	0.000170
 222	2.1989e+01	8.7992	28.259950	0.000385	3.851707	1.304994	0.000154
 223	2.2089e+01	8.8425	28.393176	0.000334	3.344904	1.133284	0.000134
 224	2.2189e+01	8.8826	28.550624	0.000395	3.953068	1.339336	0.000158
 225	2.2288e+01	8.9163	28.667701	0.000294	2.939461	0.995916	0.000118
 226	2.2387e+01	8.9628	28.841298	0.000436	4.358511	1.476703	0.000174
 227	2.2487e+01	8.9949	29.010857	0.000426	4.257150	1.442361	0.000170
 228	2.2587e+01	9.0399	29.164269	0.000385	3.851707	1.304994	0.000154
 229	2.2686e+01	9.0864	29.285383	0.000304	3.040821	1.030258	0.000122
 230	2.2785e+01	9.1169	29.442831	0.000395	3.953068	1.339336	0.000158
 231	2.2885e+01	9.1570	29.580094	0.000345	3.446264	1.167626	0.000138
 232	2.2985e+01	9.2019	29.745616	0.000416	4.155789	1.408020	0.000166
 233	2.3084e+01	9.2356	29.858656	0.000284	2.838100	0.961574	0.000114
 234	2.3183e+01	9.2837	30.020141	0.000405	4.054429	1.373678	0.000162
 235	2.3283e+01	9.3206	30.145293	0.000314	3.142182	1.064600	0.000126
 236	2.3383e+01	9.3591	30.306778	0.000405	4.054429	1.373678	0.000162
 237	2.3482e+01	9.4024	30.488449	0.000456	4.561232	1.545387	0.000183
 238	2.3581e+01	9.4457	30.633786	0.000365	3.648986	1.236310	0.000146
 239	2.3681e+01	9.4810	30.807383	0.000436	4.358511	1.476703	0.000174
 240	2.3780e+01	9.5147	30.920423	0.000284	2.838100	0.961574	0.000114
 241	2.3880e+01	9.5612	31.081908	0.000405	4.054429	1.373678	0.000162
 242	2.3980e+01	9.6013	31.235319	0.000385	3.851707	1.304994	0.000154
 243	2.4079e+01	9.6382	31.364508	0.000324	3.243543	1.098942	0.000130
 244	2.4178e+01	9.6751	31.517919	0.000385	3.851707	1.304994	0.000154
 245	2.4278e+01	9.7168	31.683441	0.000416	4.155789	1.408020	0.000166
 246	2.4378e+01	9.7618	31.816667	0.000334	3.344904	1.133284	0.000134
 247	2.4477e+01	9.8003	31.962004	0.000365	3.648986	1.236310	0.000146
 248	2.4576e+01	9.8372	32.115415	0.000385	3.851707	1.304994	0.000154
 249	2.4676e+01	9.8853	32.276900	0.000405	4.054429	1.373678	0.000162
 250	2.4776e+01	9.9158	32.393977	0.000294	2.939461	0.995916	0.000118
 251	2.4875e+01	9.9575	32.595834	0.000507	5.068036	1.717097	0.000203
 252	2.4974e+01	9.9976	32.672540	0.000193	1.925854	0.652497	0.000077
 253	2.5074e+01	10.0377	32.797691	0.000314	3.142182	1.064600	0.000126
 254	2.5174e+01	10.0778	32.995510	0.000497	4.966675	1.682755	0.000199
 255	2.5273e+01	10.1163	33.148922	0.000385	3.851707	1.304994	0.000154
 256	2.5372e+01	10.1564	33.318481	0.000426	4.257150	1.442361	0.000170
 257	2.5472e+01	10.1965	33.459781	0.000355	3.547625	1.201968	0.000142
 258	2.5572e+01	10.2302	33.601081	0.000355	3.547625	1.201968	0.000142
 259	2.5671e+01	10.2767	33.766603	0.000416	4.155789	1.408020	0.000166
 260	2.5770e+01	10.3136	33.899829	0.000334	3.344904	1.133284	0.000134
 261	2.5870e+01	10.3553	34.008831	0.000274	2.736739	0.927232	0.000110
 262	2.5970e+01	10.3970	34.202614	0.000487	4.865314	1.648413	0.000195
 263	2.6069e+01	10.4387	34.347951	0.000365	3.648986	1.236310	0.000146
 264	2.6169e+01	10.4788	34.513473	0.000416	4.155789	1.408020	0.000166
 265	2.6268e+01	10.5093	34.658810	0.000365	3.648986	1.236310	0.000146
 266	2.6367e+01	10.5607	34.800110	0.000355	3.547625	1.201968	0.000142
 267	2.6467e+01	10.5895	34.961595	0.000405	4.054429	1.373678	0.000162
 268	2.6567e+01	10.6329	35.054450	0.000233	2.331296	0.789865	0.000093
 269	2.6666e+01	10.6778	35.207861	0.000385	3.851707	1.304994	0.000154
 270	2.6765e+01	10.7227	35.377420	0.000426	4.257150	1.442361	0.000170
 271	2.6865e+01	10.7468	35.466237	0.000223	2.229936	0.755523	0.000089
 272	2.6965e+01	10.7949	35.639834	0.000436	4.358511	1.476703	0.000174
 273	2.7064e+01	10.8334	35.809394	0.000426	4.257150	1.442361	0.000170
 274	2.7163e+01	10.8671	35.966842	0.000395	3.953068	1.339336	0.000158
 275	2.7263e+01	10.9168	36.104105	0.000345	3.446264	1.167626	0.000138
 276	2.7363e+01	10.9585	36.281739	0.000446	4.459871	1.511045	0.000179
 277	2.7462e+01	10.9922	36.443224	0.000405	4.054429	1.373678	0.000162
 278	2.7561e+01	11.0355	36.576450	0.000334	3.344904	1.133284	0.000134
 279	2.7661e+01	11.0692	36.737935	0.000405	4.054429	1.373678	0.000162
 280	2.7761e+01	11.1077	36.871161	0.000334	3.344904	1.133284	0.000134
 281	2.7860e+01	11.1558	36.992275	0.000304	3.040821	1.030258	0.000122
 282	2.7959e+01	11.1975	37.145686	0.000385	3.851707	1.304994	0.000154
 283	2.8059e+01	11.2280	37.331394	0.000466	4.662593	1.579729	0.000187
 284	2.8159e+01	11.2697	37.456545	0.000314	3.142182	1.064600	0.000126
 285	2.8258e+01	11.3179	37.618031	0.000405	4.054429	1.373678	0.000162
 286	2.8358e+01	11.3499	37.739145	0.000304	3.040821	1.030258	0.000122
 287	2.8457e+01	11.3933	37.860259	0.000304	3.040821	1.030258	0.000122
 288	2.8556e+01	11.4237	38.001559	0.000355	3.547625	1.201968	0.000142
 289	2.8656e+01	11.4671	38.110561	0.000274	2.736739	0.927232	0.000110
 290	2.8756e+01	11.5120	38.300307	0.000476	4.763954	1.614071	0.000191
 291	2.8855e+01	11.5633	38.461792	0.000405	4.054429	1.373678	0.000162
 292	2.8954e+01	11.5986	38.631352	0.000426	4.257150	1.442361	0.000170
 293	2.9054e+01	11.6307	38.788800	0.000395	3.953068	1.339336	0.000158
 294	2.9154e+01	11.6660	38.938174	0.000375	3.750346	1.270652	0.000150
 295	2.9253e+01	11.7109	39.091585	0.000385	3.851707	1.304994	0.000154
 296	2.9352e+01	11.7558	39.216737	0.000314	3.142182	1.064600	0.000126
 297	2.9452e+01	11.7927	39.378222	0.000405	4.054429	1.373678	0.000162
 298	2.9552e+01	11.8280	39.515485	0.000345	3.446264	1.167626	0.000138
 299	2.9651e+01	11.8665	39.685044	0.000426	4.257150	1.442361	0.000170
 300	2.9750e+01	11.9018	39.830381	0.000365	3.648986	1.236310	0.000146
 301	2.9850e+01	11.9499	39.955532	0.000314	3.142182	1.064600	0.000126
 302	2.9950e+01	11.9965	40.125092	0.000426	4.257150	1.442361	0.000170
 303	3.0049e+01	12.0398	40.246206	0.000304	3.040821	1.030258	0.000122
 304	3.0148e+01	12.0638	40.423840	0.000446	4.459871	1.511045	0.000179
 305	3.0248e+01	12.1136	40.512657	0.000223	2.229936	0.755523	0.000089
 306	3.0348e+01	12.1537	40.649920	0.000345	3.446264	1.167626	0.000138
 307	3.0447e+01	12.1890	40.811405	0.000405	4.054429	1.373678	0.000162
 308	3.0547e+01	12.2259	40.976928	0.000416	4.155789	1.408020	0.000166
 309	3.0646e+01	12.2756	41.106116	0.000324	3.243543	1.098942	0.000130
 310	3.0745e+01	12.3109	41.303936	0.000497	4.966675	1.682755	0.000199
 311	3.0845e+01	12.3526	41.429087	0.000314	3.142182	1.064600	0.000126
 312	3.0945e+01	12.3847	41.610758	0.000456	4.561232	1.545387	0.000183
 313	3.1044e+01	12.4248	41.731872	0.000304	3.040821	1.030258	0.000122
 314	3.1143e+01	12.4745	41.921618	0.000476	4.763954	1.614071	0.000191
 315	3.1243e+01	12.5226	42.050806	0.000324	3.243543	1.098942	0.000130
 316	3.1343e+01	12.5451	42.167883	0.000294	2.939461	0.995916	0.000118
 317	3.1442e+01	12.5900	42.333405	0.000416	4.155789	1.408020	0.000166
 318	3.1541e+01	12.6253	42.474705	0.000355	3.547625	1.201968	0.000142
 319	3.1641e+01	12.6686	42.595819	0.000304	3.040821	1.030258	0.000122
 320	3.1741e+01	12.7151	42.793639	0.000497	4.966675	1.682755	0.000199
 321	3.1840e+01	12.7504	42.918790	0.000314	3.142182	1.064600	0.000126
 322	3.1939e+01	12.7889	43.056053	0.000345	3.446264	1.167626	0.000138
 323	3.2039e+01	12.8226	43.156981	0.000253	2.534018	0.858548	0.000101
 324	3.2139e+01	12.8676	43.306355	0.000375	3.750346	1.270652	0.000150
 325	3.2238e+01	12.9077	43.455729	0.000375	3.750346	1.270652	0.000150
 326	3.2337e+01	12.9462	43.572806	0.000294	2.939461	0.995916	0.000118
 327	3.2437e+01	12.9815	43.766589	0.000487	4.865314	1.648413	0.000195
 328	3.2536e+01	13.0183	43.899814	0.000334	3.344904	1.133284	0.000134
 329	3.2636e+01	13.0697	44.097634	0.000497	4.966675	1.682755	0.000199
 330	3.2736e+01	13.1066	44.222785	0.000314	3.142182	1.064600	0.000126
 331	3.2835e+01	13.1451	44.400419	0.000446	4.459871	1.511045	0.000179
 332	3.2934e+01	13.1804	44.513459	0.000284	2.838100	0.961574	0.000114
 333	3.3034e+01	13.2205	44.658796	0.000365	3.648986	1.236310	0.000146
 334	3.3133e+01	13.2622	44.828355	0.000426	4.257150	1.442361	0.000170
 335	3.3233e+01	13.3055	44.957544	0.000324	3.243543	1.098942	0.000130
 336	3.3333e+01	13.3392	45.098843	0.000355	3.547625	1.201968	0.000142
 337	3.3432e+01	13.3809	45.260329	0.000405	4.054429	1.373678	0.000162
 338	3.3532e+01	13.4274	45.365294	0.000264	2.635379	0.892890	0.000105
 339	3.3631e+01	13.4659	45.551003	0.000466	4.662593	1.579729	0.000187
 340	3.3730e+01	13.5012	45.587337	0.000091	0.912246	0.309077	0.000037
 341	3.3830e+01	13.5494	45.805342	0.000547	5.473479	1.854465	0.000219
 342	3.3929e+01	13.5830	45.926456	0.000304	3.040821	1.030258	0.000122
 343	3.4029e+01	13.6231	46.079867	0.000385	3.851707	1.304994	0.000154
 344	3.4129e+01	13.6600	46.225204	0.000365	3.648986	1.236310	0.000146
 345	3.4228e+01	13.7098	46.402838	0.000446	4.459871	1.511045	0.000179
 346	3.4328e+01	13.7451	46.568361	0.000416	4.155789	1.408020	0.000166
 347	3.4427e+01	13.7868	46.737920	0.000426	4.257150	1.442361	0.000170
 348	3.4526e+01	13.8108	46.899406	0.000405	4.054429	1.373678	0.000162
 349	3.4626e+01	13.8590	47.012446	0.000284	2.838100	0.961574	0.000114
 350	3.4725e+01	13.8991	47.161820	0.000375	3.750346	1.270652	0.000150
 351	3.4825e+01	13.9408	47.331379	0.000426	4.257150	1.442361	0.000170
 352	3.4925e+01	13.9905	47.504976	0.000436	4.358511	1.476703	0.000174
 353	3.5024e+01	14.0194	47.642239	0.000345	3.446264	1.167626	0.000138
 354	3.5123e+01	14.0579	47.751242	0.000274	2.736739	0.927232	0.000110
 355	3.5223e+01	14.0932	47.908690	0.000395	3.953068	1.339336	0.000158
 356	3.5322e+01	14.1445	48.058064	0.000375	3.750346	1.270652	0.000150
 357	3.5422e+01	14.1862	48.158992	0.000253	2.534018	0.858548	0.000101
 358	3.5522e+01	14.2119	48.288181	0.000324	3.243543	1.098942	0.000130
 359	3.5621e+01	14.2600	48.445629	0.000395	3.953068	1.339336	0.000158
 360	3.5721e+01	14.3001	48.554632	0.000274	2.736739	0.927232	0.000110
 361	3.5820e+01	14.3338	48.720154	0.000416	4.155789	1.408020	0.000166
 362	3.5919e+01	14.3868	48.873565	0.000385	3.851707	1.304994	0.000154
 363	3.6019e+01	14.4285	49.018902	0.000365	3.648986	1.236310	0.000146
 364	3.6118e+01	14.4654	49.160202	0.000355	3.547625	1.201968	0.000142
 365	3.6218e+01	14.4991	49.341873	0.000456	4.561232	1.545387	0.000183
 366	3.6318e+01	14.5456	49.507396	0.000416	4.155789	1.408020	0.000166
 367	3.6417e+01	14.5761	49.624472	0.000294	2.939461	0.995916	0.000118
 368	3.6517e+01	14.6194	49.749624	0.000314	3.142182	1.064600	0.000126
 369	3.6616e+01	14.6547	49.935332	0.000466	4.662593	1.579729	0.000187
 370	3.6715e+01	14.6964	50.072595	0.000345	3.446264	1.167626	0.000138
 371	3.6815e+01	14.7381	50.230043	0.000395	3.953068	1.339336	0.000158
 372	3.6914e+01	14.7734	50.383454	0.000385	3.851707	1.304994	0.000154
 373	3.7014e+01	14.8183	50.536865	0.000385	3.851707	1.304994	0.000154
 374	3.7114e+01	14.8648	50.666054	0.000324	3.243543	1.098942	0.000130
 375	3.7213e+01	14.8985	50.827539	0.000405	4.054429	1.373678	0.000162
 376	3.7313e+01	14.9386	50.972876	0.000365	3.648986	1.236310	0.000146
 377	3.7412e+01	14.9723	51.041507	0.000172	1.723132	0.583813	0.000069
 378	3.7511e+01	15.0252	51.174733	0.000334	3.344904	1.133284	0.000134
 379	3.7611e+01	15.0621	51.384664	0.000527	5.270757	1.785781	0.000211
 380	3.7711e+01	15.0958	51.485592	0.000253	2.534018	0.858548	0.000101
 381	3.7810e+01	15.1231	51.647077	0.000405	4.054429	1.373678	0.000162
 382	3.7910e+01	15.1744	51.768192	0.000304	3.040821	1.030258	0.000122
 383	3.8009e+01	15.2178	51.945826	0.000446	4.459871	1.511045	0.000179
 384	3.8108e+01	15.2579	52.107311	0.000405	4.054429	1.373678	0.000162
 385	3.8208e+01	15.2915	52.301093	0.000487	4.865314	1.648413	0.000195
 386	3.8307e+01	15.3268	52.450468	0.000375	3.750346	1.270652	0.000150
 387	3.8407e+01	15.3750	52.579656	0.000324	3.243543	1.098942	0.000130
 388	3.8507e+01	15.4199	52.729030	0.000375	3.750346	1.270652	0.000150
 389	3.8606e+01	15.4552	52.874367	0.000365	3.648986	1.236310	0.000146
 390	3.8706e+01	15.4937	53.047964	0.000436	4.358511	1.476703	0.000174
 391	3.8805e+01	15.5322	53.156966	0.000274	2.736739	0.927232	0.000110
 392	3.8904e+01	15.5739	53.346712	0.000476	4.763954	1.614071	0.000191
 393	3.9004e+01	15.6188	53.419380	0.000182	1.824493	0.618155	0.000073
 394	3.9103e+01	15.6541	53.625274	0.000517	5.169396	1.751439	0.000207
 395	3.9203e+01	15.6926	53.710054	0.000213	2.128575	0.721181	0.000085
 396	3.9303e+01	15.7407	53.827131	0.000294	2.939461	0.995916	0.000118
 397	3.9402e+01	15.7728	53.956319	0.000324	3.243543	1.098942	0.000130
 398	3.9502e+01	15.8145	54.113767	0.000395	3.953068	1.339336	0.000158
 399	3.9601e+01	15.8450	54.251030	0.000345	3.446264	1.167626	0.000138
 400	3.9700e+01	15.8979	54.444813	0.000487	4.865314	1.648413	0.000195
 401	3.9800e+01	15.9364	54.586112	0.000355	3.547625	1.201968	0.000142
 402	3.9900e+01	15.9653	54.747598	0.000405	4.054429	1.373678	0.000162
 403	3.9999e+01	16.0118	54.913120	0.000416	4.155789	1.408020	0.000166
 404	4.0099e+01	16.0552	55.050383	0.000345	3.446264	1.167626	0.000138
 405	4.0198e+01	16.0921	55.199757	0.000375	3.750346	1.270652	0.000150
 406	4.0297e+01	16.1354	55.337020	0.000345	3.446264	1.167626	0.000138
 407	4.0397e+01	16.1691	55.478319	0.000355	3.547625	1.201968	0.000142
 408	4.0496e+01	16.2044	55.627693	0.000375	3.750346	1.270652	0.000150
 409	4.0596e+01	16.2541	55.781104	0.000385	3.851707	1.304994	0.000154
 410	4.0696e+01	16.2958	55.958738	0.000446	4.459871	1.511045	0.000179
 411	4.0795e+01	16.3327	56.063704	0.000264	2.635379	0.892890	0.000105
 412	4.0895e+01	16.3760	56.180781	0.000294	2.939461	0.995916	0.000118
 413	4.0994e+01	16.4161	56.378601	0.000497	4.966675	1.682755	0.000199
 414	4.1093e+01	16.4546	56.447232	0.000172	1.723132	0.583813	0.000069
 415	4.1193e+01	16.4883	56.600643	0.000385	3.851707	1.304994	0.000154
 416	4.1292e+01	16.5332	56.733869	0.000334	3.344904	1.133284	0.000134
 417	4.1392e+01	16.5733	56.846908	0.000284	2.838100	0.961574	0.000114
 418	4.1492e+01	16.6199	57.044728	0.000497	4.966675	1.682755	0.000199
 419	4.1591e+01	16.6455	57.153731	0.000274	2.736739	0.927232	0.000110
 420	4.1691e+01	16.6969	57.343476	0.000476	4.763954	1.614071	0.000191
 421	4.1790e+01	16.7257	57.541296	0.000497	4.966675	1.682755	0.000199
 422	4.1889e+01	16.7803	57.634150	0.000233	2.331296	0.789865	0.000093
 423	4.1989e+01	16.8156	57.779487	0.000365	3.648986	1.236310	0.000146
 424	4.2089e+01	16.8493	57.940972	0.000405	4.054429	1.373678	0.000162
 425	4.2188e+01	16.8910	58.086309	0.000365	3.648986	1.236310	0.000146
 426	4.2288e+01	16.9295	58.239720	0.000385	3.851707	1.304994	0.000154
 427	4.2387e+01	16.9696	58.376983	0.000345	3.446264	1.167626	0.000138
 428	4.2486e+01	17.0049	58.514245	0.000345	3.446264	1.167626	0.000138
 429	4.2586e+01	17.0434	58.667657	0.000385	3.851707	1.304994	0.000154
 430	4.2685e+01	17.0867	58.800882	0.000334	3.344904	1.133284	0.000134
 431	4.2785e+01	17.1252	58.950256	0.000375	3.750346	1.270652	0.000150
 432	4.2885e+01	17.1813	59.087519	0.000345	3.446264	1.167626	0.000138
 433	4.2984e+01	17.2150	59.216707	0.000324	3.243543	1.098942	0.000130
 434	4.3084e+01	17.2407	59.345895	0.000324	3.243543	1.098942	0.000130
 435	4.3183e+01	17.2968	59.471047	0.000314	3.142182	1.064600	0.000126
 436	4.3282e+01	17.3273	59.616383	0.000365	3.648986	1.236310	0.000146
 437	4.3382e+01	17.3674	59.794017	0.000446	4.459871	1.511045	0.000179
 438	4.3481e+01	17.4107	59.943391	0.000375	3.750346	1.270652	0.000150
 439	4.3581e+01	17.4508	60.096803	0.000385	3.851707	1.304994	0.000154
 440	4.3681e+01	17.4797	60.258288	0.000405	4.054429	1.373678	0.000162
 441	4.3780e+01	17.5214	60.399588	0.000355	3.547625	1.201968	0.000142
 442	4.3880e+01	17.5583	60.536850	0.000345	3.446264	1.167626	0.000138
 443	4.3979e+01	17.6113	60.694299	0.000395	3.953068	1.339336	0.000158
 444	4.4078e+01	17.6498	60.843673	0.000375	3.750346	1.270652	0.000150
 445	4.4178e+01	17.6819	60.968824	0.000314	3.142182	1.064600	0.000126
 446	4.4278e+01	17.7268	61.114161	0.000365	3.648986	1.236310	0.000146
 447	4.4377e+01	17.7637	61.267572	0.000385	3.851707	1.304994	0.000154
 448	4.4477e+01	17.8038	61.388686	0.000304	3.040821	1.030258	0.000122
 449	4.4576e+01	17.8423	61.534023	0.000365	3.648986	1.236310	0.000146
 450	4.4675e+01	17.8840	61.634951	0.000253	2.534018	0.858548	0.000101
 451	4.4775e+01	17.9241	61.784325	0.000375	3.750346	1.270652	0.000150
 452	4.4874e+01	17.9578	61.909477	0.000314	3.142182	1.064600	0.000126
 453	4.4974e+01	18.0011	62.066925	0.000395	3.953068	1.339336	0.000158
 454	4.5074e+01	18.0524	62.212262	0.000365	3.648986	1.236310	0.000146
 455	4.5173e+01	18.0813	62.414119	0.000507	5.068036	1.717097	0.000203
 456	4.5273e+01	18.1230	62.531195	0.000294	2.939461	0.995916	0.000118
 457	4.5372e+01	18.1679	62.708829	0.000446	4.459871	1.511045	0.000179
 458	4.5471e+01	18.2080	62.846092	0.000345	3.446264	1.167626	0.000138
 459	4.5571e+01	18.2417	62.971243	0.000314	3.142182	1.064600	0.000126
 460	4.5670e+01	18.2850	63.136766	0.000416	4.155789	1.408020	0.000166
 461	4.5770e+01	18.3268	63.282103	0.000365	3.648986	1.236310	0.000146
 462	4.5870e+01	18.3620	63.403217	0.000304	3.040821	1.030258	0.000122
 463	4.5969e+01	18.4070	63.564702	0.000405	4.054429	1.373678	0.000162
 464	4.6069e+01	18.4407	63.730225	0.000416	4.155789	1.408020	0.000166
 465	4.6168e+01	18.4776	63.839227	0.000274	2.736739	0.927232	0.000110
 466	4.6267e+01	18.5241	63.940156	0.000253	2.534018	0.858548	0.000101
 467	4.6367e+01	18.5610	64.137975	0.000497	4.966675	1.682755	0.000199
 468	4.6467e+01	18.6011	64.226792	0.000223	2.229936	0.755523	0.000089
 469	4.6566e+01	18.6412	64.400389	0.000436	4.358511	1.476703	0.000174
 470	4.6666e+01	18.6845	64.501318	0.000253	2.534018	0.858548	0.000101
 471	4.6765e+01	18.7262	64.650692	0.000375	3.750346	1.270652	0.000150
 472	4.6864e+01	18.7663	64.812177	0.000405	4.054429	1.373678	0.000162
 473	4.6964e+01	18.7968	64.989811	0.000446	4.459871	1.511045	0.000179
 474	4.7063e+01	18.8353	65.135148	0.000365	3.648986	1.236310	0.000146
 475	4.7163e+01	18.8834	65.264336	0.000324	3.243543	1.098942	0.000130
 476	4.7263e+01	18.9219	65.421785	0.000395	3.953068	1.339336	0.000158
 477	4.7362e+01	18.9717	65.563084	0.000355	3.547625	1.201968	0.000142
 478	4.7462e+01	19.0005	65.732644	0.000426	4.257150	1.442361	0.000170
 479	4.7561e+01	19.0310	65.849721	0.000294	2.939461	0.995916	0.000118
 480	4.7660e+01	19.0791	66.019281	0.000426	4.257150	1.442361	0.000170
 481	4.7760e+01	19.1144	66.176729	0.000395	3.953068	1.339336	0.000158
 482	4.7859e+01	19.1610	66.281695	0.000264	2.635379	0.892890	0.000105
 483	4.7959e+01	19.1979	66.463366	0.000456	4.561232	1.545387	0.000183
 484	4.8059e+01	19.2396	66.568331	0.000264	2.635379	0.892890	0.000105
 485	4.8158e+01	19.2781	66.705594	0.000345	3.446264	1.167626	0.000138
 486	4.8258e+01	19.3246	66.826708	0.000304	3.040821	1.030258	0.000122
 487	4.8357e+01	19.3679	66.959933	0.000334	3.344904	1.133284	0.000134
 488	4.8456e+01	19.3984	67.068936	0.000274	2.736739	0.927232	0.000110
 489	4.8556e+01	19.4353	67.202161	0.000334	3.344904	1.133284	0.000134
 490	4.8656e+01	19.4786	67.408055	0.000517	5.169396	1.751439	0.000207
 491	4.8755e+01	19.5251	67.545318	0.000345	3.446264	1.167626	0.000138
 492	4.8855e+01	19.5492	67.694692	0.000375	3.750346	1.270652	0.000150
 493	4.8954e+01	19.6005	67.835992	0.000355	3.547625	1.201968	0.000142
 494	4.9053e+01	19.6422	67.977292	0.000355	3.547625	1.201968	0.000142
 495	4.9153e+01	19.6807	68.142814	0.000416	4.155789	1.408020	0.000166
 496	4.9252e+01	19.7128	68.276040	0.000334	3.344904	1.133284	0.000134
 497	4.9352e+01	19.7561	68.437525	0.000405	4.054429	1.373678	0.000162
 498	4.9452e+01	19.7914	68.607085	0.000426	4.257150	1.442361	0.000170
 499	4.9551e+01	19.8363	68.732236	0.000314	3.142182	1.064600	0.000126
 500	4.9651e+01	19.8700	68.881610	0.000375	3.750346	1.270652	0.000150
 501	4.9750e+01	19.9230	69.030984	0.000375	3.750346	1.270652	0.000150
 502	4.9849e+01	19.9486	69.115764	0.000213	2.128575	0.721181	0.000085
 503	4.9949e+01	19.9984	69.257064	0.000355	3.547625	1.201968	0.000142
 504	5.0048e+01	19.9615	69.164209	0.000233	2.331296	0.789865	-0.000093
 505	5.0148e+01	19.9149	69.043095	0.000304	3.040821	1.030258	-0.000122
 506	5.0248e+01	19.8797	68.942167	0.000253	2.534018	0.858548	-0.000101
 507	5.0347e+01	19.8395	68.857387	0.000213	2.128575	0.721181	-0.000085
 508	5.0447e+01	19.7978	68.784719	0.000182	1.824493	0.618155	-0.000073
 509	5.0546e+01	19.7545	68.712050	0.000182	1.824493	0.618155	-0.000073
 510	5.0645e+01	19.7144	68.530379	0.000456	4.561232	1.545387	-0.000183
 511	5.0745e+01	19.6695	68.498082	0.000081	0.810886	0.274736	-0.000032
 512	5.0844e+01	19.6438	68.397154	0.000253	2.534018	0.858548	-0.000101
 513	5.0944e+01	19.6005	68.296225	0.000253	2.534018	0.858548	-0.000101
 514	5.1044e+01	19.5652	68.167037	0.000324	3.243543	1.098942	-0.000130
 515	5.1143e+01	19.5267	68.045923	0.000304	3.040821	1.030258	-0.000122
 516	5.1242e+01	19.4674	67.924809	0.000304	3.040821	1.030258	-0.000122
 517	5.1342e+01	19.4321	67.819843	0.000264	2.635379	0.892890	-0.000105
 518	5.1441e+01	19.4016	67.666432	0.000385	3.851707	1.304994	-0.000154
 519	5.1541e+01	19.3631	67.605875	0.000152	1.520411	0.515129	-0.000061
 520	5.1641e+01	19.3069	67.464575	0.000355	3.547625	1.201968	-0.000142
 521	5.1740e+01	19.2716	67.335387	0.000324	3.243543	1.098942	-0.000130
 522	5.1840e+01	19.2444	67.242533	0.000233	2.331296	0.789865	-0.000093
 523	5.1939e+01	19.2107	67.097196	0.000365	3.648986	1.236310	-0.000146
 524	5.2038e+01	19.1577	66.996268	0.000253	2.534018	0.858548	-0.000101
 525	5.2138e+01	19.1209	66.863042	0.000334	3.344904	1.133284	-0.000134
 526	5.2237e+01	19.0872	66.729817	0.000334	3.344904	1.133284	-0.000134
 527	5.2337e+01	19.0406	66.649074	0.000203	2.027214	0.686839	-0.000081
 528	5.2437e+01	18.9989	66.568331	0.000203	2.027214	0.686839	-0.000081
 529	5.2536e+01	18.9588	66.422994	0.000365	3.648986	1.236310	-0.000146
 530	5.2636e+01	18.9235	66.322066	0.000253	2.534018	0.858548	-0.000101
 531	5.2735e+01	18.8706	66.196915	0.000314	3.142182	1.064600	-0.000126
 532	5.2834e+01	18.8401	66.079838	0.000294	2.939461	0.995916	-0.000118
 533	5.2934e+01	18.8016	65.942575	0.000345	3.446264	1.167626	-0.000138
 534	5.3033e+01	18.7631	65.829535	0.000284	2.838100	0.961574	-0.000114
 535	5.3133e+01	18.7294	65.720533	0.000274	2.736739	0.927232	-0.000110
 536	5.3233e+01	18.6797	65.607493	0.000284	2.838100	0.961574	-0.000114
 537	5.3332e+01	18.6428	65.514639	0.000233	2.331296	0.789865	-0.000093
 538	5.3431e+01	18.5963	65.369302	0.000365	3.648986	1.236310	-0.000146
 539	5.3531e+01	18.5674	65.232039	0.000345	3.446264	1.167626	-0.000138
 540	5.3630e+01	18.5305	65.139185	0.000233	2.331296	0.789865	-0.000093
 541	5.3730e+01	18.4792	64.981737	0.000395	3.953068	1.339336	-0.000158
 542	5.3830e+01	18.4439	64.796029	0.000466	4.662593	1.579729	-0.000187
 543	5.3929e+01	18.4070	64.703174	0.000233	2.331296	0.789865	-0.000093
 544	5.4029e+01	18.3733	64.618395	0.000213	2.128575	0.721181	-0.000085
 545	5.4128e+01	18.3171	64.513429	0.000264	2.635379	0.892890	-0.000105
 546	5.4227e+01	18.2802	64.388278	0.000314	3.142182	1.064600	-0.000126
 547	5.4327e+01	18.2449	64.251015	0.000345	3.446264	1.167626	-0.000138
 548	5.4426e+01	18.2064	64.150087	0.000253	2.534018	0.858548	-0.000101
 549	5.4526e+01	18.1679	64.045121	0.000264	2.635379	0.892890	-0.000105
 550	5.4626e+01	18.1214	63.867487	0.000446	4.459871	1.511045	-0.000179
 551	5.4725e+01	18.0813	63.778670	0.000223	2.229936	0.755523	-0.000089
 552	5.4825e+01	18.0396	63.625259	0.000385	3.851707	1.304994	-0.000154
 553	5.4924e+01	18.0075	63.520294	0.000264	2.635379	0.892890	-0.000105
 554	5.5023e+01	17.9610	63.391105	0.000324	3.243543	1.098942	-0.000130
 555	5.5123e+01	17.9225	63.298251	0.000233	2.331296	0.789865	-0.000093
 556	5.5222e+01	17.8856	63.144840	0.000385	3.851707	1.304994	-0.000154
 557	5.5322e+01	17.8391	63.076209	0.000172	1.723132	0.583813	-0.000069
 558	5.5422e+01	17.8022	62.930872	0.000365	3.648986	1.236310	-0.000146
 559	5.5521e+01	17.7653	62.769386	0.000405	4.054429	1.373678	-0.000162
 560	5.5620e+01	17.7252	62.656347	0.000284	2.838100	0.961574	-0.000114
 561	5.5720e+01	17.6851	62.519084	0.000345	3.446264	1.167626	-0.000138
 562	5.5819e+01	17.6482	62.422193	0.000243	2.432657	0.824207	-0.000097
 563	5.5919e+01	17.6081	62.293004	0.000324	3.243543	1.098942	-0.000130
 564	5.6019e+01	17.5647	62.159779	0.000334	3.344904	1.133284	-0.000134
 565	5.6118e+01	17.5343	62.038665	0.000304	3.040821	1.030258	-0.000122
 566	5.6218e+01	17.4893	61.937736	0.000253	2.534018	0.858548	-0.000101
 567	5.6317e+01	17.4508	61.776251	0.000405	4.054429	1.373678	-0.000162
 568	5.6416e+01	17.4027	61.663211	0.000284	2.838100	0.961574	-0.000114
 569	5.6516e+01	17.3658	61.538060	0.000314	3.142182	1.064600	-0.000126
 570	5.6615e+01	17.3289	61.441169	0.000243	2.432657	0.824207	-0.000097
 571	5.6715e+01	17.2904	61.271609	0.000426	4.257150	1.442361	-0.000170
 572	5.6815e+01	17.2535	61.110124	0.000405	4.054429	1.373678	-0.000162
 573	5.6914e+01	17.2070	61.029381	0.000203	2.027214	0.686839	-0.000081
 574	5.7014e+01	17.1653	60.908267	0.000304	3.040821	1.030258	-0.000122
 575	5.7113e+01	17.1268	60.791190	0.000294	2.939461	0.995916	-0.000118
 576	5.7212e+01	17.0931	60.641816	0.000375	3.750346	1.270652	-0.000150
 577	5.7312e+01	17.0402	60.536850	0.000264	2.635379	0.892890	-0.000105
 578	5.7411e+01	16.9968	60.399588	0.000345	3.446264	1.167626	-0.000138
 579	5.7511e+01	16.9728	60.250214	0.000375	3.750346	1.270652	-0.000150
 580	5.7611e+01	16.9247	60.141211	0.000274	2.736739	0.927232	-0.000110
 581	5.7710e+01	16.8878	59.987800	0.000385	3.851707	1.304994	-0.000154
 582	5.7809e+01	16.8477	59.878797	0.000274	2.736739	0.927232	-0.000110
 583	5.7909e+01	16.8108	59.745572	0.000334	3.344904	1.133284	-0.000134
 584	5.8008e+01	16.7739	59.624458	0.000304	3.040821	1.030258	-0.000122
 585	5.8108e+01	16.7305	59.491232	0.000334	3.344904	1.133284	-0.000134
 586	5.8208e+01	16.6920	59.370118	0.000304	3.040821	1.030258	-0.000122
 587	5.8307e+01	16.6455	59.236893	0.000334	3.344904	1.133284	-0.000134
 588	5.8407e+01	16.6118	59.091556	0.000365	3.648986	1.236310	-0.000146
 589	5.8506e+01	16.5653	58.978516	0.000284	2.838100	0.961574	-0.000114
 590	5.8605e+01	16.5252	58.873550	0.000264	2.635379	0.892890	-0.000105
 591	5.8705e+01	16.4867	58.724176	0.000375	3.750346	1.270652	-0.000150
 592	5.8804e+01	16.4578	58.623248	0.000253	2.534018	0.858548	-0.000101
 593	5.8904e+01	16.4017	58.498097	0.000314	3.142182	1.064600	-0.000126
 594	5.9004e+01	16.3776	58.348723	0.000375	3.750346	1.270652	-0.000150
 595	5.9103e+01	16.3311	58.223572	0.000314	3.142182	1.064600	-0.000126
 596	5.9203e+01	16.2926	58.074198	0.000375	3.750346	1.270652	-0.000150
 597	5.9302e+01	16.2445	57.928861	0.000365	3.648986	1.236310	-0.000146
 598	5.9401e+01	16.2044	57.848118	0.000203	2.027214	0.686839	-0.000081
 599	5.9501e+01	16.1723	57.751227	0.000243	2.432657	0.824207	-0.000097
 600	5.9600e+01	16.1322	57.553407	0.000497	4.966675	1.682755	-0.000199
 601	5.9700e+01	16.0953	57.436330	0.000294	2.939461	0.995916	-0.000118
 602	5.9800e+01	16.0536	57.347513	0.000223	2.229936	0.755523	-0.000089
 603	5.9899e+01	16.0135	57.165842	0.000456	4.561232	1.545387	-0.000183
 604	5.9998e+01	15.9701	57.028579	0.000345	3.446264	1.167626	-0.000138
 605	6.0098e+01	15.9316	56.931688	0.000243	2.432657	0.824207	-0.000097
 606	6.0197e+01	15.8931	56.806537	0.000314	3.142182	1.064600	-0.000126
 607	6.0297e+01	15.8530	56.645052	0.000405	4.054429	1.373678	-0.000162
 608	6.0397e+01	15.8177	56.556235	0.000223	2.229936	0.755523	-0.000089
 609	6.0496e+01	15.7760	56.406861	0.000375	3.750346	1.270652	-0.000150
 610	6.0596e+01	15.7375	56.293821	0.000284	2.838100	0.961574	-0.000114
 611	6.0695e+01	15.6974	56.152521	0.000355	3.547625	1.201968	-0.000142
 612	6.0794e+01	15.6557	55.982961	0.000426	4.257150	1.442361	-0.000170
 613	6.0894e+01	15.6284	55.902219	0.000203	2.027214	0.686839	-0.000081
 614	6.0993e+01	15.5659	55.805327	0.000243	2.432657	0.824207	-0.000097
 615	6.1093e+01	15.5386	55.615582	0.000476	4.763954	1.614071	-0.000191
 616	6.1193e+01	15.4969	55.474282	0.000355	3.547625	1.201968	-0.000142
 617	6.1292e+01	15.4504	55.357205	0.000294	2.939461	0.995916	-0.000118
 618	6.1392e+01	15.4151	55.183608	0.000436	4.358511	1.476703	-0.000174
 619	6.1491e+01	15.3766	55.110940	0.000182	1.824493	0.618155	-0.000073
 620	6.1590e+01	15.3381	54.977714	0.000334	3.344904	1.133284	-0.000134
 621	6.1690e+01	15.2980	54.848526	0.000324	3.243543	1.098942	-0.000130
 622	6.1789e+01	15.2563	54.719338	0.000324	3.243543	1.098942	-0.000130
 623	6.1889e+01	15.2129	54.565927	0.000385	3.851707	1.304994	-0.000154
 624	6.1989e+01	15.1841	54.432701	0.000334	3.344904	1.133284	-0.000134
 625	6.2088e+01	15.1343	54.307550	0.000314	3.142182	1.064600	-0.000126
 626	6.2188e+01	15.0974	54.166250	0.000355	3.547625	1.201968	-0.000142
 627	6.2287e+01	15.0557	54.037062	0.000324	3.243543	1.098942	-0.000130
 628	6.2386e+01	15.0188	53.895762	0.000355	3.547625	1.201968	-0.000142
 629	6.2486e+01	14.9755	53.758499	0.000345	3.446264	1.167626	-0.000138
 630	6.2586e+01	14.9402	53.649497	0.000274	2.736739	0.927232	-0.000110
 631	6.2685e+01	14.8985	53.520308	0.000324	3.243543	1.098942	-0.000130
 632	6.2785e+01	14.8568	53.395157	0.000314	3.142182	1.064600	-0.000126
 633	6.2884e+01	14.8167	53.274043	0.000304	3.040821	1.030258	-0.000122
 634	6.2983e+01	14.7846	53.124669	0.000375	3.750346	1.270652	-0.000150
 635	6.3083e+01	14.7317	52.995481	0.000324	3.243543	1.098942	-0.000130
 636	6.3182e+01	14.7076	52.809773	0.000466	4.662593	1.579729	-0.000187
 637	6.3282e+01	14.6643	52.652324	0.000395	3.953068	1.339336	-0.000158
 638	6.3382e+01	14.6226	52.591767	0.000152	1.520411	0.515129	-0.000061
 639	6.3481e+01	14.5793	52.426245	0.000416	4.155789	1.408020	-0.000166
 640	6.3581e+01	14.5424	52.293019	0.000334	3.344904	1.133284	-0.000134
 641	6.3680e+01	14.4942	52.171905	0.000304	3.040821	1.030258	-0.000122
 642	6.3779e+01	14.4606	52.046754	0.000314	3.142182	1.064600	-0.000126
 643	6.3879e+01	14.4188	51.881231	0.000416	4.155789	1.408020	-0.000166
 644	6.3978e+01	14.3787	51.788377	0.000233	2.331296	0.789865	-0.000093
 645	6.4078e+01	14.3418	51.655152	0.000334	3.344904	1.133284	-0.000134
 646	6.4177e+01	14.3033	51.509815	0.000365	3.648986	1.236310	-0.000146
 647	6.4277e+01	14.2632	51.372552	0.000345	3.446264	1.167626	-0.000138
 648	6.4376e+01	14.2167	51.207030	0.000416	4.155789	1.408020	-0.000166
 649	6.4476e+01	14.1814	51.118213	0.000223	2.229936	0.755523	-0.000089
 650	6.4576e+01	14.1477	50.997099	0.000304	3.040821	1.030258	-0.000122
 651	6.4675e+01	14.1012	50.880022	0.000294	2.939461	0.995916	-0.000118
 652	6.4775e+01	14.0675	50.702388	0.000446	4.459871	1.511045	-0.000179
 653	6.4874e+01	14.0194	50.561088	0.000355	3.547625	1.201968	-0.000142
 654	6.4974e+01	13.9825	50.399603	0.000405	4.054429	1.373678	-0.000162
 655	6.5073e+01	13.9392	50.286563	0.000284	2.838100	0.961574	-0.000114
 656	6.5172e+01	13.8975	50.153337	0.000334	3.344904	1.133284	-0.000134
 657	6.5272e+01	13.8606	50.016075	0.000345	3.446264	1.167626	-0.000138
 658	6.5371e+01	13.8221	49.874775	0.000355	3.547625	1.201968	-0.000142
 659	6.5471e+01	13.7804	49.717327	0.000395	3.953068	1.339336	-0.000158
 660	6.5570e+01	13.7322	49.612361	0.000264	2.635379	0.892890	-0.000105
 661	6.5670e+01	13.7034	49.491247	0.000304	3.040821	1.030258	-0.000122
 662	6.5769e+01	13.6552	49.329762	0.000405	4.054429	1.373678	-0.000162
 663	6.5869e+01	13.6183	49.208648	0.000304	3.040821	1.030258	-0.000122
 664	6.5969e+01	13.5862	49.055236	0.000385	3.851707	1.304994	-0.000154
 665	6.6068e+01	13.5461	48.986605	0.000172	1.723132	0.583813	-0.000069
 666	6.6168e+01	13.4948	48.792823	0.000487	4.865314	1.648413	-0.000195
 667	6.6267e+01	13.4723	48.683820	0.000274	2.736739	0.927232	-0.000110
 668	6.6367e+01	13.4162	48.607114	0.000193	1.925854	0.652497	-0.000077
 669	6.6466e+01	13.3841	48.453703	0.000385	3.851707	1.304994	-0.000154
 670	6.6566e+01	13.3424	48.312403	0.000355	3.547625	1.201968	-0.000142
 671	6.6665e+01	13.3023	48.126695	0.000466	4.662593	1.579729	-0.000187
 672	6.6764e+01	13.2574	48.001544	0.000314	3.142182	1.064600	-0.000126
 673	6.6864e+01	13.2301	47.848133	0.000385	3.851707	1.304994	-0.000154
 674	6.6963e+01	13.1836	47.718944	0.000324	3.243543	1.098942	-0.000130
 675	6.7063e+01	13.1467	47.553422	0.000416	4.155789	1.408020	-0.000166
 676	6.7162e+01	13.1114	47.428271	0.000314	3.142182	1.064600	-0.000126
 677	6.7262e+01	13.0681	47.339454	0.000223	2.229936	0.755523	-0.000089
 678	6.7362e+01	13.0232	47.173931	0.000416	4.155789	1.408020	-0.000166
 679	6.7461e+01	12.9943	47.024557	0.000375	3.750346	1.270652	-0.000150
 680	6.7561e+01	12.9381	46.919592	0.000264	2.635379	0.892890	-0.000105
 681	6.7660e+01	12.9012	46.770218	0.000375	3.750346	1.270652	-0.000150
 682	6.7760e+01	12.8579	46.641029	0.000324	3.243543	1.098942	-0.000130
 683	6.7859e+01	12.8210	46.511841	0.000324	3.243543	1.098942	-0.000130
 684	6.7959e+01	12.7873	46.398801	0.000284	2.838100	0.961574	-0.000114
 685	6.8058e+01	12.7537	46.237316	0.000405	4.054429	1.373678	-0.000162
 686	6.8157e+01	12.7119	46.148499	0.000223	2.229936	0.755523	-0.000089
 687	6.8257e+01	12.6686	46.015273	0.000334	3.344904	1.133284	-0.000134
 688	6.8356e+01	12.6349	45.821491	0.000487	4.865314	1.648413	-0.000195
 689	6.8456e+01	12.5852	45.684228	0.000345	3.446264	1.167626	-0.000138
 690	6.8555e+01	12.5531	45.551003	0.000334	3.344904	1.133284	-0.000134
 691	6.8655e+01	12.5066	45.413740	0.000345	3.446264	1.167626	-0.000138
 692	6.8754e+01	12.4633	45.256292	0.000395	3.953068	1.339336	-0.000158
 693	6.8854e+01	12.4280	45.119029	0.000345	3.446264	1.167626	-0.000138
 694	6.8954e+01	12.3927	45.018101	0.000253	2.534018	0.858548	-0.000101
 695	6.9053e+01	12.3478	44.868727	0.000375	3.750346	1.270652	-0.000150
 696	6.9153e+01	12.2980	44.715315	0.000385	3.851707	1.304994	-0.000154
 697	6.9252e+01	12.2676	44.594201	0.000304	3.040821	1.030258	-0.000122
 698	6.9352e+01	12.2419	44.456939	0.000345	3.446264	1.167626	-0.000138
 699	6.9451e+01	12.1890	44.311602	0.000365	3.648986	1.236310	-0.000146
 700	6.9550e+01	12.1440	44.162228	0.000375	3.750346	1.270652	-0.000150
 701	6.9650e+01	12.1136	44.008817	0.000385	3.851707	1.304994	-0.000154
 702	6.9749e+01	12.0686	43.875591	0.000334	3.344904	1.133284	-0.000134
 703	6.9849e+01	12.0205	43.746403	0.000324	3.243543	1.098942	-0.000130
 704	6.9948e+01	11.9852	43.645474	0.000253	2.534018	0.858548	-0.000101
 705	7.0048e+01	11.9467	43.520323	0.000314	3.142182	1.064600	-0.000126
 706	7.0147e+01	11.9178	43.370949	0.000375	3.750346	1.270652	-0.000150
 707	7.0247e+01	11.8633	43.213501	0.000395	3.953068	1.339336	-0.000158
 708	7.0347e+01	11.8328	43.068164	0.000365	3.648986	1.236310	-0.000146
 709	7.0446e+01	11.7895	42.938976	0.000324	3.243543	1.098942	-0.000130
 710	7.0546e+01	11.7510	42.753267	0.000466	4.662593	1.579729	-0.000187
 711	7.0645e+01	11.7205	42.648302	0.000264	2.635379	0.892890	-0.000105
 712	7.0745e+01	11.6836	42.511039	0.000345	3.446264	1.167626	-0.000138
 713	7.0844e+01	11.6371	42.361665	0.000375	3.750346	1.270652	-0.000150
 714	7.0944e+01	11.6018	42.228440	0.000334	3.344904	1.133284	-0.000134
 715	7.1043e+01	11.5521	42.115400	0.000284	2.838100	0.961574	-0.000114
 716	7.1142e+01	11.5040	41.961989	0.000385	3.851707	1.304994	-0.000154
 717	7.1242e+01	11.4687	41.804541	0.000395	3.953068	1.339336	-0.000158
 718	7.1341e+01	11.4270	41.683426	0.000304	3.040821	1.030258	-0.000122
 719	7.1441e+01	11.3933	41.542127	0.000355	3.547625	1.201968	-0.000142
 720	7.1540e+01	11.3580	41.404864	0.000345	3.446264	1.167626	-0.000138
 721	7.1640e+01	11.3082	41.303936	0.000253	2.534018	0.858548	-0.000101
 722	7.1740e+01	11.2681	41.150525	0.000385	3.851707	1.304994	-0.000154
 723	7.1839e+01	11.2264	41.033448	0.000294	2.939461	0.995916	-0.000118
 724	7.1939e+01	11.1895	40.920408	0.000284	2.838100	0.961574	-0.000114
 725	7.2038e+01	11.1446	40.738737	0.000456	4.561232	1.545387	-0.000183
 726	7.2138e+01	11.1093	40.585326	0.000385	3.851707	1.304994	-0.000154
 727	7.2237e+01	11.0772	40.395580	0.000476	4.763954	1.614071	-0.000191
 728	7.2337e+01	11.0339	40.294652	0.000253	2.534018	0.858548	-0.000101
 729	7.2436e+01	11.0002	40.161426	0.000334	3.344904	1.133284	-0.000134
 730	7.2535e+01	10.9521	40.003978	0.000395	3.953068	1.339336	-0.000158
 731	7.2635e+01	10.9152	39.846530	0.000395	3.953068	1.339336	-0.000158
 732	7.2734e+01	10.8735	39.761750	0.000213	2.128575	0.721181	-0.000085
 733	7.2834e+01	10.8318	39.580079	0.000456	4.561232	1.545387	-0.000183
 734	7.2933e+01	10.7853	39.406482	0.000436	4.358511	1.476703	-0.000174
 735	7.3033e+01	10.7564	39.309591	0.000243	2.432657	0.824207	-0.000097
 736	7.3132e+01	10.7163	39.152142	0.000395	3.953068	1.339336	-0.000158
 737	7.3232e+01	10.6730	39.022954	0.000324	3.243543	1.098942	-0.000130
 738	7.3332e+01	10.6329	38.913951	0.000274	2.736739	0.927232	-0.000110
 739	7.3431e+01	10.5895	38.780726	0.000334	3.344904	1.133284	-0.000134
 740	7.3531e+01	10.5542	38.659612	0.000304	3.040821	1.030258	-0.000122
 741	7.3630e+01	10.5093	38.542535	0.000294	2.939461	0.995916	-0.000118
 742	7.3730e+01	10.4708	38.381049	0.000405	4.054429	1.373678	-0.000162
 743	7.3829e+01	10.4355	38.243787	0.000345	3.446264	1.167626	-0.000138
 744	7.3928e+01	10.4051	38.074227	0.000426	4.257150	1.442361	-0.000170
 745	7.4028e+01	10.3553	37.864296	0.000527	5.270757	1.785781	-0.000211
 746	7.4127e+01	10.3248	37.735108	0.000324	3.243543	1.098942	-0.000130
 747	7.4227e+01	10.2879	37.613994	0.000304	3.040821	1.030258	-0.000122
 748	7.4326e+01	10.2366	37.476731	0.000345	3.446264	1.167626	-0.000138
 749	7.4426e+01	10.2013	37.331394	0.000365	3.648986	1.236310	-0.000146
 750	7.4525e+01	10.1500	37.210280	0.000304	3.040821	1.030258	-0.000122
 751	7.4625e+01	10.1195	37.064943	0.000365	3.648986	1.236310	-0.000146
 752	7.4725e+01	10.0746	36.915569	0.000375	3.750346	1.270652	-0.000150
 753	7.4824e+01	10.0345	36.786381	0.000324	3.243543	1.098942	-0.000130
 754	7.4924e+01	9.9928	36.653155	0.000334	3.344904	1.133284	-0.000134
 755	7.5023e+01	9.9607	36.471484	0.000456	4.561232	1.545387	-0.000183
 756	7.5123e+01	9.9174	36.346333	0.000314	3.142182	1.064600	-0.000126
 757	7.5222e+01	9.8773	36.261553	0.000213	2.128575	0.721181	-0.000085
 758	7.5322e+01	9.8372	36.104105	0.000395	3.953068	1.339336	-0.000158
 759	7.5421e+01	9.8003	35.978954	0.000314	3.142182	1.064600	-0.000126
 760	7.5520e+01	9.7585	35.849765	0.000324	3.243543	1.098942	-0.000130
 761	7.5620e+01	9.7217	35.692317	0.000395	3.953068	1.339336	-0.000158
 762	7.5719e+01	9.6783	35.518720	0.000436	4.358511	1.476703	-0.000174
 763	7.5819e+01	9.6398	35.365309	0.000385	3.851707	1.304994	-0.000154
 764	7.5918e+01	9.6029	35.260344	0.000264	2.635379	0.892890	-0.000105
 765	7.6018e+01	9.5532	35.062524	0.000497	4.966675	1.682755	-0.000199
 766	7.6118e+01	9.5227	34.913150	0.000375	3.750346	1.270652	-0.000150
 767	7.6217e+01	9.4762	34.804147	0.000274	2.736739	0.927232	-0.000110
 768	7.6317e+01	9.4361	34.654773	0.000375	3.750346	1.270652	-0.000150
 769	7.6416e+01	9.4072	34.541733	0.000284	2.838100	0.961574	-0.000114
 770	7.6516e+01	9.3623	34.372174	0.000426	4.257150	1.442361	-0.000170
 771	7.6615e+01	9.3174	34.247022	0.000314	3.142182	1.064600	-0.000126
 772	7.6715e+01	9.2933	34.097648	0.000375	3.750346	1.270652	-0.000150
 773	7.6814e+01	9.2356	33.964423	0.000334	3.344904	1.133284	-0.000134
 774	7.6913e+01	9.2003	33.823123	0.000355	3.547625	1.201968	-0.000142
 775	7.7013e+01	9.1602	33.689898	0.000334	3.344904	1.133284	-0.000134
 776	7.7112e+01	9.1265	33.609155	0.000203	2.027214	0.686839	-0.000081
 777	7.7212e+01	9.0800	33.455744	0.000385	3.851707	1.304994	-0.000154
 778	7.7311e+01	9.0350	33.290221	0.000416	4.155789	1.408020	-0.000166
 779	7.7411e+01	8.9933	33.136810	0.000385	3.851707	1.304994	-0.000154
 780	7.7510e+01	8.9645	32.995510	0.000355	3.547625	1.201968	-0.000142
 781	7.7610e+01	8.9243	32.797691	0.000497	4.966675	1.682755	-0.000199
 782	7.7710e+01	8.8907	32.668502	0.000324	3.243543	1.098942	-0.000130
 783	7.7809e+01	8.8441	32.523166	0.000365	3.648986	1.236310	-0.000146
 784	7.7909e+01	8.8072	32.393977	0.000324	3.243543	1.098942	-0.000130
 785	7.8008e+01	8.7623	32.256715	0.000345	3.446264	1.167626	-0.000138
 786	7.8108e+01	8.7206	32.103303	0.000385	3.851707	1.304994	-0.000154
 787	7.8207e+01	8.6821	31.933744	0.000426	4.257150	1.442361	-0.000170
 788	7.8306e+01	8.6388	31.844927	0.000223	2.229936	0.755523	-0.000089
 789	7.8406e+01	8.6003	31.683441	0.000405	4.054429	1.373678	-0.000162
 790	7.8505e+01	8.5650	31.534067	0.000375	3.750346	1.270652	-0.000150
 791	7.8605e+01	8.5233	31.380656	0.000385	3.851707	1.304994	-0.000154
 792	7.8704e+01	8.4800	31.279728	0.000253	2.534018	0.858548	-0.000101
 793	7.8804e+01	8.4415	31.122279	0.000395	3.953068	1.339336	-0.000158
 794	7.8903e+01	8.3998	31.045574	0.000193	1.925854	0.652497	-0.000077
 795	7.9003e+01	8.3532	30.900237	0.000365	3.648986	1.236310	-0.000146
 796	7.9103e+01	8.3179	30.734714	0.000416	4.155789	1.408020	-0.000166
 797	7.9202e+01	8.2875	30.597452	0.000345	3.446264	1.167626	-0.000138
 798	7.9302e+01	8.2442	30.435966	0.000405	4.054429	1.373678	-0.000162
 799	7.9401e+01	8.2008	30.266407	0.000426	4.257150	1.442361	-0.000170
 800	7.9501e+01	8.1655	30.104921	0.000405	4.054429	1.373678	-0.000162
 801	7.9600e+01	8.1270	29.951510	0.000385	3.851707	1.304994	-0.000154
 802	7.9700e+01	8.0853	29.810210	0.000355	3.547625	1.201968	-0.000142
 803	7.9799e+01	8.0340	29.668911	0.000355	3.547625	1.201968	-0.000142
 804	7.9898e+01	8.0035	29.491277	0.000446	4.459871	1.511045	-0.000179
 805	7.9998e+01	7.9682	29.354014	0.000345	3.446264	1.167626	-0.000138
 806	8.0097e+01	7.9249	29.220788	0.000334	3.344904	1.133284	-0.000134
 807	8.0197e+01	7.8800	29.087563	0.000334	3.344904	1.133284	-0.000134
 808	8.0296e+01	7.8495	28.962412	0.000314	3.142182	1.064600	-0.000126
 809	8.0396e+01	7.8078	28.804963	0.000395	3.953068	1.339336	-0.000158
 810	8.0496e+01	7.7645	28.659627	0.000365	3.648986	1.236310	-0.000146
 811	8.0595e+01	7.7292	28.554661	0.000264	2.635379	0.892890	-0.000105
 812	8.0695e+01	7.6875	28.433547	0.000304	3.040821	1.030258	-0.000122
 813	8.0794e+01	7.6490	28.300322	0.000334	3.344904	1.133284	-0.000134
 814	8.0894e+01	7.6041	28.126725	0.000436	4.358511	1.476703	-0.000174
 815	8.0993e+01	7.5672	27.997536	0.000324	3.243543	1.098942	-0.000130
 816	8.1093e+01	7.5319	27.856237	0.000355	3.547625	1.201968	-0.000142
 817	8.1192e+01	7.4902	27.706863	0.000375	3.750346	1.270652	-0.000150
 818	8.1291e+01	7.4485	27.525191	0.000456	4.561232	1.545387	-0.000183
 819	8.1391e+01	7.4083	27.359669	0.000416	4.155789	1.408020	-0.000166
 820	8.1490e+01	7.3682	27.210295	0.000375	3.750346	1.270652	-0.000150
 821	8.1590e+01	7.3329	27.073032	0.000345	3.446264	1.167626	-0.000138
 822	8.1689e+01	7.2961	26.919621	0.000385	3.851707	1.304994	-0.000154
 823	8.1789e+01	7.2495	26.741987	0.000446	4.459871	1.511045	-0.000179
 824	8.1888e+01	7.1998	26.616836	0.000314	3.142182	1.064600	-0.000126
 825	8.1988e+01	7.1629	26.463425	0.000385	3.851707	1.304994	-0.000154
 826	8.2088e+01	7.1276	26.305976	0.000395	3.953068	1.339336	-0.000158
 827	8.2187e+01	7.0811	26.229271	0.000193	1.925854	0.652497	-0.000077
 828	8.2287e+01	7.0474	26.083934	0.000365	3.648986	1.236310	-0.000146
 829	8.2386e+01	7.0105	25.950709	0.000334	3.344904	1.133284	-0.000134
 830	8.2486e+01	6.9656	25.801335	0.000375	3.750346	1.270652	-0.000150
 831	8.2585e+01	6.9287	25.660035	0.000355	3.547625	1.201968	-0.000142
 832	8.2684e+01	6.8902	25.526809	0.000334	3.344904	1.133284	-0.000134
 833	8.2784e+01	6.8437	25.389547	0.000345	3.446264	1.167626	-0.000138
 834	8.2883e+01	6.8100	25.252284	0.000345	3.446264	1.167626	-0.000138
 835	8.2983e+01	6.7763	25.131170	0.000304	3.040821	1.030258	-0.000122
 836	8.3082e+01	6.7330	24.945462	0.000466	4.662593	1.579729	-0.000187
 837	8.3182e+01	6.6945	24.735531	0.000527	5.270757	1.785781	-0.000211
 838	8.3281e+01	6.6576	24.626528	0.000274	2.736739	0.927232	-0.000110
 839	8.3381e+01	6.6159	24.440820	0.000466	4.662593	1.579729	-0.000187
 840	8.3481e+01	6.5693	24.307594	0.000334	3.344904	1.133284	-0.000134
 841	8.3580e+01	6.5244	24.142072	0.000416	4.155789	1.408020	-0.000166
 842	8.3680e+01	6.4859	24.024995	0.000294	2.939461	0.995916	-0.000118
 843	8.3779e+01	6.4538	23.903881	0.000304	3.040821	1.030258	-0.000122
 844	8.3879e+01	6.4153	23.766618	0.000345	3.446264	1.167626	-0.000138
 845	8.3978e+01	6.3752	23.629355	0.000345	3.446264	1.167626	-0.000138
 846	8.4078e+01	6.3255	23.463833	0.000416	4.155789	1.408020	-0.000166
 847	8.4177e+01	6.2998	23.350793	0.000284	2.838100	0.961574	-0.000114
 848	8.4276e+01	6.2565	23.249865	0.000253	2.534018	0.858548	-0.000101
 849	8.4376e+01	6.2164	23.080305	0.000426	4.257150	1.442361	-0.000170
 850	8.4475e+01	6.1763	22.934968	0.000365	3.648986	1.236310	-0.000146
 851	8.4575e+01	6.1330	22.785594	0.000375	3.750346	1.270652	-0.000150
 852	8.4674e+01	6.0897	22.607960	0.000446	4.459871	1.511045	-0.000179
 853	8.4774e+01	6.0560	22.494920	0.000284	2.838100	0.961574	-0.000114
 854	8.4874e+01	6.0127	22.280952	0.000537	5.372118	1.820123	-0.000215
 855	8.4973e+01	5.9806	22.143690	0.000345	3.446264	1.167626	-0.000138
 856	8.5073e+01	5.9389	22.038724	0.000264	2.635379	0.892890	-0.000105
 857	8.5172e+01	5.8891	21.857053	0.000456	4.561232	1.545387	-0.000183
 858	8.5272e+01	5.8587	21.703642	0.000385	3.851707	1.304994	-0.000154
 859	8.5371e+01	5.8089	21.582528	0.000304	3.040821	1.030258	-0.000122
 860	8.5471e+01	5.7801	21.441228	0.000355	3.547625	1.201968	-0.000142
 861	8.5570e+01	5.7351	21.295891	0.000365	3.648986	1.236310	-0.000146
 862	8.5669e+01	5.6886	21.106146	0.000476	4.763954	1.614071	-0.000191
 863	8.5769e+01	5.6613	20.985032	0.000304	3.040821	1.030258	-0.000122
 864	8.5868e+01	5.6084	20.851806	0.000334	3.344904	1.133284	-0.000134
 865	8.5968e+01	5.5747	20.722618	0.000324	3.243543	1.098942	-0.000130
 866	8.6067e+01	5.5330	20.605541	0.000294	2.939461	0.995916	-0.000118
 867	8.6167e+01	5.4961	20.431944	0.000436	4.358511	1.476703	-0.000174
 868	8.6266e+01	5.4608	20.302756	0.000324	3.243543	1.098942	-0.000130
 869	8.6366e+01	5.4159	20.145307	0.000395	3.953068	1.339336	-0.000158
 870	8.6466e+01	5.3742	19.979785	0.000416	4.155789	1.408020	-0.000166
 871	8.6565e+01	5.3453	19.810225	0.000426	4.257150	1.442361	-0.000170
 872	8.6665e+01	5.2972	19.668925	0.000355	3.547625	1.201968	-0.000142
 873	8.6764e+01	5.2667	19.499366	0.000426	4.257150	1.442361	-0.000170
 874	8.6864e+01	5.2234	19.358066	0.000355	3.547625	1.201968	-0.000142
 875	8.6963e+01	5.1753	19.212729	0.000365	3.648986	1.236310	-0.000146
 876	8.7063e+01	5.1351	19.059318	0.000385	3.851707	1.304994	-0.000154
 877	8.7162e+01	5.0966	18.909944	0.000375	3.750346	1.270652	-0.000150
 878	8.7261e+01	5.0598	18.792867	0.000294	2.939461	0.995916	-0.000118
 879	8.7361e+01	5.0164	18.647530	0.000365	3.648986	1.236310	-0.000146
 880	8.7460e+01	4.9747	18.482007	0.000416	4.155789	1.408020	-0.000166
 881	8.7560e+01	4.9330	18.348782	0.000334	3.344904	1.133284	-0.000134
 882	8.7659e+01	4.8961	18.243816	0.000264	2.635379	0.892890	-0.000105
 883	8.7759e+01	4.8560	18.090405	0.000385	3.851707	1.304994	-0.000154
 884	8.7859e+01	4.8255	17.957180	0.000334	3.344904	1.133284	-0.000134
 885	8.7958e+01	4.7726	17.844140	0.000284	2.838100	0.961574	-0.000114
 886	8.8058e+01	4.7389	17.658432	0.000466	4.662593	1.579729	-0.000187
 887	8.8157e+01	4.7020	17.537318	0.000304	3.040821	1.030258	-0.000122
 888	8.8257e+01	4.6651	17.379869	0.000395	3.953068	1.339336	-0.000158
 889	8.8356e+01	4.6250	17.210310	0.000426	4.257150	1.442361	-0.000170
 890	8.8456e+01	4.5913	17.064973	0.000365	3.648986	1.236310	-0.000146
 891	8.8555e+01	4.5432	16.895413	0.000426	4.257150	1.442361	-0.000170
 892	8.8654e+01	4.4951	16.746039	0.000375	3.750346	1.270652	-0.000150
 893	8.8754e+01	4.4646	16.576479	0.000426	4.257150	1.442361	-0.000170
 894	8.8853e+01	4.4213	16.423068	0.000385	3.851707	1.304994	-0.000154
 895	8.8953e+01	4.3731	16.277731	0.000365	3.648986	1.236310	-0.000146
 896	8.9052e+01	4.3459	16.148543	0.000324	3.243543	1.098942	-0.000130
 897	8.9152e+01	4.2977	15.991095	0.000395	3.953068	1.339336	-0.000158
 898	8.9251e+01	4.2641	15.869981	0.000304	3.040821	1.030258	-0.000122
 899	8.9351e+01	4.2223	15.712532	0.000395	3.953068	1.339336	-0.000158
 900	8.9451e+01	4.1790	15.579307	0.000334	3.344904	1.133284	-0.000134
 901	8.9550e+01	4.1373	15.470304	0.000274	2.736739	0.927232	-0.000110
 902	8.9650e+01	4.0972	15.324967	0.000365	3.648986	1.236310	-0.000146
 903	8.9749e+01	4.0619	15.175593	0.000375	3.750346	1.270652	-0.000150
 904	8.9849e+01	4.0250	15.042368	0.000334	3.344904	1.133284	-0.000134
 905	8.9948e+01	3.9801	14.876845	0.000416	4.155789	1.408020	-0.000166
 906	9.0047e+01	3.9400	14.727471	0.000375	3.750346	1.270652	-0.000150
 907	9.0147e+01	3.9127	14.582134	0.000365	3.648986	1.236310	-0.000146
 908	9.0246e+01	3.8662	14.356055	0.000568	5.676200	1.923149	-0.000227
 909	9.0346e+01	3.8277	14.198606	0.000395	3.953068	1.339336	-0.000158
 910	9.0445e+01	3.7860	14.077492	0.000304	3.040821	1.030258	-0.000122
 911	9.0545e+01	3.7459	13.911970	0.000416	4.155789	1.408020	-0.000166
 912	9.0644e+01	3.6978	13.742410	0.000426	4.257150	1.442361	-0.000170
 913	9.0744e+01	3.6673	13.637445	0.000264	2.635379	0.892890	-0.000105
 914	9.0844e+01	3.6208	13.524405	0.000284	2.838100	0.961574	-0.000114
 915	9.0943e+01	3.5806	13.326585	0.000497	4.966675	1.682755	-0.000199
 916	9.1043e+01	3.5421	13.201434	0.000314	3.142182	1.064600	-0.000126
 917	9.1142e+01	3.5036	13.092431	0.000274	2.736739	0.927232	-0.000110
 918	9.1242e+01	3.4684	12.939020	0.000385	3.851707	1.304994	-0.000154
 919	9.1341e+01	3.4331	12.797720	0.000355	3.547625	1.201968	-0.000142
 920	9.1441e+01	3.3801	12.660458	0.000345	3.446264	1.167626	-0.000138
 921	9.1540e+01	3.3432	12.523195	0.000345	3.446264	1.167626	-0.000138
 922	9.1639e+01	3.2999	12.349598	0.000436	4.358511	1.476703	-0.000174
 923	9.1739e+01	3.2662	12.200224	0.000375	3.750346	1.270652	-0.000150
 924	9.1838e+01	3.2277	12.062962	0.000345	3.446264	1.167626	-0.000138
 925	9.1938e+01	3.1796	11.917625	0.000365	3.648986	1.236310	-0.000146
 926	9.2037e+01	3.1395	11.711731	0.000517	5.169396	1.751439	-0.000207
 927	9.2137e+01	3.1122	11.566394	0.000365	3.648986	1.236310	-0.000146
 928	9.2237e+01	3.0673	11.417020	0.000375	3.750346	1.270652	-0.000150
 929	9.2336e+01	3.0192	11.259572	0.000395	3.953068	1.339336	-0.000158
 930	9.2436e+01	2.9823	11.122309	0.000345	3.446264	1.167626	-0.000138
 931	9.2535e+01	2.9390	10.972935	0.000375	3.750346	1.270652	-0.000150
 932	9.2635e+01	2.9053	10.827598	0.000365	3.648986	1.236310	-0.000146
 933	9.2734e+01	2.8684	10.698410	0.000324	3.243543	1.098942	-0.000130
 934	9.2834e+01	2.8283	10.516739	0.000456	4.561232	1.545387	-0.000183
 935	9.2933e+01	2.7898	10.399662	0.000294	2.939461	0.995916	-0.000118
 936	9.3032e+01	2.7464	10.270473	0.000324	3.243543	1.098942	-0.000130
 937	9.3132e+01	2.6999	10.117062	0.000385	3.851707	1.304994	-0.000154
 938	9.3231e+01	2.6662	10.004022	0.000284	2.838100	0.961574	-0.000114
 939	9.3331e+01	2.6293	9.874834	0.000324	3.243543	1.098942	-0.000130
 940	9.3430e+01	2.5860	9.693163	0.000456	4.561232	1.545387	-0.000183
 941	9.3530e+01	2.5491	9.588197	0.000264	2.635379	0.892890	-0.000105
 942	9.3629e+01	2.5042	9.418638	0.000426	4.257150	1.442361	-0.000170
 943	9.3729e+01	2.4705	9.249078	0.000426	4.257150	1.442361	-0.000170
 944	9.3829e+01	2.4304	9.079518	0.000426	4.257150	1.442361	-0.000170
 945	9.3928e+01	2.3919	8.873624	0.000517	5.169396	1.751439	-0.000207
 946	9.4028e+01	2.3438	8.784807	0.000223	2.229936	0.755523	-0.000089
 947	9.4127e+01	2.3053	8.623322	0.000405	4.054429	1.373678	-0.000162
 948	9.4227e+01	2.2716	8.429539	0.000487	4.865314	1.648413	-0.000195
 949	9.4326e+01	2.2315	8.312462	0.000294	2.939461	0.995916	-0.000118
 950	9.4425e+01	2.1946	8.191348	0.000304	3.040821	1.030258	-0.000122
 951	9.4525e+01	2.1449	7.997566	0.000487	4.865314	1.648413	-0.000195
 952	9.4624e+01	2.1128	7.904712	0.000233	2.331296	0.789865	-0.000093
 953	9.4724e+01	2.0598	7.714966	0.000476	4.763954	1.614071	-0.000191
 954	9.4823e+01	2.0374	7.605964	0.000274	2.736739	0.927232	-0.000110
 955	9.4923e+01	1.9828	7.456590	0.000375	3.750346	1.270652	-0.000150
 956	9.5022e+01	1.9427	7.315290	0.000355	3.547625	1.201968	-0.000142
 957	9.5122e+01	1.9106	7.173990	0.000355	3.547625	1.201968	-0.000142
 958	9.5222e+01	1.8673	7.044802	0.000324	3.243543	1.098942	-0.000130
 959	9.5321e+01	1.8304	6.867168	0.000446	4.459871	1.511045	-0.000179
 960	9.5421e+01	1.7919	6.725868	0.000355	3.547625	1.201968	-0.000142
 961	9.5520e+01	1.7566	6.536123	0.000476	4.763954	1.614071	-0.000191
 962	9.5620e+01	1.7149	6.378674	0.000395	3.953068	1.339336	-0.000158
 963	9.5719e+01	1.6668	6.237375	0.000355	3.547625	1.201968	-0.000142
 964	9.5819e+01	1.6283	6.067815	0.000426	4.257150	1.442361	-0.000170
 965	9.5918e+01	1.5898	5.926515	0.000355	3.547625	1.201968	-0.000142
 966	9.6017e+01	1.5449	5.752918	0.000436	4.358511	1.476703	-0.000174
 967	9.6117e+01	1.5192	5.627767	0.000314	3.142182	1.064600	-0.000126
 968	9.6216e+01	1.4823	5.498579	0.000324	3.243543	1.098942	-0.000130
 969	9.6316e+01	1.4438	5.357279	0.000355	3.547625	1.201968	-0.000142
 970	9.6415e+01	1.3877	5.199831	0.000395	3.953068	1.339336	-0.000158
 971	9.6515e+01	1.3395	5.066605	0.000334	3.344904	1.133284	-0.000134
 972	9.6615e+01	1.3091	4.913194	0.000385	3.851707	1.304994	-0.000154
 973	9.6714e+01	1.2754	4.804192	0.000274	2.736739	0.927232	-0.000110
 974	9.6814e+01	1.2288	4.622520	0.000456	4.561232	1.545387	-0.000183
 975	9.6913e+01	1.1823	4.493332	0.000324	3.243543	1.098942	-0.000130
 976	9.7013e+01	1.1615	4.360107	0.000334	3.344904	1.133284	-0.000134
 977	9.7112e+01	1.1149	4.206695	0.000385	3.851707	1.304994	-0.000154
 978	9.7212e+01	1.0764	4.057321	0.000375	3.750346	1.270652	-0.000150
 979	9.7311e+01	1.0347	3.847390	0.000527	5.270757	1.785781	-0.000211
 980	9.7410e+01	0.9946	3.702053	0.000365	3.648986	1.236310	-0.000146
 981	9.7510e+01	0.9545	3.556717	0.000365	3.648986	1.236310	-0.000146
 982	9.7609e+01	0.9224	3.391194	0.000416	4.155789	1.408020	-0.000166
 983	9.7709e+01	0.8759	3.282191	0.000274	2.736739	0.927232	-0.000110
 984	9.7808e+01	0.8422	3.124743	0.000395	3.953068	1.339336	-0.000158
 985	9.7908e+01	0.7813	2.955183	0.000426	4.257150	1.442361	-0.000170
 986	9.8007e+01	0.7540	2.793698	0.000405	4.054429	1.373678	-0.000162
 987	9.8107e+01	0.7123	2.628175	0.000416	4.155789	1.408020	-0.000166
 988	9.8207e+01	0.6738	2.531284	0.000243	2.432657	0.824207	-0.000097
 989	9.8306e+01	0.6433	2.373836	0.000395	3.953068	1.339336	-0.000158
 990	9.8406e+01	0.5968	2.232536	0.000355	3.547625	1.201968	-0.000142
 991	9.8505e+01	0.5551	2.151793	0.000203	2.027214	0.686839	-0.000081
 992	9.8605e+01	0.5037	1.982234	0.000426	4.257150	1.442361	-0.000170
 993	9.8704e+01	0.4732	1.796525	0.000466	4.662593	1.579729	-0.000187
 994	9.8803e+01	0.4364	1.703671	0.000233	2.331296	0.789865	-0.000093
 995	9.8903e+01	0.3898	1.513926	0.000476	4.763954	1.614071	-0.000191
 996	9.9002e+01	0.3529	1.392812	0.000304	3.040821	1.030258	-0.000122
 997	9.9102e+01	0.3208	1.174806	0.000547	5.473479	1.854465	-0.000219
 998	9.9201e+01	0.2775	1.025432	0.000375	3.750346	1.270652	-0.000150
 999	9.9301e+01	0.2374	0.867984	0.000395	3.953068	1.339336	-0.000158
1000	9.9400e+01	0.1925	0.726684	0.000355	3.547625	1.201968	-0.000142
1001	9.9500e+01	0.1588	0.573273	0.000385	3.851707	1.304994	-0.000154
1002	9.9600e+01	0.1107	0.411788	0.000405	4.054429	1.373678	-0.000162
1003	9.9699e+01	0.0706	0.250302	0.000405	4.054429	1.373678	-0.000162
1004	9.9799e+01	0.0385	0.100928	0.000375	3.750346	1.270652	-0.000150
1005	9.9898e+01	0.0016	0.020186	0.000203	2.027214	0.686839	-0.000081
1006	9.9998e+01	-0.0289	-0.173597	0.000487	4.865314	1.648413	-0.000195
1007	1.0010e+02	-0.0754	-0.290674	0.000294	2.939461	0.995916	-0.000118
1008	1.0020e+02	-0.1155	-0.411788	0.000304	3.040821	1.030258	-0.000122
1009	1.0030e+02	-0.1524	-0.549050	0.000345	3.446264	1.167626	-0.000138
1010	1.0040e+02	-0.1941	-0.662090	0.000284	2.838100	0.961574	-0.000114
1011	1.0050e+02	-0.2358	-0.851836	0.000476	4.763954	1.614071	-0.000191
1012	1.0059e+02	-0.2775	-0.985061	0.000334	3.344904	1.133284	-0.000134
1013	1.0069e+02	-0.3241	-1.150584	0.000416	4.155789	1.408020	-0.000166
1014	1.0079e+02	-0.3577	-1.312069	0.000405	4.054429	1.373678	-0.000162
1015	1.0089e+02	-0.3850	-1.461443	0.000375	3.750346	1.270652	-0.000150
1016	1.0099e+02	-0.4380	-1.614854	0.000385	3.851707	1.304994	-0.000154
1017	1.0109e+02	-0.4684	-1.768265	0.000385	3.851707	1.304994	-0.000154
1018	1.0119e+02	-0.5182	-1.937825	0.000426	4.257150	1.442361	-0.000170
1019	1.0129e+02	-0.5551	-2.079125	0.000355	3.547625	1.201968	-0.000142
1020	1.0139e+02	-0.5968	-2.252722	0.000436	4.358511	1.476703	-0.000174
1021	1.0149e+02	-0.6337	-2.373836	0.000304	3.040821	1.030258	-0.000122
1022	1.0159e+02	-0.6722	-2.551470	0.000446	4.459871	1.511045	-0.000179
1023	1.0169e+02	-0.7107	-2.652398	0.000253	2.534018	0.858548	-0.000101
1024	1.0179e+02	-0.7492	-2.834069	0.000456	4.561232	1.545387	-0.000183
1025	1.0189e+02	-0.7861	-2.955183	0.000304	3.040821	1.030258	-0.000122
1026	1.0199e+02	-0.8422	-3.100520	0.000365	3.648986	1.236310	-0.000146
1027	1.0209e+02	-0.8743	-3.229709	0.000324	3.243543	1.098942	-0.000130
1028	1.0219e+02	-0.9128	-3.375045	0.000365	3.648986	1.236310	-0.000146
1029	1.0229e+02	-0.9577	-3.500197	0.000314	3.142182	1.064600	-0.000126
1030	1.0239e+02	-0.9914	-3.702053	0.000507	5.068036	1.717097	-0.000203
1031	1.0248e+02	-1.0411	-3.827205	0.000314	3.142182	1.064600	-0.000126
1032	1.0258e+02	-1.0764	-3.964467	0.000345	3.446264	1.167626	-0.000138
1033	1.0268e+02	-1.1037	-4.166324	0.000507	5.068036	1.717097	-0.000203
1034	1.0278e+02	-1.1454	-4.327810	0.000405	4.054429	1.373678	-0.000162
1035	1.0288e+02	-1.1887	-4.477184	0.000375	3.750346	1.270652	-0.000150
1036	1.0298e+02	-1.2321	-4.642706	0.000416	4.155789	1.408020	-0.000166
1037	1.0308e+02	-1.2625	-4.755746	0.000284	2.838100	0.961574	-0.000114
1038	1.0318e+02	-1.3107	-4.949528	0.000487	4.865314	1.648413	-0.000195
1039	1.0328e+02	-1.3604	-5.078717	0.000324	3.243543	1.098942	-0.000130
1040	1.0338e+02	-1.3861	-5.232128	0.000385	3.851707	1.304994	-0.000154
1041	1.0348e+02	-1.4294	-5.393613	0.000405	4.054429	1.373678	-0.000162
1042	1.0358e+02	-1.4631	-5.494542	0.000253	2.534018	0.858548	-0.000101
1043	1.0368e+02	-1.5128	-5.639879	0.000365	3.648986	1.236310	-0.000146
1044	1.0378e+02	-1.5561	-5.765030	0.000314	3.142182	1.064600	-0.000126
1045	1.0388e+02	-1.5898	-5.882107	0.000294	2.939461	0.995916	-0.000118
1046	1.0398e+02	-1.6283	-6.035518	0.000385	3.851707	1.304994	-0.000154
1047	1.0408e+02	-1.6700	-6.205078	0.000426	4.257150	1.442361	-0.000170
1048	1.0418e+02	-1.7069	-6.342340	0.000345	3.446264	1.167626	-0.000138
1049	1.0428e+02	-1.7454	-6.467491	0.000314	3.142182	1.064600	-0.000126
1050	1.0438e+02	-1.7871	-6.649163	0.000456	4.561232	1.545387	-0.000183
1051	1.0447e+02	-1.8240	-6.806611	0.000395	3.953068	1.339336	-0.000158
1052	1.0457e+02	-1.8657	-7.000393	0.000487	4.865314	1.648413	-0.000195
1053	1.0467e+02	-1.9122	-7.121507	0.000304	3.040821	1.030258	-0.000122
1054	1.0477e+02	-1.9459	-7.323364	0.000507	5.068036	1.717097	-0.000203
1055	1.0487e+02	-1.9828	-7.432367	0.000274	2.736739	0.927232	-0.000110
1056	1.0497e+02	-2.0294	-7.577704	0.000365	3.648986	1.236310	-0.000146
1057	1.0507e+02	-2.0598	-7.755338	0.000446	4.459871	1.511045	-0.000179
1058	1.0517e+02	-2.1096	-7.868378	0.000284	2.838100	0.961574	-0.000114
1059	1.0527e+02	-2.1433	-8.037937	0.000426	4.257150	1.442361	-0.000170
1060	1.0537e+02	-2.1866	-8.191348	0.000385	3.851707	1.304994	-0.000154
1061	1.0547e+02	-2.2363	-8.332648	0.000355	3.547625	1.201968	-0.000142
1062	1.0557e+02	-2.2700	-8.445688	0.000284	2.838100	0.961574	-0.000114
1063	1.0567e+02	-2.3117	-8.570839	0.000314	3.142182	1.064600	-0.000126
1064	1.0577e+02	-2.3614	-8.712139	0.000355	3.547625	1.201968	-0.000142
1065	1.0587e+02	-2.3935	-8.861513	0.000375	3.750346	1.270652	-0.000150
1066	1.0597e+02	-2.4272	-8.998776	0.000345	3.446264	1.167626	-0.000138
1067	1.0607e+02	-2.4673	-9.180447	0.000456	4.561232	1.545387	-0.000183
1068	1.0617e+02	-2.5010	-9.317709	0.000345	3.446264	1.167626	-0.000138
1069	1.0627e+02	-2.5475	-9.471120	0.000385	3.851707	1.304994	-0.000154
1070	1.0637e+02	-2.5908	-9.648754	0.000446	4.459871	1.511045	-0.000179
1071	1.0647e+02	-2.6277	-9.822351	0.000436	4.358511	1.476703	-0.000174
1072	1.0656e+02	-2.6630	-9.939428	0.000294	2.939461	0.995916	-0.000118
1073	1.0666e+02	-2.6951	-10.121099	0.000456	4.561232	1.545387	-0.000183
1074	1.0676e+02	-2.7513	-10.278548	0.000395	3.953068	1.339336	-0.000158
1075	1.0686e+02	-2.7801	-10.391587	0.000284	2.838100	0.961574	-0.000114
1076	1.0696e+02	-2.8186	-10.557110	0.000416	4.155789	1.408020	-0.000166
1077	1.0706e+02	-2.8812	-10.694373	0.000345	3.446264	1.167626	-0.000138
1078	1.0716e+02	-2.9085	-10.811450	0.000294	2.939461	0.995916	-0.000118
1079	1.0726e+02	-2.9454	-10.981009	0.000426	4.257150	1.442361	-0.000170
1080	1.0736e+02	-2.9919	-11.094049	0.000284	2.838100	0.961574	-0.000114
1081	1.0746e+02	-3.0208	-11.207089	0.000284	2.838100	0.961574	-0.000114
1082	1.0756e+02	-3.0577	-11.356463	0.000375	3.750346	1.270652	-0.000150
1083	1.0766e+02	-3.1042	-11.542171	0.000466	4.662593	1.579729	-0.000187
1084	1.0776e+02	-3.1443	-11.659248	0.000294	2.939461	0.995916	-0.000118
1085	1.0786e+02	-3.1908	-11.824771	0.000416	4.155789	1.408020	-0.000166
1086	1.0796e+02	-3.2229	-11.933773	0.000274	2.736739	0.927232	-0.000110
1087	1.0806e+02	-3.2614	-12.099296	0.000416	4.155789	1.408020	-0.000166
1088	1.0816e+02	-3.2983	-12.276930	0.000446	4.459871	1.511045	-0.000179
1089	1.0826e+02	-3.3480	-12.438415	0.000405	4.054429	1.373678	-0.000162
1090	1.0836e+02	-3.3705	-12.555492	0.000294	2.939461	0.995916	-0.000118
1091	1.0845e+02	-3.4154	-12.741200	0.000466	4.662593	1.579729	-0.000187
1092	1.0855e+02	-3.4619	-12.902686	0.000405	4.054429	1.373678	-0.000162
1093	1.0865e+02	-3.5020	-13.056097	0.000385	3.851707	1.304994	-0.000154
1094	1.0875e+02	-3.5373	-13.169137	0.000284	2.838100	0.961574	-0.000114
1095	1.0885e+02	-3.5903	-13.338696	0.000426	4.257150	1.442361	-0.000170
1096	1.0895e+02	-3.6240	-13.467885	0.000324	3.243543	1.098942	-0.000130
1097	1.0905e+02	-3.6689	-13.613222	0.000365	3.648986	1.236310	-0.000146
1098	1.0915e+02	-3.6978	-13.714150	0.000253	2.534018	0.858548	-0.000101
1099	1.0925e+02	-3.7314	-13.879673	0.000416	4.155789	1.408020	-0.000166
1100	1.0935e+02	-3.7908	-14.000787	0.000304	3.040821	1.030258	-0.000122
1101	1.0945e+02	-3.8213	-14.166309	0.000416	4.155789	1.408020	-0.000166
1102	1.0955e+02	-3.8646	-14.243015	0.000193	1.925854	0.652497	-0.000077
1103	1.0965e+02	-3.8983	-14.452946	0.000527	5.270757	1.785781	-0.000211
1104	1.0975e+02	-3.9432	-14.570023	0.000294	2.939461	0.995916	-0.000118
1105	1.0985e+02	-3.9753	-14.767843	0.000497	4.966675	1.682755	-0.000199
1106	1.0995e+02	-4.0186	-14.949514	0.000456	4.561232	1.545387	-0.000183
1107	1.1005e+02	-4.0523	-15.054479	0.000264	2.635379	0.892890	-0.000105
1108	1.1015e+02	-4.1020	-15.224039	0.000426	4.257150	1.442361	-0.000170
1109	1.1025e+02	-4.1293	-15.389561	0.000416	4.155789	1.408020	-0.000166
1110	1.1035e+02	-4.1710	-15.530861	0.000355	3.547625	1.201968	-0.000142
1111	1.1044e+02	-4.2143	-15.656012	0.000314	3.142182	1.064600	-0.000126
1112	1.1054e+02	-4.2560	-15.849795	0.000487	4.865314	1.648413	-0.000195
1113	1.1064e+02	-4.2977	-15.962835	0.000284	2.838100	0.961574	-0.000114
1114	1.1074e+02	-4.3427	-16.116246	0.000385	3.851707	1.304994	-0.000154
1115	1.1084e+02	-4.3731	-16.281768	0.000416	4.155789	1.408020	-0.000166
1116	1.1094e+02	-4.4132	-16.382697	0.000253	2.534018	0.858548	-0.000101
1117	1.1104e+02	-4.4550	-16.503811	0.000304	3.040821	1.030258	-0.000122
1118	1.1114e+02	-4.5047	-16.641074	0.000345	3.446264	1.167626	-0.000138
1119	1.1124e+02	-4.5416	-16.782373	0.000355	3.547625	1.201968	-0.000142
1120	1.1134e+02	-4.5801	-16.911562	0.000324	3.243543	1.098942	-0.000130
1121	1.1144e+02	-4.6154	-17.056898	0.000365	3.648986	1.236310	-0.000146
1122	1.1154e+02	-4.6571	-17.234532	0.000446	4.459871	1.511045	-0.000179
1123	1.1164e+02	-4.6940	-17.375832	0.000355	3.547625	1.201968	-0.000142
1124	1.1174e+02	-4.7325	-17.533281	0.000395	3.953068	1.339336	-0.000158
1125	1.1184e+02	-4.7646	-17.694766	0.000405	4.054429	1.373678	-0.000162
1126	1.1194e+02	-4.8111	-17.819917	0.000314	3.142182	1.064600	-0.000126
1127	1.1204e+02	-4.8496	-17.997551	0.000446	4.459871	1.511045	-0.000179
1128	1.1214e+02	-4.8993	-18.159037	0.000405	4.054429	1.373678	-0.000162
1129	1.1224e+02	-4.9250	-18.272076	0.000284	2.838100	0.961574	-0.000114
1130	1.1234e+02	-4.9619	-18.433562	0.000405	4.054429	1.373678	-0.000162
1131	1.1244e+02	-5.0245	-18.578899	0.000365	3.648986	1.236310	-0.000146
1132	1.1253e+02	-5.0565	-18.695976	0.000294	2.939461	0.995916	-0.000118
1133	1.1263e+02	-5.0966	-18.861498	0.000416	4.155789	1.408020	-0.000166
1134	1.1273e+02	-5.1496	-19.006835	0.000365	3.648986	1.236310	-0.000146
1135	1.1283e+02	-5.1769	-19.127949	0.000304	3.040821	1.030258	-0.000122
1136	1.1293e+02	-5.2202	-19.245026	0.000294	2.939461	0.995916	-0.000118
1137	1.1303e+02	-5.2442	-19.382289	0.000345	3.446264	1.167626	-0.000138
1138	1.1313e+02	-5.2988	-19.515514	0.000334	3.344904	1.133284	-0.000134
1139	1.1323e+02	-5.3405	-19.681037	0.000416	4.155789	1.408020	-0.000166
1140	1.1333e+02	-5.3710	-19.802151	0.000304	3.040821	1.030258	-0.000122
1141	1.1343e+02	-5.4111	-19.963636	0.000405	4.054429	1.373678	-0.000162
1142	1.1353e+02	-5.4528	-20.177604	0.000537	5.372118	1.820123	-0.000215
1143	1.1363e+02	-5.4945	-20.322941	0.000365	3.648986	1.236310	-0.000146
1144	1.1373e+02	-5.5394	-20.476352	0.000385	3.851707	1.304994	-0.000154
1145	1.1383e+02	-5.5779	-20.605541	0.000324	3.243543	1.098942	-0.000130
1146	1.1393e+02	-5.6132	-20.750878	0.000365	3.648986	1.236310	-0.000146
1147	1.1403e+02	-5.6613	-20.904289	0.000385	3.851707	1.304994	-0.000154
1148	1.1413e+02	-5.6902	-21.041551	0.000345	3.446264	1.167626	-0.000138
1149	1.1423e+02	-5.7399	-21.199000	0.000395	3.953068	1.339336	-0.000158
1150	1.1433e+02	-5.7720	-21.340300	0.000355	3.547625	1.201968	-0.000142
1151	1.1442e+02	-5.8025	-21.497748	0.000395	3.953068	1.339336	-0.000158
1152	1.1452e+02	-5.8522	-21.610788	0.000284	2.838100	0.961574	-0.000114
1153	1.1462e+02	-5.8827	-21.727865	0.000294	2.939461	0.995916	-0.000118
1154	1.1472e+02	-5.9373	-21.853016	0.000314	3.142182	1.064600	-0.000126
1155	1.1482e+02	-5.9694	-22.018538	0.000416	4.155789	1.408020	-0.000166
1156	1.1492e+02	-6.0062	-22.107355	0.000223	2.229936	0.755523	-0.000089
1157	1.1502e+02	-6.0592	-22.297101	0.000476	4.763954	1.614071	-0.000191
1158	1.1512e+02	-6.0881	-22.418215	0.000304	3.040821	1.030258	-0.000122
1159	1.1522e+02	-6.1250	-22.603923	0.000466	4.662593	1.579729	-0.000187
1160	1.1532e+02	-6.1699	-22.749260	0.000365	3.648986	1.236310	-0.000146
1161	1.1542e+02	-6.2052	-22.926894	0.000446	4.459871	1.511045	-0.000179
1162	1.1552e+02	-6.2421	-23.039934	0.000284	2.838100	0.961574	-0.000114
1163	1.1562e+02	-6.2870	-23.213530	0.000436	4.358511	1.476703	-0.000174
1164	1.1572e+02	-6.3303	-23.383090	0.000426	4.257150	1.442361	-0.000170
1165	1.1582e+02	-6.3704	-23.484019	0.000253	2.534018	0.858548	-0.000101
1166	1.1592e+02	-6.4105	-23.665690	0.000456	4.561232	1.545387	-0.000183
1167	1.1602e+02	-6.4474	-23.786804	0.000304	3.040821	1.030258	-0.000122
1168	1.1612e+02	-6.4859	-23.895806	0.000274	2.736739	0.927232	-0.000110
1169	1.1622e+02	-6.5308	-23.996735	0.000253	2.534018	0.858548	-0.000101
1170	1.1632e+02	-6.5645	-24.174369	0.000446	4.459871	1.511045	-0.000179
1171	1.1642e+02	-6.6046	-24.275297	0.000253	2.534018	0.858548	-0.000101
1172	1.1651e+02	-6.6431	-24.436783	0.000405	4.054429	1.373678	-0.000162
1173	1.1661e+02	-6.6832	-24.545785	0.000274	2.736739	0.927232	-0.000110
1174	1.1671e+02	-6.7217	-24.683048	0.000345	3.446264	1.167626	-0.000138
1175	1.1681e+02	-6.7715	-24.876830	0.000487	4.865314	1.648413	-0.000195
1176	1.1691e+02	-6.8116	-24.989870	0.000284	2.838100	0.961574	-0.000114
1177	1.1701e+02	-6.8517	-25.187690	0.000497	4.966675	1.682755	-0.000199
1178	1.1711e+02	-6.8854	-25.276507	0.000223	2.229936	0.755523	-0.000089
1179	1.1721e+02	-6.9255	-25.478364	0.000507	5.068036	1.717097	-0.000203
1180	1.1731e+02	-6.9576	-25.647923	0.000426	4.257150	1.442361	-0.000170
1181	1.1741e+02	-6.9993	-25.740777	0.000233	2.331296	0.789865	-0.000093
1182	1.1751e+02	-7.0394	-25.898226	0.000395	3.953068	1.339336	-0.000158
1183	1.1761e+02	-7.0859	-26.031451	0.000334	3.344904	1.133284	-0.000134
1184	1.1771e+02	-7.1340	-26.180825	0.000375	3.750346	1.270652	-0.000150
1185	1.1781e+02	-7.1581	-26.338274	0.000395	3.953068	1.339336	-0.000158
1186	1.1791e+02	-7.2094	-26.467462	0.000324	3.243543	1.098942	-0.000130
1187	1.1801e+02	-7.2415	-26.592613	0.000314	3.142182	1.064600	-0.000126
1188	1.1811e+02	-7.2977	-26.713727	0.000304	3.040821	1.030258	-0.000122
1189	1.1821e+02	-7.3329	-26.859064	0.000365	3.648986	1.236310	-0.000146
1190	1.1831e+02	-7.3602	-26.984215	0.000314	3.142182	1.064600	-0.000126
1191	1.1841e+02	-7.4067	-27.109366	0.000314	3.142182	1.064600	-0.000126
1192	1.1850e+02	-7.4404	-27.274889	0.000416	4.155789	1.408020	-0.000166
1193	1.1860e+02	-7.4870	-27.436374	0.000405	4.054429	1.373678	-0.000162
1194	1.1870e+02	-7.5174	-27.549414	0.000284	2.838100	0.961574	-0.000114
1195	1.1880e+02	-7.5656	-27.735123	0.000466	4.662593	1.579729	-0.000187
1196	1.1890e+02	-7.5960	-27.864311	0.000324	3.243543	1.098942	-0.000130
1197	1.1900e+02	-7.6410	-28.033871	0.000426	4.257150	1.442361	-0.000170
1198	1.1910e+02	-7.6827	-28.159022	0.000314	3.142182	1.064600	-0.000126
1199	1.1920e+02	-7.7180	-28.308396	0.000375	3.750346	1.270652	-0.000150
1200	1.1930e+02	-7.7549	-28.437584	0.000324	3.243543	1.098942	-0.000130
1201	1.1940e+02	-7.8014	-28.586958	0.000375	3.750346	1.270652	-0.000150
1202	1.1950e+02	-7.8495	-28.736332	0.000375	3.750346	1.270652	-0.000150
1203	1.1960e+02	-7.8832	-28.893780	0.000395	3.953068	1.339336	-0.000158
1204	1.1970e+02	-7.9217	-29.006820	0.000284	2.838100	0.961574	-0.000114
1205	1.1980e+02	-7.9634	-29.140046	0.000334	3.344904	1.133284	-0.000134
1206	1.1990e+02	-8.0035	-29.281346	0.000355	3.547625	1.201968	-0.000142
1207	1.2000e+02	-8.0436	-29.402460	0.000304	3.040821	1.030258	-0.000122
1208	1.2010e+02	-8.0869	-29.527611	0.000314	3.142182	1.064600	-0.000126
1209	1.2020e+02	-8.1254	-29.644688	0.000294	2.939461	0.995916	-0.000118
1210	1.2030e+02	-8.1575	-29.834433	0.000476	4.763954	1.614071	-0.000191
1211	1.2039e+02	-8.1976	-29.959584	0.000314	3.142182	1.064600	-0.000126
1212	1.2049e+02	-8.2393	-30.133181	0.000436	4.358511	1.476703	-0.000174
1213	1.2059e+02	-8.2827	-30.278518	0.000365	3.648986	1.236310	-0.000146
1214	1.2069e+02	-8.3276	-30.403669	0.000314	3.142182	1.064600	-0.000126
1215	1.2079e+02	-8.3548	-30.581303	0.000446	4.459871	1.511045	-0.000179
1216	1.2089e+02	-8.4062	-30.698380	0.000294	2.939461	0.995916	-0.000118
1217	1.2099e+02	-8.4463	-30.843717	0.000365	3.648986	1.236310	-0.000146
1218	1.2109e+02	-8.4720	-30.956757	0.000284	2.838100	0.961574	-0.000114
1219	1.2119e+02	-8.5201	-31.106131	0.000375	3.750346	1.270652	-0.000150
1220	1.2129e+02	-8.5522	-31.287802	0.000456	4.561232	1.545387	-0.000183
1221	1.2139e+02	-8.5971	-31.388730	0.000253	2.534018	0.858548	-0.000101
1222	1.2149e+02	-8.6388	-31.530030	0.000355	3.547625	1.201968	-0.000142
1223	1.2159e+02	-8.6901	-31.655181	0.000314	3.142182	1.064600	-0.000126
1224	1.2169e+02	-8.7238	-31.764184	0.000274	2.736739	0.927232	-0.000110
1225	1.2179e+02	-8.7655	-31.901447	0.000345	3.446264	1.167626	-0.000138
1226	1.2189e+02	-8.8024	-32.010449	0.000274	2.736739	0.927232	-0.000110
1227	1.2199e+02	-8.8281	-32.171935	0.000405	4.054429	1.373678	-0.000162
1228	1.2209e+02	-8.8746	-32.341494	0.000426	4.257150	1.442361	-0.000170
1229	1.2219e+02	-8.9179	-32.494906	0.000385	3.851707	1.304994	-0.000154
1230	1.2229e+02	-8.9532	-32.644280	0.000375	3.750346	1.270652	-0.000150
1231	1.2239e+02	-8.9965	-32.745208	0.000253	2.534018	0.858548	-0.000101
1232	1.2248e+02	-9.0350	-32.894582	0.000375	3.750346	1.270652	-0.000150
1233	1.2258e+02	-9.0767	-33.084327	0.000476	4.763954	1.614071	-0.000191
1234	1.2268e+02	-9.1136	-33.148922	0.000162	1.621771	0.549471	-0.000065
1235	1.2278e+02	-9.1586	-33.338667	0.000476	4.763954	1.614071	-0.000191
1236	1.2288e+02	-9.2067	-33.459781	0.000304	3.040821	1.030258	-0.000122
1237	1.2298e+02	-9.2420	-33.601081	0.000355	3.547625	1.201968	-0.000142
1238	1.2308e+02	-9.2741	-33.726232	0.000314	3.142182	1.064600	-0.000126
1239	1.2318e+02	-9.3190	-33.851383	0.000314	3.142182	1.064600	-0.000126
1240	1.2328e+02	-9.3591	-33.988646	0.000345	3.446264	1.167626	-0.000138
1241	1.2338e+02	-9.3992	-34.138020	0.000375	3.750346	1.270652	-0.000150
1242	1.2348e+02	-9.4377	-34.267208	0.000324	3.243543	1.098942	-0.000130
1243	1.2358e+02	-9.4746	-34.404471	0.000345	3.446264	1.167626	-0.000138
1244	1.2368e+02	-9.5115	-34.513473	0.000274	2.736739	0.927232	-0.000110
1245	1.2378e+02	-9.5532	-34.642662	0.000324	3.243543	1.098942	-0.000130
1246	1.2388e+02	-9.5949	-34.767813	0.000314	3.142182	1.064600	-0.000126
1247	1.2398e+02	-9.6302	-34.957558	0.000476	4.763954	1.614071	-0.000191
1248	1.2408e+02	-9.6735	-35.098858	0.000355	3.547625	1.201968	-0.000142
1249	1.2418e+02	-9.7120	-35.240158	0.000355	3.547625	1.201968	-0.000142
1250	1.2428e+02	-9.7537	-35.413755	0.000436	4.358511	1.476703	-0.000174
1251	1.2438e+02	-9.8035	-35.551017	0.000345	3.446264	1.167626	-0.000138
1252	1.2447e+02	-9.8372	-35.680206	0.000324	3.243543	1.098942	-0.000130
1253	1.2457e+02	-9.8837	-35.797283	0.000294	2.939461	0.995916	-0.000118
1254	1.2467e+02	-9.9158	-35.958768	0.000405	4.054429	1.373678	-0.000162
1255	1.2477e+02	-9.9575	-36.079882	0.000304	3.040821	1.030258	-0.000122
1256	1.2487e+02	-9.9863	-36.205033	0.000314	3.142182	1.064600	-0.000126
1257	1.2497e+02	-10.0265	-36.374593	0.000426	4.257150	1.442361	-0.000170
1258	1.2507e+02	-10.0794	-36.487633	0.000284	2.838100	0.961574	-0.000114
1259	1.2517e+02	-10.1099	-36.596635	0.000274	2.736739	0.927232	-0.000110
1260	1.2527e+02	-10.1628	-36.802529	0.000517	5.169396	1.751439	-0.000207
1261	1.2537e+02	-10.2013	-36.859049	0.000142	1.419050	0.480787	-0.000057
1262	1.2547e+02	-10.2366	-36.984200	0.000314	3.142182	1.064600	-0.000126
1263	1.2557e+02	-10.2799	-37.153760	0.000426	4.257150	1.442361	-0.000170
1264	1.2567e+02	-10.3216	-37.315246	0.000405	4.054429	1.373678	-0.000162
1265	1.2577e+02	-10.3521	-37.420211	0.000264	2.635379	0.892890	-0.000105
1266	1.2587e+02	-10.3922	-37.593808	0.000436	4.358511	1.476703	-0.000174
1267	1.2597e+02	-10.4387	-37.714922	0.000304	3.040821	1.030258	-0.000122
1268	1.2607e+02	-10.4756	-37.848148	0.000334	3.344904	1.133284	-0.000134
1269	1.2617e+02	-10.5190	-37.993484	0.000365	3.648986	1.236310	-0.000146
1270	1.2627e+02	-10.5398	-38.118636	0.000314	3.142182	1.064600	-0.000126
1271	1.2636e+02	-10.5783	-38.251861	0.000334	3.344904	1.133284	-0.000134
1272	1.2646e+02	-10.6313	-38.409309	0.000395	3.953068	1.339336	-0.000158
1273	1.2656e+02	-10.6762	-38.498126	0.000223	2.229936	0.755523	-0.000089
1274	1.2666e+02	-10.7083	-38.651538	0.000385	3.851707	1.304994	-0.000154
1275	1.2676e+02	-10.7484	-38.813023	0.000405	4.054429	1.373678	-0.000162
1276	1.2686e+02	-10.7933	-38.970471	0.000395	3.953068	1.339336	-0.000158
1277	1.2696e+02	-10.8382	-39.067363	0.000243	2.432657	0.824207	-0.000097
1278	1.2706e+02	-10.8767	-39.244997	0.000446	4.459871	1.511045	-0.000179
1279	1.2716e+02	-10.9152	-39.370148	0.000314	3.142182	1.064600	-0.000126
1280	1.2726e+02	-10.9457	-39.475113	0.000264	2.635379	0.892890	-0.000105
1281	1.2736e+02	-11.0034	-39.580079	0.000264	2.635379	0.892890	-0.000105
1282	1.2746e+02	-11.0275	-39.781936	0.000507	5.068036	1.717097	-0.000203
1283	1.2756e+02	-11.0660	-39.874790	0.000233	2.331296	0.789865	-0.000093
1284	1.2766e+02	-11.1061	-40.024164	0.000375	3.750346	1.270652	-0.000150
1285	1.2776e+02	-11.1494	-40.161426	0.000345	3.446264	1.167626	-0.000138
1286	1.2786e+02	-11.1847	-40.290615	0.000324	3.243543	1.098942	-0.000130
1287	1.2796e+02	-11.2264	-40.423840	0.000334	3.344904	1.133284	-0.000134
1288	1.2806e+02	-11.2681	-40.581288	0.000395	3.953068	1.339336	-0.000158
1289	1.2816e+02	-11.3130	-40.698365	0.000294	2.939461	0.995916	-0.000118
1290	1.2826e+02	-11.3419	-40.855814	0.000395	3.953068	1.339336	-0.000158
1291	1.2835e+02	-11.3820	-40.997113	0.000355	3.547625	1.201968	-0.000142
1292	1.2845e+02	-11.4286	-41.102079	0.000264	2.635379	0.892890	-0.000105
1293	1.2855e+02	-11.4767	-41.231267	0.000324	3.243543	1.098942	-0.000130
1294	1.2865e+02	-11.5088	-41.376604	0.000365	3.648986	1.236310	-0.000146
1295	1.2875e+02	-11.5521	-41.521941	0.000365	3.648986	1.236310	-0.000146
1296	1.2885e+02	-11.6002	-41.614795	0.000233	2.331296	0.789865	-0.000093
1297	1.2895e+02	-11.6227	-41.784355	0.000426	4.257150	1.442361	-0.000170
1298	1.2905e+02	-11.6708	-41.909506	0.000314	3.142182	1.064600	-0.000126
1299	1.2915e+02	-11.7045	-41.998323	0.000223	2.229936	0.755523	-0.000089
1300	1.2925e+02	-11.7398	-42.111363	0.000284	2.838100	0.961574	-0.000114
1301	1.2935e+02	-11.7831	-42.309183	0.000497	4.966675	1.682755	-0.000199
1302	1.2945e+02	-11.8296	-42.442408	0.000334	3.344904	1.133284	-0.000134
1303	1.2955e+02	-11.8697	-42.607931	0.000416	4.155789	1.408020	-0.000166
1304	1.2965e+02	-11.9066	-42.700785	0.000233	2.331296	0.789865	-0.000093
1305	1.2975e+02	-11.9547	-42.854196	0.000385	3.851707	1.304994	-0.000154
1306	1.2985e+02	-11.9804	-42.995496	0.000355	3.547625	1.201968	-0.000142
1307	1.2995e+02	-12.0237	-43.108535	0.000284	2.838100	0.961574	-0.000114
1308	1.3005e+02	-12.0719	-43.237724	0.000324	3.243543	1.098942	-0.000130
1309	1.3015e+02	-12.1152	-43.383061	0.000365	3.648986	1.236310	-0.000146
1310	1.3025e+02	-12.1456	-43.520323	0.000345	3.446264	1.167626	-0.000138
1311	1.3034e+02	-12.1890	-43.645474	0.000314	3.142182	1.064600	-0.000126
1312	1.3044e+02	-12.2339	-43.802923	0.000395	3.953068	1.339336	-0.000158
1313	1.3054e+02	-12.2660	-43.948260	0.000365	3.648986	1.236310	-0.000146
1314	1.3064e+02	-12.3013	-44.041114	0.000233	2.331296	0.789865	-0.000093
1315	1.3074e+02	-12.3526	-44.190488	0.000375	3.750346	1.270652	-0.000150
1316	1.3084e+02	-12.3783	-44.331788	0.000355	3.547625	1.201968	-0.000142
1317	1.3094e+02	-12.4264	-44.465013	0.000334	3.344904	1.133284	-0.000134
1318	1.3104e+02	-12.4633	-44.602276	0.000345	3.446264	1.167626	-0.000138
1319	1.3114e+02	-12.5034	-44.683018	0.000203	2.027214	0.686839	-0.000081
1320	1.3124e+02	-12.5483	-44.872764	0.000476	4.763954	1.614071	-0.000191
1321	1.3134e+02	-12.5852	-44.981766	0.000274	2.736739	0.927232	-0.000110
1322	1.3144e+02	-12.6237	-45.114992	0.000334	3.344904	1.133284	-0.000134
1323	1.3154e+02	-12.6606	-45.280514	0.000416	4.155789	1.408020	-0.000166
1324	1.3164e+02	-12.6975	-45.349146	0.000172	1.723132	0.583813	-0.000069
1325	1.3174e+02	-12.7392	-45.514668	0.000416	4.155789	1.408020	-0.000166
1326	1.3184e+02	-12.7857	-45.668079	0.000385	3.851707	1.304994	-0.000154
1327	1.3194e+02	-12.8226	-45.764971	0.000243	2.432657	0.824207	-0.000097
1328	1.3204e+02	-12.8579	-45.914345	0.000375	3.750346	1.270652	-0.000150
1329	1.3214e+02	-12.9012	-46.063719	0.000375	3.750346	1.270652	-0.000150
1330	1.3224e+02	-12.9430	-46.221167	0.000395	3.953068	1.339336	-0.000158
1331	1.3234e+02	-12.9847	-46.309984	0.000223	2.229936	0.755523	-0.000089
1332	1.3243e+02	-13.0232	-46.443210	0.000334	3.344904	1.133284	-0.000134
1333	1.3253e+02	-13.0681	-46.588546	0.000365	3.648986	1.236310	-0.000146
1334	1.3263e+02	-13.1050	-46.717735	0.000324	3.243543	1.098942	-0.000130
1335	1.3273e+02	-13.1355	-46.859035	0.000355	3.547625	1.201968	-0.000142
1336	1.3283e+02	-13.1756	-47.004371	0.000365	3.648986	1.236310	-0.000146
1337	1.3293e+02	-13.2221	-47.073003	0.000172	1.723132	0.583813	-0.000069
1338	1.3303e+02	-13.2622	-47.230451	0.000395	3.953068	1.339336	-0.000158
1339	1.3313e+02	-13.3007	-47.359639	0.000324	3.243543	1.098942	-0.000130
1340	1.3323e+02	-13.3328	-47.472679	0.000284	2.838100	0.961574	-0.000114
1341	1.3333e+02	-13.3617	-47.634165	0.000405	4.054429	1.373678	-0.000162
1342	1.3343e+02	-13.4194	-47.783539	0.000375	3.750346	1.270652	-0.000150
1343	1.3353e+02	-13.4547	-47.912727	0.000324	3.243543	1.098942	-0.000130
1344	1.3363e+02	-13.4916	-47.997507	0.000213	2.128575	0.721181	-0.000085
1345	1.3373e+02	-13.5365	-48.154955	0.000395	3.953068	1.339336	-0.000158
1346	1.3383e+02	-13.5766	-48.263958	0.000274	2.736739	0.927232	-0.000110
1347	1.3393e+02	-13.6167	-48.437555	0.000436	4.358511	1.476703	-0.000174
1348	1.3403e+02	-13.6584	-48.514260	0.000193	1.925854	0.652497	-0.000077
1349	1.3413e+02	-13.7018	-48.663634	0.000375	3.750346	1.270652	-0.000150
1350	1.3423e+02	-13.7338	-48.804934	0.000355	3.547625	1.201968	-0.000142
1351	1.3432e+02	-13.7755	-48.942197	0.000345	3.446264	1.167626	-0.000138
1352	1.3442e+02	-13.8221	-49.087533	0.000365	3.648986	1.236310	-0.000146
1353	1.3452e+02	-13.8526	-49.273242	0.000466	4.662593	1.579729	-0.000187
1354	1.3462e+02	-13.8943	-49.329762	0.000142	1.419050	0.480787	-0.000057
1355	1.3472e+02	-13.9376	-49.511433	0.000456	4.561232	1.545387	-0.000183
1356	1.3482e+02	-13.9745	-49.604287	0.000233	2.331296	0.789865	-0.000093
1357	1.3492e+02	-14.0162	-49.680992	0.000193	1.925854	0.652497	-0.000077
1358	1.3502e+02	-14.0531	-49.854589	0.000436	4.358511	1.476703	-0.000174
1359	1.3512e+02	-14.0932	-50.060483	0.000517	5.169396	1.751439	-0.000207
1360	1.3522e+02	-14.1365	-50.112966	0.000132	1.317689	0.446445	-0.000053
1361	1.3532e+02	-14.1814	-50.254266	0.000355	3.547625	1.201968	-0.000142
1362	1.3542e+02	-14.2215	-50.379417	0.000314	3.142182	1.064600	-0.000126
1363	1.3552e+02	-14.2568	-50.512642	0.000334	3.344904	1.133284	-0.000134
1364	1.3562e+02	-14.3065	-50.666054	0.000385	3.851707	1.304994	-0.000154
1365	1.3572e+02	-14.3402	-50.795242	0.000324	3.243543	1.098942	-0.000130
1366	1.3582e+02	-14.3787	-50.908282	0.000284	2.838100	0.961574	-0.000114
1367	1.3592e+02	-14.4092	-51.057656	0.000375	3.750346	1.270652	-0.000150
1368	1.3602e+02	-14.4493	-51.162621	0.000264	2.635379	0.892890	-0.000105
1369	1.3612e+02	-14.4975	-51.291810	0.000324	3.243543	1.098942	-0.000130
1370	1.3622e+02	-14.5343	-51.441184	0.000375	3.750346	1.270652	-0.000150
1371	1.3631e+02	-14.5729	-51.594595	0.000385	3.851707	1.304994	-0.000154
1372	1.3641e+02	-14.6194	-51.715709	0.000304	3.040821	1.030258	-0.000122
1373	1.3651e+02	-14.6515	-51.804526	0.000223	2.229936	0.755523	-0.000089
1374	1.3661e+02	-14.6900	-51.929677	0.000314	3.142182	1.064600	-0.000126
1375	1.3671e+02	-14.7317	-52.083088	0.000385	3.851707	1.304994	-0.000154
1376	1.3681e+02	-14.7702	-52.204202	0.000304	3.040821	1.030258	-0.000122
1377	1.3691e+02	-14.8167	-52.365688	0.000405	4.054429	1.373678	-0.000162
1378	1.3701e+02	-14.8520	-52.458542	0.000233	2.331296	0.789865	-0.000093
1379	1.3711e+02	-14.8921	-52.579656	0.000304	3.040821	1.030258	-0.000122
1380	1.3721e+02	-14.9354	-52.753253	0.000436	4.358511	1.476703	-0.000174
1381	1.3731e+02	-14.9723	-52.874367	0.000304	3.040821	1.030258	-0.000122
1382	1.3741e+02	-15.0108	-53.003555	0.000324	3.243543	1.098942	-0.000130
1383	1.3751e+02	-15.0573	-53.104483	0.000253	2.534018	0.858548	-0.000101
1384	1.3761e+02	-15.0958	-53.265969	0.000405	4.054429	1.373678	-0.000162
1385	1.3771e+02	-15.1391	-53.362860	0.000243	2.432657	0.824207	-0.000097
1386	1.3781e+02	-15.1696	-53.488011	0.000314	3.142182	1.064600	-0.000126
1387	1.3791e+02	-15.2129	-53.677757	0.000476	4.763954	1.614071	-0.000191
1388	1.3801e+02	-15.2498	-53.758499	0.000203	2.027214	0.686839	-0.000081
1389	1.3811e+02	-15.2867	-53.911911	0.000385	3.851707	1.304994	-0.000154
1390	1.3821e+02	-15.3317	-54.024950	0.000284	2.838100	0.961574	-0.000114
1391	1.3831e+02	-15.3686	-54.182399	0.000395	3.953068	1.339336	-0.000158
1392	1.3840e+02	-15.4087	-54.299476	0.000294	2.939461	0.995916	-0.000118
1393	1.3850e+02	-15.4552	-54.384256	0.000213	2.128575	0.721181	-0.000085
1394	1.3860e+02	-15.4841	-54.521518	0.000345	3.446264	1.167626	-0.000138
1395	1.3870e+02	-15.5370	-54.674929	0.000385	3.851707	1.304994	-0.000154
1396	1.3880e+02	-15.5755	-54.759709	0.000213	2.128575	0.721181	-0.000085
1397	1.3890e+02	-15.6140	-54.933306	0.000436	4.358511	1.476703	-0.000174
1398	1.3900e+02	-15.6477	-55.094791	0.000405	4.054429	1.373678	-0.000162
1399	1.3910e+02	-15.6910	-55.195720	0.000253	2.534018	0.858548	-0.000101
1400	1.3920e+02	-15.7327	-55.284537	0.000223	2.229936	0.755523	-0.000089
1401	1.3930e+02	-15.7728	-55.425837	0.000355	3.547625	1.201968	-0.000142
1402	1.3940e+02	-15.8161	-55.550988	0.000314	3.142182	1.064600	-0.000126
1403	1.3950e+02	-15.8530	-55.676139	0.000314	3.142182	1.064600	-0.000126
1404	1.3960e+02	-15.8996	-55.837624	0.000405	4.054429	1.373678	-0.000162
1405	1.3970e+02	-15.9236	-55.970850	0.000334	3.344904	1.133284	-0.000134
1406	1.3980e+02	-15.9685	-56.116187	0.000365	3.648986	1.236310	-0.000146
1407	1.3990e+02	-16.0135	-56.229227	0.000284	2.838100	0.961574	-0.000114
1408	1.4000e+02	-16.0520	-56.358415	0.000324	3.243543	1.098942	-0.000130
1409	1.4010e+02	-16.0905	-56.455306	0.000243	2.432657	0.824207	-0.000097
1410	1.4020e+02	-16.1290	-56.596606	0.000355	3.547625	1.201968	-0.000142
1411	1.4029e+02	-16.1707	-56.741943	0.000365	3.648986	1.236310	-0.000146
1412	1.4039e+02	-16.2108	-56.798463	0.000142	1.419050	0.480787	-0.000057
1413	1.4049e+02	-16.2477	-56.947837	0.000375	3.750346	1.270652	-0.000150
1414	1.4059e+02	-16.2894	-57.085099	0.000345	3.446264	1.167626	-0.000138
1415	1.4069e+02	-16.3295	-57.206213	0.000304	3.040821	1.030258	-0.000122
1416	1.4079e+02	-16.3680	-57.339439	0.000334	3.344904	1.133284	-0.000134
1417	1.4089e+02	-16.4065	-57.440367	0.000253	2.534018	0.858548	-0.000101
1418	1.4099e+02	-16.4466	-57.581667	0.000355	3.547625	1.201968	-0.000142
1419	1.4109e+02	-16.4851	-57.751227	0.000426	4.257150	1.442361	-0.000170
1420	1.4119e+02	-16.5252	-57.860229	0.000274	2.736739	0.927232	-0.000110
1421	1.4129e+02	-16.5685	-57.969232	0.000274	2.736739	0.927232	-0.000110
1422	1.4139e+02	-16.6086	-58.122643	0.000385	3.851707	1.304994	-0.000154
1423	1.4149e+02	-16.6471	-58.255869	0.000334	3.344904	1.133284	-0.000134
1424	1.4159e+02	-16.6792	-58.445614	0.000476	4.763954	1.614071	-0.000191
1425	1.4169e+02	-16.7289	-58.510208	0.000162	1.621771	0.549471	-0.000065
1426	1.4179e+02	-16.7658	-58.639397	0.000324	3.243543	1.098942	-0.000130
1427	1.4189e+02	-16.8011	-58.712065	0.000182	1.824493	0.618155	-0.000073
1428	1.4199e+02	-16.8428	-58.845291	0.000334	3.344904	1.133284	-0.000134
1429	1.4209e+02	-16.8701	-58.970442	0.000314	3.142182	1.064600	-0.000126
1430	1.4219e+02	-16.9279	-59.123853	0.000385	3.851707	1.304994	-0.000154
1431	1.4228e+02	-16.9696	-59.269190	0.000365	3.648986	1.236310	-0.000146
1432	1.4238e+02	-17.0049	-59.402415	0.000334	3.344904	1.133284	-0.000134
1433	1.4248e+02	-17.0514	-59.511418	0.000274	2.736739	0.927232	-0.000110
1434	1.4258e+02	-17.0851	-59.616383	0.000264	2.635379	0.892890	-0.000105
1435	1.4268e+02	-17.1300	-59.729423	0.000284	2.838100	0.961574	-0.000114
1436	1.4278e+02	-17.1765	-59.890909	0.000405	4.054429	1.373678	-0.000162
1437	1.4288e+02	-17.2182	-59.995874	0.000264	2.635379	0.892890	-0.000105
1438	1.4298e+02	-17.2535	-60.161397	0.000416	4.155789	1.408020	-0.000166
1439	1.4308e+02	-17.2872	-60.262325	0.000253	2.534018	0.858548	-0.000101
1440	1.4318e+02	-17.3177	-60.399588	0.000345	3.446264	1.167626	-0.000138
1441	1.4328e+02	-17.3530	-60.552999	0.000385	3.851707	1.304994	-0.000154
1442	1.4338e+02	-17.4043	-60.682187	0.000324	3.243543	1.098942	-0.000130
1443	1.4348e+02	-17.4396	-60.787153	0.000264	2.635379	0.892890	-0.000105
1444	1.4358e+02	-17.4845	-60.908267	0.000304	3.040821	1.030258	-0.000122
1445	1.4368e+02	-17.5214	-61.041492	0.000334	3.344904	1.133284	-0.000134
1446	1.4378e+02	-17.5647	-61.182792	0.000355	3.547625	1.201968	-0.000142
1447	1.4388e+02	-17.6032	-61.332166	0.000375	3.750346	1.270652	-0.000150
1448	1.4398e+02	-17.6450	-61.408872	0.000193	1.925854	0.652497	-0.000077
1449	1.4408e+02	-17.6947	-61.546134	0.000345	3.446264	1.167626	-0.000138
1450	1.4418e+02	-17.7236	-61.651100	0.000264	2.635379	0.892890	-0.000105
1451	1.4428e+02	-17.7701	-61.796437	0.000365	3.648986	1.236310	-0.000146
1452	1.4437e+02	-17.8070	-61.941774	0.000365	3.648986	1.236310	-0.000146
1453	1.4447e+02	-17.8407	-62.050776	0.000274	2.736739	0.927232	-0.000110
1454	1.4457e+02	-17.8872	-62.188039	0.000345	3.446264	1.167626	-0.000138
1455	1.4467e+02	-17.9305	-62.313190	0.000314	3.142182	1.064600	-0.000126
1456	1.4477e+02	-17.9706	-62.406044	0.000233	2.331296	0.789865	-0.000093
1457	1.4487e+02	-18.0059	-62.567530	0.000405	4.054429	1.373678	-0.000162
1458	1.4497e+02	-18.0460	-62.692681	0.000314	3.142182	1.064600	-0.000126
1459	1.4507e+02	-18.0845	-62.866278	0.000436	4.358511	1.476703	-0.000174
1460	1.4517e+02	-18.1214	-62.951058	0.000213	2.128575	0.721181	-0.000085
1461	1.4527e+02	-18.1551	-63.096394	0.000365	3.648986	1.236310	-0.000146
1462	1.4537e+02	-18.2000	-63.140803	0.000111	1.114968	0.377761	-0.000045
1463	1.4547e+02	-18.2449	-63.294214	0.000385	3.851707	1.304994	-0.000154
1464	1.4557e+02	-18.2754	-63.439551	0.000365	3.648986	1.236310	-0.000146
1465	1.4567e+02	-18.3219	-63.564702	0.000314	3.142182	1.064600	-0.000126
1466	1.4577e+02	-18.3653	-63.706002	0.000355	3.547625	1.201968	-0.000142
1467	1.4587e+02	-18.4006	-63.839227	0.000334	3.344904	1.133284	-0.000134
1468	1.4597e+02	-18.4407	-63.964379	0.000314	3.142182	1.064600	-0.000126
1469	1.4607e+02	-18.4743	-64.109716	0.000365	3.648986	1.236310	-0.000146
1470	1.4617e+02	-18.5177	-64.210644	0.000253	2.534018	0.858548	-0.000101
1471	1.4626e+02	-18.5578	-64.323684	0.000284	2.838100	0.961574	-0.000114
1472	1.4636e+02	-18.6027	-64.513429	0.000476	4.763954	1.614071	-0.000191
1473	1.4646e+02	-18.6460	-64.614357	0.000253	2.534018	0.858548	-0.000101
1474	1.4656e+02	-18.6797	-64.711249	0.000243	2.432657	0.824207	-0.000097
1475	1.4666e+02	-18.7262	-64.888883	0.000446	4.459871	1.511045	-0.000179
1476	1.4676e+02	-18.7487	-65.018071	0.000324	3.243543	1.098942	-0.000130
1477	1.4686e+02	-18.7952	-65.151297	0.000334	3.344904	1.133284	-0.000134
1478	1.4696e+02	-18.8353	-65.292596	0.000355	3.547625	1.201968	-0.000142
1479	1.4706e+02	-18.8802	-65.425822	0.000334	3.344904	1.133284	-0.000134
1480	1.4716e+02	-18.9219	-65.530787	0.000264	2.635379	0.892890	-0.000105
1481	1.4726e+02	-18.9588	-65.668050	0.000345	3.446264	1.167626	-0.000138
1482	1.4736e+02	-18.9989	-65.789164	0.000304	3.040821	1.030258	-0.000122
1483	1.4746e+02	-19.0406	-65.898167	0.000274	2.736739	0.927232	-0.000110
1484	1.4756e+02	-19.0791	-66.027355	0.000324	3.243543	1.098942	-0.000130
1485	1.4766e+02	-19.1144	-66.192878	0.000416	4.155789	1.408020	-0.000166
1486	1.4776e+02	-19.1497	-66.330140	0.000345	3.446264	1.167626	-0.000138
1487	1.4786e+02	-19.1979	-66.475477	0.000365	3.648986	1.236310	-0.000146
1488	1.4796e+02	-19.2412	-66.584480	0.000274	2.736739	0.927232	-0.000110
1489	1.4806e+02	-19.2877	-66.766151	0.000456	4.561232	1.545387	-0.000183
1490	1.4816e+02	-19.3198	-66.859005	0.000233	2.331296	0.789865	-0.000093
1491	1.4825e+02	-19.3551	-67.004342	0.000365	3.648986	1.236310	-0.000146
1492	1.4835e+02	-19.3904	-67.153716	0.000375	3.750346	1.270652	-0.000150
1493	1.4845e+02	-19.4369	-67.351536	0.000497	4.966675	1.682755	-0.000199
1494	1.4855e+02	-19.4690	-67.460538	0.000274	2.736739	0.927232	-0.000110
1495	1.4865e+02	-19.5123	-67.613949	0.000385	3.851707	1.304994	-0.000154
1496	1.4875e+02	-19.5508	-67.735063	0.000304	3.040821	1.030258	-0.000122
1497	1.4885e+02	-19.5941	-67.868289	0.000334	3.344904	1.133284	-0.000134
1498	1.4895e+02	-19.6422	-67.997477	0.000324	3.243543	1.098942	-0.000130
1499	1.4905e+02	-19.6679	-68.114554	0.000294	2.939461	0.995916	-0.000118
1500	1.4915e+02	-19.7144	-68.251817	0.000345	3.446264	1.167626	-0.000138
1501	1.4925e+02	-19.7577	-68.393117	0.000355	3.547625	1.201968	-0.000142
1502	1.4935e+02	-19.7898	-68.510193	0.000294	2.939461	0.995916	-0.000118
1503	1.4945e+02	-19.8363	-68.683790	0.000436	4.358511	1.476703	-0.000174
1504	1.4955e+02	-19.8716	-68.804904	0.000304	3.040821	1.030258	-0.000122
1505	1.4965e+02	-19.9101	-68.966390	0.000405	4.054429	1.373678	-0.000162
1506	1.4975e+02	-19.9534	-69.099615	0.000334	3.344904	1.133284	-0.000134
1507	1.4985e+02	-19.9936	-69.257064	0.000395	3.953068	1.339336	-0.000158
1508	1.4995e+02	-19.9551	-69.180358	0.000193	1.925854	0.652497	0.000077
1509	1.5005e+02	-19.9101	-69.115764	0.000162	1.621771	0.549471	0.000065
1510	1.5015e+02	-19.8748	-69.115764	0.000000	0.000000	0.000000	0.000000
1511	1.5025e+02	-19.8283	-69.039058	0.000193	1.925854	0.652497	0.000077
1512	1.5034e+02	-19.7946	-68.962353	0.000193	1.925854	0.652497	0.000077
1513	1.5044e+02	-19.7513	-68.909870	0.000132	1.317689	0.446445	0.000053
1514	1.5054e+02	-19.7048	-68.825090	0.000213	2.128575	0.721181	0.000085
1515	1.5064e+02	-19.6743	-68.728199	0.000243	2.432657	0.824207	0.000097
1516	1.5074e+02	-19.6294	-68.631308	0.000243	2.432657	0.824207	0.000097
1517	1.5084e+02	-19.5925	-68.534416	0.000243	2.432657	0.824207	0.000097
1518	1.5094e+02	-19.5604	-68.465785	0.000172	1.723132	0.583813	0.000069
1519	1.5104e+02	-19.5187	-68.393117	0.000182	1.824493	0.618155	0.000073
1520	1.5114e+02	-19.4770	-68.304300	0.000223	2.229936	0.755523	0.000089
1521	1.5124e+02	-19.4401	-68.223557	0.000203	2.027214	0.686839	0.000081
1522	1.5134e+02	-19.4000	-68.118591	0.000264	2.635379	0.892890	0.000105
1523	1.5144e+02	-19.3503	-68.021700	0.000243	2.432657	0.824207	0.000097
1524	1.5154e+02	-19.3246	-67.940957	0.000203	2.027214	0.686839	0.000081
1525	1.5164e+02	-19.2733	-67.872326	0.000172	1.723132	0.583813	0.000069
1526	1.5174e+02	-19.2444	-67.811769	0.000152	1.520411	0.515129	0.000061
1527	1.5184e+02	-19.1979	-67.678544	0.000334	3.344904	1.133284	0.000134
1528	1.5194e+02	-19.1465	-67.638172	0.000101	1.013607	0.343419	0.000041
1529	1.5204e+02	-19.1064	-67.565504	0.000182	1.824493	0.618155	0.000073
1530	1.5214e+02	-19.0807	-67.480724	0.000213	2.128575	0.721181	0.000085
1531	1.5224e+02	-19.0374	-67.375758	0.000264	2.635379	0.892890	0.000105
1532	1.5233e+02	-18.9973	-67.278867	0.000243	2.432657	0.824207	0.000097
1533	1.5243e+02	-18.9572	-67.097196	0.000456	4.561232	1.545387	0.000183
1534	1.5253e+02	-18.9139	-67.060862	0.000091	0.912246	0.309077	0.000037
1535	1.5263e+02	-18.8770	-66.968008	0.000233	2.331296	0.789865	0.000093
1536	1.5273e+02	-18.8305	-66.842856	0.000314	3.142182	1.064600	0.000126
1537	1.5283e+02	-18.8000	-66.762114	0.000203	2.027214	0.686839	0.000081
1538	1.5293e+02	-18.7567	-66.628888	0.000334	3.344904	1.133284	0.000134
1539	1.5303e+02	-18.7262	-66.544108	0.000213	2.128575	0.721181	0.000085
1540	1.5313e+02	-18.6781	-66.467403	0.000193	1.925854	0.652497	0.000077
1541	1.5323e+02	-18.6460	-66.309954	0.000395	3.953068	1.339336	0.000158
1542	1.5333e+02	-18.6027	-66.245360	0.000162	1.621771	0.549471	0.000065
1543	1.5343e+02	-18.5594	-66.176729	0.000172	1.723132	0.583813	0.000069
1544	1.5353e+02	-18.5177	-66.079838	0.000243	2.432657	0.824207	0.000097
1545	1.5363e+02	-18.4759	-65.982947	0.000243	2.432657	0.824207	0.000097
1546	1.5373e+02	-18.4407	-65.910278	0.000182	1.824493	0.618155	0.000073
1547	1.5383e+02	-18.3989	-65.813387	0.000243	2.432657	0.824207	0.000097
1548	1.5393e+02	-18.3588	-65.773015	0.000101	1.013607	0.343419	0.000041
1549	1.5403e+02	-18.3219	-65.627679	0.000365	3.648986	1.236310	0.000146
1550	1.5413e+02	-18.2818	-65.506564	0.000304	3.040821	1.030258	0.000122
1551	1.5422e+02	-18.2401	-65.324893	0.000456	4.561232	1.545387	0.000183
1552	1.5432e+02	-18.1984	-65.316819	0.000020	0.202721	0.068684	0.000008
1553	1.5442e+02	-18.1631	-65.175519	0.000355	3.547625	1.201968	0.000142
1554	1.5452e+02	-18.1134	-65.078628	0.000243	2.432657	0.824207	0.000097
1555	1.5462e+02	-18.0765	-64.961551	0.000294	2.939461	0.995916	0.000118
1556	1.5472e+02	-18.0460	-64.864660	0.000243	2.432657	0.824207	0.000097
1557	1.5482e+02	-17.9931	-64.759694	0.000264	2.635379	0.892890	0.000105
1558	1.5492e+02	-17.9610	-64.654729	0.000264	2.635379	0.892890	0.000105
1559	1.5502e+02	-17.9113	-64.573986	0.000203	2.027214	0.686839	0.000081
1560	1.5512e+02	-17.8792	-64.448835	0.000314	3.142182	1.064600	0.000126
1561	1.5522e+02	-17.8423	-64.335795	0.000284	2.838100	0.961574	0.000114
1562	1.5532e+02	-17.8070	-64.291387	0.000111	1.114968	0.377761	0.000045
1563	1.5542e+02	-17.7637	-64.158161	0.000334	3.344904	1.133284	0.000134
1564	1.5552e+02	-17.7284	-64.081456	0.000193	1.925854	0.652497	0.000077
1565	1.5562e+02	-17.6819	-63.976490	0.000264	2.635379	0.892890	0.000105
1566	1.5572e+02	-17.6369	-63.851339	0.000314	3.142182	1.064600	0.000126
1567	1.5582e+02	-17.6081	-63.746373	0.000264	2.635379	0.892890	0.000105
1568	1.5592e+02	-17.5583	-63.641408	0.000264	2.635379	0.892890	0.000105
1569	1.5602e+02	-17.5295	-63.524331	0.000294	2.939461	0.995916	0.000118
1570	1.5612e+02	-17.4942	-63.435514	0.000223	2.229936	0.755523	0.000089
1571	1.5622e+02	-17.4476	-63.274028	0.000405	4.054429	1.373678	0.000162
1572	1.5631e+02	-17.4027	-63.193286	0.000203	2.027214	0.686839	0.000081
1573	1.5641e+02	-17.3642	-63.064097	0.000324	3.243543	1.098942	0.000130
1574	1.5651e+02	-17.3289	-62.987392	0.000193	1.925854	0.652497	0.000077
1575	1.5661e+02	-17.2856	-62.906649	0.000203	2.027214	0.686839	0.000081
1576	1.5671e+02	-17.2359	-62.765349	0.000355	3.547625	1.201968	0.000142
1577	1.5681e+02	-17.2102	-62.644235	0.000304	3.040821	1.030258	0.000122
1578	1.5691e+02	-17.1685	-62.547344	0.000243	2.432657	0.824207	0.000097
1579	1.5701e+02	-17.1284	-62.446416	0.000253	2.534018	0.858548	0.000101
1580	1.5711e+02	-17.0851	-62.353561	0.000233	2.331296	0.789865	0.000093
1581	1.5721e+02	-17.0482	-62.293004	0.000152	1.520411	0.515129	0.000061
1582	1.5731e+02	-17.0065	-62.175928	0.000294	2.939461	0.995916	0.000118
1583	1.5741e+02	-16.9648	-62.083073	0.000233	2.331296	0.789865	0.000093
1584	1.5751e+02	-16.9327	-61.994256	0.000223	2.229936	0.755523	0.000089
1585	1.5761e+02	-16.8846	-61.840845	0.000385	3.851707	1.304994	0.000154
1586	1.5771e+02	-16.8380	-61.723768	0.000294	2.939461	0.995916	0.000118
1587	1.5781e+02	-16.8108	-61.554209	0.000426	4.257150	1.442361	0.000170
1588	1.5791e+02	-16.7674	-61.513837	0.000101	1.013607	0.343419	0.000041
1589	1.5801e+02	-16.7321	-61.392723	0.000304	3.040821	1.030258	0.000122
1590	1.5811e+02	-16.6824	-61.263535	0.000324	3.243543	1.098942	0.000130
1591	1.5821e+02	-16.6535	-61.170681	0.000233	2.331296	0.789865	0.000093
1592	1.5830e+02	-16.6102	-61.057641	0.000284	2.838100	0.961574	0.000114
1593	1.5840e+02	-16.5701	-60.916341	0.000355	3.547625	1.201968	0.000142
1594	1.5850e+02	-16.5396	-60.843673	0.000182	1.824493	0.618155	0.000073
1595	1.5860e+02	-16.4915	-60.730633	0.000284	2.838100	0.961574	0.000114
1596	1.5870e+02	-16.4546	-60.657964	0.000182	1.824493	0.618155	0.000073
1597	1.5880e+02	-16.4081	-60.557036	0.000253	2.534018	0.858548	0.000101
1598	1.5890e+02	-16.3632	-60.460145	0.000243	2.432657	0.824207	0.000097
1599	1.5900e+02	-16.3263	-60.326919	0.000334	3.344904	1.133284	0.000134
1600	1.5910e+02	-16.2926	-60.205805	0.000304	3.040821	1.030258	0.000122
1601	1.5920e+02	-16.2541	-60.104877	0.000253	2.534018	0.858548	0.000101
1602	1.5930e+02	-16.2092	-59.963577	0.000355	3.547625	1.201968	0.000142
1603	1.5940e+02	-16.1626	-59.822277	0.000355	3.547625	1.201968	0.000142
1604	1.5950e+02	-16.1225	-59.709238	0.000284	2.838100	0.961574	0.000114
1605	1.5960e+02	-16.0921	-59.636569	0.000182	1.824493	0.618155	0.000073
1606	1.5970e+02	-16.0471	-59.479121	0.000395	3.953068	1.339336	0.000158
1607	1.5980e+02	-16.0102	-59.370118	0.000274	2.736739	0.927232	0.000110
1608	1.5990e+02	-15.9701	-59.253041	0.000294	2.939461	0.995916	0.000118
1609	1.6000e+02	-15.9316	-59.172299	0.000203	2.027214	0.686839	0.000081
1610	1.6010e+02	-15.8883	-59.059259	0.000284	2.838100	0.961574	0.000114
1611	1.6019e+02	-15.8610	-58.990627	0.000172	1.723132	0.583813	0.000069
1612	1.6029e+02	-15.8129	-58.804919	0.000466	4.662593	1.579729	0.000187
1613	1.6039e+02	-15.7600	-58.716102	0.000223	2.229936	0.755523	0.000089
1614	1.6049e+02	-15.7311	-58.623248	0.000233	2.331296	0.789865	0.000093
1615	1.6059e+02	-15.6910	-58.566728	0.000142	1.419050	0.480787	0.000057
1616	1.6069e+02	-15.6493	-58.421391	0.000365	3.648986	1.236310	0.000146
1617	1.6079e+02	-15.6236	-58.316426	0.000264	2.635379	0.892890	0.000105
1618	1.6089e+02	-15.5659	-58.263943	0.000132	1.317689	0.446445	0.000053
1619	1.6099e+02	-15.5354	-58.110532	0.000385	3.851707	1.304994	0.000154
1620	1.6109e+02	-15.4841	-57.945009	0.000416	4.155789	1.408020	0.000166
1621	1.6119e+02	-15.4472	-57.831969	0.000284	2.838100	0.961574	0.000114
1622	1.6129e+02	-15.4119	-57.698744	0.000334	3.344904	1.133284	0.000134
1623	1.6139e+02	-15.3798	-57.597816	0.000253	2.534018	0.858548	0.000101
1624	1.6149e+02	-15.3381	-57.460553	0.000345	3.446264	1.167626	0.000138
1625	1.6159e+02	-15.2883	-57.343476	0.000294	2.939461	0.995916	0.000118
1626	1.6169e+02	-15.2530	-57.198139	0.000365	3.648986	1.236310	0.000146
1627	1.6179e+02	-15.2145	-57.125471	0.000182	1.824493	0.618155	0.000073
1628	1.6189e+02	-15.1776	-57.036654	0.000223	2.229936	0.755523	0.000089
1629	1.6199e+02	-15.1407	-56.923614	0.000284	2.838100	0.961574	0.000114
1630	1.6209e+02	-15.0958	-56.838834	0.000213	2.128575	0.721181	0.000085
1631	1.6219e+02	-15.0461	-56.721757	0.000294	2.939461	0.995916	0.000118
1632	1.6228e+02	-15.0076	-56.624866	0.000243	2.432657	0.824207	0.000097
1633	1.6238e+02	-14.9739	-56.511826	0.000284	2.838100	0.961574	0.000114
1634	1.6248e+02	-14.9274	-56.378601	0.000334	3.344904	1.133284	0.000134
1635	1.6258e+02	-14.8985	-56.289784	0.000223	2.229936	0.755523	0.000089
1636	1.6268e+02	-14.8632	-56.144447	0.000365	3.648986	1.236310	0.000146
1637	1.6278e+02	-14.8103	-56.019296	0.000314	3.142182	1.064600	0.000126
1638	1.6288e+02	-14.7750	-55.914330	0.000264	2.635379	0.892890	0.000105
1639	1.6298e+02	-14.7365	-55.744770	0.000426	4.257150	1.442361	0.000170
1640	1.6308e+02	-14.6964	-55.664028	0.000203	2.027214	0.686839	0.000081
1641	1.6318e+02	-14.6547	-55.555025	0.000274	2.736739	0.927232	0.000110
1642	1.6328e+02	-14.6210	-55.433911	0.000304	3.040821	1.030258	0.000122
1643	1.6338e+02	-14.5729	-55.276463	0.000395	3.953068	1.339336	0.000158
1644	1.6348e+02	-14.5392	-55.219943	0.000142	1.419050	0.480787	0.000057
1645	1.6358e+02	-14.4942	-55.078643	0.000355	3.547625	1.201968	0.000142
1646	1.6368e+02	-14.4557	-54.965603	0.000284	2.838100	0.961574	0.000114
1647	1.6378e+02	-14.4156	-54.852563	0.000284	2.838100	0.961574	0.000114
1648	1.6388e+02	-14.3755	-54.759709	0.000233	2.331296	0.789865	0.000093
1649	1.6398e+02	-14.3386	-54.674929	0.000213	2.128575	0.721181	0.000085
1650	1.6408e+02	-14.2905	-54.557852	0.000294	2.939461	0.995916	0.000118
1651	1.6418e+02	-14.2600	-54.408478	0.000375	3.750346	1.270652	0.000150
1652	1.6427e+02	-14.2135	-54.323698	0.000213	2.128575	0.721181	0.000085
1653	1.6437e+02	-14.1686	-54.198547	0.000314	3.142182	1.064600	0.000126
1654	1.6447e+02	-14.1413	-54.077433	0.000304	3.040821	1.030258	0.000122
1655	1.6457e+02	-14.1012	-53.964393	0.000284	2.838100	0.961574	0.000114
1656	1.6467e+02	-14.0595	-53.802908	0.000405	4.054429	1.373678	0.000162
1657	1.6477e+02	-14.0146	-53.677757	0.000314	3.142182	1.064600	0.000126
1658	1.6487e+02	-13.9729	-53.584903	0.000233	2.331296	0.789865	0.000093
1659	1.6497e+02	-13.9424	-53.403232	0.000456	4.561232	1.545387	0.000183
1660	1.6507e+02	-13.9007	-53.310377	0.000233	2.331296	0.789865	0.000093
1661	1.6517e+02	-13.8686	-53.209449	0.000253	2.534018	0.858548	0.000101
1662	1.6527e+02	-13.8269	-53.096409	0.000284	2.838100	0.961574	0.000114
1663	1.6537e+02	-13.7723	-52.987407	0.000274	2.736739	0.927232	0.000110
1664	1.6547e+02	-13.7370	-52.846107	0.000355	3.547625	1.201968	0.000142
1665	1.6557e+02	-13.6969	-52.749216	0.000243	2.432657	0.824207	0.000097
1666	1.6567e+02	-13.6456	-52.672510	0.000193	1.925854	0.652497	0.000077
1667	1.6577e+02	-13.6167	-52.527173	0.000365	3.648986	1.236310	0.000146
1668	1.6587e+02	-13.5846	-52.434319	0.000233	2.331296	0.789865	0.000093
1669	1.6597e+02	-13.5461	-52.272834	0.000405	4.054429	1.373678	0.000162
1670	1.6607e+02	-13.5060	-52.184017	0.000223	2.229936	0.755523	0.000089
1671	1.6616e+02	-13.4595	-52.143645	0.000101	1.013607	0.343419	0.000041
1672	1.6626e+02	-13.4210	-51.957937	0.000466	4.662593	1.579729	0.000187
1673	1.6636e+02	-13.3857	-51.836823	0.000304	3.040821	1.030258	0.000122
1674	1.6646e+02	-13.3424	-51.699560	0.000345	3.446264	1.167626	0.000138
1675	1.6656e+02	-13.3007	-51.534038	0.000416	4.155789	1.408020	0.000166
1676	1.6666e+02	-13.2622	-51.437146	0.000243	2.432657	0.824207	0.000097
1677	1.6676e+02	-13.2173	-51.299884	0.000345	3.446264	1.167626	0.000138
1678	1.6686e+02	-13.1820	-51.178770	0.000304	3.040821	1.030258	0.000122
1679	1.6696e+02	-13.1355	-51.053619	0.000314	3.142182	1.064600	0.000126
1680	1.6706e+02	-13.0986	-50.984987	0.000172	1.723132	0.583813	0.000069
1681	1.6716e+02	-13.0552	-50.855799	0.000324	3.243543	1.098942	0.000130
1682	1.6726e+02	-13.0135	-50.738722	0.000294	2.939461	0.995916	0.000118
1683	1.6736e+02	-12.9718	-50.613571	0.000314	3.142182	1.064600	0.000126
1684	1.6746e+02	-12.9413	-50.532828	0.000203	2.027214	0.686839	0.000081
1685	1.6756e+02	-12.8996	-50.395565	0.000345	3.446264	1.167626	0.000138
1686	1.6766e+02	-12.8676	-50.274451	0.000304	3.040821	1.030258	0.000122
1687	1.6776e+02	-12.8258	-50.141226	0.000334	3.344904	1.133284	0.000134
1688	1.6786e+02	-12.7825	-50.032223	0.000274	2.736739	0.927232	0.000110
1689	1.6796e+02	-12.7440	-49.903035	0.000324	3.243543	1.098942	0.000130
1690	1.6806e+02	-12.7055	-49.838441	0.000162	1.621771	0.549471	0.000065
1691	1.6816e+02	-12.6686	-49.709252	0.000324	3.243543	1.098942	0.000130
1692	1.6825e+02	-12.6221	-49.507396	0.000507	5.068036	1.717097	0.000203
1693	1.6835e+02	-12.5932	-49.390319	0.000294	2.939461	0.995916	0.000118
1694	1.6845e+02	-12.5451	-49.265167	0.000314	3.142182	1.064600	0.000126
1695	1.6855e+02	-12.5018	-49.115793	0.000375	3.750346	1.270652	0.000150
1696	1.6865e+02	-12.4585	-49.039088	0.000193	1.925854	0.652497	0.000077
1697	1.6875e+02	-12.4328	-48.885677	0.000385	3.851707	1.304994	0.000154
1698	1.6885e+02	-12.3847	-48.796860	0.000223	2.229936	0.755523	0.000089
1699	1.6895e+02	-12.3430	-48.683820	0.000284	2.838100	0.961574	0.000114
1700	1.6905e+02	-12.3045	-48.615189	0.000172	1.723132	0.583813	0.000069
1701	1.6915e+02	-12.2644	-48.481963	0.000334	3.344904	1.133284	0.000134
1702	1.6925e+02	-12.2194	-48.356812	0.000314	3.142182	1.064600	0.000126
1703	1.6935e+02	-12.1938	-48.251846	0.000264	2.635379	0.892890	0.000105
1704	1.6945e+02	-12.1376	-48.102472	0.000375	3.750346	1.270652	0.000150
1705	1.6955e+02	-12.1039	-47.981358	0.000304	3.040821	1.030258	0.000122
1706	1.6965e+02	-12.0574	-47.852170	0.000324	3.243543	1.098942	0.000130
1707	1.6975e+02	-12.0301	-47.767390	0.000213	2.128575	0.721181	0.000085
1708	1.6985e+02	-11.9836	-47.638202	0.000324	3.243543	1.098942	0.000130
1709	1.6995e+02	-11.9451	-47.504976	0.000334	3.344904	1.133284	0.000134
1710	1.7005e+02	-11.9146	-47.347528	0.000395	3.953068	1.339336	0.000158
1711	1.7015e+02	-11.8617	-47.218340	0.000324	3.243543	1.098942	0.000130
1712	1.7024e+02	-11.8216	-47.085114	0.000334	3.344904	1.133284	0.000134
1713	1.7034e+02	-11.7831	-46.927666	0.000395	3.953068	1.339336	0.000158
1714	1.7044e+02	-11.7398	-46.818663	0.000274	2.736739	0.927232	0.000110
1715	1.7054e+02	-11.6997	-46.717735	0.000253	2.534018	0.858548	0.000101
1716	1.7064e+02	-11.6708	-46.596621	0.000304	3.040821	1.030258	0.000122
1717	1.7074e+02	-11.6211	-46.495692	0.000253	2.534018	0.858548	0.000101
1718	1.7084e+02	-11.5858	-46.414950	0.000203	2.027214	0.686839	0.000081
1719	1.7094e+02	-11.5409	-46.289798	0.000314	3.142182	1.064600	0.000126
1720	1.7104e+02	-11.5072	-46.148499	0.000355	3.547625	1.201968	0.000142
1721	1.7114e+02	-11.4638	-46.043533	0.000264	2.635379	0.892890	0.000105
1722	1.7124e+02	-11.4302	-45.926456	0.000294	2.939461	0.995916	0.000118
1723	1.7134e+02	-11.3820	-45.797268	0.000324	3.243543	1.098942	0.000130
1724	1.7144e+02	-11.3532	-45.688265	0.000274	2.736739	0.927232	0.000110
1725	1.7154e+02	-11.3114	-45.546965	0.000355	3.547625	1.201968	0.000142
1726	1.7164e+02	-11.2665	-45.417777	0.000324	3.243543	1.098942	0.000130
1727	1.7174e+02	-11.2232	-45.268403	0.000375	3.750346	1.270652	0.000150
1728	1.7184e+02	-11.1911	-45.086732	0.000456	4.561232	1.545387	0.000183
1729	1.7194e+02	-11.1494	-44.973692	0.000284	2.838100	0.961574	0.000114
1730	1.7204e+02	-11.1141	-44.840467	0.000334	3.344904	1.133284	0.000134
1731	1.7213e+02	-11.0740	-44.723390	0.000294	2.939461	0.995916	0.000118
1732	1.7223e+02	-11.0355	-44.582090	0.000355	3.547625	1.201968	0.000142
1733	1.7233e+02	-10.9922	-44.444827	0.000345	3.446264	1.167626	0.000138
1734	1.7243e+02	-10.9473	-44.331788	0.000284	2.838100	0.961574	0.000114
1735	1.7253e+02	-10.9088	-44.255082	0.000193	1.925854	0.652497	0.000077
1736	1.7263e+02	-10.8703	-44.121856	0.000334	3.344904	1.133284	0.000134
1737	1.7273e+02	-10.8350	-44.024965	0.000243	2.432657	0.824207	0.000097
1738	1.7283e+02	-10.7965	-43.920000	0.000264	2.635379	0.892890	0.000105
1739	1.7293e+02	-10.7564	-43.774663	0.000365	3.648986	1.236310	0.000146
1740	1.7303e+02	-10.7083	-43.657586	0.000294	2.939461	0.995916	0.000118
1741	1.7313e+02	-10.6601	-43.568769	0.000223	2.229936	0.755523	0.000089
1742	1.7323e+02	-10.6345	-43.399209	0.000426	4.257150	1.442361	0.000170
1743	1.7333e+02	-10.5927	-43.286169	0.000284	2.838100	0.961574	0.000114
1744	1.7343e+02	-10.5494	-43.148907	0.000345	3.446264	1.167626	0.000138
1745	1.7353e+02	-10.5077	-42.999533	0.000375	3.750346	1.270652	0.000150
1746	1.7363e+02	-10.4740	-42.821899	0.000446	4.459871	1.511045	0.000179
1747	1.7373e+02	-10.4259	-42.725008	0.000243	2.432657	0.824207	0.000097
1748	1.7383e+02	-10.3954	-42.583708	0.000355	3.547625	1.201968	0.000142
1749	1.7393e+02	-10.3441	-42.454519	0.000324	3.243543	1.098942	0.000130
1750	1.7403e+02	-10.3264	-42.333405	0.000304	3.040821	1.030258	0.000122
1751	1.7413e+02	-10.2719	-42.204217	0.000324	3.243543	1.098942	0.000130
1752	1.7422e+02	-10.2350	-42.099251	0.000264	2.635379	0.892890	0.000105
1753	1.7432e+02	-10.1997	-41.953915	0.000365	3.648986	1.236310	0.000146
1754	1.7442e+02	-10.1548	-41.852986	0.000253	2.534018	0.858548	0.000101
1755	1.7452e+02	-10.1115	-41.756095	0.000243	2.432657	0.824207	0.000097
1756	1.7462e+02	-10.0617	-41.610758	0.000365	3.648986	1.236310	0.000146
1757	1.7472e+02	-10.0377	-41.493681	0.000294	2.939461	0.995916	0.000118
1758	1.7482e+02	-9.9960	-41.332196	0.000405	4.054429	1.373678	0.000162
1759	1.7492e+02	-9.9591	-41.271639	0.000152	1.520411	0.515129	0.000061
1760	1.7502e+02	-9.9142	-41.073819	0.000497	4.966675	1.682755	0.000199
1761	1.7512e+02	-9.8708	-40.940594	0.000334	3.344904	1.133284	0.000134
1762	1.7522e+02	-9.8323	-40.888111	0.000132	1.317689	0.446445	0.000053
1763	1.7532e+02	-9.7954	-40.706440	0.000456	4.561232	1.545387	0.000183
1764	1.7542e+02	-9.7521	-40.577251	0.000324	3.243543	1.098942	0.000130
1765	1.7552e+02	-9.7152	-40.411729	0.000416	4.155789	1.408020	0.000166
1766	1.7562e+02	-9.6783	-40.294652	0.000294	2.939461	0.995916	0.000118
1767	1.7572e+02	-9.6414	-40.165463	0.000324	3.243543	1.098942	0.000130
1768	1.7582e+02	-9.6013	-40.040312	0.000314	3.142182	1.064600	0.000126
1769	1.7592e+02	-9.5596	-39.915161	0.000314	3.142182	1.064600	0.000126
1770	1.7602e+02	-9.5131	-39.769824	0.000365	3.648986	1.236310	0.000146
1771	1.7612e+02	-9.4762	-39.705230	0.000162	1.621771	0.549471	0.000065
1772	1.7621e+02	-9.4393	-39.604302	0.000253	2.534018	0.858548	0.000101
1773	1.7631e+02	-9.3944	-39.442816	0.000405	4.054429	1.373678	0.000162
1774	1.7641e+02	-9.3639	-39.370148	0.000182	1.824493	0.618155	0.000073
1775	1.7651e+02	-9.3078	-39.224811	0.000365	3.648986	1.236310	0.000146
1776	1.7661e+02	-9.2821	-39.055251	0.000426	4.257150	1.442361	0.000170
1777	1.7671e+02	-9.2436	-38.922026	0.000334	3.344904	1.133284	0.000134
1778	1.7681e+02	-9.1939	-38.817060	0.000264	2.635379	0.892890	0.000105
1779	1.7691e+02	-9.1554	-38.683835	0.000334	3.344904	1.133284	0.000134
1780	1.7701e+02	-9.1201	-38.542535	0.000355	3.547625	1.201968	0.000142
1781	1.7711e+02	-9.0896	-38.401235	0.000355	3.547625	1.201968	0.000142
1782	1.7721e+02	-9.0431	-38.272047	0.000324	3.243543	1.098942	0.000130
1783	1.7731e+02	-8.9949	-38.126710	0.000365	3.648986	1.236310	0.000146
1784	1.7741e+02	-8.9500	-38.001559	0.000314	3.142182	1.064600	0.000126
1785	1.7751e+02	-8.9260	-37.856222	0.000365	3.648986	1.236310	0.000146
1786	1.7761e+02	-8.8842	-37.710885	0.000365	3.648986	1.236310	0.000146
1787	1.7771e+02	-8.8313	-37.581697	0.000324	3.243543	1.098942	0.000130
1788	1.7781e+02	-8.8024	-37.464620	0.000294	2.939461	0.995916	0.000118
1789	1.7791e+02	-8.7543	-37.323320	0.000355	3.547625	1.201968	0.000142
1790	1.7801e+02	-8.7190	-37.238540	0.000213	2.128575	0.721181	0.000085
1791	1.7810e+02	-8.6837	-37.105315	0.000334	3.344904	1.133284	0.000134
1792	1.7820e+02	-8.6372	-36.984200	0.000304	3.040821	1.030258	0.000122
1793	1.7830e+02	-8.5923	-36.867124	0.000294	2.939461	0.995916	0.000118
1794	1.7840e+02	-8.5441	-36.758121	0.000274	2.736739	0.927232	0.000110
1795	1.7850e+02	-8.5249	-36.596635	0.000405	4.054429	1.373678	0.000162
1796	1.7860e+02	-8.4784	-36.471484	0.000314	3.142182	1.064600	0.000126
1797	1.7870e+02	-8.4399	-36.285776	0.000466	4.662593	1.579729	0.000187
1798	1.7880e+02	-8.4014	-36.213108	0.000182	1.824493	0.618155	0.000073
1799	1.7890e+02	-8.3693	-36.047585	0.000416	4.155789	1.408020	0.000166
1800	1.7900e+02	-8.3228	-35.869951	0.000446	4.459871	1.511045	0.000179
1801	1.7910e+02	-8.2730	-35.752874	0.000294	2.939461	0.995916	0.000118
1802	1.7920e+02	-8.2377	-35.631760	0.000304	3.040821	1.030258	0.000122
1803	1.7930e+02	-8.2073	-35.518720	0.000284	2.838100	0.961574	0.000114
1804	1.7940e+02	-8.1607	-35.353198	0.000416	4.155789	1.408020	0.000166
1805	1.7950e+02	-8.1254	-35.207861	0.000365	3.648986	1.236310	0.000146
1806	1.7960e+02	-8.0901	-35.106932	0.000253	2.534018	0.858548	0.000101
1807	1.7970e+02	-8.0356	-35.010041	0.000243	2.432657	0.824207	0.000097
1808	1.7980e+02	-8.0083	-34.868741	0.000355	3.547625	1.201968	0.000142
1809	1.7990e+02	-7.9666	-34.767813	0.000253	2.534018	0.858548	0.000101
1810	1.8000e+02	-7.9313	-34.610365	0.000395	3.953068	1.339336	0.000158
1811	1.8009e+02	-7.8880	-34.485213	0.000314	3.142182	1.064600	0.000126
1812	1.8019e+02	-7.8335	-34.343914	0.000355	3.547625	1.201968	0.000142
1813	1.8029e+02	-7.7998	-34.251060	0.000233	2.331296	0.789865	0.000093
1814	1.8039e+02	-7.7613	-34.081500	0.000426	4.257150	1.442361	0.000170
1815	1.8049e+02	-7.7180	-33.968460	0.000284	2.838100	0.961574	0.000114
1816	1.8059e+02	-7.6811	-33.823123	0.000365	3.648986	1.236310	0.000146
1817	1.8069e+02	-7.6474	-33.681823	0.000355	3.547625	1.201968	0.000142
1818	1.8079e+02	-7.6041	-33.512264	0.000426	4.257150	1.442361	0.000170
1819	1.8089e+02	-7.5656	-33.366927	0.000365	3.648986	1.236310	0.000146
1820	1.8099e+02	-7.5239	-33.233701	0.000334	3.344904	1.133284	0.000134
1821	1.8109e+02	-7.4902	-33.128736	0.000264	2.635379	0.892890	0.000105
1822	1.8119e+02	-7.4485	-32.955139	0.000436	4.358511	1.476703	0.000174
1823	1.8129e+02	-7.4035	-32.825951	0.000324	3.243543	1.098942	0.000130
1824	1.8139e+02	-7.3570	-32.725022	0.000253	2.534018	0.858548	0.000101
1825	1.8149e+02	-7.3249	-32.644280	0.000203	2.027214	0.686839	0.000081
1826	1.8159e+02	-7.2784	-32.470683	0.000436	4.358511	1.476703	0.000174
1827	1.8169e+02	-7.2495	-32.357643	0.000284	2.838100	0.961574	0.000114
1828	1.8179e+02	-7.2046	-32.260752	0.000243	2.432657	0.824207	0.000097
1829	1.8189e+02	-7.1629	-32.091192	0.000426	4.257150	1.442361	0.000170
1830	1.8199e+02	-7.1260	-31.986226	0.000264	2.635379	0.892890	0.000105
1831	1.8209e+02	-7.0955	-31.853001	0.000334	3.344904	1.133284	0.000134
1832	1.8218e+02	-7.0346	-31.719775	0.000334	3.344904	1.133284	0.000134
1833	1.8228e+02	-6.9977	-31.538104	0.000456	4.561232	1.545387	0.000183
1834	1.8238e+02	-6.9624	-31.425065	0.000284	2.838100	0.961574	0.000114
1835	1.8248e+02	-6.9223	-31.267616	0.000395	3.953068	1.339336	0.000158
1836	1.8258e+02	-6.8838	-31.106131	0.000405	4.054429	1.373678	0.000162
1837	1.8268e+02	-6.8421	-30.928497	0.000446	4.459871	1.511045	0.000179
1838	1.8278e+02	-6.8100	-30.795271	0.000334	3.344904	1.133284	0.000134
1839	1.8288e+02	-6.7650	-30.686269	0.000274	2.736739	0.927232	0.000110
1840	1.8298e+02	-6.7265	-30.585340	0.000253	2.534018	0.858548	0.000101
1841	1.8308e+02	-6.6897	-30.440003	0.000365	3.648986	1.236310	0.000146
1842	1.8318e+02	-6.6399	-30.347149	0.000233	2.331296	0.789865	0.000093
1843	1.8328e+02	-6.6062	-30.234110	0.000284	2.838100	0.961574	0.000114
1844	1.8338e+02	-6.5741	-30.108958	0.000314	3.142182	1.064600	0.000126
1845	1.8348e+02	-6.5196	-29.959584	0.000375	3.750346	1.270652	0.000150
1846	1.8358e+02	-6.4859	-29.810210	0.000375	3.750346	1.270652	0.000150
1847	1.8368e+02	-6.4490	-29.652762	0.000395	3.953068	1.339336	0.000158
1848	1.8378e+02	-6.4105	-29.576056	0.000193	1.925854	0.652497	0.000077
1849	1.8388e+02	-6.3800	-29.430720	0.000365	3.648986	1.236310	0.000146
1850	1.8398e+02	-6.3287	-29.277308	0.000385	3.851707	1.304994	0.000154
1851	1.8407e+02	-6.2918	-29.156194	0.000304	3.040821	1.030258	0.000122
1852	1.8417e+02	-6.2613	-28.986635	0.000426	4.257150	1.442361	0.000170
1853	1.8427e+02	-6.2116	-28.809001	0.000446	4.459871	1.511045	0.000179
1854	1.8437e+02	-6.1763	-28.675775	0.000334	3.344904	1.133284	0.000134
1855	1.8447e+02	-6.1346	-28.566772	0.000274	2.736739	0.927232	0.000110
1856	1.8457e+02	-6.0913	-28.393176	0.000436	4.358511	1.476703	0.000174
1857	1.8467e+02	-6.0608	-28.284173	0.000274	2.736739	0.927232	0.000110
1858	1.8477e+02	-6.0062	-28.130762	0.000385	3.851707	1.304994	0.000154
1859	1.8487e+02	-5.9677	-28.013685	0.000294	2.939461	0.995916	0.000118
1860	1.8497e+02	-5.9276	-27.896608	0.000294	2.939461	0.995916	0.000118
1861	1.8507e+02	-5.8875	-27.731085	0.000416	4.155789	1.408020	0.000166
1862	1.8517e+02	-5.8506	-27.646306	0.000213	2.128575	0.721181	0.000085
1863	1.8527e+02	-5.8137	-27.476746	0.000426	4.257150	1.442361	0.000170
1864	1.8537e+02	-5.7688	-27.363706	0.000284	2.838100	0.961574	0.000114
1865	1.8547e+02	-5.7303	-27.258741	0.000264	2.635379	0.892890	0.000105
1866	1.8557e+02	-5.6886	-27.093218	0.000416	4.155789	1.408020	0.000166
1867	1.8567e+02	-5.6469	-26.976141	0.000294	2.939461	0.995916	0.000118
1868	1.8577e+02	-5.6196	-26.818693	0.000395	3.953068	1.339336	0.000158
1869	1.8587e+02	-5.5779	-26.665282	0.000385	3.851707	1.304994	0.000154
1870	1.8597e+02	-5.5346	-26.523982	0.000355	3.547625	1.201968	0.000142
1871	1.8606e+02	-5.4977	-26.374608	0.000375	3.750346	1.270652	0.000150
1872	1.8616e+02	-5.4544	-26.233308	0.000355	3.547625	1.201968	0.000142
1873	1.8626e+02	-5.4191	-26.055674	0.000446	4.459871	1.511045	0.000179
1874	1.8636e+02	-5.3790	-25.906300	0.000375	3.750346	1.270652	0.000150
1875	1.8646e+02	-5.3261	-25.773075	0.000334	3.344904	1.133284	0.000134
1876	1.8656e+02	-5.2940	-25.668109	0.000264	2.635379	0.892890	0.000105
1877	1.8666e+02	-5.2507	-25.563143	0.000264	2.635379	0.892890	0.000105
1878	1.8676e+02	-5.2089	-25.425881	0.000345	3.446264	1.167626	0.000138
1879	1.8686e+02	-5.1753	-25.288618	0.000345	3.446264	1.167626	0.000138
1880	1.8696e+02	-5.1319	-25.131170	0.000395	3.953068	1.339336	0.000158
1881	1.8706e+02	-5.0918	-25.018130	0.000284	2.838100	0.961574	0.000114
1882	1.8716e+02	-5.0598	-24.864719	0.000385	3.851707	1.304994	0.000154
1883	1.8726e+02	-5.0212	-24.743605	0.000304	3.040821	1.030258	0.000122
1884	1.8736e+02	-4.9731	-24.634602	0.000274	2.736739	0.927232	0.000110
1885	1.8746e+02	-4.9330	-24.436783	0.000497	4.966675	1.682755	0.000199
1886	1.8756e+02	-4.8993	-24.335854	0.000253	2.534018	0.858548	0.000101
1887	1.8766e+02	-4.8576	-24.154183	0.000456	4.561232	1.545387	0.000183
1888	1.8776e+02	-4.8191	-24.037106	0.000294	2.939461	0.995916	0.000118
1889	1.8786e+02	-4.7726	-23.887732	0.000375	3.750346	1.270652	0.000150
1890	1.8796e+02	-4.7341	-23.697987	0.000476	4.763954	1.614071	0.000191
1891	1.8806e+02	-4.7052	-23.536501	0.000405	4.054429	1.373678	0.000162
1892	1.8815e+02	-4.6587	-23.419424	0.000294	2.939461	0.995916	0.000118
1893	1.8825e+02	-4.6138	-23.241790	0.000446	4.459871	1.511045	0.000179
1894	1.8835e+02	-4.5817	-23.181233	0.000152	1.520411	0.515129	0.000061
1895	1.8845e+02	-4.5432	-23.052045	0.000324	3.243543	1.098942	0.000130
1896	1.8855e+02	-4.5015	-22.922857	0.000324	3.243543	1.098942	0.000130
1897	1.8865e+02	-4.4566	-22.769446	0.000385	3.851707	1.304994	0.000154
1898	1.8875e+02	-4.4197	-22.620072	0.000375	3.750346	1.270652	0.000150
1899	1.8885e+02	-4.3683	-22.523180	0.000243	2.432657	0.824207	0.000097
1900	1.8895e+02	-4.3362	-22.381881	0.000355	3.547625	1.201968	0.000142
1901	1.8905e+02	-4.2961	-22.224432	0.000395	3.953068	1.339336	0.000158
1902	1.8915e+02	-4.2528	-22.066984	0.000395	3.953068	1.339336	0.000158
1903	1.8925e+02	-4.2095	-21.921647	0.000365	3.648986	1.236310	0.000146
1904	1.8935e+02	-4.1774	-21.784384	0.000345	3.446264	1.167626	0.000138
1905	1.8945e+02	-4.1389	-21.651159	0.000334	3.344904	1.133284	0.000134
1906	1.8955e+02	-4.1068	-21.505822	0.000365	3.648986	1.236310	0.000146
1907	1.8965e+02	-4.0619	-21.312040	0.000487	4.865314	1.648413	0.000195
1908	1.8975e+02	-4.0186	-21.182851	0.000324	3.243543	1.098942	0.000130
1909	1.8985e+02	-3.9753	-21.057700	0.000314	3.142182	1.064600	0.000126
1910	1.8995e+02	-3.9352	-20.920437	0.000345	3.446264	1.167626	0.000138
1911	1.9004e+02	-3.8999	-20.787212	0.000334	3.344904	1.133284	0.000134
1912	1.9014e+02	-3.8614	-20.621689	0.000416	4.155789	1.408020	0.000166
1913	1.9024e+02	-3.8245	-20.532872	0.000223	2.229936	0.755523	0.000089
1914	1.9034e+02	-3.7780	-20.375424	0.000395	3.953068	1.339336	0.000158
1915	1.9044e+02	-3.7427	-20.197790	0.000446	4.459871	1.511045	0.000179
1916	1.9054e+02	-3.7042	-20.084750	0.000284	2.838100	0.961574	0.000114
1917	1.9064e+02	-3.6577	-19.951525	0.000334	3.344904	1.133284	0.000134
1918	1.9074e+02	-3.6208	-19.777928	0.000436	4.358511	1.476703	0.000174
1919	1.9084e+02	-3.5855	-19.697185	0.000203	2.027214	0.686839	0.000081
1920	1.9094e+02	-3.5389	-19.515514	0.000456	4.561232	1.545387	0.000183
1921	1.9104e+02	-3.4972	-19.366140	0.000375	3.750346	1.270652	0.000150
1922	1.9114e+02	-3.4635	-19.257137	0.000274	2.736739	0.927232	0.000110
1923	1.9124e+02	-3.4170	-19.091615	0.000416	4.155789	1.408020	0.000166
1924	1.9134e+02	-3.3705	-18.930129	0.000405	4.054429	1.373678	0.000162
1925	1.9144e+02	-3.3400	-18.784793	0.000365	3.648986	1.236310	0.000146
1926	1.9154e+02	-3.3031	-18.639456	0.000365	3.648986	1.236310	0.000146
1927	1.9164e+02	-3.2614	-18.473933	0.000416	4.155789	1.408020	0.000166
1928	1.9174e+02	-3.2165	-18.340708	0.000334	3.344904	1.133284	0.000134
1929	1.9184e+02	-3.1764	-18.243816	0.000243	2.432657	0.824207	0.000097
1930	1.9194e+02	-3.1443	-18.106554	0.000345	3.446264	1.167626	0.000138
1931	1.9203e+02	-3.1042	-17.953143	0.000385	3.851707	1.304994	0.000154
1932	1.9213e+02	-3.0545	-17.819917	0.000334	3.344904	1.133284	0.000134
1933	1.9223e+02	-3.0240	-17.626135	0.000487	4.865314	1.648413	0.000195
1934	1.9233e+02	-2.9839	-17.553466	0.000182	1.824493	0.618155	0.000073
1935	1.9243e+02	-2.9470	-17.412166	0.000355	3.547625	1.201968	0.000142
1936	1.9253e+02	-2.9053	-17.242607	0.000426	4.257150	1.442361	0.000170
1937	1.9263e+02	-2.8684	-17.117456	0.000314	3.142182	1.064600	0.000126
1938	1.9273e+02	-2.8251	-16.976156	0.000355	3.547625	1.201968	0.000142
1939	1.9283e+02	-2.7849	-16.814670	0.000405	4.054429	1.373678	0.000162
1940	1.9293e+02	-2.7416	-16.677408	0.000345	3.446264	1.167626	0.000138
1941	1.9303e+02	-2.7063	-16.467477	0.000527	5.270757	1.785781	0.000211
1942	1.9313e+02	-2.6678	-16.322140	0.000365	3.648986	1.236310	0.000146
1943	1.9323e+02	-2.6277	-16.168729	0.000385	3.851707	1.304994	0.000154
1944	1.9333e+02	-2.5908	-16.027429	0.000355	3.547625	1.201968	0.000142
1945	1.9343e+02	-2.5523	-15.914389	0.000284	2.838100	0.961574	0.000114
1946	1.9353e+02	-2.4994	-15.769052	0.000365	3.648986	1.236310	0.000146
1947	1.9363e+02	-2.4705	-15.664087	0.000264	2.635379	0.892890	0.000105
1948	1.9373e+02	-2.4240	-15.526824	0.000345	3.446264	1.167626	0.000138
1949	1.9383e+02	-2.3807	-15.385524	0.000355	3.547625	1.201968	0.000142
1950	1.9393e+02	-2.3406	-15.296707	0.000223	2.229936	0.755523	0.000089
1951	1.9403e+02	-2.3069	-15.090813	0.000517	5.169396	1.751439	0.000207
1952	1.9412e+02	-2.2700	-14.961625	0.000324	3.243543	1.098942	0.000130
1953	1.9422e+02	-2.2219	-14.832437	0.000324	3.243543	1.098942	0.000130
1954	1.9432e+02	-2.1930	-14.622506	0.000527	5.270757	1.785781	0.000211
1955	1.9442e+02	-2.1417	-14.509466	0.000284	2.838100	0.961574	0.000114
1956	1.9452e+02	-2.1064	-14.384315	0.000314	3.142182	1.064600	0.000126
1957	1.9462e+02	-2.0711	-14.214755	0.000426	4.257150	1.442361	0.000170
1958	1.9472e+02	-2.0326	-14.053270	0.000405	4.054429	1.373678	0.000162
1959	1.9482e+02	-1.9909	-13.903895	0.000375	3.750346	1.270652	0.000150
1960	1.9492e+02	-1.9475	-13.726262	0.000446	4.459871	1.511045	0.000179
1961	1.9502e+02	-1.9090	-13.597073	0.000324	3.243543	1.098942	0.000130
1962	1.9512e+02	-1.8705	-13.411365	0.000466	4.662593	1.579729	0.000187
1963	1.9522e+02	-1.8320	-13.290251	0.000304	3.040821	1.030258	0.000122
1964	1.9532e+02	-1.7903	-13.152988	0.000345	3.446264	1.167626	0.000138
1965	1.9542e+02	-1.7454	-13.056097	0.000243	2.432657	0.824207	0.000097
1966	1.9552e+02	-1.7037	-12.898649	0.000395	3.953068	1.339336	0.000158
1967	1.9562e+02	-1.6684	-12.781572	0.000294	2.939461	0.995916	0.000118
1968	1.9572e+02	-1.6267	-12.616049	0.000416	4.155789	1.408020	0.000166
1969	1.9582e+02	-1.6010	-12.482824	0.000334	3.344904	1.133284	0.000134
1970	1.9592e+02	-1.5433	-12.309227	0.000436	4.358511	1.476703	0.000174
1971	1.9601e+02	-1.5096	-12.192150	0.000294	2.939461	0.995916	0.000118
1972	1.9611e+02	-1.4679	-12.030664	0.000405	4.054429	1.373678	0.000162
1973	1.9621e+02	-1.4326	-11.913588	0.000294	2.939461	0.995916	0.000118
1974	1.9631e+02	-1.3909	-11.756139	0.000395	3.953068	1.339336	0.000158
1975	1.9641e+02	-1.3572	-11.618877	0.000345	3.446264	1.167626	0.000138
1976	1.9651e+02	-1.3171	-11.437206	0.000456	4.561232	1.545387	0.000183
1977	1.9661e+02	-1.2770	-11.271683	0.000416	4.155789	1.408020	0.000166
1978	1.9671e+02	-1.2240	-11.114235	0.000395	3.953068	1.339336	0.000158
1979	1.9681e+02	-1.1935	-10.956786	0.000395	3.953068	1.339336	0.000158
1980	1.9691e+02	-1.1486	-10.855858	0.000253	2.534018	0.858548	0.000101
1981	1.9701e+02	-1.1182	-10.662075	0.000487	4.865314	1.648413	0.000195
1982	1.9711e+02	-1.0684	-10.561147	0.000253	2.534018	0.858548	0.000101
1983	1.9721e+02	-1.0347	-10.415810	0.000365	3.648986	1.236310	0.000146
1984	1.9731e+02	-0.9882	-10.367365	0.000122	1.216329	0.412103	0.000049
1985	1.9741e+02	-0.9561	-10.161471	0.000517	5.169396	1.751439	0.000207
1986	1.9751e+02	-0.9208	-10.024208	0.000345	3.446264	1.167626	0.000138
1987	1.9761e+02	-0.8711	-9.846574	0.000446	4.459871	1.511045	0.000179
1988	1.9771e+02	-0.8310	-9.725460	0.000304	3.040821	1.030258	0.000122
1989	1.9781e+02	-0.7877	-9.547826	0.000446	4.459871	1.511045	0.000179
1990	1.9791e+02	-0.7476	-9.446898	0.000253	2.534018	0.858548	0.000101
1991	1.9800e+02	-0.7043	-9.277338	0.000426	4.257150	1.442361	0.000170
1992	1.9810e+02	-0.6770	-9.111815	0.000416	4.155789	1.408020	0.000166
1993	1.9820e+02	-0.6305	-8.994738	0.000294	2.939461	0.995916	0.000118
1994	1.9830e+02	-0.5855	-8.796919	0.000497	4.966675	1.682755	0.000199
1995	1.9840e+02	-0.5631	-8.631396	0.000416	4.155789	1.408020	0.000166
1996	1.9850e+02	-0.5101	-8.514319	0.000294	2.939461	0.995916	0.000118
1997	1.9860e+02	-0.4749	-8.316500	0.000497	4.966675	1.682755	0.000199
1998	1.9870e+02	-0.4364	-8.171163	0.000365	3.648986	1.236310	0.000146
1999	1.9880e+02	-0.3995	-8.033900	0.000345	3.446264	1.167626	0.000138
2000	1.9890e+02	-0.3610	-7.932972	0.000253	2.534018	0.858548	0.000101
2001	1.9900e+02	-0.3208	-7.811858	0.000304	3.040821	1.030258	0.000122
2002	1.9910e+02	-0.2743	-7.682669	0.000324	3.243543	1.098942	0.000130
2003	1.9920e+02	-0.2342	-7.509072	0.000436	4.358511	1.476703	0.000174
2004	1.9930e+02	-0.1957	-7.400070	0.000274	2.736739	0.927232	0.000110
2005	1.9940e+02	-0.1604	-7.214362	0.000466	4.662593	1.579729	0.000187
2006	1.9950e+02	-0.1059	-7.109396	0.000264	2.635379	0.892890	0.000105
2007	1.9960e+02	-0.0706	-6.972133	0.000345	3.446264	1.167626	0.000138
2008	1.9970e+02	-0.0369	-6.786425	0.000466	4.662593	1.579729	0.000187
2009	1.9980e+02	0.0000	-6.616865	0.000466	4.662593	1.579729	0.000170

PMax (uC/cm2):	7.26e+01
Pr (uC/cm2):	3.31e+00
-Pr (uC/cm2):	-3.31e+00
PLoss (uC/cm2):	-3.33e+00
-Vc:	-8.94e-01
C (Max-Eff) (nF):	3.63e-01
K (Eff):	1.23e+03
Vert. (+/-Pr) Shift (uC/cm2):	-1.06e-03
Offset (uC/cm2):	3.30e+00

A (Loop Area - uC/cm2·Volts):	1.70e-02



Hysteresis Version: 5.48.1 - Radiant Technologies, Inc., 1999 - 9/12/24

