»»»»»»»»»»»»»»»»»»»»»»»»»»»»»»»»»»»» Hysteresis ««««««««««««««««««««««««««««««««««««
»»»  Executed Version:	5.48.1
»»»  Vision Version:	5.48.4 (R)
»»»  Vision Compiled:	9/18/24
»»»  Driver Version:	5.47.0
»»»  Windows Version:	Windows 8 or 8.1
»»»  Processor Information:	x86 (AMD or Intel) - 32 Processors
»»»  Tester Name:	PMF21124-494 (100V)
»»»  Tester S/N:	PMF21124-494
»»»  Internal Amp Type:	100V RevK 270k
»»»  Internal Amp S/N:	iAB2-596/K     
»»»  Execution Count:	1
»»»»»»»»»»»»»»»»»»»»»»»»»»»»»»»»»»»»»»»»»»««««««««««««««««««««««««««««««««««««««««««

Stored:	6/19/2025 - 15:20:38
Configured:	06/19/25 10:04:32 AM
Executed:	06/19/25 03:20:09 PM

»»»»»»»»»»»»»»»»»»»»»»»»»»»»»»»»»»» Sample Info ««««««««««««««««««««««««««««««««««««
Sample Name:	
Lot Name:	
Wafer Name:	
Die Row/Column:	0/0
Capacitor Number:	0
Sample Area (cm2):	1.00e-04
Sample Thickness (microns):	3.00e-01

Amplifier:	Internal

»»»»»»»»»»»»»»»»»»»»»»»»»»»»»»»»»»» Tester Info «««««««««««««««««««««««««««««««««««
Tester Name:	PMF21124-494 (100V)
Tester Serial Number:	PMF21124-494
Return Signal Amp. Level:	0.19 [Index: 3]

»»»»»»»»»»»»»»»»»»»»»»»»»»»»»»»» Hysteresis Info ««««««««««««««««««««««««««««««««««
Task Name:	Hyst-1168
Volts:	20.00
Field:	666.67 (kV/cm)
DCBias:	0.00
DCField:	0.00 (kV/cm)
Hysteresis Period (ms):	2.00e+02
Preset:	Enabled
Preset Delay (ms):	1.00e+03
Profile:	Standard Bipolar

»»»»»»»»»»»»»»»»»»»»»»»»»»»»»»»»»»»»»» Data «««««««««««««««««««««««««««««««««««««««
Points:	2009

Valid Data

Point	Time (ms)	Drive Voltage	Measured Polarization (uC/cm2)	Capacitance (uF)	Normalized Capacitance (uF/cm2)	Dielectric Constant	Instantaneous Current (mA)
   1	0.0000e+00	0.0096	-3.274117	0.000324	3.243803	1.099030	0.000130
   2	9.9500e-02	0.0321	-3.144929	0.000324	3.243803	1.099030	0.000130
   3	1.9900e-01	0.0690	-3.035926	0.000274	2.736959	0.927307	0.000110
   4	2.9850e-01	0.1059	-2.922886	0.000284	2.838328	0.961651	0.000114
   5	3.9800e-01	0.1524	-2.805809	0.000294	2.939697	0.995996	0.000118
   6	4.9750e-01	0.2021	-2.680658	0.000314	3.142434	1.064686	0.000126
   7	5.9700e-01	0.2374	-2.583767	0.000243	2.432852	0.824273	0.000097
   8	6.9650e-01	0.2791	-2.446504	0.000345	3.446541	1.167720	0.000138
   9	7.9600e-01	0.3144	-2.297130	0.000375	3.750647	1.270754	0.000150
  10	8.9550e-01	0.3577	-2.192165	0.000264	2.635590	0.892962	0.000105
  11	9.9500e-01	0.3898	-2.054902	0.000345	3.446541	1.167720	0.000138
  12	1.0945e+00	0.4315	-1.901491	0.000385	3.852016	1.305098	0.000154
  13	1.1940e+00	0.4732	-1.800563	0.000253	2.534221	0.858617	0.000101
  14	1.2935e+00	0.5101	-1.643114	0.000395	3.953385	1.339443	0.000158
  15	1.3930e+00	0.5438	-1.513926	0.000324	3.243803	1.099030	0.000130
  16	1.4925e+00	0.5952	-1.368589	0.000365	3.649279	1.236409	0.000146
  17	1.5920e+00	0.6321	-1.243438	0.000314	3.142434	1.064686	0.000126
  18	1.6915e+00	0.6738	-1.170769	0.000182	1.824639	0.618205	0.000073
  19	1.7910e+00	0.7139	-1.021395	0.000375	3.750647	1.270754	0.000150
  20	1.8905e+00	0.7556	-0.884133	0.000345	3.446541	1.167720	0.000138
  21	1.9900e+00	0.7845	-0.767056	0.000294	2.939697	0.995996	0.000118
  22	2.0895e+00	0.8374	-0.637867	0.000324	3.243803	1.099030	0.000130
  23	2.1890e+00	0.8727	-0.524828	0.000284	2.838328	0.961651	0.000114
  24	2.2885e+00	0.9160	-0.355268	0.000426	4.257492	1.442477	0.000170
  25	2.3880e+00	0.9561	-0.234154	0.000304	3.041065	1.030341	0.000122
  26	2.4875e+00	0.9914	-0.084780	0.000375	3.750647	1.270754	0.000150
  27	2.5870e+00	1.0395	0.024223	0.000274	2.736959	0.927307	0.000110
  28	2.6865e+00	1.0700	0.173597	0.000375	3.750647	1.270754	0.000150
  29	2.7860e+00	1.1165	0.274525	0.000253	2.534221	0.858617	0.000101
  30	2.8855e+00	1.1550	0.440048	0.000416	4.156123	1.408133	0.000166
  31	2.9850e+00	1.2016	0.605570	0.000416	4.156123	1.408133	0.000166
  32	3.0845e+00	1.2353	0.702462	0.000243	2.432852	0.824273	0.000097
  33	3.1840e+00	1.2689	0.867984	0.000416	4.156123	1.408133	0.000166
  34	3.2835e+00	1.3123	0.997173	0.000324	3.243803	1.099030	0.000130
  35	3.3830e+00	1.3540	1.174806	0.000446	4.460229	1.511167	0.000179
  36	3.4825e+00	1.3909	1.275735	0.000253	2.534221	0.858617	0.000101
  37	3.5820e+00	1.4358	1.404923	0.000324	3.243803	1.099030	0.000130
  38	3.6815e+00	1.4679	1.558334	0.000385	3.852016	1.305098	0.000154
  39	3.7810e+00	1.5144	1.691560	0.000335	3.345172	1.133375	0.000134
  40	3.8805e+00	1.5497	1.816711	0.000314	3.142434	1.064686	0.000126
  41	3.9800e+00	1.5994	1.937825	0.000304	3.041065	1.030341	0.000122
  42	4.0795e+00	1.6363	2.095273	0.000395	3.953385	1.339443	0.000158
  43	4.1790e+00	1.6764	2.228499	0.000335	3.345172	1.133375	0.000134
  44	4.2785e+00	1.7149	2.369799	0.000355	3.547910	1.202064	0.000142
  45	4.3780e+00	1.7566	2.511098	0.000355	3.547910	1.202064	0.000142
  46	4.4775e+00	1.7983	2.628175	0.000294	2.939697	0.995996	0.000118
  47	4.5770e+00	1.8272	2.757364	0.000324	3.243803	1.099030	0.000130
  48	4.6765e+00	1.8737	2.894626	0.000345	3.446541	1.167720	0.000138
  49	4.7760e+00	1.9106	3.023815	0.000324	3.243803	1.099030	0.000130
  50	4.8755e+00	1.9540	3.153003	0.000324	3.243803	1.099030	0.000130
  51	4.9750e+00	1.9876	3.346786	0.000487	4.865705	1.648545	0.000195
  52	5.0745e+00	2.0229	3.471937	0.000314	3.142434	1.064686	0.000126
  53	5.1740e+00	2.0743	3.637459	0.000416	4.156123	1.408133	0.000166
  54	5.2735e+00	2.1128	3.798945	0.000405	4.054754	1.373788	0.000162
  55	5.3730e+00	2.1481	3.928133	0.000324	3.243803	1.099030	0.000130
  56	5.4725e+00	2.1946	4.049247	0.000304	3.041065	1.030341	0.000122
  57	5.5720e+00	2.2331	4.162287	0.000284	2.838328	0.961651	0.000114
  58	5.6715e+00	2.2732	4.299550	0.000345	3.446541	1.167720	0.000138
  59	5.7710e+00	2.3133	4.424701	0.000314	3.142434	1.064686	0.000126
  60	5.8705e+00	2.3502	4.553889	0.000324	3.243803	1.099030	0.000130
  61	5.9700e+00	2.4015	4.703263	0.000375	3.750647	1.270754	0.000150
  62	6.0695e+00	2.4288	4.824377	0.000304	3.041065	1.030341	0.000122
  63	6.1690e+00	2.4689	4.977788	0.000385	3.852016	1.305098	0.000154
  64	6.2685e+00	2.5074	5.119088	0.000355	3.547910	1.202064	0.000142
  65	6.3680e+00	2.5571	5.236165	0.000294	2.939697	0.995996	0.000118
  66	6.4675e+00	2.5812	5.385539	0.000375	3.750647	1.270754	0.000150
  67	6.5670e+00	2.6293	5.542987	0.000395	3.953385	1.339443	0.000158
  68	6.6665e+00	2.6662	5.664101	0.000304	3.041065	1.030341	0.000122
  69	6.7660e+00	2.7079	5.853847	0.000476	4.764336	1.614201	0.000191
  70	6.8655e+00	2.7464	5.999184	0.000365	3.649279	1.236409	0.000146
  71	6.9650e+00	2.7833	6.124335	0.000314	3.142434	1.064686	0.000126
  72	7.0645e+00	2.8315	6.285820	0.000405	4.054754	1.373788	0.000162
  73	7.1640e+00	2.8571	6.443269	0.000395	3.953385	1.339443	0.000158
  74	7.2635e+00	2.9037	6.552271	0.000274	2.736959	0.927307	0.000110
  75	7.3630e+00	2.9502	6.669348	0.000294	2.939697	0.995996	0.000118
  76	7.4625e+00	2.9839	6.842945	0.000436	4.358860	1.476822	0.000174
  77	7.5620e+00	3.0240	6.939836	0.000243	2.432852	0.824273	0.000097
  78	7.6615e+00	3.0641	7.073062	0.000335	3.345172	1.133375	0.000134
  79	7.7610e+00	3.1042	7.222436	0.000375	3.750647	1.270754	0.000150
  80	7.8605e+00	3.1411	7.387958	0.000416	4.156123	1.408133	0.000166
  81	7.9600e+00	3.1860	7.505035	0.000294	2.939697	0.995996	0.000118
  82	8.0595e+00	3.2245	7.638261	0.000335	3.345172	1.133375	0.000134
  83	8.1590e+00	3.2582	7.815895	0.000446	4.460229	1.511167	0.000179
  84	8.2585e+00	3.3015	7.937009	0.000304	3.041065	1.030341	0.000122
  85	8.3580e+00	3.3416	8.054086	0.000294	2.939697	0.995996	0.000118
  86	8.4575e+00	3.3881	8.219608	0.000416	4.156123	1.408133	0.000166
  87	8.5570e+00	3.4202	8.368982	0.000375	3.750647	1.270754	0.000150
  88	8.6565e+00	3.4684	8.502208	0.000335	3.345172	1.133375	0.000134
  89	8.7560e+00	3.5052	8.716176	0.000537	5.372549	1.820269	0.000215
  90	8.8555e+00	3.5373	8.833253	0.000294	2.939697	0.995996	0.000118
  91	8.9550e+00	3.5855	9.010887	0.000446	4.460229	1.511167	0.000179
  92	9.0545e+00	3.6320	9.087593	0.000193	1.926008	0.652549	0.000077
  93	9.1540e+00	3.6673	9.200632	0.000284	2.838328	0.961651	0.000114
  94	9.2535e+00	3.7042	9.370192	0.000426	4.257492	1.442477	0.000170
  95	9.3530e+00	3.7395	9.483232	0.000284	2.838328	0.961651	0.000114
  96	9.4525e+00	3.7780	9.652792	0.000426	4.257492	1.442477	0.000170
  97	9.5520e+00	3.8213	9.798128	0.000365	3.649279	1.236409	0.000146
  98	9.6515e+00	3.8630	9.927317	0.000324	3.243803	1.099030	0.000130
  99	9.7510e+00	3.8983	10.060542	0.000335	3.345172	1.133375	0.000134
 100	9.8505e+00	3.9368	10.173582	0.000284	2.838328	0.961651	0.000114
 101	9.9500e+00	3.9849	10.343142	0.000426	4.257492	1.442477	0.000170
 102	1.0050e+01	4.0154	10.496553	0.000385	3.852016	1.305098	0.000154
 103	1.0149e+01	4.0651	10.649964	0.000385	3.852016	1.305098	0.000154
 104	1.0248e+01	4.1020	10.791264	0.000355	3.547910	1.202064	0.000142
 105	1.0348e+01	4.1421	10.944675	0.000385	3.852016	1.305098	0.000154
 106	1.0447e+01	4.1822	11.085975	0.000355	3.547910	1.202064	0.000142
 107	1.0547e+01	4.2223	11.291869	0.000517	5.169811	1.751579	0.000207
 108	1.0646e+01	4.2673	11.412983	0.000304	3.041065	1.030341	0.000122
 109	1.0746e+01	4.3058	11.578505	0.000416	4.156123	1.408133	0.000166
 110	1.0845e+01	4.3443	11.711731	0.000335	3.345172	1.133375	0.000134
 111	1.0945e+01	4.3892	11.764214	0.000132	1.317795	0.446481	0.000053
 112	1.1044e+01	4.4245	11.897439	0.000335	3.345172	1.133375	0.000134
 113	1.1144e+01	4.4630	12.083147	0.000466	4.662967	1.579856	0.000187
 114	1.1243e+01	4.5047	12.216373	0.000335	3.345172	1.133375	0.000134
 115	1.1343e+01	4.5400	12.381895	0.000416	4.156123	1.408133	0.000166
 116	1.1443e+01	4.5801	12.490898	0.000274	2.736959	0.927307	0.000110
 117	1.1542e+01	4.6282	12.624123	0.000335	3.345172	1.133375	0.000134
 118	1.1642e+01	4.6603	12.765423	0.000355	3.547910	1.202064	0.000142
 119	1.1741e+01	4.7036	12.930946	0.000416	4.156123	1.408133	0.000166
 120	1.1841e+01	4.7373	13.003614	0.000182	1.824639	0.618205	0.000073
 121	1.1940e+01	4.7662	13.173174	0.000426	4.257492	1.442477	0.000170
 122	1.2040e+01	4.8127	13.346771	0.000436	4.358860	1.476822	0.000174
 123	1.2139e+01	4.8560	13.496145	0.000375	3.750647	1.270754	0.000150
 124	1.2239e+01	4.9041	13.653593	0.000395	3.953385	1.339443	0.000158
 125	1.2338e+01	4.9426	13.802967	0.000375	3.750647	1.270754	0.000150
 126	1.2438e+01	4.9779	13.968490	0.000416	4.156123	1.408133	0.000166
 127	1.2537e+01	5.0212	14.093641	0.000314	3.142434	1.064686	0.000126
 128	1.2636e+01	5.0630	14.243015	0.000375	3.750647	1.270754	0.000150
 129	1.2736e+01	5.0950	14.388352	0.000365	3.649279	1.236409	0.000146
 130	1.2835e+01	5.1384	14.477169	0.000223	2.230115	0.755583	0.000089
 131	1.2935e+01	5.1785	14.598283	0.000304	3.041065	1.030341	0.000122
 132	1.3034e+01	5.2250	14.763805	0.000416	4.156123	1.408133	0.000166
 133	1.3134e+01	5.2603	14.905105	0.000355	3.547910	1.202064	0.000142
 134	1.3233e+01	5.2988	15.038331	0.000335	3.345172	1.133375	0.000134
 135	1.3333e+01	5.3389	15.207890	0.000426	4.257492	1.442477	0.000170
 136	1.3432e+01	5.3790	15.353227	0.000365	3.649279	1.236409	0.000146
 137	1.3532e+01	5.4095	15.478378	0.000314	3.142434	1.064686	0.000126
 138	1.3632e+01	5.4640	15.611604	0.000335	3.345172	1.133375	0.000134
 139	1.3731e+01	5.4849	15.752904	0.000355	3.547910	1.202064	0.000142
 140	1.3831e+01	5.5394	15.918426	0.000416	4.156123	1.408133	0.000166
 141	1.3930e+01	5.5795	16.124320	0.000517	5.169811	1.751579	0.000207
 142	1.4030e+01	5.6084	16.257546	0.000335	3.345172	1.133375	0.000134
 143	1.4129e+01	5.6533	16.374623	0.000294	2.939697	0.995996	0.000118
 144	1.4229e+01	5.6886	16.548219	0.000436	4.358860	1.476822	0.000174
 145	1.4328e+01	5.7239	16.709705	0.000405	4.054754	1.373788	0.000162
 146	1.4428e+01	5.7736	16.830819	0.000304	3.041065	1.030341	0.000122
 147	1.4527e+01	5.8202	16.988267	0.000395	3.953385	1.339443	0.000158
 148	1.4627e+01	5.8651	17.064973	0.000193	1.926008	0.652549	0.000077
 149	1.4726e+01	5.8891	17.218384	0.000385	3.852016	1.305098	0.000154
 150	1.4825e+01	5.9292	17.351609	0.000335	3.345172	1.133375	0.000134
 151	1.4925e+01	5.9838	17.472723	0.000304	3.041065	1.030341	0.000122
 152	1.5024e+01	6.0207	17.638246	0.000416	4.156123	1.408133	0.000166
 153	1.5124e+01	6.0576	17.783583	0.000365	3.649279	1.236409	0.000146
 154	1.5223e+01	6.0865	17.920846	0.000345	3.446541	1.167720	0.000138
 155	1.5323e+01	6.1282	18.074257	0.000385	3.852016	1.305098	0.000154
 156	1.5422e+01	6.1747	18.203445	0.000324	3.243803	1.099030	0.000130
 157	1.5522e+01	6.2132	18.385116	0.000456	4.561598	1.545511	0.000183
 158	1.5621e+01	6.2533	18.530453	0.000365	3.649279	1.236409	0.000146
 159	1.5721e+01	6.2950	18.675790	0.000365	3.649279	1.236409	0.000146
 160	1.5820e+01	6.3303	18.833238	0.000395	3.953385	1.339443	0.000158
 161	1.5920e+01	6.3784	19.006835	0.000436	4.358860	1.476822	0.000174
 162	1.6020e+01	6.4153	19.115838	0.000274	2.736959	0.927307	0.000110
 163	1.6119e+01	6.4618	19.309620	0.000487	4.865705	1.648545	0.000195
 164	1.6218e+01	6.4987	19.418623	0.000274	2.736959	0.927307	0.000110
 165	1.6318e+01	6.5324	19.543774	0.000314	3.142434	1.064686	0.000126
 166	1.6418e+01	6.5693	19.672962	0.000324	3.243803	1.099030	0.000130
 167	1.6517e+01	6.6078	19.842522	0.000426	4.257492	1.442477	0.000170
 168	1.6616e+01	6.6576	19.995933	0.000385	3.852016	1.305098	0.000154
 169	1.6716e+01	6.6929	20.080713	0.000213	2.128746	0.721239	0.000085
 170	1.6816e+01	6.7265	20.205864	0.000314	3.142434	1.064686	0.000126
 171	1.6915e+01	6.7715	20.375424	0.000426	4.257492	1.442477	0.000170
 172	1.7015e+01	6.8019	20.536909	0.000405	4.054754	1.373788	0.000162
 173	1.7114e+01	6.8485	20.653986	0.000294	2.939697	0.995996	0.000118
 174	1.7213e+01	6.8918	20.835658	0.000456	4.561598	1.545511	0.000183
 175	1.7313e+01	6.9239	20.960809	0.000314	3.142434	1.064686	0.000126
 176	1.7413e+01	6.9656	21.118257	0.000395	3.953385	1.339443	0.000158
 177	1.7512e+01	7.0025	21.243408	0.000314	3.142434	1.064686	0.000126
 178	1.7611e+01	7.0490	21.449302	0.000517	5.169811	1.751579	0.000207
 179	1.7711e+01	7.0811	21.610788	0.000405	4.054754	1.373788	0.000162
 180	1.7811e+01	7.1228	21.719790	0.000274	2.736959	0.927307	0.000110
 181	1.7910e+01	7.1709	21.889350	0.000426	4.257492	1.442477	0.000170
 182	1.8009e+01	7.2094	22.014501	0.000314	3.142434	1.064686	0.000126
 183	1.8109e+01	7.2511	22.188098	0.000436	4.358860	1.476822	0.000174
 184	1.8209e+01	7.2912	22.333435	0.000365	3.649279	1.236409	0.000146
 185	1.8308e+01	7.3346	22.426289	0.000233	2.331483	0.789928	0.000093
 186	1.8407e+01	7.3650	22.539329	0.000284	2.838328	0.961651	0.000114
 187	1.8507e+01	7.4083	22.664480	0.000314	3.142434	1.064686	0.000126
 188	1.8607e+01	7.4517	22.825965	0.000405	4.054754	1.373788	0.000162
 189	1.8706e+01	7.4934	23.003599	0.000446	4.460229	1.511167	0.000179
 190	1.8805e+01	7.5303	23.152973	0.000375	3.750647	1.270754	0.000150
 191	1.8905e+01	7.5688	23.286199	0.000335	3.345172	1.133375	0.000134
 192	1.9005e+01	7.6073	23.403276	0.000294	2.939697	0.995996	0.000118
 193	1.9104e+01	7.6490	23.584947	0.000456	4.561598	1.545511	0.000183
 194	1.9203e+01	7.6843	23.706061	0.000304	3.041065	1.030341	0.000122
 195	1.9303e+01	7.7356	23.879658	0.000436	4.358860	1.476822	0.000174
 196	1.9402e+01	7.7629	24.037106	0.000395	3.953385	1.339443	0.000158
 197	1.9502e+01	7.8046	24.198592	0.000405	4.054754	1.373788	0.000162
 198	1.9602e+01	7.8479	24.352003	0.000385	3.852016	1.305098	0.000154
 199	1.9701e+01	7.8864	24.549822	0.000497	4.967074	1.682890	0.000199
 200	1.9800e+01	7.9185	24.670936	0.000304	3.041065	1.030341	0.000122
 201	1.9900e+01	7.9650	24.812236	0.000355	3.547910	1.202064	0.000142
 202	2.0000e+01	8.0099	24.937387	0.000314	3.142434	1.064686	0.000126
 203	2.0099e+01	8.0420	25.123096	0.000466	4.662967	1.579856	0.000187
 204	2.0198e+01	8.0805	25.260358	0.000345	3.446541	1.167720	0.000138
 205	2.0298e+01	8.1222	25.389547	0.000324	3.243803	1.099030	0.000130
 206	2.0398e+01	8.1607	25.494512	0.000264	2.635590	0.892962	0.000105
 207	2.0497e+01	8.2024	25.660035	0.000416	4.156123	1.408133	0.000166
 208	2.0596e+01	8.2490	25.781149	0.000304	3.041065	1.030341	0.000122
 209	2.0696e+01	8.2827	25.922449	0.000355	3.547910	1.202064	0.000142
 210	2.0796e+01	8.3115	26.059711	0.000345	3.446541	1.167720	0.000138
 211	2.0895e+01	8.3597	26.237345	0.000446	4.460229	1.511167	0.000179
 212	2.0994e+01	8.4046	26.382682	0.000365	3.649279	1.236409	0.000146
 213	2.1094e+01	8.4383	26.548205	0.000416	4.156123	1.408133	0.000166
 214	2.1194e+01	8.4848	26.677393	0.000324	3.243803	1.099030	0.000130
 215	2.1293e+01	8.5233	26.842916	0.000416	4.156123	1.408133	0.000166
 216	2.1392e+01	8.5634	27.008438	0.000416	4.156123	1.408133	0.000166
 217	2.1492e+01	8.6035	27.190109	0.000456	4.561598	1.545511	0.000183
 218	2.1591e+01	8.6404	27.331409	0.000355	3.547910	1.202064	0.000142
 219	2.1691e+01	8.6869	27.476746	0.000365	3.649279	1.236409	0.000146
 220	2.1791e+01	8.7270	27.634194	0.000395	3.953385	1.339443	0.000158
 221	2.1890e+01	8.7639	27.755308	0.000304	3.041065	1.030341	0.000122
 222	2.1989e+01	8.8056	27.912756	0.000395	3.953385	1.339443	0.000158
 223	2.2089e+01	8.8506	28.029833	0.000294	2.939697	0.995996	0.000118
 224	2.2189e+01	8.8810	28.130762	0.000253	2.534221	0.858617	0.000101
 225	2.2288e+01	8.9131	28.292247	0.000405	4.054754	1.373788	0.000162
 226	2.2387e+01	8.9709	28.445658	0.000385	3.852016	1.305098	0.000154
 227	2.2487e+01	9.0014	28.619255	0.000436	4.358860	1.476822	0.000174
 228	2.2587e+01	9.0366	28.720184	0.000253	2.534221	0.858617	0.000101
 229	2.2686e+01	9.0800	28.857446	0.000345	3.446541	1.167720	0.000138
 230	2.2785e+01	9.1217	29.018932	0.000405	4.054754	1.373788	0.000162
 231	2.2885e+01	9.1586	29.188491	0.000426	4.257492	1.442477	0.000170
 232	2.2985e+01	9.2051	29.321717	0.000335	3.345172	1.133375	0.000134
 233	2.3084e+01	9.2436	29.503388	0.000456	4.561598	1.545511	0.000183
 234	2.3183e+01	9.2869	29.681022	0.000446	4.460229	1.511167	0.000179
 235	2.3283e+01	9.3174	29.838470	0.000395	3.953385	1.339443	0.000158
 236	2.3383e+01	9.3607	29.987844	0.000375	3.750647	1.270754	0.000150
 237	2.3482e+01	9.3960	30.121070	0.000335	3.345172	1.133375	0.000134
 238	2.3581e+01	9.4361	30.306778	0.000466	4.662967	1.579856	0.000187
 239	2.3681e+01	9.4730	30.427892	0.000304	3.041065	1.030341	0.000122
 240	2.3780e+01	9.5179	30.593415	0.000416	4.156123	1.408133	0.000166
 241	2.3880e+01	9.5612	30.670120	0.000193	1.926008	0.652549	0.000077
 242	2.3980e+01	9.5917	30.791234	0.000304	3.041065	1.030341	0.000122
 243	2.4079e+01	9.6318	30.952720	0.000405	4.054754	1.373788	0.000162
 244	2.4178e+01	9.6751	31.089982	0.000345	3.446541	1.167720	0.000138
 245	2.4278e+01	9.7233	31.239356	0.000375	3.750647	1.270754	0.000150
 246	2.4378e+01	9.7682	31.364508	0.000314	3.142434	1.064686	0.000126
 247	2.4477e+01	9.8003	31.538104	0.000436	4.358860	1.476822	0.000174
 248	2.4576e+01	9.8372	31.647107	0.000274	2.736959	0.927307	0.000110
 249	2.4676e+01	9.8837	31.816667	0.000426	4.257492	1.442477	0.000170
 250	2.4776e+01	9.9158	31.929707	0.000284	2.838328	0.961651	0.000114
 251	2.4875e+01	9.9591	32.111378	0.000456	4.561598	1.545511	0.000183
 252	2.4974e+01	9.9928	32.244603	0.000335	3.345172	1.133375	0.000134
 253	2.5074e+01	10.0345	32.450497	0.000517	5.169811	1.751579	0.000207
 254	2.5174e+01	10.0778	32.599871	0.000375	3.750647	1.270754	0.000150
 255	2.5273e+01	10.1163	32.805765	0.000517	5.169811	1.751579	0.000207
 256	2.5372e+01	10.1580	32.930916	0.000314	3.142434	1.064686	0.000126
 257	2.5472e+01	10.2029	33.064142	0.000335	3.345172	1.133375	0.000134
 258	2.5572e+01	10.2446	33.237739	0.000436	4.358860	1.476822	0.000174
 259	2.5671e+01	10.2847	33.346741	0.000274	2.736959	0.927307	0.000110
 260	2.5770e+01	10.3313	33.496115	0.000375	3.750647	1.270754	0.000150
 261	2.5870e+01	10.3617	33.617229	0.000304	3.041065	1.030341	0.000122
 262	2.5970e+01	10.4018	33.738343	0.000304	3.041065	1.030341	0.000122
 263	2.6069e+01	10.4452	33.875606	0.000345	3.446541	1.167720	0.000138
 264	2.6169e+01	10.4772	34.024980	0.000375	3.750647	1.270754	0.000150
 265	2.6268e+01	10.5174	34.162243	0.000345	3.446541	1.167720	0.000138
 266	2.6367e+01	10.5591	34.356025	0.000487	4.865705	1.648545	0.000195
 267	2.6467e+01	10.5879	34.485213	0.000324	3.243803	1.099030	0.000130
 268	2.6567e+01	10.6345	34.618439	0.000335	3.345172	1.133375	0.000134
 269	2.6666e+01	10.6762	34.755702	0.000345	3.446541	1.167720	0.000138
 270	2.6765e+01	10.7163	34.917187	0.000405	4.054754	1.373788	0.000162
 271	2.6865e+01	10.7612	35.074635	0.000395	3.953385	1.339443	0.000158
 272	2.6965e+01	10.7901	35.280529	0.000517	5.169811	1.751579	0.000207
 273	2.7064e+01	10.8382	35.429903	0.000375	3.750647	1.270754	0.000150
 274	2.7163e+01	10.8687	35.555054	0.000314	3.142434	1.064686	0.000126
 275	2.7263e+01	10.9232	35.696354	0.000355	3.547910	1.202064	0.000142
 276	2.7363e+01	10.9473	35.845728	0.000375	3.750647	1.270754	0.000150
 277	2.7462e+01	10.9922	35.970879	0.000314	3.142434	1.064686	0.000126
 278	2.7561e+01	11.0371	36.124291	0.000385	3.852016	1.305098	0.000154
 279	2.7661e+01	11.0772	36.217145	0.000233	2.331483	0.789928	0.000093
 280	2.7761e+01	11.1173	36.370556	0.000385	3.852016	1.305098	0.000154
 281	2.7860e+01	11.1494	36.515893	0.000365	3.649279	1.236409	0.000146
 282	2.7959e+01	11.2024	36.693527	0.000446	4.460229	1.511167	0.000179
 283	2.8059e+01	11.2280	36.814641	0.000304	3.041065	1.030341	0.000122
 284	2.8159e+01	11.2633	36.931718	0.000294	2.939697	0.995996	0.000118
 285	2.8258e+01	11.3066	37.121463	0.000476	4.764336	1.614201	0.000191
 286	2.8358e+01	11.3516	37.282949	0.000405	4.054754	1.373788	0.000162
 287	2.8457e+01	11.3981	37.363691	0.000203	2.027377	0.686894	0.000081
 288	2.8556e+01	11.4318	37.549399	0.000466	4.662967	1.579856	0.000187
 289	2.8656e+01	11.4687	37.702811	0.000385	3.852016	1.305098	0.000154
 290	2.8756e+01	11.5072	37.840073	0.000345	3.446541	1.167720	0.000138
 291	2.8855e+01	11.5505	37.993484	0.000385	3.852016	1.305098	0.000154
 292	2.8954e+01	11.5842	38.138821	0.000365	3.649279	1.236409	0.000146
 293	2.9054e+01	11.6291	38.243787	0.000264	2.635590	0.892962	0.000105
 294	2.9154e+01	11.6740	38.441606	0.000497	4.967074	1.682890	0.000199
 295	2.9253e+01	11.7109	38.603092	0.000405	4.054754	1.373788	0.000162
 296	2.9352e+01	11.7590	38.708057	0.000264	2.635590	0.892962	0.000105
 297	2.9452e+01	11.7895	38.873580	0.000416	4.156123	1.408133	0.000166
 298	2.9552e+01	11.8328	39.006806	0.000335	3.345172	1.133375	0.000134
 299	2.9651e+01	11.8713	39.131957	0.000314	3.142434	1.064686	0.000126
 300	2.9750e+01	11.9130	39.236922	0.000264	2.635590	0.892962	0.000105
 301	2.9850e+01	11.9419	39.366111	0.000324	3.243803	1.099030	0.000130
 302	2.9950e+01	11.9884	39.543745	0.000446	4.460229	1.511167	0.000179
 303	3.0049e+01	12.0317	39.681007	0.000345	3.446541	1.167720	0.000138
 304	3.0148e+01	12.0702	39.854604	0.000436	4.358860	1.476822	0.000174
 305	3.0248e+01	12.1136	39.967644	0.000284	2.838328	0.961651	0.000114
 306	3.0348e+01	12.1424	40.100869	0.000335	3.345172	1.133375	0.000134
 307	3.0447e+01	12.1890	40.262355	0.000405	4.054754	1.373788	0.000162
 308	3.0547e+01	12.2339	40.419803	0.000395	3.953385	1.339443	0.000158
 309	3.0646e+01	12.2676	40.561103	0.000355	3.547910	1.202064	0.000142
 310	3.0745e+01	12.3061	40.766997	0.000517	5.169811	1.751579	0.000207
 311	3.0845e+01	12.3526	40.896185	0.000324	3.243803	1.099030	0.000130
 312	3.0945e+01	12.3911	41.029411	0.000335	3.345172	1.133375	0.000134
 313	3.1044e+01	12.4296	41.247416	0.000547	5.473918	1.854614	0.000219
 314	3.1143e+01	12.4697	41.364493	0.000294	2.939697	0.995996	0.000118
 315	3.1243e+01	12.5018	41.457347	0.000233	2.331483	0.789928	0.000093
 316	3.1343e+01	12.5515	41.622869	0.000416	4.156123	1.408133	0.000166
 317	3.1442e+01	12.5836	41.723798	0.000253	2.534221	0.858617	0.000101
 318	3.1541e+01	12.6205	41.857023	0.000335	3.345172	1.133375	0.000134
 319	3.1641e+01	12.6686	41.994286	0.000345	3.446541	1.167720	0.000138
 320	3.1741e+01	12.7103	42.107326	0.000284	2.838328	0.961651	0.000114
 321	3.1840e+01	12.7472	42.252663	0.000365	3.649279	1.236409	0.000146
 322	3.1939e+01	12.7873	42.426259	0.000436	4.358860	1.476822	0.000174
 323	3.2039e+01	12.8339	42.571596	0.000365	3.649279	1.236409	0.000146
 324	3.2139e+01	12.8724	42.696748	0.000314	3.142434	1.064686	0.000126
 325	3.2238e+01	12.9044	42.842084	0.000365	3.649279	1.236409	0.000146
 326	3.2337e+01	12.9381	42.987421	0.000365	3.649279	1.236409	0.000146
 327	3.2437e+01	12.9798	43.152944	0.000416	4.156123	1.408133	0.000166
 328	3.2536e+01	13.0200	43.318466	0.000416	4.156123	1.408133	0.000166
 329	3.2636e+01	13.0569	43.500138	0.000456	4.561598	1.545511	0.000183
 330	3.2736e+01	13.1146	43.645474	0.000365	3.649279	1.236409	0.000146
 331	3.2835e+01	13.1339	43.770626	0.000314	3.142434	1.064686	0.000126
 332	3.2934e+01	13.1852	43.911925	0.000355	3.547910	1.202064	0.000142
 333	3.3034e+01	13.2125	44.041114	0.000324	3.243803	1.099030	0.000130
 334	3.3133e+01	13.2718	44.198562	0.000395	3.953385	1.339443	0.000158
 335	3.3233e+01	13.3023	44.319676	0.000304	3.041065	1.030341	0.000122
 336	3.3333e+01	13.3488	44.436753	0.000294	2.939697	0.995996	0.000118
 337	3.3432e+01	13.3873	44.569979	0.000335	3.345172	1.133375	0.000134
 338	3.3532e+01	13.4130	44.703204	0.000335	3.345172	1.133375	0.000134
 339	3.3631e+01	13.4691	44.844504	0.000355	3.547910	1.202064	0.000142
 340	3.3730e+01	13.5028	44.997915	0.000385	3.852016	1.305098	0.000154
 341	3.3830e+01	13.5413	45.187660	0.000476	4.764336	1.614201	0.000191
 342	3.3929e+01	13.5718	45.300700	0.000284	2.838328	0.961651	0.000114
 343	3.4029e+01	13.6231	45.429888	0.000324	3.243803	1.099030	0.000130
 344	3.4129e+01	13.6536	45.599448	0.000426	4.257492	1.442477	0.000170
 345	3.4228e+01	13.6969	45.688265	0.000223	2.230115	0.755583	0.000089
 346	3.4328e+01	13.7403	45.882048	0.000487	4.865705	1.648545	0.000195
 347	3.4427e+01	13.7868	46.043533	0.000405	4.054754	1.373788	0.000162
 348	3.4526e+01	13.8189	46.237316	0.000487	4.865705	1.648545	0.000195
 349	3.4626e+01	13.8590	46.382652	0.000365	3.649279	1.236409	0.000146
 350	3.4725e+01	13.8975	46.495692	0.000284	2.838328	0.961651	0.000114
 351	3.4825e+01	13.9424	46.641029	0.000365	3.649279	1.236409	0.000146
 352	3.4925e+01	13.9905	46.754069	0.000284	2.838328	0.961651	0.000114
 353	3.5024e+01	14.0274	46.887294	0.000335	3.345172	1.133375	0.000134
 354	3.5123e+01	14.0579	46.964000	0.000193	1.926008	0.652549	0.000077
 355	3.5223e+01	14.1012	47.133560	0.000426	4.257492	1.442477	0.000170
 356	3.5322e+01	14.1397	47.299082	0.000416	4.156123	1.408133	0.000166
 357	3.5422e+01	14.1862	47.460568	0.000405	4.054754	1.373788	0.000162
 358	3.5522e+01	14.2215	47.585719	0.000314	3.142434	1.064686	0.000126
 359	3.5621e+01	14.2632	47.755279	0.000426	4.257492	1.442477	0.000170
 360	3.5721e+01	14.2921	47.840058	0.000213	2.128746	0.721239	0.000085
 361	3.5820e+01	14.3370	48.005581	0.000416	4.156123	1.408133	0.000166
 362	3.5919e+01	14.3771	48.142844	0.000345	3.446541	1.167720	0.000138
 363	3.6019e+01	14.4237	48.292218	0.000375	3.750647	1.270754	0.000150
 364	3.6118e+01	14.4509	48.461777	0.000426	4.257492	1.442477	0.000170
 365	3.6218e+01	14.5087	48.623263	0.000405	4.054754	1.373788	0.000162
 366	3.6318e+01	14.5392	48.804934	0.000456	4.561598	1.545511	0.000183
 367	3.6417e+01	14.5761	48.938159	0.000335	3.345172	1.133375	0.000134
 368	3.6517e+01	14.6178	49.111756	0.000436	4.358860	1.476822	0.000174
 369	3.6616e+01	14.6611	49.261130	0.000375	3.750647	1.270754	0.000150
 370	3.6715e+01	14.7044	49.398393	0.000345	3.446541	1.167720	0.000138
 371	3.6815e+01	14.7349	49.499321	0.000253	2.534221	0.858617	0.000101
 372	3.6914e+01	14.7734	49.652732	0.000385	3.852016	1.305098	0.000154
 373	3.7014e+01	14.8359	49.765772	0.000284	2.838328	0.961651	0.000114
 374	3.7114e+01	14.8536	49.923221	0.000395	3.953385	1.339443	0.000158
 375	3.7213e+01	14.8985	50.064520	0.000355	3.547910	1.202064	0.000142
 376	3.7313e+01	14.9322	50.205820	0.000355	3.547910	1.202064	0.000142
 377	3.7412e+01	14.9707	50.375380	0.000426	4.257492	1.442477	0.000170
 378	3.7511e+01	15.0220	50.480345	0.000264	2.635590	0.892962	0.000105
 379	3.7611e+01	15.0637	50.662016	0.000456	4.561598	1.545511	0.000183
 380	3.7711e+01	15.0910	50.771019	0.000274	2.736959	0.927307	0.000110
 381	3.7810e+01	15.1327	50.936542	0.000416	4.156123	1.408133	0.000166
 382	3.7910e+01	15.1793	51.077841	0.000355	3.547910	1.202064	0.000142
 383	3.8009e+01	15.2081	51.243364	0.000416	4.156123	1.408133	0.000166
 384	3.8108e+01	15.2514	51.380627	0.000345	3.446541	1.167720	0.000138
 385	3.8208e+01	15.2899	51.538075	0.000395	3.953385	1.339443	0.000158
 386	3.8307e+01	15.3284	51.739932	0.000507	5.068442	1.717235	0.000203
 387	3.8407e+01	15.3750	51.877194	0.000345	3.446541	1.167720	0.000138
 388	3.8507e+01	15.4183	51.994271	0.000294	2.939697	0.995996	0.000118
 389	3.8606e+01	15.4520	52.091162	0.000243	2.432852	0.824273	0.000097
 390	3.8706e+01	15.4873	52.260722	0.000426	4.257492	1.442477	0.000170
 391	3.8805e+01	15.5274	52.365688	0.000264	2.635590	0.892962	0.000105
 392	3.8904e+01	15.5915	52.519099	0.000385	3.852016	1.305098	0.000154
 393	3.9004e+01	15.6156	52.632139	0.000284	2.838328	0.961651	0.000114
 394	3.9103e+01	15.6509	52.825921	0.000487	4.865705	1.648545	0.000195
 395	3.9203e+01	15.6926	52.951072	0.000314	3.142434	1.064686	0.000126
 396	3.9303e+01	15.7391	53.116595	0.000416	4.156123	1.408133	0.000166
 397	3.9402e+01	15.7744	53.241746	0.000314	3.142434	1.064686	0.000126
 398	3.9502e+01	15.8161	53.391120	0.000375	3.750647	1.270754	0.000150
 399	3.9601e+01	15.8498	53.552606	0.000405	4.054754	1.373788	0.000162
 400	3.9700e+01	15.8996	53.689868	0.000345	3.446541	1.167720	0.000138
 401	3.9800e+01	15.9300	53.831168	0.000355	3.547910	1.202064	0.000142
 402	3.9900e+01	15.9701	54.000728	0.000426	4.257492	1.442477	0.000170
 403	3.9999e+01	16.0054	54.154139	0.000385	3.852016	1.305098	0.000154
 404	4.0099e+01	16.0520	54.299476	0.000365	3.649279	1.236409	0.000146
 405	4.0198e+01	16.0921	54.444813	0.000365	3.649279	1.236409	0.000146
 406	4.0297e+01	16.1322	54.586112	0.000355	3.547910	1.202064	0.000142
 407	4.0397e+01	16.1771	54.719338	0.000335	3.345172	1.133375	0.000134
 408	4.0496e+01	16.2140	54.816229	0.000243	2.432852	0.824273	0.000097
 409	4.0596e+01	16.2541	54.985789	0.000426	4.257492	1.442477	0.000170
 410	4.0696e+01	16.2814	55.074606	0.000223	2.230115	0.755583	0.000089
 411	4.0795e+01	16.3407	55.219943	0.000365	3.649279	1.236409	0.000146
 412	4.0895e+01	16.3744	55.397577	0.000446	4.460229	1.511167	0.000179
 413	4.0994e+01	16.4065	55.514654	0.000294	2.939697	0.995996	0.000118
 414	4.1093e+01	16.4562	55.651916	0.000345	3.446541	1.167720	0.000138
 415	4.1193e+01	16.4851	55.813402	0.000405	4.054754	1.373788	0.000162
 416	4.1292e+01	16.5348	55.950664	0.000345	3.446541	1.167720	0.000138
 417	4.1392e+01	16.5669	56.096001	0.000365	3.649279	1.236409	0.000146
 418	4.1492e+01	16.6134	56.221152	0.000314	3.142434	1.064686	0.000126
 419	4.1591e+01	16.6487	56.447232	0.000568	5.676655	1.923303	0.000227
 420	4.1691e+01	16.6953	56.584495	0.000345	3.446541	1.167720	0.000138
 421	4.1790e+01	16.7321	56.717720	0.000335	3.345172	1.133375	0.000134
 422	4.1889e+01	16.7739	56.875168	0.000395	3.953385	1.339443	0.000158
 423	4.1989e+01	16.8059	56.984171	0.000274	2.736959	0.927307	0.000110
 424	4.2089e+01	16.8541	57.137582	0.000385	3.852016	1.305098	0.000154
 425	4.2188e+01	16.8942	57.286956	0.000375	3.750647	1.270754	0.000150
 426	4.2288e+01	16.9295	57.387885	0.000253	2.534221	0.858617	0.000101
 427	4.2387e+01	16.9599	57.549370	0.000405	4.054754	1.373788	0.000162
 428	4.2486e+01	17.0017	57.662410	0.000284	2.838328	0.961651	0.000114
 429	4.2586e+01	17.0466	57.803709	0.000355	3.547910	1.202064	0.000142
 430	4.2685e+01	17.0931	57.957121	0.000385	3.852016	1.305098	0.000154
 431	4.2785e+01	17.1284	58.122643	0.000416	4.156123	1.408133	0.000166
 432	4.2885e+01	17.1669	58.259906	0.000345	3.446541	1.167720	0.000138
 433	4.2984e+01	17.2022	58.356797	0.000243	2.432852	0.824273	0.000097
 434	4.3084e+01	17.2439	58.578840	0.000558	5.575287	1.888958	0.000223
 435	4.3183e+01	17.2888	58.699954	0.000304	3.041065	1.030341	0.000122
 436	4.3282e+01	17.3241	58.873550	0.000436	4.358860	1.476822	0.000174
 437	4.3382e+01	17.3690	59.039073	0.000416	4.156123	1.408133	0.000166
 438	4.3481e+01	17.4027	59.172299	0.000335	3.345172	1.133375	0.000134
 439	4.3581e+01	17.4524	59.317635	0.000365	3.649279	1.236409	0.000146
 440	4.3681e+01	17.4861	59.458935	0.000355	3.547910	1.202064	0.000142
 441	4.3780e+01	17.5327	59.604272	0.000365	3.649279	1.236409	0.000146
 442	4.3880e+01	17.5760	59.765757	0.000405	4.054754	1.373788	0.000162
 443	4.3979e+01	17.6065	59.911094	0.000365	3.649279	1.236409	0.000146
 444	4.4078e+01	17.6450	60.007986	0.000243	2.432852	0.824273	0.000097
 445	4.4178e+01	17.6995	60.137174	0.000324	3.243803	1.099030	0.000130
 446	4.4278e+01	17.7220	60.213880	0.000193	1.926008	0.652549	0.000077
 447	4.4377e+01	17.7621	60.351142	0.000345	3.446541	1.167720	0.000138
 448	4.4477e+01	17.8070	60.496479	0.000365	3.649279	1.236409	0.000146
 449	4.4576e+01	17.8455	60.682187	0.000466	4.662967	1.579856	0.000187
 450	4.4675e+01	17.8936	60.754856	0.000182	1.824639	0.618205	0.000073
 451	4.4775e+01	17.9305	60.924415	0.000426	4.257492	1.442477	0.000170
 452	4.4874e+01	17.9642	61.089938	0.000416	4.156123	1.408133	0.000166
 453	4.4974e+01	17.9995	61.223163	0.000335	3.345172	1.133375	0.000134
 454	4.5074e+01	18.0476	61.384649	0.000405	4.054754	1.373788	0.000162
 455	4.5173e+01	18.0845	61.513837	0.000324	3.243803	1.099030	0.000130
 456	4.5273e+01	18.1134	61.671286	0.000395	3.953385	1.339443	0.000158
 457	4.5372e+01	18.1615	61.816622	0.000365	3.649279	1.236409	0.000146
 458	4.5471e+01	18.1952	62.006368	0.000476	4.764336	1.614201	0.000191
 459	4.5571e+01	18.2369	62.103259	0.000243	2.432852	0.824273	0.000097
 460	4.5670e+01	18.2770	62.212262	0.000274	2.736959	0.927307	0.000110
 461	4.5770e+01	18.3187	62.406044	0.000487	4.865705	1.648545	0.000195
 462	4.5870e+01	18.3685	62.527158	0.000304	3.041065	1.030341	0.000122
 463	4.5969e+01	18.3941	62.668458	0.000355	3.547910	1.202064	0.000142
 464	4.6069e+01	18.4407	62.773424	0.000264	2.635590	0.892962	0.000105
 465	4.6168e+01	18.4792	62.894538	0.000304	3.041065	1.030341	0.000122
 466	4.6267e+01	18.5241	63.007577	0.000284	2.838328	0.961651	0.000114
 467	4.6367e+01	18.5626	63.148877	0.000355	3.547910	1.202064	0.000142
 468	4.6467e+01	18.6075	63.269991	0.000304	3.041065	1.030341	0.000122
 469	4.6566e+01	18.6396	63.427440	0.000395	3.953385	1.339443	0.000158
 470	4.6666e+01	18.6861	63.601036	0.000436	4.358860	1.476822	0.000174
 471	4.6765e+01	18.7182	63.726188	0.000314	3.142434	1.064686	0.000126
 472	4.6864e+01	18.7631	63.903822	0.000446	4.460229	1.511167	0.000179
 473	4.6964e+01	18.8096	64.033010	0.000324	3.243803	1.099030	0.000130
 474	4.7063e+01	18.8417	64.202570	0.000426	4.257492	1.442477	0.000170
 475	4.7163e+01	18.8802	64.347907	0.000365	3.649279	1.236409	0.000146
 476	4.7263e+01	18.9219	64.505355	0.000395	3.953385	1.339443	0.000158
 477	4.7362e+01	18.9684	64.614357	0.000274	2.736959	0.927307	0.000110
 478	4.7462e+01	18.9973	64.763732	0.000375	3.750647	1.270754	0.000150
 479	4.7561e+01	19.0390	64.945403	0.000456	4.561598	1.545511	0.000183
 480	4.7660e+01	19.0920	65.042294	0.000243	2.432852	0.824273	0.000097
 481	4.7760e+01	19.1192	65.163408	0.000304	3.041065	1.030341	0.000122
 482	4.7859e+01	19.1561	65.288559	0.000314	3.142434	1.064686	0.000126
 483	4.7959e+01	19.2075	65.441970	0.000385	3.852016	1.305098	0.000154
 484	4.8059e+01	19.2524	65.534824	0.000233	2.331483	0.789928	0.000093
 485	4.8158e+01	19.2781	65.720533	0.000466	4.662967	1.579856	0.000187
 486	4.8258e+01	19.3230	65.841647	0.000304	3.041065	1.030341	0.000122
 487	4.8357e+01	19.3599	65.954687	0.000284	2.838328	0.961651	0.000114
 488	4.8456e+01	19.3968	66.095986	0.000355	3.547910	1.202064	0.000142
 489	4.8556e+01	19.4433	66.301880	0.000517	5.169811	1.751579	0.000207
 490	4.8656e+01	19.4770	66.439143	0.000345	3.446541	1.167720	0.000138
 491	4.8755e+01	19.5155	66.568331	0.000324	3.243803	1.099030	0.000130
 492	4.8855e+01	19.5588	66.737891	0.000426	4.257492	1.442477	0.000170
 493	4.8954e+01	19.5925	66.871116	0.000335	3.345172	1.133375	0.000134
 494	4.9053e+01	19.6342	67.020490	0.000375	3.750647	1.270754	0.000150
 495	4.9153e+01	19.6727	67.133530	0.000284	2.838328	0.961651	0.000114
 496	4.9252e+01	19.7144	67.299053	0.000416	4.156123	1.408133	0.000166
 497	4.9352e+01	19.7593	67.436315	0.000345	3.446541	1.167720	0.000138
 498	4.9452e+01	19.8010	67.565504	0.000324	3.243803	1.099030	0.000130
 499	4.9551e+01	19.8267	67.735063	0.000426	4.257492	1.442477	0.000170
 500	4.9651e+01	19.8716	67.844066	0.000274	2.736959	0.927307	0.000110
 501	4.9750e+01	19.9230	67.965180	0.000304	3.041065	1.030341	0.000122
 502	4.9849e+01	19.9583	68.074183	0.000274	2.736959	0.927307	0.000110
 503	4.9949e+01	19.9952	68.219520	0.000365	3.649279	1.236409	0.000146
 504	5.0048e+01	19.9502	68.138777	0.000203	2.027377	0.686894	-0.000081
 505	5.0148e+01	19.9198	68.058034	0.000203	2.027377	0.686894	-0.000081
 506	5.0248e+01	19.8732	67.940957	0.000294	2.939697	0.995996	-0.000118
 507	5.0347e+01	19.8331	67.868289	0.000182	1.824639	0.618205	-0.000073
 508	5.0447e+01	19.8059	67.819843	0.000122	1.216426	0.412136	-0.000049
 509	5.0546e+01	19.7561	67.718915	0.000253	2.534221	0.858617	-0.000101
 510	5.0645e+01	19.7256	67.638172	0.000203	2.027377	0.686894	-0.000081
 511	5.0745e+01	19.6743	67.521095	0.000294	2.939697	0.995996	-0.000118
 512	5.0844e+01	19.6310	67.412093	0.000274	2.736959	0.927307	-0.000110
 513	5.0944e+01	19.6005	67.311164	0.000253	2.534221	0.858617	-0.000101
 514	5.1044e+01	19.5572	67.177939	0.000335	3.345172	1.133375	-0.000134
 515	5.1143e+01	19.5171	67.097196	0.000203	2.027377	0.686894	-0.000081
 516	5.1242e+01	19.4754	67.004342	0.000233	2.331483	0.789928	-0.000093
 517	5.1342e+01	19.4401	66.899376	0.000264	2.635590	0.892962	-0.000105
 518	5.1441e+01	19.3952	66.774225	0.000314	3.142434	1.064686	-0.000126
 519	5.1541e+01	19.3631	66.657148	0.000294	2.939697	0.995996	-0.000118
 520	5.1641e+01	19.3246	66.491626	0.000416	4.156123	1.408133	-0.000166
 521	5.1740e+01	19.2749	66.402809	0.000223	2.230115	0.755583	-0.000089
 522	5.1840e+01	19.2428	66.293806	0.000274	2.736959	0.927307	-0.000110
 523	5.1939e+01	19.1995	66.108098	0.000466	4.662967	1.579856	-0.000187
 524	5.2038e+01	19.1642	66.047541	0.000152	1.520533	0.515170	-0.000061
 525	5.2138e+01	19.1128	65.946612	0.000253	2.534221	0.858617	-0.000101
 526	5.2237e+01	19.0695	65.869907	0.000193	1.926008	0.652549	-0.000077
 527	5.2337e+01	19.0422	65.785127	0.000213	2.128746	0.721239	-0.000085
 528	5.2437e+01	19.0053	65.655939	0.000324	3.243803	1.099030	-0.000130
 529	5.2536e+01	18.9572	65.542899	0.000284	2.838328	0.961651	-0.000114
 530	5.2636e+01	18.9203	65.454082	0.000223	2.230115	0.755583	-0.000089
 531	5.2735e+01	18.8770	65.316819	0.000345	3.446541	1.167720	-0.000138
 532	5.2834e+01	18.8449	65.240114	0.000193	1.926008	0.652549	-0.000077
 533	5.2934e+01	18.8000	65.123037	0.000294	2.939697	0.995996	-0.000118
 534	5.3033e+01	18.7647	65.014034	0.000274	2.736959	0.927307	-0.000110
 535	5.3133e+01	18.7262	64.824289	0.000476	4.764336	1.614201	-0.000191
 536	5.3233e+01	18.6861	64.755657	0.000172	1.723270	0.583860	-0.000069
 537	5.3332e+01	18.6476	64.666840	0.000223	2.230115	0.755583	-0.000089
 538	5.3431e+01	18.6059	64.460946	0.000517	5.169811	1.751579	-0.000207
 539	5.3531e+01	18.5642	64.376166	0.000213	2.128746	0.721239	-0.000085
 540	5.3630e+01	18.5257	64.242941	0.000335	3.345172	1.133375	-0.000134
 541	5.3730e+01	18.4856	64.125864	0.000294	2.939697	0.995996	-0.000118
 542	5.3830e+01	18.4551	64.033010	0.000233	2.331483	0.789928	-0.000093
 543	5.3929e+01	18.3925	63.944193	0.000223	2.230115	0.755583	-0.000089
 544	5.4029e+01	18.3588	63.851339	0.000233	2.331483	0.789928	-0.000093
 545	5.4128e+01	18.3219	63.762522	0.000223	2.230115	0.755583	-0.000089
 546	5.4227e+01	18.2834	63.617185	0.000365	3.649279	1.236409	-0.000146
 547	5.4327e+01	18.2417	63.496071	0.000304	3.041065	1.030341	-0.000122
 548	5.4426e+01	18.2080	63.387068	0.000274	2.736959	0.927307	-0.000110
 549	5.4526e+01	18.1663	63.278066	0.000274	2.736959	0.927307	-0.000110
 550	5.4626e+01	18.1230	63.148877	0.000324	3.243803	1.099030	-0.000130
 551	5.4725e+01	18.0829	63.035837	0.000284	2.838328	0.961651	-0.000114
 552	5.4825e+01	18.0476	62.898575	0.000345	3.446541	1.167720	-0.000138
 553	5.4924e+01	17.9947	62.781498	0.000294	2.939697	0.995996	-0.000118
 554	5.5023e+01	17.9674	62.672495	0.000274	2.736959	0.927307	-0.000110
 555	5.5123e+01	17.9193	62.527158	0.000365	3.649279	1.236409	-0.000146
 556	5.5222e+01	17.8808	62.397970	0.000324	3.243803	1.099030	-0.000130
 557	5.5322e+01	17.8471	62.252633	0.000365	3.649279	1.236409	-0.000146
 558	5.5422e+01	17.8102	62.119408	0.000335	3.345172	1.133375	-0.000134
 559	5.5521e+01	17.7701	62.042702	0.000193	1.926008	0.652549	-0.000077
 560	5.5620e+01	17.7236	61.905439	0.000345	3.446541	1.167720	-0.000138
 561	5.5720e+01	17.6851	61.820660	0.000213	2.128746	0.721239	-0.000085
 562	5.5819e+01	17.6514	61.723768	0.000243	2.432852	0.824273	-0.000097
 563	5.5919e+01	17.6065	61.574394	0.000375	3.750647	1.270754	-0.000150
 564	5.6019e+01	17.5615	61.465392	0.000274	2.736959	0.927307	-0.000110
 565	5.6118e+01	17.5262	61.372537	0.000233	2.331483	0.789928	-0.000093
 566	5.6218e+01	17.4861	61.219126	0.000385	3.852016	1.305098	-0.000154
 567	5.6317e+01	17.4412	61.126272	0.000233	2.331483	0.789928	-0.000093
 568	5.6416e+01	17.4075	60.989010	0.000345	3.446541	1.167720	-0.000138
 569	5.6516e+01	17.3626	60.867896	0.000304	3.041065	1.030341	-0.000122
 570	5.6615e+01	17.3257	60.722559	0.000365	3.649279	1.236409	-0.000146
 571	5.6715e+01	17.2888	60.617593	0.000264	2.635590	0.892962	-0.000105
 572	5.6815e+01	17.2471	60.500516	0.000294	2.939697	0.995996	-0.000118
 573	5.6914e+01	17.2070	60.351142	0.000375	3.750647	1.270754	-0.000150
 574	5.7014e+01	17.1669	60.225991	0.000314	3.142434	1.064686	-0.000126
 575	5.7113e+01	17.1316	60.080654	0.000365	3.649279	1.236409	-0.000146
 576	5.7212e+01	17.0867	59.903020	0.000446	4.460229	1.511167	-0.000179
 577	5.7312e+01	17.0450	59.814203	0.000223	2.230115	0.755583	-0.000089
 578	5.7411e+01	17.0049	59.741535	0.000182	1.824639	0.618205	-0.000073
 579	5.7511e+01	16.9744	59.620421	0.000304	3.041065	1.030341	-0.000122
 580	5.7611e+01	16.9279	59.527566	0.000233	2.331483	0.789928	-0.000093
 581	5.7710e+01	16.8846	59.386267	0.000355	3.547910	1.202064	-0.000142
 582	5.7809e+01	16.8412	59.281301	0.000264	2.635590	0.892962	-0.000105
 583	5.7909e+01	16.8108	59.135964	0.000365	3.649279	1.236409	-0.000146
 584	5.8008e+01	16.7642	58.994665	0.000355	3.547910	1.202064	-0.000142
 585	5.8108e+01	16.7321	58.901810	0.000233	2.331483	0.789928	-0.000093
 586	5.8208e+01	16.6888	58.748399	0.000385	3.852016	1.305098	-0.000154
 587	5.8307e+01	16.6471	58.639397	0.000274	2.736959	0.927307	-0.000110
 588	5.8407e+01	16.6102	58.522320	0.000294	2.939697	0.995996	-0.000118
 589	5.8506e+01	16.5733	58.385057	0.000345	3.446541	1.167720	-0.000138
 590	5.8605e+01	16.5300	58.255869	0.000324	3.243803	1.099030	-0.000130
 591	5.8705e+01	16.4915	58.122643	0.000335	3.345172	1.133375	-0.000134
 592	5.8804e+01	16.4562	58.041901	0.000203	2.027377	0.686894	-0.000081
 593	5.8904e+01	16.4177	57.860229	0.000456	4.561598	1.545511	-0.000183
 594	5.9004e+01	16.3680	57.718930	0.000355	3.547910	1.202064	-0.000142
 595	5.9103e+01	16.3343	57.569556	0.000375	3.750647	1.270754	-0.000150
 596	5.9203e+01	16.2894	57.464590	0.000264	2.635590	0.892962	-0.000105
 597	5.9302e+01	16.2493	57.412107	0.000132	1.317795	0.446481	-0.000053
 598	5.9401e+01	16.2092	57.266770	0.000365	3.649279	1.236409	-0.000146
 599	5.9501e+01	16.1594	57.157768	0.000274	2.736959	0.927307	-0.000110
 600	5.9600e+01	16.1257	57.008394	0.000375	3.750647	1.270754	-0.000150
 601	5.9700e+01	16.0937	56.879205	0.000324	3.243803	1.099030	-0.000130
 602	5.9800e+01	16.0536	56.786351	0.000233	2.331483	0.789928	-0.000093
 603	5.9899e+01	16.0102	56.628903	0.000395	3.953385	1.339443	-0.000158
 604	5.9998e+01	15.9782	56.507789	0.000304	3.041065	1.030341	-0.000122
 605	6.0098e+01	15.9300	56.402823	0.000264	2.635590	0.892962	-0.000105
 606	6.0197e+01	15.8979	56.253449	0.000375	3.750647	1.270754	-0.000150
 607	6.0297e+01	15.8450	56.136372	0.000294	2.939697	0.995996	-0.000118
 608	6.0397e+01	15.8145	56.051593	0.000213	2.128746	0.721239	-0.000085
 609	6.0496e+01	15.7792	55.926441	0.000314	3.142434	1.064686	-0.000126
 610	6.0596e+01	15.7343	55.777067	0.000375	3.750647	1.270754	-0.000150
 611	6.0695e+01	15.6958	55.639805	0.000345	3.446541	1.167720	-0.000138
 612	6.0794e+01	15.6621	55.518691	0.000304	3.041065	1.030341	-0.000122
 613	6.0894e+01	15.6172	55.332982	0.000466	4.662967	1.579856	-0.000187
 614	6.0993e+01	15.5723	55.199757	0.000335	3.345172	1.133375	-0.000134
 615	6.1093e+01	15.5370	55.123051	0.000193	1.926008	0.652549	-0.000077
 616	6.1193e+01	15.4873	54.957529	0.000416	4.156123	1.408133	-0.000166
 617	6.1292e+01	15.4504	54.856600	0.000253	2.534221	0.858617	-0.000101
 618	6.1392e+01	15.4151	54.723375	0.000335	3.345172	1.133375	-0.000134
 619	6.1491e+01	15.3734	54.586112	0.000345	3.446541	1.167720	-0.000138
 620	6.1590e+01	15.3365	54.464998	0.000304	3.041065	1.030341	-0.000122
 621	6.1690e+01	15.2899	54.295439	0.000426	4.257492	1.442477	-0.000170
 622	6.1789e+01	15.2482	54.194510	0.000253	2.534221	0.858617	-0.000101
 623	6.1889e+01	15.2178	54.049173	0.000365	3.649279	1.236409	-0.000146
 624	6.1989e+01	15.1841	53.919985	0.000324	3.243803	1.099030	-0.000130
 625	6.2088e+01	15.1359	53.802908	0.000294	2.939697	0.995996	-0.000118
 626	6.2188e+01	15.0926	53.673720	0.000324	3.243803	1.099030	-0.000130
 627	6.2287e+01	15.0589	53.568754	0.000264	2.635590	0.892962	-0.000105
 628	6.2386e+01	15.0156	53.395157	0.000436	4.358860	1.476822	-0.000174
 629	6.2486e+01	14.9739	53.278080	0.000294	2.939697	0.995996	-0.000118
 630	6.2586e+01	14.9322	53.116595	0.000405	4.054754	1.373788	-0.000162
 631	6.2685e+01	14.9017	52.987407	0.000324	3.243803	1.099030	-0.000130
 632	6.2785e+01	14.8584	52.874367	0.000284	2.838328	0.961651	-0.000114
 633	6.2884e+01	14.8151	52.729030	0.000365	3.649279	1.236409	-0.000146
 634	6.2983e+01	14.7814	52.591767	0.000345	3.446541	1.167720	-0.000138
 635	6.3083e+01	14.7333	52.450468	0.000355	3.547910	1.202064	-0.000142
 636	6.3182e+01	14.6948	52.377799	0.000182	1.824639	0.618205	-0.000073
 637	6.3282e+01	14.6627	52.204202	0.000436	4.358860	1.476822	-0.000174
 638	6.3382e+01	14.6194	52.070977	0.000335	3.345172	1.133375	-0.000134
 639	6.3481e+01	14.5761	51.945826	0.000314	3.142434	1.064686	-0.000126
 640	6.3581e+01	14.5376	51.820674	0.000314	3.142434	1.064686	-0.000126
 641	6.3680e+01	14.4862	51.695523	0.000314	3.142434	1.064686	-0.000126
 642	6.3779e+01	14.4541	51.610743	0.000213	2.128746	0.721239	-0.000085
 643	6.3879e+01	14.4253	51.416961	0.000487	4.865705	1.648545	-0.000195
 644	6.3978e+01	14.3723	51.303921	0.000284	2.838328	0.961651	-0.000114
 645	6.4078e+01	14.3354	51.170695	0.000335	3.345172	1.133375	-0.000134
 646	6.4177e+01	14.2889	51.017284	0.000385	3.852016	1.305098	-0.000154
 647	6.4277e+01	14.2552	50.884059	0.000335	3.345172	1.133375	-0.000134
 648	6.4376e+01	14.2215	50.775056	0.000274	2.736959	0.927307	-0.000110
 649	6.4476e+01	14.1798	50.637794	0.000345	3.446541	1.167720	-0.000138
 650	6.4576e+01	14.1317	50.496494	0.000355	3.547910	1.202064	-0.000142
 651	6.4675e+01	14.1076	50.391528	0.000264	2.635590	0.892962	-0.000105
 652	6.4775e+01	14.0531	50.254266	0.000345	3.446541	1.167720	-0.000138
 653	6.4874e+01	14.0210	50.108929	0.000365	3.649279	1.236409	-0.000146
 654	6.4974e+01	13.9713	49.995889	0.000284	2.838328	0.961651	-0.000114
 655	6.5073e+01	13.9488	49.830366	0.000416	4.156123	1.408133	-0.000166
 656	6.5172e+01	13.8991	49.705215	0.000314	3.142434	1.064686	-0.000126
 657	6.5272e+01	13.8574	49.588138	0.000294	2.939697	0.995996	-0.000118
 658	6.5371e+01	13.8269	49.438764	0.000375	3.750647	1.270754	-0.000150
 659	6.5471e+01	13.7836	49.341873	0.000243	2.432852	0.824273	-0.000097
 660	6.5570e+01	13.7370	49.180388	0.000405	4.054754	1.373788	-0.000162
 661	6.5670e+01	13.7050	49.022939	0.000395	3.953385	1.339443	-0.000158
 662	6.5769e+01	13.6616	48.930085	0.000233	2.331483	0.789928	-0.000093
 663	6.5869e+01	13.6296	48.796860	0.000335	3.345172	1.133375	-0.000134
 664	6.5969e+01	13.5766	48.631337	0.000416	4.156123	1.408133	-0.000166
 665	6.6068e+01	13.5461	48.510223	0.000304	3.041065	1.030341	-0.000122
 666	6.6168e+01	13.4964	48.401220	0.000274	2.736959	0.927307	-0.000110
 667	6.6267e+01	13.4643	48.255883	0.000365	3.649279	1.236409	-0.000146
 668	6.6367e+01	13.4242	48.171104	0.000213	2.128746	0.721239	-0.000085
 669	6.6466e+01	13.3841	47.981358	0.000476	4.764336	1.614201	-0.000191
 670	6.6566e+01	13.3536	47.876393	0.000264	2.635590	0.892962	-0.000105
 671	6.6665e+01	13.2991	47.759316	0.000294	2.939697	0.995996	-0.000118
 672	6.6764e+01	13.2590	47.638202	0.000304	3.041065	1.030341	-0.000122
 673	6.6864e+01	13.2221	47.484791	0.000385	3.852016	1.305098	-0.000154
 674	6.6963e+01	13.1868	47.363676	0.000304	3.041065	1.030341	-0.000122
 675	6.7063e+01	13.1451	47.198154	0.000416	4.156123	1.408133	-0.000166
 676	6.7162e+01	13.1034	47.044743	0.000385	3.852016	1.305098	-0.000154
 677	6.7262e+01	13.0585	46.951889	0.000233	2.331483	0.789928	-0.000093
 678	6.7362e+01	13.0264	46.774255	0.000446	4.460229	1.511167	-0.000179
 679	6.7461e+01	12.9798	46.649103	0.000314	3.142434	1.064686	-0.000126
 680	6.7561e+01	12.9365	46.532027	0.000294	2.939697	0.995996	-0.000118
 681	6.7660e+01	12.9173	46.378615	0.000385	3.852016	1.305098	-0.000154
 682	6.7760e+01	12.8724	46.273650	0.000264	2.635590	0.892962	-0.000105
 683	6.7859e+01	12.8226	46.116202	0.000395	3.953385	1.339443	-0.000158
 684	6.7959e+01	12.7905	45.999125	0.000294	2.939697	0.995996	-0.000118
 685	6.8058e+01	12.7488	45.845713	0.000385	3.852016	1.305098	-0.000154
 686	6.8157e+01	12.7168	45.728637	0.000294	2.939697	0.995996	-0.000118
 687	6.8257e+01	12.6686	45.563114	0.000416	4.156123	1.408133	-0.000166
 688	6.8356e+01	12.6253	45.405666	0.000395	3.953385	1.339443	-0.000158
 689	6.8456e+01	12.5900	45.288589	0.000294	2.939697	0.995996	-0.000118
 690	6.8555e+01	12.5435	45.187660	0.000253	2.534221	0.858617	-0.000101
 691	6.8655e+01	12.5114	45.038286	0.000375	3.750647	1.270754	-0.000150
 692	6.8754e+01	12.4713	44.925246	0.000284	2.838328	0.961651	-0.000114
 693	6.8854e+01	12.4168	44.767798	0.000395	3.953385	1.339443	-0.000158
 694	6.8954e+01	12.3927	44.642647	0.000314	3.142434	1.064686	-0.000126
 695	6.9053e+01	12.3478	44.521533	0.000304	3.041065	1.030341	-0.000122
 696	6.9153e+01	12.3093	44.376196	0.000365	3.649279	1.236409	-0.000146
 697	6.9252e+01	12.2788	44.247008	0.000324	3.243803	1.099030	-0.000130
 698	6.9352e+01	12.2210	44.138005	0.000274	2.736959	0.927307	-0.000110
 699	6.9451e+01	12.1970	43.964408	0.000436	4.358860	1.476822	-0.000174
 700	6.9550e+01	12.1424	43.855406	0.000274	2.736959	0.927307	-0.000110
 701	6.9650e+01	12.1087	43.710069	0.000365	3.649279	1.236409	-0.000146
 702	6.9749e+01	12.0686	43.556657	0.000385	3.852016	1.305098	-0.000154
 703	6.9849e+01	12.0301	43.455729	0.000253	2.534221	0.858617	-0.000101
 704	6.9948e+01	11.9965	43.326541	0.000324	3.243803	1.099030	-0.000130
 705	7.0048e+01	11.9435	43.193315	0.000335	3.345172	1.133375	-0.000134
 706	7.0147e+01	11.9227	43.035867	0.000395	3.953385	1.339443	-0.000158
 707	7.0247e+01	11.8890	42.922827	0.000284	2.838328	0.961651	-0.000114
 708	7.0347e+01	11.8392	42.757305	0.000416	4.156123	1.408133	-0.000166
 709	7.0446e+01	11.7879	42.696748	0.000152	1.520533	0.515170	-0.000061
 710	7.0546e+01	11.7542	42.498928	0.000497	4.967074	1.682890	-0.000199
 711	7.0645e+01	11.7109	42.381851	0.000294	2.939697	0.995996	-0.000118
 712	7.0745e+01	11.6708	42.280923	0.000253	2.534221	0.858617	-0.000101
 713	7.0844e+01	11.6339	42.099251	0.000456	4.561598	1.545511	-0.000183
 714	7.0944e+01	11.5938	41.970063	0.000324	3.243803	1.099030	-0.000130
 715	7.1043e+01	11.5601	41.881246	0.000223	2.230115	0.755583	-0.000089
 716	7.1142e+01	11.5007	41.735909	0.000365	3.649279	1.236409	-0.000146
 717	7.1242e+01	11.4638	41.594610	0.000355	3.547910	1.202064	-0.000142
 718	7.1341e+01	11.4334	41.461384	0.000335	3.345172	1.133375	-0.000134
 719	7.1441e+01	11.3965	41.356419	0.000264	2.635590	0.892962	-0.000105
 720	7.1540e+01	11.3516	41.178785	0.000446	4.460229	1.511167	-0.000179
 721	7.1640e+01	11.3211	41.021336	0.000395	3.953385	1.339443	-0.000158
 722	7.1740e+01	11.2697	40.884074	0.000345	3.446541	1.167720	-0.000138
 723	7.1839e+01	11.2328	40.750848	0.000335	3.345172	1.133375	-0.000134
 724	7.1939e+01	11.1895	40.625697	0.000314	3.142434	1.064686	-0.000126
 725	7.2038e+01	11.1558	40.456137	0.000426	4.257492	1.442477	-0.000170
 726	7.2138e+01	11.1125	40.343097	0.000284	2.838328	0.961651	-0.000114
 727	7.2237e+01	11.0756	40.201798	0.000355	3.547910	1.202064	-0.000142
 728	7.2337e+01	11.0371	40.108944	0.000233	2.331483	0.789928	-0.000093
 729	7.2436e+01	11.0002	39.935347	0.000436	4.358860	1.476822	-0.000174
 730	7.2535e+01	10.9505	39.818270	0.000294	2.939697	0.995996	-0.000118
 731	7.2635e+01	10.9072	39.620450	0.000497	4.967074	1.682890	-0.000199
 732	7.2734e+01	10.8719	39.519522	0.000253	2.534221	0.858617	-0.000101
 733	7.2834e+01	10.8382	39.394371	0.000314	3.142434	1.064686	-0.000126
 734	7.2933e+01	10.8029	39.285368	0.000274	2.736959	0.927307	-0.000110
 735	7.3033e+01	10.7500	39.135994	0.000375	3.750647	1.270754	-0.000150
 736	7.3132e+01	10.7195	38.974508	0.000405	4.054754	1.373788	-0.000162
 737	7.3232e+01	10.6842	38.857431	0.000294	2.939697	0.995996	-0.000118
 738	7.3332e+01	10.6296	38.728243	0.000324	3.243803	1.099030	-0.000130
 739	7.3431e+01	10.5879	38.566758	0.000405	4.054754	1.373788	-0.000162
 740	7.3531e+01	10.5526	38.449681	0.000294	2.939697	0.995996	-0.000118
 741	7.3630e+01	10.5174	38.324530	0.000314	3.142434	1.064686	-0.000126
 742	7.3730e+01	10.4805	38.195341	0.000324	3.243803	1.099030	-0.000130
 743	7.3829e+01	10.4371	38.037893	0.000395	3.953385	1.339443	-0.000158
 744	7.3928e+01	10.4002	37.872370	0.000416	4.156123	1.408133	-0.000166
 745	7.4028e+01	10.3585	37.751256	0.000304	3.041065	1.030341	-0.000122
 746	7.4127e+01	10.3152	37.613994	0.000345	3.446541	1.167720	-0.000138
 747	7.4227e+01	10.2783	37.484805	0.000324	3.243803	1.099030	-0.000130
 748	7.4326e+01	10.2334	37.335431	0.000375	3.750647	1.270754	-0.000150
 749	7.4426e+01	10.1965	37.173946	0.000405	4.054754	1.373788	-0.000162
 750	7.4525e+01	10.1516	37.060906	0.000284	2.838328	0.961651	-0.000114
 751	7.4625e+01	10.1131	36.935755	0.000314	3.142434	1.064686	-0.000126
 752	7.4725e+01	10.0698	36.794455	0.000355	3.547910	1.202064	-0.000142
 753	7.4824e+01	10.0377	36.637007	0.000395	3.953385	1.339443	-0.000158
 754	7.4924e+01	9.9912	36.528004	0.000274	2.736959	0.927307	-0.000110
 755	7.5023e+01	9.9543	36.362482	0.000416	4.156123	1.408133	-0.000166
 756	7.5123e+01	9.9174	36.261553	0.000253	2.534221	0.858617	-0.000101
 757	7.5222e+01	9.8644	36.091993	0.000426	4.257492	1.442477	-0.000170
 758	7.5322e+01	9.8452	35.978954	0.000284	2.838328	0.961651	-0.000114
 759	7.5421e+01	9.8051	35.825543	0.000385	3.852016	1.305098	-0.000154
 760	7.5520e+01	9.7537	35.728651	0.000243	2.432852	0.824273	-0.000097
 761	7.5620e+01	9.7184	35.567166	0.000405	4.054754	1.373788	-0.000162
 762	7.5719e+01	9.6799	35.401643	0.000416	4.156123	1.408133	-0.000166
 763	7.5819e+01	9.6446	35.296678	0.000264	2.635590	0.892962	-0.000105
 764	7.5918e+01	9.5965	35.155378	0.000355	3.547910	1.202064	-0.000142
 765	7.6018e+01	9.5596	35.042338	0.000284	2.838328	0.961651	-0.000114
 766	7.6118e+01	9.5211	34.808184	0.000588	5.879393	1.991992	-0.000235
 767	7.6217e+01	9.4762	34.743590	0.000162	1.621902	0.549515	-0.000065
 768	7.6317e+01	9.4457	34.586142	0.000395	3.953385	1.339443	-0.000158
 769	7.6416e+01	9.4024	34.448879	0.000345	3.446541	1.167720	-0.000138
 770	7.6516e+01	9.3623	34.295468	0.000385	3.852016	1.305098	-0.000154
 771	7.6615e+01	9.3190	34.158205	0.000345	3.446541	1.167720	-0.000138
 772	7.6715e+01	9.2917	34.065351	0.000233	2.331483	0.789928	-0.000093
 773	7.6814e+01	9.2340	33.940200	0.000314	3.142434	1.064686	-0.000126
 774	7.6913e+01	9.2035	33.815049	0.000314	3.142434	1.064686	-0.000126
 775	7.7013e+01	9.1650	33.645489	0.000426	4.257492	1.442477	-0.000170
 776	7.7112e+01	9.1120	33.496115	0.000375	3.750647	1.270754	-0.000150
 777	7.7212e+01	9.0816	33.310407	0.000466	4.662967	1.579856	-0.000187
 778	7.7311e+01	9.0415	33.229664	0.000203	2.027377	0.686894	-0.000081
 779	7.7411e+01	8.9949	33.052030	0.000446	4.460229	1.511167	-0.000179
 780	7.7510e+01	8.9612	32.947065	0.000264	2.635590	0.892962	-0.000105
 781	7.7610e+01	8.9227	32.789616	0.000395	3.953385	1.339443	-0.000158
 782	7.7710e+01	8.8858	32.620057	0.000426	4.257492	1.442477	-0.000170
 783	7.7809e+01	8.8409	32.511054	0.000274	2.736959	0.927307	-0.000110
 784	7.7909e+01	8.8040	32.365717	0.000365	3.649279	1.236409	-0.000146
 785	7.8008e+01	8.7607	32.196158	0.000426	4.257492	1.442477	-0.000170
 786	7.8108e+01	8.7254	32.071006	0.000314	3.142434	1.064686	-0.000126
 787	7.8207e+01	8.6837	31.945855	0.000314	3.142434	1.064686	-0.000126
 788	7.8306e+01	8.6420	31.784370	0.000405	4.054754	1.373788	-0.000162
 789	7.8406e+01	8.6035	31.659218	0.000314	3.142434	1.064686	-0.000126
 790	7.8505e+01	8.5618	31.550216	0.000274	2.736959	0.927307	-0.000110
 791	7.8605e+01	8.5233	31.364508	0.000466	4.662967	1.579856	-0.000187
 792	7.8704e+01	8.4800	31.178799	0.000466	4.662967	1.579856	-0.000187
 793	7.8804e+01	8.4383	31.065760	0.000284	2.838328	0.961651	-0.000114
 794	7.8903e+01	8.3950	30.940608	0.000314	3.142434	1.064686	-0.000126
 795	7.9003e+01	8.3661	30.831606	0.000274	2.736959	0.927307	-0.000110
 796	7.9103e+01	8.3228	30.649935	0.000456	4.561598	1.545511	-0.000183
 797	7.9202e+01	8.2827	30.496523	0.000385	3.852016	1.305098	-0.000154
 798	7.9302e+01	8.2458	30.326964	0.000426	4.257492	1.442477	-0.000170
 799	7.9401e+01	8.2105	30.197775	0.000324	3.243803	1.099030	-0.000130
 800	7.9501e+01	8.1720	30.064550	0.000335	3.345172	1.133375	-0.000134
 801	7.9600e+01	8.1319	29.915176	0.000375	3.750647	1.270754	-0.000150
 802	7.9700e+01	8.0773	29.773876	0.000355	3.547910	1.202064	-0.000142
 803	7.9799e+01	8.0356	29.636613	0.000345	3.446541	1.167720	-0.000138
 804	7.9898e+01	8.0003	29.475128	0.000405	4.054754	1.373788	-0.000162
 805	7.9998e+01	7.9682	29.354014	0.000304	3.041065	1.030341	-0.000122
 806	8.0097e+01	7.9297	29.224826	0.000324	3.243803	1.099030	-0.000130
 807	8.0197e+01	7.8896	29.047192	0.000446	4.460229	1.511167	-0.000179
 808	8.0296e+01	7.8527	28.986635	0.000152	1.520533	0.515170	-0.000061
 809	8.0396e+01	7.7982	28.772666	0.000537	5.372549	1.820269	-0.000215
 810	8.0496e+01	7.7677	28.659627	0.000284	2.838328	0.961651	-0.000114
 811	8.0595e+01	7.7228	28.506215	0.000385	3.852016	1.305098	-0.000154
 812	8.0695e+01	7.6891	28.381064	0.000314	3.142434	1.064686	-0.000126
 813	8.0794e+01	7.6458	28.219579	0.000405	4.054754	1.373788	-0.000162
 814	8.0894e+01	7.5993	28.114613	0.000264	2.635590	0.892962	-0.000105
 815	8.0993e+01	7.5640	27.924868	0.000476	4.764336	1.614201	-0.000191
 816	8.1093e+01	7.5399	27.775494	0.000375	3.750647	1.270754	-0.000150
 817	8.1192e+01	7.4821	27.630157	0.000365	3.649279	1.236409	-0.000146
 818	8.1291e+01	7.4436	27.545377	0.000213	2.128746	0.721239	-0.000085
 819	8.1391e+01	7.4132	27.355632	0.000476	4.764336	1.614201	-0.000191
 820	8.1490e+01	7.3714	27.214332	0.000355	3.547910	1.202064	-0.000142
 821	8.1590e+01	7.3217	27.093218	0.000304	3.041065	1.030341	-0.000122
 822	8.1689e+01	7.2848	26.964030	0.000324	3.243803	1.099030	-0.000130
 823	8.1789e+01	7.2495	26.778321	0.000466	4.662967	1.579856	-0.000187
 824	8.1888e+01	7.2062	26.645096	0.000335	3.345172	1.133375	-0.000134
 825	8.1988e+01	7.1661	26.511870	0.000335	3.345172	1.133375	-0.000134
 826	8.2088e+01	7.1228	26.358459	0.000385	3.852016	1.305098	-0.000154
 827	8.2187e+01	7.0891	26.229271	0.000324	3.243803	1.099030	-0.000130
 828	8.2287e+01	7.0426	26.108157	0.000304	3.041065	1.030341	-0.000122
 829	8.2386e+01	7.0137	25.954746	0.000385	3.852016	1.305098	-0.000154
 830	8.2486e+01	6.9656	25.797297	0.000395	3.953385	1.339443	-0.000158
 831	8.2585e+01	6.9271	25.651960	0.000365	3.649279	1.236409	-0.000146
 832	8.2684e+01	6.8838	25.538921	0.000284	2.838328	0.961651	-0.000114
 833	8.2784e+01	6.8421	25.357250	0.000456	4.561598	1.545511	-0.000183
 834	8.2883e+01	6.8036	25.252284	0.000264	2.635590	0.892962	-0.000105
 835	8.2983e+01	6.7618	25.106947	0.000365	3.649279	1.236409	-0.000146
 836	8.3082e+01	6.7249	24.945462	0.000405	4.054754	1.373788	-0.000162
 837	8.3182e+01	6.6961	24.804162	0.000355	3.547910	1.202064	-0.000142
 838	8.3281e+01	6.6544	24.650751	0.000385	3.852016	1.305098	-0.000154
 839	8.3381e+01	6.6110	24.497340	0.000385	3.852016	1.305098	-0.000154
 840	8.3481e+01	6.5741	24.392374	0.000264	2.635590	0.892962	-0.000105
 841	8.3580e+01	6.5292	24.214740	0.000446	4.460229	1.511167	-0.000179
 842	8.3680e+01	6.4891	24.069403	0.000365	3.649279	1.236409	-0.000146
 843	8.3779e+01	6.4538	23.924066	0.000365	3.649279	1.236409	-0.000146
 844	8.3879e+01	6.4089	23.766618	0.000395	3.953385	1.339443	-0.000158
 845	8.3978e+01	6.3720	23.661653	0.000264	2.635590	0.892962	-0.000105
 846	8.4078e+01	6.3351	23.540538	0.000304	3.041065	1.030341	-0.000122
 847	8.4177e+01	6.3046	23.358867	0.000456	4.561598	1.545511	-0.000183
 848	8.4276e+01	6.2501	23.225642	0.000335	3.345172	1.133375	-0.000134
 849	8.4376e+01	6.2100	23.056082	0.000426	4.257492	1.442477	-0.000170
 850	8.4475e+01	6.1795	22.918820	0.000345	3.446541	1.167720	-0.000138
 851	8.4575e+01	6.1410	22.785594	0.000335	3.345172	1.133375	-0.000134
 852	8.4674e+01	6.0945	22.648331	0.000345	3.446541	1.167720	-0.000138
 853	8.4774e+01	6.0496	22.470698	0.000446	4.460229	1.511167	-0.000179
 854	8.4874e+01	6.0143	22.313249	0.000395	3.953385	1.339443	-0.000158
 855	8.4973e+01	5.9790	22.228469	0.000213	2.128746	0.721239	-0.000085
 856	8.5073e+01	5.9341	22.054873	0.000436	4.358860	1.476822	-0.000174
 857	8.5172e+01	5.8923	21.921647	0.000335	3.345172	1.133375	-0.000134
 858	8.5272e+01	5.8538	21.723827	0.000497	4.967074	1.682890	-0.000199
 859	8.5371e+01	5.8250	21.574453	0.000375	3.750647	1.270754	-0.000150
 860	8.5471e+01	5.7817	21.461414	0.000284	2.838328	0.961651	-0.000114
 861	8.5570e+01	5.7351	21.308002	0.000385	3.852016	1.305098	-0.000154
 862	8.5669e+01	5.6966	21.203037	0.000264	2.635590	0.892962	-0.000105
 863	8.5769e+01	5.6485	21.025403	0.000446	4.460229	1.511167	-0.000179
 864	8.5868e+01	5.6100	20.867955	0.000395	3.953385	1.339443	-0.000158
 865	8.5968e+01	5.5795	20.734729	0.000335	3.345172	1.133375	-0.000134
 866	8.6067e+01	5.5394	20.585355	0.000375	3.750647	1.270754	-0.000150
 867	8.6167e+01	5.4961	20.496538	0.000223	2.230115	0.755583	-0.000089
 868	8.6266e+01	5.4496	20.322941	0.000436	4.358860	1.476822	-0.000174
 869	8.6366e+01	5.4175	20.193753	0.000324	3.243803	1.099030	-0.000130
 870	8.6466e+01	5.3726	20.044379	0.000375	3.750647	1.270754	-0.000150
 871	8.6565e+01	5.3373	19.886931	0.000395	3.953385	1.339443	-0.000158
 872	8.6665e+01	5.2972	19.749668	0.000345	3.446541	1.167720	-0.000138
 873	8.6764e+01	5.2539	19.612405	0.000345	3.446541	1.167720	-0.000138
 874	8.6864e+01	5.2250	19.503403	0.000274	2.736959	0.927307	-0.000110
 875	8.6963e+01	5.1865	19.362103	0.000355	3.547910	1.202064	-0.000142
 876	8.7063e+01	5.1464	19.160246	0.000507	5.068442	1.717235	-0.000203
 877	8.7162e+01	5.0999	19.059318	0.000253	2.534221	0.858617	-0.000101
 878	8.7261e+01	5.0614	18.913981	0.000365	3.649279	1.236409	-0.000146
 879	8.7361e+01	5.0100	18.768644	0.000365	3.649279	1.236409	-0.000146
 880	8.7460e+01	4.9876	18.566787	0.000507	5.068442	1.717235	-0.000203
 881	8.7560e+01	4.9346	18.477970	0.000223	2.230115	0.755583	-0.000089
 882	8.7659e+01	4.9041	18.320522	0.000395	3.953385	1.339443	-0.000158
 883	8.7759e+01	4.8592	18.187296	0.000335	3.345172	1.133375	-0.000134
 884	8.7859e+01	4.8175	18.041960	0.000365	3.649279	1.236409	-0.000146
 885	8.7958e+01	4.7774	17.924883	0.000294	2.939697	0.995996	-0.000118
 886	8.8058e+01	4.7373	17.759360	0.000416	4.156123	1.408133	-0.000166
 887	8.8157e+01	4.6972	17.646320	0.000284	2.838328	0.961651	-0.000114
 888	8.8257e+01	4.6571	17.480798	0.000416	4.156123	1.408133	-0.000166
 889	8.8356e+01	4.6154	17.315275	0.000416	4.156123	1.408133	-0.000166
 890	8.8456e+01	4.5785	17.169938	0.000365	3.649279	1.236409	-0.000146
 891	8.8555e+01	4.5448	17.044787	0.000314	3.142434	1.064686	-0.000126
 892	8.8654e+01	4.5063	16.939822	0.000264	2.635590	0.892962	-0.000105
 893	8.8754e+01	4.4646	16.790448	0.000375	3.750647	1.270754	-0.000150
 894	8.8853e+01	4.4229	16.657222	0.000335	3.345172	1.133375	-0.000134
 895	8.8953e+01	4.3812	16.455365	0.000507	5.068442	1.717235	-0.000203
 896	8.9052e+01	4.3427	16.326177	0.000324	3.243803	1.099030	-0.000130
 897	8.9152e+01	4.2977	16.120283	0.000517	5.169811	1.751579	-0.000207
 898	8.9251e+01	4.2641	16.087986	0.000081	0.810951	0.274758	-0.000032
 899	8.9351e+01	4.2223	15.906315	0.000456	4.561598	1.545511	-0.000183
 900	8.9451e+01	4.1887	15.724644	0.000456	4.561598	1.545511	-0.000183
 901	8.9550e+01	4.1373	15.619678	0.000264	2.635590	0.892962	-0.000105
 902	8.9650e+01	4.0988	15.409747	0.000527	5.271180	1.785924	-0.000211
 903	8.9749e+01	4.0491	15.308819	0.000253	2.534221	0.858617	-0.000101
 904	8.9849e+01	4.0234	15.115036	0.000487	4.865705	1.648545	-0.000195
 905	8.9948e+01	3.9785	14.997959	0.000294	2.939697	0.995996	-0.000118
 906	9.0047e+01	3.9400	14.832437	0.000416	4.156123	1.408133	-0.000166
 907	9.0147e+01	3.9015	14.699211	0.000335	3.345172	1.133375	-0.000134
 908	9.0246e+01	3.8614	14.561949	0.000345	3.446541	1.167720	-0.000138
 909	9.0346e+01	3.8277	14.412575	0.000375	3.750647	1.270754	-0.000150
 910	9.0445e+01	3.7796	14.295498	0.000294	2.939697	0.995996	-0.000118
 911	9.0545e+01	3.7379	14.117864	0.000446	4.460229	1.511167	-0.000179
 912	9.0644e+01	3.7042	14.045195	0.000182	1.824639	0.618205	-0.000073
 913	9.0744e+01	3.6721	13.899858	0.000365	3.649279	1.236409	-0.000146
 914	9.0844e+01	3.6240	13.710113	0.000476	4.764336	1.614201	-0.000191
 915	9.0943e+01	3.5823	13.532479	0.000446	4.460229	1.511167	-0.000179
 916	9.1043e+01	3.5373	13.383105	0.000375	3.750647	1.270754	-0.000150
 917	9.1142e+01	3.5085	13.266028	0.000294	2.939697	0.995996	-0.000118
 918	9.1242e+01	3.4603	13.104543	0.000405	4.054754	1.373788	-0.000162
 919	9.1341e+01	3.4218	12.939020	0.000416	4.156123	1.408133	-0.000166
 920	9.1441e+01	3.3930	12.813869	0.000314	3.142434	1.064686	-0.000126
 921	9.1540e+01	3.3384	12.648346	0.000416	4.156123	1.408133	-0.000166
 922	9.1639e+01	3.3079	12.511084	0.000345	3.446541	1.167720	-0.000138
 923	9.1739e+01	3.2630	12.377858	0.000335	3.345172	1.133375	-0.000134
 924	9.1838e+01	3.2245	12.216373	0.000405	4.054754	1.373788	-0.000162
 925	9.1938e+01	3.1828	12.058924	0.000395	3.953385	1.339443	-0.000158
 926	9.2037e+01	3.1427	11.962033	0.000243	2.432852	0.824273	-0.000097
 927	9.2137e+01	3.1106	11.772288	0.000476	4.764336	1.614201	-0.000191
 928	9.2237e+01	3.0593	11.651174	0.000304	3.041065	1.030341	-0.000122
 929	9.2336e+01	3.0320	11.530060	0.000304	3.041065	1.030341	-0.000122
 930	9.2436e+01	2.9807	11.384723	0.000365	3.649279	1.236409	-0.000146
 931	9.2535e+01	2.9406	11.279757	0.000264	2.635590	0.892962	-0.000105
 932	9.2635e+01	2.9165	11.065789	0.000537	5.372549	1.820269	-0.000215
 933	9.2734e+01	2.8700	10.928526	0.000345	3.446541	1.167720	-0.000138
 934	9.2834e+01	2.8283	10.771078	0.000395	3.953385	1.339443	-0.000158
 935	9.2933e+01	2.7866	10.589407	0.000456	4.561598	1.545511	-0.000183
 936	9.3032e+01	2.7513	10.448107	0.000355	3.547910	1.202064	-0.000142
 937	9.3132e+01	2.7015	10.375439	0.000182	1.824639	0.618205	-0.000073
 938	9.3231e+01	2.6630	10.189731	0.000466	4.662967	1.579856	-0.000187
 939	9.3331e+01	2.6197	10.016134	0.000436	4.358860	1.476822	-0.000174
 940	9.3430e+01	2.5876	9.895020	0.000304	3.041065	1.030341	-0.000122
 941	9.3530e+01	2.5459	9.745646	0.000375	3.750647	1.270754	-0.000150
 942	9.3629e+01	2.5058	9.612420	0.000335	3.345172	1.133375	-0.000134
 943	9.3729e+01	2.4641	9.487269	0.000314	3.142434	1.064686	-0.000126
 944	9.3829e+01	2.4288	9.321746	0.000416	4.156123	1.408133	-0.000166
 945	9.3928e+01	2.3791	9.168335	0.000385	3.852016	1.305098	-0.000154
 946	9.4028e+01	2.3534	9.018961	0.000375	3.750647	1.270754	-0.000150
 947	9.4127e+01	2.2957	8.893810	0.000314	3.142434	1.064686	-0.000126
 948	9.4227e+01	2.2684	8.776733	0.000294	2.939697	0.995996	-0.000118
 949	9.4326e+01	2.2299	8.619285	0.000395	3.953385	1.339443	-0.000158
 950	9.4425e+01	2.1930	8.502208	0.000294	2.939697	0.995996	-0.000118
 951	9.4525e+01	2.1481	8.296314	0.000517	5.169811	1.751579	-0.000207
 952	9.4624e+01	2.1064	8.146940	0.000375	3.750647	1.270754	-0.000150
 953	9.4724e+01	2.0727	7.961232	0.000466	4.662967	1.579856	-0.000187
 954	9.4823e+01	2.0310	7.852229	0.000274	2.736959	0.927307	-0.000110
 955	9.4923e+01	1.9941	7.698818	0.000385	3.852016	1.305098	-0.000154
 956	9.5022e+01	1.9507	7.537332	0.000405	4.054754	1.373788	-0.000162
 957	9.5122e+01	1.9171	7.383921	0.000385	3.852016	1.305098	-0.000154
 958	9.5222e+01	1.8721	7.222436	0.000405	4.054754	1.373788	-0.000162
 959	9.5321e+01	1.8320	7.073062	0.000375	3.750647	1.270754	-0.000150
 960	9.5421e+01	1.7887	6.951948	0.000304	3.041065	1.030341	-0.000122
 961	9.5520e+01	1.7550	6.774314	0.000446	4.460229	1.511167	-0.000179
 962	9.5620e+01	1.7133	6.624940	0.000375	3.750647	1.270754	-0.000150
 963	9.5719e+01	1.6668	6.463454	0.000405	4.054754	1.373788	-0.000162
 964	9.5819e+01	1.6331	6.322155	0.000355	3.547910	1.202064	-0.000142
 965	9.5918e+01	1.5866	6.192966	0.000324	3.243803	1.099030	-0.000130
 966	9.6017e+01	1.5497	6.051666	0.000355	3.547910	1.202064	-0.000142
 967	9.6117e+01	1.5096	5.942664	0.000274	2.736959	0.927307	-0.000110
 968	9.6216e+01	1.4727	5.756956	0.000466	4.662967	1.579856	-0.000187
 969	9.6316e+01	1.4326	5.579322	0.000446	4.460229	1.511167	-0.000179
 970	9.6415e+01	1.3989	5.450133	0.000324	3.243803	1.099030	-0.000130
 971	9.6515e+01	1.3556	5.308833	0.000355	3.547910	1.202064	-0.000142
 972	9.6615e+01	1.3187	5.155422	0.000385	3.852016	1.305098	-0.000154
 973	9.6714e+01	1.2738	5.006048	0.000375	3.750647	1.270754	-0.000150
 974	9.6814e+01	1.2256	4.820340	0.000466	4.662967	1.579856	-0.000187
 975	9.6913e+01	1.1903	4.683077	0.000345	3.446541	1.167720	-0.000138
 976	9.7013e+01	1.1470	4.537741	0.000365	3.649279	1.236409	-0.000146
 977	9.7112e+01	1.1133	4.376255	0.000405	4.054754	1.373788	-0.000162
 978	9.7212e+01	1.0780	4.251104	0.000314	3.142434	1.064686	-0.000126
 979	9.7311e+01	1.0395	4.089619	0.000405	4.054754	1.373788	-0.000162
 980	9.7410e+01	0.9866	3.916022	0.000436	4.358860	1.476822	-0.000174
 981	9.7510e+01	0.9577	3.778759	0.000345	3.446541	1.167720	-0.000138
 982	9.7609e+01	0.9064	3.645534	0.000335	3.345172	1.133375	-0.000134
 983	9.7709e+01	0.8743	3.484048	0.000405	4.054754	1.373788	-0.000162
 984	9.7808e+01	0.8326	3.358897	0.000314	3.142434	1.064686	-0.000126
 985	9.7908e+01	0.7909	3.201449	0.000395	3.953385	1.339443	-0.000158
 986	9.8007e+01	0.7556	3.056112	0.000365	3.649279	1.236409	-0.000146
 987	9.8107e+01	0.7235	2.926923	0.000324	3.243803	1.099030	-0.000130
 988	9.8207e+01	0.6786	2.753327	0.000436	4.358860	1.476822	-0.000174
 989	9.8306e+01	0.6353	2.591841	0.000405	4.054754	1.373788	-0.000162
 990	9.8406e+01	0.5968	2.446504	0.000365	3.649279	1.236409	-0.000146
 991	9.8505e+01	0.5519	2.248685	0.000497	4.967074	1.682890	-0.000199
 992	9.8605e+01	0.5198	2.139682	0.000274	2.736959	0.927307	-0.000110
 993	9.8704e+01	0.4749	1.990308	0.000375	3.750647	1.270754	-0.000150
 994	9.8803e+01	0.4396	1.832860	0.000395	3.953385	1.339443	-0.000158
 995	9.8903e+01	0.3898	1.711746	0.000304	3.041065	1.030341	-0.000122
 996	9.9002e+01	0.3577	1.517963	0.000487	4.865705	1.648545	-0.000195
 997	9.9102e+01	0.3112	1.384738	0.000335	3.345172	1.133375	-0.000134
 998	9.9201e+01	0.2663	1.247475	0.000345	3.446541	1.167720	-0.000138
 999	9.9301e+01	0.2358	1.106175	0.000355	3.547910	1.202064	-0.000142
1000	9.9400e+01	0.1877	0.940653	0.000416	4.156123	1.408133	-0.000166
1001	9.9500e+01	0.1556	0.795316	0.000365	3.649279	1.236409	-0.000146
1002	9.9600e+01	0.1075	0.670165	0.000314	3.142434	1.064686	-0.000126
1003	9.9699e+01	0.0674	0.500605	0.000426	4.257492	1.442477	-0.000170
1004	9.9799e+01	0.0321	0.391602	0.000274	2.736959	0.927307	-0.000110
1005	9.9898e+01	0.0128	0.286637	0.000264	2.635590	0.892962	-0.000105
1006	9.9998e+01	-0.0417	0.088817	0.000497	4.967074	1.682890	-0.000199
1007	1.0010e+02	-0.0706	-0.044408	0.000335	3.345172	1.133375	-0.000134
1008	1.0020e+02	-0.1171	-0.250302	0.000517	5.169811	1.751579	-0.000207
1009	1.0030e+02	-0.1620	-0.375454	0.000314	3.142434	1.064686	-0.000126
1010	1.0040e+02	-0.1893	-0.520791	0.000365	3.649279	1.236409	-0.000146
1011	1.0050e+02	-0.2406	-0.674202	0.000385	3.852016	1.305098	-0.000154
1012	1.0059e+02	-0.2743	-0.807427	0.000335	3.345172	1.133375	-0.000134
1013	1.0069e+02	-0.3128	-0.976987	0.000426	4.257492	1.442477	-0.000170
1014	1.0079e+02	-0.3513	-1.069841	0.000233	2.331483	0.789928	-0.000093
1015	1.0089e+02	-0.3914	-1.227289	0.000395	3.953385	1.339443	-0.000158
1016	1.0099e+02	-0.4251	-1.425109	0.000497	4.967074	1.682890	-0.000199
1017	1.0109e+02	-0.4797	-1.550260	0.000314	3.142434	1.064686	-0.000126
1018	1.0119e+02	-0.5134	-1.735968	0.000466	4.662967	1.579856	-0.000187
1019	1.0129e+02	-0.5519	-1.877268	0.000355	3.547910	1.202064	-0.000142
1020	1.0139e+02	-0.5920	-2.002419	0.000314	3.142434	1.064686	-0.000126
1021	1.0149e+02	-0.6369	-2.111422	0.000274	2.736959	0.927307	-0.000110
1022	1.0159e+02	-0.6674	-2.285019	0.000436	4.358860	1.476822	-0.000174
1023	1.0169e+02	-0.7091	-2.438430	0.000385	3.852016	1.305098	-0.000154
1024	1.0179e+02	-0.7476	-2.575693	0.000345	3.446541	1.167720	-0.000138
1025	1.0189e+02	-0.7909	-2.773512	0.000497	4.967074	1.682890	-0.000199
1026	1.0199e+02	-0.8262	-2.934998	0.000405	4.054754	1.373788	-0.000162
1027	1.0209e+02	-0.8647	-3.080335	0.000365	3.649279	1.236409	-0.000146
1028	1.0219e+02	-0.9080	-3.221634	0.000355	3.547910	1.202064	-0.000142
1029	1.0229e+02	-0.9513	-3.395231	0.000436	4.358860	1.476822	-0.000174
1030	1.0239e+02	-0.9834	-3.568828	0.000436	4.358860	1.476822	-0.000174
1031	1.0248e+02	-1.0315	-3.677831	0.000274	2.736959	0.927307	-0.000110
1032	1.0258e+02	-1.0700	-3.807019	0.000324	3.243803	1.099030	-0.000130
1033	1.0268e+02	-1.1101	-3.968504	0.000405	4.054754	1.373788	-0.000162
1034	1.0278e+02	-1.1567	-4.093656	0.000314	3.142434	1.064686	-0.000126
1035	1.0288e+02	-1.1984	-4.251104	0.000395	3.953385	1.339443	-0.000158
1036	1.0298e+02	-1.2272	-4.384329	0.000335	3.345172	1.133375	-0.000134
1037	1.0308e+02	-1.2770	-4.561963	0.000446	4.460229	1.511167	-0.000179
1038	1.0318e+02	-1.3155	-4.670966	0.000274	2.736959	0.927307	-0.000110
1039	1.0328e+02	-1.3572	-4.804192	0.000335	3.345172	1.133375	-0.000134
1040	1.0338e+02	-1.3925	-4.941454	0.000345	3.446541	1.167720	-0.000138
1041	1.0348e+02	-1.4294	-5.094865	0.000385	3.852016	1.305098	-0.000154
1042	1.0358e+02	-1.4631	-5.240202	0.000365	3.649279	1.236409	-0.000146
1043	1.0368e+02	-1.5080	-5.377465	0.000345	3.446541	1.167720	-0.000138
1044	1.0378e+02	-1.5465	-5.547025	0.000426	4.257492	1.442477	-0.000170
1045	1.0388e+02	-1.5834	-5.748881	0.000507	5.068442	1.717235	-0.000203
1046	1.0398e+02	-1.6219	-5.898255	0.000375	3.750647	1.270754	-0.000150
1047	1.0408e+02	-1.6700	-6.031481	0.000335	3.345172	1.133375	-0.000134
1048	1.0418e+02	-1.7069	-6.128372	0.000243	2.432852	0.824273	-0.000097
1049	1.0428e+02	-1.7454	-6.326192	0.000497	4.967074	1.682890	-0.000199
1050	1.0438e+02	-1.7887	-6.439232	0.000284	2.838328	0.961651	-0.000114
1051	1.0447e+02	-1.8288	-6.592643	0.000385	3.852016	1.305098	-0.000154
1052	1.0457e+02	-1.8641	-6.737980	0.000365	3.649279	1.236409	-0.000146
1053	1.0467e+02	-1.9090	-6.867168	0.000324	3.243803	1.099030	-0.000130
1054	1.0477e+02	-1.9588	-7.048839	0.000456	4.561598	1.545511	-0.000183
1055	1.0487e+02	-1.9957	-7.210324	0.000405	4.054754	1.373788	-0.000162
1056	1.0497e+02	-2.0326	-7.311253	0.000253	2.534221	0.858617	-0.000101
1057	1.0507e+02	-2.0695	-7.424293	0.000284	2.838328	0.961651	-0.000114
1058	1.0517e+02	-2.1112	-7.545407	0.000304	3.041065	1.030341	-0.000122
1059	1.0527e+02	-2.1465	-7.714966	0.000426	4.257492	1.442477	-0.000170
1060	1.0537e+02	-2.1930	-7.803783	0.000223	2.230115	0.755583	-0.000089
1061	1.0547e+02	-2.2219	-8.033900	0.000578	5.778024	1.957648	-0.000231
1062	1.0557e+02	-2.2652	-8.223645	0.000476	4.764336	1.614201	-0.000191
1063	1.0567e+02	-2.3037	-8.381094	0.000395	3.953385	1.339443	-0.000158
1064	1.0577e+02	-2.3454	-8.490096	0.000274	2.736959	0.927307	-0.000110
1065	1.0587e+02	-2.3855	-8.659656	0.000426	4.257492	1.442477	-0.000170
1066	1.0597e+02	-2.4304	-8.845364	0.000466	4.662967	1.579856	-0.000187
1067	1.0607e+02	-2.4657	-8.930144	0.000213	2.128746	0.721239	-0.000085
1068	1.0617e+02	-2.5074	-9.123927	0.000487	4.865705	1.648545	-0.000195
1069	1.0627e+02	-2.5475	-9.232929	0.000274	2.736959	0.927307	-0.000110
1070	1.0637e+02	-2.5940	-9.410563	0.000446	4.460229	1.511167	-0.000179
1071	1.0647e+02	-2.6261	-9.584160	0.000436	4.358860	1.476822	-0.000174
1072	1.0656e+02	-2.6614	-9.709311	0.000314	3.142434	1.064686	-0.000126
1073	1.0666e+02	-2.7063	-9.826388	0.000294	2.939697	0.995996	-0.000118
1074	1.0676e+02	-2.7464	-9.959614	0.000335	3.345172	1.133375	-0.000134
1075	1.0686e+02	-2.7785	-10.104951	0.000365	3.649279	1.236409	-0.000146
1076	1.0696e+02	-2.8251	-10.209916	0.000264	2.635590	0.892962	-0.000105
1077	1.0706e+02	-2.8555	-10.355253	0.000365	3.649279	1.236409	-0.000146
1078	1.0716e+02	-2.9085	-10.520776	0.000416	4.156123	1.408133	-0.000166
1079	1.0726e+02	-2.9341	-10.662075	0.000355	3.547910	1.202064	-0.000142
1080	1.0736e+02	-2.9710	-10.835672	0.000436	4.358860	1.476822	-0.000174
1081	1.0746e+02	-3.0208	-11.013306	0.000446	4.460229	1.511167	-0.000179
1082	1.0756e+02	-3.0625	-11.158643	0.000365	3.649279	1.236409	-0.000146
1083	1.0766e+02	-3.1074	-11.308017	0.000375	3.750647	1.270754	-0.000150
1084	1.0776e+02	-3.1459	-11.449317	0.000355	3.547910	1.202064	-0.000142
1085	1.0786e+02	-3.1780	-11.651174	0.000507	5.068442	1.717235	-0.000203
1086	1.0796e+02	-3.2229	-11.735954	0.000213	2.128746	0.721239	-0.000085
1087	1.0806e+02	-3.2710	-11.917625	0.000456	4.561598	1.545511	-0.000183
1088	1.0816e+02	-3.3063	-12.071036	0.000385	3.852016	1.305098	-0.000154
1089	1.0826e+02	-3.3400	-12.171964	0.000253	2.534221	0.858617	-0.000101
1090	1.0836e+02	-3.3833	-12.361710	0.000476	4.764336	1.614201	-0.000191
1091	1.0845e+02	-3.4186	-12.515121	0.000385	3.852016	1.305098	-0.000154
1092	1.0855e+02	-3.4667	-12.632198	0.000294	2.939697	0.995996	-0.000118
1093	1.0865e+02	-3.4988	-12.765423	0.000335	3.345172	1.133375	-0.000134
1094	1.0875e+02	-3.5502	-12.830017	0.000162	1.621902	0.549515	-0.000065
1095	1.0885e+02	-3.5919	-13.015726	0.000466	4.662967	1.579856	-0.000187
1096	1.0895e+02	-3.6208	-13.165100	0.000375	3.750647	1.270754	-0.000150
1097	1.0905e+02	-3.6625	-13.278139	0.000284	2.838328	0.961651	-0.000114
1098	1.0915e+02	-3.6978	-13.463848	0.000466	4.662967	1.579856	-0.000187
1099	1.0925e+02	-3.7427	-13.617259	0.000385	3.852016	1.305098	-0.000154
1100	1.0935e+02	-3.7796	-13.798930	0.000456	4.561598	1.545511	-0.000183
1101	1.0945e+02	-3.8229	-13.952341	0.000385	3.852016	1.305098	-0.000154
1102	1.0955e+02	-3.8614	-14.061344	0.000274	2.736959	0.927307	-0.000110
1103	1.0965e+02	-3.9079	-14.259163	0.000497	4.967074	1.682890	-0.000199
1104	1.0975e+02	-3.9304	-14.392389	0.000335	3.345172	1.133375	-0.000134
1105	1.0985e+02	-3.9881	-14.501392	0.000274	2.736959	0.927307	-0.000110
1106	1.0995e+02	-4.0218	-14.679026	0.000446	4.460229	1.511167	-0.000179
1107	1.1005e+02	-4.0603	-14.779954	0.000253	2.534221	0.858617	-0.000101
1108	1.1015e+02	-4.1068	-14.937402	0.000395	3.953385	1.339443	-0.000158
1109	1.1025e+02	-4.1421	-15.078702	0.000355	3.547910	1.202064	-0.000142
1110	1.1035e+02	-4.1774	-15.268447	0.000476	4.764336	1.614201	-0.000191
1111	1.1044e+02	-4.2223	-15.353227	0.000213	2.128746	0.721239	-0.000085
1112	1.1054e+02	-4.2592	-15.502601	0.000375	3.750647	1.270754	-0.000150
1113	1.1064e+02	-4.2929	-15.595455	0.000233	2.331483	0.789928	-0.000093
1114	1.1074e+02	-4.3362	-15.773089	0.000446	4.460229	1.511167	-0.000179
1115	1.1084e+02	-4.3844	-15.922463	0.000375	3.750647	1.270754	-0.000150
1116	1.1094e+02	-4.4213	-16.047615	0.000314	3.142434	1.064686	-0.000126
1117	1.1104e+02	-4.4405	-16.213137	0.000416	4.156123	1.408133	-0.000166
1118	1.1114e+02	-4.4951	-16.390771	0.000446	4.460229	1.511167	-0.000179
1119	1.1124e+02	-4.5384	-16.560331	0.000426	4.257492	1.442477	-0.000170
1120	1.1134e+02	-4.5833	-16.713742	0.000385	3.852016	1.305098	-0.000154
1121	1.1144e+02	-4.6218	-16.879265	0.000416	4.156123	1.408133	-0.000166
1122	1.1154e+02	-4.6571	-17.012490	0.000335	3.345172	1.133375	-0.000134
1123	1.1164e+02	-4.6988	-17.165901	0.000385	3.852016	1.305098	-0.000154
1124	1.1174e+02	-4.7357	-17.303164	0.000345	3.446541	1.167720	-0.000138
1125	1.1184e+02	-4.7742	-17.468686	0.000416	4.156123	1.408133	-0.000166
1126	1.1194e+02	-4.8255	-17.634209	0.000416	4.156123	1.408133	-0.000166
1127	1.1204e+02	-4.8464	-17.755323	0.000304	3.041065	1.030341	-0.000122
1128	1.1214e+02	-4.8993	-17.876437	0.000304	3.041065	1.030341	-0.000122
1129	1.1224e+02	-4.9378	-18.037922	0.000405	4.054754	1.373788	-0.000162
1130	1.1234e+02	-4.9731	-18.142888	0.000264	2.635590	0.892962	-0.000105
1131	1.1244e+02	-5.0116	-18.304373	0.000405	4.054754	1.373788	-0.000162
1132	1.1253e+02	-5.0598	-18.429525	0.000314	3.142434	1.064686	-0.000126
1133	1.1263e+02	-5.0983	-18.603121	0.000436	4.358860	1.476822	-0.000174
1134	1.1273e+02	-5.1351	-18.756533	0.000385	3.852016	1.305098	-0.000154
1135	1.1283e+02	-5.1753	-18.893795	0.000345	3.446541	1.167720	-0.000138
1136	1.1293e+02	-5.2089	-19.099689	0.000517	5.169811	1.751579	-0.000207
1137	1.1303e+02	-5.2571	-19.204655	0.000264	2.635590	0.892962	-0.000105
1138	1.1313e+02	-5.2972	-19.386326	0.000456	4.561598	1.545511	-0.000183
1139	1.1323e+02	-5.3389	-19.503403	0.000294	2.939697	0.995996	-0.000118
1140	1.1333e+02	-5.3710	-19.652777	0.000375	3.750647	1.270754	-0.000150
1141	1.1343e+02	-5.4143	-19.781965	0.000324	3.243803	1.099030	-0.000130
1142	1.1353e+02	-5.4544	-19.959599	0.000446	4.460229	1.511167	-0.000179
1143	1.1363e+02	-5.5025	-20.117047	0.000395	3.953385	1.339443	-0.000158
1144	1.1373e+02	-5.5250	-20.254310	0.000345	3.446541	1.167720	-0.000138
1145	1.1383e+02	-5.5747	-20.403684	0.000375	3.750647	1.270754	-0.000150
1146	1.1393e+02	-5.6180	-20.500575	0.000243	2.432852	0.824273	-0.000097
1147	1.1403e+02	-5.6629	-20.653986	0.000385	3.852016	1.305098	-0.000154
1148	1.1413e+02	-5.7014	-20.771063	0.000294	2.939697	0.995996	-0.000118
1149	1.1423e+02	-5.7351	-20.932549	0.000405	4.054754	1.373788	-0.000162
1150	1.1433e+02	-5.7736	-21.094034	0.000405	4.054754	1.373788	-0.000162
1151	1.1442e+02	-5.8105	-21.223223	0.000324	3.243803	1.099030	-0.000130
1152	1.1452e+02	-5.8554	-21.368559	0.000365	3.649279	1.236409	-0.000146
1153	1.1462e+02	-5.8972	-21.517933	0.000375	3.750647	1.270754	-0.000150
1154	1.1472e+02	-5.9308	-21.679419	0.000405	4.054754	1.373788	-0.000162
1155	1.1482e+02	-5.9726	-21.804570	0.000314	3.142434	1.064686	-0.000126
1156	1.1492e+02	-6.0191	-21.970093	0.000416	4.156123	1.408133	-0.000166
1157	1.1502e+02	-6.0447	-22.107355	0.000345	3.446541	1.167720	-0.000138
1158	1.1512e+02	-6.0945	-22.260766	0.000385	3.852016	1.305098	-0.000154
1159	1.1522e+02	-6.1234	-22.418215	0.000395	3.953385	1.339443	-0.000158
1160	1.1532e+02	-6.1683	-22.591812	0.000436	4.358860	1.476822	-0.000174
1161	1.1542e+02	-6.2260	-22.704851	0.000284	2.838328	0.961651	-0.000114
1162	1.1552e+02	-6.2581	-22.838077	0.000335	3.345172	1.133375	-0.000134
1163	1.1562e+02	-6.2918	-22.987451	0.000375	3.750647	1.270754	-0.000150
1164	1.1572e+02	-6.3287	-23.108565	0.000304	3.041065	1.030341	-0.000122
1165	1.1582e+02	-6.3736	-23.257939	0.000375	3.750647	1.270754	-0.000150
1166	1.1592e+02	-6.4009	-23.391164	0.000335	3.345172	1.133375	-0.000134
1167	1.1602e+02	-6.4458	-23.463833	0.000182	1.824639	0.618205	-0.000073
1168	1.1612e+02	-6.4843	-23.625318	0.000405	4.054754	1.373788	-0.000162
1169	1.1622e+02	-6.5292	-23.750470	0.000314	3.142434	1.064686	-0.000126
1170	1.1632e+02	-6.5709	-23.887732	0.000345	3.446541	1.167720	-0.000138
1171	1.1642e+02	-6.5998	-24.061329	0.000436	4.358860	1.476822	-0.000174
1172	1.1651e+02	-6.6479	-24.226852	0.000416	4.156123	1.408133	-0.000166
1173	1.1661e+02	-6.6816	-24.400448	0.000436	4.358860	1.476822	-0.000174
1174	1.1671e+02	-6.7282	-24.529637	0.000324	3.243803	1.099030	-0.000130
1175	1.1681e+02	-6.7602	-24.699196	0.000426	4.257492	1.442477	-0.000170
1176	1.1691e+02	-6.8084	-24.836459	0.000345	3.446541	1.167720	-0.000138
1177	1.1701e+02	-6.8340	-24.957573	0.000304	3.041065	1.030341	-0.000122
1178	1.1711e+02	-6.8838	-25.119059	0.000405	4.054754	1.373788	-0.000162
1179	1.1721e+02	-6.9319	-25.268433	0.000375	3.750647	1.270754	-0.000150
1180	1.1731e+02	-6.9640	-25.421844	0.000385	3.852016	1.305098	-0.000154
1181	1.1741e+02	-7.0009	-25.555069	0.000335	3.345172	1.133375	-0.000134
1182	1.1751e+02	-7.0394	-25.680220	0.000314	3.142434	1.064686	-0.000126
1183	1.1761e+02	-7.0891	-25.845743	0.000416	4.156123	1.408133	-0.000166
1184	1.1771e+02	-7.1308	-25.950709	0.000264	2.635590	0.892962	-0.000105
1185	1.1781e+02	-7.1677	-26.100083	0.000375	3.750647	1.270754	-0.000150
1186	1.1791e+02	-7.2062	-26.205048	0.000264	2.635590	0.892962	-0.000105
1187	1.1801e+02	-7.2367	-26.334236	0.000324	3.243803	1.099030	-0.000130
1188	1.1811e+02	-7.2944	-26.544167	0.000527	5.271180	1.785924	-0.000211
1189	1.1821e+02	-7.3249	-26.729876	0.000466	4.662967	1.579856	-0.000187
1190	1.1831e+02	-7.3554	-26.822730	0.000233	2.331483	0.789928	-0.000093
1191	1.1841e+02	-7.4083	-27.000364	0.000446	4.460229	1.511167	-0.000179
1192	1.1850e+02	-7.4517	-27.117441	0.000294	2.939697	0.995996	-0.000118
1193	1.1860e+02	-7.4789	-27.278926	0.000405	4.054754	1.373788	-0.000162
1194	1.1870e+02	-7.5319	-27.408115	0.000324	3.243803	1.099030	-0.000130
1195	1.1880e+02	-7.5607	-27.553451	0.000365	3.649279	1.236409	-0.000146
1196	1.1890e+02	-7.6009	-27.698788	0.000365	3.649279	1.236409	-0.000146
1197	1.1900e+02	-7.6442	-27.844125	0.000365	3.649279	1.236409	-0.000146
1198	1.1910e+02	-7.6843	-27.957165	0.000284	2.838328	0.961651	-0.000114
1199	1.1920e+02	-7.7292	-28.134799	0.000446	4.460229	1.511167	-0.000179
1200	1.1930e+02	-7.7597	-28.263987	0.000324	3.243803	1.099030	-0.000130
1201	1.1940e+02	-7.8030	-28.389139	0.000314	3.142434	1.064686	-0.000126
1202	1.1950e+02	-7.8479	-28.510253	0.000304	3.041065	1.030341	-0.000122
1203	1.1960e+02	-7.8768	-28.595032	0.000213	2.128746	0.721239	-0.000085
1204	1.1970e+02	-7.9233	-28.728258	0.000335	3.345172	1.133375	-0.000134
1205	1.1980e+02	-7.9666	-28.873595	0.000365	3.649279	1.236409	-0.000146
1206	1.1990e+02	-8.0003	-29.071414	0.000497	4.967074	1.682890	-0.000199
1207	1.2000e+02	-8.0388	-29.204640	0.000335	3.345172	1.133375	-0.000134
1208	1.2010e+02	-8.0757	-29.345940	0.000355	3.547910	1.202064	-0.000142
1209	1.2020e+02	-8.1238	-29.511462	0.000416	4.156123	1.408133	-0.000166
1210	1.2030e+02	-8.1671	-29.640651	0.000324	3.243803	1.099030	-0.000130
1211	1.2039e+02	-8.1976	-29.785987	0.000365	3.649279	1.236409	-0.000146
1212	1.2049e+02	-8.2474	-29.890953	0.000264	2.635590	0.892962	-0.000105
1213	1.2059e+02	-8.2794	-30.028216	0.000345	3.446541	1.167720	-0.000138
1214	1.2069e+02	-8.3324	-30.181627	0.000385	3.852016	1.305098	-0.000154
1215	1.2079e+02	-8.3516	-30.326964	0.000365	3.649279	1.236409	-0.000146
1216	1.2089e+02	-8.4014	-30.492486	0.000416	4.156123	1.408133	-0.000166
1217	1.2099e+02	-8.4463	-30.609563	0.000294	2.939697	0.995996	-0.000118
1218	1.2109e+02	-8.4768	-30.714529	0.000264	2.635590	0.892962	-0.000105
1219	1.2119e+02	-8.5233	-30.876014	0.000405	4.054754	1.373788	-0.000162
1220	1.2129e+02	-8.5618	-30.960794	0.000213	2.128746	0.721239	-0.000085
1221	1.2139e+02	-8.6115	-31.077871	0.000294	2.939697	0.995996	-0.000118
1222	1.2149e+02	-8.6420	-31.235319	0.000395	3.953385	1.339443	-0.000158
1223	1.2159e+02	-8.6757	-31.384693	0.000375	3.750647	1.270754	-0.000150
1224	1.2169e+02	-8.7254	-31.542142	0.000395	3.953385	1.339443	-0.000158
1225	1.2179e+02	-8.7559	-31.703627	0.000405	4.054754	1.373788	-0.000162
1226	1.2189e+02	-8.7928	-31.865112	0.000405	4.054754	1.373788	-0.000162
1227	1.2199e+02	-8.8377	-31.974115	0.000274	2.736959	0.927307	-0.000110
1228	1.2209e+02	-8.8826	-32.099266	0.000314	3.142434	1.064686	-0.000126
1229	1.2219e+02	-8.9179	-32.268826	0.000426	4.257492	1.442477	-0.000170
1230	1.2229e+02	-8.9612	-32.389940	0.000304	3.041065	1.030341	-0.000122
1231	1.2239e+02	-8.9997	-32.490868	0.000253	2.534221	0.858617	-0.000101
1232	1.2248e+02	-9.0366	-32.636205	0.000365	3.649279	1.236409	-0.000146
1233	1.2258e+02	-9.0800	-32.761357	0.000314	3.142434	1.064686	-0.000126
1234	1.2268e+02	-9.1136	-32.951102	0.000476	4.764336	1.614201	-0.000191
1235	1.2278e+02	-9.1618	-33.092402	0.000355	3.547910	1.202064	-0.000142
1236	1.2288e+02	-9.2019	-33.217553	0.000314	3.142434	1.064686	-0.000126
1237	1.2298e+02	-9.2420	-33.330593	0.000284	2.838328	0.961651	-0.000114
1238	1.2308e+02	-9.2821	-33.455744	0.000314	3.142434	1.064686	-0.000126
1239	1.2318e+02	-9.3190	-33.597044	0.000355	3.547910	1.202064	-0.000142
1240	1.2328e+02	-9.3511	-33.685861	0.000223	2.230115	0.755583	-0.000089
1241	1.2338e+02	-9.3928	-33.863495	0.000446	4.460229	1.511167	-0.000179
1242	1.2348e+02	-9.4393	-34.020943	0.000395	3.953385	1.339443	-0.000158
1243	1.2358e+02	-9.4682	-34.154168	0.000335	3.345172	1.133375	-0.000134
1244	1.2368e+02	-9.5179	-34.331802	0.000446	4.460229	1.511167	-0.000179
1245	1.2378e+02	-9.5516	-34.456954	0.000314	3.142434	1.064686	-0.000126
1246	1.2388e+02	-9.5869	-34.606328	0.000375	3.750647	1.270754	-0.000150
1247	1.2398e+02	-9.6366	-34.699182	0.000233	2.331483	0.789928	-0.000093
1248	1.2408e+02	-9.6783	-34.808184	0.000274	2.736959	0.927307	-0.000110
1249	1.2418e+02	-9.7120	-34.973707	0.000416	4.156123	1.408133	-0.000166
1250	1.2428e+02	-9.7618	-35.094821	0.000304	3.041065	1.030341	-0.000122
1251	1.2438e+02	-9.7906	-35.224009	0.000324	3.243803	1.099030	-0.000130
1252	1.2447e+02	-9.8372	-35.397606	0.000436	4.358860	1.476822	-0.000174
1253	1.2457e+02	-9.8789	-35.498535	0.000253	2.534221	0.858617	-0.000101
1254	1.2467e+02	-9.9126	-35.664057	0.000416	4.156123	1.408133	-0.000166
1255	1.2477e+02	-9.9511	-35.805357	0.000355	3.547910	1.202064	-0.000142
1256	1.2487e+02	-9.9960	-35.966842	0.000405	4.054754	1.373788	-0.000162
1257	1.2497e+02	-10.0313	-36.091993	0.000314	3.142434	1.064686	-0.000126
1258	1.2507e+02	-10.0698	-36.229256	0.000345	3.446541	1.167720	-0.000138
1259	1.2517e+02	-10.1099	-36.318073	0.000223	2.230115	0.755583	-0.000089
1260	1.2527e+02	-10.1516	-36.487633	0.000426	4.257492	1.442477	-0.000170
1261	1.2537e+02	-10.1949	-36.600673	0.000284	2.838328	0.961651	-0.000114
1262	1.2547e+02	-10.2286	-36.733898	0.000335	3.345172	1.133375	-0.000134
1263	1.2557e+02	-10.2671	-36.883272	0.000375	3.750647	1.270754	-0.000150
1264	1.2567e+02	-10.3104	-37.024572	0.000355	3.547910	1.202064	-0.000142
1265	1.2577e+02	-10.3489	-37.113389	0.000223	2.230115	0.755583	-0.000089
1266	1.2587e+02	-10.3954	-37.282949	0.000426	4.257492	1.442477	-0.000170
1267	1.2597e+02	-10.4371	-37.452508	0.000426	4.257492	1.442477	-0.000170
1268	1.2607e+02	-10.4708	-37.581697	0.000324	3.243803	1.099030	-0.000130
1269	1.2617e+02	-10.5093	-37.678588	0.000243	2.432852	0.824273	-0.000097
1270	1.2627e+02	-10.5607	-37.811813	0.000335	3.345172	1.133375	-0.000134
1271	1.2636e+02	-10.5895	-37.928890	0.000294	2.939697	0.995996	-0.000118
1272	1.2646e+02	-10.6377	-38.045967	0.000294	2.939697	0.995996	-0.000118
1273	1.2656e+02	-10.6730	-38.211490	0.000416	4.156123	1.408133	-0.000166
1274	1.2666e+02	-10.7066	-38.328567	0.000294	2.939697	0.995996	-0.000118
1275	1.2676e+02	-10.7435	-38.506201	0.000446	4.460229	1.511167	-0.000179
1276	1.2686e+02	-10.7869	-38.651538	0.000365	3.649279	1.236409	-0.000146
1277	1.2696e+02	-10.8366	-38.772652	0.000304	3.041065	1.030341	-0.000122
1278	1.2706e+02	-10.8671	-38.865506	0.000233	2.331483	0.789928	-0.000093
1279	1.2716e+02	-10.9104	-39.047177	0.000456	4.561598	1.545511	-0.000183
1280	1.2726e+02	-10.9489	-39.156180	0.000274	2.736959	0.927307	-0.000110
1281	1.2736e+02	-10.9986	-39.273256	0.000294	2.939697	0.995996	-0.000118
1282	1.2746e+02	-11.0227	-39.374185	0.000253	2.534221	0.858617	-0.000101
1283	1.2756e+02	-11.0628	-39.555856	0.000456	4.561598	1.545511	-0.000183
1284	1.2766e+02	-11.1061	-39.685044	0.000324	3.243803	1.099030	-0.000130
1285	1.2776e+02	-11.1574	-39.850567	0.000416	4.156123	1.408133	-0.000166
1286	1.2786e+02	-11.1879	-39.967644	0.000294	2.939697	0.995996	-0.000118
1287	1.2796e+02	-11.2344	-40.100869	0.000335	3.345172	1.133375	-0.000134
1288	1.2806e+02	-11.2794	-40.226020	0.000314	3.142434	1.064686	-0.000126
1289	1.2816e+02	-11.3130	-40.371357	0.000365	3.649279	1.236409	-0.000146
1290	1.2826e+02	-11.3612	-40.512657	0.000355	3.547910	1.202064	-0.000142
1291	1.2835e+02	-11.3917	-40.633771	0.000304	3.041065	1.030341	-0.000122
1292	1.2845e+02	-11.4189	-40.791219	0.000395	3.953385	1.339443	-0.000158
1293	1.2855e+02	-11.4687	-40.916371	0.000314	3.142434	1.064686	-0.000126
1294	1.2865e+02	-11.5104	-41.094005	0.000446	4.460229	1.511167	-0.000179
1295	1.2875e+02	-11.5473	-41.186859	0.000233	2.331483	0.789928	-0.000093
1296	1.2885e+02	-11.5906	-41.356419	0.000426	4.257492	1.442477	-0.000170
1297	1.2895e+02	-11.6291	-41.489644	0.000335	3.345172	1.133375	-0.000134
1298	1.2905e+02	-11.6676	-41.586535	0.000243	2.432852	0.824273	-0.000097
1299	1.2915e+02	-11.7045	-41.772243	0.000466	4.662967	1.579856	-0.000187
1300	1.2925e+02	-11.7478	-41.877209	0.000264	2.635590	0.892962	-0.000105
1301	1.2935e+02	-11.7879	-42.006397	0.000324	3.243803	1.099030	-0.000130
1302	1.2945e+02	-11.8344	-42.139623	0.000335	3.345172	1.133375	-0.000134
1303	1.2955e+02	-11.8697	-42.293034	0.000385	3.852016	1.305098	-0.000154
1304	1.2965e+02	-11.9050	-42.450482	0.000395	3.953385	1.339443	-0.000158
1305	1.2975e+02	-11.9467	-42.535262	0.000213	2.128746	0.721239	-0.000085
1306	1.2985e+02	-11.9884	-42.684636	0.000375	3.750647	1.270754	-0.000150
1307	1.2995e+02	-12.0221	-42.834010	0.000375	3.750647	1.270754	-0.000150
1308	1.3005e+02	-12.0751	-42.951087	0.000294	2.939697	0.995996	-0.000118
1309	1.3015e+02	-12.1055	-43.100461	0.000375	3.750647	1.270754	-0.000150
1310	1.3025e+02	-12.1440	-43.253872	0.000385	3.852016	1.305098	-0.000154
1311	1.3034e+02	-12.1745	-43.374986	0.000304	3.041065	1.030341	-0.000122
1312	1.3044e+02	-12.2178	-43.540509	0.000416	4.156123	1.408133	-0.000166
1313	1.3054e+02	-12.2644	-43.685846	0.000365	3.649279	1.236409	-0.000146
1314	1.3064e+02	-12.3045	-43.746403	0.000152	1.520533	0.515170	-0.000061
1315	1.3074e+02	-12.3462	-43.867517	0.000304	3.041065	1.030341	-0.000122
1316	1.3084e+02	-12.3911	-44.073411	0.000517	5.169811	1.751579	-0.000207
1317	1.3094e+02	-12.4200	-44.138005	0.000162	1.621902	0.549515	-0.000065
1318	1.3104e+02	-12.4649	-44.263156	0.000314	3.142434	1.064686	-0.000126
1319	1.3114e+02	-12.5034	-44.392345	0.000324	3.243803	1.099030	-0.000130
1320	1.3124e+02	-12.5419	-44.561904	0.000426	4.257492	1.442477	-0.000170
1321	1.3134e+02	-12.5884	-44.670907	0.000274	2.736959	0.927307	-0.000110
1322	1.3144e+02	-12.6237	-44.804132	0.000335	3.345172	1.133375	-0.000134
1323	1.3154e+02	-12.6638	-44.937358	0.000335	3.345172	1.133375	-0.000134
1324	1.3164e+02	-12.7103	-45.094806	0.000395	3.953385	1.339443	-0.000158
1325	1.3174e+02	-12.7488	-45.215920	0.000304	3.041065	1.030341	-0.000122
1326	1.3184e+02	-12.7841	-45.361257	0.000365	3.649279	1.236409	-0.000146
1327	1.3194e+02	-12.8290	-45.490445	0.000324	3.243803	1.099030	-0.000130
1328	1.3204e+02	-12.8627	-45.607522	0.000294	2.939697	0.995996	-0.000118
1329	1.3214e+02	-12.8996	-45.764971	0.000395	3.953385	1.339443	-0.000158
1330	1.3224e+02	-12.9430	-45.898196	0.000335	3.345172	1.133375	-0.000134
1331	1.3234e+02	-12.9798	-46.003162	0.000264	2.635590	0.892962	-0.000105
1332	1.3243e+02	-13.0151	-46.144461	0.000355	3.547910	1.202064	-0.000142
1333	1.3253e+02	-13.0585	-46.253464	0.000274	2.736959	0.927307	-0.000110
1334	1.3263e+02	-13.1002	-46.410912	0.000395	3.953385	1.339443	-0.000158
1335	1.3273e+02	-13.1403	-46.527989	0.000294	2.939697	0.995996	-0.000118
1336	1.3283e+02	-13.1756	-46.661215	0.000335	3.345172	1.133375	-0.000134
1337	1.3293e+02	-13.2237	-46.790403	0.000324	3.243803	1.099030	-0.000130
1338	1.3303e+02	-13.2590	-46.927666	0.000345	3.446541	1.167720	-0.000138
1339	1.3313e+02	-13.3023	-47.073003	0.000365	3.649279	1.236409	-0.000146
1340	1.3323e+02	-13.3328	-47.186043	0.000284	2.838328	0.961651	-0.000114
1341	1.3333e+02	-13.3761	-47.286971	0.000253	2.534221	0.858617	-0.000101
1342	1.3343e+02	-13.4338	-47.436345	0.000375	3.750647	1.270754	-0.000150
1343	1.3353e+02	-13.4707	-47.589756	0.000385	3.852016	1.305098	-0.000154
1344	1.3363e+02	-13.5012	-47.706833	0.000294	2.939697	0.995996	-0.000118
1345	1.3373e+02	-13.5429	-47.831984	0.000314	3.142434	1.064686	-0.000126
1346	1.3383e+02	-13.5782	-47.932913	0.000253	2.534221	0.858617	-0.000101
1347	1.3393e+02	-13.6151	-48.126695	0.000487	4.865705	1.648545	-0.000195
1348	1.3403e+02	-13.6472	-48.280106	0.000385	3.852016	1.305098	-0.000154
1349	1.3413e+02	-13.7001	-48.393146	0.000284	2.838328	0.961651	-0.000114
1350	1.3423e+02	-13.7435	-48.526372	0.000335	3.345172	1.133375	-0.000134
1351	1.3432e+02	-13.7755	-48.615189	0.000223	2.230115	0.755583	-0.000089
1352	1.3442e+02	-13.8221	-48.760525	0.000365	3.649279	1.236409	-0.000146
1353	1.3452e+02	-13.8590	-48.877602	0.000294	2.939697	0.995996	-0.000118
1354	1.3462e+02	-13.9023	-49.047162	0.000426	4.257492	1.442477	-0.000170
1355	1.3472e+02	-13.9344	-49.140016	0.000233	2.331483	0.789928	-0.000093
1356	1.3482e+02	-13.9713	-49.309576	0.000426	4.257492	1.442477	-0.000170
1357	1.3492e+02	-14.0210	-49.390319	0.000203	2.027377	0.686894	-0.000081
1358	1.3502e+02	-14.0595	-49.555841	0.000416	4.156123	1.408133	-0.000166
1359	1.3512e+02	-14.0948	-49.693104	0.000345	3.446541	1.167720	-0.000138
1360	1.3522e+02	-14.1429	-49.814218	0.000304	3.041065	1.030341	-0.000122
1361	1.3532e+02	-14.1830	-49.939369	0.000314	3.142434	1.064686	-0.000126
1362	1.3542e+02	-14.2135	-50.092780	0.000385	3.852016	1.305098	-0.000154
1363	1.3552e+02	-14.2632	-50.205820	0.000284	2.838328	0.961651	-0.000114
1364	1.3562e+02	-14.2969	-50.347120	0.000355	3.547910	1.202064	-0.000142
1365	1.3572e+02	-14.3370	-50.460160	0.000284	2.838328	0.961651	-0.000114
1366	1.3582e+02	-14.3723	-50.662016	0.000507	5.068442	1.717235	-0.000203
1367	1.3592e+02	-14.4204	-50.775056	0.000284	2.838328	0.961651	-0.000114
1368	1.3602e+02	-14.4557	-50.855799	0.000203	2.027377	0.686894	-0.000081
1369	1.3612e+02	-14.4910	-50.964802	0.000274	2.736959	0.927307	-0.000110
1370	1.3622e+02	-14.5311	-51.114176	0.000375	3.750647	1.270754	-0.000150
1371	1.3631e+02	-14.5729	-51.223178	0.000274	2.736959	0.927307	-0.000110
1372	1.3641e+02	-14.6130	-51.344292	0.000304	3.041065	1.030341	-0.000122
1373	1.3651e+02	-14.6563	-51.445221	0.000253	2.534221	0.858617	-0.000101
1374	1.3661e+02	-14.7012	-51.598632	0.000385	3.852016	1.305098	-0.000154
1375	1.3671e+02	-14.7445	-51.703597	0.000264	2.635590	0.892962	-0.000105
1376	1.3681e+02	-14.7782	-51.844897	0.000355	3.547910	1.202064	-0.000142
1377	1.3691e+02	-14.8119	-51.925640	0.000203	2.027377	0.686894	-0.000081
1378	1.3701e+02	-14.8552	-52.091162	0.000416	4.156123	1.408133	-0.000166
1379	1.3711e+02	-14.9081	-52.236499	0.000365	3.649279	1.236409	-0.000146
1380	1.3721e+02	-14.9322	-52.325316	0.000223	2.230115	0.755583	-0.000089
1381	1.3731e+02	-14.9755	-52.462579	0.000345	3.446541	1.167720	-0.000138
1382	1.3741e+02	-15.0252	-52.591767	0.000324	3.243803	1.099030	-0.000130
1383	1.3751e+02	-15.0445	-52.781513	0.000476	4.764336	1.614201	-0.000191
1384	1.3761e+02	-15.0926	-52.902627	0.000304	3.041065	1.030341	-0.000122
1385	1.3771e+02	-15.1407	-53.068149	0.000416	4.156123	1.408133	-0.000166
1386	1.3781e+02	-15.1632	-53.132743	0.000162	1.621902	0.549515	-0.000065
1387	1.3791e+02	-15.2129	-53.249820	0.000294	2.939697	0.995996	-0.000118
1388	1.3801e+02	-15.2498	-53.370934	0.000304	3.041065	1.030341	-0.000122
1389	1.3811e+02	-15.2915	-53.528383	0.000395	3.953385	1.339443	-0.000158
1390	1.3821e+02	-15.3333	-53.617200	0.000223	2.230115	0.755583	-0.000089
1391	1.3831e+02	-15.3750	-53.726202	0.000274	2.736959	0.927307	-0.000110
1392	1.3840e+02	-15.4103	-53.883651	0.000395	3.953385	1.339443	-0.000158
1393	1.3850e+02	-15.4520	-53.980542	0.000243	2.432852	0.824273	-0.000097
1394	1.3860e+02	-15.4873	-54.089545	0.000274	2.736959	0.927307	-0.000110
1395	1.3870e+02	-15.5386	-54.242956	0.000385	3.852016	1.305098	-0.000154
1396	1.3880e+02	-15.5691	-54.376181	0.000335	3.345172	1.133375	-0.000134
1397	1.3890e+02	-15.6172	-54.485184	0.000274	2.736959	0.927307	-0.000110
1398	1.3900e+02	-15.6557	-54.590149	0.000264	2.635590	0.892962	-0.000105
1399	1.3910e+02	-15.7006	-54.743561	0.000385	3.852016	1.305098	-0.000154
1400	1.3920e+02	-15.7359	-54.917157	0.000436	4.358860	1.476822	-0.000174
1401	1.3930e+02	-15.7648	-55.046346	0.000324	3.243803	1.099030	-0.000130
1402	1.3940e+02	-15.8081	-55.151311	0.000264	2.635590	0.892962	-0.000105
1403	1.3950e+02	-15.8482	-55.304722	0.000385	3.852016	1.305098	-0.000154
1404	1.3960e+02	-15.8899	-55.417762	0.000284	2.838328	0.961651	-0.000114
1405	1.3970e+02	-15.9332	-55.526765	0.000274	2.736959	0.927307	-0.000110
1406	1.3980e+02	-15.9685	-55.623656	0.000243	2.432852	0.824273	-0.000097
1407	1.3990e+02	-16.0118	-55.764956	0.000355	3.547910	1.202064	-0.000142
1408	1.4000e+02	-16.0359	-55.873959	0.000274	2.736959	0.927307	-0.000110
1409	1.4010e+02	-16.0937	-55.995073	0.000304	3.041065	1.030341	-0.000122
1410	1.4020e+02	-16.1257	-56.116187	0.000304	3.041065	1.030341	-0.000122
1411	1.4029e+02	-16.1707	-56.269598	0.000385	3.852016	1.305098	-0.000154
1412	1.4039e+02	-16.2076	-56.431083	0.000405	4.054754	1.373788	-0.000162
1413	1.4049e+02	-16.2429	-56.503752	0.000182	1.824639	0.618205	-0.000073
1414	1.4059e+02	-16.2910	-56.669274	0.000416	4.156123	1.408133	-0.000166
1415	1.4069e+02	-16.3327	-56.758091	0.000223	2.230115	0.755583	-0.000089
1416	1.4079e+02	-16.3696	-56.919577	0.000405	4.054754	1.373788	-0.000162
1417	1.4089e+02	-16.4097	-57.024542	0.000264	2.635590	0.892962	-0.000105
1418	1.4099e+02	-16.4482	-57.141619	0.000294	2.939697	0.995996	-0.000118
1419	1.4109e+02	-16.4899	-57.303105	0.000405	4.054754	1.373788	-0.000162
1420	1.4119e+02	-16.5252	-57.440367	0.000345	3.446541	1.167720	-0.000138
1421	1.4129e+02	-16.5701	-57.553407	0.000284	2.838328	0.961651	-0.000114
1422	1.4139e+02	-16.6086	-57.658373	0.000264	2.635590	0.892962	-0.000105
1423	1.4149e+02	-16.6487	-57.771412	0.000284	2.838328	0.961651	-0.000114
1424	1.4159e+02	-16.6920	-57.928861	0.000395	3.953385	1.339443	-0.000158
1425	1.4169e+02	-16.7273	-58.013641	0.000213	2.128746	0.721239	-0.000085
1426	1.4179e+02	-16.7658	-58.146866	0.000335	3.345172	1.133375	-0.000134
1427	1.4189e+02	-16.7995	-58.259906	0.000284	2.838328	0.961651	-0.000114
1428	1.4199e+02	-16.8541	-58.413317	0.000385	3.852016	1.305098	-0.000154
1429	1.4209e+02	-16.8797	-58.477911	0.000162	1.621902	0.549515	-0.000065
1430	1.4219e+02	-16.9311	-58.651508	0.000436	4.358860	1.476822	-0.000174
1431	1.4228e+02	-16.9616	-58.736288	0.000213	2.128746	0.721239	-0.000085
1432	1.4238e+02	-17.0033	-58.889699	0.000385	3.852016	1.305098	-0.000154
1433	1.4248e+02	-17.0514	-59.010813	0.000304	3.041065	1.030341	-0.000122
1434	1.4258e+02	-17.0963	-59.152113	0.000355	3.547910	1.202064	-0.000142
1435	1.4268e+02	-17.1300	-59.281301	0.000324	3.243803	1.099030	-0.000130
1436	1.4278e+02	-17.1605	-59.386267	0.000264	2.635590	0.892962	-0.000105
1437	1.4288e+02	-17.2086	-59.543715	0.000395	3.953385	1.339443	-0.000158
1438	1.4298e+02	-17.2423	-59.664829	0.000304	3.041065	1.030341	-0.000122
1439	1.4308e+02	-17.2824	-59.802092	0.000345	3.446541	1.167720	-0.000138
1440	1.4318e+02	-17.3209	-59.911094	0.000274	2.736959	0.927307	-0.000110
1441	1.4328e+02	-17.3706	-59.963577	0.000132	1.317795	0.446481	-0.000053
1442	1.4338e+02	-17.3979	-60.116988	0.000385	3.852016	1.305098	-0.000154
1443	1.4348e+02	-17.4476	-60.221954	0.000264	2.635590	0.892962	-0.000105
1444	1.4358e+02	-17.4813	-60.363254	0.000355	3.547910	1.202064	-0.000142
1445	1.4368e+02	-17.5311	-60.476293	0.000284	2.838328	0.961651	-0.000114
1446	1.4378e+02	-17.5680	-60.577222	0.000253	2.534221	0.858617	-0.000101
1447	1.4388e+02	-17.5968	-60.734670	0.000395	3.953385	1.339443	-0.000158
1448	1.4398e+02	-17.6353	-60.871933	0.000345	3.446541	1.167720	-0.000138
1449	1.4408e+02	-17.6819	-61.005158	0.000335	3.345172	1.133375	-0.000134
1450	1.4418e+02	-17.7204	-61.142421	0.000345	3.446541	1.167720	-0.000138
1451	1.4428e+02	-17.7653	-61.235275	0.000233	2.331483	0.789928	-0.000093
1452	1.4437e+02	-17.8006	-61.364463	0.000324	3.243803	1.099030	-0.000130
1453	1.4447e+02	-17.8503	-61.481540	0.000294	2.939697	0.995996	-0.000118
1454	1.4457e+02	-17.8888	-61.634951	0.000385	3.852016	1.305098	-0.000154
1455	1.4467e+02	-17.9193	-61.756065	0.000304	3.041065	1.030341	-0.000122
1456	1.4477e+02	-17.9594	-61.885254	0.000324	3.243803	1.099030	-0.000130
1457	1.4487e+02	-17.9995	-62.046739	0.000405	4.054754	1.373788	-0.000162
1458	1.4497e+02	-18.0412	-62.184002	0.000345	3.446541	1.167720	-0.000138
1459	1.4507e+02	-18.0781	-62.280893	0.000243	2.432852	0.824273	-0.000097
1460	1.4517e+02	-18.1214	-62.341450	0.000152	1.520533	0.515170	-0.000061
1461	1.4527e+02	-18.1663	-62.494861	0.000385	3.852016	1.305098	-0.000154
1462	1.4537e+02	-18.1984	-62.676532	0.000456	4.561598	1.545511	-0.000183
1463	1.4547e+02	-18.2417	-62.745164	0.000172	1.723270	0.583860	-0.000069
1464	1.4557e+02	-18.2931	-62.874352	0.000324	3.243803	1.099030	-0.000130
1465	1.4567e+02	-18.3284	-63.043912	0.000426	4.257492	1.442477	-0.000170
1466	1.4577e+02	-18.3637	-63.128692	0.000213	2.128746	0.721239	-0.000085
1467	1.4587e+02	-18.4006	-63.237694	0.000274	2.736959	0.927307	-0.000110
1468	1.4597e+02	-18.4358	-63.419365	0.000456	4.561598	1.545511	-0.000183
1469	1.4607e+02	-18.4840	-63.496071	0.000193	1.926008	0.652549	-0.000077
1470	1.4617e+02	-18.5241	-63.653519	0.000395	3.953385	1.339443	-0.000158
1471	1.4626e+02	-18.5658	-63.766559	0.000284	2.838328	0.961651	-0.000114
1472	1.4636e+02	-18.6075	-63.928044	0.000405	4.054754	1.373788	-0.000162
1473	1.4646e+02	-18.6396	-64.057233	0.000324	3.243803	1.099030	-0.000130
1474	1.4656e+02	-18.6797	-64.178347	0.000304	3.041065	1.030341	-0.000122
1475	1.4666e+02	-18.7294	-64.303498	0.000314	3.142434	1.064686	-0.000126
1476	1.4676e+02	-18.7487	-64.376166	0.000182	1.824639	0.618205	-0.000073
1477	1.4686e+02	-18.7984	-64.513429	0.000345	3.446541	1.167720	-0.000138
1478	1.4696e+02	-18.8321	-64.634543	0.000304	3.041065	1.030341	-0.000122
1479	1.4706e+02	-18.8786	-64.743546	0.000274	2.736959	0.927307	-0.000110
1480	1.4716e+02	-18.9123	-64.913106	0.000426	4.257492	1.442477	-0.000170
1481	1.4726e+02	-18.9492	-64.985774	0.000182	1.824639	0.618205	-0.000073
1482	1.4736e+02	-19.0005	-65.131111	0.000365	3.649279	1.236409	-0.000146
1483	1.4746e+02	-19.0374	-65.276448	0.000365	3.649279	1.236409	-0.000146
1484	1.4756e+02	-19.0759	-65.421785	0.000365	3.649279	1.236409	-0.000146
1485	1.4766e+02	-19.1209	-65.502527	0.000203	2.027377	0.686894	-0.000081
1486	1.4776e+02	-19.1610	-65.643827	0.000355	3.547910	1.202064	-0.000142
1487	1.4786e+02	-19.2011	-65.777053	0.000335	3.345172	1.133375	-0.000134
1488	1.4796e+02	-19.2444	-65.873944	0.000243	2.432852	0.824273	-0.000097
1489	1.4806e+02	-19.2813	-65.978909	0.000264	2.635590	0.892962	-0.000105
1490	1.4816e+02	-19.3134	-66.128283	0.000375	3.750647	1.270754	-0.000150
1491	1.4825e+02	-19.3487	-66.277657	0.000375	3.750647	1.270754	-0.000150
1492	1.4835e+02	-19.3920	-66.414920	0.000345	3.446541	1.167720	-0.000138
1493	1.4845e+02	-19.4385	-66.503737	0.000223	2.230115	0.755583	-0.000089
1494	1.4855e+02	-19.4674	-66.612740	0.000274	2.736959	0.927307	-0.000110
1495	1.4865e+02	-19.5075	-66.737891	0.000314	3.142434	1.064686	-0.000126
1496	1.4875e+02	-19.5540	-66.911488	0.000436	4.358860	1.476822	-0.000174
1497	1.4885e+02	-19.5909	-66.984156	0.000182	1.824639	0.618205	-0.000073
1498	1.4895e+02	-19.6358	-67.129493	0.000365	3.649279	1.236409	-0.000146
1499	1.4905e+02	-19.6663	-67.250607	0.000304	3.041065	1.030341	-0.000122
1500	1.4915e+02	-19.7128	-67.371721	0.000304	3.041065	1.030341	-0.000122
1501	1.4925e+02	-19.7497	-67.476687	0.000264	2.635590	0.892962	-0.000105
1502	1.4935e+02	-19.8010	-67.589727	0.000284	2.838328	0.961651	-0.000114
1503	1.4945e+02	-19.8299	-67.731026	0.000355	3.547910	1.202064	-0.000142
1504	1.4955e+02	-19.8764	-67.819843	0.000223	2.230115	0.755583	-0.000089
1505	1.4965e+02	-19.9198	-67.997477	0.000446	4.460229	1.511167	-0.000179
1506	1.4975e+02	-19.9470	-68.078220	0.000203	2.027377	0.686894	-0.000081
1507	1.4985e+02	-19.9919	-68.219520	0.000355	3.547910	1.202064	-0.000142
1508	1.4995e+02	-19.9470	-68.171074	0.000122	1.216426	0.412136	0.000049
1509	1.5005e+02	-19.9069	-68.106480	0.000162	1.621902	0.549515	0.000065
1510	1.5015e+02	-19.8684	-68.049960	0.000142	1.419164	0.480826	0.000057
1511	1.5025e+02	-19.8331	-67.969217	0.000203	2.027377	0.686894	0.000081
1512	1.5034e+02	-19.7914	-67.856177	0.000284	2.838328	0.961651	0.000114
1513	1.5044e+02	-19.7529	-67.775435	0.000203	2.027377	0.686894	0.000081
1514	1.5054e+02	-19.7096	-67.666432	0.000274	2.736959	0.927307	0.000110
1515	1.5064e+02	-19.6743	-67.597801	0.000172	1.723270	0.583860	0.000069
1516	1.5074e+02	-19.6310	-67.488798	0.000274	2.736959	0.927307	0.000110
1517	1.5084e+02	-19.5957	-67.444390	0.000112	1.115057	0.377792	0.000045
1518	1.5094e+02	-19.5476	-67.375758	0.000172	1.723270	0.583860	0.000069
1519	1.5104e+02	-19.5155	-67.254644	0.000304	3.041065	1.030341	0.000122
1520	1.5114e+02	-19.4802	-67.173902	0.000203	2.027377	0.686894	0.000081
1521	1.5124e+02	-19.4353	-67.093159	0.000203	2.027377	0.686894	0.000081
1522	1.5134e+02	-19.3952	-67.012416	0.000203	2.027377	0.686894	0.000081
1523	1.5144e+02	-19.3615	-66.899376	0.000284	2.838328	0.961651	0.000114
1524	1.5154e+02	-19.3118	-66.826708	0.000182	1.824639	0.618205	0.000073
1525	1.5164e+02	-19.2813	-66.737891	0.000223	2.230115	0.755583	0.000089
1526	1.5174e+02	-19.2396	-66.689445	0.000122	1.216426	0.412136	0.000049
1527	1.5184e+02	-19.1946	-66.612740	0.000193	1.926008	0.652549	0.000077
1528	1.5194e+02	-19.1642	-66.507774	0.000264	2.635590	0.892962	0.000105
1529	1.5204e+02	-19.1144	-66.410883	0.000243	2.432852	0.824273	0.000097
1530	1.5214e+02	-19.0904	-66.322066	0.000223	2.230115	0.755583	0.000089
1531	1.5224e+02	-19.0310	-66.180766	0.000355	3.547910	1.202064	0.000142
1532	1.5233e+02	-18.9957	-66.087912	0.000233	2.331483	0.789928	0.000093
1533	1.5243e+02	-18.9620	-65.986984	0.000253	2.534221	0.858617	0.000101
1534	1.5253e+02	-18.9187	-65.861832	0.000314	3.142434	1.064686	0.000126
1535	1.5263e+02	-18.8866	-65.821461	0.000101	1.013688	0.343447	0.000041
1536	1.5273e+02	-18.8353	-65.696310	0.000314	3.142434	1.064686	0.000126
1537	1.5283e+02	-18.8048	-65.595381	0.000253	2.534221	0.858617	0.000101
1538	1.5293e+02	-18.7615	-65.518676	0.000193	1.926008	0.652549	0.000077
1539	1.5303e+02	-18.7166	-65.405636	0.000284	2.838328	0.961651	0.000114
1540	1.5313e+02	-18.6845	-65.288559	0.000294	2.939697	0.995996	0.000118
1541	1.5323e+02	-18.6428	-65.195705	0.000233	2.331483	0.789928	0.000093
1542	1.5333e+02	-18.5995	-65.098814	0.000243	2.432852	0.824273	0.000097
1543	1.5343e+02	-18.5610	-65.009997	0.000223	2.230115	0.755583	0.000089
1544	1.5353e+02	-18.5145	-64.921180	0.000223	2.230115	0.755583	0.000089
1545	1.5363e+02	-18.4759	-64.880808	0.000101	1.013688	0.343447	0.000041
1546	1.5373e+02	-18.4358	-64.771806	0.000274	2.736959	0.927307	0.000110
1547	1.5383e+02	-18.3877	-64.634543	0.000345	3.446541	1.167720	0.000138
1548	1.5393e+02	-18.3620	-64.509392	0.000314	3.142434	1.064686	0.000126
1549	1.5403e+02	-18.3171	-64.392315	0.000294	2.939697	0.995996	0.000118
1550	1.5413e+02	-18.2754	-64.311572	0.000203	2.027377	0.686894	0.000081
1551	1.5422e+02	-18.2433	-64.174310	0.000345	3.446541	1.167720	0.000138
1552	1.5432e+02	-18.2000	-64.093567	0.000203	2.027377	0.686894	0.000081
1553	1.5442e+02	-18.1599	-63.952267	0.000355	3.547910	1.202064	0.000142
1554	1.5452e+02	-18.1310	-63.883636	0.000172	1.723270	0.583860	0.000069
1555	1.5462e+02	-18.0829	-63.762522	0.000304	3.041065	1.030341	0.000122
1556	1.5472e+02	-18.0428	-63.669668	0.000233	2.331483	0.789928	0.000093
1557	1.5482e+02	-18.0059	-63.548554	0.000304	3.041065	1.030341	0.000122
1558	1.5492e+02	-17.9658	-63.439551	0.000274	2.736959	0.927307	0.000110
1559	1.5502e+02	-17.9209	-63.358808	0.000203	2.027377	0.686894	0.000081
1560	1.5512e+02	-17.8856	-63.290177	0.000172	1.723270	0.583860	0.000069
1561	1.5522e+02	-17.8423	-63.193286	0.000243	2.432852	0.824273	0.000097
1562	1.5532e+02	-17.8070	-63.100432	0.000233	2.331483	0.789928	0.000093
1563	1.5542e+02	-17.7556	-62.955095	0.000365	3.649279	1.236409	0.000146
1564	1.5552e+02	-17.7236	-62.886463	0.000172	1.723270	0.583860	0.000069
1565	1.5562e+02	-17.6867	-62.801684	0.000213	2.128746	0.721239	0.000085
1566	1.5572e+02	-17.6289	-62.668458	0.000335	3.345172	1.133375	0.000134
1567	1.5582e+02	-17.5984	-62.603864	0.000162	1.621902	0.549515	0.000065
1568	1.5592e+02	-17.5631	-62.414119	0.000476	4.764336	1.614201	0.000191
1569	1.5602e+02	-17.5262	-62.288967	0.000314	3.142434	1.064686	0.000126
1570	1.5612e+02	-17.4845	-62.220336	0.000172	1.723270	0.583860	0.000069
1571	1.5622e+02	-17.4444	-62.119408	0.000253	2.534221	0.858617	0.000101
1572	1.5631e+02	-17.4091	-61.998294	0.000304	3.041065	1.030341	0.000122
1573	1.5641e+02	-17.3594	-61.889291	0.000274	2.736959	0.927307	0.000110
1574	1.5651e+02	-17.3209	-61.796437	0.000233	2.331483	0.789928	0.000093
1575	1.5661e+02	-17.2808	-61.691471	0.000264	2.635590	0.892962	0.000105
1576	1.5671e+02	-17.2503	-61.566320	0.000314	3.142434	1.064686	0.000126
1577	1.5681e+02	-17.2038	-61.481540	0.000213	2.128746	0.721239	0.000085
1578	1.5691e+02	-17.1669	-61.360426	0.000304	3.041065	1.030341	0.000122
1579	1.5701e+02	-17.1204	-61.291795	0.000172	1.723270	0.583860	0.000069
1580	1.5711e+02	-17.0835	-61.207015	0.000213	2.128746	0.721239	0.000085
1581	1.5721e+02	-17.0418	-61.110124	0.000243	2.432852	0.824273	0.000097
1582	1.5731e+02	-17.0065	-60.993047	0.000294	2.939697	0.995996	0.000118
1583	1.5741e+02	-16.9680	-60.904230	0.000223	2.230115	0.755583	0.000089
1584	1.5751e+02	-16.9231	-60.779079	0.000314	3.142434	1.064686	0.000126
1585	1.5761e+02	-16.8846	-60.678150	0.000253	2.534221	0.858617	0.000101
1586	1.5771e+02	-16.8428	-60.540888	0.000345	3.446541	1.167720	0.000138
1587	1.5781e+02	-16.8075	-60.399588	0.000355	3.547910	1.202064	0.000142
1588	1.5791e+02	-16.7755	-60.270399	0.000324	3.243803	1.099030	0.000130
1589	1.5801e+02	-16.7305	-60.169471	0.000253	2.534221	0.858617	0.000101
1590	1.5811e+02	-16.6840	-60.072580	0.000243	2.432852	0.824273	0.000097
1591	1.5821e+02	-16.6487	-59.991837	0.000203	2.027377	0.686894	0.000081
1592	1.5830e+02	-16.6086	-59.882834	0.000274	2.736959	0.927307	0.000110
1593	1.5840e+02	-16.5765	-59.745572	0.000345	3.446541	1.167720	0.000138
1594	1.5850e+02	-16.5268	-59.656755	0.000223	2.230115	0.755583	0.000089
1595	1.5860e+02	-16.4995	-59.563901	0.000233	2.331483	0.789928	0.000093
1596	1.5870e+02	-16.4450	-59.462972	0.000253	2.534221	0.858617	0.000101
1597	1.5880e+02	-16.3985	-59.349932	0.000284	2.838328	0.961651	0.000114
1598	1.5890e+02	-16.3648	-59.293413	0.000142	1.419164	0.480826	0.000057
1599	1.5900e+02	-16.3183	-59.160187	0.000335	3.345172	1.133375	0.000134
1600	1.5910e+02	-16.2830	-59.047147	0.000284	2.838328	0.961651	0.000114
1601	1.5920e+02	-16.2525	-58.938145	0.000274	2.736959	0.927307	0.000110
1602	1.5930e+02	-16.2060	-58.869513	0.000172	1.723270	0.583860	0.000069
1603	1.5940e+02	-16.1659	-58.740325	0.000324	3.243803	1.099030	0.000130
1604	1.5950e+02	-16.1257	-58.607100	0.000335	3.345172	1.133375	0.000134
1605	1.5960e+02	-16.0969	-58.473874	0.000335	3.345172	1.133375	0.000134
1606	1.5970e+02	-16.0552	-58.340649	0.000335	3.345172	1.133375	0.000134
1607	1.5980e+02	-16.0054	-58.215497	0.000314	3.142434	1.064686	0.000126
1608	1.5990e+02	-15.9750	-58.078235	0.000345	3.446541	1.167720	0.000138
1609	1.6000e+02	-15.9348	-58.005566	0.000182	1.824639	0.618205	0.000073
1610	1.6010e+02	-15.8899	-57.860229	0.000365	3.649279	1.236409	0.000146
1611	1.6019e+02	-15.8546	-57.743152	0.000294	2.939697	0.995996	0.000118
1612	1.6029e+02	-15.8177	-57.670484	0.000182	1.824639	0.618205	0.000073
1613	1.6039e+02	-15.7776	-57.545333	0.000314	3.142434	1.064686	0.000126
1614	1.6049e+02	-15.7215	-57.420182	0.000314	3.142434	1.064686	0.000126
1615	1.6059e+02	-15.6798	-57.351550	0.000172	1.723270	0.583860	0.000069
1616	1.6069e+02	-15.6445	-57.282919	0.000172	1.723270	0.583860	0.000069
1617	1.6079e+02	-15.6076	-57.125471	0.000395	3.953385	1.339443	0.000158
1618	1.6089e+02	-15.5787	-57.036654	0.000223	2.230115	0.755583	0.000089
1619	1.6099e+02	-15.5386	-56.968022	0.000172	1.723270	0.583860	0.000069
1620	1.6109e+02	-15.4841	-56.834797	0.000335	3.345172	1.133375	0.000134
1621	1.6119e+02	-15.4536	-56.729831	0.000264	2.635590	0.892962	0.000105
1622	1.6129e+02	-15.4135	-56.632940	0.000243	2.432852	0.824273	0.000097
1623	1.6139e+02	-15.3766	-56.515863	0.000294	2.939697	0.995996	0.000118
1624	1.6149e+02	-15.3333	-56.338229	0.000446	4.460229	1.511167	0.000179
1625	1.6159e+02	-15.2915	-56.229227	0.000274	2.736959	0.927307	0.000110
1626	1.6169e+02	-15.2514	-56.112150	0.000294	2.939697	0.995996	0.000118
1627	1.6179e+02	-15.2081	-55.991036	0.000304	3.041065	1.030341	0.000122
1628	1.6189e+02	-15.1776	-55.877996	0.000284	2.838328	0.961651	0.000114
1629	1.6199e+02	-15.1231	-55.801290	0.000193	1.926008	0.652549	0.000077
1630	1.6209e+02	-15.1006	-55.684213	0.000294	2.939697	0.995996	0.000118
1631	1.6219e+02	-15.0509	-55.571173	0.000284	2.838328	0.961651	0.000114
1632	1.6228e+02	-15.0092	-55.446022	0.000314	3.142434	1.064686	0.000126
1633	1.6238e+02	-14.9659	-55.413725	0.000081	0.810951	0.274758	0.000032
1634	1.6248e+02	-14.9306	-55.276463	0.000345	3.446541	1.167720	0.000138
1635	1.6258e+02	-14.8985	-55.191683	0.000213	2.128746	0.721239	0.000085
1636	1.6268e+02	-14.8584	-55.086717	0.000264	2.635590	0.892962	0.000105
1637	1.6278e+02	-14.8151	-54.969640	0.000294	2.939697	0.995996	0.000118
1638	1.6288e+02	-14.7766	-54.856600	0.000284	2.838328	0.961651	0.000114
1639	1.6298e+02	-14.7349	-54.711264	0.000365	3.649279	1.236409	0.000146
1640	1.6308e+02	-14.6932	-54.622447	0.000223	2.230115	0.755583	0.000089
1641	1.6318e+02	-14.6627	-54.521518	0.000253	2.534221	0.858617	0.000101
1642	1.6328e+02	-14.6146	-54.347921	0.000436	4.358860	1.476822	0.000174
1643	1.6338e+02	-14.5857	-54.255067	0.000233	2.331483	0.789928	0.000093
1644	1.6348e+02	-14.5327	-54.085507	0.000426	4.257492	1.442477	0.000170
1645	1.6358e+02	-14.5007	-53.988616	0.000243	2.432852	0.824273	0.000097
1646	1.6368e+02	-14.4606	-53.863465	0.000314	3.142434	1.064686	0.000126
1647	1.6378e+02	-14.4204	-53.774648	0.000223	2.230115	0.755583	0.000089
1648	1.6388e+02	-14.3675	-53.689868	0.000213	2.128746	0.721239	0.000085
1649	1.6398e+02	-14.3338	-53.536457	0.000385	3.852016	1.305098	0.000154
1650	1.6408e+02	-14.2905	-53.483974	0.000132	1.317795	0.446481	0.000053
1651	1.6418e+02	-14.2600	-53.366897	0.000294	2.939697	0.995996	0.000118
1652	1.6427e+02	-14.2183	-53.245783	0.000304	3.041065	1.030341	0.000122
1653	1.6437e+02	-14.1702	-53.120632	0.000314	3.142434	1.064686	0.000126
1654	1.6447e+02	-14.1349	-53.031815	0.000223	2.230115	0.755583	0.000089
1655	1.6457e+02	-14.0852	-52.918775	0.000284	2.838328	0.961651	0.000114
1656	1.6467e+02	-14.0547	-52.813810	0.000264	2.635590	0.892962	0.000105
1657	1.6477e+02	-14.0210	-52.712881	0.000253	2.534221	0.858617	0.000101
1658	1.6487e+02	-13.9793	-52.575619	0.000345	3.446541	1.167720	0.000138
1659	1.6497e+02	-13.9312	-52.458542	0.000294	2.939697	0.995996	0.000118
1660	1.6507e+02	-13.8927	-52.293019	0.000416	4.156123	1.408133	0.000166
1661	1.6517e+02	-13.8574	-52.175942	0.000294	2.939697	0.995996	0.000118
1662	1.6527e+02	-13.8253	-52.083088	0.000233	2.331483	0.789928	0.000093
1663	1.6537e+02	-13.7739	-51.957937	0.000314	3.142434	1.064686	0.000126
1664	1.6547e+02	-13.7435	-51.788377	0.000426	4.257492	1.442477	0.000170
1665	1.6557e+02	-13.7018	-51.719746	0.000172	1.723270	0.583860	0.000069
1666	1.6567e+02	-13.6568	-51.574409	0.000365	3.649279	1.236409	0.000146
1667	1.6577e+02	-13.6199	-51.485592	0.000223	2.230115	0.755583	0.000089
1668	1.6587e+02	-13.5798	-51.388701	0.000243	2.432852	0.824273	0.000097
1669	1.6597e+02	-13.5253	-51.275661	0.000284	2.838328	0.961651	0.000114
1670	1.6607e+02	-13.4996	-51.166658	0.000274	2.736959	0.927307	0.000110
1671	1.6616e+02	-13.4611	-51.102064	0.000162	1.621902	0.549515	0.000065
1672	1.6626e+02	-13.4194	-50.928467	0.000436	4.358860	1.476822	0.000174
1673	1.6636e+02	-13.3745	-50.831576	0.000243	2.432852	0.824273	0.000097
1674	1.6646e+02	-13.3408	-50.718536	0.000284	2.838328	0.961651	0.000114
1675	1.6656e+02	-13.2975	-50.605496	0.000284	2.838328	0.961651	0.000114
1676	1.6666e+02	-13.2606	-50.439974	0.000416	4.156123	1.408133	0.000166
1677	1.6676e+02	-13.2125	-50.294637	0.000365	3.649279	1.236409	0.000146
1678	1.6686e+02	-13.1788	-50.141226	0.000385	3.852016	1.305098	0.000154
1679	1.6696e+02	-13.1355	-50.052409	0.000223	2.230115	0.755583	0.000089
1680	1.6706e+02	-13.1018	-49.919183	0.000335	3.345172	1.133375	0.000134
1681	1.6716e+02	-13.0633	-49.834404	0.000213	2.128746	0.721239	0.000085
1682	1.6726e+02	-13.0280	-49.757698	0.000193	1.926008	0.652549	0.000077
1683	1.6736e+02	-12.9847	-49.600250	0.000395	3.953385	1.339443	0.000158
1684	1.6746e+02	-12.9478	-49.491247	0.000274	2.736959	0.927307	0.000110
1685	1.6756e+02	-12.8916	-49.374170	0.000294	2.939697	0.995996	0.000118
1686	1.6766e+02	-12.8676	-49.297464	0.000193	1.926008	0.652549	0.000077
1687	1.6776e+02	-12.8242	-49.188462	0.000274	2.736959	0.927307	0.000110
1688	1.6786e+02	-12.7761	-49.075422	0.000284	2.838328	0.961651	0.000114
1689	1.6796e+02	-12.7376	-48.950271	0.000314	3.142434	1.064686	0.000126
1690	1.6806e+02	-12.7119	-48.853380	0.000243	2.432852	0.824273	0.000097
1691	1.6816e+02	-12.6686	-48.712080	0.000355	3.547910	1.202064	0.000142
1692	1.6825e+02	-12.6237	-48.578854	0.000335	3.345172	1.133375	0.000134
1693	1.6835e+02	-12.5884	-48.473889	0.000264	2.635590	0.892962	0.000105
1694	1.6845e+02	-12.5499	-48.368923	0.000264	2.635590	0.892962	0.000105
1695	1.6855e+02	-12.5018	-48.231661	0.000345	3.446541	1.167720	0.000138
1696	1.6865e+02	-12.4569	-48.045952	0.000466	4.662967	1.579856	0.000187
1697	1.6875e+02	-12.4248	-47.961173	0.000213	2.128746	0.721239	0.000085
1698	1.6885e+02	-12.3767	-47.791613	0.000426	4.257492	1.442477	0.000170
1699	1.6895e+02	-12.3478	-47.714907	0.000193	1.926008	0.652549	0.000077
1700	1.6905e+02	-12.3125	-47.601867	0.000284	2.838328	0.961651	0.000114
1701	1.6915e+02	-12.2595	-47.448456	0.000385	3.852016	1.305098	0.000154
1702	1.6925e+02	-12.2291	-47.327342	0.000304	3.041065	1.030341	0.000122
1703	1.6935e+02	-12.1841	-47.262748	0.000162	1.621902	0.549515	0.000065
1704	1.6945e+02	-12.1424	-47.161820	0.000253	2.534221	0.858617	0.000101
1705	1.6955e+02	-12.1104	-47.048780	0.000284	2.838328	0.961651	0.000114
1706	1.6965e+02	-12.0558	-46.939777	0.000274	2.736959	0.927307	0.000110
1707	1.6975e+02	-12.0301	-46.786366	0.000385	3.852016	1.305098	0.000154
1708	1.6985e+02	-11.9836	-46.665252	0.000304	3.041065	1.030341	0.000122
1709	1.6995e+02	-11.9467	-46.536064	0.000324	3.243803	1.099030	0.000130
1710	1.7005e+02	-11.9066	-46.414950	0.000304	3.041065	1.030341	0.000122
1711	1.7015e+02	-11.8713	-46.293836	0.000304	3.041065	1.030341	0.000122
1712	1.7024e+02	-11.8216	-46.209056	0.000213	2.128746	0.721239	0.000085
1713	1.7034e+02	-11.7847	-46.011236	0.000497	4.967074	1.682890	0.000199
1714	1.7044e+02	-11.7526	-45.873973	0.000345	3.446541	1.167720	0.000138
1715	1.7054e+02	-11.7141	-45.720562	0.000385	3.852016	1.305098	0.000154
1716	1.7064e+02	-11.6676	-45.551003	0.000426	4.257492	1.442477	0.000170
1717	1.7074e+02	-11.6339	-45.510631	0.000101	1.013688	0.343447	0.000041
1718	1.7084e+02	-11.5906	-45.353183	0.000395	3.953385	1.339443	0.000158
1719	1.7094e+02	-11.5553	-45.248217	0.000264	2.635590	0.892962	0.000105
1720	1.7104e+02	-11.4991	-45.094806	0.000385	3.852016	1.305098	0.000154
1721	1.7114e+02	-11.4831	-45.042323	0.000132	1.317795	0.446481	0.000053
1722	1.7124e+02	-11.4350	-44.941395	0.000253	2.534221	0.858617	0.000101
1723	1.7134e+02	-11.3836	-44.796058	0.000365	3.649279	1.236409	0.000146
1724	1.7144e+02	-11.3499	-44.634573	0.000405	4.054754	1.373788	0.000162
1725	1.7154e+02	-11.3050	-44.574016	0.000152	1.520533	0.515170	0.000061
1726	1.7164e+02	-11.2617	-44.432716	0.000355	3.547910	1.202064	0.000142
1727	1.7174e+02	-11.2184	-44.299490	0.000335	3.345172	1.133375	0.000134
1728	1.7184e+02	-11.1863	-44.198562	0.000253	2.534221	0.858617	0.000101
1729	1.7194e+02	-11.1510	-44.033039	0.000416	4.156123	1.408133	0.000166
1730	1.7204e+02	-11.1093	-43.948260	0.000213	2.128746	0.721239	0.000085
1731	1.7213e+02	-11.0708	-43.810997	0.000345	3.446541	1.167720	0.000138
1732	1.7223e+02	-11.0307	-43.653549	0.000395	3.953385	1.339443	0.000158
1733	1.7233e+02	-10.9890	-43.516286	0.000345	3.446541	1.167720	0.000138
1734	1.7243e+02	-10.9617	-43.314429	0.000507	5.068442	1.717235	0.000203
1735	1.7253e+02	-10.9104	-43.197352	0.000294	2.939697	0.995996	0.000118
1736	1.7263e+02	-10.8703	-43.112573	0.000213	2.128746	0.721239	0.000085
1737	1.7273e+02	-10.8270	-42.999533	0.000284	2.838328	0.961651	0.000114
1738	1.7283e+02	-10.7853	-42.898604	0.000253	2.534221	0.858617	0.000101
1739	1.7293e+02	-10.7532	-42.809787	0.000223	2.230115	0.755583	0.000089
1740	1.7303e+02	-10.7115	-42.708859	0.000253	2.534221	0.858617	0.000101
1741	1.7313e+02	-10.6601	-42.547374	0.000405	4.054754	1.373788	0.000162
1742	1.7323e+02	-10.6296	-42.438371	0.000274	2.736959	0.927307	0.000110
1743	1.7333e+02	-10.5911	-42.301108	0.000345	3.446541	1.167720	0.000138
1744	1.7343e+02	-10.5575	-42.220366	0.000203	2.027377	0.686894	0.000081
1745	1.7353e+02	-10.5093	-42.091177	0.000324	3.243803	1.099030	0.000130
1746	1.7363e+02	-10.4660	-41.945840	0.000365	3.649279	1.236409	0.000146
1747	1.7373e+02	-10.4355	-41.824726	0.000304	3.041065	1.030341	0.000122
1748	1.7383e+02	-10.3970	-41.655167	0.000426	4.257492	1.442477	0.000170
1749	1.7393e+02	-10.3457	-41.582498	0.000182	1.824639	0.618205	0.000073
1750	1.7403e+02	-10.3216	-41.416976	0.000416	4.156123	1.408133	0.000166
1751	1.7413e+02	-10.2783	-41.283750	0.000335	3.345172	1.133375	0.000134
1752	1.7422e+02	-10.2318	-41.138413	0.000365	3.649279	1.236409	0.000146
1753	1.7432e+02	-10.1917	-40.985002	0.000385	3.852016	1.305098	0.000154
1754	1.7442e+02	-10.1532	-40.855814	0.000324	3.243803	1.099030	0.000130
1755	1.7452e+02	-10.1099	-40.750848	0.000264	2.635590	0.892962	0.000105
1756	1.7462e+02	-10.0746	-40.629734	0.000304	3.041065	1.030341	0.000122
1757	1.7472e+02	-10.0345	-40.548991	0.000203	2.027377	0.686894	0.000081
1758	1.7482e+02	-9.9880	-40.403654	0.000365	3.649279	1.236409	0.000146
1759	1.7492e+02	-9.9478	-40.318875	0.000213	2.128746	0.721239	0.000085
1760	1.7502e+02	-9.9142	-40.189686	0.000324	3.243803	1.099030	0.000130
1761	1.7512e+02	-9.8757	-40.060498	0.000324	3.243803	1.099030	0.000130
1762	1.7522e+02	-9.8291	-39.907087	0.000385	3.852016	1.305098	0.000154
1763	1.7532e+02	-9.8067	-39.773861	0.000335	3.345172	1.133375	0.000134
1764	1.7542e+02	-9.7457	-39.652747	0.000304	3.041065	1.030341	0.000122
1765	1.7552e+02	-9.7168	-39.515485	0.000345	3.446541	1.167720	0.000138
1766	1.7562e+02	-9.6799	-39.386296	0.000324	3.243803	1.099030	0.000130
1767	1.7572e+02	-9.6366	-39.285368	0.000253	2.534221	0.858617	0.000101
1768	1.7582e+02	-9.6013	-39.176365	0.000274	2.736959	0.927307	0.000110
1769	1.7592e+02	-9.5596	-38.986620	0.000476	4.764336	1.614201	0.000191
1770	1.7602e+02	-9.5243	-38.833209	0.000385	3.852016	1.305098	0.000154
1771	1.7612e+02	-9.4730	-38.683835	0.000375	3.750647	1.270754	0.000150
1772	1.7621e+02	-9.4393	-38.574832	0.000274	2.736959	0.927307	0.000110
1773	1.7631e+02	-9.4024	-38.469866	0.000264	2.635590	0.892962	0.000105
1774	1.7641e+02	-9.3543	-38.348752	0.000304	3.041065	1.030341	0.000122
1775	1.7651e+02	-9.3206	-38.239750	0.000274	2.736959	0.927307	0.000110
1776	1.7661e+02	-9.2757	-38.122673	0.000294	2.939697	0.995996	0.000118
1777	1.7671e+02	-9.2340	-37.981373	0.000355	3.547910	1.202064	0.000142
1778	1.7681e+02	-9.1971	-37.900630	0.000203	2.027377	0.686894	0.000081
1779	1.7691e+02	-9.1538	-37.722996	0.000446	4.460229	1.511167	0.000179
1780	1.7701e+02	-9.1265	-37.593808	0.000324	3.243803	1.099030	0.000130
1781	1.7711e+02	-9.0751	-37.484805	0.000274	2.736959	0.927307	0.000110
1782	1.7721e+02	-9.0399	-37.315246	0.000426	4.257492	1.442477	0.000170
1783	1.7731e+02	-8.9853	-37.182020	0.000335	3.345172	1.133375	0.000134
1784	1.7741e+02	-8.9661	-37.068980	0.000284	2.838328	0.961651	0.000114
1785	1.7751e+02	-8.9067	-36.939792	0.000324	3.243803	1.099030	0.000130
1786	1.7761e+02	-8.8858	-36.818678	0.000304	3.041065	1.030341	0.000122
1787	1.7771e+02	-8.8377	-36.685452	0.000335	3.345172	1.133375	0.000134
1788	1.7781e+02	-8.7976	-36.560301	0.000314	3.142434	1.064686	0.000126
1789	1.7791e+02	-8.7575	-36.362482	0.000497	4.967074	1.682890	0.000199
1790	1.7801e+02	-8.7238	-36.241368	0.000304	3.041065	1.030341	0.000122
1791	1.7810e+02	-8.6677	-36.152551	0.000223	2.230115	0.755583	0.000089
1792	1.7820e+02	-8.6356	-36.027399	0.000314	3.142434	1.064686	0.000126
1793	1.7830e+02	-8.6035	-35.898211	0.000324	3.243803	1.099030	0.000130
1794	1.7840e+02	-8.5650	-35.825543	0.000182	1.824639	0.618205	0.000073
1795	1.7850e+02	-8.5089	-35.647909	0.000446	4.460229	1.511167	0.000179
1796	1.7860e+02	-8.4784	-35.546980	0.000253	2.534221	0.858617	0.000101
1797	1.7870e+02	-8.4383	-35.433940	0.000284	2.838328	0.961651	0.000114
1798	1.7880e+02	-8.4030	-35.320901	0.000284	2.838328	0.961651	0.000114
1799	1.7890e+02	-8.3516	-35.179601	0.000355	3.547910	1.202064	0.000142
1800	1.7900e+02	-8.3292	-35.014078	0.000416	4.156123	1.408133	0.000166
1801	1.7910e+02	-8.2810	-34.880853	0.000335	3.345172	1.133375	0.000134
1802	1.7920e+02	-8.2409	-34.796073	0.000213	2.128746	0.721239	0.000085
1803	1.7930e+02	-8.2024	-34.670922	0.000314	3.142434	1.064686	0.000126
1804	1.7940e+02	-8.1639	-34.561919	0.000274	2.736959	0.927307	0.000110
1805	1.7950e+02	-8.1222	-34.372174	0.000476	4.764336	1.614201	0.000191
1806	1.7960e+02	-8.0821	-34.255097	0.000294	2.939697	0.995996	0.000118
1807	1.7970e+02	-8.0420	-34.085537	0.000426	4.257492	1.442477	0.000170
1808	1.7980e+02	-8.0035	-33.948274	0.000345	3.446541	1.167720	0.000138
1809	1.7990e+02	-7.9618	-33.855420	0.000233	2.331483	0.789928	0.000093
1810	1.8000e+02	-7.9201	-33.730269	0.000314	3.142434	1.064686	0.000126
1811	1.8009e+02	-7.8736	-33.597044	0.000335	3.345172	1.133375	0.000134
1812	1.8019e+02	-7.8415	-33.492078	0.000264	2.635590	0.892962	0.000105
1813	1.8029e+02	-7.8062	-33.362890	0.000324	3.243803	1.099030	0.000130
1814	1.8039e+02	-7.7581	-33.185256	0.000446	4.460229	1.511167	0.000179
1815	1.8049e+02	-7.7164	-33.144884	0.000101	1.013688	0.343447	0.000041
1816	1.8059e+02	-7.6907	-32.967250	0.000446	4.460229	1.511167	0.000179
1817	1.8069e+02	-7.6410	-32.854211	0.000284	2.838328	0.961651	0.000114
1818	1.8079e+02	-7.6025	-32.720985	0.000335	3.345172	1.133375	0.000134
1819	1.8089e+02	-7.5736	-32.555463	0.000416	4.156123	1.408133	0.000166
1820	1.8099e+02	-7.5255	-32.438386	0.000294	2.939697	0.995996	0.000118
1821	1.8109e+02	-7.4821	-32.297086	0.000355	3.547910	1.202064	0.000142
1822	1.8119e+02	-7.4581	-32.167898	0.000324	3.243803	1.099030	0.000130
1823	1.8129e+02	-7.4019	-32.022561	0.000365	3.649279	1.236409	0.000146
1824	1.8139e+02	-7.3634	-31.893372	0.000324	3.243803	1.099030	0.000130
1825	1.8149e+02	-7.3249	-31.707664	0.000466	4.662967	1.579856	0.000187
1826	1.8159e+02	-7.2832	-31.618847	0.000223	2.230115	0.755583	0.000089
1827	1.8169e+02	-7.2415	-31.441213	0.000446	4.460229	1.511167	0.000179
1828	1.8179e+02	-7.2030	-31.320099	0.000304	3.041065	1.030341	0.000122
1829	1.8189e+02	-7.1597	-31.223208	0.000243	2.432852	0.824273	0.000097
1830	1.8199e+02	-7.1228	-31.089982	0.000335	3.345172	1.133375	0.000134
1831	1.8209e+02	-7.0795	-31.009240	0.000203	2.027377	0.686894	0.000081
1832	1.8218e+02	-7.0570	-30.835643	0.000436	4.358860	1.476822	0.000174
1833	1.8228e+02	-7.0041	-30.702417	0.000335	3.345172	1.133375	0.000134
1834	1.8238e+02	-6.9608	-30.585340	0.000294	2.939697	0.995996	0.000118
1835	1.8248e+02	-6.9223	-30.431929	0.000385	3.852016	1.305098	0.000154
1836	1.8258e+02	-6.8838	-30.302741	0.000324	3.243803	1.099030	0.000130
1837	1.8268e+02	-6.8437	-30.161441	0.000355	3.547910	1.202064	0.000142
1838	1.8278e+02	-6.8084	-30.032253	0.000324	3.243803	1.099030	0.000130
1839	1.8288e+02	-6.7634	-29.943436	0.000223	2.230115	0.755583	0.000089
1840	1.8298e+02	-6.7265	-29.741579	0.000507	5.068442	1.717235	0.000203
1841	1.8308e+02	-6.6913	-29.664873	0.000193	1.926008	0.652549	0.000077
1842	1.8318e+02	-6.6447	-29.479165	0.000466	4.662967	1.579856	0.000187
1843	1.8328e+02	-6.6126	-29.329791	0.000375	3.750647	1.270754	0.000150
1844	1.8338e+02	-6.5677	-29.208677	0.000304	3.041065	1.030341	0.000122
1845	1.8348e+02	-6.5260	-29.075452	0.000335	3.345172	1.133375	0.000134
1846	1.8358e+02	-6.4811	-28.934152	0.000355	3.547910	1.202064	0.000142
1847	1.8368e+02	-6.4426	-28.813038	0.000304	3.041065	1.030341	0.000122
1848	1.8378e+02	-6.4153	-28.724221	0.000223	2.230115	0.755583	0.000089
1849	1.8388e+02	-6.3672	-28.570810	0.000385	3.852016	1.305098	0.000154
1850	1.8398e+02	-6.3399	-28.445658	0.000314	3.142434	1.064686	0.000126
1851	1.8407e+02	-6.2854	-28.328581	0.000294	2.939697	0.995996	0.000118
1852	1.8417e+02	-6.2501	-28.183245	0.000365	3.649279	1.236409	0.000146
1853	1.8427e+02	-6.2132	-28.033871	0.000375	3.750647	1.270754	0.000150
1854	1.8437e+02	-6.1715	-27.920831	0.000284	2.838328	0.961651	0.000114
1855	1.8447e+02	-6.1298	-27.787605	0.000335	3.345172	1.133375	0.000134
1856	1.8457e+02	-6.0993	-27.646306	0.000355	3.547910	1.202064	0.000142
1857	1.8467e+02	-6.0528	-27.533266	0.000284	2.838328	0.961651	0.000114
1858	1.8477e+02	-6.0175	-27.355632	0.000446	4.460229	1.511167	0.000179
1859	1.8487e+02	-5.9758	-27.210295	0.000365	3.649279	1.236409	0.000146
1860	1.8497e+02	-5.9405	-27.040735	0.000426	4.257492	1.442477	0.000170
1861	1.8507e+02	-5.8940	-26.903473	0.000345	3.446541	1.167720	0.000138
1862	1.8517e+02	-5.8538	-26.766210	0.000345	3.446541	1.167720	0.000138
1863	1.8527e+02	-5.8169	-26.685467	0.000203	2.027377	0.686894	0.000081
1864	1.8537e+02	-5.7768	-26.552242	0.000335	3.345172	1.133375	0.000134
1865	1.8547e+02	-5.7319	-26.419016	0.000335	3.345172	1.133375	0.000134
1866	1.8557e+02	-5.6950	-26.269642	0.000375	3.750647	1.270754	0.000150
1867	1.8567e+02	-5.6485	-26.092008	0.000446	4.460229	1.511167	0.000179
1868	1.8577e+02	-5.6148	-26.015303	0.000193	1.926008	0.652549	0.000077
1869	1.8587e+02	-5.5699	-25.874003	0.000355	3.547910	1.202064	0.000142
1870	1.8597e+02	-5.5298	-25.748852	0.000314	3.142434	1.064686	0.000126
1871	1.8606e+02	-5.4945	-25.643886	0.000264	2.635590	0.892962	0.000105
1872	1.8616e+02	-5.4544	-25.474327	0.000426	4.257492	1.442477	0.000170
1873	1.8626e+02	-5.4191	-25.304767	0.000426	4.257492	1.442477	0.000170
1874	1.8636e+02	-5.3790	-25.191727	0.000284	2.838328	0.961651	0.000114
1875	1.8646e+02	-5.3277	-25.038316	0.000385	3.852016	1.305098	0.000154
1876	1.8656e+02	-5.3004	-24.892979	0.000365	3.649279	1.236409	0.000146
1877	1.8666e+02	-5.2651	-24.687085	0.000517	5.169811	1.751579	0.000207
1878	1.8676e+02	-5.2154	-24.574045	0.000284	2.838328	0.961651	0.000114
1879	1.8686e+02	-5.1753	-24.420634	0.000385	3.852016	1.305098	0.000154
1880	1.8696e+02	-5.1384	-24.267223	0.000385	3.852016	1.305098	0.000154
1881	1.8706e+02	-5.0902	-24.138035	0.000324	3.243803	1.099030	0.000130
1882	1.8716e+02	-5.0501	-24.016921	0.000304	3.041065	1.030341	0.000122
1883	1.8726e+02	-5.0116	-23.928104	0.000223	2.230115	0.755583	0.000089
1884	1.8736e+02	-4.9779	-23.811027	0.000294	2.939697	0.995996	0.000118
1885	1.8746e+02	-4.9346	-23.641467	0.000426	4.257492	1.442477	0.000170
1886	1.8756e+02	-4.9025	-23.500167	0.000355	3.547910	1.202064	0.000142
1887	1.8766e+02	-4.8624	-23.326570	0.000436	4.358860	1.476822	0.000174
1888	1.8776e+02	-4.8159	-23.237753	0.000223	2.230115	0.755583	0.000089
1889	1.8786e+02	-4.7790	-23.108565	0.000324	3.243803	1.099030	0.000130
1890	1.8796e+02	-4.7341	-22.934968	0.000436	4.358860	1.476822	0.000174
1891	1.8806e+02	-4.6988	-22.761371	0.000436	4.358860	1.476822	0.000174
1892	1.8815e+02	-4.6619	-22.636220	0.000314	3.142434	1.064686	0.000126
1893	1.8825e+02	-4.6122	-22.507032	0.000324	3.243803	1.099030	0.000130
1894	1.8835e+02	-4.5769	-22.369769	0.000345	3.446541	1.167720	0.000138
1895	1.8845e+02	-4.5336	-22.228469	0.000355	3.547910	1.202064	0.000142
1896	1.8855e+02	-4.5031	-22.010464	0.000547	5.473918	1.854614	0.000219
1897	1.8865e+02	-4.4662	-21.897424	0.000284	2.838328	0.961651	0.000114
1898	1.8875e+02	-4.4245	-21.760162	0.000345	3.446541	1.167720	0.000138
1899	1.8885e+02	-4.3683	-21.598676	0.000405	4.054754	1.373788	0.000162
1900	1.8895e+02	-4.3362	-21.509859	0.000223	2.230115	0.755583	0.000089
1901	1.8905e+02	-4.2865	-21.376634	0.000335	3.345172	1.133375	0.000134
1902	1.8915e+02	-4.2544	-21.227260	0.000375	3.750647	1.270754	0.000150
1903	1.8925e+02	-4.2175	-21.057700	0.000426	4.257492	1.442477	0.000170
1904	1.8935e+02	-4.1822	-20.968883	0.000223	2.230115	0.755583	0.000089
1905	1.8945e+02	-4.1437	-20.799323	0.000426	4.257492	1.442477	0.000170
1906	1.8955e+02	-4.0972	-20.666098	0.000335	3.345172	1.133375	0.000134
1907	1.8965e+02	-4.0475	-20.524798	0.000355	3.547910	1.202064	0.000142
1908	1.8975e+02	-4.0266	-20.367350	0.000395	3.953385	1.339443	0.000158
1909	1.8985e+02	-3.9929	-20.234124	0.000335	3.345172	1.133375	0.000134
1910	1.8995e+02	-3.9464	-20.084750	0.000375	3.750647	1.270754	0.000150
1911	1.9004e+02	-3.9015	-19.963636	0.000304	3.041065	1.030341	0.000122
1912	1.9014e+02	-3.8550	-19.826374	0.000345	3.446541	1.167720	0.000138
1913	1.9024e+02	-3.8213	-19.660851	0.000416	4.156123	1.408133	0.000166
1914	1.9034e+02	-3.7748	-19.471106	0.000476	4.764336	1.614201	0.000191
1915	1.9044e+02	-3.7379	-19.370177	0.000253	2.534221	0.858617	0.000101
1916	1.9054e+02	-3.7058	-19.176395	0.000487	4.865705	1.648545	0.000195
1917	1.9064e+02	-3.6544	-19.083541	0.000233	2.331483	0.789928	0.000093
1918	1.9074e+02	-3.6208	-18.966464	0.000294	2.939697	0.995996	0.000118
1919	1.9084e+02	-3.5774	-18.813053	0.000385	3.852016	1.305098	0.000154
1920	1.9094e+02	-3.5438	-18.667716	0.000365	3.649279	1.236409	0.000146
1921	1.9104e+02	-3.4956	-18.518342	0.000375	3.750647	1.270754	0.000150
1922	1.9114e+02	-3.4603	-18.389153	0.000324	3.243803	1.099030	0.000130
1923	1.9124e+02	-3.4218	-18.251891	0.000345	3.446541	1.167720	0.000138
1924	1.9134e+02	-3.3769	-18.102517	0.000375	3.750647	1.270754	0.000150
1925	1.9144e+02	-3.3432	-17.977365	0.000314	3.142434	1.064686	0.000126
1926	1.9154e+02	-3.3031	-17.844140	0.000335	3.345172	1.133375	0.000134
1927	1.9164e+02	-3.2598	-17.731100	0.000284	2.838328	0.961651	0.000114
1928	1.9174e+02	-3.2277	-17.545392	0.000466	4.662967	1.579856	0.000187
1929	1.9184e+02	-3.1908	-17.379869	0.000416	4.156123	1.408133	0.000166
1930	1.9194e+02	-3.1459	-17.254718	0.000314	3.142434	1.064686	0.000126
1931	1.9203e+02	-3.1058	-17.113418	0.000355	3.547910	1.202064	0.000142
1932	1.9213e+02	-3.0625	-16.923673	0.000476	4.764336	1.614201	0.000191
1933	1.9223e+02	-3.0240	-16.790448	0.000335	3.345172	1.133375	0.000134
1934	1.9233e+02	-2.9807	-16.604739	0.000466	4.662967	1.579856	0.000187
1935	1.9243e+02	-2.9518	-16.503811	0.000253	2.534221	0.858617	0.000101
1936	1.9253e+02	-2.9037	-16.378660	0.000314	3.142434	1.064686	0.000126
1937	1.9263e+02	-2.8652	-16.229286	0.000375	3.750647	1.270754	0.000150
1938	1.9273e+02	-2.8267	-16.116246	0.000284	2.838328	0.961651	0.000114
1939	1.9283e+02	-2.7689	-15.983020	0.000335	3.345172	1.133375	0.000134
1940	1.9293e+02	-2.7464	-15.801349	0.000456	4.561598	1.545511	0.000183
1941	1.9303e+02	-2.7031	-15.660050	0.000355	3.547910	1.202064	0.000142
1942	1.9313e+02	-2.6614	-15.510676	0.000375	3.750647	1.270754	0.000150
1943	1.9323e+02	-2.6213	-15.361301	0.000375	3.750647	1.270754	0.000150
1944	1.9333e+02	-2.5828	-15.244225	0.000294	2.939697	0.995996	0.000118
1945	1.9343e+02	-2.5443	-15.106962	0.000345	3.446541	1.167720	0.000138
1946	1.9353e+02	-2.5074	-14.929328	0.000446	4.460229	1.511167	0.000179
1947	1.9363e+02	-2.4609	-14.800140	0.000324	3.243803	1.099030	0.000130
1948	1.9373e+02	-2.4192	-14.634617	0.000416	4.156123	1.408133	0.000166
1949	1.9383e+02	-2.3903	-14.477169	0.000395	3.953385	1.339443	0.000158
1950	1.9393e+02	-2.3470	-14.323758	0.000385	3.852016	1.305098	0.000154
1951	1.9403e+02	-2.3053	-14.117864	0.000517	5.169811	1.751579	0.000207
1952	1.9412e+02	-2.2684	-13.992712	0.000314	3.142434	1.064686	0.000126
1953	1.9422e+02	-2.2315	-13.871598	0.000304	3.041065	1.030341	0.000122
1954	1.9432e+02	-2.1898	-13.718187	0.000385	3.852016	1.305098	0.000154
1955	1.9442e+02	-2.1400	-13.621296	0.000243	2.432852	0.824273	0.000097
1956	1.9452e+02	-2.1048	-13.492108	0.000324	3.243803	1.099030	0.000130
1957	1.9462e+02	-2.0679	-13.342734	0.000375	3.750647	1.270754	0.000150
1958	1.9472e+02	-2.0181	-13.217582	0.000314	3.142434	1.064686	0.000126
1959	1.9482e+02	-1.9876	-13.084357	0.000335	3.345172	1.133375	0.000134
1960	1.9492e+02	-1.9491	-12.963243	0.000304	3.041065	1.030341	0.000122
1961	1.9502e+02	-1.9058	-12.825980	0.000345	3.446541	1.167720	0.000138
1962	1.9512e+02	-1.8625	-12.652383	0.000436	4.358860	1.476822	0.000174
1963	1.9522e+02	-1.8272	-12.454564	0.000497	4.967074	1.682890	0.000199
1964	1.9532e+02	-1.7871	-12.377858	0.000193	1.926008	0.652549	0.000077
1965	1.9542e+02	-1.7502	-12.240596	0.000345	3.446541	1.167720	0.000138
1966	1.9552e+02	-1.6973	-12.095259	0.000365	3.649279	1.236409	0.000146
1967	1.9562e+02	-1.6684	-11.949922	0.000365	3.649279	1.236409	0.000146
1968	1.9572e+02	-1.6299	-11.768251	0.000456	4.561598	1.545511	0.000183
1969	1.9582e+02	-1.5834	-11.586580	0.000456	4.561598	1.545511	0.000183
1970	1.9592e+02	-1.5433	-11.437206	0.000375	3.750647	1.270754	0.000150
1971	1.9601e+02	-1.5096	-11.279757	0.000395	3.953385	1.339443	0.000158
1972	1.9611e+02	-1.4759	-11.158643	0.000304	3.041065	1.030341	0.000122
1973	1.9621e+02	-1.4230	-11.025418	0.000335	3.345172	1.133375	0.000134
1974	1.9631e+02	-1.3909	-10.924489	0.000253	2.534221	0.858617	0.000101
1975	1.9641e+02	-1.3524	-10.734744	0.000476	4.764336	1.614201	0.000191
1976	1.9651e+02	-1.3074	-10.649964	0.000213	2.128746	0.721239	0.000085
1977	1.9661e+02	-1.2770	-10.492516	0.000395	3.953385	1.339443	0.000158
1978	1.9671e+02	-1.2321	-10.375439	0.000294	2.939697	0.995996	0.000118
1979	1.9681e+02	-1.1968	-10.193768	0.000456	4.561598	1.545511	0.000183
1980	1.9691e+02	-1.1486	-10.048431	0.000365	3.649279	1.236409	0.000146
1981	1.9701e+02	-1.1165	-9.890983	0.000395	3.953385	1.339443	0.000158
1982	1.9711e+02	-1.0748	-9.802166	0.000223	2.230115	0.755583	0.000089
1983	1.9721e+02	-1.0411	-9.656829	0.000365	3.649279	1.236409	0.000146
1984	1.9731e+02	-0.9962	-9.463046	0.000487	4.865705	1.648545	0.000195
1985	1.9741e+02	-0.9545	-9.305598	0.000395	3.953385	1.339443	0.000158
1986	1.9751e+02	-0.9112	-9.172372	0.000335	3.345172	1.133375	0.000134
1987	1.9761e+02	-0.8679	-8.974553	0.000497	4.967074	1.682890	0.000199
1988	1.9771e+02	-0.8310	-8.845364	0.000324	3.243803	1.099030	0.000130
1989	1.9781e+02	-0.7957	-8.732325	0.000284	2.838328	0.961651	0.000114
1990	1.9791e+02	-0.7572	-8.542579	0.000476	4.764336	1.614201	0.000191
1991	1.9800e+02	-0.7123	-8.393205	0.000375	3.750647	1.270754	0.000150
1992	1.9810e+02	-0.6690	-8.292277	0.000253	2.534221	0.858617	0.000101
1993	1.9820e+02	-0.6321	-8.146940	0.000365	3.649279	1.236409	0.000146
1994	1.9830e+02	-0.5968	-8.050049	0.000243	2.432852	0.824273	0.000097
1995	1.9840e+02	-0.5519	-7.908749	0.000355	3.547910	1.202064	0.000142
1996	1.9850e+02	-0.5101	-7.751301	0.000395	3.953385	1.339443	0.000158
1997	1.9860e+02	-0.4749	-7.593852	0.000395	3.953385	1.339443	0.000158
1998	1.9870e+02	-0.4251	-7.456590	0.000345	3.446541	1.167720	0.000138
1999	1.9880e+02	-0.3914	-7.274919	0.000456	4.561598	1.545511	0.000183
2000	1.9890e+02	-0.3481	-7.165916	0.000274	2.736959	0.927307	0.000110
2001	1.9900e+02	-0.3144	-6.972133	0.000487	4.865705	1.648545	0.000195
2002	1.9910e+02	-0.2727	-6.838908	0.000335	3.345172	1.133375	0.000134
2003	1.9920e+02	-0.2471	-6.681460	0.000395	3.953385	1.339443	0.000158
2004	1.9930e+02	-0.1925	-6.560346	0.000304	3.041065	1.030341	0.000122
2005	1.9940e+02	-0.1540	-6.374637	0.000466	4.662967	1.579856	0.000187
2006	1.9950e+02	-0.1171	-6.192966	0.000456	4.561598	1.545511	0.000183
2007	1.9960e+02	-0.0690	-6.019369	0.000436	4.358860	1.476822	0.000174
2008	1.9970e+02	-0.0385	-5.910367	0.000274	2.736959	0.927307	0.000110
2009	1.9980e+02	0.0064	-5.744844	0.000274	2.736959	0.927307	0.000166

PMax (uC/cm2):	7.15e+01
Pr (uC/cm2):	3.49e+00
-Pr (uC/cm2):	-2.49e+00
PLoss (uC/cm2):	-2.47e+00
-Vc:	-9.15e-01
C (Max-Eff) (nF):	3.57e-01
K (Eff):	1.21e+03
Vert. (+/-Pr) Shift (uC/cm2):	4.98e-01
Offset (uC/cm2):	3.25e+00

A (Loop Area - uC/cm2·Volts):	3.42e-02



Hysteresis Version: 5.48.1 - Radiant Technologies, Inc., 1999 - 9/12/24

