»»»»»»»»»»»»»»»»»»»»»»»»»»»»»»»»»»»» Hysteresis ««««««««««««««««««««««««««««««««««««
»»»  Executed Version:	5.48.1
»»»  Vision Version:	5.48.4 (R)
»»»  Vision Compiled:	9/18/24
»»»  Driver Version:	5.47.0
»»»  Windows Version:	Windows 8 or 8.1
»»»  Processor Information:	x86 (AMD or Intel) - 32 Processors
»»»  Tester Name:	PMF21124-494 (100V)
»»»  Tester S/N:	PMF21124-494
»»»  Internal Amp Type:	100V RevK 270k
»»»  Internal Amp S/N:	iAB2-596/K     
»»»  Execution Count:	1
»»»»»»»»»»»»»»»»»»»»»»»»»»»»»»»»»»»»»»»»»»««««««««««««««««««««««««««««««««««««««««««

Stored:	6/19/2025 - 15:15:0
Configured:	06/19/25 10:04:32 AM
Executed:	06/19/25 03:14:30 PM

»»»»»»»»»»»»»»»»»»»»»»»»»»»»»»»»»»» Sample Info ««««««««««««««««««««««««««««««««««««
Sample Name:	
Lot Name:	
Wafer Name:	
Die Row/Column:	0/0
Capacitor Number:	0
Sample Area (cm2):	1.00e-04
Sample Thickness (microns):	3.00e-01

Amplifier:	Internal

»»»»»»»»»»»»»»»»»»»»»»»»»»»»»»»»»»» Tester Info «««««««««««««««««««««««««««««««««««
Tester Name:	PMF21124-494 (100V)
Tester Serial Number:	PMF21124-494
Return Signal Amp. Level:	0.19 [Index: 3]

»»»»»»»»»»»»»»»»»»»»»»»»»»»»»»»» Hysteresis Info ««««««««««««««««««««««««««««««««««
Task Name:	Hyst-1168
Volts:	20.00
Field:	666.67 (kV/cm)
DCBias:	0.00
DCField:	0.00 (kV/cm)
Hysteresis Period (ms):	2.00e+02
Preset:	Enabled
Preset Delay (ms):	1.00e+03
Profile:	Standard Bipolar

»»»»»»»»»»»»»»»»»»»»»»»»»»»»»»»»»»»»»» Data «««««««««««««««««««««««««««««««««««««««
Points:	2009

Valid Data

Point	Time (ms)	Drive Voltage	Measured Polarization (uC/cm2)	Capacitance (uF)	Normalized Capacitance (uF/cm2)	Dielectric Constant	Instantaneous Current (mA)
   1	0.0000e+00	-0.0016	-9.057314	0.000182	1.824164	0.618043	0.000073
   2	9.9500e-02	0.0337	-8.984646	0.000182	1.824164	0.618043	0.000073
   3	1.9900e-01	0.0658	-8.819123	0.000416	4.155039	1.407765	0.000166
   4	2.9850e-01	0.1155	-8.742417	0.000193	1.925506	0.652379	0.000077
   5	3.9800e-01	0.1524	-8.564783	0.000446	4.459066	1.510773	0.000179
   6	4.9750e-01	0.1909	-8.496152	0.000172	1.722821	0.583708	0.000069
   7	5.9700e-01	0.2406	-8.362927	0.000334	3.344300	1.133079	0.000134
   8	6.9650e-01	0.2711	-8.209516	0.000385	3.851012	1.304758	0.000154
   9	7.9600e-01	0.3225	-8.100513	0.000274	2.736245	0.927065	0.000110
  10	8.9550e-01	0.3577	-7.991510	0.000274	2.736245	0.927065	0.000110
  11	9.9500e-01	0.3866	-7.850210	0.000355	3.546985	1.201751	0.000142
  12	1.0945e+00	0.4412	-7.725059	0.000314	3.141615	1.064408	0.000126
  13	1.1940e+00	0.4684	-7.583759	0.000355	3.546985	1.201751	0.000142
  14	1.2935e+00	0.5150	-7.498980	0.000213	2.128191	0.721051	0.000085
  15	1.3930e+00	0.5503	-7.317309	0.000456	4.560409	1.545108	0.000183
  16	1.4925e+00	0.5936	-7.143712	0.000436	4.357724	1.476437	0.000174
  17	1.5920e+00	0.6417	-7.006449	0.000345	3.445642	1.167415	0.000138
  18	1.6915e+00	0.6738	-6.873224	0.000334	3.344300	1.133079	0.000134
  19	1.7910e+00	0.6994	-6.735961	0.000345	3.445642	1.167415	0.000138
  20	1.8905e+00	0.7524	-6.647144	0.000223	2.229533	0.755386	0.000089
  21	1.9900e+00	0.7973	-6.473547	0.000436	4.357724	1.476437	0.000174
  22	2.0895e+00	0.8326	-6.320136	0.000385	3.851012	1.304758	0.000154
  23	2.1890e+00	0.8759	-6.203059	0.000294	2.938930	0.995736	0.000118
  24	2.2885e+00	0.9032	-6.098094	0.000263	2.634903	0.892729	0.000105
  25	2.3880e+00	0.9625	-6.013314	0.000213	2.128191	0.721051	0.000085
  26	2.4875e+00	1.0042	-5.872014	0.000355	3.546985	1.201751	0.000142
  27	2.5870e+00	1.0267	-5.690343	0.000456	4.560409	1.545108	0.000183
  28	2.6865e+00	1.0684	-5.625749	0.000162	1.621479	0.549372	0.000065
  29	2.7860e+00	1.1149	-5.456189	0.000426	4.256382	1.442101	0.000170
  30	2.8855e+00	1.1663	-5.322963	0.000334	3.344300	1.133079	0.000134
  31	2.9850e+00	1.1919	-5.177627	0.000365	3.648327	1.236087	0.000146
  32	3.0845e+00	1.2385	-5.036327	0.000355	3.546985	1.201751	0.000142
  33	3.1840e+00	1.2722	-4.866767	0.000426	4.256382	1.442101	0.000170
  34	3.2835e+00	1.3091	-4.672985	0.000486	4.864436	1.648116	0.000195
  35	3.3830e+00	1.3540	-4.604353	0.000172	1.722821	0.583708	0.000069
  36	3.4825e+00	1.3973	-4.438831	0.000416	4.155039	1.407765	0.000166
  37	3.5820e+00	1.4262	-4.313680	0.000314	3.141615	1.064408	0.000126
  38	3.6815e+00	1.4663	-4.156231	0.000395	3.952354	1.339094	0.000158
  39	3.7810e+00	1.5208	-4.055303	0.000253	2.533560	0.858394	0.000101
  40	3.8805e+00	1.5529	-3.881706	0.000436	4.357724	1.476437	0.000174
  41	3.9800e+00	1.6010	-3.752518	0.000324	3.242957	1.098744	0.000130
  42	4.0795e+00	1.6315	-3.647552	0.000263	2.634903	0.892729	0.000105
  43	4.1790e+00	1.6684	-3.514327	0.000334	3.344300	1.133079	0.000134
  44	4.2785e+00	1.7117	-3.405324	0.000274	2.736245	0.927065	0.000110
  45	4.3780e+00	1.7566	-3.264024	0.000355	3.546985	1.201751	0.000142
  46	4.4775e+00	1.7823	-3.134836	0.000324	3.242957	1.098744	0.000130
  47	4.5770e+00	1.8320	-2.993536	0.000355	3.546985	1.201751	0.000142
  48	4.6765e+00	1.8721	-2.868385	0.000314	3.141615	1.064408	0.000126
  49	4.7760e+00	1.9090	-2.702862	0.000416	4.155039	1.407765	0.000166
  50	4.8755e+00	1.9427	-2.581748	0.000304	3.040273	1.030072	0.000122
  51	4.9750e+00	1.9844	-2.404114	0.000446	4.459066	1.510773	0.000179
  52	5.0745e+00	2.0261	-2.222443	0.000456	4.560409	1.545108	0.000183
  53	5.1740e+00	2.0759	-2.105366	0.000294	2.938930	0.995736	0.000118
  54	5.2735e+00	2.1048	-1.951955	0.000385	3.851012	1.304758	0.000154
  55	5.3730e+00	2.1465	-1.818730	0.000334	3.344300	1.133079	0.000134
  56	5.4725e+00	2.2010	-1.645133	0.000436	4.357724	1.476437	0.000174
  57	5.5720e+00	2.2235	-1.548242	0.000243	2.432218	0.824058	0.000097
  58	5.6715e+00	2.2764	-1.370608	0.000446	4.459066	1.510773	0.000179
  59	5.7710e+00	2.3085	-1.253531	0.000294	2.938930	0.995736	0.000118
  60	5.8705e+00	2.3518	-1.144528	0.000274	2.736245	0.927065	0.000110
  61	5.9700e+00	2.3903	-1.003228	0.000355	3.546985	1.201751	0.000142
  62	6.0695e+00	2.4256	-0.870003	0.000334	3.344300	1.133079	0.000134
  63	6.1690e+00	2.4657	-0.724666	0.000365	3.648327	1.236087	0.000146
  64	6.2685e+00	2.5202	-0.599515	0.000314	3.141615	1.064408	0.000126
  65	6.3680e+00	2.5539	-0.429955	0.000426	4.256382	1.442101	0.000170
  66	6.4675e+00	2.5860	-0.333064	0.000243	2.432218	0.824058	0.000097
  67	6.5670e+00	2.6197	-0.175615	0.000395	3.952354	1.339094	0.000158
  68	6.6665e+00	2.6678	-0.010093	0.000416	4.155039	1.407765	0.000166
  69	6.7660e+00	2.7160	0.155430	0.000416	4.155039	1.407765	0.000166
  70	6.8655e+00	2.7481	0.304804	0.000375	3.749670	1.270422	0.000150
  71	6.9650e+00	2.7866	0.429955	0.000314	3.141615	1.064408	0.000126
  72	7.0645e+00	2.8267	0.587403	0.000395	3.952354	1.339094	0.000158
  73	7.1640e+00	2.8668	0.724666	0.000345	3.445642	1.167415	0.000138
  74	7.2635e+00	2.8988	0.874040	0.000375	3.749670	1.270422	0.000150
  75	7.3630e+00	2.9390	1.019377	0.000365	3.648327	1.236087	0.000146
  76	7.4625e+00	2.9807	1.160677	0.000355	3.546985	1.201751	0.000142
  77	7.5620e+00	3.0224	1.253531	0.000233	2.330876	0.789722	0.000093
  78	7.6615e+00	3.0641	1.370608	0.000294	2.938930	0.995736	0.000118
  79	7.7610e+00	3.1042	1.519982	0.000375	3.749670	1.270422	0.000150
  80	7.8605e+00	3.1571	1.633021	0.000284	2.837588	0.961401	0.000114
  81	7.9600e+00	3.1796	1.802581	0.000426	4.256382	1.442101	0.000170
  82	8.0595e+00	3.2165	1.927732	0.000314	3.141615	1.064408	0.000126
  83	8.1590e+00	3.2630	2.081143	0.000385	3.851012	1.304758	0.000154
  84	8.2585e+00	3.3095	2.254740	0.000436	4.357724	1.476437	0.000174
  85	8.3580e+00	3.3448	2.295112	0.000101	1.013424	0.343357	0.000041
  86	8.4575e+00	3.3881	2.468709	0.000436	4.357724	1.476437	0.000174
  87	8.5570e+00	3.4234	2.646342	0.000446	4.459066	1.510773	0.000179
  88	8.6565e+00	3.4700	2.803791	0.000395	3.952354	1.339094	0.000158
  89	8.7560e+00	3.5004	2.953165	0.000375	3.749670	1.270422	0.000150
  90	8.8555e+00	3.5421	3.130799	0.000446	4.459066	1.510773	0.000179
  91	8.9550e+00	3.5839	3.259987	0.000324	3.242957	1.098744	0.000130
  92	9.0545e+00	3.6191	3.421473	0.000405	4.053697	1.373430	0.000162
  93	9.1540e+00	3.6673	3.566809	0.000365	3.648327	1.236087	0.000146
  94	9.2535e+00	3.7058	3.695998	0.000324	3.242957	1.098744	0.000130
  95	9.3530e+00	3.7491	3.760592	0.000162	1.621479	0.549372	0.000065
  96	9.4525e+00	3.7780	3.918040	0.000395	3.952354	1.339094	0.000158
  97	9.5520e+00	3.8197	4.087600	0.000426	4.256382	1.442101	0.000170
  98	9.6515e+00	3.8662	4.232937	0.000365	3.648327	1.236087	0.000146
  99	9.7510e+00	3.9015	4.333865	0.000253	2.533560	0.858394	0.000101
 100	9.8505e+00	3.9416	4.487276	0.000385	3.851012	1.304758	0.000154
 101	9.9500e+00	3.9913	4.652799	0.000416	4.155039	1.407765	0.000166
 102	1.0050e+01	4.0186	4.790062	0.000345	3.445642	1.167415	0.000138
 103	1.0149e+01	4.0603	4.931361	0.000355	3.546985	1.201751	0.000142
 104	1.0248e+01	4.1084	5.032290	0.000253	2.533560	0.858394	0.000101
 105	1.0348e+01	4.1405	5.209924	0.000446	4.459066	1.510773	0.000179
 106	1.0447e+01	4.1790	5.351223	0.000355	3.546985	1.201751	0.000142
 107	1.0547e+01	4.2175	5.540969	0.000476	4.763094	1.613780	0.000191
 108	1.0646e+01	4.2624	5.706491	0.000416	4.155039	1.407765	0.000166
 109	1.0746e+01	4.2945	5.855865	0.000375	3.749670	1.270422	0.000150
 110	1.0845e+01	4.3346	5.993128	0.000345	3.445642	1.167415	0.000138
 111	1.0945e+01	4.3844	6.154613	0.000405	4.053697	1.373430	0.000162
 112	1.1044e+01	4.4261	6.267653	0.000284	2.837588	0.961401	0.000114
 113	1.1144e+01	4.4662	6.417027	0.000375	3.749670	1.270422	0.000150
 114	1.1243e+01	4.5079	6.550253	0.000334	3.344300	1.133079	0.000134
 115	1.1343e+01	4.5336	6.707701	0.000395	3.952354	1.339094	0.000158
 116	1.1443e+01	4.5801	6.820741	0.000284	2.837588	0.961401	0.000114
 117	1.1542e+01	4.6218	6.970115	0.000375	3.749670	1.270422	0.000150
 118	1.1642e+01	4.6619	7.083155	0.000284	2.837588	0.961401	0.000114
 119	1.1741e+01	4.7036	7.264826	0.000456	4.560409	1.545108	0.000183
 120	1.1841e+01	4.7469	7.369791	0.000263	2.634903	0.892729	0.000105
 121	1.1940e+01	4.7854	7.511091	0.000355	3.546985	1.201751	0.000142
 122	1.2040e+01	4.8175	7.668539	0.000395	3.952354	1.339094	0.000158
 123	1.2139e+01	4.8544	7.846173	0.000446	4.459066	1.510773	0.000179
 124	1.2239e+01	4.8945	8.003622	0.000395	3.952354	1.339094	0.000158
 125	1.2338e+01	4.9394	8.124736	0.000304	3.040273	1.030072	0.000122
 126	1.2438e+01	4.9892	8.290258	0.000416	4.155039	1.407765	0.000166
 127	1.2537e+01	5.0245	8.484041	0.000486	4.864436	1.648116	0.000195
 128	1.2636e+01	5.0614	8.609192	0.000314	3.141615	1.064408	0.000126
 129	1.2736e+01	5.1047	8.782789	0.000436	4.357724	1.476437	0.000174
 130	1.2835e+01	5.1464	8.903903	0.000304	3.040273	1.030072	0.000122
 131	1.2935e+01	5.1801	9.016943	0.000284	2.837588	0.961401	0.000114
 132	1.3034e+01	5.2138	9.186502	0.000426	4.256382	1.442101	0.000170
 133	1.3134e+01	5.2603	9.315691	0.000324	3.242957	1.098744	0.000130
 134	1.3233e+01	5.2988	9.448916	0.000334	3.344300	1.133079	0.000134
 135	1.3333e+01	5.3341	9.565993	0.000294	2.938930	0.995736	0.000118
 136	1.3432e+01	5.3758	9.731516	0.000416	4.155039	1.407765	0.000166
 137	1.3532e+01	5.4127	9.872815	0.000355	3.546985	1.201751	0.000142
 138	1.3632e+01	5.4576	10.046412	0.000436	4.357724	1.476437	0.000174
 139	1.3731e+01	5.4977	10.187712	0.000355	3.546985	1.201751	0.000142
 140	1.3831e+01	5.5314	10.324975	0.000345	3.445642	1.167415	0.000138
 141	1.3930e+01	5.5843	10.450126	0.000314	3.141615	1.064408	0.000126
 142	1.4030e+01	5.6212	10.615648	0.000416	4.155039	1.407765	0.000166
 143	1.4129e+01	5.6469	10.740800	0.000314	3.141615	1.064408	0.000126
 144	1.4229e+01	5.6966	10.910359	0.000426	4.256382	1.442101	0.000170
 145	1.4328e+01	5.7287	11.075882	0.000416	4.155039	1.407765	0.000166
 146	1.4428e+01	5.7801	11.249479	0.000436	4.357724	1.476437	0.000174
 147	1.4527e+01	5.8153	11.374630	0.000314	3.141615	1.064408	0.000126
 148	1.4627e+01	5.8587	11.519967	0.000365	3.648327	1.236087	0.000146
 149	1.4726e+01	5.8988	11.661267	0.000355	3.546985	1.201751	0.000142
 150	1.4825e+01	5.9405	11.778344	0.000294	2.938930	0.995736	0.000118
 151	1.4925e+01	5.9758	11.911569	0.000334	3.344300	1.133079	0.000134
 152	1.5024e+01	6.0095	12.085166	0.000436	4.357724	1.476437	0.000174
 153	1.5124e+01	6.0512	12.186094	0.000253	2.533560	0.858394	0.000101
 154	1.5223e+01	6.0865	12.367765	0.000456	4.560409	1.545108	0.000183
 155	1.5323e+01	6.1378	12.541362	0.000436	4.357724	1.476437	0.000174
 156	1.5422e+01	6.1715	12.650365	0.000274	2.736245	0.927065	0.000110
 157	1.5522e+01	6.2132	12.799739	0.000375	3.749670	1.270422	0.000150
 158	1.5621e+01	6.2533	12.973336	0.000436	4.357724	1.476437	0.000174
 159	1.5721e+01	6.2886	13.114635	0.000355	3.546985	1.201751	0.000142
 160	1.5820e+01	6.3351	13.251898	0.000345	3.445642	1.167415	0.000138
 161	1.5920e+01	6.3688	13.421458	0.000426	4.256382	1.442101	0.000170
 162	1.6020e+01	6.4153	13.566795	0.000365	3.648327	1.236087	0.000146
 163	1.6119e+01	6.4554	13.724243	0.000395	3.952354	1.339094	0.000158
 164	1.6218e+01	6.4843	13.922063	0.000497	4.965779	1.682451	0.000199
 165	1.6318e+01	6.5324	14.063362	0.000355	3.546985	1.201751	0.000142
 166	1.6418e+01	6.5741	14.220811	0.000395	3.952354	1.339094	0.000158
 167	1.6517e+01	6.6126	14.358073	0.000345	3.445642	1.167415	0.000138
 168	1.6616e+01	6.6544	14.507447	0.000375	3.749670	1.270422	0.000150
 169	1.6716e+01	6.6913	14.628561	0.000304	3.040273	1.030072	0.000122
 170	1.6816e+01	6.7362	14.794084	0.000416	4.155039	1.407765	0.000166
 171	1.6915e+01	6.7715	14.923272	0.000324	3.242957	1.098744	0.000130
 172	1.7015e+01	6.8116	15.064572	0.000355	3.546985	1.201751	0.000142
 173	1.7114e+01	6.8453	15.254317	0.000476	4.763094	1.613780	0.000191
 174	1.7213e+01	6.8838	15.359283	0.000263	2.634903	0.892729	0.000105
 175	1.7313e+01	6.9303	15.500583	0.000355	3.546985	1.201751	0.000142
 176	1.7413e+01	6.9672	15.690328	0.000476	4.763094	1.613780	0.000191
 177	1.7512e+01	7.0105	15.815479	0.000314	3.141615	1.064408	0.000126
 178	1.7611e+01	7.0490	15.956779	0.000355	3.546985	1.201751	0.000142
 179	1.7711e+01	7.0891	16.138450	0.000456	4.560409	1.545108	0.000183
 180	1.7811e+01	7.1244	16.303973	0.000416	4.155039	1.407765	0.000166
 181	1.7910e+01	7.1725	16.433161	0.000324	3.242957	1.098744	0.000130
 182	1.8009e+01	7.2078	16.558312	0.000314	3.141615	1.064408	0.000126
 183	1.8109e+01	7.2415	16.756132	0.000497	4.965779	1.682451	0.000199
 184	1.8209e+01	7.2944	16.941840	0.000466	4.661751	1.579444	0.000187
 185	1.8308e+01	7.3346	17.018546	0.000193	1.925506	0.652379	0.000077
 186	1.8407e+01	7.3650	17.204254	0.000466	4.661751	1.579444	0.000187
 187	1.8507e+01	7.4164	17.317294	0.000284	2.837588	0.961401	0.000114
 188	1.8607e+01	7.4517	17.470705	0.000385	3.851012	1.304758	0.000154
 189	1.8706e+01	7.4870	17.616042	0.000365	3.648327	1.236087	0.000146
 190	1.8805e+01	7.5319	17.757342	0.000355	3.546985	1.201751	0.000142
 191	1.8905e+01	7.5720	17.926901	0.000426	4.256382	1.442101	0.000170
 192	1.9005e+01	7.6105	18.056090	0.000324	3.242957	1.098744	0.000130
 193	1.9104e+01	7.6490	18.221612	0.000416	4.155039	1.407765	0.000166
 194	1.9203e+01	7.6859	18.366949	0.000365	3.648327	1.236087	0.000146
 195	1.9303e+01	7.7244	18.540546	0.000436	4.357724	1.476437	0.000174
 196	1.9402e+01	7.7677	18.641474	0.000253	2.533560	0.858394	0.000101
 197	1.9502e+01	7.7966	18.839294	0.000497	4.965779	1.682451	0.000199
 198	1.9602e+01	7.8431	18.956371	0.000294	2.938930	0.995736	0.000118
 199	1.9701e+01	7.8896	19.150153	0.000486	4.864436	1.648116	0.000195
 200	1.9800e+01	7.9201	19.271267	0.000304	3.040273	1.030072	0.000122
 201	1.9900e+01	7.9666	19.424679	0.000385	3.851012	1.304758	0.000154
 202	2.0000e+01	7.9971	19.602313	0.000446	4.459066	1.510773	0.000179
 203	2.0099e+01	8.0356	19.783984	0.000456	4.560409	1.545108	0.000183
 204	2.0198e+01	8.0869	19.957581	0.000436	4.357724	1.476437	0.000174
 205	2.0298e+01	8.1190	20.042360	0.000213	2.128191	0.721051	0.000085
 206	2.0398e+01	8.1623	20.151363	0.000274	2.736245	0.927065	0.000110
 207	2.0497e+01	8.2073	20.304774	0.000385	3.851012	1.304758	0.000154
 208	2.0596e+01	8.2458	20.486445	0.000456	4.560409	1.545108	0.000183
 209	2.0696e+01	8.2859	20.639856	0.000385	3.851012	1.304758	0.000154
 210	2.0796e+01	8.3228	20.732711	0.000233	2.330876	0.789722	0.000093
 211	2.0895e+01	8.3661	20.926493	0.000486	4.864436	1.648116	0.000195
 212	2.0994e+01	8.4094	21.063756	0.000345	3.445642	1.167415	0.000138
 213	2.1094e+01	8.4527	21.205055	0.000355	3.546985	1.201751	0.000142
 214	2.1194e+01	8.4832	21.366541	0.000405	4.053697	1.373430	0.000162
 215	2.1293e+01	8.5281	21.499766	0.000334	3.344300	1.133079	0.000134
 216	2.1392e+01	8.5618	21.673363	0.000436	4.357724	1.476437	0.000174
 217	2.1492e+01	8.5971	21.806589	0.000334	3.344300	1.133079	0.000134
 218	2.1591e+01	8.6468	21.923666	0.000294	2.938930	0.995736	0.000118
 219	2.1691e+01	8.6837	22.137634	0.000537	5.371148	1.819794	0.000215
 220	2.1791e+01	8.7190	22.274896	0.000345	3.445642	1.167415	0.000138
 221	2.1890e+01	8.7575	22.464642	0.000476	4.763094	1.613780	0.000191
 222	2.1989e+01	8.8024	22.626127	0.000405	4.053697	1.373430	0.000162
 223	2.2089e+01	8.8409	22.799724	0.000436	4.357724	1.476437	0.000174
 224	2.2189e+01	8.8907	22.920838	0.000304	3.040273	1.030072	0.000122
 225	2.2288e+01	8.9163	23.009655	0.000223	2.229533	0.755386	0.000089
 226	2.2387e+01	8.9564	23.163066	0.000385	3.851012	1.304758	0.000154
 227	2.2487e+01	9.0014	23.368960	0.000517	5.168463	1.751123	0.000207
 228	2.2587e+01	9.0463	23.486037	0.000294	2.938930	0.995736	0.000118
 229	2.2686e+01	9.0864	23.643485	0.000395	3.952354	1.339094	0.000158
 230	2.2785e+01	9.1249	23.809008	0.000416	4.155039	1.407765	0.000166
 231	2.2885e+01	9.1682	23.926085	0.000294	2.938930	0.995736	0.000118
 232	2.2985e+01	9.2019	24.111793	0.000466	4.661751	1.579444	0.000187
 233	2.3084e+01	9.2324	24.245019	0.000334	3.344300	1.133079	0.000134
 234	2.3183e+01	9.2853	24.446875	0.000507	5.067121	1.716787	0.000203
 235	2.3283e+01	9.3206	24.535692	0.000223	2.229533	0.755386	0.000089
 236	2.3383e+01	9.3639	24.685066	0.000375	3.749670	1.270422	0.000150
 237	2.3482e+01	9.3928	24.870775	0.000466	4.661751	1.579444	0.000187
 238	2.3581e+01	9.4473	24.999963	0.000324	3.242957	1.098744	0.000130
 239	2.3681e+01	9.4762	25.177597	0.000446	4.459066	1.510773	0.000179
 240	2.3780e+01	9.5179	25.355231	0.000446	4.459066	1.510773	0.000179
 241	2.3880e+01	9.5628	25.492494	0.000345	3.445642	1.167415	0.000138
 242	2.3980e+01	9.6094	25.658016	0.000416	4.155039	1.407765	0.000166
 243	2.4079e+01	9.6446	25.771056	0.000284	2.837588	0.961401	0.000114
 244	2.4178e+01	9.6687	25.847762	0.000193	1.925506	0.652379	0.000077
 245	2.4278e+01	9.7120	26.061730	0.000537	5.371148	1.819794	0.000215
 246	2.4378e+01	9.7521	26.158621	0.000243	2.432218	0.824058	0.000097
 247	2.4477e+01	9.8003	26.324144	0.000416	4.155039	1.407765	0.000166
 248	2.4576e+01	9.8404	26.489666	0.000416	4.155039	1.407765	0.000166
 249	2.4676e+01	9.8757	26.594632	0.000263	2.634903	0.892729	0.000105
 250	2.4776e+01	9.9061	26.760154	0.000416	4.155039	1.407765	0.000166
 251	2.4875e+01	9.9495	26.897417	0.000345	3.445642	1.167415	0.000138
 252	2.4974e+01	9.9863	27.030642	0.000334	3.344300	1.133079	0.000134
 253	2.5074e+01	10.0361	27.188091	0.000395	3.952354	1.339094	0.000158
 254	2.5174e+01	10.0746	27.365725	0.000446	4.459066	1.510773	0.000179
 255	2.5273e+01	10.1243	27.470690	0.000263	2.634903	0.892729	0.000105
 256	2.5372e+01	10.1532	27.664473	0.000486	4.864436	1.648116	0.000195
 257	2.5472e+01	10.1981	27.817884	0.000385	3.851012	1.304758	0.000154
 258	2.5572e+01	10.2382	28.027815	0.000527	5.269806	1.785459	0.000211
 259	2.5671e+01	10.2735	28.148929	0.000304	3.040273	1.030072	0.000122
 260	2.5770e+01	10.3232	28.326563	0.000446	4.459066	1.510773	0.000179
 261	2.5870e+01	10.3633	28.451714	0.000314	3.141615	1.064408	0.000126
 262	2.5970e+01	10.4083	28.556680	0.000263	2.634903	0.892729	0.000105
 263	2.6069e+01	10.4436	28.710091	0.000385	3.851012	1.304758	0.000154
 264	2.6169e+01	10.4805	28.887725	0.000446	4.459066	1.510773	0.000179
 265	2.6268e+01	10.5157	29.004802	0.000294	2.938930	0.995736	0.000118
 266	2.6367e+01	10.5478	29.174361	0.000426	4.256382	1.442101	0.000170
 267	2.6467e+01	10.5960	29.275290	0.000253	2.533560	0.858394	0.000101
 268	2.6567e+01	10.6409	29.452924	0.000446	4.459066	1.510773	0.000179
 269	2.6666e+01	10.6714	29.610372	0.000395	3.952354	1.339094	0.000158
 270	2.6765e+01	10.7195	29.751672	0.000355	3.546985	1.201751	0.000142
 271	2.6865e+01	10.7580	29.933343	0.000456	4.560409	1.545108	0.000183
 272	2.6965e+01	10.7917	30.046383	0.000284	2.837588	0.961401	0.000114
 273	2.7064e+01	10.8318	30.199794	0.000385	3.851012	1.304758	0.000154
 274	2.7163e+01	10.8783	30.389539	0.000476	4.763094	1.613780	0.000191
 275	2.7263e+01	10.9104	30.571210	0.000456	4.560409	1.545108	0.000183
 276	2.7363e+01	10.9553	30.720584	0.000375	3.749670	1.270422	0.000150
 277	2.7462e+01	10.9890	30.869958	0.000375	3.749670	1.270422	0.000150
 278	2.7561e+01	11.0371	31.035481	0.000416	4.155039	1.407765	0.000166
 279	2.7661e+01	11.0724	31.152558	0.000294	2.938930	0.995736	0.000118
 280	2.7761e+01	11.1157	31.249449	0.000243	2.432218	0.824058	0.000097
 281	2.7860e+01	11.1542	31.410935	0.000405	4.053697	1.373430	0.000162
 282	2.7959e+01	11.1943	31.596643	0.000466	4.661751	1.579444	0.000187
 283	2.8059e+01	11.2248	31.693534	0.000243	2.432218	0.824058	0.000097
 284	2.8159e+01	11.2745	31.859057	0.000416	4.155039	1.407765	0.000166
 285	2.8258e+01	11.3147	31.996319	0.000345	3.445642	1.167415	0.000138
 286	2.8358e+01	11.3580	32.177990	0.000456	4.560409	1.545108	0.000183
 287	2.8457e+01	11.3933	32.331402	0.000385	3.851012	1.304758	0.000154
 288	2.8556e+01	11.4253	32.460590	0.000324	3.242957	1.098744	0.000130
 289	2.8656e+01	11.4831	32.642261	0.000456	4.560409	1.545108	0.000183
 290	2.8756e+01	11.5136	32.795672	0.000385	3.851012	1.304758	0.000154
 291	2.8855e+01	11.5521	32.969269	0.000436	4.357724	1.476437	0.000174
 292	2.8954e+01	11.5890	33.086346	0.000294	2.938930	0.995736	0.000118
 293	2.9054e+01	11.6259	33.276091	0.000476	4.763094	1.613780	0.000191
 294	2.9154e+01	11.6708	33.465837	0.000476	4.763094	1.613780	0.000191
 295	2.9253e+01	11.7141	33.615211	0.000375	3.749670	1.270422	0.000150
 296	2.9352e+01	11.7510	33.740362	0.000314	3.141615	1.064408	0.000126
 297	2.9452e+01	11.7911	33.889736	0.000375	3.749670	1.270422	0.000150
 298	2.9552e+01	11.8264	34.031036	0.000355	3.546985	1.201751	0.000142
 299	2.9651e+01	11.8745	34.176373	0.000365	3.648327	1.236087	0.000146
 300	2.9750e+01	11.8986	34.289412	0.000284	2.837588	0.961401	0.000114
 301	2.9850e+01	11.9515	34.442824	0.000385	3.851012	1.304758	0.000154
 302	2.9950e+01	11.9965	34.584123	0.000355	3.546985	1.201751	0.000142
 303	3.0049e+01	12.0350	34.749646	0.000416	4.155039	1.407765	0.000166
 304	3.0148e+01	12.0702	34.899020	0.000375	3.749670	1.270422	0.000150
 305	3.0248e+01	12.1087	35.044357	0.000365	3.648327	1.236087	0.000146
 306	3.0348e+01	12.1537	35.181619	0.000345	3.445642	1.167415	0.000138
 307	3.0447e+01	12.1922	35.343105	0.000405	4.053697	1.373430	0.000162
 308	3.0547e+01	12.2275	35.524776	0.000456	4.560409	1.545108	0.000183
 309	3.0646e+01	12.2644	35.678187	0.000385	3.851012	1.304758	0.000154
 310	3.0745e+01	12.2980	35.807375	0.000324	3.242957	1.098744	0.000130
 311	3.0845e+01	12.3462	36.021344	0.000537	5.371148	1.819794	0.000215
 312	3.0945e+01	12.3879	36.170718	0.000375	3.749670	1.270422	0.000150
 313	3.1044e+01	12.4296	36.324129	0.000385	3.851012	1.304758	0.000154
 314	3.1143e+01	12.4697	36.465429	0.000355	3.546985	1.201751	0.000142
 315	3.1243e+01	12.5098	36.590580	0.000314	3.141615	1.064408	0.000126
 316	3.1343e+01	12.5483	36.776288	0.000466	4.661751	1.579444	0.000187
 317	3.1442e+01	12.5900	36.925662	0.000375	3.749670	1.270422	0.000150
 318	3.1541e+01	12.6269	37.050813	0.000314	3.141615	1.064408	0.000126
 319	3.1641e+01	12.6734	37.175964	0.000314	3.141615	1.064408	0.000126
 320	3.1741e+01	12.7119	37.333413	0.000395	3.952354	1.339094	0.000158
 321	3.1840e+01	12.7488	37.478750	0.000365	3.648327	1.236087	0.000146
 322	3.1939e+01	12.7873	37.607938	0.000324	3.242957	1.098744	0.000130
 323	3.2039e+01	12.8194	37.769423	0.000405	4.053697	1.373430	0.000162
 324	3.2139e+01	12.8692	37.951095	0.000456	4.560409	1.545108	0.000183
 325	3.2238e+01	12.9044	38.088357	0.000345	3.445642	1.167415	0.000138
 326	3.2337e+01	12.9381	38.241768	0.000385	3.851012	1.304758	0.000154
 327	3.2437e+01	12.9782	38.399217	0.000395	3.952354	1.339094	0.000158
 328	3.2536e+01	13.0232	38.605110	0.000517	5.168463	1.751123	0.000207
 329	3.2636e+01	13.0536	38.746410	0.000355	3.546985	1.201751	0.000142
 330	3.2736e+01	13.1082	38.944230	0.000497	4.965779	1.682451	0.000199
 331	3.2835e+01	13.1371	39.081493	0.000345	3.445642	1.167415	0.000138
 332	3.2934e+01	13.1772	39.271238	0.000476	4.763094	1.613780	0.000191
 333	3.3034e+01	13.2205	39.400426	0.000324	3.242957	1.098744	0.000130
 334	3.3133e+01	13.2686	39.578060	0.000446	4.459066	1.510773	0.000179
 335	3.3233e+01	13.3055	39.727434	0.000375	3.749670	1.270422	0.000150
 336	3.3333e+01	13.3408	39.864697	0.000345	3.445642	1.167415	0.000138
 337	3.3432e+01	13.3905	40.005997	0.000355	3.546985	1.201751	0.000142
 338	3.3532e+01	13.4306	40.114999	0.000274	2.736245	0.927065	0.000110
 339	3.3631e+01	13.4611	40.268410	0.000385	3.851012	1.304758	0.000154
 340	3.3730e+01	13.4964	40.417784	0.000375	3.749670	1.270422	0.000150
 341	3.3830e+01	13.5397	40.571196	0.000385	3.851012	1.304758	0.000154
 342	3.3929e+01	13.5846	40.724607	0.000385	3.851012	1.304758	0.000154
 343	3.4029e+01	13.6264	40.894166	0.000426	4.256382	1.442101	0.000170
 344	3.4129e+01	13.6713	41.079875	0.000466	4.661751	1.579444	0.000187
 345	3.4228e+01	13.7082	41.205026	0.000314	3.141615	1.064408	0.000126
 346	3.4328e+01	13.7386	41.362474	0.000395	3.952354	1.339094	0.000158
 347	3.4427e+01	13.7707	41.540108	0.000446	4.459066	1.510773	0.000179
 348	3.4526e+01	13.8221	41.746002	0.000517	5.168463	1.751123	0.000207
 349	3.4626e+01	13.8526	41.907488	0.000405	4.053697	1.373430	0.000162
 350	3.4725e+01	13.9151	42.044750	0.000345	3.445642	1.167415	0.000138
 351	3.4825e+01	13.9408	42.190087	0.000365	3.648327	1.236087	0.000146
 352	3.4925e+01	13.9777	42.371758	0.000456	4.560409	1.545108	0.000183
 353	3.5024e+01	14.0210	42.521132	0.000375	3.749670	1.270422	0.000150
 354	3.5123e+01	14.0691	42.682618	0.000405	4.053697	1.373430	0.000162
 355	3.5223e+01	14.1092	42.795657	0.000284	2.837588	0.961401	0.000114
 356	3.5322e+01	14.1445	42.949069	0.000385	3.851012	1.304758	0.000154
 357	3.5422e+01	14.1670	43.082294	0.000334	3.344300	1.133079	0.000134
 358	3.5522e+01	14.2183	43.235705	0.000385	3.851012	1.304758	0.000154
 359	3.5621e+01	14.2680	43.393153	0.000395	3.952354	1.339094	0.000158
 360	3.5721e+01	14.2953	43.542528	0.000375	3.749670	1.270422	0.000150
 361	3.5820e+01	14.3483	43.704013	0.000405	4.053697	1.373430	0.000162
 362	3.5919e+01	14.3755	43.889721	0.000466	4.661751	1.579444	0.000187
 363	3.6019e+01	14.4188	44.039095	0.000375	3.749670	1.270422	0.000150
 364	3.6118e+01	14.4525	44.216729	0.000446	4.459066	1.510773	0.000179
 365	3.6218e+01	14.4878	44.345918	0.000324	3.242957	1.098744	0.000130
 366	3.6318e+01	14.5424	44.507403	0.000405	4.053697	1.373430	0.000162
 367	3.6417e+01	14.5729	44.705223	0.000497	4.965779	1.682451	0.000199
 368	3.6517e+01	14.6162	44.870745	0.000416	4.155039	1.407765	0.000166
 369	3.6616e+01	14.6675	45.040305	0.000426	4.256382	1.442101	0.000170
 370	3.6715e+01	14.7028	45.201790	0.000405	4.053697	1.373430	0.000162
 371	3.6815e+01	14.7349	45.343090	0.000355	3.546985	1.201751	0.000142
 372	3.6914e+01	14.7750	45.508613	0.000416	4.155039	1.407765	0.000166
 373	3.7014e+01	14.8167	45.589355	0.000203	2.026848	0.686715	0.000081
 374	3.7114e+01	14.8600	45.771026	0.000456	4.560409	1.545108	0.000183
 375	3.7213e+01	14.9001	45.924438	0.000385	3.851012	1.304758	0.000154
 376	3.7313e+01	14.9370	46.057663	0.000334	3.344300	1.133079	0.000134
 377	3.7412e+01	14.9755	46.198963	0.000355	3.546985	1.201751	0.000142
 378	3.7511e+01	15.0285	46.368523	0.000426	4.256382	1.442101	0.000170
 379	3.7611e+01	15.0525	46.538082	0.000426	4.256382	1.442101	0.000170
 380	3.7711e+01	15.0990	46.715716	0.000446	4.459066	1.510773	0.000179
 381	3.7810e+01	15.1407	46.873164	0.000395	3.952354	1.339094	0.000158
 382	3.7910e+01	15.1760	47.054836	0.000456	4.560409	1.545108	0.000183
 383	3.8009e+01	15.2210	47.143653	0.000223	2.229533	0.755386	0.000089
 384	3.8108e+01	15.2530	47.329361	0.000466	4.661751	1.579444	0.000187
 385	3.8208e+01	15.2867	47.511032	0.000456	4.560409	1.545108	0.000183
 386	3.8307e+01	15.3333	47.676554	0.000416	4.155039	1.407765	0.000166
 387	3.8407e+01	15.3846	47.894560	0.000547	5.472491	1.854130	0.000219
 388	3.8507e+01	15.4183	48.056045	0.000405	4.053697	1.373430	0.000162
 389	3.8606e+01	15.4584	48.156974	0.000253	2.533560	0.858394	0.000101
 390	3.8706e+01	15.5033	48.334608	0.000446	4.459066	1.510773	0.000179
 391	3.8805e+01	15.5386	48.459759	0.000314	3.141615	1.064408	0.000126
 392	3.8904e+01	15.5723	48.613170	0.000385	3.851012	1.304758	0.000154
 393	3.9004e+01	15.6156	48.706024	0.000233	2.330876	0.789722	0.000093
 394	3.9103e+01	15.6589	48.903844	0.000497	4.965779	1.682451	0.000199
 395	3.9203e+01	15.7006	49.109738	0.000517	5.168463	1.751123	0.000207
 396	3.9303e+01	15.7391	49.251037	0.000355	3.546985	1.201751	0.000142
 397	3.9402e+01	15.7696	49.376189	0.000314	3.141615	1.064408	0.000126
 398	3.9502e+01	15.8097	49.545748	0.000426	4.256382	1.442101	0.000170
 399	3.9601e+01	15.8530	49.747605	0.000507	5.067121	1.716787	0.000203
 400	3.9700e+01	15.8947	49.909091	0.000405	4.053697	1.373430	0.000162
 401	3.9800e+01	15.9300	50.042316	0.000334	3.344300	1.133079	0.000134
 402	3.9900e+01	15.9830	50.155356	0.000284	2.837588	0.961401	0.000114
 403	3.9999e+01	16.0054	50.389510	0.000588	5.877860	1.991473	0.000235
 404	4.0099e+01	16.0455	50.530809	0.000355	3.546985	1.201751	0.000142
 405	4.0198e+01	16.0921	50.712481	0.000456	4.560409	1.545108	0.000183
 406	4.0297e+01	16.1225	50.878003	0.000416	4.155039	1.407765	0.000166
 407	4.0397e+01	16.1771	51.035451	0.000395	3.952354	1.339094	0.000158
 408	4.0496e+01	16.2060	51.200974	0.000416	4.155039	1.407765	0.000166
 409	4.0596e+01	16.2573	51.366497	0.000416	4.155039	1.407765	0.000166
 410	4.0696e+01	16.3038	51.459351	0.000233	2.330876	0.789722	0.000093
 411	4.0795e+01	16.3279	51.624873	0.000416	4.155039	1.407765	0.000166
 412	4.0895e+01	16.3680	51.774247	0.000375	3.749670	1.270422	0.000150
 413	4.0994e+01	16.4097	51.963993	0.000476	4.763094	1.613780	0.000191
 414	4.1093e+01	16.4546	52.089144	0.000314	3.141615	1.064408	0.000126
 415	4.1193e+01	16.4819	52.299075	0.000527	5.269806	1.785459	0.000211
 416	4.1292e+01	16.5348	52.416152	0.000294	2.938930	0.995736	0.000118
 417	4.1392e+01	16.5701	52.585712	0.000426	4.256382	1.442101	0.000170
 418	4.1492e+01	16.6118	52.727011	0.000355	3.546985	1.201751	0.000142
 419	4.1591e+01	16.6503	52.872348	0.000365	3.648327	1.236087	0.000146
 420	4.1691e+01	16.6888	53.045945	0.000436	4.357724	1.476437	0.000174
 421	4.1790e+01	16.7257	53.215505	0.000426	4.256382	1.442101	0.000170
 422	4.1889e+01	16.7642	53.389102	0.000436	4.357724	1.476437	0.000174
 423	4.1989e+01	16.8027	53.538476	0.000375	3.749670	1.270422	0.000150
 424	4.2089e+01	16.8541	53.736295	0.000497	4.965779	1.682451	0.000199
 425	4.2188e+01	16.8894	53.922003	0.000466	4.661751	1.579444	0.000187
 426	4.2288e+01	16.9182	54.067340	0.000365	3.648327	1.236087	0.000146
 427	4.2387e+01	16.9744	54.212677	0.000365	3.648327	1.236087	0.000146
 428	4.2486e+01	17.0097	54.386274	0.000436	4.357724	1.476437	0.000174
 429	4.2586e+01	17.0466	54.491240	0.000263	2.634903	0.892729	0.000105
 430	4.2685e+01	17.0947	54.636577	0.000365	3.648327	1.236087	0.000146
 431	4.2785e+01	17.1220	54.810173	0.000436	4.357724	1.476437	0.000174
 432	4.2885e+01	17.1637	54.971659	0.000405	4.053697	1.373430	0.000162
 433	4.2984e+01	17.2006	55.137181	0.000416	4.155039	1.407765	0.000166
 434	4.3084e+01	17.2503	55.286555	0.000375	3.749670	1.270422	0.000150
 435	4.3183e+01	17.2872	55.512635	0.000568	5.675175	1.922802	0.000227
 436	4.3282e+01	17.3305	55.609526	0.000243	2.432218	0.824058	0.000097
 437	4.3382e+01	17.3738	55.783123	0.000436	4.357724	1.476437	0.000174
 438	4.3481e+01	17.4027	55.968831	0.000466	4.661751	1.579444	0.000187
 439	4.3581e+01	17.4508	56.126280	0.000395	3.952354	1.339094	0.000158
 440	4.3681e+01	17.4861	56.283728	0.000395	3.952354	1.339094	0.000158
 441	4.3780e+01	17.5246	56.481548	0.000497	4.965779	1.682451	0.000199
 442	4.3880e+01	17.5615	56.610736	0.000324	3.242957	1.098744	0.000130
 443	4.3979e+01	17.6032	56.792407	0.000456	4.560409	1.545108	0.000183
 444	4.4078e+01	17.6482	57.010412	0.000547	5.472491	1.854130	0.000219
 445	4.4178e+01	17.6802	57.159786	0.000375	3.749670	1.270422	0.000150
 446	4.4278e+01	17.7300	57.353569	0.000486	4.864436	1.648116	0.000195
 447	4.4377e+01	17.7605	57.502943	0.000375	3.749670	1.270422	0.000150
 448	4.4477e+01	17.8038	57.587723	0.000213	2.128191	0.721051	0.000085
 449	4.4576e+01	17.8583	57.765357	0.000446	4.459066	1.510773	0.000179
 450	4.4675e+01	17.8679	57.938954	0.000436	4.357724	1.476437	0.000174
 451	4.4775e+01	17.9289	58.104476	0.000416	4.155039	1.407765	0.000166
 452	4.4874e+01	17.9690	58.221553	0.000294	2.938930	0.995736	0.000118
 453	4.4974e+01	18.0059	58.447633	0.000568	5.675175	1.922802	0.000227
 454	4.5074e+01	18.0540	58.576821	0.000324	3.242957	1.098744	0.000130
 455	4.5173e+01	18.0797	58.746381	0.000426	4.256382	1.442101	0.000170
 456	4.5273e+01	18.1278	58.928052	0.000456	4.560409	1.545108	0.000183
 457	4.5372e+01	18.1663	59.073389	0.000365	3.648327	1.236087	0.000146
 458	4.5471e+01	18.2000	59.259097	0.000466	4.661751	1.579444	0.000187
 459	4.5571e+01	18.2385	59.436731	0.000446	4.459066	1.510773	0.000179
 460	4.5670e+01	18.2818	59.614365	0.000446	4.459066	1.510773	0.000179
 461	4.5770e+01	18.3219	59.804110	0.000476	4.763094	1.613780	0.000191
 462	4.5870e+01	18.3620	60.022116	0.000547	5.472491	1.854130	0.000219
 463	4.5969e+01	18.4086	60.167452	0.000365	3.648327	1.236087	0.000146
 464	4.6069e+01	18.4535	60.316826	0.000375	3.749670	1.270422	0.000150
 465	4.6168e+01	18.4808	60.478312	0.000405	4.053697	1.373430	0.000162
 466	4.6267e+01	18.5305	60.607500	0.000324	3.242957	1.098744	0.000130
 467	4.6367e+01	18.5626	60.801283	0.000486	4.864436	1.648116	0.000195
 468	4.6467e+01	18.6043	60.926434	0.000314	3.141615	1.064408	0.000126
 469	4.6566e+01	18.6316	61.124254	0.000497	4.965779	1.682451	0.000199
 470	4.6666e+01	18.6877	61.261516	0.000345	3.445642	1.167415	0.000138
 471	4.6765e+01	18.7246	61.463373	0.000507	5.067121	1.716787	0.000203
 472	4.6864e+01	18.7679	61.612747	0.000375	3.749670	1.270422	0.000150
 473	4.6964e+01	18.8064	61.774232	0.000405	4.053697	1.373430	0.000162
 474	4.7063e+01	18.8433	61.923607	0.000375	3.749670	1.270422	0.000150
 475	4.7163e+01	18.8850	62.109315	0.000466	4.661751	1.579444	0.000187
 476	4.7263e+01	18.9187	62.323283	0.000537	5.371148	1.819794	0.000215
 477	4.7362e+01	18.9524	62.440360	0.000294	2.938930	0.995736	0.000118
 478	4.7462e+01	18.9989	62.678551	0.000598	5.979203	2.025809	0.000239
 479	4.7561e+01	19.0358	62.852148	0.000436	4.357724	1.476437	0.000174
 480	4.7660e+01	19.0872	63.013633	0.000405	4.053697	1.373430	0.000162
 481	4.7760e+01	19.1192	63.191267	0.000446	4.459066	1.510773	0.000179
 482	4.7859e+01	19.1561	63.376975	0.000466	4.661751	1.579444	0.000187
 483	4.7959e+01	19.2011	63.570758	0.000486	4.864436	1.648116	0.000195
 484	4.8059e+01	19.2428	63.659575	0.000223	2.229533	0.755386	0.000089
 485	4.8158e+01	19.2845	63.829135	0.000426	4.256382	1.442101	0.000170
 486	4.8258e+01	19.3166	63.994657	0.000416	4.155039	1.407765	0.000166
 487	4.8357e+01	19.3631	64.208625	0.000537	5.371148	1.819794	0.000215
 488	4.8456e+01	19.4032	64.337814	0.000324	3.242957	1.098744	0.000130
 489	4.8556e+01	19.4401	64.495262	0.000395	3.952354	1.339094	0.000158
 490	4.8656e+01	19.4690	64.701156	0.000517	5.168463	1.751123	0.000207
 491	4.8755e+01	19.5187	64.850530	0.000375	3.749670	1.270422	0.000150
 492	4.8855e+01	19.5556	65.036238	0.000466	4.661751	1.579444	0.000187
 493	4.8954e+01	19.5957	65.213872	0.000446	4.459066	1.510773	0.000179
 494	4.9053e+01	19.6358	65.383432	0.000426	4.256382	1.442101	0.000170
 495	4.9153e+01	19.6743	65.597400	0.000537	5.371148	1.819794	0.000215
 496	4.9252e+01	19.7160	65.811368	0.000537	5.371148	1.819794	0.000215
 497	4.9352e+01	19.7641	65.980928	0.000426	4.256382	1.442101	0.000170
 498	4.9452e+01	19.7962	66.158562	0.000446	4.459066	1.510773	0.000179
 499	4.9551e+01	19.8460	66.324084	0.000416	4.155039	1.407765	0.000166
 500	4.9651e+01	19.8716	66.525941	0.000507	5.067121	1.716787	0.000203
 501	4.9750e+01	19.9149	66.679352	0.000385	3.851012	1.304758	0.000154
 502	4.9849e+01	19.9518	66.869098	0.000476	4.763094	1.613780	0.000191
 503	4.9949e+01	19.9984	67.026546	0.000395	3.952354	1.339094	0.000158
 504	5.0048e+01	19.9599	66.994249	0.000081	0.810739	0.274686	-0.000032
 505	5.0148e+01	19.9101	66.917543	0.000193	1.925506	0.652379	-0.000077
 506	5.0248e+01	19.8748	66.861024	0.000142	1.418794	0.480700	-0.000057
 507	5.0347e+01	19.8460	66.780281	0.000203	2.026848	0.686715	-0.000081
 508	5.0447e+01	19.7946	66.707612	0.000182	1.824164	0.618043	-0.000073
 509	5.0546e+01	19.7593	66.671278	0.000091	0.912082	0.309022	-0.000037
 510	5.0645e+01	19.7176	66.586498	0.000213	2.128191	0.721051	-0.000085
 511	5.0745e+01	19.6711	66.513830	0.000182	1.824164	0.618043	-0.000073
 512	5.0844e+01	19.6358	66.437124	0.000193	1.925506	0.652379	-0.000077
 513	5.0944e+01	19.6021	66.404827	0.000081	0.810739	0.274686	-0.000032
 514	5.1044e+01	19.5508	66.372530	0.000081	0.810739	0.274686	-0.000032
 515	5.1143e+01	19.5187	66.275639	0.000243	2.432218	0.824058	-0.000097
 516	5.1242e+01	19.4722	66.178748	0.000243	2.432218	0.824058	-0.000097
 517	5.1342e+01	19.4417	66.154525	0.000061	0.608055	0.206014	-0.000024
 518	5.1441e+01	19.4032	66.057634	0.000243	2.432218	0.824058	-0.000097
 519	5.1541e+01	19.3519	65.984965	0.000182	1.824164	0.618043	-0.000073
 520	5.1641e+01	19.3214	65.904222	0.000203	2.026848	0.686715	-0.000081
 521	5.1740e+01	19.2765	65.811368	0.000233	2.330876	0.789722	-0.000093
 522	5.1840e+01	19.2428	65.750811	0.000152	1.520136	0.515036	-0.000061
 523	5.1939e+01	19.2059	65.633734	0.000294	2.938930	0.995736	-0.000118
 524	5.2038e+01	19.1610	65.544917	0.000223	2.229533	0.755386	-0.000089
 525	5.2138e+01	19.1192	65.476286	0.000172	1.722821	0.583708	-0.000069
 526	5.2237e+01	19.0840	65.343060	0.000334	3.344300	1.133079	-0.000134
 527	5.2337e+01	19.0406	65.302689	0.000101	1.013424	0.343357	-0.000041
 528	5.2437e+01	19.0053	65.217909	0.000213	2.128191	0.721051	-0.000085
 529	5.2536e+01	18.9588	65.080647	0.000345	3.445642	1.167415	-0.000138
 530	5.2636e+01	18.9171	65.044312	0.000091	0.912082	0.309022	-0.000037
 531	5.2735e+01	18.8850	64.927236	0.000294	2.938930	0.995736	-0.000118
 532	5.2834e+01	18.8337	64.911087	0.000041	0.405370	0.137343	-0.000016
 533	5.2934e+01	18.7936	64.846493	0.000162	1.621479	0.549372	-0.000065
 534	5.3033e+01	18.7695	64.769787	0.000193	1.925506	0.652379	-0.000077
 535	5.3133e+01	18.7246	64.660785	0.000274	2.736245	0.927065	-0.000110
 536	5.3233e+01	18.6781	64.612339	0.000122	1.216109	0.412029	-0.000049
 537	5.3332e+01	18.6428	64.507373	0.000263	2.634903	0.892729	-0.000105
 538	5.3431e+01	18.6171	64.390296	0.000294	2.938930	0.995736	-0.000118
 539	5.3531e+01	18.5642	64.341851	0.000122	1.216109	0.412029	-0.000049
 540	5.3630e+01	18.5241	64.224774	0.000294	2.938930	0.995736	-0.000118
 541	5.3730e+01	18.4824	64.099623	0.000314	3.141615	1.064408	-0.000126
 542	5.3830e+01	18.4407	64.014843	0.000213	2.128191	0.721051	-0.000085
 543	5.3929e+01	18.4102	63.877580	0.000345	3.445642	1.167415	-0.000138
 544	5.4029e+01	18.3669	63.780689	0.000243	2.432218	0.824058	-0.000097
 545	5.4128e+01	18.3300	63.687835	0.000233	2.330876	0.789722	-0.000093
 546	5.4227e+01	18.2786	63.607092	0.000203	2.026848	0.686715	-0.000081
 547	5.4327e+01	18.2401	63.506164	0.000253	2.533560	0.858394	-0.000101
 548	5.4426e+01	18.2064	63.433495	0.000182	1.824164	0.618043	-0.000073
 549	5.4526e+01	18.1615	63.352753	0.000203	2.026848	0.686715	-0.000081
 550	5.4626e+01	18.1166	63.276047	0.000193	1.925506	0.652379	-0.000077
 551	5.4725e+01	18.0877	63.203379	0.000182	1.824164	0.618043	-0.000073
 552	5.4825e+01	18.0476	63.114562	0.000223	2.229533	0.755386	-0.000089
 553	5.4924e+01	18.0027	63.001522	0.000284	2.837588	0.961401	-0.000114
 554	5.5023e+01	17.9690	62.916742	0.000213	2.128191	0.721051	-0.000085
 555	5.5123e+01	17.9225	62.856185	0.000152	1.520136	0.515036	-0.000061
 556	5.5222e+01	17.8856	62.779479	0.000193	1.925506	0.652379	-0.000077
 557	5.5322e+01	17.8583	62.630105	0.000375	3.749670	1.270422	-0.000150
 558	5.5422e+01	17.8038	62.549363	0.000203	2.026848	0.686715	-0.000081
 559	5.5521e+01	17.7573	62.432286	0.000294	2.938930	0.995736	-0.000118
 560	5.5620e+01	17.7284	62.339431	0.000233	2.330876	0.789722	-0.000093
 561	5.5720e+01	17.6995	62.214280	0.000314	3.141615	1.064408	-0.000126
 562	5.5819e+01	17.6514	62.109315	0.000263	2.634903	0.892729	-0.000105
 563	5.5919e+01	17.6081	61.984164	0.000314	3.141615	1.064408	-0.000126
 564	5.6019e+01	17.5663	61.903421	0.000203	2.026848	0.686715	-0.000081
 565	5.6118e+01	17.5246	61.818641	0.000213	2.128191	0.721051	-0.000085
 566	5.6218e+01	17.4942	61.689453	0.000324	3.242957	1.098744	-0.000130
 567	5.6317e+01	17.4476	61.632933	0.000142	1.418794	0.480700	-0.000057
 568	5.6416e+01	17.4123	61.536041	0.000243	2.432218	0.824058	-0.000097
 569	5.6516e+01	17.3722	61.483559	0.000132	1.317451	0.446365	-0.000053
 570	5.6615e+01	17.3209	61.398779	0.000213	2.128191	0.721051	-0.000085
 571	5.6715e+01	17.2840	61.277665	0.000304	3.040273	1.030072	-0.000122
 572	5.6815e+01	17.2519	61.136365	0.000355	3.546985	1.201751	-0.000142
 573	5.6914e+01	17.2022	61.039474	0.000243	2.432218	0.824058	-0.000097
 574	5.7014e+01	17.1653	60.962768	0.000193	1.925506	0.652379	-0.000077
 575	5.7113e+01	17.1300	60.865877	0.000243	2.432218	0.824058	-0.000097
 576	5.7212e+01	17.0883	60.720540	0.000365	3.648327	1.236087	-0.000146
 577	5.7312e+01	17.0482	60.635760	0.000213	2.128191	0.721051	-0.000085
 578	5.7411e+01	17.0129	60.518683	0.000294	2.938930	0.995736	-0.000118
 579	5.7511e+01	16.9648	60.409681	0.000274	2.736245	0.927065	-0.000110
 580	5.7611e+01	16.9214	60.268381	0.000355	3.546985	1.201751	-0.000142
 581	5.7710e+01	16.8974	60.159378	0.000274	2.736245	0.927065	-0.000110
 582	5.7809e+01	16.8493	60.034227	0.000314	3.141615	1.064408	-0.000126
 583	5.7909e+01	16.8043	59.933299	0.000253	2.533560	0.858394	-0.000101
 584	5.8008e+01	16.7771	59.832370	0.000253	2.533560	0.858394	-0.000101
 585	5.8108e+01	16.7273	59.707219	0.000314	3.141615	1.064408	-0.000126
 586	5.8208e+01	16.6872	59.670885	0.000091	0.912082	0.309022	-0.000037
 587	5.8307e+01	16.6487	59.545734	0.000314	3.141615	1.064408	-0.000126
 588	5.8407e+01	16.6134	59.513436	0.000081	0.810739	0.274686	-0.000032
 589	5.8506e+01	16.5637	59.360025	0.000385	3.851012	1.304758	-0.000154
 590	5.8605e+01	16.5364	59.230837	0.000324	3.242957	1.098744	-0.000130
 591	5.8705e+01	16.4899	59.129909	0.000253	2.533560	0.858394	-0.000101
 592	5.8804e+01	16.4546	59.041092	0.000223	2.229533	0.755386	-0.000089
 593	5.8904e+01	16.4113	58.915940	0.000314	3.141615	1.064408	-0.000126
 594	5.9004e+01	16.3680	58.815012	0.000253	2.533560	0.858394	-0.000101
 595	5.9103e+01	16.3375	58.697935	0.000294	2.938930	0.995736	-0.000118
 596	5.9203e+01	16.2942	58.597007	0.000253	2.533560	0.858394	-0.000101
 597	5.9302e+01	16.2525	58.504153	0.000233	2.330876	0.789722	-0.000093
 598	5.9401e+01	16.2124	58.342667	0.000405	4.053697	1.373430	-0.000162
 599	5.9501e+01	16.1739	58.193293	0.000375	3.749670	1.270422	-0.000150
 600	5.9600e+01	16.1402	58.092365	0.000253	2.533560	0.858394	-0.000101
 601	5.9700e+01	16.0985	57.991436	0.000253	2.533560	0.858394	-0.000101
 602	5.9800e+01	16.0552	57.914731	0.000193	1.925506	0.652379	-0.000077
 603	5.9899e+01	16.0183	57.777468	0.000345	3.445642	1.167415	-0.000138
 604	5.9998e+01	15.9717	57.708837	0.000172	1.722821	0.583708	-0.000069
 605	6.0098e+01	15.9300	57.587723	0.000304	3.040273	1.030072	-0.000122
 606	6.0197e+01	15.9012	57.519091	0.000172	1.722821	0.583708	-0.000069
 607	6.0297e+01	15.8466	57.393940	0.000314	3.141615	1.064408	-0.000126
 608	6.0397e+01	15.8065	57.297049	0.000243	2.432218	0.824058	-0.000097
 609	6.0496e+01	15.7840	57.139601	0.000395	3.952354	1.339094	-0.000158
 610	6.0596e+01	15.7391	57.083081	0.000142	1.418794	0.480700	-0.000057
 611	6.0695e+01	15.6990	56.961967	0.000304	3.040273	1.030072	-0.000122
 612	6.0794e+01	15.6525	56.816630	0.000365	3.648327	1.236087	-0.000146
 613	6.0894e+01	15.6076	56.776258	0.000101	1.013424	0.343357	-0.000041
 614	6.0993e+01	15.5867	56.622847	0.000385	3.851012	1.304758	-0.000154
 615	6.1093e+01	15.5354	56.546142	0.000193	1.925506	0.652379	-0.000077
 616	6.1193e+01	15.4905	56.416953	0.000324	3.242957	1.098744	-0.000130
 617	6.1292e+01	15.4632	56.259505	0.000395	3.952354	1.339094	-0.000158
 618	6.1392e+01	15.4167	56.126280	0.000334	3.344300	1.133079	-0.000134
 619	6.1491e+01	15.3782	56.009203	0.000294	2.938930	0.995736	-0.000118
 620	6.1590e+01	15.3381	55.871940	0.000345	3.445642	1.167415	-0.000138
 621	6.1690e+01	15.2899	55.762937	0.000274	2.736245	0.927065	-0.000110
 622	6.1789e+01	15.2546	55.670083	0.000233	2.330876	0.789722	-0.000093
 623	6.1889e+01	15.2145	55.528784	0.000355	3.546985	1.201751	-0.000142
 624	6.1989e+01	15.1776	55.488412	0.000101	1.013424	0.343357	-0.000041
 625	6.2088e+01	15.1279	55.375372	0.000284	2.837588	0.961401	-0.000114
 626	6.2188e+01	15.0942	55.274444	0.000253	2.533560	0.858394	-0.000101
 627	6.2287e+01	15.0541	55.185627	0.000223	2.229533	0.755386	-0.000089
 628	6.2386e+01	15.0156	55.048364	0.000345	3.445642	1.167415	-0.000138
 629	6.2486e+01	14.9771	54.939362	0.000274	2.736245	0.927065	-0.000110
 630	6.2586e+01	14.9322	54.838433	0.000253	2.533560	0.858394	-0.000101
 631	6.2685e+01	14.8937	54.701171	0.000345	3.445642	1.167415	-0.000138
 632	6.2785e+01	14.8616	54.576019	0.000314	3.141615	1.064408	-0.000126
 633	6.2884e+01	14.8167	54.446831	0.000324	3.242957	1.098744	-0.000130
 634	6.2983e+01	14.7830	54.374163	0.000182	1.824164	0.618043	-0.000073
 635	6.3083e+01	14.7333	54.269197	0.000263	2.634903	0.892729	-0.000105
 636	6.3182e+01	14.6932	54.119823	0.000375	3.749670	1.270422	-0.000150
 637	6.3282e+01	14.6515	53.962375	0.000395	3.952354	1.339094	-0.000158
 638	6.3382e+01	14.6146	53.800889	0.000405	4.053697	1.373430	-0.000162
 639	6.3481e+01	14.5761	53.732258	0.000172	1.722821	0.583708	-0.000069
 640	6.3581e+01	14.5343	53.599033	0.000334	3.344300	1.133079	-0.000134
 641	6.3680e+01	14.5087	53.490030	0.000274	2.736245	0.927065	-0.000110
 642	6.3779e+01	14.4654	53.381027	0.000274	2.736245	0.927065	-0.000110
 643	6.3879e+01	14.4172	53.292210	0.000223	2.229533	0.755386	-0.000089
 644	6.3978e+01	14.3852	53.167059	0.000314	3.141615	1.064408	-0.000126
 645	6.4078e+01	14.3386	53.070168	0.000243	2.432218	0.824058	-0.000097
 646	6.4177e+01	14.2937	52.945017	0.000314	3.141615	1.064408	-0.000126
 647	6.4277e+01	14.2472	52.844088	0.000253	2.533560	0.858394	-0.000101
 648	6.4376e+01	14.2247	52.706826	0.000345	3.445642	1.167415	-0.000138
 649	6.4476e+01	14.1766	52.613972	0.000233	2.330876	0.789722	-0.000093
 650	6.4576e+01	14.1333	52.460560	0.000385	3.851012	1.304758	-0.000154
 651	6.4675e+01	14.0996	52.339446	0.000304	3.040273	1.030072	-0.000122
 652	6.4775e+01	14.0595	52.222369	0.000294	2.938930	0.995736	-0.000118
 653	6.4874e+01	14.0274	52.105292	0.000294	2.938930	0.995736	-0.000118
 654	6.4974e+01	13.9777	51.996290	0.000274	2.736245	0.927065	-0.000110
 655	6.5073e+01	13.9504	51.863064	0.000334	3.344300	1.133079	-0.000134
 656	6.5172e+01	13.9087	51.701579	0.000405	4.053697	1.373430	-0.000162
 657	6.5272e+01	13.8606	51.588539	0.000284	2.837588	0.961401	-0.000114
 658	6.5371e+01	13.8253	51.451276	0.000345	3.445642	1.167415	-0.000138
 659	6.5471e+01	13.7772	51.338237	0.000284	2.837588	0.961401	-0.000114
 660	6.5570e+01	13.7467	51.241345	0.000243	2.432218	0.824058	-0.000097
 661	6.5670e+01	13.7050	51.091971	0.000375	3.749670	1.270422	-0.000150
 662	6.5769e+01	13.6536	51.043526	0.000122	1.216109	0.412029	-0.000049
 663	6.5869e+01	13.6199	50.914337	0.000324	3.242957	1.098744	-0.000130
 664	6.5969e+01	13.5830	50.789186	0.000314	3.141615	1.064408	-0.000126
 665	6.6068e+01	13.5413	50.692295	0.000243	2.432218	0.824058	-0.000097
 666	6.6168e+01	13.4996	50.591367	0.000253	2.533560	0.858394	-0.000101
 667	6.6267e+01	13.4691	50.478327	0.000284	2.837588	0.961401	-0.000114
 668	6.6367e+01	13.4290	50.324916	0.000385	3.851012	1.304758	-0.000154
 669	6.6466e+01	13.3777	50.167467	0.000395	3.952354	1.339094	-0.000158
 670	6.6566e+01	13.3392	50.070576	0.000243	2.432218	0.824058	-0.000097
 671	6.6665e+01	13.2975	49.993870	0.000193	1.925506	0.652379	-0.000077
 672	6.6764e+01	13.2734	49.844496	0.000375	3.749670	1.270422	-0.000150
 673	6.6864e+01	13.2285	49.699160	0.000365	3.648327	1.236087	-0.000146
 674	6.6963e+01	13.1900	49.582083	0.000294	2.938930	0.995736	-0.000118
 675	6.7063e+01	13.1547	49.416560	0.000416	4.155039	1.407765	-0.000166
 676	6.7162e+01	13.1098	49.283335	0.000334	3.344300	1.133079	-0.000134
 677	6.7262e+01	13.0633	49.158183	0.000314	3.141615	1.064408	-0.000126
 678	6.7362e+01	13.0248	49.024958	0.000334	3.344300	1.133079	-0.000134
 679	6.7461e+01	12.9863	48.940178	0.000213	2.128191	0.721051	-0.000085
 680	6.7561e+01	12.9397	48.843287	0.000243	2.432218	0.824058	-0.000097
 681	6.7660e+01	12.9141	48.734284	0.000274	2.736245	0.927065	-0.000110
 682	6.7760e+01	12.8659	48.617207	0.000294	2.938930	0.995736	-0.000118
 683	6.7859e+01	12.8323	48.483982	0.000334	3.344300	1.133079	-0.000134
 684	6.7959e+01	12.7857	48.399202	0.000213	2.128191	0.721051	-0.000085
 685	6.8058e+01	12.7472	48.261939	0.000345	3.445642	1.167415	-0.000138
 686	6.8157e+01	12.7119	48.140825	0.000304	3.040273	1.030072	-0.000122
 687	6.8257e+01	12.6702	47.991451	0.000375	3.749670	1.270422	-0.000150
 688	6.8356e+01	12.6285	47.882448	0.000274	2.736245	0.927065	-0.000110
 689	6.8456e+01	12.5820	47.773446	0.000274	2.736245	0.927065	-0.000110
 690	6.8555e+01	12.5515	47.632146	0.000355	3.546985	1.201751	-0.000142
 691	6.8655e+01	12.5162	47.494883	0.000345	3.445642	1.167415	-0.000138
 692	6.8754e+01	12.4761	47.341472	0.000385	3.851012	1.304758	-0.000154
 693	6.8854e+01	12.4360	47.188061	0.000385	3.851012	1.304758	-0.000154
 694	6.8954e+01	12.3959	47.042724	0.000365	3.648327	1.236087	-0.000146
 695	6.9053e+01	12.3542	46.937759	0.000263	2.634903	0.892729	-0.000105
 696	6.9153e+01	12.3125	46.800496	0.000345	3.445642	1.167415	-0.000138
 697	6.9252e+01	12.2724	46.743976	0.000142	1.418794	0.480700	-0.000057
 698	6.9352e+01	12.2307	46.614788	0.000324	3.242957	1.098744	-0.000130
 699	6.9451e+01	12.1906	46.485599	0.000324	3.242957	1.098744	-0.000130
 700	6.9550e+01	12.1424	46.380634	0.000263	2.634903	0.892729	-0.000105
 701	6.9650e+01	12.1136	46.239334	0.000355	3.546985	1.201751	-0.000142
 702	6.9749e+01	12.0638	46.098034	0.000355	3.546985	1.201751	-0.000142
 703	6.9849e+01	12.0301	45.928475	0.000426	4.256382	1.442101	-0.000170
 704	6.9948e+01	11.9852	45.884066	0.000111	1.114767	0.377693	-0.000045
 705	7.0048e+01	11.9499	45.710469	0.000436	4.357724	1.476437	-0.000174
 706	7.0147e+01	11.9130	45.605504	0.000263	2.634903	0.892729	-0.000105
 707	7.0247e+01	11.8665	45.488427	0.000294	2.938930	0.995736	-0.000118
 708	7.0347e+01	11.8344	45.330979	0.000395	3.952354	1.339094	-0.000158
 709	7.0446e+01	11.7895	45.189679	0.000355	3.546985	1.201751	-0.000142
 710	7.0546e+01	11.7510	45.016082	0.000436	4.357724	1.476437	-0.000174
 711	7.0645e+01	11.7077	44.874782	0.000355	3.546985	1.201751	-0.000142
 712	7.0745e+01	11.6756	44.745594	0.000324	3.242957	1.098744	-0.000130
 713	7.0844e+01	11.6307	44.624480	0.000304	3.040273	1.030072	-0.000122
 714	7.0944e+01	11.5922	44.503366	0.000304	3.040273	1.030072	-0.000122
 715	7.1043e+01	11.5505	44.374177	0.000324	3.242957	1.098744	-0.000130
 716	7.1142e+01	11.5040	44.253063	0.000304	3.040273	1.030072	-0.000122
 717	7.1242e+01	11.4719	44.176358	0.000193	1.925506	0.652379	-0.000077
 718	7.1341e+01	11.4334	44.043132	0.000334	3.344300	1.133079	-0.000134
 719	7.1441e+01	11.3965	43.934130	0.000274	2.736245	0.927065	-0.000110
 720	7.1540e+01	11.3499	43.800904	0.000334	3.344300	1.133079	-0.000134
 721	7.1640e+01	11.3227	43.687864	0.000284	2.837588	0.961401	-0.000114
 722	7.1740e+01	11.2778	43.506193	0.000456	4.560409	1.545108	-0.000183
 723	7.1839e+01	11.2312	43.368931	0.000345	3.445642	1.167415	-0.000138
 724	7.1939e+01	11.1815	43.235705	0.000334	3.344300	1.133079	-0.000134
 725	7.2038e+01	11.1462	43.114591	0.000304	3.040273	1.030072	-0.000122
 726	7.2138e+01	11.1189	42.997514	0.000294	2.938930	0.995736	-0.000118
 727	7.2237e+01	11.0724	42.860252	0.000345	3.445642	1.167415	-0.000138
 728	7.2337e+01	11.0307	42.743175	0.000294	2.938930	0.995736	-0.000118
 729	7.2436e+01	10.9842	42.553429	0.000476	4.763094	1.613780	-0.000191
 730	7.2535e+01	10.9617	42.391944	0.000405	4.053697	1.373430	-0.000162
 731	7.2635e+01	10.9200	42.262755	0.000324	3.242957	1.098744	-0.000130
 732	7.2734e+01	10.8671	42.149716	0.000284	2.837588	0.961401	-0.000114
 733	7.2834e+01	10.8238	42.024564	0.000314	3.141615	1.064408	-0.000126
 734	7.2933e+01	10.8013	41.931710	0.000233	2.330876	0.789722	-0.000093
 735	7.3033e+01	10.7596	41.810596	0.000304	3.040273	1.030072	-0.000122
 736	7.3132e+01	10.7179	41.709668	0.000253	2.533560	0.858394	-0.000101
 737	7.3232e+01	10.6794	41.588554	0.000304	3.040273	1.030072	-0.000122
 738	7.3332e+01	10.6329	41.439180	0.000375	3.749670	1.270422	-0.000150
 739	7.3431e+01	10.5960	41.277694	0.000405	4.053697	1.373430	-0.000162
 740	7.3531e+01	10.5510	41.156580	0.000304	3.040273	1.030072	-0.000122
 741	7.3630e+01	10.5190	41.007206	0.000375	3.749670	1.270422	-0.000150
 742	7.3730e+01	10.4772	40.882055	0.000314	3.141615	1.064408	-0.000126
 743	7.3829e+01	10.4291	40.728644	0.000385	3.851012	1.304758	-0.000154
 744	7.3928e+01	10.3906	40.595418	0.000334	3.344300	1.133079	-0.000134
 745	7.4028e+01	10.3537	40.510639	0.000213	2.128191	0.721051	-0.000085
 746	7.4127e+01	10.3232	40.316856	0.000486	4.864436	1.648116	-0.000195
 747	7.4227e+01	10.2783	40.167482	0.000375	3.749670	1.270422	-0.000150
 748	7.4326e+01	10.2334	39.973700	0.000486	4.864436	1.648116	-0.000195
 749	7.4426e+01	10.1997	39.852585	0.000304	3.040273	1.030072	-0.000122
 750	7.4525e+01	10.1644	39.715323	0.000345	3.445642	1.167415	-0.000138
 751	7.4625e+01	10.1211	39.614394	0.000253	2.533560	0.858394	-0.000101
 752	7.4725e+01	10.0714	39.517503	0.000243	2.432218	0.824058	-0.000097
 753	7.4824e+01	10.0393	39.331795	0.000466	4.661751	1.579444	-0.000187
 754	7.4924e+01	9.9896	39.218755	0.000284	2.837588	0.961401	-0.000114
 755	7.5023e+01	9.9591	39.077455	0.000355	3.546985	1.201751	-0.000142
 756	7.5123e+01	9.9110	38.968453	0.000274	2.736245	0.927065	-0.000110
 757	7.5222e+01	9.8660	38.835227	0.000334	3.344300	1.133079	-0.000134
 758	7.5322e+01	9.8388	38.681816	0.000385	3.851012	1.304758	-0.000154
 759	7.5421e+01	9.7970	38.536479	0.000365	3.648327	1.236087	-0.000146
 760	7.5520e+01	9.7553	38.395179	0.000355	3.546985	1.201751	-0.000142
 761	7.5620e+01	9.7168	38.245805	0.000375	3.749670	1.270422	-0.000150
 762	7.5719e+01	9.6767	38.124691	0.000304	3.040273	1.030072	-0.000122
 763	7.5819e+01	9.6334	37.991466	0.000334	3.344300	1.133079	-0.000134
 764	7.5918e+01	9.6045	37.846129	0.000365	3.648327	1.236087	-0.000146
 765	7.6018e+01	9.5548	37.704829	0.000355	3.546985	1.201751	-0.000142
 766	7.6118e+01	9.5243	37.551418	0.000385	3.851012	1.304758	-0.000154
 767	7.6217e+01	9.4778	37.414155	0.000345	3.445642	1.167415	-0.000138
 768	7.6317e+01	9.4393	37.244596	0.000426	4.256382	1.442101	-0.000170
 769	7.6416e+01	9.4120	37.167890	0.000193	1.925506	0.652379	-0.000077
 770	7.6516e+01	9.3655	37.014479	0.000385	3.851012	1.304758	-0.000154
 771	7.6615e+01	9.3302	36.909513	0.000263	2.634903	0.892729	-0.000105
 772	7.6715e+01	9.2709	36.768214	0.000355	3.546985	1.201751	-0.000142
 773	7.6814e+01	9.2388	36.574431	0.000486	4.864436	1.648116	-0.000195
 774	7.6913e+01	9.2035	36.469466	0.000263	2.634903	0.892729	-0.000105
 775	7.7013e+01	9.1489	36.320092	0.000375	3.749670	1.270422	-0.000150
 776	7.7112e+01	9.1169	36.170718	0.000375	3.749670	1.270422	-0.000150
 777	7.7212e+01	9.0767	36.077864	0.000233	2.330876	0.789722	-0.000093
 778	7.7311e+01	9.0366	35.932527	0.000365	3.648327	1.236087	-0.000146
 779	7.7411e+01	8.9997	35.767004	0.000416	4.155039	1.407765	-0.000166
 780	7.7510e+01	8.9645	35.662039	0.000263	2.634903	0.892729	-0.000105
 781	7.7610e+01	8.9147	35.484405	0.000446	4.459066	1.510773	-0.000179
 782	7.7710e+01	8.8907	35.387513	0.000243	2.432218	0.824058	-0.000097
 783	7.7809e+01	8.8393	35.205842	0.000456	4.560409	1.545108	-0.000183
 784	7.7909e+01	8.8056	35.060505	0.000365	3.648327	1.236087	-0.000146
 785	7.8008e+01	8.7671	34.894983	0.000416	4.155039	1.407765	-0.000166
 786	7.8108e+01	8.7238	34.781943	0.000284	2.837588	0.961401	-0.000114
 787	7.8207e+01	8.6757	34.640643	0.000355	3.546985	1.201751	-0.000142
 788	7.8306e+01	8.6436	34.475121	0.000416	4.155039	1.407765	-0.000166
 789	7.8406e+01	8.6067	34.345932	0.000324	3.242957	1.098744	-0.000130
 790	7.8505e+01	8.5682	34.285375	0.000152	1.520136	0.515036	-0.000061
 791	7.8605e+01	8.5169	34.115816	0.000426	4.256382	1.442101	-0.000170
 792	7.8704e+01	8.4848	33.958367	0.000395	3.952354	1.339094	-0.000158
 793	7.8804e+01	8.4511	33.837253	0.000304	3.040273	1.030072	-0.000122
 794	7.8903e+01	8.4014	33.687879	0.000375	3.749670	1.270422	-0.000150
 795	7.9003e+01	8.3693	33.538505	0.000375	3.749670	1.270422	-0.000150
 796	7.9103e+01	8.3163	33.385094	0.000385	3.851012	1.304758	-0.000154
 797	7.9202e+01	8.2827	33.276091	0.000274	2.736245	0.927065	-0.000110
 798	7.9302e+01	8.2458	33.106532	0.000426	4.256382	1.442101	-0.000170
 799	7.9401e+01	8.2073	32.945046	0.000405	4.053697	1.373430	-0.000162
 800	7.9501e+01	8.1639	32.832006	0.000284	2.837588	0.961401	-0.000114
 801	7.9600e+01	8.1383	32.698781	0.000334	3.344300	1.133079	-0.000134
 802	7.9700e+01	8.0853	32.517110	0.000456	4.560409	1.545108	-0.000183
 803	7.9799e+01	8.0468	32.347550	0.000426	4.256382	1.442101	-0.000170
 804	7.9898e+01	8.0083	32.214325	0.000334	3.344300	1.133079	-0.000134
 805	7.9998e+01	7.9618	32.089173	0.000314	3.141615	1.064408	-0.000126
 806	8.0097e+01	7.9281	31.976134	0.000284	2.837588	0.961401	-0.000114
 807	8.0197e+01	7.8864	31.834834	0.000355	3.546985	1.201751	-0.000142
 808	8.0296e+01	7.8463	31.725831	0.000274	2.736245	0.927065	-0.000110
 809	8.0396e+01	7.8078	31.560309	0.000416	4.155039	1.407765	-0.000166
 810	8.0496e+01	7.7661	31.423046	0.000345	3.445642	1.167415	-0.000138
 811	8.0595e+01	7.7308	31.261561	0.000405	4.053697	1.373430	-0.000162
 812	8.0695e+01	7.6843	31.120261	0.000355	3.546985	1.201751	-0.000142
 813	8.0794e+01	7.6442	30.987035	0.000334	3.344300	1.133079	-0.000134
 814	8.0894e+01	7.6105	30.841698	0.000365	3.648327	1.236087	-0.000146
 815	8.0993e+01	7.5688	30.700399	0.000355	3.546985	1.201751	-0.000142
 816	8.1093e+01	7.5287	30.559099	0.000355	3.546985	1.201751	-0.000142
 817	8.1192e+01	7.4805	30.389539	0.000426	4.256382	1.442101	-0.000170
 818	8.1291e+01	7.4485	30.236128	0.000385	3.851012	1.304758	-0.000154
 819	8.1391e+01	7.4083	30.110977	0.000314	3.141615	1.064408	-0.000126
 820	8.1490e+01	7.3731	29.961603	0.000375	3.749670	1.270422	-0.000150
 821	8.1590e+01	7.3378	29.812229	0.000375	3.749670	1.270422	-0.000150
 822	8.1689e+01	7.2896	29.646706	0.000416	4.155039	1.407765	-0.000166
 823	8.1789e+01	7.2479	29.549815	0.000243	2.432218	0.824058	-0.000097
 824	8.1888e+01	7.2078	29.400441	0.000375	3.749670	1.270422	-0.000150
 825	8.1988e+01	7.1645	29.255104	0.000365	3.648327	1.236087	-0.000146
 826	8.2088e+01	7.1356	29.129953	0.000314	3.141615	1.064408	-0.000126
 827	8.2187e+01	7.0843	28.968467	0.000405	4.053697	1.373430	-0.000162
 828	8.2287e+01	7.0538	28.827168	0.000355	3.546985	1.201751	-0.000142
 829	8.2386e+01	7.0073	28.726239	0.000253	2.533560	0.858394	-0.000101
 830	8.2486e+01	6.9704	28.548605	0.000446	4.459066	1.510773	-0.000179
 831	8.2585e+01	6.9415	28.411343	0.000345	3.445642	1.167415	-0.000138
 832	8.2684e+01	6.8854	28.278117	0.000334	3.344300	1.133079	-0.000134
 833	8.2784e+01	6.8517	28.140855	0.000345	3.445642	1.167415	-0.000138
 834	8.2883e+01	6.8068	28.007629	0.000334	3.344300	1.133079	-0.000134
 835	8.2983e+01	6.7715	27.874404	0.000334	3.344300	1.133079	-0.000134
 836	8.3082e+01	6.7249	27.676584	0.000497	4.965779	1.682451	-0.000199
 837	8.3182e+01	6.6929	27.591804	0.000213	2.128191	0.721051	-0.000085
 838	8.3281e+01	6.6495	27.446467	0.000365	3.648327	1.236087	-0.000146
 839	8.3381e+01	6.6110	27.272870	0.000436	4.357724	1.476437	-0.000174
 840	8.3481e+01	6.5725	27.163868	0.000274	2.736245	0.927065	-0.000110
 841	8.3580e+01	6.5308	26.998345	0.000416	4.155039	1.407765	-0.000166
 842	8.3680e+01	6.4939	26.861083	0.000345	3.445642	1.167415	-0.000138
 843	8.3779e+01	6.4522	26.703634	0.000395	3.952354	1.339094	-0.000158
 844	8.3879e+01	6.4153	26.566372	0.000345	3.445642	1.167415	-0.000138
 845	8.3978e+01	6.3736	26.412961	0.000385	3.851012	1.304758	-0.000154
 846	8.4078e+01	6.3367	26.287809	0.000314	3.141615	1.064408	-0.000126
 847	8.4177e+01	6.2870	26.146510	0.000355	3.546985	1.201751	-0.000142
 848	8.4276e+01	6.2565	26.001173	0.000365	3.648327	1.236087	-0.000146
 849	8.4376e+01	6.2036	25.888133	0.000284	2.837588	0.961401	-0.000114
 850	8.4475e+01	6.1699	25.726647	0.000405	4.053697	1.373430	-0.000162
 851	8.4575e+01	6.1314	25.593422	0.000334	3.344300	1.133079	-0.000134
 852	8.4674e+01	6.0993	25.395602	0.000497	4.965779	1.682451	-0.000199
 853	8.4774e+01	6.0592	25.278525	0.000294	2.938930	0.995736	-0.000118
 854	8.4874e+01	6.0095	25.129151	0.000375	3.749670	1.270422	-0.000150
 855	8.4973e+01	5.9661	24.991889	0.000345	3.445642	1.167415	-0.000138
 856	8.5073e+01	5.9357	24.842515	0.000375	3.749670	1.270422	-0.000150
 857	8.5172e+01	5.8940	24.729475	0.000284	2.837588	0.961401	-0.000114
 858	8.5272e+01	5.8490	24.563952	0.000416	4.155039	1.407765	-0.000166
 859	8.5371e+01	5.8169	24.442838	0.000304	3.040273	1.030072	-0.000122
 860	8.5471e+01	5.7801	24.297501	0.000365	3.648327	1.236087	-0.000146
 861	8.5570e+01	5.7335	24.148127	0.000375	3.749670	1.270422	-0.000150
 862	8.5669e+01	5.6950	23.962419	0.000466	4.661751	1.579444	-0.000187
 863	8.5769e+01	5.6453	23.809008	0.000385	3.851012	1.304758	-0.000154
 864	8.5868e+01	5.6148	23.691931	0.000294	2.938930	0.995736	-0.000118
 865	8.5968e+01	5.5763	23.530446	0.000405	4.053697	1.373430	-0.000162
 866	8.6067e+01	5.5346	23.393183	0.000345	3.445642	1.167415	-0.000138
 867	8.6167e+01	5.4977	23.223623	0.000426	4.256382	1.442101	-0.000170
 868	8.6266e+01	5.4576	23.098472	0.000314	3.141615	1.064408	-0.000126
 869	8.6366e+01	5.4143	22.936987	0.000405	4.053697	1.373430	-0.000162
 870	8.6466e+01	5.3694	22.836058	0.000253	2.533560	0.858394	-0.000101
 871	8.6565e+01	5.3421	22.666499	0.000426	4.256382	1.442101	-0.000170
 872	8.6665e+01	5.3004	22.505013	0.000405	4.053697	1.373430	-0.000162
 873	8.6764e+01	5.2587	22.383899	0.000304	3.040273	1.030072	-0.000122
 874	8.6864e+01	5.2122	22.198191	0.000466	4.661751	1.579444	-0.000187
 875	8.6963e+01	5.1704	22.117448	0.000203	2.026848	0.686715	-0.000081
 876	8.7063e+01	5.1319	21.960000	0.000395	3.952354	1.339094	-0.000158
 877	8.7162e+01	5.0966	21.778329	0.000456	4.560409	1.545108	-0.000183
 878	8.7261e+01	5.0662	21.685475	0.000233	2.330876	0.789722	-0.000093
 879	8.7361e+01	5.0148	21.499766	0.000466	4.661751	1.579444	-0.000187
 880	8.7460e+01	4.9876	21.334244	0.000416	4.155039	1.407765	-0.000166
 881	8.7560e+01	4.9330	21.229278	0.000263	2.634903	0.892729	-0.000105
 882	8.7659e+01	4.8977	21.067793	0.000405	4.053697	1.373430	-0.000162
 883	8.7759e+01	4.8560	20.898233	0.000426	4.256382	1.442101	-0.000170
 884	8.7859e+01	4.8191	20.760971	0.000345	3.445642	1.167415	-0.000138
 885	8.7958e+01	4.7710	20.607559	0.000385	3.851012	1.304758	-0.000154
 886	8.8058e+01	4.7357	20.498557	0.000274	2.736245	0.927065	-0.000110
 887	8.8157e+01	4.7004	20.341108	0.000395	3.952354	1.339094	-0.000158
 888	8.8257e+01	4.6683	20.155400	0.000466	4.661751	1.579444	-0.000187
 889	8.8356e+01	4.6202	20.022175	0.000334	3.344300	1.133079	-0.000134
 890	8.8456e+01	4.5737	19.888949	0.000334	3.344300	1.133079	-0.000134
 891	8.8555e+01	4.5416	19.739575	0.000375	3.749670	1.270422	-0.000150
 892	8.8654e+01	4.5015	19.614424	0.000314	3.141615	1.064408	-0.000126
 893	8.8754e+01	4.4582	19.493310	0.000304	3.040273	1.030072	-0.000122
 894	8.8853e+01	4.4277	19.319713	0.000436	4.357724	1.476437	-0.000174
 895	8.8953e+01	4.3812	19.190525	0.000324	3.242957	1.098744	-0.000130
 896	8.9052e+01	4.3491	19.061336	0.000324	3.242957	1.098744	-0.000130
 897	8.9152e+01	4.3026	18.924074	0.000345	3.445642	1.167415	-0.000138
 898	8.9251e+01	4.2641	18.730291	0.000486	4.864436	1.648116	-0.000195
 899	8.9351e+01	4.2159	18.552657	0.000446	4.459066	1.510773	-0.000179
 900	8.9451e+01	4.1790	18.387135	0.000416	4.155039	1.407765	-0.000166
 901	8.9550e+01	4.1405	18.266021	0.000304	3.040273	1.030072	-0.000122
 902	8.9650e+01	4.1004	18.112609	0.000385	3.851012	1.304758	-0.000154
 903	8.9749e+01	4.0571	18.007644	0.000263	2.634903	0.892729	-0.000105
 904	8.9849e+01	4.0218	17.850196	0.000395	3.952354	1.339094	-0.000158
 905	8.9948e+01	3.9817	17.684673	0.000416	4.155039	1.407765	-0.000166
 906	9.0047e+01	3.9416	17.543373	0.000355	3.546985	1.201751	-0.000142
 907	9.0147e+01	3.8999	17.385925	0.000395	3.952354	1.339094	-0.000158
 908	9.0246e+01	3.8566	17.268848	0.000294	2.938930	0.995736	-0.000118
 909	9.0346e+01	3.8181	17.083140	0.000466	4.661751	1.579444	-0.000187
 910	9.0445e+01	3.7812	16.937803	0.000365	3.648327	1.236087	-0.000146
 911	9.0545e+01	3.7459	16.768243	0.000426	4.256382	1.442101	-0.000170
 912	9.0644e+01	3.6945	16.639055	0.000324	3.242957	1.098744	-0.000130
 913	9.0744e+01	3.6641	16.534089	0.000263	2.634903	0.892729	-0.000105
 914	9.0844e+01	3.6224	16.384715	0.000375	3.749670	1.270422	-0.000150
 915	9.0943e+01	3.5871	16.211119	0.000436	4.357724	1.476437	-0.000174
 916	9.1043e+01	3.5550	16.049633	0.000405	4.053697	1.373430	-0.000162
 917	9.1142e+01	3.5117	15.880073	0.000426	4.256382	1.442101	-0.000170
 918	9.1242e+01	3.4667	15.742811	0.000345	3.445642	1.167415	-0.000138
 919	9.1341e+01	3.4202	15.613622	0.000324	3.242957	1.098744	-0.000130
 920	9.1441e+01	3.3817	15.415803	0.000497	4.965779	1.682451	-0.000199
 921	9.1540e+01	3.3448	15.274503	0.000355	3.546985	1.201751	-0.000142
 922	9.1639e+01	3.2983	15.096869	0.000446	4.459066	1.510773	-0.000179
 923	9.1739e+01	3.2678	14.983829	0.000284	2.837588	0.961401	-0.000114
 924	9.1838e+01	3.2341	14.878864	0.000263	2.634903	0.892729	-0.000105
 925	9.1938e+01	3.1828	14.652784	0.000568	5.675175	1.922802	-0.000227
 926	9.2037e+01	3.1539	14.519559	0.000334	3.344300	1.133079	-0.000134
 927	9.2137e+01	3.1090	14.378259	0.000355	3.546985	1.201751	-0.000142
 928	9.2237e+01	3.0593	14.204662	0.000436	4.357724	1.476437	-0.000174
 929	9.2336e+01	3.0256	14.047214	0.000395	3.952354	1.339094	-0.000158
 930	9.2436e+01	2.9823	13.913988	0.000334	3.344300	1.133079	-0.000134
 931	9.2535e+01	2.9518	13.857468	0.000142	1.418794	0.480700	-0.000057
 932	9.2635e+01	2.9101	13.708094	0.000375	3.749670	1.270422	-0.000150
 933	9.2734e+01	2.8764	13.526423	0.000456	4.560409	1.545108	-0.000183
 934	9.2834e+01	2.8299	13.356864	0.000426	4.256382	1.442101	-0.000170
 935	9.2933e+01	2.7962	13.231712	0.000314	3.141615	1.064408	-0.000126
 936	9.3032e+01	2.7513	13.021781	0.000527	5.269806	1.785459	-0.000211
 937	9.3132e+01	2.7063	12.872407	0.000375	3.749670	1.270422	-0.000150
 938	9.3231e+01	2.6598	12.714959	0.000395	3.952354	1.339094	-0.000158
 939	9.3331e+01	2.6245	12.581734	0.000334	3.344300	1.133079	-0.000134
 940	9.3430e+01	2.5940	12.408137	0.000436	4.357724	1.476437	-0.000174
 941	9.3530e+01	2.5475	12.262800	0.000365	3.648327	1.236087	-0.000146
 942	9.3629e+01	2.5090	12.129574	0.000334	3.344300	1.133079	-0.000134
 943	9.3729e+01	2.4689	11.939829	0.000476	4.763094	1.613780	-0.000191
 944	9.3829e+01	2.4336	11.814678	0.000314	3.141615	1.064408	-0.000126
 945	9.3928e+01	2.3759	11.665304	0.000375	3.749670	1.270422	-0.000150
 946	9.4028e+01	2.3518	11.548227	0.000294	2.938930	0.995736	-0.000118
 947	9.4127e+01	2.3101	11.398853	0.000375	3.749670	1.270422	-0.000150
 948	9.4227e+01	2.2684	11.245442	0.000385	3.851012	1.304758	-0.000154
 949	9.4326e+01	2.2379	11.144513	0.000253	2.533560	0.858394	-0.000101
 950	9.4425e+01	2.1962	10.991102	0.000385	3.851012	1.304758	-0.000154
 951	9.4525e+01	2.1449	10.837691	0.000385	3.851012	1.304758	-0.000154
 952	9.4624e+01	2.1096	10.660057	0.000446	4.459066	1.510773	-0.000179
 953	9.4724e+01	2.0614	10.502609	0.000395	3.952354	1.339094	-0.000158
 954	9.4823e+01	2.0197	10.316900	0.000466	4.661751	1.579444	-0.000187
 955	9.4923e+01	1.9909	10.199823	0.000294	2.938930	0.995736	-0.000118
 956	9.5022e+01	1.9475	9.953558	0.000618	6.181888	2.094480	-0.000248
 957	9.5122e+01	1.9106	9.905113	0.000122	1.216109	0.412029	-0.000049
 958	9.5222e+01	1.8737	9.703256	0.000507	5.067121	1.716787	-0.000203
 959	9.5321e+01	1.8368	9.570030	0.000334	3.344300	1.133079	-0.000134
 960	9.5421e+01	1.7855	9.408545	0.000405	4.053697	1.373430	-0.000162
 961	9.5520e+01	1.7598	9.279356	0.000324	3.242957	1.098744	-0.000130
 962	9.5620e+01	1.7085	9.142094	0.000345	3.445642	1.167415	-0.000138
 963	9.5719e+01	1.6716	8.968497	0.000436	4.357724	1.476437	-0.000174
 964	9.5819e+01	1.6299	8.823160	0.000365	3.648327	1.236087	-0.000146
 965	9.5918e+01	1.5850	8.669749	0.000385	3.851012	1.304758	-0.000154
 966	9.6017e+01	1.5529	8.528449	0.000355	3.546985	1.201751	-0.000142
 967	9.6117e+01	1.5032	8.399261	0.000324	3.242957	1.098744	-0.000130
 968	9.6216e+01	1.4727	8.266035	0.000334	3.344300	1.133079	-0.000134
 969	9.6316e+01	1.4278	8.128773	0.000345	3.445642	1.167415	-0.000138
 970	9.6415e+01	1.3909	7.939027	0.000476	4.763094	1.613780	-0.000191
 971	9.6515e+01	1.3524	7.777542	0.000405	4.053697	1.373430	-0.000162
 972	9.6615e+01	1.3123	7.616057	0.000405	4.053697	1.373430	-0.000162
 973	9.6714e+01	1.2754	7.466683	0.000375	3.749670	1.270422	-0.000150
 974	9.6814e+01	1.2337	7.321346	0.000365	3.648327	1.236087	-0.000146
 975	9.6913e+01	1.1952	7.139675	0.000456	4.560409	1.545108	-0.000183
 976	9.7013e+01	1.1567	6.986263	0.000385	3.851012	1.304758	-0.000154
 977	9.7112e+01	1.1198	6.865149	0.000304	3.040273	1.030072	-0.000122
 978	9.7212e+01	1.0716	6.679441	0.000466	4.661751	1.579444	-0.000187
 979	9.7311e+01	1.0331	6.550253	0.000324	3.242957	1.098744	-0.000130
 980	9.7410e+01	0.9898	6.417027	0.000334	3.344300	1.133079	-0.000134
 981	9.7510e+01	0.9545	6.251505	0.000416	4.155039	1.407765	-0.000166
 982	9.7609e+01	0.9128	6.085982	0.000416	4.155039	1.407765	-0.000166
 983	9.7709e+01	0.8807	5.952757	0.000334	3.344300	1.133079	-0.000134
 984	9.7808e+01	0.8374	5.783197	0.000426	4.256382	1.442101	-0.000170
 985	9.7908e+01	0.7909	5.666120	0.000294	2.938930	0.995736	-0.000118
 986	9.8007e+01	0.7588	5.528857	0.000345	3.445642	1.167415	-0.000138
 987	9.8107e+01	0.7107	5.387558	0.000355	3.546985	1.201751	-0.000142
 988	9.8207e+01	0.6754	5.226072	0.000405	4.053697	1.373430	-0.000162
 989	9.8306e+01	0.6369	5.036327	0.000476	4.763094	1.613780	-0.000191
 990	9.8406e+01	0.6016	4.874841	0.000405	4.053697	1.373430	-0.000162
 991	9.8505e+01	0.5583	4.705282	0.000426	4.256382	1.442101	-0.000170
 992	9.8605e+01	0.5150	4.584168	0.000304	3.040273	1.030072	-0.000122
 993	9.8704e+01	0.4700	4.434794	0.000375	3.749670	1.270422	-0.000150
 994	9.8803e+01	0.4396	4.253123	0.000456	4.560409	1.545108	-0.000183
 995	9.8903e+01	0.3914	4.136046	0.000294	2.938930	0.995736	-0.000118
 996	9.9002e+01	0.3593	3.998783	0.000345	3.445642	1.167415	-0.000138
 997	9.9102e+01	0.3144	3.865557	0.000334	3.344300	1.133079	-0.000134
 998	9.9201e+01	0.2743	3.667738	0.000497	4.965779	1.682451	-0.000199
 999	9.9301e+01	0.2310	3.574884	0.000233	2.330876	0.789722	-0.000093
1000	9.9400e+01	0.2053	3.401287	0.000436	4.357724	1.476437	-0.000174
1001	9.9500e+01	0.1588	3.235764	0.000416	4.155039	1.407765	-0.000166
1002	9.9600e+01	0.1171	3.114650	0.000304	3.040273	1.030072	-0.000122
1003	9.9699e+01	0.0754	2.993536	0.000304	3.040273	1.030072	-0.000122
1004	9.9799e+01	0.0289	2.828014	0.000416	4.155039	1.407765	-0.000166
1005	9.9898e+01	0.0000	2.719011	0.000274	2.736245	0.927065	-0.000110
1006	9.9998e+01	-0.0353	2.605971	0.000284	2.837588	0.961401	-0.000114
1007	1.0010e+02	-0.0722	2.412189	0.000486	4.864436	1.648116	-0.000195
1008	1.0020e+02	-0.1171	2.258777	0.000385	3.851012	1.304758	-0.000154
1009	1.0030e+02	-0.1588	2.077106	0.000456	4.560409	1.545108	-0.000183
1010	1.0040e+02	-0.1957	1.911584	0.000416	4.155039	1.407765	-0.000166
1011	1.0050e+02	-0.2406	1.798544	0.000284	2.837588	0.961401	-0.000114
1012	1.0059e+02	-0.2823	1.612836	0.000466	4.661751	1.579444	-0.000187
1013	1.0069e+02	-0.3048	1.491722	0.000304	3.040273	1.030072	-0.000122
1014	1.0079e+02	-0.3481	1.342348	0.000375	3.749670	1.270422	-0.000150
1015	1.0089e+02	-0.3898	1.213159	0.000324	3.242957	1.098744	-0.000130
1016	1.0099e+02	-0.4347	1.031488	0.000456	4.560409	1.545108	-0.000183
1017	1.0109e+02	-0.4797	0.870003	0.000405	4.053697	1.373430	-0.000162
1018	1.0119e+02	-0.5118	0.740814	0.000324	3.242957	1.098744	-0.000130
1019	1.0129e+02	-0.5535	0.603552	0.000345	3.445642	1.167415	-0.000138
1020	1.0139e+02	-0.6016	0.450141	0.000385	3.851012	1.304758	-0.000154
1021	1.0149e+02	-0.6240	0.308841	0.000355	3.546985	1.201751	-0.000142
1022	1.0159e+02	-0.6770	0.135244	0.000436	4.357724	1.476437	-0.000174
1023	1.0169e+02	-0.7027	0.022204	0.000284	2.837588	0.961401	-0.000114
1024	1.0179e+02	-0.7508	-0.106984	0.000324	3.242957	1.098744	-0.000130
1025	1.0189e+02	-0.7909	-0.240210	0.000334	3.344300	1.133079	-0.000134
1026	1.0199e+02	-0.8230	-0.405732	0.000416	4.155039	1.407765	-0.000166
1027	1.0209e+02	-0.8727	-0.587403	0.000456	4.560409	1.545108	-0.000183
1028	1.0219e+02	-0.9160	-0.773111	0.000466	4.661751	1.579444	-0.000187
1029	1.0229e+02	-0.9545	-0.906337	0.000334	3.344300	1.133079	-0.000134
1030	1.0239e+02	-0.9898	-1.067822	0.000405	4.053697	1.373430	-0.000162
1031	1.0248e+02	-1.0299	-1.197011	0.000324	3.242957	1.098744	-0.000130
1032	1.0258e+02	-1.0732	-1.398868	0.000507	5.067121	1.716787	-0.000203
1033	1.0268e+02	-1.1085	-1.528056	0.000324	3.242957	1.098744	-0.000130
1034	1.0278e+02	-1.1502	-1.653207	0.000314	3.141615	1.064408	-0.000126
1035	1.0288e+02	-1.1952	-1.818730	0.000416	4.155039	1.407765	-0.000166
1036	1.0298e+02	-1.2288	-1.960029	0.000355	3.546985	1.201751	-0.000142
1037	1.0308e+02	-1.2689	-2.129589	0.000426	4.256382	1.442101	-0.000170
1038	1.0318e+02	-1.3107	-2.262815	0.000334	3.344300	1.133079	-0.000134
1039	1.0328e+02	-1.3620	-2.371817	0.000274	2.736245	0.927065	-0.000110
1040	1.0338e+02	-1.3925	-2.513117	0.000355	3.546985	1.201751	-0.000142
1041	1.0348e+02	-1.4294	-2.702862	0.000476	4.763094	1.613780	-0.000191
1042	1.0358e+02	-1.4775	-2.844162	0.000355	3.546985	1.201751	-0.000142
1043	1.0368e+02	-1.5080	-2.941053	0.000243	2.432218	0.824058	-0.000097
1044	1.0378e+02	-1.5545	-3.102539	0.000405	4.053697	1.373430	-0.000162
1045	1.0388e+02	-1.5914	-3.300358	0.000497	4.965779	1.682451	-0.000199
1046	1.0398e+02	-1.6299	-3.433584	0.000334	3.344300	1.133079	-0.000134
1047	1.0408e+02	-1.6684	-3.615255	0.000456	4.560409	1.545108	-0.000183
1048	1.0418e+02	-1.7037	-3.740406	0.000314	3.141615	1.064408	-0.000126
1049	1.0428e+02	-1.7486	-3.918040	0.000446	4.459066	1.510773	-0.000179
1050	1.0438e+02	-1.7823	-4.051266	0.000334	3.344300	1.133079	-0.000134
1051	1.0447e+02	-1.8256	-4.184491	0.000334	3.344300	1.133079	-0.000134
1052	1.0457e+02	-1.8737	-4.394422	0.000527	5.269806	1.785459	-0.000211
1053	1.0467e+02	-1.9026	-4.527648	0.000334	3.344300	1.133079	-0.000134
1054	1.0477e+02	-1.9491	-4.689133	0.000405	4.053697	1.373430	-0.000162
1055	1.0487e+02	-1.9941	-4.790062	0.000253	2.533560	0.858394	-0.000101
1056	1.0497e+02	-2.0245	-4.951547	0.000405	4.053697	1.373430	-0.000162
1057	1.0507e+02	-2.0679	-5.145329	0.000486	4.864436	1.648116	-0.000195
1058	1.0517e+02	-2.0999	-5.254332	0.000274	2.736245	0.927065	-0.000110
1059	1.0527e+02	-2.1497	-5.411780	0.000395	3.952354	1.339094	-0.000158
1060	1.0537e+02	-2.1818	-5.516746	0.000263	2.634903	0.892729	-0.000105
1061	1.0547e+02	-2.2283	-5.633823	0.000294	2.938930	0.995736	-0.000118
1062	1.0557e+02	-2.2716	-5.835680	0.000507	5.067121	1.716787	-0.000203
1063	1.0567e+02	-2.3085	-5.997165	0.000405	4.053697	1.373430	-0.000162
1064	1.0577e+02	-2.3518	-6.130391	0.000334	3.344300	1.133079	-0.000134
1065	1.0587e+02	-2.3919	-6.308025	0.000446	4.459066	1.510773	-0.000179
1066	1.0597e+02	-2.4176	-6.421064	0.000284	2.837588	0.961401	-0.000114
1067	1.0607e+02	-2.4721	-6.602735	0.000456	4.560409	1.545108	-0.000183
1068	1.0617e+02	-2.5170	-6.739998	0.000345	3.445642	1.167415	-0.000138
1069	1.0627e+02	-2.5411	-6.877261	0.000345	3.445642	1.167415	-0.000138
1070	1.0637e+02	-2.5860	-7.030672	0.000385	3.851012	1.304758	-0.000154
1071	1.0647e+02	-2.6277	-7.176009	0.000365	3.648327	1.236087	-0.000146
1072	1.0656e+02	-2.6662	-7.357680	0.000456	4.560409	1.545108	-0.000183
1073	1.0666e+02	-2.7079	-7.474757	0.000294	2.938930	0.995736	-0.000118
1074	1.0676e+02	-2.7448	-7.632205	0.000395	3.952354	1.339094	-0.000158
1075	1.0686e+02	-2.7801	-7.785616	0.000385	3.851012	1.304758	-0.000154
1076	1.0696e+02	-2.8315	-7.951139	0.000416	4.155039	1.407765	-0.000166
1077	1.0706e+02	-2.8620	-8.056104	0.000263	2.634903	0.892729	-0.000105
1078	1.0716e+02	-2.9021	-8.245850	0.000476	4.763094	1.613780	-0.000191
1079	1.0726e+02	-2.9470	-8.371001	0.000314	3.141615	1.064408	-0.000126
1080	1.0736e+02	-2.9855	-8.524412	0.000385	3.851012	1.304758	-0.000154
1081	1.0746e+02	-3.0256	-8.710120	0.000466	4.661751	1.579444	-0.000187
1082	1.0756e+02	-3.0529	-8.823160	0.000284	2.837588	0.961401	-0.000114
1083	1.0766e+02	-3.0962	-9.008868	0.000466	4.661751	1.579444	-0.000187
1084	1.0776e+02	-3.1395	-9.117871	0.000274	2.736245	0.927065	-0.000110
1085	1.0786e+02	-3.1844	-9.339914	0.000557	5.573833	1.888466	-0.000223
1086	1.0796e+02	-3.2261	-9.444879	0.000263	2.634903	0.892729	-0.000105
1087	1.0806e+02	-3.2582	-9.634624	0.000476	4.763094	1.613780	-0.000191
1088	1.0816e+02	-3.3079	-9.739590	0.000263	2.634903	0.892729	-0.000105
1089	1.0826e+02	-3.3400	-9.884927	0.000365	3.648327	1.236087	-0.000146
1090	1.0836e+02	-3.3817	-10.054487	0.000426	4.256382	1.442101	-0.000170
1091	1.0845e+02	-3.4234	-10.215972	0.000405	4.053697	1.373430	-0.000162
1092	1.0855e+02	-3.4700	-10.349197	0.000334	3.344300	1.133079	-0.000134
1093	1.0865e+02	-3.5101	-10.498571	0.000375	3.749670	1.270422	-0.000150
1094	1.0875e+02	-3.5357	-10.676205	0.000446	4.459066	1.510773	-0.000179
1095	1.0885e+02	-3.5855	-10.821542	0.000365	3.648327	1.236087	-0.000146
1096	1.0895e+02	-3.6175	-10.978991	0.000395	3.952354	1.339094	-0.000158
1097	1.0905e+02	-3.6641	-11.112216	0.000334	3.344300	1.133079	-0.000134
1098	1.0915e+02	-3.6849	-11.269664	0.000395	3.952354	1.339094	-0.000158
1099	1.0925e+02	-3.7395	-11.402890	0.000334	3.344300	1.133079	-0.000134
1100	1.0935e+02	-3.7699	-11.580524	0.000446	4.459066	1.510773	-0.000179
1101	1.0945e+02	-3.8181	-11.717786	0.000345	3.445642	1.167415	-0.000138
1102	1.0955e+02	-3.8630	-11.867161	0.000375	3.749670	1.270422	-0.000150
1103	1.0965e+02	-3.8999	-12.012497	0.000365	3.648327	1.236087	-0.000146
1104	1.0975e+02	-3.9480	-12.157834	0.000365	3.648327	1.236087	-0.000146
1105	1.0985e+02	-3.9833	-12.319320	0.000405	4.053697	1.373430	-0.000162
1106	1.0995e+02	-4.0234	-12.424285	0.000263	2.634903	0.892729	-0.000105
1107	1.1005e+02	-4.0603	-12.622105	0.000497	4.965779	1.682451	-0.000199
1108	1.1015e+02	-4.1068	-12.714959	0.000233	2.330876	0.789722	-0.000093
1109	1.1025e+02	-4.1437	-12.896630	0.000456	4.560409	1.545108	-0.000183
1110	1.1035e+02	-4.1838	-13.070227	0.000436	4.357724	1.476437	-0.000174
1111	1.1044e+02	-4.2239	-13.211527	0.000355	3.546985	1.201751	-0.000142
1112	1.1054e+02	-4.2576	-13.344752	0.000334	3.344300	1.133079	-0.000134
1113	1.1064e+02	-4.3074	-13.498163	0.000385	3.851012	1.304758	-0.000154
1114	1.1074e+02	-4.3362	-13.639463	0.000355	3.546985	1.201751	-0.000142
1115	1.1084e+02	-4.3780	-13.813060	0.000436	4.357724	1.476437	-0.000174
1116	1.1094e+02	-4.4213	-13.942248	0.000324	3.242957	1.098744	-0.000130
1117	1.1104e+02	-4.4566	-14.103734	0.000405	4.053697	1.373430	-0.000162
1118	1.1114e+02	-4.4967	-14.265219	0.000405	4.053697	1.373430	-0.000162
1119	1.1124e+02	-4.5287	-14.382296	0.000294	2.938930	0.995736	-0.000118
1120	1.1134e+02	-4.5753	-14.592227	0.000527	5.269806	1.785459	-0.000211
1121	1.1144e+02	-4.6170	-14.664896	0.000182	1.824164	0.618043	-0.000073
1122	1.1154e+02	-4.6619	-14.818307	0.000385	3.851012	1.304758	-0.000154
1123	1.1164e+02	-4.7020	-15.012089	0.000486	4.864436	1.648116	-0.000195
1124	1.1174e+02	-4.7309	-15.153389	0.000355	3.546985	1.201751	-0.000142
1125	1.1184e+02	-4.7774	-15.294689	0.000355	3.546985	1.201751	-0.000142
1126	1.1194e+02	-4.8127	-15.419840	0.000314	3.141615	1.064408	-0.000126
1127	1.1204e+02	-4.8608	-15.597474	0.000446	4.459066	1.510773	-0.000179
1128	1.1214e+02	-4.8961	-15.718588	0.000304	3.040273	1.030072	-0.000122
1129	1.1224e+02	-4.9394	-15.900259	0.000456	4.560409	1.545108	-0.000183
1130	1.1234e+02	-4.9811	-16.017336	0.000294	2.938930	0.995736	-0.000118
1131	1.1244e+02	-5.0245	-16.174784	0.000395	3.952354	1.339094	-0.000158
1132	1.1253e+02	-5.0646	-16.352418	0.000446	4.459066	1.510773	-0.000179
1133	1.1263e+02	-5.0983	-16.425087	0.000182	1.824164	0.618043	-0.000073
1134	1.1273e+02	-5.1271	-16.578498	0.000385	3.851012	1.304758	-0.000154
1135	1.1283e+02	-5.1817	-16.748058	0.000426	4.256382	1.442101	-0.000170
1136	1.1293e+02	-5.2154	-16.905506	0.000395	3.952354	1.339094	-0.000158
1137	1.1303e+02	-5.2555	-17.071028	0.000416	4.155039	1.407765	-0.000166
1138	1.1313e+02	-5.2972	-17.220402	0.000375	3.749670	1.270422	-0.000150
1139	1.1323e+02	-5.3357	-17.345554	0.000314	3.141615	1.064408	-0.000126
1140	1.1333e+02	-5.3710	-17.511076	0.000416	4.155039	1.407765	-0.000166
1141	1.1343e+02	-5.4175	-17.660450	0.000375	3.749670	1.270422	-0.000150
1142	1.1353e+02	-5.4608	-17.801750	0.000355	3.546985	1.201751	-0.000142
1143	1.1363e+02	-5.4945	-17.955161	0.000385	3.851012	1.304758	-0.000154
1144	1.1373e+02	-5.5330	-18.108572	0.000385	3.851012	1.304758	-0.000154
1145	1.1383e+02	-5.5715	-18.241798	0.000334	3.344300	1.133079	-0.000134
1146	1.1393e+02	-5.6196	-18.451729	0.000527	5.269806	1.785459	-0.000211
1147	1.1403e+02	-5.6597	-18.528434	0.000193	1.925506	0.652379	-0.000077
1148	1.1413e+02	-5.6934	-18.673771	0.000365	3.648327	1.236087	-0.000146
1149	1.1423e+02	-5.7464	-18.847368	0.000436	4.357724	1.476437	-0.000174
1150	1.1433e+02	-5.7704	-18.988668	0.000355	3.546985	1.201751	-0.000142
1151	1.1442e+02	-5.8073	-19.097671	0.000274	2.736245	0.927065	-0.000110
1152	1.1452e+02	-5.8538	-19.238970	0.000355	3.546985	1.201751	-0.000142
1153	1.1462e+02	-5.8923	-19.412567	0.000436	4.357724	1.476437	-0.000174
1154	1.1472e+02	-5.9292	-19.541756	0.000324	3.242957	1.098744	-0.000130
1155	1.1482e+02	-5.9694	-19.747649	0.000517	5.168463	1.751123	-0.000207
1156	1.1492e+02	-6.0127	-19.840504	0.000233	2.330876	0.789722	-0.000093
1157	1.1502e+02	-6.0512	-20.046398	0.000517	5.168463	1.751123	-0.000207
1158	1.1512e+02	-6.0913	-20.151363	0.000263	2.634903	0.892729	-0.000105
1159	1.1522e+02	-6.1330	-20.284589	0.000334	3.344300	1.133079	-0.000134
1160	1.1532e+02	-6.1651	-20.470297	0.000466	4.661751	1.579444	-0.000187
1161	1.1542e+02	-6.2132	-20.587374	0.000294	2.938930	0.995736	-0.000118
1162	1.1552e+02	-6.2581	-20.732711	0.000365	3.648327	1.236087	-0.000146
1163	1.1562e+02	-6.2934	-20.861899	0.000324	3.242957	1.098744	-0.000130
1164	1.1572e+02	-6.3271	-21.003199	0.000355	3.546985	1.201751	-0.000142
1165	1.1582e+02	-6.3768	-21.205055	0.000507	5.067121	1.716787	-0.000203
1166	1.1592e+02	-6.4201	-21.314058	0.000274	2.736245	0.927065	-0.000110
1167	1.1602e+02	-6.4506	-21.414987	0.000253	2.533560	0.858394	-0.000101
1168	1.1612e+02	-6.4827	-21.552249	0.000345	3.445642	1.167415	-0.000138
1169	1.1622e+02	-6.5340	-21.653178	0.000253	2.533560	0.858394	-0.000101
1170	1.1632e+02	-6.5758	-21.814663	0.000405	4.053697	1.373430	-0.000162
1171	1.1642e+02	-6.6030	-21.996334	0.000456	4.560409	1.545108	-0.000183
1172	1.1651e+02	-6.6528	-22.149745	0.000385	3.851012	1.304758	-0.000154
1173	1.1661e+02	-6.6816	-22.274896	0.000314	3.141615	1.064408	-0.000126
1174	1.1671e+02	-6.7233	-22.383899	0.000274	2.736245	0.927065	-0.000110
1175	1.1681e+02	-6.7699	-22.553459	0.000426	4.256382	1.442101	-0.000170
1176	1.1691e+02	-6.8052	-22.727056	0.000436	4.357724	1.476437	-0.000174
1177	1.1701e+02	-6.8421	-22.856244	0.000324	3.242957	1.098744	-0.000130
1178	1.1711e+02	-6.8918	-23.017729	0.000405	4.053697	1.373430	-0.000162
1179	1.1721e+02	-6.9303	-23.126732	0.000274	2.736245	0.927065	-0.000110
1180	1.1731e+02	-6.9672	-23.268032	0.000355	3.546985	1.201751	-0.000142
1181	1.1741e+02	-7.0041	-23.409332	0.000355	3.546985	1.201751	-0.000142
1182	1.1751e+02	-7.0442	-23.562743	0.000385	3.851012	1.304758	-0.000154
1183	1.1761e+02	-7.0811	-23.708080	0.000365	3.648327	1.236087	-0.000146
1184	1.1771e+02	-7.1212	-23.849379	0.000355	3.546985	1.201751	-0.000142
1185	1.1781e+02	-7.1661	-24.002791	0.000385	3.851012	1.304758	-0.000154
1186	1.1791e+02	-7.2046	-24.127942	0.000314	3.141615	1.064408	-0.000126
1187	1.1801e+02	-7.2479	-24.265204	0.000345	3.445642	1.167415	-0.000138
1188	1.1811e+02	-7.2800	-24.438801	0.000436	4.357724	1.476437	-0.000174
1189	1.1821e+02	-7.3281	-24.555878	0.000294	2.938930	0.995736	-0.000118
1190	1.1831e+02	-7.3586	-24.672955	0.000294	2.938930	0.995736	-0.000118
1191	1.1841e+02	-7.4035	-24.862700	0.000476	4.763094	1.613780	-0.000191
1192	1.1850e+02	-7.4468	-24.971703	0.000274	2.736245	0.927065	-0.000110
1193	1.1860e+02	-7.4837	-25.133189	0.000405	4.053697	1.373430	-0.000162
1194	1.1870e+02	-7.5287	-25.258340	0.000314	3.141615	1.064408	-0.000126
1195	1.1880e+02	-7.5672	-25.411751	0.000385	3.851012	1.304758	-0.000154
1196	1.1890e+02	-7.6089	-25.549014	0.000345	3.445642	1.167415	-0.000138
1197	1.1900e+02	-7.6426	-25.718573	0.000426	4.256382	1.442101	-0.000170
1198	1.1910e+02	-7.6923	-25.831613	0.000284	2.837588	0.961401	-0.000114
1199	1.1920e+02	-7.7276	-25.993098	0.000405	4.053697	1.373430	-0.000162
1200	1.1930e+02	-7.7677	-26.130361	0.000345	3.445642	1.167415	-0.000138
1201	1.1940e+02	-7.7934	-26.275698	0.000365	3.648327	1.236087	-0.000146
1202	1.1950e+02	-7.8559	-26.404886	0.000324	3.242957	1.098744	-0.000130
1203	1.1960e+02	-7.8880	-26.570409	0.000416	4.155039	1.407765	-0.000166
1204	1.1970e+02	-7.9297	-26.719783	0.000375	3.749670	1.270422	-0.000150
1205	1.1980e+02	-7.9554	-26.848971	0.000324	3.242957	1.098744	-0.000130
1206	1.1990e+02	-8.0035	-27.002382	0.000385	3.851012	1.304758	-0.000154
1207	1.2000e+02	-8.0404	-27.143682	0.000355	3.546985	1.201751	-0.000142
1208	1.2010e+02	-8.0757	-27.289019	0.000365	3.648327	1.236087	-0.000146
1209	1.2020e+02	-8.1158	-27.414170	0.000314	3.141615	1.064408	-0.000126
1210	1.2030e+02	-8.1607	-27.555470	0.000355	3.546985	1.201751	-0.000142
1211	1.2039e+02	-8.2057	-27.700807	0.000365	3.648327	1.236087	-0.000146
1212	1.2049e+02	-8.2474	-27.834032	0.000334	3.344300	1.133079	-0.000134
1213	1.2059e+02	-8.2778	-27.967258	0.000334	3.344300	1.133079	-0.000134
1214	1.2069e+02	-8.3179	-28.132780	0.000416	4.155039	1.407765	-0.000166
1215	1.2079e+02	-8.3564	-28.290229	0.000395	3.952354	1.339094	-0.000158
1216	1.2089e+02	-8.4046	-28.403268	0.000284	2.837588	0.961401	-0.000114
1217	1.2099e+02	-8.4415	-28.548605	0.000365	3.648327	1.236087	-0.000146
1218	1.2109e+02	-8.4800	-28.657608	0.000274	2.736245	0.927065	-0.000110
1219	1.2119e+02	-8.5153	-28.839279	0.000456	4.560409	1.545108	-0.000183
1220	1.2129e+02	-8.5554	-28.972505	0.000334	3.344300	1.133079	-0.000134
1221	1.2139e+02	-8.6035	-29.150139	0.000446	4.459066	1.510773	-0.000179
1222	1.2149e+02	-8.6324	-29.283364	0.000334	3.344300	1.133079	-0.000134
1223	1.2159e+02	-8.6789	-29.400441	0.000294	2.938930	0.995736	-0.000118
1224	1.2169e+02	-8.7206	-29.505407	0.000263	2.634903	0.892729	-0.000105
1225	1.2179e+02	-8.7591	-29.662855	0.000395	3.952354	1.339094	-0.000158
1226	1.2189e+02	-8.7992	-29.832415	0.000426	4.256382	1.442101	-0.000170
1227	1.2199e+02	-8.8297	-29.953529	0.000304	3.040273	1.030072	-0.000122
1228	1.2209e+02	-8.8810	-30.034271	0.000203	2.026848	0.686715	-0.000081
1229	1.2219e+02	-8.9179	-30.207868	0.000436	4.357724	1.476437	-0.000174
1230	1.2229e+02	-8.9661	-30.353205	0.000365	3.648327	1.236087	-0.000146
1231	1.2239e+02	-8.9965	-30.490468	0.000345	3.445642	1.167415	-0.000138
1232	1.2248e+02	-9.0431	-30.607545	0.000294	2.938930	0.995736	-0.000118
1233	1.2258e+02	-9.0751	-30.736733	0.000324	3.242957	1.098744	-0.000130
1234	1.2268e+02	-9.1185	-30.914367	0.000446	4.459066	1.510773	-0.000179
1235	1.2278e+02	-9.1666	-31.047592	0.000334	3.344300	1.133079	-0.000134
1236	1.2288e+02	-9.2003	-31.201004	0.000385	3.851012	1.304758	-0.000154
1237	1.2298e+02	-9.2388	-31.330192	0.000324	3.242957	1.098744	-0.000130
1238	1.2308e+02	-9.2757	-31.479566	0.000375	3.749670	1.270422	-0.000150
1239	1.2318e+02	-9.3126	-31.645088	0.000416	4.155039	1.407765	-0.000166
1240	1.2328e+02	-9.3607	-31.782351	0.000345	3.445642	1.167415	-0.000138
1241	1.2338e+02	-9.3928	-31.923651	0.000355	3.546985	1.201751	-0.000142
1242	1.2348e+02	-9.4313	-32.020542	0.000243	2.432218	0.824058	-0.000097
1243	1.2358e+02	-9.4730	-32.177990	0.000395	3.952354	1.339094	-0.000158
1244	1.2368e+02	-9.5163	-32.299104	0.000304	3.040273	1.030072	-0.000122
1245	1.2378e+02	-9.5612	-32.452516	0.000385	3.851012	1.304758	-0.000154
1246	1.2388e+02	-9.5917	-32.614001	0.000405	4.053697	1.373430	-0.000162
1247	1.2398e+02	-9.6334	-32.706855	0.000233	2.330876	0.789722	-0.000093
1248	1.2408e+02	-9.6639	-32.852192	0.000365	3.648327	1.236087	-0.000146
1249	1.2418e+02	-9.7120	-32.989455	0.000345	3.445642	1.167415	-0.000138
1250	1.2428e+02	-9.7634	-33.171126	0.000456	4.560409	1.545108	-0.000183
1251	1.2438e+02	-9.8003	-33.324537	0.000385	3.851012	1.304758	-0.000154
1252	1.2447e+02	-9.8307	-33.421428	0.000243	2.432218	0.824058	-0.000097
1253	1.2457e+02	-9.8821	-33.615211	0.000486	4.864436	1.648116	-0.000195
1254	1.2467e+02	-9.9158	-33.724213	0.000274	2.736245	0.927065	-0.000110
1255	1.2477e+02	-9.9623	-33.853402	0.000324	3.242957	1.098744	-0.000130
1256	1.2487e+02	-9.9928	-34.022961	0.000426	4.256382	1.442101	-0.000170
1257	1.2497e+02	-10.0232	-34.188484	0.000416	4.155039	1.407765	-0.000166
1258	1.2507e+02	-10.0666	-34.281338	0.000233	2.330876	0.789722	-0.000093
1259	1.2517e+02	-10.1067	-34.434749	0.000385	3.851012	1.304758	-0.000154
1260	1.2527e+02	-10.1436	-34.576049	0.000355	3.546985	1.201751	-0.000142
1261	1.2537e+02	-10.1965	-34.713312	0.000345	3.445642	1.167415	-0.000138
1262	1.2547e+02	-10.2334	-34.846537	0.000334	3.344300	1.133079	-0.000134
1263	1.2557e+02	-10.2719	-35.003985	0.000395	3.952354	1.339094	-0.000158
1264	1.2567e+02	-10.3168	-35.117025	0.000284	2.837588	0.961401	-0.000114
1265	1.2577e+02	-10.3521	-35.282548	0.000416	4.155039	1.407765	-0.000166
1266	1.2587e+02	-10.4002	-35.435959	0.000385	3.851012	1.304758	-0.000154
1267	1.2597e+02	-10.4291	-35.557073	0.000304	3.040273	1.030072	-0.000122
1268	1.2607e+02	-10.4805	-35.629741	0.000182	1.824164	0.618043	-0.000073
1269	1.2617e+02	-10.5109	-35.839673	0.000527	5.269806	1.785459	-0.000211
1270	1.2627e+02	-10.5478	-35.976935	0.000345	3.445642	1.167415	-0.000138
1271	1.2636e+02	-10.5831	-36.094012	0.000294	2.938930	0.995736	-0.000118
1272	1.2646e+02	-10.6296	-36.271646	0.000446	4.459066	1.510773	-0.000179
1273	1.2656e+02	-10.6826	-36.372574	0.000253	2.533560	0.858394	-0.000101
1274	1.2666e+02	-10.7163	-36.525986	0.000385	3.851012	1.304758	-0.000154
1275	1.2676e+02	-10.7532	-36.703620	0.000446	4.459066	1.510773	-0.000179
1276	1.2686e+02	-10.7949	-36.800511	0.000243	2.432218	0.824058	-0.000097
1277	1.2696e+02	-10.8270	-36.901439	0.000253	2.533560	0.858394	-0.000101
1278	1.2706e+02	-10.8767	-37.034665	0.000334	3.344300	1.133079	-0.000134
1279	1.2716e+02	-10.9088	-37.232484	0.000497	4.965779	1.682451	-0.000199
1280	1.2726e+02	-10.9585	-37.313227	0.000203	2.026848	0.686715	-0.000081
1281	1.2736e+02	-10.9922	-37.478750	0.000416	4.155039	1.407765	-0.000166
1282	1.2746e+02	-11.0323	-37.620049	0.000355	3.546985	1.201751	-0.000142
1283	1.2756e+02	-11.0628	-37.737126	0.000294	2.938930	0.995736	-0.000118
1284	1.2766e+02	-11.1157	-37.866315	0.000324	3.242957	1.098744	-0.000130
1285	1.2776e+02	-11.1606	-38.015689	0.000375	3.749670	1.270422	-0.000150
1286	1.2786e+02	-11.1943	-38.156988	0.000355	3.546985	1.201751	-0.000142
1287	1.2796e+02	-11.2344	-38.326548	0.000426	4.256382	1.442101	-0.000170
1288	1.2806e+02	-11.2729	-38.407291	0.000203	2.026848	0.686715	-0.000081
1289	1.2816e+02	-11.3147	-38.597036	0.000476	4.763094	1.613780	-0.000191
1290	1.2826e+02	-11.3467	-38.730262	0.000334	3.344300	1.133079	-0.000134
1291	1.2835e+02	-11.3981	-38.811004	0.000203	2.026848	0.686715	-0.000081
1292	1.2845e+02	-11.4302	-39.004787	0.000486	4.864436	1.648116	-0.000195
1293	1.2855e+02	-11.4719	-39.121864	0.000294	2.938930	0.995736	-0.000118
1294	1.2865e+02	-11.5072	-39.311609	0.000476	4.763094	1.613780	-0.000191
1295	1.2875e+02	-11.5425	-39.424649	0.000284	2.837588	0.961401	-0.000114
1296	1.2885e+02	-11.5858	-39.541726	0.000294	2.938930	0.995736	-0.000118
1297	1.2895e+02	-11.6323	-39.650729	0.000274	2.736245	0.927065	-0.000110
1298	1.2905e+02	-11.6708	-39.800103	0.000375	3.749670	1.270422	-0.000150
1299	1.2915e+02	-11.7077	-40.010034	0.000527	5.269806	1.785459	-0.000211
1300	1.2925e+02	-11.7446	-40.042331	0.000081	0.810739	0.274686	-0.000032
1301	1.2935e+02	-11.7927	-40.236113	0.000486	4.864436	1.648116	-0.000195
1302	1.2945e+02	-11.8312	-40.320893	0.000213	2.128191	0.721051	-0.000085
1303	1.2955e+02	-11.8681	-40.474304	0.000385	3.851012	1.304758	-0.000154
1304	1.2965e+02	-11.9018	-40.623678	0.000375	3.749670	1.270422	-0.000150
1305	1.2975e+02	-11.9499	-40.769015	0.000365	3.648327	1.236087	-0.000146
1306	1.2985e+02	-11.9884	-40.865907	0.000243	2.432218	0.824058	-0.000097
1307	1.2995e+02	-12.0189	-41.019318	0.000385	3.851012	1.304758	-0.000154
1308	1.3005e+02	-12.0783	-41.172729	0.000385	3.851012	1.304758	-0.000154
1309	1.3015e+02	-12.1023	-41.338251	0.000416	4.155039	1.407765	-0.000166
1310	1.3025e+02	-12.1553	-41.463403	0.000314	3.141615	1.064408	-0.000126
1311	1.3034e+02	-12.1825	-41.612777	0.000375	3.749670	1.270422	-0.000150
1312	1.3044e+02	-12.2275	-41.746002	0.000334	3.344300	1.133079	-0.000134
1313	1.3054e+02	-12.2595	-41.887302	0.000355	3.546985	1.201751	-0.000142
1314	1.3064e+02	-12.3077	-41.996305	0.000274	2.736245	0.927065	-0.000110
1315	1.3074e+02	-12.3446	-42.101270	0.000263	2.634903	0.892729	-0.000105
1316	1.3084e+02	-12.3847	-42.242570	0.000355	3.546985	1.201751	-0.000142
1317	1.3094e+02	-12.4232	-42.404055	0.000405	4.053697	1.373430	-0.000162
1318	1.3104e+02	-12.4729	-42.492872	0.000223	2.229533	0.755386	-0.000089
1319	1.3114e+02	-12.5114	-42.658395	0.000416	4.155039	1.407765	-0.000166
1320	1.3124e+02	-12.5419	-42.787583	0.000324	3.242957	1.098744	-0.000130
1321	1.3134e+02	-12.5852	-42.900623	0.000284	2.837588	0.961401	-0.000114
1322	1.3144e+02	-12.6237	-43.066145	0.000416	4.155039	1.407765	-0.000166
1323	1.3154e+02	-12.6670	-43.195334	0.000324	3.242957	1.098744	-0.000130
1324	1.3164e+02	-12.7071	-43.328559	0.000334	3.344300	1.133079	-0.000134
1325	1.3174e+02	-12.7472	-43.465822	0.000345	3.445642	1.167415	-0.000138
1326	1.3184e+02	-12.7889	-43.599047	0.000334	3.344300	1.133079	-0.000134
1327	1.3194e+02	-12.8210	-43.744384	0.000365	3.648327	1.236087	-0.000146
1328	1.3204e+02	-12.8547	-43.865498	0.000304	3.040273	1.030072	-0.000122
1329	1.3214e+02	-12.8996	-44.006798	0.000355	3.546985	1.201751	-0.000142
1330	1.3224e+02	-12.9446	-44.196543	0.000476	4.763094	1.613780	-0.000191
1331	1.3234e+02	-12.9734	-44.265175	0.000172	1.722821	0.583708	-0.000069
1332	1.3243e+02	-13.0232	-44.406475	0.000355	3.546985	1.201751	-0.000142
1333	1.3253e+02	-13.0633	-44.511440	0.000263	2.634903	0.892729	-0.000105
1334	1.3263e+02	-13.0986	-44.693111	0.000456	4.560409	1.545108	-0.000183
1335	1.3273e+02	-13.1403	-44.773854	0.000203	2.026848	0.686715	-0.000081
1336	1.3283e+02	-13.1804	-44.915154	0.000355	3.546985	1.201751	-0.000142
1337	1.3293e+02	-13.2253	-44.995896	0.000203	2.026848	0.686715	-0.000081
1338	1.3303e+02	-13.2542	-45.157382	0.000405	4.053697	1.373430	-0.000162
1339	1.3313e+02	-13.3007	-45.330979	0.000436	4.357724	1.476437	-0.000174
1340	1.3323e+02	-13.3392	-45.423833	0.000233	2.330876	0.789722	-0.000093
1341	1.3333e+02	-13.3841	-45.569170	0.000365	3.648327	1.236087	-0.000146
1342	1.3343e+02	-13.4194	-45.682209	0.000284	2.837588	0.961401	-0.000114
1343	1.3353e+02	-13.4611	-45.779101	0.000243	2.432218	0.824058	-0.000097
1344	1.3363e+02	-13.4964	-45.956735	0.000446	4.459066	1.510773	-0.000179
1345	1.3373e+02	-13.5413	-46.102072	0.000365	3.648327	1.236087	-0.000146
1346	1.3383e+02	-13.5782	-46.211074	0.000274	2.736245	0.927065	-0.000110
1347	1.3393e+02	-13.6151	-46.429080	0.000547	5.472491	1.854130	-0.000219
1348	1.3403e+02	-13.6520	-46.558268	0.000324	3.242957	1.098744	-0.000130
1349	1.3413e+02	-13.6937	-46.663233	0.000263	2.634903	0.892729	-0.000105
1350	1.3423e+02	-13.7419	-46.772236	0.000274	2.736245	0.927065	-0.000110
1351	1.3432e+02	-13.7755	-46.873164	0.000253	2.533560	0.858394	-0.000101
1352	1.3442e+02	-13.8205	-47.026576	0.000385	3.851012	1.304758	-0.000154
1353	1.3452e+02	-13.8542	-47.135578	0.000274	2.736245	0.927065	-0.000110
1354	1.3462e+02	-13.8959	-47.260730	0.000314	3.141615	1.064408	-0.000126
1355	1.3472e+02	-13.9344	-47.365695	0.000263	2.634903	0.892729	-0.000105
1356	1.3482e+02	-13.9857	-47.527180	0.000405	4.053697	1.373430	-0.000162
1357	1.3492e+02	-14.0130	-47.660406	0.000334	3.344300	1.133079	-0.000134
1358	1.3502e+02	-14.0579	-47.789594	0.000324	3.242957	1.098744	-0.000130
1359	1.3512e+02	-14.0916	-47.938968	0.000375	3.749670	1.270422	-0.000150
1360	1.3522e+02	-14.1445	-48.064120	0.000314	3.141615	1.064408	-0.000126
1361	1.3532e+02	-14.1830	-48.169085	0.000263	2.634903	0.892729	-0.000105
1362	1.3542e+02	-14.2215	-48.265976	0.000243	2.432218	0.824058	-0.000097
1363	1.3552e+02	-14.2600	-48.439573	0.000436	4.357724	1.476437	-0.000174
1364	1.3562e+02	-14.3017	-48.601059	0.000405	4.053697	1.373430	-0.000162
1365	1.3572e+02	-14.3338	-48.758507	0.000395	3.952354	1.339094	-0.000158
1366	1.3582e+02	-14.3771	-48.855398	0.000243	2.432218	0.824058	-0.000097
1367	1.3592e+02	-14.4076	-48.964401	0.000274	2.736245	0.927065	-0.000110
1368	1.3602e+02	-14.4525	-49.133960	0.000426	4.256382	1.442101	-0.000170
1369	1.3612e+02	-14.4942	-49.222777	0.000223	2.229533	0.755386	-0.000089
1370	1.3622e+02	-14.5360	-49.339854	0.000294	2.938930	0.995736	-0.000118
1371	1.3631e+02	-14.5793	-49.493266	0.000385	3.851012	1.304758	-0.000154
1372	1.3641e+02	-14.6130	-49.634565	0.000355	3.546985	1.201751	-0.000142
1373	1.3651e+02	-14.6547	-49.751642	0.000294	2.938930	0.995736	-0.000118
1374	1.3661e+02	-14.7012	-49.884868	0.000334	3.344300	1.133079	-0.000134
1375	1.3671e+02	-14.7333	-50.038279	0.000385	3.851012	1.304758	-0.000154
1376	1.3681e+02	-14.7782	-50.119022	0.000203	2.026848	0.686715	-0.000081
1377	1.3691e+02	-14.8215	-50.292618	0.000436	4.357724	1.476437	-0.000174
1378	1.3701e+02	-14.8520	-50.405658	0.000284	2.837588	0.961401	-0.000114
1379	1.3711e+02	-14.8937	-50.530809	0.000314	3.141615	1.064408	-0.000126
1380	1.3721e+02	-14.9370	-50.664035	0.000334	3.344300	1.133079	-0.000134
1381	1.3731e+02	-14.9723	-50.773038	0.000274	2.736245	0.927065	-0.000110
1382	1.3741e+02	-15.0172	-50.934523	0.000405	4.053697	1.373430	-0.000162
1383	1.3751e+02	-15.0493	-51.096008	0.000405	4.053697	1.373430	-0.000162
1384	1.3761e+02	-15.0830	-51.257494	0.000405	4.053697	1.373430	-0.000162
1385	1.3771e+02	-15.1311	-51.350348	0.000233	2.330876	0.789722	-0.000093
1386	1.3781e+02	-15.1760	-51.459351	0.000274	2.736245	0.927065	-0.000110
1387	1.3791e+02	-15.2129	-51.572390	0.000284	2.837588	0.961401	-0.000114
1388	1.3801e+02	-15.2498	-51.685430	0.000284	2.837588	0.961401	-0.000114
1389	1.3811e+02	-15.2932	-51.834804	0.000375	3.749670	1.270422	-0.000150
1390	1.3821e+02	-15.3284	-51.972067	0.000345	3.445642	1.167415	-0.000138
1391	1.3831e+02	-15.3750	-52.077032	0.000263	2.634903	0.892729	-0.000105
1392	1.3840e+02	-15.4135	-52.202184	0.000314	3.141615	1.064408	-0.000126
1393	1.3850e+02	-15.4439	-52.319261	0.000294	2.938930	0.995736	-0.000118
1394	1.3860e+02	-15.4921	-52.464597	0.000365	3.648327	1.236087	-0.000146
1395	1.3870e+02	-15.5274	-52.622046	0.000395	3.952354	1.339094	-0.000158
1396	1.3880e+02	-15.5755	-52.739123	0.000294	2.938930	0.995736	-0.000118
1397	1.3890e+02	-15.6204	-52.880422	0.000355	3.546985	1.201751	-0.000142
1398	1.3900e+02	-15.6637	-53.009611	0.000324	3.242957	1.098744	-0.000130
1399	1.3910e+02	-15.6878	-53.114576	0.000263	2.634903	0.892729	-0.000105
1400	1.3920e+02	-15.7311	-53.267987	0.000385	3.851012	1.304758	-0.000154
1401	1.3930e+02	-15.7648	-53.405250	0.000345	3.445642	1.167415	-0.000138
1402	1.3940e+02	-15.8145	-53.522327	0.000294	2.938930	0.995736	-0.000118
1403	1.3950e+02	-15.8514	-53.667664	0.000365	3.648327	1.236087	-0.000146
1404	1.3960e+02	-15.8835	-53.728221	0.000152	1.520136	0.515036	-0.000061
1405	1.3970e+02	-15.9445	-53.893744	0.000416	4.155039	1.407765	-0.000166
1406	1.3980e+02	-15.9701	-53.978523	0.000213	2.128191	0.721051	-0.000085
1407	1.3990e+02	-16.0038	-54.095600	0.000294	2.938930	0.995736	-0.000118
1408	1.4000e+02	-16.0455	-54.285346	0.000476	4.763094	1.613780	-0.000191
1409	1.4010e+02	-16.0889	-54.353977	0.000172	1.722821	0.583708	-0.000069
1410	1.4020e+02	-16.1241	-54.471054	0.000294	2.938930	0.995736	-0.000118
1411	1.4029e+02	-16.1659	-54.628502	0.000395	3.952354	1.339094	-0.000158
1412	1.4039e+02	-16.2124	-54.806136	0.000446	4.459066	1.510773	-0.000179
1413	1.4049e+02	-16.2605	-54.907065	0.000253	2.533560	0.858394	-0.000101
1414	1.4059e+02	-16.2846	-55.040290	0.000334	3.344300	1.133079	-0.000134
1415	1.4069e+02	-16.3359	-55.177553	0.000345	3.445642	1.167415	-0.000138
1416	1.4079e+02	-16.3696	-55.339038	0.000405	4.053697	1.373430	-0.000162
1417	1.4089e+02	-16.4001	-55.468226	0.000324	3.242957	1.098744	-0.000130
1418	1.4099e+02	-16.4418	-55.609526	0.000355	3.546985	1.201751	-0.000142
1419	1.4109e+02	-16.4899	-55.738715	0.000324	3.242957	1.098744	-0.000130
1420	1.4119e+02	-16.5300	-55.867903	0.000324	3.242957	1.098744	-0.000130
1421	1.4129e+02	-16.5717	-56.009203	0.000355	3.546985	1.201751	-0.000142
1422	1.4139e+02	-16.6006	-56.110131	0.000253	2.533560	0.858394	-0.000101
1423	1.4149e+02	-16.6487	-56.259505	0.000375	3.749670	1.270422	-0.000150
1424	1.4159e+02	-16.6824	-56.336211	0.000193	1.925506	0.652379	-0.000077
1425	1.4169e+02	-16.7305	-56.501733	0.000416	4.155039	1.407765	-0.000166
1426	1.4179e+02	-16.7594	-56.610736	0.000274	2.736245	0.927065	-0.000110
1427	1.4189e+02	-16.8059	-56.760110	0.000375	3.749670	1.270422	-0.000150
1428	1.4199e+02	-16.8412	-56.897373	0.000345	3.445642	1.167415	-0.000138
1429	1.4209e+02	-16.8974	-57.006375	0.000274	2.736245	0.927065	-0.000110
1430	1.4219e+02	-16.9279	-57.163823	0.000395	3.952354	1.339094	-0.000158
1431	1.4228e+02	-16.9664	-57.248603	0.000213	2.128191	0.721051	-0.000085
1432	1.4238e+02	-17.0081	-57.381829	0.000334	3.344300	1.133079	-0.000134
1433	1.4248e+02	-17.0482	-57.531203	0.000375	3.749670	1.270422	-0.000150
1434	1.4258e+02	-17.0803	-57.660391	0.000324	3.242957	1.098744	-0.000130
1435	1.4268e+02	-17.1252	-57.793617	0.000334	3.344300	1.133079	-0.000134
1436	1.4278e+02	-17.1701	-57.955102	0.000405	4.053697	1.373430	-0.000162
1437	1.4288e+02	-17.2118	-58.116588	0.000405	4.053697	1.373430	-0.000162
1438	1.4298e+02	-17.2487	-58.185219	0.000172	1.722821	0.583708	-0.000069
1439	1.4308e+02	-17.2872	-58.322481	0.000345	3.445642	1.167415	-0.000138
1440	1.4318e+02	-17.3257	-58.443596	0.000304	3.040273	1.030072	-0.000122
1441	1.4328e+02	-17.3674	-58.556635	0.000284	2.837588	0.961401	-0.000114
1442	1.4338e+02	-17.4043	-58.653527	0.000243	2.432218	0.824058	-0.000097
1443	1.4348e+02	-17.4428	-58.835198	0.000456	4.560409	1.545108	-0.000183
1444	1.4358e+02	-17.4813	-58.960349	0.000314	3.141615	1.064408	-0.000126
1445	1.4368e+02	-17.5246	-59.073389	0.000284	2.837588	0.961401	-0.000114
1446	1.4378e+02	-17.5567	-59.198540	0.000314	3.141615	1.064408	-0.000126
1447	1.4388e+02	-17.6049	-59.311580	0.000284	2.837588	0.961401	-0.000114
1448	1.4398e+02	-17.6482	-59.452879	0.000355	3.546985	1.201751	-0.000142
1449	1.4408e+02	-17.6899	-59.573994	0.000304	3.040273	1.030072	-0.000122
1450	1.4418e+02	-17.7284	-59.678959	0.000263	2.634903	0.892729	-0.000105
1451	1.4428e+02	-17.7653	-59.860630	0.000456	4.560409	1.545108	-0.000183
1452	1.4437e+02	-17.8006	-59.949447	0.000223	2.229533	0.755386	-0.000089
1453	1.4447e+02	-17.8391	-60.147267	0.000497	4.965779	1.682451	-0.000199
1454	1.4457e+02	-17.8792	-60.276455	0.000324	3.242957	1.098744	-0.000130
1455	1.4467e+02	-17.9177	-60.357198	0.000203	2.026848	0.686715	-0.000081
1456	1.4477e+02	-17.9562	-60.522720	0.000416	4.155039	1.407765	-0.000166
1457	1.4487e+02	-18.0123	-60.651909	0.000324	3.242957	1.098744	-0.000130
1458	1.4497e+02	-18.0444	-60.760911	0.000274	2.736245	0.927065	-0.000110
1459	1.4507e+02	-18.0781	-60.894137	0.000334	3.344300	1.133079	-0.000134
1460	1.4517e+02	-18.1198	-60.950657	0.000142	1.418794	0.480700	-0.000057
1461	1.4527e+02	-18.1583	-61.095994	0.000365	3.648327	1.236087	-0.000146
1462	1.4537e+02	-18.1984	-61.229219	0.000334	3.344300	1.133079	-0.000134
1463	1.4547e+02	-18.2417	-61.390705	0.000405	4.053697	1.373430	-0.000162
1464	1.4557e+02	-18.2802	-61.467410	0.000193	1.925506	0.652379	-0.000077
1465	1.4567e+02	-18.3203	-61.632933	0.000416	4.155039	1.407765	-0.000166
1466	1.4577e+02	-18.3604	-61.717713	0.000213	2.128191	0.721051	-0.000085
1467	1.4587e+02	-18.4070	-61.867087	0.000375	3.749670	1.270422	-0.000150
1468	1.4597e+02	-18.4423	-61.984164	0.000294	2.938930	0.995736	-0.000118
1469	1.4607e+02	-18.4776	-62.117389	0.000334	3.344300	1.133079	-0.000134
1470	1.4617e+02	-18.5177	-62.282912	0.000416	4.155039	1.407765	-0.000166
1471	1.4626e+02	-18.5626	-62.476694	0.000486	4.864436	1.648116	-0.000195
1472	1.4636e+02	-18.5979	-62.597808	0.000304	3.040273	1.030072	-0.000122
1473	1.4646e+02	-18.6460	-62.682588	0.000213	2.128191	0.721051	-0.000085
1474	1.4656e+02	-18.6797	-62.823888	0.000355	3.546985	1.201751	-0.000142
1475	1.4666e+02	-18.7214	-62.961150	0.000345	3.445642	1.167415	-0.000138
1476	1.4676e+02	-18.7599	-63.074190	0.000284	2.837588	0.961401	-0.000114
1477	1.4686e+02	-18.8016	-63.215490	0.000355	3.546985	1.201751	-0.000142
1478	1.4696e+02	-18.8353	-63.272010	0.000142	1.418794	0.480700	-0.000057
1479	1.4706e+02	-18.8834	-63.429458	0.000395	3.952354	1.339094	-0.000158
1480	1.4716e+02	-18.9219	-63.554609	0.000314	3.141615	1.064408	-0.000126
1481	1.4726e+02	-18.9524	-63.643426	0.000223	2.229533	0.755386	-0.000089
1482	1.4736e+02	-19.0053	-63.792800	0.000375	3.749670	1.270422	-0.000150
1483	1.4746e+02	-19.0406	-63.921989	0.000324	3.242957	1.098744	-0.000130
1484	1.4756e+02	-19.0807	-64.039066	0.000294	2.938930	0.995736	-0.000118
1485	1.4766e+02	-19.1209	-64.196514	0.000395	3.952354	1.339094	-0.000158
1486	1.4776e+02	-19.1690	-64.337814	0.000355	3.546985	1.201751	-0.000142
1487	1.4786e+02	-19.1979	-64.458928	0.000304	3.040273	1.030072	-0.000122
1488	1.4796e+02	-19.2380	-64.632525	0.000436	4.357724	1.476437	-0.000174
1489	1.4806e+02	-19.2749	-64.753639	0.000304	3.040273	1.030072	-0.000122
1490	1.4816e+02	-19.3134	-64.882827	0.000324	3.242957	1.098744	-0.000130
1491	1.4825e+02	-19.3551	-65.036238	0.000385	3.851012	1.304758	-0.000154
1492	1.4835e+02	-19.3968	-65.149278	0.000284	2.837588	0.961401	-0.000114
1493	1.4845e+02	-19.4417	-65.286541	0.000345	3.445642	1.167415	-0.000138
1494	1.4855e+02	-19.4690	-65.371320	0.000213	2.128191	0.721051	-0.000085
1495	1.4865e+02	-19.5123	-65.516657	0.000365	3.648327	1.236087	-0.000146
1496	1.4875e+02	-19.5572	-65.617586	0.000253	2.533560	0.858394	-0.000101
1497	1.4885e+02	-19.5989	-65.686217	0.000172	1.722821	0.583708	-0.000069
1498	1.4895e+02	-19.6310	-65.863851	0.000446	4.459066	1.510773	-0.000179
1499	1.4905e+02	-19.6743	-65.940557	0.000193	1.925506	0.652379	-0.000077
1500	1.4915e+02	-19.7176	-66.142413	0.000507	5.067121	1.716787	-0.000203
1501	1.4925e+02	-19.7593	-66.239305	0.000243	2.432218	0.824058	-0.000097
1502	1.4935e+02	-19.7962	-66.356382	0.000294	2.938930	0.995736	-0.000118
1503	1.4945e+02	-19.8283	-66.481533	0.000314	3.141615	1.064408	-0.000126
1504	1.4955e+02	-19.8764	-66.570350	0.000223	2.229533	0.755386	-0.000089
1505	1.4965e+02	-19.9166	-66.711650	0.000355	3.546985	1.201751	-0.000142
1506	1.4975e+02	-19.9486	-66.877172	0.000416	4.155039	1.407765	-0.000166
1507	1.4985e+02	-19.9936	-67.026546	0.000375	3.749670	1.270422	-0.000150
1508	1.4995e+02	-19.9438	-66.941766	0.000213	2.128191	0.721051	0.000085
1509	1.5005e+02	-19.9069	-66.901395	0.000101	1.013424	0.343357	0.000041
1510	1.5015e+02	-19.8780	-66.808541	0.000233	2.330876	0.789722	0.000093
1511	1.5025e+02	-19.8251	-66.784318	0.000061	0.608055	0.206014	0.000024
1512	1.5034e+02	-19.7946	-66.626870	0.000395	3.952354	1.339094	0.000158
1513	1.5044e+02	-19.7497	-66.614758	0.000030	0.304027	0.103007	0.000012
1514	1.5054e+02	-19.7112	-66.477496	0.000345	3.445642	1.167415	0.000138
1515	1.5064e+02	-19.6759	-66.364456	0.000284	2.837588	0.961401	0.000114
1516	1.5074e+02	-19.6374	-66.255453	0.000274	2.736245	0.927065	0.000110
1517	1.5084e+02	-19.6037	-66.207008	0.000122	1.216109	0.412029	0.000049
1518	1.5094e+02	-19.5588	-66.102042	0.000263	2.634903	0.892729	0.000105
1519	1.5104e+02	-19.5283	-66.021299	0.000203	2.026848	0.686715	0.000081
1520	1.5114e+02	-19.4770	-65.932482	0.000223	2.229533	0.755386	0.000089
1521	1.5124e+02	-19.4401	-65.843665	0.000223	2.229533	0.755386	0.000089
1522	1.5134e+02	-19.4000	-65.742737	0.000253	2.533560	0.858394	0.000101
1523	1.5144e+02	-19.3519	-65.661994	0.000203	2.026848	0.686715	0.000081
1524	1.5154e+02	-19.3118	-65.577214	0.000213	2.128191	0.721051	0.000085
1525	1.5164e+02	-19.2733	-65.512620	0.000162	1.621479	0.549372	0.000065
1526	1.5174e+02	-19.2331	-65.403618	0.000274	2.736245	0.927065	0.000110
1527	1.5184e+02	-19.1995	-65.359209	0.000111	1.114767	0.377693	0.000045
1528	1.5194e+02	-19.1529	-65.286541	0.000182	1.824164	0.618043	0.000073
1529	1.5204e+02	-19.1144	-65.169464	0.000294	2.938930	0.995736	0.000118
1530	1.5214e+02	-19.0775	-65.064498	0.000263	2.634903	0.892729	0.000105
1531	1.5224e+02	-19.0358	-64.955495	0.000274	2.736245	0.927065	0.000110
1532	1.5233e+02	-18.9909	-64.854567	0.000253	2.533560	0.858394	0.000101
1533	1.5243e+02	-18.9588	-64.765750	0.000223	2.229533	0.755386	0.000089
1534	1.5253e+02	-18.9155	-64.628487	0.000345	3.445642	1.167415	0.000138
1535	1.5263e+02	-18.8786	-64.499299	0.000324	3.242957	1.098744	0.000130
1536	1.5273e+02	-18.8433	-64.426631	0.000182	1.824164	0.618043	0.000073
1537	1.5283e+02	-18.8048	-64.345888	0.000203	2.026848	0.686715	0.000081
1538	1.5293e+02	-18.7631	-64.232848	0.000284	2.837588	0.961401	0.000114
1539	1.5303e+02	-18.7134	-64.127883	0.000263	2.634903	0.892729	0.000105
1540	1.5313e+02	-18.6781	-64.014843	0.000284	2.837588	0.961401	0.000114
1541	1.5323e+02	-18.6316	-63.946212	0.000172	1.722821	0.583708	0.000069
1542	1.5333e+02	-18.5963	-63.893729	0.000132	1.317451	0.446365	0.000053
1543	1.5343e+02	-18.5578	-63.776652	0.000294	2.938930	0.995736	0.000118
1544	1.5353e+02	-18.5145	-63.712058	0.000162	1.621479	0.549372	0.000065
1545	1.5363e+02	-18.4759	-63.619204	0.000233	2.330876	0.789722	0.000093
1546	1.5373e+02	-18.4439	-63.526349	0.000233	2.330876	0.789722	0.000093
1547	1.5383e+02	-18.4070	-63.389087	0.000345	3.445642	1.167415	0.000138
1548	1.5393e+02	-18.3653	-63.267973	0.000304	3.040273	1.030072	0.000122
1549	1.5403e+02	-18.3203	-63.167044	0.000253	2.533560	0.858394	0.000101
1550	1.5413e+02	-18.2866	-63.094376	0.000182	1.824164	0.618043	0.000073
1551	1.5422e+02	-18.2353	-62.993447	0.000253	2.533560	0.858394	0.000101
1552	1.5432e+02	-18.2096	-62.860222	0.000334	3.344300	1.133079	0.000134
1553	1.5442e+02	-18.1695	-62.755256	0.000263	2.634903	0.892729	0.000105
1554	1.5452e+02	-18.1214	-62.642217	0.000284	2.837588	0.961401	0.000114
1555	1.5462e+02	-18.0861	-62.557437	0.000213	2.128191	0.721051	0.000085
1556	1.5472e+02	-18.0460	-62.416137	0.000355	3.546985	1.201751	0.000142
1557	1.5482e+02	-17.9995	-62.295023	0.000304	3.040273	1.030072	0.000122
1558	1.5492e+02	-17.9610	-62.250615	0.000111	1.114767	0.377693	0.000045
1559	1.5502e+02	-17.9177	-62.117389	0.000334	3.344300	1.133079	0.000134
1560	1.5512e+02	-17.8808	-62.064906	0.000132	1.317451	0.446365	0.000053
1561	1.5522e+02	-17.8359	-61.931681	0.000334	3.344300	1.133079	0.000134
1562	1.5532e+02	-17.8054	-61.842864	0.000223	2.229533	0.755386	0.000089
1563	1.5542e+02	-17.7637	-61.721750	0.000304	3.040273	1.030072	0.000122
1564	1.5552e+02	-17.7171	-61.604673	0.000294	2.938930	0.995736	0.000118
1565	1.5562e+02	-17.6802	-61.548153	0.000142	1.418794	0.480700	0.000057
1566	1.5572e+02	-17.6482	-61.410890	0.000345	3.445642	1.167415	0.000138
1567	1.5582e+02	-17.6081	-61.342259	0.000172	1.722821	0.583708	0.000069
1568	1.5592e+02	-17.5696	-61.237293	0.000263	2.634903	0.892729	0.000105
1569	1.5602e+02	-17.5327	-61.095994	0.000355	3.546985	1.201751	0.000142
1570	1.5612e+02	-17.4845	-60.978917	0.000294	2.938930	0.995736	0.000118
1571	1.5622e+02	-17.4476	-60.861840	0.000294	2.938930	0.995736	0.000118
1572	1.5631e+02	-17.4011	-60.716503	0.000365	3.648327	1.236087	0.000146
1573	1.5641e+02	-17.3610	-60.595389	0.000304	3.040273	1.030072	0.000122
1574	1.5651e+02	-17.3225	-60.490423	0.000263	2.634903	0.892729	0.000105
1575	1.5661e+02	-17.2888	-60.417755	0.000182	1.824164	0.618043	0.000073
1576	1.5671e+02	-17.2423	-60.296641	0.000304	3.040273	1.030072	0.000122
1577	1.5681e+02	-17.2038	-60.223972	0.000182	1.824164	0.618043	0.000073
1578	1.5691e+02	-17.1621	-60.131118	0.000233	2.330876	0.789722	0.000093
1579	1.5701e+02	-17.1236	-60.046338	0.000213	2.128191	0.721051	0.000085
1580	1.5711e+02	-17.0899	-59.937336	0.000274	2.736245	0.927065	0.000110
1581	1.5721e+02	-17.0482	-59.824296	0.000284	2.837588	0.961401	0.000114
1582	1.5731e+02	-17.0129	-59.715293	0.000274	2.736245	0.927065	0.000110
1583	1.5741e+02	-16.9696	-59.626476	0.000223	2.229533	0.755386	0.000089
1584	1.5751e+02	-16.9327	-59.493251	0.000334	3.344300	1.133079	0.000134
1585	1.5761e+02	-16.8862	-59.428657	0.000162	1.621479	0.549372	0.000065
1586	1.5771e+02	-16.8460	-59.295431	0.000334	3.344300	1.133079	0.000134
1587	1.5781e+02	-16.8156	-59.226800	0.000172	1.722821	0.583708	0.000069
1588	1.5791e+02	-16.7690	-59.081463	0.000365	3.648327	1.236087	0.000146
1589	1.5801e+02	-16.7225	-58.984572	0.000243	2.432218	0.824058	0.000097
1590	1.5811e+02	-16.6856	-58.843272	0.000355	3.546985	1.201751	0.000142
1591	1.5821e+02	-16.6391	-58.722158	0.000304	3.040273	1.030072	0.000122
1592	1.5830e+02	-16.6054	-58.625267	0.000243	2.432218	0.824058	0.000097
1593	1.5840e+02	-16.5637	-58.496078	0.000324	3.242957	1.098744	0.000130
1594	1.5850e+02	-16.5252	-58.387076	0.000274	2.736245	0.927065	0.000110
1595	1.5860e+02	-16.4787	-58.298259	0.000223	2.229533	0.755386	0.000089
1596	1.5870e+02	-16.4370	-58.229627	0.000172	1.722821	0.583708	0.000069
1597	1.5880e+02	-16.4049	-58.140810	0.000223	2.229533	0.755386	0.000089
1598	1.5890e+02	-16.3664	-58.019696	0.000304	3.040273	1.030072	0.000122
1599	1.5900e+02	-16.3327	-57.914731	0.000263	2.634903	0.892729	0.000105
1600	1.5910e+02	-16.2926	-57.817839	0.000243	2.432218	0.824058	0.000097
1601	1.5920e+02	-16.2429	-57.652317	0.000416	4.155039	1.407765	0.000166
1602	1.5930e+02	-16.2060	-57.591760	0.000152	1.520136	0.515036	0.000061
1603	1.5940e+02	-16.1723	-57.486794	0.000263	2.634903	0.892729	0.000105
1604	1.5950e+02	-16.1274	-57.353569	0.000334	3.344300	1.133079	0.000134
1605	1.5960e+02	-16.0824	-57.264752	0.000223	2.229533	0.755386	0.000089
1606	1.5970e+02	-16.0439	-57.147675	0.000294	2.938930	0.995736	0.000118
1607	1.5980e+02	-16.0183	-57.014449	0.000334	3.344300	1.133079	0.000134
1608	1.5990e+02	-15.9814	-56.917558	0.000243	2.432218	0.824058	0.000097
1609	1.6000e+02	-15.9268	-56.756073	0.000405	4.053697	1.373430	0.000162
1610	1.6010e+02	-15.8835	-56.667256	0.000223	2.229533	0.755386	0.000089
1611	1.6019e+02	-15.8466	-56.562290	0.000263	2.634903	0.892729	0.000105
1612	1.6029e+02	-15.8113	-56.437139	0.000314	3.141615	1.064408	0.000126
1613	1.6039e+02	-15.7744	-56.356396	0.000203	2.026848	0.686715	0.000081
1614	1.6049e+02	-15.7295	-56.303914	0.000132	1.317451	0.446365	0.000053
1615	1.6059e+02	-15.6926	-56.146465	0.000395	3.952354	1.339094	0.000158
1616	1.6069e+02	-15.6525	-56.045537	0.000253	2.533560	0.858394	0.000101
1617	1.6079e+02	-15.6012	-55.928460	0.000294	2.938930	0.995736	0.000118
1618	1.6089e+02	-15.5691	-55.762937	0.000416	4.155039	1.407765	0.000166
1619	1.6099e+02	-15.5338	-55.710455	0.000132	1.317451	0.446365	0.000053
1620	1.6109e+02	-15.4873	-55.585303	0.000314	3.141615	1.064408	0.000126
1621	1.6119e+02	-15.4632	-55.492449	0.000233	2.330876	0.789722	0.000093
1622	1.6129e+02	-15.4199	-55.419781	0.000182	1.824164	0.618043	0.000073
1623	1.6139e+02	-15.3798	-55.242147	0.000446	4.459066	1.510773	0.000179
1624	1.6149e+02	-15.3381	-55.125070	0.000294	2.938930	0.995736	0.000118
1625	1.6159e+02	-15.2948	-55.003956	0.000304	3.040273	1.030072	0.000122
1626	1.6169e+02	-15.2530	-54.911102	0.000233	2.330876	0.789722	0.000093
1627	1.6179e+02	-15.2161	-54.798062	0.000284	2.837588	0.961401	0.000114
1628	1.6189e+02	-15.1809	-54.620428	0.000446	4.459066	1.510773	0.000179
1629	1.6199e+02	-15.1456	-54.503351	0.000294	2.938930	0.995736	0.000118
1630	1.6209e+02	-15.0942	-54.418571	0.000213	2.128191	0.721051	0.000085
1631	1.6219e+02	-15.0557	-54.321680	0.000243	2.432218	0.824058	0.000097
1632	1.6228e+02	-15.0092	-54.208640	0.000284	2.837588	0.961401	0.000114
1633	1.6238e+02	-14.9611	-54.075415	0.000334	3.344300	1.133079	0.000134
1634	1.6248e+02	-14.9306	-53.970449	0.000263	2.634903	0.892729	0.000105
1635	1.6258e+02	-14.8921	-53.881632	0.000223	2.229533	0.755386	0.000089
1636	1.6268e+02	-14.8600	-53.744370	0.000345	3.445642	1.167415	0.000138
1637	1.6278e+02	-14.8119	-53.679775	0.000162	1.621479	0.549372	0.000065
1638	1.6288e+02	-14.7766	-53.530401	0.000375	3.749670	1.270422	0.000150
1639	1.6298e+02	-14.7317	-53.401213	0.000324	3.242957	1.098744	0.000130
1640	1.6308e+02	-14.6948	-53.308359	0.000233	2.330876	0.789722	0.000093
1641	1.6318e+02	-14.6595	-53.191282	0.000294	2.938930	0.995736	0.000118
1642	1.6328e+02	-14.6114	-53.094391	0.000243	2.432218	0.824058	0.000097
1643	1.6338e+02	-14.5825	-52.977314	0.000294	2.938930	0.995736	0.000118
1644	1.6348e+02	-14.5456	-52.831977	0.000365	3.648327	1.236087	0.000146
1645	1.6358e+02	-14.4975	-52.714900	0.000294	2.938930	0.995736	0.000118
1646	1.6368e+02	-14.4686	-52.654343	0.000152	1.520136	0.515036	0.000061
1647	1.6378e+02	-14.4237	-52.472672	0.000456	4.560409	1.545108	0.000183
1648	1.6388e+02	-14.3739	-52.339446	0.000334	3.344300	1.133079	0.000134
1649	1.6398e+02	-14.3290	-52.242555	0.000243	2.432218	0.824058	0.000097
1650	1.6408e+02	-14.3017	-52.161812	0.000203	2.026848	0.686715	0.000081
1651	1.6418e+02	-14.2584	-52.093181	0.000172	1.722821	0.583708	0.000069
1652	1.6427e+02	-14.2087	-51.947844	0.000365	3.648327	1.236087	0.000146
1653	1.6437e+02	-14.1766	-51.818656	0.000324	3.242957	1.098744	0.000130
1654	1.6447e+02	-14.1317	-51.709653	0.000274	2.736245	0.927065	0.000110
1655	1.6457e+02	-14.1028	-51.584502	0.000314	3.141615	1.064408	0.000126
1656	1.6467e+02	-14.0595	-51.491648	0.000233	2.330876	0.789722	0.000093
1657	1.6477e+02	-14.0274	-51.378608	0.000284	2.837588	0.961401	0.000114
1658	1.6487e+02	-13.9713	-51.241345	0.000345	3.445642	1.167415	0.000138
1659	1.6497e+02	-13.9392	-51.124268	0.000294	2.938930	0.995736	0.000118
1660	1.6507e+02	-13.8959	-50.991043	0.000334	3.344300	1.133079	0.000134
1661	1.6517e+02	-13.8654	-50.861855	0.000324	3.242957	1.098744	0.000130
1662	1.6527e+02	-13.8108	-50.809372	0.000132	1.317451	0.446365	0.000053
1663	1.6537e+02	-13.7675	-50.619626	0.000476	4.763094	1.613780	0.000191
1664	1.6547e+02	-13.7435	-50.571181	0.000122	1.216109	0.412029	0.000049
1665	1.6557e+02	-13.6921	-50.385473	0.000466	4.661751	1.579444	0.000187
1666	1.6567e+02	-13.6568	-50.341064	0.000111	1.114767	0.377693	0.000045
1667	1.6577e+02	-13.6183	-50.163430	0.000446	4.459066	1.510773	0.000179
1668	1.6587e+02	-13.5766	-50.001945	0.000405	4.053697	1.373430	0.000162
1669	1.6597e+02	-13.5365	-49.933313	0.000172	1.722821	0.583708	0.000069
1670	1.6607e+02	-13.4980	-49.747605	0.000466	4.661751	1.579444	0.000187
1671	1.6616e+02	-13.4611	-49.658788	0.000223	2.229533	0.755386	0.000089
1672	1.6626e+02	-13.4226	-49.557860	0.000253	2.533560	0.858394	0.000101
1673	1.6636e+02	-13.3809	-49.440783	0.000294	2.938930	0.995736	0.000118
1674	1.6646e+02	-13.3376	-49.331780	0.000274	2.736245	0.927065	0.000110
1675	1.6656e+02	-13.3071	-49.198555	0.000334	3.344300	1.133079	0.000134
1676	1.6666e+02	-13.2542	-49.089552	0.000274	2.736245	0.927065	0.000110
1677	1.6676e+02	-13.2253	-48.952289	0.000345	3.445642	1.167415	0.000138
1678	1.6686e+02	-13.1740	-48.855398	0.000243	2.432218	0.824058	0.000097
1679	1.6696e+02	-13.1403	-48.693913	0.000405	4.053697	1.373430	0.000162
1680	1.6706e+02	-13.1146	-48.592984	0.000253	2.533560	0.858394	0.000101
1681	1.6716e+02	-13.0617	-48.467833	0.000314	3.141615	1.064408	0.000126
1682	1.6726e+02	-13.0216	-48.330570	0.000345	3.445642	1.167415	0.000138
1683	1.6736e+02	-12.9831	-48.286162	0.000111	1.114767	0.377693	0.000045
1684	1.6746e+02	-12.9381	-48.100454	0.000466	4.661751	1.579444	0.000187
1685	1.6756e+02	-12.9077	-47.999525	0.000253	2.533560	0.858394	0.000101
1686	1.6766e+02	-12.8643	-47.874374	0.000314	3.141615	1.064408	0.000126
1687	1.6776e+02	-12.8226	-47.749223	0.000314	3.141615	1.064408	0.000126
1688	1.6786e+02	-12.7825	-47.591775	0.000395	3.952354	1.339094	0.000158
1689	1.6796e+02	-12.7520	-47.486809	0.000263	2.634903	0.892729	0.000105
1690	1.6806e+02	-12.7071	-47.365695	0.000304	3.040273	1.030072	0.000122
1691	1.6816e+02	-12.6590	-47.216321	0.000375	3.749670	1.270422	0.000150
1692	1.6825e+02	-12.6141	-47.091170	0.000314	3.141615	1.064408	0.000126
1693	1.6835e+02	-12.5820	-46.978130	0.000284	2.837588	0.961401	0.000114
1694	1.6845e+02	-12.5435	-46.893350	0.000213	2.128191	0.721051	0.000085
1695	1.6855e+02	-12.5098	-46.739939	0.000385	3.851012	1.304758	0.000154
1696	1.6865e+02	-12.4601	-46.639011	0.000253	2.533560	0.858394	0.000101
1697	1.6875e+02	-12.4312	-46.481562	0.000395	3.952354	1.339094	0.000158
1698	1.6885e+02	-12.3879	-46.384671	0.000243	2.432218	0.824058	0.000097
1699	1.6895e+02	-12.3414	-46.271631	0.000284	2.837588	0.961401	0.000114
1700	1.6905e+02	-12.3029	-46.198963	0.000182	1.824164	0.618043	0.000073
1701	1.6915e+02	-12.2660	-46.045552	0.000385	3.851012	1.304758	0.000154
1702	1.6925e+02	-12.2243	-45.904252	0.000355	3.546985	1.201751	0.000142
1703	1.6935e+02	-12.1841	-45.799286	0.000263	2.634903	0.892729	0.000105
1704	1.6945e+02	-12.1440	-45.698358	0.000253	2.533560	0.858394	0.000101
1705	1.6955e+02	-12.0991	-45.528798	0.000426	4.256382	1.442101	0.000170
1706	1.6965e+02	-12.0702	-45.367313	0.000405	4.053697	1.373430	0.000162
1707	1.6975e+02	-12.0221	-45.262347	0.000263	2.634903	0.892729	0.000105
1708	1.6985e+02	-11.9932	-45.185642	0.000193	1.925506	0.652379	0.000077
1709	1.6995e+02	-11.9435	-45.024156	0.000405	4.053697	1.373430	0.000162
1710	1.7005e+02	-11.9082	-44.903042	0.000304	3.040273	1.030072	0.000122
1711	1.7015e+02	-11.8729	-44.777891	0.000314	3.141615	1.064408	0.000126
1712	1.7024e+02	-11.8312	-44.636591	0.000355	3.546985	1.201751	0.000142
1713	1.7034e+02	-11.7927	-44.547774	0.000223	2.229533	0.755386	0.000089
1714	1.7044e+02	-11.7526	-44.422623	0.000314	3.141615	1.064408	0.000126
1715	1.7054e+02	-11.7141	-44.269212	0.000385	3.851012	1.304758	0.000154
1716	1.7064e+02	-11.6692	-44.196543	0.000182	1.824164	0.618043	0.000073
1717	1.7074e+02	-11.6195	-44.075429	0.000304	3.040273	1.030072	0.000122
1718	1.7084e+02	-11.5906	-44.010835	0.000162	1.621479	0.549372	0.000065
1719	1.7094e+02	-11.5521	-43.825127	0.000466	4.661751	1.579444	0.000187
1720	1.7104e+02	-11.5088	-43.756496	0.000172	1.722821	0.583708	0.000069
1721	1.7114e+02	-11.4719	-43.603085	0.000385	3.851012	1.304758	0.000154
1722	1.7124e+02	-11.4318	-43.457748	0.000365	3.648327	1.236087	0.000146
1723	1.7134e+02	-11.3965	-43.296262	0.000405	4.053697	1.373430	0.000162
1724	1.7144e+02	-11.3516	-43.179185	0.000294	2.938930	0.995736	0.000118
1725	1.7154e+02	-11.3130	-43.066145	0.000284	2.837588	0.961401	0.000114
1726	1.7164e+02	-11.2649	-42.924846	0.000355	3.546985	1.201751	0.000142
1727	1.7174e+02	-11.2248	-42.783546	0.000355	3.546985	1.201751	0.000142
1728	1.7184e+02	-11.1863	-42.682618	0.000253	2.533560	0.858394	0.000101
1729	1.7194e+02	-11.1446	-42.549392	0.000334	3.344300	1.133079	0.000134
1730	1.7204e+02	-11.1077	-42.404055	0.000365	3.648327	1.236087	0.000146
1731	1.7213e+02	-11.0660	-42.299090	0.000263	2.634903	0.892729	0.000105
1732	1.7223e+02	-11.0307	-42.177976	0.000304	3.040273	1.030072	0.000122
1733	1.7233e+02	-11.0018	-42.008416	0.000426	4.256382	1.442101	0.000170
1734	1.7243e+02	-10.9457	-41.927673	0.000203	2.026848	0.686715	0.000081
1735	1.7253e+02	-10.9152	-41.838856	0.000223	2.229533	0.755386	0.000089
1736	1.7263e+02	-10.8687	-41.685445	0.000385	3.851012	1.304758	0.000154
1737	1.7273e+02	-10.8206	-41.576442	0.000274	2.736245	0.927065	0.000110
1738	1.7283e+02	-10.7901	-41.443217	0.000334	3.344300	1.133079	0.000134
1739	1.7293e+02	-10.7387	-41.309991	0.000334	3.344300	1.133079	0.000134
1740	1.7303e+02	-10.7099	-41.168692	0.000355	3.546985	1.201751	0.000142
1741	1.7313e+02	-10.6665	-41.019318	0.000375	3.749670	1.270422	0.000150
1742	1.7323e+02	-10.6377	-40.894166	0.000314	3.141615	1.064408	0.000126
1743	1.7333e+02	-10.5976	-40.736718	0.000395	3.952354	1.339094	0.000158
1744	1.7343e+02	-10.5542	-40.611567	0.000314	3.141615	1.064408	0.000126
1745	1.7353e+02	-10.5093	-40.518713	0.000233	2.330876	0.789722	0.000093
1746	1.7363e+02	-10.4692	-40.353190	0.000416	4.155039	1.407765	0.000166
1747	1.7373e+02	-10.4307	-40.224002	0.000324	3.242957	1.098744	0.000130
1748	1.7383e+02	-10.3922	-40.094814	0.000324	3.242957	1.098744	0.000130
1749	1.7393e+02	-10.3521	-40.038294	0.000142	1.418794	0.480700	0.000057
1750	1.7403e+02	-10.3056	-39.864697	0.000436	4.357724	1.476437	0.000174
1751	1.7413e+02	-10.2847	-39.787991	0.000193	1.925506	0.652379	0.000077
1752	1.7422e+02	-10.2302	-39.646692	0.000355	3.546985	1.201751	0.000142
1753	1.7432e+02	-10.1885	-39.582097	0.000162	1.621479	0.549372	0.000065
1754	1.7442e+02	-10.1500	-39.428686	0.000385	3.851012	1.304758	0.000154
1755	1.7452e+02	-10.1179	-39.339869	0.000223	2.229533	0.755386	0.000089
1756	1.7462e+02	-10.0778	-39.190495	0.000375	3.749670	1.270422	0.000150
1757	1.7472e+02	-10.0313	-39.045158	0.000365	3.648327	1.236087	0.000146
1758	1.7482e+02	-9.9976	-38.936156	0.000274	2.736245	0.927065	0.000110
1759	1.7492e+02	-9.9543	-38.798893	0.000345	3.445642	1.167415	0.000138
1760	1.7502e+02	-9.9142	-38.633370	0.000416	4.155039	1.407765	0.000166
1761	1.7512e+02	-9.8773	-38.536479	0.000243	2.432218	0.824058	0.000097
1762	1.7522e+02	-9.8259	-38.374994	0.000405	4.053697	1.373430	0.000162
1763	1.7532e+02	-9.8003	-38.233694	0.000355	3.546985	1.201751	0.000142
1764	1.7542e+02	-9.7521	-38.108543	0.000314	3.141615	1.064408	0.000126
1765	1.7552e+02	-9.7168	-38.011652	0.000243	2.432218	0.824058	0.000097
1766	1.7562e+02	-9.6767	-37.898612	0.000284	2.837588	0.961401	0.000114
1767	1.7572e+02	-9.6398	-37.725015	0.000436	4.357724	1.476437	0.000174
1768	1.7582e+02	-9.5981	-37.620049	0.000263	2.634903	0.892729	0.000105
1769	1.7592e+02	-9.5564	-37.507010	0.000284	2.837588	0.961401	0.000114
1770	1.7602e+02	-9.5099	-37.385896	0.000304	3.040273	1.030072	0.000122
1771	1.7612e+02	-9.4842	-37.289004	0.000243	2.432218	0.824058	0.000097
1772	1.7621e+02	-9.4393	-37.151742	0.000345	3.445642	1.167415	0.000138
1773	1.7631e+02	-9.3928	-37.030628	0.000304	3.040273	1.030072	0.000122
1774	1.7641e+02	-9.3575	-36.897402	0.000334	3.344300	1.133079	0.000134
1775	1.7651e+02	-9.3158	-36.752065	0.000365	3.648327	1.236087	0.000146
1776	1.7661e+02	-9.2757	-36.606728	0.000365	3.648327	1.236087	0.000146
1777	1.7671e+02	-9.2372	-36.489651	0.000294	2.938930	0.995736	0.000118
1778	1.7681e+02	-9.1971	-36.332203	0.000395	3.952354	1.339094	0.000158
1779	1.7691e+02	-9.1505	-36.207052	0.000314	3.141615	1.064408	0.000126
1780	1.7701e+02	-9.1056	-36.069789	0.000345	3.445642	1.167415	0.000138
1781	1.7711e+02	-9.0864	-35.948675	0.000304	3.040273	1.030072	0.000122
1782	1.7721e+02	-9.0447	-35.839673	0.000274	2.736245	0.927065	0.000110
1783	1.7731e+02	-8.9997	-35.658001	0.000456	4.560409	1.545108	0.000183
1784	1.7741e+02	-8.9661	-35.585333	0.000182	1.824164	0.618043	0.000073
1785	1.7751e+02	-8.9115	-35.456145	0.000324	3.242957	1.098744	0.000130
1786	1.7761e+02	-8.8826	-35.286585	0.000426	4.256382	1.442101	0.000170
1787	1.7771e+02	-8.8506	-35.193731	0.000233	2.330876	0.789722	0.000093
1788	1.7781e+02	-8.7912	-35.072617	0.000304	3.040273	1.030072	0.000122
1789	1.7791e+02	-8.7527	-34.987837	0.000213	2.128191	0.721051	0.000085
1790	1.7801e+02	-8.7222	-34.826351	0.000405	4.053697	1.373430	0.000162
1791	1.7810e+02	-8.6709	-34.733497	0.000233	2.330876	0.789722	0.000093
1792	1.7820e+02	-8.6452	-34.596235	0.000345	3.445642	1.167415	0.000138
1793	1.7830e+02	-8.6019	-34.414564	0.000456	4.560409	1.545108	0.000183
1794	1.7840e+02	-8.5682	-34.301524	0.000284	2.837588	0.961401	0.000114
1795	1.7850e+02	-8.5249	-34.119853	0.000456	4.560409	1.545108	0.000183
1796	1.7860e+02	-8.4832	-33.990664	0.000324	3.242957	1.098744	0.000130
1797	1.7870e+02	-8.4318	-33.841290	0.000375	3.749670	1.270422	0.000150
1798	1.7880e+02	-8.4062	-33.708065	0.000334	3.344300	1.133079	0.000134
1799	1.7890e+02	-8.3709	-33.611174	0.000243	2.432218	0.824058	0.000097
1800	1.7900e+02	-8.3196	-33.465837	0.000365	3.648327	1.236087	0.000146
1801	1.7910e+02	-8.2843	-33.316463	0.000375	3.749670	1.270422	0.000150
1802	1.7920e+02	-8.2329	-33.171126	0.000365	3.648327	1.236087	0.000146
1803	1.7930e+02	-8.2024	-33.054049	0.000294	2.938930	0.995736	0.000118
1804	1.7940e+02	-8.1623	-32.941009	0.000284	2.837588	0.961401	0.000114
1805	1.7950e+02	-8.1238	-32.844118	0.000243	2.432218	0.824058	0.000097
1806	1.7960e+02	-8.0805	-32.706855	0.000345	3.445642	1.167415	0.000138
1807	1.7970e+02	-8.0420	-32.638224	0.000172	1.722821	0.583708	0.000069
1808	1.7980e+02	-8.0051	-32.468664	0.000426	4.256382	1.442101	0.000170
1809	1.7990e+02	-7.9650	-32.319290	0.000375	3.749670	1.270422	0.000150
1810	1.8000e+02	-7.9185	-32.182028	0.000345	3.445642	1.167415	0.000138
1811	1.8009e+02	-7.8720	-32.097248	0.000213	2.128191	0.721051	0.000085
1812	1.8019e+02	-7.8399	-31.931725	0.000416	4.155039	1.407765	0.000166
1813	1.8029e+02	-7.8030	-31.786388	0.000365	3.648327	1.236087	0.000146
1814	1.8039e+02	-7.7533	-31.637014	0.000375	3.749670	1.270422	0.000150
1815	1.8049e+02	-7.7196	-31.495714	0.000355	3.546985	1.201751	0.000142
1816	1.8059e+02	-7.6891	-31.350378	0.000365	3.648327	1.236087	0.000146
1817	1.8069e+02	-7.6570	-31.233301	0.000294	2.938930	0.995736	0.000118
1818	1.8079e+02	-7.6009	-31.096038	0.000345	3.445642	1.167415	0.000138
1819	1.8089e+02	-7.5672	-30.954738	0.000355	3.546985	1.201751	0.000142
1820	1.8099e+02	-7.5335	-30.789216	0.000416	4.155039	1.407765	0.000166
1821	1.8109e+02	-7.4821	-30.668102	0.000304	3.040273	1.030072	0.000122
1822	1.8119e+02	-7.4388	-30.571210	0.000243	2.432218	0.824058	0.000097
1823	1.8129e+02	-7.3971	-30.425873	0.000365	3.648327	1.236087	0.000146
1824	1.8139e+02	-7.3586	-30.333019	0.000233	2.330876	0.789722	0.000093
1825	1.8149e+02	-7.3249	-30.232091	0.000253	2.533560	0.858394	0.000101
1826	1.8159e+02	-7.2800	-30.070606	0.000405	4.053697	1.373430	0.000162
1827	1.8169e+02	-7.2431	-29.945454	0.000314	3.141615	1.064408	0.000126
1828	1.8179e+02	-7.2062	-29.820303	0.000314	3.141615	1.064408	0.000126
1829	1.8189e+02	-7.1629	-29.662855	0.000395	3.952354	1.339094	0.000158
1830	1.8199e+02	-7.1244	-29.497332	0.000416	4.155039	1.407765	0.000166
1831	1.8209e+02	-7.0779	-29.376218	0.000304	3.040273	1.030072	0.000122
1832	1.8218e+02	-7.0378	-29.190510	0.000466	4.661751	1.579444	0.000187
1833	1.8228e+02	-7.0041	-29.053247	0.000345	3.445642	1.167415	0.000138
1834	1.8238e+02	-6.9688	-28.940208	0.000284	2.837588	0.961401	0.000114
1835	1.8248e+02	-6.9303	-28.758536	0.000456	4.560409	1.545108	0.000183
1836	1.8258e+02	-6.8822	-28.645497	0.000284	2.837588	0.961401	0.000114
1837	1.8268e+02	-6.8469	-28.496123	0.000375	3.749670	1.270422	0.000150
1838	1.8278e+02	-6.8100	-28.387120	0.000274	2.736245	0.927065	0.000110
1839	1.8288e+02	-6.7667	-28.193337	0.000486	4.864436	1.648116	0.000195
1840	1.8298e+02	-6.7330	-28.112595	0.000203	2.026848	0.686715	0.000081
1841	1.8308e+02	-6.6929	-28.011666	0.000253	2.533560	0.858394	0.000101
1842	1.8318e+02	-6.6431	-27.785587	0.000568	5.675175	1.922802	0.000227
1843	1.8328e+02	-6.6030	-27.692733	0.000233	2.330876	0.789722	0.000093
1844	1.8338e+02	-6.5677	-27.616027	0.000193	1.925506	0.652379	0.000077
1845	1.8348e+02	-6.5244	-27.458579	0.000395	3.952354	1.339094	0.000158
1846	1.8358e+02	-6.4859	-27.329390	0.000324	3.242957	1.098744	0.000130
1847	1.8368e+02	-6.4474	-27.180016	0.000375	3.749670	1.270422	0.000150
1848	1.8378e+02	-6.4057	-27.066977	0.000284	2.837588	0.961401	0.000114
1849	1.8388e+02	-6.3720	-26.909528	0.000395	3.952354	1.339094	0.000158
1850	1.8398e+02	-6.3287	-26.784377	0.000314	3.141615	1.064408	0.000126
1851	1.8407e+02	-6.2854	-26.574446	0.000527	5.269806	1.785459	0.000211
1852	1.8417e+02	-6.2581	-26.457369	0.000294	2.938930	0.995736	0.000118
1853	1.8427e+02	-6.2132	-26.271661	0.000466	4.661751	1.579444	0.000187
1854	1.8437e+02	-6.1731	-26.186881	0.000213	2.128191	0.721051	0.000085
1855	1.8447e+02	-6.1362	-26.049618	0.000345	3.445642	1.167415	0.000138
1856	1.8457e+02	-6.0929	-25.871984	0.000446	4.459066	1.510773	0.000179
1857	1.8467e+02	-6.0592	-25.762982	0.000274	2.736245	0.927065	0.000110
1858	1.8477e+02	-6.0111	-25.629756	0.000334	3.344300	1.133079	0.000134
1859	1.8487e+02	-5.9758	-25.508642	0.000304	3.040273	1.030072	0.000122
1860	1.8497e+02	-5.9276	-25.335045	0.000436	4.357724	1.476437	0.000174
1861	1.8507e+02	-5.8907	-25.234117	0.000253	2.533560	0.858394	0.000101
1862	1.8517e+02	-5.8490	-25.076669	0.000395	3.952354	1.339094	0.000158
1863	1.8527e+02	-5.8137	-24.979777	0.000243	2.432218	0.824058	0.000097
1864	1.8537e+02	-5.7704	-24.870775	0.000274	2.736245	0.927065	0.000110
1865	1.8547e+02	-5.7367	-24.681029	0.000476	4.763094	1.613780	0.000191
1866	1.8557e+02	-5.6934	-24.580101	0.000253	2.533560	0.858394	0.000101
1867	1.8567e+02	-5.6501	-24.398430	0.000456	4.560409	1.545108	0.000183
1868	1.8577e+02	-5.6132	-24.277316	0.000304	3.040273	1.030072	0.000122
1869	1.8587e+02	-5.5651	-24.095645	0.000456	4.560409	1.545108	0.000183
1870	1.8597e+02	-5.5234	-23.954345	0.000355	3.546985	1.201751	0.000142
1871	1.8606e+02	-5.5025	-23.873602	0.000203	2.026848	0.686715	0.000081
1872	1.8616e+02	-5.4592	-23.675783	0.000497	4.965779	1.682451	0.000199
1873	1.8626e+02	-5.4159	-23.550631	0.000314	3.141615	1.064408	0.000126
1874	1.8636e+02	-5.3742	-23.417406	0.000334	3.344300	1.133079	0.000134
1875	1.8646e+02	-5.3405	-23.268032	0.000375	3.749670	1.270422	0.000150
1876	1.8656e+02	-5.2876	-23.090398	0.000446	4.459066	1.510773	0.000179
1877	1.8666e+02	-5.2603	-22.941024	0.000375	3.749670	1.270422	0.000150
1878	1.8676e+02	-5.2154	-22.803761	0.000345	3.445642	1.167415	0.000138
1879	1.8686e+02	-5.1704	-22.702833	0.000253	2.533560	0.858394	0.000101
1880	1.8696e+02	-5.1448	-22.557496	0.000365	3.648327	1.236087	0.000146
1881	1.8706e+02	-5.0886	-22.452530	0.000263	2.634903	0.892729	0.000105
1882	1.8716e+02	-5.0565	-22.339491	0.000284	2.837588	0.961401	0.000114
1883	1.8726e+02	-5.0068	-22.190117	0.000375	3.749670	1.270422	0.000150
1884	1.8736e+02	-4.9651	-22.056891	0.000334	3.344300	1.133079	0.000134
1885	1.8746e+02	-4.9330	-21.899443	0.000395	3.952354	1.339094	0.000158
1886	1.8756e+02	-4.8977	-21.737957	0.000405	4.053697	1.373430	0.000162
1887	1.8766e+02	-4.8624	-21.584546	0.000385	3.851012	1.304758	0.000154
1888	1.8776e+02	-4.8191	-21.414987	0.000426	4.256382	1.442101	0.000170
1889	1.8786e+02	-4.7774	-21.293872	0.000304	3.040273	1.030072	0.000122
1890	1.8796e+02	-4.7341	-21.140461	0.000385	3.851012	1.304758	0.000154
1891	1.8806e+02	-4.6940	-21.015310	0.000314	3.141615	1.064408	0.000126
1892	1.8815e+02	-4.6571	-20.845750	0.000426	4.256382	1.442101	0.000170
1893	1.8825e+02	-4.6138	-20.728673	0.000294	2.938930	0.995736	0.000118
1894	1.8835e+02	-4.5833	-20.563151	0.000416	4.155039	1.407765	0.000166
1895	1.8845e+02	-4.5432	-20.458185	0.000263	2.634903	0.892729	0.000105
1896	1.8855e+02	-4.4935	-20.252291	0.000517	5.168463	1.751123	0.000207
1897	1.8865e+02	-4.4646	-20.127140	0.000314	3.141615	1.064408	0.000126
1898	1.8875e+02	-4.4213	-20.010063	0.000294	2.938930	0.995736	0.000118
1899	1.8885e+02	-4.3731	-19.892986	0.000294	2.938930	0.995736	0.000118
1900	1.8895e+02	-4.3459	-19.779947	0.000284	2.837588	0.961401	0.000114
1901	1.8905e+02	-4.3042	-19.590201	0.000476	4.763094	1.613780	0.000191
1902	1.8915e+02	-4.2673	-19.505421	0.000213	2.128191	0.721051	0.000085
1903	1.8925e+02	-4.2127	-19.327787	0.000446	4.459066	1.510773	0.000179
1904	1.8935e+02	-4.1774	-19.190525	0.000345	3.445642	1.167415	0.000138
1905	1.8945e+02	-4.1341	-18.976557	0.000537	5.371148	1.819794	0.000215
1906	1.8955e+02	-4.1068	-18.851405	0.000314	3.141615	1.064408	0.000126
1907	1.8965e+02	-4.0619	-18.718180	0.000334	3.344300	1.133079	0.000134
1908	1.8975e+02	-4.0218	-18.572843	0.000365	3.648327	1.236087	0.000146
1909	1.8985e+02	-3.9865	-18.415395	0.000395	3.952354	1.339094	0.000158
1910	1.8995e+02	-3.9416	-18.237761	0.000446	4.459066	1.510773	0.000179
1911	1.9004e+02	-3.8951	-18.124721	0.000284	2.837588	0.961401	0.000114
1912	1.9014e+02	-3.8582	-17.995533	0.000324	3.242957	1.098744	0.000130
1913	1.9024e+02	-3.8245	-17.850196	0.000365	3.648327	1.236087	0.000146
1914	1.9034e+02	-3.7828	-17.680636	0.000426	4.256382	1.442101	0.000170
1915	1.9044e+02	-3.7475	-17.563559	0.000294	2.938930	0.995736	0.000118
1916	1.9054e+02	-3.7042	-17.442445	0.000304	3.040273	1.030072	0.000122
1917	1.9064e+02	-3.6593	-17.284997	0.000395	3.952354	1.339094	0.000158
1918	1.9074e+02	-3.6208	-17.224440	0.000152	1.520136	0.515036	0.000061
1919	1.9084e+02	-3.5678	-17.038731	0.000466	4.661751	1.579444	0.000187
1920	1.9094e+02	-3.5486	-16.909543	0.000324	3.242957	1.098744	0.000130
1921	1.9104e+02	-3.5052	-16.780355	0.000324	3.242957	1.098744	0.000130
1922	1.9114e+02	-3.4667	-16.651166	0.000324	3.242957	1.098744	0.000130
1923	1.9124e+02	-3.4234	-16.453347	0.000497	4.965779	1.682451	0.000199
1924	1.9134e+02	-3.3753	-16.283787	0.000426	4.256382	1.442101	0.000170
1925	1.9144e+02	-3.3496	-16.158636	0.000314	3.141615	1.064408	0.000126
1926	1.9154e+02	-3.2983	-16.013299	0.000365	3.648327	1.236087	0.000146
1927	1.9164e+02	-3.2662	-15.863925	0.000375	3.749670	1.270422	0.000150
1928	1.9174e+02	-3.2181	-15.690328	0.000436	4.357724	1.476437	0.000174
1929	1.9184e+02	-3.1828	-15.609585	0.000203	2.026848	0.686715	0.000081
1930	1.9194e+02	-3.1475	-15.468286	0.000355	3.546985	1.201751	0.000142
1931	1.9203e+02	-3.1090	-15.282577	0.000466	4.661751	1.579444	0.000187
1932	1.9213e+02	-3.0625	-15.173575	0.000274	2.736245	0.927065	0.000110
1933	1.9223e+02	-3.0272	-14.991904	0.000456	4.560409	1.545108	0.000183
1934	1.9233e+02	-2.9791	-14.899049	0.000233	2.330876	0.789722	0.000093
1935	1.9243e+02	-2.9406	-14.757750	0.000355	3.546985	1.201751	0.000142
1936	1.9253e+02	-2.8956	-14.656821	0.000253	2.533560	0.858394	0.000101
1937	1.9263e+02	-2.8636	-14.479187	0.000446	4.459066	1.510773	0.000179
1938	1.9273e+02	-2.8202	-14.370185	0.000274	2.736245	0.927065	0.000110
1939	1.9283e+02	-2.7898	-14.188514	0.000456	4.560409	1.545108	0.000183
1940	1.9293e+02	-2.7352	-14.059325	0.000324	3.242957	1.098744	0.000130
1941	1.9303e+02	-2.7063	-13.881691	0.000446	4.459066	1.510773	0.000179
1942	1.9313e+02	-2.6630	-13.708094	0.000436	4.357724	1.476437	0.000174
1943	1.9323e+02	-2.6229	-13.526423	0.000456	4.560409	1.545108	0.000183
1944	1.9333e+02	-2.5908	-13.437606	0.000223	2.229533	0.755386	0.000089
1945	1.9343e+02	-2.5427	-13.272084	0.000416	4.155039	1.407765	0.000166
1946	1.9353e+02	-2.5090	-13.094450	0.000446	4.459066	1.510773	0.000179
1947	1.9363e+02	-2.4625	-12.965261	0.000324	3.242957	1.098744	0.000130
1948	1.9373e+02	-2.4272	-12.836073	0.000324	3.242957	1.098744	0.000130
1949	1.9383e+02	-2.3855	-12.702848	0.000334	3.344300	1.133079	0.000134
1950	1.9393e+02	-2.3470	-12.569622	0.000334	3.344300	1.133079	0.000134
1951	1.9403e+02	-2.3117	-12.400062	0.000426	4.256382	1.442101	0.000170
1952	1.9412e+02	-2.2572	-12.254726	0.000365	3.648327	1.236087	0.000146
1953	1.9422e+02	-2.2251	-12.141686	0.000284	2.837588	0.961401	0.000114
1954	1.9432e+02	-2.1946	-12.032683	0.000274	2.736245	0.927065	0.000110
1955	1.9442e+02	-2.1449	-11.883309	0.000375	3.749670	1.270422	0.000150
1956	1.9452e+02	-2.1048	-11.725861	0.000395	3.952354	1.339094	0.000158
1957	1.9462e+02	-2.0598	-11.588598	0.000345	3.445642	1.167415	0.000138
1958	1.9472e+02	-2.0326	-11.415001	0.000436	4.357724	1.476437	0.000174
1959	1.9482e+02	-1.9941	-11.281776	0.000334	3.344300	1.133079	0.000134
1960	1.9492e+02	-1.9443	-11.075882	0.000517	5.168463	1.751123	0.000207
1961	1.9502e+02	-1.9122	-10.918434	0.000395	3.952354	1.339094	0.000158
1962	1.9512e+02	-1.8705	-10.817505	0.000253	2.533560	0.858394	0.000101
1963	1.9522e+02	-1.8352	-10.631797	0.000466	4.661751	1.579444	0.000187
1964	1.9532e+02	-1.7855	-10.470312	0.000405	4.053697	1.373430	0.000162
1965	1.9542e+02	-1.7438	-10.337086	0.000334	3.344300	1.133079	0.000134
1966	1.9552e+02	-1.7149	-10.171563	0.000416	4.155039	1.407765	0.000166
1967	1.9562e+02	-1.6668	-10.038338	0.000334	3.344300	1.133079	0.000134
1968	1.9572e+02	-1.6235	-9.901075	0.000345	3.445642	1.167415	0.000138
1969	1.9582e+02	-1.5930	-9.783998	0.000294	2.938930	0.995736	0.000118
1970	1.9592e+02	-1.5449	-9.618476	0.000416	4.155039	1.407765	0.000166
1971	1.9601e+02	-1.5128	-9.489288	0.000324	3.242957	1.098744	0.000130
1972	1.9611e+02	-1.4775	-9.339914	0.000375	3.749670	1.270422	0.000150
1973	1.9621e+02	-1.4278	-9.214762	0.000314	3.141615	1.064408	0.000126
1974	1.9631e+02	-1.3893	-9.077500	0.000345	3.445642	1.167415	0.000138
1975	1.9641e+02	-1.3572	-8.928126	0.000375	3.749670	1.270422	0.000150
1976	1.9651e+02	-1.3107	-8.762603	0.000416	4.155039	1.407765	0.000166
1977	1.9661e+02	-1.2673	-8.597081	0.000416	4.155039	1.407765	0.000166
1978	1.9671e+02	-1.2337	-8.455781	0.000355	3.546985	1.201751	0.000142
1979	1.9681e+02	-1.1887	-8.286221	0.000426	4.256382	1.442101	0.000170
1980	1.9691e+02	-1.1502	-8.112624	0.000436	4.357724	1.476437	0.000174
1981	1.9701e+02	-1.1069	-7.951139	0.000405	4.053697	1.373430	0.000162
1982	1.9711e+02	-1.0796	-7.850210	0.000253	2.533560	0.858394	0.000101
1983	1.9721e+02	-1.0347	-7.725059	0.000314	3.141615	1.064408	0.000126
1984	1.9731e+02	-0.9946	-7.559537	0.000416	4.155039	1.407765	0.000166
1985	1.9741e+02	-0.9465	-7.414200	0.000365	3.648327	1.236087	0.000146
1986	1.9751e+02	-0.9192	-7.276937	0.000345	3.445642	1.167415	0.000138
1987	1.9761e+02	-0.8759	-7.139675	0.000345	3.445642	1.167415	0.000138
1988	1.9771e+02	-0.8374	-6.970115	0.000426	4.256382	1.442101	0.000170
1989	1.9781e+02	-0.7925	-6.873224	0.000243	2.432218	0.824058	0.000097
1990	1.9791e+02	-0.7524	-6.731924	0.000355	3.546985	1.201751	0.000142
1991	1.9800e+02	-0.7123	-6.606773	0.000314	3.141615	1.064408	0.000126
1992	1.9810e+02	-0.6738	-6.404916	0.000507	5.067121	1.716787	0.000203
1993	1.9820e+02	-0.6353	-6.263616	0.000355	3.546985	1.201751	0.000142
1994	1.9830e+02	-0.5952	-6.130391	0.000334	3.344300	1.133079	0.000134
1995	1.9840e+02	-0.5470	-5.940645	0.000476	4.763094	1.613780	0.000191
1996	1.9850e+02	-0.5150	-5.807420	0.000334	3.344300	1.133079	0.000134
1997	1.9860e+02	-0.4797	-5.658046	0.000375	3.749670	1.270422	0.000150
1998	1.9870e+02	-0.4315	-5.460226	0.000497	4.965779	1.682451	0.000199
1999	1.9880e+02	-0.3914	-5.327001	0.000334	3.344300	1.133079	0.000134
2000	1.9890e+02	-0.3497	-5.157441	0.000426	4.256382	1.442101	0.000170
2001	1.9900e+02	-0.3144	-5.020178	0.000345	3.445642	1.167415	0.000138
2002	1.9910e+02	-0.2759	-4.870804	0.000375	3.749670	1.270422	0.000150
2003	1.9920e+02	-0.2390	-4.677022	0.000486	4.864436	1.648116	0.000195
2004	1.9930e+02	-0.1941	-4.523611	0.000385	3.851012	1.304758	0.000154
2005	1.9940e+02	-0.1540	-4.398459	0.000314	3.141615	1.064408	0.000126
2006	1.9950e+02	-0.1091	-4.253123	0.000365	3.648327	1.236087	0.000146
2007	1.9960e+02	-0.0690	-4.132008	0.000304	3.040273	1.030072	0.000122
2008	1.9970e+02	-0.0369	-3.998783	0.000334	3.344300	1.133079	0.000134
2009	1.9980e+02	0.0064	-3.869595	0.000334	3.344300	1.133079	0.000130

PMax (uC/cm2):	7.61e+01
Pr (uC/cm2):	1.18e+01
-Pr (uC/cm2):	5.25e+00
PLoss (uC/cm2):	5.19e+00
Vc:	-1.40e+00
-Vc:	-3.14e+00
C (Max-Eff) (nF):	3.81e-01
K (Eff):	1.29e+03
Vert. (+/-Pr) Shift (uC/cm2):	8.55e+00
Horiz. Shift (+/-Vc):	-2.27e+00
Offset (uC/cm2):	9.12e+00

A (Loop Area - uC/cm2·Volts):	-3.50e-01



Hysteresis Version: 5.48.1 - Radiant Technologies, Inc., 1999 - 9/12/24

