»»»»»»»»»»»»»»»»»»»»»»»»»»»»»»»»»»»» Hysteresis ««««««««««««««««««««««««««««««««««««
»»»  Executed Version:	5.48.1
»»»  Vision Version:	5.48.4 (R)
»»»  Vision Compiled:	9/18/24
»»»  Driver Version:	5.47.0
»»»  Windows Version:	Windows 8 or 8.1
»»»  Processor Information:	x86 (AMD or Intel) - 32 Processors
»»»  Tester Name:	PMF21124-494 (100V)
»»»  Tester S/N:	PMF21124-494
»»»  Internal Amp Type:	100V RevK 270k
»»»  Internal Amp S/N:	iAB2-596/K     
»»»  Execution Count:	1
»»»»»»»»»»»»»»»»»»»»»»»»»»»»»»»»»»»»»»»»»»««««««««««««««««««««««««««««««««««««««««««

Stored:	6/19/2025 - 15:11:24
Configured:	06/19/25 10:04:32 AM
Executed:	06/19/25 03:11:00 PM

»»»»»»»»»»»»»»»»»»»»»»»»»»»»»»»»»»» Sample Info ««««««««««««««««««««««««««««««««««««
Sample Name:	
Lot Name:	
Wafer Name:	
Die Row/Column:	0/0
Capacitor Number:	0
Sample Area (cm2):	1.00e-04
Sample Thickness (microns):	3.00e-01

Amplifier:	Internal

»»»»»»»»»»»»»»»»»»»»»»»»»»»»»»»»»»» Tester Info «««««««««««««««««««««««««««««««««««
Tester Name:	PMF21124-494 (100V)
Tester Serial Number:	PMF21124-494
Return Signal Amp. Level:	0.19 [Index: 3]

»»»»»»»»»»»»»»»»»»»»»»»»»»»»»»»» Hysteresis Info ««««««««««««««««««««««««««««««««««
Task Name:	Hyst-1168
Volts:	20.00
Field:	666.67 (kV/cm)
DCBias:	0.00
DCField:	0.00 (kV/cm)
Hysteresis Period (ms):	2.00e+02
Preset:	Enabled
Preset Delay (ms):	1.00e+03
Profile:	Standard Bipolar

»»»»»»»»»»»»»»»»»»»»»»»»»»»»»»»»»»»»»» Data «««««««««««««««««««««««««««««««««««««««
Points:	2009

Valid Data

Point	Time (ms)	Drive Voltage	Measured Polarization (uC/cm2)	Capacitance (uF)	Normalized Capacitance (uF/cm2)	Dielectric Constant	Instantaneous Current (mA)
   1	0.0000e+00	0.0064	-8.558728	0.000284	2.837986	0.961536	0.000114
   2	9.9500e-02	0.0369	-8.445688	0.000284	2.837986	0.961536	0.000114
   3	1.9900e-01	0.0770	-8.324574	0.000304	3.040699	1.030217	0.000122
   4	2.9850e-01	0.1107	-8.199423	0.000314	3.142056	1.064557	0.000126
   5	3.9800e-01	0.1733	-8.033900	0.000416	4.155623	1.407963	0.000166
   6	4.9750e-01	0.1989	-7.928935	0.000264	2.635273	0.892855	0.000105
   7	5.9700e-01	0.2326	-7.739189	0.000476	4.763762	1.614006	0.000191
   8	6.9650e-01	0.2775	-7.597889	0.000355	3.547483	1.201920	0.000142
   9	7.9600e-01	0.3128	-7.468701	0.000324	3.243413	1.098898	0.000130
  10	8.9550e-01	0.3497	-7.295104	0.000436	4.358336	1.476644	0.000174
  11	9.9500e-01	0.3882	-7.169953	0.000314	3.142056	1.064557	0.000126
  12	1.0945e+00	0.4380	-7.024616	0.000365	3.648839	1.236260	0.000146
  13	1.1940e+00	0.4700	-6.907539	0.000294	2.939343	0.995876	0.000118
  14	1.2935e+00	0.5134	-6.786425	0.000304	3.040699	1.030217	0.000122
  15	1.3930e+00	0.5535	-6.628977	0.000395	3.952909	1.339282	0.000158
  16	1.4925e+00	0.5952	-6.467491	0.000405	4.054266	1.373622	0.000162
  17	1.5920e+00	0.6385	-6.354452	0.000284	2.837986	0.961536	0.000114
  18	1.6915e+00	0.6770	-6.213152	0.000355	3.547483	1.201920	0.000142
  19	1.7910e+00	0.7075	-6.096075	0.000294	2.939343	0.995876	0.000118
  20	1.8905e+00	0.7556	-5.950738	0.000365	3.648839	1.236260	0.000146
  21	1.9900e+00	0.7941	-5.777141	0.000436	4.358336	1.476644	0.000174
  22	2.0895e+00	0.8358	-5.664101	0.000284	2.837986	0.961536	0.000114
  23	2.1890e+00	0.8759	-5.510690	0.000385	3.851553	1.304941	0.000154
  24	2.2885e+00	0.9112	-5.365353	0.000365	3.648839	1.236260	0.000146
  25	2.3880e+00	0.9545	-5.236165	0.000324	3.243413	1.098898	0.000130
  26	2.4875e+00	0.9898	-5.090828	0.000365	3.648839	1.236260	0.000146
  27	2.5870e+00	1.0315	-4.893009	0.000497	4.966476	1.682688	0.000199
  28	2.6865e+00	1.0780	-4.743634	0.000375	3.750196	1.270601	0.000150
  29	2.7860e+00	1.1021	-4.574075	0.000426	4.256979	1.442304	0.000170
  30	2.8855e+00	1.1518	-4.436812	0.000345	3.446126	1.167579	0.000138
  31	2.9850e+00	1.1919	-4.291475	0.000365	3.648839	1.236260	0.000146
  32	3.0845e+00	1.2353	-4.158250	0.000334	3.344769	1.133239	0.000134
  33	3.1840e+00	1.2706	-4.000802	0.000395	3.952909	1.339282	0.000158
  34	3.2835e+00	1.3074	-3.863539	0.000345	3.446126	1.167579	0.000138
  35	3.3830e+00	1.3492	-3.714165	0.000375	3.750196	1.270601	0.000150
  36	3.4825e+00	1.3909	-3.653608	0.000152	1.520350	0.515108	0.000061
  37	3.5820e+00	1.4406	-3.484048	0.000426	4.256979	1.442304	0.000170
  38	3.6815e+00	1.4807	-3.326600	0.000395	3.952909	1.339282	0.000158
  39	3.7810e+00	1.5208	-3.181263	0.000365	3.648839	1.236260	0.000146
  40	3.8805e+00	1.5513	-3.039963	0.000355	3.547483	1.201920	0.000142
  41	3.9800e+00	1.5898	-2.898663	0.000355	3.547483	1.201920	0.000142
  42	4.0795e+00	1.6395	-2.737178	0.000405	4.054266	1.373622	0.000162
  43	4.1790e+00	1.6748	-2.628175	0.000274	2.736630	0.927195	0.000110
  44	4.2785e+00	1.7181	-2.426319	0.000507	5.067832	1.717028	0.000203
  45	4.3780e+00	1.7566	-2.256759	0.000426	4.256979	1.442304	0.000170
  46	4.4775e+00	1.7871	-2.151793	0.000264	2.635273	0.892855	0.000105
  47	4.5770e+00	1.8272	-1.962048	0.000476	4.763762	1.614006	0.000191
  48	4.6765e+00	1.8657	-1.820748	0.000355	3.547483	1.201920	0.000142
  49	4.7760e+00	1.9106	-1.667337	0.000385	3.851553	1.304941	0.000154
  50	4.8755e+00	1.9556	-1.530074	0.000345	3.446126	1.167579	0.000138
  51	4.9750e+00	1.9909	-1.392812	0.000345	3.446126	1.167579	0.000138
  52	5.0745e+00	2.0326	-1.235364	0.000395	3.952909	1.339282	0.000158
  53	5.1740e+00	2.0727	-1.106175	0.000324	3.243413	1.098898	0.000130
  54	5.2735e+00	2.1096	-1.005247	0.000253	2.533916	0.858514	0.000101
  55	5.3730e+00	2.1561	-0.896244	0.000274	2.736630	0.927195	0.000110
  56	5.4725e+00	2.1802	-0.718610	0.000446	4.459693	1.510985	0.000179
  57	5.5720e+00	2.2299	-0.589422	0.000324	3.243413	1.098898	0.000130
  58	5.6715e+00	2.2684	-0.411788	0.000446	4.459693	1.510985	0.000179
  59	5.7710e+00	2.3101	-0.318934	0.000233	2.331203	0.789833	0.000093
  60	5.8705e+00	2.3422	-0.141300	0.000446	4.459693	1.510985	0.000179
  61	5.9700e+00	2.3903	0.012111	0.000385	3.851553	1.304941	0.000154
  62	6.0695e+00	2.4288	0.165523	0.000385	3.851553	1.304941	0.000154
  63	6.1690e+00	2.4689	0.331045	0.000416	4.155623	1.407963	0.000166
  64	6.2685e+00	2.5042	0.484456	0.000385	3.851553	1.304941	0.000154
  65	6.3680e+00	2.5507	0.674202	0.000476	4.763762	1.614006	0.000191
  66	6.4675e+00	2.5924	0.819539	0.000365	3.648839	1.236260	0.000146
  67	6.5670e+00	2.6229	0.993135	0.000436	4.358336	1.476644	0.000174
  68	6.6665e+00	2.6759	1.170769	0.000446	4.459693	1.510985	0.000179
  69	6.7660e+00	2.7015	1.263623	0.000233	2.331203	0.789833	0.000093
  70	6.8655e+00	2.7416	1.417035	0.000385	3.851553	1.304941	0.000154
  71	6.9650e+00	2.7882	1.586594	0.000426	4.256979	1.442304	0.000170
  72	7.0645e+00	2.8395	1.703671	0.000294	2.939343	0.995876	0.000118
  73	7.1640e+00	2.8716	1.840934	0.000345	3.446126	1.167579	0.000138
  74	7.2635e+00	2.9117	1.982234	0.000355	3.547483	1.201920	0.000142
  75	7.3630e+00	2.9438	2.131608	0.000375	3.750196	1.270601	0.000150
  76	7.4625e+00	2.9839	2.240610	0.000274	2.736630	0.927195	0.000110
  77	7.5620e+00	3.0384	2.398059	0.000395	3.952909	1.339282	0.000158
  78	7.6615e+00	3.0673	2.555507	0.000395	3.952909	1.339282	0.000158
  79	7.7610e+00	3.1042	2.716992	0.000405	4.054266	1.373622	0.000162
  80	7.8605e+00	3.1443	2.886552	0.000426	4.256979	1.442304	0.000170
  81	7.9600e+00	3.1860	3.048037	0.000405	4.054266	1.373622	0.000162
  82	8.0595e+00	3.2181	3.233746	0.000466	4.662406	1.579666	0.000187
  83	8.1590e+00	3.2614	3.379083	0.000365	3.648839	1.236260	0.000146
  84	8.2585e+00	3.2967	3.572865	0.000487	4.865119	1.648347	0.000195
  85	8.3580e+00	3.3464	3.653608	0.000203	2.027133	0.686811	0.000081
  86	8.4575e+00	3.3801	3.847390	0.000487	4.865119	1.648347	0.000195
  87	8.5570e+00	3.4250	4.020987	0.000436	4.358336	1.476644	0.000174
  88	8.6565e+00	3.4619	4.142101	0.000304	3.040699	1.030217	0.000122
  89	8.7560e+00	3.5165	4.299550	0.000395	3.952909	1.339282	0.000158
  90	8.8555e+00	3.5373	4.412589	0.000284	2.837986	0.961536	0.000114
  91	8.9550e+00	3.5790	4.590223	0.000446	4.459693	1.510985	0.000179
  92	9.0545e+00	3.6256	4.719412	0.000324	3.243413	1.098898	0.000130
  93	9.1540e+00	3.6641	4.852637	0.000334	3.344769	1.133239	0.000134
  94	9.2535e+00	3.7154	4.969714	0.000294	2.939343	0.995876	0.000118
  95	9.3530e+00	3.7523	5.167534	0.000497	4.966476	1.682688	0.000199
  96	9.4525e+00	3.7924	5.308833	0.000355	3.547483	1.201920	0.000142
  97	9.5520e+00	3.8293	5.438022	0.000324	3.243413	1.098898	0.000130
  98	9.6515e+00	3.8630	5.611619	0.000436	4.358336	1.476644	0.000174
  99	9.7510e+00	3.9047	5.781178	0.000426	4.256979	1.442304	0.000170
 100	9.8505e+00	3.9400	5.978998	0.000497	4.966476	1.682688	0.000199
 101	9.9500e+00	3.9865	6.104149	0.000314	3.142056	1.064557	0.000126
 102	1.0050e+01	4.0202	6.301969	0.000497	4.966476	1.682688	0.000199
 103	1.0149e+01	4.0619	6.463454	0.000405	4.054266	1.373622	0.000162
 104	1.0248e+01	4.1020	6.600717	0.000345	3.446126	1.167579	0.000138
 105	1.0348e+01	4.1341	6.737980	0.000345	3.446126	1.167579	0.000138
 106	1.0447e+01	4.1870	6.891391	0.000385	3.851553	1.304941	0.000154
 107	1.0547e+01	4.2288	7.093247	0.000507	5.067832	1.717028	0.000203
 108	1.0646e+01	4.2624	7.222436	0.000324	3.243413	1.098898	0.000130
 109	1.0746e+01	4.2945	7.343550	0.000304	3.040699	1.030217	0.000122
 110	1.0845e+01	4.3523	7.509072	0.000416	4.155623	1.407963	0.000166
 111	1.0945e+01	4.3812	7.638261	0.000324	3.243413	1.098898	0.000130
 112	1.1044e+01	4.4213	7.771486	0.000334	3.344769	1.133239	0.000134
 113	1.1144e+01	4.4662	7.941046	0.000426	4.256979	1.442304	0.000170
 114	1.1243e+01	4.5079	8.074271	0.000334	3.344769	1.133239	0.000134
 115	1.1343e+01	4.5448	8.203460	0.000324	3.243413	1.098898	0.000130
 116	1.1443e+01	4.5833	8.393205	0.000476	4.763762	1.614006	0.000191
 117	1.1542e+01	4.6266	8.558728	0.000416	4.155623	1.407963	0.000166
 118	1.1642e+01	4.6555	8.716176	0.000395	3.952909	1.339282	0.000158
 119	1.1741e+01	4.7068	8.897847	0.000456	4.561049	1.545325	0.000183
 120	1.1841e+01	4.7373	9.079518	0.000456	4.561049	1.545325	0.000183
 121	1.1940e+01	4.7790	9.224855	0.000365	3.648839	1.236260	0.000146
 122	1.2040e+01	4.8207	9.414601	0.000476	4.763762	1.614006	0.000191
 123	1.2139e+01	4.8512	9.531677	0.000294	2.939343	0.995876	0.000118
 124	1.2239e+01	4.8961	9.713349	0.000456	4.561049	1.545325	0.000183
 125	1.2338e+01	4.9394	9.862723	0.000375	3.750196	1.270601	0.000150
 126	1.2438e+01	4.9763	10.040357	0.000446	4.459693	1.510985	0.000179
 127	1.2537e+01	5.0245	10.185693	0.000365	3.648839	1.236260	0.000146
 128	1.2636e+01	5.0517	10.314882	0.000324	3.243413	1.098898	0.000130
 129	1.2736e+01	5.0950	10.427922	0.000284	2.837986	0.961536	0.000114
 130	1.2835e+01	5.1496	10.625741	0.000497	4.966476	1.682688	0.000199
 131	1.2935e+01	5.1801	10.730707	0.000264	2.635273	0.892855	0.000105
 132	1.3034e+01	5.2186	10.912378	0.000456	4.561049	1.545325	0.000183
 133	1.3134e+01	5.2587	11.073863	0.000405	4.054266	1.373622	0.000162
 134	1.3233e+01	5.3004	11.211126	0.000345	3.446126	1.167579	0.000138
 135	1.3333e+01	5.3405	11.388760	0.000446	4.459693	1.510985	0.000179
 136	1.3432e+01	5.3742	11.538134	0.000375	3.750196	1.270601	0.000150
 137	1.3532e+01	5.4127	11.760176	0.000557	5.574616	1.888731	0.000223
 138	1.3632e+01	5.4592	11.945885	0.000466	4.662406	1.579666	0.000187
 139	1.3731e+01	5.5041	12.083147	0.000345	3.446126	1.167579	0.000138
 140	1.3831e+01	5.5266	12.285004	0.000507	5.067832	1.717028	0.000203
 141	1.3930e+01	5.5635	12.438415	0.000385	3.851553	1.304941	0.000154
 142	1.4030e+01	5.6116	12.567604	0.000324	3.243413	1.098898	0.000130
 143	1.4129e+01	5.6533	12.749275	0.000456	4.561049	1.545325	0.000183
 144	1.4229e+01	5.6886	12.922871	0.000436	4.358336	1.476644	0.000174
 145	1.4328e+01	5.7367	13.076283	0.000385	3.851553	1.304941	0.000154
 146	1.4428e+01	5.7768	13.237768	0.000405	4.054266	1.373622	0.000162
 147	1.4527e+01	5.8218	13.366956	0.000324	3.243413	1.098898	0.000130
 148	1.4627e+01	5.8571	13.479996	0.000284	2.837986	0.961536	0.000114
 149	1.4726e+01	5.9036	13.665704	0.000466	4.662406	1.579666	0.000187
 150	1.4825e+01	5.9341	13.794893	0.000324	3.243413	1.098898	0.000130
 151	1.4925e+01	5.9694	13.980601	0.000466	4.662406	1.579666	0.000187
 152	1.5024e+01	6.0127	14.109789	0.000324	3.243413	1.098898	0.000130
 153	1.5124e+01	6.0431	14.303572	0.000487	4.865119	1.648347	0.000195
 154	1.5223e+01	6.0865	14.485243	0.000456	4.561049	1.545325	0.000183
 155	1.5323e+01	6.1378	14.683063	0.000497	4.966476	1.682688	0.000199
 156	1.5422e+01	6.1763	14.820325	0.000345	3.446126	1.167579	0.000138
 157	1.5522e+01	6.2116	15.010071	0.000476	4.763762	1.614006	0.000191
 158	1.5621e+01	6.2597	15.159445	0.000375	3.750196	1.270601	0.000150
 159	1.5721e+01	6.2950	15.312856	0.000385	3.851553	1.304941	0.000154
 160	1.5820e+01	6.3351	15.494527	0.000456	4.561049	1.545325	0.000183
 161	1.5920e+01	6.3704	15.656012	0.000405	4.054266	1.373622	0.000162
 162	1.6020e+01	6.4137	15.785201	0.000324	3.243413	1.098898	0.000130
 163	1.6119e+01	6.4474	16.003206	0.000547	5.473259	1.854390	0.000219
 164	1.6218e+01	6.5020	16.079912	0.000193	1.925776	0.652471	0.000077
 165	1.6318e+01	6.5324	16.249471	0.000426	4.256979	1.442304	0.000170
 166	1.6418e+01	6.5790	16.410957	0.000405	4.054266	1.373622	0.000162
 167	1.6517e+01	6.6159	16.495737	0.000213	2.128490	0.721152	0.000085
 168	1.6616e+01	6.6463	16.685482	0.000476	4.763762	1.614006	0.000191
 169	1.6716e+01	6.6929	16.838893	0.000385	3.851553	1.304941	0.000154
 170	1.6816e+01	6.7265	17.016527	0.000446	4.459693	1.510985	0.000179
 171	1.6915e+01	6.7779	17.194161	0.000446	4.459693	1.510985	0.000179
 172	1.7015e+01	6.8068	17.315275	0.000304	3.040699	1.030217	0.000122
 173	1.7114e+01	6.8469	17.509058	0.000487	4.865119	1.648347	0.000195
 174	1.7213e+01	6.8773	17.662469	0.000385	3.851553	1.304941	0.000154
 175	1.7313e+01	6.9303	17.860289	0.000497	4.966476	1.682688	0.000199
 176	1.7413e+01	6.9688	18.033885	0.000436	4.358336	1.476644	0.000174
 177	1.7512e+01	7.0057	18.215556	0.000456	4.561049	1.545325	0.000183
 178	1.7611e+01	7.0426	18.324559	0.000274	2.736630	0.927195	0.000110
 179	1.7711e+01	7.0827	18.530453	0.000517	5.169189	1.751369	0.000207
 180	1.7811e+01	7.1212	18.659641	0.000324	3.243413	1.098898	0.000130
 181	1.7910e+01	7.1773	18.841312	0.000456	4.561049	1.545325	0.000183
 182	1.8009e+01	7.2014	18.998761	0.000395	3.952909	1.339282	0.000158
 183	1.8109e+01	7.2463	19.164283	0.000416	4.155623	1.407963	0.000166
 184	1.8209e+01	7.2880	19.281360	0.000294	2.939343	0.995876	0.000118
 185	1.8308e+01	7.3394	19.442846	0.000405	4.054266	1.373622	0.000162
 186	1.8407e+01	7.3747	19.572034	0.000324	3.243413	1.098898	0.000130
 187	1.8507e+01	7.4100	19.713334	0.000355	3.547483	1.201920	0.000142
 188	1.8607e+01	7.4468	19.895005	0.000456	4.561049	1.545325	0.000183
 189	1.8706e+01	7.4934	20.060527	0.000416	4.155623	1.407963	0.000166
 190	1.8805e+01	7.5255	20.201827	0.000355	3.547483	1.201920	0.000142
 191	1.8905e+01	7.5640	20.367350	0.000416	4.155623	1.407963	0.000166
 192	1.9005e+01	7.6041	20.553058	0.000466	4.662406	1.579666	0.000187
 193	1.9104e+01	7.6378	20.738766	0.000466	4.662406	1.579666	0.000187
 194	1.9203e+01	7.6811	20.896215	0.000395	3.952909	1.339282	0.000158
 195	1.9303e+01	7.7292	21.110183	0.000537	5.371902	1.820050	0.000215
 196	1.9402e+01	7.7773	21.259557	0.000375	3.750196	1.270601	0.000150
 197	1.9502e+01	7.8110	21.404894	0.000365	3.648839	1.236260	0.000146
 198	1.9602e+01	7.8527	21.590602	0.000466	4.662406	1.579666	0.000187
 199	1.9701e+01	7.8864	21.723827	0.000334	3.344769	1.133239	0.000134
 200	1.9800e+01	7.9265	21.913573	0.000476	4.763762	1.614006	0.000191
 201	1.9900e+01	7.9586	22.062947	0.000375	3.750196	1.270601	0.000150
 202	2.0000e+01	8.0019	22.220395	0.000395	3.952909	1.339282	0.000158
 203	2.0099e+01	8.0404	22.361695	0.000355	3.547483	1.201920	0.000142
 204	2.0198e+01	8.0805	22.519143	0.000395	3.952909	1.339282	0.000158
 205	2.0298e+01	8.1303	22.632183	0.000284	2.837986	0.961536	0.000114
 206	2.0398e+01	8.1736	22.789631	0.000395	3.952909	1.339282	0.000158
 207	2.0497e+01	8.2024	22.975339	0.000466	4.662406	1.579666	0.000187
 208	2.0596e+01	8.2522	23.124714	0.000375	3.750196	1.270601	0.000150
 209	2.0696e+01	8.2746	23.270050	0.000365	3.648839	1.236260	0.000146
 210	2.0796e+01	8.3228	23.415387	0.000365	3.648839	1.236260	0.000146
 211	2.0895e+01	8.3661	23.580910	0.000416	4.155623	1.407963	0.000166
 212	2.0994e+01	8.4190	23.815064	0.000588	5.878686	1.991753	0.000235
 213	2.1094e+01	8.4479	23.976549	0.000405	4.054266	1.373622	0.000162
 214	2.1194e+01	8.4864	24.105737	0.000324	3.243413	1.098898	0.000130
 215	2.1293e+01	8.5281	24.283371	0.000446	4.459693	1.510985	0.000179
 216	2.1392e+01	8.5602	24.440820	0.000395	3.952909	1.339282	0.000158
 217	2.1492e+01	8.6051	24.582120	0.000355	3.547483	1.201920	0.000142
 218	2.1591e+01	8.6500	24.747642	0.000416	4.155623	1.407963	0.000166
 219	2.1691e+01	8.6917	24.901053	0.000385	3.851553	1.304941	0.000154
 220	2.1791e+01	8.7222	25.106947	0.000517	5.169189	1.751369	0.000207
 221	2.1890e+01	8.7591	25.236135	0.000324	3.243413	1.098898	0.000130
 222	2.1989e+01	8.8024	25.373398	0.000345	3.446126	1.167579	0.000138
 223	2.2089e+01	8.8345	25.518735	0.000365	3.648839	1.236260	0.000146
 224	2.2189e+01	8.8810	25.660035	0.000355	3.547483	1.201920	0.000142
 225	2.2288e+01	8.9260	25.789223	0.000324	3.243413	1.098898	0.000130
 226	2.2387e+01	8.9548	25.978968	0.000476	4.763762	1.614006	0.000191
 227	2.2487e+01	8.9965	26.116231	0.000345	3.446126	1.167579	0.000138
 228	2.2587e+01	9.0447	26.277717	0.000405	4.054266	1.373622	0.000162
 229	2.2686e+01	9.0800	26.439202	0.000405	4.054266	1.373622	0.000162
 230	2.2785e+01	9.1185	26.628947	0.000476	4.763762	1.614006	0.000191
 231	2.2885e+01	9.1602	26.818693	0.000476	4.763762	1.614006	0.000191
 232	2.2985e+01	9.2051	26.943844	0.000314	3.142056	1.064557	0.000126
 233	2.3084e+01	9.2372	27.165886	0.000557	5.574616	1.888731	0.000223
 234	2.3183e+01	9.2837	27.303149	0.000345	3.446126	1.167579	0.000138
 235	2.3283e+01	9.3174	27.505006	0.000507	5.067832	1.717028	0.000203
 236	2.3383e+01	9.3639	27.678603	0.000436	4.358336	1.476644	0.000174
 237	2.3482e+01	9.4072	27.775494	0.000243	2.432560	0.824173	0.000097
 238	2.3581e+01	9.4313	27.945054	0.000426	4.256979	1.442304	0.000170
 239	2.3681e+01	9.4794	28.098465	0.000385	3.851553	1.304941	0.000154
 240	2.3780e+01	9.5195	28.247839	0.000375	3.750196	1.270601	0.000150
 241	2.3880e+01	9.5612	28.449696	0.000507	5.067832	1.717028	0.000203
 242	2.3980e+01	9.5997	28.514290	0.000162	1.621706	0.549449	0.000065
 243	2.4079e+01	9.6446	28.659627	0.000365	3.648839	1.236260	0.000146
 244	2.4178e+01	9.6848	28.865521	0.000517	5.169189	1.751369	0.000207
 245	2.4278e+01	9.7249	28.986635	0.000304	3.040699	1.030217	0.000122
 246	2.4378e+01	9.7569	29.168306	0.000456	4.561049	1.545325	0.000183
 247	2.4477e+01	9.8019	29.333828	0.000416	4.155623	1.407963	0.000166
 248	2.4576e+01	9.8436	29.515499	0.000456	4.561049	1.545325	0.000183
 249	2.4676e+01	9.8757	29.705245	0.000476	4.763762	1.614006	0.000191
 250	2.4776e+01	9.9158	29.858656	0.000385	3.851553	1.304941	0.000154
 251	2.4875e+01	9.9575	30.012067	0.000385	3.851553	1.304941	0.000154
 252	2.4974e+01	9.9944	30.153367	0.000355	3.547483	1.201920	0.000142
 253	2.5074e+01	10.0409	30.391558	0.000598	5.980042	2.026093	0.000239
 254	2.5174e+01	10.0730	30.504598	0.000284	2.837986	0.961536	0.000114
 255	2.5273e+01	10.1243	30.678194	0.000436	4.358336	1.476644	0.000174
 256	2.5372e+01	10.1532	30.827568	0.000375	3.750196	1.270601	0.000150
 257	2.5472e+01	10.1917	30.989054	0.000405	4.054266	1.373622	0.000162
 258	2.5572e+01	10.2302	31.110168	0.000304	3.040699	1.030217	0.000122
 259	2.5671e+01	10.2799	31.283765	0.000436	4.358336	1.476644	0.000174
 260	2.5770e+01	10.3216	31.408916	0.000314	3.142056	1.064557	0.000126
 261	2.5870e+01	10.3505	31.570401	0.000405	4.054266	1.373622	0.000162
 262	2.5970e+01	10.4067	31.731887	0.000405	4.054266	1.373622	0.000162
 263	2.6069e+01	10.4355	31.909521	0.000446	4.459693	1.510985	0.000179
 264	2.6169e+01	10.4772	32.026598	0.000294	2.939343	0.995876	0.000118
 265	2.6268e+01	10.5238	32.228455	0.000507	5.067832	1.717028	0.000203
 266	2.6367e+01	10.5575	32.381866	0.000385	3.851553	1.304941	0.000154
 267	2.6467e+01	10.6008	32.579685	0.000497	4.966476	1.682688	0.000199
 268	2.6567e+01	10.6377	32.757319	0.000446	4.459693	1.510985	0.000179
 269	2.6666e+01	10.6794	32.934953	0.000446	4.459693	1.510985	0.000179
 270	2.6765e+01	10.7195	33.108550	0.000436	4.358336	1.476644	0.000174
 271	2.6865e+01	10.7564	33.249850	0.000355	3.547483	1.201920	0.000142
 272	2.6965e+01	10.8013	33.439595	0.000476	4.763762	1.614006	0.000191
 273	2.7064e+01	10.8302	33.556672	0.000294	2.939343	0.995876	0.000118
 274	2.7163e+01	10.8799	33.742380	0.000466	4.662406	1.579666	0.000187
 275	2.7263e+01	10.9152	33.911940	0.000426	4.256979	1.442304	0.000170
 276	2.7363e+01	10.9553	34.037091	0.000314	3.142056	1.064557	0.000126
 277	2.7462e+01	10.9858	34.210688	0.000436	4.358336	1.476644	0.000174
 278	2.7561e+01	11.0323	34.376211	0.000416	4.155623	1.407963	0.000166
 279	2.7661e+01	11.0740	34.489251	0.000284	2.837986	0.961536	0.000114
 280	2.7761e+01	11.1045	34.642662	0.000385	3.851553	1.304941	0.000154
 281	2.7860e+01	11.1446	34.783962	0.000355	3.547483	1.201920	0.000142
 282	2.7959e+01	11.1879	34.921224	0.000345	3.446126	1.167579	0.000138
 283	2.8059e+01	11.2216	35.082710	0.000405	4.054266	1.373622	0.000162
 284	2.8159e+01	11.2697	35.256306	0.000436	4.358336	1.476644	0.000174
 285	2.8258e+01	11.3114	35.446052	0.000476	4.763762	1.614006	0.000191
 286	2.8358e+01	11.3516	35.651946	0.000517	5.169189	1.751369	0.000207
 287	2.8457e+01	11.3917	35.801320	0.000375	3.750196	1.270601	0.000150
 288	2.8556e+01	11.4286	35.974917	0.000436	4.358336	1.476644	0.000174
 289	2.8656e+01	11.4655	36.116216	0.000355	3.547483	1.201920	0.000142
 290	2.8756e+01	11.5184	36.314036	0.000497	4.966476	1.682688	0.000199
 291	2.8855e+01	11.5569	36.406890	0.000233	2.331203	0.789833	0.000093
 292	2.8954e+01	11.5890	36.616821	0.000527	5.270546	1.785709	0.000211
 293	2.9054e+01	11.6227	36.770232	0.000385	3.851553	1.304941	0.000154
 294	2.9154e+01	11.6660	36.931718	0.000405	4.054266	1.373622	0.000162
 295	2.9253e+01	11.7189	37.121463	0.000476	4.763762	1.614006	0.000191
 296	2.9352e+01	11.7510	37.278911	0.000395	3.952909	1.339282	0.000158
 297	2.9452e+01	11.7943	37.395988	0.000294	2.939343	0.995876	0.000118
 298	2.9552e+01	11.8408	37.561511	0.000416	4.155623	1.407963	0.000166
 299	2.9651e+01	11.8697	37.735108	0.000436	4.358336	1.476644	0.000174
 300	2.9750e+01	11.9146	37.888519	0.000385	3.851553	1.304941	0.000154
 301	2.9850e+01	11.9387	38.037893	0.000375	3.750196	1.270601	0.000150
 302	2.9950e+01	11.9868	38.187267	0.000375	3.750196	1.270601	0.000150
 303	3.0049e+01	12.0301	38.372975	0.000466	4.662406	1.579666	0.000187
 304	3.0148e+01	12.0654	38.562721	0.000476	4.763762	1.614006	0.000191
 305	3.0248e+01	12.1071	38.736317	0.000436	4.358336	1.476644	0.000174
 306	3.0348e+01	12.1489	38.877617	0.000355	3.547483	1.201920	0.000142
 307	3.0447e+01	12.1954	39.063325	0.000466	4.662406	1.579666	0.000187
 308	3.0547e+01	12.2307	39.240959	0.000446	4.459693	1.510985	0.000179
 309	3.0646e+01	12.2708	39.410519	0.000426	4.256979	1.442304	0.000170
 310	3.0745e+01	12.3173	39.572005	0.000405	4.054266	1.373622	0.000162
 311	3.0845e+01	12.3510	39.737527	0.000416	4.155623	1.407963	0.000166
 312	3.0945e+01	12.3847	39.931310	0.000487	4.865119	1.648347	0.000195
 313	3.1044e+01	12.4280	40.072609	0.000355	3.547483	1.201920	0.000142
 314	3.1143e+01	12.4617	40.254280	0.000456	4.561049	1.545325	0.000183
 315	3.1243e+01	12.5050	40.375395	0.000304	3.040699	1.030217	0.000122
 316	3.1343e+01	12.5435	40.544954	0.000426	4.256979	1.442304	0.000170
 317	3.1442e+01	12.5900	40.726625	0.000456	4.561049	1.545325	0.000183
 318	3.1541e+01	12.6349	40.896185	0.000426	4.256979	1.442304	0.000170
 319	3.1641e+01	12.6638	40.985002	0.000223	2.229846	0.755492	0.000089
 320	3.1741e+01	12.7184	41.170710	0.000466	4.662406	1.579666	0.000187
 321	3.1840e+01	12.7440	41.376604	0.000517	5.169189	1.751369	0.000207
 322	3.1939e+01	12.7970	41.530015	0.000385	3.851553	1.304941	0.000154
 323	3.2039e+01	12.8323	41.707649	0.000446	4.459693	1.510985	0.000179
 324	3.2139e+01	12.8676	41.889320	0.000456	4.561049	1.545325	0.000183
 325	3.2238e+01	12.9012	42.046769	0.000395	3.952909	1.339282	0.000158
 326	3.2337e+01	12.9462	42.204217	0.000395	3.952909	1.339282	0.000158
 327	3.2437e+01	12.9847	42.345517	0.000355	3.547483	1.201920	0.000142
 328	3.2536e+01	13.0248	42.543336	0.000497	4.966476	1.682688	0.000199
 329	3.2636e+01	13.0585	42.700785	0.000395	3.952909	1.339282	0.000158
 330	3.2736e+01	13.1034	42.850159	0.000375	3.750196	1.270601	0.000150
 331	3.2835e+01	13.1339	42.995496	0.000365	3.648839	1.236260	0.000146
 332	3.2934e+01	13.1820	43.177167	0.000456	4.561049	1.545325	0.000183
 333	3.3034e+01	13.2221	43.358838	0.000456	4.561049	1.545325	0.000183
 334	3.3133e+01	13.2638	43.528398	0.000426	4.256979	1.442304	0.000170
 335	3.3233e+01	13.2959	43.677772	0.000375	3.750196	1.270601	0.000150
 336	3.3333e+01	13.3472	43.851368	0.000436	4.358336	1.476644	0.000174
 337	3.3432e+01	13.3921	43.984594	0.000334	3.344769	1.133239	0.000134
 338	3.3532e+01	13.4178	44.121856	0.000345	3.446126	1.167579	0.000138
 339	3.3631e+01	13.4659	44.331788	0.000527	5.270546	1.785709	0.000211
 340	3.3730e+01	13.5044	44.505384	0.000436	4.358336	1.476644	0.000174
 341	3.3830e+01	13.5445	44.683018	0.000446	4.459693	1.510985	0.000179
 342	3.3929e+01	13.5895	44.856615	0.000436	4.358336	1.476644	0.000174
 343	3.4029e+01	13.6247	44.997915	0.000355	3.547483	1.201920	0.000142
 344	3.4129e+01	13.6681	45.195735	0.000497	4.966476	1.682688	0.000199
 345	3.4228e+01	13.7001	45.345109	0.000375	3.750196	1.270601	0.000150
 346	3.4328e+01	13.7386	45.506594	0.000405	4.054266	1.373622	0.000162
 347	3.4427e+01	13.7852	45.696339	0.000476	4.763762	1.614006	0.000191
 348	3.4526e+01	13.8205	45.849751	0.000385	3.851553	1.304941	0.000154
 349	3.4626e+01	13.8590	46.011236	0.000405	4.054266	1.373622	0.000162
 350	3.4725e+01	13.9039	46.180796	0.000426	4.256979	1.442304	0.000170
 351	3.4825e+01	13.9392	46.346318	0.000416	4.155623	1.407963	0.000166
 352	3.4925e+01	13.9873	46.540101	0.000487	4.865119	1.648347	0.000195
 353	3.5024e+01	14.0226	46.713698	0.000436	4.358336	1.476644	0.000174
 354	3.5123e+01	14.0531	46.850960	0.000345	3.446126	1.167579	0.000138
 355	3.5223e+01	14.0980	47.064928	0.000537	5.371902	1.820050	0.000215
 356	3.5322e+01	14.1381	47.186043	0.000304	3.040699	1.030217	0.000122
 357	3.5422e+01	14.1959	47.315231	0.000324	3.243413	1.098898	0.000130
 358	3.5522e+01	14.2183	47.448456	0.000334	3.344769	1.133239	0.000134
 359	3.5621e+01	14.2584	47.662425	0.000537	5.371902	1.820050	0.000215
 360	3.5721e+01	14.3017	47.880430	0.000547	5.473259	1.854390	0.000219
 361	3.5820e+01	14.3418	47.989433	0.000274	2.736630	0.927195	0.000110
 362	3.5919e+01	14.3836	48.231661	0.000608	6.081399	2.060434	0.000243
 363	3.6019e+01	14.4156	48.356812	0.000314	3.142056	1.064557	0.000126
 364	3.6118e+01	14.4622	48.530409	0.000436	4.358336	1.476644	0.000174
 365	3.6218e+01	14.5023	48.704006	0.000436	4.358336	1.476644	0.000174
 366	3.6318e+01	14.5376	48.881640	0.000446	4.459693	1.510985	0.000179
 367	3.6417e+01	14.5841	49.059273	0.000446	4.459693	1.510985	0.000179
 368	3.6517e+01	14.6146	49.204610	0.000365	3.648839	1.236260	0.000146
 369	3.6616e+01	14.6515	49.378207	0.000436	4.358336	1.476644	0.000174
 370	3.6715e+01	14.7012	49.612361	0.000588	5.878686	1.991753	0.000235
 371	3.6815e+01	14.7301	49.701178	0.000223	2.229846	0.755492	0.000089
 372	3.6914e+01	14.7782	49.927258	0.000568	5.675972	1.923071	0.000227
 373	3.7014e+01	14.8247	50.052409	0.000314	3.142056	1.064557	0.000126
 374	3.7114e+01	14.8536	50.274451	0.000557	5.574616	1.888731	0.000223
 375	3.7213e+01	14.9017	50.379417	0.000264	2.635273	0.892855	0.000105
 376	3.7313e+01	14.9370	50.544939	0.000416	4.155623	1.407963	0.000166
 377	3.7412e+01	14.9771	50.678165	0.000334	3.344769	1.133239	0.000134
 378	3.7511e+01	15.0204	50.896170	0.000547	5.473259	1.854390	0.000219
 379	3.7611e+01	15.0573	51.065730	0.000426	4.256979	1.442304	0.000170
 380	3.7711e+01	15.0942	51.190881	0.000314	3.142056	1.064557	0.000126
 381	3.7810e+01	15.1375	51.384664	0.000487	4.865119	1.648347	0.000195
 382	3.7910e+01	15.1760	51.574409	0.000476	4.763762	1.614006	0.000191
 383	3.8009e+01	15.2161	51.703597	0.000324	3.243413	1.098898	0.000130
 384	3.8108e+01	15.2546	51.901417	0.000497	4.966476	1.682688	0.000199
 385	3.8208e+01	15.3028	52.030605	0.000324	3.243413	1.098898	0.000130
 386	3.8307e+01	15.3284	52.196128	0.000416	4.155623	1.407963	0.000166
 387	3.8407e+01	15.3766	52.393948	0.000497	4.966476	1.682688	0.000199
 388	3.8507e+01	15.4167	52.543322	0.000375	3.750196	1.270601	0.000150
 389	3.8606e+01	15.4472	52.720956	0.000446	4.459693	1.510985	0.000179
 390	3.8706e+01	15.5001	52.906664	0.000466	4.662406	1.579666	0.000187
 391	3.8805e+01	15.5306	53.035852	0.000324	3.243413	1.098898	0.000130
 392	3.8904e+01	15.5707	53.213486	0.000446	4.459693	1.510985	0.000179
 393	3.9004e+01	15.6188	53.399194	0.000466	4.662406	1.579666	0.000187
 394	3.9103e+01	15.6589	53.572791	0.000436	4.358336	1.476644	0.000174
 395	3.9203e+01	15.6958	53.738314	0.000416	4.155623	1.407963	0.000166
 396	3.9303e+01	15.7359	53.871539	0.000334	3.344769	1.133239	0.000134
 397	3.9402e+01	15.7744	54.093582	0.000557	5.574616	1.888731	0.000223
 398	3.9502e+01	15.8113	54.214696	0.000304	3.040699	1.030217	0.000122
 399	3.9601e+01	15.8546	54.392330	0.000446	4.459693	1.510985	0.000179
 400	3.9700e+01	15.8963	54.574001	0.000456	4.561049	1.545325	0.000183
 401	3.9800e+01	15.9413	54.731449	0.000395	3.952909	1.339282	0.000158
 402	3.9900e+01	15.9701	54.921195	0.000476	4.763762	1.614006	0.000191
 403	3.9999e+01	16.0135	55.086717	0.000416	4.155623	1.407963	0.000166
 404	4.0099e+01	16.0552	55.211868	0.000314	3.142056	1.064557	0.000126
 405	4.0198e+01	16.1033	55.425837	0.000537	5.371902	1.820050	0.000215
 406	4.0297e+01	16.1322	55.595396	0.000426	4.256979	1.442304	0.000170
 407	4.0397e+01	16.1739	55.748807	0.000385	3.851553	1.304941	0.000154
 408	4.0496e+01	16.2092	55.942590	0.000487	4.865119	1.648347	0.000195
 409	4.0596e+01	16.2509	56.067741	0.000314	3.142056	1.064557	0.000126
 410	4.0696e+01	16.2942	56.265561	0.000497	4.966476	1.682688	0.000199
 411	4.0795e+01	16.3279	56.427046	0.000405	4.054266	1.373622	0.000162
 412	4.0895e+01	16.3696	56.592569	0.000416	4.155623	1.407963	0.000166
 413	4.0994e+01	16.4049	56.818648	0.000568	5.675972	1.923071	0.000227
 414	4.1093e+01	16.4594	56.951874	0.000334	3.344769	1.133239	0.000134
 415	4.1193e+01	16.4915	57.177953	0.000568	5.675972	1.923071	0.000227
 416	4.1292e+01	16.5268	57.327327	0.000375	3.750196	1.270601	0.000150
 417	4.1392e+01	16.5621	57.488813	0.000405	4.054266	1.373622	0.000162
 418	4.1492e+01	16.6150	57.642224	0.000385	3.851553	1.304941	0.000154
 419	4.1591e+01	16.6455	57.815821	0.000436	4.358336	1.476644	0.000174
 420	4.1691e+01	16.6872	57.989418	0.000436	4.358336	1.476644	0.000174
 421	4.1790e+01	16.7209	58.130717	0.000355	3.547483	1.201920	0.000142
 422	4.1889e+01	16.7706	58.320463	0.000476	4.763762	1.614006	0.000191
 423	4.1989e+01	16.8172	58.510208	0.000476	4.763762	1.614006	0.000191
 424	4.2089e+01	16.8412	58.655545	0.000365	3.648839	1.236260	0.000146
 425	4.2188e+01	16.8926	58.845291	0.000476	4.763762	1.614006	0.000191
 426	4.2288e+01	16.9311	59.030999	0.000466	4.662406	1.579666	0.000187
 427	4.2387e+01	16.9664	59.192484	0.000405	4.054266	1.373622	0.000162
 428	4.2486e+01	17.0129	59.394341	0.000507	5.067832	1.717028	0.000203
 429	4.2586e+01	17.0498	59.547752	0.000385	3.851553	1.304941	0.000154
 430	4.2685e+01	17.0915	59.721349	0.000436	4.358336	1.476644	0.000174
 431	4.2785e+01	17.1316	59.886872	0.000416	4.155623	1.407963	0.000166
 432	4.2885e+01	17.1669	60.028171	0.000355	3.547483	1.201920	0.000142
 433	4.2984e+01	17.2134	60.242139	0.000537	5.371902	1.820050	0.000215
 434	4.3084e+01	17.2455	60.448033	0.000517	5.169189	1.751369	0.000207
 435	4.3183e+01	17.2920	60.609519	0.000405	4.054266	1.373622	0.000162
 436	4.3282e+01	17.3273	60.754856	0.000365	3.648839	1.236260	0.000146
 437	4.3382e+01	17.3658	60.908267	0.000385	3.851553	1.304941	0.000154
 438	4.3481e+01	17.4091	61.073789	0.000416	4.155623	1.407963	0.000166
 439	4.3581e+01	17.4541	61.243349	0.000426	4.256979	1.442304	0.000170
 440	4.3681e+01	17.4861	61.429057	0.000466	4.662406	1.579666	0.000187
 441	4.3780e+01	17.5278	61.590543	0.000405	4.054266	1.373622	0.000162
 442	4.3880e+01	17.5680	61.788362	0.000497	4.966476	1.682688	0.000199
 443	4.3979e+01	17.6145	61.961959	0.000436	4.358336	1.476644	0.000174
 444	4.4078e+01	17.6466	62.115370	0.000385	3.851553	1.304941	0.000154
 445	4.4178e+01	17.6883	62.280893	0.000416	4.155623	1.407963	0.000166
 446	4.4278e+01	17.7348	62.442378	0.000405	4.054266	1.373622	0.000162
 447	4.4377e+01	17.7685	62.607901	0.000416	4.155623	1.407963	0.000166
 448	4.4477e+01	17.8166	62.761312	0.000385	3.851553	1.304941	0.000154
 449	4.4576e+01	17.8423	62.955095	0.000487	4.865119	1.648347	0.000195
 450	4.4675e+01	17.8904	63.116580	0.000405	4.054266	1.373622	0.000162
 451	4.4775e+01	17.9193	63.342660	0.000568	5.675972	1.923071	0.000227
 452	4.4874e+01	17.9594	63.496071	0.000385	3.851553	1.304941	0.000154
 453	4.4974e+01	17.9979	63.693891	0.000497	4.966476	1.682688	0.000199
 454	4.5074e+01	18.0444	63.915933	0.000557	5.574616	1.888731	0.000223
 455	4.5173e+01	18.0845	64.004750	0.000223	2.229846	0.755492	0.000089
 456	4.5273e+01	18.1278	64.174310	0.000426	4.256979	1.442304	0.000170
 457	4.5372e+01	18.1583	64.368092	0.000487	4.865119	1.648347	0.000195
 458	4.5471e+01	18.2048	64.497281	0.000324	3.243413	1.098898	0.000130
 459	4.5571e+01	18.2481	64.699137	0.000507	5.067832	1.717028	0.000203
 460	4.5670e+01	18.2786	64.876771	0.000446	4.459693	1.510985	0.000179
 461	4.5770e+01	18.3316	65.074591	0.000497	4.966476	1.682688	0.000199
 462	4.5870e+01	18.3653	65.215891	0.000355	3.547483	1.201920	0.000142
 463	4.5969e+01	18.4038	65.441970	0.000568	5.675972	1.923071	0.000227
 464	4.6069e+01	18.4471	65.595381	0.000385	3.851553	1.304941	0.000154
 465	4.6168e+01	18.4759	65.777053	0.000456	4.561049	1.545325	0.000183
 466	4.6267e+01	18.5241	65.954687	0.000446	4.459693	1.510985	0.000179
 467	4.6367e+01	18.5642	66.152506	0.000497	4.966476	1.682688	0.000199
 468	4.6467e+01	18.6059	66.305917	0.000385	3.851553	1.304941	0.000154
 469	4.6566e+01	18.6412	66.527960	0.000557	5.574616	1.888731	0.000223
 470	4.6666e+01	18.6861	66.709631	0.000456	4.561049	1.545325	0.000183
 471	4.6765e+01	18.7246	66.915525	0.000517	5.169189	1.751369	0.000207
 472	4.6864e+01	18.7679	67.085085	0.000426	4.256979	1.442304	0.000170
 473	4.6964e+01	18.7920	67.303090	0.000547	5.473259	1.854390	0.000219
 474	4.7063e+01	18.8433	67.432278	0.000324	3.243413	1.098898	0.000130
 475	4.7163e+01	18.8898	67.589727	0.000395	3.952909	1.339282	0.000158
 476	4.7263e+01	18.9187	67.759286	0.000426	4.256979	1.442304	0.000170
 477	4.7362e+01	18.9604	67.936920	0.000446	4.459693	1.510985	0.000179
 478	4.7462e+01	19.0118	68.118591	0.000456	4.561049	1.545325	0.000183
 479	4.7561e+01	19.0406	68.312374	0.000487	4.865119	1.648347	0.000195
 480	4.7660e+01	19.0856	68.441562	0.000324	3.243413	1.098898	0.000130
 481	4.7760e+01	19.1176	68.651493	0.000527	5.270546	1.785709	0.000211
 482	4.7859e+01	19.1626	68.841239	0.000476	4.763762	1.614006	0.000191
 483	4.7959e+01	19.2043	69.018873	0.000446	4.459693	1.510985	0.000179
 484	4.8059e+01	19.2476	69.188432	0.000426	4.256979	1.442304	0.000170
 485	4.8158e+01	19.2749	69.378178	0.000476	4.763762	1.614006	0.000191
 486	4.8258e+01	19.3214	69.575997	0.000497	4.966476	1.682688	0.000199
 487	4.8357e+01	19.3599	69.753631	0.000446	4.459693	1.510985	0.000179
 488	4.8456e+01	19.4048	69.931265	0.000446	4.459693	1.510985	0.000179
 489	4.8556e+01	19.4353	70.108899	0.000446	4.459693	1.510985	0.000179
 490	4.8656e+01	19.4754	70.322867	0.000537	5.371902	1.820050	0.000215
 491	4.8755e+01	19.5235	70.540873	0.000547	5.473259	1.854390	0.000219
 492	4.8855e+01	19.5540	70.698321	0.000395	3.952909	1.339282	0.000158
 493	4.8954e+01	19.5989	70.920364	0.000557	5.574616	1.888731	0.000223
 494	4.9053e+01	19.6454	71.049552	0.000324	3.243413	1.098898	0.000130
 495	4.9153e+01	19.6887	71.194889	0.000365	3.648839	1.236260	0.000146
 496	4.9252e+01	19.7128	71.372523	0.000446	4.459693	1.510985	0.000179
 497	4.9352e+01	19.7513	71.529971	0.000395	3.952909	1.339282	0.000158
 498	4.9452e+01	19.8010	71.743939	0.000537	5.371902	1.820050	0.000215
 499	4.9551e+01	19.8412	71.885239	0.000355	3.547483	1.201920	0.000142
 500	4.9651e+01	19.8700	72.062873	0.000446	4.459693	1.510985	0.000179
 501	4.9750e+01	19.9133	72.268767	0.000517	5.169189	1.751369	0.000207
 502	4.9849e+01	19.9534	72.466586	0.000497	4.966476	1.682688	0.000199
 503	4.9949e+01	19.9952	72.652295	0.000466	4.662406	1.579666	0.000187
 504	5.0048e+01	19.9518	72.591738	0.000152	1.520350	0.515108	-0.000061
 505	5.0148e+01	19.9133	72.519069	0.000182	1.824420	0.618130	-0.000073
 506	5.0248e+01	19.8716	72.454475	0.000162	1.621706	0.549449	-0.000065
 507	5.0347e+01	19.8203	72.401992	0.000132	1.317636	0.446427	-0.000053
 508	5.0447e+01	19.7962	72.369695	0.000081	0.810853	0.274724	-0.000032
 509	5.0546e+01	19.7513	72.292990	0.000193	1.925776	0.652471	-0.000077
 510	5.0645e+01	19.7112	72.155727	0.000345	3.446126	1.167579	-0.000138
 511	5.0745e+01	19.6823	72.107281	0.000122	1.216280	0.412087	-0.000049
 512	5.0844e+01	19.6358	72.046724	0.000152	1.520350	0.515108	-0.000061
 513	5.0944e+01	19.6037	71.949833	0.000243	2.432560	0.824173	-0.000097
 514	5.1044e+01	19.5588	71.828719	0.000304	3.040699	1.030217	-0.000122
 515	5.1143e+01	19.5235	71.739902	0.000223	2.229846	0.755492	-0.000089
 516	5.1242e+01	19.4786	71.638974	0.000253	2.533916	0.858514	-0.000101
 517	5.1342e+01	19.4353	71.513822	0.000314	3.142056	1.064557	-0.000126
 518	5.1441e+01	19.4016	71.449228	0.000162	1.621706	0.549449	-0.000065
 519	5.1541e+01	19.3583	71.360411	0.000223	2.229846	0.755492	-0.000089
 520	5.1641e+01	19.3294	71.283706	0.000193	1.925776	0.652471	-0.000077
 521	5.1740e+01	19.2829	71.207000	0.000193	1.925776	0.652471	-0.000077
 522	5.1840e+01	19.2460	71.106072	0.000253	2.533916	0.858514	-0.000101
 523	5.1939e+01	19.2059	71.013218	0.000233	2.331203	0.789833	-0.000093
 524	5.2038e+01	19.1610	70.928438	0.000213	2.128490	0.721152	-0.000085
 525	5.2138e+01	19.1176	70.839621	0.000223	2.229846	0.755492	-0.000089
 526	5.2237e+01	19.0840	70.779064	0.000152	1.520350	0.515108	-0.000061
 527	5.2337e+01	19.0422	70.690247	0.000223	2.229846	0.755492	-0.000089
 528	5.2437e+01	18.9973	70.597393	0.000233	2.331203	0.789833	-0.000093
 529	5.2536e+01	18.9556	70.488390	0.000274	2.736630	0.927195	-0.000110
 530	5.2636e+01	18.9187	70.423796	0.000162	1.621706	0.549449	-0.000065
 531	5.2735e+01	18.8914	70.355165	0.000172	1.723063	0.583790	-0.000069
 532	5.2834e+01	18.8449	70.242125	0.000284	2.837986	0.961536	-0.000114
 533	5.2934e+01	18.7952	70.064491	0.000446	4.459693	1.510985	-0.000179
 534	5.3033e+01	18.7615	69.995859	0.000172	1.723063	0.583790	-0.000069
 535	5.3133e+01	18.7214	69.866671	0.000324	3.243413	1.098898	-0.000130
 536	5.3233e+01	18.6813	69.798040	0.000172	1.723063	0.583790	-0.000069
 537	5.3332e+01	18.6428	69.685000	0.000284	2.837986	0.961536	-0.000114
 538	5.3431e+01	18.5995	69.592146	0.000233	2.331203	0.789833	-0.000093
 539	5.3531e+01	18.5594	69.495255	0.000243	2.432560	0.824173	-0.000097
 540	5.3630e+01	18.5241	69.374141	0.000304	3.040699	1.030217	-0.000122
 541	5.3730e+01	18.4808	69.285324	0.000223	2.229846	0.755492	-0.000089
 542	5.3830e+01	18.4439	69.144024	0.000355	3.547483	1.201920	-0.000142
 543	5.3929e+01	18.4070	69.043095	0.000253	2.533916	0.858514	-0.000101
 544	5.4029e+01	18.3701	68.962353	0.000203	2.027133	0.686811	-0.000081
 545	5.4128e+01	18.3284	68.873536	0.000223	2.229846	0.755492	-0.000089
 546	5.4227e+01	18.2754	68.780682	0.000233	2.331203	0.789833	-0.000093
 547	5.4327e+01	18.2401	68.679753	0.000253	2.533916	0.858514	-0.000101
 548	5.4426e+01	18.2064	68.607085	0.000182	1.824420	0.618130	-0.000073
 549	5.4526e+01	18.1631	68.526342	0.000203	2.027133	0.686811	-0.000081
 550	5.4626e+01	18.1166	68.376968	0.000375	3.750196	1.270601	-0.000150
 551	5.4725e+01	18.0845	68.239705	0.000345	3.446126	1.167579	-0.000138
 552	5.4825e+01	18.0508	68.118591	0.000304	3.040699	1.030217	-0.000122
 553	5.4924e+01	18.0091	68.005552	0.000284	2.837986	0.961536	-0.000114
 554	5.5023e+01	17.9594	67.844066	0.000405	4.054266	1.373622	-0.000162
 555	5.5123e+01	17.9209	67.718915	0.000314	3.142056	1.064557	-0.000126
 556	5.5222e+01	17.8904	67.646246	0.000182	1.824420	0.618130	-0.000073
 557	5.5322e+01	17.8503	67.529169	0.000294	2.939343	0.995876	-0.000118
 558	5.5422e+01	17.8006	67.412093	0.000294	2.939343	0.995876	-0.000118
 559	5.5521e+01	17.7605	67.319238	0.000233	2.331203	0.789833	-0.000093
 560	5.5620e+01	17.7220	67.186013	0.000334	3.344769	1.133239	-0.000134
 561	5.5720e+01	17.6867	67.044713	0.000355	3.547483	1.201920	-0.000142
 562	5.5819e+01	17.6450	66.959933	0.000213	2.128490	0.721152	-0.000085
 563	5.5919e+01	17.6016	66.903413	0.000142	1.418993	0.480768	-0.000057
 564	5.6019e+01	17.5696	66.794411	0.000274	2.736630	0.927195	-0.000110
 565	5.6118e+01	17.5214	66.725779	0.000172	1.723063	0.583790	-0.000069
 566	5.6218e+01	17.4926	66.596591	0.000324	3.243413	1.098898	-0.000130
 567	5.6317e+01	17.4541	66.495663	0.000253	2.533916	0.858514	-0.000101
 568	5.6416e+01	17.4091	66.358400	0.000345	3.446126	1.167579	-0.000138
 569	5.6516e+01	17.3706	66.213063	0.000365	3.648839	1.236260	-0.000146
 570	5.6615e+01	17.3273	66.083875	0.000324	3.243413	1.098898	-0.000130
 571	5.6715e+01	17.2936	65.978909	0.000264	2.635273	0.892855	-0.000105
 572	5.6815e+01	17.2519	65.829535	0.000375	3.750196	1.270601	-0.000150
 573	5.6914e+01	17.2054	65.736681	0.000233	2.331203	0.789833	-0.000093
 574	5.7014e+01	17.1685	65.603456	0.000334	3.344769	1.133239	-0.000134
 575	5.7113e+01	17.1300	65.454082	0.000375	3.750196	1.270601	-0.000150
 576	5.7212e+01	17.0883	65.349116	0.000264	2.635273	0.892855	-0.000105
 577	5.7312e+01	17.0450	65.232039	0.000294	2.939343	0.995876	-0.000118
 578	5.7411e+01	17.0081	65.118999	0.000284	2.837986	0.961536	-0.000114
 579	5.7511e+01	16.9696	65.005960	0.000284	2.837986	0.961536	-0.000114
 580	5.7611e+01	16.9279	64.896957	0.000274	2.736630	0.927195	-0.000110
 581	5.7710e+01	16.8958	64.812177	0.000213	2.128490	0.721152	-0.000085
 582	5.7809e+01	16.8541	64.658766	0.000385	3.851553	1.304941	-0.000154
 583	5.7909e+01	16.8027	64.590135	0.000172	1.723063	0.583790	-0.000069
 584	5.8008e+01	16.7546	64.489206	0.000253	2.533916	0.858514	-0.000101
 585	5.8108e+01	16.7289	64.372129	0.000294	2.939343	0.995876	-0.000118
 586	5.8208e+01	16.6920	64.246978	0.000314	3.142056	1.064557	-0.000126
 587	5.8307e+01	16.6471	64.121827	0.000314	3.142056	1.064557	-0.000126
 588	5.8407e+01	16.6022	64.000713	0.000304	3.040699	1.030217	-0.000122
 589	5.8506e+01	16.5749	63.879599	0.000304	3.040699	1.030217	-0.000122
 590	5.8605e+01	16.5284	63.714076	0.000416	4.155623	1.407963	-0.000166
 591	5.8705e+01	16.4931	63.568739	0.000365	3.648839	1.236260	-0.000146
 592	5.8804e+01	16.4498	63.439551	0.000324	3.243413	1.098898	-0.000130
 593	5.8904e+01	16.4177	63.314400	0.000314	3.142056	1.064557	-0.000126
 594	5.9004e+01	16.3728	63.209434	0.000264	2.635273	0.892855	-0.000105
 595	5.9103e+01	16.3311	63.108506	0.000253	2.533916	0.858514	-0.000101
 596	5.9203e+01	16.3038	62.983355	0.000314	3.142056	1.064557	-0.000126
 597	5.9302e+01	16.2573	62.801684	0.000456	4.561049	1.545325	-0.000183
 598	5.9401e+01	16.2108	62.712867	0.000223	2.229846	0.755492	-0.000089
 599	5.9501e+01	16.1771	62.628087	0.000213	2.128490	0.721152	-0.000085
 600	5.9600e+01	16.1274	62.523121	0.000264	2.635273	0.892855	-0.000105
 601	5.9700e+01	16.0840	62.450453	0.000182	1.824420	0.618130	-0.000073
 602	5.9800e+01	16.0584	62.313190	0.000345	3.446126	1.167579	-0.000138
 603	5.9899e+01	16.0183	62.155742	0.000395	3.952909	1.339282	-0.000158
 604	5.9998e+01	15.9717	62.066925	0.000223	2.229846	0.755492	-0.000089
 605	6.0098e+01	15.9413	61.953885	0.000284	2.837986	0.961536	-0.000114
 606	6.0197e+01	15.8819	61.808548	0.000365	3.648839	1.236260	-0.000146
 607	6.0297e+01	15.8498	61.707620	0.000253	2.533916	0.858514	-0.000101
 608	6.0397e+01	15.8113	61.529986	0.000446	4.459693	1.510985	-0.000179
 609	6.0496e+01	15.7728	61.400797	0.000324	3.243413	1.098898	-0.000130
 610	6.0596e+01	15.7295	61.263535	0.000345	3.446126	1.167579	-0.000138
 611	6.0695e+01	15.6878	61.106087	0.000395	3.952909	1.339282	-0.000158
 612	6.0794e+01	15.6589	60.976898	0.000324	3.243413	1.098898	-0.000130
 613	6.0894e+01	15.6156	60.855784	0.000304	3.040699	1.030217	-0.000122
 614	6.0993e+01	15.5691	60.750819	0.000264	2.635273	0.892855	-0.000105
 615	6.1093e+01	15.5226	60.629705	0.000304	3.040699	1.030217	-0.000122
 616	6.1193e+01	15.4953	60.472256	0.000395	3.952909	1.339282	-0.000158
 617	6.1292e+01	15.4616	60.363254	0.000274	2.736630	0.927195	-0.000110
 618	6.1392e+01	15.4135	60.270399	0.000233	2.331203	0.789833	-0.000093
 619	6.1491e+01	15.3718	60.116988	0.000385	3.851553	1.304941	-0.000154
 620	6.1590e+01	15.3284	59.999911	0.000294	2.939343	0.995876	-0.000118
 621	6.1690e+01	15.2996	59.898983	0.000253	2.533916	0.858514	-0.000101
 622	6.1789e+01	15.2530	59.810166	0.000223	2.229846	0.755492	-0.000089
 623	6.1889e+01	15.2097	59.656755	0.000385	3.851553	1.304941	-0.000154
 624	6.1989e+01	15.1760	59.551789	0.000264	2.635273	0.892855	-0.000105
 625	6.2088e+01	15.1407	59.386267	0.000416	4.155623	1.407963	-0.000166
 626	6.2188e+01	15.0958	59.289375	0.000243	2.432560	0.824173	-0.000097
 627	6.2287e+01	15.0541	59.119816	0.000426	4.256979	1.442304	-0.000170
 628	6.2386e+01	15.0204	59.018887	0.000253	2.533916	0.858514	-0.000101
 629	6.2486e+01	14.9691	58.861439	0.000395	3.952909	1.339282	-0.000158
 630	6.2586e+01	14.9434	58.691879	0.000426	4.256979	1.442304	-0.000170
 631	6.2685e+01	14.8969	58.615174	0.000193	1.925776	0.652471	-0.000077
 632	6.2785e+01	14.8568	58.453688	0.000405	4.054266	1.373622	-0.000162
 633	6.2884e+01	14.8151	58.316426	0.000345	3.446126	1.167579	-0.000138
 634	6.2983e+01	14.7782	58.203386	0.000284	2.837986	0.961536	-0.000114
 635	6.3083e+01	14.7365	58.062086	0.000355	3.547483	1.201920	-0.000142
 636	6.3182e+01	14.6868	57.940972	0.000304	3.040699	1.030217	-0.000122
 637	6.3282e+01	14.6547	57.827932	0.000284	2.837986	0.961536	-0.000114
 638	6.3382e+01	14.6130	57.775450	0.000132	1.317636	0.446427	-0.000053
 639	6.3481e+01	14.5761	57.597816	0.000446	4.459693	1.510985	-0.000179
 640	6.3581e+01	14.5408	57.513036	0.000213	2.128490	0.721152	-0.000085
 641	6.3680e+01	14.4991	57.391922	0.000304	3.040699	1.030217	-0.000122
 642	6.3779e+01	14.4590	57.234473	0.000395	3.952909	1.339282	-0.000158
 643	6.3879e+01	14.4269	57.072988	0.000405	4.054266	1.373622	-0.000162
 644	6.3978e+01	14.3787	57.008394	0.000162	1.621706	0.549449	-0.000065
 645	6.4078e+01	14.3386	56.871131	0.000345	3.446126	1.167579	-0.000138
 646	6.4177e+01	14.3001	56.750017	0.000304	3.040699	1.030217	-0.000122
 647	6.4277e+01	14.2552	56.596606	0.000385	3.851553	1.304941	-0.000154
 648	6.4376e+01	14.2247	56.427046	0.000426	4.256979	1.442304	-0.000170
 649	6.4476e+01	14.1782	56.265561	0.000405	4.054266	1.373622	-0.000162
 650	6.4576e+01	14.1349	56.156558	0.000274	2.736630	0.927195	-0.000110
 651	6.4675e+01	14.0980	56.019296	0.000345	3.446126	1.167579	-0.000138
 652	6.4775e+01	14.0643	55.873959	0.000365	3.648839	1.236260	-0.000146
 653	6.4874e+01	14.0258	55.740733	0.000334	3.344769	1.133239	-0.000134
 654	6.4974e+01	13.9777	55.615582	0.000314	3.142056	1.064557	-0.000126
 655	6.5073e+01	13.9408	55.470245	0.000365	3.648839	1.236260	-0.000146
 656	6.5172e+01	13.9007	55.361242	0.000274	2.736630	0.927195	-0.000110
 657	6.5272e+01	13.8622	55.260314	0.000253	2.533916	0.858514	-0.000101
 658	6.5371e+01	13.8253	55.211868	0.000122	1.216280	0.412087	-0.000049
 659	6.5471e+01	13.7804	55.022123	0.000476	4.763762	1.614006	-0.000191
 660	6.5570e+01	13.7386	54.921195	0.000253	2.533916	0.858514	-0.000101
 661	6.5670e+01	13.6969	54.763746	0.000395	3.952909	1.339282	-0.000158
 662	6.5769e+01	13.6665	54.618409	0.000365	3.648839	1.236260	-0.000146
 663	6.5869e+01	13.6312	54.485184	0.000334	3.344769	1.133239	-0.000134
 664	6.5969e+01	13.5782	54.360033	0.000314	3.142056	1.064557	-0.000126
 665	6.6068e+01	13.5397	54.238919	0.000304	3.040699	1.030217	-0.000122
 666	6.6168e+01	13.4948	54.101656	0.000345	3.446126	1.167579	-0.000138
 667	6.6267e+01	13.4659	53.924022	0.000446	4.459693	1.510985	-0.000179
 668	6.6367e+01	13.4306	53.714091	0.000527	5.270546	1.785709	-0.000211
 669	6.6466e+01	13.3809	53.641423	0.000182	1.824420	0.618130	-0.000073
 670	6.6566e+01	13.3440	53.492049	0.000375	3.750196	1.270601	-0.000150
 671	6.6665e+01	13.3039	53.358823	0.000334	3.344769	1.133239	-0.000134
 672	6.6764e+01	13.2622	53.213486	0.000365	3.648839	1.236260	-0.000146
 673	6.6864e+01	13.2253	53.068149	0.000365	3.648839	1.236260	-0.000146
 674	6.6963e+01	13.1932	52.930887	0.000345	3.446126	1.167579	-0.000138
 675	6.7063e+01	13.1451	52.833995	0.000243	2.432560	0.824173	-0.000097
 676	6.7162e+01	13.1066	52.708844	0.000314	3.142056	1.064557	-0.000126
 677	6.7262e+01	13.0585	52.595804	0.000284	2.837986	0.961536	-0.000114
 678	6.7362e+01	13.0216	52.482765	0.000284	2.837986	0.961536	-0.000114
 679	6.7461e+01	12.9782	52.329353	0.000385	3.851553	1.304941	-0.000154
 680	6.7561e+01	12.9446	52.216314	0.000284	2.837986	0.961536	-0.000114
 681	6.7660e+01	12.9012	52.038680	0.000446	4.459693	1.510985	-0.000179
 682	6.7760e+01	12.8676	51.921603	0.000294	2.939343	0.995876	-0.000118
 683	6.7859e+01	12.8323	51.784340	0.000345	3.446126	1.167579	-0.000138
 684	6.7959e+01	12.7841	51.667263	0.000294	2.939343	0.995876	-0.000118
 685	6.8058e+01	12.7440	51.513852	0.000385	3.851553	1.304941	-0.000154
 686	6.8157e+01	12.7119	51.425035	0.000223	2.229846	0.755492	-0.000089
 687	6.8257e+01	12.6622	51.215104	0.000527	5.270546	1.785709	-0.000211
 688	6.8356e+01	12.6269	51.077841	0.000345	3.446126	1.167579	-0.000138
 689	6.8456e+01	12.5964	50.888096	0.000476	4.763762	1.614006	-0.000191
 690	6.8555e+01	12.5563	50.779093	0.000274	2.736630	0.927195	-0.000110
 691	6.8655e+01	12.5050	50.597422	0.000456	4.561049	1.545325	-0.000183
 692	6.8754e+01	12.4649	50.496494	0.000253	2.533916	0.858514	-0.000101
 693	6.8854e+01	12.4296	50.351157	0.000365	3.648839	1.236260	-0.000146
 694	6.8954e+01	12.3895	50.258303	0.000233	2.331203	0.789833	-0.000093
 695	6.9053e+01	12.3558	50.137189	0.000304	3.040699	1.030217	-0.000122
 696	6.9153e+01	12.3077	49.995889	0.000355	3.547483	1.201920	-0.000142
 697	6.9252e+01	12.2756	49.838441	0.000395	3.952909	1.339282	-0.000158
 698	6.9352e+01	12.2259	49.773847	0.000162	1.621706	0.549449	-0.000065
 699	6.9451e+01	12.1809	49.592175	0.000456	4.561049	1.545325	-0.000183
 700	6.9550e+01	12.1392	49.426653	0.000416	4.155623	1.407963	-0.000166
 701	6.9650e+01	12.1136	49.289390	0.000345	3.446126	1.167579	-0.000138
 702	6.9749e+01	12.0686	49.168276	0.000304	3.040699	1.030217	-0.000122
 703	6.9849e+01	12.0205	49.063311	0.000264	2.635273	0.892855	-0.000105
 704	6.9948e+01	11.9868	48.897788	0.000416	4.155623	1.407963	-0.000166
 705	7.0048e+01	11.9435	48.736303	0.000405	4.054266	1.373622	-0.000162
 706	7.0147e+01	11.9002	48.603077	0.000334	3.344769	1.133239	-0.000134
 707	7.0247e+01	11.8777	48.445629	0.000395	3.952909	1.339282	-0.000158
 708	7.0347e+01	11.8360	48.259921	0.000466	4.662406	1.579666	-0.000187
 709	7.0446e+01	11.7975	48.118621	0.000355	3.547483	1.201920	-0.000142
 710	7.0546e+01	11.7526	47.969247	0.000375	3.750196	1.270601	-0.000150
 711	7.0645e+01	11.7125	47.844096	0.000314	3.142056	1.064557	-0.000126
 712	7.0745e+01	11.6788	47.698759	0.000365	3.648839	1.236260	-0.000146
 713	7.0844e+01	11.6371	47.577645	0.000304	3.040699	1.030217	-0.000122
 714	7.0944e+01	11.5922	47.436345	0.000355	3.547483	1.201920	-0.000142
 715	7.1043e+01	11.5537	47.331379	0.000264	2.635273	0.892855	-0.000105
 716	7.1142e+01	11.5072	47.169894	0.000405	4.054266	1.373622	-0.000162
 717	7.1242e+01	11.4735	47.056854	0.000284	2.837986	0.961536	-0.000114
 718	7.1341e+01	11.4302	46.895369	0.000405	4.054266	1.373622	-0.000162
 719	7.1441e+01	11.3949	46.733883	0.000405	4.054266	1.373622	-0.000162
 720	7.1540e+01	11.3660	46.624881	0.000274	2.736630	0.927195	-0.000110
 721	7.1640e+01	11.3163	46.451284	0.000436	4.358336	1.476644	-0.000174
 722	7.1740e+01	11.2745	46.297873	0.000385	3.851553	1.304941	-0.000154
 723	7.1839e+01	11.2232	46.160610	0.000345	3.446126	1.167579	-0.000138
 724	7.1939e+01	11.1927	46.011236	0.000375	3.750196	1.270601	-0.000150
 725	7.2038e+01	11.1558	45.833602	0.000446	4.459693	1.510985	-0.000179
 726	7.2138e+01	11.1141	45.664042	0.000426	4.256979	1.442304	-0.000170
 727	7.2237e+01	11.0708	45.494483	0.000426	4.256979	1.442304	-0.000170
 728	7.2337e+01	11.0419	45.361257	0.000334	3.344769	1.133239	-0.000134
 729	7.2436e+01	10.9858	45.187660	0.000436	4.358336	1.476644	-0.000174
 730	7.2535e+01	10.9473	45.066546	0.000304	3.040699	1.030217	-0.000122
 731	7.2635e+01	10.9120	44.933321	0.000334	3.344769	1.133239	-0.000134
 732	7.2734e+01	10.8687	44.787984	0.000365	3.648839	1.236260	-0.000146
 733	7.2834e+01	10.8334	44.691093	0.000243	2.432560	0.824173	-0.000097
 734	7.2933e+01	10.7949	44.569979	0.000304	3.040699	1.030217	-0.000122
 735	7.3033e+01	10.7580	44.420605	0.000375	3.750196	1.270601	-0.000150
 736	7.3132e+01	10.7115	44.279305	0.000355	3.547483	1.201920	-0.000142
 737	7.3232e+01	10.6762	44.125894	0.000385	3.851553	1.304941	-0.000154
 738	7.3332e+01	10.6425	43.956334	0.000426	4.256979	1.442304	-0.000170
 739	7.3431e+01	10.6008	43.831183	0.000314	3.142056	1.064557	-0.000126
 740	7.3531e+01	10.5510	43.714106	0.000294	2.939343	0.995876	-0.000118
 741	7.3630e+01	10.5109	43.524360	0.000476	4.763762	1.614006	-0.000191
 742	7.3730e+01	10.4740	43.419395	0.000264	2.635273	0.892855	-0.000105
 743	7.3829e+01	10.4468	43.229649	0.000476	4.763762	1.614006	-0.000191
 744	7.3928e+01	10.3938	43.096424	0.000334	3.344769	1.133239	-0.000134
 745	7.4028e+01	10.3617	42.902641	0.000487	4.865119	1.648347	-0.000195
 746	7.4127e+01	10.3088	42.741156	0.000405	4.054266	1.373622	-0.000162
 747	7.4227e+01	10.2831	42.571596	0.000426	4.256979	1.442304	-0.000170
 748	7.4326e+01	10.2350	42.434334	0.000345	3.446126	1.167579	-0.000138
 749	7.4426e+01	10.1981	42.305145	0.000324	3.243413	1.098898	-0.000130
 750	7.4525e+01	10.1628	42.143660	0.000405	4.054266	1.373622	-0.000162
 751	7.4625e+01	10.1211	41.998323	0.000365	3.648839	1.236260	-0.000146
 752	7.4725e+01	10.0730	41.873172	0.000314	3.142056	1.064557	-0.000126
 753	7.4824e+01	10.0377	41.776281	0.000243	2.432560	0.824173	-0.000097
 754	7.4924e+01	10.0056	41.598647	0.000446	4.459693	1.510985	-0.000179
 755	7.5023e+01	9.9575	41.457347	0.000355	3.547483	1.201920	-0.000142
 756	7.5123e+01	9.9174	41.344307	0.000284	2.837986	0.961536	-0.000114
 757	7.5222e+01	9.8741	41.170710	0.000436	4.358336	1.476644	-0.000174
 758	7.5322e+01	9.8420	41.041522	0.000324	3.243413	1.098898	-0.000130
 759	7.5421e+01	9.8067	40.859851	0.000456	4.561049	1.545325	-0.000183
 760	7.5520e+01	9.7505	40.779108	0.000203	2.027133	0.686811	-0.000081
 761	7.5620e+01	9.7184	40.581288	0.000497	4.966476	1.682688	-0.000199
 762	7.5719e+01	9.6767	40.472286	0.000274	2.736630	0.927195	-0.000110
 763	7.5819e+01	9.6414	40.286578	0.000466	4.662406	1.579666	-0.000187
 764	7.5918e+01	9.5997	40.121055	0.000416	4.155623	1.407963	-0.000166
 765	7.6018e+01	9.5612	39.959570	0.000405	4.054266	1.373622	-0.000162
 766	7.6118e+01	9.5211	39.798084	0.000405	4.054266	1.373622	-0.000162
 767	7.6217e+01	9.4794	39.628524	0.000426	4.256979	1.442304	-0.000170
 768	7.6317e+01	9.4425	39.479150	0.000375	3.750196	1.270601	-0.000150
 769	7.6416e+01	9.4024	39.349962	0.000324	3.243413	1.098898	-0.000130
 770	7.6516e+01	9.3703	39.184439	0.000416	4.155623	1.407963	-0.000166
 771	7.6615e+01	9.3222	39.079474	0.000264	2.635273	0.892855	-0.000105
 772	7.6715e+01	9.2805	38.877617	0.000507	5.067832	1.717028	-0.000203
 773	7.6814e+01	9.2324	38.804949	0.000182	1.824420	0.618130	-0.000073
 774	7.6913e+01	9.1955	38.643463	0.000405	4.054266	1.373622	-0.000162
 775	7.7013e+01	9.1650	38.510238	0.000334	3.344769	1.133239	-0.000134
 776	7.7112e+01	9.1217	38.332604	0.000446	4.459693	1.510985	-0.000179
 777	7.7212e+01	9.0832	38.211490	0.000304	3.040699	1.030217	-0.000122
 778	7.7311e+01	9.0399	38.025782	0.000466	4.662406	1.579666	-0.000187
 779	7.7411e+01	8.9997	37.872370	0.000385	3.851553	1.304941	-0.000154
 780	7.7510e+01	8.9564	37.755293	0.000294	2.939343	0.995876	-0.000118
 781	7.7610e+01	8.9243	37.581697	0.000436	4.358336	1.476644	-0.000174
 782	7.7710e+01	8.8826	37.456545	0.000314	3.142056	1.064557	-0.000126
 783	7.7809e+01	8.8441	37.238540	0.000547	5.473259	1.854390	-0.000219
 784	7.7909e+01	8.7992	37.044758	0.000487	4.865119	1.648347	-0.000195
 785	7.8008e+01	8.7607	36.899421	0.000365	3.648839	1.236260	-0.000146
 786	7.8108e+01	8.7270	36.778307	0.000304	3.040699	1.030217	-0.000122
 787	7.8207e+01	8.6805	36.608747	0.000426	4.256979	1.442304	-0.000170
 788	7.8306e+01	8.6436	36.463410	0.000365	3.648839	1.236260	-0.000146
 789	7.8406e+01	8.6083	36.309999	0.000385	3.851553	1.304941	-0.000154
 790	7.8505e+01	8.5586	36.188885	0.000304	3.040699	1.030217	-0.000122
 791	7.8605e+01	8.5233	36.031436	0.000395	3.952909	1.339282	-0.000158
 792	7.8704e+01	8.4832	35.950694	0.000203	2.027133	0.686811	-0.000081
 793	7.8804e+01	8.4479	35.777097	0.000436	4.358336	1.476644	-0.000174
 794	7.8903e+01	8.4014	35.643871	0.000334	3.344769	1.133239	-0.000134
 795	7.9003e+01	8.3629	35.482386	0.000405	4.054266	1.373622	-0.000162
 796	7.9103e+01	8.3260	35.353198	0.000324	3.243413	1.098898	-0.000130
 797	7.9202e+01	8.2859	35.183638	0.000426	4.256979	1.442304	-0.000170
 798	7.9302e+01	8.2458	35.034264	0.000375	3.750196	1.270601	-0.000150
 799	7.9401e+01	8.2089	34.876816	0.000395	3.952909	1.339282	-0.000158
 800	7.9501e+01	8.1655	34.747627	0.000324	3.243413	1.098898	-0.000130
 801	7.9600e+01	8.1222	34.569993	0.000446	4.459693	1.510985	-0.000179
 802	7.9700e+01	8.0837	34.404471	0.000416	4.155623	1.407963	-0.000166
 803	7.9799e+01	8.0468	34.214725	0.000476	4.763762	1.614006	-0.000191
 804	7.9898e+01	8.0003	34.105723	0.000274	2.736630	0.927195	-0.000110
 805	7.9998e+01	7.9666	33.948274	0.000395	3.952909	1.339282	-0.000158
 806	8.0097e+01	7.9249	33.746418	0.000507	5.067832	1.717028	-0.000203
 807	8.0197e+01	7.8848	33.665675	0.000203	2.027133	0.686811	-0.000081
 808	8.0296e+01	7.8463	33.496115	0.000426	4.256979	1.442304	-0.000170
 809	8.0396e+01	7.8014	33.391150	0.000264	2.635273	0.892855	-0.000105
 810	8.0496e+01	7.7677	33.286184	0.000264	2.635273	0.892855	-0.000105
 811	8.0595e+01	7.7244	33.088365	0.000497	4.966476	1.682688	-0.000199
 812	8.0695e+01	7.6859	32.943028	0.000365	3.648839	1.236260	-0.000146
 813	8.0794e+01	7.6458	32.789616	0.000385	3.851553	1.304941	-0.000154
 814	8.0894e+01	7.6105	32.587760	0.000507	5.067832	1.717028	-0.000203
 815	8.0993e+01	7.5624	32.474720	0.000284	2.837986	0.961536	-0.000114
 816	8.1093e+01	7.5271	32.329383	0.000365	3.648839	1.236260	-0.000146
 817	8.1192e+01	7.4837	32.171935	0.000395	3.952909	1.339282	-0.000158
 818	8.1291e+01	7.4468	32.038709	0.000334	3.344769	1.133239	-0.000134
 819	8.1391e+01	7.4051	31.889335	0.000375	3.750196	1.270601	-0.000150
 820	8.1490e+01	7.3698	31.683441	0.000517	5.169189	1.751369	-0.000207
 821	8.1590e+01	7.3265	31.530030	0.000385	3.851553	1.304941	-0.000154
 822	8.1689e+01	7.2832	31.344322	0.000466	4.662406	1.579666	-0.000187
 823	8.1789e+01	7.2463	31.211096	0.000334	3.344769	1.133239	-0.000134
 824	8.1888e+01	7.2062	31.061722	0.000375	3.750196	1.270601	-0.000150
 825	8.1988e+01	7.1709	30.908311	0.000385	3.851553	1.304941	-0.000154
 826	8.2088e+01	7.1324	30.767011	0.000355	3.547483	1.201920	-0.000142
 827	8.2187e+01	7.0939	30.617637	0.000375	3.750196	1.270601	-0.000150
 828	8.2287e+01	7.0538	30.504598	0.000284	2.837986	0.961536	-0.000114
 829	8.2386e+01	7.0089	30.339075	0.000416	4.155623	1.407963	-0.000166
 830	8.2486e+01	6.9688	30.157404	0.000456	4.561049	1.545325	-0.000183
 831	8.2585e+01	6.9303	30.064550	0.000233	2.331203	0.789833	-0.000093
 832	8.2684e+01	6.8966	29.890953	0.000436	4.358336	1.476644	-0.000174
 833	8.2784e+01	6.8437	29.745616	0.000365	3.648839	1.236260	-0.000146
 834	8.2883e+01	6.8100	29.608354	0.000345	3.446126	1.167579	-0.000138
 835	8.2983e+01	6.7779	29.438794	0.000426	4.256979	1.442304	-0.000170
 836	8.3082e+01	6.7233	29.273271	0.000416	4.155623	1.407963	-0.000166
 837	8.3182e+01	6.6945	29.119860	0.000385	3.851553	1.304941	-0.000154
 838	8.3281e+01	6.6544	28.962412	0.000395	3.952909	1.339282	-0.000158
 839	8.3381e+01	6.6094	28.764592	0.000497	4.966476	1.682688	-0.000199
 840	8.3481e+01	6.5629	28.615218	0.000375	3.750196	1.270601	-0.000150
 841	8.3580e+01	6.5292	28.473918	0.000355	3.547483	1.201920	-0.000142
 842	8.3680e+01	6.4891	28.308396	0.000416	4.155623	1.407963	-0.000166
 843	8.3779e+01	6.4570	28.150948	0.000395	3.952909	1.339282	-0.000158
 844	8.3879e+01	6.4137	27.981388	0.000426	4.256979	1.442304	-0.000170
 845	8.3978e+01	6.3640	27.884497	0.000243	2.432560	0.824173	-0.000097
 846	8.4078e+01	6.3335	27.714937	0.000426	4.256979	1.442304	-0.000170
 847	8.4177e+01	6.3030	27.593823	0.000304	3.040699	1.030217	-0.000122
 848	8.4276e+01	6.2533	27.468672	0.000314	3.142056	1.064557	-0.000126
 849	8.4376e+01	6.2132	27.299112	0.000426	4.256979	1.442304	-0.000170
 850	8.4475e+01	6.1683	27.141664	0.000395	3.952909	1.339282	-0.000158
 851	8.4575e+01	6.1426	27.008438	0.000334	3.344769	1.133239	-0.000134
 852	8.4674e+01	6.0929	26.838878	0.000426	4.256979	1.442304	-0.000170
 853	8.4774e+01	6.0512	26.685467	0.000385	3.851553	1.304941	-0.000154
 854	8.4874e+01	5.9998	26.523982	0.000405	4.054266	1.373622	-0.000162
 855	8.4973e+01	5.9694	26.366534	0.000395	3.952909	1.339282	-0.000158
 856	8.5073e+01	5.9421	26.233308	0.000334	3.344769	1.133239	-0.000134
 857	8.5172e+01	5.8923	26.051637	0.000456	4.561049	1.545325	-0.000183
 858	8.5272e+01	5.8619	25.853817	0.000497	4.966476	1.682688	-0.000199
 859	8.5371e+01	5.8266	25.676183	0.000446	4.459693	1.510985	-0.000179
 860	8.5471e+01	5.7865	25.514698	0.000405	4.054266	1.373622	-0.000162
 861	8.5570e+01	5.7335	25.381472	0.000334	3.344769	1.133239	-0.000134
 862	8.5669e+01	5.6982	25.224024	0.000395	3.952909	1.339282	-0.000158
 863	8.5769e+01	5.6581	25.054464	0.000426	4.256979	1.442304	-0.000170
 864	8.5868e+01	5.6132	24.892979	0.000405	4.054266	1.373622	-0.000162
 865	8.5968e+01	5.5795	24.763791	0.000324	3.243413	1.098898	-0.000130
 866	8.6067e+01	5.5410	24.679011	0.000213	2.128490	0.721152	-0.000085
 867	8.6167e+01	5.5025	24.529637	0.000375	3.750196	1.270601	-0.000150
 868	8.6266e+01	5.4480	24.347966	0.000456	4.561049	1.545325	-0.000183
 869	8.6366e+01	5.4079	24.243000	0.000264	2.635273	0.892855	-0.000105
 870	8.6466e+01	5.3710	24.065366	0.000446	4.459693	1.510985	-0.000179
 871	8.6565e+01	5.3437	23.956363	0.000274	2.736630	0.927195	-0.000110
 872	8.6665e+01	5.2924	23.754507	0.000507	5.067832	1.717028	-0.000203
 873	8.6764e+01	5.2667	23.601096	0.000385	3.851553	1.304941	-0.000154
 874	8.6864e+01	5.2202	23.423462	0.000446	4.459693	1.510985	-0.000179
 875	8.6963e+01	5.1720	23.266013	0.000395	3.952909	1.339282	-0.000158
 876	8.7063e+01	5.1416	23.124714	0.000355	3.547483	1.201920	-0.000142
 877	8.7162e+01	5.0999	22.910745	0.000537	5.371902	1.820050	-0.000215
 878	8.7261e+01	5.0598	22.733111	0.000446	4.459693	1.510985	-0.000179
 879	8.7361e+01	5.0148	22.551440	0.000456	4.561049	1.545325	-0.000183
 880	8.7460e+01	4.9860	22.434363	0.000294	2.939343	0.995876	-0.000118
 881	8.7560e+01	4.9442	22.244618	0.000476	4.763762	1.614006	-0.000191
 882	8.7659e+01	4.8977	22.103318	0.000355	3.547483	1.201920	-0.000142
 883	8.7759e+01	4.8640	21.945870	0.000395	3.952909	1.339282	-0.000158
 884	8.7859e+01	4.8111	21.824756	0.000304	3.040699	1.030217	-0.000122
 885	8.7958e+01	4.7742	21.655196	0.000426	4.256979	1.442304	-0.000170
 886	8.8058e+01	4.7453	21.509859	0.000365	3.648839	1.236260	-0.000146
 887	8.8157e+01	4.7020	21.380671	0.000324	3.243413	1.098898	-0.000130
 888	8.8257e+01	4.6523	21.190925	0.000476	4.763762	1.614006	-0.000191
 889	8.8356e+01	4.6202	21.057700	0.000334	3.344769	1.133239	-0.000134
 890	8.8456e+01	4.5881	20.892177	0.000416	4.155623	1.407963	-0.000166
 891	8.8555e+01	4.5384	20.714543	0.000446	4.459693	1.510985	-0.000179
 892	8.8654e+01	4.5031	20.577281	0.000345	3.446126	1.167579	-0.000138
 893	8.8754e+01	4.4614	20.395610	0.000456	4.561049	1.545325	-0.000183
 894	8.8853e+01	4.4245	20.262384	0.000334	3.344769	1.133239	-0.000134
 895	8.8953e+01	4.3860	20.076676	0.000466	4.662406	1.579666	-0.000187
 896	8.9052e+01	4.3378	19.854634	0.000557	5.574616	1.888731	-0.000223
 897	8.9152e+01	4.3026	19.697185	0.000395	3.952909	1.339282	-0.000158
 898	8.9251e+01	4.2544	19.563960	0.000334	3.344769	1.133239	-0.000134
 899	8.9351e+01	4.2272	19.414586	0.000375	3.750196	1.270601	-0.000150
 900	8.9451e+01	4.1790	19.220803	0.000487	4.865119	1.648347	-0.000195
 901	8.9550e+01	4.1534	19.035095	0.000466	4.662406	1.579666	-0.000187
 902	8.9650e+01	4.1036	18.885721	0.000375	3.750196	1.270601	-0.000150
 903	8.9749e+01	4.0603	18.768644	0.000294	2.939343	0.995876	-0.000118
 904	8.9849e+01	4.0202	18.623307	0.000365	3.648839	1.236260	-0.000146
 905	8.9948e+01	3.9913	18.473933	0.000375	3.750196	1.270601	-0.000150
 906	9.0047e+01	3.9480	18.324559	0.000375	3.750196	1.270601	-0.000150
 907	9.0147e+01	3.9031	18.187296	0.000345	3.446126	1.167579	-0.000138
 908	9.0246e+01	3.8614	18.001588	0.000466	4.662406	1.579666	-0.000187
 909	9.0346e+01	3.8245	17.880474	0.000304	3.040699	1.030217	-0.000122
 910	9.0445e+01	3.7764	17.698803	0.000456	4.561049	1.545325	-0.000183
 911	9.0545e+01	3.7379	17.565578	0.000334	3.344769	1.133239	-0.000134
 912	9.0644e+01	3.7074	17.379869	0.000466	4.662406	1.579666	-0.000187
 913	9.0744e+01	3.6625	17.246644	0.000334	3.344769	1.133239	-0.000134
 914	9.0844e+01	3.6143	17.077084	0.000426	4.256979	1.442304	-0.000170
 915	9.0943e+01	3.5903	16.883302	0.000487	4.865119	1.648347	-0.000195
 916	9.1043e+01	3.5534	16.661259	0.000557	5.574616	1.888731	-0.000223
 917	9.1142e+01	3.5117	16.515922	0.000365	3.648839	1.236260	-0.000146
 918	9.1242e+01	3.4651	16.342325	0.000436	4.358336	1.476644	-0.000174
 919	9.1341e+01	3.4234	16.209100	0.000334	3.344769	1.133239	-0.000134
 920	9.1441e+01	3.3833	16.023392	0.000466	4.662406	1.579666	-0.000187
 921	9.1540e+01	3.3320	15.869981	0.000385	3.851553	1.304941	-0.000154
 922	9.1639e+01	3.3047	15.732718	0.000345	3.446126	1.167579	-0.000138
 923	9.1739e+01	3.2710	15.595455	0.000345	3.446126	1.167579	-0.000138
 924	9.1838e+01	3.2213	15.474341	0.000304	3.040699	1.030217	-0.000122
 925	9.1938e+01	3.1892	15.280559	0.000487	4.865119	1.648347	-0.000195
 926	9.2037e+01	3.1539	15.155408	0.000314	3.142056	1.064557	-0.000126
 927	9.2137e+01	3.1074	14.997959	0.000395	3.952909	1.339282	-0.000158
 928	9.2237e+01	3.0609	14.840511	0.000395	3.952909	1.339282	-0.000158
 929	9.2336e+01	3.0224	14.679026	0.000405	4.054266	1.373622	-0.000162
 930	9.2436e+01	2.9839	14.497354	0.000456	4.561049	1.545325	-0.000183
 931	9.2535e+01	2.9390	14.368166	0.000324	3.243413	1.098898	-0.000130
 932	9.2635e+01	2.9101	14.194569	0.000436	4.358336	1.476644	-0.000174
 933	9.2734e+01	2.8700	14.029047	0.000416	4.155623	1.407963	-0.000166
 934	9.2834e+01	2.8331	13.782781	0.000618	6.182756	2.094774	-0.000248
 935	9.2933e+01	2.7866	13.641482	0.000355	3.547483	1.201920	-0.000142
 936	9.3032e+01	2.7464	13.508256	0.000334	3.344769	1.133239	-0.000134
 937	9.3132e+01	2.7144	13.306399	0.000507	5.067832	1.717028	-0.000203
 938	9.3231e+01	2.6855	13.157025	0.000375	3.750196	1.270601	-0.000150
 939	9.3331e+01	2.6277	13.019763	0.000345	3.446126	1.167579	-0.000138
 940	9.3430e+01	2.5860	12.842129	0.000446	4.459693	1.510985	-0.000179
 941	9.3530e+01	2.5427	12.712940	0.000324	3.243413	1.098898	-0.000130
 942	9.3629e+01	2.5090	12.555492	0.000395	3.952909	1.339282	-0.000158
 943	9.3729e+01	2.4625	12.406118	0.000375	3.750196	1.270601	-0.000150
 944	9.3829e+01	2.4240	12.240596	0.000416	4.155623	1.407963	-0.000166
 945	9.3928e+01	2.3919	12.071036	0.000426	4.256979	1.442304	-0.000170
 946	9.4028e+01	2.3422	11.933773	0.000345	3.446126	1.167579	-0.000138
 947	9.4127e+01	2.3037	11.788436	0.000365	3.648839	1.236260	-0.000146
 948	9.4227e+01	2.2716	11.610802	0.000446	4.459693	1.510985	-0.000179
 949	9.4326e+01	2.2283	11.457391	0.000385	3.851553	1.304941	-0.000154
 950	9.4425e+01	2.1866	11.308017	0.000375	3.750196	1.270601	-0.000150
 951	9.4525e+01	2.1384	11.146532	0.000405	4.054266	1.373622	-0.000162
 952	9.4624e+01	2.1128	10.952749	0.000487	4.865119	1.648347	-0.000195
 953	9.4724e+01	2.0695	10.783190	0.000426	4.256979	1.442304	-0.000170
 954	9.4823e+01	2.0294	10.593444	0.000476	4.763762	1.614006	-0.000191
 955	9.4923e+01	1.9844	10.407736	0.000466	4.662406	1.579666	-0.000187
 956	9.5022e+01	1.9604	10.258362	0.000375	3.750196	1.270601	-0.000150
 957	9.5122e+01	1.9074	10.129174	0.000324	3.243413	1.098898	-0.000130
 958	9.5222e+01	1.8577	9.911168	0.000547	5.473259	1.854390	-0.000219
 959	9.5321e+01	1.8240	9.769868	0.000355	3.547483	1.201920	-0.000142
 960	9.5421e+01	1.7919	9.608383	0.000405	4.054266	1.373622	-0.000162
 961	9.5520e+01	1.7454	9.507455	0.000253	2.533916	0.858514	-0.000101
 962	9.5620e+01	1.7085	9.398452	0.000274	2.736630	0.927195	-0.000110
 963	9.5719e+01	1.6652	9.200632	0.000497	4.966476	1.682688	-0.000199
 964	9.5819e+01	1.6331	9.071444	0.000324	3.243413	1.098898	-0.000130
 965	9.5918e+01	1.5930	8.861513	0.000527	5.270546	1.785709	-0.000211
 966	9.6017e+01	1.5497	8.720213	0.000355	3.547483	1.201920	-0.000142
 967	9.6117e+01	1.5112	8.591025	0.000324	3.243413	1.098898	-0.000130
 968	9.6216e+01	1.4759	8.405317	0.000466	4.662406	1.579666	-0.000187
 969	9.6316e+01	1.4246	8.276128	0.000324	3.243413	1.098898	-0.000130
 970	9.6415e+01	1.3925	8.126754	0.000375	3.750196	1.270601	-0.000150
 971	9.6515e+01	1.3540	7.920860	0.000517	5.169189	1.751369	-0.000207
 972	9.6615e+01	1.3187	7.747263	0.000436	4.358336	1.476644	-0.000174
 973	9.6714e+01	1.2738	7.541370	0.000517	5.169189	1.751369	-0.000207
 974	9.6814e+01	1.2353	7.383921	0.000395	3.952909	1.339282	-0.000158
 975	9.6913e+01	1.1935	7.270881	0.000284	2.837986	0.961536	-0.000114
 976	9.7013e+01	1.1486	7.081136	0.000476	4.763762	1.614006	-0.000191
 977	9.7112e+01	1.1085	6.939836	0.000355	3.547483	1.201920	-0.000142
 978	9.7212e+01	1.0700	6.766239	0.000436	4.358336	1.476644	-0.000174
 979	9.7311e+01	1.0395	6.645125	0.000304	3.040699	1.030217	-0.000122
 980	9.7410e+01	0.9850	6.499789	0.000365	3.648839	1.236260	-0.000146
 981	9.7510e+01	0.9497	6.394823	0.000264	2.635273	0.892855	-0.000105
 982	9.7609e+01	0.9128	6.213152	0.000456	4.561049	1.545325	-0.000183
 983	9.7709e+01	0.8663	6.043592	0.000426	4.256979	1.442304	-0.000170
 984	9.7808e+01	0.8278	5.874032	0.000426	4.256979	1.442304	-0.000170
 985	9.7908e+01	0.7925	5.720621	0.000385	3.851553	1.304941	-0.000154
 986	9.8007e+01	0.7492	5.555099	0.000416	4.155623	1.407963	-0.000166
 987	9.8107e+01	0.7091	5.409762	0.000365	3.648839	1.236260	-0.000146
 988	9.8207e+01	0.6754	5.228091	0.000456	4.561049	1.545325	-0.000183
 989	9.8306e+01	0.6385	5.062568	0.000416	4.155623	1.407963	-0.000166
 990	9.8406e+01	0.5968	4.913194	0.000375	3.750196	1.270601	-0.000150
 991	9.8505e+01	0.5599	4.727486	0.000466	4.662406	1.579666	-0.000187
 992	9.8605e+01	0.5069	4.529666	0.000497	4.966476	1.682688	-0.000199
 993	9.8704e+01	0.4749	4.372218	0.000395	3.952909	1.339282	-0.000158
 994	9.8803e+01	0.4347	4.198621	0.000436	4.358336	1.476644	-0.000174
 995	9.8903e+01	0.3946	4.061359	0.000345	3.446126	1.167579	-0.000138
 996	9.9002e+01	0.3626	3.924096	0.000345	3.446126	1.167579	-0.000138
 997	9.9102e+01	0.3160	3.726276	0.000497	4.966476	1.682688	-0.000199
 998	9.9201e+01	0.2711	3.597088	0.000324	3.243413	1.098898	-0.000130
 999	9.9301e+01	0.2406	3.471937	0.000314	3.142056	1.064557	-0.000126
1000	9.9400e+01	0.2037	3.310451	0.000405	4.054266	1.373622	-0.000162
1001	9.9500e+01	0.1652	3.169152	0.000355	3.547483	1.201920	-0.000142
1002	9.9600e+01	0.1139	3.007666	0.000405	4.054266	1.373622	-0.000162
1003	9.9699e+01	0.0706	2.858292	0.000375	3.750196	1.270601	-0.000150
1004	9.9799e+01	0.0289	2.676621	0.000456	4.561049	1.545325	-0.000183
1005	9.9898e+01	-0.0032	2.555507	0.000304	3.040699	1.030217	-0.000122
1006	9.9998e+01	-0.0385	2.357687	0.000497	4.966476	1.682688	-0.000199
1007	1.0010e+02	-0.0706	2.220425	0.000345	3.446126	1.167579	-0.000138
1008	1.0020e+02	-0.1187	2.075088	0.000365	3.648839	1.236260	-0.000146
1009	1.0030e+02	-0.1460	1.901491	0.000436	4.358336	1.476644	-0.000174
1010	1.0040e+02	-0.1973	1.715783	0.000466	4.662406	1.579666	-0.000187
1011	1.0050e+02	-0.2406	1.517963	0.000497	4.966476	1.682688	-0.000199
1012	1.0059e+02	-0.2839	1.348403	0.000426	4.256979	1.442304	-0.000170
1013	1.0069e+02	-0.3257	1.186918	0.000405	4.054266	1.373622	-0.000162
1014	1.0079e+02	-0.3545	1.021395	0.000416	4.155623	1.407963	-0.000166
1015	1.0089e+02	-0.3930	0.892207	0.000324	3.243413	1.098898	-0.000130
1016	1.0099e+02	-0.4299	0.758982	0.000334	3.344769	1.133239	-0.000134
1017	1.0109e+02	-0.4765	0.629793	0.000324	3.243413	1.098898	-0.000130
1018	1.0119e+02	-0.5069	0.488493	0.000355	3.547483	1.201920	-0.000142
1019	1.0129e+02	-0.5519	0.266451	0.000557	5.574616	1.888731	-0.000223
1020	1.0139e+02	-0.5920	0.113040	0.000385	3.851553	1.304941	-0.000154
1021	1.0149e+02	-0.6273	-0.028260	0.000355	3.547483	1.201920	-0.000142
1022	1.0159e+02	-0.6802	-0.189745	0.000405	4.054266	1.373622	-0.000162
1023	1.0169e+02	-0.7107	-0.343157	0.000385	3.851553	1.304941	-0.000154
1024	1.0179e+02	-0.7492	-0.524828	0.000456	4.561049	1.545325	-0.000183
1025	1.0189e+02	-0.7925	-0.654016	0.000324	3.243413	1.098898	-0.000130
1026	1.0199e+02	-0.8406	-0.795316	0.000355	3.547483	1.201920	-0.000142
1027	1.0209e+02	-0.8743	-0.997173	0.000507	5.067832	1.717028	-0.000203
1028	1.0219e+02	-0.9096	-1.170769	0.000436	4.358336	1.476644	-0.000174
1029	1.0229e+02	-0.9577	-1.364552	0.000487	4.865119	1.648347	-0.000195
1030	1.0239e+02	-0.9818	-1.534112	0.000426	4.256979	1.442304	-0.000170
1031	1.0248e+02	-1.0395	-1.679448	0.000365	3.648839	1.236260	-0.000146
1032	1.0258e+02	-1.0732	-1.820748	0.000355	3.547483	1.201920	-0.000142
1033	1.0268e+02	-1.1198	-1.998382	0.000446	4.459693	1.510985	-0.000179
1034	1.0278e+02	-1.1534	-2.131608	0.000334	3.344769	1.133239	-0.000134
1035	1.0288e+02	-1.1984	-2.252722	0.000304	3.040699	1.030217	-0.000122
1036	1.0298e+02	-1.2369	-2.398059	0.000365	3.648839	1.236260	-0.000146
1037	1.0308e+02	-1.2722	-2.591841	0.000487	4.865119	1.648347	-0.000195
1038	1.0318e+02	-1.3123	-2.761401	0.000426	4.256979	1.442304	-0.000170
1039	1.0328e+02	-1.3524	-2.878478	0.000294	2.939343	0.995876	-0.000118
1040	1.0338e+02	-1.3941	-3.064186	0.000466	4.662406	1.579666	-0.000187
1041	1.0348e+02	-1.4326	-3.193374	0.000324	3.243413	1.098898	-0.000130
1042	1.0358e+02	-1.4647	-3.371008	0.000446	4.459693	1.510985	-0.000179
1043	1.0368e+02	-1.5144	-3.520382	0.000375	3.750196	1.270601	-0.000150
1044	1.0378e+02	-1.5481	-3.702053	0.000456	4.561049	1.545325	-0.000183
1045	1.0388e+02	-1.5898	-3.871613	0.000426	4.256979	1.442304	-0.000170
1046	1.0398e+02	-1.6251	-4.016950	0.000365	3.648839	1.236260	-0.000146
1047	1.0408e+02	-1.6684	-4.218807	0.000507	5.067832	1.717028	-0.000203
1048	1.0418e+02	-1.7037	-4.404515	0.000466	4.662406	1.579666	-0.000187
1049	1.0428e+02	-1.7502	-4.545815	0.000355	3.547483	1.201920	-0.000142
1050	1.0438e+02	-1.7919	-4.743634	0.000497	4.966476	1.682688	-0.000199
1051	1.0447e+02	-1.8288	-4.884934	0.000355	3.547483	1.201920	-0.000142
1052	1.0457e+02	-1.8641	-5.030271	0.000365	3.648839	1.236260	-0.000146
1053	1.0467e+02	-1.9155	-5.215979	0.000466	4.662406	1.579666	-0.000187
1054	1.0477e+02	-1.9491	-5.324982	0.000274	2.736630	0.927195	-0.000110
1055	1.0487e+02	-1.9876	-5.514727	0.000476	4.763762	1.614006	-0.000191
1056	1.0497e+02	-2.0310	-5.643916	0.000324	3.243413	1.098898	-0.000130
1057	1.0507e+02	-2.0727	-5.829624	0.000466	4.662406	1.579666	-0.000187
1058	1.0517e+02	-2.1128	-5.978998	0.000375	3.750196	1.270601	-0.000150
1059	1.0527e+02	-2.1481	-6.136446	0.000395	3.952909	1.339282	-0.000158
1060	1.0537e+02	-2.1850	-6.334266	0.000497	4.966476	1.682688	-0.000199
1061	1.0547e+02	-2.2331	-6.515937	0.000456	4.561049	1.545325	-0.000183
1062	1.0557e+02	-2.2684	-6.661274	0.000365	3.648839	1.236260	-0.000146
1063	1.0567e+02	-2.3053	-6.786425	0.000314	3.142056	1.064557	-0.000126
1064	1.0577e+02	-2.3502	-6.968096	0.000456	4.561049	1.545325	-0.000183
1065	1.0587e+02	-2.3967	-7.113433	0.000365	3.648839	1.236260	-0.000146
1066	1.0597e+02	-2.4288	-7.303179	0.000476	4.763762	1.614006	-0.000191
1067	1.0607e+02	-2.4673	-7.488887	0.000466	4.662406	1.579666	-0.000187
1068	1.0617e+02	-2.5026	-7.654409	0.000416	4.155623	1.407963	-0.000166
1069	1.0627e+02	-2.5363	-7.848192	0.000487	4.865119	1.648347	-0.000195
1070	1.0637e+02	-2.5924	-7.989492	0.000355	3.547483	1.201920	-0.000142
1071	1.0647e+02	-2.6181	-8.163088	0.000436	4.358336	1.476644	-0.000174
1072	1.0656e+02	-2.6646	-8.272091	0.000274	2.736630	0.927195	-0.000110
1073	1.0666e+02	-2.7095	-8.469911	0.000497	4.966476	1.682688	-0.000199
1074	1.0676e+02	-2.7513	-8.574876	0.000264	2.635273	0.892855	-0.000105
1075	1.0686e+02	-2.7753	-8.720213	0.000365	3.648839	1.236260	-0.000146
1076	1.0696e+02	-2.8267	-8.873624	0.000385	3.851553	1.304941	-0.000154
1077	1.0706e+02	-2.8587	-9.047221	0.000436	4.358336	1.476644	-0.000174
1078	1.0716e+02	-2.9149	-9.224855	0.000446	4.459693	1.510985	-0.000179
1079	1.0726e+02	-2.9502	-9.358081	0.000334	3.344769	1.133239	-0.000134
1080	1.0736e+02	-2.9871	-9.531677	0.000436	4.358336	1.476644	-0.000174
1081	1.0746e+02	-3.0320	-9.681051	0.000375	3.750196	1.270601	-0.000150
1082	1.0756e+02	-3.0641	-9.858685	0.000446	4.459693	1.510985	-0.000179
1083	1.0766e+02	-3.1186	-10.040357	0.000456	4.561049	1.545325	-0.000183
1084	1.0776e+02	-3.1411	-10.157434	0.000294	2.939343	0.995876	-0.000118
1085	1.0786e+02	-3.1892	-10.363327	0.000517	5.169189	1.751369	-0.000207
1086	1.0796e+02	-3.2181	-10.520776	0.000395	3.952909	1.339282	-0.000158
1087	1.0806e+02	-3.2678	-10.702447	0.000456	4.561049	1.545325	-0.000183
1088	1.0816e+02	-3.3031	-10.867969	0.000416	4.155623	1.407963	-0.000166
1089	1.0826e+02	-3.3480	-11.049641	0.000456	4.561049	1.545325	-0.000183
1090	1.0836e+02	-3.3913	-11.162680	0.000284	2.837986	0.961536	-0.000114
1091	1.0845e+02	-3.4266	-11.356463	0.000487	4.865119	1.648347	-0.000195
1092	1.0855e+02	-3.4684	-11.481614	0.000314	3.142056	1.064557	-0.000126
1093	1.0865e+02	-3.5004	-11.635025	0.000385	3.851553	1.304941	-0.000154
1094	1.0875e+02	-3.5389	-11.756139	0.000304	3.040699	1.030217	-0.000122
1095	1.0885e+02	-3.5887	-11.921662	0.000416	4.155623	1.407963	-0.000166
1096	1.0895e+02	-3.6208	-12.087184	0.000416	4.155623	1.407963	-0.000166
1097	1.0905e+02	-3.6657	-12.256744	0.000426	4.256979	1.442304	-0.000170
1098	1.0915e+02	-3.6945	-12.414192	0.000395	3.952909	1.339282	-0.000158
1099	1.0925e+02	-3.7459	-12.603938	0.000476	4.763762	1.614006	-0.000191
1100	1.0935e+02	-3.7828	-12.716978	0.000284	2.837986	0.961536	-0.000114
1101	1.0945e+02	-3.8277	-12.882500	0.000416	4.155623	1.407963	-0.000166
1102	1.0955e+02	-3.8566	-13.056097	0.000436	4.358336	1.476644	-0.000174
1103	1.0965e+02	-3.9047	-13.225657	0.000426	4.256979	1.442304	-0.000170
1104	1.0975e+02	-3.9336	-13.391179	0.000416	4.155623	1.407963	-0.000166
1105	1.0985e+02	-3.9785	-13.613222	0.000557	5.574616	1.888731	-0.000223
1106	1.0995e+02	-4.0138	-13.746447	0.000334	3.344769	1.133239	-0.000134
1107	1.1005e+02	-4.0619	-13.883710	0.000345	3.446126	1.167579	-0.000138
1108	1.1015e+02	-4.1020	-14.061344	0.000446	4.459693	1.510985	-0.000179
1109	1.1025e+02	-4.1469	-14.206681	0.000365	3.648839	1.236260	-0.000146
1110	1.1035e+02	-4.1806	-14.356055	0.000375	3.750196	1.270601	-0.000150
1111	1.1044e+02	-4.2272	-14.485243	0.000324	3.243413	1.098898	-0.000130
1112	1.1054e+02	-4.2657	-14.642691	0.000395	3.952909	1.339282	-0.000158
1113	1.1064e+02	-4.2993	-14.804177	0.000405	4.054266	1.373622	-0.000162
1114	1.1074e+02	-4.3411	-14.965662	0.000405	4.054266	1.373622	-0.000162
1115	1.1084e+02	-4.3731	-15.123110	0.000395	3.952909	1.339282	-0.000158
1116	1.1094e+02	-4.4277	-15.280559	0.000395	3.952909	1.339282	-0.000158
1117	1.1104e+02	-4.4598	-15.462230	0.000456	4.561049	1.545325	-0.000183
1118	1.1114e+02	-4.4951	-15.615641	0.000385	3.851553	1.304941	-0.000154
1119	1.1124e+02	-4.5352	-15.769052	0.000385	3.851553	1.304941	-0.000154
1120	1.1134e+02	-4.5689	-15.906315	0.000345	3.446126	1.167579	-0.000138
1121	1.1144e+02	-4.6170	-16.071837	0.000416	4.155623	1.407963	-0.000166
1122	1.1154e+02	-4.6651	-16.289843	0.000547	5.473259	1.854390	-0.000219
1123	1.1164e+02	-4.6908	-16.475551	0.000466	4.662406	1.579666	-0.000187
1124	1.1174e+02	-4.7325	-16.637036	0.000405	4.054266	1.373622	-0.000162
1125	1.1184e+02	-4.7790	-16.762188	0.000314	3.142056	1.064557	-0.000126
1126	1.1194e+02	-4.8191	-16.935784	0.000436	4.358336	1.476644	-0.000174
1127	1.1204e+02	-4.8624	-17.069010	0.000334	3.344769	1.133239	-0.000134
1128	1.1214e+02	-4.8865	-17.194161	0.000314	3.142056	1.064557	-0.000126
1129	1.1224e+02	-4.9282	-17.351609	0.000395	3.952909	1.339282	-0.000158
1130	1.1234e+02	-4.9795	-17.480798	0.000324	3.243413	1.098898	-0.000130
1131	1.1244e+02	-5.0164	-17.650357	0.000426	4.256979	1.442304	-0.000170
1132	1.1253e+02	-5.0630	-17.807806	0.000395	3.952909	1.339282	-0.000158
1133	1.1263e+02	-5.0983	-17.957180	0.000375	3.750196	1.270601	-0.000150
1134	1.1273e+02	-5.1416	-18.078294	0.000304	3.040699	1.030217	-0.000122
1135	1.1283e+02	-5.1737	-18.280151	0.000507	5.067832	1.717028	-0.000203
1136	1.1293e+02	-5.2057	-18.441636	0.000405	4.054266	1.373622	-0.000162
1137	1.1303e+02	-5.2507	-18.595047	0.000385	3.851553	1.304941	-0.000154
1138	1.1313e+02	-5.2972	-18.740384	0.000365	3.648839	1.236260	-0.000146
1139	1.1323e+02	-5.3341	-18.901870	0.000405	4.054266	1.373622	-0.000162
1140	1.1333e+02	-5.3790	-19.067392	0.000416	4.155623	1.407963	-0.000166
1141	1.1343e+02	-5.4111	-19.220803	0.000385	3.851553	1.304941	-0.000154
1142	1.1353e+02	-5.4560	-19.390363	0.000426	4.256979	1.442304	-0.000170
1143	1.1363e+02	-5.4961	-19.584145	0.000487	4.865119	1.648347	-0.000195
1144	1.1373e+02	-5.5298	-19.697185	0.000284	2.837986	0.961536	-0.000114
1145	1.1383e+02	-5.5747	-19.874819	0.000446	4.459693	1.510985	-0.000179
1146	1.1393e+02	-5.6196	-19.971710	0.000243	2.432560	0.824173	-0.000097
1147	1.1403e+02	-5.6549	-20.104936	0.000334	3.344769	1.133239	-0.000134
1148	1.1413e+02	-5.6918	-20.278533	0.000436	4.358336	1.476644	-0.000174
1149	1.1423e+02	-5.7351	-20.435981	0.000395	3.952909	1.339282	-0.000158
1150	1.1433e+02	-5.7817	-20.581318	0.000365	3.648839	1.236260	-0.000146
1151	1.1442e+02	-5.8218	-20.758952	0.000446	4.459693	1.510985	-0.000179
1152	1.1452e+02	-5.8603	-20.880066	0.000304	3.040699	1.030217	-0.000122
1153	1.1462e+02	-5.8779	-21.085960	0.000517	5.169189	1.751369	-0.000207
1154	1.1472e+02	-5.9373	-21.186888	0.000253	2.533916	0.858514	-0.000101
1155	1.1482e+02	-5.9726	-21.332225	0.000365	3.648839	1.236260	-0.000146
1156	1.1492e+02	-6.0175	-21.538119	0.000517	5.169189	1.751369	-0.000207
1157	1.1502e+02	-6.0480	-21.687493	0.000375	3.750196	1.270601	-0.000150
1158	1.1512e+02	-6.0977	-21.840904	0.000385	3.851553	1.304941	-0.000154
1159	1.1522e+02	-6.1314	-22.026613	0.000466	4.662406	1.579666	-0.000187
1160	1.1532e+02	-6.1779	-22.180024	0.000385	3.851553	1.304941	-0.000154
1161	1.1542e+02	-6.2036	-22.353621	0.000436	4.358336	1.476644	-0.000174
1162	1.1552e+02	-6.2533	-22.511069	0.000395	3.952909	1.339282	-0.000158
1163	1.1562e+02	-6.2918	-22.656406	0.000365	3.648839	1.236260	-0.000146
1164	1.1572e+02	-6.3319	-22.785594	0.000324	3.243413	1.098898	-0.000130
1165	1.1582e+02	-6.3752	-22.947080	0.000405	4.054266	1.373622	-0.000162
1166	1.1592e+02	-6.4105	-23.080305	0.000334	3.344769	1.133239	-0.000134
1167	1.1602e+02	-6.4506	-23.213530	0.000334	3.344769	1.133239	-0.000134
1168	1.1612e+02	-6.4859	-23.326570	0.000284	2.837986	0.961536	-0.000114
1169	1.1622e+02	-6.5308	-23.520353	0.000487	4.865119	1.648347	-0.000195
1170	1.1632e+02	-6.5741	-23.653578	0.000334	3.344769	1.133239	-0.000134
1171	1.1642e+02	-6.6094	-23.794878	0.000355	3.547483	1.201920	-0.000142
1172	1.1651e+02	-6.6495	-23.984623	0.000476	4.763762	1.614006	-0.000191
1173	1.1661e+02	-6.6929	-24.093626	0.000274	2.736630	0.927195	-0.000110
1174	1.1671e+02	-6.7330	-24.243000	0.000375	3.750196	1.270601	-0.000150
1175	1.1681e+02	-6.7570	-24.436783	0.000487	4.865119	1.648347	-0.000195
1176	1.1691e+02	-6.8084	-24.614417	0.000446	4.459693	1.510985	-0.000179
1177	1.1701e+02	-6.8501	-24.715345	0.000253	2.533916	0.858514	-0.000101
1178	1.1711e+02	-6.8790	-24.917202	0.000507	5.067832	1.717028	-0.000203
1179	1.1721e+02	-6.9191	-25.106947	0.000476	4.763762	1.614006	-0.000191
1180	1.1731e+02	-6.9608	-25.272470	0.000416	4.155623	1.407963	-0.000166
1181	1.1741e+02	-7.0025	-25.409732	0.000345	3.446126	1.167579	-0.000138
1182	1.1751e+02	-7.0394	-25.538921	0.000324	3.243413	1.098898	-0.000130
1183	1.1761e+02	-7.0875	-25.676183	0.000345	3.446126	1.167579	-0.000138
1184	1.1771e+02	-7.1180	-25.797297	0.000304	3.040699	1.030217	-0.000122
1185	1.1781e+02	-7.1645	-25.962820	0.000416	4.155623	1.407963	-0.000166
1186	1.1791e+02	-7.2014	-26.079897	0.000294	2.939343	0.995876	-0.000118
1187	1.1801e+02	-7.2511	-26.301939	0.000557	5.574616	1.888731	-0.000223
1188	1.1811e+02	-7.2816	-26.419016	0.000294	2.939343	0.995876	-0.000118
1189	1.1821e+02	-7.3249	-26.572427	0.000385	3.851553	1.304941	-0.000154
1190	1.1831e+02	-7.3650	-26.733913	0.000405	4.054266	1.373622	-0.000162
1191	1.1841e+02	-7.4083	-26.899435	0.000416	4.155623	1.407963	-0.000166
1192	1.1850e+02	-7.4485	-27.060921	0.000405	4.054266	1.373622	-0.000162
1193	1.1860e+02	-7.4821	-27.182035	0.000304	3.040699	1.030217	-0.000122
1194	1.1870e+02	-7.5222	-27.335446	0.000385	3.851553	1.304941	-0.000154
1195	1.1880e+02	-7.5672	-27.505006	0.000426	4.256979	1.442304	-0.000170
1196	1.1890e+02	-7.5960	-27.682640	0.000446	4.459693	1.510985	-0.000179
1197	1.1900e+02	-7.6458	-27.868348	0.000466	4.662406	1.579666	-0.000187
1198	1.1910e+02	-7.6795	-28.021759	0.000385	3.851553	1.304941	-0.000154
1199	1.1920e+02	-7.7244	-28.171133	0.000375	3.750196	1.270601	-0.000150
1200	1.1930e+02	-7.7549	-28.320507	0.000375	3.750196	1.270601	-0.000150
1201	1.1940e+02	-7.8030	-28.457770	0.000345	3.446126	1.167579	-0.000138
1202	1.1950e+02	-7.8479	-28.558698	0.000253	2.533916	0.858514	-0.000101
1203	1.1960e+02	-7.8880	-28.675775	0.000294	2.939343	0.995876	-0.000118
1204	1.1970e+02	-7.9201	-28.881669	0.000517	5.169189	1.751369	-0.000207
1205	1.1980e+02	-7.9650	-28.970486	0.000223	2.229846	0.755492	-0.000089
1206	1.1990e+02	-8.0019	-29.172343	0.000507	5.067832	1.717028	-0.000203
1207	1.2000e+02	-8.0404	-29.293457	0.000304	3.040699	1.030217	-0.000122
1208	1.2010e+02	-8.0901	-29.430720	0.000345	3.446126	1.167579	-0.000138
1209	1.2020e+02	-8.1222	-29.608354	0.000446	4.459693	1.510985	-0.000179
1210	1.2030e+02	-8.1607	-29.781950	0.000436	4.358336	1.476644	-0.000174
1211	1.2039e+02	-8.1976	-29.935361	0.000385	3.851553	1.304941	-0.000154
1212	1.2049e+02	-8.2458	-30.052438	0.000294	2.939343	0.995876	-0.000118
1213	1.2059e+02	-8.2794	-30.197775	0.000365	3.648839	1.236260	-0.000146
1214	1.2069e+02	-8.3179	-30.403669	0.000517	5.169189	1.751369	-0.000207
1215	1.2079e+02	-8.3564	-30.565155	0.000405	4.054266	1.373622	-0.000162
1216	1.2089e+02	-8.3982	-30.714529	0.000375	3.750196	1.270601	-0.000150
1217	1.2099e+02	-8.4367	-30.920423	0.000517	5.169189	1.751369	-0.000207
1218	1.2109e+02	-8.4832	-31.053648	0.000334	3.344769	1.133239	-0.000134
1219	1.2119e+02	-8.5169	-31.174762	0.000304	3.040699	1.030217	-0.000122
1220	1.2129e+02	-8.5586	-31.324136	0.000375	3.750196	1.270601	-0.000150
1221	1.2139e+02	-8.6019	-31.449287	0.000314	3.142056	1.064557	-0.000126
1222	1.2149e+02	-8.6372	-31.606736	0.000395	3.952909	1.339282	-0.000158
1223	1.2159e+02	-8.6725	-31.772258	0.000416	4.155623	1.407963	-0.000166
1224	1.2169e+02	-8.7142	-31.905484	0.000334	3.344769	1.133239	-0.000134
1225	1.2179e+02	-8.7527	-32.062932	0.000395	3.952909	1.339282	-0.000158
1226	1.2189e+02	-8.7960	-32.256715	0.000487	4.865119	1.648347	-0.000195
1227	1.2199e+02	-8.8473	-32.373791	0.000294	2.939343	0.995876	-0.000118
1228	1.2209e+02	-8.8826	-32.535277	0.000405	4.054266	1.373622	-0.000162
1229	1.2219e+02	-8.9276	-32.688688	0.000385	3.851553	1.304941	-0.000154
1230	1.2229e+02	-8.9612	-32.858248	0.000426	4.256979	1.442304	-0.000170
1231	1.2239e+02	-8.9965	-32.999548	0.000355	3.547483	1.201920	-0.000142
1232	1.2248e+02	-9.0382	-33.161033	0.000405	4.054266	1.373622	-0.000162
1233	1.2258e+02	-9.0735	-33.326556	0.000416	4.155623	1.407963	-0.000166
1234	1.2268e+02	-9.1201	-33.504189	0.000446	4.459693	1.510985	-0.000179
1235	1.2278e+02	-9.1570	-33.661638	0.000395	3.952909	1.339282	-0.000158
1236	1.2288e+02	-9.1906	-33.794863	0.000334	3.344769	1.133239	-0.000134
1237	1.2298e+02	-9.2420	-33.976534	0.000456	4.561049	1.545325	-0.000183
1238	1.2308e+02	-9.2837	-34.049203	0.000182	1.824420	0.618130	-0.000073
1239	1.2318e+02	-9.3190	-34.182428	0.000334	3.344769	1.133239	-0.000134
1240	1.2328e+02	-9.3447	-34.347951	0.000416	4.155623	1.407963	-0.000166
1241	1.2338e+02	-9.4008	-34.561919	0.000537	5.371902	1.820050	-0.000215
1242	1.2348e+02	-9.4409	-34.642662	0.000203	2.027133	0.686811	-0.000081
1243	1.2358e+02	-9.4746	-34.812221	0.000426	4.256979	1.442304	-0.000170
1244	1.2368e+02	-9.5163	-34.929298	0.000294	2.939343	0.995876	-0.000118
1245	1.2378e+02	-9.5564	-35.086747	0.000395	3.952909	1.339282	-0.000158
1246	1.2388e+02	-9.5965	-35.260344	0.000436	4.358336	1.476644	-0.000174
1247	1.2398e+02	-9.6350	-35.381458	0.000304	3.040699	1.030217	-0.000122
1248	1.2408e+02	-9.6799	-35.546980	0.000416	4.155623	1.407963	-0.000166
1249	1.2418e+02	-9.7104	-35.680206	0.000334	3.344769	1.133239	-0.000134
1250	1.2428e+02	-9.7505	-35.878025	0.000497	4.966476	1.682688	-0.000199
1251	1.2438e+02	-9.7906	-36.043548	0.000416	4.155623	1.407963	-0.000166
1252	1.2447e+02	-9.8259	-36.209070	0.000416	4.155623	1.407963	-0.000166
1253	1.2457e+02	-9.8837	-36.342296	0.000334	3.344769	1.133239	-0.000134
1254	1.2467e+02	-9.9093	-36.507818	0.000416	4.155623	1.407963	-0.000166
1255	1.2477e+02	-9.9575	-36.632970	0.000314	3.142056	1.064557	-0.000126
1256	1.2487e+02	-9.9912	-36.838864	0.000517	5.169189	1.751369	-0.000207
1257	1.2497e+02	-10.0329	-36.891346	0.000132	1.317636	0.446427	-0.000053
1258	1.2507e+02	-10.0746	-37.032646	0.000355	3.547483	1.201920	-0.000142
1259	1.2517e+02	-10.1147	-37.218354	0.000466	4.662406	1.579666	-0.000187
1260	1.2527e+02	-10.1564	-37.331394	0.000284	2.837986	0.961536	-0.000114
1261	1.2537e+02	-10.1917	-37.509028	0.000446	4.459693	1.510985	-0.000179
1262	1.2547e+02	-10.2350	-37.630142	0.000304	3.040699	1.030217	-0.000122
1263	1.2557e+02	-10.2703	-37.791628	0.000405	4.054266	1.373622	-0.000162
1264	1.2567e+02	-10.3200	-37.920816	0.000324	3.243413	1.098898	-0.000130
1265	1.2577e+02	-10.3569	-38.074227	0.000385	3.851553	1.304941	-0.000154
1266	1.2587e+02	-10.3970	-38.227638	0.000385	3.851553	1.304941	-0.000154
1267	1.2597e+02	-10.4387	-38.393161	0.000416	4.155623	1.407963	-0.000166
1268	1.2607e+02	-10.4724	-38.530423	0.000345	3.446126	1.167579	-0.000138
1269	1.2617e+02	-10.5077	-38.695946	0.000416	4.155623	1.407963	-0.000166
1270	1.2627e+02	-10.5462	-38.885691	0.000476	4.763762	1.614006	-0.000191
1271	1.2636e+02	-10.5879	-38.982583	0.000243	2.432560	0.824173	-0.000097
1272	1.2646e+02	-10.6232	-39.172328	0.000476	4.763762	1.614006	-0.000191
1273	1.2656e+02	-10.6762	-39.353999	0.000456	4.561049	1.545325	-0.000183
1274	1.2666e+02	-10.7066	-39.491262	0.000345	3.446126	1.167579	-0.000138
1275	1.2676e+02	-10.7516	-39.616413	0.000314	3.142056	1.064557	-0.000126
1276	1.2686e+02	-10.7949	-39.729453	0.000284	2.837986	0.961536	-0.000114
1277	1.2696e+02	-10.8302	-39.858641	0.000324	3.243413	1.098898	-0.000130
1278	1.2706e+02	-10.8719	-39.983792	0.000314	3.142056	1.064557	-0.000126
1279	1.2716e+02	-10.9104	-40.153352	0.000426	4.256979	1.442304	-0.000170
1280	1.2726e+02	-10.9585	-40.302726	0.000375	3.750196	1.270601	-0.000150
1281	1.2736e+02	-10.9890	-40.419803	0.000294	2.939343	0.995876	-0.000118
1282	1.2746e+02	-11.0323	-40.601474	0.000456	4.561049	1.545325	-0.000183
1283	1.2756e+02	-11.0788	-40.758922	0.000395	3.952909	1.339282	-0.000158
1284	1.2766e+02	-11.1029	-40.888111	0.000324	3.243413	1.098898	-0.000130
1285	1.2776e+02	-11.1590	-41.037485	0.000375	3.750196	1.270601	-0.000150
1286	1.2786e+02	-11.1895	-41.190896	0.000385	3.851553	1.304941	-0.000154
1287	1.2796e+02	-11.2360	-41.392753	0.000507	5.067832	1.717028	-0.000203
1288	1.2806e+02	-11.2633	-41.590572	0.000497	4.966476	1.682688	-0.000199
1289	1.2816e+02	-11.3098	-41.691501	0.000253	2.533916	0.858514	-0.000101
1290	1.2826e+02	-11.3499	-41.873172	0.000456	4.561049	1.545325	-0.000183
1291	1.2835e+02	-11.3804	-41.994286	0.000304	3.040699	1.030217	-0.000122
1292	1.2845e+02	-11.4221	-42.163846	0.000426	4.256979	1.442304	-0.000170
1293	1.2855e+02	-11.4655	-42.313220	0.000375	3.750196	1.270601	-0.000150
1294	1.2865e+02	-11.5120	-42.410111	0.000243	2.432560	0.824173	-0.000097
1295	1.2875e+02	-11.5441	-42.519114	0.000274	2.736630	0.927195	-0.000110
1296	1.2885e+02	-11.5906	-42.676562	0.000395	3.952909	1.339282	-0.000158
1297	1.2895e+02	-11.6275	-42.817862	0.000355	3.547483	1.201920	-0.000142
1298	1.2905e+02	-11.6708	-42.963199	0.000365	3.648839	1.236260	-0.000146
1299	1.2915e+02	-11.7093	-43.088350	0.000314	3.142056	1.064557	-0.000126
1300	1.2925e+02	-11.7430	-43.278095	0.000476	4.763762	1.614006	-0.000191
1301	1.2935e+02	-11.7879	-43.379024	0.000253	2.533916	0.858514	-0.000101
1302	1.2945e+02	-11.8216	-43.500138	0.000304	3.040699	1.030217	-0.000122
1303	1.2955e+02	-11.8745	-43.701994	0.000507	5.067832	1.717028	-0.000203
1304	1.2965e+02	-11.8986	-43.843294	0.000355	3.547483	1.201920	-0.000142
1305	1.2975e+02	-11.9419	-43.968445	0.000314	3.142056	1.064557	-0.000126
1306	1.2985e+02	-11.9836	-44.142042	0.000436	4.358336	1.476644	-0.000174
1307	1.2995e+02	-12.0221	-44.275268	0.000334	3.344769	1.133239	-0.000134
1308	1.3005e+02	-12.0654	-44.469050	0.000487	4.865119	1.648347	-0.000195
1309	1.3015e+02	-12.1055	-44.618424	0.000375	3.750196	1.270601	-0.000150
1310	1.3025e+02	-12.1392	-44.755687	0.000345	3.446126	1.167579	-0.000138
1311	1.3034e+02	-12.1954	-44.880838	0.000314	3.142056	1.064557	-0.000126
1312	1.3044e+02	-12.2339	-45.010026	0.000324	3.243413	1.098898	-0.000130
1313	1.3054e+02	-12.2708	-45.155363	0.000365	3.648839	1.236260	-0.000146
1314	1.3064e+02	-12.3061	-45.268403	0.000284	2.837986	0.961536	-0.000114
1315	1.3074e+02	-12.3478	-45.401629	0.000334	3.344769	1.133239	-0.000134
1316	1.3084e+02	-12.3895	-45.542928	0.000355	3.547483	1.201920	-0.000142
1317	1.3094e+02	-12.4168	-45.684228	0.000355	3.547483	1.201920	-0.000142
1318	1.3104e+02	-12.4649	-45.809379	0.000314	3.142056	1.064557	-0.000126
1319	1.3114e+02	-12.5002	-45.934530	0.000314	3.142056	1.064557	-0.000126
1320	1.3124e+02	-12.5451	-46.112164	0.000446	4.459693	1.510985	-0.000179
1321	1.3134e+02	-12.5916	-46.217130	0.000264	2.635273	0.892855	-0.000105
1322	1.3144e+02	-12.6221	-46.382652	0.000416	4.155623	1.407963	-0.000166
1323	1.3154e+02	-12.6622	-46.536064	0.000385	3.851553	1.304941	-0.000154
1324	1.3164e+02	-12.6879	-46.729846	0.000487	4.865119	1.648347	-0.000195
1325	1.3174e+02	-12.7360	-46.899406	0.000426	4.256979	1.442304	-0.000170
1326	1.3184e+02	-12.7841	-47.004371	0.000264	2.635273	0.892855	-0.000105
1327	1.3194e+02	-12.8210	-47.165857	0.000405	4.054266	1.373622	-0.000162
1328	1.3204e+02	-12.8611	-47.282934	0.000294	2.939343	0.995876	-0.000118
1329	1.3214e+02	-12.8980	-47.440382	0.000395	3.952909	1.339282	-0.000158
1330	1.3224e+02	-12.9365	-47.577645	0.000345	3.446126	1.167579	-0.000138
1331	1.3234e+02	-12.9815	-47.694722	0.000294	2.939343	0.995876	-0.000118
1332	1.3243e+02	-13.0151	-47.823910	0.000324	3.243413	1.098898	-0.000130
1333	1.3253e+02	-13.0649	-47.932913	0.000274	2.736630	0.927195	-0.000110
1334	1.3263e+02	-13.0937	-48.090361	0.000395	3.952909	1.339282	-0.000158
1335	1.3273e+02	-13.1403	-48.239735	0.000375	3.750196	1.270601	-0.000150
1336	1.3283e+02	-13.1804	-48.393146	0.000385	3.851553	1.304941	-0.000154
1337	1.3293e+02	-13.2237	-48.558669	0.000416	4.155623	1.407963	-0.000166
1338	1.3303e+02	-13.2590	-48.667671	0.000274	2.736630	0.927195	-0.000110
1339	1.3313e+02	-13.3039	-48.857417	0.000476	4.763762	1.614006	-0.000191
1340	1.3323e+02	-13.3472	-48.962382	0.000264	2.635273	0.892855	-0.000105
1341	1.3333e+02	-13.3841	-49.107719	0.000365	3.648839	1.236260	-0.000146
1342	1.3343e+02	-13.4258	-49.257093	0.000375	3.750196	1.270601	-0.000150
1343	1.3353e+02	-13.4595	-49.422616	0.000416	4.155623	1.407963	-0.000166
1344	1.3363e+02	-13.4900	-49.584101	0.000405	4.054266	1.373622	-0.000162
1345	1.3373e+02	-13.5349	-49.729438	0.000365	3.648839	1.236260	-0.000146
1346	1.3383e+02	-13.5734	-49.854589	0.000314	3.142056	1.064557	-0.000126
1347	1.3393e+02	-13.6167	-49.987815	0.000334	3.344769	1.133239	-0.000134
1348	1.3403e+02	-13.6552	-50.169486	0.000456	4.561049	1.545325	-0.000183
1349	1.3413e+02	-13.6921	-50.282526	0.000284	2.837986	0.961536	-0.000114
1350	1.3423e+02	-13.7403	-50.427863	0.000365	3.648839	1.236260	-0.000146
1351	1.3432e+02	-13.7836	-50.544939	0.000294	2.939343	0.995876	-0.000118
1352	1.3442e+02	-13.8189	-50.678165	0.000334	3.344769	1.133239	-0.000134
1353	1.3452e+02	-13.8606	-50.823502	0.000365	3.648839	1.236260	-0.000146
1354	1.3462e+02	-13.9007	-50.960764	0.000345	3.446126	1.167579	-0.000138
1355	1.3472e+02	-13.9424	-51.061693	0.000253	2.533916	0.858514	-0.000101
1356	1.3482e+02	-13.9761	-51.223178	0.000405	4.054266	1.373622	-0.000162
1357	1.3492e+02	-14.0242	-51.372552	0.000375	3.750196	1.270601	-0.000150
1358	1.3502e+02	-14.0611	-51.530001	0.000395	3.952909	1.339282	-0.000158
1359	1.3512e+02	-14.0884	-51.655152	0.000314	3.142056	1.064557	-0.000126
1360	1.3522e+02	-14.1365	-51.836823	0.000456	4.561049	1.545325	-0.000183
1361	1.3532e+02	-14.1862	-51.933714	0.000243	2.432560	0.824173	-0.000097
1362	1.3542e+02	-14.2167	-52.139608	0.000517	5.169189	1.751369	-0.000207
1363	1.3552e+02	-14.2536	-52.305131	0.000416	4.155623	1.407963	-0.000166
1364	1.3562e+02	-14.3017	-52.365688	0.000152	1.520350	0.515108	-0.000061
1365	1.3572e+02	-14.3434	-52.559470	0.000487	4.865119	1.648347	-0.000195
1366	1.3582e+02	-14.3755	-52.664436	0.000264	2.635273	0.892855	-0.000105
1367	1.3592e+02	-14.4140	-52.809773	0.000365	3.648839	1.236260	-0.000146
1368	1.3602e+02	-14.4557	-52.999518	0.000476	4.763762	1.614006	-0.000191
1369	1.3612e+02	-14.5039	-53.068149	0.000172	1.723063	0.583790	-0.000069
1370	1.3622e+02	-14.5408	-53.197338	0.000324	3.243413	1.098898	-0.000130
1371	1.3631e+02	-14.5729	-53.342675	0.000365	3.648839	1.236260	-0.000146
1372	1.3641e+02	-14.6178	-53.471863	0.000324	3.243413	1.098898	-0.000130
1373	1.3651e+02	-14.6563	-53.617200	0.000365	3.648839	1.236260	-0.000146
1374	1.3661e+02	-14.6868	-53.762537	0.000365	3.648839	1.236260	-0.000146
1375	1.3671e+02	-14.7285	-53.847316	0.000213	2.128490	0.721152	-0.000085
1376	1.3681e+02	-14.7734	-54.041099	0.000487	4.865119	1.648347	-0.000195
1377	1.3691e+02	-14.8151	-54.202584	0.000405	4.054266	1.373622	-0.000162
1378	1.3701e+02	-14.8536	-54.376181	0.000436	4.358336	1.476644	-0.000174
1379	1.3711e+02	-14.8953	-54.517481	0.000355	3.547483	1.201920	-0.000142
1380	1.3721e+02	-14.9370	-54.626484	0.000274	2.736630	0.927195	-0.000110
1381	1.3731e+02	-14.9739	-54.812192	0.000466	4.662406	1.579666	-0.000187
1382	1.3741e+02	-15.0092	-54.901009	0.000223	2.229846	0.755492	-0.000089
1383	1.3751e+02	-15.0429	-55.062494	0.000405	4.054266	1.373622	-0.000162
1384	1.3761e+02	-15.0894	-55.256277	0.000487	4.865119	1.648347	-0.000195
1385	1.3771e+02	-15.1327	-55.381428	0.000314	3.142056	1.064557	-0.000126
1386	1.3781e+02	-15.1793	-55.486394	0.000264	2.635273	0.892855	-0.000105
1387	1.3791e+02	-15.2017	-55.627693	0.000355	3.547483	1.201920	-0.000142
1388	1.3801e+02	-15.2530	-55.716510	0.000223	2.229846	0.755492	-0.000089
1389	1.3811e+02	-15.2964	-55.894144	0.000446	4.459693	1.510985	-0.000179
1390	1.3821e+02	-15.3381	-56.015258	0.000304	3.040699	1.030217	-0.000122
1391	1.3831e+02	-15.3718	-56.188855	0.000436	4.358336	1.476644	-0.000174
1392	1.3840e+02	-15.4199	-56.293821	0.000264	2.635273	0.892855	-0.000105
1393	1.3850e+02	-15.4536	-56.479529	0.000466	4.662406	1.579666	-0.000187
1394	1.3860e+02	-15.4985	-56.657163	0.000446	4.459693	1.510985	-0.000179
1395	1.3870e+02	-15.5322	-56.814611	0.000395	3.952909	1.339282	-0.000158
1396	1.3880e+02	-15.5675	-56.968022	0.000385	3.851553	1.304941	-0.000154
1397	1.3890e+02	-15.6140	-57.077025	0.000274	2.736630	0.927195	-0.000110
1398	1.3900e+02	-15.6541	-57.210251	0.000334	3.344769	1.133239	-0.000134
1399	1.3910e+02	-15.6878	-57.416144	0.000517	5.169189	1.751369	-0.000207
1400	1.3920e+02	-15.7311	-57.513036	0.000243	2.432560	0.824173	-0.000097
1401	1.3930e+02	-15.7648	-57.666447	0.000385	3.851553	1.304941	-0.000154
1402	1.3940e+02	-15.8145	-57.787561	0.000304	3.040699	1.030217	-0.000122
1403	1.3950e+02	-15.8530	-57.940972	0.000385	3.851553	1.304941	-0.000154
1404	1.3960e+02	-15.8899	-58.066123	0.000314	3.142056	1.064557	-0.000126
1405	1.3970e+02	-15.9381	-58.179163	0.000284	2.837986	0.961536	-0.000114
1406	1.3980e+02	-15.9669	-58.312389	0.000334	3.344769	1.133239	-0.000134
1407	1.3990e+02	-16.0006	-58.453688	0.000355	3.547483	1.201920	-0.000142
1408	1.4000e+02	-16.0552	-58.566728	0.000284	2.837986	0.961536	-0.000114
1409	1.4010e+02	-16.0969	-58.691879	0.000314	3.142056	1.064557	-0.000126
1410	1.4020e+02	-16.1402	-58.861439	0.000426	4.256979	1.442304	-0.000170
1411	1.4029e+02	-16.1610	-59.014850	0.000385	3.851553	1.304941	-0.000154
1412	1.4039e+02	-16.1995	-59.156150	0.000355	3.547483	1.201920	-0.000142
1413	1.4049e+02	-16.2557	-59.305524	0.000375	3.750196	1.270601	-0.000150
1414	1.4059e+02	-16.2782	-59.495269	0.000476	4.763762	1.614006	-0.000191
1415	1.4069e+02	-16.3295	-59.620421	0.000314	3.142056	1.064557	-0.000126
1416	1.4079e+02	-16.3632	-59.769795	0.000375	3.750196	1.270601	-0.000150
1417	1.4089e+02	-16.4001	-59.903020	0.000334	3.344769	1.133239	-0.000134
1418	1.4099e+02	-16.4450	-60.028171	0.000314	3.142056	1.064557	-0.000126
1419	1.4109e+02	-16.4947	-60.181582	0.000385	3.851553	1.304941	-0.000154
1420	1.4119e+02	-16.5252	-60.371328	0.000476	4.763762	1.614006	-0.000191
1421	1.4129e+02	-16.5685	-60.472256	0.000253	2.533916	0.858514	-0.000101
1422	1.4139e+02	-16.6054	-60.589333	0.000294	2.939343	0.995876	-0.000118
1423	1.4149e+02	-16.6439	-60.714484	0.000314	3.142056	1.064557	-0.000126
1424	1.4159e+02	-16.6888	-60.871933	0.000395	3.952909	1.339282	-0.000158
1425	1.4169e+02	-16.7273	-60.956713	0.000213	2.128490	0.721152	-0.000085
1426	1.4179e+02	-16.7674	-61.106087	0.000375	3.750196	1.270601	-0.000150
1427	1.4189e+02	-16.8108	-61.263535	0.000395	3.952909	1.339282	-0.000158
1428	1.4199e+02	-16.8493	-61.380612	0.000294	2.939343	0.995876	-0.000118
1429	1.4209e+02	-16.8910	-61.505763	0.000314	3.142056	1.064557	-0.000126
1430	1.4219e+02	-16.9247	-61.715694	0.000527	5.270546	1.785709	-0.000211
1431	1.4228e+02	-16.9664	-61.865068	0.000375	3.750196	1.270601	-0.000150
1432	1.4238e+02	-17.0049	-62.026553	0.000405	4.054266	1.373622	-0.000162
1433	1.4248e+02	-17.0418	-62.151705	0.000314	3.142056	1.064557	-0.000126
1434	1.4258e+02	-17.0771	-62.272819	0.000304	3.040699	1.030217	-0.000122
1435	1.4268e+02	-17.1236	-62.389896	0.000294	2.939343	0.995876	-0.000118
1436	1.4278e+02	-17.1701	-62.547344	0.000395	3.952909	1.339282	-0.000158
1437	1.4288e+02	-17.2070	-62.692681	0.000365	3.648839	1.236260	-0.000146
1438	1.4298e+02	-17.2535	-62.833981	0.000355	3.547483	1.201920	-0.000142
1439	1.4308e+02	-17.2856	-62.971243	0.000345	3.446126	1.167579	-0.000138
1440	1.4318e+02	-17.3193	-63.100432	0.000324	3.243413	1.098898	-0.000130
1441	1.4328e+02	-17.3658	-63.249806	0.000375	3.750196	1.270601	-0.000150
1442	1.4338e+02	-17.3979	-63.383031	0.000334	3.344769	1.133239	-0.000134
1443	1.4348e+02	-17.4476	-63.516257	0.000334	3.344769	1.133239	-0.000134
1444	1.4358e+02	-17.4829	-63.601036	0.000213	2.128490	0.721152	-0.000085
1445	1.4368e+02	-17.5166	-63.758485	0.000395	3.952909	1.339282	-0.000158
1446	1.4378e+02	-17.5744	-63.883636	0.000314	3.142056	1.064557	-0.000126
1447	1.4388e+02	-17.6049	-64.065307	0.000456	4.561049	1.545325	-0.000183
1448	1.4398e+02	-17.6401	-64.210644	0.000365	3.648839	1.236260	-0.000146
1449	1.4408e+02	-17.6786	-64.404426	0.000487	4.865119	1.648347	-0.000195
1450	1.4418e+02	-17.7155	-64.489206	0.000213	2.128490	0.721152	-0.000085
1451	1.4428e+02	-17.7701	-64.654729	0.000416	4.155623	1.407963	-0.000166
1452	1.4437e+02	-17.7958	-64.767769	0.000284	2.837986	0.961536	-0.000114
1453	1.4447e+02	-17.8375	-64.917143	0.000375	3.750196	1.270601	-0.000150
1454	1.4457e+02	-17.8856	-65.106888	0.000476	4.763762	1.614006	-0.000191
1455	1.4467e+02	-17.9161	-65.240114	0.000334	3.344769	1.133239	-0.000134
1456	1.4477e+02	-17.9562	-65.357190	0.000294	2.939343	0.995876	-0.000118
1457	1.4487e+02	-18.0059	-65.510602	0.000385	3.851553	1.304941	-0.000154
1458	1.4497e+02	-18.0428	-65.619604	0.000274	2.736630	0.927195	-0.000110
1459	1.4507e+02	-18.0797	-65.801275	0.000456	4.561049	1.545325	-0.000183
1460	1.4517e+02	-18.1246	-65.962761	0.000405	4.054266	1.373622	-0.000162
1461	1.4527e+02	-18.1711	-66.067726	0.000264	2.635273	0.892855	-0.000105
1462	1.4537e+02	-18.2096	-66.168655	0.000253	2.533916	0.858514	-0.000101
1463	1.4547e+02	-18.2401	-66.313992	0.000365	3.648839	1.236260	-0.000146
1464	1.4557e+02	-18.2786	-66.435106	0.000304	3.040699	1.030217	-0.000122
1465	1.4567e+02	-18.3219	-66.628888	0.000487	4.865119	1.648347	-0.000195
1466	1.4577e+02	-18.3685	-66.750002	0.000304	3.040699	1.030217	-0.000122
1467	1.4587e+02	-18.3909	-66.899376	0.000375	3.750196	1.270601	-0.000150
1468	1.4597e+02	-18.4455	-67.032602	0.000334	3.344769	1.133239	-0.000134
1469	1.4607e+02	-18.4824	-67.161790	0.000324	3.243413	1.098898	-0.000130
1470	1.4617e+02	-18.5161	-67.307127	0.000365	3.648839	1.236260	-0.000146
1471	1.4626e+02	-18.5658	-67.480724	0.000436	4.358336	1.476644	-0.000174
1472	1.4636e+02	-18.5898	-67.593764	0.000284	2.837986	0.961536	-0.000114
1473	1.4646e+02	-18.6380	-67.739101	0.000365	3.648839	1.236260	-0.000146
1474	1.4656e+02	-18.6861	-67.856177	0.000294	2.939343	0.995876	-0.000118
1475	1.4666e+02	-18.7166	-68.025737	0.000426	4.256979	1.442304	-0.000170
1476	1.4676e+02	-18.7679	-68.102443	0.000193	1.925776	0.652471	-0.000077
1477	1.4686e+02	-18.8096	-68.259891	0.000395	3.952909	1.339282	-0.000158
1478	1.4696e+02	-18.8369	-68.433488	0.000436	4.358336	1.476644	-0.000174
1479	1.4706e+02	-18.8850	-68.603048	0.000426	4.256979	1.442304	-0.000170
1480	1.4716e+02	-18.9171	-68.647456	0.000111	1.114923	0.377746	-0.000045
1481	1.4726e+02	-18.9588	-68.825090	0.000446	4.459693	1.510985	-0.000179
1482	1.4736e+02	-19.0005	-68.942167	0.000294	2.939343	0.995876	-0.000118
1483	1.4746e+02	-19.0390	-69.079430	0.000345	3.446126	1.167579	-0.000138
1484	1.4756e+02	-19.0888	-69.277249	0.000497	4.966476	1.682688	-0.000199
1485	1.4766e+02	-19.1064	-69.422586	0.000365	3.648839	1.236260	-0.000146
1486	1.4776e+02	-19.1577	-69.588109	0.000416	4.155623	1.407963	-0.000166
1487	1.4786e+02	-19.2043	-69.717297	0.000324	3.243413	1.098898	-0.000130
1488	1.4796e+02	-19.2396	-69.890894	0.000436	4.358336	1.476644	-0.000174
1489	1.4806e+02	-19.2781	-69.995859	0.000264	2.635273	0.892855	-0.000105
1490	1.4816e+02	-19.3214	-70.125048	0.000324	3.243413	1.098898	-0.000130
1491	1.4825e+02	-19.3551	-70.294607	0.000426	4.256979	1.442304	-0.000170
1492	1.4835e+02	-19.3984	-70.395536	0.000253	2.533916	0.858514	-0.000101
1493	1.4845e+02	-19.4401	-70.565096	0.000426	4.256979	1.442304	-0.000170
1494	1.4855e+02	-19.4770	-70.722544	0.000395	3.952909	1.339282	-0.000158
1495	1.4865e+02	-19.5155	-70.871918	0.000375	3.750196	1.270601	-0.000150
1496	1.4875e+02	-19.5508	-71.013218	0.000355	3.547483	1.201920	-0.000142
1497	1.4885e+02	-19.5925	-71.130295	0.000294	2.939343	0.995876	-0.000118
1498	1.4895e+02	-19.6294	-71.255446	0.000314	3.142056	1.064557	-0.000126
1499	1.4905e+02	-19.6759	-71.372523	0.000294	2.939343	0.995876	-0.000118
1500	1.4915e+02	-19.7176	-71.566305	0.000487	4.865119	1.648347	-0.000195
1501	1.4925e+02	-19.7449	-71.772199	0.000517	5.169189	1.751369	-0.000207
1502	1.4935e+02	-19.7850	-71.901387	0.000324	3.243413	1.098898	-0.000130
1503	1.4945e+02	-19.8363	-72.042687	0.000355	3.547483	1.201920	-0.000142
1504	1.4955e+02	-19.8716	-72.159764	0.000294	2.939343	0.995876	-0.000118
1505	1.4965e+02	-19.9198	-72.341435	0.000456	4.561049	1.545325	-0.000183
1506	1.4975e+02	-19.9502	-72.502921	0.000405	4.054266	1.373622	-0.000162
1507	1.4985e+02	-19.9936	-72.652295	0.000375	3.750196	1.270601	-0.000150
1508	1.4995e+02	-19.9534	-72.575589	0.000193	1.925776	0.652471	0.000077
1509	1.5005e+02	-19.9101	-72.502921	0.000182	1.824420	0.618130	0.000073
1510	1.5015e+02	-19.8684	-72.442364	0.000152	1.520350	0.515108	0.000061
1511	1.5025e+02	-19.8315	-72.361621	0.000203	2.027133	0.686811	0.000081
1512	1.5034e+02	-19.7978	-72.301064	0.000152	1.520350	0.515108	0.000061
1513	1.5044e+02	-19.7609	-72.224358	0.000193	1.925776	0.652471	0.000077
1514	1.5054e+02	-19.7160	-72.139579	0.000213	2.128490	0.721152	0.000085
1515	1.5064e+02	-19.6823	-72.054799	0.000213	2.128490	0.721152	0.000085
1516	1.5074e+02	-19.6310	-71.929647	0.000314	3.142056	1.064557	0.000126
1517	1.5084e+02	-19.5973	-71.804496	0.000314	3.142056	1.064557	0.000126
1518	1.5094e+02	-19.5492	-71.776236	0.000071	0.709497	0.240384	0.000028
1519	1.5104e+02	-19.5171	-71.695494	0.000203	2.027133	0.686811	0.000081
1520	1.5114e+02	-19.4706	-71.586491	0.000274	2.736630	0.927195	0.000110
1521	1.5124e+02	-19.4305	-71.529971	0.000142	1.418993	0.480768	0.000057
1522	1.5134e+02	-19.3839	-71.429043	0.000253	2.533916	0.858514	0.000101
1523	1.5144e+02	-19.3487	-71.316003	0.000284	2.837986	0.961536	0.000114
1524	1.5154e+02	-19.3182	-71.235260	0.000203	2.027133	0.686811	0.000081
1525	1.5164e+02	-19.2765	-71.110109	0.000314	3.142056	1.064557	0.000126
1526	1.5174e+02	-19.2476	-71.053589	0.000142	1.418993	0.480768	0.000057
1527	1.5184e+02	-19.2091	-70.948623	0.000264	2.635273	0.892855	0.000105
1528	1.5194e+02	-19.1594	-70.859806	0.000223	2.229846	0.755492	0.000089
1529	1.5204e+02	-19.1225	-70.766952	0.000233	2.331203	0.789833	0.000093
1530	1.5214e+02	-19.0759	-70.666024	0.000253	2.533916	0.858514	0.000101
1531	1.5224e+02	-19.0422	-70.589318	0.000193	1.925776	0.652471	0.000077
1532	1.5233e+02	-19.0070	-70.443981	0.000365	3.648839	1.236260	0.000146
1533	1.5243e+02	-18.9524	-70.363239	0.000203	2.027133	0.686811	0.000081
1534	1.5253e+02	-18.9203	-70.230013	0.000334	3.344769	1.133239	0.000134
1535	1.5263e+02	-18.8738	-70.141196	0.000223	2.229846	0.755492	0.000089
1536	1.5273e+02	-18.8353	-70.032194	0.000274	2.736630	0.927195	0.000110
1537	1.5283e+02	-18.8032	-69.898968	0.000334	3.344769	1.133239	0.000134
1538	1.5293e+02	-18.7519	-69.854560	0.000111	1.114923	0.377746	0.000045
1539	1.5303e+02	-18.7198	-69.729408	0.000314	3.142056	1.064557	0.000126
1540	1.5313e+02	-18.6829	-69.652703	0.000193	1.925776	0.652471	0.000077
1541	1.5323e+02	-18.6300	-69.527552	0.000314	3.142056	1.064557	0.000126
1542	1.5333e+02	-18.6043	-69.406438	0.000304	3.040699	1.030217	0.000122
1543	1.5343e+02	-18.5658	-69.293398	0.000284	2.837986	0.961536	0.000114
1544	1.5353e+02	-18.5305	-69.224767	0.000172	1.723063	0.583790	0.000069
1545	1.5363e+02	-18.4840	-69.127875	0.000243	2.432560	0.824173	0.000097
1546	1.5373e+02	-18.4374	-69.002724	0.000314	3.142056	1.064557	0.000126
1547	1.5383e+02	-18.4134	-68.893721	0.000274	2.736630	0.927195	0.000110
1548	1.5393e+02	-18.3572	-68.821053	0.000182	1.824420	0.618130	0.000073
1549	1.5403e+02	-18.3203	-68.663605	0.000395	3.952909	1.339282	0.000158
1550	1.5413e+02	-18.2834	-68.594973	0.000172	1.723063	0.583790	0.000069
1551	1.5422e+02	-18.2433	-68.498082	0.000243	2.432560	0.824173	0.000097
1552	1.5432e+02	-18.1936	-68.421376	0.000193	1.925776	0.652471	0.000077
1553	1.5442e+02	-18.1599	-68.308337	0.000284	2.837986	0.961536	0.000114
1554	1.5452e+02	-18.1038	-68.163000	0.000365	3.648839	1.236260	0.000146
1555	1.5462e+02	-18.0717	-68.082257	0.000203	2.027133	0.686811	0.000081
1556	1.5472e+02	-18.0396	-67.944994	0.000345	3.446126	1.167579	0.000138
1557	1.5482e+02	-18.0027	-67.860215	0.000213	2.128490	0.721152	0.000085
1558	1.5492e+02	-17.9594	-67.747175	0.000284	2.837986	0.961536	0.000114
1559	1.5502e+02	-17.9209	-67.638172	0.000274	2.736630	0.927195	0.000110
1560	1.5512e+02	-17.8808	-67.541281	0.000243	2.432560	0.824173	0.000097
1561	1.5522e+02	-17.8455	-67.468612	0.000182	1.824420	0.618130	0.000073
1562	1.5532e+02	-17.7958	-67.327313	0.000355	3.547483	1.201920	0.000142
1563	1.5542e+02	-17.7637	-67.246570	0.000203	2.027133	0.686811	0.000081
1564	1.5552e+02	-17.7220	-67.077010	0.000426	4.256979	1.442304	0.000170
1565	1.5562e+02	-17.6819	-66.976082	0.000253	2.533916	0.858514	0.000101
1566	1.5572e+02	-17.6498	-66.887265	0.000223	2.229846	0.755492	0.000089
1567	1.5582e+02	-17.6065	-66.790374	0.000243	2.432560	0.824173	0.000097
1568	1.5592e+02	-17.5631	-66.705594	0.000213	2.128490	0.721152	0.000085
1569	1.5602e+02	-17.5246	-66.572368	0.000334	3.344769	1.133239	0.000134
1570	1.5612e+02	-17.4781	-66.495663	0.000193	1.925776	0.652471	0.000077
1571	1.5622e+02	-17.4348	-66.362437	0.000334	3.344769	1.133239	0.000134
1572	1.5631e+02	-17.3979	-66.196915	0.000416	4.155623	1.407963	0.000166
1573	1.5641e+02	-17.3626	-66.124246	0.000182	1.824420	0.618130	0.000073
1574	1.5651e+02	-17.3257	-66.011206	0.000284	2.837986	0.961536	0.000114
1575	1.5661e+02	-17.2856	-65.926427	0.000213	2.128490	0.721152	0.000085
1576	1.5671e+02	-17.2535	-65.805313	0.000304	3.040699	1.030217	0.000122
1577	1.5681e+02	-17.2086	-65.676124	0.000324	3.243413	1.098898	0.000130
1578	1.5691e+02	-17.1733	-65.583270	0.000233	2.331203	0.789833	0.000093
1579	1.5701e+02	-17.1252	-65.433896	0.000375	3.750196	1.270601	0.000150
1580	1.5711e+02	-17.0915	-65.345079	0.000223	2.229846	0.755492	0.000089
1581	1.5721e+02	-17.0482	-65.244151	0.000253	2.533916	0.858514	0.000101
1582	1.5731e+02	-16.9985	-65.147259	0.000243	2.432560	0.824173	0.000097
1583	1.5741e+02	-16.9744	-65.022108	0.000314	3.142056	1.064557	0.000126
1584	1.5751e+02	-16.9359	-64.925217	0.000243	2.432560	0.824173	0.000097
1585	1.5761e+02	-16.8862	-64.775843	0.000375	3.750196	1.270601	0.000150
1586	1.5771e+02	-16.8493	-64.650692	0.000314	3.142056	1.064557	0.000126
1587	1.5781e+02	-16.8092	-64.537652	0.000284	2.837986	0.961536	0.000114
1588	1.5791e+02	-16.7626	-64.469021	0.000172	1.723063	0.583790	0.000069
1589	1.5801e+02	-16.7289	-64.291387	0.000446	4.459693	1.510985	0.000179
1590	1.5811e+02	-16.6856	-64.186421	0.000264	2.635273	0.892855	0.000105
1591	1.5821e+02	-16.6471	-64.093567	0.000233	2.331203	0.789833	0.000093
1592	1.5830e+02	-16.6102	-63.996676	0.000243	2.432560	0.824173	0.000097
1593	1.5840e+02	-16.5669	-63.871525	0.000314	3.142056	1.064557	0.000126
1594	1.5850e+02	-16.5236	-63.701965	0.000426	4.256979	1.442304	0.000170
1595	1.5860e+02	-16.4867	-63.633334	0.000172	1.723063	0.583790	0.000069
1596	1.5870e+02	-16.4482	-63.508182	0.000314	3.142056	1.064557	0.000126
1597	1.5880e+02	-16.4129	-63.399180	0.000274	2.736630	0.927195	0.000110
1598	1.5890e+02	-16.3680	-63.245768	0.000385	3.851553	1.304941	0.000154
1599	1.5900e+02	-16.3247	-63.152914	0.000233	2.331203	0.789833	0.000093
1600	1.5910e+02	-16.2894	-63.056023	0.000243	2.432560	0.824173	0.000097
1601	1.5920e+02	-16.2493	-62.963169	0.000233	2.331203	0.789833	0.000093
1602	1.5930e+02	-16.2092	-62.850129	0.000284	2.837986	0.961536	0.000114
1603	1.5940e+02	-16.1659	-62.668458	0.000456	4.561049	1.545325	0.000183
1604	1.5950e+02	-16.1338	-62.567530	0.000253	2.533916	0.858514	0.000101
1605	1.5960e+02	-16.0872	-62.450453	0.000294	2.939343	0.995876	0.000118
1606	1.5970e+02	-16.0503	-62.353561	0.000243	2.432560	0.824173	0.000097
1607	1.5980e+02	-16.0022	-62.260707	0.000233	2.331203	0.789833	0.000093
1608	1.5990e+02	-15.9605	-62.091148	0.000426	4.256979	1.442304	0.000170
1609	1.6000e+02	-15.9381	-62.022516	0.000172	1.723063	0.583790	0.000069
1610	1.6010e+02	-15.8867	-61.889291	0.000334	3.344769	1.133239	0.000134
1611	1.6019e+02	-15.8402	-61.772214	0.000294	2.939343	0.995876	0.000118
1612	1.6029e+02	-15.8049	-61.574394	0.000497	4.966476	1.682688	0.000199
1613	1.6039e+02	-15.7792	-61.509800	0.000162	1.621706	0.549449	0.000065
1614	1.6049e+02	-15.7247	-61.404835	0.000264	2.635273	0.892855	0.000105
1615	1.6059e+02	-15.6942	-61.311980	0.000233	2.331203	0.789833	0.000093
1616	1.6069e+02	-15.6413	-61.166644	0.000365	3.648839	1.236260	0.000146
1617	1.6079e+02	-15.6172	-61.005158	0.000405	4.054266	1.373622	0.000162
1618	1.6089e+02	-15.5787	-60.940564	0.000162	1.621706	0.549449	0.000065
1619	1.6099e+02	-15.5354	-60.807338	0.000334	3.344769	1.133239	0.000134
1620	1.6109e+02	-15.4905	-60.690262	0.000294	2.939343	0.995876	0.000118
1621	1.6119e+02	-15.4520	-60.585296	0.000264	2.635273	0.892855	0.000105
1622	1.6129e+02	-15.4103	-60.484368	0.000253	2.533916	0.858514	0.000101
1623	1.6139e+02	-15.3669	-60.355179	0.000324	3.243413	1.098898	0.000130
1624	1.6149e+02	-15.3365	-60.266362	0.000223	2.229846	0.755492	0.000089
1625	1.6159e+02	-15.2899	-60.165434	0.000253	2.533916	0.858514	0.000101
1626	1.6169e+02	-15.2514	-60.036246	0.000324	3.243413	1.098898	0.000130
1627	1.6179e+02	-15.2097	-59.882834	0.000385	3.851553	1.304941	0.000154
1628	1.6189e+02	-15.1744	-59.745572	0.000345	3.446126	1.167579	0.000138
1629	1.6199e+02	-15.1407	-59.596198	0.000375	3.750196	1.270601	0.000150
1630	1.6209e+02	-15.0926	-59.487195	0.000274	2.736630	0.927195	0.000110
1631	1.6219e+02	-15.0509	-59.349932	0.000345	3.446126	1.167579	0.000138
1632	1.6228e+02	-15.0140	-59.240930	0.000274	2.736630	0.927195	0.000110
1633	1.6238e+02	-14.9707	-59.144039	0.000243	2.432560	0.824173	0.000097
1634	1.6248e+02	-14.9322	-58.994665	0.000375	3.750196	1.270601	0.000150
1635	1.6258e+02	-14.8937	-58.845291	0.000375	3.750196	1.270601	0.000150
1636	1.6268e+02	-14.8552	-58.740325	0.000264	2.635273	0.892855	0.000105
1637	1.6278e+02	-14.8151	-58.594988	0.000365	3.648839	1.236260	0.000146
1638	1.6288e+02	-14.7766	-58.502134	0.000233	2.331203	0.789833	0.000093
1639	1.6298e+02	-14.7349	-58.364871	0.000345	3.446126	1.167579	0.000138
1640	1.6308e+02	-14.6980	-58.259906	0.000264	2.635273	0.892855	0.000105
1641	1.6318e+02	-14.6595	-58.106495	0.000385	3.851553	1.304941	0.000154
1642	1.6328e+02	-14.6130	-57.985381	0.000304	3.040699	1.030217	0.000122
1643	1.6338e+02	-14.5777	-57.872341	0.000284	2.837986	0.961536	0.000114
1644	1.6348e+02	-14.5327	-57.775450	0.000243	2.432560	0.824173	0.000097
1645	1.6358e+02	-14.4975	-57.650298	0.000314	3.142056	1.064557	0.000126
1646	1.6368e+02	-14.4573	-57.488813	0.000405	4.054266	1.373622	0.000162
1647	1.6378e+02	-14.4140	-57.367699	0.000304	3.040699	1.030217	0.000122
1648	1.6388e+02	-14.3739	-57.238510	0.000324	3.243413	1.098898	0.000130
1649	1.6398e+02	-14.3370	-57.121434	0.000294	2.939343	0.995876	0.000118
1650	1.6408e+02	-14.2985	-56.968022	0.000385	3.851553	1.304941	0.000154
1651	1.6418e+02	-14.2520	-56.875168	0.000233	2.331203	0.789833	0.000093
1652	1.6427e+02	-14.2215	-56.725794	0.000375	3.750196	1.270601	0.000150
1653	1.6437e+02	-14.1814	-56.576420	0.000375	3.750196	1.270601	0.000150
1654	1.6447e+02	-14.1413	-56.487603	0.000223	2.229846	0.755492	0.000089
1655	1.6457e+02	-14.1076	-56.358415	0.000324	3.243413	1.098898	0.000130
1656	1.6467e+02	-14.0611	-56.237301	0.000304	3.040699	1.030217	0.000122
1657	1.6477e+02	-14.0290	-56.091964	0.000365	3.648839	1.236260	0.000146
1658	1.6487e+02	-13.9761	-55.966813	0.000314	3.142056	1.064557	0.000126
1659	1.6497e+02	-13.9456	-55.817439	0.000375	3.750196	1.270601	0.000150
1660	1.6507e+02	-13.8975	-55.728622	0.000223	2.229846	0.755492	0.000089
1661	1.6517e+02	-13.8606	-55.639805	0.000223	2.229846	0.755492	0.000089
1662	1.6527e+02	-13.8253	-55.522728	0.000294	2.939343	0.995876	0.000118
1663	1.6537e+02	-13.7788	-55.397577	0.000314	3.142056	1.064557	0.000126
1664	1.6547e+02	-13.7306	-55.248203	0.000375	3.750196	1.270601	0.000150
1665	1.6557e+02	-13.7034	-55.119014	0.000324	3.243413	1.098898	0.000130
1666	1.6567e+02	-13.6536	-54.993863	0.000314	3.142056	1.064557	0.000126
1667	1.6577e+02	-13.6296	-54.820266	0.000436	4.358336	1.476644	0.000174
1668	1.6587e+02	-13.5718	-54.707226	0.000284	2.837986	0.961536	0.000114
1669	1.6597e+02	-13.5381	-54.574001	0.000334	3.344769	1.133239	0.000134
1670	1.6607e+02	-13.5108	-54.412515	0.000405	4.054266	1.373622	0.000162
1671	1.6616e+02	-13.4691	-54.323698	0.000223	2.229846	0.755492	0.000089
1672	1.6626e+02	-13.4162	-54.198547	0.000314	3.142056	1.064557	0.000126
1673	1.6636e+02	-13.3793	-54.073396	0.000314	3.142056	1.064557	0.000126
1674	1.6646e+02	-13.3360	-53.903836	0.000426	4.256979	1.442304	0.000170
1675	1.6656e+02	-13.3055	-53.823094	0.000203	2.027133	0.686811	0.000081
1676	1.6666e+02	-13.2686	-53.681794	0.000355	3.547483	1.201920	0.000142
1677	1.6676e+02	-13.2237	-53.536457	0.000365	3.648839	1.236260	0.000146
1678	1.6686e+02	-13.1740	-53.427454	0.000274	2.736630	0.927195	0.000110
1679	1.6696e+02	-13.1355	-53.346712	0.000203	2.027133	0.686811	0.000081
1680	1.6706e+02	-13.0825	-53.181189	0.000416	4.155623	1.407963	0.000166
1681	1.6716e+02	-13.0552	-53.088335	0.000233	2.331203	0.789833	0.000093
1682	1.6726e+02	-13.0232	-53.003555	0.000213	2.128490	0.721152	0.000085
1683	1.6736e+02	-12.9750	-52.862255	0.000355	3.547483	1.201920	0.000142
1684	1.6746e+02	-12.9462	-52.724993	0.000345	3.446126	1.167579	0.000138
1685	1.6756e+02	-12.8916	-52.575619	0.000375	3.750196	1.270601	0.000150
1686	1.6766e+02	-12.8579	-52.389910	0.000466	4.662406	1.579666	0.000187
1687	1.6776e+02	-12.8210	-52.293019	0.000243	2.432560	0.824173	0.000097
1688	1.6786e+02	-12.7922	-52.119422	0.000436	4.358336	1.476644	0.000174
1689	1.6796e+02	-12.7408	-52.018494	0.000253	2.533916	0.858514	0.000101
1690	1.6806e+02	-12.7087	-51.889306	0.000324	3.243413	1.098898	0.000130
1691	1.6816e+02	-12.6718	-51.780303	0.000274	2.736630	0.927195	0.000110
1692	1.6825e+02	-12.6365	-51.618818	0.000405	4.054266	1.373622	0.000162
1693	1.6835e+02	-12.5900	-51.542112	0.000193	1.925776	0.652471	0.000077
1694	1.6845e+02	-12.5483	-51.372552	0.000426	4.256979	1.442304	0.000170
1695	1.6855e+02	-12.5050	-51.223178	0.000375	3.750196	1.270601	0.000150
1696	1.6865e+02	-12.4681	-51.130324	0.000233	2.331203	0.789833	0.000093
1697	1.6875e+02	-12.4184	-51.005173	0.000314	3.142056	1.064557	0.000126
1698	1.6885e+02	-12.3863	-50.880022	0.000314	3.142056	1.064557	0.000126
1699	1.6895e+02	-12.3494	-50.779093	0.000253	2.533916	0.858514	0.000101
1700	1.6905e+02	-12.3029	-50.593385	0.000466	4.662406	1.579666	0.000187
1701	1.6915e+02	-12.2644	-50.516679	0.000193	1.925776	0.652471	0.000077
1702	1.6925e+02	-12.2307	-50.351157	0.000416	4.155623	1.407963	0.000166
1703	1.6935e+02	-12.1777	-50.201783	0.000375	3.750196	1.270601	0.000150
1704	1.6945e+02	-12.1521	-50.024149	0.000446	4.459693	1.510985	0.000179
1705	1.6955e+02	-12.1087	-49.874775	0.000375	3.750196	1.270601	0.000150
1706	1.6965e+02	-12.0590	-49.757698	0.000294	2.939343	0.995876	0.000118
1707	1.6975e+02	-12.0237	-49.632547	0.000314	3.142056	1.064557	0.000126
1708	1.6985e+02	-11.9916	-49.523544	0.000274	2.736630	0.927195	0.000110
1709	1.6995e+02	-11.9483	-49.366096	0.000395	3.952909	1.339282	0.000158
1710	1.7005e+02	-11.9082	-49.236907	0.000324	3.243413	1.098898	0.000130
1711	1.7015e+02	-11.8617	-49.103682	0.000334	3.344769	1.133239	0.000134
1712	1.7024e+02	-11.8248	-48.958345	0.000365	3.648839	1.236260	0.000146
1713	1.7034e+02	-11.7815	-48.817045	0.000355	3.547483	1.201920	0.000142
1714	1.7044e+02	-11.7462	-48.736303	0.000203	2.027133	0.686811	0.000081
1715	1.7054e+02	-11.7029	-48.611151	0.000314	3.142056	1.064557	0.000126
1716	1.7064e+02	-11.6628	-48.522334	0.000223	2.229846	0.755492	0.000089
1717	1.7074e+02	-11.6146	-48.393146	0.000324	3.243413	1.098898	0.000130
1718	1.7084e+02	-11.5794	-48.280106	0.000284	2.837986	0.961536	0.000114
1719	1.7094e+02	-11.5473	-48.098435	0.000456	4.561049	1.545325	0.000183
1720	1.7104e+02	-11.5088	-47.981358	0.000294	2.939343	0.995876	0.000118
1721	1.7114e+02	-11.4751	-47.852170	0.000324	3.243413	1.098898	0.000130
1722	1.7124e+02	-11.4318	-47.634165	0.000547	5.473259	1.854390	0.000219
1723	1.7134e+02	-11.3917	-47.504976	0.000324	3.243413	1.098898	0.000130
1724	1.7144e+02	-11.3516	-47.412122	0.000233	2.331203	0.789833	0.000093
1725	1.7154e+02	-11.3034	-47.315231	0.000243	2.432560	0.824173	0.000097
1726	1.7164e+02	-11.2697	-47.169894	0.000365	3.648839	1.236260	0.000146
1727	1.7174e+02	-11.2393	-47.008409	0.000405	4.054266	1.373622	0.000162
1728	1.7184e+02	-11.1911	-46.915554	0.000233	2.331203	0.789833	0.000093
1729	1.7194e+02	-11.1542	-46.758106	0.000395	3.952909	1.339282	0.000158
1730	1.7204e+02	-11.1125	-46.624881	0.000334	3.344769	1.133239	0.000134
1731	1.7213e+02	-11.0628	-46.507804	0.000294	2.939343	0.995876	0.000118
1732	1.7223e+02	-11.0243	-46.414950	0.000233	2.331203	0.789833	0.000093
1733	1.7233e+02	-10.9842	-46.293836	0.000304	3.040699	1.030217	0.000122
1734	1.7243e+02	-10.9505	-46.172721	0.000304	3.040699	1.030217	0.000122
1735	1.7253e+02	-10.9136	-46.043533	0.000324	3.243413	1.098898	0.000130
1736	1.7263e+02	-10.8687	-45.894159	0.000375	3.750196	1.270601	0.000150
1737	1.7273e+02	-10.8222	-45.821491	0.000182	1.824420	0.618130	0.000073
1738	1.7283e+02	-10.7885	-45.643857	0.000446	4.459693	1.510985	0.000179
1739	1.7293e+02	-10.7532	-45.506594	0.000345	3.446126	1.167579	0.000138
1740	1.7303e+02	-10.7034	-45.365294	0.000355	3.547483	1.201920	0.000142
1741	1.7313e+02	-10.6665	-45.143252	0.000557	5.574616	1.888731	0.000223
1742	1.7323e+02	-10.6313	-45.050398	0.000233	2.331203	0.789833	0.000093
1743	1.7333e+02	-10.5960	-44.901024	0.000375	3.750196	1.270601	0.000150
1744	1.7343e+02	-10.5591	-44.796058	0.000264	2.635273	0.892855	0.000105
1745	1.7353e+02	-10.5174	-44.638610	0.000395	3.952909	1.339282	0.000158
1746	1.7363e+02	-10.4724	-44.460976	0.000446	4.459693	1.510985	0.000179
1747	1.7373e+02	-10.4323	-44.364085	0.000243	2.432560	0.824173	0.000097
1748	1.7383e+02	-10.3970	-44.238933	0.000314	3.142056	1.064557	0.000126
1749	1.7393e+02	-10.3521	-44.174339	0.000162	1.621706	0.549449	0.000065
1750	1.7403e+02	-10.3104	-43.976520	0.000497	4.966476	1.682688	0.000199
1751	1.7413e+02	-10.2671	-43.895777	0.000203	2.027133	0.686811	0.000081
1752	1.7422e+02	-10.2350	-43.734291	0.000405	4.054266	1.373622	0.000162
1753	1.7432e+02	-10.1965	-43.605103	0.000324	3.243413	1.098898	0.000130
1754	1.7442e+02	-10.1580	-43.431506	0.000436	4.358336	1.476644	0.000174
1755	1.7452e+02	-10.1067	-43.306355	0.000314	3.142056	1.064557	0.000126
1756	1.7462e+02	-10.0666	-43.201390	0.000264	2.635273	0.892855	0.000105
1757	1.7472e+02	-10.0281	-43.035867	0.000416	4.155623	1.407963	0.000166
1758	1.7482e+02	-9.9976	-42.902641	0.000334	3.344769	1.133239	0.000134
1759	1.7492e+02	-9.9527	-42.773453	0.000324	3.243413	1.098898	0.000130
1760	1.7502e+02	-9.9077	-42.620042	0.000385	3.851553	1.304941	0.000154
1761	1.7512e+02	-9.8789	-42.458557	0.000405	4.054266	1.373622	0.000162
1762	1.7522e+02	-9.8339	-42.309183	0.000375	3.750196	1.270601	0.000150
1763	1.7532e+02	-9.8003	-42.188068	0.000304	3.040699	1.030217	0.000122
1764	1.7542e+02	-9.7569	-42.014472	0.000436	4.358336	1.476644	0.000174
1765	1.7552e+02	-9.7152	-41.917580	0.000243	2.432560	0.824173	0.000097
1766	1.7562e+02	-9.6767	-41.792429	0.000314	3.142056	1.064557	0.000126
1767	1.7572e+02	-9.6318	-41.711686	0.000203	2.027133	0.686811	0.000081
1768	1.7582e+02	-9.5981	-41.546164	0.000416	4.155623	1.407963	0.000166
1769	1.7592e+02	-9.5516	-41.433124	0.000284	2.837986	0.961536	0.000114
1770	1.7602e+02	-9.5163	-41.243379	0.000476	4.763762	1.614006	0.000191
1771	1.7612e+02	-9.4794	-41.158599	0.000213	2.128490	0.721152	0.000085
1772	1.7621e+02	-9.4345	-41.021336	0.000345	3.446126	1.167579	0.000138
1773	1.7631e+02	-9.4040	-40.871962	0.000375	3.750196	1.270601	0.000150
1774	1.7641e+02	-9.3463	-40.758922	0.000284	2.837986	0.961536	0.000114
1775	1.7651e+02	-9.3078	-40.609548	0.000375	3.750196	1.270601	0.000150
1776	1.7661e+02	-9.2821	-40.460174	0.000375	3.750196	1.270601	0.000150
1777	1.7671e+02	-9.2324	-40.318875	0.000355	3.547483	1.201920	0.000142
1778	1.7681e+02	-9.1971	-40.137204	0.000456	4.561049	1.545325	0.000183
1779	1.7691e+02	-9.1570	-39.971681	0.000416	4.155623	1.407963	0.000166
1780	1.7701e+02	-9.1265	-39.870753	0.000253	2.533916	0.858514	0.000101
1781	1.7711e+02	-9.0832	-39.725416	0.000365	3.648839	1.236260	0.000146
1782	1.7721e+02	-9.0382	-39.584116	0.000355	3.547483	1.201920	0.000142
1783	1.7731e+02	-8.9901	-39.442816	0.000355	3.547483	1.201920	0.000142
1784	1.7741e+02	-8.9532	-39.333813	0.000274	2.736630	0.927195	0.000110
1785	1.7751e+02	-8.9131	-39.176365	0.000395	3.952909	1.339282	0.000158
1786	1.7761e+02	-8.8746	-39.063325	0.000284	2.837986	0.961536	0.000114
1787	1.7771e+02	-8.8377	-38.946248	0.000294	2.939343	0.995876	0.000118
1788	1.7781e+02	-8.7880	-38.804949	0.000355	3.547483	1.201920	0.000142
1789	1.7791e+02	-8.7623	-38.683835	0.000304	3.040699	1.030217	0.000122
1790	1.7801e+02	-8.7158	-38.522349	0.000405	4.054266	1.373622	0.000162
1791	1.7810e+02	-8.6725	-38.372975	0.000375	3.750196	1.270601	0.000150
1792	1.7820e+02	-8.6420	-38.235713	0.000345	3.446126	1.167579	0.000138
1793	1.7830e+02	-8.5971	-38.118636	0.000294	2.939343	0.995876	0.000118
1794	1.7840e+02	-8.5682	-37.993484	0.000314	3.142056	1.064557	0.000126
1795	1.7850e+02	-8.5233	-37.811813	0.000456	4.561049	1.545325	0.000183
1796	1.7860e+02	-8.4848	-37.678588	0.000334	3.344769	1.133239	0.000134
1797	1.7870e+02	-8.4270	-37.525177	0.000385	3.851553	1.304941	0.000154
1798	1.7880e+02	-8.4046	-37.367728	0.000395	3.952909	1.339282	0.000158
1799	1.7890e+02	-8.3548	-37.214317	0.000385	3.851553	1.304941	0.000154
1800	1.7900e+02	-8.3147	-37.073017	0.000355	3.547483	1.201920	0.000142
1801	1.7910e+02	-8.2923	-36.939792	0.000334	3.344769	1.133239	0.000134
1802	1.7920e+02	-8.2409	-36.818678	0.000304	3.040699	1.030217	0.000122
1803	1.7930e+02	-8.2105	-36.653155	0.000416	4.155623	1.407963	0.000166
1804	1.7940e+02	-8.1575	-36.528004	0.000314	3.142056	1.064557	0.000126
1805	1.7950e+02	-8.1222	-36.423039	0.000264	2.635273	0.892855	0.000105
1806	1.7960e+02	-8.0821	-36.289813	0.000334	3.344769	1.133239	0.000134
1807	1.7970e+02	-8.0356	-36.124291	0.000416	4.155623	1.407963	0.000166
1808	1.7980e+02	-8.0051	-35.974917	0.000375	3.750196	1.270601	0.000150
1809	1.7990e+02	-7.9602	-35.869951	0.000264	2.635273	0.892855	0.000105
1810	1.8000e+02	-7.9217	-35.688280	0.000456	4.561049	1.545325	0.000183
1811	1.8009e+02	-7.8816	-35.571203	0.000294	2.939343	0.995876	0.000118
1812	1.8019e+02	-7.8415	-35.417792	0.000385	3.851553	1.304941	0.000154
1813	1.8029e+02	-7.8030	-35.248232	0.000426	4.256979	1.442304	0.000170
1814	1.8039e+02	-7.7709	-35.086747	0.000405	4.054266	1.373622	0.000162
1815	1.8049e+02	-7.7276	-34.901038	0.000466	4.662406	1.579666	0.000187
1816	1.8059e+02	-7.6843	-34.747627	0.000385	3.851553	1.304941	0.000154
1817	1.8069e+02	-7.6506	-34.618439	0.000324	3.243413	1.098898	0.000130
1818	1.8079e+02	-7.5976	-34.477139	0.000355	3.547483	1.201920	0.000142
1819	1.8089e+02	-7.5575	-34.343914	0.000334	3.344769	1.133239	0.000134
1820	1.8099e+02	-7.5255	-34.186465	0.000395	3.952909	1.339282	0.000158
1821	1.8109e+02	-7.4854	-34.065351	0.000304	3.040699	1.030217	0.000122
1822	1.8119e+02	-7.4420	-33.891755	0.000436	4.358336	1.476644	0.000174
1823	1.8129e+02	-7.4035	-33.831197	0.000152	1.520350	0.515108	0.000061
1824	1.8139e+02	-7.3650	-33.653564	0.000446	4.459693	1.510985	0.000179
1825	1.8149e+02	-7.3281	-33.548598	0.000264	2.635273	0.892855	0.000105
1826	1.8159e+02	-7.2848	-33.399224	0.000375	3.750196	1.270601	0.000150
1827	1.8169e+02	-7.2399	-33.237739	0.000405	4.054266	1.373622	0.000162
1828	1.8179e+02	-7.2062	-33.056067	0.000456	4.561049	1.545325	0.000183
1829	1.8189e+02	-7.1597	-32.959176	0.000243	2.432560	0.824173	0.000097
1830	1.8199e+02	-7.1196	-32.773468	0.000466	4.662406	1.579666	0.000187
1831	1.8209e+02	-7.0955	-32.676577	0.000243	2.432560	0.824173	0.000097
1832	1.8218e+02	-7.0426	-32.527203	0.000375	3.750196	1.270601	0.000150
1833	1.8228e+02	-7.0041	-32.349569	0.000446	4.459693	1.510985	0.000179
1834	1.8238e+02	-6.9752	-32.216343	0.000334	3.344769	1.133239	0.000134
1835	1.8248e+02	-6.9255	-32.042746	0.000436	4.358336	1.476644	0.000174
1836	1.8258e+02	-6.8886	-31.836852	0.000517	5.169189	1.751369	0.000207
1837	1.8268e+02	-6.8517	-31.727850	0.000274	2.736630	0.927195	0.000110
1838	1.8278e+02	-6.8052	-31.570401	0.000395	3.952909	1.339282	0.000158
1839	1.8288e+02	-6.7699	-31.429102	0.000355	3.547483	1.201920	0.000142
1840	1.8298e+02	-6.7185	-31.312025	0.000294	2.939343	0.995876	0.000118
1841	1.8308e+02	-6.6800	-31.182836	0.000324	3.243413	1.098898	0.000130
1842	1.8318e+02	-6.6399	-31.061722	0.000304	3.040699	1.030217	0.000122
1843	1.8328e+02	-6.6143	-30.896200	0.000416	4.155623	1.407963	0.000166
1844	1.8338e+02	-6.5677	-30.754900	0.000355	3.547483	1.201920	0.000142
1845	1.8348e+02	-6.5308	-30.593415	0.000405	4.054266	1.373622	0.000162
1846	1.8358e+02	-6.4907	-30.460189	0.000334	3.344769	1.133239	0.000134
1847	1.8368e+02	-6.4506	-30.326964	0.000334	3.344769	1.133239	0.000134
1848	1.8378e+02	-6.4073	-30.165478	0.000405	4.054266	1.373622	0.000162
1849	1.8388e+02	-6.3800	-30.016104	0.000375	3.750196	1.270601	0.000150
1850	1.8398e+02	-6.3303	-29.899027	0.000294	2.939343	0.995876	0.000118
1851	1.8407e+02	-6.2950	-29.737542	0.000405	4.054266	1.373622	0.000162
1852	1.8417e+02	-6.2581	-29.608354	0.000324	3.243413	1.098898	0.000130
1853	1.8427e+02	-6.2100	-29.450905	0.000395	3.952909	1.339282	0.000158
1854	1.8437e+02	-6.1779	-29.269234	0.000456	4.561049	1.545325	0.000183
1855	1.8447e+02	-6.1394	-29.091600	0.000446	4.459693	1.510985	0.000179
1856	1.8457e+02	-6.0865	-28.946263	0.000365	3.648839	1.236260	0.000146
1857	1.8467e+02	-6.0528	-28.800926	0.000365	3.648839	1.236260	0.000146
1858	1.8477e+02	-6.0046	-28.716147	0.000213	2.128490	0.721152	0.000085
1859	1.8487e+02	-5.9742	-28.570810	0.000365	3.648839	1.236260	0.000146
1860	1.8497e+02	-5.9325	-28.368953	0.000507	5.067832	1.717028	0.000203
1861	1.8507e+02	-5.8907	-28.259950	0.000274	2.736630	0.927195	0.000110
1862	1.8517e+02	-5.8458	-28.114613	0.000365	3.648839	1.236260	0.000146
1863	1.8527e+02	-5.8186	-27.981388	0.000334	3.344769	1.133239	0.000134
1864	1.8537e+02	-5.7768	-27.827977	0.000385	3.851553	1.304941	0.000154
1865	1.8547e+02	-5.7319	-27.662454	0.000416	4.155623	1.407963	0.000166
1866	1.8557e+02	-5.6950	-27.561526	0.000253	2.533916	0.858514	0.000101
1867	1.8567e+02	-5.6581	-27.351595	0.000527	5.270546	1.785709	0.000211
1868	1.8577e+02	-5.6116	-27.198183	0.000385	3.851553	1.304941	0.000154
1869	1.8587e+02	-5.5811	-27.044772	0.000385	3.851553	1.304941	0.000154
1870	1.8597e+02	-5.5314	-26.887324	0.000395	3.952909	1.339282	0.000158
1871	1.8606e+02	-5.4865	-26.790433	0.000243	2.432560	0.824173	0.000097
1872	1.8616e+02	-5.4528	-26.624910	0.000416	4.155623	1.407963	0.000166
1873	1.8626e+02	-5.4095	-26.370571	0.000639	6.385469	2.163455	0.000256
1874	1.8636e+02	-5.3710	-26.249457	0.000304	3.040699	1.030217	0.000122
1875	1.8646e+02	-5.3341	-26.140454	0.000274	2.736630	0.927195	0.000110
1876	1.8656e+02	-5.2876	-25.962820	0.000446	4.459693	1.510985	0.000179
1877	1.8666e+02	-5.2555	-25.829594	0.000334	3.344769	1.133239	0.000134
1878	1.8676e+02	-5.2138	-25.688295	0.000355	3.547483	1.201920	0.000142
1879	1.8686e+02	-5.1769	-25.546995	0.000355	3.547483	1.201920	0.000142
1880	1.8696e+02	-5.1255	-25.393584	0.000385	3.851553	1.304941	0.000154
1881	1.8706e+02	-5.0934	-25.264395	0.000324	3.243413	1.098898	0.000130
1882	1.8716e+02	-5.0662	-25.110984	0.000385	3.851553	1.304941	0.000154
1883	1.8726e+02	-5.0196	-24.989870	0.000304	3.040699	1.030217	0.000122
1884	1.8736e+02	-4.9779	-24.816273	0.000436	4.358336	1.476644	0.000174
1885	1.8746e+02	-4.9346	-24.666899	0.000375	3.750196	1.270601	0.000150
1886	1.8756e+02	-4.8977	-24.545785	0.000304	3.040699	1.030217	0.000122
1887	1.8766e+02	-4.8608	-24.364114	0.000456	4.561049	1.545325	0.000183
1888	1.8776e+02	-4.8143	-24.263186	0.000253	2.533916	0.858514	0.000101
1889	1.8786e+02	-4.7678	-24.057292	0.000517	5.169189	1.751369	0.000207
1890	1.8796e+02	-4.7261	-23.944252	0.000284	2.837986	0.961536	0.000114
1891	1.8806e+02	-4.6940	-23.742395	0.000507	5.067832	1.717028	0.000203
1892	1.8815e+02	-4.6667	-23.588984	0.000385	3.851553	1.304941	0.000154
1893	1.8825e+02	-4.6154	-23.423462	0.000416	4.155623	1.407963	0.000166
1894	1.8835e+02	-4.5705	-23.318496	0.000264	2.635273	0.892855	0.000105
1895	1.8845e+02	-4.5368	-23.165085	0.000385	3.851553	1.304941	0.000154
1896	1.8855e+02	-4.4983	-23.072231	0.000233	2.331203	0.789833	0.000093
1897	1.8865e+02	-4.4598	-22.902671	0.000426	4.256979	1.442304	0.000170
1898	1.8875e+02	-4.4116	-22.716963	0.000466	4.662406	1.579666	0.000187
1899	1.8885e+02	-4.3828	-22.587774	0.000324	3.243413	1.098898	0.000130
1900	1.8895e+02	-4.3427	-22.482809	0.000264	2.635273	0.892855	0.000105
1901	1.8905e+02	-4.2929	-22.313249	0.000426	4.256979	1.442304	0.000170
1902	1.8915e+02	-4.2560	-22.135615	0.000446	4.459693	1.510985	0.000179
1903	1.8925e+02	-4.2223	-21.978167	0.000395	3.952909	1.339282	0.000158
1904	1.8935e+02	-4.1854	-21.865127	0.000284	2.837986	0.961536	0.000114
1905	1.8945e+02	-4.1469	-21.675382	0.000476	4.763762	1.614006	0.000191
1906	1.8955e+02	-4.1004	-21.534082	0.000355	3.547483	1.201920	0.000142
1907	1.8965e+02	-4.0507	-21.364522	0.000426	4.256979	1.442304	0.000170
1908	1.8975e+02	-4.0298	-21.182851	0.000456	4.561049	1.545325	0.000183
1909	1.8985e+02	-3.9881	-21.037514	0.000365	3.648839	1.236260	0.000146
1910	1.8995e+02	-3.9368	-20.912363	0.000314	3.142056	1.064557	0.000126
1911	1.9004e+02	-3.8967	-20.726655	0.000466	4.662406	1.579666	0.000187
1912	1.9014e+02	-3.8550	-20.609578	0.000294	2.939343	0.995876	0.000118
1913	1.9024e+02	-3.8117	-20.472315	0.000345	3.446126	1.167579	0.000138
1914	1.9034e+02	-3.7796	-20.322941	0.000375	3.750196	1.270601	0.000150
1915	1.9044e+02	-3.7379	-20.169530	0.000385	3.851553	1.304941	0.000154
1916	1.9054e+02	-3.6881	-20.040342	0.000324	3.243413	1.098898	0.000130
1917	1.9064e+02	-3.6593	-19.895005	0.000365	3.648839	1.236260	0.000146
1918	1.9074e+02	-3.6159	-19.725445	0.000426	4.256979	1.442304	0.000170
1919	1.9084e+02	-3.5823	-19.588183	0.000345	3.446126	1.167579	0.000138
1920	1.9094e+02	-3.5373	-19.446883	0.000355	3.547483	1.201920	0.000142
1921	1.9104e+02	-3.4972	-19.289435	0.000395	3.952909	1.339282	0.000158
1922	1.9114e+02	-3.4635	-19.131986	0.000395	3.952909	1.339282	0.000158
1923	1.9124e+02	-3.4298	-18.966464	0.000416	4.155623	1.407963	0.000166
1924	1.9134e+02	-3.3865	-18.772681	0.000487	4.865119	1.648347	0.000195
1925	1.9144e+02	-3.3480	-18.627344	0.000365	3.648839	1.236260	0.000146
1926	1.9154e+02	-3.3015	-18.445673	0.000456	4.561049	1.545325	0.000183
1927	1.9164e+02	-3.2662	-18.292262	0.000385	3.851553	1.304941	0.000154
1928	1.9174e+02	-3.2245	-18.150962	0.000355	3.547483	1.201920	0.000142
1929	1.9184e+02	-3.1860	-18.025811	0.000314	3.142056	1.064557	0.000126
1930	1.9194e+02	-3.1443	-17.868363	0.000395	3.952909	1.339282	0.000158
1931	1.9203e+02	-3.0978	-17.735137	0.000334	3.344769	1.133239	0.000134
1932	1.9213e+02	-3.0673	-17.565578	0.000426	4.256979	1.442304	0.000170
1933	1.9223e+02	-3.0224	-17.432352	0.000334	3.344769	1.133239	0.000134
1934	1.9233e+02	-2.9775	-17.278941	0.000385	3.851553	1.304941	0.000154
1935	1.9243e+02	-2.9454	-17.149753	0.000324	3.243413	1.098898	0.000130
1936	1.9253e+02	-2.9085	-16.968082	0.000456	4.561049	1.545325	0.000183
1937	1.9263e+02	-2.8652	-16.822745	0.000365	3.648839	1.236260	0.000146
1938	1.9273e+02	-2.8202	-16.665296	0.000395	3.952909	1.339282	0.000158
1939	1.9283e+02	-2.7785	-16.532071	0.000334	3.344769	1.133239	0.000134
1940	1.9293e+02	-2.7448	-16.382697	0.000375	3.750196	1.270601	0.000150
1941	1.9303e+02	-2.7063	-16.217174	0.000416	4.155623	1.407963	0.000166
1942	1.9313e+02	-2.6598	-16.043577	0.000436	4.358336	1.476644	0.000174
1943	1.9323e+02	-2.6229	-15.878055	0.000416	4.155623	1.407963	0.000166
1944	1.9333e+02	-2.5892	-15.744829	0.000334	3.344769	1.133239	0.000134
1945	1.9343e+02	-2.5523	-15.542973	0.000507	5.067832	1.717028	0.000203
1946	1.9353e+02	-2.5106	-15.373413	0.000426	4.256979	1.442304	0.000170
1947	1.9363e+02	-2.4705	-15.215965	0.000395	3.952909	1.339282	0.000158
1948	1.9373e+02	-2.4320	-15.074665	0.000355	3.547483	1.201920	0.000142
1949	1.9383e+02	-2.3775	-14.921254	0.000385	3.851553	1.304941	0.000154
1950	1.9393e+02	-2.3438	-14.852622	0.000172	1.723063	0.583790	0.000069
1951	1.9403e+02	-2.3149	-14.618469	0.000588	5.878686	1.991753	0.000235
1952	1.9412e+02	-2.2748	-14.505429	0.000284	2.837986	0.961536	0.000114
1953	1.9422e+02	-2.2267	-14.388352	0.000294	2.939343	0.995876	0.000118
1954	1.9432e+02	-2.1866	-14.198606	0.000476	4.763762	1.614006	0.000191
1955	1.9442e+02	-2.1561	-14.020972	0.000446	4.459693	1.510985	0.000179
1956	1.9452e+02	-2.1096	-13.899858	0.000304	3.040699	1.030217	0.000122
1957	1.9462e+02	-2.0679	-13.726262	0.000436	4.358336	1.476644	0.000174
1958	1.9472e+02	-2.0261	-13.580925	0.000365	3.648839	1.236260	0.000146
1959	1.9482e+02	-1.9892	-13.427513	0.000385	3.851553	1.304941	0.000154
1960	1.9492e+02	-1.9491	-13.298325	0.000324	3.243413	1.098898	0.000130
1961	1.9502e+02	-1.9122	-13.100505	0.000497	4.966476	1.682688	0.000199
1962	1.9512e+02	-1.8737	-12.943057	0.000395	3.952909	1.339282	0.000158
1963	1.9522e+02	-1.8288	-12.721015	0.000557	5.574616	1.888731	0.000223
1964	1.9532e+02	-1.7823	-12.599901	0.000304	3.040699	1.030217	0.000122
1965	1.9542e+02	-1.7518	-12.394007	0.000517	5.169189	1.751369	0.000207
1966	1.9552e+02	-1.7053	-12.297115	0.000243	2.432560	0.824173	0.000097
1967	1.9562e+02	-1.6668	-12.079110	0.000547	5.473259	1.854390	0.000219
1968	1.9572e+02	-1.6251	-11.962033	0.000294	2.939343	0.995876	0.000118
1969	1.9582e+02	-1.5818	-11.820733	0.000355	3.547483	1.201920	0.000142
1970	1.9592e+02	-1.5529	-11.675397	0.000365	3.648839	1.236260	0.000146
1971	1.9601e+02	-1.5032	-11.534097	0.000355	3.547483	1.201920	0.000142
1972	1.9611e+02	-1.4727	-11.400871	0.000334	3.344769	1.133239	0.000134
1973	1.9621e+02	-1.4214	-11.227274	0.000436	4.358336	1.476644	0.000174
1974	1.9631e+02	-1.3957	-11.049641	0.000446	4.459693	1.510985	0.000179
1975	1.9641e+02	-1.3556	-10.908341	0.000355	3.547483	1.201920	0.000142
1976	1.9651e+02	-1.3026	-10.734744	0.000436	4.358336	1.476644	0.000174
1977	1.9661e+02	-1.2722	-10.544999	0.000476	4.763762	1.614006	0.000191
1978	1.9671e+02	-1.2288	-10.411773	0.000334	3.344769	1.133239	0.000134
1979	1.9681e+02	-1.1935	-10.238176	0.000436	4.358336	1.476644	0.000174
1980	1.9691e+02	-1.1518	-10.060542	0.000446	4.459693	1.510985	0.000179
1981	1.9701e+02	-1.1182	-9.850611	0.000527	5.270546	1.785709	0.000211
1982	1.9711e+02	-1.0845	-9.705274	0.000365	3.648839	1.236260	0.000146
1983	1.9721e+02	-1.0347	-9.551863	0.000385	3.851553	1.304941	0.000154
1984	1.9731e+02	-0.9930	-9.350006	0.000507	5.067832	1.717028	0.000203
1985	1.9741e+02	-0.9529	-9.236967	0.000284	2.837986	0.961536	0.000114
1986	1.9751e+02	-0.9128	-9.075481	0.000405	4.054266	1.373622	0.000162
1987	1.9761e+02	-0.8663	-8.942256	0.000334	3.344769	1.133239	0.000134
1988	1.9771e+02	-0.8310	-8.776733	0.000416	4.155623	1.407963	0.000166
1989	1.9781e+02	-0.7877	-8.647545	0.000324	3.243413	1.098898	0.000130
1990	1.9791e+02	-0.7540	-8.490096	0.000395	3.952909	1.339282	0.000158
1991	1.9800e+02	-0.7123	-8.312462	0.000446	4.459693	1.510985	0.000179
1992	1.9810e+02	-0.6722	-8.142903	0.000426	4.256979	1.442304	0.000170
1993	1.9820e+02	-0.6369	-8.021789	0.000304	3.040699	1.030217	0.000122
1994	1.9830e+02	-0.5952	-7.872415	0.000375	3.750196	1.270601	0.000150
1995	1.9840e+02	-0.5551	-7.670558	0.000507	5.067832	1.717028	0.000203
1996	1.9850e+02	-0.5053	-7.509072	0.000405	4.054266	1.373622	0.000162
1997	1.9860e+02	-0.4716	-7.359698	0.000375	3.750196	1.270601	0.000150
1998	1.9870e+02	-0.4380	-7.230510	0.000324	3.243413	1.098898	0.000130
1999	1.9880e+02	-0.3946	-6.980208	0.000628	6.284112	2.129115	0.000252
2000	1.9890e+02	-0.3577	-6.814685	0.000416	4.155623	1.407963	0.000166
2001	1.9900e+02	-0.3208	-6.641088	0.000436	4.358336	1.476644	0.000174
2002	1.9910e+02	-0.2775	-6.515937	0.000314	3.142056	1.064557	0.000126
2003	1.9920e+02	-0.2374	-6.334266	0.000456	4.561049	1.545325	0.000183
2004	1.9930e+02	-0.2021	-6.168743	0.000416	4.155623	1.407963	0.000166
2005	1.9940e+02	-0.1508	-6.039555	0.000324	3.243413	1.098898	0.000130
2006	1.9950e+02	-0.1171	-5.906330	0.000334	3.344769	1.133239	0.000134
2007	1.9960e+02	-0.0722	-5.748881	0.000395	3.952909	1.339282	0.000158
2008	1.9970e+02	-0.0337	-5.575284	0.000436	4.358336	1.476644	0.000174
2009	1.9980e+02	0.0096	-5.438022	0.000436	4.358336	1.476644	0.000138

PMax (uC/cm2):	8.11e+01
Pr (uC/cm2):	1.10e+01
-Pr (uC/cm2):	3.04e+00
PLoss (uC/cm2):	3.12e+00
Vc:	-7.52e-01
-Vc:	-2.71e+00
C (Max-Eff) (nF):	4.06e-01
K (Eff):	1.37e+03
Vert. (+/-Pr) Shift (uC/cm2):	7.05e+00
Horiz. Shift (+/-Vc):	-1.73e+00
Offset (uC/cm2):	8.48e+00

A (Loop Area - uC/cm2·Volts):	-2.15e-01



Hysteresis Version: 5.48.1 - Radiant Technologies, Inc., 1999 - 9/12/24

