»»»»»»»»»»»»»»»»»»»»»»»»»»»»»»»»»»»» Hysteresis ««««««««««««««««««««««««««««««««««««
»»»  Executed Version:	5.48.1
»»»  Vision Version:	5.48.4 (R)
»»»  Vision Compiled:	9/18/24
»»»  Driver Version:	5.47.0
»»»  Windows Version:	Windows 8 or 8.1
»»»  Processor Information:	x86 (AMD or Intel) - 32 Processors
»»»  Tester Name:	PMF21124-494 (100V)
»»»  Tester S/N:	PMF21124-494
»»»  Internal Amp Type:	100V RevK 270k
»»»  Internal Amp S/N:	iAB2-596/K     
»»»  Execution Count:	1
»»»»»»»»»»»»»»»»»»»»»»»»»»»»»»»»»»»»»»»»»»««««««««««««««««««««««««««««««««««««««««««

Stored:	6/19/2025 - 15:35:57
Configured:	06/19/25 10:04:32 AM
Executed:	06/19/25 03:35:33 PM

»»»»»»»»»»»»»»»»»»»»»»»»»»»»»»»»»»» Sample Info ««««««««««««««««««««««««««««««««««««
Sample Name:	
Lot Name:	
Wafer Name:	
Die Row/Column:	0/0
Capacitor Number:	0
Sample Area (cm2):	1.00e-04
Sample Thickness (microns):	3.00e-01

Amplifier:	Internal

»»»»»»»»»»»»»»»»»»»»»»»»»»»»»»»»»»» Tester Info «««««««««««««««««««««««««««««««««««
Tester Name:	PMF21124-494 (100V)
Tester Serial Number:	PMF21124-494
Return Signal Amp. Level:	0.19 [Index: 3]

»»»»»»»»»»»»»»»»»»»»»»»»»»»»»»»» Hysteresis Info ««««««««««««««««««««««««««««««««««
Task Name:	Hyst-1168
Volts:	20.00
Field:	666.67 (kV/cm)
DCBias:	0.00
DCField:	0.00 (kV/cm)
Hysteresis Period (ms):	2.00e+02
Preset:	Enabled
Preset Delay (ms):	1.00e+03
Profile:	Standard Bipolar

»»»»»»»»»»»»»»»»»»»»»»»»»»»»»»»»»»»»»» Data «««««««««««««««««««««««««««««««««««««««
Points:	2009

Valid Data

Point	Time (ms)	Drive Voltage	Measured Polarization (uC/cm2)	Capacitance (uF)	Normalized Capacitance (uF/cm2)	Dielectric Constant	Instantaneous Current (mA)
   1	0.0000e+00	0.0096	-4.083563	0.000193	1.926433	0.652693	0.000077
   2	9.9500e-02	0.0385	-4.006857	0.000193	1.926433	0.652693	0.000077
   3	1.9900e-01	0.0802	-3.897855	0.000274	2.737563	0.927511	0.000110
   4	2.9850e-01	0.1219	-3.760592	0.000345	3.447302	1.167977	0.000138
   5	3.9800e-01	0.1572	-3.627366	0.000335	3.345910	1.133625	0.000134
   6	4.9750e-01	0.1941	-3.542587	0.000213	2.129216	0.721398	0.000085
   7	5.9700e-01	0.2326	-3.368990	0.000436	4.359822	1.477148	0.000174
   8	6.9650e-01	0.2807	-3.231727	0.000345	3.447302	1.167977	0.000138
   9	7.9600e-01	0.3144	-3.175207	0.000142	1.419477	0.480932	0.000057
  10	8.9550e-01	0.3417	-2.977388	0.000497	4.968170	1.683262	0.000199
  11	9.9500e-01	0.3898	-2.941053	0.000091	0.912521	0.309170	0.000037
  12	1.0945e+00	0.4315	-2.819939	0.000304	3.041737	1.030568	0.000122
  13	1.1940e+00	0.4749	-2.690751	0.000324	3.244519	1.099273	0.000130
  14	1.2935e+00	0.5198	-2.593860	0.000243	2.433389	0.824455	0.000097
  15	1.3930e+00	0.5503	-2.509080	0.000213	2.129216	0.721398	0.000085
  16	1.4925e+00	0.5952	-2.392003	0.000294	2.940345	0.996216	0.000118
  17	1.5920e+00	0.6465	-2.283000	0.000274	2.737563	0.927511	0.000110
  18	1.6915e+00	0.6866	-2.149775	0.000335	3.345910	1.133625	0.000134
  19	1.7910e+00	0.7171	-2.040772	0.000274	2.737563	0.927511	0.000110
  20	1.8905e+00	0.7556	-1.943881	0.000243	2.433389	0.824455	0.000097
  21	1.9900e+00	0.7973	-1.806618	0.000345	3.447302	1.167977	0.000138
  22	2.0895e+00	0.8454	-1.689541	0.000294	2.940345	0.996216	0.000118
  23	2.1890e+00	0.8679	-1.532093	0.000395	3.954258	1.339739	0.000158
  24	2.2885e+00	0.9064	-1.415016	0.000294	2.940345	0.996216	0.000118
  25	2.3880e+00	0.9545	-1.257568	0.000395	3.954258	1.339739	0.000158
  26	2.4875e+00	0.9930	-1.148565	0.000274	2.737563	0.927511	0.000110
  27	2.5870e+00	1.0347	-0.991117	0.000395	3.954258	1.339739	0.000158
  28	2.6865e+00	1.0716	-0.878077	0.000284	2.838954	0.961864	0.000114
  29	2.7860e+00	1.1117	-0.752926	0.000314	3.143128	1.064921	0.000126
  30	2.8855e+00	1.1550	-0.696406	0.000142	1.419477	0.480932	0.000057
  31	2.9850e+00	1.1952	-0.514735	0.000456	4.562605	1.545852	0.000183
  32	3.0845e+00	1.2433	-0.413806	0.000253	2.534781	0.858807	0.000101
  33	3.1840e+00	1.2657	-0.345175	0.000172	1.723651	0.583989	0.000069
  34	3.2835e+00	1.3074	-0.199838	0.000365	3.650084	1.236682	0.000146
  35	3.3830e+00	1.3524	-0.050464	0.000375	3.751475	1.271034	0.000150
  36	3.4825e+00	1.3925	0.046427	0.000243	2.433389	0.824455	0.000097
  37	3.5820e+00	1.4310	0.143318	0.000243	2.433389	0.824455	0.000097
  38	3.6815e+00	1.4679	0.288655	0.000365	3.650084	1.236682	0.000146
  39	3.7810e+00	1.5144	0.421881	0.000335	3.345910	1.133625	0.000134
  40	3.8805e+00	1.5513	0.547032	0.000314	3.143128	1.064921	0.000126
  41	3.9800e+00	1.5834	0.708517	0.000406	4.055649	1.374091	0.000162
  42	4.0795e+00	1.6251	0.801371	0.000233	2.331998	0.790102	0.000093
  43	4.1790e+00	1.6812	0.966894	0.000416	4.157040	1.408443	0.000166
  44	4.2785e+00	1.7117	1.075897	0.000274	2.737563	0.927511	0.000110
  45	4.3780e+00	1.7550	1.221234	0.000365	3.650084	1.236682	0.000146
  46	4.4775e+00	1.7855	1.334273	0.000284	2.838954	0.961864	0.000114
  47	4.5770e+00	1.8224	1.471536	0.000345	3.447302	1.167977	0.000138
  48	4.6765e+00	1.8737	1.528056	0.000142	1.419477	0.480932	0.000057
  49	4.7760e+00	1.9122	1.673393	0.000365	3.650084	1.236682	0.000146
  50	4.8755e+00	1.9507	1.774321	0.000253	2.534781	0.858807	0.000101
  51	4.9750e+00	1.9892	1.887361	0.000284	2.838954	0.961864	0.000114
  52	5.0745e+00	2.0342	1.988289	0.000253	2.534781	0.858807	0.000101
  53	5.1740e+00	2.0711	2.117478	0.000324	3.244519	1.099273	0.000130
  54	5.2735e+00	2.1096	2.230517	0.000284	2.838954	0.961864	0.000114
  55	5.3730e+00	2.1368	2.327409	0.000243	2.433389	0.824455	0.000097
  56	5.4725e+00	2.1914	2.501006	0.000436	4.359822	1.477148	0.000174
  57	5.5720e+00	2.2267	2.622120	0.000304	3.041737	1.030568	0.000122
  58	5.6715e+00	2.2700	2.731122	0.000274	2.737563	0.927511	0.000110
  59	5.7710e+00	2.2989	2.888571	0.000395	3.954258	1.339739	0.000158
  60	5.8705e+00	2.3470	2.985462	0.000243	2.433389	0.824455	0.000097
  61	5.9700e+00	2.3887	3.134836	0.000375	3.751475	1.271034	0.000150
  62	6.0695e+00	2.4240	3.264024	0.000324	3.244519	1.099273	0.000130
  63	6.1690e+00	2.4737	3.393213	0.000324	3.244519	1.099273	0.000130
  64	6.2685e+00	2.5090	3.534512	0.000355	3.548693	1.202330	0.000142
  65	6.3680e+00	2.5507	3.663701	0.000324	3.244519	1.099273	0.000130
  66	6.4675e+00	2.5892	3.740406	0.000193	1.926433	0.652693	0.000077
  67	6.5670e+00	2.6342	3.885743	0.000365	3.650084	1.236682	0.000146
  68	6.6665e+00	2.6646	3.958412	0.000183	1.825042	0.618341	0.000073
  69	6.7660e+00	2.7144	4.075489	0.000294	2.940345	0.996216	0.000118
  70	6.8655e+00	2.7641	4.224863	0.000375	3.751475	1.271034	0.000150
  71	6.9650e+00	2.7817	4.333865	0.000274	2.737563	0.927511	0.000110
  72	7.0645e+00	2.8315	4.450942	0.000294	2.940345	0.996216	0.000118
  73	7.1640e+00	2.8587	4.604353	0.000385	3.852866	1.305386	0.000154
  74	7.2635e+00	2.9053	4.693170	0.000223	2.230607	0.755750	0.000089
  75	7.3630e+00	2.9357	4.854656	0.000406	4.055649	1.374091	0.000162
  76	7.4625e+00	2.9871	4.975770	0.000304	3.041737	1.030568	0.000122
  77	7.5620e+00	3.0256	5.145329	0.000426	4.258431	1.442796	0.000170
  78	7.6615e+00	3.0625	5.290666	0.000365	3.650084	1.236682	0.000146
  79	7.7610e+00	3.1106	5.383521	0.000233	2.331998	0.790102	0.000093
  80	7.8605e+00	3.1379	5.524820	0.000355	3.548693	1.202330	0.000142
  81	7.9600e+00	3.1860	5.601526	0.000193	1.926433	0.652693	0.000077
  82	8.0595e+00	3.2117	5.754937	0.000385	3.852866	1.305386	0.000154
  83	8.1590e+00	3.2646	5.932571	0.000446	4.461214	1.511500	0.000179
  84	8.2585e+00	3.3047	6.041574	0.000274	2.737563	0.927511	0.000110
  85	8.3580e+00	3.3464	6.150576	0.000274	2.737563	0.927511	0.000110
  86	8.4575e+00	3.3881	6.243430	0.000233	2.331998	0.790102	0.000093
  87	8.5570e+00	3.4186	6.380693	0.000345	3.447302	1.167977	0.000138
  88	8.6565e+00	3.4667	6.477584	0.000243	2.433389	0.824455	0.000097
  89	8.7560e+00	3.4972	6.630995	0.000385	3.852866	1.305386	0.000154
  90	8.8555e+00	3.5502	6.752110	0.000304	3.041737	1.030568	0.000122
  91	8.9550e+00	3.5871	6.865149	0.000284	2.838954	0.961864	0.000114
  92	9.0545e+00	3.6191	6.986263	0.000304	3.041737	1.030568	0.000122
  93	9.1540e+00	3.6593	7.139675	0.000385	3.852866	1.305386	0.000154
  94	9.2535e+00	3.6978	7.293086	0.000385	3.852866	1.305386	0.000154
  95	9.3530e+00	3.7411	7.422274	0.000324	3.244519	1.099273	0.000130
  96	9.4525e+00	3.7796	7.539351	0.000294	2.940345	0.996216	0.000118
  97	9.5520e+00	3.8149	7.668539	0.000324	3.244519	1.099273	0.000130
  98	9.6515e+00	3.8694	7.821950	0.000385	3.852866	1.305386	0.000154
  99	9.7510e+00	3.8999	7.955176	0.000335	3.345910	1.133625	0.000134
 100	9.8505e+00	3.9304	8.060142	0.000264	2.636172	0.893159	0.000105
 101	9.9500e+00	3.9785	8.197404	0.000345	3.447302	1.167977	0.000138
 102	1.0050e+01	4.0250	8.302370	0.000264	2.636172	0.893159	0.000105
 103	1.0149e+01	4.0539	8.431558	0.000324	3.244519	1.099273	0.000130
 104	1.0248e+01	4.1020	8.528449	0.000243	2.433389	0.824455	0.000097
 105	1.0348e+01	4.1373	8.653600	0.000314	3.143128	1.064921	0.000126
 106	1.0447e+01	4.1935	8.802974	0.000375	3.751475	1.271034	0.000150
 107	1.0547e+01	4.2111	8.952348	0.000375	3.751475	1.271034	0.000150
 108	1.0646e+01	4.2624	9.025017	0.000183	1.825042	0.618341	0.000073
 109	1.0746e+01	4.2977	9.178428	0.000385	3.852866	1.305386	0.000154
 110	1.0845e+01	4.3539	9.299542	0.000304	3.041737	1.030568	0.000122
 111	1.0945e+01	4.3780	9.440842	0.000355	3.548693	1.202330	0.000142
 112	1.1044e+01	4.4132	9.590216	0.000375	3.751475	1.271034	0.000150
 113	1.1144e+01	4.4646	9.743627	0.000385	3.852866	1.305386	0.000154
 114	1.1243e+01	4.5079	9.856667	0.000284	2.838954	0.961864	0.000114
 115	1.1343e+01	4.5400	9.989892	0.000335	3.345910	1.133625	0.000134
 116	1.1443e+01	4.5753	10.111006	0.000304	3.041737	1.030568	0.000122
 117	1.1542e+01	4.6186	10.244232	0.000335	3.345910	1.133625	0.000134
 118	1.1642e+01	4.6603	10.393606	0.000375	3.751475	1.271034	0.000150
 119	1.1741e+01	4.6892	10.518757	0.000314	3.143128	1.064921	0.000126
 120	1.1841e+01	4.7389	10.619686	0.000253	2.534781	0.858807	0.000101
 121	1.1940e+01	4.7806	10.696391	0.000193	1.926433	0.652693	0.000077
 122	1.2040e+01	4.8159	10.833654	0.000345	3.447302	1.167977	0.000138
 123	1.2139e+01	4.8672	10.970916	0.000345	3.447302	1.167977	0.000138
 124	1.2239e+01	4.9057	11.071845	0.000253	2.534781	0.858807	0.000101
 125	1.2338e+01	4.9314	11.221219	0.000375	3.751475	1.271034	0.000150
 126	1.2438e+01	4.9811	11.342333	0.000304	3.041737	1.030568	0.000122
 127	1.2537e+01	5.0212	11.439224	0.000243	2.433389	0.824455	0.000097
 128	1.2636e+01	5.0598	11.620895	0.000456	4.562605	1.545852	0.000183
 129	1.2736e+01	5.0950	11.750084	0.000324	3.244519	1.099273	0.000130
 130	1.2835e+01	5.1384	11.899458	0.000375	3.751475	1.271034	0.000150
 131	1.2935e+01	5.1817	12.081129	0.000456	4.562605	1.545852	0.000183
 132	1.3034e+01	5.2170	12.206280	0.000314	3.143128	1.064921	0.000126
 133	1.3134e+01	5.2539	12.355654	0.000375	3.751475	1.271034	0.000150
 134	1.3233e+01	5.2908	12.432360	0.000193	1.926433	0.652693	0.000077
 135	1.3333e+01	5.3437	12.605956	0.000436	4.359822	1.477148	0.000174
 136	1.3432e+01	5.3806	12.735145	0.000324	3.244519	1.099273	0.000130
 137	1.3532e+01	5.4111	12.844147	0.000274	2.737563	0.927511	0.000110
 138	1.3632e+01	5.4544	12.977373	0.000335	3.345910	1.133625	0.000134
 139	1.3731e+01	5.4977	13.114635	0.000345	3.447302	1.167977	0.000138
 140	1.3831e+01	5.5362	13.183267	0.000172	1.723651	0.583989	0.000069
 141	1.3930e+01	5.5827	13.364938	0.000456	4.562605	1.545852	0.000183
 142	1.4030e+01	5.6132	13.445681	0.000203	2.027824	0.687046	0.000081
 143	1.4129e+01	5.6501	13.607166	0.000406	4.055649	1.374091	0.000162
 144	1.4229e+01	5.6998	13.712132	0.000264	2.636172	0.893159	0.000105
 145	1.4328e+01	5.7319	13.849394	0.000345	3.447302	1.167977	0.000138
 146	1.4428e+01	5.7672	14.031065	0.000456	4.562605	1.545852	0.000183
 147	1.4527e+01	5.8169	14.172365	0.000355	3.548693	1.202330	0.000142
 148	1.4627e+01	5.8538	14.301553	0.000324	3.244519	1.099273	0.000130
 149	1.4726e+01	5.8940	14.430742	0.000324	3.244519	1.099273	0.000130
 150	1.4825e+01	5.9373	14.555893	0.000314	3.143128	1.064921	0.000126
 151	1.4925e+01	5.9742	14.709304	0.000385	3.852866	1.305386	0.000154
 152	1.5024e+01	6.0191	14.854641	0.000365	3.650084	1.236682	0.000146
 153	1.5124e+01	6.0447	14.959606	0.000264	2.636172	0.893159	0.000105
 154	1.5223e+01	6.0865	15.108980	0.000375	3.751475	1.271034	0.000150
 155	1.5323e+01	6.1362	15.230095	0.000304	3.041737	1.030568	0.000122
 156	1.5422e+01	6.1699	15.351209	0.000304	3.041737	1.030568	0.000122
 157	1.5522e+01	6.2180	15.472323	0.000304	3.041737	1.030568	0.000122
 158	1.5621e+01	6.2581	15.577288	0.000264	2.636172	0.893159	0.000105
 159	1.5721e+01	6.2950	15.718588	0.000355	3.548693	1.202330	0.000142
 160	1.5820e+01	6.3367	15.831628	0.000284	2.838954	0.961864	0.000114
 161	1.5920e+01	6.3640	15.968890	0.000345	3.447302	1.167977	0.000138
 162	1.6020e+01	6.4089	16.106153	0.000345	3.447302	1.167977	0.000138
 163	1.6119e+01	6.4602	16.255527	0.000375	3.751475	1.271034	0.000150
 164	1.6218e+01	6.4907	16.364530	0.000274	2.737563	0.927511	0.000110
 165	1.6318e+01	6.5340	16.530052	0.000416	4.157040	1.408443	0.000166
 166	1.6418e+01	6.5661	16.675389	0.000365	3.650084	1.236682	0.000146
 167	1.6517e+01	6.6126	16.853023	0.000446	4.461214	1.511500	0.000179
 168	1.6616e+01	6.6495	16.962026	0.000274	2.737563	0.927511	0.000110
 169	1.6716e+01	6.6800	17.079103	0.000294	2.940345	0.996216	0.000118
 170	1.6816e+01	6.7282	17.196180	0.000294	2.940345	0.996216	0.000118
 171	1.6915e+01	6.7699	17.329405	0.000335	3.345910	1.133625	0.000134
 172	1.7015e+01	6.8036	17.474742	0.000365	3.650084	1.236682	0.000146
 173	1.7114e+01	6.8469	17.607968	0.000335	3.345910	1.133625	0.000134
 174	1.7213e+01	6.8950	17.737156	0.000324	3.244519	1.099273	0.000130
 175	1.7313e+01	6.9271	17.854233	0.000294	2.940345	0.996216	0.000118
 176	1.7413e+01	6.9784	17.963235	0.000274	2.737563	0.927511	0.000110
 177	1.7512e+01	7.0025	18.076275	0.000284	2.838954	0.961864	0.000114
 178	1.7611e+01	7.0522	18.217575	0.000355	3.548693	1.202330	0.000142
 179	1.7711e+01	7.0923	18.322541	0.000264	2.636172	0.893159	0.000105
 180	1.7811e+01	7.1276	18.471915	0.000375	3.751475	1.271034	0.000150
 181	1.7910e+01	7.1645	18.617251	0.000365	3.650084	1.236682	0.000146
 182	1.8009e+01	7.2062	18.770663	0.000385	3.852866	1.305386	0.000154
 183	1.8109e+01	7.2351	18.916000	0.000365	3.650084	1.236682	0.000146
 184	1.8209e+01	7.2961	19.069411	0.000385	3.852866	1.305386	0.000154
 185	1.8308e+01	7.3233	19.210710	0.000355	3.548693	1.202330	0.000142
 186	1.8407e+01	7.3602	19.323750	0.000284	2.838954	0.961864	0.000114
 187	1.8507e+01	7.4067	19.428716	0.000264	2.636172	0.893159	0.000105
 188	1.8607e+01	7.4517	19.574053	0.000365	3.650084	1.236682	0.000146
 189	1.8706e+01	7.4854	19.727464	0.000385	3.852866	1.305386	0.000154
 190	1.8805e+01	7.5222	19.828392	0.000253	2.534781	0.858807	0.000101
 191	1.8905e+01	7.5656	20.001989	0.000436	4.359822	1.477148	0.000174
 192	1.9005e+01	7.6089	20.143289	0.000355	3.548693	1.202330	0.000142
 193	1.9104e+01	7.6522	20.248254	0.000264	2.636172	0.893159	0.000105
 194	1.9203e+01	7.6843	20.353220	0.000264	2.636172	0.893159	0.000105
 195	1.9303e+01	7.7164	20.433963	0.000203	2.027824	0.687046	0.000081
 196	1.9402e+01	7.7693	20.591411	0.000395	3.954258	1.339739	0.000158
 197	1.9502e+01	7.8062	20.736748	0.000365	3.650084	1.236682	0.000146
 198	1.9602e+01	7.8495	20.809416	0.000183	1.825042	0.618341	0.000073
 199	1.9701e+01	7.8736	20.978976	0.000426	4.258431	1.442796	0.000170
 200	1.9800e+01	7.9249	21.152573	0.000436	4.359822	1.477148	0.000174
 201	1.9900e+01	7.9634	21.310021	0.000395	3.954258	1.339739	0.000158
 202	2.0000e+01	8.0147	21.406912	0.000243	2.433389	0.824455	0.000097
 203	2.0099e+01	8.0468	21.612806	0.000517	5.170952	1.751966	0.000207
 204	2.0198e+01	8.0837	21.697586	0.000213	2.129216	0.721398	0.000085
 205	2.0298e+01	8.1174	21.842923	0.000365	3.650084	1.236682	0.000146
 206	2.0398e+01	8.1623	21.984223	0.000355	3.548693	1.202330	0.000142
 207	2.0497e+01	8.2105	22.113411	0.000324	3.244519	1.099273	0.000130
 208	2.0596e+01	8.2425	22.258748	0.000365	3.650084	1.236682	0.000146
 209	2.0696e+01	8.2810	22.379862	0.000304	3.041737	1.030568	0.000122
 210	2.0796e+01	8.3292	22.509050	0.000324	3.244519	1.099273	0.000130
 211	2.0895e+01	8.3613	22.678610	0.000426	4.258431	1.442796	0.000170
 212	2.0994e+01	8.4126	22.795687	0.000294	2.940345	0.996216	0.000118
 213	2.1094e+01	8.4479	22.892578	0.000243	2.433389	0.824455	0.000097
 214	2.1194e+01	8.4816	22.973321	0.000203	2.027824	0.687046	0.000081
 215	2.1293e+01	8.5345	23.106546	0.000335	3.345910	1.133625	0.000134
 216	2.1392e+01	8.5730	23.255920	0.000375	3.751475	1.271034	0.000150
 217	2.1492e+01	8.6035	23.360886	0.000264	2.636172	0.893159	0.000105
 218	2.1591e+01	8.6468	23.502186	0.000355	3.548693	1.202330	0.000142
 219	2.1691e+01	8.6821	23.623300	0.000304	3.041737	1.030568	0.000122
 220	2.1791e+01	8.7238	23.809008	0.000466	4.663996	1.580205	0.000187
 221	2.1890e+01	8.7575	23.934159	0.000314	3.143128	1.064921	0.000126
 222	2.1989e+01	8.7944	24.018939	0.000213	2.129216	0.721398	0.000085
 223	2.2089e+01	8.8473	24.228870	0.000527	5.272343	1.786318	0.000211
 224	2.2189e+01	8.8874	24.358058	0.000324	3.244519	1.099273	0.000130
 225	2.2288e+01	8.9260	24.458987	0.000253	2.534781	0.858807	0.000101
 226	2.2387e+01	8.9564	24.620472	0.000406	4.055649	1.374091	0.000162
 227	2.2487e+01	8.9997	24.713326	0.000233	2.331998	0.790102	0.000093
 228	2.2587e+01	9.0366	24.862700	0.000375	3.751475	1.271034	0.000150
 229	2.2686e+01	9.0767	24.967666	0.000264	2.636172	0.893159	0.000105
 230	2.2785e+01	9.1265	25.096854	0.000324	3.244519	1.099273	0.000130
 231	2.2885e+01	9.1521	25.230080	0.000335	3.345910	1.133625	0.000134
 232	2.2985e+01	9.2099	25.371380	0.000355	3.548693	1.202330	0.000142
 233	2.3084e+01	9.2372	25.464234	0.000233	2.331998	0.790102	0.000093
 234	2.3183e+01	9.2917	25.565162	0.000253	2.534781	0.858807	0.000101
 235	2.3283e+01	9.3222	25.734722	0.000426	4.258431	1.442796	0.000170
 236	2.3383e+01	9.3575	25.843724	0.000274	2.737563	0.927511	0.000110
 237	2.3482e+01	9.4088	25.989061	0.000365	3.650084	1.236682	0.000146
 238	2.3581e+01	9.4361	26.126324	0.000345	3.447302	1.167977	0.000138
 239	2.3681e+01	9.4794	26.295884	0.000426	4.258431	1.442796	0.000170
 240	2.3780e+01	9.5179	26.445258	0.000375	3.751475	1.271034	0.000150
 241	2.3880e+01	9.5580	26.578483	0.000335	3.345910	1.133625	0.000134
 242	2.3980e+01	9.5981	26.683449	0.000264	2.636172	0.893159	0.000105
 243	2.4079e+01	9.6430	26.836860	0.000385	3.852866	1.305386	0.000154
 244	2.4178e+01	9.6799	26.945862	0.000274	2.737563	0.927511	0.000110
 245	2.4278e+01	9.7217	27.107348	0.000406	4.055649	1.374091	0.000162
 246	2.4378e+01	9.7553	27.212313	0.000264	2.636172	0.893159	0.000105
 247	2.4477e+01	9.7987	27.361687	0.000375	3.751475	1.271034	0.000150
 248	2.4576e+01	9.8339	27.462616	0.000253	2.534781	0.858807	0.000101
 249	2.4676e+01	9.8676	27.579693	0.000294	2.940345	0.996216	0.000118
 250	2.4776e+01	9.9222	27.737141	0.000395	3.954258	1.339739	0.000158
 251	2.4875e+01	9.9639	27.797698	0.000152	1.520868	0.515284	0.000061
 252	2.4974e+01	10.0008	27.943035	0.000365	3.650084	1.236682	0.000146
 253	2.5074e+01	10.0329	28.031852	0.000223	2.230607	0.755750	0.000089
 254	2.5174e+01	10.0826	28.237746	0.000517	5.170952	1.751966	0.000207
 255	2.5273e+01	10.1227	28.322526	0.000213	2.129216	0.721398	0.000085
 256	2.5372e+01	10.1516	28.520345	0.000497	4.968170	1.683262	0.000199
 257	2.5472e+01	10.1965	28.681831	0.000406	4.055649	1.374091	0.000162
 258	2.5572e+01	10.2398	28.762574	0.000203	2.027824	0.687046	0.000081
 259	2.5671e+01	10.2799	28.899836	0.000345	3.447302	1.167977	0.000138
 260	2.5770e+01	10.3136	29.073433	0.000436	4.359822	1.477148	0.000174
 261	2.5870e+01	10.3521	29.194547	0.000304	3.041737	1.030568	0.000122
 262	2.5970e+01	10.3970	29.339884	0.000365	3.650084	1.236682	0.000146
 263	2.6069e+01	10.4355	29.485221	0.000365	3.650084	1.236682	0.000146
 264	2.6169e+01	10.4740	29.598261	0.000284	2.838954	0.961864	0.000114
 265	2.6268e+01	10.5125	29.707263	0.000274	2.737563	0.927511	0.000110
 266	2.6367e+01	10.5542	29.848563	0.000355	3.548693	1.202330	0.000142
 267	2.6467e+01	10.6104	29.977751	0.000324	3.244519	1.099273	0.000130
 268	2.6567e+01	10.6393	30.078680	0.000253	2.534781	0.858807	0.000101
 269	2.6666e+01	10.6730	30.215942	0.000345	3.447302	1.167977	0.000138
 270	2.6765e+01	10.7131	30.308797	0.000233	2.331998	0.790102	0.000093
 271	2.6865e+01	10.7548	30.462208	0.000385	3.852866	1.305386	0.000154
 272	2.6965e+01	10.7901	30.611582	0.000375	3.751475	1.271034	0.000150
 273	2.7064e+01	10.8318	30.744807	0.000335	3.345910	1.133625	0.000134
 274	2.7163e+01	10.8831	30.853810	0.000274	2.737563	0.927511	0.000110
 275	2.7263e+01	10.9184	31.039518	0.000466	4.663996	1.580205	0.000187
 276	2.7363e+01	10.9521	31.188892	0.000375	3.751475	1.271034	0.000150
 277	2.7462e+01	10.9890	31.285783	0.000243	2.433389	0.824455	0.000097
 278	2.7561e+01	11.0403	31.447269	0.000406	4.055649	1.374091	0.000162
 279	2.7661e+01	11.0692	31.548197	0.000253	2.534781	0.858807	0.000101
 280	2.7761e+01	11.1141	31.697571	0.000375	3.751475	1.271034	0.000150
 281	2.7860e+01	11.1542	31.850982	0.000385	3.852866	1.305386	0.000154
 282	2.7959e+01	11.1959	31.951911	0.000253	2.534781	0.858807	0.000101
 283	2.8059e+01	11.2296	32.073025	0.000304	3.041737	1.030568	0.000122
 284	2.8159e+01	11.2617	32.222399	0.000375	3.751475	1.271034	0.000150
 285	2.8258e+01	11.3259	32.335439	0.000284	2.838954	0.961864	0.000114
 286	2.8358e+01	11.3580	32.456553	0.000304	3.041737	1.030568	0.000122
 287	2.8457e+01	11.3965	32.525184	0.000172	1.723651	0.583989	0.000069
 288	2.8556e+01	11.4382	32.634187	0.000274	2.737563	0.927511	0.000110
 289	2.8656e+01	11.4671	32.799709	0.000416	4.157040	1.408443	0.000166
 290	2.8756e+01	11.5136	32.920823	0.000304	3.041737	1.030568	0.000122
 291	2.8855e+01	11.5489	33.029826	0.000274	2.737563	0.927511	0.000110
 292	2.8954e+01	11.5810	33.239757	0.000527	5.272343	1.786318	0.000211
 293	2.9054e+01	11.6355	33.377020	0.000345	3.447302	1.167977	0.000138
 294	2.9154e+01	11.6692	33.518319	0.000355	3.548693	1.202330	0.000142
 295	2.9253e+01	11.7125	33.647508	0.000324	3.244519	1.099273	0.000130
 296	2.9352e+01	11.7526	33.772659	0.000314	3.143128	1.064921	0.000126
 297	2.9452e+01	11.7895	33.877625	0.000264	2.636172	0.893159	0.000105
 298	2.9552e+01	11.8248	34.035073	0.000395	3.954258	1.339739	0.000158
 299	2.9651e+01	11.8697	34.188484	0.000385	3.852866	1.305386	0.000154
 300	2.9750e+01	11.9066	34.293450	0.000264	2.636172	0.893159	0.000105
 301	2.9850e+01	11.9515	34.414564	0.000304	3.041737	1.030568	0.000122
 302	2.9950e+01	11.9868	34.592198	0.000446	4.461214	1.511500	0.000179
 303	3.0049e+01	12.0382	34.697163	0.000264	2.636172	0.893159	0.000105
 304	3.0148e+01	12.0719	34.866723	0.000426	4.258431	1.442796	0.000170
 305	3.0248e+01	12.1120	34.951503	0.000213	2.129216	0.721398	0.000085
 306	3.0348e+01	12.1553	35.024171	0.000183	1.825042	0.618341	0.000073
 307	3.0447e+01	12.1793	35.201805	0.000446	4.461214	1.511500	0.000179
 308	3.0547e+01	12.2275	35.306771	0.000264	2.636172	0.893159	0.000105
 309	3.0646e+01	12.2660	35.439996	0.000335	3.345910	1.133625	0.000134
 310	3.0745e+01	12.3157	35.621667	0.000456	4.562605	1.545852	0.000183
 311	3.0845e+01	12.3510	35.762967	0.000355	3.548693	1.202330	0.000142
 312	3.0945e+01	12.3815	35.908304	0.000365	3.650084	1.236682	0.000146
 313	3.1044e+01	12.4280	36.033455	0.000314	3.143128	1.064921	0.000126
 314	3.1143e+01	12.4681	36.186866	0.000385	3.852866	1.305386	0.000154
 315	3.1243e+01	12.5082	36.291832	0.000264	2.636172	0.893159	0.000105
 316	3.1343e+01	12.5531	36.457354	0.000416	4.157040	1.408443	0.000166
 317	3.1442e+01	12.5868	36.566357	0.000274	2.737563	0.927511	0.000110
 318	3.1541e+01	12.6285	36.707657	0.000355	3.548693	1.202330	0.000142
 319	3.1641e+01	12.6638	36.828771	0.000304	3.041737	1.030568	0.000122
 320	3.1741e+01	12.7007	36.970071	0.000355	3.548693	1.202330	0.000142
 321	3.1840e+01	12.7504	37.099259	0.000324	3.244519	1.099273	0.000130
 322	3.1939e+01	12.7986	37.192113	0.000233	2.331998	0.790102	0.000093
 323	3.2039e+01	12.8339	37.349561	0.000395	3.954258	1.339739	0.000158
 324	3.2139e+01	12.8611	37.454527	0.000264	2.636172	0.893159	0.000105
 325	3.2238e+01	12.8996	37.547381	0.000233	2.331998	0.790102	0.000093
 326	3.2337e+01	12.9446	37.680606	0.000335	3.345910	1.133625	0.000134
 327	3.2437e+01	12.9847	37.838055	0.000395	3.954258	1.339739	0.000158
 328	3.2536e+01	13.0200	37.951095	0.000284	2.838954	0.961864	0.000114
 329	3.2636e+01	13.0617	38.076246	0.000314	3.143128	1.064921	0.000126
 330	3.2736e+01	13.1034	38.249843	0.000436	4.359822	1.477148	0.000174
 331	3.2835e+01	13.1403	38.374994	0.000314	3.143128	1.064921	0.000126
 332	3.2934e+01	13.1772	38.552628	0.000446	4.461214	1.511500	0.000179
 333	3.3034e+01	13.2173	38.673742	0.000304	3.041737	1.030568	0.000122
 334	3.3133e+01	13.2702	38.823116	0.000375	3.751475	1.271034	0.000150
 335	3.3233e+01	13.2991	38.899821	0.000193	1.926433	0.652693	0.000077
 336	3.3333e+01	13.3344	39.061307	0.000406	4.055649	1.374091	0.000162
 337	3.3432e+01	13.3777	39.202607	0.000355	3.548693	1.202330	0.000142
 338	3.3532e+01	13.4178	39.343906	0.000355	3.548693	1.202330	0.000142
 339	3.3631e+01	13.4723	39.489243	0.000365	3.650084	1.236682	0.000146
 340	3.3730e+01	13.5092	39.561912	0.000183	1.825042	0.618341	0.000073
 341	3.3830e+01	13.5461	39.666877	0.000264	2.636172	0.893159	0.000105
 342	3.3929e+01	13.5895	39.783954	0.000294	2.940345	0.996216	0.000118
 343	3.4029e+01	13.6231	39.921217	0.000345	3.447302	1.167977	0.000138
 344	3.4129e+01	13.6616	40.026182	0.000264	2.636172	0.893159	0.000105
 345	3.4228e+01	13.7018	40.163445	0.000345	3.447302	1.167977	0.000138
 346	3.4328e+01	13.7338	40.296670	0.000335	3.345910	1.133625	0.000134
 347	3.4427e+01	13.7852	40.454119	0.000395	3.954258	1.339739	0.000158
 348	3.4526e+01	13.8205	40.623678	0.000426	4.258431	1.442796	0.000170
 349	3.4626e+01	13.8590	40.773052	0.000375	3.751475	1.271034	0.000150
 350	3.4725e+01	13.9007	40.890129	0.000294	2.940345	0.996216	0.000118
 351	3.4825e+01	13.9392	41.059689	0.000426	4.258431	1.442796	0.000170
 352	3.4925e+01	13.9761	41.176766	0.000294	2.940345	0.996216	0.000118
 353	3.5024e+01	14.0178	41.305954	0.000324	3.244519	1.099273	0.000130
 354	3.5123e+01	14.0515	41.378623	0.000183	1.825042	0.618341	0.000073
 355	3.5223e+01	14.1044	41.564331	0.000466	4.663996	1.580205	0.000187
 356	3.5322e+01	14.1461	41.705631	0.000355	3.548693	1.202330	0.000142
 357	3.5422e+01	14.1862	41.810596	0.000264	2.636172	0.893159	0.000105
 358	3.5522e+01	14.2215	41.959970	0.000375	3.751475	1.271034	0.000150
 359	3.5621e+01	14.2632	42.020527	0.000152	1.520868	0.515284	0.000061
 360	3.5721e+01	14.2985	42.169901	0.000375	3.751475	1.271034	0.000150
 361	3.5820e+01	14.3483	42.278904	0.000274	2.737563	0.927511	0.000110
 362	3.5919e+01	14.3868	42.416167	0.000345	3.447302	1.167977	0.000138
 363	3.6019e+01	14.4140	42.549392	0.000335	3.345910	1.133625	0.000134
 364	3.6118e+01	14.4525	42.702803	0.000385	3.852866	1.305386	0.000154
 365	3.6218e+01	14.4958	42.844103	0.000355	3.548693	1.202330	0.000142
 366	3.6318e+01	14.5376	43.001551	0.000395	3.954258	1.339739	0.000158
 367	3.6417e+01	14.5857	43.134777	0.000335	3.345910	1.133625	0.000134
 368	3.6517e+01	14.6162	43.308374	0.000436	4.359822	1.477148	0.000174
 369	3.6616e+01	14.6579	43.397191	0.000223	2.230607	0.755750	0.000089
 370	3.6715e+01	14.7028	43.510230	0.000284	2.838954	0.961864	0.000114
 371	3.6815e+01	14.7397	43.659604	0.000375	3.751475	1.271034	0.000150
 372	3.6914e+01	14.7686	43.813016	0.000385	3.852866	1.305386	0.000154
 373	3.7014e+01	14.8167	43.954315	0.000355	3.548693	1.202330	0.000142
 374	3.7114e+01	14.8504	44.111764	0.000395	3.954258	1.339739	0.000158
 375	3.7213e+01	14.8985	44.204618	0.000233	2.331998	0.790102	0.000093
 376	3.7313e+01	14.9418	44.325732	0.000304	3.041737	1.030568	0.000122
 377	3.7412e+01	14.9803	44.458957	0.000335	3.345910	1.133625	0.000134
 378	3.7511e+01	15.0156	44.559886	0.000253	2.534781	0.858807	0.000101
 379	3.7611e+01	15.0525	44.652740	0.000233	2.331998	0.790102	0.000093
 380	3.7711e+01	15.1071	44.785965	0.000335	3.345910	1.133625	0.000134
 381	3.7810e+01	15.1327	44.882857	0.000243	2.433389	0.824455	0.000097
 382	3.7910e+01	15.1728	45.056453	0.000436	4.359822	1.477148	0.000174
 383	3.8009e+01	15.2210	45.189679	0.000335	3.345910	1.133625	0.000134
 384	3.8108e+01	15.2643	45.367313	0.000446	4.461214	1.511500	0.000179
 385	3.8208e+01	15.2996	45.528798	0.000406	4.055649	1.374091	0.000162
 386	3.8307e+01	15.3333	45.637801	0.000274	2.737563	0.927511	0.000110
 387	3.8407e+01	15.3830	45.734692	0.000243	2.433389	0.824455	0.000097
 388	3.8507e+01	15.4183	45.871955	0.000345	3.447302	1.167977	0.000138
 389	3.8606e+01	15.4584	46.025366	0.000385	3.852866	1.305386	0.000154
 390	3.8706e+01	15.4921	46.122257	0.000243	2.433389	0.824455	0.000097
 391	3.8805e+01	15.5386	46.283743	0.000406	4.055649	1.374091	0.000162
 392	3.8904e+01	15.5739	46.376597	0.000233	2.331998	0.790102	0.000093
 393	3.9004e+01	15.6092	46.505785	0.000324	3.244519	1.099273	0.000130
 394	3.9103e+01	15.6493	46.647085	0.000355	3.548693	1.202330	0.000142
 395	3.9203e+01	15.6878	46.832793	0.000466	4.663996	1.580205	0.000187
 396	3.9303e+01	15.7327	46.941796	0.000274	2.737563	0.927511	0.000110
 397	3.9402e+01	15.7808	47.018501	0.000193	1.926433	0.652693	0.000077
 398	3.9502e+01	15.8177	47.099244	0.000203	2.027824	0.687046	0.000081
 399	3.9601e+01	15.8498	47.260730	0.000406	4.055649	1.374091	0.000162
 400	3.9700e+01	15.8835	47.361658	0.000253	2.534781	0.858807	0.000101
 401	3.9800e+01	15.9300	47.535255	0.000436	4.359822	1.477148	0.000174
 402	3.9900e+01	15.9653	47.688666	0.000385	3.852866	1.305386	0.000154
 403	3.9999e+01	16.0199	47.834003	0.000365	3.650084	1.236682	0.000146
 404	4.0099e+01	16.0503	47.959154	0.000314	3.143128	1.064921	0.000126
 405	4.0198e+01	16.0953	48.100454	0.000355	3.548693	1.202330	0.000142
 406	4.0297e+01	16.1290	48.221568	0.000304	3.041737	1.030568	0.000122
 407	4.0397e+01	16.1707	48.334608	0.000284	2.838954	0.961864	0.000114
 408	4.0496e+01	16.2108	48.475907	0.000355	3.548693	1.202330	0.000142
 409	4.0596e+01	16.2525	48.637393	0.000406	4.055649	1.374091	0.000162
 410	4.0696e+01	16.2878	48.770618	0.000335	3.345910	1.133625	0.000134
 411	4.0795e+01	16.3375	48.879621	0.000274	2.737563	0.927511	0.000110
 412	4.0895e+01	16.3728	49.037069	0.000395	3.954258	1.339739	0.000158
 413	4.0994e+01	16.4065	49.146072	0.000274	2.737563	0.927511	0.000110
 414	4.1093e+01	16.4498	49.271223	0.000314	3.143128	1.064921	0.000126
 415	4.1193e+01	16.4915	49.400411	0.000324	3.244519	1.099273	0.000130
 416	4.1292e+01	16.5220	49.505377	0.000264	2.636172	0.893159	0.000105
 417	4.1392e+01	16.5701	49.634565	0.000324	3.244519	1.099273	0.000130
 418	4.1492e+01	16.6022	49.735494	0.000253	2.534781	0.858807	0.000101
 419	4.1591e+01	16.6487	49.933313	0.000497	4.968170	1.683262	0.000199
 420	4.1691e+01	16.6920	50.050390	0.000294	2.940345	0.996216	0.000118
 421	4.1790e+01	16.7305	50.167467	0.000294	2.940345	0.996216	0.000118
 422	4.1889e+01	16.7723	50.288581	0.000304	3.041737	1.030568	0.000122
 423	4.1989e+01	16.8108	50.482364	0.000487	4.866779	1.648909	0.000195
 424	4.2089e+01	16.8477	50.591367	0.000274	2.737563	0.927511	0.000110
 425	4.2188e+01	16.8862	50.672109	0.000203	2.027824	0.687046	0.000081
 426	4.2288e+01	16.9263	50.853780	0.000456	4.562605	1.545852	0.000183
 427	4.2387e+01	16.9680	50.982969	0.000324	3.244519	1.099273	0.000130
 428	4.2486e+01	17.0097	51.144454	0.000406	4.055649	1.374091	0.000162
 429	4.2586e+01	17.0450	51.281717	0.000345	3.447302	1.167977	0.000138
 430	4.2685e+01	17.0883	51.378608	0.000243	2.433389	0.824455	0.000097
 431	4.2785e+01	17.1268	51.495685	0.000294	2.940345	0.996216	0.000118
 432	4.2885e+01	17.1589	51.681393	0.000466	4.663996	1.580205	0.000187
 433	4.2984e+01	17.2006	51.778284	0.000243	2.433389	0.824455	0.000097
 434	4.3084e+01	17.2455	51.899398	0.000304	3.041737	1.030568	0.000122
 435	4.3183e+01	17.2888	51.996290	0.000243	2.433389	0.824455	0.000097
 436	4.3282e+01	17.3289	52.109330	0.000284	2.838954	0.961864	0.000114
 437	4.3382e+01	17.3690	52.278889	0.000426	4.258431	1.442796	0.000170
 438	4.3481e+01	17.4043	52.416152	0.000345	3.447302	1.167977	0.000138
 439	4.3581e+01	17.4541	52.577637	0.000406	4.055649	1.374091	0.000162
 440	4.3681e+01	17.4910	52.690677	0.000284	2.838954	0.961864	0.000114
 441	4.3780e+01	17.5295	52.823903	0.000335	3.345910	1.133625	0.000134
 442	4.3880e+01	17.5663	52.953091	0.000324	3.244519	1.099273	0.000130
 443	4.3979e+01	17.6081	53.082279	0.000324	3.244519	1.099273	0.000130
 444	4.4078e+01	17.6434	53.199356	0.000294	2.940345	0.996216	0.000118
 445	4.4178e+01	17.6915	53.360842	0.000406	4.055649	1.374091	0.000162
 446	4.4278e+01	17.7220	53.490030	0.000324	3.244519	1.099273	0.000130
 447	4.4377e+01	17.7589	53.623255	0.000335	3.345910	1.133625	0.000134
 448	4.4477e+01	17.7990	53.780704	0.000395	3.954258	1.339739	0.000158
 449	4.4576e+01	17.8455	53.845298	0.000162	1.622260	0.549636	0.000065
 450	4.4675e+01	17.8888	53.998709	0.000385	3.852866	1.305386	0.000154
 451	4.4775e+01	17.9241	54.152120	0.000385	3.852866	1.305386	0.000154
 452	4.4874e+01	17.9690	54.277271	0.000314	3.143128	1.064921	0.000126
 453	4.4974e+01	18.0123	54.329754	0.000132	1.318086	0.446580	0.000053
 454	4.5074e+01	18.0444	54.479128	0.000375	3.751475	1.271034	0.000150
 455	4.5173e+01	18.0893	54.612354	0.000335	3.345910	1.133625	0.000134
 456	4.5273e+01	18.1246	54.761728	0.000375	3.751475	1.271034	0.000150
 457	4.5372e+01	18.1647	54.931287	0.000426	4.258431	1.442796	0.000170
 458	4.5471e+01	18.2032	55.032216	0.000253	2.534781	0.858807	0.000101
 459	4.5571e+01	18.2433	55.181590	0.000375	3.751475	1.271034	0.000150
 460	4.5670e+01	18.2931	55.306741	0.000314	3.143128	1.064921	0.000126
 461	4.5770e+01	18.3300	55.468226	0.000406	4.055649	1.374091	0.000162
 462	4.5870e+01	18.3637	55.577229	0.000274	2.737563	0.927511	0.000110
 463	4.5969e+01	18.4038	55.730640	0.000385	3.852866	1.305386	0.000154
 464	4.6069e+01	18.4471	55.875977	0.000365	3.650084	1.236682	0.000146
 465	4.6168e+01	18.4904	56.017277	0.000355	3.548693	1.202330	0.000142
 466	4.6267e+01	18.5305	56.122242	0.000264	2.636172	0.893159	0.000105
 467	4.6367e+01	18.5706	56.283728	0.000406	4.055649	1.374091	0.000162
 468	4.6467e+01	18.6107	56.388693	0.000264	2.636172	0.893159	0.000105
 469	4.6566e+01	18.6380	56.529993	0.000355	3.548693	1.202330	0.000142
 470	4.6666e+01	18.6765	56.622847	0.000233	2.331998	0.790102	0.000093
 471	4.6765e+01	18.7182	56.760110	0.000345	3.447302	1.167977	0.000138
 472	4.6864e+01	18.7647	56.873150	0.000284	2.838954	0.961864	0.000114
 473	4.6964e+01	18.8112	57.006375	0.000335	3.345910	1.133625	0.000134
 474	4.7063e+01	18.8369	57.216306	0.000527	5.272343	1.786318	0.000211
 475	4.7163e+01	18.8818	57.349532	0.000335	3.345910	1.133625	0.000134
 476	4.7263e+01	18.9203	57.454497	0.000264	2.636172	0.893159	0.000105
 477	4.7362e+01	18.9588	57.595797	0.000355	3.548693	1.202330	0.000142
 478	4.7462e+01	18.9989	57.741134	0.000365	3.650084	1.236682	0.000146
 479	4.7561e+01	19.0438	57.886471	0.000365	3.650084	1.236682	0.000146
 480	4.7660e+01	19.0711	58.027771	0.000355	3.548693	1.202330	0.000142
 481	4.7760e+01	19.1176	58.144847	0.000294	2.940345	0.996216	0.000118
 482	4.7859e+01	19.1690	58.318444	0.000436	4.359822	1.477148	0.000174
 483	4.7959e+01	19.1995	58.403224	0.000213	2.129216	0.721398	0.000085
 484	4.8059e+01	19.2412	58.597007	0.000487	4.866779	1.648909	0.000195
 485	4.8158e+01	19.2797	58.657564	0.000152	1.520868	0.515284	0.000061
 486	4.8258e+01	19.3182	58.786752	0.000324	3.244519	1.099273	0.000130
 487	4.8357e+01	19.3647	58.936126	0.000375	3.751475	1.271034	0.000150
 488	4.8456e+01	19.3936	59.037054	0.000253	2.534781	0.858807	0.000101
 489	4.8556e+01	19.4353	59.158169	0.000304	3.041737	1.030568	0.000122
 490	4.8656e+01	19.4802	59.303505	0.000365	3.650084	1.236682	0.000146
 491	4.8755e+01	19.5123	59.460954	0.000395	3.954258	1.339739	0.000158
 492	4.8855e+01	19.5444	59.610328	0.000375	3.751475	1.271034	0.000150
 493	4.8954e+01	19.5989	59.747590	0.000345	3.447302	1.167977	0.000138
 494	4.9053e+01	19.6406	59.896964	0.000375	3.751475	1.271034	0.000150
 495	4.9153e+01	19.6775	60.038264	0.000355	3.548693	1.202330	0.000142
 496	4.9252e+01	19.7192	60.179564	0.000355	3.548693	1.202330	0.000142
 497	4.9352e+01	19.7577	60.312789	0.000335	3.345910	1.133625	0.000134
 498	4.9452e+01	19.7994	60.429866	0.000294	2.940345	0.996216	0.000118
 499	4.9551e+01	19.8444	60.583277	0.000385	3.852866	1.305386	0.000154
 500	4.9651e+01	19.8716	60.732651	0.000375	3.751475	1.271034	0.000150
 501	4.9750e+01	19.9133	60.833580	0.000253	2.534781	0.858807	0.000101
 502	4.9849e+01	19.9631	60.982954	0.000375	3.751475	1.271034	0.000150
 503	4.9949e+01	19.9887	61.091957	0.000274	2.737563	0.927511	0.000110
 504	5.0048e+01	19.9567	61.007177	0.000213	2.129216	0.721398	-0.000085
 505	5.0148e+01	19.9085	60.930471	0.000193	1.926433	0.652693	-0.000077
 506	5.0248e+01	19.8797	60.869914	0.000152	1.520868	0.515284	-0.000061
 507	5.0347e+01	19.8379	60.740726	0.000324	3.244519	1.099273	-0.000130
 508	5.0447e+01	19.7930	60.631723	0.000274	2.737563	0.927511	-0.000110
 509	5.0546e+01	19.7513	60.611537	0.000051	0.506956	0.171761	-0.000020
 510	5.0645e+01	19.7128	60.534832	0.000193	1.926433	0.652693	-0.000077
 511	5.0745e+01	19.6775	60.474275	0.000152	1.520868	0.515284	-0.000061
 512	5.0844e+01	19.6454	60.365272	0.000274	2.737563	0.927511	-0.000110
 513	5.0944e+01	19.5925	60.236084	0.000324	3.244519	1.099273	-0.000130
 514	5.1044e+01	19.5476	60.175527	0.000152	1.520868	0.515284	-0.000061
 515	5.1143e+01	19.5235	60.098821	0.000193	1.926433	0.652693	-0.000077
 516	5.1242e+01	19.4802	60.018078	0.000203	2.027824	0.687046	-0.000081
 517	5.1342e+01	19.4321	59.925224	0.000233	2.331998	0.790102	-0.000093
 518	5.1441e+01	19.4000	59.808147	0.000294	2.940345	0.996216	-0.000118
 519	5.1541e+01	19.3599	59.703182	0.000264	2.636172	0.893159	-0.000105
 520	5.1641e+01	19.3246	59.658773	0.000112	1.115303	0.377875	-0.000045
 521	5.1740e+01	19.2845	59.561882	0.000243	2.433389	0.824455	-0.000097
 522	5.1840e+01	19.2331	59.452879	0.000274	2.737563	0.927511	-0.000110
 523	5.1939e+01	19.2011	59.372137	0.000203	2.027824	0.687046	-0.000081
 524	5.2038e+01	19.1658	59.295431	0.000193	1.926433	0.652693	-0.000077
 525	5.2138e+01	19.1257	59.166243	0.000324	3.244519	1.099273	-0.000130
 526	5.2237e+01	19.0872	59.057240	0.000274	2.737563	0.927511	-0.000110
 527	5.2337e+01	19.0455	58.928052	0.000324	3.244519	1.099273	-0.000130
 528	5.2437e+01	19.0021	58.859420	0.000172	1.723651	0.583989	-0.000069
 529	5.2536e+01	18.9604	58.778678	0.000203	2.027824	0.687046	-0.000081
 530	5.2636e+01	18.9219	58.710046	0.000172	1.723651	0.583989	-0.000069
 531	5.2735e+01	18.8850	58.629304	0.000203	2.027824	0.687046	-0.000081
 532	5.2834e+01	18.8401	58.516264	0.000284	2.838954	0.961864	-0.000114
 533	5.2934e+01	18.8096	58.411298	0.000264	2.636172	0.893159	-0.000105
 534	5.3033e+01	18.7567	58.346704	0.000162	1.622260	0.549636	-0.000065
 535	5.3133e+01	18.7214	58.229627	0.000294	2.940345	0.996216	-0.000118
 536	5.3233e+01	18.6749	58.160996	0.000172	1.723651	0.583989	-0.000069
 537	5.3332e+01	18.6412	58.060068	0.000253	2.534781	0.858807	-0.000101
 538	5.3431e+01	18.6043	57.938954	0.000304	3.041737	1.030568	-0.000122
 539	5.3531e+01	18.5626	57.858211	0.000203	2.027824	0.687046	-0.000081
 540	5.3630e+01	18.5289	57.712874	0.000365	3.650084	1.236682	-0.000146
 541	5.3730e+01	18.4824	57.636168	0.000193	1.926433	0.652693	-0.000077
 542	5.3830e+01	18.4423	57.559463	0.000193	1.926433	0.652693	-0.000077
 543	5.3929e+01	18.3973	57.442386	0.000294	2.940345	0.996216	-0.000118
 544	5.4029e+01	18.3701	57.345495	0.000243	2.433389	0.824455	-0.000097
 545	5.4128e+01	18.3252	57.216306	0.000324	3.244519	1.099273	-0.000130
 546	5.4227e+01	18.2834	57.111341	0.000264	2.636172	0.893159	-0.000105
 547	5.4327e+01	18.2481	57.038672	0.000183	1.825042	0.618341	-0.000073
 548	5.4426e+01	18.2048	56.937744	0.000253	2.534781	0.858807	-0.000101
 549	5.4526e+01	18.1663	56.881224	0.000142	1.419477	0.480932	-0.000057
 550	5.4626e+01	18.1214	56.735887	0.000365	3.650084	1.236682	-0.000146
 551	5.4725e+01	18.0893	56.667256	0.000172	1.723651	0.583989	-0.000069
 552	5.4825e+01	18.0444	56.562290	0.000264	2.636172	0.893159	-0.000105
 553	5.4924e+01	17.9979	56.461362	0.000253	2.534781	0.858807	-0.000101
 554	5.5023e+01	17.9706	56.303914	0.000395	3.954258	1.339739	-0.000158
 555	5.5123e+01	17.9289	56.202985	0.000253	2.534781	0.858807	-0.000101
 556	5.5222e+01	17.8792	56.126280	0.000193	1.926433	0.652693	-0.000077
 557	5.5322e+01	17.8471	56.009203	0.000294	2.940345	0.996216	-0.000118
 558	5.5422e+01	17.7958	55.916349	0.000233	2.331998	0.790102	-0.000093
 559	5.5521e+01	17.7621	55.811383	0.000264	2.636172	0.893159	-0.000105
 560	5.5620e+01	17.7284	55.710455	0.000253	2.534781	0.858807	-0.000101
 561	5.5720e+01	17.6963	55.581266	0.000324	3.244519	1.099273	-0.000130
 562	5.5819e+01	17.6498	55.439967	0.000355	3.548693	1.202330	-0.000142
 563	5.5919e+01	17.6065	55.335001	0.000264	2.636172	0.893159	-0.000105
 564	5.6019e+01	17.5744	55.242147	0.000233	2.331998	0.790102	-0.000093
 565	5.6118e+01	17.5295	55.173516	0.000172	1.723651	0.583989	-0.000069
 566	5.6218e+01	17.4893	55.052401	0.000304	3.041737	1.030568	-0.000122
 567	5.6317e+01	17.4492	54.947436	0.000264	2.636172	0.893159	-0.000105
 568	5.6416e+01	17.4075	54.886879	0.000152	1.520868	0.515284	-0.000061
 569	5.6516e+01	17.3658	54.777876	0.000274	2.737563	0.927511	-0.000110
 570	5.6615e+01	17.3257	54.628502	0.000375	3.751475	1.271034	-0.000150
 571	5.6715e+01	17.2808	54.559871	0.000172	1.723651	0.583989	-0.000069
 572	5.6815e+01	17.2487	54.458943	0.000253	2.534781	0.858807	-0.000101
 573	5.6914e+01	17.2086	54.305531	0.000385	3.852866	1.305386	-0.000154
 574	5.7014e+01	17.1669	54.236900	0.000172	1.723651	0.583989	-0.000069
 575	5.7113e+01	17.1252	54.095600	0.000355	3.548693	1.202330	-0.000142
 576	5.7212e+01	17.0947	54.022932	0.000183	1.825042	0.618341	-0.000073
 577	5.7312e+01	17.0402	53.926041	0.000243	2.433389	0.824455	-0.000097
 578	5.7411e+01	17.0081	53.804927	0.000304	3.041737	1.030568	-0.000122
 579	5.7511e+01	16.9696	53.667664	0.000345	3.447302	1.167977	-0.000138
 580	5.7611e+01	16.9343	53.554624	0.000284	2.838954	0.961864	-0.000114
 581	5.7710e+01	16.8894	53.393139	0.000406	4.055649	1.374091	-0.000162
 582	5.7809e+01	16.8493	53.340656	0.000132	1.318086	0.446580	-0.000053
 583	5.7909e+01	16.8204	53.243765	0.000243	2.433389	0.824455	-0.000097
 584	5.8008e+01	16.7690	53.150911	0.000233	2.331998	0.790102	-0.000093
 585	5.8108e+01	16.7209	53.037871	0.000284	2.838954	0.961864	-0.000114
 586	5.8208e+01	16.6904	52.985388	0.000132	1.318086	0.446580	-0.000053
 587	5.8307e+01	16.6503	52.795643	0.000477	4.765387	1.614557	-0.000191
 588	5.8407e+01	16.6086	52.674529	0.000304	3.041737	1.030568	-0.000122
 589	5.8506e+01	16.5685	52.630120	0.000112	1.115303	0.377875	-0.000045
 590	5.8605e+01	16.5204	52.529192	0.000253	2.534781	0.858807	-0.000101
 591	5.8705e+01	16.4883	52.400003	0.000324	3.244519	1.099273	-0.000130
 592	5.8804e+01	16.4514	52.291001	0.000274	2.737563	0.927511	-0.000110
 593	5.8904e+01	16.4001	52.157775	0.000335	3.345910	1.133625	-0.000134
 594	5.9004e+01	16.3696	52.085107	0.000183	1.825042	0.618341	-0.000073
 595	5.9103e+01	16.3295	51.992253	0.000233	2.331998	0.790102	-0.000093
 596	5.9203e+01	16.2990	51.846916	0.000365	3.650084	1.236682	-0.000146
 597	5.9302e+01	16.2493	51.733876	0.000284	2.838954	0.961864	-0.000114
 598	5.9401e+01	16.2092	51.592576	0.000355	3.548693	1.202330	-0.000142
 599	5.9501e+01	16.1739	51.475499	0.000294	2.940345	0.996216	-0.000118
 600	5.9600e+01	16.1354	51.378608	0.000243	2.433389	0.824455	-0.000097
 601	5.9700e+01	16.0905	51.309977	0.000172	1.723651	0.583989	-0.000069
 602	5.9800e+01	16.0520	51.200974	0.000274	2.737563	0.927511	-0.000110
 603	5.9899e+01	16.0135	51.071786	0.000324	3.244519	1.099273	-0.000130
 604	5.9998e+01	15.9750	50.954709	0.000294	2.940345	0.996216	-0.000118
 605	6.0098e+01	15.9348	50.853780	0.000253	2.534781	0.858807	-0.000101
 606	6.0197e+01	15.8915	50.777075	0.000193	1.926433	0.652693	-0.000077
 607	6.0297e+01	15.8498	50.659998	0.000294	2.940345	0.996216	-0.000118
 608	6.0397e+01	15.8193	50.510624	0.000375	3.751475	1.271034	-0.000150
 609	6.0496e+01	15.7648	50.454104	0.000142	1.419477	0.480932	-0.000057
 610	6.0596e+01	15.7343	50.337027	0.000294	2.940345	0.996216	-0.000118
 611	6.0695e+01	15.6990	50.191690	0.000365	3.650084	1.236682	-0.000146
 612	6.0794e+01	15.6557	50.086725	0.000264	2.636172	0.893159	-0.000105
 613	6.0894e+01	15.6092	50.001945	0.000213	2.129216	0.721398	-0.000085
 614	6.0993e+01	15.5723	49.872756	0.000324	3.244519	1.099273	-0.000130
 615	6.1093e+01	15.5338	49.735494	0.000345	3.447302	1.167977	-0.000138
 616	6.1193e+01	15.5017	49.557860	0.000446	4.461214	1.511500	-0.000179
 617	6.1292e+01	15.4552	49.456931	0.000253	2.534781	0.858807	-0.000101
 618	6.1392e+01	15.4199	49.335817	0.000304	3.041737	1.030568	-0.000122
 619	6.1491e+01	15.3702	49.259112	0.000193	1.926433	0.652693	-0.000077
 620	6.1590e+01	15.3381	49.170295	0.000223	2.230607	0.755750	-0.000089
 621	6.1690e+01	15.2932	49.057255	0.000284	2.838954	0.961864	-0.000114
 622	6.1789e+01	15.2450	48.944215	0.000284	2.838954	0.961864	-0.000114
 623	6.1889e+01	15.2178	48.819064	0.000314	3.143128	1.064921	-0.000126
 624	6.1989e+01	15.1809	48.718136	0.000253	2.534781	0.858807	-0.000101
 625	6.2088e+01	15.1375	48.576836	0.000355	3.548693	1.202330	-0.000142
 626	6.2188e+01	15.1022	48.496093	0.000203	2.027824	0.687046	-0.000081
 627	6.2287e+01	15.0621	48.366905	0.000324	3.244519	1.099273	-0.000130
 628	6.2386e+01	15.0285	48.290199	0.000193	1.926433	0.652693	-0.000077
 629	6.2486e+01	14.9771	48.181196	0.000274	2.737563	0.927511	-0.000110
 630	6.2586e+01	14.9338	48.047971	0.000335	3.345910	1.133625	-0.000134
 631	6.2685e+01	14.8889	47.910708	0.000345	3.447302	1.167977	-0.000138
 632	6.2785e+01	14.8536	47.789594	0.000304	3.041737	1.030568	-0.000122
 633	6.2884e+01	14.8167	47.692703	0.000243	2.433389	0.824455	-0.000097
 634	6.2983e+01	14.7894	47.559478	0.000335	3.345910	1.133625	-0.000134
 635	6.3083e+01	14.7365	47.434326	0.000314	3.143128	1.064921	-0.000126
 636	6.3182e+01	14.6996	47.301101	0.000335	3.345910	1.133625	-0.000134
 637	6.3282e+01	14.6531	47.216321	0.000213	2.129216	0.721398	-0.000085
 638	6.3382e+01	14.6194	47.139615	0.000193	1.926433	0.652693	-0.000077
 639	6.3481e+01	14.5729	47.050798	0.000223	2.230607	0.755750	-0.000089
 640	6.3581e+01	14.5392	46.909499	0.000355	3.548693	1.202330	-0.000142
 641	6.3680e+01	14.4991	46.808570	0.000253	2.534781	0.858807	-0.000101
 642	6.3779e+01	14.4573	46.703605	0.000264	2.636172	0.893159	-0.000105
 643	6.3879e+01	14.4108	46.590565	0.000284	2.838954	0.961864	-0.000114
 644	6.3978e+01	14.3836	46.497711	0.000233	2.331998	0.790102	-0.000093
 645	6.4078e+01	14.3402	46.364485	0.000335	3.345910	1.133625	-0.000134
 646	6.4177e+01	14.2953	46.255483	0.000274	2.737563	0.927511	-0.000110
 647	6.4277e+01	14.2504	46.114183	0.000355	3.548693	1.202330	-0.000142
 648	6.4376e+01	14.2199	46.021329	0.000233	2.331998	0.790102	-0.000093
 649	6.4476e+01	14.1750	45.896178	0.000314	3.143128	1.064921	-0.000126
 650	6.4576e+01	14.1397	45.791212	0.000264	2.636172	0.893159	-0.000105
 651	6.4675e+01	14.0980	45.641838	0.000375	3.751475	1.271034	-0.000150
 652	6.4775e+01	14.0691	45.524761	0.000294	2.940345	0.996216	-0.000118
 653	6.4874e+01	14.0210	45.419796	0.000264	2.636172	0.893159	-0.000105
 654	6.4974e+01	13.9761	45.306756	0.000284	2.838954	0.961864	-0.000114
 655	6.5073e+01	13.9408	45.169493	0.000345	3.447302	1.167977	-0.000138
 656	6.5172e+01	13.8911	45.076639	0.000233	2.331998	0.790102	-0.000093
 657	6.5272e+01	13.8622	44.963599	0.000284	2.838954	0.961864	-0.000114
 658	6.5371e+01	13.8253	44.826337	0.000345	3.447302	1.167977	-0.000138
 659	6.5471e+01	13.7852	44.733483	0.000233	2.331998	0.790102	-0.000093
 660	6.5570e+01	13.7370	44.628517	0.000264	2.636172	0.893159	-0.000105
 661	6.5670e+01	13.7001	44.507403	0.000304	3.041737	1.030568	-0.000122
 662	6.5769e+01	13.6633	44.362066	0.000365	3.650084	1.236682	-0.000146
 663	6.5869e+01	13.6199	44.313620	0.000122	1.216695	0.412227	-0.000049
 664	6.5969e+01	13.5766	44.176358	0.000345	3.447302	1.167977	-0.000138
 665	6.6068e+01	13.5429	44.035058	0.000355	3.548693	1.202330	-0.000142
 666	6.6168e+01	13.4996	43.897795	0.000345	3.447302	1.167977	-0.000138
 667	6.6267e+01	13.4563	43.808978	0.000223	2.230607	0.755750	-0.000089
 668	6.6367e+01	13.4274	43.671716	0.000345	3.447302	1.167977	-0.000138
 669	6.6466e+01	13.3841	43.562713	0.000274	2.737563	0.927511	-0.000110
 670	6.6566e+01	13.3472	43.498119	0.000162	1.622260	0.549636	-0.000065
 671	6.6665e+01	13.3055	43.320485	0.000446	4.461214	1.511500	-0.000179
 672	6.6764e+01	13.2638	43.179185	0.000355	3.548693	1.202330	-0.000142
 673	6.6864e+01	13.2269	43.086331	0.000233	2.331998	0.790102	-0.000093
 674	6.6963e+01	13.1868	42.961180	0.000314	3.143128	1.064921	-0.000126
 675	6.7063e+01	13.1339	42.872363	0.000223	2.230607	0.755750	-0.000089
 676	6.7162e+01	13.1034	42.747212	0.000314	3.143128	1.064921	-0.000126
 677	6.7262e+01	13.0552	42.605912	0.000355	3.548693	1.202330	-0.000142
 678	6.7362e+01	13.0296	42.504984	0.000253	2.534781	0.858807	-0.000101
 679	6.7461e+01	12.9798	42.367721	0.000345	3.447302	1.167977	-0.000138
 680	6.7561e+01	12.9494	42.242570	0.000314	3.143128	1.064921	-0.000126
 681	6.7660e+01	12.8996	42.153753	0.000223	2.230607	0.755750	-0.000089
 682	6.7760e+01	12.8740	42.036676	0.000294	2.940345	0.996216	-0.000118
 683	6.7859e+01	12.8226	41.915562	0.000304	3.041737	1.030568	-0.000122
 684	6.7959e+01	12.7857	41.806559	0.000274	2.737563	0.927511	-0.000110
 685	6.8058e+01	12.7440	41.677371	0.000324	3.244519	1.099273	-0.000130
 686	6.8157e+01	12.7087	41.592591	0.000213	2.129216	0.721398	-0.000085
 687	6.8257e+01	12.6702	41.459365	0.000335	3.345910	1.133625	-0.000134
 688	6.8356e+01	12.6333	41.322103	0.000345	3.447302	1.167977	-0.000138
 689	6.8456e+01	12.5916	41.168692	0.000385	3.852866	1.305386	-0.000154
 690	6.8555e+01	12.5419	41.063726	0.000264	2.636172	0.893159	-0.000105
 691	6.8655e+01	12.5018	40.926464	0.000345	3.447302	1.167977	-0.000138
 692	6.8754e+01	12.4681	40.825535	0.000253	2.534781	0.858807	-0.000101
 693	6.8854e+01	12.4328	40.704421	0.000304	3.041737	1.030568	-0.000122
 694	6.8954e+01	12.3895	40.587344	0.000294	2.940345	0.996216	-0.000118
 695	6.9053e+01	12.3510	40.454119	0.000335	3.345910	1.133625	-0.000134
 696	6.9153e+01	12.3029	40.316856	0.000345	3.447302	1.167977	-0.000138
 697	6.9252e+01	12.2740	40.215928	0.000253	2.534781	0.858807	-0.000101
 698	6.9352e+01	12.2307	40.123074	0.000233	2.331998	0.790102	-0.000093
 699	6.9451e+01	12.1809	39.989848	0.000335	3.345910	1.133625	-0.000134
 700	6.9550e+01	12.1505	39.860660	0.000324	3.244519	1.099273	-0.000130
 701	6.9650e+01	12.1152	39.739546	0.000304	3.041737	1.030568	-0.000122
 702	6.9749e+01	12.0670	39.638617	0.000253	2.534781	0.858807	-0.000101
 703	6.9849e+01	12.0317	39.541726	0.000243	2.433389	0.824455	-0.000097
 704	6.9948e+01	11.9852	39.440798	0.000253	2.534781	0.858807	-0.000101
 705	7.0048e+01	11.9515	39.295461	0.000365	3.650084	1.236682	-0.000146
 706	7.0147e+01	11.9130	39.190495	0.000264	2.636172	0.893159	-0.000105
 707	7.0247e+01	11.8713	39.020935	0.000426	4.258431	1.442796	-0.000170
 708	7.0347e+01	11.8296	38.924044	0.000243	2.433389	0.824455	-0.000097
 709	7.0446e+01	11.7927	38.790819	0.000335	3.345910	1.133625	-0.000134
 710	7.0546e+01	11.7430	38.673742	0.000294	2.940345	0.996216	-0.000118
 711	7.0645e+01	11.7077	38.572813	0.000253	2.534781	0.858807	-0.000101
 712	7.0745e+01	11.6724	38.419402	0.000385	3.852866	1.305386	-0.000154
 713	7.0844e+01	11.6227	38.310400	0.000274	2.737563	0.927511	-0.000110
 714	7.0944e+01	11.6002	38.185248	0.000314	3.143128	1.064921	-0.000126
 715	7.1043e+01	11.5521	38.056060	0.000324	3.244519	1.099273	-0.000130
 716	7.1142e+01	11.5136	37.926872	0.000324	3.244519	1.099273	-0.000130
 717	7.1242e+01	11.4751	37.813832	0.000284	2.838954	0.961864	-0.000114
 718	7.1341e+01	11.4334	37.729052	0.000213	2.129216	0.721398	-0.000085
 719	7.1441e+01	11.3949	37.555455	0.000436	4.359822	1.477148	-0.000174
 720	7.1540e+01	11.3516	37.434341	0.000304	3.041737	1.030568	-0.000122
 721	7.1640e+01	11.3050	37.361673	0.000183	1.825042	0.618341	-0.000073
 722	7.1740e+01	11.2794	37.228447	0.000335	3.345910	1.133625	-0.000134
 723	7.1839e+01	11.2344	37.066962	0.000406	4.055649	1.374091	-0.000162
 724	7.1939e+01	11.1927	36.953922	0.000284	2.838954	0.961864	-0.000114
 725	7.2038e+01	11.1526	36.808585	0.000365	3.650084	1.236682	-0.000146
 726	7.2138e+01	11.1189	36.675360	0.000335	3.345910	1.133625	-0.000134
 727	7.2237e+01	11.0820	36.538097	0.000345	3.447302	1.167977	-0.000138
 728	7.2337e+01	11.0339	36.392760	0.000365	3.650084	1.236682	-0.000146
 729	7.2436e+01	10.9938	36.303943	0.000223	2.230607	0.755750	-0.000089
 730	7.2535e+01	10.9521	36.203015	0.000253	2.534781	0.858807	-0.000101
 731	7.2635e+01	10.9056	36.081901	0.000304	3.041737	1.030568	-0.000122
 732	7.2734e+01	10.8767	35.916378	0.000416	4.157040	1.408443	-0.000166
 733	7.2834e+01	10.8414	35.807375	0.000274	2.737563	0.927511	-0.000110
 734	7.2933e+01	10.7917	35.670113	0.000345	3.447302	1.167977	-0.000138
 735	7.3033e+01	10.7532	35.553036	0.000294	2.940345	0.996216	-0.000118
 736	7.3132e+01	10.7163	35.399625	0.000385	3.852866	1.305386	-0.000154
 737	7.3232e+01	10.6633	35.306771	0.000233	2.331998	0.790102	-0.000093
 738	7.3332e+01	10.6248	35.201805	0.000264	2.636172	0.893159	-0.000105
 739	7.3431e+01	10.6024	35.092802	0.000274	2.737563	0.927511	-0.000110
 740	7.3531e+01	10.5575	34.991874	0.000253	2.534781	0.858807	-0.000101
 741	7.3630e+01	10.5174	34.858649	0.000335	3.345910	1.133625	-0.000134
 742	7.3730e+01	10.4869	34.672940	0.000466	4.663996	1.580205	-0.000187
 743	7.3829e+01	10.4436	34.580086	0.000233	2.331998	0.790102	-0.000093
 744	7.3928e+01	10.3890	34.438786	0.000355	3.548693	1.202330	-0.000142
 745	7.4028e+01	10.3505	34.305561	0.000335	3.345910	1.133625	-0.000134
 746	7.4127e+01	10.3200	34.212707	0.000233	2.331998	0.790102	-0.000093
 747	7.4227e+01	10.2879	34.067370	0.000365	3.650084	1.236682	-0.000146
 748	7.4326e+01	10.2302	33.934144	0.000335	3.345910	1.133625	-0.000134
 749	7.4426e+01	10.2013	33.792845	0.000355	3.548693	1.202330	-0.000142
 750	7.4525e+01	10.1436	33.671731	0.000304	3.041737	1.030568	-0.000122
 751	7.4625e+01	10.1211	33.582914	0.000223	2.230607	0.755750	-0.000089
 752	7.4725e+01	10.0746	33.473911	0.000274	2.737563	0.927511	-0.000110
 753	7.4824e+01	10.0425	33.276091	0.000497	4.968170	1.683262	-0.000199
 754	7.4924e+01	9.9960	33.171126	0.000264	2.636172	0.893159	-0.000105
 755	7.5023e+01	9.9607	33.078272	0.000233	2.331998	0.790102	-0.000093
 756	7.5123e+01	9.9222	32.924861	0.000385	3.852866	1.305386	-0.000154
 757	7.5222e+01	9.8564	32.844118	0.000203	2.027824	0.687046	-0.000081
 758	7.5322e+01	9.8307	32.718967	0.000314	3.143128	1.064921	-0.000126
 759	7.5421e+01	9.7987	32.614001	0.000264	2.636172	0.893159	-0.000105
 760	7.5520e+01	9.7585	32.440404	0.000436	4.359822	1.477148	-0.000174
 761	7.5620e+01	9.7217	32.315253	0.000314	3.143128	1.064921	-0.000126
 762	7.5719e+01	9.6783	32.177990	0.000345	3.447302	1.167977	-0.000138
 763	7.5819e+01	9.6398	32.060913	0.000294	2.940345	0.996216	-0.000118
 764	7.5918e+01	9.6013	31.931725	0.000324	3.244519	1.099273	-0.000130
 765	7.6018e+01	9.5612	31.814648	0.000294	2.940345	0.996216	-0.000118
 766	7.6118e+01	9.5195	31.689497	0.000314	3.143128	1.064921	-0.000126
 767	7.6217e+01	9.4810	31.523974	0.000416	4.157040	1.408443	-0.000166
 768	7.6317e+01	9.4393	31.447269	0.000193	1.926433	0.652693	-0.000077
 769	7.6416e+01	9.4024	31.346340	0.000253	2.534781	0.858807	-0.000101
 770	7.6516e+01	9.3479	31.176781	0.000426	4.258431	1.442796	-0.000170
 771	7.6615e+01	9.3190	31.075852	0.000253	2.534781	0.858807	-0.000101
 772	7.6715e+01	9.2837	30.906293	0.000426	4.258431	1.442796	-0.000170
 773	7.6814e+01	9.2372	30.841698	0.000162	1.622260	0.549636	-0.000065
 774	7.6913e+01	9.1987	30.655990	0.000466	4.663996	1.580205	-0.000187
 775	7.7013e+01	9.1586	30.542950	0.000284	2.838954	0.961864	-0.000114
 776	7.7112e+01	9.1249	30.389539	0.000385	3.852866	1.305386	-0.000154
 777	7.7212e+01	9.0784	30.272462	0.000294	2.940345	0.996216	-0.000118
 778	7.7311e+01	9.0447	30.199794	0.000183	1.825042	0.618341	-0.000073
 779	7.7411e+01	8.9965	30.042346	0.000395	3.954258	1.339739	-0.000158
 780	7.7510e+01	8.9661	29.892972	0.000375	3.751475	1.271034	-0.000150
 781	7.7610e+01	8.9163	29.771858	0.000304	3.041737	1.030568	-0.000122
 782	7.7710e+01	8.8891	29.666892	0.000264	2.636172	0.893159	-0.000105
 783	7.7809e+01	8.8409	29.501369	0.000416	4.157040	1.408443	-0.000166
 784	7.7909e+01	8.8072	29.392367	0.000274	2.737563	0.927511	-0.000110
 785	7.8008e+01	8.7607	29.303550	0.000223	2.230607	0.755750	-0.000089
 786	7.8108e+01	8.7302	29.146101	0.000395	3.954258	1.339739	-0.000158
 787	7.8207e+01	8.6805	29.024987	0.000304	3.041737	1.030568	-0.000122
 788	7.8306e+01	8.6452	28.851391	0.000436	4.359822	1.477148	-0.000174
 789	7.8406e+01	8.6035	28.766611	0.000213	2.129216	0.721398	-0.000085
 790	7.8505e+01	8.5602	28.641459	0.000314	3.143128	1.064921	-0.000126
 791	7.8605e+01	8.5217	28.508234	0.000335	3.345910	1.133625	-0.000134
 792	7.8704e+01	8.4816	28.330600	0.000446	4.461214	1.511500	-0.000179
 793	7.8804e+01	8.4431	28.253894	0.000193	1.926433	0.652693	-0.000077
 794	7.8903e+01	8.4046	28.132780	0.000304	3.041737	1.030568	-0.000122
 795	7.9003e+01	8.3645	27.983406	0.000375	3.751475	1.271034	-0.000150
 796	7.9103e+01	8.3228	27.870367	0.000284	2.838954	0.961864	-0.000114
 797	7.9202e+01	8.2859	27.741178	0.000324	3.244519	1.099273	-0.000130
 798	7.9302e+01	8.2345	27.603916	0.000345	3.447302	1.167977	-0.000138
 799	7.9401e+01	8.2024	27.502987	0.000253	2.534781	0.858807	-0.000101
 800	7.9501e+01	8.1736	27.373799	0.000324	3.244519	1.099273	-0.000130
 801	7.9600e+01	8.1286	27.224425	0.000375	3.751475	1.271034	-0.000150
 802	7.9700e+01	8.0853	27.066977	0.000395	3.954258	1.339739	-0.000158
 803	7.9799e+01	8.0420	27.002382	0.000162	1.622260	0.549636	-0.000065
 804	7.9898e+01	8.0115	26.869157	0.000335	3.345910	1.133625	-0.000134
 805	7.9998e+01	7.9698	26.719783	0.000375	3.751475	1.271034	-0.000150
 806	8.0097e+01	7.9217	26.626929	0.000233	2.331998	0.790102	-0.000093
 807	8.0197e+01	7.8832	26.517926	0.000274	2.737563	0.927511	-0.000110
 808	8.0296e+01	7.8479	26.332218	0.000466	4.663996	1.580205	-0.000187
 809	8.0396e+01	7.8110	26.243401	0.000223	2.230607	0.755750	-0.000089
 810	8.0496e+01	7.7645	26.085953	0.000395	3.954258	1.339739	-0.000158
 811	8.0595e+01	7.7324	25.976950	0.000274	2.737563	0.927511	-0.000110
 812	8.0695e+01	7.6939	25.859873	0.000294	2.940345	0.996216	-0.000118
 813	8.0794e+01	7.6410	25.702425	0.000395	3.954258	1.339739	-0.000158
 814	8.0894e+01	7.6025	25.565162	0.000345	3.447302	1.167977	-0.000138
 815	8.0993e+01	7.5656	25.488456	0.000193	1.926433	0.652693	-0.000077
 816	8.1093e+01	7.5255	25.331008	0.000395	3.954258	1.339739	-0.000158
 817	8.1192e+01	7.4805	25.222006	0.000274	2.737563	0.927511	-0.000110
 818	8.1291e+01	7.4549	25.113003	0.000274	2.737563	0.927511	-0.000110
 819	8.1391e+01	7.3971	24.963629	0.000375	3.751475	1.271034	-0.000150
 820	8.1490e+01	7.3666	24.862700	0.000253	2.534781	0.858807	-0.000101
 821	8.1590e+01	7.3201	24.721401	0.000355	3.548693	1.202330	-0.000142
 822	8.1689e+01	7.2848	24.572027	0.000375	3.751475	1.271034	-0.000150
 823	8.1789e+01	7.2511	24.471098	0.000253	2.534781	0.858807	-0.000101
 824	8.1888e+01	7.1998	24.317687	0.000385	3.852866	1.305386	-0.000154
 825	8.1988e+01	7.1613	24.176387	0.000355	3.548693	1.202330	-0.000142
 826	8.2088e+01	7.1292	24.059310	0.000294	2.940345	0.996216	-0.000118
 827	8.2187e+01	7.0827	23.946271	0.000284	2.838954	0.961864	-0.000114
 828	8.2287e+01	7.0362	23.772674	0.000436	4.359822	1.477148	-0.000174
 829	8.2386e+01	7.0009	23.712117	0.000152	1.520868	0.515284	-0.000061
 830	8.2486e+01	6.9720	23.542557	0.000426	4.258431	1.442796	-0.000170
 831	8.2585e+01	6.9271	23.433554	0.000274	2.737563	0.927511	-0.000110
 832	8.2684e+01	6.8854	23.288218	0.000365	3.650084	1.236682	-0.000146
 833	8.2784e+01	6.8533	23.175178	0.000284	2.838954	0.961864	-0.000114
 834	8.2883e+01	6.8084	23.045989	0.000324	3.244519	1.099273	-0.000130
 835	8.2983e+01	6.7731	22.904690	0.000355	3.548693	1.202330	-0.000142
 836	8.3082e+01	6.7314	22.803761	0.000253	2.534781	0.858807	-0.000101
 837	8.3182e+01	6.6897	22.654387	0.000375	3.751475	1.271034	-0.000150
 838	8.3281e+01	6.6544	22.509050	0.000365	3.650084	1.236682	-0.000146
 839	8.3381e+01	6.6014	22.396011	0.000284	2.838954	0.961864	-0.000114
 840	8.3481e+01	6.5677	22.282971	0.000284	2.838954	0.961864	-0.000114
 841	8.3580e+01	6.5244	22.093225	0.000477	4.765387	1.614557	-0.000191
 842	8.3680e+01	6.4875	22.036705	0.000142	1.419477	0.480932	-0.000057
 843	8.3779e+01	6.4538	21.895406	0.000355	3.548693	1.202330	-0.000142
 844	8.3879e+01	6.4201	21.741995	0.000385	3.852866	1.305386	-0.000154
 845	8.3978e+01	6.3768	21.645103	0.000243	2.433389	0.824455	-0.000097
 846	8.4078e+01	6.3287	21.511878	0.000335	3.345910	1.133625	-0.000134
 847	8.4177e+01	6.2806	21.378652	0.000335	3.345910	1.133625	-0.000134
 848	8.4276e+01	6.2533	21.217167	0.000406	4.055649	1.374091	-0.000162
 849	8.4376e+01	6.2212	21.063756	0.000385	3.852866	1.305386	-0.000154
 850	8.4475e+01	6.1779	20.890159	0.000436	4.359822	1.477148	-0.000174
 851	8.4575e+01	6.1346	20.805379	0.000213	2.129216	0.721398	-0.000085
 852	8.4674e+01	6.1025	20.716562	0.000223	2.230607	0.755750	-0.000089
 853	8.4774e+01	6.0624	20.571225	0.000365	3.650084	1.236682	-0.000146
 854	8.4874e+01	6.0143	20.442037	0.000324	3.244519	1.099273	-0.000130
 855	8.4973e+01	5.9742	20.328997	0.000284	2.838954	0.961864	-0.000114
 856	8.5073e+01	5.9341	20.171549	0.000395	3.954258	1.339739	-0.000158
 857	8.5172e+01	5.8907	20.062546	0.000274	2.737563	0.927511	-0.000110
 858	8.5272e+01	5.8522	19.937395	0.000314	3.143128	1.064921	-0.000126
 859	8.5371e+01	5.8089	19.820318	0.000294	2.940345	0.996216	-0.000118
 860	8.5471e+01	5.7784	19.699204	0.000304	3.041737	1.030568	-0.000122
 861	8.5570e+01	5.7303	19.565978	0.000335	3.345910	1.133625	-0.000134
 862	8.5669e+01	5.6886	19.452939	0.000284	2.838954	0.961864	-0.000114
 863	8.5769e+01	5.6613	19.267230	0.000466	4.663996	1.580205	-0.000187
 864	8.5868e+01	5.6180	19.178413	0.000223	2.230607	0.755750	-0.000089
 865	8.5968e+01	5.5763	19.077485	0.000253	2.534781	0.858807	-0.000101
 866	8.6067e+01	5.5394	18.871591	0.000517	5.170952	1.751966	-0.000207
 867	8.6167e+01	5.5041	18.758551	0.000284	2.838954	0.961864	-0.000114
 868	8.6266e+01	5.4640	18.621289	0.000345	3.447302	1.167977	-0.000138
 869	8.6366e+01	5.4191	18.520360	0.000253	2.534781	0.858807	-0.000101
 870	8.6466e+01	5.3758	18.370986	0.000375	3.751475	1.271034	-0.000150
 871	8.6565e+01	5.3341	18.270058	0.000253	2.534781	0.858807	-0.000101
 872	8.6665e+01	5.2924	18.144907	0.000314	3.143128	1.064921	-0.000126
 873	8.6764e+01	5.2619	17.999570	0.000365	3.650084	1.236682	-0.000146
 874	8.6864e+01	5.2234	17.878456	0.000304	3.041737	1.030568	-0.000122
 875	8.6963e+01	5.1801	17.749267	0.000324	3.244519	1.099273	-0.000130
 876	8.7063e+01	5.1351	17.644302	0.000264	2.636172	0.893159	-0.000105
 877	8.7162e+01	5.0950	17.498965	0.000365	3.650084	1.236682	-0.000146
 878	8.7261e+01	5.0662	17.353628	0.000365	3.650084	1.236682	-0.000146
 879	8.7361e+01	5.0164	17.216365	0.000345	3.447302	1.167977	-0.000138
 880	8.7460e+01	4.9715	17.091214	0.000314	3.143128	1.064921	-0.000126
 881	8.7560e+01	4.9266	16.970100	0.000304	3.041737	1.030568	-0.000122
 882	8.7659e+01	4.9041	16.828800	0.000355	3.548693	1.202330	-0.000142
 883	8.7759e+01	4.8624	16.711723	0.000294	2.940345	0.996216	-0.000118
 884	8.7859e+01	4.8223	16.562349	0.000375	3.751475	1.271034	-0.000150
 885	8.7958e+01	4.7870	16.441235	0.000304	3.041737	1.030568	-0.000122
 886	8.8058e+01	4.7469	16.267638	0.000436	4.359822	1.477148	-0.000174
 887	8.8157e+01	4.7004	16.158636	0.000274	2.737563	0.927511	-0.000110
 888	8.8257e+01	4.6619	16.029447	0.000324	3.244519	1.099273	-0.000130
 889	8.8356e+01	4.6154	15.876036	0.000385	3.852866	1.305386	-0.000154
 890	8.8456e+01	4.5865	15.754922	0.000304	3.041737	1.030568	-0.000122
 891	8.8555e+01	4.5464	15.609585	0.000365	3.650084	1.236682	-0.000146
 892	8.8654e+01	4.4935	15.488471	0.000304	3.041737	1.030568	-0.000122
 893	8.8754e+01	4.4694	15.359283	0.000324	3.244519	1.099273	-0.000130
 894	8.8853e+01	4.4213	15.238169	0.000304	3.041737	1.030568	-0.000122
 895	8.8953e+01	4.3956	15.084758	0.000385	3.852866	1.305386	-0.000154
 896	8.9052e+01	4.3411	14.947495	0.000345	3.447302	1.167977	-0.000138
 897	8.9152e+01	4.2993	14.838492	0.000274	2.737563	0.927511	-0.000110
 898	8.9251e+01	4.2641	14.729490	0.000274	2.737563	0.927511	-0.000110
 899	8.9351e+01	4.2207	14.535707	0.000487	4.866779	1.648909	-0.000195
 900	8.9451e+01	4.1790	14.459002	0.000193	1.926433	0.652693	-0.000077
 901	8.9550e+01	4.1373	14.301553	0.000395	3.954258	1.339739	-0.000158
 902	8.9650e+01	4.1068	14.184476	0.000294	2.940345	0.996216	-0.000118
 903	8.9749e+01	4.0571	14.014917	0.000426	4.258431	1.442796	-0.000170
 904	8.9849e+01	4.0266	13.877654	0.000345	3.447302	1.167977	-0.000138
 905	8.9948e+01	3.9849	13.764614	0.000284	2.838954	0.961864	-0.000114
 906	9.0047e+01	3.9432	13.615240	0.000375	3.751475	1.271034	-0.000150
 907	9.0147e+01	3.9031	13.514312	0.000253	2.534781	0.858807	-0.000101
 908	9.0246e+01	3.8566	13.368975	0.000365	3.650084	1.236682	-0.000146
 909	9.0346e+01	3.8149	13.255935	0.000284	2.838954	0.961864	-0.000114
 910	9.0445e+01	3.7748	13.130784	0.000314	3.143128	1.064921	-0.000126
 911	9.0545e+01	3.7395	12.965261	0.000416	4.157040	1.408443	-0.000166
 912	9.0644e+01	3.6962	12.848184	0.000294	2.940345	0.996216	-0.000118
 913	9.0744e+01	3.6593	12.718996	0.000324	3.244519	1.099273	-0.000130
 914	9.0844e+01	3.6304	12.565585	0.000385	3.852866	1.305386	-0.000154
 915	9.0943e+01	3.5871	12.505028	0.000152	1.520868	0.515284	-0.000061
 916	9.1043e+01	3.5341	12.319320	0.000466	4.663996	1.580205	-0.000187
 917	9.1142e+01	3.4956	12.206280	0.000284	2.838954	0.961864	-0.000114
 918	9.1242e+01	3.4651	12.036720	0.000426	4.258431	1.442796	-0.000170
 919	9.1341e+01	3.4218	11.903495	0.000335	3.345910	1.133625	-0.000134
 920	9.1441e+01	3.3849	11.762195	0.000355	3.548693	1.202330	-0.000142
 921	9.1540e+01	3.3512	11.600710	0.000406	4.055649	1.374091	-0.000162
 922	9.1639e+01	3.3079	11.495744	0.000264	2.636172	0.893159	-0.000105
 923	9.1739e+01	3.2694	11.386741	0.000274	2.737563	0.927511	-0.000110
 924	9.1838e+01	3.2293	11.265627	0.000304	3.041737	1.030568	-0.000122
 925	9.1938e+01	3.1876	11.116253	0.000375	3.751475	1.271034	-0.000150
 926	9.2037e+01	3.1411	10.991102	0.000314	3.143128	1.064921	-0.000126
 927	9.2137e+01	3.1042	10.829617	0.000406	4.055649	1.374091	-0.000162
 928	9.2237e+01	3.0721	10.724651	0.000264	2.636172	0.893159	-0.000105
 929	9.2336e+01	3.0320	10.567203	0.000395	3.954258	1.339739	-0.000158
 930	9.2436e+01	2.9839	10.470312	0.000243	2.433389	0.824455	-0.000097
 931	9.2535e+01	2.9550	10.337086	0.000335	3.345910	1.133625	-0.000134
 932	9.2635e+01	2.9021	10.183675	0.000385	3.852866	1.305386	-0.000154
 933	9.2734e+01	2.8603	10.086784	0.000243	2.433389	0.824455	-0.000097
 934	9.2834e+01	2.8331	9.937410	0.000375	3.751475	1.271034	-0.000150
 935	9.2933e+01	2.7898	9.783998	0.000385	3.852866	1.305386	-0.000154
 936	9.3032e+01	2.7497	9.679033	0.000264	2.636172	0.893159	-0.000105
 937	9.3132e+01	2.7079	9.541770	0.000345	3.447302	1.167977	-0.000138
 938	9.3231e+01	2.6694	9.400471	0.000355	3.548693	1.202330	-0.000142
 939	9.3331e+01	2.6358	9.259171	0.000355	3.548693	1.202330	-0.000142
 940	9.3430e+01	2.5828	9.109797	0.000375	3.751475	1.271034	-0.000150
 941	9.3530e+01	2.5443	8.980608	0.000324	3.244519	1.099273	-0.000130
 942	9.3629e+01	2.5138	8.903903	0.000193	1.926433	0.652693	-0.000077
 943	9.3729e+01	2.4625	8.742417	0.000406	4.055649	1.374091	-0.000162
 944	9.3829e+01	2.4208	8.597081	0.000365	3.650084	1.236682	-0.000146
 945	9.3928e+01	2.3887	8.431558	0.000416	4.157040	1.408443	-0.000166
 946	9.4028e+01	2.3486	8.302370	0.000324	3.244519	1.099273	-0.000130
 947	9.4127e+01	2.3133	8.205478	0.000243	2.433389	0.824455	-0.000097
 948	9.4227e+01	2.2700	8.076290	0.000324	3.244519	1.099273	-0.000130
 949	9.4326e+01	2.2251	7.939027	0.000345	3.447302	1.167977	-0.000138
 950	9.4425e+01	2.1802	7.785616	0.000385	3.852866	1.305386	-0.000154
 951	9.4525e+01	2.1417	7.636242	0.000375	3.751475	1.271034	-0.000150
 952	9.4624e+01	2.1128	7.519165	0.000294	2.940345	0.996216	-0.000118
 953	9.4724e+01	2.0743	7.394014	0.000314	3.143128	1.064921	-0.000126
 954	9.4823e+01	2.0245	7.236566	0.000395	3.954258	1.339739	-0.000158
 955	9.4923e+01	1.9844	7.119489	0.000294	2.940345	0.996216	-0.000118
 956	9.5022e+01	1.9379	6.958003	0.000406	4.055649	1.374091	-0.000162
 957	9.5122e+01	1.9122	6.836889	0.000304	3.041737	1.030568	-0.000122
 958	9.5222e+01	1.8770	6.699627	0.000345	3.447302	1.167977	-0.000138
 959	9.5321e+01	1.8288	6.578513	0.000304	3.041737	1.030568	-0.000122
 960	9.5421e+01	1.7903	6.449324	0.000324	3.244519	1.099273	-0.000130
 961	9.5520e+01	1.7470	6.312062	0.000345	3.447302	1.167977	-0.000138
 962	9.5620e+01	1.7069	6.182873	0.000324	3.244519	1.099273	-0.000130
 963	9.5719e+01	1.6780	6.069834	0.000284	2.838954	0.961864	-0.000114
 964	9.5819e+01	1.6331	5.916422	0.000385	3.852866	1.305386	-0.000154
 965	9.5918e+01	1.5882	5.807420	0.000274	2.737563	0.927511	-0.000110
 966	9.6017e+01	1.5513	5.666120	0.000355	3.548693	1.202330	-0.000142
 967	9.6117e+01	1.5128	5.520783	0.000365	3.650084	1.236682	-0.000146
 968	9.6216e+01	1.4695	5.391595	0.000324	3.244519	1.099273	-0.000130
 969	9.6316e+01	1.4278	5.238184	0.000385	3.852866	1.305386	-0.000154
 970	9.6415e+01	1.3861	5.153404	0.000213	2.129216	0.721398	-0.000085
 971	9.6515e+01	1.3540	4.995955	0.000395	3.954258	1.339739	-0.000158
 972	9.6615e+01	1.3139	4.834470	0.000406	4.055649	1.374091	-0.000162
 973	9.6714e+01	1.2673	4.733542	0.000253	2.534781	0.858807	-0.000101
 974	9.6814e+01	1.2224	4.580130	0.000385	3.852866	1.305386	-0.000154
 975	9.6913e+01	1.2000	4.450942	0.000324	3.244519	1.099273	-0.000130
 976	9.7013e+01	1.1550	4.350014	0.000253	2.534781	0.858807	-0.000101
 977	9.7112e+01	1.1117	4.220825	0.000324	3.244519	1.099273	-0.000130
 978	9.7212e+01	1.0700	4.071451	0.000375	3.751475	1.271034	-0.000150
 979	9.7311e+01	1.0299	3.934189	0.000345	3.447302	1.167977	-0.000138
 980	9.7410e+01	1.0010	3.788852	0.000365	3.650084	1.236682	-0.000146
 981	9.7510e+01	0.9481	3.667738	0.000304	3.041737	1.030568	-0.000122
 982	9.7609e+01	0.9064	3.570847	0.000243	2.433389	0.824455	-0.000097
 983	9.7709e+01	0.8791	3.461844	0.000274	2.737563	0.927511	-0.000110
 984	9.7808e+01	0.8358	3.304396	0.000395	3.954258	1.339739	-0.000158
 985	9.7908e+01	0.7893	3.155022	0.000375	3.751475	1.271034	-0.000150
 986	9.8007e+01	0.7524	3.009685	0.000365	3.650084	1.236682	-0.000146
 987	9.8107e+01	0.7091	2.896645	0.000284	2.838954	0.961864	-0.000114
 988	9.8207e+01	0.6770	2.759382	0.000345	3.447302	1.167977	-0.000138
 989	9.8306e+01	0.6305	2.638268	0.000304	3.041737	1.030568	-0.000122
 990	9.8406e+01	0.5839	2.505043	0.000335	3.345910	1.133625	-0.000134
 991	9.8505e+01	0.5454	2.387966	0.000294	2.940345	0.996216	-0.000118
 992	9.8605e+01	0.5150	2.242629	0.000365	3.650084	1.236682	-0.000146
 993	9.8704e+01	0.4732	2.032698	0.000527	5.272343	1.786318	-0.000211
 994	9.8803e+01	0.4412	1.915621	0.000294	2.940345	0.996216	-0.000118
 995	9.8903e+01	0.3962	1.814693	0.000253	2.534781	0.858807	-0.000101
 996	9.9002e+01	0.3529	1.729913	0.000213	2.129216	0.721398	-0.000085
 997	9.9102e+01	0.3321	1.568427	0.000406	4.055649	1.374091	-0.000162
 998	9.9201e+01	0.2775	1.427127	0.000355	3.548693	1.202330	-0.000142
 999	9.9301e+01	0.2294	1.297939	0.000324	3.244519	1.099273	-0.000130
1000	9.9400e+01	0.1909	1.164714	0.000335	3.345910	1.133625	-0.000134
1001	9.9500e+01	0.1620	0.999191	0.000416	4.157040	1.408443	-0.000166
1002	9.9600e+01	0.1155	0.874040	0.000314	3.143128	1.064921	-0.000126
1003	9.9699e+01	0.0754	0.797334	0.000193	1.926433	0.652693	-0.000077
1004	9.9799e+01	0.0337	0.656035	0.000355	3.548693	1.202330	-0.000142
1005	9.9898e+01	0.0032	0.502623	0.000385	3.852866	1.305386	-0.000154
1006	9.9998e+01	-0.0369	0.421881	0.000203	2.027824	0.687046	-0.000081
1007	1.0010e+02	-0.0770	0.288655	0.000335	3.345910	1.133625	-0.000134
1008	1.0020e+02	-0.1203	0.131207	0.000395	3.954258	1.339739	-0.000158
1009	1.0030e+02	-0.1476	-0.002019	0.000335	3.345910	1.133625	-0.000134
1010	1.0040e+02	-0.1925	-0.183690	0.000456	4.562605	1.545852	-0.000183
1011	1.0050e+02	-0.2278	-0.333064	0.000375	3.751475	1.271034	-0.000150
1012	1.0059e+02	-0.2775	-0.421881	0.000223	2.230607	0.755750	-0.000089
1013	1.0069e+02	-0.3096	-0.551069	0.000324	3.244519	1.099273	-0.000130
1014	1.0079e+02	-0.3497	-0.672183	0.000304	3.041737	1.030568	-0.000122
1015	1.0089e+02	-0.3898	-0.821557	0.000375	3.751475	1.271034	-0.000150
1016	1.0099e+02	-0.4315	-0.946708	0.000314	3.143128	1.064921	-0.000126
1017	1.0109e+02	-0.4700	-1.055711	0.000274	2.737563	0.927511	-0.000110
1018	1.0119e+02	-0.5134	-1.201048	0.000365	3.650084	1.236682	-0.000146
1019	1.0129e+02	-0.5551	-1.338310	0.000345	3.447302	1.167977	-0.000138
1020	1.0139e+02	-0.5888	-1.467499	0.000324	3.244519	1.099273	-0.000130
1021	1.0149e+02	-0.6273	-1.612836	0.000365	3.650084	1.236682	-0.000146
1022	1.0159e+02	-0.6754	-1.778358	0.000416	4.157040	1.408443	-0.000166
1023	1.0169e+02	-0.7091	-1.855064	0.000193	1.926433	0.652693	-0.000077
1024	1.0179e+02	-0.7508	-1.992326	0.000345	3.447302	1.167977	-0.000138
1025	1.0189e+02	-0.7925	-2.141701	0.000375	3.751475	1.271034	-0.000150
1026	1.0199e+02	-0.8342	-2.270889	0.000324	3.244519	1.099273	-0.000130
1027	1.0209e+02	-0.8743	-2.379892	0.000274	2.737563	0.927511	-0.000110
1028	1.0219e+02	-0.9112	-2.585785	0.000517	5.170952	1.751966	-0.000207
1029	1.0229e+02	-0.9545	-2.706900	0.000304	3.041737	1.030568	-0.000122
1030	1.0239e+02	-0.9866	-2.840125	0.000335	3.345910	1.133625	-0.000134
1031	1.0248e+02	-1.0299	-2.949128	0.000274	2.737563	0.927511	-0.000110
1032	1.0258e+02	-1.0668	-3.062167	0.000284	2.838954	0.961864	-0.000114
1033	1.0268e+02	-1.1182	-3.199430	0.000345	3.447302	1.167977	-0.000138
1034	1.0278e+02	-1.1502	-3.328618	0.000324	3.244519	1.099273	-0.000130
1035	1.0288e+02	-1.1855	-3.469918	0.000355	3.548693	1.202330	-0.000142
1036	1.0298e+02	-1.2272	-3.639478	0.000426	4.258431	1.442796	-0.000170
1037	1.0308e+02	-1.2738	-3.732332	0.000233	2.331998	0.790102	-0.000093
1038	1.0318e+02	-1.3139	-3.853446	0.000304	3.041737	1.030568	-0.000122
1039	1.0328e+02	-1.3524	-3.986672	0.000335	3.345910	1.133625	-0.000134
1040	1.0338e+02	-1.3909	-4.132008	0.000365	3.650084	1.236682	-0.000146
1041	1.0348e+02	-1.4342	-4.277345	0.000365	3.650084	1.236682	-0.000146
1042	1.0358e+02	-1.4711	-4.422682	0.000365	3.650084	1.236682	-0.000146
1043	1.0368e+02	-1.5144	-4.547833	0.000314	3.143128	1.064921	-0.000126
1044	1.0378e+02	-1.5593	-4.656836	0.000274	2.737563	0.927511	-0.000110
1045	1.0388e+02	-1.5866	-4.802173	0.000365	3.650084	1.236682	-0.000146
1046	1.0398e+02	-1.6267	-4.939436	0.000345	3.447302	1.167977	-0.000138
1047	1.0408e+02	-1.6812	-5.108995	0.000426	4.258431	1.442796	-0.000170
1048	1.0418e+02	-1.7021	-5.201849	0.000233	2.331998	0.790102	-0.000093
1049	1.0428e+02	-1.7470	-5.286629	0.000213	2.129216	0.721398	-0.000085
1050	1.0438e+02	-1.7855	-5.456189	0.000426	4.258431	1.442796	-0.000170
1051	1.0447e+02	-1.8256	-5.569229	0.000284	2.838954	0.961864	-0.000114
1052	1.0457e+02	-1.8753	-5.710529	0.000355	3.548693	1.202330	-0.000142
1053	1.0467e+02	-1.9074	-5.884125	0.000436	4.359822	1.477148	-0.000174
1054	1.0477e+02	-1.9588	-6.021388	0.000345	3.447302	1.167977	-0.000138
1055	1.0487e+02	-1.9860	-6.146539	0.000314	3.143128	1.064921	-0.000126
1056	1.0497e+02	-2.0310	-6.267653	0.000304	3.041737	1.030568	-0.000122
1057	1.0507e+02	-2.0743	-6.429139	0.000406	4.055649	1.374091	-0.000162
1058	1.0517e+02	-2.1128	-6.530067	0.000253	2.534781	0.858807	-0.000101
1059	1.0527e+02	-2.1545	-6.651181	0.000304	3.041737	1.030568	-0.000122
1060	1.0537e+02	-2.1866	-6.828815	0.000446	4.461214	1.511500	-0.000179
1061	1.0547e+02	-2.2347	-6.966078	0.000345	3.447302	1.167977	-0.000138
1062	1.0557e+02	-2.2604	-7.087192	0.000304	3.041737	1.030568	-0.000122
1063	1.0567e+02	-2.2973	-7.224454	0.000345	3.447302	1.167977	-0.000138
1064	1.0577e+02	-2.3358	-7.345568	0.000304	3.041737	1.030568	-0.000122
1065	1.0587e+02	-2.3839	-7.527240	0.000456	4.562605	1.545852	-0.000183
1066	1.0597e+02	-2.4208	-7.603945	0.000193	1.926433	0.652693	-0.000077
1067	1.0607e+02	-2.4721	-7.765431	0.000406	4.055649	1.374091	-0.000162
1068	1.0617e+02	-2.5042	-7.870396	0.000264	2.636172	0.893159	-0.000105
1069	1.0627e+02	-2.5411	-7.999584	0.000324	3.244519	1.099273	-0.000130
1070	1.0637e+02	-2.5844	-8.148958	0.000375	3.751475	1.271034	-0.000150
1071	1.0647e+02	-2.6261	-8.261998	0.000284	2.838954	0.961864	-0.000114
1072	1.0656e+02	-2.6598	-8.403298	0.000355	3.548693	1.202330	-0.000142
1073	1.0666e+02	-2.7047	-8.601118	0.000497	4.968170	1.683262	-0.000199
1074	1.0676e+02	-2.7464	-8.693972	0.000233	2.331998	0.790102	-0.000093
1075	1.0686e+02	-2.7882	-8.794900	0.000253	2.534781	0.858807	-0.000101
1076	1.0696e+02	-2.8315	-8.936200	0.000355	3.548693	1.202330	-0.000142
1077	1.0706e+02	-2.8684	-9.053277	0.000294	2.940345	0.996216	-0.000118
1078	1.0716e+02	-2.9117	-9.226874	0.000436	4.359822	1.477148	-0.000174
1079	1.0726e+02	-2.9534	-9.343951	0.000294	2.940345	0.996216	-0.000118
1080	1.0736e+02	-2.9951	-9.461028	0.000294	2.940345	0.996216	-0.000118
1081	1.0746e+02	-3.0224	-9.565993	0.000264	2.636172	0.893159	-0.000105
1082	1.0756e+02	-3.0593	-9.731516	0.000416	4.157040	1.408443	-0.000166
1083	1.0766e+02	-3.0994	-9.848593	0.000294	2.940345	0.996216	-0.000118
1084	1.0776e+02	-3.1571	-10.010078	0.000406	4.055649	1.374091	-0.000162
1085	1.0786e+02	-3.1844	-10.131192	0.000304	3.041737	1.030568	-0.000122
1086	1.0796e+02	-3.2229	-10.248269	0.000294	2.940345	0.996216	-0.000118
1087	1.0806e+02	-3.2566	-10.433977	0.000466	4.663996	1.580205	-0.000187
1088	1.0816e+02	-3.3095	-10.555091	0.000304	3.041737	1.030568	-0.000122
1089	1.0826e+02	-3.3464	-10.684280	0.000324	3.244519	1.099273	-0.000130
1090	1.0836e+02	-3.3769	-10.789245	0.000264	2.636172	0.893159	-0.000105
1091	1.0845e+02	-3.4170	-10.946694	0.000395	3.954258	1.339739	-0.000158
1092	1.0855e+02	-3.4619	-11.087993	0.000355	3.548693	1.202330	-0.000142
1093	1.0865e+02	-3.4956	-11.184885	0.000243	2.433389	0.824455	-0.000097
1094	1.0875e+02	-3.5389	-11.338296	0.000385	3.852866	1.305386	-0.000154
1095	1.0885e+02	-3.5887	-11.451336	0.000284	2.838954	0.961864	-0.000114
1096	1.0895e+02	-3.6256	-11.616858	0.000416	4.157040	1.408443	-0.000166
1097	1.0905e+02	-3.6593	-11.733935	0.000294	2.940345	0.996216	-0.000118
1098	1.0915e+02	-3.7058	-11.842938	0.000274	2.737563	0.927511	-0.000110
1099	1.0925e+02	-3.7443	-11.923680	0.000203	2.027824	0.687046	-0.000081
1100	1.0935e+02	-3.7812	-12.073054	0.000375	3.751475	1.271034	-0.000150
1101	1.0945e+02	-3.8213	-12.218391	0.000365	3.650084	1.236682	-0.000146
1102	1.0955e+02	-3.8518	-12.371802	0.000385	3.852866	1.305386	-0.000154
1103	1.0965e+02	-3.8935	-12.505028	0.000335	3.345910	1.133625	-0.000134
1104	1.0975e+02	-3.9416	-12.670551	0.000416	4.157040	1.408443	-0.000166
1105	1.0985e+02	-3.9785	-12.747256	0.000193	1.926433	0.652693	-0.000077
1106	1.0995e+02	-4.0202	-12.920853	0.000436	4.359822	1.477148	-0.000174
1107	1.1005e+02	-4.0571	-13.041967	0.000304	3.041737	1.030568	-0.000122
1108	1.1015e+02	-4.1036	-13.163081	0.000304	3.041737	1.030568	-0.000122
1109	1.1025e+02	-4.1373	-13.328604	0.000416	4.157040	1.408443	-0.000166
1110	1.1035e+02	-4.1822	-13.461829	0.000335	3.345910	1.133625	-0.000134
1111	1.1044e+02	-4.2304	-13.514312	0.000132	1.318086	0.446580	-0.000053
1112	1.1054e+02	-4.2657	-13.671760	0.000395	3.954258	1.339739	-0.000158
1113	1.1064e+02	-4.2977	-13.833246	0.000406	4.055649	1.374091	-0.000162
1114	1.1074e+02	-4.3443	-13.954360	0.000304	3.041737	1.030568	-0.000122
1115	1.1084e+02	-4.3780	-14.087585	0.000335	3.345910	1.133625	-0.000134
1116	1.1094e+02	-4.4293	-14.212736	0.000314	3.143128	1.064921	-0.000126
1117	1.1104e+02	-4.4566	-14.317702	0.000264	2.636172	0.893159	-0.000105
1118	1.1114e+02	-4.4935	-14.459002	0.000355	3.548693	1.202330	-0.000142
1119	1.1124e+02	-4.5336	-14.572041	0.000284	2.838954	0.961864	-0.000114
1120	1.1134e+02	-4.5705	-14.741601	0.000426	4.258431	1.442796	-0.000170
1121	1.1144e+02	-4.6090	-14.899049	0.000395	3.954258	1.339739	-0.000158
1122	1.1154e+02	-4.6539	-15.012089	0.000284	2.838954	0.961864	-0.000114
1123	1.1164e+02	-4.6908	-15.141278	0.000324	3.244519	1.099273	-0.000130
1124	1.1174e+02	-4.7325	-15.258355	0.000294	2.940345	0.996216	-0.000118
1125	1.1184e+02	-4.7710	-15.403691	0.000365	3.650084	1.236682	-0.000146
1126	1.1194e+02	-4.8079	-15.581325	0.000446	4.461214	1.511500	-0.000179
1127	1.1204e+02	-4.8560	-15.678217	0.000243	2.433389	0.824455	-0.000097
1128	1.1214e+02	-4.8993	-15.831628	0.000385	3.852866	1.305386	-0.000154
1129	1.1224e+02	-4.9378	-15.936593	0.000264	2.636172	0.893159	-0.000105
1130	1.1234e+02	-4.9747	-16.061745	0.000314	3.143128	1.064921	-0.000126
1131	1.1244e+02	-5.0148	-16.186896	0.000314	3.143128	1.064921	-0.000126
1132	1.1253e+02	-5.0517	-16.388753	0.000507	5.069561	1.717614	-0.000203
1133	1.1263e+02	-5.1015	-16.433161	0.000112	1.115303	0.377875	-0.000045
1134	1.1273e+02	-5.1400	-16.546201	0.000284	2.838954	0.961864	-0.000114
1135	1.1283e+02	-5.1801	-16.630981	0.000213	2.129216	0.721398	-0.000085
1136	1.1293e+02	-5.2138	-16.804578	0.000436	4.359822	1.477148	-0.000174
1137	1.1303e+02	-5.2555	-16.949914	0.000365	3.650084	1.236682	-0.000146
1138	1.1313e+02	-5.2924	-17.103326	0.000385	3.852866	1.305386	-0.000154
1139	1.1323e+02	-5.3341	-17.232514	0.000324	3.244519	1.099273	-0.000130
1140	1.1333e+02	-5.3774	-17.361702	0.000324	3.244519	1.099273	-0.000130
1141	1.1343e+02	-5.4255	-17.474742	0.000284	2.838954	0.961864	-0.000114
1142	1.1353e+02	-5.4624	-17.575670	0.000253	2.534781	0.858807	-0.000101
1143	1.1363e+02	-5.4945	-17.733119	0.000395	3.954258	1.339739	-0.000158
1144	1.1373e+02	-5.5378	-17.834047	0.000253	2.534781	0.858807	-0.000101
1145	1.1383e+02	-5.5715	-17.959198	0.000314	3.143128	1.064921	-0.000126
1146	1.1393e+02	-5.6164	-18.120684	0.000406	4.055649	1.374091	-0.000162
1147	1.1403e+02	-5.6485	-18.278132	0.000395	3.954258	1.339739	-0.000158
1148	1.1413e+02	-5.6902	-18.375023	0.000243	2.433389	0.824455	-0.000097
1149	1.1423e+02	-5.7399	-18.488063	0.000284	2.838954	0.961864	-0.000114
1150	1.1433e+02	-5.7720	-18.605140	0.000294	2.940345	0.996216	-0.000118
1151	1.1442e+02	-5.8186	-18.726254	0.000304	3.041737	1.030568	-0.000122
1152	1.1452e+02	-5.8603	-18.851405	0.000314	3.143128	1.064921	-0.000126
1153	1.1462e+02	-5.8940	-18.952334	0.000253	2.534781	0.858807	-0.000101
1154	1.1472e+02	-5.9244	-19.077485	0.000314	3.143128	1.064921	-0.000126
1155	1.1482e+02	-5.9645	-19.218785	0.000355	3.548693	1.202330	-0.000142
1156	1.1492e+02	-6.0223	-19.404493	0.000466	4.663996	1.580205	-0.000187
1157	1.1502e+02	-6.0528	-19.545793	0.000355	3.548693	1.202330	-0.000142
1158	1.1512e+02	-6.0849	-19.683055	0.000345	3.447302	1.167977	-0.000138
1159	1.1522e+02	-6.1266	-19.755724	0.000183	1.825042	0.618341	-0.000073
1160	1.1532e+02	-6.1683	-19.901061	0.000365	3.650084	1.236682	-0.000146
1161	1.1542e+02	-6.2196	-20.050435	0.000375	3.751475	1.271034	-0.000150
1162	1.1552e+02	-6.2533	-20.139252	0.000223	2.230607	0.755750	-0.000089
1163	1.1562e+02	-6.2950	-20.264403	0.000314	3.143128	1.064921	-0.000126
1164	1.1572e+02	-6.3383	-20.413777	0.000375	3.751475	1.271034	-0.000150
1165	1.1582e+02	-6.3704	-20.506631	0.000233	2.331998	0.790102	-0.000093
1166	1.1592e+02	-6.4105	-20.680228	0.000436	4.359822	1.477148	-0.000174
1167	1.1602e+02	-6.4474	-20.805379	0.000314	3.143128	1.064921	-0.000126
1168	1.1612e+02	-6.4875	-20.910345	0.000264	2.636172	0.893159	-0.000105
1169	1.1622e+02	-6.5324	-21.015310	0.000264	2.636172	0.893159	-0.000105
1170	1.1632e+02	-6.5693	-21.140461	0.000314	3.143128	1.064921	-0.000126
1171	1.1642e+02	-6.6110	-21.245427	0.000264	2.636172	0.893159	-0.000105
1172	1.1651e+02	-6.6495	-21.398838	0.000385	3.852866	1.305386	-0.000154
1173	1.1661e+02	-6.6800	-21.511878	0.000284	2.838954	0.961864	-0.000114
1174	1.1671e+02	-6.7233	-21.689512	0.000446	4.461214	1.511500	-0.000179
1175	1.1681e+02	-6.7667	-21.806589	0.000294	2.940345	0.996216	-0.000118
1176	1.1691e+02	-6.8003	-21.911554	0.000264	2.636172	0.893159	-0.000105
1177	1.1701e+02	-6.8453	-22.064965	0.000385	3.852866	1.305386	-0.000154
1178	1.1711e+02	-6.8773	-22.157819	0.000233	2.331998	0.790102	-0.000093
1179	1.1721e+02	-6.9239	-22.291045	0.000335	3.345910	1.133625	-0.000134
1180	1.1731e+02	-6.9656	-22.408122	0.000294	2.940345	0.996216	-0.000118
1181	1.1741e+02	-7.0121	-22.549422	0.000355	3.548693	1.202330	-0.000142
1182	1.1751e+02	-7.0442	-22.674573	0.000314	3.143128	1.064921	-0.000126
1183	1.1761e+02	-7.0923	-22.832021	0.000395	3.954258	1.339739	-0.000158
1184	1.1771e+02	-7.1260	-22.936987	0.000264	2.636172	0.893159	-0.000105
1185	1.1781e+02	-7.1725	-23.078286	0.000355	3.548693	1.202330	-0.000142
1186	1.1791e+02	-7.2046	-23.187289	0.000274	2.737563	0.927511	-0.000110
1187	1.1801e+02	-7.2431	-23.288218	0.000253	2.534781	0.858807	-0.000101
1188	1.1811e+02	-7.2896	-23.417406	0.000324	3.244519	1.099273	-0.000130
1189	1.1821e+02	-7.3281	-23.514297	0.000243	2.433389	0.824455	-0.000097
1190	1.1831e+02	-7.3586	-23.643485	0.000324	3.244519	1.099273	-0.000130
1191	1.1841e+02	-7.3939	-23.800934	0.000395	3.954258	1.339739	-0.000158
1192	1.1850e+02	-7.4485	-23.942233	0.000355	3.548693	1.202330	-0.000142
1193	1.1860e+02	-7.4821	-24.095645	0.000385	3.852866	1.305386	-0.000154
1194	1.1870e+02	-7.5319	-24.196573	0.000253	2.534781	0.858807	-0.000101
1195	1.1880e+02	-7.5607	-24.333836	0.000345	3.447302	1.167977	-0.000138
1196	1.1890e+02	-7.5976	-24.426690	0.000233	2.331998	0.790102	-0.000093
1197	1.1900e+02	-7.6458	-24.600287	0.000436	4.359822	1.477148	-0.000174
1198	1.1910e+02	-7.6875	-24.725438	0.000314	3.143128	1.064921	-0.000126
1199	1.1920e+02	-7.7228	-24.802143	0.000193	1.926433	0.652693	-0.000077
1200	1.1930e+02	-7.7613	-24.983815	0.000456	4.562605	1.545852	-0.000183
1201	1.1940e+02	-7.8046	-25.068594	0.000213	2.129216	0.721398	-0.000085
1202	1.1950e+02	-7.8431	-25.201820	0.000335	3.345910	1.133625	-0.000134
1203	1.1960e+02	-7.8816	-25.310823	0.000274	2.737563	0.927511	-0.000110
1204	1.1970e+02	-7.9153	-25.440011	0.000324	3.244519	1.099273	-0.000130
1205	1.1980e+02	-7.9714	-25.544976	0.000264	2.636172	0.893159	-0.000105
1206	1.1990e+02	-8.0147	-25.629756	0.000213	2.129216	0.721398	-0.000085
1207	1.2000e+02	-8.0372	-25.775093	0.000365	3.650084	1.236682	-0.000146
1208	1.2010e+02	-8.0773	-25.892170	0.000294	2.940345	0.996216	-0.000118
1209	1.2020e+02	-8.1222	-26.037507	0.000365	3.650084	1.236682	-0.000146
1210	1.2030e+02	-8.1655	-26.203030	0.000416	4.157040	1.408443	-0.000166
1211	1.2039e+02	-8.1928	-26.267624	0.000162	1.622260	0.549636	-0.000065
1212	1.2049e+02	-8.2377	-26.433146	0.000416	4.157040	1.408443	-0.000166
1213	1.2059e+02	-8.2794	-26.550223	0.000294	2.940345	0.996216	-0.000118
1214	1.2069e+02	-8.3292	-26.667300	0.000294	2.940345	0.996216	-0.000118
1215	1.2079e+02	-8.3693	-26.780340	0.000284	2.838954	0.961864	-0.000114
1216	1.2089e+02	-8.3982	-26.921640	0.000355	3.548693	1.202330	-0.000142
1217	1.2099e+02	-8.4495	-27.042754	0.000304	3.041737	1.030568	-0.000122
1218	1.2109e+02	-8.4800	-27.188091	0.000365	3.650084	1.236682	-0.000146
1219	1.2119e+02	-8.5265	-27.297093	0.000274	2.737563	0.927511	-0.000110
1220	1.2129e+02	-8.5602	-27.406096	0.000274	2.737563	0.927511	-0.000110
1221	1.2139e+02	-8.6003	-27.539321	0.000335	3.345910	1.133625	-0.000134
1222	1.2149e+02	-8.6468	-27.628138	0.000223	2.230607	0.755750	-0.000089
1223	1.2159e+02	-8.6789	-27.765401	0.000345	3.447302	1.167977	-0.000138
1224	1.2169e+02	-8.7190	-27.890552	0.000314	3.143128	1.064921	-0.000126
1225	1.2179e+02	-8.7527	-28.011666	0.000304	3.041737	1.030568	-0.000122
1226	1.2189e+02	-8.7976	-28.185263	0.000436	4.359822	1.477148	-0.000174
1227	1.2199e+02	-8.8313	-28.322526	0.000345	3.447302	1.167977	-0.000138
1228	1.2209e+02	-8.8810	-28.431528	0.000274	2.737563	0.927511	-0.000110
1229	1.2219e+02	-8.9195	-28.576865	0.000365	3.650084	1.236682	-0.000146
1230	1.2229e+02	-8.9532	-28.689905	0.000284	2.838954	0.961864	-0.000114
1231	1.2239e+02	-9.0078	-28.827168	0.000345	3.447302	1.167977	-0.000138
1232	1.2248e+02	-9.0463	-28.956356	0.000324	3.244519	1.099273	-0.000130
1233	1.2258e+02	-9.0767	-29.121879	0.000416	4.157040	1.408443	-0.000166
1234	1.2268e+02	-9.1120	-29.190510	0.000172	1.723651	0.583989	-0.000069
1235	1.2278e+02	-9.1586	-29.360070	0.000426	4.258431	1.442796	-0.000170
1236	1.2288e+02	-9.1955	-29.465035	0.000264	2.636172	0.893159	-0.000105
1237	1.2298e+02	-9.2452	-29.578075	0.000284	2.838954	0.961864	-0.000114
1238	1.2308e+02	-9.2805	-29.679003	0.000253	2.534781	0.858807	-0.000101
1239	1.2318e+02	-9.3222	-29.808192	0.000324	3.244519	1.099273	-0.000130
1240	1.2328e+02	-9.3495	-29.913157	0.000264	2.636172	0.893159	-0.000105
1241	1.2338e+02	-9.3928	-30.050420	0.000345	3.447302	1.167977	-0.000138
1242	1.2348e+02	-9.4393	-30.155385	0.000264	2.636172	0.893159	-0.000105
1243	1.2358e+02	-9.4794	-30.276499	0.000304	3.041737	1.030568	-0.000122
1244	1.2368e+02	-9.5131	-30.433948	0.000395	3.954258	1.339739	-0.000158
1245	1.2378e+02	-9.5484	-30.538913	0.000264	2.636172	0.893159	-0.000105
1246	1.2388e+02	-9.5949	-30.688287	0.000375	3.751475	1.271034	-0.000150
1247	1.2398e+02	-9.6350	-30.797290	0.000274	2.737563	0.927511	-0.000110
1248	1.2408e+02	-9.6767	-30.918404	0.000304	3.041737	1.030568	-0.000122
1249	1.2418e+02	-9.7217	-31.047592	0.000324	3.244519	1.099273	-0.000130
1250	1.2428e+02	-9.7569	-31.128335	0.000203	2.027824	0.687046	-0.000081
1251	1.2438e+02	-9.8003	-31.293858	0.000416	4.157040	1.408443	-0.000166
1252	1.2447e+02	-9.8307	-31.394786	0.000253	2.534781	0.858807	-0.000101
1253	1.2457e+02	-9.8724	-31.511863	0.000294	2.940345	0.996216	-0.000118
1254	1.2467e+02	-9.9190	-31.661237	0.000375	3.751475	1.271034	-0.000150
1255	1.2477e+02	-9.9607	-31.782351	0.000304	3.041737	1.030568	-0.000122
1256	1.2487e+02	-9.9847	-31.919614	0.000345	3.447302	1.167977	-0.000138
1257	1.2497e+02	-10.0377	-32.012468	0.000233	2.331998	0.790102	-0.000093
1258	1.2507e+02	-10.0682	-32.169916	0.000395	3.954258	1.339739	-0.000158
1259	1.2517e+02	-10.1163	-32.278919	0.000274	2.737563	0.927511	-0.000110
1260	1.2527e+02	-10.1564	-32.395996	0.000294	2.940345	0.996216	-0.000118
1261	1.2537e+02	-10.1917	-32.541333	0.000365	3.650084	1.236682	-0.000146
1262	1.2547e+02	-10.2398	-32.666484	0.000314	3.143128	1.064921	-0.000126
1263	1.2557e+02	-10.2783	-32.779524	0.000284	2.838954	0.961864	-0.000114
1264	1.2567e+02	-10.3072	-32.876415	0.000243	2.433389	0.824455	-0.000097
1265	1.2577e+02	-10.3521	-32.989455	0.000284	2.838954	0.961864	-0.000114
1266	1.2587e+02	-10.3970	-33.118643	0.000324	3.244519	1.099273	-0.000130
1267	1.2597e+02	-10.4339	-33.223609	0.000264	2.636172	0.893159	-0.000105
1268	1.2607e+02	-10.4821	-33.372983	0.000375	3.751475	1.271034	-0.000150
1269	1.2617e+02	-10.5125	-33.514282	0.000355	3.548693	1.202330	-0.000142
1270	1.2627e+02	-10.5494	-33.623285	0.000274	2.737563	0.927511	-0.000110
1271	1.2636e+02	-10.5944	-33.736325	0.000284	2.838954	0.961864	-0.000114
1272	1.2646e+02	-10.6345	-33.817068	0.000203	2.027824	0.687046	-0.000081
1273	1.2656e+02	-10.6698	-33.966442	0.000375	3.751475	1.271034	-0.000150
1274	1.2666e+02	-10.7131	-34.075444	0.000274	2.737563	0.927511	-0.000110
1275	1.2676e+02	-10.7564	-34.253078	0.000446	4.461214	1.511500	-0.000179
1276	1.2686e+02	-10.7869	-34.345932	0.000233	2.331998	0.790102	-0.000093
1277	1.2696e+02	-10.8302	-34.430712	0.000213	2.129216	0.721398	-0.000085
1278	1.2706e+02	-10.8623	-34.580086	0.000375	3.751475	1.271034	-0.000150
1279	1.2716e+02	-10.9104	-34.689089	0.000274	2.737563	0.927511	-0.000110
1280	1.2726e+02	-10.9521	-34.822314	0.000335	3.345910	1.133625	-0.000134
1281	1.2736e+02	-10.9938	-34.943428	0.000304	3.041737	1.030568	-0.000122
1282	1.2746e+02	-11.0259	-35.072617	0.000324	3.244519	1.099273	-0.000130
1283	1.2756e+02	-11.0708	-35.201805	0.000324	3.244519	1.099273	-0.000130
1284	1.2766e+02	-11.1093	-35.294659	0.000233	2.331998	0.790102	-0.000093
1285	1.2776e+02	-11.1606	-35.411736	0.000294	2.940345	0.996216	-0.000118
1286	1.2786e+02	-11.1959	-35.544962	0.000335	3.345910	1.133625	-0.000134
1287	1.2796e+02	-11.2312	-35.662039	0.000294	2.940345	0.996216	-0.000118
1288	1.2806e+02	-11.2697	-35.746818	0.000213	2.129216	0.721398	-0.000085
1289	1.2816e+02	-11.3114	-35.924452	0.000446	4.461214	1.511500	-0.000179
1290	1.2826e+02	-11.3564	-36.033455	0.000274	2.737563	0.927511	-0.000110
1291	1.2835e+02	-11.3933	-36.138421	0.000264	2.636172	0.893159	-0.000105
1292	1.2845e+02	-11.4286	-36.283757	0.000365	3.650084	1.236682	-0.000146
1293	1.2855e+02	-11.4719	-36.421020	0.000345	3.447302	1.167977	-0.000138
1294	1.2865e+02	-11.5136	-36.517911	0.000243	2.433389	0.824455	-0.000097
1295	1.2875e+02	-11.5489	-36.655174	0.000345	3.447302	1.167977	-0.000138
1296	1.2885e+02	-11.5874	-36.780325	0.000314	3.143128	1.064921	-0.000126
1297	1.2895e+02	-11.6307	-36.905476	0.000314	3.143128	1.064921	-0.000126
1298	1.2905e+02	-11.6628	-36.994293	0.000223	2.230607	0.755750	-0.000089
1299	1.2915e+02	-11.6997	-37.131556	0.000345	3.447302	1.167977	-0.000138
1300	1.2925e+02	-11.7494	-37.220373	0.000223	2.230607	0.755750	-0.000089
1301	1.2935e+02	-11.7895	-37.361673	0.000355	3.548693	1.202330	-0.000142
1302	1.2945e+02	-11.8232	-37.462601	0.000253	2.534781	0.858807	-0.000101
1303	1.2955e+02	-11.8681	-37.591789	0.000324	3.244519	1.099273	-0.000130
1304	1.2965e+02	-11.9018	-37.708866	0.000294	2.940345	0.996216	-0.000118
1305	1.2975e+02	-11.9451	-37.809795	0.000253	2.534781	0.858807	-0.000101
1306	1.2985e+02	-11.9804	-37.955132	0.000365	3.650084	1.236682	-0.000146
1307	1.2995e+02	-12.0221	-38.039911	0.000213	2.129216	0.721398	-0.000085
1308	1.3005e+02	-12.0783	-38.165063	0.000314	3.143128	1.064921	-0.000126
1309	1.3015e+02	-12.1007	-38.270028	0.000264	2.636172	0.893159	-0.000105
1310	1.3025e+02	-12.1424	-38.443625	0.000436	4.359822	1.477148	-0.000174
1311	1.3034e+02	-12.1825	-38.520331	0.000193	1.926433	0.652693	-0.000077
1312	1.3044e+02	-12.2259	-38.645482	0.000314	3.143128	1.064921	-0.000126
1313	1.3054e+02	-12.2612	-38.750447	0.000264	2.636172	0.893159	-0.000105
1314	1.3064e+02	-12.3061	-38.879636	0.000324	3.244519	1.099273	-0.000130
1315	1.3074e+02	-12.3462	-38.984601	0.000264	2.636172	0.893159	-0.000105
1316	1.3084e+02	-12.3863	-39.085530	0.000253	2.534781	0.858807	-0.000101
1317	1.3094e+02	-12.4248	-39.206644	0.000304	3.041737	1.030568	-0.000122
1318	1.3104e+02	-12.4633	-39.331795	0.000314	3.143128	1.064921	-0.000126
1319	1.3114e+02	-12.5130	-39.416575	0.000213	2.129216	0.721398	-0.000085
1320	1.3124e+02	-12.5323	-39.545763	0.000324	3.244519	1.099273	-0.000130
1321	1.3134e+02	-12.5900	-39.666877	0.000304	3.041737	1.030568	-0.000122
1322	1.3144e+02	-12.6333	-39.796066	0.000324	3.244519	1.099273	-0.000130
1323	1.3154e+02	-12.6734	-39.901031	0.000264	2.636172	0.893159	-0.000105
1324	1.3164e+02	-12.7087	-40.026182	0.000314	3.143128	1.064921	-0.000126
1325	1.3174e+02	-12.7537	-40.139222	0.000284	2.838954	0.961864	-0.000114
1326	1.3184e+02	-12.7825	-40.300708	0.000406	4.055649	1.374091	-0.000162
1327	1.3194e+02	-12.8178	-40.425859	0.000314	3.143128	1.064921	-0.000126
1328	1.3204e+02	-12.8611	-40.551010	0.000314	3.143128	1.064921	-0.000126
1329	1.3214e+02	-12.8948	-40.655975	0.000264	2.636172	0.893159	-0.000105
1330	1.3224e+02	-12.9413	-40.781127	0.000314	3.143128	1.064921	-0.000126
1331	1.3234e+02	-12.9734	-40.845721	0.000162	1.622260	0.549636	-0.000065
1332	1.3243e+02	-13.0312	-40.926464	0.000203	2.027824	0.687046	-0.000081
1333	1.3253e+02	-13.0649	-41.083912	0.000395	3.954258	1.339739	-0.000158
1334	1.3263e+02	-13.1082	-41.217137	0.000335	3.345910	1.133625	-0.000134
1335	1.3273e+02	-13.1467	-41.289806	0.000183	1.825042	0.618341	-0.000073
1336	1.3283e+02	-13.1772	-41.402846	0.000284	2.838954	0.961864	-0.000114
1337	1.3293e+02	-13.2221	-41.560294	0.000395	3.954258	1.339739	-0.000158
1338	1.3303e+02	-13.2606	-41.685445	0.000314	3.143128	1.064921	-0.000126
1339	1.3313e+02	-13.2943	-41.762151	0.000193	1.926433	0.652693	-0.000077
1340	1.3323e+02	-13.3456	-41.887302	0.000314	3.143128	1.064921	-0.000126
1341	1.3333e+02	-13.3793	-42.028602	0.000355	3.548693	1.202330	-0.000142
1342	1.3343e+02	-13.4290	-42.133567	0.000264	2.636172	0.893159	-0.000105
1343	1.3353e+02	-13.4531	-42.230458	0.000243	2.433389	0.824455	-0.000097
1344	1.3363e+02	-13.4916	-42.400018	0.000426	4.258431	1.442796	-0.000170
1345	1.3373e+02	-13.5429	-42.521132	0.000304	3.041737	1.030568	-0.000122
1346	1.3383e+02	-13.5750	-42.666469	0.000365	3.650084	1.236682	-0.000146
1347	1.3393e+02	-13.6215	-42.731063	0.000162	1.622260	0.549636	-0.000065
1348	1.3403e+02	-13.6633	-42.880437	0.000375	3.751475	1.271034	-0.000150
1349	1.3413e+02	-13.6969	-42.985403	0.000264	2.636172	0.893159	-0.000105
1350	1.3423e+02	-13.7403	-43.033848	0.000122	1.216695	0.412227	-0.000049
1351	1.3432e+02	-13.7772	-43.195334	0.000406	4.055649	1.374091	-0.000162
1352	1.3442e+02	-13.8092	-43.308374	0.000284	2.838954	0.961864	-0.000114
1353	1.3452e+02	-13.8622	-43.401228	0.000233	2.331998	0.790102	-0.000093
1354	1.3462e+02	-13.8927	-43.542528	0.000355	3.548693	1.202330	-0.000142
1355	1.3472e+02	-13.9312	-43.663642	0.000304	3.041737	1.030568	-0.000122
1356	1.3482e+02	-13.9841	-43.764570	0.000253	2.534781	0.858807	-0.000101
1357	1.3492e+02	-14.0226	-43.889721	0.000314	3.143128	1.064921	-0.000126
1358	1.3502e+02	-14.0563	-43.962390	0.000183	1.825042	0.618341	-0.000073
1359	1.3512e+02	-14.1060	-44.127912	0.000416	4.157040	1.408443	-0.000166
1360	1.3522e+02	-14.1381	-44.232878	0.000264	2.636172	0.893159	-0.000105
1361	1.3532e+02	-14.1766	-44.398400	0.000416	4.157040	1.408443	-0.000166
1362	1.3542e+02	-14.2119	-44.462994	0.000162	1.622260	0.549636	-0.000065
1363	1.3552e+02	-14.2632	-44.604294	0.000355	3.548693	1.202330	-0.000142
1364	1.3562e+02	-14.2921	-44.717334	0.000284	2.838954	0.961864	-0.000114
1365	1.3572e+02	-14.3467	-44.769817	0.000132	1.318086	0.446580	-0.000053
1366	1.3582e+02	-14.3739	-44.882857	0.000284	2.838954	0.961864	-0.000114
1367	1.3592e+02	-14.4156	-45.024156	0.000355	3.548693	1.202330	-0.000142
1368	1.3602e+02	-14.4670	-45.125085	0.000253	2.534781	0.858807	-0.000101
1369	1.3612e+02	-14.5039	-45.238125	0.000284	2.838954	0.961864	-0.000114
1370	1.3622e+02	-14.5360	-45.347127	0.000274	2.737563	0.927511	-0.000110
1371	1.3631e+02	-14.5745	-45.492464	0.000365	3.650084	1.236682	-0.000146
1372	1.3641e+02	-14.6226	-45.573207	0.000203	2.027824	0.687046	-0.000081
1373	1.3651e+02	-14.6515	-45.686247	0.000284	2.838954	0.961864	-0.000114
1374	1.3661e+02	-14.7108	-45.787175	0.000253	2.534781	0.858807	-0.000101
1375	1.3671e+02	-14.7445	-45.932512	0.000365	3.650084	1.236682	-0.000146
1376	1.3681e+02	-14.7702	-46.017292	0.000213	2.129216	0.721398	-0.000085
1377	1.3691e+02	-14.8167	-46.150517	0.000335	3.345910	1.133625	-0.000134
1378	1.3701e+02	-14.8440	-46.332188	0.000456	4.562605	1.545852	-0.000183
1379	1.3711e+02	-14.8969	-46.449265	0.000294	2.940345	0.996216	-0.000118
1380	1.3721e+02	-14.9306	-46.534045	0.000213	2.129216	0.721398	-0.000085
1381	1.3731e+02	-14.9723	-46.687456	0.000385	3.852866	1.305386	-0.000154
1382	1.3741e+02	-15.0268	-46.727828	0.000101	1.013912	0.343523	-0.000041
1383	1.3751e+02	-15.0525	-46.844905	0.000294	2.940345	0.996216	-0.000118
1384	1.3761e+02	-15.0974	-46.937759	0.000233	2.331998	0.790102	-0.000093
1385	1.3771e+02	-15.1375	-47.034650	0.000243	2.433389	0.824455	-0.000097
1386	1.3781e+02	-15.1744	-47.135578	0.000253	2.534781	0.858807	-0.000101
1387	1.3791e+02	-15.2161	-47.284952	0.000375	3.751475	1.271034	-0.000150
1388	1.3801e+02	-15.2563	-47.381844	0.000243	2.433389	0.824455	-0.000097
1389	1.3811e+02	-15.2867	-47.498921	0.000294	2.940345	0.996216	-0.000118
1390	1.3821e+02	-15.3333	-47.599849	0.000253	2.534781	0.858807	-0.000101
1391	1.3831e+02	-15.3718	-47.737112	0.000345	3.447302	1.167977	-0.000138
1392	1.3840e+02	-15.4151	-47.866300	0.000324	3.244519	1.099273	-0.000130
1393	1.3850e+02	-15.4536	-47.975303	0.000274	2.737563	0.927511	-0.000110
1394	1.3860e+02	-15.4937	-48.108528	0.000335	3.345910	1.133625	-0.000134
1395	1.3870e+02	-15.5402	-48.225605	0.000294	2.940345	0.996216	-0.000118
1396	1.3880e+02	-15.5707	-48.370942	0.000365	3.650084	1.236682	-0.000146
1397	1.3890e+02	-15.6172	-48.492056	0.000304	3.041737	1.030568	-0.000122
1398	1.3900e+02	-15.6493	-48.621244	0.000324	3.244519	1.099273	-0.000130
1399	1.3910e+02	-15.6846	-48.762544	0.000355	3.548693	1.202330	-0.000142
1400	1.3920e+02	-15.7279	-48.827138	0.000162	1.622260	0.549636	-0.000065
1401	1.3930e+02	-15.7680	-48.907881	0.000203	2.027824	0.687046	-0.000081
1402	1.3940e+02	-15.8001	-49.000735	0.000233	2.331998	0.790102	-0.000093
1403	1.3950e+02	-15.8594	-49.121849	0.000304	3.041737	1.030568	-0.000122
1404	1.3960e+02	-15.8899	-49.238926	0.000294	2.940345	0.996216	-0.000118
1405	1.3970e+02	-15.9364	-49.335817	0.000243	2.433389	0.824455	-0.000097
1406	1.3980e+02	-15.9733	-49.420597	0.000213	2.129216	0.721398	-0.000085
1407	1.3990e+02	-16.0022	-49.561897	0.000355	3.548693	1.202330	-0.000142
1408	1.4000e+02	-16.0487	-49.687048	0.000314	3.143128	1.064921	-0.000126
1409	1.4010e+02	-16.1001	-49.816236	0.000324	3.244519	1.099273	-0.000130
1410	1.4020e+02	-16.1402	-49.905053	0.000223	2.230607	0.755750	-0.000089
1411	1.4029e+02	-16.1691	-50.018093	0.000284	2.838954	0.961864	-0.000114
1412	1.4039e+02	-16.2108	-50.171504	0.000385	3.852866	1.305386	-0.000154
1413	1.4049e+02	-16.2429	-50.300693	0.000324	3.244519	1.099273	-0.000130
1414	1.4059e+02	-16.2910	-50.425844	0.000314	3.143128	1.064921	-0.000126
1415	1.4069e+02	-16.3327	-50.542921	0.000294	2.940345	0.996216	-0.000118
1416	1.4079e+02	-16.3519	-50.668072	0.000314	3.143128	1.064921	-0.000126
1417	1.4089e+02	-16.4097	-50.777075	0.000274	2.737563	0.927511	-0.000110
1418	1.4099e+02	-16.4466	-50.882040	0.000264	2.636172	0.893159	-0.000105
1419	1.4109e+02	-16.4851	-50.934523	0.000132	1.318086	0.446580	-0.000053
1420	1.4119e+02	-16.5236	-51.019303	0.000213	2.129216	0.721398	-0.000085
1421	1.4129e+02	-16.5637	-51.168677	0.000375	3.751475	1.271034	-0.000150
1422	1.4139e+02	-16.6102	-51.241345	0.000183	1.825042	0.618341	-0.000073
1423	1.4149e+02	-16.6551	-51.362459	0.000304	3.041737	1.030568	-0.000122
1424	1.4159e+02	-16.6840	-51.532019	0.000426	4.258431	1.442796	-0.000170
1425	1.4169e+02	-16.7305	-51.568353	0.000091	0.912521	0.309170	-0.000037
1426	1.4179e+02	-16.7739	-51.721765	0.000385	3.852866	1.305386	-0.000154
1427	1.4189e+02	-16.8156	-51.830767	0.000274	2.737563	0.927511	-0.000110
1428	1.4199e+02	-16.8428	-51.963993	0.000335	3.345910	1.133625	-0.000134
1429	1.4209e+02	-16.8765	-52.048773	0.000213	2.129216	0.721398	-0.000085
1430	1.4219e+02	-16.9231	-52.210258	0.000406	4.055649	1.374091	-0.000162
1431	1.4228e+02	-16.9696	-52.307149	0.000243	2.433389	0.824455	-0.000097
1432	1.4238e+02	-16.9985	-52.436338	0.000324	3.244519	1.099273	-0.000130
1433	1.4248e+02	-17.0482	-52.565526	0.000324	3.244519	1.099273	-0.000130
1434	1.4258e+02	-17.0899	-52.678566	0.000284	2.838954	0.961864	-0.000114
1435	1.4268e+02	-17.1204	-52.771420	0.000233	2.331998	0.790102	-0.000093
1436	1.4278e+02	-17.1653	-52.912720	0.000355	3.548693	1.202330	-0.000142
1437	1.4288e+02	-17.2086	-53.005574	0.000233	2.331998	0.790102	-0.000093
1438	1.4298e+02	-17.2551	-53.082279	0.000193	1.926433	0.652693	-0.000077
1439	1.4308e+02	-17.2840	-53.195319	0.000284	2.838954	0.961864	-0.000114
1440	1.4318e+02	-17.3209	-53.296247	0.000253	2.534781	0.858807	-0.000101
1441	1.4328e+02	-17.3610	-53.401213	0.000264	2.636172	0.893159	-0.000105
1442	1.4338e+02	-17.3995	-53.485993	0.000213	2.129216	0.721398	-0.000085
1443	1.4348e+02	-17.4508	-53.623255	0.000345	3.447302	1.167977	-0.000138
1444	1.4358e+02	-17.4797	-53.740332	0.000294	2.940345	0.996216	-0.000118
1445	1.4368e+02	-17.5246	-53.821075	0.000203	2.027824	0.687046	-0.000081
1446	1.4378e+02	-17.5615	-53.990635	0.000426	4.258431	1.442796	-0.000170
1447	1.4388e+02	-17.5984	-54.087526	0.000243	2.433389	0.824455	-0.000097
1448	1.4398e+02	-17.6482	-54.200566	0.000284	2.838954	0.961864	-0.000114
1449	1.4408e+02	-17.6770	-54.321680	0.000304	3.041737	1.030568	-0.000122
1450	1.4418e+02	-17.7252	-54.414534	0.000233	2.331998	0.790102	-0.000093
1451	1.4428e+02	-17.7573	-54.567945	0.000385	3.852866	1.305386	-0.000154
1452	1.4437e+02	-17.7974	-54.709245	0.000355	3.548693	1.202330	-0.000142
1453	1.4447e+02	-17.8455	-54.826322	0.000294	2.940345	0.996216	-0.000118
1454	1.4457e+02	-17.8840	-54.923213	0.000243	2.433389	0.824455	-0.000097
1455	1.4467e+02	-17.9161	-55.036253	0.000284	2.838954	0.961864	-0.000114
1456	1.4477e+02	-17.9626	-55.116996	0.000203	2.027824	0.687046	-0.000081
1457	1.4487e+02	-18.0059	-55.209850	0.000233	2.331998	0.790102	-0.000093
1458	1.4497e+02	-18.0412	-55.359224	0.000375	3.751475	1.271034	-0.000150
1459	1.4507e+02	-18.0813	-55.427855	0.000172	1.723651	0.583989	-0.000069
1460	1.4517e+02	-18.1182	-55.540895	0.000284	2.838954	0.961864	-0.000114
1461	1.4527e+02	-18.1567	-55.670083	0.000324	3.244519	1.099273	-0.000130
1462	1.4537e+02	-18.2080	-55.783123	0.000284	2.838954	0.961864	-0.000114
1463	1.4547e+02	-18.2449	-55.916349	0.000335	3.345910	1.133625	-0.000134
1464	1.4557e+02	-18.2850	-56.017277	0.000253	2.534781	0.858807	-0.000101
1465	1.4567e+02	-18.3219	-56.162614	0.000365	3.650084	1.236682	-0.000146
1466	1.4577e+02	-18.3588	-56.340248	0.000446	4.461214	1.511500	-0.000179
1467	1.4587e+02	-18.3989	-56.412916	0.000183	1.825042	0.618341	-0.000073
1468	1.4597e+02	-18.4471	-56.525956	0.000284	2.838954	0.961864	-0.000114
1469	1.4607e+02	-18.4776	-56.630922	0.000264	2.636172	0.893159	-0.000105
1470	1.4617e+02	-18.5177	-56.719739	0.000223	2.230607	0.755750	-0.000089
1471	1.4626e+02	-18.5690	-56.836815	0.000294	2.940345	0.996216	-0.000118
1472	1.4636e+02	-18.6043	-56.953892	0.000294	2.940345	0.996216	-0.000118
1473	1.4646e+02	-18.6444	-57.066932	0.000284	2.838954	0.961864	-0.000114
1474	1.4656e+02	-18.6797	-57.139601	0.000183	1.825042	0.618341	-0.000073
1475	1.4666e+02	-18.7246	-57.232455	0.000233	2.331998	0.790102	-0.000093
1476	1.4676e+02	-18.7567	-57.337420	0.000264	2.636172	0.893159	-0.000105
1477	1.4686e+02	-18.8000	-57.462572	0.000314	3.143128	1.064921	-0.000126
1478	1.4696e+02	-18.8465	-57.591760	0.000324	3.244519	1.099273	-0.000130
1479	1.4706e+02	-18.8754	-57.733060	0.000355	3.548693	1.202330	-0.000142
1480	1.4716e+02	-18.9203	-57.801691	0.000172	1.723651	0.583989	-0.000069
1481	1.4726e+02	-18.9733	-57.963176	0.000406	4.055649	1.374091	-0.000162
1482	1.4736e+02	-19.0037	-58.060068	0.000243	2.433389	0.824455	-0.000097
1483	1.4746e+02	-19.0342	-58.201367	0.000355	3.548693	1.202330	-0.000142
1484	1.4756e+02	-19.0775	-58.294221	0.000233	2.331998	0.790102	-0.000093
1485	1.4766e+02	-19.1144	-58.435521	0.000355	3.548693	1.202330	-0.000142
1486	1.4776e+02	-19.1481	-58.544524	0.000274	2.737563	0.927511	-0.000110
1487	1.4786e+02	-19.1962	-58.681787	0.000345	3.447302	1.167977	-0.000138
1488	1.4796e+02	-19.2364	-58.798863	0.000294	2.940345	0.996216	-0.000118
1489	1.4806e+02	-19.2700	-58.887680	0.000223	2.230607	0.755750	-0.000089
1490	1.4816e+02	-19.3182	-59.045129	0.000395	3.954258	1.339739	-0.000158
1491	1.4825e+02	-19.3567	-59.146057	0.000253	2.534781	0.858807	-0.000101
1492	1.4835e+02	-19.3888	-59.214688	0.000172	1.723651	0.583989	-0.000069
1493	1.4845e+02	-19.4369	-59.315617	0.000253	2.534781	0.858807	-0.000101
1494	1.4855e+02	-19.4770	-59.456917	0.000355	3.548693	1.202330	-0.000142
1495	1.4865e+02	-19.5203	-59.553808	0.000243	2.433389	0.824455	-0.000097
1496	1.4875e+02	-19.5636	-59.719330	0.000416	4.157040	1.408443	-0.000166
1497	1.4885e+02	-19.5925	-59.828333	0.000274	2.737563	0.927511	-0.000110
1498	1.4895e+02	-19.6358	-59.921187	0.000233	2.331998	0.790102	-0.000093
1499	1.4905e+02	-19.6807	-60.050376	0.000324	3.244519	1.099273	-0.000130
1500	1.4915e+02	-19.7144	-60.183601	0.000335	3.345910	1.133625	-0.000134
1501	1.4925e+02	-19.7481	-60.341049	0.000395	3.954258	1.339739	-0.000158
1502	1.4935e+02	-19.8026	-60.437941	0.000243	2.433389	0.824455	-0.000097
1503	1.4945e+02	-19.8347	-60.603463	0.000416	4.157040	1.408443	-0.000166
1504	1.4955e+02	-19.8652	-60.704392	0.000253	2.534781	0.858807	-0.000101
1505	1.4965e+02	-19.9021	-60.857803	0.000385	3.852866	1.305386	-0.000154
1506	1.4975e+02	-19.9567	-60.974880	0.000294	2.940345	0.996216	-0.000118
1507	1.4985e+02	-19.9887	-61.091957	0.000294	2.940345	0.996216	-0.000118
1508	1.4995e+02	-19.9502	-61.067734	0.000061	0.608347	0.206114	0.000024
1509	1.5005e+02	-19.9133	-60.982954	0.000213	2.129216	0.721398	0.000085
1510	1.5015e+02	-19.8700	-60.882025	0.000253	2.534781	0.858807	0.000101
1511	1.5025e+02	-19.8331	-60.809357	0.000183	1.825042	0.618341	0.000073
1512	1.5034e+02	-19.8010	-60.748800	0.000152	1.520868	0.515284	0.000061
1513	1.5044e+02	-19.7609	-60.668057	0.000203	2.027824	0.687046	0.000081
1514	1.5054e+02	-19.7176	-60.579240	0.000223	2.230607	0.755750	0.000089
1515	1.5064e+02	-19.6887	-60.542906	0.000091	0.912521	0.309170	0.000037
1516	1.5074e+02	-19.6358	-60.462163	0.000203	2.027824	0.687046	0.000081
1517	1.5084e+02	-19.5957	-60.401606	0.000152	1.520868	0.515284	0.000061
1518	1.5094e+02	-19.5540	-60.304715	0.000243	2.433389	0.824455	0.000097
1519	1.5104e+02	-19.5091	-60.264344	0.000101	1.013912	0.343523	0.000041
1520	1.5114e+02	-19.4722	-60.219935	0.000112	1.115303	0.377875	0.000045
1521	1.5124e+02	-19.4401	-60.139193	0.000203	2.027824	0.687046	0.000081
1522	1.5134e+02	-19.3920	-60.038264	0.000253	2.534781	0.858807	0.000101
1523	1.5144e+02	-19.3551	-59.981744	0.000142	1.419477	0.480932	0.000057
1524	1.5154e+02	-19.3166	-59.921187	0.000152	1.520868	0.515284	0.000061
1525	1.5164e+02	-19.2813	-59.824296	0.000243	2.433389	0.824455	0.000097
1526	1.5174e+02	-19.2396	-59.771813	0.000132	1.318086	0.446580	0.000053
1527	1.5184e+02	-19.1946	-59.682996	0.000223	2.230607	0.755750	0.000089
1528	1.5194e+02	-19.1545	-59.525548	0.000395	3.954258	1.339739	0.000158
1529	1.5204e+02	-19.1209	-59.460954	0.000162	1.622260	0.549636	0.000065
1530	1.5214e+02	-19.0856	-59.376174	0.000213	2.129216	0.721398	0.000085
1531	1.5224e+02	-19.0310	-59.267171	0.000274	2.737563	0.927511	0.000110
1532	1.5233e+02	-19.0021	-59.214688	0.000132	1.318086	0.446580	0.000053
1533	1.5243e+02	-18.9668	-59.109723	0.000264	2.636172	0.893159	0.000105
1534	1.5253e+02	-18.9299	-59.045129	0.000162	1.622260	0.549636	0.000065
1535	1.5263e+02	-18.8786	-58.952275	0.000233	2.331998	0.790102	0.000093
1536	1.5273e+02	-18.8417	-58.835198	0.000294	2.940345	0.996216	0.000118
1537	1.5283e+02	-18.7936	-58.754455	0.000203	2.027824	0.687046	0.000081
1538	1.5293e+02	-18.7567	-58.758492	-0.000010	-0.101391	-0.034352	-0.000004
1539	1.5303e+02	-18.7182	-58.677749	0.000203	2.027824	0.687046	0.000081
1540	1.5313e+02	-18.6781	-58.564710	0.000284	2.838954	0.961864	0.000114
1541	1.5323e+02	-18.6396	-58.467818	0.000243	2.433389	0.824455	0.000097
1542	1.5333e+02	-18.6043	-58.407261	0.000152	1.520868	0.515284	0.000061
1543	1.5343e+02	-18.5562	-58.302296	0.000264	2.636172	0.893159	0.000105
1544	1.5353e+02	-18.5241	-58.201367	0.000253	2.534781	0.858807	0.000101
1545	1.5363e+02	-18.4856	-58.084290	0.000294	2.940345	0.996216	0.000118
1546	1.5373e+02	-18.4326	-57.987399	0.000243	2.433389	0.824455	0.000097
1547	1.5383e+02	-18.3973	-57.882434	0.000264	2.636172	0.893159	0.000105
1548	1.5393e+02	-18.3540	-57.785542	0.000243	2.433389	0.824455	0.000097
1549	1.5403e+02	-18.3219	-57.724985	0.000152	1.520868	0.515284	0.000061
1550	1.5413e+02	-18.2802	-57.599834	0.000314	3.143128	1.064921	0.000126
1551	1.5422e+02	-18.2514	-57.527166	0.000183	1.825042	0.618341	0.000073
1552	1.5432e+02	-18.1984	-57.434312	0.000233	2.331998	0.790102	0.000093
1553	1.5442e+02	-18.1631	-57.349532	0.000213	2.129216	0.721398	0.000085
1554	1.5452e+02	-18.1166	-57.272826	0.000193	1.926433	0.652693	0.000077
1555	1.5462e+02	-18.0797	-57.179972	0.000233	2.331998	0.790102	0.000093
1556	1.5472e+02	-18.0364	-57.119415	0.000152	1.520868	0.515284	0.000061
1557	1.5482e+02	-17.9995	-57.034635	0.000213	2.129216	0.721398	0.000085
1558	1.5492e+02	-17.9578	-57.002338	0.000081	0.811130	0.274818	0.000032
1559	1.5502e+02	-17.9241	-56.869113	0.000335	3.345910	1.133625	0.000134
1560	1.5512e+02	-17.8840	-56.796444	0.000183	1.825042	0.618341	0.000073
1561	1.5522e+02	-17.8391	-56.723776	0.000183	1.825042	0.618341	0.000073
1562	1.5532e+02	-17.8054	-56.590550	0.000335	3.345910	1.133625	0.000134
1563	1.5542e+02	-17.7669	-56.449250	0.000355	3.548693	1.202330	0.000142
1564	1.5552e+02	-17.7188	-56.400805	0.000122	1.216695	0.412227	0.000049
1565	1.5562e+02	-17.6931	-56.279691	0.000304	3.041737	1.030568	0.000122
1566	1.5572e+02	-17.6450	-56.198948	0.000203	2.027824	0.687046	0.000081
1567	1.5582e+02	-17.6065	-56.106094	0.000233	2.331998	0.790102	0.000093
1568	1.5592e+02	-17.5760	-56.029388	0.000193	1.926433	0.652693	0.000077
1569	1.5602e+02	-17.5230	-55.924423	0.000264	2.636172	0.893159	0.000105
1570	1.5612e+02	-17.4893	-55.855792	0.000172	1.723651	0.583989	0.000069
1571	1.5622e+02	-17.4476	-55.742752	0.000284	2.838954	0.961864	0.000114
1572	1.5631e+02	-17.4107	-55.633749	0.000274	2.737563	0.927511	0.000110
1573	1.5641e+02	-17.3578	-55.573192	0.000152	1.520868	0.515284	0.000061
1574	1.5651e+02	-17.3257	-55.508598	0.000162	1.622260	0.549636	0.000065
1575	1.5661e+02	-17.2856	-55.431892	0.000193	1.926433	0.652693	0.000077
1576	1.5671e+02	-17.2487	-55.322890	0.000274	2.737563	0.927511	0.000110
1577	1.5681e+02	-17.2006	-55.262333	0.000152	1.520868	0.515284	0.000061
1578	1.5691e+02	-17.1637	-55.141218	0.000304	3.041737	1.030568	0.000122
1579	1.5701e+02	-17.1268	-55.020104	0.000304	3.041737	1.030568	0.000122
1580	1.5711e+02	-17.0835	-54.931287	0.000223	2.230607	0.755750	0.000089
1581	1.5721e+02	-17.0402	-54.785951	0.000365	3.650084	1.236682	0.000146
1582	1.5731e+02	-17.0049	-54.713282	0.000183	1.825042	0.618341	0.000073
1583	1.5741e+02	-16.9664	-54.612354	0.000253	2.534781	0.858807	0.000101
1584	1.5751e+02	-16.9263	-54.511425	0.000253	2.534781	0.858807	0.000101
1585	1.5761e+02	-16.8894	-54.386274	0.000314	3.143128	1.064921	0.000126
1586	1.5771e+02	-16.8525	-54.309569	0.000193	1.926433	0.652693	0.000077
1587	1.5781e+02	-16.8075	-54.208640	0.000253	2.534781	0.858807	0.000101
1588	1.5791e+02	-16.7674	-54.135972	0.000183	1.825042	0.618341	0.000073
1589	1.5801e+02	-16.7338	-54.026969	0.000274	2.737563	0.927511	0.000110
1590	1.5811e+02	-16.6856	-53.942189	0.000213	2.129216	0.721398	0.000085
1591	1.5821e+02	-16.6519	-53.877595	0.000162	1.622260	0.549636	0.000065
1592	1.5830e+02	-16.6038	-53.825112	0.000132	1.318086	0.446580	0.000053
1593	1.5840e+02	-16.5701	-53.699961	0.000314	3.143128	1.064921	0.000126
1594	1.5850e+02	-16.5188	-53.607107	0.000233	2.331998	0.790102	0.000093
1595	1.5860e+02	-16.4883	-53.506179	0.000253	2.534781	0.858807	0.000101
1596	1.5870e+02	-16.4530	-53.409287	0.000243	2.433389	0.824455	0.000097
1597	1.5880e+02	-16.4065	-53.284136	0.000314	3.143128	1.064921	0.000126
1598	1.5890e+02	-16.3728	-53.183208	0.000253	2.534781	0.858807	0.000101
1599	1.5900e+02	-16.3183	-53.082279	0.000253	2.534781	0.858807	0.000101
1600	1.5910e+02	-16.2958	-52.969239	0.000284	2.838954	0.961864	0.000114
1601	1.5920e+02	-16.2541	-52.864274	0.000264	2.636172	0.893159	0.000105
1602	1.5930e+02	-16.2060	-52.779494	0.000213	2.129216	0.721398	0.000085
1603	1.5940e+02	-16.1659	-52.630120	0.000375	3.751475	1.271034	0.000150
1604	1.5950e+02	-16.1225	-52.613972	0.000041	0.405565	0.137409	0.000016
1605	1.5960e+02	-16.0889	-52.444412	0.000426	4.258431	1.442796	0.000170
1606	1.5970e+02	-16.0471	-52.379818	0.000162	1.622260	0.549636	0.000065
1607	1.5980e+02	-16.0151	-52.262741	0.000294	2.940345	0.996216	0.000118
1608	1.5990e+02	-15.9653	-52.218332	0.000112	1.115303	0.377875	0.000045
1609	1.6000e+02	-15.9332	-52.145664	0.000183	1.825042	0.618341	0.000073
1610	1.6010e+02	-15.8883	-52.064921	0.000203	2.027824	0.687046	0.000081
1611	1.6019e+02	-15.8546	-51.943807	0.000304	3.041737	1.030568	0.000122
1612	1.6029e+02	-15.8065	-51.842879	0.000253	2.534781	0.858807	0.000101
1613	1.6039e+02	-15.7696	-51.733876	0.000274	2.737563	0.927511	0.000110
1614	1.6049e+02	-15.7359	-51.628910	0.000264	2.636172	0.893159	0.000105
1615	1.6059e+02	-15.6894	-51.511833	0.000294	2.940345	0.996216	0.000118
1616	1.6069e+02	-15.6477	-51.394757	0.000294	2.940345	0.996216	0.000118
1617	1.6079e+02	-15.6140	-51.322088	0.000183	1.825042	0.618341	0.000073
1618	1.6089e+02	-15.5723	-51.188863	0.000335	3.345910	1.133625	0.000134
1619	1.6099e+02	-15.5322	-51.079860	0.000274	2.737563	0.927511	0.000110
1620	1.6109e+02	-15.4953	-50.995080	0.000213	2.129216	0.721398	0.000085
1621	1.6119e+02	-15.4568	-50.918374	0.000193	1.926433	0.652693	0.000077
1622	1.6129e+02	-15.4167	-50.781112	0.000345	3.447302	1.167977	0.000138
1623	1.6139e+02	-15.3782	-50.672109	0.000274	2.737563	0.927511	0.000110
1624	1.6149e+02	-15.3413	-50.615589	0.000142	1.419477	0.480932	0.000057
1625	1.6159e+02	-15.2932	-50.514661	0.000253	2.534781	0.858807	0.000101
1626	1.6169e+02	-15.2338	-50.437955	0.000193	1.926433	0.652693	0.000077
1627	1.6179e+02	-15.2129	-50.381435	0.000142	1.419477	0.480932	0.000057
1628	1.6189e+02	-15.1648	-50.240136	0.000355	3.548693	1.202330	0.000142
1629	1.6199e+02	-15.1327	-50.159393	0.000203	2.027824	0.687046	0.000081
1630	1.6209e+02	-15.0862	-50.070576	0.000223	2.230607	0.755750	0.000089
1631	1.6219e+02	-15.0477	-49.993870	0.000193	1.926433	0.652693	0.000077
1632	1.6228e+02	-15.0108	-49.860645	0.000335	3.345910	1.133625	0.000134
1633	1.6238e+02	-14.9739	-49.783939	0.000193	1.926433	0.652693	0.000077
1634	1.6248e+02	-14.9322	-49.594194	0.000477	4.765387	1.614557	0.000191
1635	1.6258e+02	-14.8953	-49.505377	0.000223	2.230607	0.755750	0.000089
1636	1.6268e+02	-14.8664	-49.392337	0.000284	2.838954	0.961864	0.000114
1637	1.6278e+02	-14.8167	-49.295446	0.000243	2.433389	0.824455	0.000097
1638	1.6288e+02	-14.7798	-49.182406	0.000284	2.838954	0.961864	0.000114
1639	1.6298e+02	-14.7413	-49.089552	0.000233	2.331998	0.790102	0.000093
1640	1.6308e+02	-14.6980	-48.988624	0.000253	2.534781	0.858807	0.000101
1641	1.6318e+02	-14.6515	-48.887695	0.000253	2.534781	0.858807	0.000101
1642	1.6328e+02	-14.6130	-48.782730	0.000264	2.636172	0.893159	0.000105
1643	1.6338e+02	-14.5841	-48.641430	0.000355	3.548693	1.202330	0.000142
1644	1.6348e+02	-14.5279	-48.605096	0.000091	0.912521	0.309170	0.000037
1645	1.6358e+02	-14.4958	-48.500130	0.000264	2.636172	0.893159	0.000105
1646	1.6368e+02	-14.4493	-48.431499	0.000172	1.723651	0.583989	0.000069
1647	1.6378e+02	-14.4156	-48.257902	0.000436	4.359822	1.477148	0.000174
1648	1.6388e+02	-14.3803	-48.205419	0.000132	1.318086	0.446580	0.000053
1649	1.6398e+02	-14.3370	-48.088342	0.000294	2.940345	0.996216	0.000118
1650	1.6408e+02	-14.2905	-47.975303	0.000284	2.838954	0.961864	0.000114
1651	1.6418e+02	-14.2600	-47.858226	0.000294	2.940345	0.996216	0.000118
1652	1.6427e+02	-14.2199	-47.712889	0.000365	3.650084	1.236682	0.000146
1653	1.6437e+02	-14.1766	-47.636183	0.000193	1.926433	0.652693	0.000077
1654	1.6447e+02	-14.1397	-47.502958	0.000335	3.345910	1.133625	0.000134
1655	1.6457e+02	-14.0980	-47.393955	0.000274	2.737563	0.927511	0.000110
1656	1.6467e+02	-14.0643	-47.256692	0.000345	3.447302	1.167977	0.000138
1657	1.6477e+02	-14.0210	-47.244581	0.000030	0.304174	0.103057	0.000012
1658	1.6487e+02	-13.9873	-47.087133	0.000395	3.954258	1.339739	0.000158
1659	1.6497e+02	-13.9360	-46.990241	0.000243	2.433389	0.824455	0.000097
1660	1.6507e+02	-13.8943	-46.873164	0.000294	2.940345	0.996216	0.000118
1661	1.6517e+02	-13.8542	-46.804533	0.000172	1.723651	0.583989	0.000069
1662	1.6527e+02	-13.8124	-46.675345	0.000324	3.244519	1.099273	0.000130
1663	1.6537e+02	-13.7820	-46.590565	0.000213	2.129216	0.721398	0.000085
1664	1.6547e+02	-13.7419	-46.509822	0.000203	2.027824	0.687046	0.000081
1665	1.6557e+02	-13.7018	-46.408894	0.000253	2.534781	0.858807	0.000101
1666	1.6567e+02	-13.6600	-46.283743	0.000314	3.143128	1.064921	0.000126
1667	1.6577e+02	-13.6247	-46.174740	0.000274	2.737563	0.927511	0.000110
1668	1.6587e+02	-13.5766	-46.053626	0.000304	3.041737	1.030568	0.000122
1669	1.6597e+02	-13.5445	-45.972883	0.000203	2.027824	0.687046	0.000081
1670	1.6607e+02	-13.4980	-45.839658	0.000335	3.345910	1.133625	0.000134
1671	1.6616e+02	-13.4643	-45.678172	0.000406	4.055649	1.374091	0.000162
1672	1.6626e+02	-13.4162	-45.601467	0.000193	1.926433	0.652693	0.000077
1673	1.6636e+02	-13.3857	-45.496501	0.000264	2.636172	0.893159	0.000105
1674	1.6646e+02	-13.3440	-45.375387	0.000304	3.041737	1.030568	0.000122
1675	1.6656e+02	-13.2975	-45.302719	0.000183	1.825042	0.618341	0.000073
1676	1.6666e+02	-13.2622	-45.165456	0.000345	3.447302	1.167977	0.000138
1677	1.6676e+02	-13.2221	-45.060491	0.000264	2.636172	0.893159	0.000105
1678	1.6686e+02	-13.1820	-44.971674	0.000223	2.230607	0.755750	0.000089
1679	1.6696e+02	-13.1355	-44.862671	0.000274	2.737563	0.927511	0.000110
1680	1.6706e+02	-13.0986	-44.806151	0.000142	1.419477	0.480932	0.000057
1681	1.6716e+02	-13.0601	-44.713297	0.000233	2.331998	0.790102	0.000093
1682	1.6726e+02	-13.0183	-44.620443	0.000233	2.331998	0.790102	0.000093
1683	1.6736e+02	-12.9734	-44.499329	0.000304	3.041737	1.030568	0.000122
1684	1.6746e+02	-12.9446	-44.374177	0.000314	3.143128	1.064921	0.000126
1685	1.6756e+02	-12.8900	-44.281323	0.000233	2.331998	0.790102	0.000093
1686	1.6766e+02	-12.8643	-44.135986	0.000365	3.650084	1.236682	0.000146
1687	1.6776e+02	-12.8162	-44.039095	0.000243	2.433389	0.824455	0.000097
1688	1.6786e+02	-12.7873	-43.942204	0.000243	2.433389	0.824455	0.000097
1689	1.6796e+02	-12.7392	-43.748421	0.000487	4.866779	1.648909	0.000195
1690	1.6806e+02	-12.7023	-43.679790	0.000172	1.723651	0.583989	0.000069
1691	1.6816e+02	-12.6686	-43.550602	0.000324	3.244519	1.099273	0.000130
1692	1.6825e+02	-12.6253	-43.453711	0.000243	2.433389	0.824455	0.000097
1693	1.6835e+02	-12.5820	-43.348745	0.000264	2.636172	0.893159	0.000105
1694	1.6845e+02	-12.5483	-43.280114	0.000172	1.723651	0.583989	0.000069
1695	1.6855e+02	-12.5050	-43.195334	0.000213	2.129216	0.721398	0.000085
1696	1.6865e+02	-12.4665	-43.054034	0.000355	3.548693	1.202330	0.000142
1697	1.6875e+02	-12.4264	-42.965217	0.000223	2.230607	0.755750	0.000089
1698	1.6885e+02	-12.3815	-42.876400	0.000223	2.230607	0.755750	0.000089
1699	1.6895e+02	-12.3462	-42.759323	0.000294	2.940345	0.996216	0.000118
1700	1.6905e+02	-12.2964	-42.670506	0.000223	2.230607	0.755750	0.000089
1701	1.6915e+02	-12.2740	-42.533244	0.000345	3.447302	1.167977	0.000138
1702	1.6925e+02	-12.2307	-42.452501	0.000203	2.027824	0.687046	0.000081
1703	1.6935e+02	-12.1809	-42.339461	0.000284	2.838954	0.961864	0.000114
1704	1.6945e+02	-12.1505	-42.234496	0.000264	2.636172	0.893159	0.000105
1705	1.6955e+02	-12.1039	-42.077047	0.000395	3.954258	1.339739	0.000158
1706	1.6965e+02	-12.0719	-41.988230	0.000223	2.230607	0.755750	0.000089
1707	1.6975e+02	-12.0285	-41.818671	0.000426	4.258431	1.442796	0.000170
1708	1.6985e+02	-11.9804	-41.705631	0.000284	2.838954	0.961864	0.000114
1709	1.6995e+02	-11.9419	-41.592591	0.000284	2.838954	0.961864	0.000114
1710	1.7005e+02	-11.9034	-41.507811	0.000213	2.129216	0.721398	0.000085
1711	1.7015e+02	-11.8681	-41.398808	0.000274	2.737563	0.927511	0.000110
1712	1.7024e+02	-11.8216	-41.273657	0.000314	3.143128	1.064921	0.000126
1713	1.7034e+02	-11.7815	-41.136395	0.000345	3.447302	1.167977	0.000138
1714	1.7044e+02	-11.7398	-41.075838	0.000152	1.520868	0.515284	0.000061
1715	1.7054e+02	-11.7061	-40.995095	0.000203	2.027824	0.687046	0.000081
1716	1.7064e+02	-11.6692	-40.882055	0.000284	2.838954	0.961864	0.000114
1717	1.7074e+02	-11.6355	-40.801312	0.000203	2.027824	0.687046	0.000081
1718	1.7084e+02	-11.5890	-40.639827	0.000406	4.055649	1.374091	0.000162
1719	1.7094e+02	-11.5537	-40.530824	0.000274	2.737563	0.927511	0.000110
1720	1.7104e+02	-11.5136	-40.450082	0.000203	2.027824	0.687046	0.000081
1721	1.7114e+02	-11.4622	-40.333005	0.000294	2.940345	0.996216	0.000118
1722	1.7124e+02	-11.4302	-40.236113	0.000243	2.433389	0.824455	0.000097
1723	1.7134e+02	-11.3868	-40.110962	0.000314	3.143128	1.064921	0.000126
1724	1.7144e+02	-11.3532	-39.989848	0.000304	3.041737	1.030568	0.000122
1725	1.7154e+02	-11.3130	-39.828363	0.000406	4.055649	1.374091	0.000162
1726	1.7164e+02	-11.2697	-39.767806	0.000152	1.520868	0.515284	0.000061
1727	1.7174e+02	-11.2377	-39.666877	0.000253	2.534781	0.858807	0.000101
1728	1.7184e+02	-11.1975	-39.537689	0.000324	3.244519	1.099273	0.000130
1729	1.7194e+02	-11.1542	-39.428686	0.000274	2.737563	0.927511	0.000110
1730	1.7204e+02	-11.1093	-39.323721	0.000264	2.636172	0.893159	0.000105
1731	1.7213e+02	-11.0612	-39.234904	0.000223	2.230607	0.755750	0.000089
1732	1.7223e+02	-11.0339	-39.133975	0.000253	2.534781	0.858807	0.000101
1733	1.7233e+02	-10.9938	-39.045158	0.000223	2.230607	0.755750	0.000089
1734	1.7243e+02	-10.9521	-38.944230	0.000253	2.534781	0.858807	0.000101
1735	1.7253e+02	-10.9072	-38.819079	0.000314	3.143128	1.064921	0.000126
1736	1.7263e+02	-10.8655	-38.681816	0.000345	3.447302	1.167977	0.000138
1737	1.7273e+02	-10.8382	-38.621259	0.000152	1.520868	0.515284	0.000061
1738	1.7283e+02	-10.7901	-38.492071	0.000324	3.244519	1.099273	0.000130
1739	1.7293e+02	-10.7484	-38.358845	0.000335	3.345910	1.133625	0.000134
1740	1.7303e+02	-10.7099	-38.290214	0.000172	1.723651	0.583989	0.000069
1741	1.7313e+02	-10.6762	-38.112580	0.000446	4.461214	1.511500	0.000179
1742	1.7323e+02	-10.6264	-37.995503	0.000294	2.940345	0.996216	0.000118
1743	1.7333e+02	-10.5895	-37.854203	0.000355	3.548693	1.202330	0.000142
1744	1.7343e+02	-10.5575	-37.745201	0.000274	2.737563	0.927511	0.000110
1745	1.7353e+02	-10.5061	-37.644272	0.000253	2.534781	0.858807	0.000101
1746	1.7363e+02	-10.4692	-37.531232	0.000284	2.838954	0.961864	0.000114
1747	1.7373e+02	-10.4323	-37.462601	0.000172	1.723651	0.583989	0.000069
1748	1.7383e+02	-10.3922	-37.341487	0.000304	3.041737	1.030568	0.000122
1749	1.7393e+02	-10.3457	-37.232484	0.000274	2.737563	0.927511	0.000110
1750	1.7403e+02	-10.3152	-37.119445	0.000284	2.838954	0.961864	0.000114
1751	1.7413e+02	-10.2719	-37.038702	0.000203	2.027824	0.687046	0.000081
1752	1.7422e+02	-10.2270	-36.937773	0.000253	2.534781	0.858807	0.000101
1753	1.7432e+02	-10.1917	-36.828771	0.000274	2.737563	0.927511	0.000110
1754	1.7442e+02	-10.1660	-36.691508	0.000345	3.447302	1.167977	0.000138
1755	1.7452e+02	-10.1083	-36.582505	0.000274	2.737563	0.927511	0.000110
1756	1.7462e+02	-10.0762	-36.481577	0.000253	2.534781	0.858807	0.000101
1757	1.7472e+02	-10.0377	-36.364500	0.000294	2.940345	0.996216	0.000118
1758	1.7482e+02	-9.9928	-36.211089	0.000385	3.852866	1.305386	0.000154
1759	1.7492e+02	-9.9543	-36.077864	0.000335	3.345910	1.133625	0.000134
1760	1.7502e+02	-9.9126	-35.997121	0.000203	2.027824	0.687046	0.000081
1761	1.7512e+02	-9.8837	-35.823524	0.000436	4.359822	1.477148	0.000174
1762	1.7522e+02	-9.8275	-35.690298	0.000335	3.345910	1.133625	0.000134
1763	1.7532e+02	-9.8035	-35.637816	0.000132	1.318086	0.446580	0.000053
1764	1.7542e+02	-9.7537	-35.520739	0.000294	2.940345	0.996216	0.000118
1765	1.7552e+02	-9.7120	-35.452107	0.000172	1.723651	0.583989	0.000069
1766	1.7562e+02	-9.6703	-35.302733	0.000375	3.751475	1.271034	0.000150
1767	1.7572e+02	-9.6414	-35.193731	0.000274	2.737563	0.927511	0.000110
1768	1.7582e+02	-9.5965	-35.092802	0.000253	2.534781	0.858807	0.000101
1769	1.7592e+02	-9.5596	-34.999948	0.000233	2.331998	0.790102	0.000093
1770	1.7602e+02	-9.5163	-34.850574	0.000375	3.751475	1.271034	0.000150
1771	1.7612e+02	-9.4762	-34.757720	0.000233	2.331998	0.790102	0.000093
1772	1.7621e+02	-9.4329	-34.672940	0.000213	2.129216	0.721398	0.000085
1773	1.7631e+02	-9.3960	-34.523566	0.000375	3.751475	1.271034	0.000150
1774	1.7641e+02	-9.3623	-34.422638	0.000253	2.534781	0.858807	0.000101
1775	1.7651e+02	-9.3238	-34.281338	0.000355	3.548693	1.202330	0.000142
1776	1.7661e+02	-9.2837	-34.119853	0.000406	4.055649	1.374091	0.000162
1777	1.7671e+02	-9.2372	-33.970479	0.000375	3.751475	1.271034	0.000150
1778	1.7681e+02	-9.2067	-33.905884	0.000162	1.622260	0.549636	0.000065
1779	1.7691e+02	-9.1618	-33.784770	0.000304	3.041737	1.030568	0.000122
1780	1.7701e+02	-9.1169	-33.667693	0.000294	2.940345	0.996216	0.000118
1781	1.7711e+02	-9.0784	-33.542542	0.000314	3.143128	1.064921	0.000126
1782	1.7721e+02	-9.0302	-33.473911	0.000172	1.723651	0.583989	0.000069
1783	1.7731e+02	-8.9949	-33.360871	0.000284	2.838954	0.961864	0.000114
1784	1.7741e+02	-8.9580	-33.251869	0.000274	2.737563	0.927511	0.000110
1785	1.7751e+02	-8.9195	-33.171126	0.000203	2.027824	0.687046	0.000081
1786	1.7761e+02	-8.8746	-33.025789	0.000365	3.650084	1.236682	0.000146
1787	1.7771e+02	-8.8409	-32.932935	0.000233	2.331998	0.790102	0.000093
1788	1.7781e+02	-8.7976	-32.811821	0.000304	3.041737	1.030568	0.000122
1789	1.7791e+02	-8.7623	-32.714929	0.000243	2.433389	0.824455	0.000097
1790	1.7801e+02	-8.7158	-32.597853	0.000294	2.940345	0.996216	0.000118
1791	1.7810e+02	-8.6821	-32.452516	0.000365	3.650084	1.236682	0.000146
1792	1.7820e+02	-8.6404	-32.343513	0.000274	2.737563	0.927511	0.000110
1793	1.7830e+02	-8.6035	-32.226436	0.000294	2.940345	0.996216	0.000118
1794	1.7840e+02	-8.5618	-32.089173	0.000345	3.447302	1.167977	0.000138
1795	1.7850e+02	-8.5185	-31.959985	0.000324	3.244519	1.099273	0.000130
1796	1.7860e+02	-8.4912	-31.838871	0.000304	3.041737	1.030568	0.000122
1797	1.7870e+02	-8.4367	-31.746017	0.000233	2.331998	0.790102	0.000093
1798	1.7880e+02	-8.4014	-31.600680	0.000365	3.650084	1.236682	0.000146
1799	1.7890e+02	-8.3548	-31.495714	0.000264	2.636172	0.893159	0.000105
1800	1.7900e+02	-8.3163	-31.431120	0.000162	1.622260	0.549636	0.000065
1801	1.7910e+02	-8.2794	-31.318080	0.000284	2.838954	0.961864	0.000114
1802	1.7920e+02	-8.2345	-31.140447	0.000446	4.461214	1.511500	0.000179
1803	1.7930e+02	-8.2024	-31.051630	0.000223	2.230607	0.755750	0.000089
1804	1.7940e+02	-8.1639	-30.946664	0.000264	2.636172	0.893159	0.000105
1805	1.7950e+02	-8.1286	-30.809401	0.000345	3.447302	1.167977	0.000138
1806	1.7960e+02	-8.0821	-30.708473	0.000253	2.534781	0.858807	0.000101
1807	1.7970e+02	-8.0404	-30.603507	0.000264	2.636172	0.893159	0.000105
1808	1.7980e+02	-8.0019	-30.494505	0.000274	2.737563	0.927511	0.000110
1809	1.7990e+02	-7.9602	-30.345131	0.000375	3.751475	1.271034	0.000150
1810	1.8000e+02	-7.9201	-30.224017	0.000304	3.041737	1.030568	0.000122
1811	1.8009e+02	-7.8816	-30.110977	0.000284	2.838954	0.961864	0.000114
1812	1.8019e+02	-7.8415	-29.973714	0.000345	3.447302	1.167977	0.000138
1813	1.8029e+02	-7.7998	-29.792043	0.000456	4.562605	1.545852	0.000183
1814	1.8039e+02	-7.7581	-29.658818	0.000335	3.345910	1.133625	0.000134
1815	1.8049e+02	-7.7164	-29.570001	0.000223	2.230607	0.755750	0.000089
1816	1.8059e+02	-7.6779	-29.493295	0.000193	1.926433	0.652693	0.000077
1817	1.8069e+02	-7.6426	-29.356033	0.000345	3.447302	1.167977	0.000138
1818	1.8079e+02	-7.6041	-29.238956	0.000294	2.940345	0.996216	0.000118
1819	1.8089e+02	-7.5591	-29.089582	0.000375	3.751475	1.271034	0.000150
1820	1.8099e+02	-7.5190	-29.016913	0.000183	1.825042	0.618341	0.000073
1821	1.8109e+02	-7.4773	-28.891762	0.000314	3.143128	1.064921	0.000126
1822	1.8119e+02	-7.4420	-28.782759	0.000274	2.737563	0.927511	0.000110
1823	1.8129e+02	-7.4019	-28.685868	0.000243	2.433389	0.824455	0.000097
1824	1.8139e+02	-7.3634	-28.536494	0.000375	3.751475	1.271034	0.000150
1825	1.8149e+02	-7.3217	-28.399231	0.000345	3.447302	1.167977	0.000138
1826	1.8159e+02	-7.2880	-28.314451	0.000213	2.129216	0.721398	0.000085
1827	1.8169e+02	-7.2463	-28.185263	0.000324	3.244519	1.099273	0.000130
1828	1.8179e+02	-7.2014	-28.043963	0.000355	3.548693	1.202330	0.000142
1829	1.8189e+02	-7.1677	-27.922849	0.000304	3.041737	1.030568	0.000122
1830	1.8199e+02	-7.1276	-27.753290	0.000426	4.258431	1.442796	0.000170
1831	1.8209e+02	-7.0859	-27.656398	0.000243	2.433389	0.824455	0.000097
1832	1.8218e+02	-7.0538	-27.523173	0.000335	3.345910	1.133625	0.000134
1833	1.8228e+02	-7.0009	-27.406096	0.000294	2.940345	0.996216	0.000118
1834	1.8238e+02	-6.9608	-27.329390	0.000193	1.926433	0.652693	0.000077
1835	1.8248e+02	-6.9191	-27.196165	0.000335	3.345910	1.133625	0.000134
1836	1.8258e+02	-6.8790	-27.103311	0.000233	2.331998	0.790102	0.000093
1837	1.8268e+02	-6.8469	-26.990271	0.000284	2.838954	0.961864	0.000114
1838	1.8278e+02	-6.8084	-26.844934	0.000365	3.650084	1.236682	0.000146
1839	1.8288e+02	-6.7634	-26.744006	0.000253	2.534781	0.858807	0.000101
1840	1.8298e+02	-6.7217	-26.622892	0.000304	3.041737	1.030568	0.000122
1841	1.8308e+02	-6.6913	-26.501778	0.000304	3.041737	1.030568	0.000122
1842	1.8318e+02	-6.6415	-26.344329	0.000395	3.954258	1.339739	0.000158
1843	1.8328e+02	-6.6046	-26.267624	0.000193	1.926433	0.652693	0.000077
1844	1.8338e+02	-6.5629	-26.089990	0.000446	4.461214	1.511500	0.000179
1845	1.8348e+02	-6.5260	-25.997136	0.000233	2.331998	0.790102	0.000093
1846	1.8358e+02	-6.4923	-25.871984	0.000314	3.143128	1.064921	0.000126
1847	1.8368e+02	-6.4426	-25.722610	0.000375	3.751475	1.271034	0.000150
1848	1.8378e+02	-6.4121	-25.613608	0.000274	2.737563	0.927511	0.000110
1849	1.8388e+02	-6.3752	-25.472308	0.000355	3.548693	1.202330	0.000142
1850	1.8398e+02	-6.3319	-25.343120	0.000324	3.244519	1.099273	0.000130
1851	1.8407e+02	-6.2838	-25.278525	0.000162	1.622260	0.549636	0.000065
1852	1.8417e+02	-6.2437	-25.177597	0.000253	2.534781	0.858807	0.000101
1853	1.8427e+02	-6.2052	-25.024186	0.000385	3.852866	1.305386	0.000154
1854	1.8437e+02	-6.1731	-24.903072	0.000304	3.041737	1.030568	0.000122
1855	1.8447e+02	-6.1330	-24.794069	0.000274	2.737563	0.927511	0.000110
1856	1.8457e+02	-6.0945	-24.676992	0.000294	2.940345	0.996216	0.000118
1857	1.8467e+02	-6.0640	-24.555878	0.000304	3.041737	1.030568	0.000122
1858	1.8477e+02	-6.0095	-24.422653	0.000335	3.345910	1.133625	0.000134
1859	1.8487e+02	-5.9726	-24.321724	0.000253	2.534781	0.858807	0.000101
1860	1.8497e+02	-5.9308	-24.196573	0.000314	3.143128	1.064921	0.000126
1861	1.8507e+02	-5.8859	-24.071422	0.000314	3.143128	1.064921	0.000126
1862	1.8517e+02	-5.8522	-23.934159	0.000345	3.447302	1.167977	0.000138
1863	1.8527e+02	-5.8137	-23.829194	0.000264	2.636172	0.893159	0.000105
1864	1.8537e+02	-5.7720	-23.635411	0.000487	4.866779	1.648909	0.000195
1865	1.8547e+02	-5.7319	-23.554668	0.000203	2.027824	0.687046	0.000081
1866	1.8557e+02	-5.6966	-23.441629	0.000284	2.838954	0.961864	0.000114
1867	1.8567e+02	-5.6613	-23.259958	0.000456	4.562605	1.545852	0.000183
1868	1.8577e+02	-5.6196	-23.134806	0.000314	3.143128	1.064921	0.000126
1869	1.8587e+02	-5.5651	-23.090398	0.000112	1.115303	0.377875	0.000045
1870	1.8597e+02	-5.5314	-22.969284	0.000304	3.041737	1.030568	0.000122
1871	1.8606e+02	-5.4977	-22.819910	0.000375	3.751475	1.271034	0.000150
1872	1.8616e+02	-5.4592	-22.670536	0.000375	3.751475	1.271034	0.000150
1873	1.8626e+02	-5.4111	-22.605942	0.000162	1.622260	0.549636	0.000065
1874	1.8636e+02	-5.3742	-22.492902	0.000284	2.838954	0.961864	0.000114
1875	1.8646e+02	-5.3373	-22.319305	0.000436	4.359822	1.477148	0.000174
1876	1.8656e+02	-5.2940	-22.206265	0.000284	2.838954	0.961864	0.000114
1877	1.8666e+02	-5.2523	-22.077077	0.000324	3.244519	1.099273	0.000130
1878	1.8676e+02	-5.2122	-21.939814	0.000345	3.447302	1.167977	0.000138
1879	1.8686e+02	-5.1785	-21.806589	0.000335	3.345910	1.133625	0.000134
1880	1.8696e+02	-5.1448	-21.725846	0.000203	2.027824	0.687046	0.000081
1881	1.8706e+02	-5.0950	-21.564361	0.000406	4.055649	1.374091	0.000162
1882	1.8716e+02	-5.0565	-21.398838	0.000416	4.157040	1.408443	0.000166
1883	1.8726e+02	-5.0212	-21.293872	0.000264	2.636172	0.893159	0.000105
1884	1.8736e+02	-4.9763	-21.140461	0.000385	3.852866	1.305386	0.000154
1885	1.8746e+02	-4.9394	-21.051644	0.000223	2.230607	0.755750	0.000089
1886	1.8756e+02	-4.8881	-20.926493	0.000314	3.143128	1.064921	0.000126
1887	1.8766e+02	-4.8544	-20.813453	0.000284	2.838954	0.961864	0.000114
1888	1.8776e+02	-4.8111	-20.700413	0.000284	2.838954	0.961864	0.000114
1889	1.8786e+02	-4.7694	-20.555077	0.000365	3.650084	1.236682	0.000146
1890	1.8796e+02	-4.7357	-20.494520	0.000152	1.520868	0.515284	0.000061
1891	1.8806e+02	-4.6972	-20.345146	0.000375	3.751475	1.271034	0.000150
1892	1.8815e+02	-4.6603	-20.207883	0.000345	3.447302	1.167977	0.000138
1893	1.8825e+02	-4.6154	-20.098880	0.000274	2.737563	0.927511	0.000110
1894	1.8835e+02	-4.5753	-19.957581	0.000355	3.548693	1.202330	0.000142
1895	1.8845e+02	-4.5352	-19.856652	0.000253	2.534781	0.858807	0.000101
1896	1.8855e+02	-4.4983	-19.751687	0.000264	2.636172	0.893159	0.000105
1897	1.8865e+02	-4.4598	-19.586164	0.000416	4.157040	1.408443	0.000166
1898	1.8875e+02	-4.4148	-19.448901	0.000345	3.447302	1.167977	0.000138
1899	1.8885e+02	-4.3780	-19.319713	0.000324	3.244519	1.099273	0.000130
1900	1.8895e+02	-4.3378	-19.166302	0.000385	3.852866	1.305386	0.000154
1901	1.8905e+02	-4.3026	-19.049225	0.000294	2.940345	0.996216	0.000118
1902	1.8915e+02	-4.2641	-18.907925	0.000355	3.548693	1.202330	0.000142
1903	1.8925e+02	-4.2143	-18.827183	0.000203	2.027824	0.687046	0.000081
1904	1.8935e+02	-4.1903	-18.689920	0.000345	3.447302	1.167977	0.000138
1905	1.8945e+02	-4.1453	-18.609177	0.000203	2.027824	0.687046	0.000081
1906	1.8955e+02	-4.0988	-18.488063	0.000304	3.041737	1.030568	0.000122
1907	1.8965e+02	-4.0619	-18.350800	0.000345	3.447302	1.167977	0.000138
1908	1.8975e+02	-4.0266	-18.229686	0.000304	3.041737	1.030568	0.000122
1909	1.8985e+02	-3.9737	-18.128758	0.000253	2.534781	0.858807	0.000101
1910	1.8995e+02	-3.9352	-17.955161	0.000436	4.359822	1.477148	0.000174
1911	1.9004e+02	-3.8951	-17.866344	0.000223	2.230607	0.755750	0.000089
1912	1.9014e+02	-3.8550	-17.737156	0.000324	3.244519	1.099273	0.000130
1913	1.9024e+02	-3.8277	-17.599893	0.000345	3.447302	1.167977	0.000138
1914	1.9034e+02	-3.7812	-17.462631	0.000345	3.447302	1.167977	0.000138
1915	1.9044e+02	-3.7298	-17.317294	0.000365	3.650084	1.236682	0.000146
1916	1.9054e+02	-3.6978	-17.228477	0.000223	2.230607	0.755750	0.000089
1917	1.9064e+02	-3.6721	-17.038731	0.000477	4.765387	1.614557	0.000191
1918	1.9074e+02	-3.6240	-16.917617	0.000304	3.041737	1.030568	0.000122
1919	1.9084e+02	-3.5774	-16.768243	0.000375	3.751475	1.271034	0.000150
1920	1.9094e+02	-3.5325	-16.683463	0.000213	2.129216	0.721398	0.000085
1921	1.9104e+02	-3.4940	-16.594646	0.000223	2.230607	0.755750	0.000089
1922	1.9114e+02	-3.4475	-16.485644	0.000274	2.737563	0.927511	0.000110
1923	1.9124e+02	-3.4154	-16.336270	0.000375	3.751475	1.271034	0.000150
1924	1.9134e+02	-3.3769	-16.199007	0.000345	3.447302	1.167977	0.000138
1925	1.9144e+02	-3.3384	-16.102116	0.000243	2.433389	0.824455	0.000097
1926	1.9154e+02	-3.3127	-15.981002	0.000304	3.041737	1.030568	0.000122
1927	1.9164e+02	-3.2582	-15.843739	0.000345	3.447302	1.167977	0.000138
1928	1.9174e+02	-3.2197	-15.698402	0.000365	3.650084	1.236682	0.000146
1929	1.9184e+02	-3.1876	-15.577288	0.000304	3.041737	1.030568	0.000122
1930	1.9194e+02	-3.1395	-15.452137	0.000314	3.143128	1.064921	0.000126
1931	1.9203e+02	-3.1042	-15.298726	0.000385	3.852866	1.305386	0.000154
1932	1.9213e+02	-3.0657	-15.197797	0.000253	2.534781	0.858807	0.000101
1933	1.9223e+02	-3.0240	-15.036312	0.000406	4.055649	1.374091	0.000162
1934	1.9233e+02	-2.9919	-14.878864	0.000395	3.954258	1.339739	0.000158
1935	1.9243e+02	-2.9422	-14.741601	0.000345	3.447302	1.167977	0.000138
1936	1.9253e+02	-2.9005	-14.648747	0.000233	2.331998	0.790102	0.000093
1937	1.9263e+02	-2.8700	-14.507447	0.000355	3.548693	1.202330	0.000142
1938	1.9273e+02	-2.8234	-14.402482	0.000264	2.636172	0.893159	0.000105
1939	1.9283e+02	-2.7898	-14.273293	0.000324	3.244519	1.099273	0.000130
1940	1.9293e+02	-2.7368	-14.164291	0.000274	2.737563	0.927511	0.000110
1941	1.9303e+02	-2.7095	-14.006842	0.000395	3.954258	1.339739	0.000158
1942	1.9313e+02	-2.6630	-13.913988	0.000233	2.331998	0.790102	0.000093
1943	1.9323e+02	-2.6245	-13.788837	0.000314	3.143128	1.064921	0.000126
1944	1.9333e+02	-2.5812	-13.679834	0.000274	2.737563	0.927511	0.000110
1945	1.9343e+02	-2.5427	-13.518349	0.000406	4.055649	1.374091	0.000162
1946	1.9353e+02	-2.5122	-13.393198	0.000314	3.143128	1.064921	0.000126
1947	1.9363e+02	-2.4625	-13.272084	0.000304	3.041737	1.030568	0.000122
1948	1.9373e+02	-2.4288	-13.142895	0.000324	3.244519	1.099273	0.000130
1949	1.9383e+02	-2.3935	-13.001596	0.000355	3.548693	1.202330	0.000142
1950	1.9393e+02	-2.3374	-12.864333	0.000345	3.447302	1.167977	0.000138
1951	1.9403e+02	-2.2989	-12.747256	0.000294	2.940345	0.996216	0.000118
1952	1.9412e+02	-2.2700	-12.573659	0.000436	4.359822	1.477148	0.000174
1953	1.9422e+02	-2.2251	-12.428322	0.000365	3.650084	1.236682	0.000146
1954	1.9432e+02	-2.1882	-12.319320	0.000274	2.737563	0.927511	0.000110
1955	1.9442e+02	-2.1400	-12.190131	0.000324	3.244519	1.099273	0.000130
1956	1.9452e+02	-2.1064	-12.069017	0.000304	3.041737	1.030568	0.000122
1957	1.9462e+02	-2.0791	-11.980200	0.000223	2.230607	0.755750	0.000089
1958	1.9472e+02	-2.0245	-11.846975	0.000335	3.345910	1.133625	0.000134
1959	1.9482e+02	-1.9876	-11.713749	0.000335	3.345910	1.133625	0.000134
1960	1.9492e+02	-1.9475	-11.604747	0.000274	2.737563	0.927511	0.000110
1961	1.9502e+02	-1.9138	-11.511893	0.000233	2.331998	0.790102	0.000093
1962	1.9512e+02	-1.8753	-11.366556	0.000365	3.650084	1.236682	0.000146
1963	1.9522e+02	-1.8192	-11.225256	0.000355	3.548693	1.202330	0.000142
1964	1.9532e+02	-1.7775	-11.112216	0.000284	2.838954	0.961864	0.000114
1965	1.9542e+02	-1.7502	-11.003213	0.000274	2.737563	0.927511	0.000110
1966	1.9552e+02	-1.7149	-10.849802	0.000385	3.852866	1.305386	0.000154
1967	1.9562e+02	-1.6620	-10.712540	0.000345	3.447302	1.167977	0.000138
1968	1.9572e+02	-1.6315	-10.551054	0.000406	4.055649	1.374091	0.000162
1969	1.9582e+02	-1.5930	-10.429940	0.000304	3.041737	1.030568	0.000122
1970	1.9592e+02	-1.5433	-10.296715	0.000335	3.345910	1.133625	0.000134
1971	1.9601e+02	-1.5160	-10.139266	0.000395	3.954258	1.339739	0.000158
1972	1.9611e+02	-1.4663	-9.985855	0.000385	3.852866	1.305386	0.000154
1973	1.9621e+02	-1.4310	-9.852630	0.000335	3.345910	1.133625	0.000134
1974	1.9631e+02	-1.3845	-9.759776	0.000233	2.331998	0.790102	0.000093
1975	1.9641e+02	-1.3443	-9.654810	0.000264	2.636172	0.893159	0.000105
1976	1.9651e+02	-1.3026	-9.529659	0.000314	3.143128	1.064921	0.000126
1977	1.9661e+02	-1.2706	-9.404508	0.000314	3.143128	1.064921	0.000126
1978	1.9671e+02	-1.2256	-9.319728	0.000213	2.129216	0.721398	0.000085
1979	1.9681e+02	-1.1855	-9.093648	0.000568	5.677908	1.923727	0.000227
1980	1.9691e+02	-1.1502	-8.988683	0.000264	2.636172	0.893159	0.000105
1981	1.9701e+02	-1.1214	-8.879680	0.000274	2.737563	0.927511	0.000110
1982	1.9711e+02	-1.0700	-8.718195	0.000406	4.055649	1.374091	0.000162
1983	1.9721e+02	-1.0299	-8.617266	0.000253	2.534781	0.858807	0.000101
1984	1.9731e+02	-0.9898	-8.447707	0.000426	4.258431	1.442796	0.000170
1985	1.9741e+02	-0.9449	-8.322555	0.000314	3.143128	1.064921	0.000126
1986	1.9751e+02	-0.9096	-8.213553	0.000274	2.737563	0.927511	0.000110
1987	1.9761e+02	-0.8743	-8.048030	0.000416	4.157040	1.408443	0.000166
1988	1.9771e+02	-0.8406	-7.926916	0.000304	3.041737	1.030568	0.000122
1989	1.9781e+02	-0.7925	-7.716985	0.000527	5.272343	1.786318	0.000211
1990	1.9791e+02	-0.7620	-7.612019	0.000264	2.636172	0.893159	0.000105
1991	1.9800e+02	-0.7139	-7.446497	0.000416	4.157040	1.408443	0.000166
1992	1.9810e+02	-0.6642	-7.337494	0.000274	2.737563	0.927511	0.000110
1993	1.9820e+02	-0.6369	-7.236566	0.000253	2.534781	0.858807	0.000101
1994	1.9830e+02	-0.5791	-7.147749	0.000223	2.230607	0.755750	0.000089
1995	1.9840e+02	-0.5486	-7.022598	0.000314	3.143128	1.064921	0.000126
1996	1.9850e+02	-0.5037	-6.857075	0.000416	4.157040	1.408443	0.000166
1997	1.9860e+02	-0.4749	-6.788444	0.000172	1.723651	0.583989	0.000069
1998	1.9870e+02	-0.4283	-6.594661	0.000487	4.866779	1.648909	0.000195
1999	1.9880e+02	-0.4011	-6.461436	0.000335	3.345910	1.133625	0.000134
2000	1.9890e+02	-0.3577	-6.372619	0.000223	2.230607	0.755750	0.000089
2001	1.9900e+02	-0.3160	-6.247468	0.000314	3.143128	1.064921	0.000126
2002	1.9910e+02	-0.2807	-6.118279	0.000324	3.244519	1.099273	0.000130
2003	1.9920e+02	-0.2342	-5.948720	0.000426	4.258431	1.442796	0.000170
2004	1.9930e+02	-0.1973	-5.823568	0.000314	3.143128	1.064921	0.000126
2005	1.9940e+02	-0.1556	-5.666120	0.000395	3.954258	1.339739	0.000158
2006	1.9950e+02	-0.1203	-5.520783	0.000365	3.650084	1.236682	0.000146
2007	1.9960e+02	-0.0786	-5.375446	0.000365	3.650084	1.236682	0.000146
2008	1.9970e+02	-0.0401	-5.242221	0.000335	3.345910	1.133625	0.000134
2009	1.9980e+02	0.0080	-5.121107	0.000335	3.345910	1.133625	0.000122

PMax (uC/cm2):	6.51e+01
Pr (uC/cm2):	4.52e+00
-Pr (uC/cm2):	-1.09e+00
PLoss (uC/cm2):	-1.04e+00
-Vc:	-1.36e+00
C (Max-Eff) (nF):	3.26e-01
K (Eff):	1.10e+03
Vert. (+/-Pr) Shift (uC/cm2):	1.71e+00
Offset (uC/cm2):	4.03e+00

A (Loop Area - uC/cm2·Volts):	9.33e-04



Hysteresis Version: 5.48.1 - Radiant Technologies, Inc., 1999 - 9/12/24

