»»»»»»»»»»»»»»»»»»»»»»»»»»»»»»»»»»»» Hysteresis ««««««««««««««««««««««««««««««««««««
»»»  Executed Version:	5.48.1
»»»  Vision Version:	5.48.4 (R)
»»»  Vision Compiled:	9/18/24
»»»  Driver Version:	5.47.0
»»»  Windows Version:	Windows 8 or 8.1
»»»  Processor Information:	x86 (AMD or Intel) - 32 Processors
»»»  Tester Name:	PMF21124-494 (100V)
»»»  Tester S/N:	PMF21124-494
»»»  Internal Amp Type:	100V RevK 270k
»»»  Internal Amp S/N:	iAB2-596/K     
»»»  Execution Count:	1
»»»»»»»»»»»»»»»»»»»»»»»»»»»»»»»»»»»»»»»»»»««««««««««««««««««««««««««««««««««««««««««

Stored:	6/19/2025 - 15:32:24
Configured:	06/19/25 10:04:32 AM
Executed:	06/19/25 03:32:01 PM

»»»»»»»»»»»»»»»»»»»»»»»»»»»»»»»»»»» Sample Info ««««««««««««««««««««««««««««««««««««
Sample Name:	
Lot Name:	
Wafer Name:	
Die Row/Column:	0/0
Capacitor Number:	0
Sample Area (cm2):	1.00e-04
Sample Thickness (microns):	3.00e-01

Amplifier:	Internal

»»»»»»»»»»»»»»»»»»»»»»»»»»»»»»»»»»» Tester Info «««««««««««««««««««««««««««««««««««
Tester Name:	PMF21124-494 (100V)
Tester Serial Number:	PMF21124-494
Return Signal Amp. Level:	0.19 [Index: 3]

»»»»»»»»»»»»»»»»»»»»»»»»»»»»»»»» Hysteresis Info ««««««««««««««««««««««««««««««««««
Task Name:	Hyst-1168
Volts:	20.00
Field:	666.67 (kV/cm)
DCBias:	0.00
DCField:	0.00 (kV/cm)
Hysteresis Period (ms):	2.00e+02
Preset:	Enabled
Preset Delay (ms):	1.00e+03
Profile:	Standard Bipolar

»»»»»»»»»»»»»»»»»»»»»»»»»»»»»»»»»»»»»» Data «««««««««««««««««««««««««««««««««««««««
Points:	2009

Valid Data

Point	Time (ms)	Drive Voltage	Measured Polarization (uC/cm2)	Capacitance (uF)	Normalized Capacitance (uF/cm2)	Dielectric Constant	Instantaneous Current (mA)
   1	0.0000e+00	0.0048	-2.993536	0.000314	3.142182	1.064600	0.000126
   2	9.9500e-02	0.0417	-2.868385	0.000314	3.142182	1.064600	0.000126
   3	1.9900e-01	0.0786	-2.779568	0.000223	2.229936	0.755523	0.000089
   4	2.9850e-01	0.1155	-2.646342	0.000334	3.344904	1.133284	0.000134
   5	3.9800e-01	0.1556	-2.472746	0.000436	4.358511	1.476703	0.000174
   6	4.9750e-01	0.1925	-2.375854	0.000243	2.432657	0.824207	0.000097
   7	5.9700e-01	0.2374	-2.274926	0.000253	2.534018	0.858548	0.000101
   8	6.9650e-01	0.2647	-2.169960	0.000264	2.635379	0.892890	0.000105
   9	7.9600e-01	0.3208	-2.056921	0.000284	2.838100	0.961574	0.000114
  10	8.9550e-01	0.3465	-1.911584	0.000365	3.648986	1.236310	0.000146
  11	9.9500e-01	0.4043	-1.822767	0.000223	2.229936	0.755523	0.000089
  12	1.0945e+00	0.4364	-1.673393	0.000375	3.750346	1.270652	0.000150
  13	1.1940e+00	0.4684	-1.536130	0.000345	3.446264	1.167626	0.000138
  14	1.2935e+00	0.5150	-1.382719	0.000385	3.851707	1.304994	0.000154
  15	1.3930e+00	0.5535	-1.289865	0.000233	2.331296	0.789865	0.000093
  16	1.4925e+00	0.5888	-1.160677	0.000324	3.243543	1.098942	0.000130
  17	1.5920e+00	0.6305	-1.055711	0.000264	2.635379	0.892890	0.000105
  18	1.6915e+00	0.6690	-0.902300	0.000385	3.851707	1.304994	0.000154
  19	1.7910e+00	0.7155	-0.765037	0.000345	3.446264	1.167626	0.000138
  20	1.8905e+00	0.7524	-0.664109	0.000253	2.534018	0.858548	0.000101
  21	1.9900e+00	0.7957	-0.563180	0.000253	2.534018	0.858548	0.000101
  22	2.0895e+00	0.8358	-0.401695	0.000405	4.054429	1.373678	0.000162
  23	2.1890e+00	0.8679	-0.288655	0.000284	2.838100	0.961574	0.000114
  24	2.2885e+00	0.9128	-0.163504	0.000314	3.142182	1.064600	0.000126
  25	2.3880e+00	0.9481	-0.042390	0.000304	3.040821	1.030258	0.000122
  26	2.4875e+00	0.9994	0.115058	0.000395	3.953068	1.339336	0.000158
  27	2.5870e+00	1.0299	0.244247	0.000324	3.243543	1.098942	0.000130
  28	2.6865e+00	1.0813	0.329027	0.000213	2.128575	0.721181	0.000085
  29	2.7860e+00	1.1085	0.478401	0.000375	3.750346	1.270652	0.000150
  30	2.8855e+00	1.1518	0.619700	0.000355	3.547625	1.201968	0.000142
  31	2.9850e+00	1.2016	0.732740	0.000284	2.838100	0.961574	0.000114
  32	3.0845e+00	1.2369	0.837706	0.000264	2.635379	0.892890	0.000105
  33	3.1840e+00	1.2738	0.962857	0.000314	3.142182	1.064600	0.000126
  34	3.2835e+00	1.3171	1.088008	0.000314	3.142182	1.064600	0.000126
  35	3.3830e+00	1.3508	1.229308	0.000355	3.547625	1.201968	0.000142
  36	3.4825e+00	1.3957	1.390793	0.000405	4.054429	1.373678	0.000162
  37	3.5820e+00	1.4342	1.511907	0.000304	3.040821	1.030258	0.000122
  38	3.6815e+00	1.4599	1.624947	0.000284	2.838100	0.961574	0.000114
  39	3.7810e+00	1.5176	1.721838	0.000243	2.432657	0.824207	0.000097
  40	3.8805e+00	1.5449	1.879287	0.000395	3.953068	1.339336	0.000158
  41	3.9800e+00	1.5738	2.016549	0.000345	3.446264	1.167626	0.000138
  42	4.0795e+00	1.6219	2.137663	0.000304	3.040821	1.030258	0.000122
  43	4.1790e+00	1.6684	2.274926	0.000345	3.446264	1.167626	0.000138
  44	4.2785e+00	1.7069	2.392003	0.000294	2.939461	0.995916	0.000118
  45	4.3780e+00	1.7438	2.517154	0.000314	3.142182	1.064600	0.000126
  46	4.4775e+00	1.7935	2.610008	0.000233	2.331296	0.789865	0.000093
  47	4.5770e+00	1.8336	2.771494	0.000405	4.054429	1.373678	0.000162
  48	4.6765e+00	1.8689	2.868385	0.000243	2.432657	0.824207	0.000097
  49	4.7760e+00	1.9074	3.037945	0.000426	4.257150	1.442361	0.000170
  50	4.8755e+00	1.9443	3.155022	0.000294	2.939461	0.995916	0.000118
  51	4.9750e+00	1.9909	3.288247	0.000334	3.344904	1.133284	0.000134
  52	5.0745e+00	2.0294	3.429547	0.000355	3.547625	1.201968	0.000142
  53	5.1740e+00	2.0679	3.546624	0.000294	2.939461	0.995916	0.000118
  54	5.2735e+00	2.1048	3.691961	0.000365	3.648986	1.236310	0.000146
  55	5.3730e+00	2.1497	3.833260	0.000355	3.547625	1.201968	0.000142
  56	5.4725e+00	2.1962	3.950337	0.000294	2.939461	0.995916	0.000118
  57	5.5720e+00	2.2251	4.063377	0.000284	2.838100	0.961574	0.000114
  58	5.6715e+00	2.2684	4.204677	0.000355	3.547625	1.201968	0.000142
  59	5.7710e+00	2.3165	4.341939	0.000345	3.446264	1.167626	0.000138
  60	5.8705e+00	2.3422	4.495351	0.000385	3.851707	1.304994	0.000154
  61	5.9700e+00	2.3903	4.620502	0.000314	3.142182	1.064600	0.000126
  62	6.0695e+00	2.4192	4.761802	0.000355	3.547625	1.201968	0.000142
  63	6.1690e+00	2.4673	4.874841	0.000284	2.838100	0.961574	0.000114
  64	6.2685e+00	2.5090	4.991918	0.000294	2.939461	0.995916	0.000118
  65	6.3680e+00	2.5588	5.137255	0.000365	3.648986	1.236310	0.000146
  66	6.4675e+00	2.5924	5.278555	0.000355	3.547625	1.201968	0.000142
  67	6.5670e+00	2.6261	5.407743	0.000324	3.243543	1.098942	0.000130
  68	6.6665e+00	2.6662	5.545006	0.000345	3.446264	1.167626	0.000138
  69	6.7660e+00	2.7015	5.678231	0.000334	3.344904	1.133284	0.000134
  70	6.8655e+00	2.7481	5.807420	0.000324	3.243543	1.098942	0.000130
  71	6.9650e+00	2.7898	5.924497	0.000294	2.939461	0.995916	0.000118
  72	7.0645e+00	2.8379	6.102131	0.000446	4.459871	1.511045	0.000179
  73	7.1640e+00	2.8700	6.203059	0.000253	2.534018	0.858548	0.000101
  74	7.2635e+00	2.9069	6.344359	0.000355	3.547625	1.201968	0.000142
  75	7.3630e+00	2.9454	6.501807	0.000395	3.953068	1.339336	0.000158
  76	7.4625e+00	2.9855	6.639070	0.000345	3.446264	1.167626	0.000138
  77	7.5620e+00	3.0272	6.727887	0.000223	2.229936	0.755523	0.000089
  78	7.6615e+00	3.0737	6.857075	0.000324	3.243543	1.098942	0.000130
  79	7.7610e+00	3.1042	7.010486	0.000385	3.851707	1.304994	0.000154
  80	7.8605e+00	3.1507	7.127563	0.000294	2.939461	0.995916	0.000118
  81	7.9600e+00	3.1844	7.280974	0.000385	3.851707	1.304994	0.000154
  82	8.0595e+00	3.2229	7.365754	0.000213	2.128575	0.721181	0.000085
  83	8.1590e+00	3.2662	7.539351	0.000436	4.358511	1.476703	0.000174
  84	8.2585e+00	3.2919	7.660465	0.000304	3.040821	1.030258	0.000122
  85	8.3580e+00	3.3368	7.805802	0.000365	3.648986	1.236310	0.000146
  86	8.4575e+00	3.3881	7.910767	0.000264	2.635379	0.892890	0.000105
  87	8.5570e+00	3.4218	8.039956	0.000324	3.243543	1.098942	0.000130
  88	8.6565e+00	3.4684	8.193367	0.000385	3.851707	1.304994	0.000154
  89	8.7560e+00	3.4988	8.270073	0.000193	1.925854	0.652497	0.000077
  90	8.8555e+00	3.5454	8.403298	0.000334	3.344904	1.133284	0.000134
  91	8.9550e+00	3.5790	8.568821	0.000416	4.155789	1.408020	0.000166
  92	9.0545e+00	3.6208	8.706083	0.000345	3.446264	1.167626	0.000138
  93	9.1540e+00	3.6593	8.835272	0.000324	3.243543	1.098942	0.000130
  94	9.2535e+00	3.7042	8.940237	0.000264	2.635379	0.892890	0.000105
  95	9.3530e+00	3.7266	9.089611	0.000375	3.750346	1.270652	0.000150
  96	9.4525e+00	3.7828	9.247059	0.000395	3.953068	1.339336	0.000158
  97	9.5520e+00	3.8229	9.380285	0.000334	3.344904	1.133284	0.000134
  98	9.6515e+00	3.8678	9.481213	0.000253	2.534018	0.858548	0.000101
  99	9.7510e+00	3.9031	9.626550	0.000365	3.648986	1.236310	0.000146
 100	9.8505e+00	3.9416	9.763813	0.000345	3.446264	1.167626	0.000138
 101	9.9500e+00	3.9769	9.880890	0.000294	2.939461	0.995916	0.000118
 102	1.0050e+01	4.0218	10.046412	0.000416	4.155789	1.408020	0.000166
 103	1.0149e+01	4.0507	10.163489	0.000294	2.939461	0.995916	0.000118
 104	1.0248e+01	4.1020	10.333049	0.000426	4.257150	1.442361	0.000170
 105	1.0348e+01	4.1453	10.438014	0.000264	2.635379	0.892890	0.000105
 106	1.0447e+01	4.1774	10.575277	0.000345	3.446264	1.167626	0.000138
 107	1.0547e+01	4.2223	10.676205	0.000253	2.534018	0.858548	0.000101
 108	1.0646e+01	4.2544	10.833654	0.000395	3.953068	1.339336	0.000158
 109	1.0746e+01	4.3009	10.954768	0.000304	3.040821	1.030258	0.000122
 110	1.0845e+01	4.3475	11.112216	0.000395	3.953068	1.339336	0.000158
 111	1.0945e+01	4.3828	11.257553	0.000365	3.648986	1.236310	0.000146
 112	1.1044e+01	4.4148	11.386741	0.000324	3.243543	1.098942	0.000130
 113	1.1144e+01	4.4630	11.536115	0.000375	3.750346	1.270652	0.000150
 114	1.1243e+01	4.4983	11.653192	0.000294	2.939461	0.995916	0.000118
 115	1.1343e+01	4.5400	11.774306	0.000304	3.040821	1.030258	0.000122
 116	1.1443e+01	4.5817	11.939829	0.000416	4.155789	1.408020	0.000166
 117	1.1542e+01	4.6202	12.040757	0.000253	2.534018	0.858548	0.000101
 118	1.1642e+01	4.6747	12.157834	0.000294	2.939461	0.995916	0.000118
 119	1.1741e+01	4.7020	12.319320	0.000405	4.054429	1.373678	0.000162
 120	1.1841e+01	4.7357	12.472731	0.000385	3.851707	1.304994	0.000154
 121	1.1940e+01	4.7790	12.577696	0.000264	2.635379	0.892890	0.000105
 122	1.2040e+01	4.8159	12.731108	0.000385	3.851707	1.304994	0.000154
 123	1.2139e+01	4.8640	12.904704	0.000436	4.358511	1.476703	0.000174
 124	1.2239e+01	4.9025	13.025818	0.000304	3.040821	1.030258	0.000122
 125	1.2338e+01	4.9314	13.150970	0.000314	3.142182	1.064600	0.000126
 126	1.2438e+01	4.9763	13.235750	0.000213	2.128575	0.721181	0.000085
 127	1.2537e+01	5.0277	13.437606	0.000507	5.068036	1.717097	0.000203
 128	1.2636e+01	5.0581	13.550646	0.000284	2.838100	0.961574	0.000114
 129	1.2736e+01	5.0999	13.687909	0.000345	3.446264	1.167626	0.000138
 130	1.2835e+01	5.1432	13.849394	0.000405	4.054429	1.373678	0.000162
 131	1.2935e+01	5.1769	13.954360	0.000264	2.635379	0.892890	0.000105
 132	1.3034e+01	5.2170	14.099697	0.000365	3.648986	1.236310	0.000146
 133	1.3134e+01	5.2507	14.236959	0.000345	3.446264	1.167626	0.000138
 134	1.3233e+01	5.2876	14.386333	0.000375	3.750346	1.270652	0.000150
 135	1.3333e+01	5.3325	14.511484	0.000314	3.142182	1.064600	0.000126
 136	1.3432e+01	5.3758	14.660858	0.000375	3.750346	1.270652	0.000150
 137	1.3532e+01	5.4143	14.790047	0.000324	3.243543	1.098942	0.000130
 138	1.3632e+01	5.4512	14.931347	0.000355	3.547625	1.201968	0.000142
 139	1.3731e+01	5.4929	15.052461	0.000304	3.040821	1.030258	0.000122
 140	1.3831e+01	5.5346	15.185686	0.000334	3.344904	1.133284	0.000134
 141	1.3930e+01	5.5859	15.339097	0.000385	3.851707	1.304994	0.000154
 142	1.4030e+01	5.6148	15.468286	0.000324	3.243543	1.098942	0.000130
 143	1.4129e+01	5.6597	15.633808	0.000416	4.155789	1.408020	0.000166
 144	1.4229e+01	5.6934	15.742811	0.000274	2.736739	0.927232	0.000110
 145	1.4328e+01	5.7383	15.867962	0.000314	3.142182	1.064600	0.000126
 146	1.4428e+01	5.7720	16.009262	0.000355	3.547625	1.201968	0.000142
 147	1.4527e+01	5.8073	16.122302	0.000284	2.838100	0.961574	0.000114
 148	1.4627e+01	5.8571	16.287824	0.000416	4.155789	1.408020	0.000166
 149	1.4726e+01	5.8972	16.425087	0.000345	3.446264	1.167626	0.000138
 150	1.4825e+01	5.9405	16.558312	0.000334	3.344904	1.133284	0.000134
 151	1.4925e+01	5.9694	16.651166	0.000233	2.331296	0.789865	0.000093
 152	1.5024e+01	6.0111	16.812652	0.000405	4.054429	1.373678	0.000162
 153	1.5124e+01	6.0496	16.974137	0.000405	4.054429	1.373678	0.000162
 154	1.5223e+01	6.1041	17.079103	0.000264	2.635379	0.892890	0.000105
 155	1.5323e+01	6.1410	17.208291	0.000324	3.243543	1.098942	0.000130
 156	1.5422e+01	6.1747	17.349591	0.000355	3.547625	1.201968	0.000142
 157	1.5522e+01	6.2164	17.498965	0.000375	3.750346	1.270652	0.000150
 158	1.5621e+01	6.2453	17.628153	0.000324	3.243543	1.098942	0.000130
 159	1.5721e+01	6.2966	17.789639	0.000405	4.054429	1.373678	0.000162
 160	1.5820e+01	6.3351	17.939013	0.000375	3.750346	1.270652	0.000150
 161	1.5920e+01	6.3704	18.084350	0.000365	3.648986	1.236310	0.000146
 162	1.6020e+01	6.4298	18.237761	0.000385	3.851707	1.304994	0.000154
 163	1.6119e+01	6.4554	18.322541	0.000213	2.128575	0.721181	0.000085
 164	1.6218e+01	6.4923	18.488063	0.000416	4.155789	1.408020	0.000166
 165	1.6318e+01	6.5308	18.601103	0.000284	2.838100	0.961574	0.000114
 166	1.6418e+01	6.5677	18.758551	0.000395	3.953068	1.339336	0.000158
 167	1.6517e+01	6.6175	18.871591	0.000284	2.838100	0.961574	0.000114
 168	1.6616e+01	6.6511	19.025002	0.000385	3.851707	1.304994	0.000154
 169	1.6716e+01	6.6961	19.150153	0.000314	3.142182	1.064600	0.000126
 170	1.6816e+01	6.7378	19.303565	0.000385	3.851707	1.304994	0.000154
 171	1.6915e+01	6.7667	19.444864	0.000355	3.547625	1.201968	0.000142
 172	1.7015e+01	6.8068	19.594238	0.000375	3.750346	1.270652	0.000150
 173	1.7114e+01	6.8501	19.751687	0.000395	3.953068	1.339336	0.000158
 174	1.7213e+01	6.8918	19.892986	0.000355	3.547625	1.201968	0.000142
 175	1.7313e+01	6.9287	20.022175	0.000324	3.243543	1.098942	0.000130
 176	1.7413e+01	6.9688	20.167512	0.000365	3.648986	1.236310	0.000146
 177	1.7512e+01	7.0025	20.296700	0.000324	3.243543	1.098942	0.000130
 178	1.7611e+01	7.0458	20.482408	0.000466	4.662593	1.579729	0.000187
 179	1.7711e+01	7.0907	20.619671	0.000345	3.446264	1.167626	0.000138
 180	1.7811e+01	7.1244	20.732711	0.000284	2.838100	0.961574	0.000114
 181	1.7910e+01	7.1677	20.894196	0.000405	4.054429	1.373678	0.000162
 182	1.8009e+01	7.2014	20.962827	0.000172	1.723132	0.583813	0.000069
 183	1.8109e+01	7.2511	21.156610	0.000487	4.865314	1.648413	0.000195
 184	1.8209e+01	7.2848	21.269650	0.000284	2.838100	0.961574	0.000114
 185	1.8308e+01	7.3249	21.378652	0.000274	2.736739	0.927232	0.000110
 186	1.8407e+01	7.3698	21.556286	0.000446	4.459871	1.511045	0.000179
 187	1.8507e+01	7.4067	21.649140	0.000233	2.331296	0.789865	0.000093
 188	1.8607e+01	7.4468	21.834849	0.000466	4.662593	1.579729	0.000187
 189	1.8706e+01	7.4886	21.955963	0.000304	3.040821	1.030258	0.000122
 190	1.8805e+01	7.5222	22.105337	0.000375	3.750346	1.270652	0.000150
 191	1.8905e+01	7.5575	22.250674	0.000365	3.648986	1.236310	0.000146
 192	1.9005e+01	7.6121	22.367751	0.000294	2.939461	0.995916	0.000118
 193	1.9104e+01	7.6490	22.525199	0.000395	3.953068	1.339336	0.000158
 194	1.9203e+01	7.6891	22.702833	0.000446	4.459871	1.511045	0.000179
 195	1.9303e+01	7.7196	22.848170	0.000365	3.648986	1.236310	0.000146
 196	1.9402e+01	7.7629	22.989469	0.000355	3.547625	1.201968	0.000142
 197	1.9502e+01	7.8094	23.138843	0.000375	3.750346	1.270652	0.000150
 198	1.9602e+01	7.8543	23.280143	0.000355	3.547625	1.201968	0.000142
 199	1.9701e+01	7.8896	23.405294	0.000314	3.142182	1.064600	0.000126
 200	1.9800e+01	7.9265	23.534483	0.000324	3.243543	1.098942	0.000130
 201	1.9900e+01	7.9698	23.611188	0.000193	1.925854	0.652497	0.000077
 202	2.0000e+01	8.0180	23.760562	0.000375	3.750346	1.270652	0.000150
 203	2.0099e+01	8.0484	23.893788	0.000334	3.344904	1.133284	0.000134
 204	2.0198e+01	8.0805	24.031050	0.000345	3.446264	1.167626	0.000138
 205	2.0298e+01	8.1367	24.176387	0.000365	3.648986	1.236310	0.000146
 206	2.0398e+01	8.1720	24.325761	0.000375	3.750346	1.270652	0.000150
 207	2.0497e+01	8.2073	24.463024	0.000345	3.446264	1.167626	0.000138
 208	2.0596e+01	8.2522	24.596249	0.000334	3.344904	1.133284	0.000134
 209	2.0696e+01	8.2778	24.753698	0.000395	3.953068	1.339336	0.000158
 210	2.0796e+01	8.3260	24.903072	0.000375	3.750346	1.270652	0.000150
 211	2.0895e+01	8.3693	25.036297	0.000334	3.344904	1.133284	0.000134
 212	2.0994e+01	8.4046	25.213931	0.000446	4.459871	1.511045	0.000179
 213	2.1094e+01	8.4335	25.359268	0.000365	3.648986	1.236310	0.000146
 214	2.1194e+01	8.4848	25.512679	0.000385	3.851707	1.304994	0.000154
 215	2.1293e+01	8.5281	25.637831	0.000314	3.142182	1.064600	0.000126
 216	2.1392e+01	8.5666	25.775093	0.000345	3.446264	1.167626	0.000138
 217	2.1492e+01	8.6019	25.900244	0.000314	3.142182	1.064600	0.000126
 218	2.1591e+01	8.6468	26.025396	0.000314	3.142182	1.064600	0.000126
 219	2.1691e+01	8.6805	26.142472	0.000294	2.939461	0.995916	0.000118
 220	2.1791e+01	8.7302	26.251475	0.000274	2.736739	0.927232	0.000110
 221	2.1890e+01	8.7575	26.421035	0.000426	4.257150	1.442361	0.000170
 222	2.1989e+01	8.8040	26.542149	0.000304	3.040821	1.030258	0.000122
 223	2.2089e+01	8.8506	26.719783	0.000446	4.459871	1.511045	0.000179
 224	2.2189e+01	8.8778	26.828786	0.000274	2.736739	0.927232	0.000110
 225	2.2288e+01	8.9260	26.982197	0.000385	3.851707	1.304994	0.000154
 226	2.2387e+01	8.9645	27.066977	0.000213	2.128575	0.721181	0.000085
 227	2.2487e+01	9.0046	27.248648	0.000456	4.561232	1.545387	0.000183
 228	2.2587e+01	9.0415	27.385910	0.000345	3.446264	1.167626	0.000138
 229	2.2686e+01	9.0848	27.551433	0.000416	4.155789	1.408020	0.000166
 230	2.2785e+01	9.1185	27.708881	0.000395	3.953068	1.339336	0.000158
 231	2.2885e+01	9.1570	27.882478	0.000436	4.358511	1.476703	0.000174
 232	2.2985e+01	9.2067	28.007629	0.000314	3.142182	1.064600	0.000126
 233	2.3084e+01	9.2420	28.161040	0.000385	3.851707	1.304994	0.000154
 234	2.3183e+01	9.2805	28.310414	0.000375	3.750346	1.270652	0.000150
 235	2.3283e+01	9.3254	28.415380	0.000264	2.635379	0.892890	0.000105
 236	2.3383e+01	9.3639	28.544568	0.000324	3.243543	1.098942	0.000130
 237	2.3482e+01	9.3928	28.661645	0.000294	2.939461	0.995916	0.000118
 238	2.3581e+01	9.4425	28.794871	0.000334	3.344904	1.133284	0.000134
 239	2.3681e+01	9.4874	28.952319	0.000395	3.953068	1.339336	0.000158
 240	2.3780e+01	9.5211	29.089582	0.000345	3.446264	1.167626	0.000138
 241	2.3880e+01	9.5644	29.230881	0.000355	3.547625	1.201968	0.000142
 242	2.3980e+01	9.5949	29.368144	0.000345	3.446264	1.167626	0.000138
 243	2.4079e+01	9.6398	29.493295	0.000314	3.142182	1.064600	0.000126
 244	2.4178e+01	9.6751	29.602298	0.000274	2.736739	0.927232	0.000110
 245	2.4278e+01	9.7200	29.771858	0.000426	4.257150	1.442361	0.000170
 246	2.4378e+01	9.7585	29.901046	0.000324	3.243543	1.098942	0.000130
 247	2.4477e+01	9.8051	30.078680	0.000446	4.459871	1.511045	0.000179
 248	2.4576e+01	9.8404	30.211905	0.000334	3.344904	1.133284	0.000134
 249	2.4676e+01	9.8708	30.357242	0.000365	3.648986	1.236310	0.000146
 250	2.4776e+01	9.9174	30.486431	0.000324	3.243543	1.098942	0.000130
 251	2.4875e+01	9.9543	30.651953	0.000416	4.155789	1.408020	0.000166
 252	2.4974e+01	9.9944	30.785179	0.000334	3.344904	1.133284	0.000134
 253	2.5074e+01	10.0345	30.865921	0.000203	2.027214	0.686839	0.000081
 254	2.5174e+01	10.0778	31.039518	0.000436	4.358511	1.476703	0.000174
 255	2.5273e+01	10.1147	31.136409	0.000243	2.432657	0.824207	0.000097
 256	2.5372e+01	10.1564	31.257523	0.000304	3.040821	1.030258	0.000122
 257	2.5472e+01	10.1901	31.374600	0.000294	2.939461	0.995916	0.000118
 258	2.5572e+01	10.2334	31.528012	0.000385	3.851707	1.304994	0.000154
 259	2.5671e+01	10.2767	31.665274	0.000345	3.446264	1.167626	0.000138
 260	2.5770e+01	10.3216	31.782351	0.000294	2.939461	0.995916	0.000118
 261	2.5870e+01	10.3569	31.931725	0.000375	3.750346	1.270652	0.000150
 262	2.5970e+01	10.3986	32.081099	0.000375	3.750346	1.270652	0.000150
 263	2.6069e+01	10.4403	32.210287	0.000324	3.243543	1.098942	0.000130
 264	2.6169e+01	10.4772	32.371773	0.000405	4.054429	1.373678	0.000162
 265	2.6268e+01	10.5222	32.549407	0.000446	4.459871	1.511045	0.000179
 266	2.6367e+01	10.5575	32.698781	0.000375	3.750346	1.270652	0.000150
 267	2.6467e+01	10.5927	32.844118	0.000365	3.648986	1.236310	0.000146
 268	2.6567e+01	10.6264	32.997529	0.000385	3.851707	1.304994	0.000154
 269	2.6666e+01	10.6730	33.078272	0.000203	2.027214	0.686839	0.000081
 270	2.6765e+01	10.7179	33.231683	0.000385	3.851707	1.304994	0.000154
 271	2.6865e+01	10.7628	33.356834	0.000314	3.142182	1.064600	0.000126
 272	2.6965e+01	10.7853	33.461800	0.000264	2.635379	0.892890	0.000105
 273	2.7064e+01	10.8350	33.619248	0.000395	3.953068	1.339336	0.000158
 274	2.7163e+01	10.8767	33.748436	0.000324	3.243543	1.098942	0.000130
 275	2.7263e+01	10.9136	33.877625	0.000324	3.243543	1.098942	0.000130
 276	2.7363e+01	10.9473	34.051221	0.000436	4.358511	1.476703	0.000174
 277	2.7462e+01	10.9922	34.144076	0.000233	2.331296	0.789865	0.000093
 278	2.7561e+01	11.0339	34.289412	0.000365	3.648986	1.236310	0.000146
 279	2.7661e+01	11.0692	34.454935	0.000416	4.155789	1.408020	0.000166
 280	2.7761e+01	11.1061	34.547789	0.000233	2.331296	0.789865	0.000093
 281	2.7860e+01	11.1446	34.709275	0.000405	4.054429	1.373678	0.000162
 282	2.7959e+01	11.1911	34.838463	0.000324	3.243543	1.098942	0.000130
 283	2.8059e+01	11.2344	34.999948	0.000405	4.054429	1.373678	0.000162
 284	2.8159e+01	11.2713	35.181619	0.000456	4.561232	1.545387	0.000183
 285	2.8258e+01	11.3130	35.306771	0.000314	3.142182	1.064600	0.000126
 286	2.8358e+01	11.3499	35.468256	0.000405	4.054429	1.373678	0.000162
 287	2.8457e+01	11.3917	35.593407	0.000314	3.142182	1.064600	0.000126
 288	2.8556e+01	11.4237	35.702410	0.000274	2.736739	0.927232	0.000110
 289	2.8656e+01	11.4719	35.827561	0.000314	3.142182	1.064600	0.000126
 290	2.8756e+01	11.5168	35.916378	0.000223	2.229936	0.755523	0.000089
 291	2.8855e+01	11.5553	36.077864	0.000405	4.054429	1.373678	0.000162
 292	2.8954e+01	11.5922	36.203015	0.000314	3.142182	1.064600	0.000126
 293	2.9054e+01	11.6339	36.352389	0.000375	3.750346	1.270652	0.000150
 294	2.9154e+01	11.6676	36.509837	0.000395	3.953068	1.339336	0.000158
 295	2.9253e+01	11.7125	36.643063	0.000334	3.344904	1.133284	0.000134
 296	2.9352e+01	11.7478	36.784362	0.000355	3.547625	1.201968	0.000142
 297	2.9452e+01	11.7847	36.901439	0.000294	2.939461	0.995916	0.000118
 298	2.9552e+01	11.8360	37.070999	0.000426	4.257150	1.442361	0.000170
 299	2.9651e+01	11.8697	37.232484	0.000405	4.054429	1.373678	0.000162
 300	2.9750e+01	11.9050	37.325338	0.000233	2.331296	0.789865	0.000093
 301	2.9850e+01	11.9580	37.494898	0.000426	4.257150	1.442361	0.000170
 302	2.9950e+01	11.9965	37.696755	0.000507	5.068036	1.717097	0.000203
 303	3.0049e+01	12.0269	37.829980	0.000334	3.344904	1.133284	0.000134
 304	3.0148e+01	12.0686	37.947057	0.000294	2.939461	0.995916	0.000118
 305	3.0248e+01	12.1168	38.056060	0.000274	2.736739	0.927232	0.000110
 306	3.0348e+01	12.1505	38.165063	0.000274	2.736739	0.927232	0.000110
 307	3.0447e+01	12.1858	38.298288	0.000334	3.344904	1.133284	0.000134
 308	3.0547e+01	12.2307	38.391142	0.000233	2.331296	0.789865	0.000093
 309	3.0646e+01	12.2612	38.532442	0.000355	3.547625	1.201968	0.000142
 310	3.0745e+01	12.3173	38.702002	0.000426	4.257150	1.442361	0.000170
 311	3.0845e+01	12.3478	38.815042	0.000284	2.838100	0.961574	0.000114
 312	3.0945e+01	12.3911	38.948267	0.000334	3.344904	1.133284	0.000134
 313	3.1044e+01	12.4328	39.121864	0.000436	4.358511	1.476703	0.000174
 314	3.1143e+01	12.4697	39.255089	0.000334	3.344904	1.133284	0.000134
 315	3.1243e+01	12.5066	39.388315	0.000334	3.344904	1.133284	0.000134
 316	3.1343e+01	12.5547	39.501355	0.000284	2.838100	0.961574	0.000114
 317	3.1442e+01	12.5932	39.666877	0.000416	4.155789	1.408020	0.000166
 318	3.1541e+01	12.6237	39.820288	0.000385	3.851707	1.304994	0.000154
 319	3.1641e+01	12.6654	39.957551	0.000345	3.446264	1.167626	0.000138
 320	3.1741e+01	12.7103	40.106925	0.000375	3.750346	1.270652	0.000150
 321	3.1840e+01	12.7408	40.244188	0.000345	3.446264	1.167626	0.000138
 322	3.1939e+01	12.7889	40.373376	0.000324	3.243543	1.098942	0.000130
 323	3.2039e+01	12.8258	40.502564	0.000324	3.243543	1.098942	0.000130
 324	3.2139e+01	12.8659	40.615604	0.000284	2.838100	0.961574	0.000114
 325	3.2238e+01	12.8980	40.744792	0.000324	3.243543	1.098942	0.000130
 326	3.2337e+01	12.9430	40.882055	0.000345	3.446264	1.167626	0.000138
 327	3.2437e+01	12.9798	41.015281	0.000334	3.344904	1.133284	0.000134
 328	3.2536e+01	13.0151	41.116209	0.000253	2.534018	0.858548	0.000101
 329	3.2636e+01	13.0649	41.273657	0.000395	3.953068	1.339336	0.000158
 330	3.2736e+01	13.1034	41.435143	0.000405	4.054429	1.373678	0.000162
 331	3.2835e+01	13.1435	41.548182	0.000284	2.838100	0.961574	0.000114
 332	3.2934e+01	13.1772	41.685445	0.000345	3.446264	1.167626	0.000138
 333	3.3034e+01	13.2253	41.855005	0.000426	4.257150	1.442361	0.000170
 334	3.3133e+01	13.2574	41.968045	0.000284	2.838100	0.961574	0.000114
 335	3.3233e+01	13.3023	42.113381	0.000365	3.648986	1.236310	0.000146
 336	3.3333e+01	13.3344	42.274867	0.000405	4.054429	1.373678	0.000162
 337	3.3432e+01	13.3841	42.484798	0.000527	5.270757	1.785781	0.000211
 338	3.3532e+01	13.4194	42.585726	0.000253	2.534018	0.858548	0.000101
 339	3.3631e+01	13.4611	42.718952	0.000334	3.344904	1.133284	0.000134
 340	3.3730e+01	13.4948	42.852177	0.000334	3.344904	1.133284	0.000134
 341	3.3830e+01	13.5461	42.993477	0.000355	3.547625	1.201968	0.000142
 342	3.3929e+01	13.5750	43.106517	0.000284	2.838100	0.961574	0.000114
 343	3.4029e+01	13.6215	43.219557	0.000284	2.838100	0.961574	0.000114
 344	3.4129e+01	13.6616	43.389116	0.000426	4.257150	1.442361	0.000170
 345	3.4228e+01	13.6905	43.502156	0.000284	2.838100	0.961574	0.000114
 346	3.4328e+01	13.7403	43.631344	0.000324	3.243543	1.098942	0.000130
 347	3.4427e+01	13.7788	43.792830	0.000405	4.054429	1.373678	0.000162
 348	3.4526e+01	13.8285	43.917981	0.000314	3.142182	1.064600	0.000126
 349	3.4626e+01	13.8654	44.043132	0.000314	3.142182	1.064600	0.000126
 350	3.4725e+01	13.8927	44.184432	0.000355	3.547625	1.201968	0.000142
 351	3.4825e+01	13.9440	44.325732	0.000355	3.547625	1.201968	0.000142
 352	3.4925e+01	13.9793	44.499329	0.000436	4.358511	1.476703	0.000174
 353	3.5024e+01	14.0210	44.676963	0.000446	4.459871	1.511045	0.000179
 354	3.5123e+01	14.0595	44.802114	0.000314	3.142182	1.064600	0.000126
 355	3.5223e+01	14.0980	44.963599	0.000405	4.054429	1.373678	0.000162
 356	3.5322e+01	14.1365	45.096825	0.000334	3.344904	1.133284	0.000134
 357	3.5422e+01	14.1894	45.238125	0.000355	3.547625	1.201968	0.000142
 358	3.5522e+01	14.2231	45.383461	0.000365	3.648986	1.236310	0.000146
 359	3.5621e+01	14.2584	45.464204	0.000203	2.027214	0.686839	0.000081
 360	3.5721e+01	14.2937	45.609541	0.000365	3.648986	1.236310	0.000146
 361	3.5820e+01	14.3483	45.722581	0.000284	2.838100	0.961574	0.000114
 362	3.5919e+01	14.3803	45.859843	0.000345	3.446264	1.167626	0.000138
 363	3.6019e+01	14.4188	45.980957	0.000304	3.040821	1.030258	0.000122
 364	3.6118e+01	14.4557	46.110146	0.000324	3.243543	1.098942	0.000130
 365	3.6218e+01	14.5023	46.251446	0.000355	3.547625	1.201968	0.000142
 366	3.6318e+01	14.5440	46.404857	0.000385	3.851707	1.304994	0.000154
 367	3.6417e+01	14.5873	46.534045	0.000324	3.243543	1.098942	0.000130
 368	3.6517e+01	14.6146	46.663233	0.000324	3.243543	1.098942	0.000130
 369	3.6616e+01	14.6547	46.812607	0.000375	3.750346	1.270652	0.000150
 370	3.6715e+01	14.7012	46.957944	0.000365	3.648986	1.236310	0.000146
 371	3.6815e+01	14.7269	47.135578	0.000446	4.459871	1.511045	0.000179
 372	3.6914e+01	14.7830	47.268804	0.000334	3.344904	1.133284	0.000134
 373	3.7014e+01	14.8231	47.418178	0.000375	3.750346	1.270652	0.000150
 374	3.7114e+01	14.8616	47.555440	0.000345	3.446264	1.167626	0.000138
 375	3.7213e+01	14.8969	47.700777	0.000365	3.648986	1.236310	0.000146
 376	3.7313e+01	14.9322	47.834003	0.000334	3.344904	1.133284	0.000134
 377	3.7412e+01	14.9771	47.955117	0.000304	3.040821	1.030258	0.000122
 378	3.7511e+01	15.0124	48.096417	0.000355	3.547625	1.201968	0.000142
 379	3.7611e+01	15.0541	48.177159	0.000203	2.027214	0.686839	0.000081
 380	3.7711e+01	15.0974	48.306348	0.000324	3.243543	1.098942	0.000130
 381	3.7810e+01	15.1359	48.492056	0.000466	4.662593	1.579729	0.000187
 382	3.7910e+01	15.1825	48.576836	0.000213	2.128575	0.721181	0.000085
 383	3.8009e+01	15.2194	48.722173	0.000365	3.648986	1.236310	0.000146
 384	3.8108e+01	15.2546	48.875584	0.000385	3.851707	1.304994	0.000154
 385	3.8208e+01	15.2948	49.016884	0.000355	3.547625	1.201968	0.000142
 386	3.8307e+01	15.3349	49.113775	0.000243	2.432657	0.824207	0.000097
 387	3.8407e+01	15.3830	49.259112	0.000365	3.648986	1.236310	0.000146
 388	3.8507e+01	15.4071	49.416560	0.000395	3.953068	1.339336	0.000158
 389	3.8606e+01	15.4407	49.586120	0.000426	4.257150	1.442361	0.000170
 390	3.8706e+01	15.4921	49.723382	0.000345	3.446264	1.167626	0.000138
 391	3.8805e+01	15.5386	49.848534	0.000314	3.142182	1.064600	0.000126
 392	3.8904e+01	15.5723	50.010019	0.000405	4.054429	1.373678	0.000162
 393	3.9004e+01	15.6124	50.151319	0.000355	3.547625	1.201968	0.000142
 394	3.9103e+01	15.6525	50.308767	0.000395	3.953068	1.339336	0.000158
 395	3.9203e+01	15.6910	50.425844	0.000294	2.939461	0.995916	0.000118
 396	3.9303e+01	15.7279	50.567144	0.000355	3.547625	1.201968	0.000142
 397	3.9402e+01	15.7744	50.692295	0.000314	3.142182	1.064600	0.000126
 398	3.9502e+01	15.8209	50.777075	0.000213	2.128575	0.721181	0.000085
 399	3.9601e+01	15.8578	50.914337	0.000345	3.446264	1.167626	0.000138
 400	3.9700e+01	15.8899	51.015266	0.000253	2.534018	0.858548	0.000101
 401	3.9800e+01	15.9364	51.184825	0.000426	4.257150	1.442361	0.000170
 402	3.9900e+01	15.9733	51.338237	0.000385	3.851707	1.304994	0.000154
 403	3.9999e+01	16.0102	51.483573	0.000365	3.648986	1.236310	0.000146
 404	4.0099e+01	16.0503	51.612762	0.000324	3.243543	1.098942	0.000130
 405	4.0198e+01	16.0953	51.745987	0.000334	3.344904	1.133284	0.000134
 406	4.0297e+01	16.1322	51.903436	0.000395	3.953068	1.339336	0.000158
 407	4.0397e+01	16.1626	52.024550	0.000304	3.040821	1.030258	0.000122
 408	4.0496e+01	16.2156	52.206221	0.000456	4.561232	1.545387	0.000183
 409	4.0596e+01	16.2525	52.375780	0.000426	4.257150	1.442361	0.000170
 410	4.0696e+01	16.2926	52.496895	0.000304	3.040821	1.030258	0.000122
 411	4.0795e+01	16.3231	52.626083	0.000324	3.243543	1.098942	0.000130
 412	4.0895e+01	16.3696	52.751234	0.000314	3.142182	1.064600	0.000126
 413	4.0994e+01	16.4065	52.864274	0.000284	2.838100	0.961574	0.000114
 414	4.1093e+01	16.4546	52.993462	0.000324	3.243543	1.098942	0.000130
 415	4.1193e+01	16.4963	53.122651	0.000324	3.243543	1.098942	0.000130
 416	4.1292e+01	16.5236	53.211468	0.000223	2.229936	0.755523	0.000089
 417	4.1392e+01	16.5685	53.368916	0.000395	3.953068	1.339336	0.000158
 418	4.1492e+01	16.6134	53.473881	0.000264	2.635379	0.892890	0.000105
 419	4.1591e+01	16.6471	53.639404	0.000416	4.155789	1.408020	0.000166
 420	4.1691e+01	16.6904	53.740332	0.000253	2.534018	0.858548	0.000101
 421	4.1790e+01	16.7321	53.865484	0.000314	3.142182	1.064600	0.000126
 422	4.1889e+01	16.7723	54.006783	0.000355	3.547625	1.201968	0.000142
 423	4.1989e+01	16.8027	54.140009	0.000334	3.344904	1.133284	0.000134
 424	4.2089e+01	16.8541	54.281309	0.000355	3.547625	1.201968	0.000142
 425	4.2188e+01	16.8862	54.426645	0.000365	3.648986	1.236310	0.000146
 426	4.2288e+01	16.9182	54.580057	0.000385	3.851707	1.304994	0.000154
 427	4.2387e+01	16.9776	54.729431	0.000375	3.750346	1.270652	0.000150
 428	4.2486e+01	17.0097	54.854582	0.000314	3.142182	1.064600	0.000126
 429	4.2586e+01	17.0498	54.991844	0.000345	3.446264	1.167626	0.000138
 430	4.2685e+01	17.0947	55.121033	0.000324	3.243543	1.098942	0.000130
 431	4.2785e+01	17.1236	55.282518	0.000405	4.054429	1.373678	0.000162
 432	4.2885e+01	17.1653	55.395558	0.000284	2.838100	0.961574	0.000114
 433	4.2984e+01	17.2102	55.500524	0.000264	2.635379	0.892890	0.000105
 434	4.3084e+01	17.2391	55.625675	0.000314	3.142182	1.064600	0.000126
 435	4.3183e+01	17.2920	55.738715	0.000284	2.838100	0.961574	0.000114
 436	4.3282e+01	17.3369	55.867903	0.000324	3.243543	1.098942	0.000130
 437	4.3382e+01	17.3658	55.976906	0.000274	2.736739	0.927232	0.000110
 438	4.3481e+01	17.4043	56.130317	0.000385	3.851707	1.304994	0.000154
 439	4.3581e+01	17.4460	56.287765	0.000395	3.953068	1.339336	0.000158
 440	4.3681e+01	17.4813	56.425028	0.000345	3.446264	1.167626	0.000138
 441	4.3780e+01	17.5278	56.554216	0.000324	3.243543	1.098942	0.000130
 442	4.3880e+01	17.5663	56.727813	0.000436	4.358511	1.476703	0.000174
 443	4.3979e+01	17.6129	56.865075	0.000345	3.446264	1.167626	0.000138
 444	4.4078e+01	17.6385	56.990227	0.000314	3.142182	1.064600	0.000126
 445	4.4178e+01	17.6867	57.159786	0.000426	4.257150	1.442361	0.000170
 446	4.4278e+01	17.7139	57.284938	0.000314	3.142182	1.064600	0.000126
 447	4.4377e+01	17.7653	57.410089	0.000314	3.142182	1.064600	0.000126
 448	4.4477e+01	17.8054	57.591760	0.000456	4.561232	1.545387	0.000183
 449	4.4576e+01	17.8519	57.688651	0.000243	2.432657	0.824207	0.000097
 450	4.4675e+01	17.8840	57.838025	0.000375	3.750346	1.270652	0.000150
 451	4.4775e+01	17.9257	57.910694	0.000182	1.824493	0.618155	0.000073
 452	4.4874e+01	17.9610	58.019696	0.000274	2.736739	0.927232	0.000110
 453	4.4974e+01	17.9995	58.156959	0.000345	3.446264	1.167626	0.000138
 454	4.5074e+01	18.0396	58.274036	0.000294	2.939461	0.995916	0.000118
 455	4.5173e+01	18.0829	58.403224	0.000324	3.243543	1.098942	0.000130
 456	4.5273e+01	18.1262	58.544524	0.000355	3.547625	1.201968	0.000142
 457	4.5372e+01	18.1551	58.669675	0.000314	3.142182	1.064600	0.000126
 458	4.5471e+01	18.2000	58.806938	0.000345	3.446264	1.167626	0.000138
 459	4.5571e+01	18.2498	58.984572	0.000446	4.459871	1.511045	0.000179
 460	4.5670e+01	18.2834	59.137983	0.000385	3.851707	1.304994	0.000154
 461	4.5770e+01	18.3219	59.283320	0.000365	3.648986	1.236310	0.000146
 462	4.5870e+01	18.3588	59.380211	0.000243	2.432657	0.824207	0.000097
 463	4.5969e+01	18.4006	59.533622	0.000385	3.851707	1.304994	0.000154
 464	4.6069e+01	18.4391	59.678959	0.000365	3.648986	1.236310	0.000146
 465	4.6168e+01	18.4840	59.812185	0.000334	3.344904	1.133284	0.000134
 466	4.6267e+01	18.5289	59.953484	0.000355	3.547625	1.201968	0.000142
 467	4.6367e+01	18.5578	60.066524	0.000284	2.838100	0.961574	0.000114
 468	4.6467e+01	18.5963	60.195712	0.000324	3.243543	1.098942	0.000130
 469	4.6566e+01	18.6348	60.361235	0.000416	4.155789	1.408020	0.000166
 470	4.6666e+01	18.6893	60.474275	0.000284	2.838100	0.961574	0.000114
 471	4.6765e+01	18.7118	60.546943	0.000182	1.824493	0.618155	0.000073
 472	4.6864e+01	18.7599	60.740726	0.000487	4.865314	1.648413	0.000195
 473	4.6964e+01	18.8032	60.825506	0.000213	2.128575	0.721181	0.000085
 474	4.7063e+01	18.8513	60.962768	0.000345	3.446264	1.167626	0.000138
 475	4.7163e+01	18.8802	61.112142	0.000375	3.750346	1.270652	0.000150
 476	4.7263e+01	18.9283	61.229219	0.000294	2.939461	0.995916	0.000118
 477	4.7362e+01	18.9572	61.326110	0.000243	2.432657	0.824207	0.000097
 478	4.7462e+01	19.0070	61.487596	0.000405	4.054429	1.373678	0.000162
 479	4.7561e+01	19.0358	61.632933	0.000365	3.648986	1.236310	0.000146
 480	4.7660e+01	19.0856	61.786344	0.000385	3.851707	1.304994	0.000154
 481	4.7760e+01	19.1128	61.959941	0.000436	4.358511	1.476703	0.000174
 482	4.7859e+01	19.1545	62.077018	0.000294	2.939461	0.995916	0.000118
 483	4.7959e+01	19.1930	62.226392	0.000375	3.750346	1.270652	0.000150
 484	4.8059e+01	19.2428	62.339431	0.000284	2.838100	0.961574	0.000114
 485	4.8158e+01	19.2813	62.464583	0.000314	3.142182	1.064600	0.000126
 486	4.8258e+01	19.3262	62.593771	0.000324	3.243543	1.098942	0.000130
 487	4.8357e+01	19.3631	62.694699	0.000253	2.534018	0.858548	0.000101
 488	4.8456e+01	19.3936	62.827925	0.000334	3.344904	1.133284	0.000134
 489	4.8556e+01	19.4417	62.924816	0.000243	2.432657	0.824207	0.000097
 490	4.8656e+01	19.4802	63.078227	0.000385	3.851707	1.304994	0.000154
 491	4.8755e+01	19.5267	63.203379	0.000314	3.142182	1.064600	0.000126
 492	4.8855e+01	19.5524	63.316418	0.000284	2.838100	0.961574	0.000114
 493	4.8954e+01	19.6021	63.437532	0.000304	3.040821	1.030258	0.000122
 494	4.9053e+01	19.6422	63.578832	0.000355	3.547625	1.201968	0.000142
 495	4.9153e+01	19.6775	63.724169	0.000365	3.648986	1.236310	0.000146
 496	4.9252e+01	19.7176	63.861432	0.000345	3.446264	1.167626	0.000138
 497	4.9352e+01	19.7481	64.035029	0.000436	4.358511	1.476703	0.000174
 498	4.9452e+01	19.7866	64.188440	0.000385	3.851707	1.304994	0.000154
 499	4.9551e+01	19.8460	64.357999	0.000426	4.257150	1.442361	0.000170
 500	4.9651e+01	19.8716	64.471039	0.000284	2.838100	0.961574	0.000114
 501	4.9750e+01	19.9182	64.632525	0.000405	4.054429	1.373678	0.000162
 502	4.9849e+01	19.9599	64.757676	0.000314	3.142182	1.064600	0.000126
 503	4.9949e+01	19.9952	64.862641	0.000264	2.635379	0.892890	0.000105
 504	5.0048e+01	19.9551	64.789973	0.000182	1.824493	0.618155	-0.000073
 505	5.0148e+01	19.9246	64.717304	0.000182	1.824493	0.618155	-0.000073
 506	5.0248e+01	19.8797	64.608302	0.000274	2.736739	0.927232	-0.000110
 507	5.0347e+01	19.8379	64.519485	0.000223	2.229936	0.755523	-0.000089
 508	5.0447e+01	19.7866	64.366074	0.000385	3.851707	1.304994	-0.000154
 509	5.0546e+01	19.7593	64.277257	0.000223	2.229936	0.755523	-0.000089
 510	5.0645e+01	19.7096	64.200551	0.000193	1.925854	0.652497	-0.000077
 511	5.0745e+01	19.6775	64.091548	0.000274	2.736739	0.927232	-0.000110
 512	5.0844e+01	19.6294	63.962360	0.000324	3.243543	1.098942	-0.000130
 513	5.0944e+01	19.6005	63.869506	0.000233	2.331296	0.789865	-0.000093
 514	5.1044e+01	19.5492	63.780689	0.000223	2.229936	0.755523	-0.000089
 515	5.1143e+01	19.5235	63.703983	0.000193	1.925854	0.652497	-0.000077
 516	5.1242e+01	19.4818	63.615166	0.000223	2.229936	0.755523	-0.000089
 517	5.1342e+01	19.4433	63.510201	0.000264	2.635379	0.892890	-0.000105
 518	5.1441e+01	19.3968	63.441570	0.000172	1.723132	0.583813	-0.000069
 519	5.1541e+01	19.3663	63.332567	0.000274	2.736739	0.927232	-0.000110
 520	5.1641e+01	19.3246	63.235676	0.000243	2.432657	0.824207	-0.000097
 521	5.1740e+01	19.2829	63.078227	0.000395	3.953068	1.339336	-0.000158
 522	5.1840e+01	19.2428	62.993447	0.000213	2.128575	0.721181	-0.000085
 523	5.1939e+01	19.1962	62.860222	0.000334	3.344904	1.133284	-0.000134
 524	5.2038e+01	19.1561	62.807739	0.000132	1.317689	0.446445	-0.000053
 525	5.2138e+01	19.1273	62.646254	0.000405	4.054429	1.373678	-0.000162
 526	5.2237e+01	19.0759	62.537251	0.000274	2.736739	0.927232	-0.000110
 527	5.2337e+01	19.0358	62.383840	0.000385	3.851707	1.304994	-0.000154
 528	5.2437e+01	19.0053	62.299060	0.000213	2.128575	0.721181	-0.000085
 529	5.2536e+01	18.9588	62.169872	0.000324	3.243543	1.098942	-0.000130
 530	5.2636e+01	18.9235	62.068943	0.000253	2.534018	0.858548	-0.000101
 531	5.2735e+01	18.8866	61.963978	0.000264	2.635379	0.892890	-0.000105
 532	5.2834e+01	18.8353	61.863049	0.000253	2.534018	0.858548	-0.000101
 533	5.2934e+01	18.8032	61.741935	0.000304	3.040821	1.030258	-0.000122
 534	5.3033e+01	18.7567	61.661193	0.000203	2.027214	0.686839	-0.000081
 535	5.3133e+01	18.7198	61.556227	0.000264	2.635379	0.892890	-0.000105
 536	5.3233e+01	18.6893	61.455299	0.000253	2.534018	0.858548	-0.000101
 537	5.3332e+01	18.6396	61.334185	0.000304	3.040821	1.030258	-0.000122
 538	5.3431e+01	18.5995	61.237293	0.000243	2.432657	0.824207	-0.000097
 539	5.3531e+01	18.5674	61.144439	0.000233	2.331296	0.789865	-0.000093
 540	5.3630e+01	18.5225	61.039474	0.000264	2.635379	0.892890	-0.000105
 541	5.3730e+01	18.4840	60.886063	0.000385	3.851707	1.304994	-0.000154
 542	5.3830e+01	18.4407	60.801283	0.000213	2.128575	0.721181	-0.000085
 543	5.3929e+01	18.4038	60.692280	0.000274	2.736739	0.927232	-0.000110
 544	5.4029e+01	18.3653	60.522720	0.000426	4.257150	1.442361	-0.000170
 545	5.4128e+01	18.3268	60.393532	0.000324	3.243543	1.098942	-0.000130
 546	5.4227e+01	18.2866	60.248195	0.000365	3.648986	1.236310	-0.000146
 547	5.4327e+01	18.2385	60.127081	0.000304	3.040821	1.030258	-0.000122
 548	5.4426e+01	18.1984	60.018078	0.000274	2.736739	0.927232	-0.000110
 549	5.4526e+01	18.1663	59.913113	0.000264	2.635379	0.892890	-0.000105
 550	5.4626e+01	18.1310	59.804110	0.000274	2.736739	0.927232	-0.000110
 551	5.4725e+01	18.0829	59.695108	0.000274	2.736739	0.927232	-0.000110
 552	5.4825e+01	18.0460	59.578031	0.000294	2.939461	0.995916	-0.000118
 553	5.4924e+01	17.9995	59.517474	0.000152	1.520411	0.515129	-0.000061
 554	5.5023e+01	17.9610	59.392322	0.000314	3.142182	1.064600	-0.000126
 555	5.5123e+01	17.9193	59.291394	0.000253	2.534018	0.858548	-0.000101
 556	5.5222e+01	17.8856	59.198540	0.000233	2.331296	0.789865	-0.000093
 557	5.5322e+01	17.8391	59.053203	0.000365	3.648986	1.236310	-0.000146
 558	5.5422e+01	17.8006	58.960349	0.000233	2.331296	0.789865	-0.000093
 559	5.5521e+01	17.7669	58.835198	0.000314	3.142182	1.064600	-0.000126
 560	5.5620e+01	17.7236	58.742344	0.000233	2.331296	0.789865	-0.000093
 561	5.5720e+01	17.6867	58.625267	0.000294	2.939461	0.995916	-0.000118
 562	5.5819e+01	17.6530	58.479930	0.000365	3.648986	1.236310	-0.000146
 563	5.5919e+01	17.6129	58.379001	0.000253	2.534018	0.858548	-0.000101
 564	5.6019e+01	17.5663	58.233664	0.000365	3.648986	1.236310	-0.000146
 565	5.6118e+01	17.5278	58.072179	0.000405	4.054429	1.373678	-0.000162
 566	5.6218e+01	17.4926	57.987399	0.000213	2.128575	0.721181	-0.000085
 567	5.6317e+01	17.4460	57.833988	0.000385	3.851707	1.304994	-0.000154
 568	5.6416e+01	17.4059	57.765357	0.000172	1.723132	0.583813	-0.000069
 569	5.6516e+01	17.3819	57.611946	0.000385	3.851707	1.304994	-0.000154
 570	5.6615e+01	17.3321	57.490831	0.000304	3.040821	1.030258	-0.000122
 571	5.6715e+01	17.2904	57.406052	0.000213	2.128575	0.721181	-0.000085
 572	5.6815e+01	17.2535	57.305123	0.000253	2.534018	0.858548	-0.000101
 573	5.6914e+01	17.2150	57.212269	0.000233	2.331296	0.789865	-0.000093
 574	5.7014e+01	17.1669	57.099229	0.000284	2.838100	0.961574	-0.000114
 575	5.7113e+01	17.1268	56.974078	0.000314	3.142182	1.064600	-0.000126
 576	5.7212e+01	17.0915	56.877187	0.000243	2.432657	0.824207	-0.000097
 577	5.7312e+01	17.0530	56.796444	0.000203	2.027214	0.686839	-0.000081
 578	5.7411e+01	17.0097	56.606699	0.000476	4.763954	1.614071	-0.000191
 579	5.7511e+01	16.9696	56.525956	0.000203	2.027214	0.686839	-0.000081
 580	5.7611e+01	16.9311	56.388693	0.000345	3.446264	1.167626	-0.000138
 581	5.7710e+01	16.8846	56.247394	0.000355	3.547625	1.201968	-0.000142
 582	5.7809e+01	16.8477	56.138391	0.000274	2.736739	0.927232	-0.000110
 583	5.7909e+01	16.8156	55.936534	0.000507	5.068036	1.717097	-0.000203
 584	5.8008e+01	16.7674	55.875977	0.000152	1.520411	0.515129	-0.000061
 585	5.8108e+01	16.7225	55.690269	0.000466	4.662593	1.579729	-0.000187
 586	5.8208e+01	16.6904	55.597415	0.000233	2.331296	0.789865	-0.000093
 587	5.8307e+01	16.6503	55.472264	0.000314	3.142182	1.064600	-0.000126
 588	5.8407e+01	16.6102	55.326927	0.000365	3.648986	1.236310	-0.000146
 589	5.8506e+01	16.5717	55.185627	0.000355	3.547625	1.201968	-0.000142
 590	5.8605e+01	16.5268	55.100847	0.000213	2.128575	0.721181	-0.000085
 591	5.8705e+01	16.4915	54.999919	0.000253	2.534018	0.858548	-0.000101
 592	5.8804e+01	16.4514	54.878805	0.000304	3.040821	1.030258	-0.000122
 593	5.8904e+01	16.4081	54.773839	0.000264	2.635379	0.892890	-0.000105
 594	5.9004e+01	16.3696	54.676948	0.000243	2.432657	0.824207	-0.000097
 595	5.9103e+01	16.3295	54.576019	0.000253	2.534018	0.858548	-0.000101
 596	5.9203e+01	16.2862	54.430683	0.000365	3.648986	1.236310	-0.000146
 597	5.9302e+01	16.2493	54.317643	0.000284	2.838100	0.961574	-0.000114
 598	5.9401e+01	16.1979	54.188454	0.000324	3.243543	1.098942	-0.000130
 599	5.9501e+01	16.1675	54.055229	0.000334	3.344904	1.133284	-0.000134
 600	5.9600e+01	16.1322	53.930078	0.000314	3.142182	1.064600	-0.000126
 601	5.9700e+01	16.0953	53.748407	0.000456	4.561232	1.545387	-0.000183
 602	5.9800e+01	16.0503	53.594995	0.000385	3.851707	1.304994	-0.000154
 603	5.9899e+01	16.0151	53.485993	0.000274	2.736739	0.927232	-0.000110
 604	5.9998e+01	15.9733	53.409287	0.000193	1.925854	0.652497	-0.000077
 605	6.0098e+01	15.9348	53.280099	0.000324	3.243543	1.098942	-0.000130
 606	6.0197e+01	15.8835	53.130725	0.000375	3.750346	1.270652	-0.000150
 607	6.0297e+01	15.8627	52.977314	0.000385	3.851707	1.304994	-0.000154
 608	6.0397e+01	15.8161	52.928868	0.000122	1.216329	0.412103	-0.000049
 609	6.0496e+01	15.7728	52.783531	0.000365	3.648986	1.236310	-0.000146
 610	6.0596e+01	15.7327	52.682603	0.000253	2.534018	0.858548	-0.000101
 611	6.0695e+01	15.7006	52.630120	0.000132	1.317689	0.446445	-0.000053
 612	6.0794e+01	15.6525	52.484783	0.000365	3.648986	1.236310	-0.000146
 613	6.0894e+01	15.6236	52.339446	0.000365	3.648986	1.236310	-0.000146
 614	6.0993e+01	15.5723	52.246592	0.000233	2.331296	0.789865	-0.000093
 615	6.1093e+01	15.5354	52.125478	0.000304	3.040821	1.030258	-0.000122
 616	6.1193e+01	15.4921	51.947844	0.000446	4.459871	1.511045	-0.000179
 617	6.1292e+01	15.4520	51.871139	0.000193	1.925854	0.652497	-0.000077
 618	6.1392e+01	15.4199	51.705616	0.000416	4.155789	1.408020	-0.000166
 619	6.1491e+01	15.3718	51.544131	0.000405	4.054429	1.373678	-0.000162
 620	6.1590e+01	15.3317	51.414942	0.000324	3.243543	1.098942	-0.000130
 621	6.1690e+01	15.2948	51.285754	0.000324	3.243543	1.098942	-0.000130
 622	6.1789e+01	15.2530	51.144454	0.000355	3.547625	1.201968	-0.000142
 623	6.1889e+01	15.2178	51.023340	0.000304	3.040821	1.030258	-0.000122
 624	6.1989e+01	15.1793	50.934523	0.000223	2.229936	0.755523	-0.000089
 625	6.2088e+01	15.1263	50.781112	0.000385	3.851707	1.304994	-0.000154
 626	6.2188e+01	15.0878	50.676146	0.000264	2.635379	0.892890	-0.000105
 627	6.2287e+01	15.0573	50.571181	0.000264	2.635379	0.892890	-0.000105
 628	6.2386e+01	15.0156	50.482364	0.000223	2.229936	0.755523	-0.000089
 629	6.2486e+01	14.9755	50.341064	0.000355	3.547625	1.201968	-0.000142
 630	6.2586e+01	14.9354	50.256284	0.000213	2.128575	0.721181	-0.000085
 631	6.2685e+01	14.9001	50.098836	0.000395	3.953068	1.339336	-0.000158
 632	6.2785e+01	14.8616	49.977722	0.000304	3.040821	1.030258	-0.000122
 633	6.2884e+01	14.8151	49.876793	0.000253	2.534018	0.858548	-0.000101
 634	6.2983e+01	14.7814	49.739531	0.000345	3.446264	1.167626	-0.000138
 635	6.3083e+01	14.7429	49.646677	0.000233	2.331296	0.789865	-0.000093
 636	6.3182e+01	14.7012	49.513451	0.000334	3.344904	1.133284	-0.000134
 637	6.3282e+01	14.6579	49.315632	0.000497	4.966675	1.682755	-0.000199
 638	6.3382e+01	14.6162	49.158183	0.000395	3.953068	1.339336	-0.000158
 639	6.3481e+01	14.5841	49.033032	0.000314	3.142182	1.064600	-0.000126
 640	6.3581e+01	14.5520	48.936141	0.000243	2.432657	0.824207	-0.000097
 641	6.3680e+01	14.4942	48.827138	0.000274	2.736739	0.927232	-0.000110
 642	6.3779e+01	14.4590	48.689876	0.000345	3.446264	1.167626	-0.000138
 643	6.3879e+01	14.4156	48.532427	0.000395	3.953068	1.339336	-0.000158
 644	6.3978e+01	14.3819	48.439573	0.000233	2.331296	0.789865	-0.000093
 645	6.4078e+01	14.3402	48.322496	0.000294	2.939461	0.995916	-0.000118
 646	6.4177e+01	14.2905	48.213494	0.000274	2.736739	0.927232	-0.000110
 647	6.4277e+01	14.2584	48.108528	0.000264	2.635379	0.892890	-0.000105
 648	6.4376e+01	14.2263	47.955117	0.000385	3.851707	1.304994	-0.000154
 649	6.4476e+01	14.1814	47.870337	0.000213	2.128575	0.721181	-0.000085
 650	6.4576e+01	14.1333	47.741149	0.000324	3.243543	1.098942	-0.000130
 651	6.4675e+01	14.1044	47.611960	0.000324	3.243543	1.098942	-0.000130
 652	6.4775e+01	14.0595	47.450475	0.000405	4.054429	1.373678	-0.000162
 653	6.4874e+01	14.0210	47.321287	0.000324	3.243543	1.098942	-0.000130
 654	6.4974e+01	13.9793	47.216321	0.000264	2.635379	0.892890	-0.000105
 655	6.5073e+01	13.9408	47.058873	0.000395	3.953068	1.339336	-0.000158
 656	6.5172e+01	13.9007	46.913536	0.000365	3.648986	1.236310	-0.000146
 657	6.5272e+01	13.8558	46.719753	0.000487	4.865314	1.648413	-0.000195
 658	6.5371e+01	13.8173	46.622862	0.000243	2.432657	0.824207	-0.000097
 659	6.5471e+01	13.7772	46.530008	0.000233	2.331296	0.789865	-0.000093
 660	6.5570e+01	13.7290	46.380634	0.000375	3.750346	1.270652	-0.000150
 661	6.5670e+01	13.6953	46.251446	0.000324	3.243543	1.098942	-0.000130
 662	6.5769e+01	13.6584	46.150517	0.000253	2.534018	0.858548	-0.000101
 663	6.5869e+01	13.6280	46.093997	0.000142	1.419050	0.480787	-0.000057
 664	6.5969e+01	13.5798	45.944623	0.000375	3.750346	1.270652	-0.000150
 665	6.6068e+01	13.5445	45.811398	0.000334	3.344904	1.133284	-0.000134
 666	6.6168e+01	13.4964	45.678172	0.000334	3.344904	1.133284	-0.000134
 667	6.6267e+01	13.4627	45.581281	0.000243	2.432657	0.824207	-0.000097
 668	6.6367e+01	13.4226	45.415758	0.000416	4.155789	1.408020	-0.000166
 669	6.6466e+01	13.3809	45.379424	0.000091	0.912246	0.309077	-0.000037
 670	6.6566e+01	13.3392	45.197753	0.000456	4.561232	1.545387	-0.000183
 671	6.6665e+01	13.3151	45.032231	0.000416	4.155789	1.408020	-0.000166
 672	6.6764e+01	13.2590	44.971674	0.000152	1.520411	0.515129	-0.000061
 673	6.6864e+01	13.2205	44.818262	0.000385	3.851707	1.304994	-0.000154
 674	6.6963e+01	13.1884	44.693111	0.000314	3.142182	1.064600	-0.000126
 675	6.7063e+01	13.1419	44.531626	0.000405	4.054429	1.373678	-0.000162
 676	6.7162e+01	13.1066	44.390326	0.000355	3.547625	1.201968	-0.000142
 677	6.7262e+01	13.0601	44.244989	0.000365	3.648986	1.236310	-0.000146
 678	6.7362e+01	13.0280	44.148098	0.000243	2.432657	0.824207	-0.000097
 679	6.7461e+01	12.9815	44.018910	0.000324	3.243543	1.098942	-0.000130
 680	6.7561e+01	12.9462	43.934130	0.000213	2.128575	0.721181	-0.000085
 681	6.7660e+01	12.9061	43.784756	0.000375	3.750346	1.270652	-0.000150
 682	6.7760e+01	12.8643	43.679790	0.000264	2.635379	0.892890	-0.000105
 683	6.7859e+01	12.8162	43.586936	0.000233	2.331296	0.789865	-0.000093
 684	6.7959e+01	12.7905	43.429488	0.000395	3.953068	1.339336	-0.000158
 685	6.8058e+01	12.7472	43.308374	0.000304	3.040821	1.030258	-0.000122
 686	6.8157e+01	12.7103	43.191297	0.000294	2.939461	0.995916	-0.000118
 687	6.8257e+01	12.6606	43.066145	0.000314	3.142182	1.064600	-0.000126
 688	6.8356e+01	12.6189	42.928883	0.000345	3.446264	1.167626	-0.000138
 689	6.8456e+01	12.5836	42.840066	0.000223	2.229936	0.755523	-0.000089
 690	6.8555e+01	12.5483	42.666469	0.000436	4.358511	1.476703	-0.000174
 691	6.8655e+01	12.5082	42.549392	0.000294	2.939461	0.995916	-0.000118
 692	6.8754e+01	12.4857	42.416167	0.000334	3.344904	1.133284	-0.000134
 693	6.8854e+01	12.4232	42.282941	0.000334	3.344904	1.133284	-0.000134
 694	6.8954e+01	12.3879	42.109344	0.000436	4.358511	1.476703	-0.000174
 695	6.9053e+01	12.3494	41.988230	0.000304	3.040821	1.030258	-0.000122
 696	6.9153e+01	12.3109	41.863079	0.000314	3.142182	1.064600	-0.000126
 697	6.9252e+01	12.2660	41.737928	0.000314	3.142182	1.064600	-0.000126
 698	6.9352e+01	12.2355	41.653148	0.000213	2.128575	0.721181	-0.000085
 699	6.9451e+01	12.1938	41.532034	0.000304	3.040821	1.030258	-0.000122
 700	6.9550e+01	12.1569	41.398808	0.000334	3.344904	1.133284	-0.000134
 701	6.9650e+01	12.1007	41.297880	0.000253	2.534018	0.858548	-0.000101
 702	6.9749e+01	12.0670	41.168692	0.000324	3.243543	1.098942	-0.000130
 703	6.9849e+01	12.0350	41.063726	0.000264	2.635379	0.892890	-0.000105
 704	6.9948e+01	11.9820	40.918389	0.000365	3.648986	1.236310	-0.000146
 705	7.0048e+01	11.9531	40.748830	0.000426	4.257150	1.442361	-0.000170
 706	7.0147e+01	11.9162	40.639827	0.000274	2.736739	0.927232	-0.000110
 707	7.0247e+01	11.8649	40.530824	0.000274	2.736739	0.927232	-0.000110
 708	7.0347e+01	11.8328	40.417784	0.000284	2.838100	0.961574	-0.000114
 709	7.0446e+01	11.7991	40.256299	0.000405	4.054429	1.373678	-0.000162
 710	7.0546e+01	11.7446	40.034257	0.000557	5.574839	1.888807	-0.000223
 711	7.0645e+01	11.7173	39.957551	0.000193	1.925854	0.652497	-0.000077
 712	7.0745e+01	11.6724	39.796066	0.000405	4.054429	1.373678	-0.000162
 713	7.0844e+01	11.6259	39.642654	0.000385	3.851707	1.304994	-0.000154
 714	7.0944e+01	11.5938	39.557875	0.000213	2.128575	0.721181	-0.000085
 715	7.1043e+01	11.5489	39.404463	0.000385	3.851707	1.304994	-0.000154
 716	7.1142e+01	11.5088	39.251052	0.000385	3.851707	1.304994	-0.000154
 717	7.1242e+01	11.4767	39.206644	0.000111	1.114968	0.377761	-0.000045
 718	7.1341e+01	11.4286	39.069381	0.000345	3.446264	1.167626	-0.000138
 719	7.1441e+01	11.3884	38.976527	0.000233	2.331296	0.789865	-0.000093
 720	7.1540e+01	11.3483	38.790819	0.000466	4.662593	1.579729	-0.000187
 721	7.1640e+01	11.3179	38.685853	0.000264	2.635379	0.892890	-0.000105
 722	7.1740e+01	11.2745	38.572813	0.000284	2.838100	0.961574	-0.000114
 723	7.1839e+01	11.2216	38.471885	0.000253	2.534018	0.858548	-0.000101
 724	7.1939e+01	11.1911	38.278103	0.000487	4.865314	1.648413	-0.000195
 725	7.2038e+01	11.1542	38.181211	0.000243	2.432657	0.824207	-0.000097
 726	7.2138e+01	11.1125	38.056060	0.000314	3.142182	1.064600	-0.000126
 727	7.2237e+01	11.0724	37.922835	0.000334	3.344904	1.133284	-0.000134
 728	7.2337e+01	11.0403	37.761349	0.000405	4.054429	1.373678	-0.000162
 729	7.2436e+01	10.9938	37.640235	0.000304	3.040821	1.030258	-0.000122
 730	7.2535e+01	10.9553	37.482787	0.000395	3.953068	1.339336	-0.000158
 731	7.2635e+01	10.9152	37.349561	0.000334	3.344904	1.133284	-0.000134
 732	7.2734e+01	10.8799	37.192113	0.000395	3.953068	1.339336	-0.000158
 733	7.2834e+01	10.8286	37.062925	0.000324	3.243543	1.098942	-0.000130
 734	7.2933e+01	10.7997	36.994293	0.000172	1.723132	0.583813	-0.000069
 735	7.3033e+01	10.7532	36.840882	0.000385	3.851707	1.304994	-0.000154
 736	7.3132e+01	10.7066	36.739954	0.000253	2.534018	0.858548	-0.000101
 737	7.3232e+01	10.6649	36.626914	0.000284	2.838100	0.961574	-0.000114
 738	7.3332e+01	10.6313	36.497726	0.000324	3.243543	1.098942	-0.000130
 739	7.3431e+01	10.5895	36.388723	0.000274	2.736739	0.927232	-0.000110
 740	7.3531e+01	10.5559	36.267609	0.000304	3.040821	1.030258	-0.000122
 741	7.3630e+01	10.5222	36.094012	0.000436	4.358511	1.476703	-0.000174
 742	7.3730e+01	10.4708	36.021344	0.000182	1.824493	0.618155	-0.000073
 743	7.3829e+01	10.4307	35.859858	0.000405	4.054429	1.373678	-0.000162
 744	7.3928e+01	10.3906	35.710484	0.000375	3.750346	1.270652	-0.000150
 745	7.4028e+01	10.3553	35.573222	0.000345	3.446264	1.167626	-0.000138
 746	7.4127e+01	10.3136	35.435959	0.000345	3.446264	1.167626	-0.000138
 747	7.4227e+01	10.2815	35.286585	0.000375	3.750346	1.270652	-0.000150
 748	7.4326e+01	10.2334	35.104914	0.000456	4.561232	1.545387	-0.000183
 749	7.4426e+01	10.1997	34.991874	0.000284	2.838100	0.961574	-0.000114
 750	7.4525e+01	10.1612	34.886908	0.000264	2.635379	0.892890	-0.000105
 751	7.4625e+01	10.1147	34.737534	0.000375	3.750346	1.270652	-0.000150
 752	7.4725e+01	10.0778	34.596235	0.000355	3.547625	1.201968	-0.000142
 753	7.4824e+01	10.0361	34.491269	0.000264	2.635379	0.892890	-0.000105
 754	7.4924e+01	10.0008	34.366118	0.000314	3.142182	1.064600	-0.000126
 755	7.5023e+01	9.9495	34.232892	0.000334	3.344904	1.133284	-0.000134
 756	7.5123e+01	9.9110	34.119853	0.000284	2.838100	0.961574	-0.000114
 757	7.5222e+01	9.8837	34.002776	0.000294	2.939461	0.995916	-0.000118
 758	7.5322e+01	9.8356	33.841290	0.000405	4.054429	1.373678	-0.000162
 759	7.5421e+01	9.8083	33.699991	0.000355	3.547625	1.201968	-0.000142
 760	7.5520e+01	9.7553	33.599062	0.000253	2.534018	0.858548	-0.000101
 761	7.5620e+01	9.7217	33.465837	0.000334	3.344904	1.133284	-0.000134
 762	7.5719e+01	9.6864	33.324537	0.000355	3.547625	1.201968	-0.000142
 763	7.5819e+01	9.6382	33.154977	0.000426	4.257150	1.442361	-0.000170
 764	7.5918e+01	9.5901	32.973306	0.000456	4.561232	1.545387	-0.000183
 765	7.6018e+01	9.5596	32.872378	0.000253	2.534018	0.858548	-0.000101
 766	7.6118e+01	9.5227	32.714929	0.000395	3.953068	1.339336	-0.000158
 767	7.6217e+01	9.4794	32.573630	0.000355	3.547625	1.201968	-0.000142
 768	7.6317e+01	9.4457	32.436367	0.000345	3.446264	1.167626	-0.000138
 769	7.6416e+01	9.4056	32.331402	0.000264	2.635379	0.892890	-0.000105
 770	7.6516e+01	9.3607	32.182028	0.000375	3.750346	1.270652	-0.000150
 771	7.6615e+01	9.3190	32.101285	0.000203	2.027214	0.686839	-0.000081
 772	7.6715e+01	9.2773	31.968059	0.000334	3.344904	1.133284	-0.000134
 773	7.6814e+01	9.2436	31.871168	0.000243	2.432657	0.824207	-0.000097
 774	7.6913e+01	9.1987	31.721794	0.000375	3.750346	1.270652	-0.000150
 775	7.7013e+01	9.1666	31.560309	0.000405	4.054429	1.373678	-0.000162
 776	7.7112e+01	9.1233	31.471492	0.000223	2.229936	0.755523	-0.000089
 777	7.7212e+01	9.0832	31.314043	0.000395	3.953068	1.339336	-0.000158
 778	7.7311e+01	9.0431	31.160632	0.000385	3.851707	1.304994	-0.000154
 779	7.7411e+01	8.9997	31.059704	0.000253	2.534018	0.858548	-0.000101
 780	7.7510e+01	8.9661	30.869958	0.000476	4.763954	1.614071	-0.000191
 781	7.7610e+01	8.9227	30.716547	0.000385	3.851707	1.304994	-0.000154
 782	7.7710e+01	8.8826	30.611582	0.000264	2.635379	0.892890	-0.000105
 783	7.7809e+01	8.8409	30.450096	0.000405	4.054429	1.373678	-0.000162
 784	7.7909e+01	8.8024	30.353205	0.000243	2.432657	0.824207	-0.000097
 785	7.8008e+01	8.7639	30.163460	0.000476	4.763954	1.614071	-0.000191
 786	7.8108e+01	8.7238	30.050420	0.000284	2.838100	0.961574	-0.000114
 787	7.8207e+01	8.6821	29.888934	0.000405	4.054429	1.373678	-0.000162
 788	7.8306e+01	8.6548	29.788006	0.000253	2.534018	0.858548	-0.000101
 789	7.8406e+01	8.5971	29.670929	0.000294	2.939461	0.995916	-0.000118
 790	7.8505e+01	8.5698	29.557889	0.000284	2.838100	0.961574	-0.000114
 791	7.8605e+01	8.5265	29.412552	0.000365	3.648986	1.236310	-0.000146
 792	7.8704e+01	8.4864	29.291438	0.000304	3.040821	1.030258	-0.000122
 793	7.8804e+01	8.4399	29.154176	0.000345	3.446264	1.167626	-0.000138
 794	7.8903e+01	8.4014	29.016913	0.000345	3.446264	1.167626	-0.000138
 795	7.9003e+01	8.3532	28.932133	0.000213	2.128575	0.721181	-0.000085
 796	7.9103e+01	8.3244	28.738351	0.000487	4.865314	1.648413	-0.000195
 797	7.9202e+01	8.2859	28.597051	0.000355	3.547625	1.201968	-0.000142
 798	7.9302e+01	8.2425	28.435566	0.000405	4.054429	1.373678	-0.000162
 799	7.9401e+01	8.2121	28.310414	0.000314	3.142182	1.064600	-0.000126
 800	7.9501e+01	8.1639	28.157003	0.000385	3.851707	1.304994	-0.000154
 801	7.9600e+01	8.1238	28.027815	0.000324	3.243543	1.098942	-0.000130
 802	7.9700e+01	8.0805	27.882478	0.000365	3.648986	1.236310	-0.000146
 803	7.9799e+01	8.0452	27.729067	0.000385	3.851707	1.304994	-0.000154
 804	7.9898e+01	8.0131	27.648324	0.000203	2.027214	0.686839	-0.000081
 805	7.9998e+01	7.9634	27.466653	0.000456	4.561232	1.545387	-0.000183
 806	8.0097e+01	7.9313	27.381873	0.000213	2.128575	0.721181	-0.000085
 807	8.0197e+01	7.8784	27.260759	0.000304	3.040821	1.030258	-0.000122
 808	8.0296e+01	7.8463	27.155794	0.000264	2.635379	0.892890	-0.000105
 809	8.0396e+01	7.8030	27.022568	0.000334	3.344904	1.133284	-0.000134
 810	8.0496e+01	7.7677	26.857045	0.000416	4.155789	1.408020	-0.000166
 811	8.0595e+01	7.7292	26.707671	0.000375	3.750346	1.270652	-0.000150
 812	8.0695e+01	7.6795	26.622892	0.000213	2.128575	0.721181	-0.000085
 813	8.0794e+01	7.6394	26.425072	0.000497	4.966675	1.682755	-0.000199
 814	8.0894e+01	7.5960	26.360478	0.000162	1.621771	0.549471	-0.000065
 815	8.0993e+01	7.5624	26.166695	0.000487	4.865314	1.648413	-0.000195
 816	8.1093e+01	7.5287	26.057693	0.000274	2.736739	0.927232	-0.000110
 817	8.1192e+01	7.4902	25.904281	0.000385	3.851707	1.304994	-0.000154
 818	8.1291e+01	7.4565	25.706462	0.000497	4.966675	1.682755	-0.000199
 819	8.1391e+01	7.4132	25.589385	0.000294	2.939461	0.995916	-0.000118
 820	8.1490e+01	7.3731	25.423862	0.000416	4.155789	1.408020	-0.000166
 821	8.1590e+01	7.3233	25.306785	0.000294	2.939461	0.995916	-0.000118
 822	8.1689e+01	7.2832	25.157411	0.000375	3.750346	1.270652	-0.000150
 823	8.1789e+01	7.2495	25.044372	0.000284	2.838100	0.961574	-0.000114
 824	8.1888e+01	7.1982	24.911146	0.000334	3.344904	1.133284	-0.000134
 825	8.1988e+01	7.1565	24.773883	0.000345	3.446264	1.167626	-0.000138
 826	8.2088e+01	7.1276	24.693141	0.000203	2.027214	0.686839	-0.000081
 827	8.2187e+01	7.0795	24.547804	0.000365	3.648986	1.236310	-0.000146
 828	8.2287e+01	7.0522	24.410541	0.000345	3.446264	1.167626	-0.000138
 829	8.2386e+01	7.0089	24.285390	0.000314	3.142182	1.064600	-0.000126
 830	8.2486e+01	6.9720	24.136016	0.000375	3.750346	1.270652	-0.000150
 831	8.2585e+01	6.9175	24.022976	0.000284	2.838100	0.961574	-0.000114
 832	8.2684e+01	6.9030	23.901862	0.000304	3.040821	1.030258	-0.000122
 833	8.2784e+01	6.8437	23.732302	0.000426	4.257150	1.442361	-0.000170
 834	8.2883e+01	6.8084	23.607151	0.000314	3.142182	1.064600	-0.000126
 835	8.2983e+01	6.7763	23.409332	0.000497	4.966675	1.682755	-0.000199
 836	8.3082e+01	6.7265	23.300329	0.000274	2.736739	0.927232	-0.000110
 837	8.3182e+01	6.6913	23.146918	0.000385	3.851707	1.304994	-0.000154
 838	8.3281e+01	6.6544	23.037915	0.000274	2.736739	0.927232	-0.000110
 839	8.3381e+01	6.6062	22.872393	0.000416	4.155789	1.408020	-0.000166
 840	8.3481e+01	6.5709	22.763390	0.000274	2.736739	0.927232	-0.000110
 841	8.3580e+01	6.5372	22.646313	0.000294	2.939461	0.995916	-0.000118
 842	8.3680e+01	6.4923	22.492902	0.000385	3.851707	1.304994	-0.000154
 843	8.3779e+01	6.4554	22.404085	0.000223	2.229936	0.755523	-0.000089
 844	8.3879e+01	6.4153	22.250674	0.000385	3.851707	1.304994	-0.000154
 845	8.3978e+01	6.3720	22.141671	0.000274	2.736739	0.927232	-0.000110
 846	8.4078e+01	6.3335	21.988260	0.000385	3.851707	1.304994	-0.000154
 847	8.4177e+01	6.2950	21.875220	0.000284	2.838100	0.961574	-0.000114
 848	8.4276e+01	6.2549	21.774292	0.000253	2.534018	0.858548	-0.000101
 849	8.4376e+01	6.2116	21.604732	0.000426	4.257150	1.442361	-0.000170
 850	8.4475e+01	6.1731	21.463432	0.000355	3.547625	1.201968	-0.000142
 851	8.4575e+01	6.1378	21.334244	0.000324	3.243543	1.098942	-0.000130
 852	8.4674e+01	6.0977	21.152573	0.000456	4.561232	1.545387	-0.000183
 853	8.4774e+01	6.0528	20.999162	0.000385	3.851707	1.304994	-0.000154
 854	8.4874e+01	6.0143	20.882085	0.000294	2.939461	0.995916	-0.000118
 855	8.4973e+01	5.9742	20.760971	0.000304	3.040821	1.030258	-0.000122
 856	8.5073e+01	5.9308	20.615634	0.000365	3.648986	1.236310	-0.000146
 857	8.5172e+01	5.8907	20.421851	0.000487	4.865314	1.648413	-0.000195
 858	8.5272e+01	5.8506	20.292663	0.000324	3.243543	1.098942	-0.000130
 859	8.5371e+01	5.8186	20.252291	0.000101	1.013607	0.343419	-0.000041
 860	8.5471e+01	5.7688	20.094843	0.000395	3.953068	1.339336	-0.000158
 861	8.5570e+01	5.7415	19.969692	0.000314	3.142182	1.064600	-0.000126
 862	8.5669e+01	5.7111	19.852615	0.000294	2.939461	0.995916	-0.000118
 863	8.5769e+01	5.6597	19.699204	0.000385	3.851707	1.304994	-0.000154
 864	8.5868e+01	5.6212	19.545793	0.000385	3.851707	1.304994	-0.000154
 865	8.5968e+01	5.5827	19.465050	0.000203	2.027214	0.686839	-0.000081
 866	8.6067e+01	5.5314	19.315676	0.000375	3.750346	1.270652	-0.000150
 867	8.6167e+01	5.4945	19.154191	0.000405	4.054429	1.373678	-0.000162
 868	8.6266e+01	5.4592	19.049225	0.000264	2.635379	0.892890	-0.000105
 869	8.6366e+01	5.4207	18.932148	0.000294	2.939461	0.995916	-0.000118
 870	8.6466e+01	5.3790	18.718180	0.000537	5.372118	1.820123	-0.000215
 871	8.6565e+01	5.3373	18.564769	0.000385	3.851707	1.304994	-0.000154
 872	8.6665e+01	5.3036	18.431543	0.000334	3.344904	1.133284	-0.000134
 873	8.6764e+01	5.2603	18.270058	0.000405	4.054429	1.373678	-0.000162
 874	8.6864e+01	5.2138	18.136832	0.000334	3.344904	1.133284	-0.000134
 875	8.6963e+01	5.1737	18.023793	0.000284	2.838100	0.961574	-0.000114
 876	8.7063e+01	5.1416	17.862307	0.000405	4.054429	1.373678	-0.000162
 877	8.7162e+01	5.0966	17.773490	0.000223	2.229936	0.755523	-0.000089
 878	8.7261e+01	5.0614	17.684673	0.000223	2.229936	0.755523	-0.000089
 879	8.7361e+01	5.0229	17.531262	0.000385	3.851707	1.304994	-0.000154
 880	8.7460e+01	4.9827	17.357665	0.000436	4.358511	1.476703	-0.000174
 881	8.7560e+01	4.9314	17.252700	0.000264	2.635379	0.892890	-0.000105
 882	8.7659e+01	4.9009	17.099288	0.000385	3.851707	1.304994	-0.000154
 883	8.7759e+01	4.8608	16.966063	0.000334	3.344904	1.133284	-0.000134
 884	8.7859e+01	4.8191	16.840912	0.000314	3.142182	1.064600	-0.000126
 885	8.7958e+01	4.7742	16.711723	0.000324	3.243543	1.098942	-0.000130
 886	8.8058e+01	4.7389	16.570424	0.000355	3.547625	1.201968	-0.000142
 887	8.8157e+01	4.6956	16.412975	0.000395	3.953068	1.339336	-0.000158
 888	8.8257e+01	4.6667	16.259564	0.000385	3.851707	1.304994	-0.000154
 889	8.8356e+01	4.6234	16.073856	0.000466	4.662593	1.579729	-0.000187
 890	8.8456e+01	4.5881	15.968890	0.000264	2.635379	0.892890	-0.000105
 891	8.8555e+01	4.5480	15.847776	0.000304	3.040821	1.030258	-0.000122
 892	8.8654e+01	4.4967	15.637845	0.000527	5.270757	1.785781	-0.000211
 893	8.8754e+01	4.4614	15.561140	0.000193	1.925854	0.652497	-0.000077
 894	8.8853e+01	4.4245	15.448100	0.000284	2.838100	0.961574	-0.000114
 895	8.8953e+01	4.3844	15.322949	0.000314	3.142182	1.064600	-0.000126
 896	8.9052e+01	4.3266	15.213946	0.000274	2.736739	0.927232	-0.000110
 897	8.9152e+01	4.2977	15.080721	0.000334	3.344904	1.133284	-0.000134
 898	8.9251e+01	4.2673	14.967681	0.000284	2.838100	0.961574	-0.000114
 899	8.9351e+01	4.2175	14.798121	0.000426	4.257150	1.442361	-0.000170
 900	8.9451e+01	4.1790	14.648747	0.000375	3.750346	1.270652	-0.000150
 901	8.9550e+01	4.1469	14.507447	0.000355	3.547625	1.201968	-0.000142
 902	8.9650e+01	4.0940	14.345962	0.000405	4.054429	1.373678	-0.000162
 903	8.9749e+01	4.0587	14.277331	0.000172	1.723132	0.583813	-0.000069
 904	8.9849e+01	4.0218	14.115845	0.000405	4.054429	1.373678	-0.000162
 905	8.9948e+01	3.9833	13.962434	0.000385	3.851707	1.304994	-0.000154
 906	9.0047e+01	3.9496	13.833246	0.000324	3.243543	1.098942	-0.000130
 907	9.0147e+01	3.9031	13.647537	0.000466	4.662593	1.579729	-0.000187
 908	9.0246e+01	3.8646	13.494126	0.000385	3.851707	1.304994	-0.000154
 909	9.0346e+01	3.8229	13.377049	0.000294	2.939461	0.995916	-0.000118
 910	9.0445e+01	3.7748	13.227675	0.000375	3.750346	1.270652	-0.000150
 911	9.0545e+01	3.7443	13.142895	0.000213	2.128575	0.721181	-0.000085
 912	9.0644e+01	3.7058	12.973336	0.000426	4.257150	1.442361	-0.000170
 913	9.0744e+01	3.6625	12.884519	0.000223	2.229936	0.755523	-0.000089
 914	9.0844e+01	3.6159	12.763405	0.000304	3.040821	1.030258	-0.000122
 915	9.0943e+01	3.5790	12.605956	0.000395	3.953068	1.339336	-0.000158
 916	9.1043e+01	3.5405	12.444471	0.000405	4.054429	1.373678	-0.000162
 917	9.1142e+01	3.5052	12.307208	0.000345	3.446264	1.167626	-0.000138
 918	9.1242e+01	3.4651	12.173983	0.000334	3.344904	1.133284	-0.000134
 919	9.1341e+01	3.4266	11.996349	0.000446	4.459871	1.511045	-0.000179
 920	9.1441e+01	3.3913	11.895420	0.000253	2.534018	0.858548	-0.000101
 921	9.1540e+01	3.3352	11.725861	0.000426	4.257150	1.442361	-0.000170
 922	9.1639e+01	3.3111	11.616858	0.000274	2.736739	0.927232	-0.000110
 923	9.1739e+01	3.2646	11.495744	0.000304	3.040821	1.030258	-0.000122
 924	9.1838e+01	3.2277	11.301961	0.000487	4.865314	1.648413	-0.000195
 925	9.1938e+01	3.1780	11.120290	0.000456	4.561232	1.545387	-0.000183
 926	9.2037e+01	3.1427	11.023399	0.000243	2.432657	0.824207	-0.000097
 927	9.2137e+01	3.1026	10.833654	0.000476	4.763954	1.614071	-0.000191
 928	9.2237e+01	3.0721	10.700428	0.000334	3.344904	1.133284	-0.000134
 929	9.2336e+01	3.0256	10.547017	0.000385	3.851707	1.304994	-0.000154
 930	9.2436e+01	2.9823	10.466274	0.000203	2.027214	0.686839	-0.000081
 931	9.2535e+01	2.9470	10.365346	0.000253	2.534018	0.858548	-0.000101
 932	9.2635e+01	2.9021	10.191749	0.000436	4.358511	1.476703	-0.000174
 933	9.2734e+01	2.8684	10.090821	0.000253	2.534018	0.858548	-0.000101
 934	9.2834e+01	2.8283	9.917224	0.000436	4.358511	1.476703	-0.000174
 935	9.2933e+01	2.7898	9.763813	0.000385	3.851707	1.304994	-0.000154
 936	9.3032e+01	2.7416	9.626550	0.000345	3.446264	1.167626	-0.000138
 937	9.3132e+01	2.7047	9.501399	0.000314	3.142182	1.064600	-0.000126
 938	9.3231e+01	2.6646	9.311654	0.000476	4.763954	1.614071	-0.000191
 939	9.3331e+01	2.6277	9.234948	0.000193	1.925854	0.652497	-0.000077
 940	9.3430e+01	2.5828	9.085574	0.000375	3.750346	1.270652	-0.000150
 941	9.3530e+01	2.5395	8.948311	0.000345	3.446264	1.167626	-0.000138
 942	9.3629e+01	2.5154	8.794900	0.000385	3.851707	1.304994	-0.000154
 943	9.3729e+01	2.4753	8.584969	0.000527	5.270757	1.785781	-0.000211
 944	9.3829e+01	2.4288	8.451744	0.000334	3.344904	1.133284	-0.000134
 945	9.3928e+01	2.3935	8.354852	0.000243	2.432657	0.824207	-0.000097
 946	9.4028e+01	2.3486	8.217590	0.000345	3.446264	1.167626	-0.000138
 947	9.4127e+01	2.3133	8.060142	0.000395	3.953068	1.339336	-0.000158
 948	9.4227e+01	2.2764	7.967287	0.000233	2.331296	0.789865	-0.000093
 949	9.4326e+01	2.2363	7.793691	0.000436	4.358511	1.476703	-0.000174
 950	9.4425e+01	2.1834	7.737171	0.000142	1.419050	0.480787	-0.000057
 951	9.4525e+01	2.1449	7.543388	0.000487	4.865314	1.648413	-0.000195
 952	9.4624e+01	2.1128	7.410163	0.000334	3.344904	1.133284	-0.000134
 953	9.4724e+01	2.0727	7.276937	0.000334	3.344904	1.133284	-0.000134
 954	9.4823e+01	2.0197	7.139675	0.000345	3.446264	1.167626	-0.000138
 955	9.4923e+01	1.9892	6.978189	0.000405	4.054429	1.373678	-0.000162
 956	9.5022e+01	1.9475	6.840927	0.000345	3.446264	1.167626	-0.000138
 957	9.5122e+01	1.9106	6.699627	0.000355	3.547625	1.201968	-0.000142
 958	9.5222e+01	1.8689	6.578513	0.000304	3.040821	1.030258	-0.000122
 959	9.5321e+01	1.8256	6.408953	0.000426	4.257150	1.442361	-0.000170
 960	9.5421e+01	1.7919	6.263616	0.000365	3.648986	1.236310	-0.000146
 961	9.5520e+01	1.7486	6.122316	0.000355	3.547625	1.201968	-0.000142
 962	9.5620e+01	1.7165	5.964868	0.000395	3.953068	1.339336	-0.000158
 963	9.5719e+01	1.6700	5.807420	0.000395	3.953068	1.339336	-0.000158
 964	9.5819e+01	1.6267	5.645934	0.000405	4.054429	1.373678	-0.000162
 965	9.5918e+01	1.5898	5.508672	0.000345	3.446264	1.167626	-0.000138
 966	9.6017e+01	1.5561	5.415818	0.000233	2.331296	0.789865	-0.000093
 967	9.6117e+01	1.5032	5.327001	0.000223	2.229936	0.755523	-0.000089
 968	9.6216e+01	1.4695	5.169552	0.000395	3.953068	1.339336	-0.000158
 969	9.6316e+01	1.4326	5.020178	0.000375	3.750346	1.270652	-0.000150
 970	9.6415e+01	1.3941	4.878879	0.000355	3.547625	1.201968	-0.000142
 971	9.6515e+01	1.3556	4.757764	0.000304	3.040821	1.030258	-0.000122
 972	9.6615e+01	1.3074	4.600316	0.000395	3.953068	1.339336	-0.000158
 973	9.6714e+01	1.2706	4.487276	0.000284	2.838100	0.961574	-0.000114
 974	9.6814e+01	1.2321	4.325791	0.000405	4.054429	1.373678	-0.000162
 975	9.6913e+01	1.1952	4.176417	0.000375	3.750346	1.270652	-0.000150
 976	9.7013e+01	1.1438	4.043191	0.000334	3.344904	1.133284	-0.000134
 977	9.7112e+01	1.1101	3.914003	0.000324	3.243543	1.098942	-0.000130
 978	9.7212e+01	1.0845	3.768666	0.000365	3.648986	1.236310	-0.000146
 979	9.7311e+01	1.0315	3.595069	0.000436	4.358511	1.476703	-0.000174
 980	9.7410e+01	0.9850	3.453770	0.000355	3.547625	1.201968	-0.000142
 981	9.7510e+01	0.9513	3.272099	0.000456	4.561232	1.545387	-0.000183
 982	9.7609e+01	0.9144	3.118687	0.000385	3.851707	1.304994	-0.000154
 983	9.7709e+01	0.8695	3.033908	0.000213	2.128575	0.721181	-0.000085
 984	9.7808e+01	0.8326	2.924905	0.000274	2.736739	0.927232	-0.000110
 985	9.7908e+01	0.7829	2.767457	0.000395	3.953068	1.339336	-0.000158
 986	9.8007e+01	0.7604	2.646342	0.000304	3.040821	1.030258	-0.000122
 987	9.8107e+01	0.7155	2.480820	0.000416	4.155789	1.408020	-0.000166
 988	9.8207e+01	0.6754	2.383929	0.000243	2.432657	0.824207	-0.000097
 989	9.8306e+01	0.6289	2.238592	0.000365	3.648986	1.236310	-0.000146
 990	9.8406e+01	0.5984	2.081143	0.000395	3.953068	1.339336	-0.000158
 991	9.8505e+01	0.5486	1.972141	0.000274	2.736739	0.927232	-0.000110
 992	9.8605e+01	0.5182	1.814693	0.000395	3.953068	1.339336	-0.000158
 993	9.8704e+01	0.4636	1.673393	0.000355	3.547625	1.201968	-0.000142
 994	9.8803e+01	0.4299	1.511907	0.000405	4.054429	1.373678	-0.000162
 995	9.8903e+01	0.3882	1.366570	0.000365	3.648986	1.236310	-0.000146
 996	9.9002e+01	0.3529	1.213159	0.000385	3.851707	1.304994	-0.000154
 997	9.9102e+01	0.3080	1.071860	0.000355	3.547625	1.201968	-0.000142
 998	9.9201e+01	0.2807	0.910374	0.000405	4.054429	1.373678	-0.000162
 999	9.9301e+01	0.2310	0.781186	0.000324	3.243543	1.098942	-0.000130
1000	9.9400e+01	0.1893	0.647960	0.000334	3.344904	1.133284	-0.000134
1001	9.9500e+01	0.1588	0.542995	0.000264	2.635379	0.892890	-0.000105
1002	9.9600e+01	0.1187	0.409769	0.000334	3.344904	1.133284	-0.000134
1003	9.9699e+01	0.0834	0.280581	0.000324	3.243543	1.098942	-0.000130
1004	9.9799e+01	0.0385	0.139281	0.000355	3.547625	1.201968	-0.000142
1005	9.9898e+01	0.0000	0.054501	0.000213	2.128575	0.721181	-0.000085
1006	9.9998e+01	-0.0417	-0.074687	0.000324	3.243543	1.098942	-0.000130
1007	1.0010e+02	-0.0706	-0.215987	0.000355	3.547625	1.201968	-0.000142
1008	1.0020e+02	-0.1171	-0.373435	0.000395	3.953068	1.339336	-0.000158
1009	1.0030e+02	-0.1604	-0.514735	0.000355	3.547625	1.201968	-0.000142
1010	1.0040e+02	-0.1909	-0.672183	0.000395	3.953068	1.339336	-0.000158
1011	1.0050e+02	-0.2342	-0.797334	0.000314	3.142182	1.064600	-0.000126
1012	1.0059e+02	-0.2743	-0.902300	0.000264	2.635379	0.892890	-0.000105
1013	1.0069e+02	-0.3144	-1.075897	0.000436	4.358511	1.476703	-0.000174
1014	1.0079e+02	-0.3561	-1.180862	0.000264	2.635379	0.892890	-0.000105
1015	1.0089e+02	-0.3962	-1.330236	0.000375	3.750346	1.270652	-0.000150
1016	1.0099e+02	-0.4347	-1.528056	0.000497	4.966675	1.682755	-0.000199
1017	1.0109e+02	-0.4749	-1.661281	0.000334	3.344904	1.133284	-0.000134
1018	1.0119e+02	-0.5085	-1.794507	0.000334	3.344904	1.133284	-0.000134
1019	1.0129e+02	-0.5422	-1.907547	0.000284	2.838100	0.961574	-0.000114
1020	1.0139e+02	-0.5904	-2.044809	0.000345	3.446264	1.167626	-0.000138
1021	1.0149e+02	-0.6369	-2.145738	0.000253	2.534018	0.858548	-0.000101
1022	1.0159e+02	-0.6706	-2.295112	0.000375	3.750346	1.270652	-0.000150
1023	1.0169e+02	-0.7139	-2.416226	0.000304	3.040821	1.030258	-0.000122
1024	1.0179e+02	-0.7492	-2.569637	0.000385	3.851707	1.304994	-0.000154
1025	1.0189e+02	-0.7973	-2.723048	0.000385	3.851707	1.304994	-0.000154
1026	1.0199e+02	-0.8358	-2.872422	0.000375	3.750346	1.270652	-0.000150
1027	1.0209e+02	-0.8759	-2.985462	0.000284	2.838100	0.961574	-0.000114
1028	1.0219e+02	-0.9144	-3.159059	0.000436	4.358511	1.476703	-0.000174
1029	1.0229e+02	-0.9545	-3.292284	0.000334	3.344904	1.133284	-0.000134
1030	1.0239e+02	-0.9962	-3.409361	0.000294	2.939461	0.995916	-0.000118
1031	1.0248e+02	-1.0379	-3.530475	0.000304	3.040821	1.030258	-0.000122
1032	1.0258e+02	-1.0652	-3.671775	0.000355	3.547625	1.201968	-0.000142
1033	1.0268e+02	-1.1182	-3.869595	0.000497	4.966675	1.682755	-0.000199
1034	1.0278e+02	-1.1550	-3.978597	0.000274	2.736739	0.927232	-0.000110
1035	1.0288e+02	-1.1935	-4.160268	0.000456	4.561232	1.545387	-0.000183
1036	1.0298e+02	-1.2240	-4.261197	0.000253	2.534018	0.858548	-0.000101
1037	1.0308e+02	-1.2689	-4.418645	0.000395	3.953068	1.339336	-0.000158
1038	1.0318e+02	-1.3123	-4.495351	0.000193	1.925854	0.652497	-0.000077
1039	1.0328e+02	-1.3524	-4.648762	0.000385	3.851707	1.304994	-0.000154
1040	1.0338e+02	-1.3861	-4.786024	0.000345	3.446264	1.167626	-0.000138
1041	1.0348e+02	-1.4278	-4.931361	0.000365	3.648986	1.236310	-0.000146
1042	1.0358e+02	-1.4599	-5.048438	0.000294	2.939461	0.995916	-0.000118
1043	1.0368e+02	-1.5176	-5.213961	0.000416	4.155789	1.408020	-0.000166
1044	1.0378e+02	-1.5561	-5.375446	0.000405	4.054429	1.373678	-0.000162
1045	1.0388e+02	-1.5850	-5.488486	0.000284	2.838100	0.961574	-0.000114
1046	1.0398e+02	-1.6315	-5.629786	0.000355	3.547625	1.201968	-0.000142
1047	1.0408e+02	-1.6652	-5.771086	0.000355	3.547625	1.201968	-0.000142
1048	1.0418e+02	-1.7085	-5.888162	0.000294	2.939461	0.995916	-0.000118
1049	1.0428e+02	-1.7550	-6.057722	0.000426	4.257150	1.442361	-0.000170
1050	1.0438e+02	-1.7807	-6.235356	0.000446	4.459871	1.511045	-0.000179
1051	1.0447e+02	-1.8256	-6.356470	0.000304	3.040821	1.030258	-0.000122
1052	1.0457e+02	-1.8657	-6.473547	0.000294	2.939461	0.995916	-0.000118
1053	1.0467e+02	-1.9138	-6.671367	0.000497	4.966675	1.682755	-0.000199
1054	1.0477e+02	-1.9540	-6.780369	0.000274	2.736739	0.927232	-0.000110
1055	1.0487e+02	-1.9764	-6.861112	0.000203	2.027214	0.686839	-0.000081
1056	1.0497e+02	-2.0294	-7.002412	0.000355	3.547625	1.201968	-0.000142
1057	1.0507e+02	-2.0695	-7.111415	0.000274	2.736739	0.927232	-0.000110
1058	1.0517e+02	-2.1144	-7.285011	0.000436	4.358511	1.476703	-0.000174
1059	1.0527e+02	-2.1481	-7.442460	0.000395	3.953068	1.339336	-0.000158
1060	1.0537e+02	-2.1802	-7.567611	0.000314	3.142182	1.064600	-0.000126
1061	1.0547e+02	-2.2219	-7.696799	0.000324	3.243543	1.098942	-0.000130
1062	1.0557e+02	-2.2716	-7.858285	0.000405	4.054429	1.373678	-0.000162
1063	1.0567e+02	-2.3021	-7.959213	0.000253	2.534018	0.858548	-0.000101
1064	1.0577e+02	-2.3550	-8.112624	0.000385	3.851707	1.304994	-0.000154
1065	1.0587e+02	-2.3855	-8.241813	0.000324	3.243543	1.098942	-0.000130
1066	1.0597e+02	-2.4368	-8.387149	0.000365	3.648986	1.236310	-0.000146
1067	1.0607e+02	-2.4657	-8.532486	0.000365	3.648986	1.236310	-0.000146
1068	1.0617e+02	-2.4978	-8.677823	0.000365	3.648986	1.236310	-0.000146
1069	1.0627e+02	-2.5379	-8.863532	0.000466	4.662593	1.579729	-0.000187
1070	1.0637e+02	-2.5892	-8.964460	0.000253	2.534018	0.858548	-0.000101
1071	1.0647e+02	-2.6245	-9.057314	0.000233	2.331296	0.789865	-0.000093
1072	1.0656e+02	-2.6694	-9.194577	0.000345	3.446264	1.167626	-0.000138
1073	1.0666e+02	-2.6999	-9.327802	0.000334	3.344904	1.133284	-0.000134
1074	1.0676e+02	-2.7448	-9.465065	0.000345	3.446264	1.167626	-0.000138
1075	1.0686e+02	-2.7833	-9.598290	0.000334	3.344904	1.133284	-0.000134
1076	1.0696e+02	-2.8202	-9.731516	0.000334	3.344904	1.133284	-0.000134
1077	1.0706e+02	-2.8684	-9.893001	0.000405	4.054429	1.373678	-0.000162
1078	1.0716e+02	-2.9101	-9.997967	0.000264	2.635379	0.892890	-0.000105
1079	1.0726e+02	-2.9422	-10.163489	0.000416	4.155789	1.408020	-0.000166
1080	1.0736e+02	-2.9871	-10.272492	0.000274	2.736739	0.927232	-0.000110
1081	1.0746e+02	-3.0272	-10.409755	0.000345	3.446264	1.167626	-0.000138
1082	1.0756e+02	-3.0609	-10.567203	0.000395	3.953068	1.339336	-0.000158
1083	1.0766e+02	-3.1122	-10.732725	0.000416	4.155789	1.408020	-0.000166
1084	1.0776e+02	-3.1411	-10.841728	0.000274	2.736739	0.927232	-0.000110
1085	1.0786e+02	-3.1748	-10.987065	0.000365	3.648986	1.236310	-0.000146
1086	1.0796e+02	-3.2213	-11.140476	0.000385	3.851707	1.304994	-0.000154
1087	1.0806e+02	-3.2582	-11.326184	0.000466	4.662593	1.579729	-0.000187
1088	1.0816e+02	-3.3015	-11.471521	0.000365	3.648986	1.236310	-0.000146
1089	1.0826e+02	-3.3464	-11.576487	0.000264	2.635379	0.892890	-0.000105
1090	1.0836e+02	-3.3721	-11.665304	0.000223	2.229936	0.755523	-0.000089
1091	1.0845e+02	-3.4202	-11.822752	0.000395	3.953068	1.339336	-0.000158
1092	1.0855e+02	-3.4603	-11.968089	0.000365	3.648986	1.236310	-0.000146
1093	1.0865e+02	-3.5052	-12.097277	0.000324	3.243543	1.098942	-0.000130
1094	1.0875e+02	-3.5421	-12.234540	0.000345	3.446264	1.167626	-0.000138
1095	1.0885e+02	-3.5871	-12.391988	0.000395	3.953068	1.339336	-0.000158
1096	1.0895e+02	-3.6272	-12.492917	0.000253	2.534018	0.858548	-0.000101
1097	1.0905e+02	-3.6528	-12.658439	0.000416	4.155789	1.408020	-0.000166
1098	1.0915e+02	-3.7026	-12.771479	0.000284	2.838100	0.961574	-0.000114
1099	1.0925e+02	-3.7491	-12.981410	0.000527	5.270757	1.785781	-0.000211
1100	1.0935e+02	-3.7828	-13.046004	0.000162	1.621771	0.549471	-0.000065
1101	1.0945e+02	-3.8277	-13.264009	0.000547	5.473479	1.854465	-0.000219
1102	1.0955e+02	-3.8614	-13.377049	0.000284	2.838100	0.961574	-0.000114
1103	1.0965e+02	-3.8919	-13.510275	0.000334	3.344904	1.133284	-0.000134
1104	1.0975e+02	-3.9448	-13.639463	0.000324	3.243543	1.098942	-0.000130
1105	1.0985e+02	-3.9833	-13.817097	0.000446	4.459871	1.511045	-0.000179
1106	1.0995e+02	-4.0218	-13.958397	0.000355	3.547625	1.201968	-0.000142
1107	1.1005e+02	-4.0491	-14.083548	0.000314	3.142182	1.064600	-0.000126
1108	1.1015e+02	-4.0940	-14.140068	0.000142	1.419050	0.480787	-0.000057
1109	1.1025e+02	-4.1357	-14.313665	0.000436	4.358511	1.476703	-0.000174
1110	1.1035e+02	-4.1774	-14.475150	0.000405	4.054429	1.373678	-0.000162
1111	1.1044e+02	-4.2191	-14.576079	0.000253	2.534018	0.858548	-0.000101
1112	1.1054e+02	-4.2576	-14.693156	0.000294	2.939461	0.995916	-0.000118
1113	1.1064e+02	-4.3058	-14.830418	0.000345	3.446264	1.167626	-0.000138
1114	1.1074e+02	-4.3378	-15.004015	0.000436	4.358511	1.476703	-0.000174
1115	1.1084e+02	-4.3844	-15.161463	0.000395	3.953068	1.339336	-0.000158
1116	1.1094e+02	-4.4165	-15.286614	0.000314	3.142182	1.064600	-0.000126
1117	1.1104e+02	-4.4614	-15.444063	0.000395	3.953068	1.339336	-0.000158
1118	1.1114e+02	-4.5047	-15.540954	0.000243	2.432657	0.824207	-0.000097
1119	1.1124e+02	-4.5464	-15.674180	0.000334	3.344904	1.133284	-0.000134
1120	1.1134e+02	-4.5785	-15.831628	0.000395	3.953068	1.339336	-0.000158
1121	1.1144e+02	-4.6090	-15.981002	0.000375	3.750346	1.270652	-0.000150
1122	1.1154e+02	-4.6571	-16.122302	0.000355	3.547625	1.201968	-0.000142
1123	1.1164e+02	-4.6956	-16.247453	0.000314	3.142182	1.064600	-0.000126
1124	1.1174e+02	-4.7373	-16.408938	0.000405	4.054429	1.373678	-0.000162
1125	1.1184e+02	-4.7694	-16.526015	0.000294	2.939461	0.995916	-0.000118
1126	1.1194e+02	-4.8191	-16.647129	0.000304	3.040821	1.030258	-0.000122
1127	1.1204e+02	-4.8624	-16.792466	0.000365	3.648986	1.236310	-0.000146
1128	1.1214e+02	-4.8977	-16.897432	0.000264	2.635379	0.892890	-0.000105
1129	1.1224e+02	-4.9282	-17.034694	0.000345	3.446264	1.167626	-0.000138
1130	1.1234e+02	-4.9715	-17.192143	0.000395	3.953068	1.339336	-0.000158
1131	1.1244e+02	-5.0132	-17.321331	0.000324	3.243543	1.098942	-0.000130
1132	1.1253e+02	-5.0598	-17.442445	0.000304	3.040821	1.030258	-0.000122
1133	1.1263e+02	-5.0999	-17.599893	0.000395	3.953068	1.339336	-0.000158
1134	1.1273e+02	-5.1368	-17.712933	0.000284	2.838100	0.961574	-0.000114
1135	1.1283e+02	-5.1833	-17.850196	0.000345	3.446264	1.167626	-0.000138
1136	1.1293e+02	-5.2234	-18.003607	0.000385	3.851707	1.304994	-0.000154
1137	1.1303e+02	-5.2523	-18.140869	0.000345	3.446264	1.167626	-0.000138
1138	1.1313e+02	-5.3020	-18.286206	0.000365	3.648986	1.236310	-0.000146
1139	1.1323e+02	-5.3405	-18.463840	0.000446	4.459871	1.511045	-0.000179
1140	1.1333e+02	-5.3806	-18.625326	0.000405	4.054429	1.373678	-0.000162
1141	1.1343e+02	-5.4079	-18.714143	0.000223	2.229936	0.755523	-0.000089
1142	1.1353e+02	-5.4560	-18.855442	0.000355	3.547625	1.201968	-0.000142
1143	1.1363e+02	-5.4929	-18.968482	0.000284	2.838100	0.961574	-0.000114
1144	1.1373e+02	-5.5362	-19.097671	0.000324	3.243543	1.098942	-0.000130
1145	1.1383e+02	-5.5731	-19.251082	0.000385	3.851707	1.304994	-0.000154
1146	1.1393e+02	-5.6164	-19.343936	0.000233	2.331296	0.789865	-0.000093
1147	1.1403e+02	-5.6549	-19.489273	0.000365	3.648986	1.236310	-0.000146
1148	1.1413e+02	-5.6918	-19.614424	0.000314	3.142182	1.064600	-0.000126
1149	1.1423e+02	-5.7367	-19.735538	0.000304	3.040821	1.030258	-0.000122
1150	1.1433e+02	-5.7672	-19.868764	0.000334	3.344904	1.133284	-0.000134
1151	1.1442e+02	-5.8153	-20.001989	0.000334	3.344904	1.133284	-0.000134
1152	1.1452e+02	-5.8490	-20.131177	0.000324	3.243543	1.098942	-0.000130
1153	1.1462e+02	-5.8972	-20.308811	0.000446	4.459871	1.511045	-0.000179
1154	1.1472e+02	-5.9260	-20.446074	0.000345	3.446264	1.167626	-0.000138
1155	1.1482e+02	-5.9726	-20.603522	0.000395	3.953068	1.339336	-0.000158
1156	1.1492e+02	-6.0062	-20.756933	0.000385	3.851707	1.304994	-0.000154
1157	1.1502e+02	-6.0383	-20.898233	0.000355	3.547625	1.201968	-0.000142
1158	1.1512e+02	-6.0897	-21.055681	0.000395	3.953068	1.339336	-0.000158
1159	1.1522e+02	-6.1330	-21.168721	0.000284	2.838100	0.961574	-0.000114
1160	1.1532e+02	-6.1731	-21.281761	0.000284	2.838100	0.961574	-0.000114
1161	1.1542e+02	-6.2068	-21.414987	0.000334	3.344904	1.133284	-0.000134
1162	1.1552e+02	-6.2517	-21.564361	0.000375	3.750346	1.270652	-0.000150
1163	1.1562e+02	-6.2886	-21.657215	0.000233	2.331296	0.789865	-0.000093
1164	1.1572e+02	-6.3271	-21.794477	0.000345	3.446264	1.167626	-0.000138
1165	1.1582e+02	-6.3752	-21.891369	0.000243	2.432657	0.824207	-0.000097
1166	1.1592e+02	-6.4105	-22.044780	0.000385	3.851707	1.304994	-0.000154
1167	1.1602e+02	-6.4490	-22.165894	0.000304	3.040821	1.030258	-0.000122
1168	1.1612e+02	-6.4891	-22.331416	0.000416	4.155789	1.408020	-0.000166
1169	1.1622e+02	-6.5276	-22.428308	0.000243	2.432657	0.824207	-0.000097
1170	1.1632e+02	-6.5597	-22.585756	0.000395	3.953068	1.339336	-0.000158
1171	1.1642e+02	-6.6078	-22.714944	0.000324	3.243543	1.098942	-0.000130
1172	1.1651e+02	-6.6415	-22.827984	0.000284	2.838100	0.961574	-0.000114
1173	1.1661e+02	-6.6832	-22.993507	0.000416	4.155789	1.408020	-0.000166
1174	1.1671e+02	-6.7314	-23.159029	0.000416	4.155789	1.408020	-0.000166
1175	1.1681e+02	-6.7602	-23.280143	0.000304	3.040821	1.030258	-0.000122
1176	1.1691e+02	-6.8019	-23.405294	0.000314	3.142182	1.064600	-0.000126
1177	1.1701e+02	-6.8565	-23.530446	0.000314	3.142182	1.064600	-0.000126
1178	1.1711e+02	-6.8870	-23.623300	0.000233	2.331296	0.789865	-0.000093
1179	1.1721e+02	-6.9255	-23.752488	0.000324	3.243543	1.098942	-0.000130
1180	1.1731e+02	-6.9640	-23.881676	0.000324	3.243543	1.098942	-0.000130
1181	1.1741e+02	-7.0105	-23.978568	0.000243	2.432657	0.824207	-0.000097
1182	1.1751e+02	-7.0506	-24.131979	0.000385	3.851707	1.304994	-0.000154
1183	1.1761e+02	-7.0907	-24.253093	0.000304	3.040821	1.030258	-0.000122
1184	1.1771e+02	-7.1260	-24.398430	0.000365	3.648986	1.236310	-0.000146
1185	1.1781e+02	-7.1677	-24.531655	0.000334	3.344904	1.133284	-0.000134
1186	1.1791e+02	-7.2078	-24.640658	0.000274	2.736739	0.927232	-0.000110
1187	1.1801e+02	-7.2399	-24.806181	0.000416	4.155789	1.408020	-0.000166
1188	1.1811e+02	-7.2848	-24.915183	0.000274	2.736739	0.927232	-0.000110
1189	1.1821e+02	-7.3378	-25.040334	0.000314	3.142182	1.064600	-0.000126
1190	1.1831e+02	-7.3618	-25.197783	0.000395	3.953068	1.339336	-0.000158
1191	1.1841e+02	-7.4051	-25.351194	0.000385	3.851707	1.304994	-0.000154
1192	1.1850e+02	-7.4388	-25.468271	0.000294	2.939461	0.995916	-0.000118
1193	1.1860e+02	-7.4821	-25.662053	0.000487	4.865314	1.648413	-0.000195
1194	1.1870e+02	-7.5206	-25.787205	0.000314	3.142182	1.064600	-0.000126
1195	1.1880e+02	-7.5527	-25.920430	0.000334	3.344904	1.133284	-0.000134
1196	1.1890e+02	-7.6089	-26.029433	0.000274	2.736739	0.927232	-0.000110
1197	1.1900e+02	-7.6458	-26.118250	0.000223	2.229936	0.755523	-0.000089
1198	1.1910e+02	-7.6859	-26.219178	0.000253	2.534018	0.858548	-0.000101
1199	1.1920e+02	-7.7260	-26.316069	0.000243	2.432657	0.824207	-0.000097
1200	1.1930e+02	-7.7581	-26.481592	0.000416	4.155789	1.408020	-0.000166
1201	1.1940e+02	-7.8046	-26.622892	0.000355	3.547625	1.201968	-0.000142
1202	1.1950e+02	-7.8383	-26.752080	0.000324	3.243543	1.098942	-0.000130
1203	1.1960e+02	-7.8880	-26.881268	0.000324	3.243543	1.098942	-0.000130
1204	1.1970e+02	-7.9201	-27.018531	0.000345	3.446264	1.167626	-0.000138
1205	1.1980e+02	-7.9618	-27.107348	0.000223	2.229936	0.755523	-0.000089
1206	1.1990e+02	-8.0019	-27.272870	0.000416	4.155789	1.408020	-0.000166
1207	1.2000e+02	-8.0404	-27.393985	0.000304	3.040821	1.030258	-0.000122
1208	1.2010e+02	-8.0789	-27.555470	0.000405	4.054429	1.373678	-0.000162
1209	1.2020e+02	-8.1286	-27.652361	0.000243	2.432657	0.824207	-0.000097
1210	1.2030e+02	-8.1639	-27.854218	0.000507	5.068036	1.717097	-0.000203
1211	1.2039e+02	-8.2024	-28.015703	0.000405	4.054429	1.373678	-0.000162
1212	1.2049e+02	-8.2442	-28.096446	0.000203	2.027214	0.686839	-0.000081
1213	1.2059e+02	-8.2810	-28.237746	0.000355	3.547625	1.201968	-0.000142
1214	1.2069e+02	-8.3196	-28.379046	0.000355	3.547625	1.201968	-0.000142
1215	1.2079e+02	-8.3629	-28.479974	0.000253	2.534018	0.858548	-0.000101
1216	1.2089e+02	-8.4030	-28.568791	0.000223	2.229936	0.755523	-0.000089
1217	1.2099e+02	-8.4318	-28.718165	0.000375	3.750346	1.270652	-0.000150
1218	1.2109e+02	-8.4816	-28.839279	0.000304	3.040821	1.030258	-0.000122
1219	1.2119e+02	-8.5265	-28.960393	0.000304	3.040821	1.030258	-0.000122
1220	1.2129e+02	-8.5586	-29.093619	0.000334	3.344904	1.133284	-0.000134
1221	1.2139e+02	-8.6051	-29.190510	0.000243	2.432657	0.824207	-0.000097
1222	1.2149e+02	-8.6452	-29.351995	0.000405	4.054429	1.373678	-0.000162
1223	1.2159e+02	-8.6773	-29.517518	0.000416	4.155789	1.408020	-0.000166
1224	1.2169e+02	-8.7190	-29.610372	0.000233	2.331296	0.789865	-0.000093
1225	1.2179e+02	-8.7511	-29.759746	0.000375	3.750346	1.270652	-0.000150
1226	1.2189e+02	-8.7928	-29.905083	0.000365	3.648986	1.236310	-0.000146
1227	1.2199e+02	-8.8377	-30.054457	0.000375	3.750346	1.270652	-0.000150
1228	1.2209e+02	-8.8730	-30.179608	0.000314	3.142182	1.064600	-0.000126
1229	1.2219e+02	-8.9195	-30.312834	0.000334	3.344904	1.133284	-0.000134
1230	1.2229e+02	-8.9564	-30.437985	0.000314	3.142182	1.064600	-0.000126
1231	1.2239e+02	-8.9981	-30.546988	0.000274	2.736739	0.927232	-0.000110
1232	1.2248e+02	-9.0415	-30.700399	0.000385	3.851707	1.304994	-0.000154
1233	1.2258e+02	-9.0703	-30.793253	0.000233	2.331296	0.789865	-0.000093
1234	1.2268e+02	-9.1169	-30.878033	0.000213	2.128575	0.721181	-0.000085
1235	1.2278e+02	-9.1570	-31.019332	0.000355	3.547625	1.201968	-0.000142
1236	1.2288e+02	-9.1955	-31.112187	0.000233	2.331296	0.789865	-0.000093
1237	1.2298e+02	-9.2420	-31.261561	0.000375	3.750346	1.270652	-0.000150
1238	1.2308e+02	-9.2805	-31.459380	0.000497	4.966675	1.682755	-0.000199
1239	1.2318e+02	-9.3142	-31.548197	0.000223	2.229936	0.755523	-0.000089
1240	1.2328e+02	-9.3639	-31.608754	0.000152	1.520411	0.515129	-0.000061
1241	1.2338e+02	-9.4040	-31.774277	0.000416	4.155789	1.408020	-0.000166
1242	1.2348e+02	-9.4425	-31.911539	0.000345	3.446264	1.167626	-0.000138
1243	1.2358e+02	-9.4698	-32.048802	0.000345	3.446264	1.167626	-0.000138
1244	1.2368e+02	-9.5147	-32.254696	0.000517	5.169396	1.751439	-0.000207
1245	1.2378e+02	-9.5564	-32.331402	0.000193	1.925854	0.652497	-0.000077
1246	1.2388e+02	-9.5933	-32.464627	0.000334	3.344904	1.133284	-0.000134
1247	1.2398e+02	-9.6254	-32.561518	0.000243	2.432657	0.824207	-0.000097
1248	1.2408e+02	-9.6671	-32.694744	0.000334	3.344904	1.133284	-0.000134
1249	1.2418e+02	-9.7233	-32.860266	0.000416	4.155789	1.408020	-0.000166
1250	1.2428e+02	-9.7457	-32.965232	0.000264	2.635379	0.892890	-0.000105
1251	1.2438e+02	-9.7922	-33.102494	0.000345	3.446264	1.167626	-0.000138
1252	1.2447e+02	-9.8388	-33.150940	0.000122	1.216329	0.412103	-0.000049
1253	1.2457e+02	-9.8789	-33.304351	0.000385	3.851707	1.304994	-0.000154
1254	1.2467e+02	-9.9110	-33.469874	0.000416	4.155789	1.408020	-0.000166
1255	1.2477e+02	-9.9607	-33.607136	0.000345	3.446264	1.167626	-0.000138
1256	1.2487e+02	-9.9912	-33.695953	0.000223	2.229936	0.755523	-0.000089
1257	1.2497e+02	-10.0393	-33.853402	0.000395	3.953068	1.339336	-0.000158
1258	1.2507e+02	-10.0666	-33.958367	0.000264	2.635379	0.892890	-0.000105
1259	1.2517e+02	-10.1147	-34.148113	0.000476	4.763954	1.614071	-0.000191
1260	1.2527e+02	-10.1468	-34.273264	0.000314	3.142182	1.064600	-0.000126
1261	1.2537e+02	-10.1981	-34.390341	0.000294	2.939461	0.995916	-0.000118
1262	1.2547e+02	-10.2350	-34.535678	0.000365	3.648986	1.236310	-0.000146
1263	1.2557e+02	-10.2687	-34.672940	0.000345	3.446264	1.167626	-0.000138
1264	1.2567e+02	-10.3200	-34.830389	0.000395	3.953068	1.339336	-0.000158
1265	1.2577e+02	-10.3457	-34.935354	0.000264	2.635379	0.892890	-0.000105
1266	1.2587e+02	-10.3922	-35.080691	0.000365	3.648986	1.236310	-0.000146
1267	1.2597e+02	-10.4323	-35.209879	0.000324	3.243543	1.098942	-0.000130
1268	1.2607e+02	-10.4788	-35.290622	0.000203	2.027214	0.686839	-0.000081
1269	1.2617e+02	-10.5174	-35.439996	0.000375	3.750346	1.270652	-0.000150
1270	1.2627e+02	-10.5494	-35.553036	0.000284	2.838100	0.961574	-0.000114
1271	1.2636e+02	-10.5992	-35.625704	0.000182	1.824493	0.618155	-0.000073
1272	1.2646e+02	-10.6393	-35.746818	0.000304	3.040821	1.030258	-0.000122
1273	1.2656e+02	-10.6730	-35.884081	0.000345	3.446264	1.167626	-0.000138
1274	1.2666e+02	-10.7083	-36.041529	0.000395	3.953068	1.339336	-0.000158
1275	1.2676e+02	-10.7548	-36.158606	0.000294	2.939461	0.995916	-0.000118
1276	1.2686e+02	-10.7885	-36.295869	0.000345	3.446264	1.167626	-0.000138
1277	1.2696e+02	-10.8302	-36.453317	0.000395	3.953068	1.339336	-0.000158
1278	1.2706e+02	-10.8751	-36.550208	0.000243	2.432657	0.824207	-0.000097
1279	1.2716e+02	-10.9104	-36.707657	0.000395	3.953068	1.339336	-0.000158
1280	1.2726e+02	-10.9473	-36.865105	0.000395	3.953068	1.339336	-0.000158
1281	1.2736e+02	-10.9922	-37.002368	0.000345	3.446264	1.167626	-0.000138
1282	1.2746e+02	-11.0275	-37.115407	0.000284	2.838100	0.961574	-0.000114
1283	1.2756e+02	-11.0644	-37.224410	0.000274	2.736739	0.927232	-0.000110
1284	1.2766e+02	-11.1077	-37.345524	0.000304	3.040821	1.030258	-0.000122
1285	1.2776e+02	-11.1510	-37.486824	0.000355	3.547625	1.201968	-0.000142
1286	1.2786e+02	-11.1895	-37.603901	0.000294	2.939461	0.995916	-0.000118
1287	1.2796e+02	-11.2312	-37.700792	0.000243	2.432657	0.824207	-0.000097
1288	1.2806e+02	-11.2681	-37.805758	0.000264	2.635379	0.892890	-0.000105
1289	1.2816e+02	-11.3163	-37.934946	0.000324	3.243543	1.098942	-0.000130
1290	1.2826e+02	-11.3499	-38.072209	0.000345	3.446264	1.167626	-0.000138
1291	1.2835e+02	-11.3917	-38.173137	0.000253	2.534018	0.858548	-0.000101
1292	1.2845e+02	-11.4302	-38.306362	0.000334	3.344904	1.133284	-0.000134
1293	1.2855e+02	-11.4687	-38.443625	0.000345	3.446264	1.167626	-0.000138
1294	1.2865e+02	-11.5072	-38.597036	0.000385	3.851707	1.304994	-0.000154
1295	1.2875e+02	-11.5489	-38.758522	0.000405	4.054429	1.373678	-0.000162
1296	1.2885e+02	-11.5842	-38.883673	0.000314	3.142182	1.064600	-0.000126
1297	1.2895e+02	-11.6307	-39.008824	0.000314	3.142182	1.064600	-0.000126
1298	1.2905e+02	-11.6644	-39.138012	0.000324	3.243543	1.098942	-0.000130
1299	1.2915e+02	-11.7093	-39.226829	0.000223	2.229936	0.755523	-0.000089
1300	1.2925e+02	-11.7462	-39.396389	0.000426	4.257150	1.442361	-0.000170
1301	1.2935e+02	-11.7975	-39.537689	0.000355	3.547625	1.201968	-0.000142
1302	1.2945e+02	-11.8216	-39.630543	0.000233	2.331296	0.789865	-0.000093
1303	1.2955e+02	-11.8761	-39.759731	0.000324	3.243543	1.098942	-0.000130
1304	1.2965e+02	-11.9098	-39.905068	0.000365	3.648986	1.236310	-0.000146
1305	1.2975e+02	-11.9515	-39.997922	0.000233	2.331296	0.789865	-0.000093
1306	1.2985e+02	-11.9884	-40.086739	0.000223	2.229936	0.755523	-0.000089
1307	1.2995e+02	-12.0269	-40.167482	0.000203	2.027214	0.686839	-0.000081
1308	1.3005e+02	-12.0654	-40.288596	0.000304	3.040821	1.030258	-0.000122
1309	1.3015e+02	-12.1136	-40.433933	0.000365	3.648986	1.236310	-0.000146
1310	1.3025e+02	-12.1489	-40.619641	0.000466	4.662593	1.579729	-0.000187
1311	1.3034e+02	-12.1938	-40.696347	0.000193	1.925854	0.652497	-0.000077
1312	1.3044e+02	-12.2178	-40.869944	0.000436	4.358511	1.476703	-0.000174
1313	1.3054e+02	-12.2628	-40.995095	0.000314	3.142182	1.064600	-0.000126
1314	1.3064e+02	-12.3045	-41.108135	0.000284	2.838100	0.961574	-0.000114
1315	1.3074e+02	-12.3446	-41.241360	0.000334	3.344904	1.133284	-0.000134
1316	1.3084e+02	-12.3847	-41.378623	0.000345	3.446264	1.167626	-0.000138
1317	1.3094e+02	-12.4216	-41.548182	0.000426	4.257150	1.442361	-0.000170
1318	1.3104e+02	-12.4617	-41.641037	0.000233	2.331296	0.789865	-0.000093
1319	1.3114e+02	-12.5146	-41.754076	0.000284	2.838100	0.961574	-0.000114
1320	1.3124e+02	-12.5339	-41.907488	0.000385	3.851707	1.304994	-0.000154
1321	1.3134e+02	-12.5852	-42.012453	0.000264	2.635379	0.892890	-0.000105
1322	1.3144e+02	-12.6237	-42.121456	0.000274	2.736739	0.927232	-0.000110
1323	1.3154e+02	-12.6686	-42.238533	0.000294	2.939461	0.995916	-0.000118
1324	1.3164e+02	-12.7103	-42.303127	0.000162	1.621771	0.549471	-0.000065
1325	1.3174e+02	-12.7408	-42.452501	0.000375	3.750346	1.270652	-0.000150
1326	1.3184e+02	-12.7777	-42.573615	0.000304	3.040821	1.030258	-0.000122
1327	1.3194e+02	-12.8258	-42.694729	0.000304	3.040821	1.030258	-0.000122
1328	1.3204e+02	-12.8563	-42.827954	0.000334	3.344904	1.133284	-0.000134
1329	1.3214e+02	-12.9012	-43.021737	0.000487	4.865314	1.648413	-0.000195
1330	1.3224e+02	-12.9413	-43.098443	0.000193	1.925854	0.652497	-0.000077
1331	1.3234e+02	-12.9766	-43.255891	0.000395	3.953068	1.339336	-0.000158
1332	1.3243e+02	-13.0248	-43.377005	0.000304	3.040821	1.030258	-0.000122
1333	1.3253e+02	-13.0552	-43.481970	0.000264	2.635379	0.892890	-0.000105
1334	1.3263e+02	-13.0937	-43.611159	0.000324	3.243543	1.098942	-0.000130
1335	1.3273e+02	-13.1355	-43.752459	0.000355	3.547625	1.201968	-0.000142
1336	1.3283e+02	-13.1724	-43.897795	0.000365	3.648986	1.236310	-0.000146
1337	1.3293e+02	-13.2125	-43.970464	0.000182	1.824493	0.618155	-0.000073
1338	1.3303e+02	-13.2670	-44.123875	0.000385	3.851707	1.304994	-0.000154
1339	1.3313e+02	-13.3023	-44.220766	0.000243	2.432657	0.824207	-0.000097
1340	1.3323e+02	-13.3456	-44.337843	0.000294	2.939461	0.995916	-0.000118
1341	1.3333e+02	-13.3793	-44.467032	0.000324	3.243543	1.098942	-0.000130
1342	1.3343e+02	-13.4194	-44.535663	0.000172	1.723132	0.583813	-0.000069
1343	1.3353e+02	-13.4563	-44.640628	0.000264	2.635379	0.892890	-0.000105
1344	1.3363e+02	-13.4964	-44.769817	0.000324	3.243543	1.098942	-0.000130
1345	1.3373e+02	-13.5429	-44.907079	0.000345	3.446264	1.167626	-0.000138
1346	1.3383e+02	-13.5830	-44.987822	0.000203	2.027214	0.686839	-0.000081
1347	1.3393e+02	-13.6183	-45.141233	0.000385	3.851707	1.304994	-0.000154
1348	1.3403e+02	-13.6633	-45.306756	0.000416	4.155789	1.408020	-0.000166
1349	1.3413e+02	-13.6969	-45.427870	0.000304	3.040821	1.030258	-0.000122
1350	1.3423e+02	-13.7403	-45.532835	0.000264	2.635379	0.892890	-0.000105
1351	1.3432e+02	-13.7788	-45.657987	0.000314	3.142182	1.064600	-0.000126
1352	1.3442e+02	-13.8205	-45.779101	0.000304	3.040821	1.030258	-0.000122
1353	1.3452e+02	-13.8526	-45.884066	0.000264	2.635379	0.892890	-0.000105
1354	1.3462e+02	-13.8991	-46.021329	0.000345	3.446264	1.167626	-0.000138
1355	1.3472e+02	-13.9376	-46.194926	0.000436	4.358511	1.476703	-0.000174
1356	1.3482e+02	-13.9793	-46.271631	0.000193	1.925854	0.652497	-0.000077
1357	1.3492e+02	-14.0226	-46.408894	0.000345	3.446264	1.167626	-0.000138
1358	1.3502e+02	-14.0547	-46.497711	0.000223	2.229936	0.755523	-0.000089
1359	1.3512e+02	-14.0964	-46.590565	0.000233	2.331296	0.789865	-0.000093
1360	1.3522e+02	-14.1381	-46.711679	0.000304	3.040821	1.030258	-0.000122
1361	1.3532e+02	-14.1798	-46.865090	0.000385	3.851707	1.304994	-0.000154
1362	1.3542e+02	-14.2071	-46.941796	0.000193	1.925854	0.652497	-0.000077
1363	1.3552e+02	-14.2584	-47.042724	0.000253	2.534018	0.858548	-0.000101
1364	1.3562e+02	-14.3033	-47.188061	0.000365	3.648986	1.236310	-0.000146
1365	1.3572e+02	-14.3258	-47.305138	0.000294	2.939461	0.995916	-0.000118
1366	1.3582e+02	-14.3691	-47.470661	0.000416	4.155789	1.408020	-0.000166
1367	1.3592e+02	-14.4204	-47.611960	0.000355	3.547625	1.201968	-0.000142
1368	1.3602e+02	-14.4525	-47.696740	0.000213	2.128575	0.721181	-0.000085
1369	1.3612e+02	-14.4926	-47.817854	0.000304	3.040821	1.030258	-0.000122
1370	1.3622e+02	-14.5440	-47.951080	0.000334	3.344904	1.133284	-0.000134
1371	1.3631e+02	-14.5680	-48.084305	0.000334	3.344904	1.133284	-0.000134
1372	1.3641e+02	-14.6194	-48.201382	0.000294	2.939461	0.995916	-0.000118
1373	1.3651e+02	-14.6531	-48.306348	0.000264	2.635379	0.892890	-0.000105
1374	1.3661e+02	-14.6980	-48.407276	0.000253	2.534018	0.858548	-0.000101
1375	1.3671e+02	-14.7349	-48.568761	0.000405	4.054429	1.373678	-0.000162
1376	1.3681e+02	-14.7782	-48.657578	0.000223	2.229936	0.755523	-0.000089
1377	1.3691e+02	-14.8183	-48.786767	0.000324	3.243543	1.098942	-0.000130
1378	1.3701e+02	-14.8504	-48.891732	0.000264	2.635379	0.892890	-0.000105
1379	1.3711e+02	-14.8985	-48.988624	0.000243	2.432657	0.824207	-0.000097
1380	1.3721e+02	-14.9354	-49.089552	0.000253	2.534018	0.858548	-0.000101
1381	1.3731e+02	-14.9707	-49.222777	0.000334	3.344904	1.133284	-0.000134
1382	1.3741e+02	-15.0044	-49.347929	0.000314	3.142182	1.064600	-0.000126
1383	1.3751e+02	-15.0573	-49.505377	0.000395	3.953068	1.339336	-0.000158
1384	1.3761e+02	-15.0910	-49.606305	0.000253	2.534018	0.858548	-0.000101
1385	1.3771e+02	-15.1327	-49.775865	0.000426	4.257150	1.442361	-0.000170
1386	1.3781e+02	-15.1776	-49.868719	0.000233	2.331296	0.789865	-0.000093
1387	1.3791e+02	-15.2129	-50.042316	0.000436	4.358511	1.476703	-0.000174
1388	1.3801e+02	-15.2611	-50.102873	0.000152	1.520411	0.515129	-0.000061
1389	1.3811e+02	-15.2980	-50.236099	0.000334	3.344904	1.133284	-0.000134
1390	1.3821e+02	-15.3349	-50.345101	0.000274	2.736739	0.927232	-0.000110
1391	1.3831e+02	-15.3750	-50.466215	0.000304	3.040821	1.030258	-0.000122
1392	1.3840e+02	-15.4135	-50.579255	0.000284	2.838100	0.961574	-0.000114
1393	1.3850e+02	-15.4600	-50.716518	0.000345	3.446264	1.167626	-0.000138
1394	1.3860e+02	-15.4905	-50.805335	0.000223	2.229936	0.755523	-0.000089
1395	1.3870e+02	-15.5338	-50.914337	0.000274	2.736739	0.927232	-0.000110
1396	1.3880e+02	-15.5675	-51.011229	0.000243	2.432657	0.824207	-0.000097
1397	1.3890e+02	-15.6188	-51.172714	0.000405	4.054429	1.373678	-0.000162
1398	1.3900e+02	-15.6541	-51.245382	0.000182	1.824493	0.618155	-0.000073
1399	1.3910e+02	-15.6910	-51.418979	0.000436	4.358511	1.476703	-0.000174
1400	1.3920e+02	-15.7327	-51.532019	0.000284	2.838100	0.961574	-0.000114
1401	1.3930e+02	-15.7648	-51.628910	0.000243	2.432657	0.824207	-0.000097
1402	1.3940e+02	-15.8065	-51.750024	0.000304	3.040821	1.030258	-0.000122
1403	1.3950e+02	-15.8578	-51.887287	0.000345	3.446264	1.167626	-0.000138
1404	1.3960e+02	-15.8851	-51.988215	0.000253	2.534018	0.858548	-0.000101
1405	1.3970e+02	-15.9284	-52.145664	0.000395	3.953068	1.339336	-0.000158
1406	1.3980e+02	-15.9669	-52.270815	0.000314	3.142182	1.064600	-0.000126
1407	1.3990e+02	-16.0038	-52.400003	0.000324	3.243543	1.098942	-0.000130
1408	1.4000e+02	-16.0487	-52.509006	0.000274	2.736739	0.927232	-0.000110
1409	1.4010e+02	-16.0889	-52.577637	0.000172	1.723132	0.583813	-0.000069
1410	1.4020e+02	-16.1306	-52.714900	0.000345	3.446264	1.167626	-0.000138
1411	1.4029e+02	-16.1691	-52.823903	0.000274	2.736739	0.927232	-0.000110
1412	1.4039e+02	-16.2060	-52.965202	0.000355	3.547625	1.201968	-0.000142
1413	1.4049e+02	-16.2605	-53.049982	0.000213	2.128575	0.721181	-0.000085
1414	1.4059e+02	-16.2942	-53.195319	0.000365	3.648986	1.236310	-0.000146
1415	1.4069e+02	-16.3311	-53.255876	0.000152	1.520411	0.515129	-0.000061
1416	1.4079e+02	-16.3568	-53.393139	0.000345	3.446264	1.167626	-0.000138
1417	1.4089e+02	-16.3985	-53.554624	0.000405	4.054429	1.373678	-0.000162
1418	1.4099e+02	-16.4402	-53.639404	0.000213	2.128575	0.721181	-0.000085
1419	1.4109e+02	-16.4851	-53.756481	0.000294	2.939461	0.995916	-0.000118
1420	1.4119e+02	-16.5236	-53.909892	0.000385	3.851707	1.304994	-0.000154
1421	1.4129e+02	-16.5653	-54.035043	0.000314	3.142182	1.064600	-0.000126
1422	1.4139e+02	-16.6134	-54.176343	0.000355	3.547625	1.201968	-0.000142
1423	1.4149e+02	-16.6471	-54.253049	0.000193	1.925854	0.652497	-0.000077
1424	1.4159e+02	-16.6824	-54.382237	0.000324	3.243543	1.098942	-0.000130
1425	1.4169e+02	-16.7273	-54.499314	0.000294	2.939461	0.995916	-0.000118
1426	1.4179e+02	-16.7658	-54.640614	0.000355	3.547625	1.201968	-0.000142
1427	1.4189e+02	-16.8075	-54.757691	0.000294	2.939461	0.995916	-0.000118
1428	1.4199e+02	-16.8477	-54.898990	0.000355	3.547625	1.201968	-0.000142
1429	1.4209e+02	-16.8813	-54.979733	0.000203	2.027214	0.686839	-0.000081
1430	1.4219e+02	-16.9359	-55.116996	0.000345	3.446264	1.167626	-0.000138
1431	1.4228e+02	-16.9712	-55.225998	0.000274	2.736739	0.927232	-0.000110
1432	1.4238e+02	-17.0049	-55.330964	0.000264	2.635379	0.892890	-0.000105
1433	1.4248e+02	-17.0418	-55.452078	0.000304	3.040821	1.030258	-0.000122
1434	1.4258e+02	-17.0803	-55.625675	0.000436	4.358511	1.476703	-0.000174
1435	1.4268e+02	-17.1220	-55.718529	0.000233	2.331296	0.789865	-0.000093
1436	1.4278e+02	-17.1589	-55.855792	0.000345	3.446264	1.167626	-0.000138
1437	1.4288e+02	-17.2054	-55.964794	0.000274	2.736739	0.927232	-0.000110
1438	1.4298e+02	-17.2391	-56.049574	0.000213	2.128575	0.721181	-0.000085
1439	1.4308e+02	-17.2840	-56.194911	0.000365	3.648986	1.236310	-0.000146
1440	1.4318e+02	-17.3273	-56.307951	0.000284	2.838100	0.961574	-0.000114
1441	1.4328e+02	-17.3594	-56.441176	0.000334	3.344904	1.133284	-0.000134
1442	1.4338e+02	-17.4011	-56.534030	0.000233	2.331296	0.789865	-0.000093
1443	1.4348e+02	-17.4476	-56.679367	0.000365	3.648986	1.236310	-0.000146
1444	1.4358e+02	-17.4877	-56.816630	0.000345	3.446264	1.167626	-0.000138
1445	1.4368e+02	-17.5214	-56.941781	0.000314	3.142182	1.064600	-0.000126
1446	1.4378e+02	-17.5680	-57.014449	0.000182	1.824493	0.618155	-0.000073
1447	1.4388e+02	-17.6065	-57.184009	0.000426	4.257150	1.442361	-0.000170
1448	1.4398e+02	-17.6466	-57.240529	0.000142	1.419050	0.480787	-0.000057
1449	1.4408e+02	-17.6915	-57.361643	0.000304	3.040821	1.030258	-0.000122
1450	1.4418e+02	-17.7204	-57.511017	0.000375	3.750346	1.270652	-0.000150
1451	1.4428e+02	-17.7589	-57.640205	0.000324	3.243543	1.098942	-0.000130
1452	1.4437e+02	-17.7990	-57.749208	0.000274	2.736739	0.927232	-0.000110
1453	1.4447e+02	-17.8471	-57.866285	0.000294	2.939461	0.995916	-0.000118
1454	1.4457e+02	-17.8824	-57.983362	0.000294	2.939461	0.995916	-0.000118
1455	1.4467e+02	-17.9257	-58.144847	0.000405	4.054429	1.373678	-0.000162
1456	1.4477e+02	-17.9530	-58.217516	0.000182	1.824493	0.618155	-0.000073
1457	1.4487e+02	-17.9995	-58.374964	0.000395	3.953068	1.339336	-0.000158
1458	1.4497e+02	-18.0492	-58.471855	0.000243	2.432657	0.824207	-0.000097
1459	1.4507e+02	-18.0813	-58.556635	0.000213	2.128575	0.721181	-0.000085
1460	1.4517e+02	-18.1166	-58.681787	0.000314	3.142182	1.064600	-0.000126
1461	1.4527e+02	-18.1711	-58.806938	0.000314	3.142182	1.064600	-0.000126
1462	1.4537e+02	-18.2032	-58.960349	0.000385	3.851707	1.304994	-0.000154
1463	1.4547e+02	-18.2433	-59.041092	0.000203	2.027214	0.686839	-0.000081
1464	1.4557e+02	-18.2786	-59.166243	0.000314	3.142182	1.064600	-0.000126
1465	1.4567e+02	-18.3155	-59.355988	0.000476	4.763954	1.614071	-0.000191
1466	1.4577e+02	-18.3637	-59.432694	0.000193	1.925854	0.652497	-0.000077
1467	1.4587e+02	-18.4038	-59.557845	0.000314	3.142182	1.064600	-0.000126
1468	1.4597e+02	-18.4326	-59.723368	0.000416	4.155789	1.408020	-0.000166
1469	1.4607e+02	-18.4824	-59.783925	0.000152	1.520411	0.515129	-0.000061
1470	1.4617e+02	-18.5161	-59.909076	0.000314	3.142182	1.064600	-0.000126
1471	1.4626e+02	-18.5626	-60.062487	0.000385	3.851707	1.304994	-0.000154
1472	1.4636e+02	-18.5995	-60.183601	0.000304	3.040821	1.030258	-0.000122
1473	1.4646e+02	-18.6364	-60.320864	0.000345	3.446264	1.167626	-0.000138
1474	1.4656e+02	-18.6813	-60.413718	0.000233	2.331296	0.789865	-0.000093
1475	1.4666e+02	-18.7150	-60.559055	0.000365	3.648986	1.236310	-0.000146
1476	1.4676e+02	-18.7615	-60.704392	0.000365	3.648986	1.236310	-0.000146
1477	1.4686e+02	-18.7920	-60.801283	0.000243	2.432657	0.824207	-0.000097
1478	1.4696e+02	-18.8385	-60.954694	0.000385	3.851707	1.304994	-0.000154
1479	1.4706e+02	-18.8930	-61.051585	0.000243	2.432657	0.824207	-0.000097
1480	1.4716e+02	-18.9155	-61.217108	0.000416	4.155789	1.408020	-0.000166
1481	1.4726e+02	-18.9572	-61.305925	0.000223	2.229936	0.755523	-0.000089
1482	1.4736e+02	-18.9989	-61.427039	0.000304	3.040821	1.030258	-0.000122
1483	1.4746e+02	-19.0390	-61.592561	0.000416	4.155789	1.408020	-0.000166
1484	1.4756e+02	-19.0807	-61.774232	0.000456	4.561232	1.545387	-0.000183
1485	1.4766e+02	-19.1160	-61.867087	0.000233	2.331296	0.789865	-0.000093
1486	1.4776e+02	-19.1610	-61.959941	0.000233	2.331296	0.789865	-0.000093
1487	1.4786e+02	-19.1930	-62.097203	0.000345	3.446264	1.167626	-0.000138
1488	1.4796e+02	-19.2348	-62.246577	0.000375	3.750346	1.270652	-0.000150
1489	1.4806e+02	-19.2684	-62.383840	0.000345	3.446264	1.167626	-0.000138
1490	1.4816e+02	-19.3230	-62.484768	0.000253	2.534018	0.858548	-0.000101
1491	1.4825e+02	-19.3599	-62.674514	0.000476	4.763954	1.614071	-0.000191
1492	1.4835e+02	-19.3872	-62.787554	0.000284	2.838100	0.961574	-0.000114
1493	1.4845e+02	-19.4337	-62.957113	0.000426	4.257150	1.442361	-0.000170
1494	1.4855e+02	-19.4706	-63.045930	0.000223	2.229936	0.755523	-0.000089
1495	1.4865e+02	-19.5219	-63.187230	0.000355	3.547625	1.201968	-0.000142
1496	1.4875e+02	-19.5524	-63.344678	0.000395	3.953068	1.339336	-0.000158
1497	1.4885e+02	-19.5957	-63.441570	0.000243	2.432657	0.824207	-0.000097
1498	1.4895e+02	-19.6390	-63.603055	0.000405	4.054429	1.373678	-0.000162
1499	1.4905e+02	-19.6839	-63.712058	0.000274	2.736739	0.927232	-0.000110
1500	1.4915e+02	-19.7176	-63.869506	0.000395	3.953068	1.339336	-0.000158
1501	1.4925e+02	-19.7577	-64.018880	0.000375	3.750346	1.270652	-0.000150
1502	1.4935e+02	-19.7914	-64.152105	0.000334	3.344904	1.133284	-0.000134
1503	1.4945e+02	-19.8283	-64.321665	0.000426	4.257150	1.442361	-0.000170
1504	1.4955e+02	-19.8652	-64.434705	0.000284	2.838100	0.961574	-0.000114
1505	1.4965e+02	-19.9037	-64.588116	0.000385	3.851707	1.304994	-0.000154
1506	1.4975e+02	-19.9438	-64.713267	0.000314	3.142182	1.064600	-0.000126
1507	1.4985e+02	-19.9903	-64.862641	0.000375	3.750346	1.270652	-0.000150
1508	1.4995e+02	-19.9518	-64.794010	0.000172	1.723132	0.583813	0.000069
1509	1.5005e+02	-19.9117	-64.773824	0.000051	0.506804	0.171710	0.000020
1510	1.5015e+02	-19.8684	-64.680970	0.000233	2.331296	0.789865	0.000093
1511	1.5025e+02	-19.8363	-64.616376	0.000162	1.621771	0.549471	0.000065
1512	1.5034e+02	-19.7898	-64.592153	0.000061	0.608164	0.206052	0.000024
1513	1.5044e+02	-19.7658	-64.535633	0.000142	1.419050	0.480787	0.000057
1514	1.5054e+02	-19.7160	-64.434705	0.000253	2.534018	0.858548	0.000101
1515	1.5064e+02	-19.6711	-64.362037	0.000182	1.824493	0.618155	0.000073
1516	1.5074e+02	-19.6310	-64.313591	0.000122	1.216329	0.412103	0.000049
1517	1.5084e+02	-19.6037	-64.204588	0.000274	2.736739	0.927232	0.000110
1518	1.5094e+02	-19.5556	-64.176328	0.000071	0.709525	0.240394	0.000028
1519	1.5104e+02	-19.5123	-64.091548	0.000213	2.128575	0.721181	0.000085
1520	1.5114e+02	-19.4706	-63.998694	0.000233	2.331296	0.789865	0.000093
1521	1.5124e+02	-19.4273	-63.970434	0.000071	0.709525	0.240394	0.000028
1522	1.5134e+02	-19.3920	-63.837209	0.000334	3.344904	1.133284	0.000134
1523	1.5144e+02	-19.3503	-63.760503	0.000193	1.925854	0.652497	0.000077
1524	1.5154e+02	-19.3198	-63.679761	0.000203	2.027214	0.686839	0.000081
1525	1.5164e+02	-19.2749	-63.603055	0.000193	1.925854	0.652497	0.000077
1526	1.5174e+02	-19.2396	-63.554609	0.000122	1.216329	0.412103	0.000049
1527	1.5184e+02	-19.1979	-63.473867	0.000203	2.027214	0.686839	0.000081
1528	1.5194e+02	-19.1594	-63.385050	0.000223	2.229936	0.755523	0.000089
1529	1.5204e+02	-19.1144	-63.296233	0.000223	2.229936	0.755523	0.000089
1530	1.5214e+02	-19.0759	-63.183193	0.000284	2.838100	0.961574	0.000114
1531	1.5224e+02	-19.0374	-63.126673	0.000142	1.419050	0.480787	0.000057
1532	1.5233e+02	-19.0021	-63.017670	0.000274	2.736739	0.927232	0.000110
1533	1.5243e+02	-18.9604	-62.920779	0.000243	2.432657	0.824207	0.000097
1534	1.5253e+02	-18.9187	-62.852148	0.000172	1.723132	0.583813	0.000069
1535	1.5263e+02	-18.8818	-62.791591	0.000152	1.520411	0.515129	0.000061
1536	1.5273e+02	-18.8401	-62.698737	0.000233	2.331296	0.789865	0.000093
1537	1.5283e+02	-18.8048	-62.589734	0.000274	2.736739	0.927232	0.000110
1538	1.5293e+02	-18.7519	-62.504954	0.000213	2.128575	0.721181	0.000085
1539	1.5303e+02	-18.7214	-62.363654	0.000355	3.547625	1.201968	0.000142
1540	1.5313e+02	-18.6781	-62.295023	0.000172	1.723132	0.583813	0.000069
1541	1.5323e+02	-18.6284	-62.190057	0.000264	2.635379	0.892890	0.000105
1542	1.5333e+02	-18.5995	-62.157760	0.000081	0.810886	0.274736	0.000032
1543	1.5343e+02	-18.5658	-62.016461	0.000355	3.547625	1.201968	0.000142
1544	1.5353e+02	-18.5225	-61.972052	0.000111	1.114968	0.377761	0.000045
1545	1.5363e+02	-18.4856	-61.871124	0.000253	2.534018	0.858548	0.000101
1546	1.5373e+02	-18.4358	-61.806530	0.000162	1.621771	0.549471	0.000065
1547	1.5383e+02	-18.3973	-61.689453	0.000294	2.939461	0.995916	0.000118
1548	1.5393e+02	-18.3604	-61.596599	0.000233	2.331296	0.789865	0.000093
1549	1.5403e+02	-18.3155	-61.451262	0.000365	3.648986	1.236310	0.000146
1550	1.5413e+02	-18.2834	-61.390705	0.000152	1.520411	0.515129	0.000061
1551	1.5422e+02	-18.2449	-61.330148	0.000152	1.520411	0.515129	0.000061
1552	1.5432e+02	-18.2080	-61.204996	0.000314	3.142182	1.064600	0.000126
1553	1.5442e+02	-18.1663	-61.091957	0.000284	2.838100	0.961574	0.000114
1554	1.5452e+02	-18.1166	-61.043511	0.000122	1.216329	0.412103	0.000049
1555	1.5462e+02	-18.0845	-60.926434	0.000294	2.939461	0.995916	0.000118
1556	1.5472e+02	-18.0380	-60.853766	0.000182	1.824493	0.618155	0.000073
1557	1.5482e+02	-17.9995	-60.768986	0.000213	2.128575	0.721181	0.000085
1558	1.5492e+02	-17.9642	-60.623649	0.000365	3.648986	1.236310	0.000146
1559	1.5502e+02	-17.9209	-60.546943	0.000193	1.925854	0.652497	0.000077
1560	1.5512e+02	-17.8824	-60.478312	0.000172	1.723132	0.583813	0.000069
1561	1.5522e+02	-17.8391	-60.393532	0.000213	2.128575	0.721181	0.000085
1562	1.5532e+02	-17.7958	-60.256269	0.000345	3.446264	1.167626	0.000138
1563	1.5542e+02	-17.7540	-60.155341	0.000253	2.534018	0.858548	0.000101
1564	1.5552e+02	-17.7188	-60.054413	0.000253	2.534018	0.858548	0.000101
1565	1.5562e+02	-17.6867	-59.937336	0.000294	2.939461	0.995916	0.000118
1566	1.5572e+02	-17.6498	-59.896964	0.000101	1.013607	0.343419	0.000041
1567	1.5582e+02	-17.5952	-59.779887	0.000294	2.939461	0.995916	0.000118
1568	1.5592e+02	-17.5615	-59.674922	0.000264	2.635379	0.892890	0.000105
1569	1.5602e+02	-17.5246	-59.578031	0.000243	2.432657	0.824207	0.000097
1570	1.5612e+02	-17.4942	-59.424619	0.000385	3.851707	1.304994	0.000154
1571	1.5622e+02	-17.4492	-59.396360	0.000071	0.709525	0.240394	0.000028
1572	1.5631e+02	-17.4059	-59.234874	0.000405	4.054429	1.373678	0.000162
1573	1.5641e+02	-17.3594	-59.182391	0.000132	1.317689	0.446445	0.000053
1574	1.5651e+02	-17.3097	-59.057240	0.000314	3.142182	1.064600	0.000126
1575	1.5661e+02	-17.2840	-58.972460	0.000213	2.128575	0.721181	0.000085
1576	1.5671e+02	-17.2407	-58.871532	0.000253	2.534018	0.858548	0.000101
1577	1.5681e+02	-17.2022	-58.762529	0.000274	2.736739	0.927232	0.000110
1578	1.5691e+02	-17.1589	-58.685824	0.000193	1.925854	0.652497	0.000077
1579	1.5701e+02	-17.1252	-58.540487	0.000365	3.648986	1.236310	0.000146
1580	1.5711e+02	-17.0899	-58.475893	0.000162	1.621771	0.549471	0.000065
1581	1.5721e+02	-17.0402	-58.374964	0.000253	2.534018	0.858548	0.000101
1582	1.5731e+02	-17.0081	-58.253850	0.000304	3.040821	1.030258	0.000122
1583	1.5741e+02	-16.9632	-58.148885	0.000264	2.635379	0.892890	0.000105
1584	1.5751e+02	-16.9198	-58.080253	0.000172	1.723132	0.583813	0.000069
1585	1.5761e+02	-16.8862	-57.963176	0.000294	2.939461	0.995916	0.000118
1586	1.5771e+02	-16.8444	-57.866285	0.000243	2.432657	0.824207	0.000097
1587	1.5781e+02	-16.8059	-57.749208	0.000294	2.939461	0.995916	0.000118
1588	1.5791e+02	-16.7658	-57.684614	0.000162	1.621771	0.549471	0.000065
1589	1.5801e+02	-16.7321	-57.591760	0.000233	2.331296	0.789865	0.000093
1590	1.5811e+02	-16.6904	-57.498906	0.000233	2.331296	0.789865	0.000093
1591	1.5821e+02	-16.6407	-57.450460	0.000122	1.216329	0.412103	0.000049
1592	1.5830e+02	-16.6086	-57.329346	0.000304	3.040821	1.030258	0.000122
1593	1.5840e+02	-16.5653	-57.179972	0.000375	3.750346	1.270652	0.000150
1594	1.5850e+02	-16.5204	-57.087118	0.000233	2.331296	0.789865	0.000093
1595	1.5860e+02	-16.4819	-56.953892	0.000334	3.344904	1.133284	0.000134
1596	1.5870e+02	-16.4450	-56.889298	0.000162	1.621771	0.549471	0.000065
1597	1.5880e+02	-16.4049	-56.776258	0.000284	2.838100	0.961574	0.000114
1598	1.5890e+02	-16.3712	-56.691479	0.000213	2.128575	0.721181	0.000085
1599	1.5900e+02	-16.3311	-56.626884	0.000162	1.621771	0.549471	0.000065
1600	1.5910e+02	-16.2942	-56.489622	0.000345	3.446264	1.167626	0.000138
1601	1.5920e+02	-16.2429	-56.380619	0.000274	2.736739	0.927232	0.000110
1602	1.5930e+02	-16.2140	-56.307951	0.000182	1.824493	0.618155	0.000073
1603	1.5940e+02	-16.1723	-56.170688	0.000345	3.446264	1.167626	0.000138
1604	1.5950e+02	-16.1322	-56.110131	0.000152	1.520411	0.515129	0.000061
1605	1.5960e+02	-16.0921	-55.984980	0.000314	3.142182	1.064600	0.000126
1606	1.5970e+02	-16.0536	-55.855792	0.000324	3.243543	1.098942	0.000130
1607	1.5980e+02	-16.0102	-55.791197	0.000162	1.621771	0.549471	0.000065
1608	1.5990e+02	-15.9669	-55.718529	0.000182	1.824493	0.618155	0.000073
1609	1.6000e+02	-15.9332	-55.597415	0.000304	3.040821	1.030258	0.000122
1610	1.6010e+02	-15.8867	-55.504561	0.000233	2.331296	0.789865	0.000093
1611	1.6019e+02	-15.8546	-55.347112	0.000395	3.953068	1.339336	0.000158
1612	1.6029e+02	-15.8049	-55.270407	0.000193	1.925854	0.652497	0.000077
1613	1.6039e+02	-15.7744	-55.129107	0.000355	3.547625	1.201968	0.000142
1614	1.6049e+02	-15.7279	-55.040290	0.000223	2.229936	0.755523	0.000089
1615	1.6059e+02	-15.6878	-54.951473	0.000223	2.229936	0.755523	0.000089
1616	1.6069e+02	-15.6541	-54.814210	0.000345	3.446264	1.167626	0.000138
1617	1.6079e+02	-15.6204	-54.753653	0.000152	1.520411	0.515129	0.000061
1618	1.6089e+02	-15.5691	-54.600242	0.000385	3.851707	1.304994	0.000154
1619	1.6099e+02	-15.5402	-54.543722	0.000142	1.419050	0.480787	0.000057
1620	1.6109e+02	-15.4953	-54.438757	0.000264	2.635379	0.892890	0.000105
1621	1.6119e+02	-15.4584	-54.337828	0.000253	2.534018	0.858548	0.000101
1622	1.6129e+02	-15.4183	-54.216714	0.000304	3.040821	1.030258	0.000122
1623	1.6139e+02	-15.3702	-54.103675	0.000284	2.838100	0.961574	0.000114
1624	1.6149e+02	-15.3333	-53.994672	0.000274	2.736739	0.927232	0.000110
1625	1.6159e+02	-15.2899	-53.917966	0.000193	1.925854	0.652497	0.000077
1626	1.6169e+02	-15.2563	-53.861446	0.000142	1.419050	0.480787	0.000057
1627	1.6179e+02	-15.2113	-53.744370	0.000294	2.939461	0.995916	0.000118
1628	1.6189e+02	-15.1793	-53.599033	0.000365	3.648986	1.236310	0.000146
1629	1.6199e+02	-15.1424	-53.485993	0.000284	2.838100	0.961574	0.000114
1630	1.6209e+02	-15.0926	-53.364879	0.000304	3.040821	1.030258	0.000122
1631	1.6219e+02	-15.0477	-53.308359	0.000142	1.419050	0.480787	0.000057
1632	1.6228e+02	-15.0140	-53.179171	0.000324	3.243543	1.098942	0.000130
1633	1.6238e+02	-14.9787	-53.086316	0.000233	2.331296	0.789865	0.000093
1634	1.6248e+02	-14.9322	-52.965202	0.000304	3.040821	1.030258	0.000122
1635	1.6258e+02	-14.8985	-52.840051	0.000314	3.142182	1.064600	0.000126
1636	1.6268e+02	-14.8536	-52.727011	0.000284	2.838100	0.961574	0.000114
1637	1.6278e+02	-14.8247	-52.646269	0.000203	2.027214	0.686839	0.000081
1638	1.6288e+02	-14.7782	-52.541303	0.000264	2.635379	0.892890	0.000105
1639	1.6298e+02	-14.7365	-52.412115	0.000324	3.243543	1.098942	0.000130
1640	1.6308e+02	-14.7012	-52.311186	0.000253	2.534018	0.858548	0.000101
1641	1.6318e+02	-14.6563	-52.222369	0.000223	2.229936	0.755523	0.000089
1642	1.6328e+02	-14.6162	-52.125478	0.000243	2.432657	0.824207	0.000097
1643	1.6338e+02	-14.5745	-52.048773	0.000193	1.925854	0.652497	0.000077
1644	1.6348e+02	-14.5311	-51.947844	0.000253	2.534018	0.858548	0.000101
1645	1.6358e+02	-14.4975	-51.782322	0.000416	4.155789	1.408020	0.000166
1646	1.6368e+02	-14.4525	-51.632948	0.000375	3.750346	1.270652	0.000150
1647	1.6378e+02	-14.4028	-51.572390	0.000152	1.520411	0.515129	0.000061
1648	1.6388e+02	-14.3739	-51.471462	0.000253	2.534018	0.858548	0.000101
1649	1.6398e+02	-14.3467	-51.334199	0.000345	3.446264	1.167626	0.000138
1650	1.6408e+02	-14.2985	-51.245382	0.000223	2.229936	0.755523	0.000089
1651	1.6418e+02	-14.2584	-51.136380	0.000274	2.736739	0.927232	0.000110
1652	1.6427e+02	-14.2247	-51.015266	0.000304	3.040821	1.030258	0.000122
1653	1.6437e+02	-14.1734	-50.894152	0.000304	3.040821	1.030258	0.000122
1654	1.6447e+02	-14.1333	-50.833595	0.000152	1.520411	0.515129	0.000061
1655	1.6457e+02	-14.1012	-50.692295	0.000355	3.547625	1.201968	0.000142
1656	1.6467e+02	-14.0579	-50.587329	0.000264	2.635379	0.892890	0.000105
1657	1.6477e+02	-14.0242	-50.502550	0.000213	2.128575	0.721181	0.000085
1658	1.6487e+02	-13.9761	-50.369324	0.000334	3.344904	1.133284	0.000134
1659	1.6497e+02	-13.9376	-50.300693	0.000172	1.723132	0.583813	0.000069
1660	1.6507e+02	-13.8927	-50.207839	0.000233	2.331296	0.789865	0.000093
1661	1.6517e+02	-13.8574	-50.094799	0.000284	2.838100	0.961574	0.000114
1662	1.6527e+02	-13.8140	-50.014056	0.000203	2.027214	0.686839	0.000081
1663	1.6537e+02	-13.7723	-49.860645	0.000385	3.851707	1.304994	0.000154
1664	1.6547e+02	-13.7386	-49.715308	0.000365	3.648986	1.236310	0.000146
1665	1.6557e+02	-13.7018	-49.626491	0.000223	2.229936	0.755523	0.000089
1666	1.6567e+02	-13.6520	-49.533637	0.000233	2.331296	0.789865	0.000093
1667	1.6577e+02	-13.6296	-49.396374	0.000345	3.446264	1.167626	0.000138
1668	1.6587e+02	-13.5734	-49.283335	0.000284	2.838100	0.961574	0.000114
1669	1.6597e+02	-13.5365	-49.170295	0.000284	2.838100	0.961574	0.000114
1670	1.6607e+02	-13.5092	-49.041106	0.000324	3.243543	1.098942	0.000130
1671	1.6616e+02	-13.4611	-48.968438	0.000182	1.824493	0.618155	0.000073
1672	1.6626e+02	-13.4162	-48.863472	0.000264	2.635379	0.892890	0.000105
1673	1.6636e+02	-13.3889	-48.762544	0.000253	2.534018	0.858548	0.000101
1674	1.6646e+02	-13.3392	-48.592984	0.000426	4.257150	1.442361	0.000170
1675	1.6656e+02	-13.2975	-48.459759	0.000334	3.344904	1.133284	0.000134
1676	1.6666e+02	-13.2574	-48.411313	0.000122	1.216329	0.412103	0.000049
1677	1.6676e+02	-13.2157	-48.294236	0.000294	2.939461	0.995916	0.000118
1678	1.6686e+02	-13.1852	-48.213494	0.000203	2.027214	0.686839	0.000081
1679	1.6696e+02	-13.1387	-48.128714	0.000213	2.128575	0.721181	0.000085
1680	1.6706e+02	-13.1018	-47.930894	0.000497	4.966675	1.682755	0.000199
1681	1.6716e+02	-13.0552	-47.825929	0.000264	2.635379	0.892890	0.000105
1682	1.6726e+02	-13.0296	-47.676554	0.000375	3.750346	1.270652	0.000150
1683	1.6736e+02	-12.9782	-47.579663	0.000243	2.432657	0.824207	0.000097
1684	1.6746e+02	-12.9478	-47.474698	0.000264	2.635379	0.892890	0.000105
1685	1.6756e+02	-12.9028	-47.329361	0.000365	3.648986	1.236310	0.000146
1686	1.6766e+02	-12.8659	-47.268804	0.000152	1.520411	0.515129	0.000061
1687	1.6776e+02	-12.8258	-47.115393	0.000385	3.851707	1.304994	0.000154
1688	1.6786e+02	-12.7905	-47.034650	0.000203	2.027214	0.686839	0.000081
1689	1.6796e+02	-12.7504	-46.905462	0.000324	3.243543	1.098942	0.000130
1690	1.6806e+02	-12.7071	-46.820682	0.000213	2.128575	0.721181	0.000085
1691	1.6816e+02	-12.6622	-46.675345	0.000365	3.648986	1.236310	0.000146
1692	1.6825e+02	-12.6333	-46.558268	0.000294	2.939461	0.995916	0.000118
1693	1.6835e+02	-12.5772	-46.465414	0.000233	2.331296	0.789865	0.000093
1694	1.6845e+02	-12.5451	-46.376597	0.000223	2.229936	0.755523	0.000089
1695	1.6855e+02	-12.5050	-46.259520	0.000294	2.939461	0.995916	0.000118
1696	1.6865e+02	-12.4553	-46.166666	0.000233	2.331296	0.789865	0.000093
1697	1.6875e+02	-12.4200	-46.049589	0.000294	2.939461	0.995916	0.000118
1698	1.6885e+02	-12.3879	-45.944623	0.000264	2.635379	0.892890	0.000105
1699	1.6895e+02	-12.3494	-45.795249	0.000375	3.750346	1.270652	0.000150
1700	1.6905e+02	-12.3093	-45.670098	0.000314	3.142182	1.064600	0.000126
1701	1.6915e+02	-12.2628	-45.528798	0.000355	3.547625	1.201968	0.000142
1702	1.6925e+02	-12.2259	-45.391536	0.000345	3.446264	1.167626	0.000138
1703	1.6935e+02	-12.1954	-45.318867	0.000182	1.824493	0.618155	0.000073
1704	1.6945e+02	-12.1521	-45.185642	0.000334	3.344904	1.133284	0.000134
1705	1.6955e+02	-12.1152	-45.072602	0.000284	2.838100	0.961574	0.000114
1706	1.6965e+02	-12.0638	-44.951488	0.000304	3.040821	1.030258	0.000122
1707	1.6975e+02	-12.0317	-44.826337	0.000314	3.142182	1.064600	0.000126
1708	1.6985e+02	-11.9884	-44.737520	0.000223	2.229936	0.755523	0.000089
1709	1.6995e+02	-11.9451	-44.608331	0.000324	3.243543	1.098942	0.000130
1710	1.7005e+02	-11.9082	-44.503366	0.000264	2.635379	0.892890	0.000105
1711	1.7015e+02	-11.8585	-44.430697	0.000182	1.824493	0.618155	0.000073
1712	1.7024e+02	-11.8280	-44.301509	0.000324	3.243543	1.098942	0.000130
1713	1.7034e+02	-11.7783	-44.216729	0.000213	2.128575	0.721181	0.000085
1714	1.7044e+02	-11.7366	-44.099652	0.000294	2.939461	0.995916	0.000118
1715	1.7054e+02	-11.7093	-43.962390	0.000345	3.446264	1.167626	0.000138
1716	1.7064e+02	-11.6660	-43.865498	0.000243	2.432657	0.824207	0.000097
1717	1.7074e+02	-11.6323	-43.708050	0.000395	3.953068	1.339336	0.000158
1718	1.7084e+02	-11.5858	-43.582899	0.000314	3.142182	1.064600	0.000126
1719	1.7094e+02	-11.5473	-43.437562	0.000365	3.648986	1.236310	0.000146
1720	1.7104e+02	-11.5088	-43.352782	0.000213	2.128575	0.721181	0.000085
1721	1.7114e+02	-11.4687	-43.231668	0.000304	3.040821	1.030258	0.000122
1722	1.7124e+02	-11.4334	-43.110554	0.000304	3.040821	1.030258	0.000122
1723	1.7134e+02	-11.3917	-42.973291	0.000345	3.446264	1.167626	0.000138
1724	1.7144e+02	-11.3580	-42.904660	0.000172	1.723132	0.583813	0.000069
1725	1.7154e+02	-11.3082	-42.743175	0.000405	4.054429	1.373678	0.000162
1726	1.7164e+02	-11.2681	-42.618023	0.000314	3.142182	1.064600	0.000126
1727	1.7174e+02	-11.2264	-42.561504	0.000142	1.419050	0.480787	0.000057
1728	1.7184e+02	-11.1911	-42.440389	0.000304	3.040821	1.030258	0.000122
1729	1.7194e+02	-11.1542	-42.359647	0.000203	2.027214	0.686839	0.000081
1730	1.7204e+02	-11.1077	-42.230458	0.000324	3.243543	1.098942	0.000130
1731	1.7213e+02	-11.0724	-42.121456	0.000274	2.736739	0.927232	0.000110
1732	1.7223e+02	-11.0275	-42.016490	0.000264	2.635379	0.892890	0.000105
1733	1.7233e+02	-10.9858	-41.899413	0.000294	2.939461	0.995916	0.000118
1734	1.7243e+02	-10.9489	-41.737928	0.000405	4.054429	1.373678	0.000162
1735	1.7253e+02	-10.9152	-41.636999	0.000253	2.534018	0.858548	0.000101
1736	1.7263e+02	-10.8623	-41.507811	0.000324	3.243543	1.098942	0.000130
1737	1.7273e+02	-10.8334	-41.350363	0.000395	3.953068	1.339336	0.000158
1738	1.7283e+02	-10.7853	-41.217137	0.000334	3.344904	1.133284	0.000134
1739	1.7293e+02	-10.7548	-41.112172	0.000264	2.635379	0.892890	0.000105
1740	1.7303e+02	-10.7034	-40.991058	0.000304	3.040821	1.030258	0.000122
1741	1.7313e+02	-10.6698	-40.886092	0.000264	2.635379	0.892890	0.000105
1742	1.7323e+02	-10.6296	-40.752867	0.000334	3.344904	1.133284	0.000134
1743	1.7333e+02	-10.5911	-40.611567	0.000355	3.547625	1.201968	0.000142
1744	1.7343e+02	-10.5559	-40.579270	0.000081	0.810886	0.274736	0.000032
1745	1.7353e+02	-10.5077	-40.437970	0.000355	3.547625	1.201968	0.000142
1746	1.7363e+02	-10.4628	-40.300708	0.000345	3.446264	1.167626	0.000138
1747	1.7373e+02	-10.4355	-40.203816	0.000243	2.432657	0.824207	0.000097
1748	1.7383e+02	-10.3938	-40.086739	0.000294	2.939461	0.995916	0.000118
1749	1.7393e+02	-10.3473	-39.933328	0.000385	3.851707	1.304994	0.000154
1750	1.7403e+02	-10.3168	-39.832400	0.000253	2.534018	0.858548	0.000101
1751	1.7413e+02	-10.2655	-39.707249	0.000314	3.142182	1.064600	0.000126
1752	1.7422e+02	-10.2302	-39.610357	0.000243	2.432657	0.824207	0.000097
1753	1.7432e+02	-10.1933	-39.448872	0.000405	4.054429	1.373678	0.000162
1754	1.7442e+02	-10.1628	-39.335832	0.000284	2.838100	0.961574	0.000114
1755	1.7452e+02	-10.1099	-39.218755	0.000294	2.939461	0.995916	0.000118
1756	1.7462e+02	-10.0810	-39.089567	0.000324	3.243543	1.098942	0.000130
1757	1.7472e+02	-10.0345	-38.940193	0.000375	3.750346	1.270652	0.000150
1758	1.7482e+02	-9.9944	-38.867524	0.000182	1.824493	0.618155	0.000073
1759	1.7492e+02	-9.9543	-38.774670	0.000233	2.331296	0.789865	0.000093
1760	1.7502e+02	-9.9077	-38.661630	0.000284	2.838100	0.961574	0.000114
1761	1.7512e+02	-9.8708	-38.564739	0.000243	2.432657	0.824207	0.000097
1762	1.7522e+02	-9.8323	-38.447662	0.000294	2.939461	0.995916	0.000118
1763	1.7532e+02	-9.8035	-38.326548	0.000304	3.040821	1.030258	0.000122
1764	1.7542e+02	-9.7553	-38.249843	0.000193	1.925854	0.652497	0.000077
1765	1.7552e+02	-9.7040	-38.120654	0.000324	3.243543	1.098942	0.000130
1766	1.7562e+02	-9.6767	-37.999540	0.000304	3.040821	1.030258	0.000122
1767	1.7572e+02	-9.6350	-37.874389	0.000314	3.142182	1.064600	0.000126
1768	1.7582e+02	-9.5981	-37.781535	0.000233	2.331296	0.789865	0.000093
1769	1.7592e+02	-9.5596	-37.684644	0.000243	2.432657	0.824207	0.000097
1770	1.7602e+02	-9.5179	-37.511047	0.000436	4.358511	1.476703	0.000174
1771	1.7612e+02	-9.4730	-37.357636	0.000385	3.851707	1.304994	0.000154
1772	1.7621e+02	-9.4361	-37.252670	0.000264	2.635379	0.892890	0.000105
1773	1.7631e+02	-9.3912	-37.127519	0.000314	3.142182	1.064600	0.000126
1774	1.7641e+02	-9.3543	-36.998330	0.000324	3.243543	1.098942	0.000130
1775	1.7651e+02	-9.3206	-36.877216	0.000304	3.040821	1.030258	0.000122
1776	1.7661e+02	-9.2805	-36.792437	0.000213	2.128575	0.721181	0.000085
1777	1.7671e+02	-9.2324	-36.639025	0.000385	3.851707	1.304994	0.000154
1778	1.7681e+02	-9.1971	-36.521948	0.000294	2.939461	0.995916	0.000118
1779	1.7691e+02	-9.1554	-36.441206	0.000203	2.027214	0.686839	0.000081
1780	1.7701e+02	-9.1201	-36.348352	0.000233	2.331296	0.789865	0.000093
1781	1.7711e+02	-9.0751	-36.259535	0.000223	2.229936	0.755523	0.000089
1782	1.7721e+02	-9.0399	-36.085938	0.000436	4.358511	1.476703	0.000174
1783	1.7731e+02	-8.9933	-35.960787	0.000314	3.142182	1.064600	0.000126
1784	1.7741e+02	-8.9661	-35.855821	0.000264	2.635379	0.892890	0.000105
1785	1.7751e+02	-8.9195	-35.722596	0.000334	3.344904	1.133284	0.000134
1786	1.7761e+02	-8.8810	-35.621667	0.000253	2.534018	0.858548	0.000101
1787	1.7771e+02	-8.8409	-35.460182	0.000405	4.054429	1.373678	0.000162
1788	1.7781e+02	-8.7912	-35.294659	0.000416	4.155789	1.408020	0.000166
1789	1.7791e+02	-8.7591	-35.193731	0.000253	2.534018	0.858548	0.000101
1790	1.7801e+02	-8.7206	-35.100877	0.000233	2.331296	0.789865	0.000093
1791	1.7810e+02	-8.6789	-34.919206	0.000456	4.561232	1.545387	0.000183
1792	1.7820e+02	-8.6388	-34.814240	0.000264	2.635379	0.892890	0.000105
1793	1.7830e+02	-8.5955	-34.741572	0.000182	1.824493	0.618155	0.000073
1794	1.7840e+02	-8.5682	-34.612383	0.000324	3.243543	1.098942	0.000130
1795	1.7850e+02	-8.5185	-34.491269	0.000304	3.040821	1.030258	0.000122
1796	1.7860e+02	-8.4800	-34.362081	0.000324	3.243543	1.098942	0.000130
1797	1.7870e+02	-8.4383	-34.273264	0.000223	2.229936	0.755523	0.000089
1798	1.7880e+02	-8.3933	-34.156187	0.000294	2.939461	0.995916	0.000118
1799	1.7890e+02	-8.3581	-34.014887	0.000355	3.547625	1.201968	0.000142
1800	1.7900e+02	-8.3228	-33.913959	0.000253	2.534018	0.858548	0.000101
1801	1.7910e+02	-8.2778	-33.764585	0.000375	3.750346	1.270652	0.000150
1802	1.7920e+02	-8.2474	-33.667693	0.000243	2.432657	0.824207	0.000097
1803	1.7930e+02	-8.1944	-33.530431	0.000345	3.446264	1.167626	0.000138
1804	1.7940e+02	-8.1607	-33.405280	0.000314	3.142182	1.064600	0.000126
1805	1.7950e+02	-8.1190	-33.304351	0.000253	2.534018	0.858548	0.000101
1806	1.7960e+02	-8.0741	-33.150940	0.000385	3.851707	1.304994	0.000154
1807	1.7970e+02	-8.0420	-32.977343	0.000436	4.358511	1.476703	0.000174
1808	1.7980e+02	-8.0019	-32.823932	0.000385	3.851707	1.304994	0.000154
1809	1.7990e+02	-7.9698	-32.702818	0.000304	3.040821	1.030258	0.000122
1810	1.8000e+02	-7.9233	-32.654372	0.000122	1.216329	0.412103	0.000049
1811	1.8009e+02	-7.8800	-32.472701	0.000456	4.561232	1.545387	0.000183
1812	1.8019e+02	-7.8431	-32.375810	0.000243	2.432657	0.824207	0.000097
1813	1.8029e+02	-7.7966	-32.270845	0.000264	2.635379	0.892890	0.000105
1814	1.8039e+02	-7.7613	-32.194139	0.000193	1.925854	0.652497	0.000077
1815	1.8049e+02	-7.7276	-32.089173	0.000264	2.635379	0.892890	0.000105
1816	1.8059e+02	-7.6875	-31.943837	0.000365	3.648986	1.236310	0.000146
1817	1.8069e+02	-7.6490	-31.826760	0.000294	2.939461	0.995916	0.000118
1818	1.8079e+02	-7.6073	-31.689497	0.000345	3.446264	1.167626	0.000138
1819	1.8089e+02	-7.5640	-31.568383	0.000304	3.040821	1.030258	0.000122
1820	1.8099e+02	-7.5206	-31.455343	0.000284	2.838100	0.961574	0.000114
1821	1.8109e+02	-7.4773	-31.326155	0.000324	3.243543	1.098942	0.000130
1822	1.8119e+02	-7.4468	-31.217152	0.000274	2.736739	0.927232	0.000110
1823	1.8129e+02	-7.4067	-31.039518	0.000446	4.459871	1.511045	0.000179
1824	1.8139e+02	-7.3618	-30.946664	0.000233	2.331296	0.789865	0.000093
1825	1.8149e+02	-7.3281	-30.829587	0.000294	2.939461	0.995916	0.000118
1826	1.8159e+02	-7.2848	-30.651953	0.000446	4.459871	1.511045	0.000179
1827	1.8169e+02	-7.2543	-30.551025	0.000253	2.534018	0.858548	0.000101
1828	1.8179e+02	-7.2014	-30.381465	0.000426	4.257150	1.442361	0.000170
1829	1.8189e+02	-7.1693	-30.300722	0.000203	2.027214	0.686839	0.000081
1830	1.8199e+02	-7.1180	-30.195757	0.000264	2.635379	0.892890	0.000105
1831	1.8209e+02	-7.0843	-30.054457	0.000355	3.547625	1.201968	0.000142
1832	1.8218e+02	-7.0362	-29.977751	0.000193	1.925854	0.652497	0.000077
1833	1.8228e+02	-7.0057	-29.860674	0.000294	2.939461	0.995916	0.000118
1834	1.8238e+02	-6.9656	-29.711300	0.000375	3.750346	1.270652	0.000150
1835	1.8248e+02	-6.9271	-29.594224	0.000294	2.939461	0.995916	0.000118
1836	1.8258e+02	-6.8854	-29.473109	0.000304	3.040821	1.030258	0.000122
1837	1.8268e+02	-6.8453	-29.319698	0.000385	3.851707	1.304994	0.000154
1838	1.8278e+02	-6.8084	-29.230881	0.000223	2.229936	0.755523	0.000089
1839	1.8288e+02	-6.7715	-29.065359	0.000416	4.155789	1.408020	0.000166
1840	1.8298e+02	-6.7282	-28.976542	0.000223	2.229936	0.755523	0.000089
1841	1.8308e+02	-6.6913	-28.847353	0.000324	3.243543	1.098942	0.000130
1842	1.8318e+02	-6.6479	-28.653571	0.000487	4.865314	1.648413	0.000195
1843	1.8328e+02	-6.6143	-28.552643	0.000253	2.534018	0.858548	0.000101
1844	1.8338e+02	-6.5597	-28.387120	0.000416	4.155789	1.408020	0.000166
1845	1.8348e+02	-6.5292	-28.294266	0.000233	2.331296	0.789865	0.000093
1846	1.8358e+02	-6.4875	-28.128743	0.000416	4.155789	1.408020	0.000166
1847	1.8368e+02	-6.4426	-28.011666	0.000294	2.939461	0.995916	0.000118
1848	1.8378e+02	-6.3993	-27.906701	0.000264	2.635379	0.892890	0.000105
1849	1.8388e+02	-6.3688	-27.765401	0.000355	3.547625	1.201968	0.000142
1850	1.8398e+02	-6.3287	-27.676584	0.000223	2.229936	0.755523	0.000089
1851	1.8407e+02	-6.2966	-27.515099	0.000405	4.054429	1.373678	0.000162
1852	1.8417e+02	-6.2469	-27.446467	0.000172	1.723132	0.583813	0.000069
1853	1.8427e+02	-6.2148	-27.284982	0.000405	4.054429	1.373678	0.000162
1854	1.8437e+02	-6.1715	-27.171942	0.000284	2.838100	0.961574	0.000114
1855	1.8447e+02	-6.1410	-27.062939	0.000274	2.736739	0.927232	0.000110
1856	1.8457e+02	-6.0977	-26.905491	0.000395	3.953068	1.339336	0.000158
1857	1.8467e+02	-6.0544	-26.784377	0.000304	3.040821	1.030258	0.000122
1858	1.8477e+02	-6.0207	-26.647114	0.000345	3.446264	1.167626	0.000138
1859	1.8487e+02	-5.9758	-26.477555	0.000426	4.257150	1.442361	0.000170
1860	1.8497e+02	-5.9389	-26.352404	0.000314	3.142182	1.064600	0.000126
1861	1.8507e+02	-5.8940	-26.207067	0.000365	3.648986	1.236310	0.000146
1862	1.8517e+02	-5.8490	-26.049618	0.000395	3.953068	1.339336	0.000158
1863	1.8527e+02	-5.8169	-25.944653	0.000264	2.635379	0.892890	0.000105
1864	1.8537e+02	-5.7704	-25.795279	0.000375	3.750346	1.270652	0.000150
1865	1.8547e+02	-5.7448	-25.714536	0.000203	2.027214	0.686839	0.000081
1866	1.8557e+02	-5.6966	-25.589385	0.000314	3.142182	1.064600	0.000126
1867	1.8567e+02	-5.6613	-25.452122	0.000345	3.446264	1.167626	0.000138
1868	1.8577e+02	-5.6148	-25.347157	0.000264	2.635379	0.892890	0.000105
1869	1.8587e+02	-5.5699	-25.238154	0.000274	2.736739	0.927232	0.000110
1870	1.8597e+02	-5.5394	-25.104929	0.000334	3.344904	1.133284	0.000134
1871	1.8606e+02	-5.4865	-24.943443	0.000405	4.054429	1.373678	0.000162
1872	1.8616e+02	-5.4512	-24.842515	0.000253	2.534018	0.858548	0.000101
1873	1.8626e+02	-5.4191	-24.733512	0.000274	2.736739	0.927232	0.000110
1874	1.8636e+02	-5.3694	-24.531655	0.000507	5.068036	1.717097	0.000203
1875	1.8646e+02	-5.3389	-24.434764	0.000243	2.432657	0.824207	0.000097
1876	1.8656e+02	-5.2892	-24.305576	0.000324	3.243543	1.098942	0.000130
1877	1.8666e+02	-5.2507	-24.176387	0.000324	3.243543	1.098942	0.000130
1878	1.8676e+02	-5.2138	-24.027013	0.000375	3.750346	1.270652	0.000150
1879	1.8686e+02	-5.1801	-23.873602	0.000385	3.851707	1.304994	0.000154
1880	1.8696e+02	-5.1400	-23.708080	0.000416	4.155789	1.408020	0.000166
1881	1.8706e+02	-5.0999	-23.599077	0.000274	2.736739	0.927232	0.000110
1882	1.8716e+02	-5.0565	-23.490074	0.000274	2.736739	0.927232	0.000110
1883	1.8726e+02	-5.0116	-23.324552	0.000416	4.155789	1.408020	0.000166
1884	1.8736e+02	-4.9731	-23.231698	0.000233	2.331296	0.789865	0.000093
1885	1.8746e+02	-4.9330	-23.130769	0.000253	2.534018	0.858548	0.000101
1886	1.8756e+02	-4.9025	-23.025804	0.000264	2.635379	0.892890	0.000105
1887	1.8766e+02	-4.8608	-22.860281	0.000416	4.155789	1.408020	0.000166
1888	1.8776e+02	-4.8191	-22.747241	0.000284	2.838100	0.961574	0.000114
1889	1.8786e+02	-4.7758	-22.654387	0.000233	2.331296	0.789865	0.000093
1890	1.8796e+02	-4.7357	-22.513087	0.000355	3.547625	1.201968	0.000142
1891	1.8806e+02	-4.6876	-22.400048	0.000284	2.838100	0.961574	0.000114
1892	1.8815e+02	-4.6651	-22.234525	0.000416	4.155789	1.408020	0.000166
1893	1.8825e+02	-4.6218	-22.097262	0.000345	3.446264	1.167626	0.000138
1894	1.8835e+02	-4.5833	-21.964037	0.000334	3.344904	1.133284	0.000134
1895	1.8845e+02	-4.5368	-21.863109	0.000253	2.534018	0.858548	0.000101
1896	1.8855e+02	-4.4999	-21.685475	0.000446	4.459871	1.511045	0.000179
1897	1.8865e+02	-4.4614	-21.503804	0.000456	4.561232	1.545387	0.000183
1898	1.8875e+02	-4.4181	-21.435172	0.000172	1.723132	0.583813	0.000069
1899	1.8885e+02	-4.3747	-21.237353	0.000497	4.966675	1.682755	0.000199
1900	1.8895e+02	-4.3362	-21.136424	0.000253	2.534018	0.858548	0.000101
1901	1.8905e+02	-4.3026	-21.039533	0.000243	2.432657	0.824207	0.000097
1902	1.8915e+02	-4.2576	-20.890159	0.000375	3.750346	1.270652	0.000150
1903	1.8925e+02	-4.2143	-20.756933	0.000334	3.344904	1.133284	0.000134
1904	1.8935e+02	-4.1870	-20.623708	0.000334	3.344904	1.133284	0.000134
1905	1.8945e+02	-4.1389	-20.538928	0.000213	2.128575	0.721181	0.000085
1906	1.8955e+02	-4.1036	-20.409740	0.000324	3.243543	1.098942	0.000130
1907	1.8965e+02	-4.0651	-20.244217	0.000416	4.155789	1.408020	0.000166
1908	1.8975e+02	-4.0218	-20.086769	0.000395	3.953068	1.339336	0.000158
1909	1.8985e+02	-3.9833	-19.949506	0.000345	3.446264	1.167626	0.000138
1910	1.8995e+02	-3.9400	-19.864726	0.000213	2.128575	0.721181	0.000085
1911	1.9004e+02	-3.9015	-19.703241	0.000405	4.054429	1.373678	0.000162
1912	1.9014e+02	-3.8486	-19.561941	0.000355	3.547625	1.201968	0.000142
1913	1.9024e+02	-3.8245	-19.436790	0.000314	3.142182	1.064600	0.000126
1914	1.9034e+02	-3.7796	-19.315676	0.000304	3.040821	1.030258	0.000122
1915	1.9044e+02	-3.7427	-19.105745	0.000527	5.270757	1.785781	0.000211
1916	1.9054e+02	-3.6945	-18.968482	0.000345	3.446264	1.167626	0.000138
1917	1.9064e+02	-3.6593	-18.891777	0.000193	1.925854	0.652497	0.000077
1918	1.9074e+02	-3.6175	-18.750477	0.000355	3.547625	1.201968	0.000142
1919	1.9084e+02	-3.5823	-18.617251	0.000334	3.344904	1.133284	0.000134
1920	1.9094e+02	-3.5405	-18.484026	0.000334	3.344904	1.133284	0.000134
1921	1.9104e+02	-3.5101	-18.383098	0.000253	2.534018	0.858548	0.000101
1922	1.9114e+02	-3.4539	-18.266021	0.000294	2.939461	0.995916	0.000118
1923	1.9124e+02	-3.4138	-18.136832	0.000324	3.243543	1.098942	0.000130
1924	1.9134e+02	-3.3849	-17.979384	0.000395	3.953068	1.339336	0.000158
1925	1.9144e+02	-3.3384	-17.850196	0.000324	3.243543	1.098942	0.000130
1926	1.9154e+02	-3.3031	-17.741193	0.000274	2.736739	0.927232	0.000110
1927	1.9164e+02	-3.2614	-17.595856	0.000365	3.648986	1.236310	0.000146
1928	1.9174e+02	-3.2197	-17.482816	0.000284	2.838100	0.961574	0.000114
1929	1.9184e+02	-3.1908	-17.341517	0.000355	3.547625	1.201968	0.000142
1930	1.9194e+02	-3.1491	-17.200217	0.000355	3.547625	1.201968	0.000142
1931	1.9203e+02	-3.1058	-17.054880	0.000365	3.648986	1.236310	0.000146
1932	1.9213e+02	-3.0673	-16.925692	0.000324	3.243543	1.098942	0.000130
1933	1.9223e+02	-3.0304	-16.760169	0.000416	4.155789	1.408020	0.000166
1934	1.9233e+02	-2.9839	-16.639055	0.000304	3.040821	1.030258	0.000122
1935	1.9243e+02	-2.9470	-16.530052	0.000274	2.736739	0.927232	0.000110
1936	1.9253e+02	-2.9053	-16.380678	0.000375	3.750346	1.270652	0.000150
1937	1.9263e+02	-2.8684	-16.267638	0.000284	2.838100	0.961574	0.000114
1938	1.9273e+02	-2.8202	-16.154599	0.000284	2.838100	0.961574	0.000114
1939	1.9283e+02	-2.7898	-16.045596	0.000274	2.736739	0.927232	0.000110
1940	1.9293e+02	-2.7400	-15.896222	0.000375	3.750346	1.270652	0.000150
1941	1.9303e+02	-2.6951	-15.771071	0.000314	3.142182	1.064600	0.000126
1942	1.9313e+02	-2.6630	-15.633808	0.000345	3.446264	1.167626	0.000138
1943	1.9323e+02	-2.6325	-15.492508	0.000355	3.547625	1.201968	0.000142
1944	1.9333e+02	-2.5973	-15.375431	0.000294	2.939461	0.995916	0.000118
1945	1.9343e+02	-2.5411	-15.238169	0.000345	3.446264	1.167626	0.000138
1946	1.9353e+02	-2.4994	-15.084758	0.000385	3.851707	1.304994	0.000154
1947	1.9363e+02	-2.4673	-14.951532	0.000334	3.344904	1.133284	0.000134
1948	1.9373e+02	-2.4288	-14.862715	0.000223	2.229936	0.755523	0.000089
1949	1.9383e+02	-2.3775	-14.640673	0.000557	5.574839	1.888807	0.000223
1950	1.9393e+02	-2.3470	-14.531670	0.000274	2.736739	0.927232	0.000110
1951	1.9403e+02	-2.3149	-14.386333	0.000365	3.648986	1.236310	0.000146
1952	1.9412e+02	-2.2652	-14.228885	0.000395	3.953068	1.339336	0.000158
1953	1.9422e+02	-2.2283	-14.131994	0.000243	2.432657	0.824207	0.000097
1954	1.9432e+02	-2.1882	-14.014917	0.000294	2.939461	0.995916	0.000118
1955	1.9442e+02	-2.1433	-13.885728	0.000324	3.243543	1.098942	0.000130
1956	1.9452e+02	-2.1064	-13.732317	0.000385	3.851707	1.304994	0.000154
1957	1.9462e+02	-2.0711	-13.655612	0.000193	1.925854	0.652497	0.000077
1958	1.9472e+02	-2.0245	-13.502200	0.000385	3.851707	1.304994	0.000154
1959	1.9482e+02	-1.9925	-13.308418	0.000487	4.865314	1.648413	0.000195
1960	1.9492e+02	-1.9411	-13.223638	0.000213	2.128575	0.721181	0.000085
1961	1.9502e+02	-1.9074	-13.078301	0.000365	3.648986	1.236310	0.000146
1962	1.9512e+02	-1.8689	-12.969299	0.000274	2.736739	0.927232	0.000110
1963	1.9522e+02	-1.8336	-12.799739	0.000426	4.257150	1.442361	0.000170
1964	1.9532e+02	-1.7903	-12.690736	0.000274	2.736739	0.927232	0.000110
1965	1.9542e+02	-1.7502	-12.577696	0.000284	2.838100	0.961574	0.000114
1966	1.9552e+02	-1.7085	-12.396025	0.000456	4.561232	1.545387	0.000183
1967	1.9562e+02	-1.6732	-12.242614	0.000385	3.851707	1.304994	0.000154
1968	1.9572e+02	-1.6299	-12.073054	0.000426	4.257150	1.442361	0.000170
1969	1.9582e+02	-1.5946	-11.951940	0.000304	3.040821	1.030258	0.000122
1970	1.9592e+02	-1.5497	-11.834863	0.000294	2.939461	0.995916	0.000118
1971	1.9601e+02	-1.5128	-11.681452	0.000385	3.851707	1.304994	0.000154
1972	1.9611e+02	-1.4647	-11.612821	0.000172	1.723132	0.583813	0.000069
1973	1.9621e+02	-1.4294	-11.499781	0.000284	2.838100	0.961574	0.000114
1974	1.9631e+02	-1.3861	-11.322147	0.000446	4.459871	1.511045	0.000179
1975	1.9641e+02	-1.3540	-11.205070	0.000294	2.939461	0.995916	0.000118
1976	1.9651e+02	-1.3107	-11.051659	0.000385	3.851707	1.304994	0.000154
1977	1.9661e+02	-1.2722	-10.926508	0.000314	3.142182	1.064600	0.000126
1978	1.9671e+02	-1.2256	-10.809431	0.000294	2.939461	0.995916	0.000118
1979	1.9681e+02	-1.1984	-10.712540	0.000243	2.432657	0.824207	0.000097
1980	1.9691e+02	-1.1583	-10.530869	0.000456	4.561232	1.545387	0.000183
1981	1.9701e+02	-1.1101	-10.385532	0.000365	3.648986	1.236310	0.000146
1982	1.9711e+02	-1.0796	-10.248269	0.000345	3.446264	1.167626	0.000138
1983	1.9721e+02	-1.0379	-10.135229	0.000284	2.838100	0.961574	0.000114
1984	1.9731e+02	-1.0010	-9.957595	0.000446	4.459871	1.511045	0.000179
1985	1.9741e+02	-0.9577	-9.808221	0.000375	3.750346	1.270652	0.000150
1986	1.9751e+02	-0.9160	-9.674996	0.000334	3.344904	1.133284	0.000134
1987	1.9761e+02	-0.8759	-9.529659	0.000365	3.648986	1.236310	0.000146
1988	1.9771e+02	-0.8342	-9.388359	0.000355	3.547625	1.201968	0.000142
1989	1.9781e+02	-0.7957	-9.243022	0.000365	3.648986	1.236310	0.000146
1990	1.9791e+02	-0.7476	-9.142094	0.000253	2.534018	0.858548	0.000101
1991	1.9800e+02	-0.7091	-9.020980	0.000304	3.040821	1.030258	0.000122
1992	1.9810e+02	-0.6754	-8.920051	0.000253	2.534018	0.858548	0.000101
1993	1.9820e+02	-0.6353	-8.762603	0.000395	3.953068	1.339336	0.000158
1994	1.9830e+02	-0.5984	-8.649563	0.000284	2.838100	0.961574	0.000114
1995	1.9840e+02	-0.5438	-8.504226	0.000365	3.648986	1.236310	0.000146
1996	1.9850e+02	-0.5198	-8.358890	0.000365	3.648986	1.236310	0.000146
1997	1.9860e+02	-0.4732	-8.229701	0.000324	3.243543	1.098942	0.000130
1998	1.9870e+02	-0.4380	-8.100513	0.000324	3.243543	1.098942	0.000130
1999	1.9880e+02	-0.3930	-7.979399	0.000304	3.040821	1.030258	0.000122
2000	1.9890e+02	-0.3513	-7.777542	0.000507	5.068036	1.717097	0.000203
2001	1.9900e+02	-0.3192	-7.684688	0.000233	2.331296	0.789865	0.000093
2002	1.9910e+02	-0.2711	-7.519165	0.000416	4.155789	1.408020	0.000166
2003	1.9920e+02	-0.2438	-7.353643	0.000416	4.155789	1.408020	0.000166
2004	1.9930e+02	-0.1973	-7.244640	0.000274	2.736739	0.927232	0.000110
2005	1.9940e+02	-0.1620	-7.054895	0.000476	4.763954	1.614071	0.000191
2006	1.9950e+02	-0.1203	-6.929743	0.000314	3.142182	1.064600	0.000126
2007	1.9960e+02	-0.0642	-6.784407	0.000365	3.648986	1.236310	0.000146
2008	1.9970e+02	-0.0369	-6.655218	0.000324	3.243543	1.098942	0.000130
2009	1.9980e+02	0.0112	-6.554290	0.000324	3.243543	1.098942	0.000101

PMax (uC/cm2):	6.79e+01
Pr (uC/cm2):	3.05e+00
-Pr (uC/cm2):	-3.56e+00
PLoss (uC/cm2):	-3.56e+00
-Vc:	-8.79e-01
C (Max-Eff) (nF):	3.39e-01
K (Eff):	1.15e+03
Vert. (+/-Pr) Shift (uC/cm2):	-2.52e-01
Offset (uC/cm2):	3.00e+00

A (Loop Area - uC/cm2·Volts):	3.75e-02



Hysteresis Version: 5.48.1 - Radiant Technologies, Inc., 1999 - 9/12/24

