»»»»»»»»»»»»»»»»»»»»»»»»»»»»»»»»»»»» Hysteresis ««««««««««««««««««««««««««««««««««««
»»»  Executed Version:	5.48.1
»»»  Vision Version:	5.48.4 (R)
»»»  Vision Compiled:	9/18/24
»»»  Driver Version:	5.47.0
»»»  Windows Version:	Windows 8 or 8.1
»»»  Processor Information:	x86 (AMD or Intel) - 32 Processors
»»»  Tester Name:	PMF21124-494 (100V)
»»»  Tester S/N:	PMF21124-494
»»»  Internal Amp Type:	100V RevK 270k
»»»  Internal Amp S/N:	iAB2-596/K     
»»»  Execution Count:	1
»»»»»»»»»»»»»»»»»»»»»»»»»»»»»»»»»»»»»»»»»»««««««««««««««««««««««««««««««««««««««««««

Stored:	6/19/2025 - 15:28:26
Configured:	06/19/25 10:04:32 AM
Executed:	06/19/25 03:28:02 PM

»»»»»»»»»»»»»»»»»»»»»»»»»»»»»»»»»»» Sample Info ««««««««««««««««««««««««««««««««««««
Sample Name:	
Lot Name:	
Wafer Name:	
Die Row/Column:	0/0
Capacitor Number:	0
Sample Area (cm2):	1.00e-04
Sample Thickness (microns):	3.00e-01

Amplifier:	Internal

»»»»»»»»»»»»»»»»»»»»»»»»»»»»»»»»»»» Tester Info «««««««««««««««««««««««««««««««««««
Tester Name:	PMF21124-494 (100V)
Tester Serial Number:	PMF21124-494
Return Signal Amp. Level:	0.19 [Index: 3]

»»»»»»»»»»»»»»»»»»»»»»»»»»»»»»»» Hysteresis Info ««««««««««««««««««««««««««««««««««
Task Name:	Hyst-1168
Volts:	20.00
Field:	666.67 (kV/cm)
DCBias:	0.00
DCField:	0.00 (kV/cm)
Hysteresis Period (ms):	2.00e+02
Preset:	Enabled
Preset Delay (ms):	1.00e+03
Profile:	Standard Bipolar

»»»»»»»»»»»»»»»»»»»»»»»»»»»»»»»»»»»»»» Data «««««««««««««««««««««««««««««««««««««««
Points:	2009

Valid Data

Point	Time (ms)	Drive Voltage	Measured Polarization (uC/cm2)	Capacitance (uF)	Normalized Capacitance (uF/cm2)	Dielectric Constant	Instantaneous Current (mA)
   1	0.0000e+00	0.0112	-3.031889	0.000182	1.824896	0.618291	0.000073
   2	9.9500e-02	0.0337	-2.959220	0.000182	1.824896	0.618291	0.000073
   3	1.9900e-01	0.0770	-2.862329	0.000243	2.433194	0.824388	0.000097
   4	2.9850e-01	0.1155	-2.737178	0.000314	3.142876	1.064835	0.000126
   5	3.9800e-01	0.1620	-2.595878	0.000355	3.548408	1.202233	0.000142
   6	4.9750e-01	0.2005	-2.474764	0.000304	3.041493	1.030486	0.000122
   7	5.9700e-01	0.2358	-2.369799	0.000264	2.635960	0.893087	0.000105
   8	6.9650e-01	0.2839	-2.228499	0.000355	3.548408	1.202233	0.000142
   9	7.9600e-01	0.3016	-2.087199	0.000355	3.548408	1.202233	0.000142
  10	8.9550e-01	0.3610	-1.998382	0.000223	2.230428	0.755689	0.000089
  11	9.9500e-01	0.3946	-1.832860	0.000416	4.156706	1.408330	0.000166
  12	1.0945e+00	0.4444	-1.744043	0.000223	2.230428	0.755689	0.000089
  13	1.1940e+00	0.4716	-1.639077	0.000264	2.635960	0.893087	0.000105
  14	1.2935e+00	0.5182	-1.497777	0.000355	3.548408	1.202233	0.000142
  15	1.3930e+00	0.5535	-1.421072	0.000193	1.926279	0.652641	0.000077
  16	1.4925e+00	0.5984	-1.271698	0.000375	3.751174	1.270932	0.000150
  17	1.5920e+00	0.6273	-1.130398	0.000355	3.548408	1.202233	0.000142
  18	1.6915e+00	0.6754	-1.005247	0.000314	3.142876	1.064835	0.000126
  19	1.7910e+00	0.7139	-0.880096	0.000314	3.142876	1.064835	0.000126
  20	1.8905e+00	0.7460	-0.718610	0.000406	4.055323	1.373981	0.000162
  21	1.9900e+00	0.7893	-0.633830	0.000213	2.129045	0.721340	0.000085
  22	2.0895e+00	0.8358	-0.504642	0.000324	3.244259	1.099185	0.000130
  23	2.1890e+00	0.8791	-0.343157	0.000406	4.055323	1.373981	0.000162
  24	2.2885e+00	0.9321	-0.246265	0.000243	2.433194	0.824388	0.000097
  25	2.3880e+00	0.9449	-0.109003	0.000345	3.447025	1.167884	0.000138
  26	2.4875e+00	0.9930	0.048446	0.000395	3.953940	1.339631	0.000158
  27	2.5870e+00	1.0283	0.189745	0.000355	3.548408	1.202233	0.000142
  28	2.6865e+00	1.0748	0.258377	0.000172	1.723512	0.583942	0.000069
  29	2.7860e+00	1.1165	0.419862	0.000406	4.055323	1.373981	0.000162
  30	2.8855e+00	1.1550	0.524828	0.000264	2.635960	0.893087	0.000105
  31	2.9850e+00	1.2016	0.621719	0.000243	2.433194	0.824388	0.000097
  32	3.0845e+00	1.2272	0.763019	0.000355	3.548408	1.202233	0.000142
  33	3.1840e+00	1.2706	0.880096	0.000294	2.940109	0.996136	0.000118
  34	3.2835e+00	1.3123	1.005247	0.000314	3.142876	1.064835	0.000126
  35	3.3830e+00	1.3524	1.154621	0.000375	3.751174	1.270932	0.000150
  36	3.4825e+00	1.3925	1.259586	0.000264	2.635960	0.893087	0.000105
  37	3.5820e+00	1.4230	1.368589	0.000274	2.737343	0.927437	0.000110
  38	3.6815e+00	1.4679	1.546223	0.000446	4.460856	1.511379	0.000179
  39	3.7810e+00	1.5000	1.659263	0.000284	2.838726	0.961787	0.000114
  40	3.8805e+00	1.5593	1.760191	0.000253	2.534577	0.858738	0.000101
  41	3.9800e+00	1.5914	1.913602	0.000385	3.852557	1.305282	0.000154
  42	4.0795e+00	1.6331	2.050865	0.000345	3.447025	1.167884	0.000138
  43	4.1790e+00	1.6748	2.216388	0.000416	4.156706	1.408330	0.000166
  44	4.2785e+00	1.7149	2.337502	0.000304	3.041493	1.030486	0.000122
  45	4.3780e+00	1.7550	2.482838	0.000365	3.649791	1.236583	0.000146
  46	4.4775e+00	1.7903	2.551470	0.000172	1.723512	0.583942	0.000069
  47	4.5770e+00	1.8336	2.668547	0.000294	2.940109	0.996136	0.000118
  48	4.6765e+00	1.8721	2.797735	0.000324	3.244259	1.099185	0.000130
  49	4.7760e+00	1.9074	2.926923	0.000324	3.244259	1.099185	0.000130
  50	4.8755e+00	1.9604	3.064186	0.000345	3.447025	1.167884	0.000138
  51	4.9750e+00	1.9876	3.177226	0.000284	2.838726	0.961787	0.000114
  52	5.0745e+00	2.0294	3.314488	0.000345	3.447025	1.167884	0.000138
  53	5.1740e+00	2.0646	3.455788	0.000355	3.548408	1.202233	0.000142
  54	5.2735e+00	2.1144	3.560754	0.000264	2.635960	0.893087	0.000105
  55	5.3730e+00	2.1417	3.722239	0.000406	4.055323	1.373981	0.000162
  56	5.4725e+00	2.1866	3.875650	0.000385	3.852557	1.305282	0.000154
  57	5.5720e+00	2.2283	3.972542	0.000243	2.433194	0.824388	0.000097
  58	5.6715e+00	2.2636	4.125953	0.000385	3.852557	1.305282	0.000154
  59	5.7710e+00	2.3021	4.234955	0.000274	2.737343	0.927437	0.000110
  60	5.8705e+00	2.3438	4.412589	0.000446	4.460856	1.511379	0.000179
  61	5.9700e+00	2.3775	4.485258	0.000182	1.824896	0.618291	0.000073
  62	6.0695e+00	2.4320	4.675003	0.000477	4.765005	1.614427	0.000191
  63	6.1690e+00	2.4753	4.816303	0.000355	3.548408	1.202233	0.000142
  64	6.2685e+00	2.5090	4.876860	0.000152	1.520746	0.515243	0.000061
  65	6.3680e+00	2.5459	5.014123	0.000345	3.447025	1.167884	0.000138
  66	6.4675e+00	2.5828	5.086791	0.000182	1.824896	0.618291	0.000073
  67	6.5670e+00	2.6213	5.256351	0.000426	4.258090	1.442680	0.000170
  68	6.6665e+00	2.6727	5.377465	0.000304	3.041493	1.030486	0.000122
  69	6.7660e+00	2.7079	5.470319	0.000233	2.331811	0.790039	0.000093
  70	6.8655e+00	2.7448	5.631804	0.000406	4.055323	1.373981	0.000162
  71	6.9650e+00	2.7882	5.785216	0.000385	3.852557	1.305282	0.000154
  72	7.0645e+00	2.8202	5.910367	0.000314	3.142876	1.064835	0.000126
  73	7.1640e+00	2.8700	6.031481	0.000304	3.041493	1.030486	0.000122
  74	7.2635e+00	2.9085	6.197003	0.000416	4.156706	1.408330	0.000166
  75	7.3630e+00	2.9454	6.314080	0.000294	2.940109	0.996136	0.000118
  76	7.4625e+00	2.9903	6.419046	0.000264	2.635960	0.893087	0.000105
  77	7.5620e+00	3.0272	6.556308	0.000345	3.447025	1.167884	0.000138
  78	7.6615e+00	3.0593	6.701645	0.000365	3.649791	1.236583	0.000146
  79	7.7610e+00	3.1026	6.895428	0.000487	4.866388	1.648777	0.000195
  80	7.8605e+00	3.1475	7.008468	0.000284	2.838726	0.961787	0.000114
  81	7.9600e+00	3.1828	7.137656	0.000324	3.244259	1.099185	0.000130
  82	8.0595e+00	3.2341	7.226473	0.000223	2.230428	0.755689	0.000089
  83	8.1590e+00	3.2662	7.379884	0.000385	3.852557	1.305282	0.000154
  84	8.2585e+00	3.3111	7.517147	0.000345	3.447025	1.167884	0.000138
  85	8.3580e+00	3.3432	7.650372	0.000335	3.345642	1.133534	0.000134
  86	8.4575e+00	3.3801	7.763412	0.000284	2.838726	0.961787	0.000114
  87	8.5570e+00	3.4202	7.900675	0.000345	3.447025	1.167884	0.000138
  88	8.6565e+00	3.4651	8.050049	0.000375	3.751174	1.270932	0.000150
  89	8.7560e+00	3.5101	8.191348	0.000355	3.548408	1.202233	0.000142
  90	8.8555e+00	3.5470	8.316500	0.000314	3.142876	1.064835	0.000126
  91	8.9550e+00	3.5855	8.441651	0.000314	3.142876	1.064835	0.000126
  92	9.0545e+00	3.6191	8.607173	0.000416	4.156706	1.408330	0.000166
  93	9.1540e+00	3.6705	8.712139	0.000264	2.635960	0.893087	0.000105
  94	9.2535e+00	3.6994	8.861513	0.000375	3.751174	1.270932	0.000150
  95	9.3530e+00	3.7395	8.986664	0.000314	3.142876	1.064835	0.000126
  96	9.4525e+00	3.7748	9.127964	0.000355	3.548408	1.202233	0.000142
  97	9.5520e+00	3.8277	9.317709	0.000477	4.765005	1.614427	0.000191
  98	9.6515e+00	3.8678	9.483232	0.000416	4.156706	1.408330	0.000166
  99	9.7510e+00	3.9031	9.592235	0.000274	2.737343	0.927437	0.000110
 100	9.8505e+00	3.9528	9.733534	0.000355	3.548408	1.202233	0.000142
 101	9.9500e+00	3.9881	9.834463	0.000253	2.534577	0.858738	0.000101
 102	1.0050e+01	4.0250	9.967688	0.000335	3.345642	1.133534	0.000134
 103	1.0149e+01	4.0635	10.129174	0.000406	4.055323	1.373981	0.000162
 104	1.0248e+01	4.0956	10.262399	0.000335	3.345642	1.133534	0.000134
 105	1.0348e+01	4.1405	10.375439	0.000284	2.838726	0.961787	0.000114
 106	1.0447e+01	4.1774	10.520776	0.000365	3.649791	1.236583	0.000146
 107	1.0547e+01	4.2159	10.637853	0.000294	2.940109	0.996136	0.000118
 108	1.0646e+01	4.2673	10.795301	0.000395	3.953940	1.339631	0.000158
 109	1.0746e+01	4.3042	10.928526	0.000335	3.345642	1.133534	0.000134
 110	1.0845e+01	4.3475	11.057715	0.000324	3.244259	1.099185	0.000130
 111	1.0945e+01	4.3763	11.194977	0.000345	3.447025	1.167884	0.000138
 112	1.1044e+01	4.4245	11.348389	0.000385	3.852557	1.305282	0.000154
 113	1.1144e+01	4.4678	11.501800	0.000385	3.852557	1.305282	0.000154
 114	1.1243e+01	4.4983	11.626951	0.000314	3.142876	1.064835	0.000126
 115	1.1343e+01	4.5400	11.812659	0.000466	4.663622	1.580078	0.000187
 116	1.1443e+01	4.5817	12.002405	0.000477	4.765005	1.614427	0.000191
 117	1.1542e+01	4.6218	12.119481	0.000294	2.940109	0.996136	0.000118
 118	1.1642e+01	4.6619	12.220410	0.000253	2.534577	0.858738	0.000101
 119	1.1741e+01	4.6972	12.369784	0.000375	3.751174	1.270932	0.000150
 120	1.1841e+01	4.7453	12.470712	0.000253	2.534577	0.858738	0.000101
 121	1.1940e+01	4.7870	12.636235	0.000416	4.156706	1.408330	0.000166
 122	1.2040e+01	4.8207	12.745238	0.000274	2.737343	0.927437	0.000110
 123	1.2139e+01	4.8528	12.866352	0.000304	3.041493	1.030486	0.000122
 124	1.2239e+01	4.9009	13.048023	0.000456	4.562239	1.545728	0.000183
 125	1.2338e+01	4.9475	13.193360	0.000365	3.649791	1.236583	0.000146
 126	1.2438e+01	4.9795	13.318511	0.000314	3.142876	1.064835	0.000126
 127	1.2537e+01	5.0116	13.463848	0.000365	3.649791	1.236583	0.000146
 128	1.2636e+01	5.0646	13.597073	0.000335	3.345642	1.133534	0.000134
 129	1.2736e+01	5.0934	13.738373	0.000355	3.548408	1.202233	0.000142
 130	1.2835e+01	5.1400	13.895821	0.000395	3.953940	1.339631	0.000158
 131	1.2935e+01	5.1753	14.000787	0.000264	2.635960	0.893087	0.000105
 132	1.3034e+01	5.2266	14.186495	0.000466	4.663622	1.580078	0.000187
 133	1.3134e+01	5.2490	14.356055	0.000426	4.258090	1.442680	0.000170
 134	1.3233e+01	5.2876	14.529652	0.000436	4.359473	1.477029	0.000174
 135	1.3333e+01	5.3341	14.679026	0.000375	3.751174	1.270932	0.000150
 136	1.3432e+01	5.3854	14.824362	0.000365	3.649791	1.236583	0.000146
 137	1.3532e+01	5.4207	14.917217	0.000233	2.331811	0.790039	0.000093
 138	1.3632e+01	5.4560	15.042368	0.000314	3.142876	1.064835	0.000126
 139	1.3731e+01	5.5025	15.183668	0.000355	3.548408	1.202233	0.000142
 140	1.3831e+01	5.5282	15.345153	0.000406	4.055323	1.373981	0.000162
 141	1.3930e+01	5.5747	15.478378	0.000335	3.345642	1.133534	0.000134
 142	1.4030e+01	5.6196	15.595455	0.000294	2.940109	0.996136	0.000118
 143	1.4129e+01	5.6597	15.736755	0.000355	3.548408	1.202233	0.000142
 144	1.4229e+01	5.6918	15.861906	0.000314	3.142876	1.064835	0.000126
 145	1.4328e+01	5.7399	16.043577	0.000456	4.562239	1.545728	0.000183
 146	1.4428e+01	5.7865	16.229286	0.000466	4.663622	1.580078	0.000187
 147	1.4527e+01	5.8186	16.354437	0.000314	3.142876	1.064835	0.000126
 148	1.4627e+01	5.8538	16.451328	0.000243	2.433194	0.824388	0.000097
 149	1.4726e+01	5.8907	16.628962	0.000446	4.460856	1.511379	0.000179
 150	1.4825e+01	5.9341	16.802559	0.000436	4.359473	1.477029	0.000174
 151	1.4925e+01	5.9758	16.943859	0.000355	3.548408	1.202233	0.000142
 152	1.5024e+01	6.0127	17.101307	0.000395	3.953940	1.339631	0.000158
 153	1.5124e+01	6.0512	17.274904	0.000436	4.359473	1.477029	0.000174
 154	1.5223e+01	6.1009	17.424278	0.000375	3.751174	1.270932	0.000150
 155	1.5323e+01	6.1314	17.553466	0.000324	3.244259	1.099185	0.000130
 156	1.5422e+01	6.1635	17.638246	0.000213	2.129045	0.721340	0.000085
 157	1.5522e+01	6.2148	17.783583	0.000365	3.649791	1.236583	0.000146
 158	1.5621e+01	6.2661	17.920846	0.000345	3.447025	1.167884	0.000138
 159	1.5721e+01	6.2998	18.098480	0.000446	4.460856	1.511379	0.000179
 160	1.5820e+01	6.3319	18.239779	0.000355	3.548408	1.202233	0.000142
 161	1.5920e+01	6.3784	18.377042	0.000345	3.447025	1.167884	0.000138
 162	1.6020e+01	6.4153	18.534490	0.000395	3.953940	1.339631	0.000158
 163	1.6119e+01	6.4442	18.691938	0.000395	3.953940	1.339631	0.000158
 164	1.6218e+01	6.4875	18.788830	0.000243	2.433194	0.824388	0.000097
 165	1.6318e+01	6.5196	18.926092	0.000345	3.447025	1.167884	0.000138
 166	1.6418e+01	6.5790	19.063355	0.000345	3.447025	1.167884	0.000138
 167	1.6517e+01	6.6143	19.208692	0.000365	3.649791	1.236583	0.000146
 168	1.6616e+01	6.6495	19.345954	0.000345	3.447025	1.167884	0.000138
 169	1.6716e+01	6.6864	19.523588	0.000446	4.460856	1.511379	0.000179
 170	1.6816e+01	6.7330	19.697185	0.000436	4.359473	1.477029	0.000174
 171	1.6915e+01	6.7747	19.814262	0.000294	2.940109	0.996136	0.000118
 172	1.7015e+01	6.8180	19.939413	0.000314	3.142876	1.064835	0.000126
 173	1.7114e+01	6.8501	20.068602	0.000324	3.244259	1.099185	0.000130
 174	1.7213e+01	6.8934	20.213939	0.000365	3.649791	1.236583	0.000146
 175	1.7313e+01	6.9319	20.335053	0.000304	3.041493	1.030486	0.000122
 176	1.7413e+01	6.9752	20.484427	0.000375	3.751174	1.270932	0.000150
 177	1.7512e+01	7.0089	20.605541	0.000304	3.041493	1.030486	0.000122
 178	1.7611e+01	7.0426	20.783175	0.000446	4.460856	1.511379	0.000179
 179	1.7711e+01	7.0875	20.928512	0.000365	3.649791	1.236583	0.000146
 180	1.7811e+01	7.1276	21.057700	0.000324	3.244259	1.099185	0.000130
 181	1.7910e+01	7.1629	21.182851	0.000314	3.142876	1.064835	0.000126
 182	1.8009e+01	7.2046	21.332225	0.000375	3.751174	1.270932	0.000150
 183	1.8109e+01	7.2431	21.461414	0.000324	3.244259	1.099185	0.000130
 184	1.8209e+01	7.2848	21.626936	0.000416	4.156706	1.408330	0.000166
 185	1.8308e+01	7.3217	21.731902	0.000264	2.635960	0.893087	0.000105
 186	1.8407e+01	7.3586	21.889350	0.000395	3.953940	1.339631	0.000158
 187	1.8507e+01	7.4051	22.042761	0.000385	3.852557	1.305282	0.000154
 188	1.8607e+01	7.4485	22.180024	0.000345	3.447025	1.167884	0.000138
 189	1.8706e+01	7.4918	22.345546	0.000416	4.156706	1.408330	0.000166
 190	1.8805e+01	7.5351	22.462623	0.000294	2.940109	0.996136	0.000118
 191	1.8905e+01	7.5736	22.571626	0.000274	2.737343	0.927437	0.000110
 192	1.9005e+01	7.6105	22.684666	0.000284	2.838726	0.961787	0.000114
 193	1.9104e+01	7.6490	22.878448	0.000487	4.866388	1.648777	0.000195
 194	1.9203e+01	7.6811	23.043971	0.000416	4.156706	1.408330	0.000166
 195	1.9303e+01	7.7404	23.144899	0.000253	2.534577	0.858738	0.000101
 196	1.9402e+01	7.7661	23.310422	0.000416	4.156706	1.408330	0.000166
 197	1.9502e+01	7.8062	23.443647	0.000335	3.345642	1.133534	0.000134
 198	1.9602e+01	7.8399	23.605133	0.000406	4.055323	1.373981	0.000162
 199	1.9701e+01	7.8928	23.706061	0.000253	2.534577	0.858738	0.000101
 200	1.9800e+01	7.9345	23.831212	0.000314	3.142876	1.064835	0.000126
 201	1.9900e+01	7.9682	23.972512	0.000355	3.548408	1.202233	0.000142
 202	2.0000e+01	8.0115	24.133997	0.000406	4.055323	1.373981	0.000162
 203	2.0099e+01	8.0436	24.259149	0.000314	3.142876	1.064835	0.000126
 204	2.0198e+01	8.0901	24.420634	0.000406	4.055323	1.373981	0.000162
 205	2.0298e+01	8.1190	24.549822	0.000324	3.244259	1.099185	0.000130
 206	2.0398e+01	8.1655	24.715345	0.000416	4.156706	1.408330	0.000166
 207	2.0497e+01	8.2008	24.864719	0.000375	3.751174	1.270932	0.000150
 208	2.0596e+01	8.2345	24.973722	0.000274	2.737343	0.927437	0.000110
 209	2.0696e+01	8.2810	25.082724	0.000274	2.737343	0.927437	0.000110
 210	2.0796e+01	8.3179	25.260358	0.000446	4.460856	1.511379	0.000179
 211	2.0895e+01	8.3709	25.373398	0.000284	2.838726	0.961787	0.000114
 212	2.0994e+01	8.4094	25.530846	0.000395	3.953940	1.339631	0.000158
 213	2.1094e+01	8.4383	25.643886	0.000284	2.838726	0.961787	0.000114
 214	2.1194e+01	8.4848	25.801335	0.000395	3.953940	1.339631	0.000158
 215	2.1293e+01	8.5233	25.930523	0.000324	3.244259	1.099185	0.000130
 216	2.1392e+01	8.5682	26.059711	0.000324	3.244259	1.099185	0.000130
 217	2.1492e+01	8.5955	26.213122	0.000385	3.852557	1.305282	0.000154
 218	2.1591e+01	8.6324	26.354422	0.000355	3.548408	1.202233	0.000142
 219	2.1691e+01	8.6805	26.487648	0.000335	3.345642	1.133534	0.000134
 220	2.1791e+01	8.7190	26.661244	0.000436	4.359473	1.477029	0.000174
 221	2.1890e+01	8.7607	26.774284	0.000284	2.838726	0.961787	0.000114
 222	2.1989e+01	8.8040	26.947881	0.000436	4.359473	1.477029	0.000174
 223	2.2089e+01	8.8409	27.073032	0.000314	3.142876	1.064835	0.000126
 224	2.2189e+01	8.8810	27.234518	0.000406	4.055323	1.373981	0.000162
 225	2.2288e+01	8.9195	27.327372	0.000233	2.331811	0.790039	0.000093
 226	2.2387e+01	8.9612	27.440412	0.000284	2.838726	0.961787	0.000114
 227	2.2487e+01	9.0094	27.557489	0.000294	2.940109	0.996136	0.000118
 228	2.2587e+01	9.0463	27.743197	0.000466	4.663622	1.580078	0.000187
 229	2.2686e+01	9.0800	27.876422	0.000335	3.345642	1.133534	0.000134
 230	2.2785e+01	9.1249	27.973314	0.000243	2.433194	0.824388	0.000097
 231	2.2885e+01	9.1538	28.142873	0.000426	4.258090	1.442680	0.000170
 232	2.2985e+01	9.2051	28.272062	0.000324	3.244259	1.099185	0.000130
 233	2.3084e+01	9.2420	28.397213	0.000314	3.142876	1.064835	0.000126
 234	2.3183e+01	9.2805	28.530438	0.000335	3.345642	1.133534	0.000134
 235	2.3283e+01	9.3238	28.655589	0.000314	3.142876	1.064835	0.000126
 236	2.3383e+01	9.3607	28.825149	0.000426	4.258090	1.442680	0.000170
 237	2.3482e+01	9.3960	28.950300	0.000314	3.142876	1.064835	0.000126
 238	2.3581e+01	9.4425	29.079489	0.000324	3.244259	1.099185	0.000130
 239	2.3681e+01	9.4874	29.236937	0.000395	3.953940	1.339631	0.000158
 240	2.3780e+01	9.5115	29.402460	0.000416	4.156706	1.408330	0.000166
 241	2.3880e+01	9.5580	29.547796	0.000365	3.649791	1.236583	0.000146
 242	2.3980e+01	9.6013	29.676985	0.000324	3.244259	1.099185	0.000130
 243	2.4079e+01	9.6398	29.810210	0.000335	3.345642	1.133534	0.000134
 244	2.4178e+01	9.6783	29.907102	0.000243	2.433194	0.824388	0.000097
 245	2.4278e+01	9.7152	30.072624	0.000416	4.156706	1.408330	0.000166
 246	2.4378e+01	9.7585	30.189701	0.000294	2.940109	0.996136	0.000118
 247	2.4477e+01	9.8019	30.314852	0.000314	3.142876	1.064835	0.000126
 248	2.4576e+01	9.8500	30.440003	0.000314	3.142876	1.064835	0.000126
 249	2.4676e+01	9.8805	30.605526	0.000416	4.156706	1.408330	0.000166
 250	2.4776e+01	9.9302	30.750863	0.000365	3.649791	1.236583	0.000146
 251	2.4875e+01	9.9671	30.900237	0.000375	3.751174	1.270932	0.000150
 252	2.4974e+01	9.9976	31.029425	0.000324	3.244259	1.099185	0.000130
 253	2.5074e+01	10.0393	31.162651	0.000335	3.345642	1.133534	0.000134
 254	2.5174e+01	10.0762	31.316062	0.000385	3.852557	1.305282	0.000154
 255	2.5273e+01	10.1163	31.453325	0.000345	3.447025	1.167884	0.000138
 256	2.5372e+01	10.1580	31.606736	0.000385	3.852557	1.305282	0.000154
 257	2.5472e+01	10.1965	31.764184	0.000395	3.953940	1.339631	0.000158
 258	2.5572e+01	10.2398	31.901447	0.000345	3.447025	1.167884	0.000138
 259	2.5671e+01	10.2783	32.030635	0.000324	3.244259	1.099185	0.000130
 260	2.5770e+01	10.3200	32.220380	0.000477	4.765005	1.614427	0.000191
 261	2.5870e+01	10.3537	32.313234	0.000233	2.331811	0.790039	0.000093
 262	2.5970e+01	10.3986	32.466646	0.000385	3.852557	1.305282	0.000154
 263	2.6069e+01	10.4452	32.607945	0.000355	3.548408	1.202233	0.000142
 264	2.6169e+01	10.4853	32.704837	0.000243	2.433194	0.824388	0.000097
 265	2.6268e+01	10.5174	32.898619	0.000487	4.866388	1.648777	0.000195
 266	2.6367e+01	10.5526	33.027807	0.000324	3.244259	1.099185	0.000130
 267	2.6467e+01	10.5992	33.148922	0.000304	3.041493	1.030486	0.000122
 268	2.6567e+01	10.6345	33.322518	0.000436	4.359473	1.477029	0.000174
 269	2.6666e+01	10.6794	33.411335	0.000223	2.230428	0.755689	0.000089
 270	2.6765e+01	10.7163	33.580895	0.000426	4.258090	1.442680	0.000170
 271	2.6865e+01	10.7580	33.758529	0.000446	4.460856	1.511379	0.000179
 272	2.6965e+01	10.7949	33.883680	0.000314	3.142876	1.064835	0.000126
 273	2.7064e+01	10.8398	34.004794	0.000304	3.041493	1.030486	0.000122
 274	2.7163e+01	10.8719	34.146094	0.000355	3.548408	1.202233	0.000142
 275	2.7263e+01	10.9136	34.323728	0.000446	4.460856	1.511379	0.000179
 276	2.7363e+01	10.9617	34.460991	0.000345	3.447025	1.167884	0.000138
 277	2.7462e+01	11.0002	34.654773	0.000487	4.866388	1.648777	0.000195
 278	2.7561e+01	11.0291	34.792036	0.000345	3.447025	1.167884	0.000138
 279	2.7661e+01	11.0740	34.917187	0.000314	3.142876	1.064835	0.000126
 280	2.7761e+01	11.1238	35.038301	0.000304	3.041493	1.030486	0.000122
 281	2.7860e+01	11.1510	35.179601	0.000355	3.548408	1.202233	0.000142
 282	2.7959e+01	11.1927	35.300715	0.000304	3.041493	1.030486	0.000122
 283	2.8059e+01	11.2360	35.417792	0.000294	2.940109	0.996136	0.000118
 284	2.8159e+01	11.2794	35.583314	0.000416	4.156706	1.408330	0.000166
 285	2.8258e+01	11.3179	35.724614	0.000355	3.548408	1.202233	0.000142
 286	2.8358e+01	11.3516	35.845728	0.000304	3.041493	1.030486	0.000122
 287	2.8457e+01	11.3949	35.991065	0.000365	3.649791	1.236583	0.000146
 288	2.8556e+01	11.4350	36.164662	0.000436	4.359473	1.477029	0.000174
 289	2.8656e+01	11.4719	36.318073	0.000385	3.852557	1.305282	0.000154
 290	2.8756e+01	11.5168	36.463410	0.000365	3.649791	1.236583	0.000146
 291	2.8855e+01	11.5457	36.616821	0.000385	3.852557	1.305282	0.000154
 292	2.8954e+01	11.5906	36.709675	0.000233	2.331811	0.790039	0.000093
 293	2.9054e+01	11.6307	36.895384	0.000466	4.663622	1.580078	0.000187
 294	2.9154e+01	11.6612	37.060906	0.000416	4.156706	1.408330	0.000166
 295	2.9253e+01	11.7077	37.202206	0.000355	3.548408	1.202233	0.000142
 296	2.9352e+01	11.7558	37.359654	0.000395	3.953940	1.339631	0.000158
 297	2.9452e+01	11.8039	37.444434	0.000213	2.129045	0.721340	0.000085
 298	2.9552e+01	11.8280	37.565548	0.000304	3.041493	1.030486	0.000122
 299	2.9651e+01	11.8681	37.743182	0.000446	4.460856	1.511379	0.000179
 300	2.9750e+01	11.9098	37.860259	0.000294	2.940109	0.996136	0.000118
 301	2.9850e+01	11.9467	38.005596	0.000365	3.649791	1.236583	0.000146
 302	2.9950e+01	11.9948	38.175156	0.000426	4.258090	1.442680	0.000170
 303	3.0049e+01	12.0398	38.304344	0.000324	3.244259	1.099185	0.000130
 304	3.0148e+01	12.0735	38.433532	0.000324	3.244259	1.099185	0.000130
 305	3.0248e+01	12.1071	38.623278	0.000477	4.765005	1.614427	0.000191
 306	3.0348e+01	12.1440	38.708057	0.000213	2.129045	0.721340	0.000085
 307	3.0447e+01	12.1858	38.926063	0.000547	5.474687	1.854874	0.000219
 308	3.0547e+01	12.2323	39.059288	0.000335	3.345642	1.133534	0.000134
 309	3.0646e+01	12.2708	39.192514	0.000335	3.345642	1.133534	0.000134
 310	3.0745e+01	12.3109	39.321702	0.000324	3.244259	1.099185	0.000130
 311	3.0845e+01	12.3430	39.507410	0.000466	4.663622	1.580078	0.000187
 312	3.0945e+01	12.3991	39.636599	0.000324	3.244259	1.099185	0.000130
 313	3.1044e+01	12.4264	39.818270	0.000456	4.562239	1.545728	0.000183
 314	3.1143e+01	12.4729	39.959570	0.000355	3.548408	1.202233	0.000142
 315	3.1243e+01	12.5082	40.096832	0.000345	3.447025	1.167884	0.000138
 316	3.1343e+01	12.5547	40.250243	0.000385	3.852557	1.305282	0.000154
 317	3.1442e+01	12.5836	40.339060	0.000223	2.230428	0.755689	0.000089
 318	3.1541e+01	12.6285	40.492471	0.000385	3.852557	1.305282	0.000154
 319	3.1641e+01	12.6718	40.629734	0.000345	3.447025	1.167884	0.000138
 320	3.1741e+01	12.7151	40.762960	0.000335	3.345642	1.133534	0.000134
 321	3.1840e+01	12.7504	40.912334	0.000375	3.751174	1.270932	0.000150
 322	3.1939e+01	12.7809	41.081893	0.000426	4.258090	1.442680	0.000170
 323	3.2039e+01	12.8226	41.227230	0.000365	3.649791	1.236583	0.000146
 324	3.2139e+01	12.8692	41.380641	0.000385	3.852557	1.305282	0.000154
 325	3.2238e+01	12.9077	41.497718	0.000294	2.940109	0.996136	0.000118
 326	3.2337e+01	12.9430	41.634981	0.000345	3.447025	1.167884	0.000138
 327	3.2437e+01	12.9815	41.776281	0.000355	3.548408	1.202233	0.000142
 328	3.2536e+01	13.0248	41.929692	0.000385	3.852557	1.305282	0.000154
 329	3.2636e+01	13.0697	42.131549	0.000507	5.069154	1.717476	0.000203
 330	3.2736e+01	13.1098	42.264774	0.000335	3.345642	1.133534	0.000134
 331	3.2835e+01	13.1371	42.393962	0.000324	3.244259	1.099185	0.000130
 332	3.2934e+01	13.1772	42.555448	0.000406	4.055323	1.373981	0.000162
 333	3.3034e+01	13.2157	42.668488	0.000284	2.838726	0.961787	0.000114
 334	3.3133e+01	13.2670	42.773453	0.000264	2.635960	0.893087	0.000105
 335	3.3233e+01	13.3071	42.910716	0.000345	3.447025	1.167884	0.000138
 336	3.3333e+01	13.3488	43.003570	0.000233	2.331811	0.790039	0.000093
 337	3.3432e+01	13.3841	43.197352	0.000487	4.866388	1.648777	0.000195
 338	3.3532e+01	13.4258	43.338652	0.000355	3.548408	1.202233	0.000142
 339	3.3631e+01	13.4675	43.447655	0.000274	2.737343	0.927437	0.000110
 340	3.3730e+01	13.4916	43.629326	0.000456	4.562239	1.545728	0.000183
 341	3.3830e+01	13.5461	43.778700	0.000375	3.751174	1.270932	0.000150
 342	3.3929e+01	13.5814	43.843294	0.000162	1.622129	0.549592	0.000065
 343	3.4029e+01	13.6183	44.012854	0.000426	4.258090	1.442680	0.000170
 344	3.4129e+01	13.6681	44.178376	0.000416	4.156706	1.408330	0.000166
 345	3.4228e+01	13.6985	44.307565	0.000324	3.244259	1.099185	0.000130
 346	3.4328e+01	13.7515	44.477124	0.000426	4.258090	1.442680	0.000170
 347	3.4427e+01	13.7900	44.622461	0.000365	3.649791	1.236583	0.000146
 348	3.4526e+01	13.8237	44.739538	0.000294	2.940109	0.996136	0.000118
 349	3.4626e+01	13.8574	44.913135	0.000436	4.359473	1.477029	0.000174
 350	3.4725e+01	13.8991	45.042323	0.000324	3.244259	1.099185	0.000130
 351	3.4825e+01	13.9392	45.211883	0.000426	4.258090	1.442680	0.000170
 352	3.4925e+01	13.9745	45.320886	0.000274	2.737343	0.927437	0.000110
 353	3.5024e+01	14.0178	45.458148	0.000345	3.447025	1.167884	0.000138
 354	3.5123e+01	14.0643	45.571188	0.000284	2.838726	0.961787	0.000114
 355	3.5223e+01	14.0996	45.708451	0.000345	3.447025	1.167884	0.000138
 356	3.5322e+01	14.1397	45.849751	0.000355	3.548408	1.202233	0.000142
 357	3.5422e+01	14.1798	45.958753	0.000274	2.737343	0.927437	0.000110
 358	3.5522e+01	14.2135	46.108127	0.000375	3.751174	1.270932	0.000150
 359	3.5621e+01	14.2584	46.237316	0.000324	3.244259	1.099185	0.000130
 360	3.5721e+01	14.3001	46.358430	0.000304	3.041493	1.030486	0.000122
 361	3.5820e+01	14.3418	46.532027	0.000436	4.359473	1.477029	0.000174
 362	3.5919e+01	14.3852	46.641029	0.000274	2.737343	0.927437	0.000110
 363	3.6019e+01	14.4188	46.794440	0.000385	3.852557	1.305282	0.000154
 364	3.6118e+01	14.4573	46.951889	0.000395	3.953940	1.339631	0.000158
 365	3.6218e+01	14.4958	47.077040	0.000314	3.142876	1.064835	0.000126
 366	3.6318e+01	14.5360	47.282934	0.000517	5.170537	1.751825	0.000207
 367	3.6417e+01	14.5857	47.432308	0.000375	3.751174	1.270932	0.000150
 368	3.6517e+01	14.6178	47.557459	0.000314	3.142876	1.064835	0.000126
 369	3.6616e+01	14.6659	47.698759	0.000355	3.548408	1.202233	0.000142
 370	3.6715e+01	14.7012	47.827947	0.000324	3.244259	1.099185	0.000130
 371	3.6815e+01	14.7429	47.936950	0.000274	2.737343	0.927437	0.000110
 372	3.6914e+01	14.7734	48.049990	0.000284	2.838726	0.961787	0.000114
 373	3.7014e+01	14.8279	48.179178	0.000324	3.244259	1.099185	0.000130
 374	3.7114e+01	14.8584	48.344700	0.000416	4.156706	1.408330	0.000166
 375	3.7213e+01	14.8921	48.457740	0.000284	2.838726	0.961787	0.000114
 376	3.7313e+01	14.9322	48.586929	0.000324	3.244259	1.099185	0.000130
 377	3.7412e+01	14.9723	48.728228	0.000355	3.548408	1.202233	0.000142
 378	3.7511e+01	15.0108	48.853380	0.000314	3.142876	1.064835	0.000126
 379	3.7611e+01	15.0573	48.974494	0.000304	3.041493	1.030486	0.000122
 380	3.7711e+01	15.0990	49.127905	0.000385	3.852557	1.305282	0.000154
 381	3.7810e+01	15.1375	49.281316	0.000385	3.852557	1.305282	0.000154
 382	3.7910e+01	15.1712	49.398393	0.000294	2.940109	0.996136	0.000118
 383	3.8009e+01	15.2178	49.576027	0.000446	4.460856	1.511379	0.000179
 384	3.8108e+01	15.2514	49.745587	0.000426	4.258090	1.442680	0.000170
 385	3.8208e+01	15.2932	49.878812	0.000335	3.345642	1.133534	0.000134
 386	3.8307e+01	15.3333	50.016075	0.000345	3.447025	1.167884	0.000138
 387	3.8407e+01	15.3782	50.133152	0.000294	2.940109	0.996136	0.000118
 388	3.8507e+01	15.4199	50.318860	0.000466	4.663622	1.580078	0.000187
 389	3.8606e+01	15.4584	50.387491	0.000172	1.723512	0.583942	0.000069
 390	3.8706e+01	15.4825	50.512642	0.000314	3.142876	1.064835	0.000126
 391	3.8805e+01	15.5322	50.625682	0.000284	2.838726	0.961787	0.000114
 392	3.8904e+01	15.5771	50.775056	0.000375	3.751174	1.270932	0.000150
 393	3.9004e+01	15.6108	50.863873	0.000223	2.230428	0.755689	0.000089
 394	3.9103e+01	15.6557	51.017284	0.000385	3.852557	1.305282	0.000154
 395	3.9203e+01	15.6910	51.158584	0.000355	3.548408	1.202233	0.000142
 396	3.9303e+01	15.7343	51.283735	0.000314	3.142876	1.064835	0.000126
 397	3.9402e+01	15.7760	51.445221	0.000406	4.055323	1.373981	0.000162
 398	3.9502e+01	15.8065	51.562298	0.000294	2.940109	0.996136	0.000118
 399	3.9601e+01	15.8546	51.679375	0.000294	2.940109	0.996136	0.000118
 400	3.9700e+01	15.8915	51.840860	0.000406	4.055323	1.373981	0.000162
 401	3.9800e+01	15.9397	51.982160	0.000355	3.548408	1.202233	0.000142
 402	3.9900e+01	15.9717	52.131534	0.000375	3.751174	1.270932	0.000150
 403	3.9999e+01	16.0070	52.280908	0.000375	3.751174	1.270932	0.000150
 404	4.0099e+01	16.0487	52.418170	0.000345	3.447025	1.167884	0.000138
 405	4.0198e+01	16.0921	52.563507	0.000365	3.649791	1.236583	0.000146
 406	4.0297e+01	16.1306	52.676547	0.000284	2.838726	0.961787	0.000114
 407	4.0397e+01	16.1803	52.801698	0.000314	3.142876	1.064835	0.000126
 408	4.0496e+01	16.2156	52.914738	0.000284	2.838726	0.961787	0.000114
 409	4.0596e+01	16.2429	53.027778	0.000284	2.838726	0.961787	0.000114
 410	4.0696e+01	16.3006	53.165041	0.000345	3.447025	1.167884	0.000138
 411	4.0795e+01	16.3295	53.270006	0.000264	2.635960	0.893087	0.000105
 412	4.0895e+01	16.3744	53.415343	0.000365	3.649791	1.236583	0.000146
 413	4.0994e+01	16.4065	53.544531	0.000324	3.244259	1.099185	0.000130
 414	4.1093e+01	16.4498	53.714091	0.000426	4.258090	1.442680	0.000170
 415	4.1193e+01	16.4963	53.843279	0.000324	3.244259	1.099185	0.000130
 416	4.1292e+01	16.5364	53.968431	0.000314	3.142876	1.064835	0.000126
 417	4.1392e+01	16.5701	54.117805	0.000375	3.751174	1.270932	0.000150
 418	4.1492e+01	16.6102	54.271216	0.000385	3.852557	1.305282	0.000154
 419	4.1591e+01	16.6584	54.432701	0.000406	4.055323	1.373981	0.000162
 420	4.1691e+01	16.6760	54.586112	0.000385	3.852557	1.305282	0.000154
 421	4.1790e+01	16.7289	54.735486	0.000375	3.751174	1.270932	0.000150
 422	4.1889e+01	16.7674	54.868712	0.000335	3.345642	1.133534	0.000134
 423	4.1989e+01	16.8124	54.985789	0.000294	2.940109	0.996136	0.000118
 424	4.2089e+01	16.8589	55.135163	0.000375	3.751174	1.270932	0.000150
 425	4.2188e+01	16.8878	55.272425	0.000345	3.447025	1.167884	0.000138
 426	4.2288e+01	16.9295	55.357205	0.000213	2.129045	0.721340	0.000085
 427	4.2387e+01	16.9696	55.526765	0.000426	4.258090	1.442680	0.000170
 428	4.2486e+01	17.0161	55.651916	0.000314	3.142876	1.064835	0.000126
 429	4.2586e+01	17.0530	55.764956	0.000284	2.838726	0.961787	0.000114
 430	4.2685e+01	17.0883	55.906256	0.000355	3.548408	1.202233	0.000142
 431	4.2785e+01	17.1316	56.035444	0.000324	3.244259	1.099185	0.000130
 432	4.2885e+01	17.1669	56.192892	0.000395	3.953940	1.339631	0.000158
 433	4.2984e+01	17.2006	56.293821	0.000253	2.534577	0.858738	0.000101
 434	4.3084e+01	17.2407	56.467418	0.000436	4.359473	1.477029	0.000174
 435	4.3183e+01	17.2920	56.576420	0.000274	2.737343	0.927437	0.000110
 436	4.3282e+01	17.3273	56.741943	0.000416	4.156706	1.408330	0.000166
 437	4.3382e+01	17.3787	56.943800	0.000507	5.069154	1.717476	0.000203
 438	4.3481e+01	17.4011	57.052802	0.000274	2.737343	0.927437	0.000110
 439	4.3581e+01	17.4492	57.226399	0.000436	4.359473	1.477029	0.000174
 440	4.3681e+01	17.4861	57.367699	0.000355	3.548408	1.202233	0.000142
 441	4.3780e+01	17.5230	57.521110	0.000385	3.852557	1.305282	0.000154
 442	4.3880e+01	17.5744	57.638187	0.000294	2.940109	0.996136	0.000118
 443	4.3979e+01	17.6032	57.775450	0.000345	3.447025	1.167884	0.000138
 444	4.4078e+01	17.6578	57.868304	0.000233	2.331811	0.790039	0.000093
 445	4.4178e+01	17.6851	57.989418	0.000304	3.041493	1.030486	0.000122
 446	4.4278e+01	17.7300	58.138792	0.000375	3.751174	1.270932	0.000150
 447	4.4377e+01	17.7701	58.255869	0.000294	2.940109	0.996136	0.000118
 448	4.4477e+01	17.8102	58.401206	0.000365	3.649791	1.236583	0.000146
 449	4.4576e+01	17.8487	58.550580	0.000375	3.751174	1.270932	0.000150
 450	4.4675e+01	17.8920	58.679768	0.000324	3.244259	1.099185	0.000130
 451	4.4775e+01	17.9209	58.812993	0.000335	3.345642	1.133534	0.000134
 452	4.4874e+01	17.9690	58.946219	0.000335	3.345642	1.133534	0.000134
 453	4.4974e+01	18.0043	59.095593	0.000375	3.751174	1.270932	0.000150
 454	4.5074e+01	18.0492	59.249004	0.000385	3.852557	1.305282	0.000154
 455	4.5173e+01	18.0797	59.390304	0.000355	3.548408	1.202233	0.000142
 456	4.5273e+01	18.1278	59.543715	0.000385	3.852557	1.305282	0.000154
 457	4.5372e+01	18.1615	59.721349	0.000446	4.460856	1.511379	0.000179
 458	4.5471e+01	18.2000	59.866686	0.000365	3.649791	1.236583	0.000146
 459	4.5571e+01	18.2433	60.007986	0.000355	3.548408	1.202233	0.000142
 460	4.5670e+01	18.2834	60.121025	0.000284	2.838726	0.961787	0.000114
 461	4.5770e+01	18.3219	60.262325	0.000355	3.548408	1.202233	0.000142
 462	4.5870e+01	18.3685	60.407662	0.000365	3.649791	1.236583	0.000146
 463	4.5969e+01	18.3973	60.548962	0.000355	3.548408	1.202233	0.000142
 464	4.6069e+01	18.4439	60.657964	0.000274	2.737343	0.927437	0.000110
 465	4.6168e+01	18.4904	60.775041	0.000294	2.940109	0.996136	0.000118
 466	4.6267e+01	18.5161	60.867896	0.000233	2.331811	0.790039	0.000093
 467	4.6367e+01	18.5610	61.053604	0.000466	4.663622	1.580078	0.000187
 468	4.6467e+01	18.6091	61.178755	0.000314	3.142876	1.064835	0.000126
 469	4.6566e+01	18.6444	61.316018	0.000345	3.447025	1.167884	0.000138
 470	4.6666e+01	18.6797	61.445206	0.000324	3.244259	1.099185	0.000130
 471	4.6765e+01	18.7246	61.598617	0.000385	3.852557	1.305282	0.000154
 472	4.6864e+01	18.7647	61.731843	0.000335	3.345642	1.133534	0.000134
 473	4.6964e+01	18.7936	61.869105	0.000345	3.447025	1.167884	0.000138
 474	4.7063e+01	18.8433	62.062888	0.000487	4.866388	1.648777	0.000195
 475	4.7163e+01	18.8866	62.212262	0.000375	3.751174	1.270932	0.000150
 476	4.7263e+01	18.9235	62.389896	0.000446	4.460856	1.511379	0.000179
 477	4.7362e+01	18.9668	62.506973	0.000294	2.940109	0.996136	0.000118
 478	4.7462e+01	19.0070	62.648272	0.000355	3.548408	1.202233	0.000142
 479	4.7561e+01	19.0406	62.805721	0.000395	3.953940	1.339631	0.000158
 480	4.7660e+01	19.0775	62.910686	0.000264	2.635960	0.893087	0.000105
 481	4.7760e+01	19.1192	63.096394	0.000466	4.663622	1.580078	0.000187
 482	4.7859e+01	19.1626	63.201360	0.000264	2.635960	0.893087	0.000105
 483	4.7959e+01	19.1995	63.290177	0.000223	2.230428	0.755689	0.000089
 484	4.8059e+01	19.2428	63.451662	0.000406	4.055323	1.373981	0.000162
 485	4.8158e+01	19.2845	63.544517	0.000233	2.331811	0.790039	0.000093
 486	4.8258e+01	19.3198	63.726188	0.000456	4.562239	1.545728	0.000183
 487	4.8357e+01	19.3583	63.867487	0.000355	3.548408	1.202233	0.000142
 488	4.8456e+01	19.3904	63.988601	0.000304	3.041493	1.030486	0.000122
 489	4.8556e+01	19.4385	64.174310	0.000466	4.663622	1.580078	0.000187
 490	4.8656e+01	19.4818	64.279275	0.000264	2.635960	0.893087	0.000105
 491	4.8755e+01	19.5107	64.501318	0.000558	5.576070	1.889224	0.000223
 492	4.8855e+01	19.5588	64.586098	0.000213	2.129045	0.721340	0.000085
 493	4.8954e+01	19.6037	64.787954	0.000507	5.069154	1.717476	0.000203
 494	4.9053e+01	19.6342	64.913106	0.000314	3.142876	1.064835	0.000126
 495	4.9153e+01	19.6743	65.066517	0.000385	3.852557	1.305282	0.000154
 496	4.9252e+01	19.7224	65.175519	0.000274	2.737343	0.927437	0.000110
 497	4.9352e+01	19.7641	65.324893	0.000375	3.751174	1.270932	0.000150
 498	4.9452e+01	19.7994	65.450045	0.000314	3.142876	1.064835	0.000126
 499	4.9551e+01	19.8379	65.587307	0.000345	3.447025	1.167884	0.000138
 500	4.9651e+01	19.8797	65.720533	0.000335	3.345642	1.133534	0.000134
 501	4.9750e+01	19.9101	65.805313	0.000213	2.129045	0.721340	0.000085
 502	4.9849e+01	19.9599	65.934501	0.000324	3.244259	1.099185	0.000130
 503	4.9949e+01	19.9952	66.067726	0.000335	3.345642	1.133534	0.000134
 504	5.0048e+01	19.9631	66.011206	0.000142	1.419363	0.480893	-0.000057
 505	5.0148e+01	19.9198	65.890092	0.000304	3.041493	1.030486	-0.000122
 506	5.0248e+01	19.8732	65.789164	0.000253	2.534577	0.858738	-0.000101
 507	5.0347e+01	19.8315	65.700347	0.000223	2.230428	0.755689	-0.000089
 508	5.0447e+01	19.7994	65.664013	0.000091	0.912448	0.309146	-0.000037
 509	5.0546e+01	19.7529	65.563084	0.000253	2.534577	0.858738	-0.000101
 510	5.0645e+01	19.7128	65.450045	0.000284	2.838726	0.961787	-0.000114
 511	5.0745e+01	19.6775	65.389488	0.000152	1.520746	0.515243	-0.000061
 512	5.0844e+01	19.6326	65.252225	0.000345	3.447025	1.167884	-0.000138
 513	5.0944e+01	19.6037	65.159371	0.000233	2.331811	0.790039	-0.000093
 514	5.1044e+01	19.5588	65.054405	0.000264	2.635960	0.893087	-0.000105
 515	5.1143e+01	19.5203	64.957514	0.000243	2.433194	0.824388	-0.000097
 516	5.1242e+01	19.4658	64.844474	0.000284	2.838726	0.961787	-0.000114
 517	5.1342e+01	19.4401	64.755657	0.000223	2.230428	0.755689	-0.000089
 518	5.1441e+01	19.3984	64.630506	0.000314	3.142876	1.064835	-0.000126
 519	5.1541e+01	19.3647	64.513429	0.000294	2.940109	0.996136	-0.000118
 520	5.1641e+01	19.3214	64.384241	0.000324	3.244259	1.099185	-0.000130
 521	5.1740e+01	19.2845	64.218718	0.000416	4.156706	1.408330	-0.000166
 522	5.1840e+01	19.2380	64.146050	0.000182	1.824896	0.618291	-0.000073
 523	5.1939e+01	19.1962	64.037047	0.000274	2.737343	0.927437	-0.000110
 524	5.2038e+01	19.1626	63.919970	0.000294	2.940109	0.996136	-0.000118
 525	5.2138e+01	19.1096	63.798856	0.000304	3.041493	1.030486	-0.000122
 526	5.2237e+01	19.0807	63.742336	0.000142	1.419363	0.480893	-0.000057
 527	5.2337e+01	19.0406	63.617185	0.000314	3.142876	1.064835	-0.000126
 528	5.2437e+01	19.0037	63.528368	0.000223	2.230428	0.755689	-0.000089
 529	5.2536e+01	18.9588	63.387068	0.000355	3.548408	1.202233	-0.000142
 530	5.2636e+01	18.9235	63.294214	0.000233	2.331811	0.790039	-0.000093
 531	5.2735e+01	18.8866	63.193286	0.000253	2.534577	0.858738	-0.000101
 532	5.2834e+01	18.8417	63.096394	0.000243	2.433194	0.824388	-0.000097
 533	5.2934e+01	18.8000	62.975280	0.000304	3.041493	1.030486	-0.000122
 534	5.3033e+01	18.7567	62.833981	0.000355	3.548408	1.202233	-0.000142
 535	5.3133e+01	18.7182	62.761312	0.000182	1.824896	0.618291	-0.000073
 536	5.3233e+01	18.6877	62.567530	0.000487	4.866388	1.648777	-0.000195
 537	5.3332e+01	18.6444	62.450453	0.000294	2.940109	0.996136	-0.000118
 538	5.3431e+01	18.6011	62.357599	0.000233	2.331811	0.790039	-0.000093
 539	5.3531e+01	18.5658	62.212262	0.000365	3.649791	1.236583	-0.000146
 540	5.3630e+01	18.5161	62.062888	0.000375	3.751174	1.270932	-0.000150
 541	5.3730e+01	18.4840	61.957922	0.000264	2.635960	0.893087	-0.000105
 542	5.3830e+01	18.4455	61.852957	0.000264	2.635960	0.893087	-0.000105
 543	5.3929e+01	18.4102	61.764140	0.000223	2.230428	0.755689	-0.000089
 544	5.4029e+01	18.3572	61.659174	0.000264	2.635960	0.893087	-0.000105
 545	5.4128e+01	18.3268	61.521912	0.000345	3.447025	1.167884	-0.000138
 546	5.4227e+01	18.2866	61.445206	0.000193	1.926279	0.652641	-0.000077
 547	5.4327e+01	18.2449	61.311980	0.000335	3.345642	1.133534	-0.000134
 548	5.4426e+01	18.2016	61.198941	0.000284	2.838726	0.961787	-0.000114
 549	5.4526e+01	18.1631	61.098012	0.000253	2.534577	0.858738	-0.000101
 550	5.4626e+01	18.1230	60.932490	0.000416	4.156706	1.408330	-0.000166
 551	5.4725e+01	18.0749	60.843673	0.000223	2.230428	0.755689	-0.000089
 552	5.4825e+01	18.0412	60.718522	0.000314	3.142876	1.064835	-0.000126
 553	5.4924e+01	17.9979	60.585296	0.000335	3.345642	1.133534	-0.000134
 554	5.5023e+01	17.9706	60.472256	0.000284	2.838726	0.961787	-0.000114
 555	5.5123e+01	17.9209	60.363254	0.000274	2.737343	0.927437	-0.000110
 556	5.5222e+01	17.8888	60.242139	0.000304	3.041493	1.030486	-0.000122
 557	5.5322e+01	17.8455	60.048357	0.000487	4.866388	1.648777	-0.000195
 558	5.5422e+01	17.8038	59.927243	0.000304	3.041493	1.030486	-0.000122
 559	5.5521e+01	17.7653	59.822277	0.000264	2.635960	0.893087	-0.000105
 560	5.5620e+01	17.7284	59.717312	0.000264	2.635960	0.893087	-0.000105
 561	5.5720e+01	17.6867	59.612346	0.000264	2.635960	0.893087	-0.000105
 562	5.5819e+01	17.6417	59.475084	0.000345	3.447025	1.167884	-0.000138
 563	5.5919e+01	17.6113	59.382230	0.000233	2.331811	0.790039	-0.000093
 564	5.6019e+01	17.5696	59.220744	0.000406	4.055323	1.373981	-0.000162
 565	5.6118e+01	17.5311	59.131927	0.000223	2.230428	0.755689	-0.000089
 566	5.6218e+01	17.4926	59.006776	0.000314	3.142876	1.064835	-0.000126
 567	5.6317e+01	17.4541	58.861439	0.000365	3.649791	1.236583	-0.000146
 568	5.6416e+01	17.4107	58.736288	0.000314	3.142876	1.064835	-0.000126
 569	5.6516e+01	17.3546	58.599025	0.000345	3.447025	1.167884	-0.000138
 570	5.6615e+01	17.3241	58.494060	0.000264	2.635960	0.893087	-0.000105
 571	5.6715e+01	17.2856	58.348723	0.000365	3.649791	1.236583	-0.000146
 572	5.6815e+01	17.2519	58.231646	0.000294	2.940109	0.996136	-0.000118
 573	5.6914e+01	17.2070	58.130717	0.000253	2.534577	0.858738	-0.000101
 574	5.7014e+01	17.1733	58.001529	0.000324	3.244259	1.099185	-0.000130
 575	5.7113e+01	17.1252	57.848118	0.000385	3.852557	1.305282	-0.000154
 576	5.7212e+01	17.0963	57.743152	0.000264	2.635960	0.893087	-0.000105
 577	5.7312e+01	17.0514	57.597816	0.000365	3.649791	1.236583	-0.000146
 578	5.7411e+01	17.0049	57.504961	0.000233	2.331811	0.790039	-0.000093
 579	5.7511e+01	16.9696	57.359625	0.000365	3.649791	1.236583	-0.000146
 580	5.7611e+01	16.9375	57.234473	0.000314	3.142876	1.064835	-0.000126
 581	5.7710e+01	16.8910	57.137582	0.000243	2.433194	0.824388	-0.000097
 582	5.7809e+01	16.8444	57.020505	0.000294	2.940109	0.996136	-0.000118
 583	5.7909e+01	16.8124	56.899391	0.000304	3.041493	1.030486	-0.000122
 584	5.8008e+01	16.7610	56.762128	0.000345	3.447025	1.167884	-0.000138
 585	5.8108e+01	16.7257	56.628903	0.000335	3.345642	1.133534	-0.000134
 586	5.8208e+01	16.6888	56.519900	0.000274	2.737343	0.927437	-0.000110
 587	5.8307e+01	16.6487	56.402823	0.000294	2.940109	0.996136	-0.000118
 588	5.8407e+01	16.6118	56.273635	0.000324	3.244259	1.099185	-0.000130
 589	5.8506e+01	16.5701	56.180781	0.000233	2.331811	0.790039	-0.000093
 590	5.8605e+01	16.5300	56.035444	0.000365	3.649791	1.236583	-0.000146
 591	5.8705e+01	16.4883	55.894144	0.000355	3.548408	1.202233	-0.000142
 592	5.8804e+01	16.4514	55.781104	0.000284	2.838726	0.961787	-0.000114
 593	5.8904e+01	16.4177	55.635768	0.000365	3.649791	1.236583	-0.000146
 594	5.9004e+01	16.3680	55.550988	0.000213	2.129045	0.721340	-0.000085
 595	5.9103e+01	16.3343	55.417762	0.000335	3.345642	1.133534	-0.000134
 596	5.9203e+01	16.2878	55.300685	0.000294	2.940109	0.996136	-0.000118
 597	5.9302e+01	16.2525	55.179571	0.000304	3.041493	1.030486	-0.000122
 598	5.9401e+01	16.2124	55.030197	0.000375	3.751174	1.270932	-0.000150
 599	5.9501e+01	16.1803	54.884860	0.000365	3.649791	1.236583	-0.000146
 600	5.9600e+01	16.1338	54.787969	0.000243	2.433194	0.824388	-0.000097
 601	5.9700e+01	16.0985	54.662818	0.000314	3.142876	1.064835	-0.000126
 602	5.9800e+01	16.0568	54.537667	0.000314	3.142876	1.064835	-0.000126
 603	5.9899e+01	16.0118	54.424627	0.000284	2.838726	0.961787	-0.000114
 604	5.9998e+01	15.9717	54.295439	0.000324	3.244259	1.099185	-0.000130
 605	6.0098e+01	15.9332	54.182399	0.000284	2.838726	0.961787	-0.000114
 606	6.0197e+01	15.8867	54.041099	0.000355	3.548408	1.202233	-0.000142
 607	6.0297e+01	15.8530	53.948245	0.000233	2.331811	0.790039	-0.000093
 608	6.0397e+01	15.8113	53.815019	0.000335	3.345642	1.133534	-0.000134
 609	6.0496e+01	15.7712	53.706017	0.000274	2.737343	0.927437	-0.000110
 610	6.0596e+01	15.7295	53.592977	0.000284	2.838726	0.961787	-0.000114
 611	6.0695e+01	15.6910	53.488011	0.000264	2.635960	0.893087	-0.000105
 612	6.0794e+01	15.6589	53.350749	0.000345	3.447025	1.167884	-0.000138
 613	6.0894e+01	15.6236	53.201375	0.000375	3.751174	1.270932	-0.000150
 614	6.0993e+01	15.5739	53.076224	0.000314	3.142876	1.064835	-0.000126
 615	6.1093e+01	15.5338	52.959147	0.000294	2.940109	0.996136	-0.000118
 616	6.1193e+01	15.5017	52.809773	0.000375	3.751174	1.270932	-0.000150
 617	6.1292e+01	15.4456	52.680584	0.000324	3.244259	1.099185	-0.000130
 618	6.1392e+01	15.4071	52.587730	0.000233	2.331811	0.790039	-0.000093
 619	6.1491e+01	15.3782	52.466616	0.000304	3.041493	1.030486	-0.000122
 620	6.1590e+01	15.3381	52.317242	0.000375	3.751174	1.270932	-0.000150
 621	6.1690e+01	15.2980	52.188054	0.000324	3.244259	1.099185	-0.000130
 622	6.1789e+01	15.2579	52.095200	0.000233	2.331811	0.790039	-0.000093
 623	6.1889e+01	15.2178	51.990234	0.000264	2.635960	0.893087	-0.000105
 624	6.1989e+01	15.1776	51.832786	0.000395	3.953940	1.339631	-0.000158
 625	6.2088e+01	15.1391	51.707635	0.000314	3.142876	1.064835	-0.000126
 626	6.2188e+01	15.0878	51.586520	0.000304	3.041493	1.030486	-0.000122
 627	6.2287e+01	15.0493	51.477518	0.000274	2.737343	0.927437	-0.000110
 628	6.2386e+01	15.0156	51.372552	0.000264	2.635960	0.893087	-0.000105
 629	6.2486e+01	14.9739	51.251438	0.000304	3.041493	1.030486	-0.000122
 630	6.2586e+01	14.9402	51.146473	0.000264	2.635960	0.893087	-0.000105
 631	6.2685e+01	14.9001	51.001136	0.000365	3.649791	1.236583	-0.000146
 632	6.2785e+01	14.8536	50.819465	0.000456	4.562239	1.545728	-0.000183
 633	6.2884e+01	14.8151	50.710462	0.000274	2.737343	0.927437	-0.000110
 634	6.2983e+01	14.7782	50.585311	0.000314	3.142876	1.064835	-0.000126
 635	6.3083e+01	14.7397	50.444011	0.000355	3.548408	1.202233	-0.000142
 636	6.3182e+01	14.6964	50.347120	0.000243	2.433194	0.824388	-0.000097
 637	6.3282e+01	14.6531	50.213894	0.000335	3.345642	1.133534	-0.000134
 638	6.3382e+01	14.6162	50.096817	0.000294	2.940109	0.996136	-0.000118
 639	6.3481e+01	14.5777	49.987815	0.000274	2.737343	0.927437	-0.000110
 640	6.3581e+01	14.5424	49.878812	0.000274	2.737343	0.927437	-0.000110
 641	6.3680e+01	14.4975	49.741549	0.000345	3.447025	1.167884	-0.000138
 642	6.3779e+01	14.4622	49.592175	0.000375	3.751174	1.270932	-0.000150
 643	6.3879e+01	14.4253	49.479136	0.000284	2.838726	0.961787	-0.000114
 644	6.3978e+01	14.3739	49.366096	0.000284	2.838726	0.961787	-0.000114
 645	6.4078e+01	14.3354	49.257093	0.000274	2.737343	0.927437	-0.000110
 646	6.4177e+01	14.2921	49.135979	0.000304	3.041493	1.030486	-0.000122
 647	6.4277e+01	14.2648	49.035051	0.000253	2.534577	0.858738	-0.000101
 648	6.4376e+01	14.2135	48.942197	0.000233	2.331811	0.790039	-0.000093
 649	6.4476e+01	14.1782	48.829157	0.000284	2.838726	0.961787	-0.000114
 650	6.4576e+01	14.1445	48.679783	0.000375	3.751174	1.270932	-0.000150
 651	6.4675e+01	14.1060	48.522334	0.000395	3.953940	1.339631	-0.000158
 652	6.4775e+01	14.0611	48.389109	0.000335	3.345642	1.133534	-0.000134
 653	6.4874e+01	14.0178	48.255883	0.000335	3.345642	1.133534	-0.000134
 654	6.4974e+01	13.9793	48.142844	0.000284	2.838726	0.961787	-0.000114
 655	6.5073e+01	13.9424	48.082287	0.000152	1.520746	0.515243	-0.000061
 656	6.5172e+01	13.9007	47.896578	0.000466	4.663622	1.580078	-0.000187
 657	6.5272e+01	13.8606	47.771427	0.000314	3.142876	1.064835	-0.000126
 658	6.5371e+01	13.8140	47.646276	0.000314	3.142876	1.064835	-0.000126
 659	6.5471e+01	13.7820	47.496902	0.000375	3.751174	1.270932	-0.000150
 660	6.5570e+01	13.7403	47.424234	0.000182	1.824896	0.618291	-0.000073
 661	6.5670e+01	13.7001	47.262748	0.000406	4.055323	1.373981	-0.000162
 662	6.5769e+01	13.6552	47.121448	0.000355	3.548408	1.202233	-0.000142
 663	6.5869e+01	13.6183	47.064928	0.000142	1.419363	0.480893	-0.000057
 664	6.5969e+01	13.5846	46.915554	0.000375	3.751174	1.270932	-0.000150
 665	6.6068e+01	13.5381	46.830775	0.000213	2.129045	0.721340	-0.000085
 666	6.6168e+01	13.5028	46.693512	0.000345	3.447025	1.167884	-0.000138
 667	6.6267e+01	13.4627	46.564324	0.000324	3.244259	1.099185	-0.000130
 668	6.6367e+01	13.4290	46.443210	0.000304	3.041493	1.030486	-0.000122
 669	6.6466e+01	13.3825	46.301910	0.000355	3.548408	1.202233	-0.000142
 670	6.6566e+01	13.3392	46.132350	0.000426	4.258090	1.442680	-0.000170
 671	6.6665e+01	13.2959	46.007199	0.000314	3.142876	1.064835	-0.000126
 672	6.6764e+01	13.2638	45.849751	0.000395	3.953940	1.339631	-0.000158
 673	6.6864e+01	13.2221	45.732674	0.000294	2.940109	0.996136	-0.000118
 674	6.6963e+01	13.1756	45.619634	0.000284	2.838726	0.961787	-0.000114
 675	6.7063e+01	13.1387	45.490445	0.000324	3.244259	1.099185	-0.000130
 676	6.7162e+01	13.1066	45.361257	0.000324	3.244259	1.099185	-0.000130
 677	6.7262e+01	13.0633	45.232069	0.000324	3.244259	1.099185	-0.000130
 678	6.7362e+01	13.0280	45.094806	0.000345	3.447025	1.167884	-0.000138
 679	6.7461e+01	12.9798	44.977729	0.000294	2.940109	0.996136	-0.000118
 680	6.7561e+01	12.9462	44.864689	0.000284	2.838726	0.961787	-0.000114
 681	6.7660e+01	12.9061	44.703204	0.000406	4.055323	1.373981	-0.000162
 682	6.7760e+01	12.8708	44.630536	0.000182	1.824896	0.618291	-0.000073
 683	6.7859e+01	12.8258	44.497310	0.000335	3.345642	1.133534	-0.000134
 684	6.7959e+01	12.7938	44.372159	0.000314	3.142876	1.064835	-0.000126
 685	6.8058e+01	12.7488	44.259119	0.000284	2.838726	0.961787	-0.000114
 686	6.8157e+01	12.7119	44.085522	0.000436	4.359473	1.477029	-0.000174
 687	6.8257e+01	12.6622	43.980557	0.000264	2.635960	0.893087	-0.000105
 688	6.8356e+01	12.6221	43.794848	0.000466	4.663622	1.580078	-0.000187
 689	6.8456e+01	12.6029	43.669697	0.000314	3.142876	1.064835	-0.000126
 690	6.8555e+01	12.5419	43.536472	0.000335	3.345642	1.133534	-0.000134
 691	6.8655e+01	12.5002	43.411321	0.000314	3.142876	1.064835	-0.000126
 692	6.8754e+01	12.4761	43.290207	0.000304	3.041493	1.030486	-0.000122
 693	6.8854e+01	12.4232	43.136795	0.000385	3.852557	1.305282	-0.000154
 694	6.8954e+01	12.3895	43.027793	0.000274	2.737343	0.927437	-0.000110
 695	6.9053e+01	12.3446	42.854196	0.000436	4.359473	1.477029	-0.000174
 696	6.9153e+01	12.3093	42.761342	0.000233	2.331811	0.790039	-0.000093
 697	6.9252e+01	12.2708	42.611968	0.000375	3.751174	1.270932	-0.000150
 698	6.9352e+01	12.2291	42.490854	0.000304	3.041493	1.030486	-0.000122
 699	6.9451e+01	12.1697	42.353591	0.000345	3.447025	1.167884	-0.000138
 700	6.9550e+01	12.1489	42.252663	0.000253	2.534577	0.858738	-0.000101
 701	6.9650e+01	12.1136	42.127511	0.000314	3.142876	1.064835	-0.000126
 702	6.9749e+01	12.0702	42.014472	0.000284	2.838726	0.961787	-0.000114
 703	6.9849e+01	12.0317	41.877209	0.000345	3.447025	1.167884	-0.000138
 704	6.9948e+01	11.9884	41.731872	0.000365	3.649791	1.236583	-0.000146
 705	7.0048e+01	11.9499	41.598647	0.000335	3.345642	1.133534	-0.000134
 706	7.0147e+01	11.9211	41.457347	0.000355	3.548408	1.202233	-0.000142
 707	7.0247e+01	11.8713	41.291824	0.000416	4.156706	1.408330	-0.000166
 708	7.0347e+01	11.8360	41.138413	0.000385	3.852557	1.305282	-0.000154
 709	7.0446e+01	11.7911	41.017299	0.000304	3.041493	1.030486	-0.000122
 710	7.0546e+01	11.7558	40.855814	0.000406	4.055323	1.373981	-0.000162
 711	7.0645e+01	11.7093	40.758922	0.000243	2.433194	0.824388	-0.000097
 712	7.0745e+01	11.6772	40.601474	0.000395	3.953940	1.339631	-0.000158
 713	7.0844e+01	11.6387	40.460174	0.000355	3.548408	1.202233	-0.000142
 714	7.0944e+01	11.5874	40.330986	0.000324	3.244259	1.099185	-0.000130
 715	7.1043e+01	11.5489	40.213909	0.000294	2.940109	0.996136	-0.000118
 716	7.1142e+01	11.5136	40.084721	0.000324	3.244259	1.099185	-0.000130
 717	7.1242e+01	11.4767	39.963607	0.000304	3.041493	1.030486	-0.000122
 718	7.1341e+01	11.4189	39.834418	0.000324	3.244259	1.099185	-0.000130
 719	7.1441e+01	11.3949	39.721379	0.000284	2.838726	0.961787	-0.000114
 720	7.1540e+01	11.3483	39.600264	0.000304	3.041493	1.030486	-0.000122
 721	7.1640e+01	11.3195	39.483188	0.000294	2.940109	0.996136	-0.000118
 722	7.1740e+01	11.2665	39.301516	0.000456	4.562239	1.545728	-0.000183
 723	7.1839e+01	11.2312	39.131957	0.000426	4.258090	1.442680	-0.000170
 724	7.1939e+01	11.1943	39.047177	0.000213	2.129045	0.721340	-0.000085
 725	7.2038e+01	11.1494	38.869543	0.000446	4.460856	1.511379	-0.000179
 726	7.2138e+01	11.1173	38.720169	0.000375	3.751174	1.270932	-0.000150
 727	7.2237e+01	11.0756	38.558683	0.000406	4.055323	1.373981	-0.000162
 728	7.2337e+01	11.0371	38.437569	0.000304	3.041493	1.030486	-0.000122
 729	7.2436e+01	10.9938	38.292232	0.000365	3.649791	1.236583	-0.000146
 730	7.2535e+01	10.9473	38.154970	0.000345	3.447025	1.167884	-0.000138
 731	7.2635e+01	10.9056	37.981373	0.000436	4.359473	1.477029	-0.000174
 732	7.2734e+01	10.8655	37.896593	0.000213	2.129045	0.721340	-0.000085
 733	7.2834e+01	10.8270	37.735108	0.000406	4.055323	1.373981	-0.000162
 734	7.2933e+01	10.7949	37.605919	0.000324	3.244259	1.099185	-0.000130
 735	7.3033e+01	10.7596	37.476731	0.000324	3.244259	1.099185	-0.000130
 736	7.3132e+01	10.7163	37.404063	0.000182	1.824896	0.618291	-0.000073
 737	7.3232e+01	10.6730	37.242577	0.000406	4.055323	1.373981	-0.000162
 738	7.3332e+01	10.6361	37.109352	0.000335	3.345642	1.133534	-0.000134
 739	7.3431e+01	10.5927	36.984200	0.000314	3.142876	1.064835	-0.000126
 740	7.3531e+01	10.5510	36.850975	0.000335	3.345642	1.133534	-0.000134
 741	7.3630e+01	10.5125	36.705638	0.000365	3.649791	1.236583	-0.000146
 742	7.3730e+01	10.4821	36.564338	0.000355	3.548408	1.202233	-0.000142
 743	7.3829e+01	10.4371	36.390742	0.000436	4.359473	1.477029	-0.000174
 744	7.3928e+01	10.4002	36.245405	0.000365	3.649791	1.236583	-0.000146
 745	7.4028e+01	10.3537	36.079882	0.000416	4.156706	1.408330	-0.000166
 746	7.4127e+01	10.3168	35.974917	0.000264	2.635960	0.893087	-0.000105
 747	7.4227e+01	10.2703	35.813431	0.000406	4.055323	1.373981	-0.000162
 748	7.4326e+01	10.2398	35.676169	0.000345	3.447025	1.167884	-0.000138
 749	7.4426e+01	10.1949	35.522757	0.000385	3.852557	1.305282	-0.000154
 750	7.4525e+01	10.1596	35.421829	0.000253	2.534577	0.858738	-0.000101
 751	7.4625e+01	10.1179	35.268418	0.000385	3.852557	1.305282	-0.000154
 752	7.4725e+01	10.0778	35.155378	0.000284	2.838726	0.961787	-0.000114
 753	7.4824e+01	10.0329	35.010041	0.000365	3.649791	1.236583	-0.000146
 754	7.4924e+01	9.9960	34.925261	0.000213	2.129045	0.721340	-0.000085
 755	7.5023e+01	9.9511	34.804147	0.000304	3.041493	1.030486	-0.000122
 756	7.5123e+01	9.9093	34.687070	0.000294	2.940109	0.996136	-0.000118
 757	7.5222e+01	9.8724	34.505399	0.000456	4.562239	1.545728	-0.000183
 758	7.5322e+01	9.8372	34.364099	0.000355	3.548408	1.202233	-0.000142
 759	7.5421e+01	9.7970	34.234911	0.000324	3.244259	1.099185	-0.000130
 760	7.5520e+01	9.7553	34.138020	0.000243	2.433194	0.824388	-0.000097
 761	7.5620e+01	9.7184	33.932126	0.000517	5.170537	1.751825	-0.000207
 762	7.5719e+01	9.6815	33.819086	0.000284	2.838726	0.961787	-0.000114
 763	7.5819e+01	9.6430	33.645489	0.000436	4.359473	1.477029	-0.000174
 764	7.5918e+01	9.5997	33.512264	0.000335	3.345642	1.133534	-0.000134
 765	7.6018e+01	9.5644	33.407298	0.000264	2.635960	0.893087	-0.000105
 766	7.6118e+01	9.5131	33.253887	0.000385	3.852557	1.305282	-0.000154
 767	7.6217e+01	9.4730	33.096439	0.000395	3.953940	1.339631	-0.000158
 768	7.6317e+01	9.4377	32.987436	0.000274	2.737343	0.927437	-0.000110
 769	7.6416e+01	9.4088	32.874396	0.000284	2.838726	0.961787	-0.000114
 770	7.6516e+01	9.3575	32.737134	0.000345	3.447025	1.167884	-0.000138
 771	7.6615e+01	9.3206	32.636205	0.000253	2.534577	0.858738	-0.000101
 772	7.6715e+01	9.2725	32.527203	0.000274	2.737343	0.927437	-0.000110
 773	7.6814e+01	9.2372	32.381866	0.000365	3.649791	1.236583	-0.000146
 774	7.6913e+01	9.2003	32.240566	0.000355	3.548408	1.202233	-0.000142
 775	7.7013e+01	9.1570	32.079081	0.000406	4.055323	1.373981	-0.000162
 776	7.7112e+01	9.1217	31.957967	0.000304	3.041493	1.030486	-0.000122
 777	7.7212e+01	9.0784	31.832815	0.000314	3.142876	1.064835	-0.000126
 778	7.7311e+01	9.0431	31.707664	0.000314	3.142876	1.064835	-0.000126
 779	7.7411e+01	9.0062	31.578476	0.000324	3.244259	1.099185	-0.000130
 780	7.7510e+01	8.9564	31.433139	0.000365	3.649791	1.236583	-0.000146
 781	7.7610e+01	8.9260	31.271653	0.000406	4.055323	1.373981	-0.000162
 782	7.7710e+01	8.8826	31.118242	0.000385	3.852557	1.305282	-0.000154
 783	7.7809e+01	8.8489	30.952720	0.000416	4.156706	1.408330	-0.000166
 784	7.7909e+01	8.8008	30.807383	0.000365	3.649791	1.236583	-0.000146
 785	7.8008e+01	8.7575	30.694343	0.000284	2.838726	0.961787	-0.000114
 786	7.8108e+01	8.7286	30.573229	0.000304	3.041493	1.030486	-0.000122
 787	7.8207e+01	8.6805	30.460189	0.000284	2.838726	0.961787	-0.000114
 788	7.8306e+01	8.6436	30.290629	0.000426	4.258090	1.442680	-0.000170
 789	7.8406e+01	8.6067	30.254295	0.000091	0.912448	0.309146	-0.000037
 790	7.8505e+01	8.5554	30.080698	0.000436	4.359473	1.477029	-0.000174
 791	7.8605e+01	8.5169	29.975733	0.000264	2.635960	0.893087	-0.000105
 792	7.8704e+01	8.4816	29.794062	0.000456	4.562239	1.545728	-0.000183
 793	7.8804e+01	8.4399	29.697170	0.000243	2.433194	0.824388	-0.000097
 794	7.8903e+01	8.3950	29.547796	0.000375	3.751174	1.270932	-0.000150
 795	7.9003e+01	8.3677	29.406497	0.000355	3.548408	1.202233	-0.000142
 796	7.9103e+01	8.3292	29.329791	0.000193	1.926279	0.652641	-0.000077
 797	7.9202e+01	8.2827	29.148120	0.000456	4.562239	1.545728	-0.000183
 798	7.9302e+01	8.2393	28.978560	0.000426	4.258090	1.442680	-0.000170
 799	7.9401e+01	8.1912	28.821112	0.000395	3.953940	1.339631	-0.000158
 800	7.9501e+01	8.1607	28.683849	0.000345	3.447025	1.167884	-0.000138
 801	7.9600e+01	8.1303	28.498141	0.000466	4.663622	1.580078	-0.000187
 802	7.9700e+01	8.0918	28.401250	0.000243	2.433194	0.824388	-0.000097
 803	7.9799e+01	8.0420	28.268024	0.000335	3.345642	1.133534	-0.000134
 804	7.9898e+01	8.0083	28.163059	0.000264	2.635960	0.893087	-0.000105
 805	7.9998e+01	7.9618	28.013685	0.000375	3.751174	1.270932	-0.000150
 806	8.0097e+01	7.9313	27.904682	0.000274	2.737343	0.927437	-0.000110
 807	8.0197e+01	7.8848	27.811828	0.000233	2.331811	0.790039	-0.000093
 808	8.0296e+01	7.8495	27.670528	0.000355	3.548408	1.202233	-0.000142
 809	8.0396e+01	7.8110	27.529229	0.000355	3.548408	1.202233	-0.000142
 810	8.0496e+01	7.7661	27.408115	0.000304	3.041493	1.030486	-0.000122
 811	8.0595e+01	7.7276	27.258741	0.000375	3.751174	1.270932	-0.000150
 812	8.0695e+01	7.6827	27.137626	0.000304	3.041493	1.030486	-0.000122
 813	8.0794e+01	7.6522	26.996327	0.000355	3.548408	1.202233	-0.000142
 814	8.0894e+01	7.6041	26.846953	0.000375	3.751174	1.270932	-0.000150
 815	8.0993e+01	7.5640	26.770247	0.000193	1.926279	0.652641	-0.000077
 816	8.1093e+01	7.5206	26.620873	0.000375	3.751174	1.270932	-0.000150
 817	8.1192e+01	7.4950	26.419016	0.000507	5.069154	1.717476	-0.000203
 818	8.1291e+01	7.4517	26.289828	0.000324	3.244259	1.099185	-0.000130
 819	8.1391e+01	7.3987	26.168714	0.000304	3.041493	1.030486	-0.000122
 820	8.1490e+01	7.3698	26.007228	0.000406	4.055323	1.373981	-0.000162
 821	8.1590e+01	7.3362	25.902263	0.000264	2.635960	0.893087	-0.000105
 822	8.1689e+01	7.2864	25.777112	0.000314	3.142876	1.064835	-0.000126
 823	8.1789e+01	7.2495	25.655998	0.000304	3.041493	1.030486	-0.000122
 824	8.1888e+01	7.2094	25.555069	0.000253	2.534577	0.858738	-0.000101
 825	8.1988e+01	7.1741	25.437992	0.000294	2.940109	0.996136	-0.000118
 826	8.2088e+01	7.1244	25.324952	0.000284	2.838726	0.961787	-0.000114
 827	8.2187e+01	7.0923	25.187690	0.000345	3.447025	1.167884	-0.000138
 828	8.2287e+01	7.0378	25.010056	0.000446	4.460856	1.511379	-0.000179
 829	8.2386e+01	7.0041	24.913165	0.000243	2.433194	0.824388	-0.000097
 830	8.2486e+01	6.9656	24.755716	0.000395	3.953940	1.339631	-0.000158
 831	8.2585e+01	6.9367	24.658825	0.000243	2.433194	0.824388	-0.000097
 832	8.2684e+01	6.8966	24.456968	0.000507	5.069154	1.717476	-0.000203
 833	8.2784e+01	6.8453	24.347966	0.000274	2.737343	0.927437	-0.000110
 834	8.2883e+01	6.8100	24.186480	0.000406	4.055323	1.373981	-0.000162
 835	8.2983e+01	6.7747	24.029032	0.000395	3.953940	1.339631	-0.000158
 836	8.3082e+01	6.7362	23.899844	0.000324	3.244259	1.099185	-0.000130
 837	8.3182e+01	6.6977	23.722210	0.000446	4.460856	1.511379	-0.000179
 838	8.3281e+01	6.6463	23.609170	0.000284	2.838726	0.961787	-0.000114
 839	8.3381e+01	6.6094	23.435573	0.000436	4.359473	1.477029	-0.000174
 840	8.3481e+01	6.5613	23.346756	0.000223	2.230428	0.755689	-0.000089
 841	8.3580e+01	6.5308	23.205456	0.000355	3.548408	1.202233	-0.000142
 842	8.3680e+01	6.4907	23.116639	0.000223	2.230428	0.755689	-0.000089
 843	8.3779e+01	6.4458	22.930931	0.000466	4.663622	1.580078	-0.000187
 844	8.3879e+01	6.4137	22.862300	0.000172	1.723512	0.583942	-0.000069
 845	8.3978e+01	6.3752	22.692740	0.000426	4.258090	1.442680	-0.000170
 846	8.4078e+01	6.3319	22.591812	0.000253	2.534577	0.858738	-0.000101
 847	8.4177e+01	6.2902	22.406103	0.000466	4.663622	1.580078	-0.000187
 848	8.4276e+01	6.2565	22.276915	0.000324	3.244259	1.099185	-0.000130
 849	8.4376e+01	6.2116	22.155801	0.000304	3.041493	1.030486	-0.000122
 850	8.4475e+01	6.1731	21.982204	0.000436	4.359473	1.477029	-0.000174
 851	8.4575e+01	6.1330	21.848979	0.000335	3.345642	1.133534	-0.000134
 852	8.4674e+01	6.0945	21.675382	0.000436	4.359473	1.477029	-0.000174
 853	8.4774e+01	6.0560	21.558305	0.000294	2.940109	0.996136	-0.000118
 854	8.4874e+01	6.0014	21.360485	0.000497	4.967771	1.683126	-0.000199
 855	8.4973e+01	5.9726	21.239371	0.000304	3.041493	1.030486	-0.000122
 856	8.5073e+01	5.9357	21.061737	0.000446	4.460856	1.511379	-0.000179
 857	8.5172e+01	5.9004	20.968883	0.000233	2.331811	0.790039	-0.000093
 858	8.5272e+01	5.8458	20.843732	0.000314	3.142876	1.064835	-0.000126
 859	8.5371e+01	5.8153	20.710506	0.000335	3.345642	1.133534	-0.000134
 860	8.5471e+01	5.7849	20.601504	0.000274	2.737343	0.927437	-0.000110
 861	8.5570e+01	5.7367	20.448093	0.000385	3.852557	1.305282	-0.000154
 862	8.5669e+01	5.6902	20.298718	0.000375	3.751174	1.270932	-0.000150
 863	8.5769e+01	5.6533	20.153382	0.000365	3.649791	1.236583	-0.000146
 864	8.5868e+01	5.6164	20.052453	0.000253	2.534577	0.858738	-0.000101
 865	8.5968e+01	5.5731	19.903079	0.000375	3.751174	1.270932	-0.000150
 866	8.6067e+01	5.5314	19.737557	0.000416	4.156706	1.408330	-0.000166
 867	8.6167e+01	5.4961	19.600294	0.000345	3.447025	1.167884	-0.000138
 868	8.6266e+01	5.4560	19.458994	0.000355	3.548408	1.202233	-0.000142
 869	8.6366e+01	5.4175	19.321732	0.000345	3.447025	1.167884	-0.000138
 870	8.6466e+01	5.3758	19.188506	0.000335	3.345642	1.133534	-0.000134
 871	8.6565e+01	5.3341	19.043169	0.000365	3.649791	1.236583	-0.000146
 872	8.6665e+01	5.2940	18.861498	0.000456	4.562239	1.545728	-0.000183
 873	8.6764e+01	5.2555	18.675790	0.000466	4.663622	1.580078	-0.000187
 874	8.6864e+01	5.2266	18.558713	0.000294	2.940109	0.996136	-0.000118
 875	8.6963e+01	5.1769	18.421450	0.000345	3.447025	1.167884	-0.000138
 876	8.7063e+01	5.1335	18.336671	0.000213	2.129045	0.721340	-0.000085
 877	8.7162e+01	5.0966	18.179222	0.000395	3.953940	1.339631	-0.000158
 878	8.7261e+01	5.0630	18.033885	0.000365	3.649791	1.236583	-0.000146
 879	8.7361e+01	5.0212	17.896623	0.000345	3.447025	1.167884	-0.000138
 880	8.7460e+01	4.9811	17.787620	0.000274	2.737343	0.927437	-0.000110
 881	8.7560e+01	4.9378	17.626135	0.000406	4.055323	1.373981	-0.000162
 882	8.7659e+01	4.8977	17.464649	0.000406	4.055323	1.373981	-0.000162
 883	8.7759e+01	4.8512	17.343535	0.000304	3.041493	1.030486	-0.000122
 884	8.7859e+01	4.8175	17.182050	0.000406	4.055323	1.373981	-0.000162
 885	8.7958e+01	4.7822	17.044787	0.000345	3.447025	1.167884	-0.000138
 886	8.8058e+01	4.7405	16.879265	0.000416	4.156706	1.408330	-0.000166
 887	8.8157e+01	4.6940	16.798522	0.000203	2.027662	0.686990	-0.000081
 888	8.8257e+01	4.6587	16.653185	0.000365	3.649791	1.236583	-0.000146
 889	8.8356e+01	4.6202	16.463440	0.000477	4.765005	1.614427	-0.000191
 890	8.8456e+01	4.5785	16.293880	0.000426	4.258090	1.442680	-0.000170
 891	8.8555e+01	4.5336	16.168729	0.000314	3.142876	1.064835	-0.000126
 892	8.8654e+01	4.4935	15.978983	0.000477	4.765005	1.614427	-0.000191
 893	8.8754e+01	4.4630	15.837684	0.000355	3.548408	1.202233	-0.000142
 894	8.8853e+01	4.4197	15.724644	0.000284	2.838726	0.961787	-0.000114
 895	8.8953e+01	4.3699	15.619678	0.000264	2.635960	0.893087	-0.000105
 896	8.9052e+01	4.3427	15.498564	0.000304	3.041493	1.030486	-0.000122
 897	8.9152e+01	4.2961	15.320930	0.000446	4.460856	1.511379	-0.000179
 898	8.9251e+01	4.2528	15.191742	0.000324	3.244259	1.099185	-0.000130
 899	8.9351e+01	4.2239	15.054479	0.000345	3.447025	1.167884	-0.000138
 900	8.9451e+01	4.1790	14.872808	0.000456	4.562239	1.545728	-0.000183
 901	8.9550e+01	4.1373	14.735545	0.000345	3.447025	1.167884	-0.000138
 902	8.9650e+01	4.0940	14.606357	0.000324	3.244259	1.099185	-0.000130
 903	8.9749e+01	4.0571	14.448909	0.000395	3.953940	1.339631	-0.000158
 904	8.9849e+01	4.0250	14.303572	0.000365	3.649791	1.236583	-0.000146
 905	8.9948e+01	3.9865	14.142086	0.000406	4.055323	1.373981	-0.000162
 906	9.0047e+01	3.9336	14.029047	0.000284	2.838726	0.961787	-0.000114
 907	9.0147e+01	3.9079	13.819116	0.000527	5.271920	1.786175	-0.000211
 908	9.0246e+01	3.8694	13.673779	0.000365	3.649791	1.236583	-0.000146
 909	9.0346e+01	3.8181	13.540553	0.000335	3.345642	1.133534	-0.000134
 910	9.0445e+01	3.7844	13.395216	0.000365	3.649791	1.236583	-0.000146
 911	9.0545e+01	3.7363	13.209508	0.000466	4.663622	1.580078	-0.000187
 912	9.0644e+01	3.7010	13.027837	0.000456	4.562239	1.545728	-0.000183
 913	9.0744e+01	3.6673	12.963243	0.000162	1.622129	0.549592	-0.000065
 914	9.0844e+01	3.6272	12.854240	0.000274	2.737343	0.927437	-0.000110
 915	9.0943e+01	3.5855	12.737163	0.000294	2.940109	0.996136	-0.000118
 916	9.1043e+01	3.5438	12.559529	0.000446	4.460856	1.511379	-0.000179
 917	9.1142e+01	3.5117	12.426304	0.000335	3.345642	1.133534	-0.000134
 918	9.1242e+01	3.4619	12.280967	0.000365	3.649791	1.236583	-0.000146
 919	9.1341e+01	3.4266	12.167927	0.000284	2.838726	0.961787	-0.000114
 920	9.1441e+01	3.3881	12.030664	0.000345	3.447025	1.167884	-0.000138
 921	9.1540e+01	3.3416	11.897439	0.000335	3.345642	1.133534	-0.000134
 922	9.1639e+01	3.2983	11.731916	0.000416	4.156706	1.408330	-0.000166
 923	9.1739e+01	3.2598	11.562357	0.000426	4.258090	1.442680	-0.000170
 924	9.1838e+01	3.2277	11.445280	0.000294	2.940109	0.996136	-0.000118
 925	9.1938e+01	3.1828	11.279757	0.000416	4.156706	1.408330	-0.000166
 926	9.2037e+01	3.1523	11.118272	0.000406	4.055323	1.373981	-0.000162
 927	9.2137e+01	3.1122	10.968898	0.000375	3.751174	1.270932	-0.000150
 928	9.2237e+01	3.0657	10.795301	0.000436	4.359473	1.477029	-0.000174
 929	9.2336e+01	3.0240	10.706484	0.000223	2.230428	0.755689	-0.000089
 930	9.2436e+01	2.9855	10.508664	0.000497	4.967771	1.683126	-0.000199
 931	9.2535e+01	2.9486	10.444070	0.000162	1.622129	0.549592	-0.000065
 932	9.2635e+01	2.9053	10.278548	0.000416	4.156706	1.408330	-0.000166
 933	9.2734e+01	2.8636	10.169545	0.000274	2.737343	0.927437	-0.000110
 934	9.2834e+01	2.8379	10.036319	0.000335	3.345642	1.133534	-0.000134
 935	9.2933e+01	2.7753	9.870797	0.000416	4.156706	1.408330	-0.000166
 936	9.3032e+01	2.7400	9.757757	0.000284	2.838726	0.961787	-0.000114
 937	9.3132e+01	2.7063	9.600309	0.000395	3.953940	1.339631	-0.000158
 938	9.3231e+01	2.6694	9.450935	0.000375	3.751174	1.270932	-0.000150
 939	9.3331e+01	2.6325	9.329821	0.000304	3.041493	1.030486	-0.000122
 940	9.3430e+01	2.5844	9.200632	0.000324	3.244259	1.099185	-0.000130
 941	9.3530e+01	2.5459	9.031073	0.000426	4.258090	1.442680	-0.000170
 942	9.3629e+01	2.5074	8.909959	0.000304	3.041493	1.030486	-0.000122
 943	9.3729e+01	2.4657	8.740399	0.000426	4.258090	1.442680	-0.000170
 944	9.3829e+01	2.4240	8.619285	0.000304	3.041493	1.030486	-0.000122
 945	9.3928e+01	2.3951	8.453762	0.000416	4.156706	1.408330	-0.000166
 946	9.4028e+01	2.3486	8.272091	0.000456	4.562239	1.545728	-0.000183
 947	9.4127e+01	2.2989	8.163088	0.000274	2.737343	0.927437	-0.000110
 948	9.4227e+01	2.2684	8.025826	0.000345	3.447025	1.167884	-0.000138
 949	9.4326e+01	2.2363	7.860303	0.000416	4.156706	1.408330	-0.000166
 950	9.4425e+01	2.1978	7.779561	0.000203	2.027662	0.686990	-0.000081
 951	9.4525e+01	2.1465	7.646335	0.000335	3.345642	1.133534	-0.000134
 952	9.4624e+01	2.1080	7.480813	0.000416	4.156706	1.408330	-0.000166
 953	9.4724e+01	2.0695	7.367773	0.000284	2.838726	0.961787	-0.000114
 954	9.4823e+01	2.0326	7.194176	0.000436	4.359473	1.477029	-0.000174
 955	9.4923e+01	1.9860	7.056913	0.000345	3.447025	1.167884	-0.000138
 956	9.5022e+01	1.9459	6.927725	0.000324	3.244259	1.099185	-0.000130
 957	9.5122e+01	1.9058	6.838908	0.000223	2.230428	0.755689	-0.000089
 958	9.5222e+01	1.8721	6.641088	0.000497	4.967771	1.683126	-0.000199
 959	9.5321e+01	1.8272	6.524011	0.000294	2.940109	0.996136	-0.000118
 960	9.5421e+01	1.7919	6.386749	0.000345	3.447025	1.167884	-0.000138
 961	9.5520e+01	1.7470	6.241412	0.000365	3.649791	1.236583	-0.000146
 962	9.5620e+01	1.7037	6.096075	0.000365	3.649791	1.236583	-0.000146
 963	9.5719e+01	1.6796	5.930552	0.000416	4.156706	1.408330	-0.000166
 964	9.5819e+01	1.6267	5.736770	0.000487	4.866388	1.648777	-0.000195
 965	9.5918e+01	1.5898	5.607582	0.000324	3.244259	1.099185	-0.000130
 966	9.6017e+01	1.5497	5.490505	0.000294	2.940109	0.996136	-0.000118
 967	9.6117e+01	1.5160	5.377465	0.000284	2.838726	0.961787	-0.000114
 968	9.6216e+01	1.4679	5.276536	0.000253	2.534577	0.858738	-0.000101
 969	9.6316e+01	1.4294	5.127162	0.000375	3.751174	1.270932	-0.000150
 970	9.6415e+01	1.3925	4.953566	0.000436	4.359473	1.477029	-0.000174
 971	9.6515e+01	1.3540	4.824377	0.000324	3.244259	1.099185	-0.000130
 972	9.6615e+01	1.3139	4.683077	0.000355	3.548408	1.202233	-0.000142
 973	9.6714e+01	1.2722	4.586186	0.000243	2.433194	0.824388	-0.000097
 974	9.6814e+01	1.2240	4.436812	0.000375	3.751174	1.270932	-0.000150
 975	9.6913e+01	1.1855	4.303587	0.000335	3.345642	1.133534	-0.000134
 976	9.7013e+01	1.1422	4.178435	0.000314	3.142876	1.064835	-0.000126
 977	9.7112e+01	1.1149	4.004839	0.000436	4.359473	1.477029	-0.000174
 978	9.7212e+01	1.0732	3.855465	0.000375	3.751174	1.270932	-0.000150
 979	9.7311e+01	1.0299	3.726276	0.000324	3.244259	1.099185	-0.000130
 980	9.7410e+01	0.9930	3.605162	0.000304	3.041493	1.030486	-0.000122
 981	9.7510e+01	0.9609	3.419454	0.000466	4.663622	1.580078	-0.000187
 982	9.7609e+01	0.9208	3.282191	0.000345	3.447025	1.167884	-0.000138
 983	9.7709e+01	0.8759	3.177226	0.000264	2.635960	0.893087	-0.000105
 984	9.7808e+01	0.8358	3.056112	0.000304	3.041493	1.030486	-0.000122
 985	9.7908e+01	0.7861	2.882515	0.000436	4.359473	1.477029	-0.000174
 986	9.8007e+01	0.7572	2.769475	0.000284	2.838726	0.961787	-0.000114
 987	9.8107e+01	0.7171	2.620101	0.000375	3.751174	1.270932	-0.000150
 988	9.8207e+01	0.6770	2.523210	0.000243	2.433194	0.824388	-0.000097
 989	9.8306e+01	0.6321	2.341539	0.000456	4.562239	1.545728	-0.000183
 990	9.8406e+01	0.5968	2.212350	0.000324	3.244259	1.099185	-0.000130
 991	9.8505e+01	0.5551	2.087199	0.000314	3.142876	1.064835	-0.000126
 992	9.8605e+01	0.5214	1.921677	0.000416	4.156706	1.408330	-0.000166
 993	9.8704e+01	0.4732	1.832860	0.000223	2.230428	0.755689	-0.000089
 994	9.8803e+01	0.4364	1.647151	0.000466	4.663622	1.580078	-0.000187
 995	9.8903e+01	0.3995	1.493740	0.000385	3.852557	1.305282	-0.000154
 996	9.9002e+01	0.3529	1.376663	0.000294	2.940109	0.996136	-0.000118
 997	9.9102e+01	0.3128	1.259586	0.000294	2.940109	0.996136	-0.000118
 998	9.9201e+01	0.2807	1.130398	0.000324	3.244259	1.099185	-0.000130
 999	9.9301e+01	0.2358	0.936615	0.000487	4.866388	1.648777	-0.000195
1000	9.9400e+01	0.1925	0.819539	0.000294	2.940109	0.996136	-0.000118
1001	9.9500e+01	0.1652	0.678239	0.000355	3.548408	1.202233	-0.000142
1002	9.9600e+01	0.1171	0.553088	0.000314	3.142876	1.064835	-0.000126
1003	9.9699e+01	0.0770	0.383528	0.000426	4.258090	1.442680	-0.000170
1004	9.9799e+01	0.0417	0.250302	0.000335	3.345642	1.133534	-0.000134
1005	9.9898e+01	0.0048	0.129188	0.000304	3.041493	1.030486	-0.000122
1006	9.9998e+01	-0.0337	0.016149	0.000284	2.838726	0.961787	-0.000114
1007	1.0010e+02	-0.0722	-0.113040	0.000324	3.244259	1.099185	-0.000130
1008	1.0020e+02	-0.1139	-0.314897	0.000507	5.069154	1.717476	-0.000203
1009	1.0030e+02	-0.1556	-0.407751	0.000233	2.331811	0.790039	-0.000093
1010	1.0040e+02	-0.2005	-0.573273	0.000416	4.156706	1.408330	-0.000166
1011	1.0050e+02	-0.2326	-0.674202	0.000253	2.534577	0.858738	-0.000101
1012	1.0059e+02	-0.2647	-0.835687	0.000406	4.055323	1.373981	-0.000162
1013	1.0069e+02	-0.3225	-0.993135	0.000395	3.953940	1.339631	-0.000158
1014	1.0079e+02	-0.3561	-1.138472	0.000365	3.649791	1.236583	-0.000146
1015	1.0089e+02	-0.3978	-1.287846	0.000375	3.751174	1.270932	-0.000150
1016	1.0099e+02	-0.4283	-1.388775	0.000253	2.534577	0.858738	-0.000101
1017	1.0109e+02	-0.4684	-1.530074	0.000355	3.548408	1.202233	-0.000142
1018	1.0119e+02	-0.5118	-1.671374	0.000355	3.548408	1.202233	-0.000142
1019	1.0129e+02	-0.5454	-1.832860	0.000406	4.055323	1.373981	-0.000162
1020	1.0139e+02	-0.5920	-1.998382	0.000416	4.156706	1.408330	-0.000166
1021	1.0149e+02	-0.6321	-2.127571	0.000324	3.244259	1.099185	-0.000130
1022	1.0159e+02	-0.6625	-2.293093	0.000416	4.156706	1.408330	-0.000166
1023	1.0169e+02	-0.7091	-2.389984	0.000243	2.433194	0.824388	-0.000097
1024	1.0179e+02	-0.7604	-2.616064	0.000568	5.677453	1.923573	-0.000227
1025	1.0189e+02	-0.7941	-2.704881	0.000223	2.230428	0.755689	-0.000089
1026	1.0199e+02	-0.8358	-2.878478	0.000436	4.359473	1.477029	-0.000174
1027	1.0209e+02	-0.8695	-3.019778	0.000355	3.548408	1.202233	-0.000142
1028	1.0219e+02	-0.9176	-3.144929	0.000314	3.142876	1.064835	-0.000126
1029	1.0229e+02	-0.9625	-3.298340	0.000385	3.852557	1.305282	-0.000154
1030	1.0239e+02	-0.9930	-3.411380	0.000284	2.838726	0.961787	-0.000114
1031	1.0248e+02	-1.0315	-3.576902	0.000416	4.156706	1.408330	-0.000166
1032	1.0258e+02	-1.0668	-3.718202	0.000355	3.548408	1.202233	-0.000142
1033	1.0268e+02	-1.1069	-3.807019	0.000223	2.230428	0.755689	-0.000089
1034	1.0278e+02	-1.1518	-3.956393	0.000375	3.751174	1.270932	-0.000150
1035	1.0288e+02	-1.1919	-4.134027	0.000446	4.460856	1.511379	-0.000179
1036	1.0298e+02	-1.2272	-4.259178	0.000314	3.142876	1.064835	-0.000126
1037	1.0308e+02	-1.2609	-4.416626	0.000395	3.953940	1.339631	-0.000158
1038	1.0318e+02	-1.3139	-4.582149	0.000416	4.156706	1.408330	-0.000166
1039	1.0328e+02	-1.3508	-4.727486	0.000365	3.649791	1.236583	-0.000146
1040	1.0338e+02	-1.3812	-4.893009	0.000416	4.156706	1.408330	-0.000166
1041	1.0348e+02	-1.4181	-5.038345	0.000365	3.649791	1.236583	-0.000146
1042	1.0358e+02	-1.4759	-5.155422	0.000294	2.940109	0.996136	-0.000118
1043	1.0368e+02	-1.5144	-5.296722	0.000355	3.548408	1.202233	-0.000142
1044	1.0378e+02	-1.5433	-5.446096	0.000375	3.751174	1.270932	-0.000150
1045	1.0388e+02	-1.5786	-5.583359	0.000345	3.447025	1.167884	-0.000138
1046	1.0398e+02	-1.6331	-5.740807	0.000395	3.953940	1.339631	-0.000158
1047	1.0408e+02	-1.6748	-5.861921	0.000304	3.041493	1.030486	-0.000122
1048	1.0418e+02	-1.7149	-6.031481	0.000426	4.258090	1.442680	-0.000170
1049	1.0428e+02	-1.7470	-6.148558	0.000294	2.940109	0.996136	-0.000118
1050	1.0438e+02	-1.7839	-6.289857	0.000355	3.548408	1.202233	-0.000142
1051	1.0447e+02	-1.8288	-6.415009	0.000314	3.142876	1.064835	-0.000126
1052	1.0457e+02	-1.8577	-6.552271	0.000345	3.447025	1.167884	-0.000138
1053	1.0467e+02	-1.9122	-6.653200	0.000253	2.534577	0.858738	-0.000101
1054	1.0477e+02	-1.9491	-6.826797	0.000436	4.359473	1.477029	-0.000174
1055	1.0487e+02	-1.9860	-6.980208	0.000385	3.852557	1.305282	-0.000154
1056	1.0497e+02	-2.0374	-7.178027	0.000497	4.967771	1.683126	-0.000199
1057	1.0507e+02	-2.0663	-7.319327	0.000355	3.548408	1.202233	-0.000142
1058	1.0517e+02	-2.1031	-7.472738	0.000385	3.852557	1.305282	-0.000154
1059	1.0527e+02	-2.1417	-7.630187	0.000395	3.953940	1.339631	-0.000158
1060	1.0537e+02	-2.1753	-7.767449	0.000345	3.447025	1.167884	-0.000138
1061	1.0547e+02	-2.2283	-7.876452	0.000274	2.737343	0.927437	-0.000110
1062	1.0557e+02	-2.2684	-8.050049	0.000436	4.359473	1.477029	-0.000174
1063	1.0567e+02	-2.3069	-8.203460	0.000385	3.852557	1.305282	-0.000154
1064	1.0577e+02	-2.3470	-8.332648	0.000324	3.244259	1.099185	-0.000130
1065	1.0587e+02	-2.3807	-8.490096	0.000395	3.953940	1.339631	-0.000158
1066	1.0597e+02	-2.4272	-8.647545	0.000395	3.953940	1.339631	-0.000158
1067	1.0607e+02	-2.4689	-8.788845	0.000355	3.548408	1.202233	-0.000142
1068	1.0617e+02	-2.4994	-8.889773	0.000253	2.534577	0.858738	-0.000101
1069	1.0627e+02	-2.5507	-9.031073	0.000355	3.548408	1.202233	-0.000142
1070	1.0637e+02	-2.5876	-9.140075	0.000274	2.737343	0.927437	-0.000110
1071	1.0647e+02	-2.6181	-9.333858	0.000487	4.866388	1.648777	-0.000195
1072	1.0656e+02	-2.6646	-9.511492	0.000446	4.460856	1.511379	-0.000179
1073	1.0666e+02	-2.7015	-9.677014	0.000416	4.156706	1.408330	-0.000166
1074	1.0676e+02	-2.7416	-9.786017	0.000274	2.737343	0.927437	-0.000110
1075	1.0686e+02	-2.7882	-9.999985	0.000537	5.373303	1.820524	-0.000215
1076	1.0696e+02	-2.8154	-10.108988	0.000274	2.737343	0.927437	-0.000110
1077	1.0706e+02	-2.8700	-10.201842	0.000233	2.331811	0.790039	-0.000093
1078	1.0716e+02	-2.9005	-10.387550	0.000466	4.663622	1.580078	-0.000187
1079	1.0726e+02	-2.9502	-10.544999	0.000395	3.953940	1.339631	-0.000158
1080	1.0736e+02	-2.9855	-10.625741	0.000203	2.027662	0.686990	-0.000081
1081	1.0746e+02	-3.0208	-10.823561	0.000497	4.967771	1.683126	-0.000199
1082	1.0756e+02	-3.0657	-10.940638	0.000294	2.940109	0.996136	-0.000118
1083	1.0766e+02	-3.1090	-11.077900	0.000345	3.447025	1.167884	-0.000138
1084	1.0776e+02	-3.1443	-11.223237	0.000365	3.649791	1.236583	-0.000146
1085	1.0786e+02	-3.1812	-11.364537	0.000355	3.548408	1.202233	-0.000142
1086	1.0796e+02	-3.2309	-11.461428	0.000243	2.433194	0.824388	-0.000097
1087	1.0806e+02	-3.2662	-11.606765	0.000365	3.649791	1.236583	-0.000146
1088	1.0816e+02	-3.3127	-11.768251	0.000406	4.055323	1.373981	-0.000162
1089	1.0826e+02	-3.3400	-11.901476	0.000335	3.345642	1.133534	-0.000134
1090	1.0836e+02	-3.3769	-12.062962	0.000406	4.055323	1.373981	-0.000162
1091	1.0845e+02	-3.4282	-12.216373	0.000385	3.852557	1.305282	-0.000154
1092	1.0855e+02	-3.4587	-12.345561	0.000324	3.244259	1.099185	-0.000130
1093	1.0865e+02	-3.4972	-12.515121	0.000426	4.258090	1.442680	-0.000170
1094	1.0875e+02	-3.5502	-12.644309	0.000324	3.244259	1.099185	-0.000130
1095	1.0885e+02	-3.5887	-12.805795	0.000406	4.055323	1.373981	-0.000162
1096	1.0895e+02	-3.6191	-12.943057	0.000345	3.447025	1.167884	-0.000138
1097	1.0905e+02	-3.6593	-13.068208	0.000314	3.142876	1.064835	-0.000126
1098	1.0915e+02	-3.6994	-13.213545	0.000365	3.649791	1.236583	-0.000146
1099	1.0925e+02	-3.7443	-13.370994	0.000395	3.953940	1.339631	-0.000158
1100	1.0935e+02	-3.7796	-13.496145	0.000314	3.142876	1.064835	-0.000126
1101	1.0945e+02	-3.8197	-13.617259	0.000304	3.041493	1.030486	-0.000122
1102	1.0955e+02	-3.8582	-13.754521	0.000345	3.447025	1.167884	-0.000138
1103	1.0965e+02	-3.9015	-13.867561	0.000284	2.838726	0.961787	-0.000114
1104	1.0975e+02	-3.9384	-13.960415	0.000233	2.331811	0.790039	-0.000093
1105	1.0985e+02	-3.9801	-14.109789	0.000375	3.751174	1.270932	-0.000150
1106	1.0995e+02	-4.0282	-14.271275	0.000406	4.055323	1.373981	-0.000162
1107	1.1005e+02	-4.0603	-14.444872	0.000436	4.359473	1.477029	-0.000174
1108	1.1015e+02	-4.0972	-14.590209	0.000365	3.649791	1.236583	-0.000146
1109	1.1025e+02	-4.1405	-14.723434	0.000335	3.345642	1.133534	-0.000134
1110	1.1035e+02	-4.1790	-14.848585	0.000314	3.142876	1.064835	-0.000126
1111	1.1044e+02	-4.2191	-15.010071	0.000406	4.055323	1.373981	-0.000162
1112	1.1054e+02	-4.2641	-15.143296	0.000335	3.345642	1.133534	-0.000134
1113	1.1064e+02	-4.2945	-15.304782	0.000406	4.055323	1.373981	-0.000162
1114	1.1074e+02	-4.3411	-15.442044	0.000345	3.447025	1.167884	-0.000138
1115	1.1084e+02	-4.3828	-15.538935	0.000243	2.433194	0.824388	-0.000097
1116	1.1094e+02	-4.4181	-15.692347	0.000385	3.852557	1.305282	-0.000154
1117	1.1104e+02	-4.4550	-15.849795	0.000395	3.953940	1.339631	-0.000158
1118	1.1114e+02	-4.5031	-15.995132	0.000365	3.649791	1.236583	-0.000146
1119	1.1124e+02	-4.5384	-16.132394	0.000345	3.447025	1.167884	-0.000138
1120	1.1134e+02	-4.5753	-16.213137	0.000203	2.027662	0.686990	-0.000081
1121	1.1144e+02	-4.6154	-16.358474	0.000365	3.649791	1.236583	-0.000146
1122	1.1154e+02	-4.6635	-16.495737	0.000345	3.447025	1.167884	-0.000138
1123	1.1164e+02	-4.6988	-16.628962	0.000335	3.345642	1.133534	-0.000134
1124	1.1174e+02	-4.7389	-16.770262	0.000355	3.548408	1.202233	-0.000142
1125	1.1184e+02	-4.7614	-16.879265	0.000274	2.737343	0.927437	-0.000110
1126	1.1194e+02	-4.8175	-17.048824	0.000426	4.258090	1.442680	-0.000170
1127	1.1204e+02	-4.8544	-17.198198	0.000375	3.751174	1.270932	-0.000150
1128	1.1214e+02	-4.9041	-17.315275	0.000294	2.940109	0.996136	-0.000118
1129	1.1224e+02	-4.9314	-17.464649	0.000375	3.751174	1.270932	-0.000150
1130	1.1234e+02	-4.9667	-17.618060	0.000385	3.852557	1.305282	-0.000154
1131	1.1244e+02	-5.0068	-17.763397	0.000365	3.649791	1.236583	-0.000146
1132	1.1253e+02	-5.0565	-17.900660	0.000345	3.447025	1.167884	-0.000138
1133	1.1263e+02	-5.0886	-18.041960	0.000355	3.548408	1.202233	-0.000142
1134	1.1273e+02	-5.1384	-18.175185	0.000335	3.345642	1.133534	-0.000134
1135	1.1283e+02	-5.1737	-18.255928	0.000203	2.027662	0.686990	-0.000081
1136	1.1293e+02	-5.2170	-18.405302	0.000375	3.751174	1.270932	-0.000150
1137	1.1303e+02	-5.2715	-18.558713	0.000385	3.852557	1.305282	-0.000154
1138	1.1313e+02	-5.2892	-18.679827	0.000304	3.041493	1.030486	-0.000122
1139	1.1323e+02	-5.3405	-18.792867	0.000284	2.838726	0.961787	-0.000114
1140	1.1333e+02	-5.3710	-18.930129	0.000345	3.447025	1.167884	-0.000138
1141	1.1343e+02	-5.4111	-19.087578	0.000395	3.953940	1.339631	-0.000158
1142	1.1353e+02	-5.4496	-19.236952	0.000375	3.751174	1.270932	-0.000150
1143	1.1363e+02	-5.4961	-19.349992	0.000284	2.838726	0.961787	-0.000114
1144	1.1373e+02	-5.5394	-19.499366	0.000375	3.751174	1.270932	-0.000150
1145	1.1383e+02	-5.5635	-19.668925	0.000426	4.258090	1.442680	-0.000170
1146	1.1393e+02	-5.6228	-19.806188	0.000345	3.447025	1.167884	-0.000138
1147	1.1403e+02	-5.6549	-19.927302	0.000304	3.041493	1.030486	-0.000122
1148	1.1413e+02	-5.6950	-20.056490	0.000324	3.244259	1.099185	-0.000130
1149	1.1423e+02	-5.7335	-20.197790	0.000355	3.548408	1.202233	-0.000142
1150	1.1433e+02	-5.7720	-20.335053	0.000345	3.447025	1.167884	-0.000138
1151	1.1442e+02	-5.8218	-20.399647	0.000162	1.622129	0.549592	-0.000065
1152	1.1452e+02	-5.8587	-20.589392	0.000477	4.765005	1.614427	-0.000191
1153	1.1462e+02	-5.8940	-20.694358	0.000264	2.635960	0.893087	-0.000105
1154	1.1472e+02	-5.9308	-20.819509	0.000314	3.142876	1.064835	-0.000126
1155	1.1482e+02	-5.9774	-20.908326	0.000223	2.230428	0.755689	-0.000089
1156	1.1492e+02	-6.0159	-21.069811	0.000406	4.055323	1.373981	-0.000162
1157	1.1502e+02	-6.0624	-21.207074	0.000345	3.447025	1.167884	-0.000138
1158	1.1512e+02	-6.0929	-21.340300	0.000335	3.345642	1.133534	-0.000134
1159	1.1522e+02	-6.1346	-21.461414	0.000304	3.041493	1.030486	-0.000122
1160	1.1532e+02	-6.1763	-21.606750	0.000365	3.649791	1.236583	-0.000146
1161	1.1542e+02	-6.2132	-21.735939	0.000324	3.244259	1.099185	-0.000130
1162	1.1552e+02	-6.2565	-21.909536	0.000436	4.359473	1.477029	-0.000174
1163	1.1562e+02	-6.2998	-22.083132	0.000436	4.359473	1.477029	-0.000174
1164	1.1572e+02	-6.3351	-22.184061	0.000253	2.534577	0.858738	-0.000101
1165	1.1582e+02	-6.3736	-22.325361	0.000355	3.548408	1.202233	-0.000142
1166	1.1592e+02	-6.4137	-22.450512	0.000314	3.142876	1.064835	-0.000126
1167	1.1602e+02	-6.4458	-22.563552	0.000284	2.838726	0.961787	-0.000114
1168	1.1612e+02	-6.4907	-22.708889	0.000365	3.649791	1.236583	-0.000146
1169	1.1622e+02	-6.5212	-22.809817	0.000253	2.534577	0.858738	-0.000101
1170	1.1632e+02	-6.5725	-22.995525	0.000466	4.663622	1.580078	-0.000187
1171	1.1642e+02	-6.6046	-23.043971	0.000122	1.216597	0.412194	-0.000049
1172	1.1651e+02	-6.6528	-23.205456	0.000406	4.055323	1.373981	-0.000162
1173	1.1661e+02	-6.6864	-23.318496	0.000284	2.838726	0.961787	-0.000114
1174	1.1671e+02	-6.7201	-23.447684	0.000324	3.244259	1.099185	-0.000130
1175	1.1681e+02	-6.7634	-23.593021	0.000365	3.649791	1.236583	-0.000146
1176	1.1691e+02	-6.8116	-23.697987	0.000264	2.635960	0.893087	-0.000105
1177	1.1701e+02	-6.8469	-23.895806	0.000497	4.967771	1.683126	-0.000199
1178	1.1711e+02	-6.8854	-24.029032	0.000335	3.345642	1.133534	-0.000134
1179	1.1721e+02	-6.9191	-24.150146	0.000304	3.041493	1.030486	-0.000122
1180	1.1731e+02	-6.9736	-24.295483	0.000365	3.649791	1.236583	-0.000146
1181	1.1741e+02	-7.0041	-24.481191	0.000466	4.663622	1.580078	-0.000187
1182	1.1751e+02	-7.0442	-24.586157	0.000264	2.635960	0.893087	-0.000105
1183	1.1761e+02	-7.0843	-24.743605	0.000395	3.953940	1.339631	-0.000158
1184	1.1771e+02	-7.1276	-24.880868	0.000345	3.447025	1.167884	-0.000138
1185	1.1781e+02	-7.1725	-25.030242	0.000375	3.751174	1.270932	-0.000150
1186	1.1791e+02	-7.2030	-25.163467	0.000335	3.345642	1.133534	-0.000134
1187	1.1801e+02	-7.2415	-25.320915	0.000395	3.953940	1.339631	-0.000158
1188	1.1811e+02	-7.2864	-25.381472	0.000152	1.520746	0.515243	-0.000061
1189	1.1821e+02	-7.3346	-25.510661	0.000324	3.244259	1.099185	-0.000130
1190	1.1831e+02	-7.3682	-25.631775	0.000304	3.041493	1.030486	-0.000122
1191	1.1841e+02	-7.4035	-25.760963	0.000324	3.244259	1.099185	-0.000130
1192	1.1850e+02	-7.4436	-25.898226	0.000345	3.447025	1.167884	-0.000138
1193	1.1860e+02	-7.4902	-26.059711	0.000406	4.055323	1.373981	-0.000162
1194	1.1870e+02	-7.5351	-26.184862	0.000314	3.142876	1.064835	-0.000126
1195	1.1880e+02	-7.5607	-26.281754	0.000243	2.433194	0.824388	-0.000097
1196	1.1890e+02	-7.6041	-26.471499	0.000477	4.765005	1.614427	-0.000191
1197	1.1900e+02	-7.6378	-26.649133	0.000446	4.460856	1.511379	-0.000179
1198	1.1910e+02	-7.6859	-26.770247	0.000304	3.041493	1.030486	-0.000122
1199	1.1920e+02	-7.7180	-26.903473	0.000335	3.345642	1.133534	-0.000134
1200	1.1930e+02	-7.7549	-27.081107	0.000446	4.460856	1.511379	-0.000179
1201	1.1940e+02	-7.7982	-27.206258	0.000314	3.142876	1.064835	-0.000126
1202	1.1950e+02	-7.8351	-27.347557	0.000355	3.548408	1.202233	-0.000142
1203	1.1960e+02	-7.8816	-27.517117	0.000426	4.258090	1.442680	-0.000170
1204	1.1970e+02	-7.9217	-27.622083	0.000264	2.635960	0.893087	-0.000105
1205	1.1980e+02	-7.9570	-27.751271	0.000324	3.244259	1.099185	-0.000130
1206	1.1990e+02	-8.0035	-27.864311	0.000284	2.838726	0.961787	-0.000114
1207	1.2000e+02	-8.0404	-27.989462	0.000314	3.142876	1.064835	-0.000126
1208	1.2010e+02	-8.0805	-28.078279	0.000223	2.230428	0.755689	-0.000089
1209	1.2020e+02	-8.1158	-28.231690	0.000385	3.852557	1.305282	-0.000154
1210	1.2030e+02	-8.1607	-28.352804	0.000304	3.041493	1.030486	-0.000122
1211	1.2039e+02	-8.2057	-28.465844	0.000284	2.838726	0.961787	-0.000114
1212	1.2049e+02	-8.2377	-28.627330	0.000406	4.055323	1.373981	-0.000162
1213	1.2059e+02	-8.2827	-28.817075	0.000477	4.765005	1.614427	-0.000191
1214	1.2069e+02	-8.3260	-28.938189	0.000304	3.041493	1.030486	-0.000122
1215	1.2079e+02	-8.3581	-29.091600	0.000385	3.852557	1.305282	-0.000154
1216	1.2089e+02	-8.3998	-29.232900	0.000355	3.548408	1.202233	-0.000142
1217	1.2099e+02	-8.4351	-29.341903	0.000274	2.737343	0.927437	-0.000110
1218	1.2109e+02	-8.4752	-29.499351	0.000395	3.953940	1.339631	-0.000158
1219	1.2119e+02	-8.5105	-29.636613	0.000345	3.447025	1.167884	-0.000138
1220	1.2129e+02	-8.5682	-29.781950	0.000365	3.649791	1.236583	-0.000146
1221	1.2139e+02	-8.6003	-29.923250	0.000355	3.548408	1.202233	-0.000142
1222	1.2149e+02	-8.6388	-30.048401	0.000314	3.142876	1.064835	-0.000126
1223	1.2159e+02	-8.6757	-30.197775	0.000375	3.751174	1.270932	-0.000150
1224	1.2169e+02	-8.7110	-30.318889	0.000304	3.041493	1.030486	-0.000122
1225	1.2179e+02	-8.7591	-30.415781	0.000243	2.433194	0.824388	-0.000097
1226	1.2189e+02	-8.8056	-30.540932	0.000314	3.142876	1.064835	-0.000126
1227	1.2199e+02	-8.8409	-30.666083	0.000314	3.142876	1.064835	-0.000126
1228	1.2209e+02	-8.8826	-30.827568	0.000406	4.055323	1.373981	-0.000162
1229	1.2219e+02	-8.9292	-30.944645	0.000294	2.940109	0.996136	-0.000118
1230	1.2229e+02	-8.9645	-31.073834	0.000324	3.244259	1.099185	-0.000130
1231	1.2239e+02	-8.9885	-31.231282	0.000395	3.953940	1.339631	-0.000158
1232	1.2248e+02	-9.0286	-31.384693	0.000385	3.852557	1.305282	-0.000154
1233	1.2258e+02	-9.0767	-31.554253	0.000426	4.258090	1.442680	-0.000170
1234	1.2268e+02	-9.1104	-31.703627	0.000375	3.751174	1.270932	-0.000150
1235	1.2278e+02	-9.1586	-31.844927	0.000355	3.548408	1.202233	-0.000142
1236	1.2288e+02	-9.1971	-31.953929	0.000274	2.737343	0.927437	-0.000110
1237	1.2298e+02	-9.2372	-32.139638	0.000466	4.663622	1.580078	-0.000187
1238	1.2308e+02	-9.2805	-32.252677	0.000284	2.838726	0.961787	-0.000114
1239	1.2318e+02	-9.3190	-32.345532	0.000233	2.331811	0.790039	-0.000093
1240	1.2328e+02	-9.3527	-32.531240	0.000466	4.663622	1.580078	-0.000187
1241	1.2338e+02	-9.4024	-32.652354	0.000304	3.041493	1.030486	-0.000122
1242	1.2348e+02	-9.4441	-32.785579	0.000335	3.345642	1.133534	-0.000134
1243	1.2358e+02	-9.4778	-32.922842	0.000345	3.447025	1.167884	-0.000138
1244	1.2368e+02	-9.5195	-33.023770	0.000253	2.534577	0.858738	-0.000101
1245	1.2378e+02	-9.5628	-33.132773	0.000274	2.737343	0.927437	-0.000110
1246	1.2388e+02	-9.5997	-33.245813	0.000284	2.838726	0.961787	-0.000114
1247	1.2398e+02	-9.6334	-33.383075	0.000345	3.447025	1.167884	-0.000138
1248	1.2408e+02	-9.6703	-33.564747	0.000456	4.562239	1.545728	-0.000183
1249	1.2418e+02	-9.7297	-33.677786	0.000284	2.838726	0.961787	-0.000114
1250	1.2428e+02	-9.7569	-33.851383	0.000436	4.359473	1.477029	-0.000174
1251	1.2438e+02	-9.7970	-33.972497	0.000304	3.041493	1.030486	-0.000122
1252	1.2447e+02	-9.8339	-34.125908	0.000385	3.852557	1.305282	-0.000154
1253	1.2457e+02	-9.8692	-34.275282	0.000375	3.751174	1.270932	-0.000150
1254	1.2467e+02	-9.9158	-34.388322	0.000284	2.838726	0.961787	-0.000114
1255	1.2477e+02	-9.9462	-34.505399	0.000294	2.940109	0.996136	-0.000118
1256	1.2487e+02	-9.9880	-34.622476	0.000294	2.940109	0.996136	-0.000118
1257	1.2497e+02	-10.0265	-34.783962	0.000406	4.055323	1.373981	-0.000162
1258	1.2507e+02	-10.0762	-34.929298	0.000365	3.649791	1.236583	-0.000146
1259	1.2517e+02	-10.1131	-35.014078	0.000213	2.129045	0.721340	-0.000085
1260	1.2527e+02	-10.1612	-35.179601	0.000416	4.156706	1.408330	-0.000166
1261	1.2537e+02	-10.1917	-35.304752	0.000314	3.142876	1.064835	-0.000126
1262	1.2547e+02	-10.2350	-35.397606	0.000233	2.331811	0.790039	-0.000093
1263	1.2557e+02	-10.2735	-35.510646	0.000284	2.838726	0.961787	-0.000114
1264	1.2567e+02	-10.3136	-35.668094	0.000395	3.953940	1.339631	-0.000158
1265	1.2577e+02	-10.3489	-35.764986	0.000243	2.433194	0.824388	-0.000097
1266	1.2587e+02	-10.3970	-35.890137	0.000314	3.142876	1.064835	-0.000126
1267	1.2597e+02	-10.4259	-36.096031	0.000517	5.170537	1.751825	-0.000207
1268	1.2607e+02	-10.4740	-36.209070	0.000284	2.838726	0.961787	-0.000114
1269	1.2617e+02	-10.5045	-36.309999	0.000253	2.534577	0.858738	-0.000101
1270	1.2627e+02	-10.5542	-36.479559	0.000426	4.258090	1.442680	-0.000170
1271	1.2636e+02	-10.5799	-36.584524	0.000264	2.635960	0.893087	-0.000105
1272	1.2646e+02	-10.6361	-36.746009	0.000406	4.055323	1.373981	-0.000162
1273	1.2656e+02	-10.6794	-36.855012	0.000274	2.737343	0.927437	-0.000110
1274	1.2666e+02	-10.7131	-37.004386	0.000375	3.751174	1.270932	-0.000150
1275	1.2676e+02	-10.7435	-37.121463	0.000294	2.940109	0.996136	-0.000118
1276	1.2686e+02	-10.7965	-37.242577	0.000304	3.041493	1.030486	-0.000122
1277	1.2696e+02	-10.8350	-37.387914	0.000365	3.649791	1.236583	-0.000146
1278	1.2706e+02	-10.8703	-37.468657	0.000203	2.027662	0.686990	-0.000081
1279	1.2716e+02	-10.9104	-37.585734	0.000294	2.940109	0.996136	-0.000118
1280	1.2726e+02	-10.9553	-37.666476	0.000203	2.027662	0.686990	-0.000081
1281	1.2736e+02	-10.9874	-37.852185	0.000466	4.663622	1.580078	-0.000187
1282	1.2746e+02	-11.0387	-37.957150	0.000264	2.635960	0.893087	-0.000105
1283	1.2756e+02	-11.0660	-38.086339	0.000324	3.244259	1.099185	-0.000130
1284	1.2766e+02	-11.1013	-38.243787	0.000395	3.953940	1.339631	-0.000158
1285	1.2776e+02	-11.1510	-38.372975	0.000324	3.244259	1.099185	-0.000130
1286	1.2786e+02	-11.1975	-38.514275	0.000355	3.548408	1.202233	-0.000142
1287	1.2796e+02	-11.2280	-38.659612	0.000365	3.649791	1.236583	-0.000146
1288	1.2806e+02	-11.2697	-38.788800	0.000324	3.244259	1.099185	-0.000130
1289	1.2816e+02	-11.3050	-38.905877	0.000294	2.940109	0.996136	-0.000118
1290	1.2826e+02	-11.3483	-39.043140	0.000345	3.447025	1.167884	-0.000138
1291	1.2835e+02	-11.3949	-39.168291	0.000314	3.142876	1.064835	-0.000126
1292	1.2845e+02	-11.4253	-39.293442	0.000314	3.142876	1.064835	-0.000126
1293	1.2855e+02	-11.4606	-39.410519	0.000294	2.940109	0.996136	-0.000118
1294	1.2865e+02	-11.5072	-39.511447	0.000253	2.534577	0.858738	-0.000101
1295	1.2875e+02	-11.5505	-39.656784	0.000365	3.649791	1.236583	-0.000146
1296	1.2885e+02	-11.5970	-39.806158	0.000375	3.751174	1.270932	-0.000150
1297	1.2895e+02	-11.6275	-39.907087	0.000253	2.534577	0.858738	-0.000101
1298	1.2905e+02	-11.6628	-39.963607	0.000142	1.419363	0.480893	-0.000057
1299	1.2915e+02	-11.7061	-40.121055	0.000395	3.953940	1.339631	-0.000158
1300	1.2925e+02	-11.7414	-40.213909	0.000233	2.331811	0.790039	-0.000093
1301	1.2935e+02	-11.7815	-40.355209	0.000355	3.548408	1.202233	-0.000142
1302	1.2945e+02	-11.8264	-40.512657	0.000395	3.953940	1.339631	-0.000158
1303	1.2955e+02	-11.8601	-40.645883	0.000335	3.345642	1.133534	-0.000134
1304	1.2965e+02	-11.8986	-40.791219	0.000365	3.649791	1.236583	-0.000146
1305	1.2975e+02	-11.9435	-40.916371	0.000314	3.142876	1.064835	-0.000126
1306	1.2985e+02	-11.9804	-41.041522	0.000314	3.142876	1.064835	-0.000126
1307	1.2995e+02	-12.0285	-41.134376	0.000233	2.331811	0.790039	-0.000093
1308	1.3005e+02	-12.0590	-41.255490	0.000304	3.041493	1.030486	-0.000122
1309	1.3015e+02	-12.0959	-41.400827	0.000365	3.649791	1.236583	-0.000146
1310	1.3025e+02	-12.1489	-41.534052	0.000335	3.345642	1.133534	-0.000134
1311	1.3034e+02	-12.1890	-41.691501	0.000395	3.953940	1.339631	-0.000158
1312	1.3044e+02	-12.2291	-41.804541	0.000284	2.838726	0.961787	-0.000114
1313	1.3054e+02	-12.2595	-41.881246	0.000193	1.926279	0.652641	-0.000077
1314	1.3064e+02	-12.3045	-42.014472	0.000335	3.345642	1.133534	-0.000134
1315	1.3074e+02	-12.3414	-42.131549	0.000294	2.940109	0.996136	-0.000118
1316	1.3084e+02	-12.3879	-42.212291	0.000203	2.027662	0.686990	-0.000081
1317	1.3094e+02	-12.4152	-42.341480	0.000324	3.244259	1.099185	-0.000130
1318	1.3104e+02	-12.4633	-42.442408	0.000253	2.534577	0.858738	-0.000101
1319	1.3114e+02	-12.5018	-42.571596	0.000324	3.244259	1.099185	-0.000130
1320	1.3124e+02	-12.5387	-42.741156	0.000426	4.258090	1.442680	-0.000170
1321	1.3134e+02	-12.5916	-42.890530	0.000375	3.751174	1.270932	-0.000150
1322	1.3144e+02	-12.6205	-43.011644	0.000304	3.041493	1.030486	-0.000122
1323	1.3154e+02	-12.6590	-43.104498	0.000233	2.331811	0.790039	-0.000093
1324	1.3164e+02	-12.7023	-43.225612	0.000304	3.041493	1.030486	-0.000122
1325	1.3174e+02	-12.7328	-43.358838	0.000335	3.345642	1.133534	-0.000134
1326	1.3184e+02	-12.7745	-43.463803	0.000264	2.635960	0.893087	-0.000105
1327	1.3194e+02	-12.8162	-43.588955	0.000314	3.142876	1.064835	-0.000126
1328	1.3204e+02	-12.8563	-43.754477	0.000416	4.156706	1.408330	-0.000166
1329	1.3214e+02	-12.9028	-43.835220	0.000203	2.027662	0.686990	-0.000081
1330	1.3224e+02	-12.9413	-43.964408	0.000324	3.244259	1.099185	-0.000130
1331	1.3234e+02	-12.9766	-44.069374	0.000264	2.635960	0.893087	-0.000105
1332	1.3243e+02	-13.0248	-44.206636	0.000345	3.447025	1.167884	-0.000138
1333	1.3253e+02	-13.0665	-44.331788	0.000314	3.142876	1.064835	-0.000126
1334	1.3263e+02	-13.1018	-44.440790	0.000274	2.737343	0.927437	-0.000110
1335	1.3273e+02	-13.1403	-44.529607	0.000223	2.230428	0.755689	-0.000089
1336	1.3283e+02	-13.1820	-44.674944	0.000365	3.649791	1.236583	-0.000146
1337	1.3293e+02	-13.2157	-44.771835	0.000243	2.433194	0.824388	-0.000097
1338	1.3303e+02	-13.2574	-44.965618	0.000487	4.866388	1.648777	-0.000195
1339	1.3313e+02	-13.2975	-45.062509	0.000243	2.433194	0.824388	-0.000097
1340	1.3323e+02	-13.3440	-45.199772	0.000345	3.447025	1.167884	-0.000138
1341	1.3333e+02	-13.3745	-45.369331	0.000426	4.258090	1.442680	-0.000170
1342	1.3343e+02	-13.4194	-45.425851	0.000142	1.419363	0.480893	-0.000057
1343	1.3353e+02	-13.4643	-45.591374	0.000416	4.156706	1.408330	-0.000166
1344	1.3363e+02	-13.4980	-45.704414	0.000284	2.838726	0.961787	-0.000114
1345	1.3373e+02	-13.5429	-45.853788	0.000375	3.751174	1.270932	-0.000150
1346	1.3383e+02	-13.5718	-45.942605	0.000223	2.230428	0.755689	-0.000089
1347	1.3393e+02	-13.6247	-46.087942	0.000365	3.649791	1.236583	-0.000146
1348	1.3403e+02	-13.6600	-46.176759	0.000223	2.230428	0.755689	-0.000089
1349	1.3413e+02	-13.7018	-46.326133	0.000375	3.751174	1.270932	-0.000150
1350	1.3423e+02	-13.7467	-46.491655	0.000416	4.156706	1.408330	-0.000166
1351	1.3432e+02	-13.7788	-46.592584	0.000253	2.534577	0.858738	-0.000101
1352	1.3442e+02	-13.8333	-46.737920	0.000365	3.649791	1.236583	-0.000146
1353	1.3452e+02	-13.8542	-46.867109	0.000324	3.244259	1.099185	-0.000130
1354	1.3462e+02	-13.8943	-46.992260	0.000314	3.142876	1.064835	-0.000126
1355	1.3472e+02	-13.9408	-47.101263	0.000274	2.737343	0.927437	-0.000110
1356	1.3482e+02	-13.9745	-47.198154	0.000243	2.433194	0.824388	-0.000097
1357	1.3492e+02	-14.0194	-47.347528	0.000375	3.751174	1.270932	-0.000150
1358	1.3502e+02	-14.0499	-47.444419	0.000243	2.433194	0.824388	-0.000097
1359	1.3512e+02	-14.0996	-47.593793	0.000375	3.751174	1.270932	-0.000150
1360	1.3522e+02	-14.1365	-47.682610	0.000223	2.230428	0.755689	-0.000089
1361	1.3532e+02	-14.1766	-47.815836	0.000335	3.345642	1.133534	-0.000134
1362	1.3542e+02	-14.2167	-47.940987	0.000314	3.142876	1.064835	-0.000126
1363	1.3552e+02	-14.2568	-48.094398	0.000385	3.852557	1.305282	-0.000154
1364	1.3562e+02	-14.3001	-48.187252	0.000233	2.331811	0.790039	-0.000093
1365	1.3572e+02	-14.3386	-48.336626	0.000375	3.751174	1.270932	-0.000150
1366	1.3582e+02	-14.3787	-48.457740	0.000304	3.041493	1.030486	-0.000122
1367	1.3592e+02	-14.4156	-48.562706	0.000264	2.635960	0.893087	-0.000105
1368	1.3602e+02	-14.4493	-48.736303	0.000436	4.359473	1.477029	-0.000174
1369	1.3612e+02	-14.5007	-48.889714	0.000385	3.852557	1.305282	-0.000154
1370	1.3622e+02	-14.5343	-49.022939	0.000335	3.345642	1.133534	-0.000134
1371	1.3631e+02	-14.5873	-49.144053	0.000304	3.041493	1.030486	-0.000122
1372	1.3641e+02	-14.6130	-49.249019	0.000264	2.635960	0.893087	-0.000105
1373	1.3651e+02	-14.6579	-49.317650	0.000172	1.723512	0.583942	-0.000069
1374	1.3661e+02	-14.6996	-49.454913	0.000345	3.447025	1.167884	-0.000138
1375	1.3671e+02	-14.7349	-49.600250	0.000365	3.649791	1.236583	-0.000146
1376	1.3681e+02	-14.7750	-49.717327	0.000294	2.940109	0.996136	-0.000118
1377	1.3691e+02	-14.8167	-49.830366	0.000284	2.838726	0.961787	-0.000114
1378	1.3701e+02	-14.8536	-49.983778	0.000385	3.852557	1.305282	-0.000154
1379	1.3711e+02	-14.8921	-50.092780	0.000274	2.737343	0.927437	-0.000110
1380	1.3721e+02	-14.9402	-50.205820	0.000284	2.838726	0.961787	-0.000114
1381	1.3731e+02	-14.9771	-50.318860	0.000284	2.838726	0.961787	-0.000114
1382	1.3741e+02	-15.0076	-50.444011	0.000314	3.142876	1.064835	-0.000126
1383	1.3751e+02	-15.0525	-50.577237	0.000335	3.345642	1.133534	-0.000134
1384	1.3761e+02	-15.0974	-50.722573	0.000365	3.649791	1.236583	-0.000146
1385	1.3771e+02	-15.1327	-50.867910	0.000365	3.649791	1.236583	-0.000146
1386	1.3781e+02	-15.1712	-51.017284	0.000375	3.751174	1.270932	-0.000150
1387	1.3791e+02	-15.2081	-51.118213	0.000253	2.534577	0.858738	-0.000101
1388	1.3801e+02	-15.2546	-51.303921	0.000466	4.663622	1.580078	-0.000187
1389	1.3811e+02	-15.2996	-51.388701	0.000213	2.129045	0.721340	-0.000085
1390	1.3821e+02	-15.3317	-51.485592	0.000243	2.433194	0.824388	-0.000097
1391	1.3831e+02	-15.3686	-51.634966	0.000375	3.751174	1.270932	-0.000150
1392	1.3840e+02	-15.4135	-51.691486	0.000142	1.419363	0.480893	-0.000057
1393	1.3850e+02	-15.4568	-51.840860	0.000375	3.751174	1.270932	-0.000150
1394	1.3860e+02	-15.4937	-51.970048	0.000324	3.244259	1.099185	-0.000130
1395	1.3870e+02	-15.5322	-52.087125	0.000294	2.940109	0.996136	-0.000118
1396	1.3880e+02	-15.5675	-52.224388	0.000345	3.447025	1.167884	-0.000138
1397	1.3890e+02	-15.6012	-52.305131	0.000203	2.027662	0.686990	-0.000081
1398	1.3900e+02	-15.6589	-52.474690	0.000426	4.258090	1.442680	-0.000170
1399	1.3910e+02	-15.6974	-52.599842	0.000314	3.142876	1.064835	-0.000126
1400	1.3920e+02	-15.7423	-52.704807	0.000264	2.635960	0.893087	-0.000105
1401	1.3930e+02	-15.7728	-52.850144	0.000365	3.649791	1.236583	-0.000146
1402	1.3940e+02	-15.8017	-52.975295	0.000314	3.142876	1.064835	-0.000126
1403	1.3950e+02	-15.8514	-53.152929	0.000446	4.460856	1.511379	-0.000179
1404	1.3960e+02	-15.8819	-53.282117	0.000324	3.244259	1.099185	-0.000130
1405	1.3970e+02	-15.9316	-53.419380	0.000345	3.447025	1.167884	-0.000138
1406	1.3980e+02	-15.9621	-53.528383	0.000274	2.737343	0.927437	-0.000110
1407	1.3990e+02	-16.0086	-53.669683	0.000355	3.548408	1.202233	-0.000142
1408	1.4000e+02	-16.0471	-53.786759	0.000294	2.940109	0.996136	-0.000118
1409	1.4010e+02	-16.0921	-53.919985	0.000335	3.345642	1.133534	-0.000134
1410	1.4020e+02	-16.1354	-54.000728	0.000203	2.027662	0.686990	-0.000081
1411	1.4029e+02	-16.1691	-54.113767	0.000284	2.838726	0.961787	-0.000114
1412	1.4039e+02	-16.2108	-54.246993	0.000335	3.345642	1.133534	-0.000134
1413	1.4049e+02	-16.2509	-54.368107	0.000304	3.041493	1.030486	-0.000122
1414	1.4059e+02	-16.2878	-54.481147	0.000284	2.838726	0.961787	-0.000114
1415	1.4069e+02	-16.3343	-54.630521	0.000375	3.751174	1.270932	-0.000150
1416	1.4079e+02	-16.3680	-54.735486	0.000264	2.635960	0.893087	-0.000105
1417	1.4089e+02	-16.4065	-54.864675	0.000324	3.244259	1.099185	-0.000130
1418	1.4099e+02	-16.4514	-55.034234	0.000426	4.258090	1.442680	-0.000170
1419	1.4109e+02	-16.4867	-55.119014	0.000213	2.129045	0.721340	-0.000085
1420	1.4119e+02	-16.5252	-55.304722	0.000466	4.663622	1.580078	-0.000187
1421	1.4129e+02	-16.5621	-55.373354	0.000172	1.723512	0.583942	-0.000069
1422	1.4139e+02	-16.6038	-55.514654	0.000355	3.548408	1.202233	-0.000142
1423	1.4149e+02	-16.6407	-55.664028	0.000375	3.751174	1.270932	-0.000150
1424	1.4159e+02	-16.6792	-55.797253	0.000335	3.345642	1.133534	-0.000134
1425	1.4169e+02	-16.7193	-55.877996	0.000203	2.027662	0.686990	-0.000081
1426	1.4179e+02	-16.7690	-56.031407	0.000385	3.852557	1.305282	-0.000154
1427	1.4189e+02	-16.8075	-56.100038	0.000172	1.723512	0.583942	-0.000069
1428	1.4199e+02	-16.8428	-56.225189	0.000314	3.142876	1.064835	-0.000126
1429	1.4209e+02	-16.8942	-56.326118	0.000253	2.534577	0.858738	-0.000101
1430	1.4219e+02	-16.9311	-56.439158	0.000284	2.838726	0.961787	-0.000114
1431	1.4228e+02	-16.9744	-56.556235	0.000294	2.940109	0.996136	-0.000118
1432	1.4238e+02	-17.0065	-56.729831	0.000436	4.359473	1.477029	-0.000174
1433	1.4248e+02	-17.0498	-56.850945	0.000304	3.041493	1.030486	-0.000122
1434	1.4258e+02	-17.0867	-56.959948	0.000274	2.737343	0.927437	-0.000110
1435	1.4268e+02	-17.1268	-57.052802	0.000233	2.331811	0.790039	-0.000093
1436	1.4278e+02	-17.1589	-57.242548	0.000477	4.765005	1.614427	-0.000191
1437	1.4288e+02	-17.2006	-57.359625	0.000294	2.940109	0.996136	-0.000118
1438	1.4298e+02	-17.2487	-57.460553	0.000253	2.534577	0.858738	-0.000101
1439	1.4308e+02	-17.2856	-57.585704	0.000314	3.142876	1.064835	-0.000126
1440	1.4318e+02	-17.3241	-57.702781	0.000294	2.940109	0.996136	-0.000118
1441	1.4328e+02	-17.3610	-57.831969	0.000324	3.244259	1.099185	-0.000130
1442	1.4338e+02	-17.4011	-57.993455	0.000406	4.055323	1.373981	-0.000162
1443	1.4348e+02	-17.4460	-58.054012	0.000152	1.520746	0.515243	-0.000061
1444	1.4358e+02	-17.4845	-58.195312	0.000355	3.548408	1.202233	-0.000142
1445	1.4368e+02	-17.5230	-58.263943	0.000172	1.723512	0.583942	-0.000069
1446	1.4378e+02	-17.5663	-58.401206	0.000345	3.447025	1.167884	-0.000138
1447	1.4388e+02	-17.6049	-58.498097	0.000243	2.433194	0.824388	-0.000097
1448	1.4398e+02	-17.6369	-58.615174	0.000294	2.940109	0.996136	-0.000118
1449	1.4408e+02	-17.6867	-58.760511	0.000365	3.649791	1.236583	-0.000146
1450	1.4418e+02	-17.7284	-58.897773	0.000345	3.447025	1.167884	-0.000138
1451	1.4428e+02	-17.7669	-58.970442	0.000182	1.824896	0.618291	-0.000073
1452	1.4437e+02	-17.8086	-59.115779	0.000365	3.649791	1.236583	-0.000146
1453	1.4447e+02	-17.8391	-59.196521	0.000203	2.027662	0.686990	-0.000081
1454	1.4457e+02	-17.8824	-59.362044	0.000416	4.156706	1.408330	-0.000166
1455	1.4467e+02	-17.9241	-59.507381	0.000365	3.649791	1.236583	-0.000146
1456	1.4477e+02	-17.9626	-59.640606	0.000335	3.345642	1.133534	-0.000134
1457	1.4487e+02	-17.9979	-59.713275	0.000182	1.824896	0.618291	-0.000073
1458	1.4497e+02	-18.0412	-59.907057	0.000487	4.866388	1.648777	-0.000195
1459	1.4507e+02	-18.0877	-59.999911	0.000233	2.331811	0.790039	-0.000093
1460	1.4517e+02	-18.1230	-60.064506	0.000162	1.622129	0.549592	-0.000065
1461	1.4527e+02	-18.1727	-60.213880	0.000375	3.751174	1.270932	-0.000150
1462	1.4537e+02	-18.2032	-60.282511	0.000172	1.723512	0.583942	-0.000069
1463	1.4547e+02	-18.2498	-60.452071	0.000426	4.258090	1.442680	-0.000170
1464	1.4557e+02	-18.2786	-60.557036	0.000264	2.635960	0.893087	-0.000105
1465	1.4567e+02	-18.3219	-60.657964	0.000253	2.534577	0.858738	-0.000101
1466	1.4577e+02	-18.3653	-60.787153	0.000324	3.244259	1.099185	-0.000130
1467	1.4587e+02	-18.4022	-60.908267	0.000304	3.041493	1.030486	-0.000122
1468	1.4597e+02	-18.4326	-61.037455	0.000324	3.244259	1.099185	-0.000130
1469	1.4607e+02	-18.4743	-61.207015	0.000426	4.258090	1.442680	-0.000170
1470	1.4617e+02	-18.5080	-61.320055	0.000284	2.838726	0.961787	-0.000114
1471	1.4626e+02	-18.5610	-61.441169	0.000304	3.041493	1.030486	-0.000122
1472	1.4636e+02	-18.5963	-61.566320	0.000314	3.142876	1.064835	-0.000126
1473	1.4646e+02	-18.6316	-61.675323	0.000274	2.737343	0.927437	-0.000110
1474	1.4656e+02	-18.6861	-61.832771	0.000395	3.953940	1.339631	-0.000158
1475	1.4666e+02	-18.7166	-61.982145	0.000375	3.751174	1.270932	-0.000150
1476	1.4676e+02	-18.7615	-62.099222	0.000294	2.940109	0.996136	-0.000118
1477	1.4686e+02	-18.7968	-62.192076	0.000233	2.331811	0.790039	-0.000093
1478	1.4696e+02	-18.8353	-62.297042	0.000264	2.635960	0.893087	-0.000105
1479	1.4706e+02	-18.8834	-62.397970	0.000253	2.534577	0.858738	-0.000101
1480	1.4716e+02	-18.9267	-62.511010	0.000284	2.838726	0.961787	-0.000114
1481	1.4726e+02	-18.9588	-62.620012	0.000274	2.737343	0.927437	-0.000110
1482	1.4736e+02	-18.9973	-62.753238	0.000335	3.345642	1.133534	-0.000134
1483	1.4746e+02	-19.0422	-62.846092	0.000233	2.331811	0.790039	-0.000093
1484	1.4756e+02	-19.0823	-63.003540	0.000395	3.953940	1.339631	-0.000158
1485	1.4766e+02	-19.1176	-63.148877	0.000365	3.649791	1.236583	-0.000146
1486	1.4776e+02	-19.1561	-63.253843	0.000264	2.635960	0.893087	-0.000105
1487	1.4786e+02	-19.1979	-63.419365	0.000416	4.156706	1.408330	-0.000166
1488	1.4796e+02	-19.2380	-63.552591	0.000335	3.345642	1.133534	-0.000134
1489	1.4806e+02	-19.2813	-63.697928	0.000365	3.649791	1.236583	-0.000146
1490	1.4816e+02	-19.3150	-63.782708	0.000213	2.129045	0.721340	-0.000085
1491	1.4825e+02	-19.3551	-63.907859	0.000314	3.142876	1.064835	-0.000126
1492	1.4835e+02	-19.3920	-64.073381	0.000416	4.156706	1.408330	-0.000166
1493	1.4845e+02	-19.4273	-64.206607	0.000335	3.345642	1.133534	-0.000134
1494	1.4855e+02	-19.4706	-64.263127	0.000142	1.419363	0.480893	-0.000057
1495	1.4865e+02	-19.5187	-64.327721	0.000162	1.622129	0.549592	-0.000065
1496	1.4875e+02	-19.5556	-64.553800	0.000568	5.677453	1.923573	-0.000227
1497	1.4885e+02	-19.5893	-64.626469	0.000182	1.824896	0.618291	-0.000073
1498	1.4895e+02	-19.6406	-64.771806	0.000365	3.649791	1.236583	-0.000146
1499	1.4905e+02	-19.6791	-64.913106	0.000355	3.548408	1.202233	-0.000142
1500	1.4915e+02	-19.7112	-65.018071	0.000264	2.635960	0.893087	-0.000105
1501	1.4925e+02	-19.7465	-65.219928	0.000507	5.069154	1.717476	-0.000203
1502	1.4935e+02	-19.7914	-65.345079	0.000314	3.142876	1.064835	-0.000126
1503	1.4945e+02	-19.8331	-65.490416	0.000365	3.649791	1.236583	-0.000146
1504	1.4955e+02	-19.8636	-65.619604	0.000324	3.244259	1.099185	-0.000130
1505	1.4965e+02	-19.9053	-65.773015	0.000385	3.852557	1.305282	-0.000154
1506	1.4975e+02	-19.9518	-65.938538	0.000416	4.156706	1.408330	-0.000166
1507	1.4985e+02	-19.9903	-66.067726	0.000324	3.244259	1.099185	-0.000130
1508	1.4995e+02	-19.9486	-65.966798	0.000253	2.534577	0.858738	0.000101
1509	1.5005e+02	-19.9117	-65.974872	-0.000020	-0.202766	-0.068699	-0.000008
1510	1.5015e+02	-19.8684	-65.853758	0.000304	3.041493	1.030486	0.000122
1511	1.5025e+02	-19.8395	-65.764941	0.000223	2.230428	0.755689	0.000089
1512	1.5034e+02	-19.7930	-65.688236	0.000193	1.926279	0.652641	0.000077
1513	1.5044e+02	-19.7529	-65.639790	0.000122	1.216597	0.412194	0.000049
1514	1.5054e+02	-19.7144	-65.534824	0.000264	2.635960	0.893087	0.000105
1515	1.5064e+02	-19.6759	-65.502527	0.000081	0.811065	0.274796	0.000032
1516	1.5074e+02	-19.6358	-65.361228	0.000355	3.548408	1.202233	0.000142
1517	1.5084e+02	-19.6037	-65.377376	-0.000041	-0.405532	-0.137398	-0.000016
1518	1.5094e+02	-19.5524	-65.268373	0.000274	2.737343	0.927437	0.000110
1519	1.5104e+02	-19.5155	-65.195705	0.000182	1.824896	0.618291	0.000073
1520	1.5114e+02	-19.4690	-65.147259	0.000122	1.216597	0.412194	0.000049
1521	1.5124e+02	-19.4241	-65.078628	0.000172	1.723512	0.583942	0.000069
1522	1.5134e+02	-19.3968	-64.981737	0.000243	2.433194	0.824388	0.000097
1523	1.5144e+02	-19.3503	-64.917143	0.000162	1.622129	0.549592	0.000065
1524	1.5154e+02	-19.3166	-64.812177	0.000264	2.635960	0.893087	0.000105
1525	1.5164e+02	-19.2813	-64.755657	0.000142	1.419363	0.480893	0.000057
1526	1.5174e+02	-19.2364	-64.618395	0.000345	3.447025	1.167884	0.000138
1527	1.5184e+02	-19.2011	-64.586098	0.000081	0.811065	0.274796	0.000032
1528	1.5194e+02	-19.1626	-64.489206	0.000243	2.433194	0.824388	0.000097
1529	1.5204e+02	-19.1112	-64.347907	0.000355	3.548408	1.202233	0.000142
1530	1.5214e+02	-19.0791	-64.299461	0.000122	1.216597	0.412194	0.000049
1531	1.5224e+02	-19.0374	-64.162198	0.000345	3.447025	1.167884	0.000138
1532	1.5233e+02	-19.0037	-64.093567	0.000172	1.723512	0.583942	0.000069
1533	1.5243e+02	-18.9636	-63.980527	0.000284	2.838726	0.961787	0.000114
1534	1.5253e+02	-18.9203	-63.907859	0.000182	1.824896	0.618291	0.000073
1535	1.5263e+02	-18.8770	-63.883636	0.000061	0.608299	0.206097	0.000024
1536	1.5273e+02	-18.8353	-63.734262	0.000375	3.751174	1.270932	0.000150
1537	1.5283e+02	-18.8000	-63.710039	0.000061	0.608299	0.206097	0.000024
1538	1.5293e+02	-18.7583	-63.592962	0.000294	2.940109	0.996136	0.000118
1539	1.5303e+02	-18.7182	-63.504145	0.000223	2.230428	0.755689	0.000089
1540	1.5313e+02	-18.6813	-63.475885	0.000071	0.709682	0.240447	0.000028
1541	1.5323e+02	-18.6428	-63.354771	0.000304	3.041493	1.030486	0.000122
1542	1.5333e+02	-18.5995	-63.286140	0.000172	1.723512	0.583942	0.000069
1543	1.5343e+02	-18.5642	-63.177137	0.000274	2.737343	0.927437	0.000110
1544	1.5353e+02	-18.5257	-63.088320	0.000223	2.230428	0.755689	0.000089
1545	1.5363e+02	-18.4888	-62.999503	0.000223	2.230428	0.755689	0.000089
1546	1.5373e+02	-18.4471	-62.829943	0.000426	4.258090	1.442680	0.000170
1547	1.5383e+02	-18.4134	-62.741127	0.000223	2.230428	0.755689	0.000089
1548	1.5393e+02	-18.3653	-62.696718	0.000112	1.115214	0.377845	0.000045
1549	1.5403e+02	-18.3171	-62.559455	0.000345	3.447025	1.167884	0.000138
1550	1.5413e+02	-18.2818	-62.498898	0.000152	1.520746	0.515243	0.000061
1551	1.5422e+02	-18.2481	-62.345487	0.000385	3.852557	1.305282	0.000154
1552	1.5432e+02	-18.2032	-62.313190	0.000081	0.811065	0.274796	0.000032
1553	1.5442e+02	-18.1599	-62.236485	0.000193	1.926279	0.652641	0.000077
1554	1.5452e+02	-18.1262	-62.139593	0.000243	2.433194	0.824388	0.000097
1555	1.5462e+02	-18.0813	-62.066925	0.000182	1.824896	0.618291	0.000073
1556	1.5472e+02	-18.0460	-61.957922	0.000274	2.737343	0.927437	0.000110
1557	1.5482e+02	-18.0011	-61.840845	0.000294	2.940109	0.996136	0.000118
1558	1.5492e+02	-17.9626	-61.780288	0.000152	1.520746	0.515243	0.000061
1559	1.5502e+02	-17.9209	-61.683397	0.000243	2.433194	0.824388	0.000097
1560	1.5512e+02	-17.8792	-61.574394	0.000274	2.737343	0.927437	0.000110
1561	1.5522e+02	-17.8471	-61.493652	0.000203	2.027662	0.686990	0.000081
1562	1.5532e+02	-17.8070	-61.388686	0.000264	2.635960	0.893087	0.000105
1563	1.5542e+02	-17.7540	-61.303906	0.000213	2.129045	0.721340	0.000085
1564	1.5552e+02	-17.7188	-61.154532	0.000375	3.751174	1.270932	0.000150
1565	1.5562e+02	-17.6867	-61.065715	0.000223	2.230428	0.755689	0.000089
1566	1.5572e+02	-17.6450	-60.972861	0.000233	2.331811	0.790039	0.000093
1567	1.5582e+02	-17.6000	-60.847710	0.000314	3.142876	1.064835	0.000126
1568	1.5592e+02	-17.5680	-60.754856	0.000233	2.331811	0.790039	0.000093
1569	1.5602e+02	-17.5278	-60.714484	0.000101	1.013831	0.343495	0.000041
1570	1.5612e+02	-17.4829	-60.613556	0.000253	2.534577	0.858738	0.000101
1571	1.5622e+02	-17.4428	-60.540888	0.000182	1.824896	0.618291	0.000073
1572	1.5631e+02	-17.4043	-60.407662	0.000335	3.345642	1.133534	0.000134
1573	1.5641e+02	-17.3626	-60.351142	0.000142	1.419363	0.480893	0.000057
1574	1.5651e+02	-17.3209	-60.294622	0.000142	1.419363	0.480893	0.000057
1575	1.5661e+02	-17.2856	-60.149285	0.000365	3.649791	1.236583	0.000146
1576	1.5671e+02	-17.2407	-60.076617	0.000182	1.824896	0.618291	0.000073
1577	1.5681e+02	-17.2006	-59.955503	0.000304	3.041493	1.030486	0.000122
1578	1.5691e+02	-17.1701	-59.886872	0.000172	1.723512	0.583942	0.000069
1579	1.5701e+02	-17.1316	-59.794017	0.000233	2.331811	0.790039	0.000093
1580	1.5711e+02	-17.0883	-59.652718	0.000355	3.548408	1.202233	0.000142
1581	1.5721e+02	-17.0402	-59.567938	0.000213	2.129045	0.721340	0.000085
1582	1.5731e+02	-17.0033	-59.418564	0.000375	3.751174	1.270932	0.000150
1583	1.5741e+02	-16.9696	-59.325710	0.000233	2.331811	0.790039	0.000093
1584	1.5751e+02	-16.9231	-59.228818	0.000243	2.433194	0.824388	0.000097
1585	1.5761e+02	-16.8926	-59.152113	0.000193	1.926279	0.652641	0.000077
1586	1.5771e+02	-16.8412	-59.014850	0.000345	3.447025	1.167884	0.000138
1587	1.5781e+02	-16.8108	-58.962367	0.000132	1.317980	0.446544	0.000053
1588	1.5791e+02	-16.7674	-58.857402	0.000264	2.635960	0.893087	0.000105
1589	1.5801e+02	-16.7241	-58.756474	0.000253	2.534577	0.858738	0.000101
1590	1.5811e+02	-16.6872	-58.667657	0.000223	2.230428	0.755689	0.000089
1591	1.5821e+02	-16.6423	-58.558654	0.000274	2.737343	0.927437	0.000110
1592	1.5830e+02	-16.6038	-58.485985	0.000182	1.824896	0.618291	0.000073
1593	1.5840e+02	-16.5669	-58.356797	0.000324	3.244259	1.099185	0.000130
1594	1.5850e+02	-16.5332	-58.308351	0.000122	1.216597	0.412194	0.000049
1595	1.5860e+02	-16.4931	-58.130717	0.000446	4.460856	1.511379	0.000179
1596	1.5870e+02	-16.4482	-58.078235	0.000132	1.317980	0.446544	0.000053
1597	1.5880e+02	-16.4113	-57.949046	0.000324	3.244259	1.099185	0.000130
1598	1.5890e+02	-16.3696	-57.852155	0.000243	2.433194	0.824388	0.000097
1599	1.5900e+02	-16.3279	-57.694707	0.000395	3.953940	1.339631	0.000158
1600	1.5910e+02	-16.2910	-57.589741	0.000264	2.635960	0.893087	0.000105
1601	1.5920e+02	-16.2621	-57.452479	0.000345	3.447025	1.167884	0.000138
1602	1.5930e+02	-16.2156	-57.383847	0.000172	1.723512	0.583942	0.000069
1603	1.5940e+02	-16.1707	-57.274845	0.000274	2.737343	0.927437	0.000110
1604	1.5950e+02	-16.1241	-57.173916	0.000253	2.534577	0.858738	0.000101
1605	1.5960e+02	-16.0840	-57.097211	0.000193	1.926279	0.652641	0.000077
1606	1.5970e+02	-16.0536	-56.996282	0.000253	2.534577	0.858738	0.000101
1607	1.5980e+02	-16.0118	-56.891317	0.000264	2.635960	0.893087	0.000105
1608	1.5990e+02	-15.9621	-56.766166	0.000314	3.142876	1.064835	0.000126
1609	1.6000e+02	-15.9220	-56.693497	0.000182	1.824896	0.618291	0.000073
1610	1.6010e+02	-15.8915	-56.564309	0.000324	3.244259	1.099185	0.000130
1611	1.6019e+02	-15.8514	-56.475492	0.000223	2.230428	0.755689	0.000089
1612	1.6029e+02	-15.8161	-56.386675	0.000223	2.230428	0.755689	0.000089
1613	1.6039e+02	-15.7696	-56.281709	0.000264	2.635960	0.893087	0.000105
1614	1.6049e+02	-15.7295	-56.132335	0.000375	3.751174	1.270932	0.000150
1615	1.6059e+02	-15.6878	-56.015258	0.000294	2.940109	0.996136	0.000118
1616	1.6069e+02	-15.6605	-55.902219	0.000284	2.838726	0.961787	0.000114
1617	1.6079e+02	-15.6188	-55.748807	0.000385	3.852557	1.305282	0.000154
1618	1.6089e+02	-15.5739	-55.659990	0.000223	2.230428	0.755689	0.000089
1619	1.6099e+02	-15.5370	-55.571173	0.000223	2.230428	0.755689	0.000089
1620	1.6109e+02	-15.4937	-55.429874	0.000355	3.548408	1.202233	0.000142
1621	1.6119e+02	-15.4536	-55.337020	0.000233	2.331811	0.790039	0.000093
1622	1.6129e+02	-15.4183	-55.276463	0.000152	1.520746	0.515243	0.000061
1623	1.6139e+02	-15.3702	-55.167460	0.000274	2.737343	0.927437	0.000110
1624	1.6149e+02	-15.3317	-55.066531	0.000253	2.534577	0.858738	0.000101
1625	1.6159e+02	-15.2883	-54.949455	0.000294	2.940109	0.996136	0.000118
1626	1.6169e+02	-15.2514	-54.804118	0.000365	3.649791	1.236583	0.000146
1627	1.6179e+02	-15.2129	-54.751635	0.000132	1.317980	0.446544	0.000053
1628	1.6189e+02	-15.1744	-54.565927	0.000466	4.663622	1.580078	0.000187
1629	1.6199e+02	-15.1359	-54.505370	0.000152	1.520746	0.515243	0.000061
1630	1.6209e+02	-15.0958	-54.392330	0.000284	2.838726	0.961787	0.000114
1631	1.6219e+02	-15.0525	-54.287364	0.000264	2.635960	0.893087	0.000105
1632	1.6228e+02	-15.0140	-54.186436	0.000253	2.534577	0.858738	0.000101
1633	1.6238e+02	-14.9755	-54.077433	0.000274	2.737343	0.927437	0.000110
1634	1.6248e+02	-14.9418	-53.924022	0.000385	3.852557	1.305282	0.000154
1635	1.6258e+02	-14.9017	-53.762537	0.000406	4.055323	1.373981	0.000162
1636	1.6268e+02	-14.8488	-53.697942	0.000162	1.622129	0.549592	0.000065
1637	1.6278e+02	-14.8071	-53.548568	0.000375	3.751174	1.270932	0.000150
1638	1.6288e+02	-14.7718	-53.475900	0.000182	1.824896	0.618291	0.000073
1639	1.6298e+02	-14.7236	-53.366897	0.000274	2.737343	0.927437	0.000110
1640	1.6308e+02	-14.6964	-53.249820	0.000294	2.940109	0.996136	0.000118
1641	1.6318e+02	-14.6515	-53.173115	0.000193	1.926279	0.652641	0.000077
1642	1.6328e+02	-14.6162	-53.064112	0.000274	2.737343	0.927437	0.000110
1643	1.6338e+02	-14.5712	-52.942998	0.000304	3.041493	1.030486	0.000122
1644	1.6348e+02	-14.5343	-52.858218	0.000213	2.129045	0.721340	0.000085
1645	1.6358e+02	-14.4958	-52.692696	0.000416	4.156706	1.408330	0.000166
1646	1.6368e+02	-14.4606	-52.579656	0.000284	2.838726	0.961787	0.000114
1647	1.6378e+02	-14.4092	-52.519099	0.000152	1.520746	0.515243	0.000061
1648	1.6388e+02	-14.3723	-52.389910	0.000324	3.244259	1.099185	0.000130
1649	1.6398e+02	-14.3370	-52.252648	0.000345	3.447025	1.167884	0.000138
1650	1.6408e+02	-14.2969	-52.139608	0.000284	2.838726	0.961787	0.000114
1651	1.6418e+02	-14.2600	-51.998308	0.000355	3.548408	1.202233	0.000142
1652	1.6427e+02	-14.2167	-51.840860	0.000395	3.953940	1.339631	0.000158
1653	1.6437e+02	-14.1766	-51.715709	0.000314	3.142876	1.064835	0.000126
1654	1.6447e+02	-14.1429	-51.655152	0.000152	1.520746	0.515243	0.000061
1655	1.6457e+02	-14.0980	-51.473481	0.000456	4.562239	1.545728	0.000183
1656	1.6467e+02	-14.0418	-51.420998	0.000132	1.317980	0.446544	0.000053
1657	1.6477e+02	-14.0066	-51.320070	0.000253	2.534577	0.858738	0.000101
1658	1.6487e+02	-13.9745	-51.178770	0.000355	3.548408	1.202233	0.000142
1659	1.6497e+02	-13.9344	-51.106101	0.000182	1.824896	0.618291	0.000073
1660	1.6507e+02	-13.8878	-50.989024	0.000294	2.940109	0.996136	0.000118
1661	1.6517e+02	-13.8526	-50.851762	0.000345	3.447025	1.167884	0.000138
1662	1.6527e+02	-13.8189	-50.726611	0.000314	3.142876	1.064835	0.000126
1663	1.6537e+02	-13.7884	-50.637794	0.000223	2.230428	0.755689	0.000089
1664	1.6547e+02	-13.7386	-50.500531	0.000345	3.447025	1.167884	0.000138
1665	1.6557e+02	-13.6969	-50.371343	0.000324	3.244259	1.099185	0.000130
1666	1.6567e+02	-13.6633	-50.258303	0.000284	2.838726	0.961787	0.000114
1667	1.6577e+02	-13.6215	-50.133152	0.000314	3.142876	1.064835	0.000126
1668	1.6587e+02	-13.5862	-50.088743	0.000112	1.115214	0.377845	0.000045
1669	1.6597e+02	-13.5461	-49.886886	0.000507	5.069154	1.717476	0.000203
1670	1.6607e+02	-13.4964	-49.806144	0.000203	2.027662	0.686990	0.000081
1671	1.6616e+02	-13.4659	-49.656770	0.000375	3.751174	1.270932	0.000150
1672	1.6626e+02	-13.4114	-49.555841	0.000253	2.534577	0.858738	0.000101
1673	1.6636e+02	-13.3777	-49.458950	0.000243	2.433194	0.824388	0.000097
1674	1.6646e+02	-13.3280	-49.358022	0.000253	2.534577	0.858738	0.000101
1675	1.6656e+02	-13.2959	-49.249019	0.000274	2.737343	0.927437	0.000110
1676	1.6666e+02	-13.2590	-49.164239	0.000213	2.129045	0.721340	0.000085
1677	1.6676e+02	-13.2189	-49.010828	0.000385	3.852557	1.305282	0.000154
1678	1.6686e+02	-13.1772	-48.909899	0.000253	2.534577	0.858738	0.000101
1679	1.6696e+02	-13.1467	-48.776674	0.000335	3.345642	1.133534	0.000134
1680	1.6706e+02	-13.0970	-48.683820	0.000233	2.331811	0.790039	0.000093
1681	1.6716e+02	-13.0633	-48.582891	0.000253	2.534577	0.858738	0.000101
1682	1.6726e+02	-13.0167	-48.449666	0.000335	3.345642	1.133534	0.000134
1683	1.6736e+02	-12.9750	-48.344700	0.000264	2.635960	0.893087	0.000105
1684	1.6746e+02	-12.9494	-48.231661	0.000284	2.838726	0.961787	0.000114
1685	1.6756e+02	-12.9061	-48.090361	0.000355	3.548408	1.202233	0.000142
1686	1.6766e+02	-12.8676	-47.936950	0.000385	3.852557	1.305282	0.000154
1687	1.6776e+02	-12.8258	-47.807761	0.000324	3.244259	1.099185	0.000130
1688	1.6786e+02	-12.7777	-47.698759	0.000274	2.737343	0.927437	0.000110
1689	1.6796e+02	-12.7312	-47.605905	0.000233	2.331811	0.790039	0.000093
1690	1.6806e+02	-12.7055	-47.561496	0.000112	1.115214	0.377845	0.000045
1691	1.6816e+02	-12.6606	-47.408085	0.000385	3.852557	1.305282	0.000154
1692	1.6825e+02	-12.6237	-47.319268	0.000223	2.230428	0.755689	0.000089
1693	1.6835e+02	-12.5804	-47.177968	0.000355	3.548408	1.202233	0.000142
1694	1.6845e+02	-12.5467	-47.077040	0.000253	2.534577	0.858738	0.000101
1695	1.6855e+02	-12.5034	-46.943814	0.000335	3.345642	1.133534	0.000134
1696	1.6865e+02	-12.4665	-46.879220	0.000162	1.622129	0.549592	0.000065
1697	1.6875e+02	-12.4344	-46.733883	0.000365	3.649791	1.236583	0.000146
1698	1.6885e+02	-12.3783	-46.628918	0.000264	2.635960	0.893087	0.000105
1699	1.6895e+02	-12.3462	-46.511841	0.000294	2.940109	0.996136	0.000118
1700	1.6905e+02	-12.3109	-46.378615	0.000335	3.345642	1.133534	0.000134
1701	1.6915e+02	-12.2676	-46.289798	0.000223	2.230428	0.755689	0.000089
1702	1.6925e+02	-12.2323	-46.148499	0.000355	3.548408	1.202233	0.000142
1703	1.6935e+02	-12.1858	-46.031422	0.000294	2.940109	0.996136	0.000118
1704	1.6945e+02	-12.1489	-45.930493	0.000253	2.534577	0.858738	0.000101
1705	1.6955e+02	-12.1007	-45.769008	0.000406	4.055323	1.373981	0.000162
1706	1.6965e+02	-12.0735	-45.684228	0.000213	2.129045	0.721340	0.000085
1707	1.6975e+02	-12.0221	-45.546965	0.000345	3.447025	1.167884	0.000138
1708	1.6985e+02	-11.9852	-45.462186	0.000213	2.129045	0.721340	0.000085
1709	1.6995e+02	-11.9451	-45.357220	0.000264	2.635960	0.893087	0.000105
1710	1.7005e+02	-11.9050	-45.260329	0.000243	2.433194	0.824388	0.000097
1711	1.7015e+02	-11.8713	-45.151326	0.000274	2.737343	0.927437	0.000110
1712	1.7024e+02	-11.8376	-45.034249	0.000294	2.940109	0.996136	0.000118
1713	1.7034e+02	-11.7911	-44.896987	0.000345	3.447025	1.167884	0.000138
1714	1.7044e+02	-11.7494	-44.783947	0.000284	2.838726	0.961787	0.000114
1715	1.7054e+02	-11.7077	-44.695130	0.000223	2.230428	0.755689	0.000089
1716	1.7064e+02	-11.6612	-44.569979	0.000314	3.142876	1.064835	0.000126
1717	1.7074e+02	-11.6371	-44.469050	0.000253	2.534577	0.858738	0.000101
1718	1.7084e+02	-11.5922	-44.307565	0.000406	4.055323	1.373981	0.000162
1719	1.7094e+02	-11.5537	-44.222785	0.000213	2.129045	0.721340	0.000085
1720	1.7104e+02	-11.5152	-44.125894	0.000243	2.433194	0.824388	0.000097
1721	1.7114e+02	-11.4622	-43.968445	0.000395	3.953940	1.339631	0.000158
1722	1.7124e+02	-11.4253	-43.835220	0.000335	3.345642	1.133534	0.000134
1723	1.7134e+02	-11.4045	-43.718143	0.000294	2.940109	0.996136	0.000118
1724	1.7144e+02	-11.3451	-43.621252	0.000243	2.433194	0.824388	0.000097
1725	1.7154e+02	-11.3098	-43.512249	0.000274	2.737343	0.927437	0.000110
1726	1.7164e+02	-11.2601	-43.435543	0.000193	1.926279	0.652641	0.000077
1727	1.7174e+02	-11.2280	-43.310392	0.000314	3.142876	1.064835	0.000126
1728	1.7184e+02	-11.1831	-43.197352	0.000284	2.838726	0.961787	0.000114
1729	1.7194e+02	-11.1446	-43.068164	0.000324	3.244259	1.099185	0.000130
1730	1.7204e+02	-11.1141	-42.918790	0.000375	3.751174	1.270932	0.000150
1731	1.7213e+02	-11.0724	-42.842084	0.000193	1.926279	0.652641	0.000077
1732	1.7223e+02	-11.0275	-42.720970	0.000304	3.041493	1.030486	0.000122
1733	1.7233e+02	-10.9906	-42.624079	0.000243	2.433194	0.824388	0.000097
1734	1.7243e+02	-10.9441	-42.507002	0.000294	2.940109	0.996136	0.000118
1735	1.7253e+02	-10.9056	-42.373777	0.000335	3.345642	1.133534	0.000134
1736	1.7263e+02	-10.8783	-42.236514	0.000345	3.447025	1.167884	0.000138
1737	1.7273e+02	-10.8270	-42.192106	0.000112	1.115214	0.377845	0.000045
1738	1.7283e+02	-10.7917	-42.083103	0.000274	2.737343	0.927437	0.000110
1739	1.7293e+02	-10.7532	-41.905469	0.000446	4.460856	1.511379	0.000179
1740	1.7303e+02	-10.7147	-41.780318	0.000314	3.142876	1.064835	0.000126
1741	1.7313e+02	-10.6665	-41.647092	0.000335	3.345642	1.133534	0.000134
1742	1.7323e+02	-10.6313	-41.558275	0.000223	2.230428	0.755689	0.000089
1743	1.7333e+02	-10.5879	-41.441198	0.000294	2.940109	0.996136	0.000118
1744	1.7343e+02	-10.5526	-41.332196	0.000274	2.737343	0.927437	0.000110
1745	1.7353e+02	-10.5093	-41.203007	0.000324	3.244259	1.099185	0.000130
1746	1.7363e+02	-10.4708	-41.134376	0.000172	1.723512	0.583942	0.000069
1747	1.7373e+02	-10.4227	-40.993076	0.000355	3.548408	1.202233	0.000142
1748	1.7383e+02	-10.3890	-40.875999	0.000294	2.940109	0.996136	0.000118
1749	1.7393e+02	-10.3457	-40.799294	0.000193	1.926279	0.652641	0.000077
1750	1.7403e+02	-10.3120	-40.649920	0.000375	3.751174	1.270932	0.000150
1751	1.7413e+02	-10.2687	-40.557066	0.000233	2.331811	0.790039	0.000093
1752	1.7422e+02	-10.2302	-40.439989	0.000294	2.940109	0.996136	0.000118
1753	1.7432e+02	-10.1965	-40.314837	0.000314	3.142876	1.064835	0.000126
1754	1.7442e+02	-10.1452	-40.149315	0.000416	4.156706	1.408330	0.000166
1755	1.7452e+02	-10.1147	-40.068572	0.000203	2.027662	0.686990	0.000081
1756	1.7462e+02	-10.0730	-39.903050	0.000416	4.156706	1.408330	0.000166
1757	1.7472e+02	-10.0313	-39.806158	0.000243	2.433194	0.824388	0.000097
1758	1.7482e+02	-9.9863	-39.652747	0.000385	3.852557	1.305282	0.000154
1759	1.7492e+02	-9.9575	-39.523559	0.000324	3.244259	1.099185	0.000130
1760	1.7502e+02	-9.9110	-39.434742	0.000223	2.230428	0.755689	0.000089
1761	1.7512e+02	-9.8724	-39.325739	0.000274	2.737343	0.927437	0.000110
1762	1.7522e+02	-9.8323	-39.204625	0.000304	3.041493	1.030486	0.000122
1763	1.7532e+02	-9.7874	-39.055251	0.000375	3.751174	1.270932	0.000150
1764	1.7542e+02	-9.7553	-38.970471	0.000213	2.129045	0.721340	0.000085
1765	1.7552e+02	-9.7040	-38.825134	0.000365	3.649791	1.236583	0.000146
1766	1.7562e+02	-9.6671	-38.748429	0.000193	1.926279	0.652641	0.000077
1767	1.7572e+02	-9.6430	-38.607129	0.000355	3.548408	1.202233	0.000142
1768	1.7582e+02	-9.5981	-38.465829	0.000355	3.548408	1.202233	0.000142
1769	1.7592e+02	-9.5564	-38.372975	0.000233	2.331811	0.790039	0.000093
1770	1.7602e+02	-9.5179	-38.227638	0.000365	3.649791	1.236583	0.000146
1771	1.7612e+02	-9.4762	-38.110561	0.000294	2.940109	0.996136	0.000118
1772	1.7621e+02	-9.4297	-38.005596	0.000264	2.635960	0.893087	0.000105
1773	1.7631e+02	-9.3976	-37.900630	0.000264	2.635960	0.893087	0.000105
1774	1.7641e+02	-9.3591	-37.755293	0.000365	3.649791	1.236583	0.000146
1775	1.7651e+02	-9.3206	-37.613994	0.000355	3.548408	1.202233	0.000142
1776	1.7661e+02	-9.2741	-37.428285	0.000466	4.663622	1.580078	0.000187
1777	1.7671e+02	-9.2372	-37.343506	0.000213	2.129045	0.721340	0.000085
1778	1.7681e+02	-9.1890	-37.234503	0.000274	2.737343	0.927437	0.000110
1779	1.7691e+02	-9.1602	-37.109352	0.000314	3.142876	1.064835	0.000126
1780	1.7701e+02	-9.1088	-36.976126	0.000335	3.345642	1.133534	0.000134
1781	1.7711e+02	-9.0735	-36.895384	0.000203	2.027662	0.686990	0.000081
1782	1.7721e+02	-9.0399	-36.790418	0.000264	2.635960	0.893087	0.000105
1783	1.7731e+02	-8.9997	-36.600673	0.000477	4.765005	1.614427	0.000191
1784	1.7741e+02	-8.9628	-36.499744	0.000253	2.534577	0.858738	0.000101
1785	1.7751e+02	-8.9227	-36.338259	0.000406	4.055323	1.373981	0.000162
1786	1.7761e+02	-8.8810	-36.209070	0.000324	3.244259	1.099185	0.000130
1787	1.7771e+02	-8.8361	-36.136402	0.000182	1.824896	0.618291	0.000073
1788	1.7781e+02	-8.8024	-35.974917	0.000406	4.055323	1.373981	0.000162
1789	1.7791e+02	-8.7575	-35.878025	0.000243	2.433194	0.824388	0.000097
1790	1.7801e+02	-8.7206	-35.760948	0.000294	2.940109	0.996136	0.000118
1791	1.7810e+02	-8.6741	-35.591389	0.000426	4.258090	1.442680	0.000170
1792	1.7820e+02	-8.6452	-35.510646	0.000203	2.027662	0.686990	0.000081
1793	1.7830e+02	-8.5971	-35.357235	0.000385	3.852557	1.305282	0.000154
1794	1.7840e+02	-8.5586	-35.248232	0.000274	2.737343	0.927437	0.000110
1795	1.7850e+02	-8.5249	-35.123081	0.000314	3.142876	1.064835	0.000126
1796	1.7860e+02	-8.4800	-34.997930	0.000314	3.142876	1.064835	0.000126
1797	1.7870e+02	-8.4495	-34.836444	0.000406	4.055323	1.373981	0.000162
1798	1.7880e+02	-8.3982	-34.727442	0.000274	2.737343	0.927437	0.000110
1799	1.7890e+02	-8.3516	-34.594216	0.000335	3.345642	1.133534	0.000134
1800	1.7900e+02	-8.3212	-34.428694	0.000416	4.156706	1.408330	0.000166
1801	1.7910e+02	-8.2907	-34.339877	0.000223	2.230428	0.755689	0.000089
1802	1.7920e+02	-8.2329	-34.202614	0.000345	3.447025	1.167884	0.000138
1803	1.7930e+02	-8.2121	-34.093611	0.000274	2.737343	0.927437	0.000110
1804	1.7940e+02	-8.1655	-33.980572	0.000284	2.838726	0.961787	0.000114
1805	1.7950e+02	-8.1238	-33.851383	0.000324	3.244259	1.099185	0.000130
1806	1.7960e+02	-8.0885	-33.710083	0.000355	3.548408	1.202233	0.000142
1807	1.7970e+02	-8.0388	-33.568784	0.000355	3.548408	1.202233	0.000142
1808	1.7980e+02	-8.0083	-33.467855	0.000253	2.534577	0.858738	0.000101
1809	1.7990e+02	-7.9714	-33.322518	0.000365	3.649791	1.236583	0.000146
1810	1.8000e+02	-7.9265	-33.193330	0.000324	3.244259	1.099185	0.000130
1811	1.8009e+02	-7.8784	-33.088365	0.000264	2.635960	0.893087	0.000105
1812	1.8019e+02	-7.8319	-32.918805	0.000426	4.258090	1.442680	0.000170
1813	1.8029e+02	-7.8110	-32.805765	0.000284	2.838726	0.961787	0.000114
1814	1.8039e+02	-7.7629	-32.680614	0.000314	3.142876	1.064835	0.000126
1815	1.8049e+02	-7.7196	-32.547388	0.000335	3.345642	1.133534	0.000134
1816	1.8059e+02	-7.6730	-32.402051	0.000365	3.649791	1.236583	0.000146
1817	1.8069e+02	-7.6410	-32.297086	0.000264	2.635960	0.893087	0.000105
1818	1.8079e+02	-7.6009	-32.151749	0.000365	3.649791	1.236583	0.000146
1819	1.8089e+02	-7.5688	-32.030635	0.000304	3.041493	1.030486	0.000122
1820	1.8099e+02	-7.5239	-31.897409	0.000335	3.345642	1.133534	0.000134
1821	1.8109e+02	-7.4902	-31.735924	0.000406	4.055323	1.373981	0.000162
1822	1.8119e+02	-7.4388	-31.643070	0.000233	2.331811	0.790039	0.000093
1823	1.8129e+02	-7.4051	-31.489659	0.000385	3.852557	1.305282	0.000154
1824	1.8139e+02	-7.3586	-31.356433	0.000335	3.345642	1.133534	0.000134
1825	1.8149e+02	-7.3297	-31.227245	0.000324	3.244259	1.099185	0.000130
1826	1.8159e+02	-7.2896	-31.118242	0.000274	2.737343	0.927437	0.000110
1827	1.8169e+02	-7.2447	-30.948683	0.000426	4.258090	1.442680	0.000170
1828	1.8179e+02	-7.2078	-30.815457	0.000335	3.345642	1.133534	0.000134
1829	1.8189e+02	-7.1741	-30.690306	0.000314	3.142876	1.064835	0.000126
1830	1.8199e+02	-7.1212	-30.557080	0.000335	3.345642	1.133534	0.000134
1831	1.8209e+02	-7.0859	-30.391558	0.000416	4.156706	1.408330	0.000166
1832	1.8218e+02	-7.0458	-30.266407	0.000314	3.142876	1.064835	0.000126
1833	1.8228e+02	-7.0089	-30.157404	0.000274	2.737343	0.927437	0.000110
1834	1.8238e+02	-6.9688	-30.003993	0.000385	3.852557	1.305282	0.000154
1835	1.8248e+02	-6.9191	-29.915176	0.000223	2.230428	0.755689	0.000089
1836	1.8258e+02	-6.8902	-29.794062	0.000304	3.041493	1.030486	0.000122
1837	1.8268e+02	-6.8533	-29.644688	0.000375	3.751174	1.270932	0.000150
1838	1.8278e+02	-6.8003	-29.547796	0.000243	2.433194	0.824388	0.000097
1839	1.8288e+02	-6.7650	-29.402460	0.000365	3.649791	1.236583	0.000146
1840	1.8298e+02	-6.7346	-29.261160	0.000355	3.548408	1.202233	0.000142
1841	1.8308e+02	-6.6848	-29.127934	0.000335	3.345642	1.133534	0.000134
1842	1.8318e+02	-6.6463	-29.027006	0.000253	2.534577	0.858738	0.000101
1843	1.8328e+02	-6.6030	-28.877632	0.000375	3.751174	1.270932	0.000150
1844	1.8338e+02	-6.5725	-28.740369	0.000345	3.447025	1.167884	0.000138
1845	1.8348e+02	-6.5340	-28.590995	0.000375	3.751174	1.270932	0.000150
1846	1.8358e+02	-6.4891	-28.461807	0.000324	3.244259	1.099185	0.000130
1847	1.8368e+02	-6.4442	-28.348767	0.000284	2.838726	0.961787	0.000114
1848	1.8378e+02	-6.4185	-28.251876	0.000243	2.433194	0.824388	0.000097
1849	1.8388e+02	-6.3720	-28.074242	0.000446	4.460856	1.511379	0.000179
1850	1.8398e+02	-6.3223	-27.969276	0.000264	2.635960	0.893087	0.000105
1851	1.8407e+02	-6.2854	-27.832014	0.000345	3.447025	1.167884	0.000138
1852	1.8417e+02	-6.2517	-27.718974	0.000284	2.838726	0.961787	0.000114
1853	1.8427e+02	-6.2020	-27.597860	0.000304	3.041493	1.030486	0.000122
1854	1.8437e+02	-6.1747	-27.444449	0.000385	3.852557	1.305282	0.000154
1855	1.8447e+02	-6.1250	-27.311223	0.000335	3.345642	1.133534	0.000134
1856	1.8457e+02	-6.0977	-27.214332	0.000243	2.433194	0.824388	0.000097
1857	1.8467e+02	-6.0544	-27.081107	0.000335	3.345642	1.133534	0.000134
1858	1.8477e+02	-6.0159	-26.955955	0.000314	3.142876	1.064835	0.000126
1859	1.8487e+02	-5.9694	-26.774284	0.000456	4.562239	1.545728	0.000183
1860	1.8497e+02	-5.9308	-26.677393	0.000243	2.433194	0.824388	0.000097
1861	1.8507e+02	-5.9004	-26.556279	0.000304	3.041493	1.030486	0.000122
1862	1.8517e+02	-5.8554	-26.419016	0.000345	3.447025	1.167884	0.000138
1863	1.8527e+02	-5.8153	-26.293865	0.000314	3.142876	1.064835	0.000126
1864	1.8537e+02	-5.7752	-26.144491	0.000375	3.751174	1.270932	0.000150
1865	1.8547e+02	-5.7271	-26.003191	0.000355	3.548408	1.202233	0.000142
1866	1.8557e+02	-5.6966	-25.902263	0.000253	2.534577	0.858738	0.000101
1867	1.8567e+02	-5.6581	-25.765000	0.000345	3.447025	1.167884	0.000138
1868	1.8577e+02	-5.6100	-25.631775	0.000335	3.345642	1.133534	0.000134
1869	1.8587e+02	-5.5715	-25.510661	0.000304	3.041493	1.030486	0.000122
1870	1.8597e+02	-5.5314	-25.385510	0.000314	3.142876	1.064835	0.000126
1871	1.8606e+02	-5.4929	-25.264395	0.000304	3.041493	1.030486	0.000122
1872	1.8616e+02	-5.4528	-25.131170	0.000335	3.345642	1.133534	0.000134
1873	1.8626e+02	-5.4079	-25.018130	0.000284	2.838726	0.961787	0.000114
1874	1.8636e+02	-5.3806	-24.868756	0.000375	3.751174	1.270932	0.000150
1875	1.8646e+02	-5.3357	-24.727456	0.000355	3.548408	1.202233	0.000142
1876	1.8656e+02	-5.2988	-24.610379	0.000294	2.940109	0.996136	0.000118
1877	1.8666e+02	-5.2603	-24.489265	0.000304	3.041493	1.030486	0.000122
1878	1.8676e+02	-5.2122	-24.347966	0.000355	3.548408	1.202233	0.000142
1879	1.8686e+02	-5.1817	-24.218777	0.000324	3.244259	1.099185	0.000130
1880	1.8696e+02	-5.1319	-24.045180	0.000436	4.359473	1.477029	0.000174
1881	1.8706e+02	-5.0983	-23.936178	0.000274	2.737343	0.927437	0.000110
1882	1.8716e+02	-5.0581	-23.839287	0.000243	2.433194	0.824388	0.000097
1883	1.8726e+02	-5.0148	-23.714135	0.000314	3.142876	1.064835	0.000126
1884	1.8736e+02	-4.9779	-23.568798	0.000365	3.649791	1.236583	0.000146
1885	1.8746e+02	-4.9314	-23.459796	0.000274	2.737343	0.927437	0.000110
1886	1.8756e+02	-4.8929	-23.249865	0.000527	5.271920	1.786175	0.000211
1887	1.8766e+02	-4.8576	-23.136825	0.000284	2.838726	0.961787	0.000114
1888	1.8776e+02	-4.8175	-23.027822	0.000274	2.737343	0.927437	0.000110
1889	1.8786e+02	-4.7710	-22.902671	0.000314	3.142876	1.064835	0.000126
1890	1.8796e+02	-4.7437	-22.785594	0.000294	2.940109	0.996136	0.000118
1891	1.8806e+02	-4.6940	-22.636220	0.000375	3.751174	1.270932	0.000150
1892	1.8815e+02	-4.6539	-22.547403	0.000223	2.230428	0.755689	0.000089
1893	1.8825e+02	-4.6025	-22.410140	0.000345	3.447025	1.167884	0.000138
1894	1.8835e+02	-4.5785	-22.284989	0.000314	3.142876	1.064835	0.000126
1895	1.8845e+02	-4.5304	-22.143690	0.000355	3.548408	1.202233	0.000142
1896	1.8855e+02	-4.5015	-21.990278	0.000385	3.852557	1.305282	0.000154
1897	1.8865e+02	-4.4678	-21.840904	0.000375	3.751174	1.270932	0.000150
1898	1.8875e+02	-4.4132	-21.768236	0.000182	1.824896	0.618291	0.000073
1899	1.8885e+02	-4.3828	-21.614825	0.000385	3.852557	1.305282	0.000154
1900	1.8895e+02	-4.3346	-21.493711	0.000304	3.041493	1.030486	0.000122
1901	1.8905e+02	-4.2993	-21.348374	0.000365	3.649791	1.236583	0.000146
1902	1.8915e+02	-4.2592	-21.243408	0.000264	2.635960	0.893087	0.000105
1903	1.8925e+02	-4.2175	-21.049626	0.000487	4.866388	1.648777	0.000195
1904	1.8935e+02	-4.1822	-20.928512	0.000304	3.041493	1.030486	0.000122
1905	1.8945e+02	-4.1437	-20.795286	0.000335	3.345642	1.133534	0.000134
1906	1.8955e+02	-4.0940	-20.702432	0.000233	2.331811	0.790039	0.000093
1907	1.8965e+02	-4.0555	-20.589392	0.000284	2.838726	0.961787	0.000114
1908	1.8975e+02	-4.0234	-20.448093	0.000355	3.548408	1.202233	0.000142
1909	1.8985e+02	-3.9737	-20.363313	0.000213	2.129045	0.721340	0.000085
1910	1.8995e+02	-3.9352	-20.161456	0.000507	5.069154	1.717476	0.000203
1911	1.9004e+02	-3.9015	-20.072639	0.000223	2.230428	0.755689	0.000089
1912	1.9014e+02	-3.8502	-19.955562	0.000294	2.940109	0.996136	0.000118
1913	1.9024e+02	-3.8245	-19.802151	0.000385	3.852557	1.305282	0.000154
1914	1.9034e+02	-3.7844	-19.668925	0.000335	3.345642	1.133534	0.000134
1915	1.9044e+02	-3.7395	-19.588183	0.000203	2.027662	0.686990	0.000081
1916	1.9054e+02	-3.7042	-19.442846	0.000365	3.649791	1.236583	0.000146
1917	1.9064e+02	-3.6609	-19.273286	0.000426	4.258090	1.442680	0.000170
1918	1.9074e+02	-3.6256	-19.176395	0.000243	2.433194	0.824388	0.000097
1919	1.9084e+02	-3.5871	-19.002798	0.000436	4.359473	1.477029	0.000174
1920	1.9094e+02	-3.5405	-18.873610	0.000324	3.244259	1.099185	0.000130
1921	1.9104e+02	-3.4972	-18.700013	0.000436	4.359473	1.477029	0.000174
1922	1.9114e+02	-3.4587	-18.582936	0.000294	2.940109	0.996136	0.000118
1923	1.9124e+02	-3.4266	-18.449710	0.000335	3.345642	1.133534	0.000134
1924	1.9134e+02	-3.3817	-18.324559	0.000314	3.142876	1.064835	0.000126
1925	1.9144e+02	-3.3416	-18.191334	0.000335	3.345642	1.133534	0.000134
1926	1.9154e+02	-3.2919	-18.090405	0.000253	2.534577	0.858738	0.000101
1927	1.9164e+02	-3.2646	-17.916808	0.000436	4.359473	1.477029	0.000174
1928	1.9174e+02	-3.2213	-17.827991	0.000223	2.230428	0.755689	0.000089
1929	1.9184e+02	-3.1860	-17.682655	0.000365	3.649791	1.236583	0.000146
1930	1.9194e+02	-3.1347	-17.549429	0.000335	3.345642	1.133534	0.000134
1931	1.9203e+02	-3.1074	-17.420241	0.000324	3.244259	1.099185	0.000130
1932	1.9213e+02	-3.0609	-17.258755	0.000406	4.055323	1.373981	0.000162
1933	1.9223e+02	-3.0240	-17.093233	0.000416	4.156706	1.408330	0.000166
1934	1.9233e+02	-2.9823	-16.988267	0.000264	2.635960	0.893087	0.000105
1935	1.9243e+02	-2.9438	-16.846967	0.000355	3.548408	1.202233	0.000142
1936	1.9253e+02	-2.9085	-16.713742	0.000335	3.345642	1.133534	0.000134
1937	1.9263e+02	-2.8732	-16.592628	0.000304	3.041493	1.030486	0.000122
1938	1.9273e+02	-2.8251	-16.459402	0.000335	3.345642	1.133534	0.000134
1939	1.9283e+02	-2.7769	-16.293880	0.000416	4.156706	1.408330	0.000166
1940	1.9293e+02	-2.7545	-16.152580	0.000355	3.548408	1.202233	0.000142
1941	1.9303e+02	-2.7031	-15.991095	0.000406	4.055323	1.373981	0.000162
1942	1.9313e+02	-2.6614	-15.894203	0.000243	2.433194	0.824388	0.000097
1943	1.9323e+02	-2.6245	-15.760978	0.000335	3.345642	1.133534	0.000134
1944	1.9333e+02	-2.5828	-15.647938	0.000284	2.838726	0.961787	0.000114
1945	1.9343e+02	-2.5459	-15.450118	0.000497	4.967771	1.683126	0.000199
1946	1.9353e+02	-2.5090	-15.300744	0.000375	3.751174	1.270932	0.000150
1947	1.9363e+02	-2.4673	-15.187705	0.000284	2.838726	0.961787	0.000114
1948	1.9373e+02	-2.4272	-15.070628	0.000294	2.940109	0.996136	0.000118
1949	1.9383e+02	-2.3951	-14.872808	0.000497	4.967771	1.683126	0.000199
1950	1.9393e+02	-2.3438	-14.783991	0.000223	2.230428	0.755689	0.000089
1951	1.9403e+02	-2.3101	-14.658840	0.000314	3.142876	1.064835	0.000126
1952	1.9412e+02	-2.2716	-14.497354	0.000406	4.055323	1.373981	0.000162
1953	1.9422e+02	-2.2299	-14.343943	0.000385	3.852557	1.305282	0.000154
1954	1.9432e+02	-2.1898	-14.234941	0.000274	2.737343	0.927437	0.000110
1955	1.9442e+02	-2.1433	-14.069418	0.000416	4.156706	1.408330	0.000166
1956	1.9452e+02	-2.1048	-13.944267	0.000314	3.142876	1.064835	0.000126
1957	1.9462e+02	-2.0582	-13.811041	0.000335	3.345642	1.133534	0.000134
1958	1.9472e+02	-2.0294	-13.645519	0.000416	4.156706	1.408330	0.000166
1959	1.9482e+02	-1.9828	-13.548628	0.000243	2.433194	0.824388	0.000097
1960	1.9492e+02	-1.9507	-13.391179	0.000395	3.953940	1.339631	0.000158
1961	1.9502e+02	-1.9026	-13.261991	0.000324	3.244259	1.099185	0.000130
1962	1.9512e+02	-1.8689	-13.116654	0.000365	3.649791	1.236583	0.000146
1963	1.9522e+02	-1.8288	-12.951131	0.000416	4.156706	1.408330	0.000166
1964	1.9532e+02	-1.7855	-12.817906	0.000335	3.345642	1.133534	0.000134
1965	1.9542e+02	-1.7454	-12.696792	0.000304	3.041493	1.030486	0.000122
1966	1.9552e+02	-1.7213	-12.547418	0.000375	3.751174	1.270932	0.000150
1967	1.9562e+02	-1.6636	-12.369784	0.000446	4.460856	1.511379	0.000179
1968	1.9572e+02	-1.6315	-12.272893	0.000243	2.433194	0.824388	0.000097
1969	1.9582e+02	-1.5930	-12.095259	0.000446	4.460856	1.511379	0.000179
1970	1.9592e+02	-1.5577	-11.986256	0.000274	2.737343	0.927437	0.000110
1971	1.9601e+02	-1.5128	-11.857068	0.000324	3.244259	1.099185	0.000130
1972	1.9611e+02	-1.4711	-11.707694	0.000375	3.751174	1.270932	0.000150
1973	1.9621e+02	-1.4262	-11.554282	0.000385	3.852557	1.305282	0.000154
1974	1.9631e+02	-1.3925	-11.417020	0.000345	3.447025	1.167884	0.000138
1975	1.9641e+02	-1.3492	-11.299943	0.000294	2.940109	0.996136	0.000118
1976	1.9651e+02	-1.3026	-11.158643	0.000355	3.548408	1.202233	0.000142
1977	1.9661e+02	-1.2641	-11.005232	0.000385	3.852557	1.305282	0.000154
1978	1.9671e+02	-1.2337	-10.851821	0.000385	3.852557	1.305282	0.000154
1979	1.9681e+02	-1.1839	-10.706484	0.000365	3.649791	1.236583	0.000146
1980	1.9691e+02	-1.1486	-10.549036	0.000395	3.953940	1.339631	0.000158
1981	1.9701e+02	-1.1117	-10.411773	0.000345	3.447025	1.167884	0.000138
1982	1.9711e+02	-1.0748	-10.258362	0.000385	3.852557	1.305282	0.000154
1983	1.9721e+02	-1.0395	-10.133211	0.000314	3.142876	1.064835	0.000126
1984	1.9731e+02	-0.9850	-9.991911	0.000355	3.548408	1.202233	0.000142
1985	1.9741e+02	-0.9577	-9.846574	0.000365	3.649791	1.236583	0.000146
1986	1.9751e+02	-0.9064	-9.717386	0.000324	3.244259	1.099185	0.000130
1987	1.9761e+02	-0.8759	-9.568012	0.000375	3.751174	1.270932	0.000150
1988	1.9771e+02	-0.8390	-9.418638	0.000375	3.751174	1.270932	0.000150
1989	1.9781e+02	-0.7893	-9.245041	0.000436	4.359473	1.477029	0.000174
1990	1.9791e+02	-0.7588	-9.099704	0.000365	3.649791	1.236583	0.000146
1991	1.9800e+02	-0.7091	-8.974553	0.000314	3.142876	1.064835	0.000126
1992	1.9810e+02	-0.6674	-8.804993	0.000426	4.258090	1.442680	0.000170
1993	1.9820e+02	-0.6385	-8.675805	0.000324	3.244259	1.099185	0.000130
1994	1.9830e+02	-0.5952	-8.558728	0.000294	2.940109	0.996136	0.000118
1995	1.9840e+02	-0.5422	-8.401279	0.000395	3.953940	1.339631	0.000158
1996	1.9850e+02	-0.5101	-8.231720	0.000426	4.258090	1.442680	0.000170
1997	1.9860e+02	-0.4765	-8.102531	0.000324	3.244259	1.099185	0.000130
1998	1.9870e+02	-0.4412	-7.920860	0.000456	4.562239	1.545728	0.000183
1999	1.9880e+02	-0.3930	-7.811858	0.000274	2.737343	0.927437	0.000110
2000	1.9890e+02	-0.3545	-7.658446	0.000385	3.852557	1.305282	0.000154
2001	1.9900e+02	-0.3160	-7.525221	0.000335	3.345642	1.133534	0.000134
2002	1.9910e+02	-0.2727	-7.396033	0.000324	3.244259	1.099185	0.000130
2003	1.9920e+02	-0.2358	-7.206287	0.000477	4.765005	1.614427	0.000191
2004	1.9930e+02	-0.1893	-7.077099	0.000324	3.244259	1.099185	0.000130
2005	1.9940e+02	-0.1604	-6.951948	0.000314	3.142876	1.064835	0.000126
2006	1.9950e+02	-0.1251	-6.802574	0.000375	3.751174	1.270932	0.000150
2007	1.9960e+02	-0.0706	-6.681460	0.000304	3.041493	1.030486	0.000122
2008	1.9970e+02	-0.0401	-6.548234	0.000335	3.345642	1.133534	0.000134
2009	1.9980e+02	0.0000	-6.370600	0.000335	3.345642	1.133534	0.000179

PMax (uC/cm2):	6.91e+01
Pr (uC/cm2):	3.18e+00
-Pr (uC/cm2):	-3.31e+00
PLoss (uC/cm2):	-3.34e+00
-Vc:	-8.85e-01
C (Max-Eff) (nF):	3.46e-01
K (Eff):	1.17e+03
Vert. (+/-Pr) Shift (uC/cm2):	-6.76e-02
Offset (uC/cm2):	3.06e+00

A (Loop Area - uC/cm2·Volts):	3.12e-02



Hysteresis Version: 5.48.1 - Radiant Technologies, Inc., 1999 - 9/12/24

