»»»»»»»»»»»»»»»»»»»»»»»»»»»»»»»»»»»» Hysteresis ««««««««««««««««««««««««««««««««««««
»»»  Executed Version:	5.48.1
»»»  Vision Version:	5.48.4 (R)
»»»  Vision Compiled:	9/18/24
»»»  Driver Version:	5.47.0
»»»  Windows Version:	Windows 8 or 8.1
»»»  Processor Information:	x86 (AMD or Intel) - 32 Processors
»»»  Tester Name:	PMF21124-494 (100V)
»»»  Tester S/N:	PMF21124-494
»»»  Internal Amp Type:	100V RevK 270k
»»»  Internal Amp S/N:	iAB2-596/K     
»»»  Execution Count:	1
»»»»»»»»»»»»»»»»»»»»»»»»»»»»»»»»»»»»»»»»»»««««««««««««««««««««««««««««««««««««««««««

Stored:	6/30/2025 - 11:47:7
Configured:	06/30/25 10:19:58 AM
Executed:	06/30/25 11:46:44 AM

»»»»»»»»»»»»»»»»»»»»»»»»»»»»»»»»»»» Sample Info ««««««««««««««««««««««««««««««««««««
Sample Name:	
Lot Name:	
Wafer Name:	
Die Row/Column:	0/0
Capacitor Number:	0
Sample Area (cm2):	1.00e-04
Sample Thickness (microns):	1.50e-01

Amplifier:	Internal

»»»»»»»»»»»»»»»»»»»»»»»»»»»»»»»»»»» Tester Info «««««««««««««««««««««««««««««««««««
Tester Name:	PMF21124-494 (100V)
Tester Serial Number:	PMF21124-494
Return Signal Amp. Level:	1.79 [Index: 2]

»»»»»»»»»»»»»»»»»»»»»»»»»»»»»»»» Hysteresis Info ««««««««««««««««««««««««««««««««««
Task Name:	Hyst-1804
Volts:	10.00
Field:	666.67 (kV/cm)
DCBias:	0.00
DCField:	0.00 (kV/cm)
Hysteresis Period (ms):	1.00e+00
Preset:	Enabled
Preset Delay (ms):	1.00e+03
Profile:	Standard Monopolar

»»»»»»»»»»»»»»»»»»»»»»»»»»»»»»»»»»»»»» Data «««««««««««««««««««««««««««««««««««««««
Points:	2001

Valid Data

Point	Time (ms)	Drive Voltage	Measured Polarization (uC/cm2)	Capacitance (uF)	Normalized Capacitance (uF/cm2)	Dielectric Constant	Instantaneous Current (mA)
   1	0.0000e+00	-0.0065	-17.855707	0.000650	6.499408	1.101030	0.013000
   2	5.0000e-04	0.0071	-17.790708	0.000650	6.499408	1.101030	0.013000
   3	1.0000e-03	0.0169	-17.724854	0.000658	6.584927	1.115517	0.013171
   4	1.5000e-03	0.0277	-17.690644	0.000342	3.420741	0.579489	0.006842
   5	2.0000e-03	0.0367	-17.653440	0.000372	3.720056	0.630195	0.007441
   6	2.5000e-03	0.0462	-17.600842	0.000526	5.259390	0.890965	0.010520
   7	3.0000e-03	0.0598	-17.564494	0.000363	3.634538	0.615707	0.007270
   8	3.5000e-03	0.0671	-17.496074	0.000684	6.841482	1.158978	0.013684
   9	4.0000e-03	0.0757	-17.459726	0.000363	3.634538	0.615707	0.007270
  10	4.5000e-03	0.0898	-17.397293	0.000624	6.242853	1.057568	0.012487
  11	5.0000e-03	0.0972	-17.364366	0.000329	3.292463	0.557758	0.006585
  12	5.5000e-03	0.1078	-17.308774	0.000556	5.558704	0.941670	0.011118
  13	6.0000e-03	0.1180	-17.244203	0.000646	6.456649	1.093786	0.012914
  14	6.5000e-03	0.1266	-17.242920	0.000013	0.128278	0.021731	0.000257
  15	7.0000e-03	0.1366	-17.171507	0.000714	7.140797	1.209684	0.014283
  16	7.5000e-03	0.1473	-17.126606	0.000449	4.489723	0.760580	0.008980
  17	8.0000e-03	0.1557	-17.096245	0.000304	3.035908	0.514297	0.006072
  18	8.5000e-03	0.1659	-17.035094	0.000611	6.114575	1.035837	0.012230
  19	9.0000e-03	0.1738	-16.987200	0.000479	4.789038	0.811285	0.009579
  20	9.5000e-03	0.1871	-16.927760	0.000594	5.943538	1.006863	0.011888
  21	1.0000e-02	0.1958	-16.889702	0.000381	3.805575	0.644682	0.007612
  22	1.0500e-02	0.2096	-16.847794	0.000419	4.190408	0.709874	0.008381
  23	1.1000e-02	0.2160	-16.790920	0.000569	5.686982	0.963401	0.011375
  24	1.1500e-02	0.2269	-16.749013	0.000419	4.190408	0.709874	0.008381
  25	1.2000e-02	0.2367	-16.695560	0.000534	5.344908	0.905452	0.010691
  26	1.2500e-02	0.2475	-16.648521	0.000470	4.703519	0.796798	0.009408
  27	1.3000e-02	0.2531	-16.598489	0.000500	5.002834	0.847503	0.010006
  28	1.3500e-02	0.2660	-16.554871	0.000436	4.361445	0.738849	0.008724
  29	1.4000e-02	0.2751	-16.515957	0.000389	3.891093	0.659169	0.007783
  30	1.4500e-02	0.2872	-16.469346	0.000466	4.660760	0.789554	0.009322
  31	1.5000e-02	0.2958	-16.427439	0.000419	4.190408	0.709874	0.008381
  32	1.5500e-02	0.3053	-16.380400	0.000470	4.703519	0.796798	0.009408
  33	1.6000e-02	0.3183	-16.320532	0.000599	5.986297	1.014106	0.011974
  34	1.6500e-02	0.3251	-16.285040	0.000355	3.549019	0.601220	0.007099
  35	1.7000e-02	0.3348	-16.243132	0.000419	4.190408	0.709874	0.008381
  36	1.7500e-02	0.3474	-16.210205	0.000329	3.292463	0.557758	0.006585
  37	1.8000e-02	0.3573	-16.161028	0.000492	4.917315	0.833016	0.009835
  38	1.8500e-02	0.3662	-16.098595	0.000624	6.242853	1.057568	0.012487
  39	1.9000e-02	0.3749	-16.035734	0.000629	6.285612	1.064811	0.012572
  40	1.9500e-02	0.3832	-16.001096	0.000346	3.463500	0.586733	0.006928
  41	2.0000e-02	0.4008	-15.952347	0.000487	4.874556	0.825772	0.009750
  42	2.0500e-02	0.4055	-15.901460	0.000509	5.088353	0.861990	0.010177
  43	2.1000e-02	0.4144	-15.846296	0.000552	5.515945	0.934426	0.011033
  44	2.1500e-02	0.4255	-15.805672	0.000406	4.062130	0.688143	0.008125
  45	2.2000e-02	0.4359	-15.791988	0.000137	1.368296	0.231796	0.002737
  46	2.2500e-02	0.4501	-15.722285	0.000697	6.969760	1.180709	0.013941
  47	2.3000e-02	0.4551	-15.672680	0.000496	4.960075	0.840259	0.009921
  48	2.3500e-02	0.4675	-15.636760	0.000359	3.591778	0.608464	0.007184
  49	2.4000e-02	0.4764	-15.586727	0.000500	5.002834	0.847503	0.010006
  50	2.4500e-02	0.4841	-15.554656	0.000321	3.206945	0.543271	0.006414
  51	2.5000e-02	0.4958	-15.483242	0.000714	7.140797	1.209684	0.014283
  52	2.5500e-02	0.5072	-15.455874	0.000274	2.736593	0.463591	0.005474
  53	2.6000e-02	0.5171	-15.392586	0.000633	6.328371	1.072055	0.012658
  54	2.6500e-02	0.5255	-15.369066	0.000235	2.351760	0.398399	0.004704
  55	2.7000e-02	0.5365	-15.292949	0.000761	7.611149	1.289364	0.015223
  56	2.7500e-02	0.5487	-15.260449	0.000325	3.249704	0.550515	0.006500
  57	2.8000e-02	0.5550	-15.223246	0.000372	3.720056	0.630195	0.007441
  58	2.8500e-02	0.5697	-15.178773	0.000445	4.446964	0.753336	0.008895
  59	2.9000e-02	0.5760	-15.124037	0.000547	5.473186	0.927183	0.010947
  60	2.9500e-02	0.5850	-15.093248	0.000308	3.078667	0.521540	0.006158
  61	3.0000e-02	0.5962	-15.033380	0.000599	5.986297	1.014106	0.011974
  62	3.0500e-02	0.6073	-14.994466	0.000389	3.891093	0.659169	0.007783
  63	3.1000e-02	0.6165	-14.949138	0.000453	4.532482	0.767823	0.009066
  64	3.1500e-02	0.6268	-14.897396	0.000517	5.173871	0.876477	0.010349
  65	3.2000e-02	0.6380	-14.840094	0.000573	5.729742	0.970644	0.011460
  66	3.2500e-02	0.6478	-14.801607	0.000385	3.848334	0.651925	0.007697
  67	3.3000e-02	0.6567	-14.763976	0.000376	3.762815	0.637438	0.007526
  68	3.3500e-02	0.6685	-14.714372	0.000496	4.960075	0.840259	0.009921
  69	3.4000e-02	0.6766	-14.676741	0.000376	3.762815	0.637438	0.007526
  70	3.4500e-02	0.6879	-14.622432	0.000543	5.430427	0.919939	0.010862
  71	3.5000e-02	0.6964	-14.575821	0.000466	4.660760	0.789554	0.009322
  72	3.5500e-02	0.7083	-14.530065	0.000458	4.575241	0.775067	0.009151
  73	3.6000e-02	0.7187	-14.491151	0.000389	3.891093	0.659169	0.007783
  74	3.6500e-02	0.7260	-14.430001	0.000611	6.114575	1.035837	0.012230
  75	3.7000e-02	0.7364	-14.388949	0.000410	4.104889	0.695387	0.008210
  76	3.7500e-02	0.7464	-14.339772	0.000492	4.917315	0.833016	0.009835
  77	3.8000e-02	0.7587	-14.296582	0.000432	4.318686	0.731605	0.008638
  78	3.8500e-02	0.7670	-14.240563	0.000560	5.601464	0.948914	0.011204
  79	3.9000e-02	0.7761	-14.213195	0.000274	2.736593	0.463591	0.005474
  80	3.9500e-02	0.7851	-14.168294	0.000449	4.489723	0.760580	0.008980
  81	4.0000e-02	0.7942	-14.106289	0.000620	6.200093	1.050324	0.012401
  82	4.0500e-02	0.8063	-14.087901	0.000184	1.838648	0.311475	0.003678
  83	4.1000e-02	0.8154	-14.030599	0.000573	5.729742	0.970644	0.011460
  84	4.1500e-02	0.8273	-13.969021	0.000616	6.157334	1.043081	0.012316
  85	4.2000e-02	0.8353	-13.938232	0.000308	3.078667	0.521540	0.006158
  86	4.2500e-02	0.8461	-13.879647	0.000586	5.858019	0.992375	0.011717
  87	4.3000e-02	0.8569	-13.859549	0.000201	2.009685	0.340450	0.004020
  88	4.3500e-02	0.8691	-13.796260	0.000633	6.328371	1.072055	0.012658
  89	4.4000e-02	0.8788	-13.762478	0.000338	3.377982	0.572246	0.006756
  90	4.4500e-02	0.8844	-13.729123	0.000334	3.335223	0.565002	0.006671
  91	4.5000e-02	0.8955	-13.652578	0.000765	7.653908	1.296607	0.015309
  92	4.5500e-02	0.9062	-13.616658	0.000359	3.591778	0.608464	0.007184
  93	4.6000e-02	0.9167	-13.579454	0.000372	3.720056	0.630195	0.007441
  94	4.6500e-02	0.9270	-13.508041	0.000714	7.140797	1.209684	0.014283
  95	4.7000e-02	0.9361	-13.481528	0.000265	2.651074	0.449104	0.005303
  96	4.7500e-02	0.9485	-13.416957	0.000646	6.456649	1.093786	0.012914
  97	4.8000e-02	0.9548	-13.391299	0.000257	2.565556	0.434617	0.005132
  98	4.8500e-02	0.9642	-13.333570	0.000577	5.772501	0.977888	0.011546
  99	4.9000e-02	0.9753	-13.306629	0.000269	2.693834	0.456348	0.005388
 100	4.9500e-02	0.9878	-13.265150	0.000415	4.147649	0.702631	0.008296
 101	5.0000e-02	0.9978	-13.206565	0.000586	5.858019	0.992375	0.011717
 102	5.0500e-02	1.0059	-13.167651	0.000389	3.891093	0.659169	0.007783
 103	5.1000e-02	1.0172	-13.109494	0.000582	5.815260	0.985132	0.011631
 104	5.1500e-02	1.0265	-13.074001	0.000355	3.549019	0.601220	0.007099
 105	5.2000e-02	1.0368	-13.024397	0.000496	4.960075	0.840259	0.009921
 106	5.2500e-02	1.0471	-12.978213	0.000462	4.618001	0.782310	0.009237
 107	5.3000e-02	1.0566	-12.934168	0.000440	4.404204	0.746092	0.008809
 108	5.3500e-02	1.0678	-12.902524	0.000316	3.164186	0.536028	0.006329
 109	5.4000e-02	1.0758	-12.846505	0.000560	5.601464	0.948914	0.011204
 110	5.4500e-02	1.0852	-12.791341	0.000552	5.515945	0.934426	0.011033
 111	5.5000e-02	1.0941	-12.752000	0.000393	3.933852	0.666413	0.007868
 112	5.5500e-02	1.1078	-12.712658	0.000393	3.933852	0.666413	0.007868
 113	5.6000e-02	1.1207	-12.677593	0.000351	3.506260	0.593976	0.007013
 114	5.6500e-02	1.1280	-12.639962	0.000376	3.762815	0.637438	0.007526
 115	5.7000e-02	1.1369	-12.584370	0.000556	5.558704	0.941670	0.011118
 116	5.7500e-02	1.1495	-12.528779	0.000556	5.558704	0.941670	0.011118
 117	5.8000e-02	1.1575	-12.481313	0.000475	4.746278	0.804041	0.009493
 118	5.8500e-02	1.1685	-12.440261	0.000410	4.104889	0.695387	0.008210
 119	5.9000e-02	1.1777	-12.405195	0.000351	3.506260	0.593976	0.007013
 120	5.9500e-02	1.1863	-12.341052	0.000641	6.413890	1.086542	0.012829
 121	6.0000e-02	1.1981	-12.316249	0.000248	2.480037	0.420130	0.004960
 122	6.0500e-02	1.2085	-12.281612	0.000346	3.463500	0.586733	0.006928
 123	6.1000e-02	1.2175	-12.226020	0.000556	5.558704	0.941670	0.011118
 124	6.1500e-02	1.2251	-12.194804	0.000312	3.121426	0.528784	0.006243
 125	6.2000e-02	1.2350	-12.129805	0.000650	6.499408	1.101030	0.013000
 126	6.2500e-02	1.2475	-12.110134	0.000197	1.966926	0.333206	0.003934
 127	6.3000e-02	1.2556	-12.036155	0.000740	7.397353	1.253146	0.014796
 128	6.3500e-02	1.2698	-12.001945	0.000342	3.420741	0.579489	0.006842
 129	6.4000e-02	1.2765	-11.968590	0.000334	3.335223	0.565002	0.006671
 130	6.4500e-02	1.2860	-11.936946	0.000316	3.164186	0.536028	0.006329
 131	6.5000e-02	1.2953	-11.884348	0.000526	5.259390	0.890965	0.010520
 132	6.5500e-02	1.3069	-11.833033	0.000513	5.131112	0.869234	0.010263
 133	6.6000e-02	1.3163	-11.802671	0.000304	3.035908	0.514297	0.006072
 134	6.6500e-02	1.3266	-11.749218	0.000534	5.344908	0.905452	0.010691
 135	6.7000e-02	1.3354	-11.688068	0.000611	6.114575	1.035837	0.012230
 136	6.7500e-02	1.3452	-11.651292	0.000368	3.677297	0.622951	0.007355
 137	6.8000e-02	1.3572	-11.625207	0.000261	2.608315	0.441861	0.005217
 138	6.8500e-02	1.3661	-11.579879	0.000453	4.532482	0.767823	0.009066
 139	6.9000e-02	1.3771	-11.543530	0.000363	3.634538	0.615707	0.007270
 140	6.9500e-02	1.3888	-11.476393	0.000671	6.713205	1.137248	0.013427
 141	7.0000e-02	1.3962	-11.446460	0.000299	2.993149	0.507053	0.005987
 142	7.0500e-02	1.4045	-11.401987	0.000445	4.446964	0.753336	0.008895
 143	7.1000e-02	1.4164	-11.340408	0.000616	6.157334	1.043081	0.012316
 144	7.1500e-02	1.4258	-11.307054	0.000334	3.335223	0.565002	0.006671
 145	7.2000e-02	1.4357	-11.265574	0.000415	4.147649	0.702631	0.008296
 146	7.2500e-02	1.4467	-11.221101	0.000445	4.446964	0.753336	0.008895
 147	7.3000e-02	1.4557	-11.165937	0.000552	5.515945	0.934426	0.011033
 148	7.3500e-02	1.4644	-11.137714	0.000282	2.822112	0.478079	0.005645
 149	7.4000e-02	1.4759	-11.090248	0.000475	4.746278	0.804041	0.009493
 150	7.4500e-02	1.4852	-11.045775	0.000445	4.446964	0.753336	0.008895
 151	7.5000e-02	1.4951	-11.011565	0.000342	3.420741	0.579489	0.006842
 152	7.5500e-02	1.5063	-10.973934	0.000376	3.762815	0.637438	0.007526
 153	7.6000e-02	1.5204	-10.908079	0.000658	6.584927	1.115517	0.013171
 154	7.6500e-02	1.5280	-10.869165	0.000389	3.891093	0.659169	0.007783
 155	7.7000e-02	1.5357	-10.817850	0.000513	5.131112	0.869234	0.010263
 156	7.7500e-02	1.5454	-10.752851	0.000650	6.499408	1.101030	0.013000
 157	7.8000e-02	1.5565	-10.738740	0.000141	1.411056	0.239039	0.002822
 158	7.8500e-02	1.5663	-10.711372	0.000274	2.736593	0.463591	0.005474
 159	7.9000e-02	1.5739	-10.657063	0.000543	5.430427	0.919939	0.010862
 160	7.9500e-02	1.5840	-10.607031	0.000500	5.002834	0.847503	0.010006
 161	8.0000e-02	1.5951	-10.570683	0.000363	3.634538	0.615707	0.007270
 162	8.0500e-02	1.6055	-10.540322	0.000304	3.035908	0.514297	0.006072
 163	8.1000e-02	1.6183	-10.486868	0.000534	5.344908	0.905452	0.010691
 164	8.1500e-02	1.6249	-10.440257	0.000466	4.660760	0.789554	0.009322
 165	8.2000e-02	1.6355	-10.397495	0.000428	4.275927	0.724362	0.008553
 166	8.2500e-02	1.6466	-10.362857	0.000346	3.463500	0.586733	0.006928
 167	8.3000e-02	1.6560	-10.307266	0.000556	5.558704	0.941670	0.011118
 168	8.3500e-02	1.6704	-10.247398	0.000599	5.986297	1.014106	0.011974
 169	8.4000e-02	1.6760	-10.216182	0.000312	3.121426	0.528784	0.006243
 170	8.4500e-02	1.6837	-10.174702	0.000415	4.147649	0.702631	0.008296
 171	8.5000e-02	1.6971	-10.135788	0.000389	3.891093	0.659169	0.007783
 172	8.5500e-02	1.7052	-10.104571	0.000312	3.121426	0.528784	0.006243
 173	8.6000e-02	1.7145	-10.040855	0.000637	6.371131	1.079299	0.012743
 174	8.6500e-02	1.7258	-10.015198	0.000257	2.565556	0.434617	0.005132
 175	8.7000e-02	1.7368	-9.962172	0.000530	5.302149	0.898208	0.010605
 176	8.7500e-02	1.7471	-9.918554	0.000436	4.361445	0.738849	0.008724
 177	8.8000e-02	1.7583	-9.874937	0.000436	4.361445	0.738849	0.008724
 178	8.8500e-02	1.7653	-9.847569	0.000274	2.736593	0.463591	0.005474
 179	8.9000e-02	1.7759	-9.776155	0.000714	7.140797	1.209684	0.014283
 180	8.9500e-02	1.7867	-9.754774	0.000214	2.137963	0.362181	0.004276
 181	9.0000e-02	1.8011	-9.698755	0.000560	5.601464	0.948914	0.011204
 182	9.0500e-02	1.8063	-9.657703	0.000410	4.104889	0.695387	0.008210
 183	9.1000e-02	1.8177	-9.612802	0.000449	4.489723	0.760580	0.008980
 184	9.1500e-02	1.8253	-9.561060	0.000517	5.173871	0.876477	0.010349
 185	9.2000e-02	1.8387	-9.544382	0.000167	1.667611	0.282501	0.003335
 186	9.2500e-02	1.8451	-9.481094	0.000633	6.328371	1.072055	0.012658
 187	9.3000e-02	1.8547	-9.443463	0.000376	3.762815	0.637438	0.007526
 188	9.3500e-02	1.8704	-9.415239	0.000282	2.822112	0.478079	0.005645
 189	9.4000e-02	1.8736	-9.369911	0.000453	4.532482	0.767823	0.009066
 190	9.4500e-02	1.8861	-9.337839	0.000321	3.206945	0.543271	0.006414
 191	9.5000e-02	1.8980	-9.294222	0.000436	4.361445	0.738849	0.008724
 192	9.5500e-02	1.9058	-9.241196	0.000530	5.302149	0.898208	0.010605
 193	9.6000e-02	1.9165	-9.186032	0.000552	5.515945	0.934426	0.011033
 194	9.6500e-02	1.9263	-9.148401	0.000376	3.762815	0.637438	0.007526
 195	9.7000e-02	1.9382	-9.083402	0.000650	6.499408	1.101030	0.013000
 196	9.7500e-02	1.9473	-9.063304	0.000201	2.009685	0.340450	0.004020
 197	9.8000e-02	1.9559	-9.036791	0.000265	2.651074	0.449104	0.005303
 198	9.8500e-02	1.9647	-8.974358	0.000624	6.242853	1.057568	0.012487
 199	9.9000e-02	1.9788	-8.941003	0.000334	3.335223	0.565002	0.006671
 200	9.9500e-02	1.9859	-8.892254	0.000487	4.874556	0.825772	0.009750
 201	1.0000e-01	1.9965	-8.873866	0.000184	1.838648	0.311475	0.003678
 202	1.0050e-01	2.0056	-8.809722	0.000641	6.413890	1.086542	0.012829
 203	1.0100e-01	2.0174	-8.772091	0.000376	3.762815	0.637438	0.007526
 204	1.0150e-01	2.0285	-8.709230	0.000629	6.285612	1.064811	0.012572
 205	1.0200e-01	2.0377	-8.701961	0.000073	0.726908	0.123141	0.001454
 206	1.0250e-01	2.0480	-8.649363	0.000526	5.259390	0.890965	0.010520
 207	1.0300e-01	2.0593	-8.597620	0.000517	5.173871	0.876477	0.010349
 208	1.0350e-01	2.0661	-8.582653	0.000150	1.496574	0.253527	0.002993
 209	1.0400e-01	2.0774	-8.546305	0.000363	3.634538	0.615707	0.007270
 210	1.0450e-01	2.0880	-8.477457	0.000688	6.884242	1.166222	0.013770
 211	1.0500e-01	2.0977	-8.426142	0.000513	5.131112	0.869234	0.010263
 212	1.0550e-01	2.1050	-8.400912	0.000252	2.522797	0.427373	0.005046
 213	1.0600e-01	2.1182	-8.351308	0.000496	4.960075	0.840259	0.009921
 214	1.0650e-01	2.1228	-8.324367	0.000269	2.693834	0.456348	0.005388
 215	1.0700e-01	2.1394	-8.264927	0.000594	5.943538	1.006863	0.011888
 216	1.0750e-01	2.1481	-8.243119	0.000218	2.180723	0.369424	0.004362
 217	1.0800e-01	2.1545	-8.171705	0.000714	7.140797	1.209684	0.014283
 218	1.0850e-01	2.1649	-8.132364	0.000393	3.933852	0.666413	0.007868
 219	1.0900e-01	2.1783	-8.105423	0.000269	2.693834	0.456348	0.005388
 220	1.0950e-01	2.1857	-8.066082	0.000393	3.933852	0.666413	0.007868
 221	1.1000e-01	2.1975	-8.028878	0.000372	3.720056	0.630195	0.007441
 222	1.1050e-01	2.2070	-7.966873	0.000620	6.200093	1.050324	0.012401
 223	1.1100e-01	2.2179	-7.944209	0.000227	2.266241	0.383912	0.004533
 224	1.1150e-01	2.2275	-7.905295	0.000389	3.891093	0.659169	0.007783
 225	1.1200e-01	2.2379	-7.857401	0.000479	4.789038	0.811285	0.009579
 226	1.1250e-01	2.2481	-7.819342	0.000381	3.805575	0.644682	0.007612
 227	1.1300e-01	2.2565	-7.790263	0.000291	2.907630	0.492566	0.005816
 228	1.1350e-01	2.2682	-7.726975	0.000633	6.328371	1.072055	0.012658
 229	1.1400e-01	2.2783	-7.704311	0.000227	2.266241	0.383912	0.004533
 230	1.1450e-01	2.2873	-7.659838	0.000445	4.446964	0.753336	0.008895
 231	1.1500e-01	2.3001	-7.628621	0.000312	3.121426	0.528784	0.006243
 232	1.1550e-01	2.3055	-7.555925	0.000727	7.269075	1.231415	0.014539
 233	1.1600e-01	2.3184	-7.525991	0.000299	2.993149	0.507053	0.005987
 234	1.1650e-01	2.3264	-7.490070	0.000359	3.591778	0.608464	0.007184
 235	1.1700e-01	2.3383	-7.446880	0.000432	4.318686	0.731605	0.008638
 236	1.1750e-01	2.3474	-7.405401	0.000415	4.147649	0.702631	0.008296
 237	1.1800e-01	2.3579	-7.369480	0.000359	3.591778	0.608464	0.007184
 238	1.1850e-01	2.3695	-7.323297	0.000462	4.618001	0.782310	0.009237
 239	1.1900e-01	2.3752	-7.257015	0.000663	6.627686	1.122760	0.013256
 240	1.1950e-01	2.3871	-7.229219	0.000278	2.779352	0.470835	0.005559
 241	1.2000e-01	2.3972	-7.192016	0.000372	3.720056	0.630195	0.007441
 242	1.2050e-01	2.4069	-7.146260	0.000458	4.575241	0.775067	0.009151
 243	1.2100e-01	2.4168	-7.140701	0.000056	0.555870	0.094167	0.001112
 244	1.2150e-01	2.4271	-7.074419	0.000663	6.627686	1.122760	0.013256
 245	1.2200e-01	2.4388	-7.034222	0.000402	4.019371	0.680900	0.008039
 246	1.2250e-01	2.4490	-6.981196	0.000530	5.302149	0.898208	0.010605
 247	1.2300e-01	2.4582	-6.946131	0.000351	3.506260	0.593976	0.007013
 248	1.2350e-01	2.4643	-6.900803	0.000453	4.532482	0.767823	0.009066
 249	1.2400e-01	2.4789	-6.856330	0.000445	4.446964	0.753336	0.008895
 250	1.2450e-01	2.4866	-6.837514	0.000188	1.881408	0.318719	0.003763
 251	1.2500e-01	2.4982	-6.783206	0.000543	5.430427	0.919939	0.010862
 252	1.2550e-01	2.5046	-6.749851	0.000334	3.335223	0.565002	0.006671
 253	1.2600e-01	2.5174	-6.720773	0.000291	2.907630	0.492566	0.005816
 254	1.2650e-01	2.5299	-6.675017	0.000458	4.575241	0.775067	0.009151
 255	1.2700e-01	2.5374	-6.643800	0.000312	3.121426	0.528784	0.006243
 256	1.2750e-01	2.5476	-6.590775	0.000530	5.302149	0.898208	0.010605
 257	1.2800e-01	2.5548	-6.561268	0.000295	2.950389	0.499809	0.005901
 258	1.2850e-01	2.5674	-6.511236	0.000500	5.002834	0.847503	0.010006
 259	1.2900e-01	2.5775	-6.465053	0.000462	4.618001	0.782310	0.009237
 260	1.2950e-01	2.5862	-6.427422	0.000376	3.762815	0.637438	0.007526
 261	1.3000e-01	2.5980	-6.399198	0.000282	2.822112	0.478079	0.005645
 262	1.3050e-01	2.6056	-6.335482	0.000637	6.371131	1.079299	0.012743
 263	1.3100e-01	2.6149	-6.305548	0.000299	2.993149	0.507053	0.005987
 264	1.3150e-01	2.6253	-6.261931	0.000436	4.361445	0.738849	0.008724
 265	1.3200e-01	2.6353	-6.231997	0.000299	2.993149	0.507053	0.005987
 266	1.3250e-01	2.6472	-6.180254	0.000517	5.173871	0.876477	0.010349
 267	1.3300e-01	2.6581	-6.147327	0.000329	3.292463	0.557758	0.006585
 268	1.3350e-01	2.6668	-6.093446	0.000539	5.387667	0.912696	0.010776
 269	1.3400e-01	2.6768	-6.059236	0.000342	3.420741	0.579489	0.006842
 270	1.3450e-01	2.6855	-6.043414	0.000158	1.582093	0.268014	0.003164
 271	1.3500e-01	2.6971	-5.989106	0.000543	5.430427	0.919939	0.010862
 272	1.3550e-01	2.7078	-5.948909	0.000402	4.019371	0.680900	0.008039
 273	1.3600e-01	2.7179	-5.889897	0.000590	5.900779	0.999619	0.011802
 274	1.3650e-01	2.7258	-5.861246	0.000286	2.864871	0.485322	0.005730
 275	1.3700e-01	2.7359	-5.823615	0.000376	3.762815	0.637438	0.007526
 276	1.3750e-01	2.7461	-5.781280	0.000423	4.233167	0.717118	0.008467
 277	1.3800e-01	2.7563	-5.746642	0.000346	3.463500	0.586733	0.006928
 278	1.3850e-01	2.7673	-5.694472	0.000522	5.216630	0.883721	0.010434
 279	1.3900e-01	2.7780	-5.651282	0.000432	4.318686	0.731605	0.008638
 280	1.3950e-01	2.7856	-5.604243	0.000470	4.703519	0.796798	0.009408
 281	1.4000e-01	2.7988	-5.593125	0.000111	1.111741	0.188334	0.002224
 282	1.4050e-01	2.8079	-5.551645	0.000415	4.147649	0.702631	0.008296
 283	1.4100e-01	2.8162	-5.496909	0.000547	5.473186	0.927183	0.010947
 284	1.4150e-01	2.8275	-5.459706	0.000372	3.720056	0.630195	0.007441
 285	1.4200e-01	2.8358	-5.424640	0.000351	3.506260	0.593976	0.007013
 286	1.4250e-01	2.8480	-5.361352	0.000633	6.328371	1.072055	0.012658
 287	1.4300e-01	2.8604	-5.338688	0.000227	2.266241	0.383912	0.004533
 288	1.4350e-01	2.8671	-5.303622	0.000351	3.506260	0.593976	0.007013
 289	1.4400e-01	2.8754	-5.261715	0.000419	4.190408	0.709874	0.008381
 290	1.4450e-01	2.8882	-5.227505	0.000342	3.420741	0.579489	0.006842
 291	1.4500e-01	2.8972	-5.193295	0.000342	3.420741	0.579489	0.006842
 292	1.4550e-01	2.9070	-5.144118	0.000492	4.917315	0.833016	0.009835
 293	1.4600e-01	2.9147	-5.110763	0.000334	3.335223	0.565002	0.006671
 294	1.4650e-01	2.9262	-5.069711	0.000410	4.104889	0.695387	0.008210
 295	1.4700e-01	2.9352	-5.016258	0.000534	5.344908	0.905452	0.010691
 296	1.4750e-01	2.9463	-4.993167	0.000231	2.309000	0.391155	0.004618
 297	1.4800e-01	2.9575	-4.954253	0.000389	3.891093	0.659169	0.007783
 298	1.4850e-01	2.9677	-4.911918	0.000423	4.233167	0.717118	0.008467
 299	1.4900e-01	2.9785	-4.873431	0.000385	3.848334	0.651925	0.007697
 300	1.4950e-01	2.9889	-4.828958	0.000445	4.446964	0.753336	0.008895
 301	1.5000e-01	3.0011	-4.800308	0.000286	2.864871	0.485322	0.005730
 302	1.5050e-01	3.0069	-4.749420	0.000509	5.088353	0.861990	0.010177
 303	1.5100e-01	3.0164	-4.711361	0.000381	3.805575	0.644682	0.007612
 304	1.5150e-01	3.0257	-4.675441	0.000359	3.591778	0.608464	0.007184
 305	1.5200e-01	3.0388	-4.625409	0.000500	5.002834	0.847503	0.010006
 306	1.5250e-01	3.0475	-4.596330	0.000291	2.907630	0.492566	0.005816
 307	1.5300e-01	3.0563	-4.574094	0.000222	2.223482	0.376668	0.004447
 308	1.5350e-01	3.0689	-4.538173	0.000359	3.591778	0.608464	0.007184
 309	1.5400e-01	3.0760	-4.468898	0.000693	6.927001	1.173466	0.013855
 310	1.5450e-01	3.0865	-4.440675	0.000282	2.822112	0.478079	0.005645
 311	1.5500e-01	3.0970	-4.417155	0.000235	2.351760	0.398399	0.004704
 312	1.5550e-01	3.1073	-4.369261	0.000479	4.789038	0.811285	0.009579
 313	1.5600e-01	3.1192	-4.319229	0.000500	5.002834	0.847503	0.010006
 314	1.5650e-01	3.1293	-4.278177	0.000410	4.104889	0.695387	0.008210
 315	1.5700e-01	3.1378	-4.247816	0.000304	3.035908	0.514297	0.006072
 316	1.5750e-01	3.1454	-4.195218	0.000526	5.259390	0.890965	0.010520
 317	1.5800e-01	3.1596	-4.180251	0.000150	1.496574	0.253527	0.002993
 318	1.5850e-01	3.1641	-4.146896	0.000334	3.335223	0.565002	0.006671
 319	1.5900e-01	3.1775	-4.087456	0.000594	5.943538	1.006863	0.011888
 320	1.5950e-01	3.1862	-4.053246	0.000342	3.420741	0.579489	0.006842
 321	1.6000e-01	3.1992	-4.009628	0.000436	4.361445	0.738849	0.008724
 322	1.6050e-01	3.2068	-3.956175	0.000534	5.344908	0.905452	0.010691
 323	1.6100e-01	3.2172	-3.942064	0.000141	1.411056	0.239039	0.002822
 324	1.6150e-01	3.2260	-3.914268	0.000278	2.779352	0.470835	0.005559
 325	1.6200e-01	3.2379	-3.874071	0.000402	4.019371	0.680900	0.008039
 326	1.6250e-01	3.2465	-3.837295	0.000368	3.677297	0.622951	0.007355
 327	1.6300e-01	3.2564	-3.798382	0.000389	3.891093	0.659169	0.007783
 328	1.6350e-01	3.2666	-3.743645	0.000547	5.473186	0.927183	0.010947
 329	1.6400e-01	3.2794	-3.695324	0.000483	4.831797	0.818529	0.009664
 330	1.6450e-01	3.2864	-3.663680	0.000316	3.164186	0.536028	0.006329
 331	1.6500e-01	3.2971	-3.625193	0.000385	3.848334	0.651925	0.007697
 332	1.6550e-01	3.3078	-3.607661	0.000175	1.753130	0.296988	0.003507
 333	1.6600e-01	3.3190	-3.548221	0.000594	5.943538	1.006863	0.011888
 334	1.6650e-01	3.3276	-3.498189	0.000500	5.002834	0.847503	0.010006
 335	1.6700e-01	3.3376	-3.468682	0.000295	2.950389	0.499809	0.005901
 336	1.6750e-01	3.3474	-3.428486	0.000402	4.019371	0.680900	0.008039
 337	1.6800e-01	3.3551	-3.416512	0.000120	1.197259	0.202821	0.002395
 338	1.6850e-01	3.3685	-3.361348	0.000552	5.515945	0.934426	0.011033
 339	1.6900e-01	3.3783	-3.311744	0.000496	4.960075	0.840259	0.009921
 340	1.6950e-01	3.3890	-3.290790	0.000210	2.095204	0.354937	0.004191
 341	1.7000e-01	3.3973	-3.257008	0.000338	3.377982	0.572246	0.006756
 342	1.7050e-01	3.4064	-3.189871	0.000671	6.713205	1.137248	0.013427
 343	1.7100e-01	3.4174	-3.151812	0.000381	3.805575	0.644682	0.007612
 344	1.7150e-01	3.4279	-3.142404	0.000094	0.940704	0.159360	0.001882
 345	1.7200e-01	3.4382	-3.082537	0.000599	5.986297	1.014106	0.011974
 346	1.7250e-01	3.4473	-3.051748	0.000308	3.078667	0.521540	0.006158
 347	1.7300e-01	3.4563	-3.018821	0.000329	3.292463	0.557758	0.006585
 348	1.7350e-01	3.4680	-2.985038	0.000338	3.377982	0.572246	0.006756
 349	1.7400e-01	3.4763	-2.950828	0.000342	3.420741	0.579489	0.006842
 350	1.7450e-01	3.4875	-2.911059	0.000398	3.976612	0.673656	0.007954
 351	1.7500e-01	3.4981	-2.851619	0.000594	5.943538	1.006863	0.011888
 352	1.7550e-01	3.5078	-2.819547	0.000321	3.206945	0.543271	0.006414
 353	1.7600e-01	3.5164	-2.795173	0.000244	2.437278	0.412886	0.004875
 354	1.7650e-01	3.5254	-2.742575	0.000526	5.259390	0.890965	0.010520
 355	1.7700e-01	3.5364	-2.718628	0.000239	2.394519	0.405642	0.004789
 356	1.7750e-01	3.5480	-2.672444	0.000462	4.618001	0.782310	0.009237
 357	1.7800e-01	3.5562	-2.651063	0.000214	2.137963	0.362181	0.004276
 358	1.7850e-01	3.5669	-2.589912	0.000611	6.114575	1.035837	0.012230
 359	1.7900e-01	3.5774	-2.549716	0.000402	4.019371	0.680900	0.008039
 360	1.7950e-01	3.5864	-2.530473	0.000192	1.924167	0.325963	0.003849
 361	1.8000e-01	3.5968	-2.494980	0.000355	3.549019	0.601220	0.007099
 362	1.8050e-01	3.6076	-2.453928	0.000410	4.104889	0.695387	0.008210
 363	1.8100e-01	3.6159	-2.402185	0.000517	5.173871	0.876477	0.010349
 364	1.8150e-01	3.6270	-2.372251	0.000299	2.993149	0.507053	0.005987
 365	1.8200e-01	3.6383	-2.344028	0.000282	2.822112	0.478079	0.005645
 366	1.8250e-01	3.6484	-2.289292	0.000547	5.473186	0.927183	0.010947
 367	1.8300e-01	3.6554	-2.240970	0.000483	4.831797	0.818529	0.009664
 368	1.8350e-01	3.6679	-2.219161	0.000218	2.180723	0.369424	0.004362
 369	1.8400e-01	3.6792	-2.184524	0.000346	3.463500	0.586733	0.006928
 370	1.8450e-01	3.6896	-2.147748	0.000368	3.677297	0.622951	0.007355
 371	1.8500e-01	3.6964	-2.121235	0.000265	2.651074	0.449104	0.005303
 372	1.8550e-01	3.7070	-2.070775	0.000505	5.045593	0.854747	0.010092
 373	1.8600e-01	3.7167	-2.025019	0.000458	4.575241	0.775067	0.009151
 374	1.8650e-01	3.7271	-1.997651	0.000274	2.736593	0.463591	0.005474
 375	1.8700e-01	3.7384	-1.972422	0.000252	2.522797	0.427373	0.005046
 376	1.8750e-01	3.7473	-1.908705	0.000637	6.371131	1.079299	0.012743
 377	1.8800e-01	3.7576	-1.868081	0.000406	4.062130	0.688143	0.008125
 378	1.8850e-01	3.7682	-1.845844	0.000222	2.223482	0.376668	0.004447
 379	1.8900e-01	3.7744	-1.812490	0.000334	3.335223	0.565002	0.006671
 380	1.8950e-01	3.7891	-1.791964	0.000205	2.052445	0.347694	0.004105
 381	1.9000e-01	3.7970	-1.715846	0.000761	7.611149	1.289364	0.015223
 382	1.9050e-01	3.8062	-1.706011	0.000098	0.983463	0.166603	0.001967
 383	1.9100e-01	3.8171	-1.667097	0.000389	3.891093	0.659169	0.007783
 384	1.9150e-01	3.8278	-1.622624	0.000445	4.446964	0.753336	0.008895
 385	1.9200e-01	3.8374	-1.600388	0.000222	2.223482	0.376668	0.004447
 386	1.9250e-01	3.8455	-1.553776	0.000466	4.660760	0.789554	0.009322
 387	1.9300e-01	3.8586	-1.514007	0.000398	3.976612	0.673656	0.007954
 388	1.9350e-01	3.8678	-1.463548	0.000505	5.045593	0.854747	0.010092
 389	1.9400e-01	3.8757	-1.430193	0.000334	3.335223	0.565002	0.006671
 390	1.9450e-01	3.8898	-1.416936	0.000133	1.325537	0.224552	0.002651
 391	1.9500e-01	3.8965	-1.372036	0.000449	4.489723	0.760580	0.008980
 392	1.9550e-01	3.9066	-1.317300	0.000547	5.473186	0.927183	0.010947
 393	1.9600e-01	3.9185	-1.285228	0.000321	3.206945	0.543271	0.006414
 394	1.9650e-01	3.9273	-1.265557	0.000197	1.966926	0.333206	0.003934
 395	1.9700e-01	3.9380	-1.195854	0.000697	6.969760	1.180709	0.013941
 396	1.9750e-01	3.9478	-1.178321	0.000175	1.753130	0.296988	0.003507
 397	1.9800e-01	3.9587	-1.146677	0.000316	3.164186	0.536028	0.006329
 398	1.9850e-01	3.9687	-1.126151	0.000205	2.052445	0.347694	0.004105
 399	1.9900e-01	3.9752	-1.052600	0.000735	7.354594	1.245902	0.014710
 400	1.9950e-01	3.9864	-1.051744	0.000009	0.085519	0.014487	0.000171
 401	2.0000e-01	3.9966	-0.990166	0.000616	6.157334	1.043081	0.012316
 402	2.0050e-01	4.0070	-0.971778	0.000184	1.838648	0.311475	0.003678
 403	2.0100e-01	4.0173	-0.918753	0.000530	5.302149	0.898208	0.010605
 404	2.0150e-01	4.0266	-0.893523	0.000252	2.522797	0.427373	0.005046
 405	2.0200e-01	4.0359	-0.853326	0.000402	4.019371	0.680900	0.008039
 406	2.0250e-01	4.0472	-0.806715	0.000466	4.660760	0.789554	0.009322
 407	2.0300e-01	4.0579	-0.761387	0.000453	4.532482	0.767823	0.009066
 408	2.0350e-01	4.0649	-0.705368	0.000560	5.601464	0.948914	0.011204
 409	2.0400e-01	4.0769	-0.695960	0.000094	0.940704	0.159360	0.001882
 410	2.0450e-01	4.0894	-0.663888	0.000321	3.206945	0.543271	0.006414
 411	2.0500e-01	4.0961	-0.630106	0.000338	3.377982	0.572246	0.006756
 412	2.0550e-01	4.1074	-0.591192	0.000389	3.891093	0.659169	0.007783
 413	2.0600e-01	4.1162	-0.542443	0.000487	4.874556	0.825772	0.009750
 414	2.0650e-01	4.1264	-0.522772	0.000197	1.966926	0.333206	0.003934
 415	2.0700e-01	4.1345	-0.477444	0.000453	4.532482	0.767823	0.009066
 416	2.0750e-01	4.1458	-0.437674	0.000398	3.976612	0.673656	0.007954
 417	2.0800e-01	4.1577	-0.400471	0.000372	3.720056	0.630195	0.007441
 418	2.0850e-01	4.1656	-0.376524	0.000239	2.394519	0.405642	0.004789
 419	2.0900e-01	4.1780	-0.356426	0.000201	2.009685	0.340450	0.004020
 420	2.0950e-01	4.1876	-0.299124	0.000573	5.729742	0.970644	0.011460
 421	2.1000e-01	4.1946	-0.267907	0.000312	3.121426	0.528784	0.006243
 422	2.1050e-01	4.2047	-0.207184	0.000607	6.071816	1.028593	0.012145
 423	2.1100e-01	4.2175	-0.181955	0.000252	2.522797	0.427373	0.005046
 424	2.1150e-01	4.2279	-0.144324	0.000376	3.762815	0.637438	0.007526
 425	2.1200e-01	4.2365	-0.125508	0.000188	1.881408	0.318719	0.003763
 426	2.1250e-01	4.2471	-0.096429	0.000291	2.907630	0.492566	0.005816
 427	2.1300e-01	4.2569	-0.054522	0.000419	4.190408	0.709874	0.008381
 428	2.1350e-01	4.2667	-0.023733	0.000308	3.078667	0.521540	0.006158
 429	2.1400e-01	4.2761	0.037417	0.000611	6.114575	1.035837	0.012230
 430	2.1450e-01	4.2856	0.047253	0.000098	0.983463	0.166603	0.001967
 431	2.1500e-01	4.2993	0.093008	0.000458	4.575241	0.775067	0.009151
 432	2.1550e-01	4.3104	0.135771	0.000428	4.275927	0.724362	0.008553
 433	2.1600e-01	4.3166	0.174685	0.000389	3.891093	0.659169	0.007783
 434	2.1650e-01	4.3259	0.205046	0.000304	3.035908	0.514297	0.006072
 435	2.1700e-01	4.3411	0.243960	0.000389	3.891093	0.659169	0.007783
 436	2.1750e-01	4.3481	0.259355	0.000154	1.539334	0.260770	0.003079
 437	2.1800e-01	4.3561	0.319650	0.000603	6.029056	1.021350	0.012059
 438	2.1850e-01	4.3689	0.347873	0.000282	2.822112	0.478079	0.005645
 439	2.1900e-01	4.3750	0.391491	0.000436	4.361445	0.738849	0.008724
 440	2.1950e-01	4.3848	0.395340	0.000038	0.384833	0.065193	0.000770
 441	2.2000e-01	4.3973	0.456918	0.000616	6.157334	1.043081	0.012316
 442	2.2050e-01	4.4063	0.494549	0.000376	3.762815	0.637438	0.007526
 443	2.2100e-01	4.4177	0.515930	0.000214	2.137963	0.362181	0.004276
 444	2.2150e-01	4.4266	0.561258	0.000453	4.532482	0.767823	0.009066
 445	2.2200e-01	4.4388	0.595896	0.000346	3.463500	0.586733	0.006928
 446	2.2250e-01	4.4479	0.615994	0.000201	2.009685	0.340450	0.004020
 447	2.2300e-01	4.4592	0.682704	0.000667	6.670445	1.130004	0.013342
 448	2.2350e-01	4.4681	0.689546	0.000068	0.684148	0.115898	0.001368
 449	2.2400e-01	4.4757	0.747703	0.000582	5.815260	0.985132	0.011631
 450	2.2450e-01	4.4897	0.771222	0.000235	2.351760	0.398399	0.004704
 451	2.2500e-01	4.4971	0.805005	0.000338	3.377982	0.572246	0.006756
 452	2.2550e-01	4.5068	0.852899	0.000479	4.789038	0.811285	0.009579
 453	2.2600e-01	4.5172	0.881977	0.000291	2.907630	0.492566	0.005816
 454	2.2650e-01	4.5273	0.920891	0.000389	3.891093	0.659169	0.007783
 455	2.2700e-01	4.5374	0.941417	0.000205	2.052445	0.347694	0.004105
 456	2.2750e-01	4.5496	1.005561	0.000641	6.413890	1.086542	0.012829
 457	2.2800e-01	4.5569	1.027370	0.000218	2.180723	0.369424	0.004362
 458	2.2850e-01	4.5639	1.057303	0.000299	2.993149	0.507053	0.005987
 459	2.2900e-01	4.5786	1.081251	0.000239	2.394519	0.405642	0.004789
 460	2.2950e-01	4.5871	1.128289	0.000470	4.703519	0.796798	0.009408
 461	2.3000e-01	4.5966	1.168058	0.000398	3.976612	0.673656	0.007954
 462	2.3050e-01	4.6074	1.176183	0.000081	0.812426	0.137629	0.001625
 463	2.3100e-01	4.6185	1.224505	0.000483	4.831797	0.818529	0.009664
 464	2.3150e-01	4.6271	1.264274	0.000398	3.976612	0.673656	0.007954
 465	2.3200e-01	4.6422	1.295491	0.000312	3.121426	0.528784	0.006243
 466	2.3250e-01	4.6477	1.348516	0.000530	5.302149	0.898208	0.010605
 467	2.3300e-01	4.6570	1.372036	0.000235	2.351760	0.398399	0.004704
 468	2.3350e-01	4.6664	1.412232	0.000402	4.019371	0.680900	0.008039
 469	2.3400e-01	4.6744	1.461837	0.000496	4.960075	0.840259	0.009921
 470	2.3450e-01	4.6872	1.451574	-0.000103	-1.026222	-0.173847	-0.002053
 471	2.3500e-01	4.6983	1.516145	0.000646	6.456649	1.093786	0.012914
 472	2.3550e-01	4.7073	1.549073	0.000329	3.292463	0.557758	0.006585
 473	2.3600e-01	4.7162	1.583283	0.000342	3.420741	0.579489	0.006842
 474	2.3650e-01	4.7278	1.635453	0.000522	5.216630	0.883721	0.010434
 475	2.3700e-01	4.7366	1.650420	0.000150	1.496574	0.253527	0.002993
 476	2.3750e-01	4.7476	1.693610	0.000432	4.318686	0.731605	0.008638
 477	2.3800e-01	4.7580	1.723544	0.000299	2.993149	0.507053	0.005987
 478	2.3850e-01	4.7668	1.762885	0.000393	3.933852	0.666413	0.007868
 479	2.3900e-01	4.7794	1.799233	0.000363	3.634538	0.615707	0.007270
 480	2.3950e-01	4.7870	1.827884	0.000286	2.864871	0.485322	0.005730
 481	2.4000e-01	4.7998	1.873640	0.000458	4.575241	0.775067	0.009151
 482	2.4050e-01	4.8042	1.898015	0.000244	2.437278	0.412886	0.004875
 483	2.4100e-01	4.8199	1.933508	0.000355	3.549019	0.601220	0.007099
 484	2.4150e-01	4.8279	1.965152	0.000316	3.164186	0.536028	0.006329
 485	2.4200e-01	4.8396	2.005349	0.000402	4.019371	0.680900	0.008039
 486	2.4250e-01	4.8462	2.042124	0.000368	3.677297	0.622951	0.007355
 487	2.4300e-01	4.8596	2.092157	0.000500	5.002834	0.847503	0.010006
 488	2.4350e-01	4.8669	2.125084	0.000329	3.292463	0.557758	0.006585
 489	2.4400e-01	4.8779	2.134064	0.000090	0.897945	0.152116	0.001796
 490	2.4450e-01	4.8895	2.191793	0.000577	5.772501	0.977888	0.011546
 491	2.4500e-01	4.8984	2.217878	0.000261	2.608315	0.441861	0.005217
 492	2.4550e-01	4.9060	2.246529	0.000286	2.864871	0.485322	0.005730
 493	2.4600e-01	4.9158	2.260641	0.000141	1.411056	0.239039	0.002822
 494	2.4650e-01	4.9286	2.316660	0.000560	5.601464	0.948914	0.011204
 495	2.4700e-01	4.9373	2.351298	0.000346	3.463500	0.586733	0.006928
 496	2.4750e-01	4.9481	2.421856	0.000706	7.055279	1.195197	0.014112
 497	2.4800e-01	4.9582	2.426132	0.000043	0.427593	0.072436	0.000855
 498	2.4850e-01	4.9677	2.433829	0.000077	0.769667	0.130385	0.001539
 499	2.4900e-01	4.9759	2.476164	0.000423	4.233167	0.717118	0.008467
 500	2.4950e-01	4.9899	2.523631	0.000475	4.746278	0.804041	0.009493
 501	2.5000e-01	4.9963	2.550571	0.000269	2.693834	0.456348	0.005388
 502	2.5050e-01	5.0082	2.568104	0.000175	1.753130	0.296988	0.003507
 503	2.5100e-01	5.0159	2.629682	0.000616	6.157334	1.043081	0.012316
 504	2.5150e-01	5.0275	2.632247	0.000026	0.256556	0.043462	0.000513
 505	2.5200e-01	5.0374	2.699812	0.000676	6.755964	1.144491	0.013513
 506	2.5250e-01	5.0487	2.680141	-0.000197	-1.966926	-0.333206	-0.003934
 507	2.5300e-01	5.0581	2.767377	0.000872	8.722890	1.477698	0.017447
 508	2.5350e-01	5.0670	2.802442	0.000351	3.506260	0.593976	0.007013
 509	2.5400e-01	5.0784	2.832804	0.000304	3.035908	0.514297	0.006072
 510	2.5450e-01	5.0887	2.868724	0.000359	3.591778	0.608464	0.007184
 511	2.5500e-01	5.0992	2.889250	0.000205	2.052445	0.347694	0.004105
 512	2.5550e-01	5.1082	2.934578	0.000453	4.532482	0.767823	0.009066
 513	2.5600e-01	5.1178	2.953394	0.000188	1.881408	0.318719	0.003763
 514	2.5650e-01	5.1315	2.990170	0.000368	3.677297	0.622951	0.007355
 515	2.5700e-01	5.1379	3.038919	0.000487	4.874556	0.825772	0.009750
 516	2.5750e-01	5.1477	3.073557	0.000346	3.463500	0.586733	0.006928
 517	2.5800e-01	5.1590	3.119740	0.000462	4.618001	0.782310	0.009237
 518	2.5850e-01	5.1663	3.132569	0.000128	1.282778	0.217308	0.002566
 519	2.5900e-01	5.1776	3.168489	0.000359	3.591778	0.608464	0.007184
 520	2.5950e-01	5.1865	3.208686	0.000402	4.019371	0.680900	0.008039
 521	2.6000e-01	5.1990	3.236482	0.000278	2.779352	0.470835	0.005559
 522	2.6050e-01	5.2051	3.265560	0.000291	2.907630	0.492566	0.005816
 523	2.6100e-01	5.2179	3.300626	0.000351	3.506260	0.593976	0.007013
 524	2.6150e-01	5.2283	3.348520	0.000479	4.789038	0.811285	0.009579
 525	2.6200e-01	5.2356	3.374605	0.000261	2.608315	0.441861	0.005217
 526	2.6250e-01	5.2467	3.392137	0.000175	1.753130	0.296988	0.003507
 527	2.6300e-01	5.2570	3.430196	0.000381	3.805575	0.644682	0.007612
 528	2.6350e-01	5.2679	3.483649	0.000534	5.344908	0.905452	0.010691
 529	2.6400e-01	5.2774	3.517859	0.000342	3.420741	0.579489	0.006842
 530	2.6450e-01	5.2878	3.542662	0.000248	2.480037	0.420130	0.004960
 531	2.6500e-01	5.2972	3.582431	0.000398	3.976612	0.673656	0.007954
 532	2.6550e-01	5.3088	3.607233	0.000248	2.480037	0.420130	0.004960
 533	2.6600e-01	5.3177	3.632035	0.000248	2.480037	0.420130	0.004960
 534	2.6650e-01	5.3296	3.662397	0.000304	3.035908	0.514297	0.006072
 535	2.6700e-01	5.3368	3.714567	0.000522	5.216630	0.883721	0.010434
 536	2.6750e-01	5.3497	3.734238	0.000197	1.966926	0.333206	0.003934
 537	2.6800e-01	5.3592	3.771869	0.000376	3.762815	0.637438	0.007526
 538	2.6850e-01	5.3680	3.814204	0.000423	4.233167	0.717118	0.008467
 539	2.6900e-01	5.3763	3.831736	0.000175	1.753130	0.296988	0.003507
 540	2.6950e-01	5.3854	3.883051	0.000513	5.131112	0.869234	0.010263
 541	2.7000e-01	5.3986	3.898446	0.000154	1.539334	0.260770	0.003079
 542	2.7050e-01	5.4053	3.959596	0.000611	6.114575	1.035837	0.012230
 543	2.7100e-01	5.4187	3.967721	0.000081	0.812426	0.137629	0.001625
 544	2.7150e-01	5.4254	4.014760	0.000470	4.703519	0.796798	0.009408
 545	2.7200e-01	5.4382	4.033575	0.000188	1.881408	0.318719	0.003763
 546	2.7250e-01	5.4469	4.076766	0.000432	4.318686	0.731605	0.008638
 547	2.7300e-01	5.4553	4.108410	0.000316	3.164186	0.536028	0.006329
 548	2.7350e-01	5.4648	4.147751	0.000393	3.933852	0.666413	0.007868
 549	2.7400e-01	5.4779	4.169133	0.000214	2.137963	0.362181	0.004276
 550	2.7450e-01	5.4865	4.214889	0.000458	4.575241	0.775067	0.009151
 551	2.7500e-01	5.4947	4.237125	0.000222	2.223482	0.376668	0.004447
 552	2.7550e-01	5.5121	4.278177	0.000410	4.104889	0.695387	0.008210
 553	2.7600e-01	5.5191	4.309394	0.000312	3.121426	0.528784	0.006243
 554	2.7650e-01	5.5319	4.359426	0.000500	5.002834	0.847503	0.010006
 555	2.7700e-01	5.5365	4.397485	0.000381	3.805575	0.644682	0.007612
 556	2.7750e-01	5.5458	4.429556	0.000321	3.206945	0.543271	0.006414
 557	2.7800e-01	5.5569	4.443668	0.000141	1.411056	0.239039	0.002822
 558	2.7850e-01	5.5676	4.475312	0.000316	3.164186	0.536028	0.006329
 559	2.7900e-01	5.5762	4.504818	0.000295	2.950389	0.499809	0.005901
 560	2.7950e-01	5.5881	4.540311	0.000355	3.549019	0.601220	0.007099
 561	2.8000e-01	5.5948	4.561265	0.000210	2.095204	0.354937	0.004191
 562	2.8050e-01	5.6073	4.610442	0.000492	4.917315	0.833016	0.009835
 563	2.8100e-01	5.6195	4.639093	0.000286	2.864871	0.485322	0.005730
 564	2.8150e-01	5.6259	4.675869	0.000368	3.677297	0.622951	0.007355
 565	2.8200e-01	5.6390	4.711361	0.000355	3.549019	0.601220	0.007099
 566	2.8250e-01	5.6482	4.735308	0.000239	2.394519	0.405642	0.004789
 567	2.8300e-01	5.6570	4.771229	0.000359	3.591778	0.608464	0.007184
 568	2.8350e-01	5.6660	4.807577	0.000363	3.634538	0.615707	0.007270
 569	2.8400e-01	5.6781	4.819551	0.000120	1.197259	0.202821	0.002395
 570	2.8450e-01	5.6894	4.861886	0.000423	4.233167	0.717118	0.008467
 571	2.8500e-01	5.6961	4.898234	0.000363	3.634538	0.615707	0.007270
 572	2.8550e-01	5.7074	4.917904	0.000197	1.966926	0.333206	0.003934
 573	2.8600e-01	5.7184	4.967081	0.000492	4.917315	0.833016	0.009835
 574	2.8650e-01	5.7294	5.011554	0.000445	4.446964	0.753336	0.008895
 575	2.8700e-01	5.7397	5.026949	0.000154	1.539334	0.260770	0.003079
 576	2.8750e-01	5.7452	5.058166	0.000312	3.121426	0.528784	0.006243
 577	2.8800e-01	5.7568	5.091093	0.000329	3.292463	0.557758	0.006585
 578	2.8850e-01	5.7660	5.131289	0.000402	4.019371	0.680900	0.008039
 579	2.8900e-01	5.7751	5.153098	0.000218	2.180723	0.369424	0.004362
 580	2.8950e-01	5.7849	5.192012	0.000389	3.891093	0.659169	0.007783
 581	2.9000e-01	5.7968	5.228360	0.000363	3.634538	0.615707	0.007270
 582	2.9050e-01	5.8072	5.269412	0.000410	4.104889	0.695387	0.008210
 583	2.9100e-01	5.8182	5.299774	0.000304	3.035908	0.514297	0.006072
 584	2.9150e-01	5.8252	5.332273	0.000325	3.249704	0.550515	0.006500
 585	2.9200e-01	5.8387	5.347668	0.000154	1.539334	0.260770	0.003079
 586	2.9250e-01	5.8484	5.390858	0.000432	4.318686	0.731605	0.008638
 587	2.9300e-01	5.8560	5.436614	0.000458	4.575241	0.775067	0.009151
 588	2.9350e-01	5.8652	5.466120	0.000295	2.950389	0.499809	0.005901
 589	2.9400e-01	5.8771	5.483653	0.000175	1.753130	0.296988	0.003507
 590	2.9450e-01	5.8859	5.520428	0.000368	3.677297	0.622951	0.007355
 591	2.9500e-01	5.8978	5.561481	0.000410	4.104889	0.695387	0.008210
 592	2.9550e-01	5.9061	5.584145	0.000227	2.266241	0.383912	0.004533
 593	2.9600e-01	5.9174	5.605954	0.000218	2.180723	0.369424	0.004362
 594	2.9650e-01	5.9296	5.642302	0.000363	3.634538	0.615707	0.007270
 595	2.9700e-01	5.9363	5.674374	0.000321	3.206945	0.543271	0.006414
 596	2.9750e-01	5.9460	5.717136	0.000428	4.275927	0.724362	0.008553
 597	2.9800e-01	5.9589	5.741083	0.000239	2.394519	0.405642	0.004789
 598	2.9850e-01	5.9650	5.789405	0.000483	4.831797	0.818529	0.009664
 599	2.9900e-01	5.9772	5.808648	0.000192	1.924167	0.325963	0.003849
 600	2.9950e-01	5.9900	5.855259	0.000466	4.660760	0.789554	0.009322
 601	3.0000e-01	5.9961	5.857397	0.000021	0.213796	0.036218	0.000428
 602	3.0050e-01	6.0071	5.891180	0.000338	3.377982	0.572246	0.006756
 603	3.0100e-01	6.0148	5.934797	0.000436	4.361445	0.738849	0.008724
 604	3.0150e-01	6.0297	5.977988	0.000432	4.318686	0.731605	0.008638
 605	3.0200e-01	6.0379	6.020750	0.000428	4.275927	0.724362	0.008553
 606	3.0250e-01	6.0474	6.027592	0.000068	0.684148	0.115898	0.001368
 607	3.0300e-01	6.0577	6.058809	0.000312	3.121426	0.528784	0.006243
 608	3.0350e-01	6.0651	6.075914	0.000171	1.710371	0.289745	0.003421
 609	3.0400e-01	6.0751	6.140485	0.000646	6.456649	1.093786	0.012914
 610	3.0450e-01	6.0855	6.172557	0.000321	3.206945	0.543271	0.006414
 611	3.0500e-01	6.0992	6.189662	0.000171	1.710371	0.289745	0.003421
 612	3.0550e-01	6.1053	6.229431	0.000398	3.976612	0.673656	0.007954
 613	3.0600e-01	6.1157	6.279463	0.000500	5.002834	0.847503	0.010006
 614	3.0650e-01	6.1267	6.291437	0.000120	1.197259	0.202821	0.002395
 615	3.0700e-01	6.1360	6.314956	0.000235	2.351760	0.398399	0.004704
 616	3.0750e-01	6.1487	6.358574	0.000436	4.361445	0.738849	0.008724
 617	3.0800e-01	6.1572	6.385087	0.000265	2.651074	0.449104	0.005303
 618	3.0850e-01	6.1655	6.422290	0.000372	3.720056	0.630195	0.007441
 619	3.0900e-01	6.1755	6.452224	0.000299	2.993149	0.507053	0.005987
 620	3.0950e-01	6.1884	6.472750	0.000205	2.052445	0.347694	0.004105
 621	3.1000e-01	6.1993	6.509526	0.000368	3.677297	0.622951	0.007355
 622	3.1050e-01	6.2079	6.530907	0.000214	2.137963	0.362181	0.004276
 623	3.1100e-01	6.2177	6.586071	0.000552	5.515945	0.934426	0.011033
 624	3.1150e-01	6.2271	6.616432	0.000304	3.035908	0.514297	0.006072
 625	3.1200e-01	6.2372	6.657912	0.000415	4.147649	0.702631	0.008296
 626	3.1250e-01	6.2488	6.669030	0.000111	1.111741	0.188334	0.002224
 627	3.1300e-01	6.2592	6.709654	0.000406	4.062130	0.688143	0.008125
 628	3.1350e-01	6.2671	6.729753	0.000201	2.009685	0.340450	0.004020
 629	3.1400e-01	6.2784	6.772943	0.000432	4.318686	0.731605	0.008638
 630	3.1450e-01	6.2891	6.793469	0.000205	2.052445	0.347694	0.004105
 631	3.1500e-01	6.3000	6.834521	0.000410	4.104889	0.695387	0.008210
 632	3.1550e-01	6.3089	6.843501	0.000090	0.897945	0.152116	0.001796
 633	3.1600e-01	6.3159	6.900803	0.000573	5.729742	0.970644	0.011460
 634	3.1650e-01	6.3287	6.929454	0.000286	2.864871	0.485322	0.005730
 635	3.1700e-01	6.3397	6.950835	0.000214	2.137963	0.362181	0.004276
 636	3.1750e-01	6.3489	6.981196	0.000304	3.035908	0.514297	0.006072
 637	3.1800e-01	6.3593	6.997874	0.000167	1.667611	0.282501	0.003335
 638	3.1850e-01	6.3654	7.062445	0.000646	6.456649	1.093786	0.012914
 639	3.1900e-01	6.3782	7.073991	0.000115	1.154500	0.195578	0.002309
 640	3.1950e-01	6.3875	7.097510	0.000235	2.351760	0.398399	0.004704
 641	3.2000e-01	6.3971	7.145832	0.000483	4.831797	0.818529	0.009664
 642	3.2050e-01	6.4069	7.164648	0.000188	1.881408	0.318719	0.003763
 643	3.2100e-01	6.4157	7.204844	0.000402	4.019371	0.680900	0.008039
 644	3.2150e-01	6.4282	7.236916	0.000321	3.206945	0.543271	0.006414
 645	3.2200e-01	6.4355	7.283527	0.000466	4.660760	0.789554	0.009322
 646	3.2250e-01	6.4465	7.311751	0.000282	2.822112	0.478079	0.005645
 647	3.2300e-01	6.4612	7.333987	0.000222	2.223482	0.376668	0.004447
 648	3.2350e-01	6.4685	7.342967	0.000090	0.897945	0.152116	0.001796
 649	3.2400e-01	6.4783	7.389579	0.000466	4.660760	0.789554	0.009322
 650	3.2450e-01	6.4871	7.419512	0.000299	2.993149	0.507053	0.005987
 651	3.2500e-01	6.4984	7.459709	0.000402	4.019371	0.680900	0.008039
 652	3.2550e-01	6.5085	7.484084	0.000244	2.437278	0.412886	0.004875
 653	3.2600e-01	6.5192	7.533261	0.000492	4.917315	0.833016	0.009835
 654	3.2650e-01	6.5271	7.556352	0.000231	2.309000	0.391155	0.004618
 655	3.2700e-01	6.5366	7.594839	0.000385	3.848334	0.651925	0.007697
 656	3.2750e-01	6.5466	7.630759	0.000359	3.591778	0.608464	0.007184
 657	3.2800e-01	6.5576	7.645298	0.000145	1.453815	0.246283	0.002908
 658	3.2850e-01	6.5668	7.681219	0.000359	3.591778	0.608464	0.007184
 659	3.2900e-01	6.5784	7.696186	0.000150	1.496574	0.253527	0.002993
 660	3.2950e-01	6.5906	7.741087	0.000449	4.489723	0.760580	0.008980
 661	3.3000e-01	6.5979	7.766744	0.000257	2.565556	0.434617	0.005132
 662	3.3050e-01	6.6071	7.794540	0.000278	2.779352	0.470835	0.005559
 663	3.3100e-01	6.6168	7.824473	0.000299	2.993149	0.507053	0.005987
 664	3.3150e-01	6.6275	7.845855	0.000214	2.137963	0.362181	0.004276
 665	3.3200e-01	6.6409	7.880920	0.000351	3.506260	0.593976	0.007013
 666	3.3250e-01	6.6458	7.907005	0.000261	2.608315	0.441861	0.005217
 667	3.3300e-01	6.6584	7.976708	0.000697	6.969760	1.180709	0.013941
 668	3.3350e-01	6.6669	7.995524	0.000188	1.881408	0.318719	0.003763
 669	3.3400e-01	6.6797	8.010063	0.000145	1.453815	0.246283	0.002908
 670	3.3450e-01	6.6873	8.056674	0.000466	4.660760	0.789554	0.009322
 671	3.3500e-01	6.6956	8.081476	0.000248	2.480037	0.420130	0.004960
 672	3.3550e-01	6.7078	8.102858	0.000214	2.137963	0.362181	0.004276
 673	3.3600e-01	6.7200	8.140489	0.000376	3.762815	0.637438	0.007526
 674	3.3650e-01	6.7291	8.167857	0.000274	2.736593	0.463591	0.005474
 675	3.3700e-01	6.7383	8.196935	0.000291	2.907630	0.492566	0.005816
 676	3.3750e-01	6.7456	8.238842	0.000419	4.190408	0.709874	0.008381
 677	3.3800e-01	6.7560	8.268776	0.000299	2.993149	0.507053	0.005987
 678	3.3850e-01	6.7651	8.302559	0.000338	3.377982	0.572246	0.006756
 679	3.3900e-01	6.7786	8.317098	0.000145	1.453815	0.246283	0.002908
 680	3.3950e-01	6.7889	8.346604	0.000295	2.950389	0.499809	0.005901
 681	3.4000e-01	6.7987	8.402195	0.000556	5.558704	0.941670	0.011118
 682	3.4050e-01	6.8063	8.421438	0.000192	1.924167	0.325963	0.003849
 683	3.4100e-01	6.8164	8.465484	0.000440	4.404204	0.746092	0.008809
 684	3.4150e-01	6.8251	8.476602	0.000111	1.111741	0.188334	0.002224
 685	3.4200e-01	6.8359	8.530483	0.000539	5.387667	0.912696	0.010776
 686	3.4250e-01	6.8524	8.546305	0.000158	1.582093	0.268014	0.003164
 687	3.4300e-01	6.8610	8.571962	0.000257	2.565556	0.434617	0.005132
 688	3.4350e-01	6.8649	8.610449	0.000385	3.848334	0.651925	0.007697
 689	3.4400e-01	6.8774	8.618146	0.000077	0.769667	0.130385	0.001539
 690	3.4450e-01	6.8884	8.676731	0.000586	5.858019	0.992375	0.011717
 691	3.4500e-01	6.8991	8.670316	-0.000064	-0.641389	-0.108654	-0.001283
 692	3.4550e-01	6.9098	8.712651	0.000423	4.233167	0.717118	0.008467
 693	3.4600e-01	6.9177	8.759690	0.000470	4.703519	0.796798	0.009408
 694	3.4650e-01	6.9257	8.791334	0.000316	3.164186	0.536028	0.006329
 695	3.4700e-01	6.9360	8.809294	0.000180	1.795889	0.304232	0.003592
 696	3.4750e-01	6.9479	8.831959	0.000227	2.266241	0.383912	0.004533
 697	3.4800e-01	6.9556	8.845643	0.000137	1.368296	0.231796	0.002737
 698	3.4850e-01	6.9672	8.888833	0.000432	4.318686	0.731605	0.008638
 699	3.4900e-01	6.9772	8.936299	0.000475	4.746278	0.804041	0.009493
 700	3.4950e-01	6.9843	8.982483	0.000462	4.618001	0.782310	0.009237
 701	3.5000e-01	6.9965	8.995311	0.000128	1.282778	0.217308	0.002566
 702	3.5050e-01	7.0087	9.017120	0.000218	2.180723	0.369424	0.004362
 703	3.5100e-01	7.0184	9.058600	0.000415	4.147649	0.702631	0.008296
 704	3.5150e-01	7.0288	9.080837	0.000222	2.223482	0.376668	0.004447
 705	3.5200e-01	7.0383	9.120178	0.000393	3.933852	0.666413	0.007868
 706	3.5250e-01	7.0496	9.127875	0.000077	0.769667	0.130385	0.001539
 707	3.5300e-01	7.0593	9.179190	0.000513	5.131112	0.869234	0.010263
 708	3.5350e-01	7.0667	9.217249	0.000381	3.805575	0.644682	0.007612
 709	3.5400e-01	7.0758	9.218959	0.000017	0.171037	0.028974	0.000342
 710	3.5450e-01	7.0862	9.246328	0.000274	2.736593	0.463591	0.005474
 711	3.5500e-01	7.0959	9.270275	0.000239	2.394519	0.405642	0.004789
 712	3.5550e-01	7.1057	9.314320	0.000440	4.404204	0.746092	0.008809
 713	3.5600e-01	7.1198	9.351096	0.000368	3.677297	0.622951	0.007355
 714	3.5650e-01	7.1271	9.393003	0.000419	4.190408	0.709874	0.008381
 715	3.5700e-01	7.1375	9.413957	0.000210	2.095204	0.354937	0.004191
 716	3.5750e-01	7.1500	9.441325	0.000274	2.736593	0.463591	0.005474
 717	3.5800e-01	7.1570	9.484942	0.000436	4.361445	0.738849	0.008724
 718	3.5850e-01	7.1683	9.514449	0.000295	2.950389	0.499809	0.005901
 719	3.5900e-01	7.1777	9.528133	0.000137	1.368296	0.231796	0.002737
 720	3.5950e-01	7.1863	9.579020	0.000509	5.088353	0.861990	0.010177
 721	3.6000e-01	7.1954	9.602967	0.000239	2.394519	0.405642	0.004789
 722	3.6050e-01	7.2058	9.650433	0.000475	4.746278	0.804041	0.009493
 723	3.6100e-01	7.2174	9.660269	0.000098	0.983463	0.166603	0.001967
 724	3.6150e-01	7.2272	9.686354	0.000261	2.608315	0.441861	0.005217
 725	3.6200e-01	7.2394	9.713294	0.000269	2.693834	0.456348	0.005388
 726	3.6250e-01	7.2467	9.739379	0.000261	2.608315	0.441861	0.005217
 727	3.6300e-01	7.2556	9.768030	0.000286	2.864871	0.485322	0.005730
 728	3.6350e-01	7.2705	9.806944	0.000389	3.891093	0.659169	0.007783
 729	3.6400e-01	7.2772	9.830464	0.000235	2.351760	0.398399	0.004704
 730	3.6450e-01	7.2888	9.846286	0.000158	1.582093	0.268014	0.003164
 731	3.6500e-01	7.2986	9.899311	0.000530	5.302149	0.898208	0.010605
 732	3.6550e-01	7.3102	9.933949	0.000346	3.463500	0.586733	0.006928
 733	3.6600e-01	7.3175	9.948061	0.000141	1.411056	0.239039	0.002822
 734	3.6650e-01	7.3279	9.985264	0.000372	3.720056	0.630195	0.007441
 735	3.6700e-01	7.3370	10.009211	0.000239	2.394519	0.405642	0.004789
 736	3.6750e-01	7.3468	10.042138	0.000329	3.292463	0.557758	0.006585
 737	3.6800e-01	7.3566	10.082763	0.000406	4.062130	0.688143	0.008125
 738	3.6850e-01	7.3685	10.105427	0.000227	2.266241	0.383912	0.004533
 739	3.6900e-01	7.3798	10.130657	0.000252	2.522797	0.427373	0.005046
 740	3.6950e-01	7.3877	10.175130	0.000445	4.446964	0.753336	0.008895
 741	3.7000e-01	7.3950	10.185820	0.000107	1.068982	0.181090	0.002138
 742	3.7050e-01	7.4051	10.241412	0.000556	5.558704	0.941670	0.011118
 743	3.7100e-01	7.4182	10.255523	0.000141	1.411056	0.239039	0.002822
 744	3.7150e-01	7.4274	10.282891	0.000274	2.736593	0.463591	0.005474
 745	3.7200e-01	7.4335	10.324371	0.000415	4.147649	0.702631	0.008296
 746	3.7250e-01	7.4451	10.347463	0.000231	2.309000	0.391155	0.004618
 747	3.7300e-01	7.4600	10.363285	0.000158	1.582093	0.268014	0.003164
 748	3.7350e-01	7.4695	10.395357	0.000321	3.206945	0.543271	0.006414
 749	3.7400e-01	7.4776	10.441113	0.000458	4.575241	0.775067	0.009151
 750	3.7450e-01	7.4866	10.462066	0.000210	2.095204	0.354937	0.004191
 751	3.7500e-01	7.5003	10.485586	0.000235	2.351760	0.398399	0.004704
 752	3.7550e-01	7.5081	10.538611	0.000530	5.302149	0.898208	0.010605
 753	3.7600e-01	7.5180	10.563841	0.000252	2.522797	0.427373	0.005046
 754	3.7650e-01	7.5269	10.588216	0.000244	2.437278	0.412886	0.004875
 755	3.7700e-01	7.5372	10.610025	0.000218	2.180723	0.369424	0.004362
 756	3.7750e-01	7.5458	10.636965	0.000269	2.693834	0.456348	0.005388
 757	3.7800e-01	7.5571	10.678445	0.000415	4.147649	0.702631	0.008296
 758	3.7850e-01	7.5702	10.684431	0.000060	0.598630	0.101411	0.001197
 759	3.7900e-01	7.5787	10.730615	0.000462	4.618001	0.782310	0.009237
 760	3.7950e-01	7.5838	10.761831	0.000312	3.121426	0.528784	0.006243
 761	3.8000e-01	7.5977	10.785778	0.000239	2.394519	0.405642	0.004789
 762	3.8050e-01	7.6074	10.805877	0.000201	2.009685	0.340450	0.004020
 763	3.8100e-01	7.6147	10.831962	0.000261	2.608315	0.441861	0.005217
 764	3.8150e-01	7.6282	10.876435	0.000445	4.446964	0.753336	0.008895
 765	3.8200e-01	7.6367	10.908079	0.000316	3.164186	0.536028	0.006329
 766	3.8250e-01	7.6459	10.927750	0.000197	1.966926	0.333206	0.003934
 767	3.8300e-01	7.6593	10.964098	0.000363	3.634538	0.615707	0.007270
 768	3.8350e-01	7.6678	11.000874	0.000368	3.677297	0.622951	0.007355
 769	3.8400e-01	7.6782	11.031663	0.000308	3.078667	0.521540	0.006158
 770	3.8450e-01	7.6881	11.050479	0.000188	1.881408	0.318719	0.003763
 771	3.8500e-01	7.6974	11.079985	0.000295	2.950389	0.499809	0.005901
 772	3.8550e-01	7.7054	11.114195	0.000342	3.420741	0.579489	0.006842
 773	3.8600e-01	7.7179	11.162516	0.000483	4.831797	0.818529	0.009664
 774	3.8650e-01	7.7277	11.175773	0.000133	1.325537	0.224552	0.002651
 775	3.8700e-01	7.7359	11.195444	0.000197	1.966926	0.333206	0.003934
 776	3.8750e-01	7.7466	11.233075	0.000376	3.762815	0.637438	0.007526
 777	3.8800e-01	7.7563	11.253601	0.000205	2.052445	0.347694	0.004105
 778	3.8850e-01	7.7643	11.290804	0.000372	3.720056	0.630195	0.007441
 779	3.8900e-01	7.7747	11.316889	0.000261	2.608315	0.441861	0.005217
 780	3.8950e-01	7.7863	11.352810	0.000359	3.591778	0.608464	0.007184
 781	3.9000e-01	7.7948	11.395572	0.000428	4.275927	0.724362	0.008553
 782	3.9050e-01	7.8072	11.412677	0.000171	1.710371	0.289745	0.003421
 783	3.9100e-01	7.8177	11.428499	0.000158	1.582093	0.268014	0.003164
 784	3.9150e-01	7.8275	11.459716	0.000312	3.121426	0.528784	0.006243
 785	3.9200e-01	7.8369	11.503334	0.000436	4.361445	0.738849	0.008724
 786	3.9250e-01	7.8494	11.523004	0.000197	1.966926	0.333206	0.003934
 787	3.9300e-01	7.8564	11.548662	0.000257	2.565556	0.434617	0.005132
 788	3.9350e-01	7.8680	11.587576	0.000389	3.891093	0.659169	0.007783
 789	3.9400e-01	7.8760	11.640601	0.000530	5.302149	0.898208	0.010605
 790	3.9450e-01	7.8870	11.648726	0.000081	0.812426	0.137629	0.001625
 791	3.9500e-01	7.8976	11.674384	0.000257	2.565556	0.434617	0.005132
 792	3.9550e-01	7.9065	11.712015	0.000376	3.762815	0.637438	0.007526
 793	3.9600e-01	7.9156	11.726554	0.000145	1.453815	0.246283	0.002908
 794	3.9650e-01	7.9224	11.751784	0.000252	2.522797	0.427373	0.005046
 795	3.9700e-01	7.9364	11.804382	0.000526	5.259390	0.890965	0.010520
 796	3.9750e-01	7.9480	11.817211	0.000128	1.282778	0.217308	0.002566
 797	3.9800e-01	7.9572	11.859118	0.000419	4.190408	0.709874	0.008381
 798	3.9850e-01	7.9657	11.876223	0.000171	1.710371	0.289745	0.003421
 799	3.9900e-01	7.9797	11.904874	0.000286	2.864871	0.485322	0.005730
 800	3.9950e-01	7.9848	11.936946	0.000321	3.206945	0.543271	0.006414
 801	4.0000e-01	7.9980	11.969445	0.000325	3.249704	0.550515	0.006500
 802	4.0050e-01	8.0078	11.983557	0.000141	1.411056	0.239039	0.002822
 803	4.0100e-01	8.0164	12.012208	0.000286	2.864871	0.485322	0.005730
 804	4.0150e-01	8.0237	12.062668	0.000505	5.045593	0.854747	0.010092
 805	4.0200e-01	8.0341	12.071220	0.000086	0.855185	0.144872	0.001711
 806	4.0250e-01	8.0463	12.109706	0.000385	3.848334	0.651925	0.007697
 807	4.0300e-01	8.0563	12.145627	0.000359	3.591778	0.608464	0.007184
 808	4.0350e-01	8.0682	12.173850	0.000282	2.822112	0.478079	0.005645
 809	4.0400e-01	8.0798	12.201218	0.000274	2.736593	0.463591	0.005474
 810	4.0450e-01	8.0896	12.244408	0.000432	4.318686	0.731605	0.008638
 811	4.0500e-01	8.0969	12.264934	0.000205	2.052445	0.347694	0.004105
 812	4.0550e-01	8.1067	12.284177	0.000192	1.924167	0.325963	0.003849
 813	4.0600e-01	8.1195	12.305559	0.000214	2.137963	0.362181	0.004276
 814	4.0650e-01	8.1287	12.361150	0.000556	5.558704	0.941670	0.011118
 815	4.0700e-01	8.1369	12.362005	0.000009	0.085519	0.014487	0.000171
 816	4.0750e-01	8.1482	12.405623	0.000436	4.361445	0.738849	0.008724
 817	4.0800e-01	8.1570	12.422300	0.000167	1.667611	0.282501	0.003335
 818	4.0850e-01	8.1683	12.452234	0.000299	2.993149	0.507053	0.005987
 819	4.0900e-01	8.1775	12.493286	0.000410	4.104889	0.695387	0.008210
 820	4.0950e-01	8.1854	12.508253	0.000150	1.496574	0.253527	0.002993
 821	4.1000e-01	8.1976	12.537332	0.000291	2.907630	0.492566	0.005816
 822	4.1050e-01	8.2062	12.588647	0.000513	5.131112	0.869234	0.010263
 823	4.1100e-01	8.2184	12.614304	0.000257	2.565556	0.434617	0.005132
 824	4.1150e-01	8.2269	12.629271	0.000150	1.496574	0.253527	0.002993
 825	4.1200e-01	8.2385	12.663053	0.000338	3.377982	0.572246	0.006756
 826	4.1250e-01	8.2458	12.692560	0.000295	2.950389	0.499809	0.005901
 827	4.1300e-01	8.2581	12.734467	0.000419	4.190408	0.709874	0.008381
 828	4.1350e-01	8.2675	12.752427	0.000180	1.795889	0.304232	0.003592
 829	4.1400e-01	8.2748	12.781933	0.000295	2.950389	0.499809	0.005901
 830	4.1450e-01	8.2855	12.786210	0.000043	0.427593	0.072436	0.000855
 831	4.1500e-01	8.2977	12.837097	0.000509	5.088353	0.861990	0.010177
 832	4.1550e-01	8.3075	12.877294	0.000402	4.019371	0.680900	0.008039
 833	4.1600e-01	8.3142	12.907227	0.000299	2.993149	0.507053	0.005987
 834	4.1650e-01	8.3282	12.921767	0.000145	1.453815	0.246283	0.002908
 835	4.1700e-01	8.3365	12.966240	0.000445	4.446964	0.753336	0.008895
 836	4.1750e-01	8.3484	12.970944	0.000047	0.470352	0.079680	0.000941
 837	4.1800e-01	8.3582	13.016700	0.000458	4.575241	0.775067	0.009151
 838	4.1850e-01	8.3679	13.040647	0.000239	2.394519	0.405642	0.004789
 839	4.1900e-01	8.3783	13.077850	0.000372	3.720056	0.630195	0.007441
 840	4.1950e-01	8.3881	13.084692	0.000068	0.684148	0.115898	0.001368
 841	4.2000e-01	8.3954	13.148836	0.000641	6.413890	1.086542	0.012829
 842	4.2050e-01	8.4058	13.135579	-0.000133	-1.325537	-0.224552	-0.002651
 843	4.2100e-01	8.4189	13.181335	0.000458	4.575241	0.775067	0.009151
 844	4.2150e-01	8.4283	13.198013	0.000167	1.667611	0.282501	0.003335
 845	4.2200e-01	8.4402	13.247190	0.000492	4.917315	0.833016	0.009835
 846	4.2250e-01	8.4485	13.262584	0.000154	1.539334	0.260770	0.003079
 847	4.2300e-01	8.4595	13.289952	0.000274	2.736593	0.463591	0.005474
 848	4.2350e-01	8.4686	13.332287	0.000423	4.233167	0.717118	0.008467
 849	4.2400e-01	8.4773	13.365642	0.000334	3.335223	0.565002	0.006671
 850	4.2450e-01	8.4894	13.387023	0.000214	2.137963	0.362181	0.004276
 851	4.2500e-01	8.4961	13.431496	0.000445	4.446964	0.753336	0.008895
 852	4.2550e-01	8.5065	13.467844	0.000363	3.634538	0.615707	0.007270
 853	4.2600e-01	8.5162	13.465278	-0.000026	-0.256556	-0.043462	-0.000513
 854	4.2650e-01	8.5284	13.520442	0.000552	5.515945	0.934426	0.011033
 855	4.2700e-01	8.5370	13.534554	0.000141	1.411056	0.239039	0.002822
 856	4.2750e-01	8.5474	13.581165	0.000466	4.660760	0.789554	0.009322
 857	4.2800e-01	8.5579	13.593566	0.000124	1.240019	0.210065	0.002480
 858	4.2850e-01	8.5678	13.598698	0.000051	0.513111	0.086923	0.001026
 859	4.2900e-01	8.5754	13.658137	0.000594	5.943538	1.006863	0.011888
 860	4.2950e-01	8.5867	13.692775	0.000346	3.463500	0.586733	0.006928
 861	4.3000e-01	8.5956	13.707742	0.000150	1.496574	0.253527	0.002993
 862	4.3050e-01	8.6084	13.717577	0.000098	0.983463	0.166603	0.001967
 863	4.3100e-01	8.6206	13.767182	0.000496	4.960075	0.840259	0.009921
 864	4.3150e-01	8.6267	13.811227	0.000440	4.404204	0.746092	0.008809
 865	4.3200e-01	8.6395	13.822773	0.000115	1.154500	0.195578	0.002309
 866	4.3250e-01	8.6450	13.856983	0.000342	3.420741	0.579489	0.006842
 867	4.3300e-01	8.6600	13.877509	0.000205	2.052445	0.347694	0.004105
 868	4.3350e-01	8.6676	13.904450	0.000269	2.693834	0.456348	0.005388
 869	4.3400e-01	8.6771	13.937377	0.000329	3.292463	0.557758	0.006585
 870	4.3450e-01	8.6896	13.973725	0.000363	3.634538	0.615707	0.007270
 871	4.3500e-01	8.6987	14.005797	0.000321	3.206945	0.543271	0.006414
 872	4.3550e-01	8.7054	14.038724	0.000329	3.292463	0.557758	0.006585
 873	4.3600e-01	8.7170	14.067802	0.000291	2.907630	0.492566	0.005816
 874	4.3650e-01	8.7262	14.093888	0.000261	2.608315	0.441861	0.005217
 875	4.3700e-01	8.7360	14.106289	0.000124	1.240019	0.210065	0.002480
 876	4.3750e-01	8.7482	14.154183	0.000479	4.789038	0.811285	0.009579
 877	4.3800e-01	8.7573	14.168722	0.000145	1.453815	0.246283	0.002908
 878	4.3850e-01	8.7695	14.200794	0.000321	3.206945	0.543271	0.006414
 879	4.3900e-01	8.7793	14.229017	0.000282	2.822112	0.478079	0.005645
 880	4.3950e-01	8.7891	14.275628	0.000466	4.660760	0.789554	0.009322
 881	4.4000e-01	8.7988	14.295299	0.000197	1.966926	0.333206	0.003934
 882	4.4050e-01	8.8092	14.309411	0.000141	1.411056	0.239039	0.002822
 883	4.4100e-01	8.8184	14.360298	0.000509	5.088353	0.861990	0.010177
 884	4.4150e-01	8.8287	14.363292	0.000030	0.299315	0.050705	0.000599
 885	4.4200e-01	8.8391	14.432139	0.000688	6.884242	1.166222	0.013770
 886	4.4250e-01	8.8470	14.450527	0.000184	1.838648	0.311475	0.003678
 887	4.4300e-01	8.8568	14.470625	0.000201	2.009685	0.340450	0.004020
 888	4.4350e-01	8.8684	14.490724	0.000201	2.009685	0.340450	0.004020
 889	4.4400e-01	8.8783	14.518947	0.000282	2.822112	0.478079	0.005645
 890	4.4450e-01	8.8855	14.553157	0.000342	3.420741	0.579489	0.006842
 891	4.4500e-01	8.8977	14.581380	0.000282	2.822112	0.478079	0.005645
 892	4.4550e-01	8.9047	14.611742	0.000304	3.035908	0.514297	0.006072
 893	4.4600e-01	8.9178	14.647662	0.000359	3.591778	0.608464	0.007184
 894	4.4650e-01	8.9252	14.676741	0.000291	2.907630	0.492566	0.005816
 895	4.4700e-01	8.9343	14.701543	0.000248	2.480037	0.420130	0.004960
 896	4.4750e-01	8.9447	14.728911	0.000274	2.736593	0.463591	0.005474
 897	4.4800e-01	8.9557	14.761838	0.000329	3.292463	0.557758	0.006585
 898	4.4850e-01	8.9673	14.783220	0.000214	2.137963	0.362181	0.004276
 899	4.4900e-01	8.9789	14.825127	0.000419	4.190408	0.709874	0.008381
 900	4.4950e-01	8.9874	14.840949	0.000158	1.582093	0.268014	0.003164
 901	4.5000e-01	8.9966	14.868745	0.000278	2.779352	0.470835	0.005559
 902	4.5050e-01	9.0088	14.898678	0.000299	2.993149	0.507053	0.005987
 903	4.5100e-01	9.0167	14.924336	0.000257	2.565556	0.434617	0.005132
 904	4.5150e-01	9.0271	14.956408	0.000321	3.206945	0.543271	0.006414
 905	4.5200e-01	9.0363	14.996177	0.000398	3.976612	0.673656	0.007954
 906	4.5250e-01	9.0468	15.015848	0.000197	1.966926	0.333206	0.003934
 907	4.5300e-01	9.0576	15.066735	0.000509	5.088353	0.861990	0.010177
 908	4.5350e-01	9.0674	15.071867	0.000051	0.513111	0.086923	0.001026
 909	4.5400e-01	9.0765	15.099235	0.000274	2.736593	0.463591	0.005474
 910	4.5450e-01	9.0878	15.144563	0.000453	4.532482	0.767823	0.009066
 911	4.5500e-01	9.0985	15.159102	0.000145	1.453815	0.246283	0.002908
 912	4.5550e-01	9.1086	15.195023	0.000359	3.591778	0.608464	0.007184
 913	4.5600e-01	9.1190	15.227522	0.000325	3.249704	0.550515	0.006500
 914	4.5650e-01	9.1278	15.254890	0.000274	2.736593	0.463591	0.005474
 915	4.5700e-01	9.1376	15.299791	0.000449	4.489723	0.760580	0.008980
 916	4.5750e-01	9.1504	15.314330	0.000145	1.453815	0.246283	0.002908
 917	4.5800e-01	9.1595	15.345119	0.000308	3.078667	0.521540	0.006158
 918	4.5850e-01	9.1687	15.368639	0.000235	2.351760	0.398399	0.004704
 919	4.5900e-01	9.1779	15.379329	0.000107	1.068982	0.181090	0.002138
 920	4.5950e-01	9.1895	15.432355	0.000530	5.302149	0.898208	0.010605
 921	4.6000e-01	9.2004	15.456729	0.000244	2.437278	0.412886	0.004875
 922	4.6050e-01	9.2059	15.481104	0.000244	2.437278	0.412886	0.004875
 923	4.6100e-01	9.2169	15.511038	0.000299	2.993149	0.507053	0.005987
 924	4.6150e-01	9.2273	15.555083	0.000440	4.404204	0.746092	0.008809
 925	4.6200e-01	9.2352	15.577747	0.000227	2.266241	0.383912	0.004533
 926	4.6250e-01	9.2480	15.600411	0.000227	2.266241	0.383912	0.004533
 927	4.6300e-01	9.2596	15.624358	0.000239	2.394519	0.405642	0.004789
 928	4.6350e-01	9.2676	15.657713	0.000334	3.335223	0.565002	0.006671
 929	4.6400e-01	9.2767	15.703042	0.000453	4.532482	0.767823	0.009066
 930	4.6450e-01	9.2902	15.726989	0.000239	2.394519	0.405642	0.004789
 931	4.6500e-01	9.2978	15.734686	0.000077	0.769667	0.130385	0.001539
 932	4.6550e-01	9.3066	15.783863	0.000492	4.917315	0.833016	0.009835
 933	4.6600e-01	9.3176	15.811231	0.000274	2.736593	0.463591	0.005474
 934	4.6650e-01	9.3268	15.842020	0.000308	3.078667	0.521540	0.006158
 935	4.6700e-01	9.3372	15.874519	0.000325	3.249704	0.550515	0.006500
 936	4.6750e-01	9.3475	15.917709	0.000432	4.318686	0.731605	0.008638
 937	4.6800e-01	9.3585	15.941656	0.000239	2.394519	0.405642	0.004789
 938	4.6850e-01	9.3665	15.999386	0.000577	5.772501	0.977888	0.011546
 939	4.6900e-01	9.3756	15.992116	-0.000073	-0.726908	-0.123141	-0.001454
 940	4.6950e-01	9.3884	16.016063	0.000239	2.394519	0.405642	0.004789
 941	4.7000e-01	9.3970	16.062674	0.000466	4.660760	0.789554	0.009322
 942	4.7050e-01	9.4073	16.081918	0.000192	1.924167	0.325963	0.003849
 943	4.7100e-01	9.4189	16.114417	0.000325	3.249704	0.550515	0.006500
 944	4.7150e-01	9.4281	16.143068	0.000286	2.864871	0.485322	0.005730
 945	4.7200e-01	9.4379	16.167015	0.000239	2.394519	0.405642	0.004789
 946	4.7250e-01	9.4464	16.174712	0.000077	0.769667	0.130385	0.001539
 947	4.7300e-01	9.4543	16.215337	0.000406	4.062130	0.688143	0.008125
 948	4.7350e-01	9.4659	16.249119	0.000338	3.377982	0.572246	0.006756
 949	4.7400e-01	9.4745	16.314118	0.000650	6.499408	1.101030	0.013000
 950	4.7450e-01	9.4885	16.329085	0.000150	1.496574	0.253527	0.002993
 951	4.7500e-01	9.4983	16.341914	0.000128	1.282778	0.217308	0.002566
 952	4.7550e-01	9.5099	16.372275	0.000304	3.035908	0.514297	0.006072
 953	4.7600e-01	9.5172	16.412472	0.000402	4.019371	0.680900	0.008039
 954	4.7650e-01	9.5264	16.430860	0.000184	1.838648	0.311475	0.003678
 955	4.7700e-01	9.5367	16.481320	0.000505	5.045593	0.854747	0.010092
 956	4.7750e-01	9.5471	16.496714	0.000154	1.539334	0.260770	0.003079
 957	4.7800e-01	9.5560	16.525365	0.000286	2.864871	0.485322	0.005730
 958	4.7850e-01	9.5648	16.554871	0.000295	2.950389	0.499809	0.005901
 959	4.7900e-01	9.5758	16.565134	0.000103	1.026222	0.173847	0.002053
 960	4.7950e-01	9.5880	16.625857	0.000607	6.071816	1.028593	0.012145
 961	4.8000e-01	9.5947	16.649804	0.000239	2.394519	0.405642	0.004789
 962	4.8050e-01	9.6063	16.646811	-0.000030	-0.299315	-0.050705	-0.000599
 963	4.8100e-01	9.6185	16.688718	0.000419	4.190408	0.709874	0.008381
 964	4.8150e-01	9.6265	16.760131	0.000714	7.140797	1.209684	0.014283
 965	4.8200e-01	9.6362	16.765263	0.000051	0.513111	0.086923	0.001026
 966	4.8250e-01	9.6466	16.798190	0.000329	3.292463	0.557758	0.006585
 967	4.8300e-01	9.6585	16.839242	0.000410	4.104889	0.695387	0.008210
 968	4.8350e-01	9.6680	16.869176	0.000299	2.993149	0.507053	0.005987
 969	4.8400e-01	9.6759	16.887991	0.000188	1.881408	0.318719	0.003763
 970	4.8450e-01	9.6844	16.930326	0.000423	4.233167	0.717118	0.008467
 971	4.8500e-01	9.6957	16.950424	0.000201	2.009685	0.340450	0.004020
 972	4.8550e-01	9.7070	16.961115	0.000107	1.068982	0.181090	0.002138
 973	4.8600e-01	9.7144	17.015851	0.000547	5.473186	0.927183	0.010947
 974	4.8650e-01	9.7278	17.036805	0.000210	2.095204	0.354937	0.004191
 975	4.8700e-01	9.7357	17.083844	0.000470	4.703519	0.796798	0.009408
 976	4.8750e-01	9.7440	17.109501	0.000257	2.565556	0.434617	0.005132
 977	4.8800e-01	9.7562	17.127889	0.000184	1.838648	0.311475	0.003678
 978	4.8850e-01	9.7662	17.152264	0.000244	2.437278	0.412886	0.004875
 979	4.8900e-01	9.7748	17.185191	0.000329	3.292463	0.557758	0.006585
 980	4.8950e-01	9.7845	17.215552	0.000304	3.035908	0.514297	0.006072
 981	4.9000e-01	9.7943	17.250190	0.000346	3.463500	0.586733	0.006928
 982	4.9050e-01	9.8059	17.287393	0.000372	3.720056	0.630195	0.007441
 983	4.9100e-01	9.8199	17.310485	0.000231	2.309000	0.391155	0.004618
 984	4.9150e-01	9.8260	17.338708	0.000282	2.822112	0.478079	0.005645
 985	4.9200e-01	9.8361	17.382754	0.000440	4.404204	0.746092	0.008809
 986	4.9250e-01	9.8480	17.408411	0.000257	2.565556	0.434617	0.005132
 987	4.9300e-01	9.8560	17.449036	0.000406	4.062130	0.688143	0.008125
 988	4.9350e-01	9.8654	17.446470	-0.000026	-0.256556	-0.043462	-0.000513
 989	4.9400e-01	9.8761	17.493936	0.000475	4.746278	0.804041	0.009493
 990	4.9450e-01	9.8871	17.536699	0.000428	4.275927	0.724362	0.008553
 991	4.9500e-01	9.8975	17.554659	0.000180	1.795889	0.304232	0.003592
 992	4.9550e-01	9.9075	17.570481	0.000158	1.582093	0.268014	0.003164
 993	4.9600e-01	9.9152	17.611961	0.000415	4.147649	0.702631	0.008296
 994	4.9650e-01	9.9255	17.651730	0.000398	3.976612	0.673656	0.007954
 995	4.9700e-01	9.9359	17.688506	0.000368	3.677297	0.622951	0.007355
 996	4.9750e-01	9.9457	17.703473	0.000150	1.496574	0.253527	0.002993
 997	4.9800e-01	9.9579	17.757353	0.000539	5.387667	0.912696	0.010776
 998	4.9850e-01	9.9686	17.766333	0.000090	0.897945	0.152116	0.001796
 999	4.9900e-01	9.9768	17.794129	0.000278	2.779352	0.470835	0.005559
1000	4.9950e-01	9.9872	17.833043	0.000389	3.891093	0.659169	0.007783
1001	5.0000e-01	9.9954	17.855707	0.000227	2.266241	0.383912	0.004533
1002	5.0050e-01	9.9835	17.836892	0.000188	1.881408	0.318719	-0.003763
1003	5.0100e-01	9.9756	17.813372	0.000235	2.351760	0.398399	-0.004704
1004	5.0150e-01	9.9646	17.795412	0.000180	1.795889	0.304232	-0.003592
1005	5.0200e-01	9.9533	17.804392	-0.000090	-0.897945	-0.152116	0.001796
1006	5.0250e-01	9.9438	17.758209	0.000462	4.618001	0.782310	-0.009237
1007	5.0300e-01	9.9353	17.722288	0.000359	3.591778	0.608464	-0.007184
1008	5.0350e-01	9.9261	17.729130	-0.000068	-0.684148	-0.115898	0.001368
1009	5.0400e-01	9.9149	17.709459	0.000197	1.966926	0.333206	-0.003934
1010	5.0450e-01	9.9063	17.684229	0.000252	2.522797	0.427373	-0.005046
1011	5.0500e-01	9.8969	17.679098	0.000051	0.513111	0.086923	-0.001026
1012	5.0550e-01	9.8840	17.664559	0.000145	1.453815	0.246283	-0.002908
1013	5.0600e-01	9.8761	17.646598	0.000180	1.795889	0.304232	-0.003592
1014	5.0650e-01	9.8651	17.630776	0.000158	1.582093	0.268014	-0.003164
1015	5.0700e-01	9.8566	17.586303	0.000445	4.446964	0.753336	-0.008895
1016	5.0750e-01	9.8450	17.597849	-0.000115	-1.154500	-0.195578	0.002309
1017	5.0800e-01	9.8349	17.564067	0.000338	3.377982	0.572246	-0.006756
1018	5.0850e-01	9.8254	17.570053	-0.000060	-0.598630	-0.101411	0.001197
1019	5.0900e-01	9.8132	17.535843	0.000342	3.420741	0.579489	-0.006842
1020	5.0950e-01	9.8071	17.511469	0.000244	2.437278	0.412886	-0.004875
1021	5.1000e-01	9.7955	17.488805	0.000227	2.266241	0.383912	-0.004533
1022	5.1050e-01	9.7858	17.484101	0.000047	0.470352	0.079680	-0.000941
1023	5.1100e-01	9.7754	17.455022	0.000291	2.907630	0.492566	-0.005816
1024	5.1150e-01	9.7656	17.436634	0.000184	1.838648	0.311475	-0.003678
1025	5.1200e-01	9.7559	17.421668	0.000150	1.496574	0.253527	-0.002993
1026	5.1250e-01	9.7467	17.418247	0.000034	0.342074	0.057949	-0.000684
1027	5.1300e-01	9.7375	17.369070	0.000492	4.917315	0.833016	-0.009835
1028	5.1350e-01	9.7260	17.374201	-0.000051	-0.513111	-0.086923	0.001026
1029	5.1400e-01	9.7180	17.358807	0.000154	1.539334	0.260770	-0.003079
1030	5.1450e-01	9.7052	17.332721	0.000261	2.608315	0.441861	-0.005217
1031	5.1500e-01	9.6962	17.312195	0.000205	2.052445	0.347694	-0.004105
1032	5.1550e-01	9.6851	17.301932	0.000103	1.026222	0.173847	-0.002053
1033	5.1600e-01	9.6777	17.270716	0.000312	3.121426	0.528784	-0.006243
1034	5.1650e-01	9.6667	17.232657	0.000381	3.805575	0.644682	-0.007612
1035	5.1700e-01	9.6570	17.245486	-0.000128	-1.282778	-0.217308	0.002566
1036	5.1750e-01	9.6478	17.192033	0.000534	5.344908	0.905452	-0.010691
1037	5.1800e-01	9.6356	17.193743	-0.000017	-0.171037	-0.028974	0.000342
1038	5.1850e-01	9.6265	17.167658	0.000261	2.608315	0.441861	-0.005217
1039	5.1900e-01	9.6185	17.150553	0.000171	1.710371	0.289745	-0.003421
1040	5.1950e-01	9.6057	17.111212	0.000393	3.933852	0.666413	-0.007868
1041	5.2000e-01	9.5966	17.103942	0.000073	0.726908	0.123141	-0.001454
1042	5.2050e-01	9.5862	17.081705	0.000222	2.223482	0.376668	-0.004447
1043	5.2100e-01	9.5776	17.059041	0.000227	2.266241	0.383912	-0.004533
1044	5.2150e-01	9.5648	17.038943	0.000201	2.009685	0.340450	-0.004020
1045	5.2200e-01	9.5575	17.025686	0.000133	1.325537	0.224552	-0.002651
1046	5.2250e-01	9.5465	17.000457	0.000252	2.522797	0.427373	-0.005046
1047	5.2300e-01	9.5367	16.970095	0.000304	3.035908	0.514297	-0.006072
1048	5.2350e-01	9.5270	16.947431	0.000227	2.266241	0.383912	-0.004533
1049	5.2400e-01	9.5172	16.931609	0.000158	1.582093	0.268014	-0.003164
1050	5.2450e-01	9.5056	16.903813	0.000278	2.779352	0.470835	-0.005559
1051	5.2500e-01	9.4958	16.885425	0.000184	1.838648	0.311475	-0.003678
1052	5.2550e-01	9.4873	16.884998	0.000004	0.042759	0.007244	-0.000086
1053	5.2600e-01	9.4769	16.852926	0.000321	3.206945	0.543271	-0.006414
1054	5.2650e-01	9.4678	16.841380	0.000115	1.154500	0.195578	-0.002309
1055	5.2700e-01	9.4568	16.816150	0.000252	2.522797	0.427373	-0.005046
1056	5.2750e-01	9.4473	16.770394	0.000458	4.575241	0.775067	-0.009151
1057	5.2800e-01	9.4366	16.760559	0.000098	0.983463	0.166603	-0.001967
1058	5.2850e-01	9.4257	16.735329	0.000252	2.522797	0.427373	-0.005046
1059	5.2900e-01	9.4171	16.731480	0.000038	0.384833	0.065193	-0.000770
1060	5.2950e-01	9.4093	16.687007	0.000445	4.446964	0.753336	-0.008895
1061	5.3000e-01	9.3958	16.699408	-0.000124	-1.240019	-0.210065	0.002480
1062	5.3050e-01	9.3872	16.654508	0.000449	4.489723	0.760580	-0.008980
1063	5.3100e-01	9.3750	16.631416	0.000231	2.309000	0.391155	-0.004618
1064	5.3150e-01	9.3660	16.622436	0.000090	0.897945	0.152116	-0.001796
1065	5.3200e-01	9.3561	16.601482	0.000210	2.095204	0.354937	-0.004191
1066	5.3250e-01	9.3481	16.574114	0.000274	2.736593	0.463591	-0.005474
1067	5.3300e-01	9.3365	16.549312	0.000248	2.480037	0.420130	-0.004960
1068	5.3350e-01	9.3280	16.504839	0.000445	4.446964	0.753336	-0.008895
1069	5.3400e-01	9.3188	16.499707	0.000051	0.513111	0.086923	-0.001026
1070	5.3450e-01	9.3085	16.488162	0.000115	1.154500	0.195578	-0.002309
1071	5.3500e-01	9.2969	16.466780	0.000214	2.137963	0.362181	-0.004276
1072	5.3550e-01	9.2871	16.437274	0.000295	2.950389	0.499809	-0.005901
1073	5.3600e-01	9.2755	16.432570	0.000047	0.470352	0.079680	-0.000941
1074	5.3650e-01	9.2682	16.390235	0.000423	4.233167	0.717118	-0.008467
1075	5.3700e-01	9.2567	16.366288	0.000239	2.394519	0.405642	-0.004789
1076	5.3750e-01	9.2474	16.350894	0.000154	1.539334	0.260770	-0.003079
1077	5.3800e-01	9.2371	16.312408	0.000385	3.848334	0.651925	-0.007697
1078	5.3850e-01	9.2279	16.288033	0.000244	2.437278	0.412886	-0.004875
1079	5.3900e-01	9.2142	16.276915	0.000111	1.111741	0.188334	-0.002224
1080	5.3950e-01	9.2090	16.264086	0.000128	1.282778	0.217308	-0.002566
1081	5.4000e-01	9.1992	16.243987	0.000201	2.009685	0.340450	-0.004020
1082	5.4050e-01	9.1852	16.202080	0.000419	4.190408	0.709874	-0.008381
1083	5.4100e-01	9.1760	16.188396	0.000137	1.368296	0.231796	-0.002737
1084	5.4150e-01	9.1650	16.181982	0.000064	0.641389	0.108654	-0.001283
1085	5.4200e-01	9.1553	16.136226	0.000458	4.575241	0.775067	-0.009151
1086	5.4250e-01	9.1473	16.108858	0.000274	2.736593	0.463591	-0.005474
1087	5.4300e-01	9.1370	16.089615	0.000192	1.924167	0.325963	-0.003849
1088	5.4350e-01	9.1257	16.096884	-0.000073	-0.726908	-0.123141	0.001454
1089	5.4400e-01	9.1180	16.040010	0.000569	5.686982	0.963401	-0.011375
1090	5.4450e-01	9.1071	16.031885	0.000081	0.812426	0.137629	-0.001625
1091	5.4500e-01	9.0961	16.010076	0.000218	2.180723	0.369424	-0.004362
1092	5.4550e-01	9.0857	15.966031	0.000440	4.404204	0.746092	-0.008809
1093	5.4600e-01	9.0759	15.954058	0.000120	1.197259	0.202821	-0.002395
1094	5.4650e-01	9.0665	15.937380	0.000167	1.667611	0.282501	-0.003335
1095	5.4700e-01	9.0588	15.912150	0.000252	2.522797	0.427373	-0.005046
1096	5.4750e-01	9.0491	15.867677	0.000445	4.446964	0.753336	-0.008895
1097	5.4800e-01	9.0350	15.857414	0.000103	1.026222	0.173847	-0.002053
1098	5.4850e-01	9.0250	15.839026	0.000184	1.838648	0.311475	-0.003678
1099	5.4900e-01	9.0152	15.821921	0.000171	1.710371	0.289745	-0.003421
1100	5.4950e-01	9.0070	15.804389	0.000175	1.753130	0.296988	-0.003507
1101	5.5000e-01	8.9966	15.778731	0.000257	2.565556	0.434617	-0.005132
1102	5.5050e-01	8.9862	15.735113	0.000436	4.361445	0.738849	-0.008724
1103	5.5100e-01	8.9758	15.723995	0.000111	1.111741	0.188334	-0.002224
1104	5.5150e-01	8.9650	15.704324	0.000197	1.966926	0.333206	-0.003934
1105	5.5200e-01	8.9606	15.684654	0.000197	1.966926	0.333206	-0.003934
1106	5.5250e-01	8.9453	15.648305	0.000363	3.634538	0.615707	-0.007270
1107	5.5300e-01	8.9374	15.624358	0.000239	2.394519	0.405642	-0.004789
1108	5.5350e-01	8.9264	15.614523	0.000098	0.983463	0.166603	-0.001967
1109	5.5400e-01	8.9154	15.573899	0.000406	4.062130	0.688143	-0.008125
1110	5.5450e-01	8.9063	15.552517	0.000214	2.137963	0.362181	-0.004276
1111	5.5500e-01	8.8953	15.528998	0.000235	2.351760	0.398399	-0.004704
1112	5.5550e-01	8.8879	15.520873	0.000081	0.812426	0.137629	-0.001625
1113	5.5600e-01	8.8782	15.504196	0.000167	1.667611	0.282501	-0.003335
1114	5.5650e-01	8.8666	15.443045	0.000611	6.114575	1.035837	-0.012230
1115	5.5700e-01	8.8593	15.428078	0.000150	1.496574	0.253527	-0.002993
1116	5.5750e-01	8.8452	15.420381	0.000077	0.769667	0.130385	-0.001539
1117	5.5800e-01	8.8367	15.404559	0.000158	1.582093	0.268014	-0.003164
1118	5.5850e-01	8.8287	15.360086	0.000445	4.446964	0.753336	-0.008895
1119	5.5900e-01	8.8153	15.357948	0.000021	0.213796	0.036218	-0.000428
1120	5.5950e-01	8.8092	15.310909	0.000470	4.703519	0.796798	-0.009408
1121	5.6000e-01	8.7964	15.303640	0.000073	0.726908	0.123141	-0.001454
1122	5.6050e-01	8.7888	15.272423	0.000312	3.121426	0.528784	-0.006243
1123	5.6100e-01	8.7769	15.239068	0.000334	3.335223	0.565002	-0.006671
1124	5.6150e-01	8.7689	15.213411	0.000257	2.565556	0.434617	-0.005132
1125	5.6200e-01	8.7558	15.195023	0.000184	1.838648	0.311475	-0.003678
1126	5.6250e-01	8.7469	15.167655	0.000274	2.736593	0.463591	-0.005474
1127	5.6300e-01	8.7341	15.161668	0.000060	0.598630	0.101411	-0.001197
1128	5.6350e-01	8.7244	15.139431	0.000222	2.223482	0.376668	-0.004447
1129	5.6400e-01	8.7152	15.107787	0.000316	3.164186	0.536028	-0.006329
1130	5.6450e-01	8.7067	15.094103	0.000137	1.368296	0.231796	-0.002737
1131	5.6500e-01	8.6963	15.049630	0.000445	4.446964	0.753336	-0.008895
1132	5.6550e-01	8.6862	15.017558	0.000321	3.206945	0.543271	-0.006414
1133	5.6600e-01	8.6780	14.995749	0.000218	2.180723	0.369424	-0.004362
1134	5.6650e-01	8.6633	15.007295	-0.000115	-1.154500	-0.195578	0.002309
1135	5.6700e-01	8.6572	14.952132	0.000552	5.515945	0.934426	-0.011033
1136	5.6750e-01	8.6456	14.940586	0.000115	1.154500	0.195578	-0.002309
1137	5.6800e-01	8.6383	14.902955	0.000376	3.762815	0.637438	-0.007526
1138	5.6850e-01	8.6298	14.874731	0.000282	2.822112	0.478079	-0.005645
1139	5.6900e-01	8.6157	14.853778	0.000210	2.095204	0.354937	-0.004191
1140	5.6950e-01	8.6084	14.844798	0.000090	0.897945	0.152116	-0.001796
1141	5.7000e-01	8.5986	14.805456	0.000393	3.933852	0.666413	-0.007868
1142	5.7050e-01	8.5876	14.785358	0.000201	2.009685	0.340450	-0.004020
1143	5.7100e-01	8.5779	14.751148	0.000342	3.420741	0.579489	-0.006842
1144	5.7150e-01	8.5666	14.716082	0.000351	3.506260	0.593976	-0.007013
1145	5.7200e-01	8.5562	14.721214	-0.000051	-0.513111	-0.086923	0.001026
1146	5.7250e-01	8.5463	14.669044	0.000522	5.216630	0.883721	-0.010434
1147	5.7300e-01	8.5358	14.649800	0.000192	1.924167	0.325963	-0.003849
1148	5.7350e-01	8.5277	14.654077	-0.000043	-0.427593	-0.072436	0.000855
1149	5.7400e-01	8.5162	14.627136	0.000269	2.693834	0.456348	-0.005388
1150	5.7450e-01	8.5071	14.598058	0.000291	2.907630	0.492566	-0.005816
1151	5.7500e-01	8.4955	14.571117	0.000269	2.693834	0.456348	-0.005388
1152	5.7550e-01	8.4879	14.547598	0.000235	2.351760	0.398399	-0.004704
1153	5.7600e-01	8.4790	14.519802	0.000278	2.779352	0.470835	-0.005559
1154	5.7650e-01	8.4662	14.507401	0.000124	1.240019	0.210065	-0.002480
1155	5.7700e-01	8.4595	14.456941	0.000505	5.045593	0.854747	-0.010092
1156	5.7750e-01	8.4457	14.450527	0.000064	0.641389	0.108654	-0.001283
1157	5.7800e-01	8.4381	14.415462	0.000351	3.506260	0.593976	-0.007013
1158	5.7850e-01	8.4253	14.397074	0.000184	1.838648	0.311475	-0.003678
1159	5.7900e-01	8.4174	14.361153	0.000359	3.591778	0.608464	-0.007184
1160	5.7950e-01	8.4055	14.335924	0.000252	2.522797	0.427373	-0.005046
1161	5.8000e-01	8.3954	14.314115	0.000218	2.180723	0.369424	-0.004362
1162	5.8050e-01	8.3850	14.286319	0.000278	2.779352	0.470835	-0.005559
1163	5.8100e-01	8.3771	14.268359	0.000180	1.795889	0.304232	-0.003592
1164	5.8150e-01	8.3661	14.255958	0.000124	1.240019	0.210065	-0.002480
1165	5.8200e-01	8.3569	14.201222	0.000547	5.473186	0.927183	-0.010947
1166	5.8250e-01	8.3450	14.191386	0.000098	0.983463	0.166603	-0.001967
1167	5.8300e-01	8.3374	14.165301	0.000261	2.608315	0.441861	-0.005217
1168	5.8350e-01	8.3252	14.149051	0.000162	1.624852	0.275257	-0.003250
1169	5.8400e-01	8.3167	14.112276	0.000368	3.677297	0.622951	-0.007355
1170	5.8450e-01	8.3063	14.090039	0.000222	2.223482	0.376668	-0.004447
1171	5.8500e-01	8.2977	14.064381	0.000257	2.565556	0.434617	-0.005132
1172	5.8550e-01	8.2880	14.037869	0.000265	2.651074	0.449104	-0.005303
1173	5.8600e-01	8.2758	14.022902	0.000150	1.496574	0.253527	-0.002993
1174	5.8650e-01	8.2648	13.982705	0.000402	4.019371	0.680900	-0.008039
1175	5.8700e-01	8.2545	13.969021	0.000137	1.368296	0.231796	-0.002737
1176	5.8750e-01	8.2465	13.939943	0.000291	2.907630	0.492566	-0.005816
1177	5.8800e-01	8.2379	13.927969	0.000120	1.197259	0.202821	-0.002395
1178	5.8850e-01	8.2254	13.874088	0.000539	5.387667	0.912696	-0.010776
1179	5.8900e-01	8.2166	13.860832	0.000133	1.325537	0.224552	-0.002651
1180	5.8950e-01	8.2069	13.843727	0.000171	1.710371	0.289745	-0.003421
1181	5.9000e-01	8.1958	13.802247	0.000415	4.147649	0.702631	-0.008296
1182	5.9050e-01	8.1873	13.780011	0.000222	2.223482	0.376668	-0.004447
1183	5.9100e-01	8.1764	13.752643	0.000274	2.736593	0.463591	-0.005474
1184	5.9150e-01	8.1693	13.725275	0.000274	2.736593	0.463591	-0.005474
1185	5.9200e-01	8.1555	13.705604	0.000197	1.966926	0.333206	-0.003934
1186	5.9250e-01	8.1458	13.698762	0.000068	0.684148	0.115898	-0.001368
1187	5.9300e-01	8.1360	13.642743	0.000560	5.601464	0.948914	-0.011204
1188	5.9350e-01	8.1250	13.637611	0.000051	0.513111	0.086923	-0.001026
1189	5.9400e-01	8.1168	13.591428	0.000462	4.618001	0.782310	-0.009237
1190	5.9450e-01	8.1061	13.571757	0.000197	1.966926	0.333206	-0.003934
1191	5.9500e-01	8.0975	13.543534	0.000282	2.822112	0.478079	-0.005645
1192	5.9550e-01	8.0847	13.531988	0.000115	1.154500	0.195578	-0.002309
1193	5.9600e-01	8.0756	13.496067	0.000359	3.591778	0.608464	-0.007184
1194	5.9650e-01	8.0637	13.481956	0.000141	1.411056	0.239039	-0.002822
1195	5.9700e-01	8.0566	13.446035	0.000359	3.591778	0.608464	-0.007184
1196	5.9750e-01	8.0450	13.412681	0.000334	3.335223	0.565002	-0.006671
1197	5.9800e-01	8.0347	13.397714	0.000150	1.496574	0.253527	-0.002993
1198	5.9850e-01	8.0231	13.377188	0.000205	2.052445	0.347694	-0.004105
1199	5.9900e-01	8.0157	13.345543	0.000316	3.164186	0.536028	-0.006329
1200	5.9950e-01	8.0038	13.319458	0.000261	2.608315	0.441861	-0.005217
1201	6.0000e-01	7.9968	13.291235	0.000282	2.822112	0.478079	-0.005645
1202	6.0050e-01	7.9861	13.260446	0.000308	3.078667	0.521540	-0.006158
1203	6.0100e-01	7.9767	13.256597	0.000038	0.384833	0.065193	-0.000770
1204	6.0150e-01	7.9654	13.233506	0.000231	2.309000	0.391155	-0.004618
1205	6.0200e-01	7.9572	13.195447	0.000381	3.805575	0.644682	-0.007612
1206	6.0250e-01	7.9489	13.175349	0.000201	2.009685	0.340450	-0.004020
1207	6.0300e-01	7.9340	13.136007	0.000393	3.933852	0.666413	-0.007868
1208	6.0350e-01	7.9260	13.126172	0.000098	0.983463	0.166603	-0.001967
1209	6.0400e-01	7.9156	13.076139	0.000500	5.002834	0.847503	-0.010006
1210	6.0450e-01	7.9074	13.069725	0.000064	0.641389	0.108654	-0.001283
1211	6.0500e-01	7.9004	13.021403	0.000483	4.831797	0.818529	-0.009664
1212	6.0550e-01	7.8864	13.000022	0.000214	2.137963	0.362181	-0.004276
1213	6.0600e-01	7.8766	12.974792	0.000252	2.522797	0.427373	-0.005046
1214	6.0650e-01	7.8632	12.964957	0.000098	0.983463	0.166603	-0.001967
1215	6.0700e-01	7.8577	12.938444	0.000265	2.651074	0.449104	-0.005303
1216	6.0750e-01	7.8491	12.889695	0.000487	4.874556	0.825772	-0.009750
1217	6.0800e-01	7.8345	12.868314	0.000214	2.137963	0.362181	-0.004276
1218	6.0850e-01	7.8265	12.857623	0.000107	1.068982	0.181090	-0.002138
1219	6.0900e-01	7.8143	12.815716	0.000419	4.190408	0.709874	-0.008381
1220	6.0950e-01	7.8088	12.788348	0.000274	2.736593	0.463591	-0.005474
1221	6.1000e-01	7.7979	12.764828	0.000235	2.351760	0.398399	-0.004704
1222	6.1050e-01	7.7866	12.746013	0.000188	1.881408	0.318719	-0.003763
1223	6.1100e-01	7.7753	12.713086	0.000329	3.292463	0.557758	-0.006585
1224	6.1150e-01	7.7655	12.687856	0.000252	2.522797	0.427373	-0.005046
1225	6.1200e-01	7.7539	12.636968	0.000509	5.088353	0.861990	-0.010177
1226	6.1250e-01	7.7472	12.624995	0.000120	1.197259	0.202821	-0.002395
1227	6.1300e-01	7.7344	12.628416	-0.000034	-0.342074	-0.057949	0.000684
1228	6.1350e-01	7.7264	12.596344	0.000321	3.206945	0.543271	-0.006414
1229	6.1400e-01	7.7139	12.562562	0.000338	3.377982	0.572246	-0.006756
1230	6.1450e-01	7.7069	12.518944	0.000436	4.361445	0.738849	-0.008724
1231	6.1500e-01	7.6968	12.515095	0.000038	0.384833	0.065193	-0.000770
1232	6.1550e-01	7.6862	12.476181	0.000389	3.891093	0.659169	-0.007783
1233	6.1600e-01	7.6746	12.444537	0.000316	3.164186	0.536028	-0.006329
1234	6.1650e-01	7.6669	12.428287	0.000162	1.624852	0.275257	-0.003250
1235	6.1700e-01	7.6550	12.398781	0.000295	2.950389	0.499809	-0.005901
1236	6.1750e-01	7.6459	12.373551	0.000252	2.522797	0.427373	-0.005046
1237	6.1800e-01	7.6373	12.353025	0.000205	2.052445	0.347694	-0.004105
1238	6.1850e-01	7.6239	12.316677	0.000363	3.634538	0.615707	-0.007270
1239	6.1900e-01	7.6141	12.294868	0.000218	2.180723	0.369424	-0.004362
1240	6.1950e-01	7.6042	12.276480	0.000184	1.838648	0.311475	-0.003678
1241	6.2000e-01	7.5989	12.233718	0.000428	4.275927	0.724362	-0.008553
1242	6.2050e-01	7.5879	12.215757	0.000180	1.795889	0.304232	-0.003592
1243	6.2100e-01	7.5757	12.183258	0.000325	3.249704	0.550515	-0.006500
1244	6.2150e-01	7.5661	12.158456	0.000248	2.480037	0.420130	-0.004960
1245	6.2200e-01	7.5563	12.154179	0.000043	0.427593	0.072436	-0.000855
1246	6.2250e-01	7.5488	12.108851	0.000453	4.532482	0.767823	-0.009066
1247	6.2300e-01	7.5381	12.068654	0.000402	4.019371	0.680900	-0.008039
1248	6.2350e-01	7.5275	12.065661	0.000030	0.299315	0.050705	-0.000599
1249	6.2400e-01	7.5153	12.034444	0.000312	3.121426	0.528784	-0.006243
1250	6.2450e-01	7.5067	11.992965	0.000415	4.147649	0.702631	-0.008296
1251	6.2500e-01	7.4945	11.985695	0.000073	0.726908	0.123141	-0.001454
1252	6.2550e-01	7.4854	11.946353	0.000393	3.933852	0.666413	-0.007868
1253	6.2600e-01	7.4762	11.907012	0.000393	3.933852	0.666413	-0.007868
1254	6.2650e-01	7.4680	11.899315	0.000077	0.769667	0.130385	-0.001539
1255	6.2700e-01	7.4564	11.848000	0.000513	5.131112	0.869234	-0.010263
1256	6.2750e-01	7.4481	11.817211	0.000308	3.078667	0.521540	-0.006158
1257	6.2800e-01	7.4353	11.824908	-0.000077	-0.769667	-0.130385	0.001539
1258	6.2850e-01	7.4265	11.791126	0.000338	3.377982	0.572246	-0.006756
1259	6.2900e-01	7.4176	11.744514	0.000466	4.660760	0.789554	-0.009322
1260	6.2950e-01	7.4039	11.737245	0.000073	0.726908	0.123141	-0.001454
1261	6.3000e-01	7.3952	11.696620	0.000406	4.062130	0.688143	-0.008125
1262	6.3050e-01	7.3871	11.674811	0.000218	2.180723	0.369424	-0.004362
1263	6.3100e-01	7.3779	11.654285	0.000205	2.052445	0.347694	-0.004105
1264	6.3150e-01	7.3657	11.632049	0.000222	2.223482	0.376668	-0.004447
1265	6.3200e-01	7.3566	11.596556	0.000355	3.549019	0.601220	-0.007099
1266	6.3250e-01	7.3465	11.567905	0.000286	2.864871	0.485322	-0.005730
1267	6.3300e-01	7.3358	11.536688	0.000312	3.121426	0.528784	-0.006243
1268	6.3350e-01	7.3279	11.522577	0.000141	1.411056	0.239039	-0.002822
1269	6.3400e-01	7.3163	11.483235	0.000393	3.933852	0.666413	-0.007868
1270	6.3450e-01	7.3071	11.462282	0.000210	2.095204	0.354937	-0.004191
1271	6.3500e-01	7.2980	11.428072	0.000342	3.420741	0.579489	-0.006842
1272	6.3550e-01	7.2873	11.398138	0.000299	2.993149	0.507053	-0.005987
1273	6.3600e-01	7.2766	11.356231	0.000419	4.190408	0.709874	-0.008381
1274	6.3650e-01	7.2653	11.327152	0.000291	2.907630	0.492566	-0.005816
1275	6.3700e-01	7.2565	11.320310	0.000068	0.684148	0.115898	-0.001368
1276	6.3750e-01	7.2461	11.298929	0.000214	2.137963	0.362181	-0.004276
1277	6.3800e-01	7.2366	11.260015	0.000389	3.891093	0.659169	-0.007783
1278	6.3850e-01	7.2278	11.224094	0.000359	3.591778	0.608464	-0.007184
1279	6.3900e-01	7.2156	11.203996	0.000201	2.009685	0.340450	-0.004020
1280	6.3950e-01	7.2064	11.190740	0.000133	1.325537	0.224552	-0.002651
1281	6.4000e-01	7.1967	11.141990	0.000487	4.874556	0.825772	-0.009750
1282	6.4050e-01	7.1869	11.114622	0.000274	2.736593	0.463591	-0.005474
1283	6.4100e-01	7.1780	11.117616	-0.000030	-0.299315	-0.050705	0.000599
1284	6.4150e-01	7.1655	11.050479	0.000671	6.713205	1.137248	-0.013427
1285	6.4200e-01	7.1584	11.032091	0.000184	1.838648	0.311475	-0.003678
1286	6.4250e-01	7.1466	11.030808	0.000013	0.128278	0.021731	-0.000257
1287	6.4300e-01	7.1371	10.987190	0.000436	4.361445	0.738849	-0.008724
1288	6.4350e-01	7.1255	10.936730	0.000505	5.045593	0.854747	-0.010092
1289	6.4400e-01	7.1179	10.934592	0.000021	0.213796	0.036218	-0.000428
1290	6.4450e-01	7.1091	10.905086	0.000295	2.950389	0.499809	-0.005901
1291	6.4500e-01	7.0978	10.846074	0.000590	5.900779	0.999619	-0.011802
1292	6.4550e-01	7.0865	10.834100	0.000120	1.197259	0.202821	-0.002395
1293	6.4600e-01	7.0752	10.815712	0.000184	1.838648	0.311475	-0.003678
1294	6.4650e-01	7.0694	10.792620	0.000231	2.309000	0.391155	-0.004618
1295	6.4700e-01	7.0569	10.764825	0.000278	2.779352	0.470835	-0.005559
1296	6.4750e-01	7.0493	10.755417	0.000094	0.940704	0.159360	-0.001882
1297	6.4800e-01	7.0367	10.713510	0.000419	4.190408	0.709874	-0.008381
1298	6.4850e-01	7.0251	10.682293	0.000312	3.121426	0.528784	-0.006243
1299	6.4900e-01	7.0160	10.656636	0.000257	2.565556	0.434617	-0.005132
1300	6.4950e-01	7.0074	10.614301	0.000423	4.233167	0.717118	-0.008467
1301	6.5000e-01	6.9962	10.604465	0.000098	0.983463	0.166603	-0.001967
1302	6.5050e-01	6.9861	10.555288	0.000492	4.917315	0.833016	-0.009835
1303	6.5100e-01	6.9751	10.556999	-0.000017	-0.171037	-0.028974	0.000342
1304	6.5150e-01	6.9675	10.520651	0.000363	3.634538	0.615707	-0.007270
1305	6.5200e-01	6.9559	10.479171	0.000415	4.147649	0.702631	-0.008296
1306	6.5250e-01	6.9458	10.444534	0.000346	3.463500	0.586733	-0.006928
1307	6.5300e-01	6.9363	10.421442	0.000231	2.309000	0.391155	-0.004618
1308	6.5350e-01	6.9241	10.412034	0.000094	0.940704	0.159360	-0.001882
1309	6.5400e-01	6.9189	10.374831	0.000372	3.720056	0.630195	-0.007441
1310	6.5450e-01	6.9052	10.335917	0.000389	3.891093	0.659169	-0.007783
1311	6.5500e-01	6.8976	10.324371	0.000115	1.154500	0.195578	-0.002309
1312	6.5550e-01	6.8854	10.280325	0.000440	4.404204	0.746092	-0.008809
1313	6.5600e-01	6.8799	10.261938	0.000184	1.838648	0.311475	-0.003678
1314	6.5650e-01	6.8701	10.226872	0.000351	3.506260	0.593976	-0.007013
1315	6.5700e-01	6.8564	10.210195	0.000167	1.667611	0.282501	-0.003335
1316	6.5750e-01	6.8451	10.181972	0.000282	2.822112	0.478079	-0.005645
1317	6.5800e-01	6.8378	10.143485	0.000385	3.848334	0.651925	-0.007697
1318	6.5850e-01	6.8274	10.113979	0.000295	2.950389	0.499809	-0.005901
1319	6.5900e-01	6.8152	10.099012	0.000150	1.496574	0.253527	-0.002993
1320	6.5950e-01	6.8066	10.053684	0.000453	4.532482	0.767823	-0.009066
1321	6.6000e-01	6.7963	10.027171	0.000265	2.651074	0.449104	-0.005303
1322	6.6050e-01	6.7877	10.016908	0.000103	1.026222	0.173847	-0.002053
1323	6.6100e-01	6.7767	9.971580	0.000453	4.532482	0.767823	-0.009066
1324	6.6150e-01	6.7664	9.942501	0.000291	2.907630	0.492566	-0.005816
1325	6.6200e-01	6.7578	9.922403	0.000201	2.009685	0.340450	-0.004020
1326	6.6250e-01	6.7480	9.890759	0.000316	3.164186	0.536028	-0.006329
1327	6.6300e-01	6.7349	9.859970	0.000308	3.078667	0.521540	-0.006158
1328	6.6350e-01	6.7249	9.829181	0.000308	3.078667	0.521540	-0.006158
1329	6.6400e-01	6.7169	9.810793	0.000184	1.838648	0.311475	-0.003678
1330	6.6450e-01	6.7041	9.769741	0.000410	4.104889	0.695387	-0.008210
1331	6.6500e-01	6.6974	9.742800	0.000269	2.693834	0.456348	-0.005388
1332	6.6550e-01	6.6853	9.702176	0.000406	4.062130	0.688143	-0.008125
1333	6.6600e-01	6.6748	9.669677	0.000325	3.249704	0.550515	-0.006500
1334	6.6650e-01	6.6656	9.652999	0.000167	1.667611	0.282501	-0.003335
1335	6.6700e-01	6.6595	9.628197	0.000248	2.480037	0.420130	-0.004960
1336	6.6750e-01	6.6440	9.589711	0.000385	3.848334	0.651925	-0.007697
1337	6.6800e-01	6.6357	9.562770	0.000269	2.693834	0.456348	-0.005388
1338	6.6850e-01	6.6223	9.547803	0.000150	1.496574	0.253527	-0.002993
1339	6.6900e-01	6.6144	9.517014	0.000308	3.078667	0.521540	-0.006158
1340	6.6950e-01	6.6077	9.489646	0.000274	2.736593	0.463591	-0.005474
1341	6.7000e-01	6.5997	9.455864	0.000338	3.377982	0.572246	-0.006756
1342	6.7050e-01	6.5875	9.425075	0.000308	3.078667	0.521540	-0.006158
1343	6.7100e-01	6.5759	9.399845	0.000252	2.522797	0.427373	-0.005046
1344	6.7150e-01	6.5662	9.372905	0.000269	2.693834	0.456348	-0.005388
1345	6.7200e-01	6.5564	9.348958	0.000239	2.394519	0.405642	-0.004789
1346	6.7250e-01	6.5460	9.319024	0.000299	2.993149	0.507053	-0.005987
1347	6.7300e-01	6.5341	9.292083	0.000269	2.693834	0.456348	-0.005388
1348	6.7350e-01	6.5259	9.249749	0.000423	4.233167	0.717118	-0.008467
1349	6.7400e-01	6.5152	9.224091	0.000257	2.565556	0.434617	-0.005132
1350	6.7450e-01	6.5088	9.197578	0.000265	2.651074	0.449104	-0.005303
1351	6.7500e-01	6.4948	9.164223	0.000334	3.335223	0.565002	-0.006671
1352	6.7550e-01	6.4864	9.109915	0.000543	5.430427	0.919939	-0.010862
1353	6.7600e-01	6.4746	9.109487	0.000004	0.042759	0.007244	-0.000086
1354	6.7650e-01	6.4667	9.092382	0.000171	1.710371	0.289745	-0.003421
1355	6.7700e-01	6.4581	9.061593	0.000308	3.078667	0.521540	-0.006158
1356	6.7750e-01	6.4455	9.014982	0.000466	4.660760	0.789554	-0.009322
1357	6.7800e-01	6.4368	8.997450	0.000175	1.753130	0.296988	-0.003507
1358	6.7850e-01	6.4270	8.956398	0.000410	4.104889	0.695387	-0.008210
1359	6.7900e-01	6.4182	8.911497	0.000449	4.489723	0.760580	-0.008980
1360	6.7950e-01	6.4038	8.918767	-0.000073	-0.726908	-0.123141	0.001454
1361	6.8000e-01	6.3959	8.848208	0.000706	7.055279	1.195197	-0.014112
1362	6.8050e-01	6.3882	8.845215	0.000030	0.299315	0.050705	-0.000599
1363	6.8100e-01	6.3776	8.817419	0.000278	2.779352	0.470835	-0.005559
1364	6.8150e-01	6.3666	8.794755	0.000227	2.266241	0.383912	-0.004533
1365	6.8200e-01	6.3562	8.755841	0.000389	3.891093	0.659169	-0.007783
1366	6.8250e-01	6.3446	8.720348	0.000355	3.549019	0.601220	-0.007099
1367	6.8300e-01	6.3349	8.688277	0.000321	3.206945	0.543271	-0.006414
1368	6.8350e-01	6.3251	8.655349	0.000329	3.292463	0.557758	-0.006585
1369	6.8400e-01	6.3159	8.628837	0.000265	2.651074	0.449104	-0.005303
1370	6.8450e-01	6.3068	8.591633	0.000372	3.720056	0.630195	-0.007441
1371	6.8500e-01	6.2946	8.592916	-0.000013	-0.128278	-0.021731	0.000257
1372	6.8550e-01	6.2842	8.551009	0.000419	4.190408	0.709874	-0.008381
1373	6.8600e-01	6.2738	8.508246	0.000428	4.275927	0.724362	-0.008553
1374	6.8650e-01	6.2671	8.490714	0.000175	1.753130	0.296988	-0.003507
1375	6.8700e-01	6.2567	8.459069	0.000316	3.164186	0.536028	-0.006329
1376	6.8750e-01	6.2463	8.422294	0.000368	3.677297	0.622951	-0.007355
1377	6.8800e-01	6.2393	8.409892	0.000124	1.240019	0.210065	-0.002480
1378	6.8850e-01	6.2245	8.376538	0.000334	3.335223	0.565002	-0.006671
1379	6.8900e-01	6.2167	8.328644	0.000479	4.789038	0.811285	-0.009579
1380	6.8950e-01	6.2045	8.296999	0.000316	3.164186	0.536028	-0.006329
1381	6.9000e-01	6.1969	8.289302	0.000077	0.769667	0.130385	-0.001539
1382	6.9050e-01	6.1860	8.251243	0.000381	3.805575	0.644682	-0.007612
1383	6.9100e-01	6.1749	8.215751	0.000355	3.549019	0.601220	-0.007099
1384	6.9150e-01	6.1685	8.185817	0.000299	2.993149	0.507053	-0.005987
1385	6.9200e-01	6.1560	8.148613	0.000372	3.720056	0.630195	-0.007441
1386	6.9250e-01	6.1427	8.137923	0.000107	1.068982	0.181090	-0.002138
1387	6.9300e-01	6.1353	8.099009	0.000389	3.891093	0.659169	-0.007783
1388	6.9350e-01	6.1250	8.074207	0.000248	2.480037	0.420130	-0.004960
1389	6.9400e-01	6.1188	8.037858	0.000363	3.634538	0.615707	-0.007270
1390	6.9450e-01	6.1060	8.007497	0.000304	3.035908	0.514297	-0.006072
1391	6.9500e-01	6.0968	7.983122	0.000244	2.437278	0.412886	-0.004875
1392	6.9550e-01	6.0858	7.953189	0.000299	2.993149	0.507053	-0.005987
1393	6.9600e-01	6.0773	7.913847	0.000393	3.933852	0.666413	-0.007868
1394	6.9650e-01	6.0687	7.901018	0.000128	1.282778	0.217308	-0.002566
1395	6.9700e-01	6.0553	7.866381	0.000346	3.463500	0.586733	-0.006928
1396	6.9750e-01	6.0449	7.821480	0.000449	4.489723	0.760580	-0.008980
1397	6.9800e-01	6.0403	7.789836	0.000316	3.164186	0.536028	-0.006329
1398	6.9850e-01	6.0278	7.781283	0.000086	0.855185	0.144872	-0.001711
1399	6.9900e-01	6.0181	7.725264	0.000560	5.601464	0.948914	-0.011204
1400	6.9950e-01	6.0078	7.712863	0.000124	1.240019	0.210065	-0.002480
1401	7.0000e-01	5.9949	7.684640	0.000282	2.822112	0.478079	-0.005645
1402	7.0050e-01	5.9870	7.655134	0.000295	2.950389	0.499809	-0.005901
1403	7.0100e-01	5.9756	7.614082	0.000410	4.104889	0.695387	-0.008210
1404	7.0150e-01	5.9662	7.591845	0.000222	2.223482	0.376668	-0.004447
1405	7.0200e-01	5.9579	7.565333	0.000265	2.651074	0.449104	-0.005303
1406	7.0250e-01	5.9476	7.539247	0.000261	2.608315	0.441861	-0.005217
1407	7.0300e-01	5.9357	7.466551	0.000727	7.269075	1.231415	-0.014539
1408	7.0350e-01	5.9232	7.475531	-0.000090	-0.897945	-0.152116	0.001796
1409	7.0400e-01	5.9164	7.442604	0.000329	3.292463	0.557758	-0.006585
1410	7.0450e-01	5.9070	7.413953	0.000286	2.864871	0.485322	-0.005730
1411	7.0500e-01	5.8948	7.375467	0.000385	3.848334	0.651925	-0.007697
1412	7.0550e-01	5.8865	7.353230	0.000222	2.223482	0.376668	-0.004447
1413	7.0600e-01	5.8765	7.319876	0.000334	3.335223	0.565002	-0.006671
1414	7.0650e-01	5.8685	7.293790	0.000261	2.608315	0.441861	-0.005217
1415	7.0700e-01	5.8545	7.255304	0.000385	3.848334	0.651925	-0.007697
1416	7.0750e-01	5.8487	7.222377	0.000329	3.292463	0.557758	-0.006585
1417	7.0800e-01	5.8374	7.195437	0.000269	2.693834	0.456348	-0.005388
1418	7.0850e-01	5.8252	7.183036	0.000124	1.240019	0.210065	-0.002480
1419	7.0900e-01	5.8162	7.136852	0.000462	4.618001	0.782310	-0.009237
1420	7.0950e-01	5.8069	7.115043	0.000218	2.180723	0.369424	-0.004362
1421	7.1000e-01	5.7953	7.083826	0.000312	3.121426	0.528784	-0.006243
1422	7.1050e-01	5.7843	7.053893	0.000299	2.993149	0.507053	-0.005987
1423	7.1100e-01	5.7748	7.026097	0.000278	2.779352	0.470835	-0.005559
1424	7.1150e-01	5.7684	6.975210	0.000509	5.088353	0.861990	-0.010177
1425	7.1200e-01	5.7590	6.957677	0.000175	1.753130	0.296988	-0.003507
1426	7.1250e-01	5.7471	6.904224	0.000534	5.344908	0.905452	-0.010691
1427	7.1300e-01	5.7379	6.908928	-0.000047	-0.470352	-0.079680	0.000941
1428	7.1350e-01	5.7278	6.846922	0.000620	6.200093	1.050324	-0.012401
1429	7.1400e-01	5.7167	6.815705	0.000312	3.121426	0.528784	-0.006243
1430	7.1450e-01	5.7068	6.794752	0.000210	2.095204	0.354937	-0.004191
1431	7.1500e-01	5.6941	6.779357	0.000154	1.539334	0.260770	-0.003079
1432	7.1550e-01	5.6854	6.740871	0.000385	3.848334	0.651925	-0.007697
1433	7.1600e-01	5.6769	6.722911	0.000180	1.795889	0.304232	-0.003592
1434	7.1650e-01	5.6665	6.664754	0.000582	5.815260	0.985132	-0.011631
1435	7.1700e-01	5.6580	6.651925	0.000128	1.282778	0.217308	-0.002566
1436	7.1750e-01	5.6470	6.625412	0.000265	2.651074	0.449104	-0.005303
1437	7.1800e-01	5.6366	6.567683	0.000577	5.772501	0.977888	-0.011546
1438	7.1850e-01	5.6238	6.541170	0.000265	2.651074	0.449104	-0.005303
1439	7.1900e-01	5.6165	6.521072	0.000201	2.009685	0.340450	-0.004020
1440	7.1950e-01	5.6055	6.488572	0.000325	3.249704	0.550515	-0.006500
1441	7.2000e-01	5.5966	6.435119	0.000534	5.344908	0.905452	-0.010691
1442	7.2050e-01	5.5847	6.430843	0.000043	0.427593	0.072436	-0.000855
1443	7.2100e-01	5.5774	6.386370	0.000445	4.446964	0.753336	-0.008895
1444	7.2150e-01	5.5664	6.378672	0.000077	0.769667	0.130385	-0.001539
1445	7.2200e-01	5.5545	6.313673	0.000650	6.499408	1.101030	-0.013000
1446	7.2250e-01	5.5472	6.296141	0.000175	1.753130	0.296988	-0.003507
1447	7.2300e-01	5.5371	6.265779	0.000304	3.035908	0.514297	-0.006072
1448	7.2350e-01	5.5273	6.225583	0.000402	4.019371	0.680900	-0.008039
1449	7.2400e-01	5.5182	6.209760	0.000158	1.582093	0.268014	-0.003164
1450	7.2450e-01	5.5069	6.183248	0.000265	2.651074	0.449104	-0.005303
1451	7.2500e-01	5.4974	6.143479	0.000398	3.976612	0.673656	-0.007954
1452	7.2550e-01	5.4872	6.111834	0.000316	3.164186	0.536028	-0.006329
1453	7.2600e-01	5.4773	6.081900	0.000299	2.993149	0.507053	-0.005987
1454	7.2650e-01	5.4663	6.049401	0.000325	3.249704	0.550515	-0.006500
1455	7.2700e-01	5.4532	6.014336	0.000351	3.506260	0.593976	-0.007013
1456	7.2750e-01	5.4462	5.979270	0.000351	3.506260	0.593976	-0.007013
1457	7.2800e-01	5.4355	5.943778	0.000355	3.549019	0.601220	-0.007099
1458	7.2850e-01	5.4260	5.894601	0.000492	4.917315	0.833016	-0.009835
1459	7.2900e-01	5.4155	5.894601	-0.000000	-0.000000	-0.000000	0.000000
1460	7.2950e-01	5.4083	5.856542	0.000381	3.805575	0.644682	-0.007612
1461	7.3000e-01	5.3955	5.814635	0.000419	4.190408	0.709874	-0.008381
1462	7.3050e-01	5.3870	5.787267	0.000274	2.736593	0.463591	-0.005474
1463	7.3100e-01	5.3754	5.772300	0.000150	1.496574	0.253527	-0.002993
1464	7.3150e-01	5.3659	5.730392	0.000419	4.190408	0.709874	-0.008381
1465	7.3200e-01	5.3568	5.709439	0.000210	2.095204	0.354937	-0.004191
1466	7.3250e-01	5.3461	5.673946	0.000355	3.549019	0.601220	-0.007099
1467	7.3300e-01	5.3334	5.640591	0.000334	3.335223	0.565002	-0.006671
1468	7.3350e-01	5.3273	5.589704	0.000509	5.088353	0.861990	-0.010177
1469	7.3400e-01	5.3181	5.580296	0.000094	0.940704	0.159360	-0.001882
1470	7.3450e-01	5.3069	5.526415	0.000539	5.387667	0.912696	-0.010776
1471	7.3500e-01	5.2985	5.503323	0.000231	2.309000	0.391155	-0.004618
1472	7.3550e-01	5.2844	5.480232	0.000231	2.309000	0.391155	-0.004618
1473	7.3600e-01	5.2771	5.446022	0.000342	3.420741	0.579489	-0.006842
1474	7.3650e-01	5.2667	5.429772	0.000162	1.624852	0.275257	-0.003250
1475	7.3700e-01	5.2563	5.384016	0.000458	4.575241	0.775067	-0.009151
1476	7.3750e-01	5.2457	5.354938	0.000291	2.907630	0.492566	-0.005816
1477	7.3800e-01	5.2362	5.333129	0.000218	2.180723	0.369424	-0.004362
1478	7.3850e-01	5.2246	5.294215	0.000389	3.891093	0.659169	-0.007783
1479	7.3900e-01	5.2194	5.265991	0.000282	2.822112	0.478079	-0.005645
1480	7.3950e-01	5.2072	5.213821	0.000522	5.216630	0.883721	-0.010434
1481	7.4000e-01	5.1959	5.199710	0.000141	1.411056	0.239039	-0.002822
1482	7.4050e-01	5.1859	5.149677	0.000500	5.002834	0.847503	-0.010006
1483	7.4100e-01	5.1772	5.114612	0.000351	3.506260	0.593976	-0.007013
1484	7.4150e-01	5.1660	5.103494	0.000111	1.111741	0.188334	-0.002224
1485	7.4200e-01	5.1575	5.057310	0.000462	4.618001	0.782310	-0.009237
1486	7.4250e-01	5.1465	5.018396	0.000389	3.891093	0.659169	-0.007783
1487	7.4300e-01	5.1367	5.000436	0.000180	1.795889	0.304232	-0.003592
1488	7.4350e-01	5.1285	4.973068	0.000274	2.736593	0.463591	-0.005474
1489	7.4400e-01	5.1147	4.951687	0.000214	2.137963	0.362181	-0.004276
1490	7.4450e-01	5.1045	4.885405	0.000663	6.627686	1.122760	-0.013256
1491	7.4500e-01	5.0954	4.859747	0.000257	2.565556	0.434617	-0.005132
1492	7.4550e-01	5.0882	4.825965	0.000338	3.377982	0.572246	-0.006756
1493	7.4600e-01	5.0763	4.820834	0.000051	0.513111	0.086923	-0.001026
1494	7.4650e-01	5.0696	4.758400	0.000624	6.242853	1.057568	-0.012487
1495	7.4700e-01	5.0537	4.742150	0.000162	1.624852	0.275257	-0.003250
1496	7.4750e-01	5.0452	4.718203	0.000239	2.394519	0.405642	-0.004789
1497	7.4800e-01	5.0354	4.675013	0.000432	4.318686	0.731605	-0.008638
1498	7.4850e-01	5.0256	4.657481	0.000175	1.753130	0.296988	-0.003507
1499	7.4900e-01	5.0177	4.591199	0.000663	6.627686	1.122760	-0.013256
1500	7.4950e-01	5.0055	4.546726	0.000445	4.446964	0.753336	-0.008895
1501	7.5000e-01	4.9960	4.540739	0.000060	0.598630	0.101411	-0.001197
1502	7.5050e-01	4.9878	4.497121	0.000436	4.361445	0.738849	-0.008724
1503	7.5100e-01	4.9768	4.490279	0.000068	0.684148	0.115898	-0.001368
1504	7.5150e-01	4.9664	4.439392	0.000509	5.088353	0.861990	-0.010177
1505	7.5200e-01	4.9567	4.425280	0.000141	1.411056	0.239039	-0.002822
1506	7.5250e-01	4.9448	4.385511	0.000398	3.976612	0.673656	-0.007954
1507	7.5300e-01	4.9359	4.346169	0.000393	3.933852	0.666413	-0.007868
1508	7.5350e-01	4.9277	4.315808	0.000304	3.035908	0.514297	-0.006072
1509	7.5400e-01	4.9152	4.256368	0.000594	5.943538	1.006863	-0.011888
1510	7.5450e-01	4.9042	4.236697	0.000197	1.966926	0.333206	-0.003934
1511	7.5500e-01	4.8938	4.231566	0.000051	0.513111	0.086923	-0.001026
1512	7.5550e-01	4.8843	4.181961	0.000496	4.960075	0.840259	-0.009921
1513	7.5600e-01	4.8782	4.152883	0.000291	2.907630	0.492566	-0.005816
1514	7.5650e-01	4.8663	4.104561	0.000483	4.831797	0.818529	-0.009664
1515	7.5700e-01	4.8560	4.099430	0.000051	0.513111	0.086923	-0.001026
1516	7.5750e-01	4.8476	4.031010	0.000684	6.841482	1.158978	-0.013684
1517	7.5800e-01	4.8376	4.007490	0.000235	2.351760	0.398399	-0.004704
1518	7.5850e-01	4.8268	3.997655	0.000098	0.983463	0.166603	-0.001967
1519	7.5900e-01	4.8163	3.942919	0.000547	5.473186	0.927183	-0.010947
1520	7.5950e-01	4.8065	3.913840	0.000291	2.907630	0.492566	-0.005816
1521	7.6000e-01	4.7943	3.873644	0.000402	4.019371	0.680900	-0.008039
1522	7.6050e-01	4.7870	3.845848	0.000278	2.779352	0.470835	-0.005559
1523	7.6100e-01	4.7766	3.813776	0.000321	3.206945	0.543271	-0.006414
1524	7.6150e-01	4.7687	3.791539	0.000222	2.223482	0.376668	-0.004447
1525	7.6200e-01	4.7589	3.750915	0.000406	4.062130	0.688143	-0.008125
1526	7.6250e-01	4.7449	3.725258	0.000257	2.565556	0.434617	-0.005132
1527	7.6300e-01	4.7334	3.692758	0.000325	3.249704	0.550515	-0.006500
1528	7.6350e-01	4.7264	3.647857	0.000449	4.489723	0.760580	-0.008980
1529	7.6400e-01	4.7150	3.612792	0.000351	3.506260	0.593976	-0.007013
1530	7.6450e-01	4.7076	3.556346	0.000564	5.644223	0.956157	-0.011289
1531	7.6500e-01	4.6960	3.546938	0.000094	0.940704	0.159360	-0.001882
1532	7.6550e-01	4.6860	3.524274	0.000227	2.266241	0.383912	-0.004533
1533	7.6600e-01	4.6760	3.484505	0.000398	3.976612	0.673656	-0.007954
1534	7.6650e-01	4.6643	3.453716	0.000308	3.078667	0.521540	-0.006158
1535	7.6700e-01	4.6570	3.407960	0.000458	4.575241	0.775067	-0.009151
1536	7.6750e-01	4.6448	3.369901	0.000381	3.805575	0.644682	-0.007612
1537	7.6800e-01	4.6356	3.334836	0.000351	3.506260	0.593976	-0.007013
1538	7.6850e-01	4.6255	3.328849	0.000060	0.598630	0.101411	-0.001197
1539	7.6900e-01	4.6173	3.300626	0.000282	2.822112	0.478079	-0.005645
1540	7.6950e-01	4.6082	3.263422	0.000372	3.720056	0.630195	-0.007441
1541	7.7000e-01	4.5953	3.219805	0.000436	4.361445	0.738849	-0.008724
1542	7.7050e-01	4.5831	3.186022	0.000338	3.377982	0.572246	-0.006756
1543	7.7100e-01	4.5752	3.138983	0.000470	4.703519	0.796798	-0.009408
1544	7.7150e-01	4.5657	3.124016	0.000150	1.496574	0.253527	-0.002993
1545	7.7200e-01	4.5559	3.072701	0.000513	5.131112	0.869234	-0.010263
1546	7.7250e-01	4.5453	3.041057	0.000316	3.164186	0.536028	-0.006329
1547	7.7300e-01	4.5367	3.023952	0.000171	1.710371	0.289745	-0.003421
1548	7.7350e-01	4.5260	2.983755	0.000402	4.019371	0.680900	-0.008039
1549	7.7400e-01	4.5155	2.926026	0.000577	5.772501	0.977888	-0.011546
1550	7.7450e-01	4.5078	2.914480	0.000115	1.154500	0.195578	-0.002309
1551	7.7500e-01	4.4962	2.882408	0.000321	3.206945	0.543271	-0.006414
1552	7.7550e-01	4.4861	2.834514	0.000479	4.789038	0.811285	-0.009579
1553	7.7600e-01	4.4763	2.822113	0.000124	1.240019	0.210065	-0.002480
1554	7.7650e-01	4.4661	2.781061	0.000410	4.104889	0.695387	-0.008210
1555	7.7700e-01	4.4559	2.736588	0.000445	4.446964	0.753336	-0.008895
1556	7.7750e-01	4.4464	2.704088	0.000325	3.249704	0.550515	-0.006500
1557	7.7800e-01	4.4373	2.678003	0.000261	2.608315	0.441861	-0.005217
1558	7.7850e-01	4.4257	2.643793	0.000342	3.420741	0.579489	-0.006842
1559	7.7900e-01	4.4183	2.621129	0.000227	2.266241	0.383912	-0.004533
1560	7.7950e-01	4.4049	2.569814	0.000513	5.131112	0.869234	-0.010263
1561	7.8000e-01	4.3958	2.536459	0.000334	3.335223	0.565002	-0.006671
1562	7.8050e-01	4.3857	2.507381	0.000291	2.907630	0.492566	-0.005816
1563	7.8100e-01	4.3777	2.470605	0.000368	3.677297	0.622951	-0.007355
1564	7.8150e-01	4.3677	2.409882	0.000607	6.071816	1.028593	-0.012145
1565	7.8200e-01	4.3561	2.405606	0.000043	0.427593	0.072436	-0.000855
1566	7.8250e-01	4.3466	2.368403	0.000372	3.720056	0.630195	-0.007441
1567	7.8300e-01	4.3359	2.332054	0.000363	3.634538	0.615707	-0.007270
1568	7.8350e-01	4.3243	2.311101	0.000210	2.095204	0.354937	-0.004191
1569	7.8400e-01	4.3146	2.271332	0.000398	3.976612	0.673656	-0.007954
1570	7.8450e-01	4.3050	2.229852	0.000415	4.147649	0.702631	-0.008296
1571	7.8500e-01	4.2944	2.168702	0.000611	6.114575	1.035837	-0.012230
1572	7.8550e-01	4.2883	2.156300	0.000124	1.240019	0.210065	-0.002480
1573	7.8600e-01	4.2789	2.122518	0.000338	3.377982	0.572246	-0.006756
1574	7.8650e-01	4.2651	2.090874	0.000316	3.164186	0.536028	-0.006329
1575	7.8700e-01	4.2587	2.043407	0.000475	4.746278	0.804041	-0.009493
1576	7.8750e-01	4.2455	2.017750	0.000257	2.565556	0.434617	-0.005132
1577	7.8800e-01	4.2365	1.990809	0.000269	2.693834	0.456348	-0.005388
1578	7.8850e-01	4.2247	1.957882	0.000329	3.292463	0.557758	-0.006585
1579	7.8900e-01	4.2145	1.901436	0.000564	5.644223	0.956157	-0.011289
1580	7.8950e-01	4.2078	1.881337	0.000201	2.009685	0.340450	-0.004020
1581	7.9000e-01	4.1969	1.860384	0.000210	2.095204	0.354937	-0.004191
1582	7.9050e-01	4.1862	1.806503	0.000539	5.387667	0.912696	-0.010776
1583	7.9100e-01	4.1766	1.768017	0.000385	3.848334	0.651925	-0.007697
1584	7.9150e-01	4.1681	1.744070	0.000239	2.394519	0.405642	-0.004789
1585	7.9200e-01	4.1571	1.715419	0.000286	2.864871	0.485322	-0.005730
1586	7.9250e-01	4.1459	1.669235	0.000462	4.618001	0.782310	-0.009237
1587	7.9300e-01	4.1362	1.638019	0.000312	3.121426	0.528784	-0.006243
1588	7.9350e-01	4.1271	1.609368	0.000286	2.864871	0.485322	-0.005730
1589	7.9400e-01	4.1156	1.564039	0.000453	4.532482	0.767823	-0.009066
1590	7.9450e-01	4.1083	1.533250	0.000308	3.078667	0.521540	-0.006158
1591	7.9500e-01	4.0962	1.518711	0.000145	1.453815	0.246283	-0.002908
1592	7.9550e-01	4.0848	1.454140	0.000646	6.456649	1.093786	-0.012914
1593	7.9600e-01	4.0759	1.416081	0.000381	3.805575	0.644682	-0.007612
1594	7.9650e-01	4.0649	1.404535	0.000115	1.154500	0.195578	-0.002309
1595	7.9700e-01	4.0549	1.379305	0.000252	2.522797	0.427373	-0.005046
1596	7.9750e-01	4.0471	1.325852	0.000534	5.344908	0.905452	-0.010691
1597	7.9800e-01	4.0344	1.277531	0.000483	4.831797	0.818529	-0.009664
1598	7.9850e-01	4.0247	1.262136	0.000154	1.539334	0.260770	-0.003079
1599	7.9900e-01	4.0175	1.228781	0.000334	3.335223	0.565002	-0.006671
1600	7.9950e-01	4.0085	1.184736	0.000440	4.404204	0.746092	-0.008809
1601	8.0000e-01	3.9941	1.140263	0.000445	4.446964	0.753336	-0.008895
1602	8.0050e-01	3.9874	1.124013	0.000162	1.624852	0.275257	-0.003250
1603	8.0100e-01	3.9758	1.079968	0.000440	4.404204	0.746092	-0.008809
1604	8.0150e-01	3.9667	1.053027	0.000269	2.693834	0.456348	-0.005388
1605	8.0200e-01	3.9542	1.019672	0.000334	3.335223	0.565002	-0.006671
1606	8.0250e-01	3.9465	0.962798	0.000569	5.686982	0.963401	-0.011375
1607	8.0300e-01	3.9368	0.939279	0.000235	2.351760	0.398399	-0.004704
1608	8.0350e-01	3.9288	0.888392	0.000509	5.088353	0.861990	-0.010177
1609	8.0400e-01	3.9154	0.870431	0.000180	1.795889	0.304232	-0.003592
1610	8.0450e-01	3.9047	0.815695	0.000547	5.473186	0.927183	-0.010947
1611	8.0500e-01	3.8947	0.796024	0.000197	1.966926	0.333206	-0.003934
1612	8.0550e-01	3.8855	0.772077	0.000239	2.394519	0.405642	-0.004789
1613	8.0600e-01	3.8727	0.717769	0.000543	5.430427	0.919939	-0.010862
1614	8.0650e-01	3.8684	0.680566	0.000372	3.720056	0.630195	-0.007441
1615	8.0700e-01	3.8547	0.630533	0.000500	5.002834	0.847503	-0.010006
1616	8.0750e-01	3.8458	0.612573	0.000180	1.795889	0.304232	-0.003592
1617	8.0800e-01	3.8341	0.590764	0.000218	2.180723	0.369424	-0.004362
1618	8.0850e-01	3.8249	0.526193	0.000646	6.456649	1.093786	-0.012914
1619	8.0900e-01	3.8150	0.496687	0.000295	2.950389	0.499809	-0.005901
1620	8.0950e-01	3.8037	0.477444	0.000192	1.924167	0.325963	-0.003849
1621	8.1000e-01	3.7946	0.435109	0.000423	4.233167	0.717118	-0.008467
1622	8.1050e-01	3.7857	0.399616	0.000355	3.549019	0.601220	-0.007099
1623	8.1100e-01	3.7738	0.380373	0.000192	1.924167	0.325963	-0.003849
1624	8.1150e-01	3.7650	0.324354	0.000560	5.601464	0.948914	-0.011204
1625	8.1200e-01	3.7549	0.281591	0.000428	4.275927	0.724362	-0.008553
1626	8.1250e-01	3.7465	0.247381	0.000342	3.420741	0.579489	-0.006842
1627	8.1300e-01	3.7347	0.224717	0.000227	2.266241	0.383912	-0.004533
1628	8.1350e-01	3.7244	0.183237	0.000415	4.147649	0.702631	-0.008296
1629	8.1400e-01	3.7173	0.154159	0.000291	2.907630	0.492566	-0.005816
1630	8.1450e-01	3.7056	0.112252	0.000419	4.190408	0.709874	-0.008381
1631	8.1500e-01	3.6952	0.079752	0.000325	3.249704	0.550515	-0.006500
1632	8.1550e-01	3.6839	0.037845	0.000419	4.190408	0.709874	-0.008381
1633	8.1600e-01	3.6780	-0.016036	0.000539	5.387667	0.912696	-0.010776
1634	8.1650e-01	3.6667	-0.031003	0.000150	1.496574	0.253527	-0.002993
1635	8.1700e-01	3.6554	-0.085311	0.000543	5.430427	0.919939	-0.010862
1636	8.1750e-01	3.6469	-0.128929	0.000436	4.361445	0.738849	-0.008724
1637	8.1800e-01	3.6343	-0.143468	0.000145	1.453815	0.246283	-0.002908
1638	8.1850e-01	3.6248	-0.176823	0.000334	3.335223	0.565002	-0.006671
1639	8.1900e-01	3.6157	-0.196066	0.000192	1.924167	0.325963	-0.003849
1640	8.1950e-01	3.6090	-0.251657	0.000556	5.558704	0.941670	-0.011118
1641	8.2000e-01	3.5968	-0.285012	0.000334	3.335223	0.565002	-0.006671
1642	8.2050e-01	3.5870	-0.317939	0.000329	3.292463	0.557758	-0.006585
1643	8.2100e-01	3.5760	-0.354288	0.000363	3.634538	0.615707	-0.007270
1644	8.2150e-01	3.5645	-0.373958	0.000197	1.966926	0.333206	-0.003934
1645	8.2200e-01	3.5553	-0.413727	0.000398	3.976612	0.673656	-0.007954
1646	8.2250e-01	3.5462	-0.461621	0.000479	4.789038	0.811285	-0.009579
1647	8.2300e-01	3.5356	-0.500535	0.000389	3.891093	0.659169	-0.007783
1648	8.2350e-01	3.5269	-0.540732	0.000402	4.019371	0.680900	-0.008039
1649	8.2400e-01	3.5163	-0.576225	0.000355	3.549019	0.601220	-0.007099
1650	8.2450e-01	3.5060	-0.627968	0.000517	5.173871	0.876477	-0.010349
1651	8.2500e-01	3.4973	-0.663888	0.000359	3.591778	0.608464	-0.007184
1652	8.2550e-01	3.4874	-0.686552	0.000227	2.266241	0.383912	-0.004533
1653	8.2600e-01	3.4744	-0.732736	0.000462	4.618001	0.782310	-0.009237
1654	8.2650e-01	3.4659	-0.767801	0.000351	3.506260	0.593976	-0.007013
1655	8.2700e-01	3.4570	-0.790038	0.000222	2.223482	0.376668	-0.004447
1656	8.2750e-01	3.4464	-0.843918	0.000539	5.387667	0.912696	-0.010776
1657	8.2800e-01	3.4335	-0.871286	0.000274	2.736593	0.463591	-0.005474
1658	8.2850e-01	3.4286	-0.924740	0.000534	5.344908	0.905452	-0.010691
1659	8.2900e-01	3.4174	-0.961943	0.000372	3.720056	0.630195	-0.007441
1660	8.2950e-01	3.4071	-1.006844	0.000449	4.489723	0.760580	-0.008980
1661	8.3000e-01	3.3987	-1.027797	0.000210	2.095204	0.354937	-0.004191
1662	8.3050e-01	3.3859	-1.070560	0.000428	4.275927	0.724362	-0.008553
1663	8.3100e-01	3.3742	-1.119737	0.000492	4.917315	0.833016	-0.009835
1664	8.3150e-01	3.3670	-1.149671	0.000299	2.993149	0.507053	-0.005987
1665	8.3200e-01	3.3563	-1.189440	0.000398	3.976612	0.673656	-0.007954
1666	8.3250e-01	3.3451	-1.210393	0.000210	2.095204	0.354937	-0.004191
1667	8.3300e-01	3.3353	-1.245031	0.000346	3.463500	0.586733	-0.006928
1668	8.3350e-01	3.3241	-1.289076	0.000440	4.404204	0.746092	-0.008809
1669	8.3400e-01	3.3170	-1.310885	0.000218	2.180723	0.369424	-0.004362
1670	8.3450e-01	3.3066	-1.351082	0.000402	4.019371	0.680900	-0.008039
1671	8.3500e-01	3.2968	-1.393845	0.000428	4.275927	0.724362	-0.008553
1672	8.3550e-01	3.2863	-1.416509	0.000227	2.266241	0.383912	-0.004533
1673	8.3600e-01	3.2779	-1.471245	0.000547	5.473186	0.927183	-0.010947
1674	8.3650e-01	3.2686	-1.509731	0.000385	3.848334	0.651925	-0.007697
1675	8.3700e-01	3.2562	-1.555487	0.000458	4.575241	0.775067	-0.009151
1676	8.3750e-01	3.2437	-1.605519	0.000500	5.002834	0.847503	-0.010006
1677	8.3800e-01	3.2355	-1.632459	0.000269	2.693834	0.456348	-0.005388
1678	8.3850e-01	3.2266	-1.688051	0.000556	5.558704	0.941670	-0.011118
1679	8.3900e-01	3.2150	-1.702162	0.000141	1.411056	0.239039	-0.002822
1680	8.3950e-01	3.2056	-1.757326	0.000552	5.515945	0.934426	-0.011033
1681	8.4000e-01	3.1961	-1.759892	0.000026	0.256556	0.043462	-0.000513
1682	8.4050e-01	3.1854	-1.820187	0.000603	6.029056	1.021350	-0.012059
1683	8.4100e-01	3.1750	-1.855680	0.000355	3.549019	0.601220	-0.007099
1684	8.4150e-01	3.1644	-1.887752	0.000321	3.206945	0.543271	-0.006414
1685	8.4200e-01	3.1564	-1.942488	0.000547	5.473186	0.927183	-0.010947
1686	8.4250e-01	3.1442	-1.963869	0.000214	2.137963	0.362181	-0.004276
1687	8.4300e-01	3.1354	-1.991665	0.000278	2.779352	0.470835	-0.005559
1688	8.4350e-01	3.1253	-2.036993	0.000453	4.532482	0.767823	-0.009066
1689	8.4400e-01	3.1174	-2.077190	0.000402	4.019371	0.680900	-0.008039
1690	8.4450e-01	3.1046	-2.119097	0.000419	4.190408	0.709874	-0.008381
1691	8.4500e-01	3.0940	-2.149458	0.000304	3.035908	0.514297	-0.006072
1692	8.4550e-01	3.0890	-2.211892	0.000624	6.242853	1.057568	-0.012487
1693	8.4600e-01	3.0769	-2.242681	0.000308	3.078667	0.521540	-0.006158
1694	8.4650e-01	3.0652	-2.280312	0.000376	3.762815	0.637438	-0.007526
1695	8.4700e-01	3.0539	-2.312384	0.000321	3.206945	0.543271	-0.006414
1696	8.4750e-01	3.0472	-2.350870	0.000385	3.848334	0.651925	-0.007697
1697	8.4800e-01	3.0369	-2.394060	0.000432	4.318686	0.731605	-0.008638
1698	8.4850e-01	3.0251	-2.431263	0.000372	3.720056	0.630195	-0.007441
1699	8.4900e-01	3.0145	-2.479585	0.000483	4.831797	0.818529	-0.009664
1700	8.4950e-01	3.0060	-2.503105	0.000235	2.351760	0.398399	-0.004704
1701	8.5000e-01	2.9944	-2.538597	0.000355	3.549019	0.601220	-0.007099
1702	8.5050e-01	2.9859	-2.567248	0.000286	2.864871	0.485322	-0.005730
1703	8.5100e-01	2.9762	-2.626688	0.000594	5.943538	1.006863	-0.011888
1704	8.5150e-01	2.9654	-2.658760	0.000321	3.206945	0.543271	-0.006414
1705	8.5200e-01	2.9556	-2.678003	0.000192	1.924167	0.325963	-0.003849
1706	8.5250e-01	2.9480	-2.737016	0.000590	5.900779	0.999619	-0.011802
1707	8.5300e-01	2.9335	-2.788331	0.000513	5.131112	0.869234	-0.010263
1708	8.5350e-01	2.9257	-2.784482	-0.000038	-0.384833	-0.065193	0.000770
1709	8.5400e-01	2.9167	-2.834087	0.000496	4.960075	0.840259	-0.009921
1710	8.5450e-01	2.9066	-2.885402	0.000513	5.131112	0.869234	-0.010263
1711	8.5500e-01	2.8949	-2.913197	0.000278	2.779352	0.470835	-0.005559
1712	8.5550e-01	2.8864	-2.966223	0.000530	5.302149	0.898208	-0.010605
1713	8.5600e-01	2.8741	-3.000433	0.000342	3.420741	0.579489	-0.006842
1714	8.5650e-01	2.8647	-3.039347	0.000389	3.891093	0.659169	-0.007783
1715	8.5700e-01	2.8548	-3.056024	0.000167	1.667611	0.282501	-0.003335
1716	8.5750e-01	2.8445	-3.118885	0.000629	6.285612	1.064811	-0.012572
1717	8.5800e-01	2.8368	-3.153095	0.000342	3.420741	0.579489	-0.006842
1718	8.5850e-01	2.8264	-3.192436	0.000393	3.933852	0.666413	-0.007868
1719	8.5900e-01	2.8162	-3.237765	0.000453	4.532482	0.767823	-0.009066
1720	8.5950e-01	2.8038	-3.279672	0.000419	4.190408	0.709874	-0.008381
1721	8.6000e-01	2.7970	-3.310033	0.000304	3.035908	0.514297	-0.006072
1722	8.6050e-01	2.7859	-3.349803	0.000398	3.976612	0.673656	-0.007954
1723	8.6100e-01	2.7762	-3.392565	0.000428	4.275927	0.724362	-0.008553
1724	8.6150e-01	2.7687	-3.445591	0.000530	5.302149	0.898208	-0.010605
1725	8.6200e-01	2.7556	-3.465689	0.000201	2.009685	0.340450	-0.004020
1726	8.6250e-01	2.7449	-3.489208	0.000235	2.351760	0.398399	-0.004704
1727	8.6300e-01	2.7356	-3.538385	0.000492	4.917315	0.833016	-0.009835
1728	8.6350e-01	2.7252	-3.593121	0.000547	5.473186	0.927183	-0.010947
1729	8.6400e-01	2.7155	-3.620489	0.000274	2.736593	0.463591	-0.005474
1730	8.6450e-01	2.7036	-3.670949	0.000505	5.045593	0.854747	-0.010092
1731	8.6500e-01	2.6947	-3.706870	0.000359	3.591778	0.608464	-0.007184
1732	8.6550e-01	2.6851	-3.761178	0.000543	5.430427	0.919939	-0.010862
1733	8.6600e-01	2.6752	-3.789401	0.000282	2.822112	0.478079	-0.005645
1734	8.6650e-01	2.6643	-3.829598	0.000402	4.019371	0.680900	-0.008039
1735	8.6700e-01	2.6547	-3.864663	0.000351	3.506260	0.593976	-0.007013
1736	8.6750e-01	2.6465	-3.909564	0.000449	4.489723	0.760580	-0.008980
1737	8.6800e-01	2.6349	-3.936077	0.000265	2.651074	0.449104	-0.005303
1738	8.6850e-01	2.6240	-3.978412	0.000423	4.233167	0.717118	-0.008467
1739	8.6900e-01	2.6149	-4.012622	0.000342	3.420741	0.579489	-0.006842
1740	8.6950e-01	2.6063	-4.057522	0.000449	4.489723	0.760580	-0.008980
1741	8.7000e-01	2.5987	-4.116535	0.000590	5.900779	0.999619	-0.011802
1742	8.7050e-01	2.5851	-4.154593	0.000381	3.805575	0.644682	-0.007612
1743	8.7100e-01	2.5775	-4.175119	0.000205	2.052445	0.347694	-0.004105
1744	8.7150e-01	2.5659	-4.211468	0.000363	3.634538	0.615707	-0.007270
1745	8.7200e-01	2.5558	-4.248671	0.000372	3.720056	0.630195	-0.007441
1746	8.7250e-01	2.5476	-4.297848	0.000492	4.917315	0.833016	-0.009835
1747	8.7300e-01	2.5352	-4.333768	0.000359	3.591778	0.608464	-0.007184
1748	8.7350e-01	2.5259	-4.378669	0.000449	4.489723	0.760580	-0.008980
1749	8.7400e-01	2.5153	-4.427846	0.000492	4.917315	0.833016	-0.009835
1750	8.7450e-01	2.5064	-4.469326	0.000415	4.147649	0.702631	-0.008296
1751	8.7500e-01	2.4927	-4.495838	0.000265	2.651074	0.449104	-0.005303
1752	8.7550e-01	2.4873	-4.529193	0.000334	3.335223	0.565002	-0.006671
1753	8.7600e-01	2.4776	-4.583929	0.000547	5.473186	0.927183	-0.010947
1754	8.7650e-01	2.4652	-4.626692	0.000428	4.275927	0.724362	-0.008553
1755	8.7700e-01	2.4530	-4.660902	0.000342	3.420741	0.579489	-0.006842
1756	8.7750e-01	2.4437	-4.712217	0.000513	5.131112	0.869234	-0.010263
1757	8.7800e-01	2.4342	-4.740012	0.000278	2.779352	0.470835	-0.005559
1758	8.7850e-01	2.4256	-4.792183	0.000522	5.216630	0.883721	-0.010434
1759	8.7900e-01	2.4135	-4.819978	0.000278	2.779352	0.470835	-0.005559
1760	8.7950e-01	2.4066	-4.865734	0.000458	4.575241	0.775067	-0.009151
1761	8.8000e-01	2.3950	-4.898234	0.000325	3.249704	0.550515	-0.006500
1762	8.8050e-01	2.3846	-4.940569	0.000423	4.233167	0.717118	-0.008467
1763	8.8100e-01	2.3752	-5.002147	0.000616	6.157334	1.043081	-0.012316
1764	8.8150e-01	2.3689	-5.028659	0.000265	2.651074	0.449104	-0.005303
1765	8.8200e-01	2.3572	-5.064152	0.000355	3.549019	0.601220	-0.007099
1766	8.8250e-01	2.3488	-5.113329	0.000492	4.917315	0.833016	-0.009835
1767	8.8300e-01	2.3355	-5.153526	0.000402	4.019371	0.680900	-0.008039
1768	8.8350e-01	2.3260	-5.177473	0.000239	2.394519	0.405642	-0.004789
1769	8.8400e-01	2.3141	-5.234775	0.000573	5.729742	0.970644	-0.011460
1770	8.8450e-01	2.3063	-5.279248	0.000445	4.446964	0.753336	-0.008895
1771	8.8500e-01	2.2966	-5.295925	0.000167	1.667611	0.282501	-0.003335
1772	8.8550e-01	2.2824	-5.356220	0.000603	6.029056	1.021350	-0.012059
1773	8.8600e-01	2.2754	-5.386154	0.000299	2.993149	0.507053	-0.005987
1774	8.8650e-01	2.2649	-5.431055	0.000449	4.489723	0.760580	-0.008980
1775	8.8700e-01	2.2541	-5.459706	0.000286	2.864871	0.485322	-0.005730
1776	8.8750e-01	2.2447	-5.507600	0.000479	4.789038	0.811285	-0.009579
1777	8.8800e-01	2.2363	-5.554639	0.000470	4.703519	0.796798	-0.009408
1778	8.8850e-01	2.2260	-5.605954	0.000513	5.131112	0.869234	-0.010263
1779	8.8900e-01	2.2181	-5.639736	0.000338	3.377982	0.572246	-0.006756
1780	8.8950e-01	2.2055	-5.699176	0.000594	5.943538	1.006863	-0.011888
1781	8.9000e-01	2.1942	-5.714570	0.000154	1.539334	0.260770	-0.003079
1782	8.9050e-01	2.1858	-5.774010	0.000594	5.943538	1.006863	-0.011888
1783	8.9100e-01	2.1750	-5.799240	0.000252	2.522797	0.427373	-0.005046
1784	8.9150e-01	2.1677	-5.849272	0.000500	5.002834	0.847503	-0.010006
1785	8.9200e-01	2.1571	-5.883055	0.000338	3.377982	0.572246	-0.006756
1786	8.9250e-01	2.1429	-5.918975	0.000359	3.591778	0.608464	-0.007184
1787	8.9300e-01	2.1332	-5.966442	0.000475	4.746278	0.804041	-0.009493
1788	8.9350e-01	2.1266	-6.017757	0.000513	5.131112	0.869234	-0.010263
1789	8.9400e-01	2.1158	-6.038283	0.000205	2.052445	0.347694	-0.004105
1790	8.9450e-01	2.1030	-6.107130	0.000688	6.884242	1.166222	-0.013770
1791	8.9500e-01	2.0963	-6.142196	0.000351	3.506260	0.593976	-0.007013
1792	8.9550e-01	2.0902	-6.172557	0.000304	3.035908	0.514297	-0.006072
1793	8.9600e-01	2.0794	-6.189234	0.000167	1.667611	0.282501	-0.003335
1794	8.9650e-01	2.0657	-6.247391	0.000582	5.815260	0.985132	-0.011631
1795	8.9700e-01	2.0518	-6.292720	0.000453	4.532482	0.767823	-0.009066
1796	8.9750e-01	2.0457	-6.335482	0.000428	4.275927	0.724362	-0.008553
1797	8.9800e-01	2.0346	-6.392356	0.000569	5.686982	0.963401	-0.011375
1798	8.9850e-01	2.0262	-6.441961	0.000496	4.960075	0.840259	-0.009921
1799	8.9900e-01	2.0166	-6.464625	0.000227	2.266241	0.383912	-0.004533
1800	8.9950e-01	2.0062	-6.510381	0.000458	4.575241	0.775067	-0.009151
1801	9.0000e-01	1.9934	-6.549723	0.000393	3.933852	0.666413	-0.007868
1802	9.0050e-01	1.9814	-6.595478	0.000458	4.575241	0.775067	-0.009151
1803	9.0100e-01	1.9777	-6.621991	0.000265	2.651074	0.449104	-0.005303
1804	9.0150e-01	1.9670	-6.668175	0.000462	4.618001	0.782310	-0.009237
1805	9.0200e-01	1.9547	-6.715641	0.000475	4.746278	0.804041	-0.009493
1806	9.0250e-01	1.9458	-6.764390	0.000487	4.874556	0.825772	-0.009750
1807	9.0300e-01	1.9373	-6.795179	0.000308	3.078667	0.521540	-0.006158
1808	9.0350e-01	1.9244	-6.840080	0.000449	4.489723	0.760580	-0.008980
1809	9.0400e-01	1.9175	-6.894388	0.000543	5.430427	0.919939	-0.010862
1810	9.0450e-01	1.9089	-6.935868	0.000415	4.147649	0.702631	-0.008296
1811	9.0500e-01	1.8970	-6.963664	0.000278	2.779352	0.470835	-0.005559
1812	9.0550e-01	1.8838	-7.017117	0.000534	5.344908	0.905452	-0.010691
1813	9.0600e-01	1.8765	-7.042347	0.000252	2.522797	0.427373	-0.005046
1814	9.0650e-01	1.8634	-7.097083	0.000547	5.473186	0.927183	-0.010947
1815	9.0700e-01	1.8536	-7.144549	0.000475	4.746278	0.804041	-0.009493
1816	9.0750e-01	1.8446	-7.172345	0.000278	2.779352	0.470835	-0.005559
1817	9.0800e-01	1.8367	-7.247179	0.000748	7.482871	1.267633	-0.014967
1818	9.0850e-01	1.8257	-7.271554	0.000244	2.437278	0.412886	-0.004875
1819	9.0900e-01	1.8158	-7.314317	0.000428	4.275927	0.724362	-0.008553
1820	9.0950e-01	1.8045	-7.333560	0.000192	1.924167	0.325963	-0.003849
1821	9.1000e-01	1.7948	-7.402407	0.000688	6.884242	1.166222	-0.013770
1822	9.1050e-01	1.7841	-7.404118	0.000017	0.171037	0.028974	-0.000342
1823	9.1100e-01	1.7731	-7.466979	0.000629	6.285612	1.064811	-0.012572
1824	9.1150e-01	1.7642	-7.528129	0.000611	6.114575	1.035837	-0.012230
1825	9.1200e-01	1.7570	-7.575168	0.000470	4.703519	0.796798	-0.009408
1826	9.1250e-01	1.7444	-7.614509	0.000393	3.933852	0.666413	-0.007868
1827	9.1300e-01	1.7371	-7.666680	0.000522	5.216630	0.883721	-0.010434
1828	9.1350e-01	1.7246	-7.672666	0.000060	0.598630	0.101411	-0.001197
1829	9.1400e-01	1.7145	-7.737666	0.000650	6.499408	1.101030	-0.013000
1830	9.1450e-01	1.7067	-7.766744	0.000291	2.907630	0.492566	-0.005816
1831	9.1500e-01	1.6962	-7.812500	0.000458	4.575241	0.775067	-0.009151
1832	9.1550e-01	1.6859	-7.862104	0.000496	4.960075	0.840259	-0.009921
1833	9.1600e-01	1.6734	-7.900591	0.000385	3.848334	0.651925	-0.007697
1834	9.1650e-01	1.6662	-7.942070	0.000415	4.147649	0.702631	-0.008296
1835	9.1700e-01	1.6542	-7.996806	0.000547	5.473186	0.927183	-0.010947
1836	9.1750e-01	1.6438	-8.045556	0.000487	4.874556	0.825772	-0.009750
1837	9.1800e-01	1.6376	-8.088746	0.000432	4.318686	0.731605	-0.008638
1838	9.1850e-01	1.6267	-8.114831	0.000261	2.608315	0.441861	-0.005217
1839	9.1900e-01	1.6153	-8.184106	0.000693	6.927001	1.173466	-0.013855
1840	9.1950e-01	1.6063	-8.211474	0.000274	2.736593	0.463591	-0.005474
1841	9.2000e-01	1.5939	-8.259796	0.000483	4.831797	0.818529	-0.009664
1842	9.2050e-01	1.5839	-8.299138	0.000393	3.933852	0.666413	-0.007868
1843	9.2100e-01	1.5761	-8.340190	0.000410	4.104889	0.695387	-0.008210
1844	9.2150e-01	1.5656	-8.367558	0.000274	2.736593	0.463591	-0.005474
1845	9.2200e-01	1.5549	-8.410748	0.000432	4.318686	0.731605	-0.008638
1846	9.2250e-01	1.5442	-8.466767	0.000560	5.601464	0.948914	-0.011204
1847	9.2300e-01	1.5371	-8.497556	0.000308	3.078667	0.521540	-0.006158
1848	9.2350e-01	1.5234	-8.559561	0.000620	6.200093	1.050324	-0.012401
1849	9.2400e-01	1.5145	-8.608311	0.000487	4.874556	0.825772	-0.009750
1850	9.2450e-01	1.5082	-8.633540	0.000252	2.522797	0.427373	-0.005046
1851	9.2500e-01	1.4942	-8.681007	0.000475	4.746278	0.804041	-0.009493
1852	9.2550e-01	1.4841	-8.729756	0.000487	4.874556	0.825772	-0.009750
1853	9.2600e-01	1.4748	-8.760118	0.000304	3.035908	0.514297	-0.006072
1854	9.2650e-01	1.4691	-8.804591	0.000445	4.446964	0.753336	-0.008895
1855	9.2700e-01	1.4556	-8.849064	0.000445	4.446964	0.753336	-0.008895
1856	9.2750e-01	1.4441	-8.901234	0.000522	5.216630	0.883721	-0.010434
1857	9.2800e-01	1.4346	-8.956825	0.000556	5.558704	0.941670	-0.011118
1858	9.2850e-01	1.4236	-9.007713	0.000509	5.088353	0.861990	-0.010177
1859	9.2900e-01	1.4169	-9.045344	0.000376	3.762815	0.637438	-0.007526
1860	9.2950e-01	1.4041	-9.098797	0.000534	5.344908	0.905452	-0.010691
1861	9.3000e-01	1.3943	-9.125310	0.000265	2.651074	0.449104	-0.005303
1862	9.3050e-01	1.3863	-9.174914	0.000496	4.960075	0.840259	-0.009921
1863	9.3100e-01	1.3742	-9.209979	0.000351	3.506260	0.593976	-0.007013
1864	9.3150e-01	1.3639	-9.243762	0.000338	3.377982	0.572246	-0.006756
1865	9.3200e-01	1.3576	-9.302774	0.000590	5.900779	0.999619	-0.011802
1866	9.3250e-01	1.3472	-9.343826	0.000410	4.104889	0.695387	-0.008210
1867	9.3300e-01	1.3342	-9.376326	0.000325	3.249704	0.550515	-0.006500
1868	9.3350e-01	1.3264	-9.429779	0.000534	5.344908	0.905452	-0.010691
1869	9.3400e-01	1.3145	-9.477245	0.000475	4.746278	0.804041	-0.009493
1870	9.3450e-01	1.3068	-9.506751	0.000295	2.950389	0.499809	-0.005901
1871	9.3500e-01	1.2952	-9.565764	0.000590	5.900779	0.999619	-0.011802
1872	9.3550e-01	1.2831	-9.608526	0.000428	4.275927	0.724362	-0.008553
1873	9.3600e-01	1.2769	-9.659841	0.000513	5.131112	0.869234	-0.010263
1874	9.3650e-01	1.2627	-9.705169	0.000453	4.532482	0.767823	-0.009066
1875	9.3700e-01	1.2527	-9.755629	0.000505	5.045593	0.854747	-0.010092
1876	9.3750e-01	1.2439	-9.785991	0.000304	3.035908	0.514297	-0.006072
1877	9.3800e-01	1.2354	-9.834740	0.000487	4.874556	0.825772	-0.009750
1878	9.3850e-01	1.2247	-9.873654	0.000389	3.891093	0.659169	-0.007783
1879	9.3900e-01	1.2158	-9.910430	0.000368	3.677297	0.622951	-0.007355
1880	9.3950e-01	1.2070	-9.977994	0.000676	6.755964	1.144491	-0.013513
1881	9.4000e-01	1.1969	-10.023750	0.000458	4.575241	0.775067	-0.009151
1882	9.4050e-01	1.1846	-10.075065	0.000513	5.131112	0.869234	-0.010263
1883	9.4100e-01	1.1747	-10.097302	0.000222	2.223482	0.376668	-0.004447
1884	9.4150e-01	1.1644	-10.147334	0.000500	5.002834	0.847503	-0.010006
1885	9.4200e-01	1.1573	-10.175557	0.000282	2.822112	0.478079	-0.005645
1886	9.4250e-01	1.1478	-10.238846	0.000633	6.328371	1.072055	-0.012658
1887	9.4300e-01	1.1382	-10.290588	0.000517	5.173871	0.876477	-0.010349
1888	9.4350e-01	1.1270	-10.326937	0.000363	3.634538	0.615707	-0.007270
1889	9.4400e-01	1.1153	-10.386804	0.000599	5.986297	1.014106	-0.011974
1890	9.4450e-01	1.1044	-10.393218	0.000064	0.641389	0.108654	-0.001283
1891	9.4500e-01	1.0995	-10.458218	0.000650	6.499408	1.101030	-0.013000
1892	9.4550e-01	1.0849	-10.519368	0.000611	6.114575	1.035837	-0.012230
1893	9.4600e-01	1.0762	-10.562558	0.000432	4.318686	0.731605	-0.008638
1894	9.4650e-01	1.0666	-10.591209	0.000286	2.864871	0.485322	-0.005730
1895	9.4700e-01	1.0548	-10.633972	0.000428	4.275927	0.724362	-0.008553
1896	9.4750e-01	1.0458	-10.682721	0.000487	4.874556	0.825772	-0.009750
1897	9.4800e-01	1.0350	-10.731470	0.000487	4.874556	0.825772	-0.009750
1898	9.4850e-01	1.0249	-10.773377	0.000419	4.190408	0.709874	-0.008381
1899	9.4900e-01	1.0176	-10.826403	0.000530	5.302149	0.898208	-0.010605
1900	9.4950e-01	1.0059	-10.867027	0.000406	4.062130	0.688143	-0.008125
1901	9.5000e-01	0.9943	-10.909790	0.000428	4.275927	0.724362	-0.008553
1902	9.5050e-01	0.9843	-10.946138	0.000363	3.634538	0.615707	-0.007270
1903	9.5100e-01	0.9767	-11.010282	0.000641	6.413890	1.086542	-0.012829
1904	9.5150e-01	0.9642	-11.059031	0.000487	4.874556	0.825772	-0.009750
1905	9.5200e-01	0.9544	-11.082978	0.000239	2.394519	0.405642	-0.004789
1906	9.5250e-01	0.9473	-11.146694	0.000637	6.371131	1.079299	-0.012743
1907	9.5300e-01	0.9375	-11.181759	0.000351	3.506260	0.593976	-0.007013
1908	9.5350e-01	0.9272	-11.220246	0.000385	3.848334	0.651925	-0.007697
1909	9.5400e-01	0.9164	-11.263864	0.000436	4.361445	0.738849	-0.008724
1910	9.5450e-01	0.9084	-11.318600	0.000547	5.473186	0.927183	-0.010947
1911	9.5500e-01	0.8961	-11.383171	0.000646	6.456649	1.093786	-0.012914
1912	9.5550e-01	0.8867	-11.436197	0.000530	5.302149	0.898208	-0.010605
1913	9.5600e-01	0.8760	-11.471262	0.000351	3.506260	0.593976	-0.007013
1914	9.5650e-01	0.8662	-11.503761	0.000325	3.249704	0.550515	-0.006500
1915	9.5700e-01	0.8525	-11.552938	0.000492	4.917315	0.833016	-0.009835
1916	9.5750e-01	0.8441	-11.595273	0.000423	4.233167	0.717118	-0.008467
1917	9.5800e-01	0.8360	-11.655141	0.000599	5.986297	1.014106	-0.011974
1918	9.5850e-01	0.8258	-11.678232	0.000231	2.309000	0.391155	-0.004618
1919	9.5900e-01	0.8128	-11.738528	0.000603	6.029056	1.021350	-0.012059
1920	9.5950e-01	0.8041	-11.800961	0.000624	6.242853	1.057568	-0.012487
1921	9.6000e-01	0.7943	-11.843296	0.000423	4.233167	0.717118	-0.008467
1922	9.6050e-01	0.7861	-11.873230	0.000299	2.993149	0.507053	-0.005987
1923	9.6100e-01	0.7717	-11.924545	0.000513	5.131112	0.869234	-0.010263
1924	9.6150e-01	0.7647	-11.984840	0.000603	6.029056	1.021350	-0.012059
1925	9.6200e-01	0.7541	-12.004511	0.000197	1.966926	0.333206	-0.003934
1926	9.6250e-01	0.7460	-12.064806	0.000603	6.029056	1.021350	-0.012059
1927	9.6300e-01	0.7355	-12.115265	0.000505	5.045593	0.854747	-0.010092
1928	9.6350e-01	0.7262	-12.149903	0.000346	3.463500	0.586733	-0.006928
1929	9.6400e-01	0.7169	-12.214047	0.000641	6.413890	1.086542	-0.012829
1930	9.6450e-01	0.7054	-12.230724	0.000167	1.667611	0.282501	-0.003335
1931	9.6500e-01	0.6956	-12.300855	0.000701	7.012519	1.187953	-0.014026
1932	9.6550e-01	0.6833	-12.336348	0.000355	3.549019	0.601220	-0.007099
1933	9.6600e-01	0.6757	-12.394077	0.000577	5.772501	0.977888	-0.011546
1934	9.6650e-01	0.6652	-12.439405	0.000453	4.532482	0.767823	-0.009066
1935	9.6700e-01	0.6557	-12.474471	0.000351	3.506260	0.593976	-0.007013
1936	9.6750e-01	0.6443	-12.527924	0.000534	5.344908	0.905452	-0.010691
1937	9.6800e-01	0.6358	-12.598910	0.000710	7.098038	1.202440	-0.014197
1938	9.6850e-01	0.6271	-12.641672	0.000428	4.275927	0.724362	-0.008553
1939	9.6900e-01	0.6153	-12.668185	0.000265	2.651074	0.449104	-0.005303
1940	9.6950e-01	0.6063	-12.713086	0.000449	4.489723	0.760580	-0.008980
1941	9.7000e-01	0.5972	-12.770387	0.000573	5.729742	0.970644	-0.011460
1942	9.7050e-01	0.5842	-12.812722	0.000423	4.233167	0.717118	-0.008467
1943	9.7100e-01	0.5740	-12.873445	0.000607	6.071816	1.028593	-0.012145
1944	9.7150e-01	0.5695	-12.917063	0.000436	4.361445	0.738849	-0.008724
1945	9.7200e-01	0.5559	-12.955122	0.000381	3.805575	0.644682	-0.007612
1946	9.7250e-01	0.5441	-12.994035	0.000389	3.891093	0.659169	-0.007783
1947	9.7300e-01	0.5345	-13.047061	0.000530	5.302149	0.898208	-0.010605
1948	9.7350e-01	0.5226	-13.101797	0.000547	5.473186	0.927183	-0.010947
1949	9.7400e-01	0.5157	-13.150119	0.000483	4.831797	0.818529	-0.009664
1950	9.7450e-01	0.5054	-13.187750	0.000376	3.762815	0.637438	-0.007526
1951	9.7500e-01	0.4973	-13.232650	0.000449	4.489723	0.760580	-0.008980
1952	9.7550e-01	0.4853	-13.295511	0.000629	6.285612	1.064811	-0.012572
1953	9.7600e-01	0.4745	-13.338701	0.000432	4.318686	0.731605	-0.008638
1954	9.7650e-01	0.4652	-13.369918	0.000312	3.121426	0.528784	-0.006243
1955	9.7700e-01	0.4557	-13.422088	0.000522	5.216630	0.883721	-0.010434
1956	9.7750e-01	0.4440	-13.478962	0.000569	5.686982	0.963401	-0.011375
1957	9.7800e-01	0.4353	-13.519587	0.000406	4.062130	0.688143	-0.008125
1958	9.7850e-01	0.4261	-13.560211	0.000406	4.062130	0.688143	-0.008125
1959	9.7900e-01	0.4141	-13.616658	0.000564	5.644223	0.956157	-0.011289
1960	9.7950e-01	0.4058	-13.686788	0.000701	7.012519	1.187953	-0.014026
1961	9.8000e-01	0.3972	-13.726558	0.000398	3.976612	0.673656	-0.007954
1962	9.8050e-01	0.3856	-13.753070	0.000265	2.651074	0.449104	-0.005303
1963	9.8100e-01	0.3748	-13.815076	0.000620	6.200093	1.050324	-0.012401
1964	9.8150e-01	0.3643	-13.869812	0.000547	5.473186	0.927183	-0.010947
1965	9.8200e-01	0.3565	-13.894187	0.000244	2.437278	0.412886	-0.004875
1966	9.8250e-01	0.3463	-13.960041	0.000658	6.584927	1.115517	-0.013171
1967	9.8300e-01	0.3340	-13.996389	0.000363	3.634538	0.615707	-0.007270
1968	9.8350e-01	0.3263	-14.024185	0.000278	2.779352	0.470835	-0.005559
1969	9.8400e-01	0.3133	-14.082342	0.000582	5.815260	0.985132	-0.011631
1970	9.8450e-01	0.3052	-14.165729	0.000834	8.338057	1.412505	-0.016677
1971	9.8500e-01	0.2940	-14.199083	0.000334	3.335223	0.565002	-0.006671
1972	9.8550e-01	0.2847	-14.242274	0.000432	4.318686	0.731605	-0.008638
1973	9.8600e-01	0.2747	-14.294444	0.000522	5.216630	0.883721	-0.010434
1974	9.8650e-01	0.2650	-14.322667	0.000282	2.822112	0.478079	-0.005645
1975	9.8700e-01	0.2535	-14.383390	0.000607	6.071816	1.028593	-0.012145
1976	9.8750e-01	0.2446	-14.425725	0.000423	4.233167	0.717118	-0.008467
1977	9.8800e-01	0.2354	-14.489441	0.000637	6.371131	1.079299	-0.012743
1978	9.8850e-01	0.2263	-14.523651	0.000342	3.420741	0.579489	-0.006842
1979	9.8900e-01	0.2159	-14.571117	0.000475	4.746278	0.804041	-0.009493
1980	9.8950e-01	0.2028	-14.642531	0.000714	7.140797	1.209684	-0.014283
1981	9.9000e-01	0.1949	-14.688714	0.000462	4.618001	0.782310	-0.009237
1982	9.9050e-01	0.1860	-14.725063	0.000363	3.634538	0.615707	-0.007270
1983	9.9100e-01	0.1755	-14.791772	0.000667	6.670445	1.130004	-0.013342
1984	9.9150e-01	0.1634	-14.816147	0.000244	2.437278	0.412886	-0.004875
1985	9.9200e-01	0.1535	-14.852495	0.000363	3.634538	0.615707	-0.007270
1986	9.9250e-01	0.1460	-14.912790	0.000603	6.029056	1.021350	-0.012059
1987	9.9300e-01	0.1348	-14.976934	0.000641	6.413890	1.086542	-0.012829
1988	9.9350e-01	0.1289	-15.000453	0.000235	2.351760	0.398399	-0.004704
1989	9.9400e-01	0.1165	-15.081274	0.000808	8.081501	1.369043	-0.016164
1990	9.9450e-01	0.1056	-15.115057	0.000338	3.377982	0.572246	-0.006756
1991	9.9500e-01	0.0954	-15.152688	0.000376	3.762815	0.637438	-0.007526
1992	9.9550e-01	0.0850	-15.206569	0.000539	5.387667	0.912696	-0.010776
1993	9.9600e-01	0.0752	-15.251042	0.000445	4.446964	0.753336	-0.008895
1994	9.9650e-01	0.0650	-15.331435	0.000804	8.038742	1.361800	-0.016079
1995	9.9700e-01	0.0544	-15.361797	0.000304	3.035908	0.514297	-0.006072
1996	9.9750e-01	0.0429	-15.404987	0.000432	4.318686	0.731605	-0.008638
1997	9.9800e-01	0.0352	-15.425940	0.000210	2.095204	0.354937	-0.004191
1998	9.9850e-01	0.0265	-15.506762	0.000808	8.081501	1.369043	-0.016164
1999	9.9900e-01	0.0153	-15.555511	0.000487	4.874556	0.825772	-0.009750
2000	9.9950e-01	0.0054	-15.610674	0.000552	5.515945	0.934426	-0.011033
2001	1.0000e+00	-0.0042	-15.653437	0.000552	5.515945	0.934426	-0.008553

PMax (uC/cm2):	3.57e+01
Pr (uC/cm2):	2.19e+00
-Pr (uC/cm2):	0.00e+00
PLoss (uC/cm2):	0.00e+00
C (Max-Eff) (nF):	3.57e-01
K (Eff):	6.05e+02
Vert. (+/-Pr) Shift (uC/cm2):	1.10e+00
Offset (uC/cm2):	1.78e+01

A (Loop Area - uC/cm2·Volts):	-2.05e-02



Hysteresis Version: 5.48.1 - Radiant Technologies, Inc., 1999 - 9/12/24

