»»»»»»»»»»»»»»»»»»»»»»»»»»»»»»»»»»»» Hysteresis ««««««««««««««««««««««««««««««««««««
»»»  Executed Version:	5.48.1
»»»  Vision Version:	5.48.4 (R)
»»»  Vision Compiled:	9/18/24
»»»  Driver Version:	5.47.0
»»»  Windows Version:	Windows 8 or 8.1
»»»  Processor Information:	x86 (AMD or Intel) - 32 Processors
»»»  Tester Name:	PMF21124-494 (100V)
»»»  Tester S/N:	PMF21124-494
»»»  Internal Amp Type:	100V RevK 270k
»»»  Internal Amp S/N:	iAB2-596/K     
»»»  Execution Count:	1
»»»»»»»»»»»»»»»»»»»»»»»»»»»»»»»»»»»»»»»»»»««««««««««««««««««««««««««««««««««««««««««

Stored:	6/30/2025 - 11:50:40
Configured:	06/30/25 10:19:58 AM
Executed:	06/30/25 11:50:14 AM

»»»»»»»»»»»»»»»»»»»»»»»»»»»»»»»»»»» Sample Info ««««««««««««««««««««««««««««««««««««
Sample Name:	
Lot Name:	
Wafer Name:	
Die Row/Column:	0/0
Capacitor Number:	0
Sample Area (cm2):	1.00e-04
Sample Thickness (microns):	1.50e-01

Amplifier:	Internal

»»»»»»»»»»»»»»»»»»»»»»»»»»»»»»»»»»» Tester Info «««««««««««««««««««««««««««««««««««
Tester Name:	PMF21124-494 (100V)
Tester Serial Number:	PMF21124-494
Return Signal Amp. Level:	1.79 [Index: 2]

»»»»»»»»»»»»»»»»»»»»»»»»»»»»»»»» Hysteresis Info ««««««««««««««««««««««««««««««««««
Task Name:	Hyst-1804
Volts:	10.00
Field:	666.67 (kV/cm)
DCBias:	0.00
DCField:	0.00 (kV/cm)
Hysteresis Period (ms):	1.00e+00
Preset:	Enabled
Preset Delay (ms):	1.00e+03
Profile:	Standard Monopolar

»»»»»»»»»»»»»»»»»»»»»»»»»»»»»»»»»»»»»» Data «««««««««««««««««««««««««««««««««««««««
Points:	2001

Valid Data

Point	Time (ms)	Drive Voltage	Measured Polarization (uC/cm2)	Capacitance (uF)	Normalized Capacitance (uF/cm2)	Dielectric Constant	Instantaneous Current (mA)
   1	0.0000e+00	-0.0056	-17.539051	0.000744	7.438722	1.260154	0.014881
   2	5.0000e-04	0.0041	-17.464644	0.000744	7.438722	1.260154	0.014881
   3	1.0000e-03	0.0153	-17.424019	0.000406	4.061371	0.688015	0.008125
   4	1.5000e-03	0.0261	-17.377408	0.000466	4.659889	0.789407	0.009322
   5	2.0000e-03	0.0336	-17.320106	0.000573	5.728671	0.970463	0.011460
   6	2.5000e-03	0.0453	-17.304712	0.000154	1.539046	0.260721	0.003079
   7	3.0000e-03	0.0560	-17.249121	0.000556	5.557666	0.941494	0.011118
   8	3.5000e-03	0.0659	-17.206358	0.000428	4.275127	0.724226	0.008553
   9	4.0000e-03	0.0750	-17.155471	0.000509	5.087402	0.861829	0.010177
  10	4.5000e-03	0.0848	-17.134517	0.000209	2.094812	0.354871	0.004191
  11	5.0000e-03	0.0950	-17.089616	0.000449	4.488884	0.760438	0.008980
  12	5.5000e-03	0.1056	-17.036163	0.000534	5.343909	0.905283	0.010691
  13	6.0000e-03	0.1169	-16.982710	0.000534	5.343909	0.905283	0.010691
  14	6.5000e-03	0.1279	-16.949783	0.000329	3.291848	0.557654	0.006585
  15	7.0000e-03	0.1380	-16.887777	0.000620	6.198935	1.050128	0.012401
  16	7.5000e-03	0.1476	-16.842021	0.000457	4.574386	0.774922	0.009151
  17	8.0000e-03	0.1559	-16.801825	0.000402	4.018620	0.680773	0.008039
  18	8.5000e-03	0.1668	-16.766332	0.000355	3.548356	0.601108	0.007099
  19	9.0000e-03	0.1767	-16.736398	0.000299	2.992589	0.506958	0.005987
  20	9.5000e-03	0.1861	-16.693208	0.000432	4.317879	0.731468	0.008638
  21	1.0000e-02	0.1961	-16.650018	0.000432	4.317879	0.731468	0.008638
  22	1.0500e-02	0.2058	-16.589295	0.000607	6.070681	1.028401	0.012145
  23	1.1000e-02	0.2153	-16.554230	0.000351	3.505605	0.593865	0.007013
  24	1.1500e-02	0.2283	-16.497783	0.000564	5.643168	0.955979	0.011289
  25	1.2000e-02	0.2385	-16.461007	0.000368	3.676610	0.622835	0.007355
  26	1.2500e-02	0.2462	-16.432784	0.000282	2.821584	0.477989	0.005645
  27	1.3000e-02	0.2579	-16.373344	0.000594	5.942427	1.006674	0.011888
  28	1.3500e-02	0.2643	-16.315615	0.000577	5.771422	0.977705	0.011546
  29	1.4000e-02	0.2750	-16.269859	0.000457	4.574386	0.774922	0.009151
  30	1.4500e-02	0.2872	-16.255320	0.000145	1.453543	0.246237	0.002908
  31	1.5000e-02	0.2959	-16.181768	0.000735	7.353219	1.245669	0.014710
  32	1.5500e-02	0.3060	-16.165091	0.000167	1.667300	0.282448	0.003335
  33	1.6000e-02	0.3194	-16.104368	0.000607	6.070681	1.028401	0.012145
  34	1.6500e-02	0.3281	-16.052625	0.000517	5.172904	0.876314	0.010349
  35	1.7000e-02	0.3370	-16.032954	0.000197	1.966559	0.333144	0.003934
  36	1.7500e-02	0.3480	-15.976080	0.000569	5.685920	0.963221	0.011375
  37	1.8000e-02	0.3563	-15.958120	0.000180	1.795554	0.304175	0.003592
  38	1.8500e-02	0.3683	-15.889272	0.000688	6.882955	1.166004	0.013770
  39	1.9000e-02	0.3781	-15.849076	0.000402	4.018620	0.680773	0.008039
  40	1.9500e-02	0.3871	-15.808451	0.000406	4.061371	0.688015	0.008125
  41	2.0000e-02	0.3963	-15.762695	0.000457	4.574386	0.774922	0.009151
  42	2.0500e-02	0.4076	-15.727630	0.000351	3.505605	0.593865	0.007013
  43	2.1000e-02	0.4132	-15.664341	0.000633	6.327189	1.071855	0.012658
  44	2.1500e-02	0.4267	-15.630559	0.000338	3.377351	0.572139	0.006756
  45	2.2000e-02	0.4371	-15.586086	0.000445	4.446133	0.753195	0.008895
  46	2.2500e-02	0.4459	-15.536481	0.000496	4.959148	0.840102	0.009921
  47	2.3000e-02	0.4565	-15.489870	0.000466	4.659889	0.789407	0.009322
  48	2.3500e-02	0.4669	-15.456516	0.000333	3.334599	0.564896	0.006671
  49	2.4000e-02	0.4768	-15.424871	0.000316	3.163594	0.535927	0.006329
  50	2.4500e-02	0.4868	-15.362438	0.000624	6.241686	1.057370	0.012487
  51	2.5000e-02	0.4976	-15.314972	0.000475	4.745391	0.803891	0.009493
  52	2.5500e-02	0.5061	-15.288031	0.000269	2.693330	0.456263	0.005388
  53	2.6000e-02	0.5161	-15.244413	0.000436	4.360630	0.738711	0.008724
  54	2.6500e-02	0.5271	-15.191388	0.000530	5.301158	0.898040	0.010605
  55	2.7000e-02	0.5364	-15.162309	0.000291	2.907087	0.492474	0.005816
  56	2.7500e-02	0.5460	-15.095172	0.000671	6.711950	1.137035	0.013427
  57	2.8000e-02	0.5597	-15.043430	0.000517	5.172904	0.876314	0.010349
  58	2.8500e-02	0.5673	-14.995963	0.000475	4.745391	0.803891	0.009493
  59	2.9000e-02	0.5782	-14.955339	0.000406	4.061371	0.688015	0.008125
  60	2.9500e-02	0.5864	-14.925833	0.000295	2.949838	0.499716	0.005901
  61	3.0000e-02	0.5952	-14.879649	0.000462	4.617138	0.782164	0.009237
  62	3.0500e-02	0.6058	-14.830045	0.000496	4.959148	0.840102	0.009921
  63	3.1000e-02	0.6134	-14.789848	0.000402	4.018620	0.680773	0.008039
  64	3.1500e-02	0.6280	-14.734684	0.000551	5.514914	0.934252	0.011033
  65	3.2000e-02	0.6374	-14.732546	0.000021	0.213756	0.036211	0.000428
  66	3.2500e-02	0.6461	-14.671823	0.000607	6.070681	1.028401	0.012145
  67	3.3000e-02	0.6566	-14.641889	0.000299	2.992589	0.506958	0.005987
  68	3.3500e-02	0.6665	-14.566200	0.000757	7.566976	1.281880	0.015138
  69	3.4000e-02	0.6751	-14.523437	0.000428	4.275127	0.724226	0.008553
  70	3.4500e-02	0.6841	-14.498635	0.000248	2.479574	0.420051	0.004960
  71	3.5000e-02	0.6975	-14.458011	0.000406	4.061371	0.688015	0.008125
  72	3.5500e-02	0.7069	-14.385742	0.000722	7.224965	1.223942	0.014454
  73	3.6000e-02	0.7158	-14.349394	0.000363	3.633858	0.615592	0.007270
  74	3.6500e-02	0.7259	-14.333999	0.000154	1.539046	0.260721	0.003079
  75	3.7000e-02	0.7354	-14.271994	0.000620	6.198935	1.050128	0.012401
  76	3.7500e-02	0.7465	-14.232224	0.000398	3.975869	0.673530	0.007954
  77	3.8000e-02	0.7549	-14.191600	0.000406	4.061371	0.688015	0.008125
  78	3.8500e-02	0.7676	-14.169363	0.000222	2.223066	0.376598	0.004447
  79	3.9000e-02	0.7749	-14.105647	0.000637	6.369940	1.079097	0.012743
  80	3.9500e-02	0.7868	-14.052622	0.000530	5.301158	0.898040	0.010605
  81	4.0000e-02	0.7973	-13.997886	0.000547	5.472163	0.927010	0.010947
  82	4.0500e-02	0.8067	-13.971801	0.000261	2.607828	0.441778	0.005217
  83	4.1000e-02	0.8148	-13.916637	0.000551	5.514914	0.934252	0.011033
  84	4.1500e-02	0.8234	-13.899960	0.000167	1.667300	0.282448	0.003335
  85	4.2000e-02	0.8344	-13.836243	0.000637	6.369940	1.079097	0.012743
  86	4.2500e-02	0.8477	-13.784928	0.000513	5.130153	0.869071	0.010263
  87	4.3000e-02	0.8573	-13.734469	0.000504	5.044650	0.854587	0.010092
  88	4.3500e-02	0.8669	-13.694699	0.000398	3.975869	0.673530	0.007954
  89	4.4000e-02	0.8804	-13.667331	0.000274	2.736082	0.463505	0.005474
  90	4.4500e-02	0.8855	-13.619437	0.000479	4.788143	0.811133	0.009579
  91	4.5000e-02	0.8973	-13.574537	0.000449	4.488884	0.760438	0.008980
  92	4.5500e-02	0.9097	-13.538189	0.000363	3.633858	0.615592	0.007270
  93	4.6000e-02	0.9186	-13.484735	0.000534	5.343909	0.905283	0.010691
  94	4.6500e-02	0.9256	-13.451381	0.000333	3.334599	0.564896	0.006671
  95	4.7000e-02	0.9377	-13.403059	0.000483	4.830894	0.818376	0.009664
  96	4.7500e-02	0.9473	-13.360724	0.000423	4.232376	0.716984	0.008467
  97	4.8000e-02	0.9550	-13.314968	0.000457	4.574386	0.774922	0.009151
  98	4.8500e-02	0.9662	-13.261515	0.000534	5.343909	0.905283	0.010691
  99	4.9000e-02	0.9772	-13.234575	0.000269	2.693330	0.456263	0.005388
 100	4.9500e-02	0.9857	-13.157174	0.000774	7.737981	1.310849	0.015480
 101	5.0000e-02	0.9973	-13.132372	0.000248	2.479574	0.420051	0.004960
 102	5.0500e-02	1.0073	-13.104577	0.000278	2.778833	0.470747	0.005559
 103	5.1000e-02	1.0130	-13.048558	0.000560	5.600417	0.948736	0.011204
 104	5.1500e-02	1.0261	-13.011354	0.000372	3.719361	0.630077	0.007441
 105	5.2000e-02	1.0379	-12.974578	0.000368	3.676610	0.622835	0.007355
 106	5.2500e-02	1.0464	-12.930533	0.000440	4.403381	0.745953	0.008809
 107	5.3000e-02	1.0571	-12.887771	0.000428	4.275127	0.724226	0.008553
 108	5.3500e-02	1.0645	-12.848857	0.000389	3.890366	0.659046	0.007783
 109	5.4000e-02	1.0751	-12.795403	0.000534	5.343909	0.905283	0.010691
 110	5.4500e-02	1.0860	-12.767608	0.000278	2.778833	0.470747	0.005559
 111	5.5000e-02	1.0962	-12.719714	0.000479	4.788143	0.811133	0.009579
 112	5.5500e-02	1.1086	-12.649583	0.000701	7.011209	1.187731	0.014026
 113	5.6000e-02	1.1186	-12.615801	0.000338	3.377351	0.572139	0.006756
 114	5.6500e-02	1.1278	-12.585439	0.000304	3.035341	0.514201	0.006072
 115	5.7000e-02	1.1398	-12.528565	0.000569	5.685920	0.963221	0.011375
 116	5.7500e-02	1.1459	-12.492217	0.000363	3.633858	0.615592	0.007270
 117	5.8000e-02	1.1547	-12.442613	0.000496	4.959148	0.840102	0.009921
 118	5.8500e-02	1.1683	-12.407120	0.000355	3.548356	0.601108	0.007099
 119	5.9000e-02	1.1774	-12.387021	0.000201	2.009310	0.340386	0.004020
 120	5.9500e-02	1.1902	-12.323733	0.000633	6.327189	1.071855	0.012658
 121	6.0000e-02	1.1951	-12.271135	0.000526	5.258407	0.890798	0.010520
 122	6.0500e-02	1.2070	-12.224524	0.000466	4.659889	0.789407	0.009322
 123	6.1000e-02	1.2161	-12.206136	0.000184	1.838305	0.311417	0.003678
 124	6.1500e-02	1.2280	-12.146268	0.000599	5.985178	1.013917	0.011974
 125	6.2000e-02	1.2366	-12.105644	0.000406	4.061371	0.688015	0.008125
 126	6.2500e-02	1.2483	-12.062881	0.000428	4.275127	0.724226	0.008553
 127	6.3000e-02	1.2582	-12.033375	0.000295	2.949838	0.499716	0.005901
 128	6.3500e-02	1.2671	-12.017553	0.000158	1.581797	0.267964	0.003164
 129	6.4000e-02	1.2775	-11.940581	0.000770	7.695229	1.303607	0.015395
 130	6.4500e-02	1.2859	-11.900384	0.000402	4.018620	0.680773	0.008039
 131	6.5000e-02	1.2948	-11.861470	0.000389	3.890366	0.659046	0.007783
 132	6.5500e-02	1.3058	-11.806734	0.000547	5.472163	0.927010	0.010947
 133	6.6000e-02	1.3150	-11.762688	0.000440	4.403381	0.745953	0.008809
 134	6.6500e-02	1.3268	-11.739597	0.000231	2.308569	0.391082	0.004618
 135	6.7000e-02	1.3364	-11.662196	0.000774	7.737981	1.310849	0.015480
 136	6.7500e-02	1.3457	-11.642526	0.000197	1.966559	0.333144	0.003934
 137	6.8000e-02	1.3582	-11.620289	0.000222	2.223066	0.376598	0.004447
 138	6.8500e-02	1.3663	-11.544600	0.000757	7.566976	1.281880	0.015138
 139	6.9000e-02	1.3784	-11.512955	0.000316	3.163594	0.535927	0.006329
 140	6.9500e-02	1.3865	-11.500982	0.000120	1.197036	0.202783	0.002395
 141	7.0000e-02	1.3972	-11.434272	0.000667	6.669199	1.129793	0.013342
 142	7.0500e-02	1.4048	-11.367563	0.000667	6.669199	1.129793	0.013342
 143	7.1000e-02	1.4165	-11.311544	0.000560	5.600417	0.948736	0.011204
 144	7.1500e-02	1.4266	-11.285459	0.000261	2.607828	0.441778	0.005217
 145	7.2000e-02	1.4352	-11.262794	0.000227	2.265818	0.383840	0.004533
 146	7.2500e-02	1.4454	-11.211907	0.000509	5.087402	0.861829	0.010177
 147	7.3000e-02	1.4590	-11.171283	0.000406	4.061371	0.688015	0.008125
 148	7.3500e-02	1.4679	-11.114409	0.000569	5.685920	0.963221	0.011375
 149	7.4000e-02	1.4771	-11.106284	0.000081	0.812274	0.137603	0.001625
 150	7.4500e-02	1.4866	-11.028028	0.000782	7.823483	1.325334	0.015651
 151	7.5000e-02	1.4993	-11.003226	0.000248	2.479574	0.420051	0.004960
 152	7.5500e-02	1.5082	-10.946352	0.000569	5.685920	0.963221	0.011375
 153	7.6000e-02	1.5147	-10.889478	0.000569	5.685920	0.963221	0.011375
 154	7.6500e-02	1.5278	-10.886912	0.000026	0.256508	0.043454	0.000513
 155	7.7000e-02	1.5364	-10.837735	0.000492	4.916397	0.832860	0.009835
 156	7.7500e-02	1.5458	-10.791551	0.000462	4.617138	0.782164	0.009237
 157	7.8000e-02	1.5556	-10.746651	0.000449	4.488884	0.760438	0.008980
 158	7.8500e-02	1.5686	-10.692770	0.000539	5.386661	0.912525	0.010776
 159	7.9000e-02	1.5767	-10.665402	0.000274	2.736082	0.463505	0.005474
 160	7.9500e-02	1.5871	-10.614515	0.000509	5.087402	0.861829	0.010177
 161	8.0000e-02	1.5959	-10.587574	0.000269	2.693330	0.456263	0.005388
 162	8.0500e-02	1.6041	-10.531983	0.000556	5.557666	0.941494	0.011118
 163	8.1000e-02	1.6174	-10.499911	0.000321	3.206346	0.543170	0.006414
 164	8.1500e-02	1.6263	-10.460142	0.000398	3.975869	0.673530	0.007954
 165	8.2000e-02	1.6396	-10.408827	0.000513	5.130153	0.869071	0.010263
 166	8.2500e-02	1.6458	-10.354946	0.000539	5.386661	0.912525	0.010776
 167	8.3000e-02	1.6580	-10.305341	0.000496	4.959148	0.840102	0.009921
 168	8.3500e-02	1.6661	-10.283533	0.000218	2.180315	0.369355	0.004362
 169	8.4000e-02	1.6766	-10.239915	0.000436	4.360630	0.738711	0.008724
 170	8.4500e-02	1.6861	-10.189455	0.000504	5.044650	0.854587	0.010092
 171	8.5000e-02	1.6936	-10.150114	0.000393	3.933117	0.666288	0.007868
 172	8.5500e-02	1.7029	-10.131298	0.000188	1.881056	0.318660	0.003763
 173	8.6000e-02	1.7178	-10.071858	0.000594	5.942427	1.006674	0.011888
 174	8.6500e-02	1.7271	-10.019688	0.000522	5.215656	0.883556	0.010434
 175	8.7000e-02	1.7371	-9.991465	0.000282	2.821584	0.477989	0.005645
 176	8.7500e-02	1.7452	-9.931597	0.000599	5.985178	1.013917	0.011974
 177	8.8000e-02	1.7568	-9.896104	0.000355	3.548356	0.601108	0.007099
 178	8.8500e-02	1.7670	-9.856335	0.000398	3.975869	0.673530	0.007954
 179	8.9000e-02	1.7819	-9.814000	0.000423	4.232376	0.716984	0.008467
 180	8.9500e-02	1.7847	-9.757981	0.000560	5.600417	0.948736	0.011204
 181	9.0000e-02	1.7950	-9.737455	0.000205	2.052061	0.347629	0.004105
 182	9.0500e-02	1.8100	-9.697258	0.000402	4.018620	0.680773	0.008039
 183	9.1000e-02	1.8147	-9.636963	0.000603	6.027930	1.021159	0.012059
 184	9.1500e-02	1.8286	-9.620713	0.000162	1.624548	0.275206	0.003250
 185	9.2000e-02	1.8378	-9.558280	0.000624	6.241686	1.057370	0.012487
 186	9.2500e-02	1.8462	-9.504827	0.000534	5.343909	0.905283	0.010691
 187	9.3000e-02	1.8586	-9.476176	0.000286	2.864335	0.485232	0.005730
 188	9.3500e-02	1.8681	-9.435552	0.000406	4.061371	0.688015	0.008125
 189	9.4000e-02	1.8751	-9.386375	0.000492	4.916397	0.832860	0.009835
 190	9.4500e-02	1.8875	-9.343612	0.000428	4.275127	0.724226	0.008553
 191	9.5000e-02	1.8985	-9.323086	0.000205	2.052061	0.347629	0.004105
 192	9.5500e-02	1.9056	-9.270488	0.000526	5.258407	0.890798	0.010520
 193	9.6000e-02	1.9138	-9.230719	0.000398	3.975869	0.673530	0.007954
 194	9.6500e-02	1.9273	-9.187101	0.000436	4.360630	0.738711	0.008724
 195	9.7000e-02	1.9355	-9.152036	0.000351	3.505605	0.593865	0.007013
 196	9.7500e-02	1.9470	-9.104142	0.000479	4.788143	0.811133	0.009579
 197	9.8000e-02	1.9586	-9.055393	0.000487	4.873645	0.825618	0.009750
 198	9.8500e-02	1.9667	-9.022038	0.000333	3.334599	0.564896	0.006671
 199	9.9000e-02	1.9760	-8.969868	0.000522	5.215656	0.883556	0.010434
 200	9.9500e-02	1.9879	-8.961743	0.000081	0.812274	0.137603	0.001625
 201	1.0000e-01	1.9955	-8.898027	0.000637	6.369940	1.079097	0.012743
 202	1.0050e-01	2.0087	-8.844574	0.000534	5.343909	0.905283	0.010691
 203	1.0100e-01	2.0187	-8.800956	0.000436	4.360630	0.738711	0.008724
 204	1.0150e-01	2.0248	-8.772733	0.000282	2.821584	0.477989	0.005645
 205	1.0200e-01	2.0361	-8.727404	0.000453	4.531635	0.767680	0.009066
 206	1.0250e-01	2.0481	-8.681221	0.000462	4.617138	0.782164	0.009237
 207	1.0300e-01	2.0590	-8.660695	0.000205	2.052061	0.347629	0.004105
 208	1.0350e-01	2.0650	-8.592702	0.000680	6.797453	1.151520	0.013598
 209	1.0400e-01	2.0783	-8.551223	0.000415	4.146874	0.702499	0.008296
 210	1.0450e-01	2.0893	-8.515302	0.000359	3.591107	0.608350	0.007184
 211	1.0500e-01	2.0969	-8.490072	0.000252	2.522325	0.427293	0.005046
 212	1.0550e-01	2.1051	-8.442178	0.000479	4.788143	0.811133	0.009579
 213	1.0600e-01	2.1201	-8.407541	0.000346	3.462853	0.586623	0.006928
 214	1.0650e-01	2.1275	-8.350239	0.000573	5.728671	0.970463	0.011460
 215	1.0700e-01	2.1362	-8.322443	0.000278	2.778833	0.470747	0.005559
 216	1.0750e-01	2.1448	-8.267279	0.000551	5.514914	0.934252	0.011033
 217	1.0800e-01	2.1571	-8.252313	0.000150	1.496295	0.253479	0.002993
 218	1.0850e-01	2.1684	-8.210833	0.000415	4.146874	0.702499	0.008296
 219	1.0900e-01	2.1768	-8.128301	0.000825	8.250996	1.397757	0.016506
 220	1.0950e-01	2.1852	-8.107348	0.000209	2.094812	0.354871	0.004191
 221	1.1000e-01	2.1967	-8.070572	0.000368	3.676610	0.622835	0.007355
 222	1.1050e-01	2.2073	-8.039355	0.000312	3.120843	0.528685	0.006243
 223	1.1100e-01	2.2183	-7.989323	0.000500	5.001899	0.847345	0.010006
 224	1.1150e-01	2.2298	-7.943139	0.000462	4.617138	0.782164	0.009237
 225	1.1200e-01	2.2380	-7.899522	0.000436	4.360630	0.738711	0.008724
 226	1.1250e-01	2.2484	-7.861035	0.000385	3.847615	0.651804	0.007697
 227	1.1300e-01	2.2607	-7.829391	0.000316	3.163594	0.535927	0.006329
 228	1.1350e-01	2.2661	-7.783635	0.000457	4.574386	0.774922	0.009151
 229	1.1400e-01	2.2778	-7.741728	0.000419	4.189625	0.709742	0.008381
 230	1.1450e-01	2.2879	-7.728044	0.000137	1.368041	0.231752	0.002737
 231	1.1500e-01	2.2966	-7.650644	0.000774	7.737981	1.310849	0.015480
 232	1.1550e-01	2.3065	-7.640808	0.000098	0.983279	0.166572	0.001967
 233	1.1600e-01	2.3178	-7.588210	0.000526	5.258407	0.890798	0.010520
 234	1.1650e-01	2.3289	-7.525777	0.000624	6.241686	1.057370	0.012487
 235	1.1700e-01	2.3346	-7.504396	0.000214	2.137564	0.362113	0.004276
 236	1.1750e-01	2.3456	-7.454791	0.000496	4.959148	0.840102	0.009921
 237	1.1800e-01	2.3572	-7.416733	0.000380	3.804863	0.644561	0.007612
 238	1.1850e-01	2.3666	-7.356010	0.000607	6.070681	1.028401	0.012145
 239	1.1900e-01	2.3770	-7.343181	0.000128	1.282538	0.217268	0.002566
 240	1.1950e-01	2.3877	-7.266209	0.000770	7.695229	1.303607	0.015395
 241	1.2000e-01	2.3962	-7.231999	0.000342	3.420102	0.579381	0.006842
 242	1.2050e-01	2.4076	-7.202920	0.000291	2.907087	0.492474	0.005816
 243	1.2100e-01	2.4185	-7.181111	0.000218	2.180315	0.369355	0.004362
 244	1.2150e-01	2.4264	-7.124665	0.000564	5.643168	0.955979	0.011289
 245	1.2200e-01	2.4368	-7.095586	0.000291	2.907087	0.492474	0.005816
 246	1.2250e-01	2.4455	-7.039567	0.000560	5.600417	0.948736	0.011204
 247	1.2300e-01	2.4551	-7.004930	0.000346	3.462853	0.586623	0.006928
 248	1.2350e-01	2.4683	-6.977562	0.000274	2.736082	0.463505	0.005474
 249	1.2400e-01	2.4777	-6.924536	0.000530	5.301158	0.898040	0.010605
 250	1.2450e-01	2.4892	-6.880491	0.000440	4.403381	0.745953	0.008809
 251	1.2500e-01	2.4940	-6.843287	0.000372	3.719361	0.630077	0.007441
 252	1.2550e-01	2.5079	-6.799669	0.000436	4.360630	0.738711	0.008724
 253	1.2600e-01	2.5183	-6.755196	0.000445	4.446133	0.753195	0.008895
 254	1.2650e-01	2.5294	-6.722697	0.000325	3.249097	0.550412	0.006500
 255	1.2700e-01	2.5361	-6.687204	0.000355	3.548356	0.601108	0.007099
 256	1.2750e-01	2.5477	-6.636744	0.000504	5.044650	0.854587	0.010092
 257	1.2800e-01	2.5586	-6.597403	0.000393	3.933117	0.666288	0.007868
 258	1.2850e-01	2.5659	-6.563193	0.000342	3.420102	0.579381	0.006842
 259	1.2900e-01	2.5795	-6.522996	0.000402	4.018620	0.680773	0.008039
 260	1.2950e-01	2.5858	-6.483227	0.000398	3.975869	0.673530	0.007954
 261	1.3000e-01	2.5984	-6.439181	0.000440	4.403381	0.745953	0.008809
 262	1.3050e-01	2.6072	-6.416945	0.000222	2.223066	0.376598	0.004447
 263	1.3100e-01	2.6170	-6.379314	0.000376	3.762112	0.637319	0.007526
 264	1.3150e-01	2.6297	-6.334413	0.000449	4.488884	0.760438	0.008980
 265	1.3200e-01	2.6369	-6.289940	0.000445	4.446133	0.753195	0.008895
 266	1.3250e-01	2.6462	-6.244184	0.000457	4.574386	0.774922	0.009151
 267	1.3300e-01	2.6569	-6.188593	0.000556	5.557666	0.941494	0.011118
 268	1.3350e-01	2.6659	-6.165074	0.000235	2.351320	0.398324	0.004704
 269	1.3400e-01	2.6778	-6.120173	0.000449	4.488884	0.760438	0.008980
 270	1.3450e-01	2.6888	-6.079121	0.000410	4.104122	0.695257	0.008210
 271	1.3500e-01	2.6960	-6.045339	0.000338	3.377351	0.572139	0.006756
 272	1.3550e-01	2.7068	-5.996589	0.000487	4.873645	0.825618	0.009750
 273	1.3600e-01	2.7162	-5.959813	0.000368	3.676610	0.622835	0.007355
 274	1.3650e-01	2.7269	-5.922610	0.000372	3.719361	0.630077	0.007441
 275	1.3700e-01	2.7368	-5.890966	0.000316	3.163594	0.535927	0.006329
 276	1.3750e-01	2.7458	-5.845210	0.000457	4.574386	0.774922	0.009151
 277	1.3800e-01	2.7576	-5.804158	0.000410	4.104122	0.695257	0.008210
 278	1.3850e-01	2.7672	-5.755409	0.000487	4.873645	0.825618	0.009750
 279	1.3900e-01	2.7745	-5.716922	0.000385	3.847615	0.651804	0.007697
 280	1.3950e-01	2.7833	-5.679719	0.000372	3.719361	0.630077	0.007441
 281	1.4000e-01	2.7992	-5.630542	0.000492	4.916397	0.832860	0.009835
 282	1.4050e-01	2.8076	-5.589490	0.000410	4.104122	0.695257	0.008210
 283	1.4100e-01	2.8162	-5.550576	0.000389	3.890366	0.659046	0.007783
 284	1.4150e-01	2.8254	-5.528767	0.000218	2.180315	0.369355	0.004362
 285	1.4200e-01	2.8389	-5.488570	0.000402	4.018620	0.680773	0.008039
 286	1.4250e-01	2.8467	-5.433834	0.000547	5.472163	0.927010	0.010947
 287	1.4300e-01	2.8579	-5.395776	0.000380	3.804863	0.644561	0.007612
 288	1.4350e-01	2.8644	-5.351303	0.000445	4.446133	0.753195	0.008895
 289	1.4400e-01	2.8784	-5.335908	0.000154	1.539046	0.260721	0.003079
 290	1.4450e-01	2.8883	-5.282027	0.000539	5.386661	0.912525	0.010776
 291	1.4500e-01	2.8976	-5.235844	0.000462	4.617138	0.782164	0.009237
 292	1.4550e-01	2.9102	-5.203344	0.000325	3.249097	0.550412	0.006500
 293	1.4600e-01	2.9150	-5.163575	0.000398	3.975869	0.673530	0.007954
 294	1.4650e-01	2.9279	-5.142194	0.000214	2.137564	0.362113	0.004276
 295	1.4700e-01	2.9343	-5.081471	0.000607	6.070681	1.028401	0.012145
 296	1.4750e-01	2.9468	-5.048972	0.000325	3.249097	0.550412	0.006500
 297	1.4800e-01	2.9561	-5.007920	0.000410	4.104122	0.695257	0.008210
 298	1.4850e-01	2.9668	-4.960881	0.000470	4.702640	0.796649	0.009408
 299	1.4900e-01	2.9761	-4.929237	0.000316	3.163594	0.535927	0.006329
 300	1.4950e-01	2.9852	-4.905290	0.000239	2.394071	0.405567	0.004789
 301	1.5000e-01	2.9980	-4.845422	0.000599	5.985178	1.013917	0.011974
 302	1.5050e-01	3.0083	-4.822758	0.000227	2.265818	0.383840	0.004533
 303	1.5100e-01	3.0180	-4.765456	0.000573	5.728671	0.970463	0.011460
 304	1.5150e-01	3.0292	-4.723121	0.000423	4.232376	0.716984	0.008467
 305	1.5200e-01	3.0363	-4.676082	0.000470	4.702640	0.796649	0.009408
 306	1.5250e-01	3.0453	-4.654273	0.000218	2.180315	0.369355	0.004362
 307	1.5300e-01	3.0577	-4.597399	0.000569	5.685920	0.963221	0.011375
 308	1.5350e-01	3.0676	-4.565755	0.000316	3.163594	0.535927	0.006329
 309	1.5400e-01	3.0804	-4.529407	0.000363	3.633858	0.615592	0.007270
 310	1.5450e-01	3.0842	-4.482796	0.000466	4.659889	0.789407	0.009322
 311	1.5500e-01	3.0988	-4.452434	0.000304	3.035341	0.514201	0.006072
 312	1.5550e-01	3.1079	-4.415231	0.000372	3.719361	0.630077	0.007441
 313	1.5600e-01	3.1165	-4.390001	0.000252	2.522325	0.427293	0.005046
 314	1.5650e-01	3.1262	-4.328423	0.000616	6.156184	1.042886	0.012316
 315	1.5700e-01	3.1378	-4.304904	0.000235	2.351320	0.398324	0.004704
 316	1.5750e-01	3.1473	-4.252733	0.000522	5.215656	0.883556	0.010434
 317	1.5800e-01	3.1598	-4.221517	0.000312	3.120843	0.528685	0.006243
 318	1.5850e-01	3.1677	-4.193721	0.000278	2.778833	0.470747	0.005559
 319	1.5900e-01	3.1767	-4.148393	0.000453	4.531635	0.767680	0.009066
 320	1.5950e-01	3.1888	-4.097505	0.000509	5.087402	0.861829	0.010177
 321	1.6000e-01	3.1975	-4.076124	0.000214	2.137564	0.362113	0.004276
 322	1.6050e-01	3.2060	-4.027802	0.000483	4.830894	0.818376	0.009664
 323	1.6100e-01	3.2166	-3.989316	0.000385	3.847615	0.651804	0.007697
 324	1.6150e-01	3.2278	-3.950830	0.000385	3.847615	0.651804	0.007697
 325	1.6200e-01	3.2365	-3.906357	0.000445	4.446133	0.753195	0.008895
 326	1.6250e-01	3.2495	-3.865305	0.000410	4.104122	0.695257	0.008210
 327	1.6300e-01	3.2597	-3.840503	0.000248	2.479574	0.420051	0.004960
 328	1.6350e-01	3.2668	-3.810569	0.000299	2.992589	0.506958	0.005987
 329	1.6400e-01	3.2782	-3.757543	0.000530	5.301158	0.898040	0.010605
 330	1.6450e-01	3.2911	-3.724616	0.000329	3.291848	0.557654	0.006585
 331	1.6500e-01	3.2976	-3.675867	0.000487	4.873645	0.825618	0.009750
 332	1.6550e-01	3.3063	-3.631394	0.000445	4.446133	0.753195	0.008895
 333	1.6600e-01	3.3173	-3.591197	0.000402	4.018620	0.680773	0.008039
 334	1.6650e-01	3.3270	-3.559125	0.000321	3.206346	0.543170	0.006414
 335	1.6700e-01	3.3395	-3.532185	0.000269	2.693330	0.456263	0.005388
 336	1.6750e-01	3.3464	-3.493698	0.000385	3.847615	0.651804	0.007697
 337	1.6800e-01	3.3554	-3.452219	0.000415	4.146874	0.702499	0.008296
 338	1.6850e-01	3.3670	-3.414160	0.000380	3.804863	0.644561	0.007612
 339	1.6900e-01	3.3792	-3.373108	0.000410	4.104122	0.695257	0.008210
 340	1.6950e-01	3.3899	-3.340181	0.000329	3.291848	0.557654	0.006585
 341	1.7000e-01	3.3966	-3.298701	0.000415	4.146874	0.702499	0.008296
 342	1.7050e-01	3.4067	-3.256366	0.000423	4.232376	0.716984	0.008467
 343	1.7100e-01	3.4183	-3.231992	0.000244	2.436823	0.412809	0.004875
 344	1.7150e-01	3.4271	-3.184098	0.000479	4.788143	0.811133	0.009579
 345	1.7200e-01	3.4375	-3.169131	0.000150	1.496295	0.253479	0.002993
 346	1.7250e-01	3.4445	-3.113112	0.000560	5.600417	0.948736	0.011204
 347	1.7300e-01	3.4564	-3.067784	0.000453	4.531635	0.767680	0.009066
 348	1.7350e-01	3.4698	-3.028442	0.000393	3.933117	0.666288	0.007868
 349	1.7400e-01	3.4784	-2.992522	0.000359	3.591107	0.608350	0.007184
 350	1.7450e-01	3.4863	-2.948904	0.000436	4.360630	0.738711	0.008724
 351	1.7500e-01	3.4975	-2.929661	0.000192	1.923807	0.325902	0.003849
 352	1.7550e-01	3.5083	-2.868938	0.000607	6.070681	1.028401	0.012145
 353	1.7600e-01	3.5181	-2.845419	0.000235	2.351320	0.398324	0.004704
 354	1.7650e-01	3.5261	-2.809498	0.000359	3.591107	0.608350	0.007184
 355	1.7700e-01	3.5335	-2.775288	0.000342	3.420102	0.579381	0.006842
 356	1.7750e-01	3.5460	-2.736802	0.000385	3.847615	0.651804	0.007697
 357	1.7800e-01	3.5571	-2.679072	0.000577	5.771422	0.977705	0.011546
 358	1.7850e-01	3.5657	-2.636737	0.000423	4.232376	0.716984	0.008467
 359	1.7900e-01	3.5780	-2.611508	0.000252	2.522325	0.427293	0.005046
 360	1.7950e-01	3.5872	-2.567462	0.000440	4.403381	0.745953	0.008809
 361	1.8000e-01	3.5944	-2.524272	0.000432	4.317879	0.731468	0.008638
 362	1.8050e-01	3.6060	-2.503746	0.000205	2.052061	0.347629	0.004105
 363	1.8100e-01	3.6200	-2.446017	0.000577	5.771422	0.977705	0.011546
 364	1.8150e-01	3.6261	-2.422925	0.000231	2.308569	0.391082	0.004618
 365	1.8200e-01	3.6389	-2.384866	0.000380	3.804863	0.644561	0.007612
 366	1.8250e-01	3.6507	-2.345097	0.000398	3.975869	0.673530	0.007954
 367	1.8300e-01	3.6568	-2.312170	0.000329	3.291848	0.557654	0.006585
 368	1.8350e-01	3.6693	-2.271545	0.000406	4.061371	0.688015	0.008125
 369	1.8400e-01	3.6786	-2.219375	0.000522	5.215656	0.883556	0.010434
 370	1.8450e-01	3.6859	-2.192007	0.000274	2.736082	0.463505	0.005474
 371	1.8500e-01	3.6975	-2.151810	0.000402	4.018620	0.680773	0.008039
 372	1.8550e-01	3.7067	-2.122304	0.000295	2.949838	0.499716	0.005901
 373	1.8600e-01	3.7160	-2.075693	0.000466	4.659889	0.789407	0.009322
 374	1.8650e-01	3.7262	-2.044904	0.000308	3.078092	0.521443	0.006158
 375	1.8700e-01	3.7375	-1.994444	0.000504	5.044650	0.854587	0.010092
 376	1.8750e-01	3.7469	-1.946550	0.000479	4.788143	0.811133	0.009579
 377	1.8800e-01	3.7572	-1.936287	0.000103	1.026031	0.173814	0.002053
 378	1.8850e-01	3.7646	-1.880268	0.000560	5.600417	0.948736	0.011204
 379	1.8900e-01	3.7762	-1.859742	0.000205	2.052061	0.347629	0.004105
 380	1.8950e-01	3.7885	-1.826388	0.000333	3.334599	0.564896	0.006671
 381	1.9000e-01	3.7988	-1.796454	0.000299	2.992589	0.506958	0.005987
 382	1.9050e-01	3.8049	-1.737441	0.000590	5.899676	0.999432	0.011802
 383	1.9100e-01	3.8147	-1.719054	0.000184	1.838305	0.311417	0.003678
 384	1.9150e-01	3.8229	-1.674581	0.000445	4.446133	0.753195	0.008895
 385	1.9200e-01	3.8374	-1.644647	0.000299	2.992589	0.506958	0.005987
 386	1.9250e-01	3.8470	-1.593332	0.000513	5.130153	0.869071	0.010263
 387	1.9300e-01	3.8562	-1.568102	0.000252	2.522325	0.427293	0.005046
 388	1.9350e-01	3.8660	-1.527477	0.000406	4.061371	0.688015	0.008125
 389	1.9400e-01	3.8770	-1.477873	0.000496	4.959148	0.840102	0.009921
 390	1.9450e-01	3.8879	-1.451788	0.000261	2.607828	0.441778	0.005217
 391	1.9500e-01	3.8969	-1.401756	0.000500	5.001899	0.847345	0.010006
 392	1.9550e-01	3.9070	-1.375243	0.000265	2.650579	0.449020	0.005303
 393	1.9600e-01	3.9175	-1.343599	0.000316	3.163594	0.535927	0.006329
 394	1.9650e-01	3.9276	-1.306823	0.000368	3.676610	0.622835	0.007355
 395	1.9700e-01	3.9363	-1.267909	0.000389	3.890366	0.659046	0.007783
 396	1.9750e-01	3.9456	-1.246955	0.000209	2.094812	0.354871	0.004191
 397	1.9800e-01	3.9572	-1.195640	0.000513	5.130153	0.869071	0.010263
 398	1.9850e-01	3.9680	-1.165706	0.000299	2.992589	0.506958	0.005987
 399	1.9900e-01	3.9743	-1.100280	0.000654	6.540945	1.108066	0.013085
 400	1.9950e-01	3.9856	-1.071629	0.000286	2.864335	0.485232	0.005730
 401	2.0000e-01	3.9960	-1.045971	0.000257	2.565076	0.434536	0.005132
 402	2.0050e-01	4.0110	-1.005347	0.000406	4.061371	0.688015	0.008125
 403	2.0100e-01	4.0186	-0.957025	0.000483	4.830894	0.818376	0.009664
 404	2.0150e-01	4.0283	-0.925809	0.000312	3.120843	0.528685	0.006243
 405	2.0200e-01	4.0387	-0.880053	0.000457	4.574386	0.774922	0.009151
 406	2.0250e-01	4.0479	-0.847981	0.000321	3.206346	0.543170	0.006414
 407	2.0300e-01	4.0565	-0.809067	0.000389	3.890366	0.659046	0.007783
 408	2.0350e-01	4.0680	-0.791962	0.000171	1.710051	0.289690	0.003421
 409	2.0400e-01	4.0778	-0.737654	0.000543	5.429412	0.919767	0.010862
 410	2.0450e-01	4.0887	-0.711996	0.000257	2.565076	0.434536	0.005132
 411	2.0500e-01	4.0961	-0.672655	0.000393	3.933117	0.666288	0.007868
 412	2.0550e-01	4.1052	-0.648280	0.000244	2.436823	0.412809	0.004875
 413	2.0600e-01	4.1177	-0.608083	0.000402	4.018620	0.680773	0.008039
 414	2.0650e-01	4.1284	-0.557196	0.000509	5.087402	0.861829	0.010177
 415	2.0700e-01	4.1357	-0.500749	0.000564	5.643168	0.955979	0.011289
 416	2.0750e-01	4.1461	-0.502460	-0.000017	-0.171005	-0.028969	-0.000342
 417	2.0800e-01	4.1580	-0.436605	0.000658	6.583696	1.115308	0.013171
 418	2.0850e-01	4.1684	-0.404106	0.000325	3.249097	0.550412	0.006500
 419	2.0900e-01	4.1783	-0.376738	0.000274	2.736082	0.463505	0.005474
 420	2.0950e-01	4.1888	-0.352363	0.000244	2.436823	0.412809	0.004875
 421	2.1000e-01	4.1980	-0.311739	0.000406	4.061371	0.688015	0.008125
 422	2.1050e-01	4.2091	-0.270259	0.000415	4.146874	0.702499	0.008296
 423	2.1100e-01	4.2194	-0.230062	0.000402	4.018620	0.680773	0.008039
 424	2.1150e-01	4.2273	-0.179603	0.000504	5.044650	0.854587	0.010092
 425	2.1200e-01	4.2368	-0.147531	0.000321	3.206346	0.543170	0.006414
 426	2.1250e-01	4.2493	-0.143254	0.000043	0.427513	0.072423	0.000855
 427	2.1300e-01	4.2575	-0.092795	0.000504	5.044650	0.854587	0.010092
 428	2.1350e-01	4.2691	-0.042335	0.000504	5.044650	0.854587	0.010092
 429	2.1400e-01	4.2773	-0.017533	0.000248	2.479574	0.420051	0.004960
 430	2.1450e-01	4.2865	0.031217	0.000487	4.873645	0.825618	0.009750
 431	2.1500e-01	4.2953	0.056447	0.000252	2.522325	0.427293	0.005046
 432	2.1550e-01	4.3091	0.094078	0.000376	3.762112	0.637319	0.007526
 433	2.1600e-01	4.3152	0.124867	0.000308	3.078092	0.521443	0.006158
 434	2.1650e-01	4.3288	0.158649	0.000338	3.377351	0.572139	0.006756
 435	2.1700e-01	4.3414	0.193714	0.000351	3.505605	0.593865	0.007013
 436	2.1750e-01	4.3484	0.254865	0.000611	6.113432	1.035643	0.012230
 437	2.1800e-01	4.3561	0.269404	0.000145	1.453543	0.246237	0.002908
 438	2.1850e-01	4.3649	0.283088	0.000137	1.368041	0.231752	0.002737
 439	2.1900e-01	4.3750	0.347659	0.000646	6.455442	1.093582	0.012914
 440	2.1950e-01	4.3903	0.372462	0.000248	2.479574	0.420051	0.004960
 441	2.2000e-01	4.3977	0.429336	0.000569	5.685920	0.963221	0.011375
 442	2.2050e-01	4.4104	0.439599	0.000103	1.026031	0.173814	0.002053
 443	2.2100e-01	4.4174	0.483644	0.000440	4.403381	0.745953	0.008809
 444	2.2150e-01	4.4269	0.529400	0.000457	4.574386	0.774922	0.009151
 445	2.2200e-01	4.4385	0.557196	0.000278	2.778833	0.470747	0.005559
 446	2.2250e-01	4.4489	0.596965	0.000398	3.975869	0.673530	0.007954
 447	2.2300e-01	4.4574	0.635024	0.000380	3.804863	0.644561	0.007612
 448	2.2350e-01	4.4669	0.658543	0.000235	2.351320	0.398324	0.004704
 449	2.2400e-01	4.4785	0.704299	0.000457	4.574386	0.774922	0.009151
 450	2.2450e-01	4.4879	0.739364	0.000351	3.505605	0.593865	0.007013
 451	2.2500e-01	4.4965	0.782127	0.000428	4.275127	0.724226	0.008553
 452	2.2550e-01	4.5056	0.802653	0.000205	2.052061	0.347629	0.004105
 453	2.2600e-01	4.5181	0.841139	0.000385	3.847615	0.651804	0.007697
 454	2.2650e-01	4.5255	0.879198	0.000380	3.804863	0.644561	0.007612
 455	2.2700e-01	4.5380	0.911269	0.000321	3.206346	0.543170	0.006414
 456	2.2750e-01	4.5496	0.956598	0.000453	4.531635	0.767680	0.009066
 457	2.2800e-01	4.5599	0.980117	0.000235	2.351320	0.398324	0.004704
 458	2.2850e-01	4.5694	1.029722	0.000496	4.959148	0.840102	0.009921
 459	2.2900e-01	4.5789	1.060938	0.000312	3.120843	0.528685	0.006243
 460	2.2950e-01	4.5869	1.098997	0.000380	3.804863	0.644561	0.007612
 461	2.3000e-01	4.5972	1.152878	0.000539	5.386661	0.912525	0.010776
 462	2.3050e-01	4.6106	1.166134	0.000133	1.325290	0.224510	0.002651
 463	2.3100e-01	4.6167	1.219587	0.000534	5.343909	0.905283	0.010691
 464	2.3150e-01	4.6306	1.235409	0.000158	1.581797	0.267964	0.003164
 465	2.3200e-01	4.6381	1.253370	0.000180	1.795554	0.304175	0.003592
 466	2.3250e-01	4.6454	1.302974	0.000496	4.959148	0.840102	0.009921
 467	2.3300e-01	4.6564	1.334191	0.000312	3.120843	0.528685	0.006243
 468	2.3350e-01	4.6686	1.376098	0.000419	4.189625	0.709742	0.008381
 469	2.3400e-01	4.6783	1.421426	0.000453	4.531635	0.767680	0.009066
 470	2.3450e-01	4.6899	1.462051	0.000406	4.061371	0.688015	0.008125
 471	2.3500e-01	4.6960	1.481294	0.000192	1.923807	0.325902	0.003849
 472	2.3550e-01	4.7079	1.518070	0.000368	3.676610	0.622835	0.007355
 473	2.3600e-01	4.7183	1.559549	0.000415	4.146874	0.702499	0.008296
 474	2.3650e-01	4.7290	1.595470	0.000359	3.591107	0.608350	0.007184
 475	2.3700e-01	4.7377	1.632246	0.000368	3.676610	0.622835	0.007355
 476	2.3750e-01	4.7464	1.657476	0.000252	2.522325	0.427293	0.005046
 477	2.3800e-01	4.7560	1.689547	0.000321	3.206346	0.543170	0.006414
 478	2.3850e-01	4.7650	1.730172	0.000406	4.061371	0.688015	0.008125
 479	2.3900e-01	4.7778	1.756685	0.000265	2.650579	0.449020	0.005303
 480	2.3950e-01	4.7882	1.825532	0.000688	6.882955	1.166004	0.013770
 481	2.4000e-01	4.7980	1.838361	0.000128	1.282538	0.217268	0.002566
 482	2.4050e-01	4.8065	1.871716	0.000333	3.334599	0.564896	0.006671
 483	2.4100e-01	4.8184	1.908492	0.000368	3.676610	0.622835	0.007355
 484	2.4150e-01	4.8276	1.943557	0.000351	3.505605	0.593865	0.007013
 485	2.4200e-01	4.8372	1.965366	0.000218	2.180315	0.369355	0.004362
 486	2.4250e-01	4.8502	2.011122	0.000457	4.574386	0.774922	0.009151
 487	2.4300e-01	4.8606	2.059871	0.000487	4.873645	0.825618	0.009750
 488	2.4350e-01	4.8663	2.081252	0.000214	2.137564	0.362113	0.004276
 489	2.4400e-01	4.8767	2.103916	0.000227	2.265818	0.383840	0.004533
 490	2.4450e-01	4.8862	2.143258	0.000393	3.933117	0.666288	0.007868
 491	2.4500e-01	4.8969	2.173192	0.000299	2.992589	0.506958	0.005987
 492	2.4550e-01	4.9084	2.227928	0.000547	5.472163	0.927010	0.010947
 493	2.4600e-01	4.9173	2.250592	0.000227	2.265818	0.383840	0.004533
 494	2.4650e-01	4.9274	2.310459	0.000599	5.985178	1.013917	0.011974
 495	2.4700e-01	4.9353	2.336545	0.000261	2.607828	0.441778	0.005217
 496	2.4750e-01	4.9483	2.353650	0.000171	1.710051	0.289690	0.003421
 497	2.4800e-01	4.9574	2.398978	0.000453	4.531635	0.767680	0.009066
 498	2.4850e-01	4.9661	2.419931	0.000209	2.094812	0.354871	0.004191
 499	2.4900e-01	4.9788	2.452859	0.000329	3.291848	0.557654	0.006585
 500	2.4950e-01	4.9895	2.505884	0.000530	5.301158	0.898040	0.010605
 501	2.5000e-01	4.9988	2.545653	0.000398	3.975869	0.673530	0.007954
 502	2.5050e-01	5.0092	2.570883	0.000252	2.522325	0.427293	0.005046
 503	2.5100e-01	5.0190	2.593120	0.000222	2.223066	0.376598	0.004447
 504	2.5150e-01	5.0281	2.633744	0.000406	4.061371	0.688015	0.008125
 505	2.5200e-01	5.0345	2.688052	0.000543	5.429412	0.919767	0.010862
 506	2.5250e-01	5.0507	2.683349	-0.000047	-0.470264	-0.079665	-0.000941
 507	2.5300e-01	5.0586	2.738512	0.000551	5.514914	0.934252	0.011033
 508	2.5350e-01	5.0677	2.764597	0.000261	2.607828	0.441778	0.005217
 509	2.5400e-01	5.0773	2.801801	0.000372	3.719361	0.630077	0.007441
 510	2.5450e-01	5.0873	2.829169	0.000274	2.736082	0.463505	0.005474
 511	2.5500e-01	5.0966	2.882194	0.000530	5.301158	0.898040	0.010605
 512	2.5550e-01	5.1068	2.907424	0.000252	2.522325	0.427293	0.005046
 513	2.5600e-01	5.1144	2.939069	0.000316	3.163594	0.535927	0.006329
 514	2.5650e-01	5.1288	2.993377	0.000543	5.429412	0.919767	0.010862
 515	2.5700e-01	5.1367	3.002785	0.000094	0.940528	0.159330	0.001882
 516	2.5750e-01	5.1477	3.034857	0.000321	3.206346	0.543170	0.006414
 517	2.5800e-01	5.1563	3.072915	0.000380	3.804863	0.644561	0.007612
 518	2.5850e-01	5.1662	3.116105	0.000432	4.317879	0.731468	0.008638
 519	2.5900e-01	5.1776	3.149033	0.000329	3.291848	0.557654	0.006585
 520	2.5950e-01	5.1862	3.199065	0.000500	5.001899	0.847345	0.010006
 521	2.6000e-01	5.1981	3.223012	0.000239	2.394071	0.405567	0.004789
 522	2.6050e-01	5.2100	3.273044	0.000500	5.001899	0.847345	0.010006
 523	2.6100e-01	5.2161	3.296563	0.000235	2.351320	0.398324	0.004704
 524	2.6150e-01	5.2253	3.328208	0.000316	3.163594	0.535927	0.006329
 525	2.6200e-01	5.2383	3.356858	0.000286	2.864335	0.485232	0.005730
 526	2.6250e-01	5.2466	3.399621	0.000428	4.275127	0.724226	0.008553
 527	2.6300e-01	5.2571	3.415015	0.000154	1.539046	0.260721	0.003079
 528	2.6350e-01	5.2664	3.448370	0.000333	3.334599	0.564896	0.006671
 529	2.6400e-01	5.2760	3.486856	0.000385	3.847615	0.651804	0.007697
 530	2.6450e-01	5.2887	3.530902	0.000440	4.403381	0.745953	0.008809
 531	2.6500e-01	5.2991	3.566822	0.000359	3.591107	0.608350	0.007184
 532	2.6550e-01	5.3107	3.592052	0.000252	2.522325	0.427293	0.005046
 533	2.6600e-01	5.3186	3.621558	0.000295	2.949838	0.499716	0.005901
 534	2.6650e-01	5.3281	3.664749	0.000432	4.317879	0.731468	0.008638
 535	2.6700e-01	5.3377	3.696393	0.000316	3.163594	0.535927	0.006329
 536	2.6750e-01	5.3494	3.732741	0.000363	3.633858	0.615592	0.007270
 537	2.6800e-01	5.3590	3.760109	0.000274	2.736082	0.463505	0.005474
 538	2.6850e-01	5.3665	3.816556	0.000564	5.643168	0.955979	0.011289
 539	2.6900e-01	5.3754	3.820404	0.000038	0.384761	0.065180	0.000770
 540	2.6950e-01	5.3864	3.869153	0.000487	4.873645	0.825618	0.009750
 541	2.7000e-01	5.3970	3.889252	0.000201	2.009310	0.340386	0.004020
 542	2.7050e-01	5.4077	3.926028	0.000368	3.676610	0.622835	0.007355
 543	2.7100e-01	5.4163	3.978198	0.000522	5.215656	0.883556	0.010434
 544	2.7150e-01	5.4257	3.997441	0.000192	1.923807	0.325902	0.003849
 545	2.7200e-01	5.4370	4.031651	0.000342	3.420102	0.579381	0.006842
 546	2.7250e-01	5.4477	4.059447	0.000278	2.778833	0.470747	0.005559
 547	2.7300e-01	5.4562	4.106486	0.000470	4.702640	0.796649	0.009408
 548	2.7350e-01	5.4645	4.133426	0.000269	2.693330	0.456263	0.005388
 549	2.7400e-01	5.4807	4.174478	0.000410	4.104122	0.695257	0.008210
 550	2.7450e-01	5.4895	4.205267	0.000308	3.078092	0.521443	0.006158
 551	2.7500e-01	5.4970	4.226221	0.000209	2.094812	0.354871	0.004191
 552	2.7550e-01	5.5090	4.266845	0.000406	4.061371	0.688015	0.008125
 553	2.7600e-01	5.5164	4.294213	0.000274	2.736082	0.463505	0.005474
 554	2.7650e-01	5.5267	4.330134	0.000359	3.591107	0.608350	0.007184
 555	2.7700e-01	5.5371	4.367765	0.000376	3.762112	0.637319	0.007526
 556	2.7750e-01	5.5463	4.410099	0.000423	4.232376	0.716984	0.008467
 557	2.7800e-01	5.5560	4.431481	0.000214	2.137564	0.362113	0.004276
 558	2.7850e-01	5.5672	4.457138	0.000257	2.565076	0.434536	0.005132
 559	2.7900e-01	5.5780	4.505032	0.000479	4.788143	0.811133	0.009579
 560	2.7950e-01	5.5872	4.537959	0.000329	3.291848	0.557654	0.006585
 561	2.8000e-01	5.5963	4.577729	0.000398	3.975869	0.673530	0.007954
 562	2.8050e-01	5.6085	4.614932	0.000372	3.719361	0.630077	0.007441
 563	2.8100e-01	5.6161	4.667102	0.000522	5.215656	0.883556	0.010434
 564	2.8150e-01	5.6274	4.668813	0.000017	0.171005	0.028969	0.000342
 565	2.8200e-01	5.6372	4.722694	0.000539	5.386661	0.912525	0.010776
 566	2.8250e-01	5.6494	4.730818	0.000081	0.812274	0.137603	0.001625
 567	2.8300e-01	5.6558	4.757331	0.000265	2.650579	0.449020	0.005303
 568	2.8350e-01	5.6668	4.795390	0.000380	3.804863	0.644561	0.007612
 569	2.8400e-01	5.6787	4.825324	0.000299	2.992589	0.506958	0.005987
 570	2.8450e-01	5.6866	4.867231	0.000419	4.189625	0.709742	0.008381
 571	2.8500e-01	5.6970	4.901013	0.000338	3.377351	0.572139	0.006756
 572	2.8550e-01	5.7071	4.931375	0.000304	3.035341	0.514201	0.006072
 573	2.8600e-01	5.7196	4.964729	0.000333	3.334599	0.564896	0.006671
 574	2.8650e-01	5.7281	4.992525	0.000278	2.778833	0.470747	0.005559
 575	2.8700e-01	5.7365	5.042130	0.000496	4.959148	0.840102	0.009921
 576	2.8750e-01	5.7446	5.110977	0.000688	6.882955	1.166004	0.013770
 577	2.8800e-01	5.7547	5.094300	-0.000167	-1.667300	-0.282448	-0.003335
 578	2.8850e-01	5.7660	5.138345	0.000440	4.403381	0.745953	0.008809
 579	2.8900e-01	5.7776	5.179825	0.000415	4.146874	0.702499	0.008296
 580	2.8950e-01	5.7861	5.211042	0.000312	3.120843	0.528685	0.006243
 581	2.9000e-01	5.7973	5.221732	0.000107	1.068782	0.181057	0.002138
 582	2.9050e-01	5.8057	5.252949	0.000312	3.120843	0.528685	0.006243
 583	2.9100e-01	5.8157	5.296139	0.000432	4.317879	0.731468	0.008638
 584	2.9150e-01	5.8286	5.345744	0.000496	4.959148	0.840102	0.009921
 585	2.9200e-01	5.8386	5.354724	0.000090	0.897777	0.152088	0.001796
 586	2.9250e-01	5.8481	5.395776	0.000410	4.104122	0.695257	0.008210
 587	2.9300e-01	5.8588	5.423571	0.000278	2.778833	0.470747	0.005559
 588	2.9350e-01	5.8655	5.447518	0.000239	2.394071	0.405567	0.004789
 589	2.9400e-01	5.8759	5.486005	0.000385	3.847615	0.651804	0.007697
 590	2.9450e-01	5.8862	5.506103	0.000201	2.009310	0.340386	0.004020
 591	2.9500e-01	5.8960	5.557418	0.000513	5.130153	0.869071	0.010263
 592	2.9550e-01	5.9064	5.589918	0.000325	3.249097	0.550412	0.006500
 593	2.9600e-01	5.9161	5.617286	0.000274	2.736082	0.463505	0.005474
 594	2.9650e-01	5.9256	5.651068	0.000338	3.377351	0.572139	0.006756
 595	2.9700e-01	5.9355	5.691265	0.000402	4.018620	0.680773	0.008039
 596	2.9750e-01	5.9454	5.740869	0.000496	4.959148	0.840102	0.009921
 597	2.9800e-01	5.9552	5.754981	0.000141	1.410792	0.238995	0.002822
 598	2.9850e-01	5.9647	5.785770	0.000308	3.078092	0.521443	0.006158
 599	2.9900e-01	5.9772	5.815704	0.000299	2.992589	0.506958	0.005987
 600	2.9950e-01	5.9865	5.856756	0.000410	4.104122	0.695257	0.008210
 601	3.0000e-01	5.9961	5.876427	0.000197	1.966559	0.333144	0.003934
 602	3.0050e-01	6.0056	5.926031	0.000496	4.959148	0.840102	0.009921
 603	3.0100e-01	6.0196	5.949550	0.000235	2.351320	0.398324	0.004704
 604	3.0150e-01	6.0297	5.996589	0.000470	4.702640	0.796649	0.009408
 605	3.0200e-01	6.0370	6.020109	0.000235	2.351320	0.398324	0.004704
 606	3.0250e-01	6.0461	6.058167	0.000380	3.804863	0.644561	0.007612
 607	3.0300e-01	6.0571	6.085108	0.000269	2.693330	0.456263	0.005388
 608	3.0350e-01	6.0687	6.093233	0.000081	0.812274	0.137603	0.001625
 609	3.0400e-01	6.0779	6.141127	0.000479	4.788143	0.811133	0.009579
 610	3.0450e-01	6.0886	6.180468	0.000393	3.933117	0.666288	0.007868
 611	3.0500e-01	6.0986	6.206553	0.000261	2.607828	0.441778	0.005217
 612	3.0550e-01	6.1075	6.240763	0.000342	3.420102	0.579381	0.006842
 613	3.0600e-01	6.1160	6.261717	0.000209	2.094812	0.354871	0.004191
 614	3.0650e-01	6.1273	6.311321	0.000496	4.959148	0.840102	0.009921
 615	3.0700e-01	6.1377	6.334841	0.000235	2.351320	0.398324	0.004704
 616	3.0750e-01	6.1488	6.360498	0.000257	2.565076	0.434536	0.005132
 617	3.0800e-01	6.1578	6.409248	0.000487	4.873645	0.825618	0.009750
 618	3.0850e-01	6.1676	6.417800	0.000086	0.855025	0.144845	0.001711
 619	3.0900e-01	6.1804	6.460135	0.000423	4.232376	0.716984	0.008467
 620	3.0950e-01	6.1874	6.507601	0.000475	4.745391	0.803891	0.009493
 621	3.1000e-01	6.1969	6.538818	0.000312	3.120843	0.528685	0.006243
 622	3.1050e-01	6.2080	6.560627	0.000218	2.180315	0.369355	0.004362
 623	3.1100e-01	6.2189	6.598258	0.000376	3.762112	0.637319	0.007526
 624	3.1150e-01	6.2274	6.632468	0.000342	3.420102	0.579381	0.006842
 625	3.1200e-01	6.2372	6.655987	0.000235	2.351320	0.398324	0.004704
 626	3.1250e-01	6.2466	6.700460	0.000445	4.446133	0.753195	0.008895
 627	3.1300e-01	6.2582	6.724835	0.000244	2.436823	0.412809	0.004875
 628	3.1350e-01	6.2677	6.759473	0.000346	3.462853	0.586623	0.006928
 629	3.1400e-01	6.2769	6.782564	0.000231	2.308569	0.391082	0.004618
 630	3.1450e-01	6.2856	6.814636	0.000321	3.206346	0.543170	0.006414
 631	3.1500e-01	6.2985	6.847564	0.000329	3.291848	0.557654	0.006585
 632	3.1550e-01	6.3062	6.870228	0.000227	2.265818	0.383840	0.004533
 633	3.1600e-01	6.3171	6.911280	0.000410	4.104122	0.695257	0.008210
 634	3.1650e-01	6.3263	6.946773	0.000355	3.548356	0.601108	0.007099
 635	3.1700e-01	6.3397	6.960884	0.000141	1.410792	0.238995	0.002822
 636	3.1750e-01	6.3489	7.024600	0.000637	6.369940	1.079097	0.012743
 637	3.1800e-01	6.3556	7.049403	0.000248	2.479574	0.420051	0.004960
 638	3.1850e-01	6.3687	7.052396	0.000030	0.299259	0.050696	0.000599
 639	3.1900e-01	6.3776	7.112691	0.000603	6.027930	1.021159	0.012059
 640	3.1950e-01	6.3882	7.142625	0.000299	2.992589	0.506958	0.005987
 641	3.2000e-01	6.4008	7.175980	0.000333	3.334599	0.564896	0.006671
 642	3.2050e-01	6.4078	7.206769	0.000308	3.078092	0.521443	0.006158
 643	3.2100e-01	6.4191	7.226440	0.000197	1.966559	0.333144	0.003934
 644	3.2150e-01	6.4276	7.254663	0.000282	2.821584	0.477989	0.005645
 645	3.2200e-01	6.4362	7.296998	0.000423	4.232376	0.716984	0.008467
 646	3.2250e-01	6.4481	7.311109	0.000141	1.410792	0.238995	0.002822
 647	3.2300e-01	6.4600	7.348313	0.000372	3.719361	0.630077	0.007441
 648	3.2350e-01	6.4673	7.377819	0.000295	2.949838	0.499716	0.005901
 649	3.2400e-01	6.4784	7.410746	0.000329	3.291848	0.557654	0.006585
 650	3.2450e-01	6.4862	7.445811	0.000351	3.505605	0.593865	0.007013
 651	3.2500e-01	6.4972	7.471896	0.000261	2.607828	0.441778	0.005217
 652	3.2550e-01	6.5100	7.503113	0.000312	3.120843	0.528685	0.006243
 653	3.2600e-01	6.5179	7.556566	0.000534	5.343909	0.905283	0.010691
 654	3.2650e-01	6.5265	7.568112	0.000115	1.154284	0.195541	0.002309
 655	3.2700e-01	6.5390	7.605743	0.000376	3.762112	0.637319	0.007526
 656	3.2750e-01	6.5475	7.648933	0.000432	4.317879	0.731468	0.008638
 657	3.2800e-01	6.5601	7.687420	0.000385	3.847615	0.651804	0.007697
 658	3.2850e-01	6.5668	7.701959	0.000145	1.453543	0.246237	0.002908
 659	3.2900e-01	6.5784	7.729327	0.000274	2.736082	0.463505	0.005474
 660	3.2950e-01	6.5894	7.763964	0.000346	3.462853	0.586623	0.006928
 661	3.3000e-01	6.5968	7.785346	0.000214	2.137564	0.362113	0.004276
 662	3.3050e-01	6.6058	7.842648	0.000573	5.728671	0.970463	0.011460
 663	3.3100e-01	6.6193	7.867450	0.000248	2.479574	0.420051	0.004960
 664	3.3150e-01	6.6278	7.892680	0.000252	2.522325	0.427293	0.005046
 665	3.3200e-01	6.6382	7.912350	0.000197	1.966559	0.333144	0.003934
 666	3.3250e-01	6.6501	7.950409	0.000380	3.804863	0.644561	0.007612
 667	3.3300e-01	6.6577	7.983764	0.000333	3.334599	0.564896	0.006671
 668	3.3350e-01	6.6669	8.017546	0.000338	3.377351	0.572139	0.006756
 669	3.3400e-01	6.6785	8.037645	0.000201	2.009310	0.340386	0.004020
 670	3.3450e-01	6.6882	8.041066	0.000034	0.342010	0.057938	0.000684
 671	3.3500e-01	6.6981	8.118038	0.000770	7.695229	1.303607	0.015395
 672	3.3550e-01	6.7059	8.151821	0.000338	3.377351	0.572139	0.006756
 673	3.3600e-01	6.7160	8.171919	0.000201	2.009310	0.340386	0.004020
 674	3.3650e-01	6.7319	8.186031	0.000141	1.410792	0.238995	0.002822
 675	3.3700e-01	6.7389	8.226227	0.000402	4.018620	0.680773	0.008039
 676	3.3750e-01	6.7480	8.248892	0.000227	2.265818	0.383840	0.004533
 677	3.3800e-01	6.7566	8.284812	0.000359	3.591107	0.608350	0.007184
 678	3.3850e-01	6.7667	8.331423	0.000466	4.659889	0.789407	0.009322
 679	3.3900e-01	6.7793	8.340403	0.000090	0.897777	0.152088	0.001796
 680	3.3950e-01	6.7880	8.390863	0.000504	5.044650	0.854587	0.010092
 681	3.4000e-01	6.7969	8.421225	0.000304	3.035341	0.514201	0.006072
 682	3.4050e-01	6.8085	8.446882	0.000257	2.565076	0.434536	0.005132
 683	3.4100e-01	6.8190	8.475105	0.000282	2.821584	0.477989	0.005645
 684	3.4150e-01	6.8286	8.518723	0.000436	4.360630	0.738711	0.008724
 685	3.4200e-01	6.8420	8.531124	0.000124	1.239787	0.210026	0.002480
 686	3.4250e-01	6.8488	8.561486	0.000304	3.035341	0.514201	0.006072
 687	3.4300e-01	6.8549	8.622208	0.000607	6.070681	1.028401	0.012145
 688	3.4350e-01	6.8671	8.634610	0.000124	1.239787	0.210026	0.002480
 689	3.4400e-01	6.8777	8.667537	0.000329	3.291848	0.557654	0.006585
 690	3.4450e-01	6.8890	8.700891	0.000333	3.334599	0.564896	0.006671
 691	3.4500e-01	6.8982	8.715431	0.000145	1.453543	0.246237	0.002908
 692	3.4550e-01	6.9073	8.752206	0.000368	3.676610	0.622835	0.007355
 693	3.4600e-01	6.9165	8.778292	0.000261	2.607828	0.441778	0.005217
 694	3.4650e-01	6.9283	8.818061	0.000398	3.975869	0.673530	0.007954
 695	3.4700e-01	6.9360	8.845001	0.000269	2.693330	0.456263	0.005388
 696	3.4750e-01	6.9495	8.877073	0.000321	3.206346	0.543170	0.006414
 697	3.4800e-01	6.9580	8.912994	0.000359	3.591107	0.608350	0.007184
 698	3.4850e-01	6.9690	8.945921	0.000329	3.291848	0.557654	0.006585
 699	3.4900e-01	6.9775	8.980558	0.000346	3.462853	0.586623	0.006928
 700	3.4950e-01	6.9873	8.991677	0.000111	1.111533	0.188299	0.002224
 701	3.5000e-01	6.9983	9.013058	0.000214	2.137564	0.362113	0.004276
 702	3.5050e-01	7.0081	9.054965	0.000419	4.189625	0.709742	0.008381
 703	3.5100e-01	7.0178	9.100293	0.000453	4.531635	0.767680	0.009066
 704	3.5150e-01	7.0258	9.107135	0.000068	0.684020	0.115876	0.001368
 705	3.5200e-01	7.0386	9.159733	0.000526	5.258407	0.890798	0.010520
 706	3.5250e-01	7.0508	9.183253	0.000235	2.351320	0.398324	0.004704
 707	3.5300e-01	7.0581	9.219173	0.000359	3.591107	0.608350	0.007184
 708	3.5350e-01	7.0648	9.244403	0.000252	2.522325	0.427293	0.005046
 709	3.5400e-01	7.0776	9.275192	0.000308	3.078092	0.521443	0.006158
 710	3.5450e-01	7.0895	9.314534	0.000393	3.933117	0.666288	0.007868
 711	3.5500e-01	7.0975	9.332922	0.000184	1.838305	0.311417	0.003678
 712	3.5550e-01	7.1075	9.360290	0.000274	2.736082	0.463505	0.005474
 713	3.5600e-01	7.1161	9.400486	0.000402	4.018620	0.680773	0.008039
 714	3.5650e-01	7.1280	9.418019	0.000175	1.752802	0.296933	0.003507
 715	3.5700e-01	7.1387	9.461637	0.000436	4.360630	0.738711	0.008724
 716	3.5750e-01	7.1460	9.489860	0.000282	2.821584	0.477989	0.005645
 717	3.5800e-01	7.1576	9.521077	0.000312	3.120843	0.528685	0.006243
 718	3.5850e-01	7.1692	9.543313	0.000222	2.223066	0.376598	0.004447
 719	3.5900e-01	7.1786	9.584793	0.000415	4.146874	0.702499	0.008296
 720	3.5950e-01	7.1884	9.590780	0.000060	0.598518	0.101392	0.001197
 721	3.6000e-01	7.1973	9.639529	0.000487	4.873645	0.825618	0.009750
 722	3.6050e-01	7.2076	9.675877	0.000363	3.633858	0.615592	0.007270
 723	3.6100e-01	7.2186	9.684857	0.000090	0.897777	0.152088	0.001796
 724	3.6150e-01	7.2269	9.725482	0.000406	4.061371	0.688015	0.008125
 725	3.6200e-01	7.2357	9.739166	0.000137	1.368041	0.231752	0.002737
 726	3.6250e-01	7.2479	9.780645	0.000415	4.146874	0.702499	0.008296
 727	3.6300e-01	7.2595	9.815711	0.000351	3.505605	0.593865	0.007013
 728	3.6350e-01	7.2699	9.849065	0.000333	3.334599	0.564896	0.006671
 729	3.6400e-01	7.2772	9.869164	0.000201	2.009310	0.340386	0.004020
 730	3.6450e-01	7.2879	9.902946	0.000338	3.377351	0.572139	0.006756
 731	3.6500e-01	7.2968	9.927748	0.000248	2.479574	0.420051	0.004960
 732	3.6550e-01	7.3065	9.964097	0.000363	3.633858	0.615592	0.007270
 733	3.6600e-01	7.3181	9.997879	0.000338	3.377351	0.572139	0.006756
 734	3.6650e-01	7.3273	10.021398	0.000235	2.351320	0.398324	0.004704
 735	3.6700e-01	7.3367	10.072286	0.000509	5.087402	0.861829	0.010177
 736	3.6750e-01	7.3450	10.103930	0.000316	3.163594	0.535927	0.006329
 737	3.6800e-01	7.3566	10.115903	0.000120	1.197036	0.202783	0.002395
 738	3.6850e-01	7.3657	10.156956	0.000410	4.104122	0.695257	0.008210
 739	3.6900e-01	7.3779	10.170640	0.000137	1.368041	0.231752	0.002737
 740	3.6950e-01	7.3862	10.215113	0.000445	4.446133	0.753195	0.008895
 741	3.7000e-01	7.3981	10.227941	0.000128	1.282538	0.217268	0.002566
 742	3.7050e-01	7.4072	10.271131	0.000432	4.317879	0.731468	0.008638
 743	3.7100e-01	7.4170	10.301920	0.000308	3.078092	0.521443	0.006158
 744	3.7150e-01	7.4280	10.319881	0.000180	1.795554	0.304175	0.003592
 745	3.7200e-01	7.4371	10.349815	0.000299	2.992589	0.506958	0.005987
 746	3.7250e-01	7.4469	10.390439	0.000406	4.061371	0.688015	0.008125
 747	3.7300e-01	7.4579	10.406261	0.000158	1.581797	0.267964	0.003164
 748	3.7350e-01	7.4670	10.429780	0.000235	2.351320	0.398324	0.004704
 749	3.7400e-01	7.4792	10.472971	0.000432	4.317879	0.731468	0.008638
 750	3.7450e-01	7.4875	10.519154	0.000462	4.617138	0.782164	0.009237
 751	3.7500e-01	7.4957	10.523430	0.000043	0.427513	0.072423	0.000855
 752	3.7550e-01	7.5037	10.582443	0.000590	5.899676	0.999432	0.011802
 753	3.7600e-01	7.5189	10.588002	0.000056	0.555767	0.094149	0.001112
 754	3.7650e-01	7.5287	10.610666	0.000227	2.265818	0.383840	0.004533
 755	3.7700e-01	7.5378	10.646586	0.000359	3.591107	0.608350	0.007184
 756	3.7750e-01	7.5467	10.679086	0.000325	3.249097	0.550412	0.006500
 757	3.7800e-01	7.5562	10.703461	0.000244	2.436823	0.412809	0.004875
 758	3.7850e-01	7.5708	10.703888	0.000004	0.042751	0.007242	0.000086
 759	3.7900e-01	7.5771	10.782144	0.000782	7.823483	1.325334	0.015651
 760	3.7950e-01	7.5873	10.791551	0.000094	0.940528	0.159330	0.001882
 761	3.8000e-01	7.5990	10.833459	0.000419	4.189625	0.709742	0.008381
 762	3.8050e-01	7.6099	10.864675	0.000312	3.120843	0.528685	0.006243
 763	3.8100e-01	7.6167	10.874938	0.000103	1.026031	0.173814	0.002053
 764	3.8150e-01	7.6239	10.911287	0.000363	3.633858	0.615592	0.007270
 765	3.8200e-01	7.6379	10.940793	0.000295	2.949838	0.499716	0.005901
 766	3.8250e-01	7.6508	10.977568	0.000368	3.676610	0.622835	0.007355
 767	3.8300e-01	7.6569	11.012206	0.000346	3.462853	0.586623	0.006928
 768	3.8350e-01	7.6672	11.039574	0.000274	2.736082	0.463505	0.005474
 769	3.8400e-01	7.6752	11.060955	0.000214	2.137564	0.362113	0.004276
 770	3.8450e-01	7.6895	11.090034	0.000291	2.907087	0.492474	0.005816
 771	3.8500e-01	7.6955	11.133224	0.000432	4.317879	0.731468	0.008638
 772	3.8550e-01	7.7069	11.149474	0.000162	1.624548	0.275206	0.003250
 773	3.8600e-01	7.7161	11.185822	0.000363	3.633858	0.615592	0.007270
 774	3.8650e-01	7.7290	11.204637	0.000188	1.881056	0.318660	0.003763
 775	3.8700e-01	7.7374	11.239275	0.000346	3.462853	0.586623	0.006928
 776	3.8750e-01	7.7502	11.263222	0.000239	2.394071	0.405567	0.004789
 777	3.8800e-01	7.7583	11.296149	0.000329	3.291848	0.557654	0.006585
 778	3.8850e-01	7.7667	11.336346	0.000402	4.018620	0.680773	0.008039
 779	3.8900e-01	7.7777	11.350030	0.000137	1.368041	0.231752	0.002737
 780	3.8950e-01	7.7899	11.384240	0.000342	3.420102	0.579381	0.006842
 781	3.9000e-01	7.7986	11.396641	0.000124	1.239787	0.210026	0.002480
 782	3.9050e-01	7.8084	11.450950	0.000543	5.429412	0.919767	0.010862
 783	3.9100e-01	7.8168	11.472758	0.000218	2.180315	0.369355	0.004362
 784	3.9150e-01	7.8275	11.479600	0.000068	0.684020	0.115876	0.001368
 785	3.9200e-01	7.8387	11.540323	0.000607	6.070681	1.028401	0.012145
 786	3.9250e-01	7.8473	11.548876	0.000086	0.855025	0.144845	0.001711
 787	3.9300e-01	7.8564	11.612164	0.000633	6.327189	1.071855	0.012658
 788	3.9350e-01	7.8674	11.602757	-0.000094	-0.940528	-0.159330	-0.001882
 789	3.9400e-01	7.8772	11.645091	0.000423	4.232376	0.716984	0.008467
 790	3.9450e-01	7.8896	11.673315	0.000282	2.821584	0.477989	0.005645
 791	3.9500e-01	7.8976	11.703676	0.000304	3.035341	0.514201	0.006072
 792	3.9550e-01	7.9065	11.730189	0.000265	2.650579	0.449020	0.005303
 793	3.9600e-01	7.9144	11.760550	0.000304	3.035341	0.514201	0.006072
 794	3.9650e-01	7.9260	11.786208	0.000257	2.565076	0.434536	0.005132
 795	3.9700e-01	7.9376	11.827260	0.000410	4.104122	0.695257	0.008210
 796	3.9750e-01	7.9468	11.857194	0.000299	2.992589	0.506958	0.005987
 797	3.9800e-01	7.9553	11.881996	0.000248	2.479574	0.420051	0.004960
 798	3.9850e-01	7.9663	11.903377	0.000214	2.137564	0.362113	0.004276
 799	3.9900e-01	7.9785	11.941863	0.000385	3.847615	0.651804	0.007697
 800	3.9950e-01	7.9865	11.973935	0.000321	3.206346	0.543170	0.006414
 801	4.0000e-01	7.9968	11.988902	0.000150	1.496295	0.253479	0.002993
 802	4.0050e-01	8.0048	12.033375	0.000445	4.446133	0.753195	0.008895
 803	4.0100e-01	8.0219	12.039362	0.000060	0.598518	0.101392	0.001197
 804	4.0150e-01	8.0283	12.090677	0.000513	5.130153	0.869071	0.010263
 805	4.0200e-01	8.0356	12.114196	0.000235	2.351320	0.398324	0.004704
 806	4.0250e-01	8.0472	12.117617	0.000034	0.342010	0.057938	0.000684
 807	4.0300e-01	8.0554	12.150117	0.000325	3.249097	0.550412	0.006500
 808	4.0350e-01	8.0676	12.198439	0.000483	4.830894	0.818376	0.009664
 809	4.0400e-01	8.0798	12.227945	0.000295	2.949838	0.499716	0.005901
 810	4.0450e-01	8.0865	12.266431	0.000385	3.847615	0.651804	0.007697
 811	4.0500e-01	8.0963	12.286529	0.000201	2.009310	0.340386	0.004020
 812	4.0550e-01	8.1055	12.298075	0.000115	1.154284	0.195541	0.002309
 813	4.0600e-01	8.1177	12.331858	0.000338	3.377351	0.572139	0.006756
 814	4.0650e-01	8.1250	12.362647	0.000308	3.078092	0.521443	0.006158
 815	4.0700e-01	8.1393	12.388304	0.000257	2.565076	0.434536	0.005132
 816	4.0750e-01	8.1482	12.424225	0.000359	3.591107	0.608350	0.007184
 817	4.0800e-01	8.1573	12.450737	0.000265	2.650579	0.449020	0.005303
 818	4.0850e-01	8.1702	12.482382	0.000316	3.163594	0.535927	0.006329
 819	4.0900e-01	8.1775	12.531131	0.000487	4.873645	0.825618	0.009750
 820	4.0950e-01	8.1866	12.543532	0.000124	1.239787	0.210026	0.002480
 821	4.1000e-01	8.1982	12.571328	0.000278	2.778833	0.470747	0.005559
 822	4.1050e-01	8.2050	12.595702	0.000244	2.436823	0.412809	0.004875
 823	4.1100e-01	8.2172	12.597413	0.000017	0.171005	0.028969	0.000342
 824	4.1150e-01	8.2251	12.675241	0.000778	7.780732	1.318092	0.015566
 825	4.1200e-01	8.2379	12.684649	0.000094	0.940528	0.159330	0.001882
 826	4.1250e-01	8.2477	12.718431	0.000338	3.377351	0.572139	0.006756
 827	4.1300e-01	8.2581	12.742806	0.000244	2.436823	0.412809	0.004875
 828	4.1350e-01	8.2678	12.770174	0.000274	2.736082	0.463505	0.005474
 829	4.1400e-01	8.2776	12.805239	0.000351	3.505605	0.593865	0.007013
 830	4.1450e-01	8.2886	12.807377	0.000021	0.213756	0.036211	0.000428
 831	4.1500e-01	8.2965	12.838166	0.000308	3.078092	0.521443	0.006158
 832	4.1550e-01	8.3087	12.880929	0.000428	4.275127	0.724226	0.008553
 833	4.1600e-01	8.3185	12.897606	0.000167	1.667300	0.282448	0.003335
 834	4.1650e-01	8.3282	12.954480	0.000569	5.685920	0.963221	0.011375
 835	4.1700e-01	8.3374	12.959184	0.000047	0.470264	0.079665	0.000941
 836	4.1750e-01	8.3484	12.995104	0.000359	3.591107	0.608350	0.007184
 837	4.1800e-01	8.3569	13.031025	0.000359	3.591107	0.608350	0.007184
 838	4.1850e-01	8.3650	13.059676	0.000286	2.864335	0.485232	0.005730
 839	4.1900e-01	8.3795	13.095169	0.000355	3.548356	0.601108	0.007099
 840	4.1950e-01	8.3875	13.096452	0.000013	0.128254	0.021727	0.000257
 841	4.2000e-01	8.4009	13.146484	0.000500	5.001899	0.847345	0.010006
 842	4.2050e-01	8.4076	13.165727	0.000192	1.923807	0.325902	0.003849
 843	4.2100e-01	8.4180	13.183260	0.000175	1.752802	0.296933	0.003507
 844	4.2150e-01	8.4283	13.211483	0.000282	2.821584	0.477989	0.005645
 845	4.2200e-01	8.4375	13.249969	0.000385	3.847615	0.651804	0.007697
 846	4.2250e-01	8.4460	13.267929	0.000180	1.795554	0.304175	0.003592
 847	4.2300e-01	8.4589	13.305560	0.000376	3.762112	0.637319	0.007526
 848	4.2350e-01	8.4671	13.319244	0.000137	1.368041	0.231752	0.002737
 849	4.2400e-01	8.4814	13.335922	0.000167	1.667300	0.282448	0.003335
 850	4.2450e-01	8.4894	13.391085	0.000551	5.514914	0.934252	0.011033
 851	4.2500e-01	8.4985	13.418881	0.000278	2.778833	0.470747	0.005559
 852	4.2550e-01	8.5077	13.438552	0.000197	1.966559	0.333144	0.003934
 853	4.2600e-01	8.5181	13.472762	0.000342	3.420102	0.579381	0.006842
 854	4.2650e-01	8.5275	13.492005	0.000192	1.923807	0.325902	0.003849
 855	4.2700e-01	8.5370	13.524077	0.000321	3.206346	0.543170	0.006414
 856	4.2750e-01	8.5480	13.556149	0.000321	3.206346	0.543170	0.006414
 857	4.2800e-01	8.5590	13.575820	0.000197	1.966559	0.333144	0.003934
 858	4.2850e-01	8.5699	13.602332	0.000265	2.650579	0.449020	0.005303
 859	4.2900e-01	8.5760	13.649371	0.000470	4.702640	0.796649	0.009408
 860	4.2950e-01	8.5895	13.665621	0.000162	1.624548	0.275206	0.003250
 861	4.3000e-01	8.5992	13.685292	0.000197	1.966559	0.333144	0.003934
 862	4.3050e-01	8.6102	13.705390	0.000201	2.009310	0.340386	0.004020
 863	4.3100e-01	8.6169	13.744304	0.000389	3.890366	0.659046	0.007783
 864	4.3150e-01	8.6304	13.776803	0.000325	3.249097	0.550412	0.006500
 865	4.3200e-01	8.6401	13.802889	0.000261	2.607828	0.441778	0.005217
 866	4.3250e-01	8.6487	13.842230	0.000393	3.933117	0.666288	0.007868
 867	4.3300e-01	8.6575	13.868315	0.000261	2.607828	0.441778	0.005217
 868	4.3350e-01	8.6700	13.898677	0.000304	3.035341	0.514201	0.006072
 869	4.3400e-01	8.6768	13.935025	0.000363	3.633858	0.615592	0.007270
 870	4.3450e-01	8.6844	13.946998	0.000120	1.197036	0.202783	0.002395
 871	4.3500e-01	8.6975	13.979070	0.000321	3.206346	0.543170	0.006414
 872	4.3550e-01	8.7073	14.012853	0.000338	3.377351	0.572139	0.006756
 873	4.3600e-01	8.7183	14.055188	0.000423	4.232376	0.716984	0.008467
 874	4.3650e-01	8.7280	14.076996	0.000218	2.180315	0.369355	0.004362
 875	4.3700e-01	8.7390	14.097522	0.000205	2.052061	0.347629	0.004105
 876	4.3750e-01	8.7469	14.118476	0.000209	2.094812	0.354871	0.004191
 877	4.3800e-01	8.7604	14.145844	0.000274	2.736082	0.463505	0.005474
 878	4.3850e-01	8.7671	14.193310	0.000475	4.745391	0.803891	0.009493
 879	4.3900e-01	8.7787	14.193738	0.000004	0.042751	0.007242	0.000086
 880	4.3950e-01	8.7872	14.231797	0.000380	3.804863	0.644561	0.007612
 881	4.4000e-01	8.7976	14.263441	0.000316	3.163594	0.535927	0.006329
 882	4.4050e-01	8.8062	14.282684	0.000192	1.923807	0.325902	0.003849
 883	4.4100e-01	8.8171	14.300644	0.000180	1.795554	0.304175	0.003592
 884	4.4150e-01	8.8293	14.316039	0.000154	1.539046	0.260721	0.003079
 885	4.4200e-01	8.8379	14.393011	0.000770	7.695229	1.303607	0.015395
 886	4.4250e-01	8.8480	14.396005	0.000030	0.299259	0.050696	0.000599
 887	4.4300e-01	8.8556	14.425083	0.000291	2.907087	0.492474	0.005816
 888	4.4350e-01	8.8663	14.441333	0.000162	1.624548	0.275206	0.003250
 889	4.4400e-01	8.8782	14.472977	0.000316	3.163594	0.535927	0.006329
 890	4.4450e-01	8.8849	14.516168	0.000432	4.317879	0.731468	0.008638
 891	4.4500e-01	8.8965	14.511891	-0.000043	-0.427513	-0.072423	-0.000855
 892	4.4550e-01	8.9081	14.563634	0.000517	5.172904	0.876314	0.010349
 893	4.4600e-01	8.9203	14.580311	0.000167	1.667300	0.282448	0.003335
 894	4.4650e-01	8.9270	14.599127	0.000188	1.881056	0.318660	0.003763
 895	4.4700e-01	8.9337	14.654291	0.000551	5.514914	0.934252	0.011033
 896	4.4750e-01	8.9490	14.670540	0.000162	1.624548	0.275206	0.003250
 897	4.4800e-01	8.9560	14.714586	0.000440	4.403381	0.745953	0.008809
 898	4.4850e-01	8.9655	14.730835	0.000162	1.624548	0.275206	0.003250
 899	4.4900e-01	8.9764	14.746230	0.000154	1.539046	0.260721	0.003079
 900	4.4950e-01	8.9862	14.788565	0.000423	4.232376	0.716984	0.008467
 901	4.5000e-01	8.9978	14.822347	0.000338	3.377351	0.572139	0.006756
 902	4.5050e-01	9.0045	14.840308	0.000180	1.795554	0.304175	0.003592
 903	4.5100e-01	9.0179	14.865110	0.000248	2.479574	0.420051	0.004960
 904	4.5150e-01	9.0283	14.887774	0.000227	2.265818	0.383840	0.004533
 905	4.5200e-01	9.0375	14.915997	0.000282	2.821584	0.477989	0.005645
 906	4.5250e-01	9.0479	14.952345	0.000363	3.633858	0.615592	0.007270
 907	4.5300e-01	9.0582	14.979713	0.000274	2.736082	0.463505	0.005474
 908	4.5350e-01	9.0680	15.007081	0.000274	2.736082	0.463505	0.005474
 909	4.5400e-01	9.0778	15.041719	0.000346	3.462853	0.586623	0.006928
 910	4.5450e-01	9.0878	15.065238	0.000235	2.351320	0.398324	0.004704
 911	4.5500e-01	9.0961	15.097310	0.000321	3.206346	0.543170	0.006414
 912	4.5550e-01	9.1077	15.125106	0.000278	2.778833	0.470747	0.005559
 913	4.5600e-01	9.1174	15.139645	0.000145	1.453543	0.246237	0.002908
 914	4.5650e-01	9.1296	15.155467	0.000158	1.581797	0.267964	0.003164
 915	4.5700e-01	9.1376	15.203789	0.000483	4.830894	0.818376	0.009664
 916	4.5750e-01	9.1504	15.212769	0.000090	0.897777	0.152088	0.001796
 917	4.5800e-01	9.1553	15.254249	0.000415	4.146874	0.702499	0.008296
 918	4.5850e-01	9.1651	15.277341	0.000231	2.308569	0.391082	0.004618
 919	4.5900e-01	9.1754	15.315827	0.000385	3.847615	0.651804	0.007697
 920	4.5950e-01	9.1882	15.339774	0.000239	2.394071	0.405567	0.004789
 921	4.6000e-01	9.1986	15.376977	0.000372	3.719361	0.630077	0.007441
 922	4.6050e-01	9.2065	15.379971	0.000030	0.299259	0.050696	0.000599
 923	4.6100e-01	9.2151	15.418457	0.000385	3.847615	0.651804	0.007697
 924	4.6150e-01	9.2255	15.450956	0.000325	3.249097	0.550412	0.006500
 925	4.6200e-01	9.2365	15.461219	0.000103	1.026031	0.173814	0.002053
 926	4.6250e-01	9.2480	15.503554	0.000423	4.232376	0.716984	0.008467
 927	4.6300e-01	9.2566	15.521087	0.000175	1.752802	0.296933	0.003507
 928	4.6350e-01	9.2679	15.550165	0.000291	2.907087	0.492474	0.005816
 929	4.6400e-01	9.2773	15.550165	0.000000	0.000000	0.000000	0.000000
 930	4.6450e-01	9.2859	15.602336	0.000522	5.215656	0.883556	0.010434
 931	4.6500e-01	9.2963	15.651085	0.000487	4.873645	0.825618	0.009750
 932	4.6550e-01	9.3066	15.668190	0.000171	1.710051	0.289690	0.003421
 933	4.6600e-01	9.3164	15.670328	0.000021	0.213756	0.036211	0.000428
 934	4.6650e-01	9.3311	15.707532	0.000372	3.719361	0.630077	0.007441
 935	4.6700e-01	9.3378	15.760557	0.000530	5.301158	0.898040	0.010605
 936	4.6750e-01	9.3439	15.756708	-0.000038	-0.384761	-0.065180	-0.000770
 937	4.6800e-01	9.3573	15.797761	0.000410	4.104122	0.695257	0.008210
 938	4.6850e-01	9.3695	15.819569	0.000218	2.180315	0.369355	0.004362
 939	4.6900e-01	9.3774	15.856345	0.000368	3.676610	0.622835	0.007355
 940	4.6950e-01	9.3860	15.871312	0.000150	1.496295	0.253479	0.002993
 941	4.7000e-01	9.3982	15.889700	0.000184	1.838305	0.311417	0.003678
 942	4.7050e-01	9.4073	15.934173	0.000445	4.446133	0.753195	0.008895
 943	4.7100e-01	9.4165	15.947002	0.000128	1.282538	0.217268	0.002566
 944	4.7150e-01	9.4275	15.981212	0.000342	3.420102	0.579381	0.006842
 945	4.7200e-01	9.4360	16.025685	0.000445	4.446133	0.753195	0.008895
 946	4.7250e-01	9.4452	16.052198	0.000265	2.650579	0.449020	0.005303
 947	4.7300e-01	9.4580	16.076145	0.000239	2.394071	0.405567	0.004789
 948	4.7350e-01	9.4672	16.085125	0.000090	0.897777	0.152088	0.001796
 949	4.7400e-01	9.4760	16.126177	0.000410	4.104122	0.695257	0.008210
 950	4.7450e-01	9.4861	16.171505	0.000453	4.531635	0.767680	0.009066
 951	4.7500e-01	9.4977	16.183051	0.000115	1.154284	0.195541	0.002309
 952	4.7550e-01	9.5081	16.211274	0.000282	2.821584	0.477989	0.005645
 953	4.7600e-01	9.5184	16.245484	0.000342	3.420102	0.579381	0.006842
 954	4.7650e-01	9.5258	16.267293	0.000218	2.180315	0.369355	0.004362
 955	4.7700e-01	9.5355	16.290812	0.000235	2.351320	0.398324	0.004704
 956	4.7750e-01	9.5459	16.314759	0.000239	2.394071	0.405567	0.004789
 957	4.7800e-01	9.5557	16.360088	0.000453	4.531635	0.767680	0.009066
 958	4.7850e-01	9.5673	16.375910	0.000158	1.581797	0.267964	0.003164
 959	4.7900e-01	9.5752	16.402423	0.000265	2.650579	0.449020	0.005303
 960	4.7950e-01	9.5831	16.431074	0.000286	2.864335	0.485232	0.005730
 961	4.8000e-01	9.5959	16.456731	0.000257	2.565076	0.434536	0.005132
 962	4.8050e-01	9.6075	16.499494	0.000428	4.275127	0.724226	0.008553
 963	4.8100e-01	9.6167	16.503342	0.000038	0.384761	0.065180	0.000770
 964	4.8150e-01	9.6265	16.537125	0.000338	3.377351	0.572139	0.006756
 965	4.8200e-01	9.6381	16.550809	0.000137	1.368041	0.231752	0.002737
 966	4.8250e-01	9.6472	16.586729	0.000359	3.591107	0.608350	0.007184
 967	4.8300e-01	9.6576	16.620939	0.000342	3.420102	0.579381	0.006842
 968	4.8350e-01	9.6661	16.645741	0.000248	2.479574	0.420051	0.004960
 969	4.8400e-01	9.6759	16.674392	0.000286	2.864335	0.485232	0.005730
 970	4.8450e-01	9.6881	16.695346	0.000209	2.094812	0.354871	0.004191
 971	4.8500e-01	9.6948	16.732549	0.000372	3.719361	0.630077	0.007441
 972	4.8550e-01	9.7058	16.740247	0.000077	0.769523	0.130361	0.001539
 973	4.8600e-01	9.7171	16.778305	0.000380	3.804863	0.644561	0.007612
 974	4.8650e-01	9.7260	16.817219	0.000389	3.890366	0.659046	0.007783
 975	4.8700e-01	9.7363	16.835179	0.000180	1.795554	0.304175	0.003592
 976	4.8750e-01	9.7473	16.855705	0.000205	2.052061	0.347629	0.004105
 977	4.8800e-01	9.7595	16.899751	0.000440	4.403381	0.745953	0.008809
 978	4.8850e-01	9.7681	16.922415	0.000227	2.265818	0.383840	0.004533
 979	4.8900e-01	9.7748	16.945079	0.000227	2.265818	0.383840	0.004533
 980	4.8950e-01	9.7882	16.981000	0.000359	3.591107	0.608350	0.007184
 981	4.9000e-01	9.7968	16.995539	0.000145	1.453543	0.246237	0.002908
 982	4.9050e-01	9.8071	17.024617	0.000291	2.907087	0.492474	0.005816
 983	4.9100e-01	9.8148	17.063531	0.000389	3.890366	0.659046	0.007783
 984	4.9150e-01	9.8273	17.076788	0.000133	1.325290	0.224510	0.002651
 985	4.9200e-01	9.8370	17.082347	0.000056	0.555767	0.094149	0.001112
 986	4.9250e-01	9.8468	17.144353	0.000620	6.198935	1.050128	0.012401
 987	4.9300e-01	9.8572	17.147346	0.000030	0.299259	0.050696	0.000599
 988	4.9350e-01	9.8651	17.194812	0.000475	4.745391	0.803891	0.009493
 989	4.9400e-01	9.8782	17.199516	0.000047	0.470264	0.079665	0.000941
 990	4.9450e-01	9.8871	17.248265	0.000487	4.873645	0.825618	0.009750
 991	4.9500e-01	9.8950	17.270502	0.000222	2.223066	0.376598	0.004447
 992	4.9550e-01	9.9066	17.292738	0.000222	2.223066	0.376598	0.004447
 993	4.9600e-01	9.9170	17.323528	0.000308	3.078092	0.521443	0.006158
 994	4.9650e-01	9.9261	17.341488	0.000180	1.795554	0.304175	0.003592
 995	4.9700e-01	9.9347	17.372277	0.000308	3.078092	0.521443	0.006158
 996	4.9750e-01	9.9457	17.423592	0.000513	5.130153	0.869071	0.010263
 997	4.9800e-01	9.9536	17.433427	0.000098	0.983279	0.166572	0.001967
 998	4.9850e-01	9.9652	17.464644	0.000312	3.120843	0.528685	0.006243
 999	4.9900e-01	9.9799	17.488591	0.000239	2.394071	0.405567	0.004789
1000	4.9950e-01	9.9866	17.492439	0.000038	0.384761	0.065180	0.000770
1001	5.0000e-01	9.9976	17.539051	0.000466	4.659889	0.789407	0.009322
1002	5.0050e-01	9.9890	17.504413	0.000346	3.462853	0.586623	-0.006928
1003	5.0100e-01	9.9756	17.465071	0.000393	3.933117	0.666288	-0.007868
1004	5.0150e-01	9.9677	17.446684	0.000184	1.838305	0.311417	-0.003678
1005	5.0200e-01	9.9561	17.447539	-0.000009	-0.085503	-0.014485	0.000171
1006	5.0250e-01	9.9481	17.410763	0.000368	3.676610	0.622835	-0.007355
1007	5.0300e-01	9.9359	17.385961	0.000248	2.479574	0.420051	-0.004960
1008	5.0350e-01	9.9271	17.388099	-0.000021	-0.213756	-0.036211	0.000428
1009	5.0400e-01	9.9152	17.347902	0.000402	4.018620	0.680773	-0.008039
1010	5.0450e-01	9.9066	17.312837	0.000351	3.505605	0.593865	-0.007013
1011	5.0500e-01	9.8956	17.301291	0.000115	1.154284	0.195541	-0.002309
1012	5.0550e-01	9.8871	17.276061	0.000252	2.522325	0.427293	-0.005046
1013	5.0600e-01	9.8810	17.245700	0.000304	3.035341	0.514201	-0.006072
1014	5.0650e-01	9.8669	17.226029	0.000197	1.966559	0.333144	-0.003934
1015	5.0700e-01	9.8547	17.210207	0.000158	1.581797	0.267964	-0.003164
1016	5.0750e-01	9.8462	17.189253	0.000209	2.094812	0.354871	-0.004191
1017	5.0800e-01	9.8364	17.159319	0.000299	2.992589	0.506958	-0.005987
1018	5.0850e-01	9.8276	17.156326	0.000030	0.299259	0.050696	-0.000599
1019	5.0900e-01	9.8138	17.119123	0.000372	3.719361	0.630077	-0.007441
1020	5.0950e-01	9.8096	17.106721	0.000124	1.239787	0.210026	-0.002480
1021	5.1000e-01	9.7989	17.064814	0.000419	4.189625	0.709742	-0.008381
1022	5.1050e-01	9.7845	17.035736	0.000291	2.907087	0.492474	-0.005816
1023	5.1100e-01	9.7766	17.042578	-0.000068	-0.684020	-0.115876	0.001368
1024	5.1150e-01	9.7711	17.013499	0.000291	2.907087	0.492474	-0.005816
1025	5.1200e-01	9.7552	16.983993	0.000295	2.949838	0.499716	-0.005901
1026	5.1250e-01	9.7455	16.977579	0.000064	0.641269	0.108634	-0.001283
1027	5.1300e-01	9.7363	16.939948	0.000376	3.762112	0.637319	-0.007526
1028	5.1350e-01	9.7235	16.943796	-0.000038	-0.384761	-0.065180	0.000770
1029	5.1400e-01	9.7171	16.913862	0.000299	2.992589	0.506958	-0.005987
1030	5.1450e-01	9.7046	16.863830	0.000500	5.001899	0.847345	-0.010006
1031	5.1500e-01	9.6960	16.849291	0.000145	1.453543	0.246237	-0.002908
1032	5.1550e-01	9.6875	16.838600	0.000107	1.068782	0.181057	-0.002138
1033	5.1600e-01	9.6765	16.812943	0.000257	2.565076	0.434536	-0.005132
1034	5.1650e-01	9.6649	16.788996	0.000239	2.394071	0.405567	-0.004789
1035	5.1700e-01	9.6545	16.786858	0.000021	0.213756	0.036211	-0.000428
1036	5.1750e-01	9.6460	16.743240	0.000436	4.360630	0.738711	-0.008724
1037	5.1800e-01	9.6362	16.705609	0.000376	3.762112	0.637319	-0.007526
1038	5.1850e-01	9.6240	16.673965	0.000316	3.163594	0.535927	-0.006329
1039	5.1900e-01	9.6161	16.681234	-0.000073	-0.726772	-0.123118	0.001454
1040	5.1950e-01	9.6048	16.644886	0.000363	3.633858	0.615592	-0.007270
1041	5.2000e-01	9.5978	16.621367	0.000235	2.351320	0.398324	-0.004704
1042	5.2050e-01	9.5874	16.613670	0.000077	0.769523	0.130361	-0.001539
1043	5.2100e-01	9.5746	16.590150	0.000235	2.351320	0.398324	-0.004704
1044	5.2150e-01	9.5660	16.551236	0.000389	3.890366	0.659046	-0.007783
1045	5.2200e-01	9.5557	16.535842	0.000154	1.539046	0.260721	-0.003079
1046	5.2250e-01	9.5496	16.487948	0.000479	4.788143	0.811133	-0.009579
1047	5.2300e-01	9.5374	16.481961	0.000060	0.598518	0.101392	-0.001197
1048	5.2350e-01	9.5245	16.461863	0.000201	2.009310	0.340386	-0.004020
1049	5.2400e-01	9.5184	16.443047	0.000188	1.881056	0.318660	-0.003763
1050	5.2450e-01	9.5081	16.410975	0.000321	3.206346	0.543170	-0.006414
1051	5.2500e-01	9.5001	16.399002	0.000120	1.197036	0.202783	-0.002395
1052	5.2550e-01	9.4843	16.367357	0.000316	3.163594	0.535927	-0.006329
1053	5.2600e-01	9.4760	16.343838	0.000235	2.351320	0.398324	-0.004704
1054	5.2650e-01	9.4702	16.320319	0.000235	2.351320	0.398324	-0.004704
1055	5.2700e-01	9.4531	16.298510	0.000218	2.180315	0.369355	-0.004362
1056	5.2750e-01	9.4446	16.274135	0.000244	2.436823	0.412809	-0.004875
1057	5.2800e-01	9.4350	16.271997	0.000021	0.213756	0.036211	-0.000428
1058	5.2850e-01	9.4257	16.256175	0.000158	1.581797	0.267964	-0.003164
1059	5.2900e-01	9.4177	16.196735	0.000594	5.942427	1.006674	-0.011888
1060	5.2950e-01	9.4073	16.185189	0.000115	1.154284	0.195541	-0.002309
1061	5.3000e-01	9.3958	16.163380	0.000218	2.180315	0.369355	-0.004362
1062	5.3050e-01	9.3860	16.142854	0.000205	2.052061	0.347629	-0.004105
1063	5.3100e-01	9.3768	16.130025	0.000128	1.282538	0.217268	-0.002566
1064	5.3150e-01	9.3655	16.080848	0.000492	4.916397	0.832860	-0.009835
1065	5.3200e-01	9.3561	16.087690	-0.000068	-0.684020	-0.115876	0.001368
1066	5.3250e-01	9.3475	16.038514	0.000492	4.916397	0.832860	-0.009835
1067	5.3300e-01	9.3365	16.011146	0.000274	2.736082	0.463505	-0.005474
1068	5.3350e-01	9.3256	15.987199	0.000239	2.394071	0.405567	-0.004789
1069	5.3400e-01	9.3158	15.964962	0.000222	2.223066	0.376598	-0.004447
1070	5.3450e-01	9.3060	15.950850	0.000141	1.410792	0.238995	-0.002822
1071	5.3500e-01	9.2981	15.901246	0.000496	4.959148	0.840102	-0.009921
1072	5.3550e-01	9.2871	15.900391	0.000009	0.085503	0.014485	-0.000171
1073	5.3600e-01	9.2786	15.859339	0.000410	4.104122	0.695257	-0.008210
1074	5.3650e-01	9.2645	15.821708	0.000376	3.762112	0.637319	-0.007526
1075	5.3700e-01	9.2554	15.819569	0.000021	0.213756	0.036211	-0.000428
1076	5.3750e-01	9.2468	15.788353	0.000312	3.120843	0.528685	-0.006243
1077	5.3800e-01	9.2383	15.767399	0.000209	2.094812	0.354871	-0.004191
1078	5.3850e-01	9.2273	15.758419	0.000090	0.897777	0.152088	-0.001796
1079	5.3900e-01	9.2157	15.717795	0.000406	4.061371	0.688015	-0.008125
1080	5.3950e-01	9.2038	15.693848	0.000239	2.394071	0.405567	-0.004789
1081	5.4000e-01	9.1949	15.665624	0.000282	2.821584	0.477989	-0.005645
1082	5.4050e-01	9.1864	15.653223	0.000124	1.239787	0.210026	-0.002480
1083	5.4100e-01	9.1779	15.645526	0.000077	0.769523	0.130361	-0.001539
1084	5.4150e-01	9.1687	15.591218	0.000543	5.429412	0.919767	-0.010862
1085	5.4200e-01	9.1556	15.571547	0.000197	1.966559	0.333144	-0.003934
1086	5.4250e-01	9.1455	15.555297	0.000162	1.624548	0.275206	-0.003250
1087	5.4300e-01	9.1351	15.523653	0.000316	3.163594	0.535927	-0.006329
1088	5.4350e-01	9.1266	15.504837	0.000188	1.881056	0.318660	-0.003763
1089	5.4400e-01	9.1156	15.467634	0.000372	3.719361	0.630077	-0.007441
1090	5.4450e-01	9.1083	15.432141	0.000355	3.548356	0.601108	-0.007099
1091	5.4500e-01	9.0997	15.423588	0.000086	0.855025	0.144845	-0.001711
1092	5.4550e-01	9.0854	15.388523	0.000351	3.505605	0.593865	-0.007013
1093	5.4600e-01	9.0771	15.386813	0.000017	0.171005	0.028969	-0.000342
1094	5.4650e-01	9.0649	15.355168	0.000316	3.163594	0.535927	-0.006329
1095	5.4700e-01	9.0564	15.310695	0.000445	4.446133	0.753195	-0.008895
1096	5.4750e-01	9.0454	15.302143	0.000086	0.855025	0.144845	-0.001711
1097	5.4800e-01	9.0356	15.258525	0.000436	4.360630	0.738711	-0.008724
1098	5.4850e-01	9.0259	15.249545	0.000090	0.897777	0.152088	-0.001796
1099	5.4900e-01	9.0167	15.231585	0.000180	1.795554	0.304175	-0.003592
1100	5.4950e-01	9.0082	15.219184	0.000124	1.239787	0.210026	-0.002480
1101	5.5000e-01	8.9966	15.190105	0.000291	2.907087	0.492474	-0.005816
1102	5.5050e-01	8.9856	15.171289	0.000188	1.881056	0.318660	-0.003763
1103	5.5100e-01	8.9728	15.140500	0.000308	3.078092	0.521443	-0.006158
1104	5.5150e-01	8.9673	15.099021	0.000415	4.146874	0.702499	-0.008296
1105	5.5200e-01	8.9569	15.076784	0.000222	2.223066	0.376598	-0.004447
1106	5.5250e-01	8.9465	15.058396	0.000184	1.838305	0.311417	-0.003678
1107	5.5300e-01	8.9380	15.023759	0.000346	3.462853	0.586623	-0.006928
1108	5.5350e-01	8.9264	15.007081	0.000167	1.667300	0.282448	-0.003335
1109	5.5400e-01	8.9172	14.962181	0.000449	4.488884	0.760438	-0.008980
1110	5.5450e-01	8.9063	14.943365	0.000188	1.881056	0.318660	-0.003763
1111	5.5500e-01	8.8953	14.954056	-0.000107	-1.068782	-0.181057	0.002138
1112	5.5550e-01	8.8864	14.893333	0.000607	6.070681	1.028401	-0.012145
1113	5.5600e-01	8.8748	14.877939	0.000154	1.539046	0.260721	-0.003079
1114	5.5650e-01	8.8654	14.841590	0.000363	3.633858	0.615592	-0.007270
1115	5.5700e-01	8.8580	14.822775	0.000188	1.881056	0.318660	-0.003763
1116	5.5750e-01	8.8452	14.807380	0.000154	1.539046	0.260721	-0.003079
1117	5.5800e-01	8.8342	14.795835	0.000115	1.154284	0.195541	-0.002309
1118	5.5850e-01	8.8293	14.754782	0.000410	4.104122	0.695257	-0.008210
1119	5.5900e-01	8.8153	14.738533	0.000162	1.624548	0.275206	-0.003250
1120	5.5950e-01	8.8112	14.718434	0.000201	2.009310	0.340386	-0.004020
1121	5.6000e-01	8.7952	14.673961	0.000445	4.446133	0.753195	-0.008895
1122	5.6050e-01	8.7860	14.647021	0.000269	2.693330	0.456263	-0.005388
1123	5.6100e-01	8.7762	14.633337	0.000137	1.368041	0.231752	-0.002737
1124	5.6150e-01	8.7665	14.606824	0.000265	2.650579	0.449020	-0.005303
1125	5.6200e-01	8.7555	14.602548	0.000043	0.427513	0.072423	-0.000855
1126	5.6250e-01	8.7479	14.546529	0.000560	5.600417	0.948736	-0.011204
1127	5.6300e-01	8.7363	14.548667	-0.000021	-0.213756	-0.036211	0.000428
1128	5.6350e-01	8.7262	14.510181	0.000385	3.847615	0.651804	-0.007697
1129	5.6400e-01	8.7177	14.485379	0.000248	2.479574	0.420051	-0.004960
1130	5.6450e-01	8.7054	14.449886	0.000355	3.548356	0.601108	-0.007099
1131	5.6500e-01	8.6952	14.401992	0.000479	4.788143	0.811133	-0.009579
1132	5.6550e-01	8.6865	14.388308	0.000137	1.368041	0.231752	-0.002737
1133	5.6600e-01	8.6780	14.379755	0.000086	0.855025	0.144845	-0.001711
1134	5.6650e-01	8.6646	14.339986	0.000398	3.975869	0.673530	-0.007954
1135	5.6700e-01	8.6554	14.318605	0.000214	2.137564	0.362113	-0.004276
1136	5.6750e-01	8.6456	14.298934	0.000197	1.966559	0.333144	-0.003934
1137	5.6800e-01	8.6340	14.255744	0.000432	4.317879	0.731468	-0.008638
1138	5.6850e-01	8.6273	14.239922	0.000158	1.581797	0.267964	-0.003164
1139	5.6900e-01	8.6160	14.220679	0.000192	1.923807	0.325902	-0.003849
1140	5.6950e-01	8.6060	14.203573	0.000171	1.710051	0.289690	-0.003421
1141	5.7000e-01	8.5950	14.184758	0.000188	1.881056	0.318660	-0.003763
1142	5.7050e-01	8.5837	14.153541	0.000312	3.120843	0.528685	-0.006243
1143	5.7100e-01	8.5767	14.101371	0.000522	5.215656	0.883556	-0.010434
1144	5.7150e-01	8.5640	14.088542	0.000128	1.282538	0.217268	-0.002566
1145	5.7200e-01	8.5573	14.062457	0.000261	2.607828	0.441778	-0.005217
1146	5.7250e-01	8.5455	14.049628	0.000128	1.282538	0.217268	-0.002566
1147	5.7300e-01	8.5382	14.001734	0.000479	4.788143	0.811133	-0.009579
1148	5.7350e-01	8.5260	13.981636	0.000201	2.009310	0.340386	-0.004020
1149	5.7400e-01	8.5156	13.961538	0.000201	2.009310	0.340386	-0.004020
1150	5.7450e-01	8.5059	13.946143	0.000154	1.539046	0.260721	-0.003079
1151	5.7500e-01	8.4961	13.915354	0.000308	3.078092	0.521443	-0.006158
1152	5.7550e-01	8.4863	13.895683	0.000197	1.966559	0.333144	-0.003934
1153	5.7600e-01	8.4781	13.864467	0.000312	3.120843	0.528685	-0.006243
1154	5.7650e-01	8.4674	13.827263	0.000372	3.719361	0.630077	-0.007441
1155	5.7700e-01	8.4570	13.799040	0.000282	2.821584	0.477989	-0.005645
1156	5.7750e-01	8.4473	13.793053	0.000060	0.598518	0.101392	-0.001197
1157	5.7800e-01	8.4354	13.754567	0.000385	3.847615	0.651804	-0.007697
1158	5.7850e-01	8.4259	13.730620	0.000239	2.394071	0.405567	-0.004789
1159	5.7900e-01	8.4192	13.711377	0.000192	1.923807	0.325902	-0.003849
1160	5.7950e-01	8.4064	13.674601	0.000368	3.676610	0.622835	-0.007355
1161	5.8000e-01	8.3948	13.657496	0.000171	1.710051	0.289690	-0.003421
1162	5.8050e-01	8.3862	13.624569	0.000329	3.291848	0.557654	-0.006585
1163	5.8100e-01	8.3795	13.599339	0.000252	2.522325	0.427293	-0.005046
1164	5.8150e-01	8.3670	13.567267	0.000321	3.206346	0.543170	-0.006414
1165	5.8200e-01	8.3588	13.543320	0.000239	2.394071	0.405567	-0.004789
1166	5.8250e-01	8.3505	13.515097	0.000282	2.821584	0.477989	-0.005645
1167	5.8300e-01	8.3350	13.493716	0.000214	2.137564	0.362113	-0.004276
1168	5.8350e-01	8.3231	13.451808	0.000419	4.189625	0.709742	-0.008381
1169	5.8400e-01	8.3173	13.434276	0.000175	1.752802	0.296933	-0.003507
1170	5.8450e-01	8.3057	13.414605	0.000197	1.966559	0.333144	-0.003934
1171	5.8500e-01	8.2965	13.393224	0.000214	2.137564	0.362113	-0.004276
1172	5.8550e-01	8.2867	13.369704	0.000235	2.351320	0.398324	-0.004704
1173	5.8600e-01	8.2771	13.338060	0.000316	3.163594	0.535927	-0.006329
1174	5.8650e-01	8.2678	13.298718	0.000393	3.933117	0.666288	-0.007868
1175	5.8700e-01	8.2581	13.285890	0.000128	1.282538	0.217268	-0.002566
1176	5.8750e-01	8.2471	13.248686	0.000372	3.719361	0.630077	-0.007441
1177	5.8800e-01	8.2355	13.226450	0.000222	2.223066	0.376598	-0.004447
1178	5.8850e-01	8.2260	13.206779	0.000197	1.966559	0.333144	-0.003934
1179	5.8900e-01	8.2184	13.187108	0.000197	1.966559	0.333144	-0.003934
1180	5.8950e-01	8.2065	13.150760	0.000363	3.633858	0.615592	-0.007270
1181	5.9000e-01	8.1958	13.122109	0.000286	2.864335	0.485232	-0.005730
1182	5.9050e-01	8.1873	13.104577	0.000175	1.752802	0.296933	-0.003507
1183	5.9100e-01	8.1769	13.069511	0.000351	3.505605	0.593865	-0.007013
1184	5.9150e-01	8.1647	13.038295	0.000312	3.120843	0.528685	-0.006243
1185	5.9200e-01	8.1577	13.003657	0.000346	3.462853	0.586623	-0.006928
1186	5.9250e-01	8.1476	12.987407	0.000162	1.624548	0.275206	-0.003250
1187	5.9300e-01	8.1372	12.972013	0.000154	1.539046	0.260721	-0.003079
1188	5.9350e-01	8.1259	12.939086	0.000329	3.291848	0.557654	-0.006585
1189	5.9400e-01	8.1177	12.919415	0.000197	1.966559	0.333144	-0.003934
1190	5.9450e-01	8.1079	12.879218	0.000402	4.018620	0.680773	-0.008039
1191	5.9500e-01	8.0957	12.866389	0.000128	1.282538	0.217268	-0.002566
1192	5.9550e-01	8.0872	12.849284	0.000171	1.710051	0.289690	-0.003421
1193	5.9600e-01	8.0762	12.821061	0.000282	2.821584	0.477989	-0.005645
1194	5.9650e-01	8.0640	12.766325	0.000547	5.472163	0.927010	-0.010947
1195	5.9700e-01	8.0566	12.753069	0.000133	1.325290	0.224510	-0.002651
1196	5.9750e-01	8.0481	12.734253	0.000188	1.881056	0.318660	-0.003763
1197	5.9800e-01	8.0365	12.712017	0.000222	2.223066	0.376598	-0.004447
1198	5.9850e-01	8.0280	12.679089	0.000329	3.291848	0.557654	-0.006585
1199	5.9900e-01	8.0170	12.652149	0.000269	2.693330	0.456263	-0.005388
1200	5.9950e-01	8.0060	12.623926	0.000282	2.821584	0.477989	-0.005645
1201	6.0000e-01	7.9974	12.585439	0.000385	3.847615	0.651804	-0.007697
1202	6.0050e-01	7.9901	12.582446	0.000030	0.299259	0.050696	-0.000599
1203	6.0100e-01	7.9785	12.536263	0.000462	4.617138	0.782164	-0.009237
1204	6.0150e-01	7.9675	12.511888	0.000244	2.436823	0.412809	-0.004875
1205	6.0200e-01	7.9559	12.499487	0.000124	1.239787	0.210026	-0.002480
1206	6.0250e-01	7.9480	12.455441	0.000440	4.403381	0.745953	-0.008809
1207	6.0300e-01	7.9388	12.425935	0.000295	2.949838	0.499716	-0.005901
1208	6.0350e-01	7.9245	12.396001	0.000299	2.992589	0.506958	-0.005987
1209	6.0400e-01	7.9166	12.367351	0.000286	2.864335	0.485232	-0.005730
1210	6.0450e-01	7.9053	12.366068	0.000013	0.128254	0.021727	-0.000257
1211	6.0500e-01	7.8969	12.333568	0.000325	3.249097	0.550412	-0.006500
1212	6.0550e-01	7.8876	12.301924	0.000316	3.163594	0.535927	-0.006329
1213	6.0600e-01	7.8790	12.263010	0.000389	3.890366	0.659046	-0.007783
1214	6.0650e-01	7.8674	12.252319	0.000107	1.068782	0.181057	-0.002138
1215	6.0700e-01	7.8552	12.200577	0.000517	5.172904	0.876314	-0.010349
1216	6.0750e-01	7.8462	12.176202	0.000244	2.436823	0.412809	-0.004875
1217	6.0800e-01	7.8372	12.155676	0.000205	2.052061	0.347629	-0.004105
1218	6.0850e-01	7.8268	12.130019	0.000257	2.565076	0.434536	-0.005132
1219	6.0900e-01	7.8159	12.109493	0.000205	2.052061	0.347629	-0.004105
1220	6.0950e-01	7.8088	12.079986	0.000295	2.949838	0.499716	-0.005901
1221	6.1000e-01	7.7966	12.062026	0.000180	1.795554	0.304175	-0.003592
1222	6.1050e-01	7.7863	12.028671	0.000333	3.334599	0.564896	-0.006671
1223	6.1100e-01	7.7771	12.003869	0.000248	2.479574	0.420051	-0.004960
1224	6.1150e-01	7.7664	11.977356	0.000265	2.650579	0.449020	-0.005303
1225	6.1200e-01	7.7573	11.949561	0.000278	2.778833	0.470747	-0.005559
1226	6.1250e-01	7.7441	11.906798	0.000428	4.275127	0.724226	-0.008553
1227	6.1300e-01	7.7344	11.868312	0.000385	3.847615	0.651804	-0.007697
1228	6.1350e-01	7.7240	11.858049	0.000103	1.026031	0.173814	-0.002053
1229	6.1400e-01	7.7167	11.827260	0.000308	3.078092	0.521443	-0.006158
1230	6.1450e-01	7.7039	11.816142	0.000111	1.111533	0.188299	-0.002224
1231	6.1500e-01	7.6926	11.784497	0.000316	3.163594	0.535927	-0.006329
1232	6.1550e-01	7.6848	11.759267	0.000252	2.522325	0.427293	-0.005046
1233	6.1600e-01	7.6752	11.727196	0.000321	3.206346	0.543170	-0.006414
1234	6.1650e-01	7.6666	11.706670	0.000205	2.052061	0.347629	-0.004105
1235	6.1700e-01	7.6563	11.669038	0.000376	3.762112	0.637319	-0.007526
1236	6.1750e-01	7.6456	11.639105	0.000299	2.992589	0.506958	-0.005987
1237	6.1800e-01	7.6361	11.620717	0.000184	1.838305	0.311417	-0.003678
1238	6.1850e-01	7.6270	11.590355	0.000304	3.035341	0.514201	-0.006072
1239	6.1900e-01	7.6166	11.556573	0.000338	3.377351	0.572139	-0.006756
1240	6.1950e-01	7.6064	11.521508	0.000351	3.505605	0.593865	-0.007013
1241	6.2000e-01	7.5974	11.515521	0.000060	0.598518	0.101392	-0.001197
1242	6.2050e-01	7.5848	11.477035	0.000385	3.847615	0.651804	-0.007697
1243	6.2100e-01	7.5757	11.465061	0.000120	1.197036	0.202783	-0.002395
1244	6.2150e-01	7.5671	11.416740	0.000483	4.830894	0.818376	-0.009664
1245	6.2200e-01	7.5555	11.414601	0.000021	0.213756	0.036211	-0.000428
1246	6.2250e-01	7.5464	11.367990	0.000466	4.659889	0.789407	-0.009322
1247	6.2300e-01	7.5378	11.334636	0.000333	3.334599	0.564896	-0.006671
1248	6.2350e-01	7.5256	11.332925	0.000017	0.171005	0.028969	-0.000342
1249	6.2400e-01	7.5171	11.296149	0.000368	3.676610	0.622835	-0.007355
1250	6.2450e-01	7.5073	11.245262	0.000509	5.087402	0.861829	-0.010177
1251	6.2500e-01	7.4957	11.229867	0.000154	1.539046	0.260721	-0.003079
1252	6.2550e-01	7.4869	11.207203	0.000227	2.265818	0.383840	-0.004533
1253	6.2600e-01	7.4780	11.175559	0.000316	3.163594	0.535927	-0.006329
1254	6.2650e-01	7.4664	11.146053	0.000295	2.949838	0.499716	-0.005901
1255	6.2700e-01	7.4539	11.120395	0.000257	2.565076	0.434536	-0.005132
1256	6.2750e-01	7.4457	11.080626	0.000398	3.975869	0.673530	-0.007954
1257	6.2800e-01	7.4371	11.036581	0.000440	4.403381	0.745953	-0.008809
1258	6.2850e-01	7.4268	11.034015	0.000026	0.256508	0.043454	-0.000513
1259	6.2900e-01	7.4149	11.008785	0.000252	2.522325	0.427293	-0.005046
1260	6.2950e-01	7.4072	10.974575	0.000342	3.420102	0.579381	-0.006842
1261	6.3000e-01	7.3969	10.947207	0.000274	2.736082	0.463505	-0.005474
1262	6.3050e-01	7.3862	10.930102	0.000171	1.710051	0.289690	-0.003421
1263	6.3100e-01	7.3776	10.901451	0.000286	2.864335	0.485232	-0.005730
1264	6.3150e-01	7.3676	10.856550	0.000449	4.488884	0.760438	-0.008980
1265	6.3200e-01	7.3578	10.828327	0.000282	2.821584	0.477989	-0.005645
1266	6.3250e-01	7.3480	10.800104	0.000282	2.821584	0.477989	-0.005645
1267	6.3300e-01	7.3370	10.772736	0.000274	2.736082	0.463505	-0.005474
1268	6.3350e-01	7.3254	10.747934	0.000248	2.479574	0.420051	-0.004960
1269	6.3400e-01	7.3175	10.719283	0.000286	2.864335	0.485232	-0.005730
1270	6.3450e-01	7.3071	10.689349	0.000299	2.992589	0.506958	-0.005987
1271	6.3500e-01	7.2986	10.684645	0.000047	0.470264	0.079665	-0.000941
1272	6.3550e-01	7.2876	10.648725	0.000359	3.591107	0.608350	-0.007184
1273	6.3600e-01	7.2757	10.628626	0.000201	2.009310	0.340386	-0.004020
1274	6.3650e-01	7.2693	10.579449	0.000492	4.916397	0.832860	-0.009835
1275	6.3700e-01	7.2565	10.566621	0.000128	1.282538	0.217268	-0.002566
1276	6.3750e-01	7.2461	10.534549	0.000321	3.206346	0.543170	-0.006414
1277	6.3800e-01	7.2369	10.504187	0.000304	3.035341	0.514201	-0.006072
1278	6.3850e-01	7.2284	10.456721	0.000475	4.745391	0.803891	-0.009493
1279	6.3900e-01	7.2186	10.441326	0.000154	1.539046	0.260721	-0.003079
1280	6.3950e-01	7.2046	10.427642	0.000137	1.368041	0.231752	-0.002737
1281	6.4000e-01	7.1985	10.395998	0.000316	3.163594	0.535927	-0.006329
1282	6.4050e-01	7.1869	10.354518	0.000415	4.146874	0.702499	-0.008296
1283	6.4100e-01	7.1753	10.331854	0.000227	2.265818	0.383840	-0.004533
1284	6.4150e-01	7.1643	10.289092	0.000428	4.275127	0.724226	-0.008553
1285	6.4200e-01	7.1545	10.282250	0.000068	0.684020	0.115876	-0.001368
1286	6.4250e-01	7.1503	10.247184	0.000351	3.505605	0.593865	-0.007013
1287	6.4300e-01	7.1378	10.205705	0.000415	4.146874	0.702499	-0.008296
1288	6.4350e-01	7.1259	10.195014	0.000107	1.068782	0.181057	-0.002138
1289	6.4400e-01	7.1188	10.152679	0.000423	4.232376	0.716984	-0.008467
1290	6.4450e-01	7.1051	10.132581	0.000201	2.009310	0.340386	-0.004020
1291	6.4500e-01	7.0984	10.095805	0.000368	3.676610	0.622835	-0.007355
1292	6.4550e-01	7.0856	10.078272	0.000175	1.752802	0.296933	-0.003507
1293	6.4600e-01	7.0770	10.052615	0.000257	2.565076	0.434536	-0.005132
1294	6.4650e-01	7.0662	10.012846	0.000398	3.975869	0.673530	-0.007954
1295	6.4700e-01	7.0551	10.006004	0.000068	0.684020	0.115876	-0.001368
1296	6.4750e-01	7.0444	9.950840	0.000551	5.514914	0.934252	-0.011033
1297	6.4800e-01	7.0380	9.926038	0.000248	2.479574	0.420051	-0.004960
1298	6.4850e-01	7.0245	9.904229	0.000218	2.180315	0.369355	-0.004362
1299	6.4900e-01	7.0181	9.871729	0.000325	3.249097	0.550412	-0.006500
1300	6.4950e-01	7.0044	9.845644	0.000261	2.607828	0.441778	-0.005217
1301	6.5000e-01	6.9968	9.806730	0.000389	3.890366	0.659046	-0.007783
1302	6.5050e-01	6.9879	9.785777	0.000209	2.094812	0.354871	-0.004191
1303	6.5100e-01	6.9751	9.759692	0.000261	2.607828	0.441778	-0.005217
1304	6.5150e-01	6.9653	9.733607	0.000261	2.607828	0.441778	-0.005217
1305	6.5200e-01	6.9571	9.688706	0.000449	4.488884	0.760438	-0.008980
1306	6.5250e-01	6.9464	9.676305	0.000124	1.239787	0.210026	-0.002480
1307	6.5300e-01	6.9366	9.641239	0.000351	3.505605	0.593865	-0.007013
1308	6.5350e-01	6.9278	9.613016	0.000282	2.821584	0.477989	-0.005645
1309	6.5400e-01	6.9171	9.580517	0.000325	3.249097	0.550412	-0.006500
1310	6.5450e-01	6.9061	9.554859	0.000257	2.565076	0.434536	-0.005132
1311	6.5500e-01	6.8970	9.537754	0.000171	1.710051	0.289690	-0.003421
1312	6.5550e-01	6.8848	9.491143	0.000466	4.659889	0.789407	-0.009322
1313	6.5600e-01	6.8768	9.471472	0.000197	1.966559	0.333144	-0.003934
1314	6.5650e-01	6.8658	9.425289	0.000462	4.617138	0.782164	-0.009237
1315	6.5700e-01	6.8591	9.412888	0.000124	1.239787	0.210026	-0.002480
1316	6.5750e-01	6.8457	9.384237	0.000286	2.864335	0.485232	-0.005730
1317	6.5800e-01	6.8365	9.354731	0.000295	2.949838	0.499716	-0.005901
1318	6.5850e-01	6.8250	9.334204	0.000205	2.052061	0.347629	-0.004105
1319	6.5900e-01	6.8190	9.293580	0.000406	4.061371	0.688015	-0.008125
1320	6.5950e-01	6.8054	9.259798	0.000338	3.377351	0.572139	-0.006756
1321	6.6000e-01	6.7947	9.228581	0.000312	3.120843	0.528685	-0.006243
1322	6.6050e-01	6.7877	9.199075	0.000295	2.949838	0.499716	-0.005901
1323	6.6100e-01	6.7767	9.205489	-0.000064	-0.641269	-0.108634	0.001283
1324	6.6150e-01	6.7667	9.158451	0.000470	4.702640	0.796649	-0.009408
1325	6.6200e-01	6.7563	9.113977	0.000445	4.446133	0.753195	-0.008895
1326	6.6250e-01	6.7462	9.078912	0.000351	3.505605	0.593865	-0.007013
1327	6.6300e-01	6.7352	9.047696	0.000312	3.120843	0.528685	-0.006243
1328	6.6350e-01	6.7267	9.034867	0.000128	1.282538	0.217268	-0.002566
1329	6.6400e-01	6.7133	9.004505	0.000304	3.035341	0.514201	-0.006072
1330	6.6450e-01	6.7065	8.962171	0.000423	4.232376	0.716984	-0.008467
1331	6.6500e-01	6.6980	8.964309	-0.000021	-0.213756	-0.036211	0.000428
1332	6.6550e-01	6.6855	8.902303	0.000620	6.198935	1.050128	-0.012401
1333	6.6600e-01	6.6782	8.878784	0.000235	2.351320	0.398324	-0.004704
1334	6.6650e-01	6.6675	8.848850	0.000299	2.992589	0.506958	-0.005987
1335	6.6700e-01	6.6547	8.829179	0.000197	1.966559	0.333144	-0.003934
1336	6.6750e-01	6.6449	8.796680	0.000325	3.249097	0.550412	-0.006500
1337	6.6800e-01	6.6345	8.747503	0.000492	4.916397	0.832860	-0.009835
1338	6.6850e-01	6.6255	8.745792	0.000017	0.171005	0.028969	-0.000342
1339	6.6900e-01	6.6174	8.698753	0.000470	4.702640	0.796649	-0.009408
1340	6.6950e-01	6.6071	8.694905	0.000038	0.384761	0.065180	-0.000770
1341	6.7000e-01	6.5981	8.636320	0.000586	5.856925	0.992190	-0.011717
1342	6.7050e-01	6.5866	8.627340	0.000090	0.897777	0.152088	-0.001796
1343	6.7100e-01	6.5741	8.607669	0.000197	1.966559	0.333144	-0.003934
1344	6.7150e-01	6.5649	8.578163	0.000295	2.949838	0.499716	-0.005901
1345	6.7200e-01	6.5595	8.521289	0.000569	5.685920	0.963221	-0.011375
1346	6.7250e-01	6.5451	8.490072	0.000312	3.120843	0.528685	-0.006243
1347	6.7300e-01	6.5372	8.467408	0.000227	2.265818	0.383840	-0.004533
1348	6.7350e-01	6.5277	8.451586	0.000158	1.581797	0.267964	-0.003164
1349	6.7400e-01	6.5192	8.396422	0.000551	5.514914	0.934252	-0.011033
1350	6.7450e-01	6.5094	8.379745	0.000167	1.667300	0.282448	-0.003335
1351	6.7500e-01	6.4966	8.351949	0.000278	2.778833	0.470747	-0.005559
1352	6.7550e-01	6.4874	8.343397	0.000086	0.855025	0.144845	-0.001711
1353	6.7600e-01	6.4746	8.275404	0.000680	6.797453	1.151520	-0.013598
1354	6.7650e-01	6.4661	8.253595	0.000218	2.180315	0.369355	-0.004362
1355	6.7700e-01	6.4558	8.241194	0.000124	1.239787	0.210026	-0.002480
1356	6.7750e-01	6.4453	8.214682	0.000265	2.650579	0.449020	-0.005303
1357	6.7800e-01	6.4374	8.157807	0.000569	5.685920	0.963221	-0.011375
1358	6.7850e-01	6.4276	8.137709	0.000201	2.009310	0.340386	-0.004020
1359	6.7900e-01	6.4142	8.104354	0.000333	3.334599	0.564896	-0.006671
1360	6.7950e-01	6.4075	8.091525	0.000128	1.282538	0.217268	-0.002566
1361	6.8000e-01	6.3947	8.062447	0.000291	2.907087	0.492474	-0.005816
1362	6.8050e-01	6.3867	8.029520	0.000329	3.291848	0.557654	-0.006585
1363	6.8100e-01	6.3776	7.987613	0.000419	4.189625	0.709742	-0.008381
1364	6.8150e-01	6.3696	7.963665	0.000239	2.394071	0.405567	-0.004789
1365	6.8200e-01	6.3571	7.943995	0.000197	1.966559	0.333144	-0.003934
1366	6.8250e-01	6.3470	7.904226	0.000398	3.975869	0.673530	-0.007954
1367	6.8300e-01	6.3373	7.877713	0.000265	2.650579	0.449020	-0.005303
1368	6.8350e-01	6.3269	7.835378	0.000423	4.232376	0.716984	-0.008467
1369	6.8400e-01	6.3153	7.797747	0.000376	3.762112	0.637319	-0.007526
1370	6.8450e-01	6.3055	7.786201	0.000115	1.154284	0.195541	-0.002309
1371	6.8500e-01	6.2970	7.763109	0.000231	2.308569	0.391082	-0.004618
1372	6.8550e-01	6.2872	7.724623	0.000385	3.847615	0.651804	-0.007697
1373	6.8600e-01	6.2787	7.678439	0.000462	4.617138	0.782164	-0.009237
1374	6.8650e-01	6.2677	7.667321	0.000111	1.111533	0.188299	-0.002224
1375	6.8700e-01	6.2582	7.643374	0.000239	2.394071	0.405567	-0.004789
1376	6.8750e-01	6.2512	7.599756	0.000436	4.360630	0.738711	-0.008724
1377	6.8800e-01	6.2360	7.564691	0.000351	3.505605	0.593865	-0.007013
1378	6.8850e-01	6.2244	7.558277	0.000064	0.641269	0.108634	-0.001283
1379	6.8900e-01	6.2154	7.510383	0.000479	4.788143	0.811133	-0.009579
1380	6.8950e-01	6.2080	7.490712	0.000197	1.966559	0.333144	-0.003934
1381	6.9000e-01	6.1975	7.456502	0.000342	3.420102	0.579381	-0.006842
1382	6.9050e-01	6.1868	7.412884	0.000436	4.360630	0.738711	-0.008724
1383	6.9100e-01	6.1780	7.376964	0.000359	3.591107	0.608350	-0.007184
1384	6.9150e-01	6.1646	7.364562	0.000124	1.239787	0.210026	-0.002480
1385	6.9200e-01	6.1557	7.323083	0.000415	4.146874	0.702499	-0.008296
1386	6.9250e-01	6.1441	7.290583	0.000325	3.249097	0.550412	-0.006500
1387	6.9300e-01	6.1371	7.272195	0.000184	1.838305	0.311417	-0.003678
1388	6.9350e-01	6.1274	7.248248	0.000239	2.394071	0.405567	-0.004789
1389	6.9400e-01	6.1172	7.214894	0.000333	3.334599	0.564896	-0.006671
1390	6.9450e-01	6.1055	7.181111	0.000338	3.377351	0.572139	-0.006756
1391	6.9500e-01	6.0950	7.136211	0.000449	4.488884	0.760438	-0.008980
1392	6.9550e-01	6.0864	7.102428	0.000338	3.377351	0.572139	-0.006756
1393	6.9600e-01	6.0760	7.083185	0.000192	1.923807	0.325902	-0.003849
1394	6.9650e-01	6.0669	7.063514	0.000197	1.966559	0.333144	-0.003934
1395	6.9700e-01	6.0547	7.017331	0.000462	4.617138	0.782164	-0.009237
1396	6.9750e-01	6.0474	6.995522	0.000218	2.180315	0.369355	-0.004362
1397	6.9800e-01	6.0388	6.978844	0.000167	1.667300	0.282448	-0.003335
1398	6.9850e-01	6.0251	6.920687	0.000581	5.814173	0.984948	-0.011631
1399	6.9900e-01	6.0139	6.872366	0.000483	4.830894	0.818376	-0.009664
1400	6.9950e-01	6.0077	6.874076	-0.000017	-0.171005	-0.028969	0.000342
1401	7.0000e-01	5.9961	6.842860	0.000312	3.120843	0.528685	-0.006243
1402	7.0050e-01	5.9863	6.797959	0.000449	4.488884	0.760438	-0.008980
1403	7.0100e-01	5.9781	6.754769	0.000432	4.317879	0.731468	-0.008638
1404	7.0150e-01	5.9676	6.739374	0.000154	1.539046	0.260721	-0.003079
1405	7.0200e-01	5.9540	6.716283	0.000231	2.308569	0.391082	-0.004618
1406	7.0250e-01	5.9485	6.679507	0.000368	3.676610	0.622835	-0.007355
1407	7.0300e-01	5.9344	6.649573	0.000299	2.992589	0.506958	-0.005987
1408	7.0350e-01	5.9286	6.616646	0.000329	3.291848	0.557654	-0.006585
1409	7.0400e-01	5.9161	6.593982	0.000227	2.265818	0.383840	-0.004533
1410	7.0450e-01	5.9052	6.561055	0.000329	3.291848	0.557654	-0.006585
1411	7.0500e-01	5.8923	6.524706	0.000363	3.633858	0.615592	-0.007270
1412	7.0550e-01	5.8865	6.493490	0.000312	3.120843	0.528685	-0.006243
1413	7.0600e-01	5.8765	6.473391	0.000201	2.009310	0.340386	-0.004020
1414	7.0650e-01	5.8673	6.446023	0.000274	2.736082	0.463505	-0.005474
1415	7.0700e-01	5.8559	6.402833	0.000432	4.317879	0.731468	-0.008638
1416	7.0750e-01	5.8453	6.370761	0.000321	3.206346	0.543170	-0.006414
1417	7.0800e-01	5.8344	6.354084	0.000167	1.667300	0.282448	-0.003335
1418	7.0850e-01	5.8264	6.301914	0.000522	5.215656	0.883556	-0.010434
1419	7.0900e-01	5.8148	6.292934	0.000090	0.897777	0.152088	-0.001796
1420	7.0950e-01	5.8038	6.242901	0.000500	5.001899	0.847345	-0.010006
1421	7.1000e-01	5.7979	6.209547	0.000333	3.334599	0.564896	-0.006671
1422	7.1050e-01	5.7855	6.192869	0.000167	1.667300	0.282448	-0.003335
1423	7.1100e-01	5.7783	6.147969	0.000449	4.488884	0.760438	-0.008980
1424	7.1150e-01	5.7648	6.138561	0.000094	0.940528	0.159330	-0.001882
1425	7.1200e-01	5.7552	6.078266	0.000603	6.027930	1.021159	-0.012059
1426	7.1250e-01	5.7489	6.067575	0.000107	1.068782	0.181057	-0.002138
1427	7.1300e-01	5.7367	6.020109	0.000475	4.745391	0.803891	-0.009493
1428	7.1350e-01	5.7254	5.993168	0.000269	2.693330	0.456263	-0.005388
1429	7.1400e-01	5.7150	5.964945	0.000282	2.821584	0.477989	-0.005645
1430	7.1450e-01	5.7062	5.932445	0.000325	3.249097	0.550412	-0.006500
1431	7.1500e-01	5.6982	5.901229	0.000312	3.120843	0.528685	-0.006243
1432	7.1550e-01	5.6842	5.885834	0.000154	1.539046	0.260721	-0.003079
1433	7.1600e-01	5.6757	5.849486	0.000363	3.633858	0.615592	-0.007270
1434	7.1650e-01	5.6650	5.809717	0.000398	3.975869	0.673530	-0.007954
1435	7.1700e-01	5.6586	5.770375	0.000393	3.933117	0.666288	-0.007868
1436	7.1750e-01	5.6458	5.765672	0.000047	0.470264	0.079665	-0.000941
1437	7.1800e-01	5.6342	5.707942	0.000577	5.771422	0.977705	-0.011546
1438	7.1850e-01	5.6241	5.697679	0.000103	1.026031	0.173814	-0.002053
1439	7.1900e-01	5.6158	5.671594	0.000261	2.607828	0.441778	-0.005217
1440	7.1950e-01	5.6073	5.610871	0.000607	6.070681	1.028401	-0.012145
1441	7.2000e-01	5.5957	5.583076	0.000278	2.778833	0.470747	-0.005559
1442	7.2050e-01	5.5853	5.549293	0.000338	3.377351	0.572139	-0.006756
1443	7.2100e-01	5.5762	5.538175	0.000111	1.111533	0.188299	-0.002224
1444	7.2150e-01	5.5649	5.509524	0.000286	2.864335	0.485232	-0.005730
1445	7.2200e-01	5.5548	5.466334	0.000432	4.317879	0.731468	-0.008638
1446	7.2250e-01	5.5469	5.415446	0.000509	5.087402	0.861829	-0.010177
1447	7.2300e-01	5.5377	5.411170	0.000043	0.427513	0.072423	-0.000855
1448	7.2350e-01	5.5246	5.365842	0.000453	4.531635	0.767680	-0.009066
1449	7.2400e-01	5.5153	5.343605	0.000222	2.223066	0.376598	-0.004447
1450	7.2450e-01	5.5090	5.298277	0.000453	4.531635	0.767680	-0.009066
1451	7.2500e-01	5.4962	5.236271	0.000620	6.198935	1.050128	-0.012401
1452	7.2550e-01	5.4868	5.234989	0.000013	0.128254	0.021727	-0.000257
1453	7.2600e-01	5.4764	5.199923	0.000351	3.505605	0.593865	-0.007013
1454	7.2650e-01	5.4657	5.176832	0.000231	2.308569	0.391082	-0.004618
1455	7.2700e-01	5.4565	5.141766	0.000351	3.505605	0.593865	-0.007013
1456	7.2750e-01	5.4468	5.114826	0.000269	2.693330	0.456263	-0.005388
1457	7.2800e-01	5.4395	5.074202	0.000406	4.061371	0.688015	-0.008125
1458	7.2850e-01	5.4268	5.042557	0.000316	3.163594	0.535927	-0.006329
1459	7.2900e-01	5.4150	5.028446	0.000141	1.410792	0.238995	-0.002822
1460	7.2950e-01	5.4060	4.992525	0.000359	3.591107	0.608350	-0.007184
1461	7.3000e-01	5.3969	4.948907	0.000436	4.360630	0.738711	-0.008724
1462	7.3050e-01	5.3876	4.912987	0.000359	3.591107	0.608350	-0.007184
1463	7.3100e-01	5.3743	4.880060	0.000329	3.291848	0.557654	-0.006585
1464	7.3150e-01	5.3647	4.852692	0.000274	2.736082	0.463505	-0.005474
1465	7.3200e-01	5.3546	4.815916	0.000368	3.676610	0.622835	-0.007355
1466	7.3250e-01	5.3432	4.792824	0.000231	2.308569	0.391082	-0.004618
1467	7.3300e-01	5.3377	4.735522	0.000573	5.728671	0.970463	-0.011460
1468	7.3350e-01	5.3265	4.729963	0.000056	0.555767	0.094149	-0.001112
1469	7.3400e-01	5.3162	4.698747	0.000312	3.120843	0.528685	-0.006243
1470	7.3450e-01	5.3043	4.661115	0.000376	3.762112	0.637319	-0.007526
1471	7.3500e-01	5.2954	4.618353	0.000428	4.275127	0.724226	-0.008553
1472	7.3550e-01	5.2869	4.598255	0.000201	2.009310	0.340386	-0.004020
1473	7.3600e-01	5.2756	4.560624	0.000376	3.762112	0.637319	-0.007526
1474	7.3650e-01	5.2698	4.539670	0.000209	2.094812	0.354871	-0.004191
1475	7.3700e-01	5.2545	4.511019	0.000286	2.864335	0.485232	-0.005730
1476	7.3750e-01	5.2481	4.457566	0.000534	5.343909	0.905283	-0.010691
1477	7.3800e-01	5.2362	4.455428	0.000021	0.213756	0.036211	-0.000428
1478	7.3850e-01	5.2252	4.395560	0.000599	5.985178	1.013917	-0.011974
1479	7.3900e-01	5.2182	4.363061	0.000325	3.249097	0.550412	-0.006500
1480	7.3950e-01	5.2063	4.324147	0.000389	3.890366	0.659046	-0.007783
1481	7.4000e-01	5.2002	4.287371	0.000368	3.676610	0.622835	-0.007355
1482	7.4050e-01	5.1863	4.265990	0.000214	2.137564	0.362113	-0.004276
1483	7.4100e-01	5.1735	4.239477	0.000265	2.650579	0.449020	-0.005303
1484	7.4150e-01	5.1654	4.212109	0.000274	2.736082	0.463505	-0.005474
1485	7.4200e-01	5.1575	4.184313	0.000278	2.778833	0.470747	-0.005559
1486	7.4250e-01	5.1453	4.127439	0.000569	5.685920	0.963221	-0.011375
1487	7.4300e-01	5.1387	4.115038	0.000124	1.239787	0.210026	-0.002480
1488	7.4350e-01	5.1228	4.075696	0.000393	3.933117	0.666288	-0.007868
1489	7.4400e-01	5.1154	4.043197	0.000325	3.249097	0.550412	-0.006500
1490	7.4450e-01	5.1050	4.009842	0.000333	3.334599	0.564896	-0.006671
1491	7.4500e-01	5.0946	3.965797	0.000440	4.403381	0.745953	-0.008809
1492	7.4550e-01	5.0873	3.931159	0.000346	3.462853	0.586623	-0.006928
1493	7.4600e-01	5.0760	3.926883	0.000043	0.427513	0.072423	-0.000855
1494	7.4650e-01	5.0681	3.889252	0.000376	3.762112	0.637319	-0.007526
1495	7.4700e-01	5.0568	3.849055	0.000402	4.018620	0.680773	-0.008039
1496	7.4750e-01	5.0459	3.813990	0.000351	3.505605	0.593865	-0.007013
1497	7.4800e-01	5.0354	3.788332	0.000257	2.565076	0.434536	-0.005132
1498	7.4850e-01	5.0275	3.752839	0.000355	3.548356	0.601108	-0.007099
1499	7.4900e-01	5.0165	3.693399	0.000594	5.942427	1.006674	-0.011888
1500	7.4950e-01	5.0056	3.678433	0.000150	1.496295	0.253479	-0.002993
1501	7.5000e-01	4.9951	3.627973	0.000504	5.044650	0.854587	-0.010092
1502	7.5050e-01	4.9860	3.608730	0.000192	1.923807	0.325902	-0.003849
1503	7.5100e-01	4.9777	3.577085	0.000316	3.163594	0.535927	-0.006329
1504	7.5150e-01	4.9655	3.533040	0.000440	4.403381	0.745953	-0.008809
1505	7.5200e-01	4.9580	3.515080	0.000180	1.795554	0.304175	-0.003592
1506	7.5250e-01	4.9478	3.493271	0.000218	2.180315	0.369355	-0.004362
1507	7.5300e-01	4.9384	3.450936	0.000423	4.232376	0.716984	-0.008467
1508	7.5350e-01	4.9245	3.421857	0.000291	2.907087	0.492474	-0.005816
1509	7.5400e-01	4.9146	3.360707	0.000611	6.113432	1.035643	-0.012230
1510	7.5450e-01	4.9075	3.341892	0.000188	1.881056	0.318660	-0.003763
1511	7.5500e-01	4.8969	3.306826	0.000351	3.505605	0.593865	-0.007013
1512	7.5550e-01	4.8840	3.275610	0.000312	3.120843	0.528685	-0.006243
1513	7.5600e-01	4.8743	3.241400	0.000342	3.420102	0.579381	-0.006842
1514	7.5650e-01	4.8694	3.217880	0.000235	2.351320	0.398324	-0.004704
1515	7.5700e-01	4.8572	3.168703	0.000492	4.916397	0.832860	-0.009835
1516	7.5750e-01	4.8465	3.161006	0.000077	0.769523	0.130361	-0.001539
1517	7.5800e-01	4.8403	3.118671	0.000423	4.232376	0.716984	-0.008467
1518	7.5850e-01	4.8268	3.087454	0.000312	3.120843	0.528685	-0.006243
1519	7.5900e-01	4.8163	3.050679	0.000368	3.676610	0.622835	-0.007355
1520	7.5950e-01	4.8059	3.010910	0.000398	3.975869	0.673530	-0.007954
1521	7.6000e-01	4.7946	2.963016	0.000479	4.788143	0.811133	-0.009579
1522	7.6050e-01	4.7894	2.939069	0.000239	2.394071	0.405567	-0.004789
1523	7.6100e-01	4.7778	2.918970	0.000201	2.009310	0.340386	-0.004020
1524	7.6150e-01	4.7675	2.866372	0.000526	5.258407	0.890798	-0.010520
1525	7.6200e-01	4.7595	2.836011	0.000304	3.035341	0.514201	-0.006072
1526	7.6250e-01	4.7452	2.801373	0.000346	3.462853	0.586623	-0.006928
1527	7.6300e-01	4.7369	2.769729	0.000316	3.163594	0.535927	-0.006329
1528	7.6350e-01	4.7253	2.748775	0.000209	2.094812	0.354871	-0.004191
1529	7.6400e-01	4.7168	2.704302	0.000445	4.446133	0.753195	-0.008895
1530	7.6450e-01	4.7064	2.652987	0.000513	5.130153	0.869071	-0.010263
1531	7.6500e-01	4.6948	2.609369	0.000436	4.360630	0.738711	-0.008724
1532	7.6550e-01	4.6851	2.594403	0.000150	1.496295	0.253479	-0.002993
1533	7.6600e-01	4.6793	2.566179	0.000282	2.821584	0.477989	-0.005645
1534	7.6650e-01	4.6658	2.549502	0.000167	1.667300	0.282448	-0.003335
1535	7.6700e-01	4.6571	2.493055	0.000564	5.643168	0.955979	-0.011289
1536	7.6750e-01	4.6478	2.457562	0.000355	3.548356	0.601108	-0.007099
1537	7.6800e-01	4.6368	2.421642	0.000359	3.591107	0.608350	-0.007184
1538	7.6850e-01	4.6283	2.406675	0.000150	1.496295	0.253479	-0.002993
1539	7.6900e-01	4.6149	2.381873	0.000248	2.479574	0.420051	-0.004960
1540	7.6950e-01	4.6060	2.340393	0.000415	4.146874	0.702499	-0.008296
1541	7.7000e-01	4.5959	2.301907	0.000385	3.847615	0.651804	-0.007697
1542	7.7050e-01	4.5869	2.265131	0.000368	3.676610	0.622835	-0.007355
1543	7.7100e-01	4.5770	2.227072	0.000380	3.804863	0.644561	-0.007612
1544	7.7150e-01	4.5673	2.201415	0.000257	2.565076	0.434536	-0.005132
1545	7.7200e-01	4.5541	2.162501	0.000389	3.890366	0.659046	-0.007783
1546	7.7250e-01	4.5468	2.123159	0.000393	3.933117	0.666288	-0.007868
1547	7.7300e-01	4.5377	2.091515	0.000316	3.163594	0.535927	-0.006329
1548	7.7350e-01	4.5242	2.059443	0.000321	3.206346	0.543170	-0.006414
1549	7.7400e-01	4.5155	2.033358	0.000261	2.607828	0.441778	-0.005217
1550	7.7450e-01	4.5053	1.996582	0.000368	3.676610	0.622835	-0.007355
1551	7.7500e-01	4.4959	1.942274	0.000543	5.429412	0.919767	-0.010862
1552	7.7550e-01	4.4849	1.908064	0.000342	3.420102	0.579381	-0.006842
1553	7.7600e-01	4.4769	1.877275	0.000308	3.078092	0.521443	-0.006158
1554	7.7650e-01	4.4678	1.835368	0.000419	4.189625	0.709742	-0.008381
1555	7.7700e-01	4.4571	1.821684	0.000137	1.368041	0.231752	-0.002737
1556	7.7750e-01	4.4440	1.784908	0.000368	3.676610	0.622835	-0.007355
1557	7.7800e-01	4.4353	1.740862	0.000440	4.403381	0.745953	-0.008809
1558	7.7850e-01	4.4226	1.707080	0.000338	3.377351	0.572139	-0.006756
1559	7.7900e-01	4.4171	1.669021	0.000380	3.804863	0.644561	-0.007612
1560	7.7950e-01	4.4080	1.651061	0.000180	1.795554	0.304175	-0.003592
1561	7.8000e-01	4.3970	1.613858	0.000372	3.719361	0.630077	-0.007441
1562	7.8050e-01	4.3863	1.553990	0.000599	5.985178	1.013917	-0.011974
1563	7.8100e-01	4.3738	1.539451	0.000145	1.453543	0.246237	-0.002908
1564	7.8150e-01	4.3665	1.504386	0.000351	3.505605	0.593865	-0.007013
1565	7.8200e-01	4.3555	1.453071	0.000513	5.130153	0.869071	-0.010263
1566	7.8250e-01	4.3478	1.433400	0.000197	1.966559	0.333144	-0.003934
1567	7.8300e-01	4.3350	1.400045	0.000333	3.334599	0.564896	-0.006671
1568	7.8350e-01	4.3243	1.336329	0.000637	6.369940	1.079097	-0.012743
1569	7.8400e-01	4.3165	1.341888	-0.000056	-0.555767	-0.094149	0.001112
1570	7.8450e-01	4.3069	1.311954	0.000299	2.992589	0.506958	-0.005987
1571	7.8500e-01	4.2953	1.259356	0.000526	5.258407	0.890798	-0.010520
1572	7.8550e-01	4.2871	1.220870	0.000385	3.847615	0.651804	-0.007697
1573	7.8600e-01	4.2776	1.170838	0.000500	5.001899	0.847345	-0.010006
1574	7.8650e-01	4.2633	1.154588	0.000162	1.624548	0.275206	-0.003250
1575	7.8700e-01	4.2542	1.127648	0.000269	2.693330	0.456263	-0.005388
1576	7.8750e-01	4.2456	1.071201	0.000564	5.643168	0.955979	-0.011289
1577	7.8800e-01	4.2341	1.046399	0.000248	2.479574	0.420051	-0.004960
1578	7.8850e-01	4.2255	1.017321	0.000291	2.907087	0.492474	-0.005816
1579	7.8900e-01	4.2188	0.972847	0.000445	4.446133	0.753195	-0.008895
1580	7.8950e-01	4.2059	0.952749	0.000201	2.009310	0.340386	-0.004020
1581	7.9000e-01	4.1974	0.906566	0.000462	4.617138	0.782164	-0.009237
1582	7.9050e-01	4.1849	0.874494	0.000321	3.206346	0.543170	-0.006414
1583	7.9100e-01	4.1766	0.844988	0.000295	2.949838	0.499716	-0.005901
1584	7.9150e-01	4.1641	0.810778	0.000342	3.420102	0.579381	-0.006842
1585	7.9200e-01	4.1577	0.757752	0.000530	5.301158	0.898040	-0.010605
1586	7.9250e-01	4.1464	0.731239	0.000265	2.650579	0.449020	-0.005303
1587	7.9300e-01	4.1357	0.706009	0.000252	2.522325	0.427293	-0.005046
1588	7.9350e-01	4.1274	0.641866	0.000641	6.412691	1.086339	-0.012829
1589	7.9400e-01	4.1168	0.608938	0.000329	3.291848	0.557654	-0.006585
1590	7.9450e-01	4.1029	0.604662	0.000043	0.427513	0.072423	-0.000855
1591	7.9500e-01	4.0964	0.550781	0.000539	5.386661	0.912525	-0.010776
1592	7.9550e-01	4.0854	0.539235	0.000115	1.154284	0.195541	-0.002309
1593	7.9600e-01	4.0759	0.497756	0.000415	4.146874	0.702499	-0.008296
1594	7.9650e-01	4.0662	0.451572	0.000462	4.617138	0.782164	-0.009237
1595	7.9700e-01	4.0558	0.424204	0.000274	2.736082	0.463505	-0.005474
1596	7.9750e-01	4.0472	0.374172	0.000500	5.001899	0.847345	-0.010006
1597	7.9800e-01	4.0387	0.344666	0.000295	2.949838	0.499716	-0.005901
1598	7.9850e-01	4.0297	0.300621	0.000440	4.403381	0.745953	-0.008809
1599	7.9900e-01	4.0182	0.280095	0.000205	2.052061	0.347629	-0.004105
1600	7.9950e-01	4.0045	0.244174	0.000359	3.591107	0.608350	-0.007184
1601	8.0000e-01	3.9960	0.193714	0.000504	5.044650	0.854587	-0.010092
1602	8.0050e-01	3.9839	0.156511	0.000372	3.719361	0.630077	-0.007441
1603	8.0100e-01	3.9767	0.124011	0.000325	3.249097	0.550412	-0.006500
1604	8.0150e-01	3.9674	0.090657	0.000333	3.334599	0.564896	-0.006671
1605	8.0200e-01	3.9586	0.062006	0.000286	2.864335	0.485232	-0.005730
1606	8.0250e-01	3.9456	0.012829	0.000492	4.916397	0.832860	-0.009835
1607	8.0300e-01	3.9365	-0.005559	0.000184	1.838305	0.311417	-0.003678
1608	8.0350e-01	3.9259	-0.044045	0.000385	3.847615	0.651804	-0.007697
1609	8.0400e-01	3.9149	-0.076117	0.000321	3.206346	0.543170	-0.006414
1610	8.0450e-01	3.9050	-0.127005	0.000509	5.087402	0.861829	-0.010177
1611	8.0500e-01	3.8986	-0.168484	0.000415	4.146874	0.702499	-0.008296
1612	8.0550e-01	3.8898	-0.185589	0.000171	1.710051	0.289690	-0.003421
1613	8.0600e-01	3.8751	-0.236049	0.000504	5.044650	0.854587	-0.010092
1614	8.0650e-01	3.8647	-0.292496	0.000564	5.643168	0.955979	-0.011289
1615	8.0700e-01	3.8568	-0.287364	-0.000051	-0.513015	-0.086907	0.001026
1616	8.0750e-01	3.8455	-0.354929	0.000675	6.754701	1.144277	-0.013513
1617	8.0800e-01	3.8376	-0.368613	0.000137	1.368041	0.231752	-0.002737
1618	8.0850e-01	3.8255	-0.401968	0.000333	3.334599	0.564896	-0.006671
1619	8.0900e-01	3.8156	-0.445158	0.000432	4.317879	0.731468	-0.008638
1620	8.0950e-01	3.8058	-0.466967	0.000218	2.180315	0.369355	-0.004362
1621	8.1000e-01	3.7958	-0.524269	0.000573	5.728671	0.970463	-0.011460
1622	8.1050e-01	3.7881	-0.549926	0.000257	2.565076	0.434536	-0.005132
1623	8.1100e-01	3.7750	-0.593116	0.000432	4.317879	0.731468	-0.008638
1624	8.1150e-01	3.7665	-0.638017	0.000449	4.488884	0.760438	-0.008980
1625	8.1200e-01	3.7579	-0.663674	0.000257	2.565076	0.434536	-0.005132
1626	8.1250e-01	3.7457	-0.705154	0.000415	4.146874	0.702499	-0.008296
1627	8.1300e-01	3.7360	-0.738509	0.000333	3.334599	0.564896	-0.006671
1628	8.1350e-01	3.7245	-0.772719	0.000342	3.420102	0.579381	-0.006842
1629	8.1400e-01	3.7152	-0.813343	0.000406	4.061371	0.688015	-0.008125
1630	8.1450e-01	3.7057	-0.840284	0.000269	2.693330	0.456263	-0.005388
1631	8.1500e-01	3.6946	-0.882619	0.000423	4.232376	0.716984	-0.008467
1632	8.1550e-01	3.6871	-0.915546	0.000329	3.291848	0.557654	-0.006585
1633	8.1600e-01	3.6795	-0.951039	0.000355	3.548356	0.601108	-0.007099
1634	8.1650e-01	3.6664	-1.011761	0.000607	6.070681	1.028401	-0.012145
1635	8.1700e-01	3.6568	-1.020314	0.000086	0.855025	0.144845	-0.001711
1636	8.1750e-01	3.6462	-1.056662	0.000363	3.633858	0.615592	-0.007270
1637	8.1800e-01	3.6353	-1.096859	0.000402	4.018620	0.680773	-0.008039
1638	8.1850e-01	3.6252	-1.163996	0.000671	6.711950	1.137035	-0.013427
1639	8.1900e-01	3.6139	-1.172976	0.000090	0.897777	0.152088	-0.001796
1640	8.1950e-01	3.6053	-1.199061	0.000261	2.607828	0.441778	-0.005217
1641	8.2000e-01	3.5970	-1.260212	0.000611	6.113432	1.035643	-0.012230
1642	8.2050e-01	3.5889	-1.271758	0.000115	1.154284	0.195541	-0.002309
1643	8.2100e-01	3.5761	-1.335046	0.000633	6.327189	1.071855	-0.012658
1644	8.2150e-01	3.5635	-1.361131	0.000261	2.607828	0.441778	-0.005217
1645	8.2200e-01	3.5548	-1.405177	0.000440	4.403381	0.745953	-0.008809
1646	8.2250e-01	3.5478	-1.456492	0.000513	5.130153	0.869071	-0.010263
1647	8.2300e-01	3.5358	-1.468893	0.000124	1.239787	0.210026	-0.002480
1648	8.2350e-01	3.5277	-1.514221	0.000453	4.531635	0.767680	-0.009066
1649	8.2400e-01	3.5170	-1.520208	0.000060	0.598518	0.101392	-0.001197
1650	8.2450e-01	3.5063	-1.573233	0.000530	5.301158	0.898040	-0.010605
1651	8.2500e-01	3.4956	-1.627114	0.000539	5.386661	0.912525	-0.010776
1652	8.2550e-01	3.4888	-1.643364	0.000162	1.624548	0.275206	-0.003250
1653	8.2600e-01	3.4755	-1.653627	0.000103	1.026031	0.173814	-0.002053
1654	8.2650e-01	3.4647	-1.749415	0.000958	9.576286	1.622267	-0.019158
1655	8.2700e-01	3.4558	-1.783625	0.000342	3.420102	0.579381	-0.006842
1656	8.2750e-01	3.4445	-1.824249	0.000406	4.061371	0.688015	-0.008125
1657	8.2800e-01	3.4348	-1.847341	0.000231	2.308569	0.391082	-0.004618
1658	8.2850e-01	3.4262	-1.875992	0.000286	2.864335	0.485232	-0.005730
1659	8.2900e-01	3.4156	-1.922176	0.000462	4.617138	0.782164	-0.009237
1660	8.2950e-01	3.4065	-1.958096	0.000359	3.591107	0.608350	-0.007184
1661	8.3000e-01	3.4006	-1.981616	0.000235	2.351320	0.398324	-0.004704
1662	8.3050e-01	3.3844	-2.044476	0.000628	6.284437	1.064613	-0.012572
1663	8.3100e-01	3.3765	-2.064147	0.000197	1.966559	0.333144	-0.003934
1664	8.3150e-01	3.3656	-2.113324	0.000492	4.916397	0.832860	-0.009835
1665	8.3200e-01	3.3560	-2.158225	0.000449	4.488884	0.760438	-0.008980
1666	8.3250e-01	3.3492	-2.186448	0.000282	2.821584	0.477989	-0.005645
1667	8.3300e-01	3.3353	-2.201843	0.000154	1.539046	0.260721	-0.003079
1668	8.3350e-01	3.3249	-2.259572	0.000577	5.771422	0.977705	-0.011546
1669	8.3400e-01	3.3151	-2.282236	0.000227	2.265818	0.383840	-0.004533
1670	8.3450e-01	3.3072	-2.334834	0.000526	5.258407	0.890798	-0.010520
1671	8.3500e-01	3.2990	-2.377597	0.000428	4.275127	0.724226	-0.008553
1672	8.3550e-01	3.2861	-2.419504	0.000419	4.189625	0.709742	-0.008381
1673	8.3600e-01	3.2761	-2.441313	0.000218	2.180315	0.369355	-0.004362
1674	8.3650e-01	3.2651	-2.505884	0.000646	6.455442	1.093582	-0.012914
1675	8.3700e-01	3.2579	-2.537101	0.000312	3.120843	0.528685	-0.006243
1676	8.3750e-01	3.2458	-2.565324	0.000282	2.821584	0.477989	-0.005645
1677	8.3800e-01	3.2356	-2.584567	0.000192	1.923807	0.325902	-0.003849
1678	8.3850e-01	3.2254	-2.632461	0.000479	4.788143	0.811133	-0.009579
1679	8.3900e-01	3.2140	-2.655553	0.000231	2.308569	0.391082	-0.004618
1680	8.3950e-01	3.2066	-2.715848	0.000603	6.027930	1.021159	-0.012059
1681	8.4000e-01	3.1978	-2.745782	0.000299	2.992589	0.506958	-0.005987
1682	8.4050e-01	3.1851	-2.788972	0.000432	4.317879	0.731468	-0.008638
1683	8.4100e-01	3.1749	-2.823610	0.000346	3.462853	0.586623	-0.006928
1684	8.4150e-01	3.1692	-2.865089	0.000415	4.146874	0.702499	-0.008296
1685	8.4200e-01	3.1546	-2.906997	0.000419	4.189625	0.709742	-0.008381
1686	8.4250e-01	3.1512	-2.939924	0.000329	3.291848	0.557654	-0.006585
1687	8.4300e-01	3.1384	-2.966864	0.000269	2.693330	0.456263	-0.005388
1688	8.4350e-01	3.1259	-3.011765	0.000449	4.488884	0.760438	-0.008980
1689	8.4400e-01	3.1142	-3.043837	0.000321	3.206346	0.543170	-0.006414
1690	8.4450e-01	3.1039	-3.084461	0.000406	4.061371	0.688015	-0.008125
1691	8.4500e-01	3.0939	-3.137059	0.000526	5.258407	0.890798	-0.010520
1692	8.4550e-01	3.0859	-3.166993	0.000299	2.992589	0.506958	-0.005987
1693	8.4600e-01	3.0754	-3.217025	0.000500	5.001899	0.847345	-0.010006
1694	8.4650e-01	3.0640	-3.239689	0.000227	2.265818	0.383840	-0.004533
1695	8.4700e-01	3.0553	-3.273471	0.000338	3.377351	0.572139	-0.006756
1696	8.4750e-01	3.0457	-3.341464	0.000680	6.797453	1.151520	-0.013598
1697	8.4800e-01	3.0386	-3.376102	0.000346	3.462853	0.586623	-0.006928
1698	8.4850e-01	3.0261	-3.421430	0.000453	4.531635	0.767680	-0.009066
1699	8.4900e-01	3.0161	-3.437252	0.000158	1.581797	0.267964	-0.003164
1700	8.4950e-01	3.0051	-3.487712	0.000504	5.044650	0.854587	-0.010092
1701	8.5000e-01	2.9981	-3.512514	0.000248	2.479574	0.420051	-0.004960
1702	8.5050e-01	2.9855	-3.567678	0.000551	5.514914	0.934252	-0.011033
1703	8.5100e-01	2.9749	-3.584355	0.000167	1.667300	0.282448	-0.003335
1704	8.5150e-01	2.9672	-3.638663	0.000543	5.429412	0.919767	-0.010862
1705	8.5200e-01	2.9547	-3.683136	0.000445	4.446133	0.753195	-0.008895
1706	8.5250e-01	2.9456	-3.728037	0.000449	4.488884	0.760438	-0.008980
1707	8.5300e-01	2.9370	-3.753695	0.000257	2.565076	0.434536	-0.005132
1708	8.5350e-01	2.9248	-3.779780	0.000261	2.607828	0.441778	-0.005217
1709	8.5400e-01	2.9151	-3.814845	0.000351	3.505605	0.593865	-0.007013
1710	8.5450e-01	2.9083	-3.855897	0.000410	4.104122	0.695257	-0.008210
1711	8.5500e-01	2.8975	-3.901225	0.000453	4.531635	0.767680	-0.009066
1712	8.5550e-01	2.8870	-3.943133	0.000419	4.189625	0.709742	-0.008381
1713	8.5600e-01	2.8760	-3.979908	0.000368	3.676610	0.622835	-0.007355
1714	8.5650e-01	2.8663	-4.032506	0.000526	5.258407	0.890798	-0.010520
1715	8.5700e-01	2.8566	-4.056026	0.000235	2.351320	0.398324	-0.004704
1716	8.5750e-01	2.8469	-4.090236	0.000342	3.420102	0.579381	-0.006842
1717	8.5800e-01	2.8366	-4.127439	0.000372	3.719361	0.630077	-0.007441
1718	8.5850e-01	2.8233	-4.176188	0.000487	4.873645	0.825618	-0.009750
1719	8.5900e-01	2.8134	-4.222372	0.000462	4.617138	0.782164	-0.009237
1720	8.5950e-01	2.8059	-4.259148	0.000368	3.676610	0.622835	-0.007355
1721	8.6000e-01	2.7972	-4.295496	0.000363	3.633858	0.615592	-0.007270
1722	8.6050e-01	2.7887	-4.327140	0.000316	3.163594	0.535927	-0.006329
1723	8.6100e-01	2.7773	-4.370758	0.000436	4.360630	0.738711	-0.008724
1724	8.6150e-01	2.7650	-4.407961	0.000372	3.719361	0.630077	-0.007441
1725	8.6200e-01	2.7565	-4.447303	0.000393	3.933117	0.666288	-0.007868
1726	8.6250e-01	2.7460	-4.496480	0.000492	4.916397	0.832860	-0.009835
1727	8.6300e-01	2.7364	-4.525131	0.000286	2.864335	0.485232	-0.005730
1728	8.6350e-01	2.7222	-4.558058	0.000329	3.291848	0.557654	-0.006585
1729	8.6400e-01	2.7192	-4.592268	0.000342	3.420102	0.579381	-0.006842
1730	8.6450e-01	2.7036	-4.650852	0.000586	5.856925	0.992190	-0.011717
1731	8.6500e-01	2.6944	-4.684207	0.000333	3.334599	0.564896	-0.006671
1732	8.6550e-01	2.6857	-4.719273	0.000351	3.505605	0.593865	-0.007013
1733	8.6600e-01	2.6773	-4.771015	0.000517	5.172904	0.876314	-0.010349
1734	8.6650e-01	2.6666	-4.811212	0.000402	4.018620	0.680773	-0.008039
1735	8.6700e-01	2.6567	-4.846277	0.000351	3.505605	0.593865	-0.007013
1736	8.6750e-01	2.6436	-4.895882	0.000496	4.959148	0.840102	-0.009921
1737	8.6800e-01	2.6358	-4.918974	0.000231	2.308569	0.391082	-0.004618
1738	8.6850e-01	2.6276	-4.975848	0.000569	5.685920	0.963221	-0.011375
1739	8.6900e-01	2.6141	-5.015189	0.000393	3.933117	0.666288	-0.007868
1740	8.6950e-01	2.6044	-5.020321	0.000051	0.513015	0.086907	-0.001026
1741	8.7000e-01	2.5964	-5.086603	0.000663	6.626448	1.122551	-0.013256
1742	8.7050e-01	2.5858	-5.124661	0.000380	3.804863	0.644561	-0.007612
1743	8.7100e-01	2.5758	-5.157161	0.000325	3.249097	0.550412	-0.006500
1744	8.7150e-01	2.5659	-5.195647	0.000385	3.847615	0.651804	-0.007697
1745	8.7200e-01	2.5543	-5.226008	0.000304	3.035341	0.514201	-0.006072
1746	8.7250e-01	2.5464	-5.280745	0.000547	5.472163	0.927010	-0.010947
1747	8.7300e-01	2.5365	-5.339329	0.000586	5.856925	0.992190	-0.011717
1748	8.7350e-01	2.5269	-5.364987	0.000257	2.565076	0.434536	-0.005132
1749	8.7400e-01	2.5141	-5.398341	0.000333	3.334599	0.564896	-0.006671
1750	8.7450e-01	2.5062	-5.454788	0.000564	5.643168	0.955979	-0.011289
1751	8.7500e-01	2.4963	-5.495840	0.000410	4.104122	0.695257	-0.008210
1752	8.7550e-01	2.4844	-5.525346	0.000295	2.949838	0.499716	-0.005901
1753	8.7600e-01	2.4763	-5.543306	0.000180	1.795554	0.304175	-0.003592
1754	8.7650e-01	2.4631	-5.588635	0.000453	4.531635	0.767680	-0.009066
1755	8.7700e-01	2.4565	-5.636956	0.000483	4.830894	0.818376	-0.009664
1756	8.7750e-01	2.4480	-5.687844	0.000509	5.087402	0.861829	-0.010177
1757	8.7800e-01	2.4357	-5.719916	0.000321	3.206346	0.543170	-0.006414
1758	8.7850e-01	2.4237	-5.765672	0.000457	4.574386	0.774922	-0.009151
1759	8.7900e-01	2.4172	-5.812283	0.000466	4.659889	0.789407	-0.009322
1760	8.7950e-01	2.4068	-5.845210	0.000329	3.291848	0.557654	-0.006585
1761	8.8000e-01	2.3975	-5.884124	0.000389	3.890366	0.659046	-0.007783
1762	8.8050e-01	2.3865	-5.918761	0.000346	3.462853	0.586623	-0.006928
1763	8.8100e-01	2.3750	-5.970504	0.000517	5.172904	0.876314	-0.010349
1764	8.8150e-01	2.3677	-5.994023	0.000235	2.351320	0.398324	-0.004704
1765	8.8200e-01	2.3560	-6.047049	0.000530	5.301158	0.898040	-0.010605
1766	8.8250e-01	2.3438	-6.071851	0.000248	2.479574	0.420051	-0.004960
1767	8.8300e-01	2.3358	-6.125732	0.000539	5.386661	0.912525	-0.010776
1768	8.8350e-01	2.3260	-6.168922	0.000432	4.317879	0.731468	-0.008638
1769	8.8400e-01	2.3193	-6.188593	0.000197	1.966559	0.333144	-0.003934
1770	8.8450e-01	2.3056	-6.250171	0.000616	6.156184	1.042886	-0.012316
1771	8.8500e-01	2.2965	-6.297637	0.000475	4.745391	0.803891	-0.009493
1772	8.8550e-01	2.2856	-6.334413	0.000368	3.676610	0.622835	-0.007355
1773	8.8600e-01	2.2774	-6.391287	0.000569	5.685920	0.963221	-0.011375
1774	8.8650e-01	2.2668	-6.422504	0.000312	3.120843	0.528685	-0.006243
1775	8.8700e-01	2.2568	-6.441320	0.000188	1.881056	0.318660	-0.003763
1776	8.8750e-01	2.2458	-6.494773	0.000534	5.343909	0.905283	-0.010691
1777	8.8800e-01	2.2351	-6.531976	0.000372	3.719361	0.630077	-0.007441
1778	8.8850e-01	2.2263	-6.573028	0.000410	4.104122	0.695257	-0.008210
1779	8.8900e-01	2.2156	-6.614508	0.000415	4.146874	0.702499	-0.008296
1780	8.8950e-01	2.2047	-6.656843	0.000423	4.232376	0.716984	-0.008467
1781	8.9000e-01	2.1959	-6.695757	0.000389	3.890366	0.659046	-0.007783
1782	8.9050e-01	2.1860	-6.728684	0.000329	3.291848	0.557654	-0.006585
1783	8.9100e-01	2.1759	-6.779571	0.000509	5.087402	0.861829	-0.010177
1784	8.9150e-01	2.1657	-6.818057	0.000385	3.847615	0.651804	-0.007697
1785	8.9200e-01	2.1541	-6.871938	0.000539	5.386661	0.912525	-0.010776
1786	8.9250e-01	2.1445	-6.924108	0.000522	5.215656	0.883556	-0.010434
1787	8.9300e-01	2.1356	-6.964733	0.000406	4.061371	0.688015	-0.008125
1788	8.9350e-01	2.1248	-6.980555	0.000158	1.581797	0.267964	-0.003164
1789	8.9400e-01	2.1146	-7.023745	0.000432	4.317879	0.731468	-0.008638
1790	8.9450e-01	2.1033	-7.063087	0.000393	3.933117	0.666288	-0.007868
1791	8.9500e-01	2.0945	-7.136638	0.000735	7.353219	1.245669	-0.014710
1792	8.9550e-01	2.0853	-7.143480	0.000068	0.684020	0.115876	-0.001368
1793	8.9600e-01	2.0729	-7.206769	0.000633	6.327189	1.071855	-0.012658
1794	8.9650e-01	2.0654	-7.236275	0.000295	2.949838	0.499716	-0.005901
1795	8.9700e-01	2.0551	-7.277755	0.000415	4.146874	0.702499	-0.008296
1796	8.9750e-01	2.0459	-7.333346	0.000556	5.557666	0.941494	-0.011118
1797	8.9800e-01	2.0349	-7.364562	0.000312	3.120843	0.528685	-0.006243
1798	8.9850e-01	2.0235	-7.404332	0.000398	3.975869	0.673530	-0.007954
1799	8.9900e-01	2.0150	-7.434265	0.000299	2.992589	0.506958	-0.005987
1800	8.9950e-01	2.0062	-7.480449	0.000462	4.617138	0.782164	-0.009237
1801	9.0000e-01	1.9958	-7.525777	0.000453	4.531635	0.767680	-0.009066
1802	9.0050e-01	1.9841	-7.571961	0.000462	4.617138	0.782164	-0.009237
1803	9.0100e-01	1.9739	-7.598046	0.000261	2.607828	0.441778	-0.005217
1804	9.0150e-01	1.9659	-7.652354	0.000543	5.429412	0.919767	-0.010862
1805	9.0200e-01	1.9560	-7.689558	0.000372	3.719361	0.630077	-0.007441
1806	9.0250e-01	1.9471	-7.741728	0.000522	5.215656	0.883556	-0.010434
1807	9.0300e-01	1.9330	-7.773372	0.000316	3.163594	0.535927	-0.006329
1808	9.0350e-01	1.9254	-7.823404	0.000500	5.001899	0.847345	-0.010006
1809	9.0400e-01	1.9160	-7.847351	0.000239	2.394071	0.405567	-0.004789
1810	9.0450e-01	1.9026	-7.884555	0.000372	3.719361	0.630077	-0.007441
1811	9.0500e-01	1.8973	-7.954685	0.000701	7.011209	1.187731	-0.014026
1812	9.0550e-01	1.8832	-7.986330	0.000316	3.163594	0.535927	-0.006329
1813	9.0600e-01	1.8747	-8.028665	0.000423	4.232376	0.716984	-0.008467
1814	9.0650e-01	1.8667	-8.090670	0.000620	6.198935	1.050128	-0.012401
1815	9.0700e-01	1.8564	-8.099223	0.000086	0.855025	0.144845	-0.001711
1816	9.0750e-01	1.8463	-8.142840	0.000436	4.360630	0.738711	-0.008724
1817	9.0800e-01	1.8391	-8.195011	0.000522	5.215656	0.883556	-0.010434
1818	9.0850e-01	1.8250	-8.223234	0.000282	2.821584	0.477989	-0.005645
1819	9.0900e-01	1.8117	-8.292937	0.000697	6.968458	1.180489	-0.013941
1820	9.0950e-01	1.8076	-8.318594	0.000257	2.565076	0.434536	-0.005132
1821	9.1000e-01	1.7944	-8.375469	0.000569	5.685920	0.963221	-0.011375
1822	9.1050e-01	1.7833	-8.413527	0.000380	3.804863	0.644561	-0.007612
1823	9.1100e-01	1.7763	-8.459283	0.000457	4.574386	0.774922	-0.009151
1824	9.1150e-01	1.7653	-8.507605	0.000483	4.830894	0.818376	-0.009664
1825	9.1200e-01	1.7570	-8.531552	0.000239	2.394071	0.405567	-0.004789
1826	9.1250e-01	1.7444	-8.583295	0.000517	5.172904	0.876314	-0.010349
1827	9.1300e-01	1.7361	-8.617505	0.000342	3.420102	0.579381	-0.006842
1828	9.1350e-01	1.7239	-8.655563	0.000380	3.804863	0.644561	-0.007612
1829	9.1400e-01	1.7137	-8.701747	0.000462	4.617138	0.782164	-0.009237
1830	9.1450e-01	1.7035	-8.746647	0.000449	4.488884	0.760438	-0.008980
1831	9.1500e-01	1.6978	-8.771022	0.000244	2.436823	0.412809	-0.004875
1832	9.1550e-01	1.6847	-8.828751	0.000577	5.771422	0.977705	-0.011546
1833	9.1600e-01	1.6762	-8.866382	0.000376	3.762112	0.637319	-0.007526
1834	9.1650e-01	1.6624	-8.912994	0.000466	4.659889	0.789407	-0.009322
1835	9.1700e-01	1.6525	-8.960032	0.000470	4.702640	0.796649	-0.009408
1836	9.1750e-01	1.6440	-9.001084	0.000410	4.104122	0.695257	-0.008210
1837	9.1800e-01	1.6385	-9.044702	0.000436	4.360630	0.738711	-0.008724
1838	9.1850e-01	1.6248	-9.065656	0.000209	2.094812	0.354871	-0.004191
1839	9.1900e-01	1.6144	-9.140918	0.000752	7.524224	1.274638	-0.015052
1840	9.1950e-01	1.6045	-9.152464	0.000115	1.154284	0.195541	-0.002309
1841	9.2000e-01	1.5956	-9.222167	0.000697	6.968458	1.180489	-0.013941
1842	9.2050e-01	1.5865	-9.254666	0.000325	3.249097	0.550412	-0.006500
1843	9.2100e-01	1.5749	-9.299139	0.000445	4.446133	0.753195	-0.008895
1844	9.2150e-01	1.5640	-9.359007	0.000599	5.985178	1.013917	-0.011974
1845	9.2200e-01	1.5553	-9.370553	0.000115	1.154284	0.195541	-0.002309
1846	9.2250e-01	1.5455	-9.423151	0.000526	5.258407	0.890798	-0.010520
1847	9.2300e-01	1.5352	-9.490288	0.000671	6.711950	1.137035	-0.013427
1848	9.2350e-01	1.5259	-9.525781	0.000355	3.548356	0.601108	-0.007099
1849	9.2400e-01	1.5157	-9.570681	0.000449	4.488884	0.760438	-0.008980
1850	9.2450e-01	1.5019	-9.600187	0.000295	2.949838	0.499716	-0.005901
1851	9.2500e-01	1.4971	-9.642950	0.000428	4.275127	0.724226	-0.008553
1852	9.2550e-01	1.4841	-9.686995	0.000440	4.403381	0.745953	-0.008809
1853	9.2600e-01	1.4753	-9.725909	0.000389	3.890366	0.659046	-0.007783
1854	9.2650e-01	1.4656	-9.755415	0.000295	2.949838	0.499716	-0.005901
1855	9.2700e-01	1.4551	-9.803737	0.000483	4.830894	0.818376	-0.009664
1856	9.2750e-01	1.4424	-9.850348	0.000466	4.659889	0.789407	-0.009322
1857	9.2800e-01	1.4343	-9.890117	0.000398	3.975869	0.673530	-0.007954
1858	9.2850e-01	1.4253	-9.962386	0.000722	7.224965	1.223942	-0.014454
1859	9.2900e-01	1.4158	-9.989754	0.000274	2.736082	0.463505	-0.005474
1860	9.2950e-01	1.4031	-10.031234	0.000415	4.146874	0.702499	-0.008296
1861	9.3000e-01	1.3952	-10.074424	0.000432	4.317879	0.731468	-0.008638
1862	9.3050e-01	1.3824	-10.121890	0.000475	4.745391	0.803891	-0.009493
1863	9.3100e-01	1.3730	-10.172350	0.000504	5.044650	0.854587	-0.010092
1864	9.3150e-01	1.3658	-10.206132	0.000338	3.377351	0.572139	-0.006756
1865	9.3200e-01	1.3536	-10.242908	0.000368	3.676610	0.622835	-0.007355
1866	9.3250e-01	1.3460	-10.295078	0.000522	5.215656	0.883556	-0.010434
1867	9.3300e-01	1.3336	-10.321164	0.000261	2.607828	0.441778	-0.005217
1868	9.3350e-01	1.3251	-10.377610	0.000564	5.643168	0.955979	-0.011289
1869	9.3400e-01	1.3167	-10.427642	0.000500	5.001899	0.847345	-0.010006
1870	9.3450e-01	1.3060	-10.462280	0.000346	3.462853	0.586623	-0.006928
1871	9.3500e-01	1.2963	-10.512740	0.000504	5.044650	0.854587	-0.010092
1872	9.3550e-01	1.2862	-10.550798	0.000380	3.804863	0.644561	-0.007612
1873	9.3600e-01	1.2766	-10.590995	0.000402	4.018620	0.680773	-0.008039
1874	9.3650e-01	1.2665	-10.628199	0.000372	3.719361	0.630077	-0.007441
1875	9.3700e-01	1.2524	-10.679941	0.000517	5.172904	0.876314	-0.010349
1876	9.3750e-01	1.2457	-10.717572	0.000376	3.762112	0.637319	-0.007526
1877	9.3800e-01	1.2369	-10.782571	0.000650	6.498194	1.100824	-0.013000
1878	9.3850e-01	1.2244	-10.806518	0.000239	2.394071	0.405567	-0.004789
1879	9.3900e-01	1.2160	-10.850991	0.000445	4.446133	0.753195	-0.008895
1880	9.3950e-01	1.2073	-10.895464	0.000445	4.446133	0.753195	-0.008895
1881	9.4000e-01	1.1946	-10.939082	0.000436	4.360630	0.738711	-0.008724
1882	9.4050e-01	1.1859	-10.980134	0.000410	4.104122	0.695257	-0.008210
1883	9.4100e-01	1.1734	-11.038291	0.000581	5.814173	0.984948	-0.011631
1884	9.4150e-01	1.1687	-11.096876	0.000586	5.856925	0.992190	-0.011717
1885	9.4200e-01	1.1560	-11.118257	0.000214	2.137564	0.362113	-0.004276
1886	9.4250e-01	1.1457	-11.176414	0.000581	5.814173	0.984948	-0.011631
1887	9.4300e-01	1.1346	-11.209341	0.000329	3.291848	0.557654	-0.006585
1888	9.4350e-01	1.1252	-11.265360	0.000560	5.600417	0.948736	-0.011204
1889	9.4400e-01	1.1151	-11.301281	0.000359	3.591107	0.608350	-0.007184
1890	9.4450e-01	1.1054	-11.344471	0.000432	4.317879	0.731468	-0.008638
1891	9.4500e-01	1.0951	-11.379109	0.000346	3.462853	0.586623	-0.006928
1892	9.4550e-01	1.0852	-11.418022	0.000389	3.890366	0.659046	-0.007783
1893	9.4600e-01	1.0775	-11.499271	0.000812	8.122742	1.376030	-0.016250
1894	9.4650e-01	1.0672	-11.516804	0.000175	1.752802	0.296933	-0.003507
1895	9.4700e-01	1.0550	-11.556573	0.000398	3.975869	0.673530	-0.007954
1896	9.4750e-01	1.0453	-11.619434	0.000628	6.284437	1.064613	-0.012572
1897	9.4800e-01	1.0333	-11.657493	0.000380	3.804863	0.644561	-0.007612
1898	9.4850e-01	1.0249	-11.683150	0.000257	2.565076	0.434536	-0.005132
1899	9.4900e-01	1.0165	-11.740452	0.000573	5.728671	0.970463	-0.011460
1900	9.4950e-01	1.0070	-11.796898	0.000564	5.643168	0.955979	-0.011289
1901	9.5000e-01	0.9949	-11.817424	0.000205	2.052061	0.347629	-0.004105
1902	9.5050e-01	0.9857	-11.879858	0.000624	6.241686	1.057370	-0.012487
1903	9.5100e-01	0.9766	-11.909364	0.000295	2.949838	0.499716	-0.005901
1904	9.5150e-01	0.9641	-11.964955	0.000556	5.557666	0.941494	-0.011118
1905	9.5200e-01	0.9558	-12.004724	0.000398	3.975869	0.673530	-0.007954
1906	9.5250e-01	0.9479	-12.047059	0.000423	4.232376	0.716984	-0.008467
1907	9.5300e-01	0.9358	-12.093243	0.000462	4.617138	0.782164	-0.009237
1908	9.5350e-01	0.9256	-12.133867	0.000406	4.061371	0.688015	-0.008125
1909	9.5400e-01	0.9180	-12.180478	0.000466	4.659889	0.789407	-0.009322
1910	9.5450e-01	0.9058	-12.203998	0.000235	2.351320	0.398324	-0.004704
1911	9.5500e-01	0.8954	-12.266003	0.000620	6.198935	1.050128	-0.012401
1912	9.5550e-01	0.8862	-12.308766	0.000428	4.275127	0.724226	-0.008553
1913	9.5600e-01	0.8781	-12.363502	0.000547	5.472163	0.927010	-0.010947
1914	9.5650e-01	0.8649	-12.408830	0.000453	4.531635	0.767680	-0.009066
1915	9.5700e-01	0.8583	-12.459718	0.000509	5.087402	0.861829	-0.010177
1916	9.5750e-01	0.8443	-12.490079	0.000304	3.035341	0.514201	-0.006072
1917	9.5800e-01	0.8356	-12.531559	0.000415	4.146874	0.702499	-0.008296
1918	9.5850e-01	0.8264	-12.598268	0.000667	6.669199	1.129793	-0.013342
1919	9.5900e-01	0.8161	-12.645735	0.000475	4.745391	0.803891	-0.009493
1920	9.5950e-01	0.8053	-12.661557	0.000158	1.581797	0.267964	-0.003164
1921	9.6000e-01	0.7980	-12.709451	0.000479	4.788143	0.811133	-0.009579
1922	9.6050e-01	0.7848	-12.759911	0.000504	5.044650	0.854587	-0.010092
1923	9.6100e-01	0.7771	-12.803956	0.000440	4.403381	0.745953	-0.008809
1924	9.6150e-01	0.7645	-12.844580	0.000406	4.061371	0.688015	-0.008125
1925	9.6200e-01	0.7558	-12.897606	0.000530	5.301158	0.898040	-0.010605
1926	9.6250e-01	0.7449	-12.936520	0.000389	3.890366	0.659046	-0.007783
1927	9.6300e-01	0.7362	-12.983559	0.000470	4.702640	0.796649	-0.009408
1928	9.6350e-01	0.7267	-13.033591	0.000500	5.001899	0.847345	-0.010006
1929	9.6400e-01	0.7163	-13.078491	0.000449	4.488884	0.760438	-0.008980
1930	9.6450e-01	0.7051	-13.115267	0.000368	3.676610	0.622835	-0.007355
1931	9.6500e-01	0.6925	-13.167010	0.000517	5.172904	0.876314	-0.010349
1932	9.6550e-01	0.6869	-13.210200	0.000432	4.317879	0.731468	-0.008638
1933	9.6600e-01	0.6734	-13.259805	0.000496	4.959148	0.840102	-0.009921
1934	9.6650e-01	0.6664	-13.307271	0.000475	4.745391	0.803891	-0.009493
1935	9.6700e-01	0.6534	-13.333784	0.000265	2.650579	0.449020	-0.005303
1936	9.6750e-01	0.6476	-13.382533	0.000487	4.873645	0.825618	-0.009750
1937	9.6800e-01	0.6355	-13.439407	0.000569	5.685920	0.963221	-0.011375
1938	9.6850e-01	0.6263	-13.482170	0.000428	4.275127	0.724226	-0.008553
1939	9.6900e-01	0.6165	-13.523222	0.000410	4.104122	0.695257	-0.008210
1940	9.6950e-01	0.6063	-13.568550	0.000453	4.531635	0.767680	-0.009066
1941	9.7000e-01	0.5965	-13.614733	0.000462	4.617138	0.782164	-0.009237
1942	9.7050e-01	0.5856	-13.657496	0.000428	4.275127	0.724226	-0.008553
1943	9.7100e-01	0.5761	-13.720785	0.000633	6.327189	1.071855	-0.012658
1944	9.7150e-01	0.5676	-13.731475	0.000107	1.068782	0.181057	-0.002138
1945	9.7200e-01	0.5546	-13.784073	0.000526	5.258407	0.890798	-0.010520
1946	9.7250e-01	0.5438	-13.821704	0.000376	3.762112	0.637319	-0.007526
1947	9.7300e-01	0.5357	-13.899104	0.000774	7.737981	1.310849	-0.015480
1948	9.7350e-01	0.5268	-13.913216	0.000141	1.410792	0.238995	-0.002822
1949	9.7400e-01	0.5152	-14.009004	0.000958	9.576286	1.622267	-0.019158
1950	9.7450e-01	0.5026	-14.021833	0.000128	1.282538	0.217268	-0.002566
1951	9.7500e-01	0.4935	-14.062030	0.000402	4.018620	0.680773	-0.008039
1952	9.7550e-01	0.4830	-14.119759	0.000577	5.771422	0.977705	-0.011546
1953	9.7600e-01	0.4759	-14.155679	0.000359	3.591107	0.608350	-0.007184
1954	9.7650e-01	0.4657	-14.205284	0.000496	4.959148	0.840102	-0.009921
1955	9.7700e-01	0.4556	-14.242060	0.000368	3.676610	0.622835	-0.007355
1956	9.7750e-01	0.4433	-14.310907	0.000688	6.882955	1.166004	-0.013770
1957	9.7800e-01	0.4335	-14.359229	0.000483	4.830894	0.818376	-0.009664
1958	9.7850e-01	0.4235	-14.402847	0.000436	4.360630	0.738711	-0.008724
1959	9.7900e-01	0.4150	-14.439195	0.000363	3.633858	0.615592	-0.007270
1960	9.7950e-01	0.4057	-14.459721	0.000205	2.052061	0.347629	-0.004105
1961	9.8000e-01	0.3941	-14.516595	0.000569	5.685920	0.963221	-0.011375
1962	9.8050e-01	0.3844	-14.561068	0.000445	4.446133	0.753195	-0.008895
1963	9.8100e-01	0.3767	-14.613666	0.000526	5.258407	0.890798	-0.010520
1964	9.8150e-01	0.3639	-14.650442	0.000368	3.676610	0.622835	-0.007355
1965	9.8200e-01	0.3582	-14.695770	0.000453	4.531635	0.767680	-0.009066
1966	9.8250e-01	0.3428	-14.739816	0.000440	4.403381	0.745953	-0.008809
1967	9.8300e-01	0.3326	-14.805670	0.000658	6.583696	1.115308	-0.013171
1968	9.8350e-01	0.3262	-14.830900	0.000252	2.522325	0.427293	-0.005046
1969	9.8400e-01	0.3143	-14.893761	0.000628	6.284437	1.064613	-0.012572
1970	9.8450e-01	0.3034	-14.938661	0.000449	4.488884	0.760438	-0.008980
1971	9.8500e-01	0.2963	-14.976720	0.000380	3.804863	0.644561	-0.007612
1972	9.8550e-01	0.2853	-15.012213	0.000355	3.548356	0.601108	-0.007099
1973	9.8600e-01	0.2733	-15.075074	0.000628	6.284437	1.064613	-0.012572
1974	9.8650e-01	0.2631	-15.118264	0.000432	4.317879	0.731468	-0.008638
1975	9.8700e-01	0.2551	-15.178987	0.000607	6.070681	1.028401	-0.012145
1976	9.8750e-01	0.2464	-15.194381	0.000154	1.539046	0.260721	-0.003079
1977	9.8800e-01	0.2338	-15.253821	0.000594	5.942427	1.006674	-0.011888
1978	9.8850e-01	0.2231	-15.315399	0.000616	6.156184	1.042886	-0.012316
1979	9.8900e-01	0.2158	-15.337636	0.000222	2.223066	0.376598	-0.004447
1980	9.8950e-01	0.2045	-15.397076	0.000594	5.942427	1.006674	-0.011888
1981	9.9000e-01	0.1949	-15.448391	0.000513	5.130153	0.869071	-0.010263
1982	9.9050e-01	0.1872	-15.477042	0.000286	2.864335	0.485232	-0.005730
1983	9.9100e-01	0.1759	-15.529212	0.000522	5.215656	0.883556	-0.010434
1984	9.9150e-01	0.1685	-15.578816	0.000496	4.959148	0.840102	-0.009921
1985	9.9200e-01	0.1585	-15.612599	0.000338	3.377351	0.572139	-0.006756
1986	9.9250e-01	0.1453	-15.662203	0.000496	4.959148	0.840102	-0.009921
1987	9.9300e-01	0.1347	-15.716939	0.000547	5.472163	0.927010	-0.010947
1988	9.9350e-01	0.1247	-15.759274	0.000423	4.232376	0.716984	-0.008467
1989	9.9400e-01	0.1167	-15.806313	0.000470	4.702640	0.796649	-0.009408
1990	9.9450e-01	0.1042	-15.841806	0.000355	3.548356	0.601108	-0.007099
1991	9.9500e-01	0.0942	-15.908943	0.000671	6.711950	1.137035	-0.013427
1992	9.9550e-01	0.0848	-15.941015	0.000321	3.206346	0.543170	-0.006414
1993	9.9600e-01	0.0738	-16.005586	0.000646	6.455442	1.093582	-0.012914
1994	9.9650e-01	0.0649	-16.035948	0.000304	3.035341	0.514201	-0.006072
1995	9.9700e-01	0.0564	-16.085125	0.000492	4.916397	0.832860	-0.009835
1996	9.9750e-01	0.0449	-16.127032	0.000419	4.189625	0.709742	-0.008381
1997	9.9800e-01	0.0358	-16.175781	0.000487	4.873645	0.825618	-0.009750
1998	9.9850e-01	0.0224	-16.221965	0.000462	4.617138	0.782164	-0.009237
1999	9.9900e-01	0.0169	-16.277984	0.000560	5.600417	0.948736	-0.011204
2000	9.9950e-01	0.0063	-16.331437	0.000534	5.343909	0.905283	-0.010691
2001	1.0000e+00	-0.0046	-16.351963	0.000534	5.343909	0.905283	-0.004105

PMax (uC/cm2):	3.51e+01
Pr (uC/cm2):	1.18e+00
-Pr (uC/cm2):	0.00e+00
PLoss (uC/cm2):	0.00e+00
C (Max-Eff) (nF):	3.51e-01
K (Eff):	5.94e+02
Vert. (+/-Pr) Shift (uC/cm2):	5.92e-01
Offset (uC/cm2):	1.75e+01

A (Loop Area - uC/cm2·Volts):	-7.81e-03



Hysteresis Version: 5.48.1 - Radiant Technologies, Inc., 1999 - 9/12/24

