»»»»»»»»»»»»»»»»»»»»»»»»»»»»»»»»»»»» Hysteresis ««««««««««««««««««««««««««««««««««««
»»»  Executed Version:	5.48.1
»»»  Vision Version:	5.48.4 (R)
»»»  Vision Compiled:	9/18/24
»»»  Driver Version:	5.47.0
»»»  Windows Version:	Windows 8 or 8.1
»»»  Processor Information:	x86 (AMD or Intel) - 32 Processors
»»»  Tester Name:	PMF21124-494 (100V)
»»»  Tester S/N:	PMF21124-494
»»»  Internal Amp Type:	100V RevK 270k
»»»  Internal Amp S/N:	iAB2-596/K     
»»»  Execution Count:	1
»»»»»»»»»»»»»»»»»»»»»»»»»»»»»»»»»»»»»»»»»»««««««««««««««««««««««««««««««««««««««««««

Stored:	6/30/2025 - 11:56:56
Configured:	06/30/25 10:19:58 AM
Executed:	06/30/25 11:56:34 AM

»»»»»»»»»»»»»»»»»»»»»»»»»»»»»»»»»»» Sample Info ««««««««««««««««««««««««««««««««««««
Sample Name:	
Lot Name:	
Wafer Name:	
Die Row/Column:	0/0
Capacitor Number:	0
Sample Area (cm2):	1.00e-04
Sample Thickness (microns):	1.50e-01

Amplifier:	Internal

»»»»»»»»»»»»»»»»»»»»»»»»»»»»»»»»»»» Tester Info «««««««««««««««««««««««««««««««««««
Tester Name:	PMF21124-494 (100V)
Tester Serial Number:	PMF21124-494
Return Signal Amp. Level:	1.79 [Index: 2]

»»»»»»»»»»»»»»»»»»»»»»»»»»»»»»»» Hysteresis Info ««««««««««««««««««««««««««««««««««
Task Name:	Hyst-1804
Volts:	10.00
Field:	666.67 (kV/cm)
DCBias:	0.00
DCField:	0.00 (kV/cm)
Hysteresis Period (ms):	1.00e+00
Preset:	Enabled
Preset Delay (ms):	1.00e+03
Profile:	Standard Monopolar

»»»»»»»»»»»»»»»»»»»»»»»»»»»»»»»»»»»»»» Data «««««««««««««««««««««««««««««««««««««««
Points:	2001

Valid Data

Point	Time (ms)	Drive Voltage	Measured Polarization (uC/cm2)	Capacitance (uF)	Normalized Capacitance (uF/cm2)	Dielectric Constant	Instantaneous Current (mA)
   1	0.0000e+00	-0.0042	-17.333363	0.000607	6.070936	1.028444	0.012145
   2	5.0000e-04	0.0039	-17.272640	0.000607	6.070936	1.028444	0.012145
   3	1.0000e-03	0.0152	-17.229450	0.000432	4.318060	0.731499	0.008638
   4	1.5000e-03	0.0266	-17.164023	0.000654	6.541219	1.108113	0.013085
   5	2.0000e-03	0.0343	-17.119978	0.000440	4.403566	0.745984	0.008809
   6	2.5000e-03	0.0467	-17.082347	0.000376	3.762270	0.637346	0.007526
   7	3.0000e-03	0.0585	-17.021196	0.000611	6.113689	1.035687	0.012230
   8	3.5000e-03	0.0674	-16.960046	0.000611	6.113689	1.035687	0.012230
   9	4.0000e-03	0.0772	-16.942941	0.000171	1.710123	0.289703	0.003421
  10	4.5000e-03	0.0861	-16.872383	0.000705	7.054256	1.195023	0.014112
  11	5.0000e-03	0.0978	-16.844587	0.000278	2.778949	0.470767	0.005559
  12	5.5000e-03	0.1099	-16.803108	0.000415	4.147048	0.702529	0.008296
  13	6.0000e-03	0.1147	-16.732977	0.000701	7.011503	1.187781	0.014026
  14	6.5000e-03	0.1259	-16.692780	0.000402	4.018788	0.680801	0.008039
  15	7.0000e-03	0.1334	-16.666267	0.000265	2.650690	0.449039	0.005303
  16	7.5000e-03	0.1460	-16.622222	0.000440	4.403566	0.745984	0.008809
  17	8.0000e-03	0.1569	-16.557223	0.000650	6.498466	1.100870	0.013000
  18	8.5000e-03	0.1649	-16.514888	0.000423	4.232554	0.717014	0.008467
  19	9.0000e-03	0.1751	-16.473408	0.000415	4.147048	0.702529	0.008296
  20	9.5000e-03	0.1871	-16.407554	0.000658	6.583973	1.115355	0.013171
  21	1.0000e-02	0.1998	-16.366930	0.000406	4.061541	0.688044	0.008125
  22	1.0500e-02	0.2049	-16.323312	0.000436	4.360813	0.738742	0.008724
  23	1.1000e-02	0.2167	-16.289530	0.000338	3.377492	0.572163	0.006756
  24	1.1500e-02	0.2277	-16.237359	0.000522	5.215874	0.883593	0.010434
  25	1.2000e-02	0.2358	-16.175781	0.000616	6.156442	1.042929	0.012316
  26	1.2500e-02	0.2459	-16.147130	0.000286	2.864456	0.485252	0.005730
  27	1.3000e-02	0.2540	-16.097526	0.000496	4.959356	0.840138	0.009921
  28	1.3500e-02	0.2687	-16.045783	0.000517	5.173121	0.876350	0.010349
  29	1.4000e-02	0.2793	-16.002165	0.000436	4.360813	0.738742	0.008724
  30	1.4500e-02	0.2896	-15.968383	0.000338	3.377492	0.572163	0.006756
  31	1.5000e-02	0.2948	-15.919634	0.000487	4.873850	0.825653	0.009750
  32	1.5500e-02	0.3052	-15.871312	0.000483	4.831097	0.818410	0.009664
  33	1.6000e-02	0.3191	-15.822135	0.000492	4.916603	0.832895	0.009835
  34	1.6500e-02	0.3247	-15.793484	0.000286	2.864456	0.485252	0.005730
  35	1.7000e-02	0.3366	-15.731479	0.000620	6.199195	1.050172	0.012401
  36	1.7500e-02	0.3492	-15.681874	0.000496	4.959356	0.840138	0.009921
  37	1.8000e-02	0.3545	-15.627566	0.000543	5.429640	0.919806	0.010862
  38	1.8500e-02	0.3677	-15.607467	0.000201	2.009394	0.340401	0.004020
  39	1.9000e-02	0.3777	-15.541185	0.000663	6.626726	1.122598	0.013256
  40	1.9500e-02	0.3857	-15.500133	0.000410	4.104295	0.695286	0.008210
  41	2.0000e-02	0.3971	-15.463785	0.000363	3.634011	0.615618	0.007270
  42	2.0500e-02	0.4079	-15.404345	0.000594	5.942676	1.006717	0.011888
  43	2.1000e-02	0.4154	-15.348326	0.000560	5.600652	0.948776	0.011204
  44	2.1500e-02	0.4263	-15.319248	0.000291	2.907209	0.492494	0.005816
  45	2.2000e-02	0.4382	-15.272637	0.000466	4.660084	0.789440	0.009322
  46	2.2500e-02	0.4452	-15.217045	0.000556	5.557899	0.941534	0.011118
  47	2.3000e-02	0.4553	-15.170862	0.000462	4.617331	0.782197	0.009237
  48	2.3500e-02	0.4668	-15.138362	0.000325	3.249233	0.550435	0.006500
  49	2.4000e-02	0.4760	-15.069515	0.000688	6.883244	1.166053	0.013770
  50	2.4500e-02	0.4889	-15.034877	0.000346	3.462999	0.586648	0.006928
  51	2.5000e-02	0.4951	-14.988694	0.000462	4.617331	0.782197	0.009237
  52	2.5500e-02	0.5045	-14.936523	0.000522	5.215874	0.883593	0.010434
  53	2.6000e-02	0.5173	-14.911721	0.000248	2.479678	0.420069	0.004960
  54	2.6500e-02	0.5263	-14.860834	0.000509	5.087615	0.861865	0.010177
  55	2.7000e-02	0.5372	-14.795835	0.000650	6.498466	1.100870	0.013000
  56	2.7500e-02	0.5453	-14.768039	0.000278	2.778949	0.470767	0.005559
  57	2.8000e-02	0.5560	-14.703040	0.000650	6.498466	1.100870	0.013000
  58	2.8500e-02	0.5641	-14.646166	0.000569	5.686158	0.963261	0.011375
  59	2.9000e-02	0.5754	-14.633337	0.000128	1.282592	0.217277	0.002566
  60	2.9500e-02	0.5850	-14.599982	0.000333	3.334739	0.564920	0.006671
  61	3.0000e-02	0.6005	-14.541397	0.000586	5.857170	0.992232	0.011717
  62	3.0500e-02	0.6057	-14.486661	0.000547	5.472393	0.927048	0.010947
  63	3.1000e-02	0.6152	-14.446037	0.000406	4.061541	0.688044	0.008125
  64	3.1500e-02	0.6271	-14.401992	0.000440	4.403566	0.745984	0.008809
  65	3.2000e-02	0.6385	-14.365643	0.000363	3.634011	0.615618	0.007270
  66	3.2500e-02	0.6458	-14.318605	0.000470	4.702838	0.796682	0.009408
  67	3.3000e-02	0.6553	-14.272849	0.000457	4.574578	0.774955	0.009151
  68	3.3500e-02	0.6631	-14.211271	0.000616	6.156442	1.042929	0.012316
  69	3.4000e-02	0.6754	-14.183475	0.000278	2.778949	0.470767	0.005559
  70	3.4500e-02	0.6868	-14.127456	0.000560	5.600652	0.948776	0.011204
  71	3.5000e-02	0.6973	-14.105220	0.000222	2.223160	0.376613	0.004447
  72	3.5500e-02	0.7059	-14.055615	0.000496	4.959356	0.840138	0.009921
  73	3.6000e-02	0.7162	-14.009859	0.000457	4.574578	0.774955	0.009151
  74	3.6500e-02	0.7260	-13.929038	0.000808	8.080330	1.368845	0.016164
  75	3.7000e-02	0.7403	-13.903381	0.000257	2.565184	0.434554	0.005132
  76	3.7500e-02	0.7457	-13.861046	0.000423	4.232554	0.717014	0.008467
  77	3.8000e-02	0.7565	-13.812724	0.000483	4.831097	0.818410	0.009664
  78	3.8500e-02	0.7636	-13.775093	0.000376	3.762270	0.637346	0.007526
  79	3.9000e-02	0.7777	-13.749008	0.000261	2.607937	0.441797	0.005217
  80	3.9500e-02	0.7864	-13.687002	0.000620	6.199195	1.050172	0.012401
  81	4.0000e-02	0.7945	-13.630128	0.000569	5.686158	0.963261	0.011375
  82	4.0500e-02	0.8076	-13.587793	0.000423	4.232554	0.717014	0.008467
  83	4.1000e-02	0.8200	-13.548879	0.000389	3.890529	0.659073	0.007783
  84	4.1500e-02	0.8247	-13.497137	0.000517	5.173121	0.876350	0.010349
  85	4.2000e-02	0.8385	-13.462927	0.000342	3.420245	0.579405	0.006842
  86	4.2500e-02	0.8429	-13.397500	0.000654	6.541219	1.108113	0.013085
  87	4.3000e-02	0.8571	-13.368849	0.000286	2.864456	0.485252	0.005730
  88	4.3500e-02	0.8670	-13.312402	0.000564	5.643405	0.956019	0.011289
  89	4.4000e-02	0.8772	-13.273489	0.000389	3.890529	0.659073	0.007783
  90	4.4500e-02	0.8872	-13.232864	0.000406	4.061541	0.688044	0.008125
  91	4.5000e-02	0.8957	-13.200792	0.000321	3.206480	0.543192	0.006414
  92	4.5500e-02	0.9062	-13.134083	0.000667	6.669479	1.129840	0.013342
  93	4.6000e-02	0.9179	-13.102011	0.000321	3.206480	0.543192	0.006414
  94	4.6500e-02	0.9253	-13.063952	0.000381	3.805023	0.644588	0.007612
  95	4.7000e-02	0.9338	-13.024183	0.000398	3.976035	0.673559	0.007954
  96	4.7500e-02	0.9467	-12.972868	0.000513	5.130368	0.869108	0.010263
  97	4.8000e-02	0.9561	-12.915566	0.000573	5.728911	0.970504	0.011460
  98	4.8500e-02	0.9669	-12.878363	0.000372	3.719517	0.630103	0.007441
  99	4.9000e-02	0.9778	-12.844153	0.000342	3.420245	0.579405	0.006842
 100	4.9500e-02	0.9875	-12.781719	0.000624	6.241948	1.057415	0.012487
 101	5.0000e-02	0.9984	-12.759911	0.000218	2.180406	0.369371	0.004362
 102	5.0500e-02	1.0094	-12.698760	0.000611	6.113689	1.035687	0.012230
 103	5.1000e-02	1.0152	-12.668399	0.000304	3.035468	0.514222	0.006072
 104	5.1500e-02	1.0288	-12.625636	0.000428	4.275307	0.724257	0.008553
 105	5.2000e-02	1.0366	-12.575604	0.000500	5.002109	0.847380	0.010006
 106	5.2500e-02	1.0443	-12.526427	0.000492	4.916603	0.832895	0.009835
 107	5.3000e-02	1.0579	-12.489224	0.000372	3.719517	0.630103	0.007441
 108	5.3500e-02	1.0654	-12.437053	0.000522	5.215874	0.883593	0.010434
 109	5.4000e-02	1.0759	-12.378896	0.000581	5.814417	0.984989	0.011631
 110	5.4500e-02	1.0873	-12.365212	0.000137	1.368098	0.231762	0.002737
 111	5.5000e-02	1.0953	-12.318601	0.000466	4.660084	0.789440	0.009322
 112	5.5500e-02	1.1060	-12.250609	0.000680	6.797738	1.151568	0.013598
 113	5.6000e-02	1.1169	-12.225379	0.000252	2.522431	0.427311	0.005046
 114	5.6500e-02	1.1275	-12.195873	0.000295	2.949962	0.499737	0.005901
 115	5.7000e-02	1.1382	-12.119328	0.000765	7.652799	1.296419	0.015309
 116	5.7500e-02	1.1482	-12.095809	0.000235	2.351419	0.398341	0.004704
 117	5.8000e-02	1.1568	-12.042783	0.000530	5.301380	0.898078	0.010605
 118	5.8500e-02	1.1664	-12.003014	0.000398	3.976035	0.673559	0.007954
 119	5.9000e-02	1.1781	-11.955975	0.000470	4.702838	0.796682	0.009408
 120	5.9500e-02	1.1856	-11.916634	0.000393	3.933282	0.666316	0.007868
 121	6.0000e-02	1.1984	-11.872588	0.000440	4.403566	0.745984	0.008809
 122	6.0500e-02	1.2064	-11.840089	0.000325	3.249233	0.550435	0.006500
 123	6.1000e-02	1.2170	-11.775090	0.000650	6.498466	1.100870	0.013000
 124	6.1500e-02	1.2259	-11.738314	0.000368	3.676764	0.622861	0.007355
 125	6.2000e-02	1.2389	-11.695124	0.000432	4.318060	0.731499	0.008638
 126	6.2500e-02	1.2453	-11.661341	0.000338	3.377492	0.572163	0.006756
 127	6.3000e-02	1.2582	-11.608743	0.000526	5.258627	0.890836	0.010520
 128	6.3500e-02	1.2671	-11.588217	0.000205	2.052147	0.347643	0.004105
 129	6.4000e-02	1.2756	-11.518087	0.000701	7.011503	1.187781	0.014026
 130	6.4500e-02	1.2842	-11.458219	0.000599	5.985430	1.013959	0.011974
 131	6.5000e-02	1.2952	-11.435983	0.000222	2.223160	0.376613	0.004447
 132	6.5500e-02	1.3045	-11.396214	0.000398	3.976035	0.673559	0.007954
 133	6.6000e-02	1.3149	-11.356017	0.000402	4.018788	0.680801	0.008039
 134	6.6500e-02	1.3254	-11.316248	0.000398	3.976035	0.673559	0.007954
 135	6.7000e-02	1.3377	-11.253814	0.000624	6.241948	1.057415	0.012487
 136	6.7500e-02	1.3489	-11.218321	0.000355	3.548505	0.601133	0.007099
 137	6.8000e-02	1.3562	-11.178125	0.000402	4.018788	0.680801	0.008039
 138	6.8500e-02	1.3663	-11.132369	0.000457	4.574578	0.774955	0.009151
 139	6.9000e-02	1.3776	-11.087896	0.000445	4.446319	0.753227	0.008895
 140	6.9500e-02	1.3892	-11.043423	0.000445	4.446319	0.753227	0.008895
 141	7.0000e-02	1.3943	-10.999377	0.000440	4.403566	0.745984	0.008809
 142	7.0500e-02	1.4052	-10.951483	0.000479	4.788344	0.811167	0.009579
 143	7.1000e-02	1.4160	-10.920267	0.000312	3.120974	0.528707	0.006243
 144	7.1500e-02	1.4252	-10.862110	0.000581	5.814417	0.984989	0.011631
 145	7.2000e-02	1.4377	-10.850564	0.000115	1.154333	0.195549	0.002309
 146	7.2500e-02	1.4451	-10.793690	0.000569	5.686158	0.963261	0.011375
 147	7.3000e-02	1.4554	-10.752638	0.000410	4.104295	0.695286	0.008210
 148	7.3500e-02	1.4667	-10.708592	0.000440	4.403566	0.745984	0.008809
 149	7.4000e-02	1.4758	-10.666257	0.000423	4.232554	0.717014	0.008467
 150	7.4500e-02	1.4835	-10.628626	0.000376	3.762270	0.637346	0.007526
 151	7.5000e-02	1.4967	-10.575173	0.000534	5.344134	0.905321	0.010691
 152	7.5500e-02	1.5080	-10.541391	0.000338	3.377492	0.572163	0.006756
 153	7.6000e-02	1.5185	-10.501194	0.000402	4.018788	0.680801	0.008039
 154	7.6500e-02	1.5281	-10.447741	0.000534	5.344134	0.905321	0.010691
 155	7.7000e-02	1.5376	-10.407116	0.000406	4.061541	0.688044	0.008125
 156	7.7500e-02	1.5494	-10.363926	0.000432	4.318060	0.731499	0.008638
 157	7.8000e-02	1.5558	-10.319026	0.000449	4.489072	0.760469	0.008980
 158	7.8500e-02	1.5674	-10.287381	0.000316	3.163727	0.535950	0.006329
 159	7.9000e-02	1.5777	-10.249750	0.000376	3.762270	0.637346	0.007526
 160	7.9500e-02	1.5871	-10.207843	0.000419	4.189801	0.709771	0.008381
 161	8.0000e-02	1.5986	-10.140706	0.000671	6.712232	1.137083	0.013427
 162	8.0500e-02	1.6055	-10.109489	0.000312	3.120974	0.528707	0.006243
 163	8.1000e-02	1.6171	-10.050049	0.000594	5.942676	1.006717	0.011888
 164	8.1500e-02	1.6273	-10.011563	0.000385	3.847776	0.651831	0.007697
 165	8.2000e-02	1.6380	-9.953406	0.000581	5.814417	0.984989	0.011631
 166	8.2500e-02	1.6455	-9.929031	0.000244	2.436925	0.412826	0.004875
 167	8.3000e-02	1.6547	-9.890973	0.000381	3.805023	0.644588	0.007612
 168	8.3500e-02	1.6669	-9.850348	0.000406	4.061541	0.688044	0.008125
 169	8.4000e-02	1.6771	-9.797750	0.000526	5.258627	0.890836	0.010520
 170	8.4500e-02	1.6873	-9.762685	0.000351	3.505752	0.593890	0.007013
 171	8.5000e-02	1.6943	-9.736172	0.000265	2.650690	0.449039	0.005303
 172	8.5500e-02	1.7073	-9.676305	0.000599	5.985430	1.013959	0.011974
 173	8.6000e-02	1.7121	-9.627555	0.000487	4.873850	0.825653	0.009750
 174	8.6500e-02	1.7252	-9.590780	0.000368	3.676764	0.622861	0.007355
 175	8.7000e-02	1.7372	-9.548872	0.000419	4.189801	0.709771	0.008381
 176	8.7500e-02	1.7470	-9.518939	0.000299	2.992715	0.506980	0.005987
 177	8.8000e-02	1.7563	-9.489005	0.000299	2.992715	0.506980	0.005987
 178	8.8500e-02	1.7664	-9.431703	0.000573	5.728911	0.970504	0.011460
 179	8.9000e-02	1.7770	-9.393644	0.000381	3.805023	0.644588	0.007612
 180	8.9500e-02	1.7846	-9.358152	0.000355	3.548505	0.601133	0.007099
 181	9.0000e-02	1.7955	-9.316244	0.000419	4.189801	0.709771	0.008381
 182	9.0500e-02	1.8063	-9.267495	0.000487	4.873850	0.825653	0.009750
 183	9.1000e-02	1.8150	-9.209338	0.000581	5.814417	0.984989	0.011631
 184	9.1500e-02	1.8256	-9.187957	0.000214	2.137653	0.362128	0.004276
 185	9.2000e-02	1.8363	-9.140063	0.000479	4.788344	0.811167	0.009579
 186	9.2500e-02	1.8469	-9.099011	0.000410	4.104295	0.695286	0.008210
 187	9.3000e-02	1.8549	-9.037433	0.000616	6.156442	1.042929	0.012316
 188	9.3500e-02	1.8671	-9.008782	0.000286	2.864456	0.485252	0.005730
 189	9.4000e-02	1.8752	-8.950197	0.000586	5.857170	0.992232	0.011717
 190	9.4500e-02	1.8900	-8.935230	0.000150	1.496357	0.253490	0.002993
 191	9.5000e-02	1.8965	-8.881777	0.000534	5.344134	0.905321	0.010691
 192	9.5500e-02	1.9056	-8.847567	0.000342	3.420245	0.579405	0.006842
 193	9.6000e-02	1.9154	-8.787699	0.000599	5.985430	1.013959	0.011974
 194	9.6500e-02	1.9247	-8.766746	0.000209	2.094900	0.354886	0.004191
 195	9.7000e-02	1.9357	-8.721845	0.000449	4.489072	0.760469	0.008980
 196	9.7500e-02	1.9479	-8.677800	0.000440	4.403566	0.745984	0.008809
 197	9.8000e-02	1.9551	-8.641452	0.000363	3.634011	0.615618	0.007270
 198	9.8500e-02	1.9664	-8.587998	0.000534	5.344134	0.905321	0.010691
 199	9.9000e-02	1.9797	-8.538821	0.000492	4.916603	0.832895	0.009835
 200	9.9500e-02	1.9874	-8.531552	0.000073	0.726802	0.123124	0.001454
 201	1.0000e-01	1.9965	-8.461849	0.000697	6.968750	1.180538	0.013941
 202	1.0050e-01	2.0067	-8.444744	0.000171	1.710123	0.289703	0.003421
 203	1.0100e-01	2.0172	-8.390436	0.000543	5.429640	0.919806	0.010862
 204	1.0150e-01	2.0264	-8.353660	0.000368	3.676764	0.622861	0.007355
 205	1.0200e-01	2.0356	-8.304910	0.000487	4.873850	0.825653	0.009750
 206	1.0250e-01	2.0459	-8.267279	0.000376	3.762270	0.637346	0.007526
 207	1.0300e-01	2.0554	-8.241194	0.000261	2.607937	0.441797	0.005217
 208	1.0350e-01	2.0653	-8.175768	0.000654	6.541219	1.108113	0.013085
 209	1.0400e-01	2.0797	-8.151821	0.000239	2.394172	0.405584	0.004789
 210	1.0450e-01	2.0846	-8.120176	0.000316	3.163727	0.535950	0.006329
 211	1.0500e-01	2.0974	-8.049618	0.000705	7.054256	1.195023	0.014112
 212	1.0550e-01	2.1074	-8.015836	0.000338	3.377492	0.572163	0.006756
 213	1.0600e-01	2.1212	-7.974784	0.000410	4.104295	0.695286	0.008210
 214	1.0650e-01	2.1255	-7.950837	0.000239	2.394172	0.405584	0.004789
 215	1.0700e-01	2.1351	-7.907647	0.000432	4.318060	0.731499	0.008638
 216	1.0750e-01	2.1484	-7.848207	0.000594	5.942676	1.006717	0.011888
 217	1.0800e-01	2.1564	-7.806299	0.000419	4.189801	0.709771	0.008381
 218	1.0850e-01	2.1675	-7.769951	0.000363	3.634011	0.615618	0.007270
 219	1.0900e-01	2.1776	-7.737452	0.000325	3.249233	0.550435	0.006500
 220	1.0950e-01	2.1875	-7.698965	0.000385	3.847776	0.651831	0.007697
 221	1.1000e-01	2.1964	-7.647223	0.000517	5.173121	0.876350	0.010349
 222	1.1050e-01	2.2049	-7.609592	0.000376	3.762270	0.637346	0.007526
 223	1.1100e-01	2.2154	-7.578803	0.000308	3.078221	0.521465	0.006158
 224	1.1150e-01	2.2244	-7.527060	0.000517	5.173121	0.876350	0.010349
 225	1.1200e-01	2.2369	-7.502258	0.000248	2.479678	0.420069	0.004960
 226	1.1250e-01	2.2491	-7.453509	0.000487	4.873850	0.825653	0.009750
 227	1.1300e-01	2.2565	-7.408180	0.000453	4.531825	0.767712	0.009066
 228	1.1350e-01	2.2678	-7.361569	0.000466	4.660084	0.789440	0.009322
 229	1.1400e-01	2.2736	-7.319234	0.000423	4.232554	0.717014	0.008467
 230	1.1450e-01	2.2876	-7.302984	0.000162	1.624617	0.275218	0.003250
 231	1.1500e-01	2.2949	-7.239268	0.000637	6.370207	1.079142	0.012743
 232	1.1550e-01	2.3061	-7.217887	0.000214	2.137653	0.362128	0.004276
 233	1.1600e-01	2.3169	-7.176407	0.000415	4.147048	0.702529	0.008296
 234	1.1650e-01	2.3254	-7.122527	0.000539	5.386887	0.912563	0.010776
 235	1.1700e-01	2.3363	-7.092593	0.000299	2.992715	0.506980	0.005987
 236	1.1750e-01	2.3468	-7.035719	0.000569	5.686158	0.963261	0.011375
 237	1.1800e-01	2.3573	-7.005357	0.000304	3.035468	0.514222	0.006072
 238	1.1850e-01	2.3671	-6.957463	0.000479	4.788344	0.811167	0.009579
 239	1.1900e-01	2.3727	-6.927529	0.000299	2.992715	0.506980	0.005987
 240	1.1950e-01	2.3865	-6.886905	0.000406	4.061541	0.688044	0.008125
 241	1.2000e-01	2.3953	-6.847564	0.000393	3.933282	0.666316	0.007868
 242	1.2050e-01	2.4046	-6.809077	0.000385	3.847776	0.651831	0.007697
 243	1.2100e-01	2.4191	-6.780854	0.000282	2.821703	0.478009	0.005645
 244	1.2150e-01	2.4292	-6.723980	0.000569	5.686158	0.963261	0.011375
 245	1.2200e-01	2.4391	-6.673092	0.000509	5.087615	0.861865	0.010177
 246	1.2250e-01	2.4483	-6.649145	0.000239	2.394172	0.405584	0.004789
 247	1.2300e-01	2.4565	-6.607666	0.000415	4.147048	0.702529	0.008296
 248	1.2350e-01	2.4684	-6.564048	0.000436	4.360813	0.738742	0.008724
 249	1.2400e-01	2.4780	-6.503753	0.000603	6.028183	1.021202	0.012059
 250	1.2450e-01	2.4860	-6.481089	0.000227	2.265913	0.383856	0.004533
 251	1.2500e-01	2.4985	-6.428063	0.000530	5.301380	0.898078	0.010605
 252	1.2550e-01	2.5076	-6.411386	0.000167	1.667370	0.282460	0.003335
 253	1.2600e-01	2.5185	-6.357933	0.000534	5.344134	0.905321	0.010691
 254	1.2650e-01	2.5311	-6.316025	0.000419	4.189801	0.709771	0.008381
 255	1.2700e-01	2.5348	-6.283953	0.000321	3.206480	0.543192	0.006414
 256	1.2750e-01	2.5467	-6.247178	0.000368	3.676764	0.622861	0.007355
 257	1.2800e-01	2.5589	-6.212968	0.000342	3.420245	0.579405	0.006842
 258	1.2850e-01	2.5687	-6.156949	0.000560	5.600652	0.948776	0.011204
 259	1.2900e-01	2.5775	-6.151817	0.000051	0.513037	0.086911	0.001026
 260	1.2950e-01	2.5874	-6.081687	0.000701	7.011503	1.187781	0.014026
 261	1.3000e-01	2.5995	-6.038924	0.000428	4.275307	0.724257	0.008553
 262	1.3050e-01	2.6071	-5.985899	0.000530	5.301380	0.898078	0.010605
 263	1.3100e-01	2.6167	-5.966655	0.000192	1.923888	0.325915	0.003849
 264	1.3150e-01	2.6279	-5.929452	0.000372	3.719517	0.630103	0.007441
 265	1.3200e-01	2.6367	-5.898235	0.000312	3.120974	0.528707	0.006243
 266	1.3250e-01	2.6462	-5.843499	0.000547	5.472393	0.927048	0.010947
 267	1.3300e-01	2.6583	-5.805441	0.000381	3.805023	0.644588	0.007612
 268	1.3350e-01	2.6685	-5.776362	0.000291	2.907209	0.492494	0.005816
 269	1.3400e-01	2.6787	-5.727185	0.000492	4.916603	0.832895	0.009835
 270	1.3450e-01	2.6838	-5.681429	0.000457	4.574578	0.774955	0.009151
 271	1.3500e-01	2.6987	-5.646364	0.000351	3.505752	0.593890	0.007013
 272	1.3550e-01	2.7066	-5.616003	0.000304	3.035468	0.514222	0.006072
 273	1.3600e-01	2.7162	-5.577944	0.000381	3.805023	0.644588	0.007612
 274	1.3650e-01	2.7264	-5.530478	0.000475	4.745591	0.803925	0.009493
 275	1.3700e-01	2.7362	-5.502254	0.000282	2.821703	0.478009	0.005645
 276	1.3750e-01	2.7443	-5.458209	0.000440	4.403566	0.745984	0.008809
 277	1.3800e-01	2.7551	-5.419295	0.000389	3.890529	0.659073	0.007783
 278	1.3850e-01	2.7681	-5.377388	0.000419	4.189801	0.709771	0.008381
 279	1.3900e-01	2.7792	-5.354296	0.000231	2.308666	0.391099	0.004618
 280	1.3950e-01	2.7870	-5.295284	0.000590	5.899923	0.999474	0.011802
 281	1.4000e-01	2.7948	-5.255515	0.000398	3.976035	0.673559	0.007954
 282	1.4050e-01	2.8040	-5.222160	0.000333	3.334739	0.564920	0.006671
 283	1.4100e-01	2.8143	-5.177687	0.000445	4.446319	0.753227	0.008895
 284	1.4150e-01	2.8250	-5.142622	0.000351	3.505752	0.593890	0.007013
 285	1.4200e-01	2.8357	-5.116964	0.000257	2.565184	0.434554	0.005132
 286	1.4250e-01	2.8488	-5.060090	0.000569	5.686158	0.963261	0.011375
 287	1.4300e-01	2.8564	-5.013906	0.000462	4.617331	0.782197	0.009237
 288	1.4350e-01	2.8694	-4.976703	0.000372	3.719517	0.630103	0.007441
 289	1.4400e-01	2.8766	-4.950190	0.000265	2.650690	0.449039	0.005303
 290	1.4450e-01	2.8883	-4.910421	0.000398	3.976035	0.673559	0.007954
 291	1.4500e-01	2.8937	-4.857823	0.000526	5.258627	0.890836	0.010520
 292	1.4550e-01	2.9091	-4.829600	0.000282	2.821703	0.478009	0.005645
 293	1.4600e-01	2.9185	-4.783416	0.000462	4.617331	0.782197	0.009237
 294	1.4650e-01	2.9294	-4.747923	0.000355	3.548505	0.601133	0.007099
 295	1.4700e-01	2.9384	-4.716707	0.000312	3.120974	0.528707	0.006243
 296	1.4750e-01	2.9465	-4.659833	0.000569	5.686158	0.963261	0.011375
 297	1.4800e-01	2.9590	-4.626050	0.000338	3.377492	0.572163	0.006756
 298	1.4850e-01	2.9648	-4.595261	0.000308	3.078221	0.521465	0.006158
 299	1.4900e-01	2.9782	-4.552499	0.000428	4.275307	0.724257	0.008553
 300	1.4950e-01	2.9883	-4.516578	0.000359	3.591258	0.608376	0.007184
 301	1.5000e-01	2.9981	-4.488783	0.000278	2.778949	0.470767	0.005559
 302	1.5050e-01	3.0078	-4.452862	0.000359	3.591258	0.608376	0.007184
 303	1.5100e-01	3.0157	-4.413093	0.000398	3.976035	0.673559	0.007954
 304	1.5150e-01	3.0296	-4.381449	0.000316	3.163727	0.535950	0.006329
 305	1.5200e-01	3.0380	-4.340397	0.000410	4.104295	0.695286	0.008210
 306	1.5250e-01	3.0469	-4.289082	0.000513	5.130368	0.869108	0.010263
 307	1.5300e-01	3.0597	-4.265990	0.000231	2.308666	0.391099	0.004618
 308	1.5350e-01	3.0673	-4.214247	0.000517	5.173121	0.876350	0.010349
 309	1.5400e-01	3.0756	-4.190300	0.000239	2.394172	0.405584	0.004789
 310	1.5450e-01	3.0862	-4.142406	0.000479	4.788344	0.811167	0.009579
 311	1.5500e-01	3.0966	-4.110762	0.000316	3.163727	0.535950	0.006329
 312	1.5550e-01	3.1045	-4.049184	0.000616	6.156442	1.042929	0.012316
 313	1.5600e-01	3.1180	-3.997441	0.000517	5.173121	0.876350	0.010349
 314	1.5650e-01	3.1298	-3.979481	0.000180	1.795629	0.304188	0.003592
 315	1.5700e-01	3.1380	-3.959382	0.000201	2.009394	0.340401	0.004020
 316	1.5750e-01	3.1464	-3.917903	0.000415	4.147048	0.702529	0.008296
 317	1.5800e-01	3.1577	-3.878989	0.000389	3.890529	0.659073	0.007783
 318	1.5850e-01	3.1659	-3.834516	0.000445	4.446319	0.753227	0.008895
 319	1.5900e-01	3.1757	-3.796457	0.000381	3.805023	0.644588	0.007612
 320	1.5950e-01	3.1865	-3.761820	0.000346	3.462999	0.586648	0.006928
 321	1.6000e-01	3.1986	-3.736162	0.000257	2.565184	0.434554	0.005132
 322	1.6050e-01	3.2103	-3.677150	0.000590	5.899923	0.999474	0.011802
 323	1.6100e-01	3.2167	-3.642084	0.000351	3.505752	0.593890	0.007013
 324	1.6150e-01	3.2281	-3.606592	0.000355	3.548505	0.601133	0.007099
 325	1.6200e-01	3.2373	-3.571954	0.000346	3.462999	0.586648	0.006928
 326	1.6250e-01	3.2483	-3.541593	0.000304	3.035468	0.514222	0.006072
 327	1.6300e-01	3.2581	-3.496264	0.000453	4.531825	0.767712	0.009066
 328	1.6350e-01	3.2660	-3.453074	0.000432	4.318060	0.731499	0.008638
 329	1.6400e-01	3.2758	-3.412022	0.000410	4.104295	0.695286	0.008210
 330	1.6450e-01	3.2876	-3.372681	0.000393	3.933282	0.666316	0.007868
 331	1.6500e-01	3.2976	-3.332484	0.000402	4.018788	0.680801	0.008039
 332	1.6550e-01	3.3078	-3.295708	0.000368	3.676764	0.622861	0.007355
 333	1.6600e-01	3.3197	-3.273044	0.000227	2.265913	0.383856	0.004533
 334	1.6650e-01	3.3281	-3.223012	0.000500	5.002109	0.847380	0.010006
 335	1.6700e-01	3.3411	-3.173835	0.000492	4.916603	0.832895	0.009835
 336	1.6750e-01	3.3463	-3.155875	0.000180	1.795629	0.304188	0.003592
 337	1.6800e-01	3.3588	-3.122520	0.000333	3.334739	0.564920	0.006671
 338	1.6850e-01	3.3676	-3.073343	0.000492	4.916603	0.832895	0.009835
 339	1.6900e-01	3.3762	-3.034429	0.000389	3.890529	0.659073	0.007783
 340	1.6950e-01	3.3894	-2.998936	0.000355	3.548505	0.601133	0.007099
 341	1.7000e-01	3.3955	-2.951897	0.000470	4.702838	0.796682	0.009408
 342	1.7050e-01	3.4061	-2.931371	0.000205	2.052147	0.347643	0.004105
 343	1.7100e-01	3.4145	-2.899727	0.000316	3.163727	0.535950	0.006329
 344	1.7150e-01	3.4250	-2.844136	0.000556	5.557899	0.941534	0.011118
 345	1.7200e-01	3.4363	-2.833873	0.000103	1.026074	0.173822	0.002053
 346	1.7250e-01	3.4464	-2.763315	0.000705	7.054256	1.195023	0.014112
 347	1.7300e-01	3.4579	-2.743216	0.000201	2.009394	0.340401	0.004020
 348	1.7350e-01	3.4668	-2.681210	0.000620	6.199195	1.050172	0.012401
 349	1.7400e-01	3.4781	-2.655125	0.000261	2.607937	0.441797	0.005217
 350	1.7450e-01	3.4854	-2.637165	0.000180	1.795629	0.304188	0.003592
 351	1.7500e-01	3.4949	-2.572166	0.000650	6.498466	1.100870	0.013000
 352	1.7550e-01	3.5086	-2.548647	0.000235	2.351419	0.398341	0.004704
 353	1.7600e-01	3.5156	-2.509305	0.000393	3.933282	0.666316	0.007868
 354	1.7650e-01	3.5280	-2.465260	0.000440	4.403566	0.745984	0.008809
 355	1.7700e-01	3.5358	-2.423780	0.000415	4.147048	0.702529	0.008296
 356	1.7750e-01	3.5474	-2.423352	0.000004	0.042753	0.007243	0.000086
 357	1.7800e-01	3.5573	-2.374603	0.000487	4.873850	0.825653	0.009750
 358	1.7850e-01	3.5675	-2.333551	0.000410	4.104295	0.695286	0.008210
 359	1.7900e-01	3.5782	-2.284374	0.000492	4.916603	0.832895	0.009835
 360	1.7950e-01	3.5861	-2.236480	0.000479	4.788344	0.811167	0.009579
 361	1.8000e-01	3.5965	-2.231349	0.000051	0.513037	0.086911	0.001026
 362	1.8050e-01	3.6086	-2.177468	0.000539	5.386887	0.912563	0.010776
 363	1.8100e-01	3.6163	-2.156087	0.000214	2.137653	0.362128	0.004276
 364	1.8150e-01	3.6292	-2.106482	0.000496	4.959356	0.840138	0.009921
 365	1.8200e-01	3.6366	-2.063720	0.000428	4.275307	0.724257	0.008553
 366	1.8250e-01	3.6440	-2.020102	0.000436	4.360813	0.738742	0.008724
 367	1.8300e-01	3.6549	-2.003852	0.000162	1.624617	0.275218	0.003250
 368	1.8350e-01	3.6656	-1.964511	0.000393	3.933282	0.666316	0.007868
 369	1.8400e-01	3.6761	-1.937142	0.000274	2.736196	0.463524	0.005474
 370	1.8450e-01	3.6874	-1.895663	0.000415	4.147048	0.702529	0.008296
 371	1.8500e-01	3.6987	-1.835795	0.000599	5.985430	1.013959	0.011974
 372	1.8550e-01	3.7061	-1.823394	0.000124	1.239839	0.210034	0.002480
 373	1.8600e-01	3.7159	-1.784053	0.000393	3.933282	0.666316	0.007868
 374	1.8650e-01	3.7257	-1.740435	0.000436	4.360813	0.738742	0.008724
 375	1.8700e-01	3.7344	-1.712212	0.000282	2.821703	0.478009	0.005645
 376	1.8750e-01	3.7465	-1.669021	0.000432	4.318060	0.731499	0.008638
 377	1.8800e-01	3.7592	-1.630963	0.000381	3.805023	0.644588	0.007612
 378	1.8850e-01	3.7665	-1.597608	0.000333	3.334739	0.564920	0.006671
 379	1.8900e-01	3.7740	-1.558694	0.000389	3.890529	0.659073	0.007783
 380	1.8950e-01	3.7871	-1.514649	0.000440	4.403566	0.745984	0.008809
 381	1.9000e-01	3.7952	-1.470603	0.000440	4.403566	0.745984	0.008809
 382	1.9050e-01	3.8063	-1.446656	0.000239	2.394172	0.405584	0.004789
 383	1.9100e-01	3.8153	-1.416723	0.000299	2.992715	0.506980	0.005987
 384	1.9150e-01	3.8270	-1.366263	0.000504	5.044862	0.854623	0.010092
 385	1.9200e-01	3.8370	-1.343599	0.000227	2.265913	0.383856	0.004533
 386	1.9250e-01	3.8458	-1.312382	0.000312	3.120974	0.528707	0.006243
 387	1.9300e-01	3.8525	-1.262350	0.000500	5.002109	0.847380	0.010006
 388	1.9350e-01	3.8657	-1.239686	0.000227	2.265913	0.383856	0.004533
 389	1.9400e-01	3.8779	-1.199489	0.000402	4.018788	0.680801	0.008039
 390	1.9450e-01	3.8861	-1.143470	0.000560	5.600652	0.948776	0.011204
 391	1.9500e-01	3.8945	-1.113964	0.000295	2.949962	0.499737	0.005901
 392	1.9550e-01	3.9075	-1.088734	0.000252	2.522431	0.427311	0.005046
 393	1.9600e-01	3.9185	-1.044689	0.000440	4.403566	0.745984	0.008809
 394	1.9650e-01	3.9273	-1.024590	0.000201	2.009394	0.340401	0.004020
 395	1.9700e-01	3.9392	-0.985676	0.000389	3.890529	0.659073	0.007783
 396	1.9750e-01	3.9484	-0.960874	0.000248	2.479678	0.420069	0.004960
 397	1.9800e-01	3.9569	-0.891171	0.000697	6.968750	1.180538	0.013941
 398	1.9850e-01	3.9685	-0.851830	0.000393	3.933282	0.666316	0.007868
 399	1.9900e-01	3.9734	-0.820613	0.000312	3.120974	0.528707	0.006243
 400	1.9950e-01	3.9833	-0.800515	0.000201	2.009394	0.340401	0.004020
 401	2.0000e-01	3.9970	-0.768443	0.000321	3.206480	0.543192	0.006414
 402	2.0050e-01	4.0053	-0.731239	0.000372	3.719517	0.630103	0.007441
 403	2.0100e-01	4.0161	-0.696602	0.000346	3.462999	0.586648	0.006928
 404	2.0150e-01	4.0247	-0.652129	0.000445	4.446319	0.753227	0.008895
 405	2.0200e-01	4.0356	-0.613215	0.000389	3.890529	0.659073	0.007783
 406	2.0250e-01	4.0454	-0.588412	0.000248	2.479678	0.420069	0.004960
 407	2.0300e-01	4.0553	-0.564038	0.000244	2.436925	0.412826	0.004875
 408	2.0350e-01	4.0669	-0.501177	0.000628	6.284701	1.064657	0.012572
 409	2.0400e-01	4.0797	-0.465684	0.000355	3.548505	0.601133	0.007099
 410	2.0450e-01	4.0851	-0.426342	0.000393	3.933282	0.666316	0.007868
 411	2.0500e-01	4.0994	-0.392132	0.000342	3.420245	0.579405	0.006842
 412	2.0550e-01	4.1150	-0.367330	0.000248	2.479678	0.420069	0.004960
 413	2.0600e-01	4.1168	-0.333975	0.000333	3.334739	0.564920	0.006671
 414	2.0650e-01	4.1272	-0.278384	0.000556	5.557899	0.941534	0.011118
 415	2.0700e-01	4.1376	-0.247595	0.000308	3.078221	0.521465	0.006158
 416	2.0750e-01	4.1458	-0.210819	0.000368	3.676764	0.622861	0.007355
 417	2.0800e-01	4.1542	-0.190721	0.000201	2.009394	0.340401	0.004020
 418	2.0850e-01	4.1670	-0.145393	0.000453	4.531825	0.767712	0.009066
 419	2.0900e-01	4.1776	-0.128715	0.000167	1.667370	0.282460	0.003335
 420	2.0950e-01	4.1872	-0.105623	0.000231	2.308666	0.391099	0.004618
 421	2.1000e-01	4.1956	-0.034210	0.000714	7.139762	1.209508	0.014283
 422	2.1050e-01	4.2045	-0.030361	0.000038	0.384778	0.065183	0.000770
 423	2.1100e-01	4.2175	0.028651	0.000590	5.899923	0.999474	0.011802
 424	2.1150e-01	4.2267	0.050887	0.000222	2.223160	0.376613	0.004447
 425	2.1200e-01	4.2365	0.087663	0.000368	3.676764	0.622861	0.007355
 426	2.1250e-01	4.2460	0.125722	0.000381	3.805023	0.644588	0.007612
 427	2.1300e-01	4.2594	0.184306	0.000586	5.857170	0.992232	0.011717
 428	2.1350e-01	4.2696	0.207398	0.000231	2.308666	0.391099	0.004618
 429	2.1400e-01	4.2767	0.225359	0.000180	1.795629	0.304188	0.003592
 430	2.1450e-01	4.2862	0.271542	0.000462	4.617331	0.782197	0.009237
 431	2.1500e-01	4.2960	0.315587	0.000440	4.403566	0.745984	0.008809
 432	2.1550e-01	4.3097	0.349370	0.000338	3.377492	0.572163	0.006756
 433	2.1600e-01	4.3164	0.378448	0.000291	2.907209	0.492494	0.005816
 434	2.1650e-01	4.3314	0.429336	0.000509	5.087615	0.861865	0.010177
 435	2.1700e-01	4.3396	0.440026	0.000107	1.068827	0.181064	0.002138
 436	2.1750e-01	4.3486	0.477657	0.000376	3.762270	0.637346	0.007526
 437	2.1800e-01	4.3575	0.521275	0.000436	4.360813	0.738742	0.008724
 438	2.1850e-01	4.3684	0.545222	0.000239	2.394172	0.405584	0.004789
 439	2.1900e-01	4.3767	0.578577	0.000333	3.334739	0.564920	0.006671
 440	2.1950e-01	4.3880	0.627754	0.000492	4.916603	0.832895	0.009835
 441	2.2000e-01	4.3991	0.644859	0.000171	1.710123	0.289703	0.003421
 442	2.2050e-01	4.4068	0.682918	0.000381	3.805023	0.644588	0.007612
 443	2.2100e-01	4.4180	0.734660	0.000517	5.173121	0.876350	0.010349
 444	2.2150e-01	4.4270	0.750910	0.000162	1.624617	0.275218	0.003250
 445	2.2200e-01	4.4360	0.798804	0.000479	4.788344	0.811167	0.009579
 446	2.2250e-01	4.4467	0.826172	0.000274	2.736196	0.463524	0.005474
 447	2.2300e-01	4.4556	0.869790	0.000436	4.360813	0.738742	0.008724
 448	2.2350e-01	4.4678	0.904427	0.000346	3.462999	0.586648	0.006928
 449	2.2400e-01	4.4791	0.926236	0.000218	2.180406	0.369371	0.004362
 450	2.2450e-01	4.4904	0.966433	0.000402	4.018788	0.680801	0.008039
 451	2.2500e-01	4.4962	1.008340	0.000419	4.189801	0.709771	0.008381
 452	2.2550e-01	4.5081	1.049820	0.000415	4.147048	0.702529	0.008296
 453	2.2600e-01	4.5175	1.081464	0.000316	3.163727	0.535950	0.006329
 454	2.2650e-01	4.5264	1.110115	0.000286	2.864456	0.485252	0.005730
 455	2.2700e-01	4.5361	1.140477	0.000304	3.035468	0.514222	0.006072
 456	2.2750e-01	4.5470	1.191364	0.000509	5.087615	0.861865	0.010177
 457	2.2800e-01	4.5593	1.202055	0.000107	1.068827	0.181064	0.002138
 458	2.2850e-01	4.5673	1.258074	0.000560	5.600652	0.948776	0.011204
 459	2.2900e-01	4.5795	1.281593	0.000235	2.351419	0.398341	0.004704
 460	2.2950e-01	4.5898	1.310671	0.000291	2.907209	0.492494	0.005816
 461	2.3000e-01	4.5996	1.373105	0.000624	6.241948	1.057415	0.012487
 462	2.3050e-01	4.6072	1.392776	0.000197	1.966641	0.333158	0.003934
 463	2.3100e-01	4.6193	1.409881	0.000171	1.710123	0.289703	0.003421
 464	2.3150e-01	4.6265	1.463761	0.000539	5.386887	0.912563	0.010776
 465	2.3200e-01	4.6375	1.485143	0.000214	2.137653	0.362128	0.004276
 466	2.3250e-01	4.6492	1.529616	0.000445	4.446319	0.753227	0.008895
 467	2.3300e-01	4.6582	1.566391	0.000368	3.676764	0.622861	0.007355
 468	2.3350e-01	4.6680	1.615141	0.000487	4.873850	0.825653	0.009750
 469	2.3400e-01	4.6772	1.634384	0.000192	1.923888	0.325915	0.003849
 470	2.3450e-01	4.6864	1.655337	0.000209	2.094900	0.354886	0.004191
 471	2.3500e-01	4.6985	1.691258	0.000359	3.591258	0.608376	0.007184
 472	2.3550e-01	4.7073	1.731455	0.000402	4.018788	0.680801	0.008039
 473	2.3600e-01	4.7186	1.757112	0.000257	2.565184	0.434554	0.005132
 474	2.3650e-01	4.7272	1.790467	0.000333	3.334739	0.564920	0.006671
 475	2.3700e-01	4.7382	1.826815	0.000363	3.634011	0.615618	0.007270
 476	2.3750e-01	4.7462	1.877275	0.000504	5.044862	0.854623	0.010092
 477	2.3800e-01	4.7556	1.901650	0.000244	2.436925	0.412826	0.004875
 478	2.3850e-01	4.7662	1.941419	0.000398	3.976035	0.673559	0.007954
 479	2.3900e-01	4.7792	1.950399	0.000090	0.897814	0.152094	0.001796
 480	2.3950e-01	4.7864	2.001714	0.000513	5.130368	0.869108	0.010263
 481	2.4000e-01	4.7955	2.039773	0.000381	3.805023	0.644588	0.007612
 482	2.4050e-01	4.8083	2.085528	0.000457	4.574578	0.774955	0.009151
 483	2.4100e-01	4.8181	2.118456	0.000329	3.291986	0.557678	0.006585
 484	2.4150e-01	4.8286	2.142830	0.000244	2.436925	0.412826	0.004875
 485	2.4200e-01	4.8370	2.176185	0.000333	3.334739	0.564920	0.006671
 486	2.4250e-01	4.8482	2.203981	0.000278	2.778949	0.470767	0.005559
 487	2.4300e-01	4.8590	2.242895	0.000389	3.890529	0.659073	0.007783
 488	2.4350e-01	4.8671	2.273256	0.000304	3.035468	0.514222	0.006072
 489	2.4400e-01	4.8785	2.296775	0.000235	2.351419	0.398341	0.004704
 490	2.4450e-01	4.8859	2.349373	0.000526	5.258627	0.890836	0.010520
 491	2.4500e-01	4.8950	2.379735	0.000304	3.035468	0.514222	0.006072
 492	2.4550e-01	4.9072	2.403682	0.000239	2.394172	0.405584	0.004789
 493	2.4600e-01	4.9194	2.461411	0.000577	5.771664	0.977746	0.011546
 494	2.4650e-01	4.9277	2.471674	0.000103	1.026074	0.173822	0.002053
 495	2.4700e-01	4.9387	2.506739	0.000351	3.505752	0.593890	0.007013
 496	2.4750e-01	4.9478	2.540522	0.000338	3.377492	0.572163	0.006756
 497	2.4800e-01	4.9609	2.576015	0.000355	3.548505	0.601133	0.007099
 498	2.4850e-01	4.9692	2.604238	0.000282	2.821703	0.478009	0.005645
 499	2.4900e-01	4.9780	2.654698	0.000504	5.044862	0.854623	0.010092
 500	2.4950e-01	4.9872	2.679072	0.000244	2.436925	0.412826	0.004875
 501	2.5000e-01	4.9982	2.707723	0.000286	2.864456	0.485252	0.005730
 502	2.5050e-01	5.0056	2.762032	0.000543	5.429640	0.919806	0.010862
 503	2.5100e-01	5.0166	2.784696	0.000227	2.265913	0.383856	0.004533
 504	2.5150e-01	5.0272	2.796242	0.000115	1.154333	0.195549	0.002309
 505	2.5200e-01	5.0381	2.848840	0.000526	5.258627	0.890836	0.010520
 506	2.5250e-01	5.0513	2.865089	0.000162	1.624617	0.275218	0.003250
 507	2.5300e-01	5.0598	2.926667	0.000616	6.156442	1.042929	0.012316
 508	2.5350e-01	5.0677	2.953180	0.000265	2.650690	0.449039	0.005303
 509	2.5400e-01	5.0754	2.965581	0.000124	1.239839	0.210034	0.002480
 510	2.5450e-01	5.0854	3.030153	0.000646	6.455713	1.093627	0.012914
 511	2.5500e-01	5.0989	3.036995	0.000068	0.684049	0.115881	0.001368
 512	2.5550e-01	5.1074	3.097717	0.000607	6.070936	1.028444	0.012145
 513	2.5600e-01	5.1181	3.116961	0.000192	1.923888	0.325915	0.003849
 514	2.5650e-01	5.1277	3.148177	0.000312	3.120974	0.528707	0.006243
 515	2.5700e-01	5.1379	3.181960	0.000338	3.377492	0.572163	0.006756
 516	2.5750e-01	5.1465	3.206334	0.000244	2.436925	0.412826	0.004875
 517	2.5800e-01	5.1556	3.254228	0.000479	4.788344	0.811167	0.009579
 518	2.5850e-01	5.1672	3.266202	0.000120	1.197086	0.202792	0.002395
 519	2.5900e-01	5.1776	3.302550	0.000363	3.634011	0.615618	0.007270
 520	2.5950e-01	5.1913	3.348306	0.000457	4.574578	0.774955	0.009151
 521	2.6000e-01	5.1978	3.393634	0.000453	4.531825	0.767712	0.009066
 522	2.6050e-01	5.2075	3.391068	-0.000026	-0.256518	-0.043455	-0.000513
 523	2.6100e-01	5.2161	3.425278	0.000342	3.420245	0.579405	0.006842
 524	2.6150e-01	5.2231	3.493271	0.000680	6.797738	1.151568	0.013598
 525	2.6200e-01	5.2364	3.503962	0.000107	1.068827	0.181064	0.002138
 526	2.6250e-01	5.2460	3.543731	0.000398	3.976035	0.673559	0.007954
 527	2.6300e-01	5.2570	3.577941	0.000342	3.420245	0.579405	0.006842
 528	2.6350e-01	5.2666	3.588204	0.000103	1.026074	0.173822	0.002053
 529	2.6400e-01	5.2766	3.653630	0.000654	6.541219	1.108113	0.013085
 530	2.6450e-01	5.2850	3.665604	0.000120	1.197086	0.202792	0.002395
 531	2.6500e-01	5.2966	3.695110	0.000295	2.949962	0.499737	0.005901
 532	2.6550e-01	5.3084	3.747708	0.000526	5.258627	0.890836	0.010520
 533	2.6600e-01	5.3171	3.773793	0.000261	2.607937	0.441797	0.005217
 534	2.6650e-01	5.3244	3.811852	0.000381	3.805023	0.644588	0.007612
 535	2.6700e-01	5.3365	3.831095	0.000192	1.923888	0.325915	0.003849
 536	2.6750e-01	5.3424	3.864450	0.000333	3.334739	0.564920	0.006671
 537	2.6800e-01	5.3577	3.889252	0.000248	2.479678	0.420069	0.004960
 538	2.6850e-01	5.3656	3.927738	0.000385	3.847776	0.651831	0.007697
 539	2.6900e-01	5.3778	3.968790	0.000410	4.104295	0.695286	0.008210
 540	2.6950e-01	5.3879	4.002145	0.000333	3.334739	0.564920	0.006671
 541	2.7000e-01	5.3986	4.039348	0.000372	3.719517	0.630103	0.007441
 542	2.7050e-01	5.4065	4.076552	0.000372	3.719517	0.630103	0.007441
 543	2.7100e-01	5.4156	4.100926	0.000244	2.436925	0.412826	0.004875
 544	2.7150e-01	5.4262	4.118031	0.000171	1.710123	0.289703	0.003421
 545	2.7200e-01	5.4364	4.174906	0.000569	5.686158	0.963261	0.011375
 546	2.7250e-01	5.4471	4.191583	0.000167	1.667370	0.282460	0.003335
 547	2.7300e-01	5.4591	4.258720	0.000671	6.712232	1.137083	0.013427
 548	2.7350e-01	5.4689	4.269838	0.000111	1.111580	0.188307	0.002224
 549	2.7400e-01	5.4788	4.300200	0.000304	3.035468	0.514222	0.006072
 550	2.7450e-01	5.4849	4.325430	0.000252	2.522431	0.427311	0.005046
 551	2.7500e-01	5.4947	4.348949	0.000235	2.351419	0.398341	0.004704
 552	2.7550e-01	5.5069	4.384870	0.000359	3.591258	0.608376	0.007184
 553	2.7600e-01	5.5170	4.430625	0.000457	4.574578	0.774955	0.009151
 554	2.7650e-01	5.5267	4.466118	0.000355	3.548505	0.601133	0.007099
 555	2.7700e-01	5.5377	4.484506	0.000184	1.838382	0.311430	0.003678
 556	2.7750e-01	5.5469	4.522137	0.000376	3.762270	0.637346	0.007526
 557	2.7800e-01	5.5585	4.539670	0.000175	1.752876	0.296945	0.003507
 558	2.7850e-01	5.5664	4.588419	0.000487	4.873850	0.825653	0.009750
 559	2.7900e-01	5.5750	4.615360	0.000269	2.693443	0.456282	0.005388
 560	2.7950e-01	5.5847	4.647431	0.000321	3.206480	0.543192	0.006414
 561	2.8000e-01	5.5989	4.689766	0.000423	4.232554	0.717014	0.008467
 562	2.8050e-01	5.6064	4.723121	0.000333	3.334739	0.564920	0.006671
 563	2.8100e-01	5.6171	4.745358	0.000222	2.223160	0.376613	0.004447
 564	2.8150e-01	5.6265	4.770588	0.000252	2.522431	0.427311	0.005046
 565	2.8200e-01	5.6351	4.797100	0.000265	2.650690	0.449039	0.005303
 566	2.8250e-01	5.6479	4.851409	0.000543	5.429640	0.919806	0.010862
 567	2.8300e-01	5.6551	4.860816	0.000094	0.940568	0.159336	0.001882
 568	2.8350e-01	5.6668	4.911704	0.000509	5.087615	0.861865	0.010177
 569	2.8400e-01	5.6781	4.940782	0.000291	2.907209	0.492494	0.005816
 570	2.8450e-01	5.6854	4.965157	0.000244	2.436925	0.412826	0.004875
 571	2.8500e-01	5.6982	5.008775	0.000436	4.360813	0.738742	0.008724
 572	2.8550e-01	5.7068	5.036143	0.000274	2.736196	0.463524	0.005474
 573	2.8600e-01	5.7162	5.055814	0.000197	1.966641	0.333158	0.003934
 574	2.8650e-01	5.7251	5.106701	0.000509	5.087615	0.861865	0.010177
 575	2.8700e-01	5.7357	5.140483	0.000338	3.377492	0.572163	0.006756
 576	2.8750e-01	5.7471	5.181963	0.000415	4.147048	0.702529	0.008296
 577	2.8800e-01	5.7587	5.193937	0.000120	1.197086	0.202792	0.002395
 578	2.8850e-01	5.7690	5.231140	0.000372	3.719517	0.630103	0.007441
 579	2.8900e-01	5.7770	5.253376	0.000222	2.223160	0.376613	0.004447
 580	2.8950e-01	5.7892	5.290580	0.000372	3.719517	0.630103	0.007441
 581	2.9000e-01	5.7944	5.320514	0.000299	2.992715	0.506980	0.005987
 582	2.9050e-01	5.8072	5.343178	0.000227	2.265913	0.383856	0.004533
 583	2.9100e-01	5.8173	5.382519	0.000393	3.933282	0.666316	0.007868
 584	2.9150e-01	5.8252	5.421861	0.000393	3.933282	0.666316	0.007868
 585	2.9200e-01	5.8371	5.451795	0.000299	2.992715	0.506980	0.005987
 586	2.9250e-01	5.8493	5.460775	0.000090	0.897814	0.152094	0.001796
 587	2.9300e-01	5.8571	5.513373	0.000526	5.258627	0.890836	0.010520
 588	2.9350e-01	5.8661	5.536037	0.000227	2.265913	0.383856	0.004533
 589	2.9400e-01	5.8771	5.592911	0.000569	5.686158	0.963261	0.011375
 590	2.9450e-01	5.8856	5.601463	0.000086	0.855061	0.144851	0.001711
 591	2.9500e-01	5.8966	5.638667	0.000372	3.719517	0.630103	0.007441
 592	2.9550e-01	5.9082	5.671166	0.000325	3.249233	0.550435	0.006500
 593	2.9600e-01	5.9177	5.695969	0.000248	2.479678	0.420069	0.004960
 594	2.9650e-01	5.9277	5.734883	0.000389	3.890529	0.659073	0.007783
 595	2.9700e-01	5.9360	5.763961	0.000291	2.907209	0.492494	0.005816
 596	2.9750e-01	5.9485	5.805013	0.000410	4.104295	0.695286	0.008210
 597	2.9800e-01	5.9561	5.825539	0.000205	2.052147	0.347643	0.004105
 598	2.9850e-01	5.9674	5.854618	0.000291	2.907209	0.492494	0.005816
 599	2.9900e-01	5.9766	5.896953	0.000423	4.232554	0.717014	0.008467
 600	2.9950e-01	5.9894	5.916623	0.000197	1.966641	0.333158	0.003934
 601	3.0000e-01	5.9973	5.942708	0.000261	2.607937	0.441797	0.005217
 602	3.0050e-01	6.0065	5.985899	0.000432	4.318060	0.731499	0.008638
 603	3.0100e-01	6.0175	5.998300	0.000124	1.239839	0.210034	0.002480
 604	3.0150e-01	6.0297	6.041062	0.000428	4.275307	0.724257	0.008553
 605	3.0200e-01	6.0388	6.075700	0.000346	3.462999	0.586648	0.006928
 606	3.0250e-01	6.0480	6.112048	0.000363	3.634011	0.615618	0.007270
 607	3.0300e-01	6.0573	6.147541	0.000355	3.548505	0.601133	0.007099
 608	3.0350e-01	6.0669	6.170205	0.000227	2.265913	0.383856	0.004533
 609	3.0400e-01	6.0815	6.191159	0.000209	2.094900	0.354886	0.004191
 610	3.0450e-01	6.0872	6.232211	0.000410	4.104295	0.695286	0.008210
 611	3.0500e-01	6.0956	6.243329	0.000111	1.111580	0.188307	0.002224
 612	3.0550e-01	6.1067	6.281388	0.000381	3.805023	0.644588	0.007612
 613	3.0600e-01	6.1200	6.340400	0.000590	5.899923	0.999474	0.011802
 614	3.0650e-01	6.1310	6.351946	0.000115	1.154333	0.195549	0.002309
 615	3.0700e-01	6.1362	6.387866	0.000359	3.591258	0.608376	0.007184
 616	3.0750e-01	6.1499	6.426353	0.000385	3.847776	0.651831	0.007697
 617	3.0800e-01	6.1578	6.462273	0.000359	3.591258	0.608376	0.007184
 618	3.0850e-01	6.1670	6.484082	0.000218	2.180406	0.369371	0.004362
 619	3.0900e-01	6.1761	6.518292	0.000342	3.420245	0.579405	0.006842
 620	3.0950e-01	6.1899	6.538390	0.000201	2.009394	0.340401	0.004020
 621	3.1000e-01	6.1969	6.575166	0.000368	3.676764	0.622861	0.007355
 622	3.1050e-01	6.2073	6.600824	0.000257	2.565184	0.434554	0.005132
 623	3.1100e-01	6.2195	6.627764	0.000269	2.693443	0.456282	0.005388
 624	3.1150e-01	6.2274	6.681645	0.000539	5.386887	0.912563	0.010776
 625	3.1200e-01	6.2366	6.703026	0.000214	2.137653	0.362128	0.004276
 626	3.1250e-01	6.2457	6.725263	0.000222	2.223160	0.376613	0.004447
 627	3.1300e-01	6.2599	6.760756	0.000355	3.548505	0.601133	0.007099
 628	3.1350e-01	6.2665	6.785985	0.000252	2.522431	0.427311	0.005046
 629	3.1400e-01	6.2775	6.813354	0.000274	2.736196	0.463524	0.005474
 630	3.1450e-01	6.2872	6.863386	0.000500	5.002109	0.847380	0.010006
 631	3.1500e-01	6.2976	6.888188	0.000248	2.479678	0.420069	0.004960
 632	3.1550e-01	6.3089	6.888188	0.000000	0.000000	0.000000	0.000000
 633	3.1600e-01	6.3181	6.942496	0.000543	5.429640	0.919806	0.010862
 634	3.1650e-01	6.3275	6.983548	0.000410	4.104295	0.695286	0.008210
 635	3.1700e-01	6.3361	7.024600	0.000410	4.104295	0.695286	0.008210
 636	3.1750e-01	6.3458	7.046837	0.000222	2.223160	0.376613	0.004447
 637	3.1800e-01	6.3550	7.068646	0.000218	2.180406	0.369371	0.004362
 638	3.1850e-01	6.3684	7.093020	0.000244	2.436925	0.412826	0.004875
 639	3.1900e-01	6.3776	7.112691	0.000197	1.966641	0.333158	0.003934
 640	3.1950e-01	6.3881	7.166144	0.000534	5.344134	0.905321	0.010691
 641	3.2000e-01	6.3977	7.185815	0.000197	1.966641	0.333158	0.003934
 642	3.2050e-01	6.4056	7.225157	0.000393	3.933282	0.666316	0.007868
 643	3.2100e-01	6.4151	7.240551	0.000154	1.539110	0.260732	0.003079
 644	3.2150e-01	6.4267	7.277327	0.000368	3.676764	0.622861	0.007355
 645	3.2200e-01	6.4355	7.295715	0.000184	1.838382	0.311430	0.003678
 646	3.2250e-01	6.4496	7.350023	0.000543	5.429640	0.919806	0.010862
 647	3.2300e-01	6.4594	7.369694	0.000197	1.966641	0.333158	0.003934
 648	3.2350e-01	6.4679	7.408180	0.000385	3.847776	0.651831	0.007697
 649	3.2400e-01	6.4771	7.436831	0.000286	2.864456	0.485252	0.005730
 650	3.2450e-01	6.4871	7.460778	0.000239	2.394172	0.405584	0.004789
 651	3.2500e-01	6.4984	7.495416	0.000346	3.462999	0.586648	0.006928
 652	3.2550e-01	6.5063	7.531764	0.000363	3.634011	0.615618	0.007270
 653	3.2600e-01	6.5149	7.545448	0.000137	1.368098	0.231762	0.002737
 654	3.2650e-01	6.5295	7.572816	0.000274	2.736196	0.463524	0.005474
 655	3.2700e-01	6.5372	7.626697	0.000539	5.386887	0.912563	0.010776
 656	3.2750e-01	6.5472	7.651927	0.000252	2.522431	0.427311	0.005046
 657	3.2800e-01	6.5555	7.675446	0.000235	2.351419	0.398341	0.004704
 658	3.2850e-01	6.5659	7.711367	0.000359	3.591258	0.608376	0.007184
 659	3.2900e-01	6.5771	7.724195	0.000128	1.282592	0.217277	0.002566
 660	3.2950e-01	6.5881	7.777648	0.000534	5.344134	0.905321	0.010691
 661	3.3000e-01	6.6006	7.796036	0.000184	1.838382	0.311430	0.003678
 662	3.3050e-01	6.6074	7.813569	0.000175	1.752876	0.296945	0.003507
 663	3.3100e-01	6.6187	7.855049	0.000415	4.147048	0.702529	0.008296
 664	3.3150e-01	6.6284	7.888403	0.000333	3.334739	0.564920	0.006671
 665	3.3200e-01	6.6406	7.915344	0.000269	2.693443	0.456282	0.005388
 666	3.3250e-01	6.6461	7.934159	0.000188	1.881135	0.318673	0.003763
 667	3.3300e-01	6.6583	7.986330	0.000522	5.215874	0.883593	0.010434
 668	3.3350e-01	6.6656	8.026526	0.000402	4.018788	0.680801	0.008039
 669	3.3400e-01	6.6786	8.035079	0.000086	0.855061	0.144851	0.001711
 670	3.3450e-01	6.6864	8.079552	0.000445	4.446319	0.753227	0.008895
 671	3.3500e-01	6.6962	8.098795	0.000192	1.923888	0.325915	0.003849
 672	3.3550e-01	6.7078	8.125735	0.000269	2.693443	0.456282	0.005388
 673	3.3600e-01	6.7204	8.149682	0.000239	2.394172	0.405584	0.004789
 674	3.3650e-01	6.7261	8.178333	0.000286	2.864456	0.485252	0.005730
 675	3.3700e-01	6.7389	8.228793	0.000504	5.044862	0.854623	0.010092
 676	3.3750e-01	6.7511	8.252740	0.000239	2.394172	0.405584	0.004789
 677	3.3800e-01	6.7590	8.265141	0.000124	1.239839	0.210034	0.002480
 678	3.3850e-01	6.7667	8.318594	0.000534	5.344134	0.905321	0.010691
 679	3.3900e-01	6.7780	8.312180	-0.000064	-0.641296	-0.108638	-0.001283
 680	3.3950e-01	6.7859	8.359219	0.000470	4.702838	0.796682	0.009408
 681	3.4000e-01	6.8005	8.387870	0.000286	2.864456	0.485252	0.005730
 682	3.4050e-01	6.8091	8.423363	0.000355	3.548505	0.601133	0.007099
 683	3.4100e-01	6.8158	8.455007	0.000316	3.163727	0.535950	0.006329
 684	3.4150e-01	6.8268	8.484513	0.000295	2.949962	0.499737	0.005901
 685	3.4200e-01	6.8396	8.502046	0.000175	1.752876	0.296945	0.003507
 686	3.4250e-01	6.8475	8.542242	0.000402	4.018788	0.680801	0.008039
 687	3.4300e-01	6.8576	8.565334	0.000231	2.308666	0.391099	0.004618
 688	3.4350e-01	6.8695	8.603821	0.000385	3.847776	0.651831	0.007697
 689	3.4400e-01	6.8756	8.639313	0.000355	3.548505	0.601133	0.007099
 690	3.4450e-01	6.8839	8.652570	0.000133	1.325345	0.224520	0.002651
 691	3.4500e-01	6.9009	8.686352	0.000338	3.377492	0.572163	0.006756
 692	3.4550e-01	6.9073	8.719707	0.000333	3.334739	0.564920	0.006671
 693	3.4600e-01	6.9202	8.755627	0.000359	3.591258	0.608376	0.007184
 694	3.4650e-01	6.9269	8.778719	0.000231	2.308666	0.391099	0.004618
 695	3.4700e-01	6.9391	8.784278	0.000056	0.555790	0.094153	0.001112
 696	3.4750e-01	6.9482	8.825330	0.000410	4.104295	0.695286	0.008210
 697	3.4800e-01	6.9586	8.859540	0.000342	3.420245	0.579405	0.006842
 698	3.4850e-01	6.9675	8.900592	0.000410	4.104295	0.695286	0.008210
 699	3.4900e-01	6.9785	8.937796	0.000372	3.719517	0.630103	0.007441
 700	3.4950e-01	6.9885	8.961743	0.000239	2.394172	0.405584	0.004789
 701	3.5000e-01	6.9968	8.993815	0.000321	3.206480	0.543192	0.006414
 702	3.5050e-01	7.0081	9.030591	0.000368	3.676764	0.622861	0.007355
 703	3.5100e-01	7.0166	9.059241	0.000286	2.864456	0.485252	0.005730
 704	3.5150e-01	7.0270	9.068222	0.000090	0.897814	0.152094	0.001796
 705	3.5200e-01	7.0349	9.086609	0.000184	1.838382	0.311430	0.003678
 706	3.5250e-01	7.0480	9.137497	0.000509	5.087615	0.861865	0.010177
 707	3.5300e-01	7.0584	9.149470	0.000120	1.197086	0.202792	0.002395
 708	3.5350e-01	7.0667	9.193088	0.000436	4.360813	0.738742	0.008724
 709	3.5400e-01	7.0792	9.218746	0.000257	2.565184	0.434554	0.005132
 710	3.5450e-01	7.0892	9.261936	0.000432	4.318060	0.731499	0.008638
 711	3.5500e-01	7.0959	9.267923	0.000060	0.598543	0.101396	0.001197
 712	3.5550e-01	7.1091	9.306409	0.000385	3.847776	0.651831	0.007697
 713	3.5600e-01	7.1161	9.334632	0.000282	2.821703	0.478009	0.005645
 714	3.5650e-01	7.1259	9.364994	0.000304	3.035468	0.514222	0.006072
 715	3.5700e-01	7.1375	9.394500	0.000295	2.949962	0.499737	0.005901
 716	3.5750e-01	7.1484	9.412460	0.000180	1.795629	0.304188	0.003592
 717	3.5800e-01	7.1594	9.459499	0.000470	4.702838	0.796682	0.009408
 718	3.5850e-01	7.1667	9.463775	0.000043	0.427531	0.072426	0.000855
 719	3.5900e-01	7.1771	9.520221	0.000564	5.643405	0.956019	0.011289
 720	3.5950e-01	7.1835	9.535188	0.000150	1.496357	0.253490	0.002993
 721	3.6000e-01	7.1973	9.575385	0.000402	4.018788	0.680801	0.008039
 722	3.6050e-01	7.2070	9.600615	0.000252	2.522431	0.427311	0.005046
 723	3.6100e-01	7.2180	9.629694	0.000291	2.907209	0.492494	0.005816
 724	3.6150e-01	7.2284	9.654496	0.000248	2.479678	0.420069	0.004960
 725	3.6200e-01	7.2369	9.699824	0.000453	4.531825	0.767712	0.009066
 726	3.6250e-01	7.2473	9.717357	0.000175	1.752876	0.296945	0.003507
 727	3.6300e-01	7.2583	9.731896	0.000145	1.453604	0.246247	0.002908
 728	3.6350e-01	7.2675	9.770810	0.000389	3.890529	0.659073	0.007783
 729	3.6400e-01	7.2769	9.799033	0.000282	2.821703	0.478009	0.005645
 730	3.6450e-01	7.2876	9.827684	0.000286	2.864456	0.485252	0.005730
 731	3.6500e-01	7.2992	9.858901	0.000312	3.120974	0.528707	0.006243
 732	3.6550e-01	7.3083	9.896959	0.000381	3.805023	0.644588	0.007612
 733	3.6600e-01	7.3151	9.908078	0.000111	1.111580	0.188307	0.002224
 734	3.6650e-01	7.3279	9.929887	0.000218	2.180406	0.369371	0.004362
 735	3.6700e-01	7.3376	9.984623	0.000547	5.472393	0.927048	0.010947
 736	3.6750e-01	7.3480	9.980774	-0.000038	-0.384778	-0.065183	-0.000770
 737	3.6800e-01	7.3584	10.047911	0.000671	6.712232	1.137083	0.013427
 738	3.6850e-01	7.3651	10.057319	0.000094	0.940568	0.159336	0.001882
 739	3.6900e-01	7.3749	10.092384	0.000351	3.505752	0.593890	0.007013
 740	3.6950e-01	7.3849	10.136002	0.000436	4.360813	0.738742	0.008724
 741	3.7000e-01	7.3975	10.129160	-0.000068	-0.684049	-0.115881	-0.001368
 742	3.7050e-01	7.4066	10.188600	0.000594	5.942676	1.006717	0.011888
 743	3.7100e-01	7.4188	10.204850	0.000162	1.624617	0.275218	0.003250
 744	3.7150e-01	7.4268	10.249323	0.000445	4.446319	0.753227	0.008895
 745	3.7200e-01	7.4396	10.260441	0.000111	1.111580	0.188307	0.002224
 746	3.7250e-01	7.4481	10.300210	0.000398	3.976035	0.673559	0.007954
 747	3.7300e-01	7.4609	10.330144	0.000299	2.992715	0.506980	0.005987
 748	3.7350e-01	7.4677	10.345966	0.000158	1.581864	0.267975	0.003164
 749	3.7400e-01	7.4792	10.384452	0.000385	3.847776	0.651831	0.007697
 750	3.7450e-01	7.4878	10.413531	0.000291	2.907209	0.492494	0.005816
 751	3.7500e-01	7.4963	10.402840	-0.000107	-1.068827	-0.181064	-0.002138
 752	3.7550e-01	7.5079	10.464418	0.000616	6.156442	1.042929	0.012316
 753	3.7600e-01	7.5177	10.493069	0.000286	2.864456	0.485252	0.005730
 754	3.7650e-01	7.5272	10.511029	0.000180	1.795629	0.304188	0.003592
 755	3.7700e-01	7.5372	10.542674	0.000316	3.163727	0.535950	0.006329
 756	3.7750e-01	7.5446	10.572607	0.000299	2.992715	0.506980	0.005987
 757	3.7800e-01	7.5565	10.613659	0.000410	4.104295	0.695286	0.008210
 758	3.7850e-01	7.5702	10.623922	0.000103	1.026074	0.173822	0.002053
 759	3.7900e-01	7.5781	10.660698	0.000368	3.676764	0.622861	0.007355
 760	3.7950e-01	7.5848	10.697474	0.000368	3.676764	0.622861	0.007355
 761	3.8000e-01	7.5995	10.711586	0.000141	1.410851	0.239005	0.002822
 762	3.8050e-01	7.6074	10.750499	0.000389	3.890529	0.659073	0.007783
 763	3.8100e-01	7.6169	10.789413	0.000389	3.890529	0.659073	0.007783
 764	3.8150e-01	7.6263	10.818919	0.000295	2.949962	0.499737	0.005901
 765	3.8200e-01	7.6392	10.832176	0.000133	1.325345	0.224520	0.002651
 766	3.8250e-01	7.6465	10.859544	0.000274	2.736196	0.463524	0.005474
 767	3.8300e-01	7.6556	10.889478	0.000299	2.992715	0.506980	0.005987
 768	3.8350e-01	7.6678	10.925398	0.000359	3.591258	0.608376	0.007184
 769	3.8400e-01	7.6753	10.956187	0.000308	3.078221	0.521465	0.006158
 770	3.8450e-01	7.6886	10.975430	0.000192	1.923888	0.325915	0.003849
 771	3.8500e-01	7.6978	11.000233	0.000248	2.479678	0.420069	0.004960
 772	3.8550e-01	7.7069	11.027173	0.000269	2.693443	0.456282	0.005388
 773	3.8600e-01	7.7158	11.040429	0.000133	1.325345	0.224520	0.002651
 774	3.8650e-01	7.7264	11.098586	0.000581	5.814417	0.984989	0.011631
 775	3.8700e-01	7.7405	11.124244	0.000257	2.565184	0.434554	0.005132
 776	3.8750e-01	7.7466	11.146908	0.000227	2.265913	0.383856	0.004533
 777	3.8800e-01	7.7594	11.174704	0.000278	2.778949	0.470767	0.005559
 778	3.8850e-01	7.7686	11.220032	0.000453	4.531825	0.767712	0.009066
 779	3.8900e-01	7.7802	11.230295	0.000103	1.026074	0.173822	0.002053
 780	3.8950e-01	7.7875	11.243979	0.000137	1.368098	0.231762	0.002737
 781	3.9000e-01	7.7954	11.285459	0.000415	4.147048	0.702529	0.008296
 782	3.9050e-01	7.8076	11.326083	0.000406	4.061541	0.688044	0.008125
 783	3.9100e-01	7.8180	11.349602	0.000235	2.351419	0.398341	0.004704
 784	3.9150e-01	7.8271	11.384240	0.000346	3.462999	0.586648	0.006928
 785	3.9200e-01	7.8351	11.400062	0.000158	1.581864	0.267975	0.003164
 786	3.9250e-01	7.8485	11.439831	0.000398	3.976035	0.673559	0.007954
 787	3.9300e-01	7.8558	11.438548	-0.000013	-0.128259	-0.021728	-0.000257
 788	3.9350e-01	7.8662	11.491146	0.000526	5.258627	0.890836	0.010520
 789	3.9400e-01	7.8760	11.517659	0.000265	2.650690	0.449039	0.005303
 790	3.9450e-01	7.8876	11.533054	0.000154	1.539110	0.260732	0.003079
 791	3.9500e-01	7.8986	11.557001	0.000239	2.394172	0.405584	0.004789
 792	3.9550e-01	7.9065	11.609599	0.000526	5.258627	0.890836	0.010520
 793	3.9600e-01	7.9187	11.634828	0.000252	2.522431	0.427311	0.005046
 794	3.9650e-01	7.9266	11.641670	0.000068	0.684049	0.115881	0.001368
 795	3.9700e-01	7.9364	11.670321	0.000286	2.864456	0.485252	0.005730
 796	3.9750e-01	7.9480	11.716933	0.000466	4.660084	0.789440	0.009322
 797	3.9800e-01	7.9565	11.728906	0.000120	1.197086	0.202792	0.002395
 798	3.9850e-01	7.9663	11.769103	0.000402	4.018788	0.680801	0.008039
 799	3.9900e-01	7.9767	11.793905	0.000248	2.479678	0.420069	0.004960
 800	3.9950e-01	7.9846	11.825549	0.000316	3.163727	0.535950	0.006329
 801	4.0000e-01	7.9962	11.847786	0.000222	2.223160	0.376613	0.004447
 802	4.0050e-01	8.0060	11.867457	0.000197	1.966641	0.333158	0.003934
 803	4.0100e-01	8.0164	11.905515	0.000381	3.805023	0.644588	0.007612
 804	4.0150e-01	8.0270	11.943146	0.000376	3.762270	0.637346	0.007526
 805	4.0200e-01	8.0377	11.967093	0.000239	2.394172	0.405584	0.004789
 806	4.0250e-01	8.0478	11.976929	0.000098	0.983321	0.166579	0.001967
 807	4.0300e-01	8.0554	12.013277	0.000363	3.634011	0.615618	0.007270
 808	4.0350e-01	8.0684	12.027388	0.000141	1.410851	0.239005	0.002822
 809	4.0400e-01	8.0762	12.078704	0.000513	5.130368	0.869108	0.010263
 810	4.0450e-01	8.0878	12.098802	0.000201	2.009394	0.340401	0.004020
 811	4.0500e-01	8.0957	12.137716	0.000389	3.890529	0.659073	0.007783
 812	4.0550e-01	8.1067	12.168505	0.000308	3.078221	0.521465	0.006158
 813	4.0600e-01	8.1171	12.180478	0.000120	1.197086	0.202792	0.002395
 814	4.0650e-01	8.1253	12.209557	0.000291	2.907209	0.492494	0.005816
 815	4.0700e-01	8.1366	12.247188	0.000376	3.762270	0.637346	0.007526
 816	4.0750e-01	8.1488	12.283536	0.000363	3.634011	0.615618	0.007270
 817	4.0800e-01	8.1555	12.308766	0.000252	2.522431	0.427311	0.005046
 818	4.0850e-01	8.1696	12.320739	0.000120	1.197086	0.202792	0.002395
 819	4.0900e-01	8.1766	12.336562	0.000158	1.581864	0.267975	0.003164
 820	4.0950e-01	8.1876	12.363502	0.000269	2.693443	0.456282	0.005388
 821	4.1000e-01	8.2007	12.386594	0.000231	2.308666	0.391099	0.004618
 822	4.1050e-01	8.2086	12.437481	0.000509	5.087615	0.861865	0.010177
 823	4.1100e-01	8.2147	12.468698	0.000312	3.120974	0.528707	0.006243
 824	4.1150e-01	8.2275	12.473402	0.000047	0.470284	0.079668	0.000941
 825	4.1200e-01	8.2388	12.506756	0.000333	3.334739	0.564920	0.006671
 826	4.1250e-01	8.2465	12.521723	0.000150	1.496357	0.253490	0.002993
 827	4.1300e-01	8.2556	12.566196	0.000445	4.446319	0.753227	0.008895
 828	4.1350e-01	8.2687	12.608104	0.000419	4.189801	0.709771	0.008381
 829	4.1400e-01	8.2813	12.639320	0.000312	3.120974	0.528707	0.006243
 830	4.1450e-01	8.2861	12.658991	0.000197	1.966641	0.333158	0.003934
 831	4.1500e-01	8.2990	12.673103	0.000141	1.410851	0.239005	0.002822
 832	4.1550e-01	8.3057	12.698333	0.000252	2.522431	0.427311	0.005046
 833	4.1600e-01	8.3191	12.729122	0.000308	3.078221	0.521465	0.006158
 834	4.1650e-01	8.3258	12.766753	0.000376	3.762270	0.637346	0.007526
 835	4.1700e-01	8.3368	12.780864	0.000141	1.410851	0.239005	0.002822
 836	4.1750e-01	8.3466	12.827475	0.000466	4.660084	0.789440	0.009322
 837	4.1800e-01	8.3575	12.839876	0.000124	1.239839	0.210034	0.002480
 838	4.1850e-01	8.3673	12.865962	0.000261	2.607937	0.441797	0.005217
 839	4.1900e-01	8.3780	12.890764	0.000248	2.479678	0.420069	0.004960
 840	4.1950e-01	8.3875	12.915566	0.000248	2.479678	0.420069	0.004960
 841	4.2000e-01	8.3990	12.956618	0.000410	4.104295	0.695286	0.008210
 842	4.2050e-01	8.4074	12.972013	0.000154	1.539110	0.260732	0.003079
 843	4.2100e-01	8.4174	13.015630	0.000436	4.360813	0.738742	0.008724
 844	4.2150e-01	8.4293	13.022472	0.000068	0.684049	0.115881	0.001368
 845	4.2200e-01	8.4393	13.057110	0.000346	3.462999	0.586648	0.006928
 846	4.2250e-01	8.4491	13.099873	0.000428	4.275307	0.724257	0.008553
 847	4.2300e-01	8.4589	13.131089	0.000312	3.120974	0.528707	0.006243
 848	4.2350e-01	8.4668	13.134083	0.000030	0.299271	0.050698	0.000599
 849	4.2400e-01	8.4772	13.173424	0.000393	3.933282	0.666316	0.007868
 850	4.2450e-01	8.4863	13.202075	0.000286	2.864456	0.485252	0.005730
 851	4.2500e-01	8.4982	13.234575	0.000325	3.249233	0.550435	0.006500
 852	4.2550e-01	8.5059	13.260660	0.000261	2.607937	0.441797	0.005217
 853	4.2600e-01	8.5178	13.280758	0.000201	2.009394	0.340401	0.004020
 854	4.2650e-01	8.5284	13.304278	0.000235	2.351419	0.398341	0.004704
 855	4.2700e-01	8.5376	13.332073	0.000278	2.778949	0.470767	0.005559
 856	4.2750e-01	8.5461	13.380822	0.000487	4.873850	0.825653	0.009750
 857	4.2800e-01	8.5579	13.403487	0.000227	2.265913	0.383856	0.004533
 858	4.2850e-01	8.5681	13.429144	0.000257	2.565184	0.434554	0.005132
 859	4.2900e-01	8.5791	13.455229	0.000261	2.607937	0.441797	0.005217
 860	4.2950e-01	8.5907	13.480032	0.000248	2.479678	0.420069	0.004960
 861	4.3000e-01	8.5974	13.494998	0.000150	1.496357	0.253490	0.002993
 862	4.3050e-01	8.6072	13.526643	0.000316	3.163727	0.535950	0.006329
 863	4.3100e-01	8.6194	13.544603	0.000180	1.795629	0.304188	0.003592
 864	4.3150e-01	8.6288	13.601049	0.000564	5.643405	0.956019	0.011289
 865	4.3200e-01	8.6340	13.603188	0.000021	0.213765	0.036213	0.000428
 866	4.3250e-01	8.6475	13.640391	0.000372	3.719517	0.630103	0.007441
 867	4.3300e-01	8.6578	13.666904	0.000265	2.650690	0.449039	0.005303
 868	4.3350e-01	8.6682	13.695555	0.000286	2.864456	0.485252	0.005730
 869	4.3400e-01	8.6786	13.719074	0.000235	2.351419	0.398341	0.004704
 870	4.3450e-01	8.6890	13.741738	0.000227	2.265913	0.383856	0.004533
 871	4.3500e-01	8.6975	13.778086	0.000363	3.634011	0.615618	0.007270
 872	4.3550e-01	8.7054	13.819566	0.000415	4.147048	0.702529	0.008296
 873	4.3600e-01	8.7158	13.831967	0.000124	1.239839	0.210034	0.002480
 874	4.3650e-01	8.7262	13.854631	0.000227	2.265913	0.383856	0.004533
 875	4.3700e-01	8.7378	13.865322	0.000107	1.068827	0.181064	0.002138
 876	4.3750e-01	8.7500	13.904236	0.000389	3.890529	0.659073	0.007783
 877	4.3800e-01	8.7598	13.931176	0.000269	2.693443	0.456282	0.005388
 878	4.3850e-01	8.7701	13.974794	0.000436	4.360813	0.738742	0.008724
 879	4.3900e-01	8.7781	13.993182	0.000184	1.838382	0.311430	0.003678
 880	4.3950e-01	8.7885	14.035944	0.000428	4.275307	0.724257	0.008553
 881	4.4000e-01	8.8000	14.061602	0.000257	2.565184	0.434554	0.005132
 882	4.4050e-01	8.8068	14.086404	0.000248	2.479678	0.420069	0.004960
 883	4.4100e-01	8.8177	14.116766	0.000304	3.035468	0.514222	0.006072
 884	4.4150e-01	8.8306	14.106930	-0.000098	-0.983321	-0.166579	-0.001967
 885	4.4200e-01	8.8367	14.168081	0.000611	6.113689	1.035687	0.012230
 886	4.4250e-01	8.8470	14.186896	0.000188	1.881135	0.318673	0.003763
 887	4.4300e-01	8.8582	14.213409	0.000265	2.650690	0.449039	0.005303
 888	4.4350e-01	8.8708	14.253178	0.000398	3.976035	0.673559	0.007954
 889	4.4400e-01	8.8800	14.254461	0.000013	0.128259	0.021728	0.000257
 890	4.4450e-01	8.8867	14.284395	0.000299	2.992715	0.506980	0.005987
 891	4.4500e-01	8.8965	14.310480	0.000261	2.607937	0.441797	0.005217
 892	4.4550e-01	8.9050	14.350249	0.000398	3.976035	0.673559	0.007954
 893	4.4600e-01	8.9185	14.397288	0.000470	4.702838	0.796682	0.009408
 894	4.4650e-01	8.9294	14.398998	0.000017	0.171012	0.028970	0.000342
 895	4.4700e-01	8.9368	14.423373	0.000244	2.436925	0.412826	0.004875
 896	4.4750e-01	8.9474	14.456300	0.000329	3.291986	0.557678	0.006585
 897	4.4800e-01	8.9557	14.462714	0.000064	0.641296	0.108638	0.001283
 898	4.4850e-01	8.9655	14.522582	0.000599	5.985430	1.013959	0.011974
 899	4.4900e-01	8.9771	14.541825	0.000192	1.923888	0.325915	0.003849
 900	4.4950e-01	8.9871	14.559785	0.000180	1.795629	0.304188	0.003592
 901	4.5000e-01	8.9948	14.614094	0.000543	5.429640	0.919806	0.010862
 902	4.5050e-01	9.0063	14.622219	0.000081	0.812308	0.137609	0.001625
 903	4.5100e-01	9.0186	14.657284	0.000351	3.505752	0.593890	0.007013
 904	4.5150e-01	9.0265	14.680376	0.000231	2.308666	0.391099	0.004618
 905	4.5200e-01	9.0387	14.712875	0.000325	3.249233	0.550435	0.006500
 906	4.5250e-01	9.0491	14.716296	0.000034	0.342025	0.057941	0.000684
 907	4.5300e-01	9.0585	14.744092	0.000278	2.778949	0.470767	0.005559
 908	4.5350e-01	9.0668	14.778729	0.000346	3.462999	0.586648	0.006928
 909	4.5400e-01	9.0771	14.801821	0.000231	2.308666	0.391099	0.004618
 910	4.5450e-01	9.0894	14.857413	0.000556	5.557899	0.941534	0.011118
 911	4.5500e-01	9.0973	14.877939	0.000205	2.052147	0.347643	0.004105
 912	4.5550e-01	9.1083	14.893333	0.000154	1.539110	0.260732	0.003079
 913	4.5600e-01	9.1168	14.913431	0.000201	2.009394	0.340401	0.004020
 914	4.5650e-01	9.1266	14.945931	0.000325	3.249233	0.550435	0.006500
 915	4.5700e-01	9.1364	14.988694	0.000428	4.275307	0.724257	0.008553
 916	4.5750e-01	9.1455	14.995536	0.000068	0.684049	0.115881	0.001368
 917	4.5800e-01	9.1595	15.026752	0.000312	3.120974	0.528707	0.006243
 918	4.5850e-01	9.1705	15.065238	0.000385	3.847776	0.651831	0.007697
 919	4.5900e-01	9.1754	15.065666	0.000004	0.042753	0.007243	0.000086
 920	4.5950e-01	9.1852	15.102014	0.000363	3.634011	0.615618	0.007270
 921	4.6000e-01	9.1968	15.149053	0.000470	4.702838	0.796682	0.009408
 922	4.6050e-01	9.2072	15.166586	0.000175	1.752876	0.296945	0.003507
 923	4.6100e-01	9.2151	15.207210	0.000406	4.061541	0.688044	0.008125
 924	4.6150e-01	9.2264	15.226453	0.000192	1.923888	0.325915	0.003849
 925	4.6200e-01	9.2377	15.242275	0.000158	1.581864	0.267975	0.003164
 926	4.6250e-01	9.2474	15.274347	0.000321	3.206480	0.543192	0.006414
 927	4.6300e-01	9.2590	15.317965	0.000436	4.360813	0.738742	0.008724
 928	4.6350e-01	9.2706	15.323524	0.000056	0.555790	0.094153	0.001112
 929	4.6400e-01	9.2780	15.362438	0.000389	3.890529	0.659073	0.007783
 930	4.6450e-01	9.2896	15.383819	0.000214	2.137653	0.362128	0.004276
 931	4.6500e-01	9.2981	15.412898	0.000291	2.907209	0.492494	0.005816
 932	4.6550e-01	9.3091	15.425727	0.000128	1.282592	0.217277	0.002566
 933	4.6600e-01	9.3176	15.468061	0.000423	4.232554	0.717014	0.008467
 934	4.6650e-01	9.3286	15.472338	0.000043	0.427531	0.072426	0.000855
 935	4.6700e-01	9.3367	15.525363	0.000530	5.301380	0.898078	0.010605
 936	4.6750e-01	9.3463	15.545034	0.000197	1.966641	0.333158	0.003934
 937	4.6800e-01	9.3579	15.580527	0.000355	3.548505	0.601133	0.007099
 938	4.6850e-01	9.3658	15.591218	0.000107	1.068827	0.181064	0.002138
 939	4.6900e-01	9.3793	15.623289	0.000321	3.206480	0.543192	0.006414
 940	4.6950e-01	9.3866	15.622862	-0.000004	-0.042753	-0.007243	-0.000086
 941	4.7000e-01	9.3976	15.668190	0.000453	4.531825	0.767712	0.009066
 942	4.7050e-01	9.4073	15.712235	0.000440	4.403566	0.745984	0.008809
 943	4.7100e-01	9.4177	15.731906	0.000197	1.966641	0.333158	0.003934
 944	4.7150e-01	9.4241	15.767399	0.000355	3.548505	0.601133	0.007099
 945	4.7200e-01	9.4385	15.781511	0.000141	1.410851	0.239005	0.002822
 946	4.7250e-01	9.4482	15.827694	0.000462	4.617331	0.782197	0.009237
 947	4.7300e-01	9.4580	15.849931	0.000222	2.223160	0.376613	0.004447
 948	4.7350e-01	9.4666	15.866608	0.000167	1.667370	0.282460	0.003335
 949	4.7400e-01	9.4769	15.899108	0.000325	3.249233	0.550435	0.006500
 950	4.7450e-01	9.4891	15.911081	0.000120	1.197086	0.202792	0.002395
 951	4.7500e-01	9.4958	15.944008	0.000329	3.291986	0.557678	0.006585
 952	4.7550e-01	9.5050	15.982922	0.000389	3.890529	0.659073	0.007783
 953	4.7600e-01	9.5142	16.007725	0.000248	2.479678	0.420069	0.004960
 954	4.7650e-01	9.5264	16.035520	0.000278	2.778949	0.470767	0.005559
 955	4.7700e-01	9.5364	16.059040	0.000235	2.351419	0.398341	0.004704
 956	4.7750e-01	9.5471	16.096671	0.000376	3.762270	0.637346	0.007526
 957	4.7800e-01	9.5563	16.117197	0.000205	2.052147	0.347643	0.004105
 958	4.7850e-01	9.5673	16.124894	0.000077	0.769555	0.130366	0.001539
 959	4.7900e-01	9.5792	16.194169	0.000693	6.925997	1.173296	0.013855
 960	4.7950e-01	9.5898	16.196307	0.000021	0.213765	0.036213	0.000428
 961	4.8000e-01	9.5959	16.241208	0.000449	4.489072	0.760469	0.008980
 962	4.8050e-01	9.6063	16.268148	0.000269	2.693443	0.456282	0.005388
 963	4.8100e-01	9.6161	16.286964	0.000188	1.881135	0.318673	0.003763
 964	4.8150e-01	9.6259	16.328016	0.000410	4.104295	0.695286	0.008210
 965	4.8200e-01	9.6362	16.335285	0.000073	0.726802	0.123124	0.001454
 966	4.8250e-01	9.6484	16.351963	0.000167	1.667370	0.282460	0.003335
 967	4.8300e-01	9.6600	16.382752	0.000308	3.078221	0.521465	0.006158
 968	4.8350e-01	9.6674	16.401995	0.000192	1.923888	0.325915	0.003849
 969	4.8400e-01	9.6783	16.440481	0.000385	3.847776	0.651831	0.007697
 970	4.8450e-01	9.6875	16.469987	0.000295	2.949962	0.499737	0.005901
 971	4.8500e-01	9.6960	16.513178	0.000432	4.318060	0.731499	0.008638
 972	4.8550e-01	9.7070	16.524296	0.000111	1.111580	0.188307	0.002224
 973	4.8600e-01	9.7156	16.552519	0.000282	2.821703	0.478009	0.005645
 974	4.8650e-01	9.7284	16.597420	0.000449	4.489072	0.760469	0.008980
 975	4.8700e-01	9.7382	16.608110	0.000107	1.068827	0.181064	0.002138
 976	4.8750e-01	9.7461	16.642748	0.000346	3.462999	0.586648	0.006928
 977	4.8800e-01	9.7583	16.655149	0.000124	1.239839	0.210034	0.002480
 978	4.8850e-01	9.7681	16.697056	0.000419	4.189801	0.709771	0.008381
 979	4.8900e-01	9.7772	16.709885	0.000128	1.282592	0.217277	0.002566
 980	4.8950e-01	9.7879	16.741102	0.000312	3.120974	0.528707	0.006243
 981	4.9000e-01	9.7961	16.768042	0.000269	2.693443	0.456282	0.005388
 982	4.9050e-01	9.8041	16.801825	0.000338	3.377492	0.572163	0.006756
 983	4.9100e-01	9.8157	16.830476	0.000286	2.864456	0.485252	0.005730
 984	4.9150e-01	9.8279	16.856988	0.000265	2.650690	0.449039	0.005303
 985	4.9200e-01	9.8358	16.865113	0.000081	0.812308	0.137609	0.001625
 986	4.9250e-01	9.8486	16.914718	0.000496	4.959356	0.840138	0.009921
 987	4.9300e-01	9.8566	16.936527	0.000218	2.180406	0.369371	0.004362
 988	4.9350e-01	9.8682	16.955342	0.000188	1.881135	0.318673	0.003763
 989	4.9400e-01	9.8749	16.996822	0.000415	4.147048	0.702529	0.008296
 990	4.9450e-01	9.8877	17.011789	0.000150	1.496357	0.253490	0.002993
 991	4.9500e-01	9.8987	17.047709	0.000359	3.591258	0.608376	0.007184
 992	4.9550e-01	9.9048	17.057117	0.000094	0.940568	0.159336	0.001882
 993	4.9600e-01	9.9139	17.103300	0.000462	4.617331	0.782197	0.009237
 994	4.9650e-01	9.9261	17.119550	0.000162	1.624617	0.275218	0.003250
 995	4.9700e-01	9.9371	17.150339	0.000308	3.078221	0.521465	0.006158
 996	4.9750e-01	9.9463	17.188398	0.000381	3.805023	0.644588	0.007612
 997	4.9800e-01	9.9573	17.192674	0.000043	0.427531	0.072426	0.000855
 998	4.9850e-01	9.9677	17.225174	0.000325	3.249233	0.550435	0.006500
 999	4.9900e-01	9.9762	17.274778	0.000496	4.959356	0.840138	0.009921
1000	4.9950e-01	9.9869	17.290600	0.000158	1.581864	0.267975	0.003164
1001	5.0000e-01	9.9982	17.333363	0.000428	4.275307	0.724257	0.008553
1002	5.0050e-01	9.9866	17.280337	0.000530	5.301380	0.898078	-0.010605
1003	5.0100e-01	9.9750	17.261949	0.000184	1.838382	0.311430	-0.003678
1004	5.0150e-01	9.9670	17.248265	0.000137	1.368098	0.231762	-0.002737
1005	5.0200e-01	9.9554	17.224318	0.000239	2.394172	0.405584	-0.004789
1006	5.0250e-01	9.9438	17.213628	0.000107	1.068827	0.181064	-0.002138
1007	5.0300e-01	9.9365	17.180701	0.000329	3.291986	0.557678	-0.006585
1008	5.0350e-01	9.9251	17.171293	0.000094	0.940568	0.159336	-0.001882
1009	5.0400e-01	9.9170	17.138793	0.000325	3.249233	0.550435	-0.006500
1010	5.0450e-01	9.9045	17.136228	0.000026	0.256518	0.043455	-0.000513
1011	5.0500e-01	9.8953	17.099452	0.000368	3.676764	0.622861	-0.007355
1012	5.0550e-01	9.8865	17.089189	0.000103	1.026074	0.173822	-0.002053
1013	5.0600e-01	9.8779	17.069946	0.000192	1.923888	0.325915	-0.003849
1014	5.0650e-01	9.8651	17.036163	0.000338	3.377492	0.572163	-0.006756
1015	5.0700e-01	9.8572	17.022052	0.000141	1.410851	0.239005	-0.002822
1016	5.0750e-01	9.8444	17.011789	0.000103	1.026074	0.173822	-0.002053
1017	5.0800e-01	9.8358	16.984848	0.000269	2.693443	0.456282	-0.005388
1018	5.0850e-01	9.8267	16.975868	0.000090	0.897814	0.152094	-0.001796
1019	5.0900e-01	9.8169	16.947645	0.000282	2.821703	0.478009	-0.005645
1020	5.0950e-01	9.8047	16.914290	0.000333	3.334739	0.564920	-0.006671
1021	5.1000e-01	9.7943	16.910869	0.000034	0.342025	0.057941	-0.000684
1022	5.1050e-01	9.7864	16.892909	0.000180	1.795629	0.304188	-0.003592
1023	5.1100e-01	9.7766	16.857844	0.000351	3.505752	0.593890	-0.007013
1024	5.1150e-01	9.7638	16.862975	-0.000051	-0.513037	-0.086911	0.001026
1025	5.1200e-01	9.7528	16.806956	0.000560	5.600652	0.948776	-0.011204
1026	5.1250e-01	9.7461	16.801825	0.000051	0.513037	0.086911	-0.001026
1027	5.1300e-01	9.7357	16.783009	0.000188	1.881135	0.318673	-0.003763
1028	5.1350e-01	9.7260	16.759490	0.000235	2.351419	0.398341	-0.004704
1029	5.1400e-01	9.7180	16.730411	0.000291	2.907209	0.492494	-0.005816
1030	5.1450e-01	9.7083	16.709885	0.000205	2.052147	0.347643	-0.004105
1031	5.1500e-01	9.6954	16.695346	0.000145	1.453604	0.246247	-0.002908
1032	5.1550e-01	9.6857	16.670971	0.000244	2.436925	0.412826	-0.004875
1033	5.1600e-01	9.6747	16.659425	0.000115	1.154333	0.195549	-0.002309
1034	5.1650e-01	9.6643	16.629492	0.000299	2.992715	0.506980	-0.005987
1035	5.1700e-01	9.6564	16.600841	0.000286	2.864456	0.485252	-0.005730
1036	5.1750e-01	9.6454	16.588440	0.000124	1.239839	0.210034	-0.002480
1037	5.1800e-01	9.6368	16.552947	0.000355	3.548505	0.601133	-0.007099
1038	5.1850e-01	9.6246	16.529855	0.000231	2.308666	0.391099	-0.004618
1039	5.1900e-01	9.6155	16.529855	-0.000000	-0.000000	-0.000000	0.000000
1040	5.1950e-01	9.6060	16.505480	0.000244	2.436925	0.412826	-0.004875
1041	5.2000e-01	9.6021	16.481961	0.000235	2.351419	0.398341	-0.004704
1042	5.2050e-01	9.5862	16.441764	0.000402	4.018788	0.680801	-0.008039
1043	5.2100e-01	9.5758	16.433212	0.000086	0.855061	0.144851	-0.001711
1044	5.2150e-01	9.5697	16.412258	0.000209	2.094900	0.354886	-0.004191
1045	5.2200e-01	9.5544	16.379331	0.000329	3.291986	0.557678	-0.006585
1046	5.2250e-01	9.5450	16.370351	0.000090	0.897814	0.152094	-0.001796
1047	5.2300e-01	9.5355	16.360088	0.000103	1.026074	0.173822	-0.002053
1048	5.2350e-01	9.5245	16.330154	0.000299	2.992715	0.506980	-0.005987
1049	5.2400e-01	9.5154	16.301931	0.000282	2.821703	0.478009	-0.005645
1050	5.2450e-01	9.5087	16.283115	0.000188	1.881135	0.318673	-0.003763
1051	5.2500e-01	9.4965	16.275846	0.000073	0.726802	0.123124	-0.001454
1052	5.2550e-01	9.4839	16.240780	0.000351	3.505752	0.593890	-0.007013
1053	5.2600e-01	9.4788	16.224958	0.000158	1.581864	0.267975	-0.003164
1054	5.2650e-01	9.4653	16.215550	0.000094	0.940568	0.159336	-0.001882
1055	5.2700e-01	9.4543	16.201866	0.000137	1.368098	0.231762	-0.002737
1056	5.2750e-01	9.4482	16.157393	0.000445	4.446319	0.753227	-0.008895
1057	5.2800e-01	9.4392	16.122756	0.000346	3.462999	0.586648	-0.006928
1058	5.2850e-01	9.4275	16.103940	0.000188	1.881135	0.318673	-0.003763
1059	5.2900e-01	9.4153	16.102657	0.000013	0.128259	0.021728	-0.000257
1060	5.2950e-01	9.4049	16.069303	0.000333	3.334739	0.564920	-0.006671
1061	5.3000e-01	9.3970	16.038514	0.000308	3.078221	0.521465	-0.006158
1062	5.3050e-01	9.3866	16.010290	0.000282	2.821703	0.478009	-0.005645
1063	5.3100e-01	9.3750	15.991475	0.000188	1.881135	0.318673	-0.003763
1064	5.3150e-01	9.3677	15.979501	0.000120	1.197086	0.202792	-0.002395
1065	5.3200e-01	9.3573	15.960258	0.000192	1.923888	0.325915	-0.003849
1066	5.3250e-01	9.3475	15.932462	0.000278	2.778949	0.470767	-0.005559
1067	5.3300e-01	9.3387	15.908943	0.000235	2.351419	0.398341	-0.004704
1068	5.3350e-01	9.3268	15.868319	0.000406	4.061541	0.688044	-0.008125
1069	5.3400e-01	9.3158	15.861904	0.000064	0.641296	0.108638	-0.001283
1070	5.3450e-01	9.3069	15.825556	0.000363	3.634011	0.615618	-0.007270
1071	5.3500e-01	9.2944	15.804603	0.000209	2.094900	0.354886	-0.004191
1072	5.3550e-01	9.2850	15.802037	0.000026	0.256518	0.043455	-0.000513
1073	5.3600e-01	9.2761	15.778090	0.000239	2.394172	0.405584	-0.004789
1074	5.3650e-01	9.2664	15.745590	0.000325	3.249233	0.550435	-0.006500
1075	5.3700e-01	9.2563	15.711380	0.000342	3.420245	0.579405	-0.006842
1076	5.3750e-01	9.2468	15.698979	0.000124	1.239839	0.210034	-0.002480
1077	5.3800e-01	9.2377	15.692137	0.000068	0.684049	0.115881	-0.001368
1078	5.3850e-01	9.2236	15.657927	0.000342	3.420245	0.579405	-0.006842
1079	5.3900e-01	9.2169	15.609178	0.000487	4.873850	0.825653	-0.009750
1080	5.3950e-01	9.2065	15.624145	-0.000150	-1.496357	-0.253490	0.002993
1081	5.4000e-01	9.1977	15.571547	0.000526	5.258627	0.890836	-0.010520
1082	5.4050e-01	9.1864	15.552731	0.000188	1.881135	0.318673	-0.003763
1083	5.4100e-01	9.1754	15.559573	-0.000068	-0.684049	-0.115881	0.001368
1084	5.4150e-01	9.1641	15.535199	0.000244	2.436925	0.412826	-0.004875
1085	5.4200e-01	9.1571	15.489870	0.000453	4.531825	0.767712	-0.009066
1086	5.4250e-01	9.1418	15.478324	0.000115	1.154333	0.195549	-0.002309
1087	5.4300e-01	9.1339	15.460792	0.000175	1.752876	0.296945	-0.003507
1088	5.4350e-01	9.1272	15.427865	0.000329	3.291986	0.557678	-0.006585
1089	5.4400e-01	9.1174	15.401780	0.000261	2.607937	0.441797	-0.005217
1090	5.4450e-01	9.1061	15.386813	0.000150	1.496357	0.253490	-0.002993
1091	5.4500e-01	9.0964	15.356024	0.000308	3.078221	0.521465	-0.006158
1092	5.4550e-01	9.0869	15.341484	0.000145	1.453604	0.246247	-0.002908
1093	5.4600e-01	9.0790	15.313261	0.000282	2.821703	0.478009	-0.005645
1094	5.4650e-01	9.0643	15.266222	0.000470	4.702838	0.796682	-0.009408
1095	5.4700e-01	9.0582	15.261091	0.000051	0.513037	0.086911	-0.001026
1096	5.4750e-01	9.0460	15.238427	0.000227	2.265913	0.383856	-0.004533
1097	5.4800e-01	9.0387	15.216618	0.000218	2.180406	0.369371	-0.004362
1098	5.4850e-01	9.0259	15.201223	0.000154	1.539110	0.260732	-0.003079
1099	5.4900e-01	9.0167	15.169151	0.000321	3.206480	0.543192	-0.006414
1100	5.4950e-01	9.0082	15.158888	0.000103	1.026074	0.173822	-0.002053
1101	5.5000e-01	8.9984	15.099448	0.000594	5.942676	1.006717	-0.011888
1102	5.5050e-01	8.9874	15.104580	-0.000051	-0.513037	-0.086911	0.001026
1103	5.5100e-01	8.9752	15.064811	0.000398	3.976035	0.673559	-0.007954
1104	5.5150e-01	8.9655	15.049844	0.000150	1.496357	0.253490	-0.002993
1105	5.5200e-01	8.9571	15.029746	0.000201	2.009394	0.340401	-0.004020
1106	5.5250e-01	8.9465	14.972871	0.000569	5.686158	0.963261	-0.011375
1107	5.5300e-01	8.9362	14.987411	-0.000145	-1.453604	-0.246247	0.002908
1108	5.5350e-01	8.9233	14.962608	0.000248	2.479678	0.420069	-0.004960
1109	5.5400e-01	8.9154	14.915570	0.000470	4.702838	0.796682	-0.009408
1110	5.5450e-01	8.9081	14.911721	0.000038	0.384778	0.065183	-0.000770
1111	5.5500e-01	8.8971	14.892478	0.000192	1.923888	0.325915	-0.003849
1112	5.5550e-01	8.8885	14.860406	0.000321	3.206480	0.543192	-0.006414
1113	5.5600e-01	8.8788	14.831327	0.000291	2.907209	0.492494	-0.005816
1114	5.5650e-01	8.8684	14.816361	0.000150	1.496357	0.253490	-0.002993
1115	5.5700e-01	8.8538	14.798400	0.000180	1.795629	0.304188	-0.003592
1116	5.5750e-01	8.8483	14.757776	0.000406	4.061541	0.688044	-0.008125
1117	5.5800e-01	8.8367	14.741526	0.000162	1.624617	0.275218	-0.003250
1118	5.5850e-01	8.8293	14.710309	0.000312	3.120974	0.528707	-0.006243
1119	5.5900e-01	8.8141	14.714586	-0.000043	-0.427531	-0.072426	0.000855
1120	5.5950e-01	8.8049	14.679520	0.000351	3.505752	0.593890	-0.007013
1121	5.6000e-01	8.7982	14.661560	0.000180	1.795629	0.304188	-0.003592
1122	5.6050e-01	8.7860	14.602120	0.000594	5.942676	1.006717	-0.011888
1123	5.6100e-01	8.7775	14.592712	0.000094	0.940568	0.159336	-0.001882
1124	5.6150e-01	8.7677	14.586298	0.000064	0.641296	0.108638	-0.001283
1125	5.6200e-01	8.7573	14.576890	0.000094	0.940568	0.159336	-0.001882
1126	5.6250e-01	8.7445	14.531134	0.000457	4.574578	0.774955	-0.009151
1127	5.6300e-01	8.7378	14.497780	0.000333	3.334739	0.564920	-0.006671
1128	5.6350e-01	8.7286	14.477681	0.000201	2.009394	0.340401	-0.004020
1129	5.6400e-01	8.7177	14.461859	0.000158	1.581864	0.267975	-0.003164
1130	5.6450e-01	8.7067	14.440050	0.000218	2.180406	0.369371	-0.004362
1131	5.6500e-01	8.6960	14.400709	0.000393	3.933282	0.666316	-0.007868
1132	5.6550e-01	8.6865	14.366926	0.000338	3.377492	0.572163	-0.006756
1133	5.6600e-01	8.6761	14.350677	0.000162	1.624617	0.275218	-0.003250
1134	5.6650e-01	8.6664	14.328868	0.000218	2.180406	0.369371	-0.004362
1135	5.6700e-01	8.6591	14.312190	0.000167	1.667370	0.282460	-0.003335
1136	5.6750e-01	8.6469	14.269855	0.000423	4.232554	0.717014	-0.008467
1137	5.6800e-01	8.6383	14.266007	0.000038	0.384778	0.065183	-0.000770
1138	5.6850e-01	8.6279	14.245908	0.000201	2.009394	0.340401	-0.004020
1139	5.6900e-01	8.6163	14.211698	0.000342	3.420245	0.579405	-0.006842
1140	5.6950e-01	8.6069	14.171929	0.000398	3.976035	0.673559	-0.007954
1141	5.7000e-01	8.5965	14.167653	0.000043	0.427531	0.072426	-0.000855
1142	5.7050e-01	8.5852	14.135153	0.000325	3.249233	0.550435	-0.006500
1143	5.7100e-01	8.5773	14.082556	0.000526	5.258627	0.890836	-0.010520
1144	5.7150e-01	8.5669	14.088115	-0.000056	-0.555790	-0.094153	0.001112
1145	5.7200e-01	8.5583	14.063740	0.000244	2.436925	0.412826	-0.004875
1146	5.7250e-01	8.5455	14.041504	0.000222	2.223160	0.376613	-0.004447
1147	5.7300e-01	8.5382	14.001307	0.000402	4.018788	0.680801	-0.008039
1148	5.7350e-01	8.5254	13.979070	0.000222	2.223160	0.376613	-0.004447
1149	5.7400e-01	8.5168	13.948709	0.000304	3.035468	0.514222	-0.006072
1150	5.7450e-01	8.5086	13.946571	0.000021	0.213765	0.036213	-0.000428
1151	5.7500e-01	8.4973	13.913644	0.000329	3.291986	0.557678	-0.006585
1152	5.7550e-01	8.4875	13.885420	0.000282	2.821703	0.478009	-0.005645
1153	5.7600e-01	8.4738	13.851638	0.000338	3.377492	0.572163	-0.006756
1154	5.7650e-01	8.4662	13.835388	0.000162	1.624617	0.275218	-0.003250
1155	5.7700e-01	8.4576	13.800323	0.000351	3.505752	0.593890	-0.007013
1156	5.7750e-01	8.4451	13.780224	0.000201	2.009394	0.340401	-0.004020
1157	5.7800e-01	8.4381	13.744304	0.000359	3.591258	0.608376	-0.007184
1158	5.7850e-01	8.4259	13.740455	0.000038	0.384778	0.065183	-0.000770
1159	5.7900e-01	8.4155	13.717791	0.000227	2.265913	0.383856	-0.004533
1160	5.7950e-01	8.4064	13.689140	0.000286	2.864456	0.485252	-0.005730
1161	5.8000e-01	8.3966	13.658351	0.000308	3.078221	0.521465	-0.006158
1162	5.8050e-01	8.3862	13.652365	0.000060	0.598543	0.101396	-0.001197
1163	5.8100e-01	8.3792	13.626279	0.000261	2.607937	0.441797	-0.005217
1164	5.8150e-01	8.3667	13.592069	0.000342	3.420245	0.579405	-0.006842
1165	5.8200e-01	8.3551	13.553583	0.000385	3.847776	0.651831	-0.007697
1166	5.8250e-01	8.3455	13.537761	0.000158	1.581864	0.267975	-0.003164
1167	5.8300e-01	8.3331	13.527498	0.000103	1.026074	0.173822	-0.002053
1168	5.8350e-01	8.3246	13.483025	0.000445	4.446319	0.753227	-0.008895
1169	5.8400e-01	8.3160	13.483025	-0.000000	-0.000000	-0.000000	0.000000
1170	5.8450e-01	8.3075	13.448815	0.000342	3.420245	0.579405	-0.006842
1171	5.8500e-01	8.2974	13.425723	0.000231	2.308666	0.391099	-0.004618
1172	5.8550e-01	8.2886	13.387237	0.000385	3.847776	0.651831	-0.007697
1173	5.8600e-01	8.2788	13.350033	0.000372	3.719517	0.630103	-0.007441
1174	5.8650e-01	8.2687	13.350033	-0.000000	-0.000000	-0.000000	0.000000
1175	5.8700e-01	8.2544	13.328225	0.000218	2.180406	0.369371	-0.004362
1176	5.8750e-01	8.2458	13.288455	0.000398	3.976035	0.673559	-0.007954
1177	5.8800e-01	8.2370	13.254245	0.000342	3.420245	0.579405	-0.006842
1178	5.8850e-01	8.2275	13.237568	0.000167	1.667370	0.282460	-0.003335
1179	5.8900e-01	8.2161	13.210628	0.000269	2.693443	0.456282	-0.005388
1180	5.8950e-01	8.2074	13.187536	0.000231	2.308666	0.391099	-0.004618
1181	5.9000e-01	8.1952	13.153753	0.000338	3.377492	0.572163	-0.006756
1182	5.9050e-01	8.1842	13.134510	0.000192	1.923888	0.325915	-0.003849
1183	5.9100e-01	8.1747	13.115267	0.000192	1.923888	0.325915	-0.003849
1184	5.9150e-01	8.1677	13.076353	0.000389	3.890529	0.659073	-0.007783
1185	5.9200e-01	8.1570	13.045137	0.000312	3.120974	0.528707	-0.006243
1186	5.9250e-01	8.1464	13.045564	-0.000004	-0.042753	-0.007243	0.000086
1187	5.9300e-01	8.1348	13.008361	0.000372	3.719517	0.630103	-0.007441
1188	5.9350e-01	8.1284	12.970730	0.000376	3.762270	0.637346	-0.007526
1189	5.9400e-01	8.1165	12.954480	0.000162	1.624617	0.275218	-0.003250
1190	5.9450e-01	8.1036	12.943789	0.000107	1.068827	0.181064	-0.002138
1191	5.9500e-01	8.0945	12.922408	0.000214	2.137653	0.362128	-0.004276
1192	5.9550e-01	8.0835	12.893330	0.000291	2.907209	0.492494	-0.005816
1193	5.9600e-01	8.0768	12.860830	0.000325	3.249233	0.550435	-0.006500
1194	5.9650e-01	8.0658	12.818495	0.000423	4.232554	0.717014	-0.008467
1195	5.9700e-01	8.0566	12.803528	0.000150	1.496357	0.253490	-0.002993
1196	5.9750e-01	8.0463	12.788561	0.000150	1.496357	0.253490	-0.002993
1197	5.9800e-01	8.0359	12.769318	0.000192	1.923888	0.325915	-0.003849
1198	5.9850e-01	8.0261	12.733398	0.000359	3.591258	0.608376	-0.007184
1199	5.9900e-01	8.0154	12.701754	0.000316	3.163727	0.535950	-0.006329
1200	5.9950e-01	8.0084	12.679945	0.000218	2.180406	0.369371	-0.004362
1201	6.0000e-01	7.9962	12.650011	0.000299	2.992715	0.506980	-0.005987
1202	6.0050e-01	7.9871	12.621788	0.000282	2.821703	0.478009	-0.005645
1203	6.0100e-01	7.9745	12.594847	0.000269	2.693443	0.456282	-0.005388
1204	6.0150e-01	7.9660	12.567052	0.000278	2.778949	0.470767	-0.005559
1205	6.0200e-01	7.9536	12.531131	0.000359	3.591258	0.608376	-0.007184
1206	6.0250e-01	7.9474	12.528993	0.000021	0.213765	0.036213	-0.000428
1207	6.0300e-01	7.9364	12.493500	0.000355	3.548505	0.601133	-0.007099
1208	6.0350e-01	7.9254	12.464422	0.000291	2.907209	0.492494	-0.005816
1209	6.0400e-01	7.9175	12.448599	0.000158	1.581864	0.267975	-0.003164
1210	6.0450e-01	7.9071	12.399850	0.000487	4.873850	0.825653	-0.009750
1211	6.0500e-01	7.8967	12.400705	-0.000009	-0.085506	-0.014485	0.000171
1212	6.0550e-01	7.8860	12.357943	0.000428	4.275307	0.724257	-0.008553
1213	6.0600e-01	7.8772	12.335279	0.000227	2.265913	0.383856	-0.004533
1214	6.0650e-01	7.8650	12.303207	0.000321	3.206480	0.543192	-0.006414
1215	6.0700e-01	7.8589	12.301496	0.000017	0.171012	0.028970	-0.000342
1216	6.0750e-01	7.8479	12.248471	0.000530	5.301380	0.898078	-0.010605
1217	6.0800e-01	7.8345	12.226234	0.000222	2.223160	0.376613	-0.004447
1218	6.0850e-01	7.8271	12.192024	0.000342	3.420245	0.579405	-0.006842
1219	6.0900e-01	7.8156	12.159097	0.000329	3.291986	0.557678	-0.006585
1220	6.0950e-01	7.8070	12.167222	-0.000081	-0.812308	-0.137609	0.001625
1221	6.1000e-01	7.7966	12.138999	0.000282	2.821703	0.478009	-0.005645
1222	6.1050e-01	7.7850	12.112486	0.000265	2.650690	0.449039	-0.005303
1223	6.1100e-01	7.7759	12.080414	0.000321	3.206480	0.543192	-0.006414
1224	6.1150e-01	7.7655	12.047487	0.000329	3.291986	0.557678	-0.006585
1225	6.1200e-01	7.7554	12.018836	0.000286	2.864456	0.485252	-0.005730
1226	6.1250e-01	7.7454	11.997882	0.000209	2.094900	0.354886	-0.004191
1227	6.1300e-01	7.7362	11.979494	0.000184	1.838382	0.311430	-0.003678
1228	6.1350e-01	7.7246	11.945712	0.000338	3.377492	0.572163	-0.006756
1229	6.1400e-01	7.7167	11.914923	0.000308	3.078221	0.521465	-0.006158
1230	6.1450e-01	7.7094	11.898246	0.000167	1.667370	0.282460	-0.003335
1231	6.1500e-01	7.6935	11.881141	0.000171	1.710123	0.289703	-0.003421
1232	6.1550e-01	7.6862	11.849924	0.000312	3.120974	0.528707	-0.006243
1233	6.1600e-01	7.6758	11.815286	0.000346	3.462999	0.586648	-0.006928
1234	6.1650e-01	7.6654	11.787918	0.000274	2.736196	0.463524	-0.005474
1235	6.1700e-01	7.6587	11.755419	0.000325	3.249233	0.550435	-0.006500
1236	6.1750e-01	7.6447	11.725485	0.000299	2.992715	0.506980	-0.005987
1237	6.1800e-01	7.6361	11.718215	0.000073	0.726802	0.123124	-0.001454
1238	6.1850e-01	7.6239	11.708380	0.000098	0.983321	0.166579	-0.001967
1239	6.1900e-01	7.6163	11.644236	0.000641	6.412960	1.086385	-0.012829
1240	6.1950e-01	7.6062	11.618151	0.000261	2.607937	0.441797	-0.005217
1241	6.2000e-01	7.5964	11.599763	0.000184	1.838382	0.311430	-0.003678
1242	6.2050e-01	7.5858	11.592066	0.000077	0.769555	0.130366	-0.001539
1243	6.2100e-01	7.5769	11.534764	0.000573	5.728911	0.970504	-0.011460
1244	6.2150e-01	7.5690	11.527495	0.000073	0.726802	0.123124	-0.001454
1245	6.2200e-01	7.5549	11.518514	0.000090	0.897814	0.152094	-0.001796
1246	6.2250e-01	7.5482	11.487725	0.000308	3.078221	0.521465	-0.006158
1247	6.2300e-01	7.5348	11.411180	0.000765	7.652799	1.296419	-0.015309
1248	6.2350e-01	7.5262	11.430424	-0.000192	-1.923888	-0.325915	0.003849
1249	6.2400e-01	7.5186	11.403483	0.000269	2.693443	0.456282	-0.005388
1250	6.2450e-01	7.5073	11.366280	0.000372	3.719517	0.630103	-0.007441
1251	6.2500e-01	7.4960	11.338057	0.000282	2.821703	0.478009	-0.005645
1252	6.2550e-01	7.4866	11.309406	0.000286	2.864456	0.485252	-0.005730
1253	6.2600e-01	7.4768	11.285031	0.000244	2.436925	0.412826	-0.004875
1254	6.2650e-01	7.4667	11.261939	0.000231	2.308666	0.391099	-0.004618
1255	6.2700e-01	7.4548	11.230295	0.000316	3.163727	0.535950	-0.006329
1256	6.2750e-01	7.4460	11.214900	0.000154	1.539110	0.260732	-0.003079
1257	6.2800e-01	7.4353	11.170427	0.000445	4.446319	0.753227	-0.008895
1258	6.2850e-01	7.4255	11.161020	0.000094	0.940568	0.159336	-0.001882
1259	6.2900e-01	7.4152	11.140494	0.000205	2.052147	0.347643	-0.004105
1260	6.2950e-01	7.4060	11.091317	0.000492	4.916603	0.832895	-0.009835
1261	6.3000e-01	7.3962	11.066087	0.000252	2.522431	0.427311	-0.005046
1262	6.3050e-01	7.3859	11.048127	0.000180	1.795629	0.304188	-0.003592
1263	6.3100e-01	7.3761	11.035725	0.000124	1.239839	0.210034	-0.002480
1264	6.3150e-01	7.3646	10.966878	0.000688	6.883244	1.166053	-0.013770
1265	6.3200e-01	7.3566	10.960036	0.000068	0.684049	0.115881	-0.001368
1266	6.3250e-01	7.3492	10.943786	0.000162	1.624617	0.275218	-0.003250
1267	6.3300e-01	7.3364	10.908293	0.000355	3.548505	0.601133	-0.007099
1268	6.3350e-01	7.3248	10.907010	0.000013	0.128259	0.021728	-0.000257
1269	6.3400e-01	7.3190	10.842439	0.000646	6.455713	1.093627	-0.012914
1270	6.3450e-01	7.3065	10.840728	0.000017	0.171012	0.028970	-0.000342
1271	6.3500e-01	7.2968	10.796683	0.000440	4.403566	0.745984	-0.008809
1272	6.3550e-01	7.2864	10.773591	0.000231	2.308666	0.391099	-0.004618
1273	6.3600e-01	7.2784	10.751355	0.000222	2.223160	0.376613	-0.004447
1274	6.3650e-01	7.2650	10.730401	0.000209	2.094900	0.354886	-0.004191
1275	6.3700e-01	7.2559	10.704316	0.000261	2.607937	0.441797	-0.005217
1276	6.3750e-01	7.2461	10.673099	0.000312	3.120974	0.528707	-0.006243
1277	6.3800e-01	7.2382	10.642310	0.000308	3.078221	0.521465	-0.006158
1278	6.3850e-01	7.2284	10.615370	0.000269	2.693443	0.456282	-0.005388
1279	6.3900e-01	7.2165	10.575601	0.000398	3.976035	0.673559	-0.007954
1280	6.3950e-01	7.2096	10.557640	0.000180	1.795629	0.304188	-0.003592
1281	6.4000e-01	7.1985	10.559779	-0.000021	-0.213765	-0.036213	0.000428
1282	6.4050e-01	7.1869	10.517871	0.000419	4.189801	0.709771	-0.008381
1283	6.4100e-01	7.1779	10.493069	0.000248	2.479678	0.420069	-0.004960
1284	6.4150e-01	7.1674	10.437478	0.000556	5.557899	0.941534	-0.011118
1285	6.4200e-01	7.1539	10.435767	0.000017	0.171012	0.028970	-0.000342
1286	6.4250e-01	7.1472	10.402840	0.000329	3.291986	0.557678	-0.006585
1287	6.4300e-01	7.1367	10.358367	0.000445	4.446319	0.753227	-0.008895
1288	6.4350e-01	7.1245	10.321591	0.000368	3.676764	0.622861	-0.007355
1289	6.4400e-01	7.1185	10.303203	0.000184	1.838382	0.311430	-0.003678
1290	6.4450e-01	7.1033	10.283533	0.000197	1.966641	0.333158	-0.003934
1291	6.4500e-01	7.0941	10.239060	0.000445	4.446319	0.753227	-0.008895
1292	6.4550e-01	7.0856	10.231362	0.000077	0.769555	0.130366	-0.001539
1293	6.4600e-01	7.0813	10.219816	0.000115	1.154333	0.195549	-0.002309
1294	6.4650e-01	7.0660	10.183896	0.000359	3.591258	0.608376	-0.007184
1295	6.4700e-01	7.0583	10.154817	0.000291	2.907209	0.492494	-0.005816
1296	6.4750e-01	7.0459	10.107779	0.000470	4.702838	0.796682	-0.009408
1297	6.4800e-01	7.0367	10.088108	0.000197	1.966641	0.333158	-0.003934
1298	6.4850e-01	7.0258	10.063306	0.000248	2.479678	0.420069	-0.004960
1299	6.4900e-01	7.0160	10.038931	0.000244	2.436925	0.412826	-0.004875
1300	6.4950e-01	7.0068	10.006004	0.000329	3.291986	0.557678	-0.006585
1301	6.5000e-01	6.9977	9.975215	0.000308	3.078221	0.521465	-0.006158
1302	6.5050e-01	6.9873	9.972649	0.000026	0.256518	0.043455	-0.000513
1303	6.5100e-01	6.9742	9.932880	0.000398	3.976035	0.673559	-0.007954
1304	6.5150e-01	6.9653	9.879854	0.000530	5.301380	0.898078	-0.010605
1305	6.5200e-01	6.9556	9.880282	-0.000004	-0.042753	-0.007243	0.000086
1306	6.5250e-01	6.9461	9.848638	0.000316	3.163727	0.535950	-0.006329
1307	6.5300e-01	6.9354	9.821697	0.000269	2.693443	0.456282	-0.005388
1308	6.5350e-01	6.9275	9.805448	0.000162	1.624617	0.275218	-0.003250
1309	6.5400e-01	6.9154	9.750712	0.000547	5.472393	0.927048	-0.010947
1310	6.5450e-01	6.9061	9.739593	0.000111	1.111580	0.188307	-0.002224
1311	6.5500e-01	6.8958	9.697258	0.000423	4.232554	0.717014	-0.008467
1312	6.5550e-01	6.8848	9.678443	0.000188	1.881135	0.318673	-0.003763
1313	6.5600e-01	6.8777	9.630976	0.000475	4.745591	0.803925	-0.009493
1314	6.5650e-01	6.8634	9.622424	0.000086	0.855061	0.144851	-0.001711
1315	6.5700e-01	6.8542	9.588642	0.000338	3.377492	0.572163	-0.006756
1316	6.5750e-01	6.8463	9.562129	0.000265	2.650690	0.449039	-0.005303
1317	6.5800e-01	6.8353	9.524070	0.000381	3.805023	0.644588	-0.007612
1318	6.5850e-01	6.8274	9.490288	0.000338	3.377492	0.572163	-0.006756
1319	6.5900e-01	6.8161	9.481308	0.000090	0.897814	0.152094	-0.001796
1320	6.5950e-01	6.8048	9.460354	0.000209	2.094900	0.354886	-0.004191
1321	6.6000e-01	6.7944	9.433841	0.000265	2.650690	0.449039	-0.005303
1322	6.6050e-01	6.7859	9.397921	0.000359	3.591258	0.608376	-0.007184
1323	6.6100e-01	6.7773	9.352592	0.000453	4.531825	0.767712	-0.009066
1324	6.6150e-01	6.7648	9.346606	0.000060	0.598543	0.101396	-0.001197
1325	6.6200e-01	6.7584	9.314106	0.000325	3.249233	0.550435	-0.006500
1326	6.6250e-01	6.7456	9.294008	0.000201	2.009394	0.340401	-0.004020
1327	6.6300e-01	6.7352	9.257660	0.000363	3.634011	0.615618	-0.007270
1328	6.6350e-01	6.7303	9.230292	0.000274	2.736196	0.463524	-0.005474
1329	6.6400e-01	6.7151	9.193943	0.000363	3.634011	0.615618	-0.007270
1330	6.6450e-01	6.7053	9.171279	0.000227	2.265913	0.383856	-0.004533
1331	6.6500e-01	6.6962	9.153319	0.000180	1.795629	0.304188	-0.003592
1332	6.6550e-01	6.6855	9.135786	0.000175	1.752876	0.296945	-0.003507
1333	6.6600e-01	6.6772	9.076346	0.000594	5.942676	1.006717	-0.011888
1334	6.6650e-01	6.6663	9.065228	0.000111	1.111580	0.188307	-0.002224
1335	6.6700e-01	6.6614	9.024176	0.000410	4.104295	0.695286	-0.008210
1336	6.6750e-01	6.6461	8.992532	0.000316	3.163727	0.535950	-0.006329
1337	6.6800e-01	6.6364	8.976282	0.000162	1.624617	0.275218	-0.003250
1338	6.6850e-01	6.6275	8.934375	0.000419	4.189801	0.709771	-0.008381
1339	6.6900e-01	6.6144	8.933520	0.000009	0.085506	0.014485	-0.000171
1340	6.6950e-01	6.6052	8.892468	0.000410	4.104295	0.695286	-0.008210
1341	6.7000e-01	6.5939	8.872797	0.000197	1.966641	0.333158	-0.003934
1342	6.7050e-01	6.5857	8.838587	0.000342	3.420245	0.579405	-0.006842
1343	6.7100e-01	6.5753	8.799245	0.000393	3.933282	0.666316	-0.007868
1344	6.7150e-01	6.5649	8.768029	0.000312	3.120974	0.528707	-0.006243
1345	6.7200e-01	6.5533	8.732536	0.000355	3.548505	0.601133	-0.007099
1346	6.7250e-01	6.5479	8.716714	0.000158	1.581864	0.267975	-0.003164
1347	6.7300e-01	6.5353	8.687635	0.000291	2.907209	0.492494	-0.005816
1348	6.7350e-01	6.5265	8.649149	0.000385	3.847776	0.651831	-0.007697
1349	6.7400e-01	6.5155	8.619215	0.000299	2.992715	0.506980	-0.005987
1350	6.7450e-01	6.5085	8.592275	0.000269	2.693443	0.456282	-0.005388
1351	6.7500e-01	6.4972	8.575170	0.000171	1.710123	0.289703	-0.003421
1352	6.7550e-01	6.4832	8.537111	0.000381	3.805023	0.644588	-0.007612
1353	6.7600e-01	6.4786	8.505894	0.000312	3.120974	0.528707	-0.006243
1354	6.7650e-01	6.4642	8.486224	0.000197	1.966641	0.333158	-0.003934
1355	6.7700e-01	6.4551	8.456717	0.000295	2.949962	0.499737	-0.005901
1356	6.7750e-01	6.4471	8.435336	0.000214	2.137653	0.362128	-0.004276
1357	6.7800e-01	6.4359	8.396850	0.000385	3.847776	0.651831	-0.007697
1358	6.7850e-01	6.4282	8.364778	0.000321	3.206480	0.543192	-0.006414
1359	6.7900e-01	6.4151	8.354515	0.000103	1.026074	0.173822	-0.002053
1360	6.7950e-01	6.4063	8.303200	0.000513	5.130368	0.869108	-0.010263
1361	6.8000e-01	6.3960	8.283529	0.000197	1.966641	0.333158	-0.003934
1362	6.8050e-01	6.3840	8.280963	0.000026	0.256518	0.043455	-0.000513
1363	6.8100e-01	6.3757	8.227510	0.000534	5.344134	0.905321	-0.010691
1364	6.8150e-01	6.3654	8.193300	0.000342	3.420245	0.579405	-0.006842
1365	6.8200e-01	6.3531	8.157807	0.000355	3.548505	0.601133	-0.007099
1366	6.8250e-01	6.3440	8.122742	0.000351	3.505752	0.593890	-0.007013
1367	6.8300e-01	6.3361	8.116755	0.000060	0.598543	0.101396	-0.001197
1368	6.8350e-01	6.3232	8.074848	0.000419	4.189801	0.709771	-0.008381
1369	6.8400e-01	6.3135	8.041066	0.000338	3.377492	0.572163	-0.006756
1370	6.8450e-01	6.3031	8.029520	0.000115	1.154333	0.195549	-0.002309
1371	6.8500e-01	6.2949	7.993599	0.000359	3.591258	0.608376	-0.007184
1372	6.8550e-01	6.2856	7.970935	0.000227	2.265913	0.383856	-0.004533
1373	6.8600e-01	6.2756	7.928600	0.000423	4.232554	0.717014	-0.008467
1374	6.8650e-01	6.2659	7.905508	0.000231	2.308666	0.391099	-0.004618
1375	6.8700e-01	6.2573	7.864456	0.000410	4.104295	0.695286	-0.008210
1376	6.8750e-01	6.2469	7.841365	0.000231	2.308666	0.391099	-0.004618
1377	6.8800e-01	6.2366	7.839654	0.000017	0.171012	0.028970	-0.000342
1378	6.8850e-01	6.2251	7.774655	0.000650	6.498466	1.100870	-0.013000
1379	6.8900e-01	6.2164	7.769096	0.000056	0.555790	0.094153	-0.001112
1380	6.8950e-01	6.2039	7.753701	0.000154	1.539110	0.260732	-0.003079
1381	6.9000e-01	6.1963	7.700248	0.000534	5.344134	0.905321	-0.010691
1382	6.9050e-01	6.1859	7.670742	0.000295	2.949962	0.499737	-0.005901
1383	6.9100e-01	6.1758	7.646795	0.000239	2.394172	0.405584	-0.004789
1384	6.9150e-01	6.1676	7.610447	0.000363	3.634011	0.615618	-0.007270
1385	6.9200e-01	6.1592	7.585217	0.000252	2.522431	0.427311	-0.005046
1386	6.9250e-01	6.1465	7.568540	0.000167	1.667370	0.282460	-0.003335
1387	6.9300e-01	6.1346	7.523639	0.000449	4.489072	0.760469	-0.008980
1388	6.9350e-01	6.1249	7.504396	0.000192	1.923888	0.325915	-0.003849
1389	6.9400e-01	6.1166	7.469758	0.000346	3.462999	0.586648	-0.006928
1390	6.9450e-01	6.1078	7.420581	0.000492	4.916603	0.832895	-0.009835
1391	6.9500e-01	6.0992	7.403904	0.000167	1.667370	0.282460	-0.003335
1392	6.9550e-01	6.0867	7.381240	0.000227	2.265913	0.383856	-0.004533
1393	6.9600e-01	6.0779	7.344036	0.000372	3.719517	0.630103	-0.007441
1394	6.9650e-01	6.0663	7.295287	0.000487	4.873850	0.825653	-0.009750
1395	6.9700e-01	6.0559	7.296570	-0.000013	-0.128259	-0.021728	0.000257
1396	6.9750e-01	6.0487	7.256373	0.000402	4.018788	0.680801	-0.008039
1397	6.9800e-01	6.0364	7.233709	0.000227	2.265913	0.383856	-0.004533
1398	6.9850e-01	6.0271	7.186243	0.000475	4.745591	0.803925	-0.009493
1399	6.9900e-01	6.0138	7.166572	0.000197	1.966641	0.333158	-0.003934
1400	6.9950e-01	6.0028	7.126803	0.000398	3.976035	0.673559	-0.007954
1401	7.0000e-01	5.9985	7.096869	0.000299	2.992715	0.506980	-0.005987
1402	7.0050e-01	5.9875	7.088744	0.000081	0.812308	0.137609	-0.001625
1403	7.0100e-01	5.9778	7.041705	0.000470	4.702838	0.796682	-0.009408
1404	7.0150e-01	5.9647	7.008351	0.000333	3.334739	0.564920	-0.006671
1405	7.0200e-01	5.9579	6.987825	0.000205	2.052147	0.347643	-0.004105
1406	7.0250e-01	5.9473	6.974141	0.000137	1.368098	0.231762	-0.002737
1407	7.0300e-01	5.9375	6.921970	0.000522	5.215874	0.883593	-0.010434
1408	7.0350e-01	5.9265	6.888616	0.000333	3.334739	0.564920	-0.006671
1409	7.0400e-01	5.9167	6.872366	0.000162	1.624617	0.275218	-0.003250
1410	7.0450e-01	5.9073	6.826610	0.000457	4.574578	0.774955	-0.009151
1411	7.0500e-01	5.8978	6.802663	0.000239	2.394172	0.405584	-0.004789
1412	7.0550e-01	5.8864	6.777861	0.000248	2.479678	0.420069	-0.004960
1413	7.0600e-01	5.8752	6.745789	0.000321	3.206480	0.543192	-0.006414
1414	7.0650e-01	5.8643	6.702171	0.000436	4.360813	0.738742	-0.008724
1415	7.0700e-01	5.8539	6.674375	0.000278	2.778949	0.470767	-0.005559
1416	7.0750e-01	5.8447	6.647007	0.000274	2.736196	0.463524	-0.005474
1417	7.0800e-01	5.8356	6.636744	0.000103	1.026074	0.173822	-0.002053
1418	7.0850e-01	5.8252	6.601679	0.000351	3.505752	0.593890	-0.007013
1419	7.0900e-01	5.8154	6.546943	0.000547	5.472393	0.927048	-0.010947
1420	7.0950e-01	5.8063	6.526417	0.000205	2.052147	0.347643	-0.004105
1421	7.1000e-01	5.7944	6.510595	0.000158	1.581864	0.267975	-0.003164
1422	7.1050e-01	5.7861	6.463556	0.000470	4.702838	0.796682	-0.009408
1423	7.1100e-01	5.7779	6.457569	0.000060	0.598543	0.101396	-0.001197
1424	7.1150e-01	5.7635	6.407537	0.000500	5.002109	0.847380	-0.010006
1425	7.1200e-01	5.7571	6.392998	0.000145	1.453604	0.246247	-0.002908
1426	7.1250e-01	5.7471	6.354939	0.000381	3.805023	0.644588	-0.007612
1427	7.1300e-01	5.7367	6.311321	0.000436	4.360813	0.738742	-0.008724
1428	7.1350e-01	5.7260	6.304052	0.000073	0.726802	0.123124	-0.001454
1429	7.1400e-01	5.7153	6.257868	0.000462	4.617331	0.782197	-0.009237
1430	7.1450e-01	5.7065	6.240336	0.000175	1.752876	0.296945	-0.003507
1431	7.1500e-01	5.6940	6.207408	0.000329	3.291986	0.557678	-0.006585
1432	7.1550e-01	5.6848	6.157804	0.000496	4.959356	0.840138	-0.009921
1433	7.1600e-01	5.6775	6.146258	0.000115	1.154333	0.195549	-0.002309
1434	7.1650e-01	5.6665	6.127015	0.000192	1.923888	0.325915	-0.003849
1435	7.1700e-01	5.6543	6.075272	0.000517	5.173121	0.876350	-0.010349
1436	7.1750e-01	5.6439	6.049615	0.000257	2.565184	0.434554	-0.005132
1437	7.1800e-01	5.6375	6.044483	0.000051	0.513037	0.086911	-0.001026
1438	7.1850e-01	5.6270	5.989747	0.000547	5.472393	0.927048	-0.010947
1439	7.1900e-01	5.6165	5.961096	0.000286	2.864456	0.485252	-0.005730
1440	7.1950e-01	5.6085	5.951689	0.000094	0.940568	0.159336	-0.001882
1441	7.2000e-01	5.5939	5.898663	0.000530	5.301380	0.898078	-0.010605
1442	7.2050e-01	5.5859	5.867446	0.000312	3.120974	0.528707	-0.006243
1443	7.2100e-01	5.5746	5.841789	0.000257	2.565184	0.434554	-0.005132
1444	7.2150e-01	5.5664	5.807151	0.000346	3.462999	0.586648	-0.006928
1445	7.2200e-01	5.5563	5.787053	0.000201	2.009394	0.340401	-0.004020
1446	7.2250e-01	5.5475	5.725902	0.000611	6.113689	1.035687	-0.012230
1447	7.2300e-01	5.5359	5.724620	0.000013	0.128259	0.021728	-0.000257
1448	7.2350e-01	5.5273	5.679719	0.000449	4.489072	0.760469	-0.008980
1449	7.2400e-01	5.5170	5.650213	0.000295	2.949962	0.499737	-0.005901
1450	7.2450e-01	5.5066	5.613865	0.000363	3.634011	0.615618	-0.007270
1451	7.2500e-01	5.4944	5.621134	-0.000073	-0.726802	-0.123124	0.001454
1452	7.2550e-01	5.4858	5.554852	0.000663	6.626726	1.122598	-0.013256
1453	7.2600e-01	5.4779	5.532188	0.000227	2.265913	0.383856	-0.004533
1454	7.2650e-01	5.4660	5.500972	0.000312	3.120974	0.528707	-0.006243
1455	7.2700e-01	5.4581	5.440249	0.000607	6.070936	1.028444	-0.012145
1456	7.2750e-01	5.4446	5.426565	0.000137	1.368098	0.231762	-0.002737
1457	7.2800e-01	5.4346	5.405183	0.000214	2.137653	0.362128	-0.004276
1458	7.2850e-01	5.4244	5.368835	0.000363	3.634011	0.615618	-0.007270
1459	7.2900e-01	5.4156	5.342750	0.000261	2.607937	0.441797	-0.005217
1460	7.2950e-01	5.4054	5.323079	0.000197	1.966641	0.333158	-0.003934
1461	7.3000e-01	5.3964	5.269199	0.000539	5.386887	0.912563	-0.010776
1462	7.3050e-01	5.3839	5.249100	0.000201	2.009394	0.340401	-0.004020
1463	7.3100e-01	5.3748	5.239265	0.000098	0.983321	0.166579	-0.001967
1464	7.3150e-01	5.3662	5.197785	0.000415	4.147048	0.702529	-0.008296
1465	7.3200e-01	5.3564	5.163148	0.000346	3.462999	0.586648	-0.006928
1466	7.3250e-01	5.3442	5.123378	0.000398	3.976035	0.673559	-0.007954
1467	7.3300e-01	5.3375	5.077623	0.000457	4.574578	0.774955	-0.009151
1468	7.3350e-01	5.3259	5.056669	0.000209	2.094900	0.354886	-0.004191
1469	7.3400e-01	5.3137	5.034005	0.000227	2.265913	0.383856	-0.004533
1470	7.3450e-01	5.3036	4.989532	0.000445	4.446319	0.753227	-0.008895
1471	7.3500e-01	5.2966	4.966868	0.000227	2.265913	0.383856	-0.004533
1472	7.3550e-01	5.2856	4.937789	0.000291	2.907209	0.492494	-0.005816
1473	7.3600e-01	5.2762	4.914697	0.000231	2.308666	0.391099	-0.004618
1474	7.3650e-01	5.2655	4.860389	0.000543	5.429640	0.919806	-0.010862
1475	7.3700e-01	5.2560	4.852264	0.000081	0.812308	0.137609	-0.001625
1476	7.3750e-01	5.2472	4.801804	0.000504	5.044862	0.854623	-0.010092
1477	7.3800e-01	5.2420	4.768877	0.000329	3.291986	0.557678	-0.006585
1478	7.3850e-01	5.2289	4.742792	0.000261	2.607937	0.441797	-0.005217
1479	7.3900e-01	5.2151	4.712431	0.000304	3.035468	0.514222	-0.006072
1480	7.3950e-01	5.2057	4.689766	0.000227	2.265913	0.383856	-0.004533
1481	7.4000e-01	5.1971	4.641017	0.000487	4.873850	0.825653	-0.009750
1482	7.4050e-01	5.1855	4.605097	0.000359	3.591258	0.608376	-0.007184
1483	7.4100e-01	5.1759	4.587992	0.000171	1.710123	0.289703	-0.003421
1484	7.4150e-01	5.1654	4.558485	0.000295	2.949962	0.499737	-0.005901
1485	7.4200e-01	5.1559	4.531117	0.000274	2.736196	0.463524	-0.005474
1486	7.4250e-01	5.1468	4.503322	0.000278	2.778949	0.470767	-0.005559
1487	7.4300e-01	5.1370	4.450296	0.000530	5.301380	0.898078	-0.010605
1488	7.4350e-01	5.1254	4.402830	0.000475	4.745591	0.803925	-0.009493
1489	7.4400e-01	5.1141	4.405396	-0.000026	-0.256518	-0.043455	0.000513
1490	7.4450e-01	5.1062	4.366482	0.000389	3.890529	0.659073	-0.007783
1491	7.4500e-01	5.0967	4.342535	0.000239	2.394172	0.405584	-0.004789
1492	7.4550e-01	5.0867	4.309180	0.000333	3.334739	0.564920	-0.006671
1493	7.4600e-01	5.0763	4.273687	0.000355	3.548505	0.601133	-0.007099
1494	7.4650e-01	5.0681	4.255299	0.000184	1.838382	0.311430	-0.003678
1495	7.4700e-01	5.0574	4.206122	0.000492	4.916603	0.832895	-0.009835
1496	7.4750e-01	5.0452	4.154380	0.000517	5.173121	0.876350	-0.010349
1497	7.4800e-01	5.0348	4.143689	0.000107	1.068827	0.181064	-0.002138
1498	7.4850e-01	5.0247	4.110334	0.000333	3.334739	0.564920	-0.006671
1499	7.4900e-01	5.0171	4.074841	0.000355	3.548505	0.601133	-0.007099
1500	7.4950e-01	5.0061	4.044052	0.000308	3.078221	0.521465	-0.006158
1501	7.5000e-01	4.9963	4.007276	0.000368	3.676764	0.622861	-0.007355
1502	7.5050e-01	4.9835	3.982902	0.000244	2.436925	0.412826	-0.004875
1503	7.5100e-01	4.9786	3.947837	0.000351	3.505752	0.593890	-0.007013
1504	7.5150e-01	4.9664	3.914054	0.000338	3.377492	0.572163	-0.006756
1505	7.5200e-01	4.9561	3.897804	0.000162	1.624617	0.275218	-0.003250
1506	7.5250e-01	4.9500	3.833661	0.000641	6.412960	1.086385	-0.012829
1507	7.5300e-01	4.9377	3.832805	0.000009	0.085506	0.014485	-0.000171
1508	7.5350e-01	4.9258	3.793891	0.000389	3.890529	0.659073	-0.007783
1509	7.5400e-01	4.9182	3.763958	0.000299	2.992715	0.506980	-0.005987
1510	7.5450e-01	4.9078	3.723761	0.000402	4.018788	0.680801	-0.008039
1511	7.5500e-01	4.8976	3.683564	0.000402	4.018788	0.680801	-0.008039
1512	7.5550e-01	4.8859	3.654913	0.000286	2.864456	0.485252	-0.005730
1513	7.5600e-01	4.8749	3.626262	0.000286	2.864456	0.485252	-0.005730
1514	7.5650e-01	4.8639	3.586493	0.000398	3.976035	0.673559	-0.007954
1515	7.5700e-01	4.8557	3.580506	0.000060	0.598543	0.101396	-0.001197
1516	7.5750e-01	4.8471	3.543731	0.000368	3.676764	0.622861	-0.007355
1517	7.5800e-01	4.8337	3.491133	0.000526	5.258627	0.890836	-0.010520
1518	7.5850e-01	4.8273	3.465048	0.000261	2.607937	0.441797	-0.005217
1519	7.5900e-01	4.8154	3.422285	0.000428	4.275307	0.724257	-0.008553
1520	7.5950e-01	4.8062	3.407318	0.000150	1.496357	0.253490	-0.002993
1521	7.6000e-01	4.7977	3.356431	0.000509	5.087615	0.861865	-0.010177
1522	7.6050e-01	4.7858	3.332056	0.000244	2.436925	0.412826	-0.004875
1523	7.6100e-01	4.7768	3.293997	0.000381	3.805023	0.644588	-0.007612
1524	7.6150e-01	4.7672	3.265774	0.000282	2.821703	0.478009	-0.005645
1525	7.6200e-01	4.7552	3.238834	0.000269	2.693443	0.456282	-0.005388
1526	7.6250e-01	4.7461	3.192650	0.000462	4.617331	0.782197	-0.009237
1527	7.6300e-01	4.7359	3.160151	0.000325	3.249233	0.550435	-0.006500
1528	7.6350e-01	4.7260	3.132355	0.000278	2.778949	0.470767	-0.005559
1529	7.6400e-01	4.7183	3.111401	0.000209	2.094900	0.354886	-0.004191
1530	7.6450e-01	4.7058	3.069922	0.000415	4.147048	0.702529	-0.008296
1531	7.6500e-01	4.6954	3.018607	0.000513	5.130368	0.869108	-0.010263
1532	7.6550e-01	4.6844	3.013903	0.000047	0.470284	0.079668	-0.000941
1533	7.6600e-01	4.6742	2.978410	0.000355	3.548505	0.601133	-0.007099
1534	7.6650e-01	4.6664	2.933937	0.000445	4.446319	0.753227	-0.008895
1535	7.6700e-01	4.6570	2.907424	0.000265	2.650690	0.449039	-0.005303
1536	7.6750e-01	4.6484	2.867227	0.000402	4.018788	0.680801	-0.008039
1537	7.6800e-01	4.6353	2.830024	0.000372	3.719517	0.630103	-0.007441
1538	7.6850e-01	4.6255	2.791965	0.000381	3.805023	0.644588	-0.007612
1539	7.6900e-01	4.6194	2.781702	0.000103	1.026074	0.173822	-0.002053
1540	7.6950e-01	4.6066	2.758611	0.000231	2.308666	0.391099	-0.004618
1541	7.7000e-01	4.5941	2.704302	0.000543	5.429640	0.919806	-0.010862
1542	7.7050e-01	4.5874	2.676934	0.000274	2.736196	0.463524	-0.005474
1543	7.7100e-01	4.5776	2.642724	0.000342	3.420245	0.579405	-0.006842
1544	7.7150e-01	4.5679	2.609369	0.000333	3.334739	0.564920	-0.006671
1545	7.7200e-01	4.5557	2.564469	0.000449	4.489072	0.760469	-0.008980
1546	7.7250e-01	4.5471	2.545226	0.000192	1.923888	0.325915	-0.003849
1547	7.7300e-01	4.5346	2.508450	0.000368	3.676764	0.622861	-0.007355
1548	7.7350e-01	4.5267	2.462694	0.000457	4.574578	0.774955	-0.009151
1549	7.7400e-01	4.5129	2.443878	0.000188	1.881135	0.318673	-0.003763
1550	7.7450e-01	4.5056	2.410524	0.000333	3.334739	0.564920	-0.006671
1551	7.7500e-01	4.4955	2.378024	0.000325	3.249233	0.550435	-0.006500
1552	7.7550e-01	4.4882	2.339110	0.000389	3.890529	0.659073	-0.007783
1553	7.7600e-01	4.4803	2.304900	0.000342	3.420245	0.579405	-0.006842
1554	7.7650e-01	4.4649	2.276677	0.000282	2.821703	0.478009	-0.005645
1555	7.7700e-01	4.4547	2.239046	0.000376	3.762270	0.637346	-0.007526
1556	7.7750e-01	4.4464	2.207829	0.000312	3.120974	0.528707	-0.006243
1557	7.7800e-01	4.4360	2.189441	0.000184	1.838382	0.311430	-0.003678
1558	7.7850e-01	4.4258	2.135561	0.000539	5.386887	0.912563	-0.010776
1559	7.7900e-01	4.4171	2.097502	0.000381	3.805023	0.644588	-0.007612
1560	7.7950e-01	4.4077	2.067141	0.000304	3.035468	0.514222	-0.006072
1561	7.8000e-01	4.3988	2.038490	0.000286	2.864456	0.485252	-0.005730
1562	7.8050e-01	4.3854	2.010266	0.000282	2.821703	0.478009	-0.005645
1563	7.8100e-01	4.3768	1.968359	0.000419	4.189801	0.709771	-0.008381
1564	7.8150e-01	4.3646	1.932011	0.000363	3.634011	0.615618	-0.007270
1565	7.8200e-01	4.3555	1.910202	0.000218	2.180406	0.369371	-0.004362
1566	7.8250e-01	4.3457	1.858887	0.000513	5.130368	0.869108	-0.010263
1567	7.8300e-01	4.3365	1.829809	0.000291	2.907209	0.492494	-0.005816
1568	7.8350e-01	4.3234	1.788329	0.000415	4.147048	0.702529	-0.008296
1569	7.8400e-01	4.3167	1.781487	0.000068	0.684049	0.115881	-0.001368
1570	7.8450e-01	4.3060	1.754119	0.000274	2.736196	0.463524	-0.005474
1571	7.8500e-01	4.2969	1.690403	0.000637	6.370207	1.079142	-0.012743
1572	7.8550e-01	4.2853	1.652772	0.000376	3.762270	0.637346	-0.007526
1573	7.8600e-01	4.2755	1.618562	0.000342	3.420245	0.579405	-0.006842
1574	7.8650e-01	4.2642	1.590338	0.000282	2.821703	0.478009	-0.005645
1575	7.8700e-01	4.2572	1.560405	0.000299	2.992715	0.506980	-0.005987
1576	7.8750e-01	4.2474	1.532609	0.000278	2.778949	0.470767	-0.005559
1577	7.8800e-01	4.2401	1.498399	0.000342	3.420245	0.579405	-0.006842
1578	7.8850e-01	4.2250	1.459057	0.000393	3.933282	0.666316	-0.007868
1579	7.8900e-01	4.2177	1.438104	0.000209	2.094900	0.354886	-0.004191
1580	7.8950e-01	4.2047	1.408170	0.000299	2.992715	0.506980	-0.005987
1581	7.9000e-01	4.1956	1.358565	0.000496	4.959356	0.840138	-0.009921
1582	7.9050e-01	4.1858	1.307250	0.000513	5.130368	0.869108	-0.010263
1583	7.9100e-01	4.1757	1.289290	0.000180	1.795629	0.304188	-0.003592
1584	7.9150e-01	4.1638	1.263205	0.000261	2.607937	0.441797	-0.005217
1585	7.9200e-01	4.1595	1.223008	0.000402	4.018788	0.680801	-0.008039
1586	7.9250e-01	4.1479	1.185377	0.000376	3.762270	0.637346	-0.007526
1587	7.9300e-01	4.1357	1.149457	0.000359	3.591258	0.608376	-0.007184
1588	7.9350e-01	4.1238	1.113109	0.000363	3.634011	0.615618	-0.007270
1589	7.9400e-01	4.1141	1.073767	0.000393	3.933282	0.666316	-0.007868
1590	7.9450e-01	4.1061	1.059228	0.000145	1.453604	0.246247	-0.002908
1591	7.9500e-01	4.0955	1.030577	0.000286	2.864456	0.485252	-0.005730
1592	7.9550e-01	4.0852	0.975413	0.000552	5.515146	0.934291	-0.011033
1593	7.9600e-01	4.0784	0.912552	0.000628	6.284701	1.064657	-0.012572
1594	7.9650e-01	4.0677	0.891599	0.000209	2.094900	0.354886	-0.004191
1595	7.9700e-01	4.0555	0.875777	0.000158	1.581864	0.267975	-0.003164
1596	7.9750e-01	4.0466	0.845415	0.000304	3.035468	0.514222	-0.006072
1597	7.9800e-01	4.0356	0.808212	0.000372	3.719517	0.630103	-0.007441
1598	7.9850e-01	4.0268	0.760318	0.000479	4.788344	0.811167	-0.009579
1599	7.9900e-01	4.0176	0.751765	0.000086	0.855061	0.144851	-0.001711
1600	7.9950e-01	4.0073	0.703016	0.000487	4.873850	0.825653	-0.009750
1601	8.0000e-01	3.9948	0.667951	0.000351	3.505752	0.593890	-0.007013
1602	8.0050e-01	3.9853	0.643148	0.000248	2.479678	0.420069	-0.004960
1603	8.0100e-01	3.9766	0.583708	0.000594	5.942676	1.006717	-0.011888
1604	8.0150e-01	3.9668	0.559761	0.000239	2.394172	0.405584	-0.004789
1605	8.0200e-01	3.9563	0.504598	0.000552	5.515146	0.934291	-0.011033
1606	8.0250e-01	3.9447	0.493907	0.000107	1.068827	0.181064	-0.002138
1607	8.0300e-01	3.9337	0.441737	0.000522	5.215874	0.883593	-0.010434
1608	8.0350e-01	3.9253	0.404106	0.000376	3.762270	0.637346	-0.007526
1609	8.0400e-01	3.9136	0.393415	0.000107	1.068827	0.181064	-0.002138
1610	8.0450e-01	3.9035	0.362626	0.000308	3.078221	0.521465	-0.006158
1611	8.0500e-01	3.8940	0.311311	0.000513	5.130368	0.869108	-0.010263
1612	8.0550e-01	3.8870	0.280522	0.000308	3.078221	0.521465	-0.006158
1613	8.0600e-01	3.8745	0.248878	0.000316	3.163727	0.535950	-0.006329
1614	8.0650e-01	3.8672	0.202267	0.000466	4.660084	0.789440	-0.009322
1615	8.0700e-01	3.8556	0.182168	0.000201	2.009394	0.340401	-0.004020
1616	8.0750e-01	3.8455	0.136412	0.000457	4.574578	0.774955	-0.009151
1617	8.0800e-01	3.8348	0.108617	0.000278	2.778949	0.470767	-0.005559
1618	8.0850e-01	3.8251	0.070986	0.000376	3.762270	0.637346	-0.007526
1619	8.0900e-01	3.8190	0.031217	0.000398	3.976035	0.673559	-0.007954
1620	8.0950e-01	3.8034	0.009408	0.000218	2.180406	0.369371	-0.004362
1621	8.1000e-01	3.7952	-0.042335	0.000517	5.173121	0.876350	-0.010349
1622	8.1050e-01	3.7845	-0.091084	0.000487	4.873850	0.825653	-0.009750
1623	8.1100e-01	3.7744	-0.107762	0.000167	1.667370	0.282460	-0.003335
1624	8.1150e-01	3.7634	-0.121018	0.000133	1.325345	0.224520	-0.002651
1625	8.1200e-01	3.7552	-0.167201	0.000462	4.617331	0.782197	-0.009237
1626	8.1250e-01	3.7476	-0.212530	0.000453	4.531825	0.767712	-0.009066
1627	8.1300e-01	3.7372	-0.261707	0.000492	4.916603	0.832895	-0.009835
1628	8.1350e-01	3.7292	-0.301903	0.000402	4.018788	0.680801	-0.008039
1629	8.1400e-01	3.7152	-0.323712	0.000218	2.180406	0.369371	-0.004362
1630	8.1450e-01	3.7067	-0.351508	0.000278	2.778949	0.470767	-0.005559
1631	8.1500e-01	3.6948	-0.394271	0.000428	4.275307	0.724257	-0.008553
1632	8.1550e-01	3.6839	-0.421639	0.000274	2.736196	0.463524	-0.005474
1633	8.1600e-01	3.6763	-0.462691	0.000410	4.104295	0.695286	-0.008210
1634	8.1650e-01	3.6639	-0.510585	0.000479	4.788344	0.811167	-0.009579
1635	8.1700e-01	3.6554	-0.538380	0.000278	2.778949	0.470767	-0.005559
1636	8.1750e-01	3.6450	-0.581570	0.000432	4.318060	0.731499	-0.008638
1637	8.1800e-01	3.6328	-0.620912	0.000393	3.933282	0.666316	-0.007868
1638	8.1850e-01	3.6285	-0.644004	0.000231	2.308666	0.391099	-0.004618
1639	8.1900e-01	3.6163	-0.674793	0.000308	3.078221	0.521465	-0.006158
1640	8.1950e-01	3.6090	-0.729956	0.000552	5.515146	0.934291	-0.011033
1641	8.2000e-01	3.5945	-0.753903	0.000239	2.394172	0.405584	-0.004789
1642	8.2050e-01	3.5873	-0.777423	0.000235	2.351419	0.398341	-0.004704
1643	8.2100e-01	3.5748	-0.837290	0.000599	5.985430	1.013959	-0.011974
1644	8.2150e-01	3.5675	-0.875777	0.000385	3.847776	0.651831	-0.007697
1645	8.2200e-01	3.5589	-0.900579	0.000248	2.479678	0.420069	-0.004960
1646	8.2250e-01	3.5471	-0.953604	0.000530	5.301380	0.898078	-0.010605
1647	8.2300e-01	3.5361	-0.960019	0.000064	0.641296	0.108638	-0.001283
1648	8.2350e-01	3.5278	-0.982683	0.000227	2.265913	0.383856	-0.004533
1649	8.2400e-01	3.5156	-1.052386	0.000697	6.968750	1.180538	-0.013941
1650	8.2450e-01	3.5062	-1.092155	0.000398	3.976035	0.673559	-0.007954
1651	8.2500e-01	3.4967	-1.108832	0.000167	1.667370	0.282460	-0.003335
1652	8.2550e-01	3.4873	-1.162713	0.000539	5.386887	0.912563	-0.010776
1653	8.2600e-01	3.4744	-1.174687	0.000120	1.197086	0.202792	-0.002395
1654	8.2650e-01	3.4653	-1.212318	0.000376	3.762270	0.637346	-0.007526
1655	8.2700e-01	3.4544	-1.252087	0.000398	3.976035	0.673559	-0.007954
1656	8.2750e-01	3.4474	-1.286724	0.000346	3.462999	0.586648	-0.006928
1657	8.2800e-01	3.4358	-1.345737	0.000590	5.899923	0.999474	-0.011802
1658	8.2850e-01	3.4250	-1.357283	0.000115	1.154333	0.195549	-0.002309
1659	8.2900e-01	3.4180	-1.399190	0.000419	4.189801	0.709771	-0.008381
1660	8.2950e-01	3.4059	-1.437676	0.000385	3.847776	0.651831	-0.007697
1661	8.3000e-01	3.3951	-1.470176	0.000325	3.249233	0.550435	-0.006500
1662	8.3050e-01	3.3868	-1.512938	0.000428	4.275307	0.724257	-0.008553
1663	8.3100e-01	3.3733	-1.539879	0.000269	2.693443	0.456282	-0.005388
1664	8.3150e-01	3.3652	-1.607871	0.000680	6.797738	1.151568	-0.013598
1665	8.3200e-01	3.3563	-1.636950	0.000291	2.907209	0.492494	-0.005816
1666	8.3250e-01	3.3459	-1.649351	0.000124	1.239839	0.210034	-0.002480
1667	8.3300e-01	3.3344	-1.700666	0.000513	5.130368	0.869108	-0.010263
1668	8.3350e-01	3.3258	-1.731455	0.000308	3.078221	0.521465	-0.006158
1669	8.3400e-01	3.3154	-1.769086	0.000376	3.762270	0.637346	-0.007526
1670	8.3450e-01	3.3046	-1.817835	0.000487	4.873850	0.825653	-0.009750
1671	8.3500e-01	3.2924	-1.852045	0.000342	3.420245	0.579405	-0.006842
1672	8.3550e-01	3.2855	-1.879841	0.000278	2.778949	0.470767	-0.005559
1673	8.3600e-01	3.2749	-1.919182	0.000393	3.933282	0.666316	-0.007868
1674	8.3650e-01	3.2637	-1.960662	0.000415	4.147048	0.702529	-0.008296
1675	8.3700e-01	3.2556	-2.009411	0.000487	4.873850	0.825653	-0.009750
1676	8.3750e-01	3.2483	-2.026089	0.000167	1.667370	0.282460	-0.003335
1677	8.3800e-01	3.2344	-2.056022	0.000299	2.992715	0.506980	-0.005987
1678	8.3850e-01	3.2266	-2.100068	0.000440	4.403566	0.745984	-0.008809
1679	8.3900e-01	3.2154	-2.160791	0.000607	6.070936	1.028444	-0.012145
1680	8.3950e-01	3.2068	-2.189869	0.000291	2.907209	0.492494	-0.005816
1681	8.4000e-01	3.1950	-2.212961	0.000231	2.308666	0.391099	-0.004618
1682	8.4050e-01	3.1837	-2.267269	0.000543	5.429640	0.919806	-0.010862
1683	8.4100e-01	3.1761	-2.271973	0.000047	0.470284	0.079668	-0.000941
1684	8.4150e-01	3.1662	-2.326281	0.000543	5.429640	0.919806	-0.010862
1685	8.4200e-01	3.1552	-2.354505	0.000282	2.821703	0.478009	-0.005645
1686	8.4250e-01	3.1435	-2.410524	0.000560	5.600652	0.948776	-0.011204
1687	8.4300e-01	3.1346	-2.450720	0.000402	4.018788	0.680801	-0.008039
1688	8.4350e-01	3.1264	-2.478516	0.000278	2.778949	0.470767	-0.005559
1689	8.4400e-01	3.1183	-2.534963	0.000564	5.643405	0.956019	-0.011289
1690	8.4450e-01	3.1067	-2.556344	0.000214	2.137653	0.362128	-0.004276
1691	8.4500e-01	3.0952	-2.620060	0.000637	6.370207	1.079142	-0.012743
1692	8.4550e-01	3.0868	-2.633744	0.000137	1.368098	0.231762	-0.002737
1693	8.4600e-01	3.0779	-2.689335	0.000556	5.557899	0.941534	-0.011118
1694	8.4650e-01	3.0664	-2.700454	0.000111	1.111580	0.188307	-0.002224
1695	8.4700e-01	3.0542	-2.736802	0.000363	3.634011	0.615618	-0.007270
1696	8.4750e-01	3.0472	-2.765880	0.000291	2.907209	0.492494	-0.005816
1697	8.4800e-01	3.0378	-2.807360	0.000415	4.147048	0.702529	-0.008296
1698	8.4850e-01	3.0264	-2.858247	0.000509	5.087615	0.861865	-0.010177
1699	8.4900e-01	3.0138	-2.888609	0.000304	3.035468	0.514222	-0.006072
1700	8.4950e-01	3.0072	-2.934365	0.000457	4.574578	0.774955	-0.009151
1701	8.5000e-01	2.9976	-2.975417	0.000410	4.104295	0.695286	-0.008210
1702	8.5050e-01	2.9865	-3.004495	0.000291	2.907209	0.492494	-0.005816
1703	8.5100e-01	2.9759	-3.030153	0.000257	2.565184	0.434554	-0.005132
1704	8.5150e-01	2.9681	-3.081895	0.000517	5.173121	0.876350	-0.010349
1705	8.5200e-01	2.9572	-3.099856	0.000180	1.795629	0.304188	-0.003592
1706	8.5250e-01	2.9462	-3.152881	0.000530	5.301380	0.898078	-0.010605
1707	8.5300e-01	2.9362	-3.190512	0.000376	3.762270	0.637346	-0.007526
1708	8.5350e-01	2.9242	-3.237979	0.000475	4.745591	0.803925	-0.009493
1709	8.5400e-01	2.9151	-3.288011	0.000500	5.002109	0.847380	-0.010006
1710	8.5450e-01	2.9074	-3.328635	0.000406	4.061541	0.688044	-0.008125
1711	8.5500e-01	2.8943	-3.360279	0.000316	3.163727	0.535950	-0.006329
1712	8.5550e-01	2.8833	-3.392779	0.000325	3.249233	0.550435	-0.006500
1713	8.5600e-01	2.8766	-3.411594	0.000188	1.881135	0.318673	-0.003763
1714	8.5650e-01	2.8644	-3.480870	0.000693	6.925997	1.173296	-0.013855
1715	8.5700e-01	2.8558	-3.502251	0.000214	2.137653	0.362128	-0.004276
1716	8.5750e-01	2.8455	-3.536889	0.000346	3.462999	0.586648	-0.006928
1717	8.5800e-01	2.8342	-3.572382	0.000355	3.548505	0.601133	-0.007099
1718	8.5850e-01	2.8235	-3.627545	0.000552	5.515146	0.934291	-0.011033
1719	8.5900e-01	2.8156	-3.655768	0.000282	2.821703	0.478009	-0.005645
1720	8.5950e-01	2.8078	-3.703663	0.000479	4.788344	0.811167	-0.009579
1721	8.6000e-01	2.7954	-3.726754	0.000231	2.308666	0.391099	-0.004618
1722	8.6050e-01	2.7844	-3.769089	0.000423	4.232554	0.717014	-0.008467
1723	8.6100e-01	2.7747	-3.790898	0.000218	2.180406	0.369371	-0.004362
1724	8.6150e-01	2.7659	-3.852048	0.000611	6.113689	1.035687	-0.012230
1725	8.6200e-01	2.7594	-3.889679	0.000376	3.762270	0.637346	-0.007526
1726	8.6250e-01	2.7452	-3.929449	0.000398	3.976035	0.673559	-0.007954
1727	8.6300e-01	2.7385	-3.945698	0.000162	1.624617	0.275218	-0.003250
1728	8.6350e-01	2.7249	-4.010270	0.000646	6.455713	1.093627	-0.012914
1729	8.6400e-01	2.7135	-4.052177	0.000419	4.189801	0.709771	-0.008381
1730	8.6450e-01	2.7029	-4.096650	0.000445	4.446319	0.753227	-0.008895
1731	8.6500e-01	2.6957	-4.135992	0.000393	3.933282	0.666316	-0.007868
1732	8.6550e-01	2.6859	-4.155662	0.000197	1.966641	0.333158	-0.003934
1733	8.6600e-01	2.6740	-4.189017	0.000333	3.334739	0.564920	-0.006671
1734	8.6650e-01	2.6655	-4.251023	0.000620	6.199195	1.050172	-0.012401
1735	8.6700e-01	2.6577	-4.274970	0.000239	2.394172	0.405584	-0.004789
1736	8.6750e-01	2.6469	-4.308752	0.000338	3.377492	0.572163	-0.006756
1737	8.6800e-01	2.6328	-4.347239	0.000385	3.847776	0.651831	-0.007697
1738	8.6850e-01	2.6234	-4.416086	0.000688	6.883244	1.166053	-0.013770
1739	8.6900e-01	2.6141	-4.434046	0.000180	1.795629	0.304188	-0.003592
1740	8.6950e-01	2.6053	-4.466546	0.000325	3.249233	0.550435	-0.006500
1741	8.7000e-01	2.5963	-4.525558	0.000590	5.899923	0.999474	-0.011802
1742	8.7050e-01	2.5862	-4.542236	0.000167	1.667370	0.282460	-0.003335
1743	8.7100e-01	2.5772	-4.593978	0.000517	5.173121	0.876350	-0.010349
1744	8.7150e-01	2.5659	-4.617498	0.000235	2.351419	0.398341	-0.004704
1745	8.7200e-01	2.5552	-4.662826	0.000453	4.531825	0.767712	-0.009066
1746	8.7250e-01	2.5458	-4.713286	0.000504	5.044862	0.854623	-0.010092
1747	8.7300e-01	2.5349	-4.740226	0.000269	2.693443	0.456282	-0.005388
1748	8.7350e-01	2.5256	-4.788120	0.000479	4.788344	0.811167	-0.009579
1749	8.7400e-01	2.5140	-4.808646	0.000205	2.052147	0.347643	-0.004105
1750	8.7450e-01	2.5034	-4.859961	0.000513	5.130368	0.869108	-0.010263
1751	8.7500e-01	2.4953	-4.927526	0.000675	6.754985	1.144325	-0.013513
1752	8.7550e-01	2.4861	-4.941638	0.000141	1.410851	0.239005	-0.002822
1753	8.7600e-01	2.4745	-4.994663	0.000530	5.301380	0.898078	-0.010605
1754	8.7650e-01	2.4652	-5.021176	0.000265	2.650690	0.449039	-0.005303
1755	8.7700e-01	2.4554	-5.057096	0.000359	3.591258	0.608376	-0.007184
1756	8.7750e-01	2.4463	-5.087458	0.000304	3.035468	0.514222	-0.006072
1757	8.7800e-01	2.4341	-5.130220	0.000428	4.275307	0.724257	-0.008553
1758	8.7850e-01	2.4257	-5.180680	0.000504	5.044862	0.854623	-0.010092
1759	8.7900e-01	2.4188	-5.213180	0.000325	3.249233	0.550435	-0.006500
1760	8.7950e-01	2.4046	-5.270482	0.000573	5.728911	0.970504	-0.011460
1761	8.8000e-01	2.3969	-5.335481	0.000650	6.498466	1.100870	-0.013000
1762	8.8050e-01	2.3861	-5.337191	0.000017	0.171012	0.028970	-0.000342
1763	8.8100e-01	2.3764	-5.399197	0.000620	6.199195	1.050172	-0.012401
1764	8.8150e-01	2.3676	-5.421006	0.000218	2.180406	0.369371	-0.004362
1765	8.8200e-01	2.3547	-5.450512	0.000295	2.949962	0.499737	-0.005901
1766	8.8250e-01	2.3465	-5.504820	0.000543	5.429640	0.919806	-0.010862
1767	8.8300e-01	2.3355	-5.548010	0.000432	4.318060	0.731499	-0.008638
1768	8.8350e-01	2.3268	-5.566826	0.000188	1.881135	0.318673	-0.003763
1769	8.8400e-01	2.3151	-5.610016	0.000432	4.318060	0.731499	-0.008638
1770	8.8450e-01	2.3068	-5.672877	0.000628	6.284701	1.064657	-0.012572
1771	8.8500e-01	2.2931	-5.716495	0.000436	4.360813	0.738742	-0.008724
1772	8.8550e-01	2.2830	-5.728896	0.000124	1.239839	0.210034	-0.002480
1773	8.8600e-01	2.2745	-5.775507	0.000466	4.660084	0.789440	-0.009322
1774	8.8650e-01	2.2675	-5.816987	0.000415	4.147048	0.702529	-0.008296
1775	8.8700e-01	2.2589	-5.868302	0.000513	5.130368	0.869108	-0.010263
1776	8.8750e-01	2.2459	-5.908498	0.000402	4.018788	0.680801	-0.008039
1777	8.8800e-01	2.2323	-5.921755	0.000133	1.325345	0.224520	-0.002651
1778	8.8850e-01	2.2253	-5.977774	0.000560	5.600652	0.948776	-0.011204
1779	8.8900e-01	2.2153	-6.030799	0.000530	5.301380	0.898078	-0.010605
1780	8.8950e-01	2.2037	-6.076128	0.000453	4.531825	0.767712	-0.009066
1781	8.9000e-01	2.1947	-6.100930	0.000248	2.479678	0.420069	-0.004960
1782	8.9050e-01	2.1864	-6.157376	0.000564	5.643405	0.956019	-0.011289
1783	8.9100e-01	2.1754	-6.204415	0.000470	4.702838	0.796682	-0.009408
1784	8.9150e-01	2.1658	-6.230500	0.000261	2.607937	0.441797	-0.005217
1785	8.9200e-01	2.1564	-6.263000	0.000325	3.249233	0.550435	-0.006500
1786	8.9250e-01	2.1460	-6.297210	0.000342	3.420245	0.579405	-0.006842
1787	8.9300e-01	2.1339	-6.354084	0.000569	5.686158	0.963261	-0.011375
1788	8.9350e-01	2.1265	-6.375038	0.000209	2.094900	0.354886	-0.004191
1789	8.9400e-01	2.1161	-6.437043	0.000620	6.199195	1.050172	-0.012401
1790	8.9450e-01	2.1039	-6.463556	0.000265	2.650690	0.449039	-0.005303
1791	8.9500e-01	2.0935	-6.514871	0.000513	5.130368	0.869108	-0.010263
1792	8.9550e-01	2.0827	-6.557206	0.000423	4.232554	0.717014	-0.008467
1793	8.9600e-01	2.0762	-6.596547	0.000393	3.933282	0.666316	-0.007868
1794	8.9650e-01	2.0647	-6.639310	0.000428	4.275307	0.724257	-0.008553
1795	8.9700e-01	2.0552	-6.674375	0.000351	3.505752	0.593890	-0.007013
1796	8.9750e-01	2.0446	-6.701316	0.000269	2.693443	0.456282	-0.005388
1797	8.9800e-01	2.0337	-6.771446	0.000701	7.011503	1.187781	-0.014026
1798	8.9850e-01	2.0261	-6.785130	0.000137	1.368098	0.231762	-0.002737
1799	8.9900e-01	2.0135	-6.862958	0.000778	7.781058	1.318147	-0.015566
1800	8.9950e-01	2.0068	-6.880063	0.000171	1.710123	0.289703	-0.003421
1801	9.0000e-01	1.9934	-6.917694	0.000376	3.762270	0.637346	-0.007526
1802	9.0050e-01	1.9833	-6.960884	0.000432	4.318060	0.731499	-0.008638
1803	9.0100e-01	1.9739	-6.997232	0.000363	3.634011	0.615618	-0.007270
1804	9.0150e-01	1.9640	-7.031442	0.000342	3.420245	0.579405	-0.006842
1805	9.0200e-01	1.9545	-7.086606	0.000552	5.515146	0.934291	-0.011033
1806	9.0250e-01	1.9456	-7.145618	0.000590	5.899923	0.999474	-0.011802
1807	9.0300e-01	1.9353	-7.181111	0.000355	3.548505	0.601133	-0.007099
1808	9.0350e-01	1.9251	-7.196506	0.000154	1.539110	0.260732	-0.003079
1809	9.0400e-01	1.9128	-7.243117	0.000466	4.660084	0.789440	-0.009322
1810	9.0450e-01	1.9055	-7.294004	0.000509	5.087615	0.861865	-0.010177
1811	9.0500e-01	1.8979	-7.326931	0.000329	3.291986	0.557678	-0.006585
1812	9.0550e-01	1.8851	-7.369694	0.000428	4.275307	0.724257	-0.008553
1813	9.0600e-01	1.8762	-7.421009	0.000513	5.130368	0.869108	-0.010263
1814	9.0650e-01	1.8643	-7.447522	0.000265	2.650690	0.449039	-0.005303
1815	9.0700e-01	1.8566	-7.491567	0.000440	4.403566	0.745984	-0.008809
1816	9.0750e-01	1.8448	-7.543310	0.000517	5.173121	0.876350	-0.010349
1817	9.0800e-01	1.8372	-7.583934	0.000406	4.061541	0.688044	-0.008125
1818	9.0850e-01	1.8246	-7.619855	0.000359	3.591258	0.608376	-0.007184
1819	9.0900e-01	1.8134	-7.651927	0.000321	3.206480	0.543192	-0.006414
1820	9.0950e-01	1.8054	-7.719064	0.000671	6.712232	1.137083	-0.013427
1821	9.1000e-01	1.7963	-7.752419	0.000333	3.334739	0.564920	-0.006671
1822	9.1050e-01	1.7848	-7.802451	0.000500	5.002109	0.847380	-0.010006
1823	9.1100e-01	1.7752	-7.826398	0.000239	2.394172	0.405584	-0.004789
1824	9.1150e-01	1.7667	-7.864456	0.000381	3.805023	0.644588	-0.007612
1825	9.1200e-01	1.7533	-7.917054	0.000526	5.258627	0.890836	-0.010520
1826	9.1250e-01	1.7446	-7.961955	0.000449	4.489072	0.760469	-0.008980
1827	9.1300e-01	1.7340	-7.997448	0.000355	3.548505	0.601133	-0.007099
1828	9.1350e-01	1.7261	-8.049191	0.000517	5.173121	0.876350	-0.010349
1829	9.1400e-01	1.7133	-8.081690	0.000325	3.249233	0.550435	-0.006500
1830	9.1450e-01	1.7061	-8.124025	0.000423	4.232554	0.717014	-0.008467
1831	9.1500e-01	1.6949	-8.171491	0.000475	4.745591	0.803925	-0.009493
1832	9.1550e-01	1.6829	-8.212971	0.000415	4.147048	0.702529	-0.008296
1833	9.1600e-01	1.6738	-8.251457	0.000385	3.847776	0.651831	-0.007697
1834	9.1650e-01	1.6661	-8.293365	0.000419	4.189801	0.709771	-0.008381
1835	9.1700e-01	1.6550	-8.356653	0.000633	6.327454	1.071900	-0.012658
1836	9.1750e-01	1.6444	-8.379317	0.000227	2.265913	0.383856	-0.004533
1837	9.1800e-01	1.6360	-8.415665	0.000363	3.634011	0.615618	-0.007270
1838	9.1850e-01	1.6256	-8.478099	0.000624	6.241948	1.057415	-0.012487
1839	9.1900e-01	1.6130	-8.497342	0.000192	1.923888	0.325915	-0.003849
1840	9.1950e-01	1.6056	-8.553788	0.000564	5.643405	0.956019	-0.011289
1841	9.2000e-01	1.5985	-8.604248	0.000504	5.044862	0.854623	-0.010092
1842	9.2050e-01	1.5833	-8.643162	0.000389	3.890529	0.659073	-0.007783
1843	9.2100e-01	1.5740	-8.701747	0.000586	5.857170	0.992232	-0.011717
1844	9.2150e-01	1.5646	-8.722700	0.000209	2.094900	0.354886	-0.004191
1845	9.2200e-01	1.5544	-8.750496	0.000278	2.778949	0.470767	-0.005559
1846	9.2250e-01	1.5469	-8.812074	0.000616	6.156442	1.042929	-0.012316
1847	9.2300e-01	1.5369	-8.865527	0.000534	5.344134	0.905321	-0.010691
1848	9.2350e-01	1.5262	-8.908290	0.000428	4.275307	0.724257	-0.008553
1849	9.2400e-01	1.5176	-8.949342	0.000410	4.104295	0.695286	-0.008210
1850	9.2450e-01	1.5056	-8.973716	0.000244	2.436925	0.412826	-0.004875
1851	9.2500e-01	1.4967	-9.025887	0.000522	5.215874	0.883593	-0.010434
1852	9.2550e-01	1.4832	-9.064373	0.000385	3.847776	0.651831	-0.007697
1853	9.2600e-01	1.4754	-9.113550	0.000492	4.916603	0.832895	-0.009835
1854	9.2650e-01	1.4642	-9.147332	0.000338	3.377492	0.572163	-0.006756
1855	9.2700e-01	1.4547	-9.187957	0.000406	4.061541	0.688044	-0.008125
1856	9.2750e-01	1.4449	-9.237134	0.000492	4.916603	0.832895	-0.009835
1857	9.2800e-01	1.4360	-9.293580	0.000564	5.643405	0.956019	-0.011289
1858	9.2850e-01	1.4234	-9.333777	0.000402	4.018788	0.680801	-0.008039
1859	9.2900e-01	1.4133	-9.370125	0.000363	3.634011	0.615618	-0.007270
1860	9.2950e-01	1.4032	-9.419302	0.000492	4.916603	0.832895	-0.009835
1861	9.3000e-01	1.3966	-9.440256	0.000209	2.094900	0.354886	-0.004191
1862	9.3050e-01	1.3850	-9.488577	0.000483	4.831097	0.818410	-0.009664
1863	9.3100e-01	1.3773	-9.538609	0.000500	5.002109	0.847380	-0.010006
1864	9.3150e-01	1.3668	-9.594628	0.000560	5.600652	0.948776	-0.011204
1865	9.3200e-01	1.3538	-9.620713	0.000261	2.607937	0.441797	-0.005217
1866	9.3250e-01	1.3434	-9.680153	0.000594	5.942676	1.006717	-0.011888
1867	9.3300e-01	1.3327	-9.722916	0.000428	4.275307	0.724257	-0.008553
1868	9.3350e-01	1.3245	-9.749856	0.000269	2.693443	0.456282	-0.005388
1869	9.3400e-01	1.3132	-9.806730	0.000569	5.686158	0.963261	-0.011375
1870	9.3450e-01	1.3034	-9.847355	0.000406	4.061541	0.688044	-0.008125
1871	9.3500e-01	1.2923	-9.905512	0.000581	5.814417	0.984989	-0.011631
1872	9.3550e-01	1.2850	-9.937584	0.000321	3.206480	0.543192	-0.006414
1873	9.3600e-01	1.2745	-9.970939	0.000333	3.334739	0.564920	-0.006671
1874	9.3650e-01	1.2637	-10.029096	0.000581	5.814417	0.984989	-0.011631
1875	9.3700e-01	1.2511	-10.065016	0.000359	3.591258	0.608376	-0.007184
1876	9.3750e-01	1.2472	-10.105213	0.000402	4.018788	0.680801	-0.008039
1877	9.3800e-01	1.2358	-10.170212	0.000650	6.498466	1.100870	-0.013000
1878	9.3850e-01	1.2276	-10.189883	0.000197	1.966641	0.333158	-0.003934
1879	9.3900e-01	1.2134	-10.238204	0.000483	4.831097	0.818410	-0.009664
1880	9.3950e-01	1.2045	-10.268993	0.000308	3.078221	0.521465	-0.006158
1881	9.4000e-01	1.1957	-10.331854	0.000628	6.284701	1.064657	-0.012572
1882	9.4050e-01	1.1848	-10.358795	0.000269	2.693443	0.456282	-0.005388
1883	9.4100e-01	1.1761	-10.421228	0.000624	6.241948	1.057415	-0.012487
1884	9.4150e-01	1.1655	-10.449451	0.000282	2.821703	0.478009	-0.005645
1885	9.4200e-01	1.1548	-10.498200	0.000487	4.873850	0.825653	-0.009750
1886	9.4250e-01	1.1469	-10.547805	0.000496	4.959356	0.840138	-0.009921
1887	9.4300e-01	1.1367	-10.577739	0.000299	2.992715	0.506980	-0.005987
1888	9.4350e-01	1.1274	-10.616653	0.000389	3.890529	0.659073	-0.007783
1889	9.4400e-01	1.1153	-10.677803	0.000611	6.113689	1.035687	-0.012230
1890	9.4450e-01	1.1031	-10.705171	0.000274	2.736196	0.463524	-0.005474
1891	9.4500e-01	1.0931	-10.762473	0.000573	5.728911	0.970504	-0.011460
1892	9.4550e-01	1.0871	-10.808656	0.000462	4.617331	0.782197	-0.009237
1893	9.4600e-01	1.0750	-10.864248	0.000556	5.557899	0.941534	-0.011118
1894	9.4650e-01	1.0651	-10.912997	0.000487	4.873850	0.825653	-0.009750
1895	9.4700e-01	1.0546	-10.937372	0.000244	2.436925	0.412826	-0.004875
1896	9.4750e-01	1.0450	-10.995101	0.000577	5.771664	0.977746	-0.011546
1897	9.4800e-01	1.0356	-11.030594	0.000355	3.548505	0.601133	-0.007099
1898	9.4850e-01	1.0249	-11.053258	0.000227	2.265913	0.383856	-0.004533
1899	9.4900e-01	1.0161	-11.119112	0.000658	6.583973	1.115355	-0.013171
1900	9.4950e-01	1.0035	-11.188388	0.000693	6.925997	1.173296	-0.013855
1901	9.5000e-01	0.9945	-11.218321	0.000299	2.992715	0.506980	-0.005987
1902	9.5050e-01	0.9868	-11.255952	0.000376	3.762270	0.637346	-0.007526
1903	9.5100e-01	0.9747	-11.303419	0.000475	4.745591	0.803925	-0.009493
1904	9.5150e-01	0.9637	-11.348747	0.000453	4.531825	0.767712	-0.009066
1905	9.5200e-01	0.9554	-11.396641	0.000479	4.788344	0.811167	-0.009579
1906	9.5250e-01	0.9474	-11.441969	0.000453	4.531825	0.767712	-0.009066
1907	9.5300e-01	0.9357	-11.504830	0.000628	6.284701	1.064657	-0.012572
1908	9.5350e-01	0.9250	-11.522363	0.000175	1.752876	0.296945	-0.003507
1909	9.5400e-01	0.9145	-11.580948	0.000586	5.857170	0.992232	-0.011717
1910	9.5450e-01	0.9039	-11.619006	0.000381	3.805023	0.644588	-0.007612
1911	9.5500e-01	0.8949	-11.659631	0.000406	4.061541	0.688044	-0.008125
1912	9.5550e-01	0.8857	-11.704959	0.000453	4.531825	0.767712	-0.009066
1913	9.5600e-01	0.8743	-11.775945	0.000710	7.097009	1.202266	-0.014197
1914	9.5650e-01	0.8650	-11.807589	0.000316	3.163727	0.535950	-0.006329
1915	9.5700e-01	0.8524	-11.841799	0.000342	3.420245	0.579405	-0.006842
1916	9.5750e-01	0.8440	-11.898246	0.000564	5.643405	0.956019	-0.011289
1917	9.5800e-01	0.8350	-11.937587	0.000393	3.933282	0.666316	-0.007868
1918	9.5850e-01	0.8278	-11.973508	0.000359	3.591258	0.608376	-0.007184
1919	9.5900e-01	0.8146	-12.022685	0.000492	4.916603	0.832895	-0.009835
1920	9.5950e-01	0.8036	-12.076993	0.000543	5.429640	0.919806	-0.010862
1921	9.6000e-01	0.7983	-12.121466	0.000445	4.446319	0.753227	-0.008895
1922	9.6050e-01	0.7856	-12.160808	0.000393	3.933282	0.666316	-0.007868
1923	9.6100e-01	0.7764	-12.214688	0.000539	5.386887	0.912563	-0.010776
1924	9.6150e-01	0.7669	-12.255313	0.000406	4.061541	0.688044	-0.008125
1925	9.6200e-01	0.7567	-12.288668	0.000333	3.334739	0.564920	-0.006671
1926	9.6250e-01	0.7458	-12.350246	0.000616	6.156442	1.042929	-0.012316
1927	9.6300e-01	0.7362	-12.399422	0.000492	4.916603	0.832895	-0.009835
1928	9.6350e-01	0.7277	-12.430639	0.000312	3.120974	0.528707	-0.006243
1929	9.6400e-01	0.7164	-12.495638	0.000650	6.498466	1.100870	-0.013000
1930	9.6450e-01	0.7040	-12.531986	0.000363	3.634011	0.615618	-0.007270
1931	9.6500e-01	0.6958	-12.573466	0.000415	4.147048	0.702529	-0.008296
1932	9.6550e-01	0.6873	-12.625636	0.000522	5.215874	0.883593	-0.010434
1933	9.6600e-01	0.6749	-12.669254	0.000436	4.360813	0.738742	-0.008724
1934	9.6650e-01	0.6638	-12.702181	0.000329	3.291986	0.557678	-0.006585
1935	9.6700e-01	0.6567	-12.764187	0.000620	6.199195	1.050172	-0.012401
1936	9.6750e-01	0.6435	-12.812081	0.000479	4.788344	0.811167	-0.009579
1937	9.6800e-01	0.6339	-12.845436	0.000333	3.334739	0.564920	-0.006671
1938	9.6850e-01	0.6247	-12.889481	0.000440	4.403566	0.745984	-0.008809
1939	9.6900e-01	0.6160	-12.963460	0.000740	7.396281	1.252964	-0.014796
1940	9.6950e-01	0.6054	-12.978855	0.000154	1.539110	0.260732	-0.003079
1941	9.7000e-01	0.5945	-13.034018	0.000552	5.515146	0.934291	-0.011033
1942	9.7050e-01	0.5827	-13.079347	0.000453	4.531825	0.767712	-0.009066
1943	9.7100e-01	0.5752	-13.121254	0.000419	4.189801	0.709771	-0.008381
1944	9.7150e-01	0.5680	-13.171286	0.000500	5.002109	0.847380	-0.010006
1945	9.7200e-01	0.5552	-13.205068	0.000338	3.377492	0.572163	-0.006756
1946	9.7250e-01	0.5450	-13.256811	0.000517	5.173121	0.876350	-0.010349
1947	9.7300e-01	0.5363	-13.303422	0.000466	4.660084	0.789440	-0.009322
1948	9.7350e-01	0.5247	-13.347895	0.000445	4.446319	0.753227	-0.008895
1949	9.7400e-01	0.5154	-13.409046	0.000611	6.113689	1.035687	-0.012230
1950	9.7450e-01	0.5033	-13.448387	0.000393	3.933282	0.666316	-0.007868
1951	9.7500e-01	0.4960	-13.500130	0.000517	5.173121	0.876350	-0.010349
1952	9.7550e-01	0.4852	-13.539471	0.000393	3.933282	0.666316	-0.007868
1953	9.7600e-01	0.4751	-13.595490	0.000560	5.600652	0.948776	-0.011204
1954	9.7650e-01	0.4660	-13.639963	0.000445	4.446319	0.753227	-0.008895
1955	9.7700e-01	0.4562	-13.689996	0.000500	5.002109	0.847380	-0.010006
1956	9.7750e-01	0.4430	-13.743449	0.000534	5.344134	0.905321	-0.010691
1957	9.7800e-01	0.4324	-13.774238	0.000308	3.078221	0.521465	-0.006158
1958	9.7850e-01	0.4256	-13.833678	0.000594	5.942676	1.006717	-0.011888
1959	9.7900e-01	0.4160	-13.871309	0.000376	3.762270	0.637346	-0.007526
1960	9.7950e-01	0.4025	-13.917065	0.000457	4.574578	0.774955	-0.009151
1961	9.8000e-01	0.3948	-13.971801	0.000547	5.472393	0.927048	-0.010947
1962	9.8050e-01	0.3848	-14.017557	0.000457	4.574578	0.774955	-0.009151
1963	9.8100e-01	0.3763	-14.073148	0.000556	5.557899	0.941534	-0.011118
1964	9.8150e-01	0.3634	-14.091963	0.000188	1.881135	0.318673	-0.003763
1965	9.8200e-01	0.3555	-14.168936	0.000770	7.695552	1.303662	-0.015395
1966	9.8250e-01	0.3424	-14.223244	0.000543	5.429640	0.919806	-0.010862
1967	9.8300e-01	0.3350	-14.249329	0.000261	2.607937	0.441797	-0.005217
1968	9.8350e-01	0.3238	-14.289099	0.000398	3.976035	0.673559	-0.007954
1969	9.8400e-01	0.3145	-14.331861	0.000428	4.275307	0.724257	-0.008553
1970	9.8450e-01	0.3029	-14.378045	0.000462	4.617331	0.782197	-0.009237
1971	9.8500e-01	0.2943	-14.418669	0.000406	4.061541	0.688044	-0.008125
1972	9.8550e-01	0.2829	-14.481102	0.000624	6.241948	1.057415	-0.012487
1973	9.8600e-01	0.2773	-14.525148	0.000440	4.403566	0.745984	-0.008809
1974	9.8650e-01	0.2643	-14.573469	0.000483	4.831097	0.818410	-0.009664
1975	9.8700e-01	0.2570	-14.624357	0.000509	5.087615	0.861865	-0.010177
1976	9.8750e-01	0.2441	-14.663271	0.000389	3.890529	0.659073	-0.007783
1977	9.8800e-01	0.2376	-14.717579	0.000543	5.429640	0.919806	-0.010862
1978	9.8850e-01	0.2272	-14.773598	0.000560	5.600652	0.948776	-0.011204
1979	9.8900e-01	0.2157	-14.827051	0.000534	5.344134	0.905321	-0.010691
1980	9.8950e-01	0.2040	-14.874945	0.000479	4.788344	0.811167	-0.009579
1981	9.9000e-01	0.1943	-14.916425	0.000415	4.147048	0.702529	-0.008296
1982	9.9050e-01	0.1855	-14.957904	0.000415	4.147048	0.702529	-0.008296
1983	9.9100e-01	0.1748	-15.025042	0.000671	6.712232	1.137083	-0.013427
1984	9.9150e-01	0.1633	-15.058396	0.000333	3.334739	0.564920	-0.006671
1985	9.9200e-01	0.1548	-15.105863	0.000475	4.745591	0.803925	-0.009493
1986	9.9250e-01	0.1469	-15.141356	0.000355	3.548505	0.601133	-0.007099
1987	9.9300e-01	0.1327	-15.185829	0.000445	4.446319	0.753227	-0.008895
1988	9.9350e-01	0.1241	-15.248262	0.000624	6.241948	1.057415	-0.012487
1989	9.9400e-01	0.1134	-15.277768	0.000295	2.949962	0.499737	-0.005901
1990	9.9450e-01	0.1053	-15.352175	0.000744	7.439034	1.260206	-0.014881
1991	9.9500e-01	0.0951	-15.384247	0.000321	3.206480	0.543192	-0.006414
1992	9.9550e-01	0.0846	-15.448818	0.000646	6.455713	1.093627	-0.012914
1993	9.9600e-01	0.0757	-15.472338	0.000235	2.351419	0.398341	-0.004704
1994	9.9650e-01	0.0635	-15.530495	0.000581	5.814417	0.984989	-0.011631
1995	9.9700e-01	0.0573	-15.590790	0.000603	6.028183	1.021202	-0.012059
1996	9.9750e-01	0.0460	-15.616020	0.000252	2.522431	0.427311	-0.005046
1997	9.9800e-01	0.0369	-15.678453	0.000624	6.241948	1.057415	-0.012487
1998	9.9850e-01	0.0250	-15.720360	0.000419	4.189801	0.709771	-0.008381
1999	9.9900e-01	0.0156	-15.775096	0.000547	5.472393	0.927048	-0.010947
2000	9.9950e-01	0.0034	-15.824273	0.000492	4.916603	0.832895	-0.009835
2001	1.0000e+00	-0.0039	-15.884568	0.000492	4.916603	0.832895	-0.012059

PMax (uC/cm2):	3.47e+01
Pr (uC/cm2):	1.44e+00
-Pr (uC/cm2):	0.00e+00
PLoss (uC/cm2):	0.00e+00
C (Max-Eff) (nF):	3.47e-01
K (Eff):	5.87e+02
Vert. (+/-Pr) Shift (uC/cm2):	7.22e-01
Offset (uC/cm2):	1.73e+01

A (Loop Area - uC/cm2·Volts):	-1.31e-02



Hysteresis Version: 5.48.1 - Radiant Technologies, Inc., 1999 - 9/12/24

