»»»»»»»»»»»»»»»»»»»»»»»»»»»»»»»»»»»» Hysteresis ««««««««««««««««««««««««««««««««««««
»»»  Executed Version:	5.48.1
»»»  Vision Version:	5.48.4 (R)
»»»  Vision Compiled:	9/18/24
»»»  Driver Version:	5.47.0
»»»  Windows Version:	Windows 8 or 8.1
»»»  Processor Information:	x86 (AMD or Intel) - 32 Processors
»»»  Tester Name:	PMF21124-494 (100V)
»»»  Tester S/N:	PMF21124-494
»»»  Internal Amp Type:	100V RevK 270k
»»»  Internal Amp S/N:	iAB2-596/K     
»»»  Execution Count:	1
»»»»»»»»»»»»»»»»»»»»»»»»»»»»»»»»»»»»»»»»»»««««««««««««««««««««««««««««««««««««««««««

Stored:	6/30/2025 - 12:10:13
Configured:	06/30/25 10:19:58 AM
Executed:	06/30/25 12:09:49 PM

»»»»»»»»»»»»»»»»»»»»»»»»»»»»»»»»»»» Sample Info ««««««««««««««««««««««««««««««««««««
Sample Name:	
Lot Name:	
Wafer Name:	
Die Row/Column:	0/0
Capacitor Number:	0
Sample Area (cm2):	1.00e-04
Sample Thickness (microns):	1.50e-01

Amplifier:	Internal

»»»»»»»»»»»»»»»»»»»»»»»»»»»»»»»»»»» Tester Info «««««««««««««««««««««««««««««««««««
Tester Name:	PMF21124-494 (100V)
Tester Serial Number:	PMF21124-494
Return Signal Amp. Level:	1.79 [Index: 2]

»»»»»»»»»»»»»»»»»»»»»»»»»»»»»»»» Hysteresis Info ««««««««««««««««««««««««««««««««««
Task Name:	Hyst-1804
Volts:	10.00
Field:	666.67 (kV/cm)
DCBias:	0.00
DCField:	0.00 (kV/cm)
Hysteresis Period (ms):	1.00e+00
Preset:	Enabled
Preset Delay (ms):	1.00e+03
Profile:	Standard Monopolar

»»»»»»»»»»»»»»»»»»»»»»»»»»»»»»»»»»»»»» Data «««««««««««««««««««««««««««««««««««««««
Points:	2001

Valid Data

Point	Time (ms)	Drive Voltage	Measured Polarization (uC/cm2)	Capacitance (uF)	Normalized Capacitance (uF/cm2)	Dielectric Constant	Instantaneous Current (mA)
   1	0.0000e+00	-0.0041	-18.812091	0.000522	5.216332	0.883671	0.010434
   2	5.0000e-04	0.0045	-18.759921	0.000522	5.216332	0.883671	0.010434
   3	1.0000e-03	0.0195	-18.720152	0.000398	3.976384	0.673618	0.007954
   4	1.5000e-03	0.0266	-18.666698	0.000534	5.344602	0.905400	0.010691
   5	2.0000e-03	0.0388	-18.618804	0.000479	4.788764	0.811239	0.009579
   6	2.5000e-03	0.0432	-18.589726	0.000291	2.907464	0.492538	0.005816
   7	3.0000e-03	0.0580	-18.523016	0.000667	6.670064	1.129939	0.013342
   8	3.5000e-03	0.0668	-18.506767	0.000162	1.624759	0.275242	0.003250
   9	4.0000e-03	0.0764	-18.449465	0.000573	5.729414	0.970589	0.011460
  10	4.5000e-03	0.0864	-18.401998	0.000475	4.746007	0.803995	0.009493
  11	5.0000e-03	0.0958	-18.374203	0.000278	2.779193	0.470808	0.005559
  12	5.5000e-03	0.1051	-18.340420	0.000338	3.377789	0.572213	0.006756
  13	6.0000e-03	0.1147	-18.266441	0.000740	7.396930	1.253074	0.014796
  14	6.5000e-03	0.1265	-18.232231	0.000342	3.420546	0.579456	0.006842
  15	7.0000e-03	0.1374	-18.186475	0.000457	4.574980	0.775023	0.009151
  16	7.5000e-03	0.1460	-18.153976	0.000325	3.249518	0.550483	0.006500
  17	8.0000e-03	0.1561	-18.097957	0.000560	5.601143	0.948859	0.011204
  18	8.5000e-03	0.1655	-18.065457	0.000325	3.249518	0.550483	0.006500
  19	9.0000e-03	0.1756	-18.012432	0.000530	5.301846	0.898157	0.010605
  20	9.5000e-03	0.1863	-17.978222	0.000342	3.420546	0.579456	0.006842
  21	1.0000e-02	0.1972	-17.920492	0.000577	5.772171	0.977832	0.011546
  22	1.0500e-02	0.2070	-17.883289	0.000372	3.719843	0.630159	0.007441
  23	1.1000e-02	0.2163	-17.831546	0.000517	5.173575	0.876427	0.010349
  24	1.1500e-02	0.2275	-17.792205	0.000393	3.933627	0.666375	0.007868
  25	1.2000e-02	0.2370	-17.774245	0.000180	1.795786	0.304214	0.003592
  26	1.2500e-02	0.2482	-17.697700	0.000765	7.653471	1.296533	0.015309
  27	1.3000e-02	0.2579	-17.680595	0.000171	1.710273	0.289728	0.003421
  28	1.3500e-02	0.2692	-17.630990	0.000496	4.959791	0.840211	0.009921
  29	1.4000e-02	0.2755	-17.589510	0.000415	4.147411	0.702591	0.008296
  30	1.4500e-02	0.2846	-17.527505	0.000620	6.199739	1.050264	0.012401
  31	1.5000e-02	0.2966	-17.482604	0.000449	4.489466	0.760536	0.008980
  32	1.5500e-02	0.3069	-17.447111	0.000355	3.548816	0.601186	0.007099
  33	1.6000e-02	0.3194	-17.396224	0.000509	5.088061	0.861941	0.010177
  34	1.6500e-02	0.3272	-17.349613	0.000466	4.660493	0.789509	0.009322
  35	1.7000e-02	0.3368	-17.327804	0.000218	2.180598	0.369403	0.004362
  36	1.7500e-02	0.3466	-17.274351	0.000534	5.344602	0.905400	0.010691
  37	1.8000e-02	0.3580	-17.226457	0.000479	4.788764	0.811239	0.009579
  38	1.8500e-02	0.3668	-17.176852	0.000496	4.959791	0.840211	0.009921
  39	1.9000e-02	0.3761	-17.151622	0.000252	2.522652	0.427349	0.005046
  40	1.9500e-02	0.3836	-17.125965	0.000257	2.565409	0.434592	0.005132
  41	2.0000e-02	0.3990	-17.052413	0.000735	7.354173	1.245831	0.014710
  42	2.0500e-02	0.4047	-17.022479	0.000299	2.992977	0.507024	0.005987
  43	2.1000e-02	0.4184	-16.974158	0.000483	4.831521	0.818482	0.009664
  44	2.1500e-02	0.4243	-16.924125	0.000500	5.002548	0.847455	0.010006
  45	2.2000e-02	0.4377	-16.874093	0.000500	5.002548	0.847455	0.010006
  46	2.2500e-02	0.4437	-16.824916	0.000492	4.917034	0.832968	0.009835
  47	2.3000e-02	0.4562	-16.795838	0.000291	2.907464	0.492538	0.005816
  48	2.3500e-02	0.4681	-16.772746	0.000231	2.308868	0.391133	0.004618
  49	2.4000e-02	0.4771	-16.698767	0.000740	7.396930	1.253074	0.014796
  50	2.4500e-02	0.4871	-16.655149	0.000436	4.361196	0.738807	0.008724
  51	2.5000e-02	0.4955	-16.623933	0.000312	3.121248	0.528754	0.006243
  52	2.5500e-02	0.5058	-16.607683	0.000162	1.624759	0.275242	0.003250
  53	2.6000e-02	0.5164	-16.542684	0.000650	6.499036	1.100967	0.013000
  54	2.6500e-02	0.5245	-16.514033	0.000286	2.864707	0.485294	0.005730
  55	2.7000e-02	0.5392	-16.462718	0.000513	5.130818	0.869184	0.010263
  56	2.7500e-02	0.5476	-16.411403	0.000513	5.130818	0.869184	0.010263
  57	2.8000e-02	0.5585	-16.358377	0.000530	5.301846	0.898157	0.010605
  58	2.8500e-02	0.5666	-16.314332	0.000440	4.403952	0.746050	0.008809
  59	2.9000e-02	0.5750	-16.264727	0.000496	4.959791	0.840211	0.009921
  60	2.9500e-02	0.5858	-16.236932	0.000278	2.779193	0.470808	0.005559
  61	3.0000e-02	0.5973	-16.201011	0.000359	3.591573	0.608429	0.007184
  62	3.0500e-02	0.6056	-16.134302	0.000667	6.670064	1.129939	0.013342
  63	3.1000e-02	0.6178	-16.101374	0.000329	3.292275	0.557726	0.006585
  64	3.1500e-02	0.6245	-16.068020	0.000334	3.335032	0.564970	0.006671
  65	3.2000e-02	0.6362	-16.032099	0.000359	3.591573	0.608429	0.007184
  66	3.2500e-02	0.6488	-15.983350	0.000487	4.874277	0.825725	0.009750
  67	3.3000e-02	0.6538	-15.928614	0.000547	5.472873	0.927130	0.010947
  68	3.3500e-02	0.6665	-15.899963	0.000286	2.864707	0.485294	0.005730
  69	3.4000e-02	0.6785	-15.855062	0.000449	4.489466	0.760536	0.008980
  70	3.4500e-02	0.6865	-15.805458	0.000496	4.959791	0.840211	0.009921
  71	3.5000e-02	0.6973	-15.754998	0.000505	5.045305	0.854698	0.010092
  72	3.5500e-02	0.7064	-15.720360	0.000346	3.463302	0.586699	0.006928
  73	3.6000e-02	0.7193	-15.673749	0.000466	4.660493	0.789509	0.009322
  74	3.6500e-02	0.7264	-15.626283	0.000475	4.746007	0.803995	0.009493
  75	3.7000e-02	0.7373	-15.604902	0.000214	2.137841	0.362160	0.004276
  76	3.7500e-02	0.7475	-15.547172	0.000577	5.772171	0.977832	0.011546
  77	3.8000e-02	0.7562	-15.515100	0.000321	3.206761	0.543240	0.006414
  78	3.8500e-02	0.7663	-15.457371	0.000577	5.772171	0.977832	0.011546
  79	3.9000e-02	0.7745	-15.421450	0.000359	3.591573	0.608429	0.007184
  80	3.9500e-02	0.7881	-15.368425	0.000530	5.301846	0.898157	0.010605
  81	4.0000e-02	0.7950	-15.326517	0.000419	4.190168	0.709834	0.008381
  82	4.0500e-02	0.8104	-15.289314	0.000372	3.719843	0.630159	0.007441
  83	4.1000e-02	0.8173	-15.255104	0.000342	3.420546	0.579456	0.006842
  84	4.1500e-02	0.8257	-15.205072	0.000500	5.002548	0.847455	0.010006
  85	4.2000e-02	0.8362	-15.152046	0.000530	5.301846	0.898157	0.010605
  86	4.2500e-02	0.8454	-15.123823	0.000282	2.821950	0.478051	0.005645
  87	4.3000e-02	0.8551	-15.078922	0.000449	4.489466	0.760536	0.008980
  88	4.3500e-02	0.8678	-15.015206	0.000637	6.370766	1.079237	0.012743
  89	4.4000e-02	0.8775	-14.973727	0.000415	4.147411	0.702591	0.008296
  90	4.4500e-02	0.8894	-14.946359	0.000274	2.736436	0.463565	0.005474
  91	4.5000e-02	0.9004	-14.907017	0.000393	3.933627	0.666375	0.007868
  92	4.5500e-02	0.9046	-14.869814	0.000372	3.719843	0.630159	0.007441
  93	4.6000e-02	0.9163	-14.803104	0.000667	6.670064	1.129939	0.013342
  94	4.6500e-02	0.9275	-14.786854	0.000162	1.624759	0.275242	0.003250
  95	4.7000e-02	0.9358	-14.727842	0.000590	5.900441	0.999562	0.011802
  96	4.7500e-02	0.9483	-14.695770	0.000321	3.206761	0.543240	0.006414
  97	4.8000e-02	0.9562	-14.644028	0.000517	5.173575	0.876427	0.010349
  98	4.8500e-02	0.9657	-14.616660	0.000274	2.736436	0.463565	0.005474
  99	4.9000e-02	0.9760	-14.574325	0.000423	4.232925	0.717077	0.008467
 100	4.9500e-02	0.9879	-14.536266	0.000381	3.805357	0.644645	0.007612
 101	5.0000e-02	0.9947	-14.478537	0.000577	5.772171	0.977832	0.011546
 102	5.0500e-02	1.0067	-14.438340	0.000402	4.019141	0.680861	0.008039
 103	5.1000e-02	1.0182	-14.397288	0.000410	4.104655	0.695347	0.008210
 104	5.1500e-02	1.0280	-14.348966	0.000483	4.831521	0.818482	0.009664
 105	5.2000e-02	1.0355	-14.318177	0.000308	3.078491	0.521510	0.006158
 106	5.2500e-02	1.0461	-14.263013	0.000552	5.515630	0.934373	0.011033
 107	5.3000e-02	1.0567	-14.229231	0.000338	3.377789	0.572213	0.006756
 108	5.3500e-02	1.0693	-14.187324	0.000419	4.190168	0.709834	0.008381
 109	5.4000e-02	1.0767	-14.150120	0.000372	3.719843	0.630159	0.007441
 110	5.4500e-02	1.0867	-14.102226	0.000479	4.788764	0.811239	0.009579
 111	5.5000e-02	1.0965	-14.062457	0.000398	3.976384	0.673618	0.007954
 112	5.5500e-02	1.1057	-13.994892	0.000676	6.755577	1.144426	0.013513
 113	5.6000e-02	1.1176	-13.958972	0.000359	3.591573	0.608429	0.007184
 114	5.6500e-02	1.1285	-13.943577	0.000154	1.539245	0.260755	0.003079
 115	5.7000e-02	1.1376	-13.877295	0.000663	6.627307	1.122696	0.013256
 116	5.7500e-02	1.1476	-13.851210	0.000261	2.608166	0.441835	0.005217
 117	5.8000e-02	1.1566	-13.812296	0.000389	3.890871	0.659131	0.007783
 118	5.8500e-02	1.1656	-13.775521	0.000368	3.677086	0.622915	0.007355
 119	5.9000e-02	1.1792	-13.708383	0.000671	6.712821	1.137183	0.013427
 120	5.9500e-02	1.1875	-13.669042	0.000393	3.933627	0.666375	0.007868
 121	6.0000e-02	1.1971	-13.638681	0.000304	3.035734	0.514267	0.006072
 122	6.0500e-02	1.2087	-13.608747	0.000299	2.992977	0.507024	0.005987
 123	6.1000e-02	1.2141	-13.559570	0.000492	4.917034	0.832968	0.009835
 124	6.1500e-02	1.2270	-13.520228	0.000393	3.933627	0.666375	0.007868
 125	6.2000e-02	1.2386	-13.451381	0.000688	6.883848	1.166155	0.013770
 126	6.2500e-02	1.2464	-13.418453	0.000329	3.292275	0.557726	0.006585
 127	6.3000e-02	1.2563	-13.372698	0.000457	4.574980	0.775023	0.009151
 128	6.3500e-02	1.2679	-13.336349	0.000363	3.634330	0.615672	0.007270
 129	6.4000e-02	1.2758	-13.297436	0.000389	3.890871	0.659131	0.007783
 130	6.4500e-02	1.2863	-13.270495	0.000269	2.693680	0.456322	0.005388
 131	6.5000e-02	1.2964	-13.226022	0.000445	4.446709	0.753293	0.008895
 132	6.5500e-02	1.3083	-13.187963	0.000381	3.805357	0.644645	0.007612
 133	6.6000e-02	1.3145	-13.147339	0.000406	4.061898	0.688104	0.008125
 134	6.6500e-02	1.3248	-13.086616	0.000607	6.071468	1.028535	0.012145
 135	6.7000e-02	1.3367	-13.057538	0.000291	2.907464	0.492538	0.005816
 136	6.7500e-02	1.3451	-13.007078	0.000505	5.045305	0.854698	0.010092
 137	6.8000e-02	1.3576	-12.973723	0.000334	3.335032	0.564970	0.006671
 138	6.8500e-02	1.3686	-12.914711	0.000590	5.900441	0.999562	0.011802
 139	6.9000e-02	1.3782	-12.893757	0.000210	2.095084	0.354917	0.004191
 140	6.9500e-02	1.3884	-12.846719	0.000470	4.703250	0.796752	0.009408
 141	7.0000e-02	1.3966	-12.807805	0.000389	3.890871	0.659131	0.007783
 142	7.0500e-02	1.4046	-12.753924	0.000539	5.387359	0.912643	0.010776
 143	7.1000e-02	1.4137	-12.723562	0.000304	3.035734	0.514267	0.006072
 144	7.1500e-02	1.4284	-12.649156	0.000744	7.439686	1.260317	0.014881
 145	7.2000e-02	1.4374	-12.628630	0.000205	2.052327	0.347674	0.004105
 146	7.2500e-02	1.4483	-12.598696	0.000299	2.992977	0.507024	0.005987
 147	7.3000e-02	1.4586	-12.534552	0.000641	6.413523	1.086480	0.012829
 148	7.3500e-02	1.4682	-12.498632	0.000359	3.591573	0.608429	0.007184
 149	7.4000e-02	1.4767	-12.458007	0.000406	4.061898	0.688104	0.008125
 150	7.4500e-02	1.4878	-12.429784	0.000282	2.821950	0.478051	0.005645
 151	7.5000e-02	1.4999	-12.377186	0.000526	5.259089	0.890914	0.010520
 152	7.5500e-02	1.5057	-12.345542	0.000316	3.164005	0.535997	0.006329
 153	7.6000e-02	1.5176	-12.282253	0.000633	6.328009	1.071994	0.012658
 154	7.6500e-02	1.5253	-12.259161	0.000231	2.308868	0.391133	0.004618
 155	7.7000e-02	1.5356	-12.208274	0.000509	5.088061	0.861941	0.010177
 156	7.7500e-02	1.5485	-12.180051	0.000282	2.821950	0.478051	0.005645
 157	7.8000e-02	1.5565	-12.147551	0.000325	3.249518	0.550483	0.006500
 158	7.8500e-02	1.5660	-12.090249	0.000573	5.729414	0.970589	0.011460
 159	7.9000e-02	1.5771	-12.052191	0.000381	3.805357	0.644645	0.007612
 160	7.9500e-02	1.5875	-12.018836	0.000334	3.335032	0.564970	0.006671
 161	8.0000e-02	1.5955	-11.975218	0.000436	4.361196	0.738807	0.008724
 162	8.0500e-02	1.6061	-11.938870	0.000363	3.634330	0.615672	0.007270
 163	8.1000e-02	1.6171	-11.885845	0.000530	5.301846	0.898157	0.010605
 164	8.1500e-02	1.6257	-11.837095	0.000487	4.874277	0.825725	0.009750
 165	8.2000e-02	1.6354	-11.814859	0.000222	2.223355	0.376646	0.004447
 166	8.2500e-02	1.6486	-11.767392	0.000475	4.746007	0.803995	0.009493
 167	8.3000e-02	1.6565	-11.724630	0.000428	4.275682	0.724320	0.008553
 168	8.3500e-02	1.6664	-11.678019	0.000466	4.660493	0.789509	0.009322
 169	8.4000e-02	1.6750	-11.639960	0.000381	3.805357	0.644645	0.007612
 170	8.4500e-02	1.6844	-11.601046	0.000389	3.890871	0.659131	0.007783
 171	8.5000e-02	1.6968	-11.574533	0.000265	2.650923	0.449078	0.005303
 172	8.5500e-02	1.7072	-11.518514	0.000560	5.601143	0.948859	0.011204
 173	8.6000e-02	1.7161	-11.480883	0.000376	3.762600	0.637402	0.007526
 174	8.6500e-02	1.7236	-11.431279	0.000496	4.959791	0.840211	0.009921
 175	8.7000e-02	1.7375	-11.387233	0.000440	4.403952	0.746050	0.008809
 176	8.7500e-02	1.7469	-11.347037	0.000402	4.019141	0.680861	0.008039
 177	8.8000e-02	1.7549	-11.300426	0.000466	4.660493	0.789509	0.009322
 178	8.8500e-02	1.7651	-11.267498	0.000329	3.292275	0.557726	0.006585
 179	8.9000e-02	1.7759	-11.229012	0.000385	3.848114	0.651888	0.007697
 180	8.9500e-02	1.7859	-11.188388	0.000406	4.061898	0.688104	0.008125
 181	9.0000e-02	1.7963	-11.140921	0.000475	4.746007	0.803995	0.009493
 182	9.0500e-02	1.8056	-11.108849	0.000321	3.206761	0.543240	0.006414
 183	9.1000e-02	1.8173	-11.079771	0.000291	2.907464	0.492538	0.005816
 184	9.1500e-02	1.8274	-11.029739	0.000500	5.002548	0.847455	0.010006
 185	9.2000e-02	1.8374	-10.968161	0.000616	6.156982	1.043021	0.012316
 186	9.2500e-02	1.8478	-10.953621	0.000145	1.453732	0.246269	0.002908
 187	9.3000e-02	1.8574	-10.884774	0.000688	6.883848	1.166155	0.013770
 188	9.3500e-02	1.8652	-10.860399	0.000244	2.437139	0.412862	0.004875
 189	9.4000e-02	1.8767	-10.846287	0.000141	1.410975	0.239026	0.002822
 190	9.4500e-02	1.8849	-10.779150	0.000671	6.712821	1.137183	0.013427
 191	9.5000e-02	1.8980	-10.738526	0.000406	4.061898	0.688104	0.008125
 192	9.5500e-02	1.9083	-10.691915	0.000466	4.660493	0.789509	0.009322
 193	9.6000e-02	1.9165	-10.665402	0.000265	2.650923	0.449078	0.005303
 194	9.6500e-02	1.9272	-10.607245	0.000581	5.814927	0.985075	0.011631
 195	9.7000e-02	1.9379	-10.562772	0.000445	4.446709	0.753293	0.008895
 196	9.7500e-02	1.9476	-10.538825	0.000239	2.394382	0.405619	0.004789
 197	9.8000e-02	1.9553	-10.487937	0.000509	5.088061	0.861941	0.010177
 198	9.8500e-02	1.9662	-10.449451	0.000385	3.848114	0.651888	0.007697
 199	9.9000e-02	1.9757	-10.410537	0.000389	3.890871	0.659131	0.007783
 200	9.9500e-02	1.9875	-10.380604	0.000299	2.992977	0.507024	0.005987
 201	1.0000e-01	1.9968	-10.335275	0.000453	4.532223	0.767779	0.009066
 202	1.0050e-01	2.0069	-10.285243	0.000500	5.002548	0.847455	0.010006
 203	1.0100e-01	2.0161	-10.263434	0.000218	2.180598	0.369403	0.004362
 204	1.0150e-01	2.0273	-10.213830	0.000496	4.959791	0.840211	0.009921
 205	1.0200e-01	2.0364	-10.171067	0.000428	4.275682	0.724320	0.008553
 206	1.0250e-01	2.0467	-10.138568	0.000325	3.249518	0.550483	0.006500
 207	1.0300e-01	2.0563	-10.079555	0.000590	5.900441	0.999562	0.011802
 208	1.0350e-01	2.0671	-10.050477	0.000291	2.907464	0.492538	0.005816
 209	1.0400e-01	2.0757	-10.027385	0.000231	2.308868	0.391133	0.004618
 210	1.0450e-01	2.0859	-9.985478	0.000419	4.190168	0.709834	0.008381
 211	1.0500e-01	2.0970	-9.934590	0.000509	5.088061	0.861941	0.010177
 212	1.0550e-01	2.1100	-9.893538	0.000410	4.104655	0.695347	0.008210
 213	1.0600e-01	2.1170	-9.872585	0.000210	2.095084	0.354917	0.004191
 214	1.0650e-01	2.1255	-9.808013	0.000646	6.456280	1.093723	0.012914
 215	1.0700e-01	2.1353	-9.768672	0.000393	3.933627	0.666375	0.007868
 216	1.0750e-01	2.1465	-9.716929	0.000517	5.173575	0.876427	0.010349
 217	1.0800e-01	2.1571	-9.687851	0.000291	2.907464	0.492538	0.005816
 218	1.0850e-01	2.1668	-9.651502	0.000363	3.634330	0.615672	0.007270
 219	1.0900e-01	2.1779	-9.593773	0.000577	5.772171	0.977832	0.011546
 220	1.0950e-01	2.1863	-9.565122	0.000286	2.864707	0.485294	0.005730
 221	1.1000e-01	2.1961	-9.553576	0.000115	1.154434	0.195566	0.002309
 222	1.1050e-01	2.2072	-9.498413	0.000552	5.515630	0.934373	0.011033
 223	1.1100e-01	2.2163	-9.430848	0.000676	6.755577	1.144426	0.013513
 224	1.1150e-01	2.2258	-9.404763	0.000261	2.608166	0.441835	0.005217
 225	1.1200e-01	2.2394	-9.372263	0.000325	3.249518	0.550483	0.006500
 226	1.1250e-01	2.2462	-9.318382	0.000539	5.387359	0.912643	0.010776
 227	1.1300e-01	2.2572	-9.274765	0.000436	4.361196	0.738807	0.008724
 228	1.1350e-01	2.2672	-9.261081	0.000137	1.368218	0.231782	0.002737
 229	1.1400e-01	2.2775	-9.191378	0.000697	6.969361	1.180642	0.013941
 230	1.1450e-01	2.2902	-9.177694	0.000137	1.368218	0.231782	0.002737
 231	1.1500e-01	2.2968	-9.149898	0.000278	2.779193	0.470808	0.005559
 232	1.1550e-01	2.3062	-9.092169	0.000577	5.772171	0.977832	0.011546
 233	1.1600e-01	2.3178	-9.075491	0.000167	1.667516	0.282485	0.003335
 234	1.1650e-01	2.3280	-9.013913	0.000616	6.156982	1.043021	0.012316
 235	1.1700e-01	2.3383	-8.991249	0.000227	2.266111	0.383890	0.004533
 236	1.1750e-01	2.3475	-8.931381	0.000599	5.985955	1.014048	0.011974
 237	1.1800e-01	2.3586	-8.893323	0.000381	3.805357	0.644645	0.007612
 238	1.1850e-01	2.3706	-8.833455	0.000599	5.985955	1.014048	0.011974
 239	1.1900e-01	2.3782	-8.813785	0.000197	1.966814	0.333187	0.003934
 240	1.1950e-01	2.3875	-8.762042	0.000517	5.173575	0.876427	0.010349
 241	1.2000e-01	2.3993	-8.725694	0.000363	3.634330	0.615672	0.007270
 242	1.2050e-01	2.4072	-8.710727	0.000150	1.496489	0.253512	0.002993
 243	1.2100e-01	2.4168	-8.657274	0.000534	5.344602	0.905400	0.010691
 244	1.2150e-01	2.4251	-8.617077	0.000402	4.019141	0.680861	0.008039
 245	1.2200e-01	2.4367	-8.567045	0.000500	5.002548	0.847455	0.010006
 246	1.2250e-01	2.4475	-8.531979	0.000351	3.506059	0.593942	0.007013
 247	1.2300e-01	2.4588	-8.514447	0.000175	1.753030	0.296971	0.003507
 248	1.2350e-01	2.4693	-8.473395	0.000410	4.104655	0.695347	0.008210
 249	1.2400e-01	2.4792	-8.421225	0.000522	5.216332	0.883671	0.010434
 250	1.2450e-01	2.4875	-8.372475	0.000487	4.874277	0.825725	0.009750
 251	1.2500e-01	2.4963	-8.333561	0.000389	3.890871	0.659131	0.007783
 252	1.2550e-01	2.5058	-8.308759	0.000248	2.479895	0.420106	0.004960
 253	1.2600e-01	2.5156	-8.260010	0.000487	4.874277	0.825725	0.009750
 254	1.2650e-01	2.5293	-8.228793	0.000312	3.121248	0.528754	0.006243
 255	1.2700e-01	2.5354	-8.199715	0.000291	2.907464	0.492538	0.005816
 256	1.2750e-01	2.5471	-8.138137	0.000616	6.156982	1.043021	0.012316
 257	1.2800e-01	2.5613	-8.092808	0.000453	4.532223	0.767779	0.009066
 258	1.2850e-01	2.5668	-8.070572	0.000222	2.223355	0.376646	0.004447
 259	1.2900e-01	2.5767	-8.027809	0.000428	4.275682	0.724320	0.008553
 260	1.2950e-01	2.5872	-7.977349	0.000505	5.045305	0.854698	0.010092
 261	1.3000e-01	2.5974	-7.948699	0.000286	2.864707	0.485294	0.005730
 262	1.3050e-01	2.6077	-7.926034	0.000227	2.266111	0.383890	0.004533
 263	1.3100e-01	2.6147	-7.879851	0.000462	4.617736	0.782266	0.009237
 264	1.3150e-01	2.6244	-7.840082	0.000398	3.976384	0.673618	0.007954
 265	1.3200e-01	2.6390	-7.775938	0.000641	6.413523	1.086480	0.012829
 266	1.3250e-01	2.6489	-7.745577	0.000304	3.035734	0.514267	0.006072
 267	1.3300e-01	2.6582	-7.725478	0.000201	2.009570	0.340430	0.004020
 268	1.3350e-01	2.6685	-7.680150	0.000453	4.532223	0.767779	0.009066
 269	1.3400e-01	2.6778	-7.648506	0.000316	3.164005	0.535997	0.006329
 270	1.3450e-01	2.6883	-7.611730	0.000368	3.677086	0.622915	0.007355
 271	1.3500e-01	2.6984	-7.558277	0.000534	5.344602	0.905400	0.010691
 272	1.3550e-01	2.7052	-7.534757	0.000235	2.351625	0.398376	0.004704
 273	1.3600e-01	2.7162	-7.497982	0.000368	3.677086	0.622915	0.007355
 274	1.3650e-01	2.7277	-7.447094	0.000509	5.088061	0.861941	0.010177
 275	1.3700e-01	2.7376	-7.405187	0.000419	4.190168	0.709834	0.008381
 276	1.3750e-01	2.7461	-7.378246	0.000269	2.693680	0.456322	0.005388
 277	1.3800e-01	2.7585	-7.352589	0.000257	2.565409	0.434592	0.005132
 278	1.3850e-01	2.7682	-7.289300	0.000633	6.328009	1.071994	0.012658
 279	1.3900e-01	2.7795	-7.254663	0.000346	3.463302	0.586699	0.006928
 280	1.3950e-01	2.7864	-7.211045	0.000436	4.361196	0.738807	0.008724
 281	1.4000e-01	2.7969	-7.173414	0.000376	3.762600	0.637402	0.007526
 282	1.4050e-01	2.8036	-7.128941	0.000445	4.446709	0.753293	0.008895
 283	1.4100e-01	2.8168	-7.073350	0.000556	5.558386	0.941616	0.011118
 284	1.4150e-01	2.8280	-7.087034	-0.000137	-1.368218	-0.231782	-0.002737
 285	1.4200e-01	2.8375	-7.050686	0.000363	3.634330	0.615672	0.007270
 286	1.4250e-01	2.8456	-6.978844	0.000718	7.183146	1.216858	0.014368
 287	1.4300e-01	2.8572	-6.938648	0.000402	4.019141	0.680861	0.008039
 288	1.4350e-01	2.8687	-6.901444	0.000372	3.719843	0.630159	0.007441
 289	1.4400e-01	2.8789	-6.866807	0.000346	3.463302	0.586699	0.006928
 290	1.4450e-01	2.8870	-6.827038	0.000398	3.976384	0.673618	0.007954
 291	1.4500e-01	2.8987	-6.790262	0.000368	3.677086	0.622915	0.007355
 292	1.4550e-01	2.9092	-6.752631	0.000376	3.762600	0.637402	0.007526
 293	1.4600e-01	2.9181	-6.715000	0.000376	3.762600	0.637402	0.007526
 294	1.4650e-01	2.9280	-6.691480	0.000235	2.351625	0.398376	0.004704
 295	1.4700e-01	2.9350	-6.635034	0.000564	5.643900	0.956103	0.011289
 296	1.4750e-01	2.9459	-6.613225	0.000218	2.180598	0.369403	0.004362
 297	1.4800e-01	2.9568	-6.587140	0.000261	2.608166	0.441835	0.005217
 298	1.4850e-01	2.9665	-6.517864	0.000693	6.926605	1.173399	0.013855
 299	1.4900e-01	2.9788	-6.493917	0.000239	2.394382	0.405619	0.004789
 300	1.4950e-01	2.9877	-6.460563	0.000334	3.335032	0.564970	0.006671
 301	1.5000e-01	2.9980	-6.404971	0.000556	5.558386	0.941616	0.011118
 302	1.5050e-01	3.0048	-6.368623	0.000363	3.634330	0.615672	0.007270
 303	1.5100e-01	3.0148	-6.328426	0.000402	4.019141	0.680861	0.008039
 304	1.5150e-01	3.0283	-6.307045	0.000214	2.137841	0.362160	0.004276
 305	1.5200e-01	3.0377	-6.249743	0.000573	5.729414	0.970589	0.011460
 306	1.5250e-01	3.0463	-6.241619	0.000081	0.812380	0.137621	0.001625
 307	1.5300e-01	3.0559	-6.178758	0.000629	6.285252	1.064751	0.012572
 308	1.5350e-01	3.0678	-6.147969	0.000308	3.078491	0.521510	0.006158
 309	1.5400e-01	3.0780	-6.091094	0.000569	5.686657	0.963346	0.011375
 310	1.5450e-01	3.0875	-6.073134	0.000180	1.795786	0.304214	0.003592
 311	1.5500e-01	3.0975	-6.033365	0.000398	3.976384	0.673618	0.007954
 312	1.5550e-01	3.1073	-5.996589	0.000368	3.677086	0.622915	0.007355
 313	1.5600e-01	3.1238	-5.951261	0.000453	4.532223	0.767779	0.009066
 314	1.5650e-01	3.1268	-5.918761	0.000325	3.249518	0.550483	0.006500
 315	1.5700e-01	3.1356	-5.872150	0.000466	4.660493	0.789509	0.009322
 316	1.5750e-01	3.1479	-5.845638	0.000265	2.650923	0.449078	0.005303
 317	1.5800e-01	3.1580	-5.804158	0.000415	4.147411	0.702591	0.008296
 318	1.5850e-01	3.1677	-5.773369	0.000308	3.078491	0.521510	0.006158
 319	1.5900e-01	3.1757	-5.733600	0.000398	3.976384	0.673618	0.007954
 320	1.5950e-01	3.1862	-5.686989	0.000466	4.660493	0.789509	0.009322
 321	1.6000e-01	3.2001	-5.652351	0.000346	3.463302	0.586699	0.006928
 322	1.6050e-01	3.2071	-5.611726	0.000406	4.061898	0.688104	0.008125
 323	1.6100e-01	3.2190	-5.559984	0.000517	5.173575	0.876427	0.010349
 324	1.6150e-01	3.2271	-5.529195	0.000308	3.078491	0.521510	0.006158
 325	1.6200e-01	3.2379	-5.500544	0.000286	2.864707	0.485294	0.005730
 326	1.6250e-01	3.2474	-5.463341	0.000372	3.719843	0.630159	0.007441
 327	1.6300e-01	3.2574	-5.454360	0.000090	0.897893	0.152107	0.001796
 328	1.6350e-01	3.2663	-5.404756	0.000496	4.959791	0.840211	0.009921
 329	1.6400e-01	3.2778	-5.361566	0.000432	4.318439	0.731563	0.008638
 330	1.6450e-01	3.2883	-5.315810	0.000457	4.574980	0.775023	0.009151
 331	1.6500e-01	3.2974	-5.280317	0.000355	3.548816	0.601186	0.007099
 332	1.6550e-01	3.3044	-5.240548	0.000398	3.976384	0.673618	0.007954
 333	1.6600e-01	3.3185	-5.204627	0.000359	3.591573	0.608429	0.007184
 334	1.6650e-01	3.3264	-5.164858	0.000398	3.976384	0.673618	0.007954
 335	1.6700e-01	3.3376	-5.129793	0.000351	3.506059	0.593942	0.007013
 336	1.6750e-01	3.3490	-5.098149	0.000316	3.164005	0.535997	0.006329
 337	1.6800e-01	3.3582	-5.066077	0.000321	3.206761	0.543240	0.006414
 338	1.6850e-01	3.3679	-5.039564	0.000265	2.650923	0.449078	0.005303
 339	1.6900e-01	3.3760	-4.976275	0.000633	6.328009	1.071994	0.012658
 340	1.6950e-01	3.3847	-4.943776	0.000325	3.249518	0.550483	0.006500
 341	1.7000e-01	3.3975	-4.895882	0.000479	4.788764	0.811239	0.009579
 342	1.7050e-01	3.4090	-4.864237	0.000316	3.164005	0.535997	0.006329
 343	1.7100e-01	3.4167	-4.823613	0.000406	4.061898	0.688104	0.008125
 344	1.7150e-01	3.4265	-4.808646	0.000150	1.496489	0.253512	0.002993
 345	1.7200e-01	3.4375	-4.753483	0.000552	5.515630	0.934373	0.011033
 346	1.7250e-01	3.4445	-4.718417	0.000351	3.506059	0.593942	0.007013
 347	1.7300e-01	3.4550	-4.694043	0.000244	2.437139	0.412862	0.004875
 348	1.7350e-01	3.4668	-4.652563	0.000415	4.147411	0.702591	0.008296
 349	1.7400e-01	3.4760	-4.630326	0.000222	2.223355	0.376646	0.004447
 350	1.7450e-01	3.4894	-4.589274	0.000410	4.104655	0.695347	0.008210
 351	1.7500e-01	3.4982	-4.547795	0.000415	4.147411	0.702591	0.008296
 352	1.7550e-01	3.5068	-4.507598	0.000402	4.019141	0.680861	0.008039
 353	1.7600e-01	3.5176	-4.431481	0.000761	7.610714	1.289290	0.015223
 354	1.7650e-01	3.5262	-4.416086	0.000154	1.539245	0.260755	0.003079
 355	1.7700e-01	3.5345	-4.380593	0.000355	3.548816	0.601186	0.007099
 356	1.7750e-01	3.5484	-4.346811	0.000338	3.377789	0.572213	0.006756
 357	1.7800e-01	3.5565	-4.342107	0.000047	0.470325	0.079675	0.000941
 358	1.7850e-01	3.5670	-4.287371	0.000547	5.472873	0.927130	0.010947
 359	1.7900e-01	3.5742	-4.234345	0.000530	5.301846	0.898157	0.010605
 360	1.7950e-01	3.5876	-4.211681	0.000227	2.266111	0.383890	0.004533
 361	1.8000e-01	3.5962	-4.171912	0.000398	3.976384	0.673618	0.007954
 362	1.8050e-01	3.6078	-4.134281	0.000376	3.762600	0.637402	0.007526
 363	1.8100e-01	3.6218	-4.109479	0.000248	2.479895	0.420106	0.004960
 364	1.8150e-01	3.6275	-4.070565	0.000389	3.890871	0.659131	0.007783
 365	1.8200e-01	3.6365	-4.023954	0.000466	4.660493	0.789509	0.009322
 366	1.8250e-01	3.6478	-3.971356	0.000526	5.259089	0.890914	0.010520
 367	1.8300e-01	3.6592	-3.936291	0.000351	3.506059	0.593942	0.007013
 368	1.8350e-01	3.6668	-3.905502	0.000308	3.078491	0.521510	0.006158
 369	1.8400e-01	3.6795	-3.867871	0.000376	3.762600	0.637402	0.007526
 370	1.8450e-01	3.6877	-3.837937	0.000299	2.992977	0.507024	0.005987
 371	1.8500e-01	3.6963	-3.820832	0.000171	1.710273	0.289728	0.003421
 372	1.8550e-01	3.7085	-3.775076	0.000457	4.574980	0.775023	0.009151
 373	1.8600e-01	3.7184	-3.720768	0.000543	5.430116	0.919887	0.010862
 374	1.8650e-01	3.7265	-3.688268	0.000325	3.249518	0.550483	0.006500
 375	1.8700e-01	3.7378	-3.645505	0.000428	4.275682	0.724320	0.008553
 376	1.8750e-01	3.7469	-3.627973	0.000175	1.753030	0.296971	0.003507
 377	1.8800e-01	3.7582	-3.606592	0.000214	2.137841	0.362160	0.004276
 378	1.8850e-01	3.7650	-3.558698	0.000479	4.788764	0.811239	0.009579
 379	1.8900e-01	3.7787	-3.502679	0.000560	5.601143	0.948859	0.011204
 380	1.8950e-01	3.7897	-3.469751	0.000329	3.292275	0.557726	0.006585
 381	1.9000e-01	3.7971	-3.435114	0.000346	3.463302	0.586699	0.006928
 382	1.9050e-01	3.8025	-3.407746	0.000274	2.736436	0.463565	0.005474
 383	1.9100e-01	3.8177	-3.367121	0.000406	4.061898	0.688104	0.008125
 384	1.9150e-01	3.8263	-3.350872	0.000162	1.624759	0.275242	0.003250
 385	1.9200e-01	3.8379	-3.295280	0.000556	5.558386	0.941616	0.011118
 386	1.9250e-01	3.8464	-3.267912	0.000274	2.736436	0.463565	0.005474
 387	1.9300e-01	3.8550	-3.210611	0.000573	5.729414	0.970589	0.011460
 388	1.9350e-01	3.8696	-3.209328	0.000013	0.128270	0.021730	0.000257
 389	1.9400e-01	3.8763	-3.159723	0.000496	4.959791	0.840211	0.009921
 390	1.9450e-01	3.8892	-3.109263	0.000505	5.045305	0.854698	0.010092
 391	1.9500e-01	3.8965	-3.081895	0.000274	2.736436	0.463565	0.005474
 392	1.9550e-01	3.9064	-3.050251	0.000316	3.164005	0.535997	0.006329
 393	1.9600e-01	3.9186	-3.007916	0.000423	4.232925	0.717077	0.008467
 394	1.9650e-01	3.9301	-2.969430	0.000385	3.848114	0.651888	0.007697
 395	1.9700e-01	3.9388	-2.960877	0.000086	0.855136	0.144864	0.001711
 396	1.9750e-01	3.9497	-2.891602	0.000693	6.926605	1.173399	0.013855
 397	1.9800e-01	3.9575	-2.862524	0.000291	2.907464	0.492538	0.005816
 398	1.9850e-01	3.9677	-2.824465	0.000381	3.805357	0.644645	0.007612
 399	1.9900e-01	3.9789	-2.777854	0.000466	4.660493	0.789509	0.009322
 400	1.9950e-01	3.9877	-2.784268	-0.000064	-0.641352	-0.108648	-0.001283
 401	2.0000e-01	3.9984	-2.724401	0.000599	5.985955	1.014048	0.011974
 402	2.0050e-01	4.0070	-2.685059	0.000393	3.933627	0.666375	0.007868
 403	2.0100e-01	4.0155	-2.675224	0.000098	0.983407	0.166594	0.001967
 404	2.0150e-01	4.0286	-2.623053	0.000522	5.216332	0.883671	0.010434
 405	2.0200e-01	4.0356	-2.578580	0.000445	4.446709	0.753293	0.008895
 406	2.0250e-01	4.0500	-2.527265	0.000513	5.130818	0.869184	0.010263
 407	2.0300e-01	4.0564	-2.508450	0.000188	1.881300	0.318701	0.003763
 408	2.0350e-01	4.0670	-2.486641	0.000218	2.180598	0.369403	0.004362
 409	2.0400e-01	4.0787	-2.440885	0.000457	4.574980	0.775023	0.009151
 410	2.0450e-01	4.0845	-2.380162	0.000607	6.071468	1.028535	0.012145
 411	2.0500e-01	4.0973	-2.350229	0.000299	2.992977	0.507024	0.005987
 412	2.0550e-01	4.1064	-2.325426	0.000248	2.479895	0.420106	0.004960
 413	2.0600e-01	4.1174	-2.303190	0.000222	2.223355	0.376646	0.004447
 414	2.0650e-01	4.1296	-2.261282	0.000419	4.190168	0.709834	0.008381
 415	2.0700e-01	4.1379	-2.224507	0.000368	3.677086	0.622915	0.007355
 416	2.0750e-01	4.1486	-2.184310	0.000402	4.019141	0.680861	0.008039
 417	2.0800e-01	4.1577	-2.152666	0.000316	3.164005	0.535997	0.006329
 418	2.0850e-01	4.1643	-2.107765	0.000449	4.489466	0.760536	0.008980
 419	2.0900e-01	4.1766	-2.080397	0.000274	2.736436	0.463565	0.005474
 420	2.0950e-01	4.1888	-2.043621	0.000368	3.677086	0.622915	0.007355
 421	2.1000e-01	4.1982	-2.012405	0.000312	3.121248	0.528754	0.006243
 422	2.1050e-01	4.2067	-1.979905	0.000325	3.249518	0.550483	0.006500
 423	2.1100e-01	4.2188	-1.940991	0.000389	3.890871	0.659131	0.007783
 424	2.1150e-01	4.2279	-1.903360	0.000376	3.762600	0.637402	0.007526
 425	2.1200e-01	4.2348	-1.861880	0.000415	4.147411	0.702591	0.008296
 426	2.1250e-01	4.2447	-1.812276	0.000496	4.959791	0.840211	0.009921
 427	2.1300e-01	4.2596	-1.809710	0.000026	0.256541	0.043459	0.000513
 428	2.1350e-01	4.2683	-1.751125	0.000586	5.857684	0.992319	0.011717
 429	2.1400e-01	4.2776	-1.727178	0.000239	2.394382	0.405619	0.004789
 430	2.1450e-01	4.2885	-1.701521	0.000257	2.565409	0.434592	0.005132
 431	2.1500e-01	4.2976	-1.650634	0.000509	5.088061	0.861941	0.010177
 432	2.1550e-01	4.3050	-1.621983	0.000286	2.864707	0.485294	0.005730
 433	2.1600e-01	4.3176	-1.584352	0.000376	3.762600	0.637402	0.007526
 434	2.1650e-01	4.3277	-1.552280	0.000321	3.206761	0.543240	0.006414
 435	2.1700e-01	4.3372	-1.513793	0.000385	3.848114	0.651888	0.007697
 436	2.1750e-01	4.3472	-1.468465	0.000453	4.532223	0.767779	0.009066
 437	2.1800e-01	4.3591	-1.426986	0.000415	4.147411	0.702591	0.008296
 438	2.1850e-01	4.3680	-1.411163	0.000158	1.582002	0.267998	0.003164
 439	2.1900e-01	4.3799	-1.370111	0.000410	4.104655	0.695347	0.008210
 440	2.1950e-01	4.3861	-1.354717	0.000154	1.539245	0.260755	0.003079
 441	2.2000e-01	4.3988	-1.300836	0.000539	5.387359	0.912643	0.010776
 442	2.2050e-01	4.4068	-1.279882	0.000210	2.095084	0.354917	0.004191
 443	2.2100e-01	4.4208	-1.228140	0.000517	5.173575	0.876427	0.010349
 444	2.2150e-01	4.4275	-1.191792	0.000363	3.634330	0.615672	0.007270
 445	2.2200e-01	4.4366	-1.165279	0.000265	2.650923	0.449078	0.005303
 446	2.2250e-01	4.4458	-1.123799	0.000415	4.147411	0.702591	0.008296
 447	2.2300e-01	4.4574	-1.109688	0.000141	1.410975	0.239026	0.002822
 448	2.2350e-01	4.4690	-1.054096	0.000556	5.558386	0.941616	0.011118
 449	2.2400e-01	4.4775	-1.015610	0.000385	3.848114	0.651888	0.007697
 450	2.2450e-01	4.4849	-0.975413	0.000402	4.019141	0.680861	0.008039
 451	2.2500e-01	4.4983	-0.948045	0.000274	2.736436	0.463565	0.005474
 452	2.2550e-01	4.5088	-0.932223	0.000158	1.582002	0.267998	0.003164
 453	2.2600e-01	4.5166	-0.889033	0.000432	4.318439	0.731563	0.008638
 454	2.2650e-01	4.5282	-0.865086	0.000239	2.394382	0.405619	0.004789
 455	2.2700e-01	4.5338	-0.809067	0.000560	5.601143	0.948859	0.011204
 456	2.2750e-01	4.5480	-0.783410	0.000257	2.565409	0.434592	0.005132
 457	2.2800e-01	4.5593	-0.761601	0.000218	2.180598	0.369403	0.004362
 458	2.2850e-01	4.5679	-0.718410	0.000432	4.318439	0.731563	0.008638
 459	2.2900e-01	4.5775	-0.670516	0.000479	4.788764	0.811239	0.009579
 460	2.2950e-01	4.5898	-0.645287	0.000252	2.522652	0.427349	0.005046
 461	2.3000e-01	4.5999	-0.609366	0.000359	3.591573	0.608429	0.007184
 462	2.3050e-01	4.6071	-0.592261	0.000171	1.710273	0.289728	0.003421
 463	2.3100e-01	4.6164	-0.549071	0.000432	4.318439	0.731563	0.008638
 464	2.3150e-01	4.6289	-0.510157	0.000389	3.890871	0.659131	0.007783
 465	2.3200e-01	4.6371	-0.472954	0.000372	3.719843	0.630159	0.007441
 466	2.3250e-01	4.6497	-0.426342	0.000466	4.660493	0.789509	0.009322
 467	2.3300e-01	4.6561	-0.391277	0.000351	3.506059	0.593942	0.007013
 468	2.3350e-01	4.6663	-0.381014	0.000103	1.026164	0.173837	0.002053
 469	2.3400e-01	4.6790	-0.324568	0.000564	5.643900	0.956103	0.011289
 470	2.3450e-01	4.6866	-0.298055	0.000265	2.650923	0.449078	0.005303
 471	2.3500e-01	4.6964	-0.280522	0.000175	1.753030	0.296971	0.003507
 472	2.3550e-01	4.7095	-0.239898	0.000406	4.061898	0.688104	0.008125
 473	2.3600e-01	4.7156	-0.170195	0.000697	6.969361	1.180642	0.013941
 474	2.3650e-01	4.7266	-0.153517	0.000167	1.667516	0.282485	0.003335
 475	2.3700e-01	4.7366	-0.141972	0.000115	1.154434	0.195566	0.002309
 476	2.3750e-01	4.7473	-0.105623	0.000363	3.634330	0.615672	0.007270
 477	2.3800e-01	4.7552	-0.082104	0.000235	2.351625	0.398376	0.004704
 478	2.3850e-01	4.7659	-0.024802	0.000573	5.729414	0.970589	0.011460
 479	2.3900e-01	4.7778	0.012829	0.000376	3.762600	0.637402	0.007526
 480	2.3950e-01	4.7882	0.033782	0.000210	2.095084	0.354917	0.004191
 481	2.4000e-01	4.7974	0.078683	0.000449	4.489466	0.760536	0.008980
 482	2.4050e-01	4.8055	0.115886	0.000372	3.719843	0.630159	0.007441
 483	2.4100e-01	4.8175	0.141116	0.000252	2.522652	0.427349	0.005046
 484	2.4150e-01	4.8297	0.170195	0.000291	2.907464	0.492538	0.005816
 485	2.4200e-01	4.8395	0.214240	0.000440	4.403952	0.746050	0.008809
 486	2.4250e-01	4.8470	0.237760	0.000235	2.351625	0.398376	0.004704
 487	2.4300e-01	4.8593	0.271114	0.000334	3.335032	0.564970	0.006671
 488	2.4350e-01	4.8688	0.310884	0.000398	3.976384	0.673618	0.007954
 489	2.4400e-01	4.8778	0.354929	0.000440	4.403952	0.746050	0.008809
 490	2.4450e-01	4.8892	0.366902	0.000120	1.197191	0.202810	0.002395
 491	2.4500e-01	4.8975	0.409665	0.000428	4.275682	0.724320	0.008553
 492	2.4550e-01	4.9075	0.459697	0.000500	5.002548	0.847455	0.010006
 493	2.4600e-01	4.9185	0.485355	0.000257	2.565409	0.434592	0.005132
 494	2.4650e-01	4.9286	0.523841	0.000385	3.848114	0.651888	0.007697
 495	2.4700e-01	4.9356	0.558906	0.000351	3.506059	0.593942	0.007013
 496	2.4750e-01	4.9492	0.559761	0.000009	0.085514	0.014486	0.000171
 497	2.4800e-01	4.9591	0.622195	0.000624	6.242496	1.057507	0.012487
 498	2.4850e-01	4.9683	0.638445	0.000162	1.624759	0.275242	0.003250
 499	2.4900e-01	4.9783	0.687194	0.000487	4.874277	0.825725	0.009750
 500	2.4950e-01	4.9905	0.706009	0.000188	1.881300	0.318701	0.003763
 501	2.5000e-01	4.9954	0.747489	0.000415	4.147411	0.702591	0.008296
 502	2.5050e-01	5.0076	0.787258	0.000398	3.976384	0.673618	0.007954
 503	2.5100e-01	5.0192	0.820185	0.000329	3.292275	0.557726	0.006585
 504	2.5150e-01	5.0262	0.851830	0.000316	3.164005	0.535997	0.006329
 505	2.5200e-01	5.0397	0.892454	0.000406	4.061898	0.688104	0.008125
 506	2.5250e-01	5.0494	0.895875	0.000034	0.342055	0.057946	0.000684
 507	2.5300e-01	5.0586	0.947190	0.000513	5.130818	0.869184	0.010263
 508	2.5350e-01	5.0656	0.990380	0.000432	4.318439	0.731563	0.008638
 509	2.5400e-01	5.0768	1.018603	0.000282	2.821950	0.478051	0.005645
 510	2.5450e-01	5.0873	1.056662	0.000381	3.805357	0.644645	0.007612
 511	2.5500e-01	5.0964	1.101135	0.000445	4.446709	0.753293	0.008895
 512	2.5550e-01	5.1082	1.115247	0.000141	1.410975	0.239026	0.002822
 513	2.5600e-01	5.1196	1.161858	0.000466	4.660493	0.789509	0.009322
 514	2.5650e-01	5.1276	1.184094	0.000222	2.223355	0.376646	0.004447
 515	2.5700e-01	5.1367	1.217022	0.000329	3.292275	0.557726	0.006585
 516	2.5750e-01	5.1483	1.269192	0.000522	5.216332	0.883671	0.010434
 517	2.5800e-01	5.1566	1.302547	0.000334	3.335032	0.564970	0.006671
 518	2.5850e-01	5.1674	1.317086	0.000145	1.453732	0.246269	0.002908
 519	2.5900e-01	5.1761	1.353434	0.000363	3.634330	0.615672	0.007270
 520	2.5950e-01	5.1883	1.402611	0.000492	4.917034	0.832968	0.009835
 521	2.6000e-01	5.1981	1.411163	0.000086	0.855136	0.144864	0.001711
 522	2.6050e-01	5.2051	1.475735	0.000646	6.456280	1.093723	0.012914
 523	2.6100e-01	5.2209	1.490702	0.000150	1.496489	0.253512	0.002993
 524	2.6150e-01	5.2267	1.524912	0.000342	3.420546	0.579456	0.006842
 525	2.6200e-01	5.2377	1.565964	0.000410	4.104655	0.695347	0.008210
 526	2.6250e-01	5.2454	1.584779	0.000188	1.881300	0.318701	0.003763
 527	2.6300e-01	5.2551	1.628825	0.000440	4.403952	0.746050	0.008809
 528	2.6350e-01	5.2686	1.657903	0.000291	2.907464	0.492538	0.005816
 529	2.6400e-01	5.2771	1.698100	0.000402	4.019141	0.680861	0.008039
 530	2.6450e-01	5.2881	1.730172	0.000321	3.206761	0.543240	0.006414
 531	2.6500e-01	5.2991	1.752836	0.000227	2.266111	0.383890	0.004533
 532	2.6550e-01	5.3082	1.788329	0.000355	3.548816	0.601186	0.007099
 533	2.6600e-01	5.3186	1.821684	0.000334	3.335032	0.564970	0.006671
 534	2.6650e-01	5.3290	1.867012	0.000453	4.532223	0.767779	0.009066
 535	2.6700e-01	5.3381	1.893097	0.000261	2.608166	0.441835	0.005217
 536	2.6750e-01	5.3488	1.938853	0.000457	4.574980	0.775023	0.009151
 537	2.6800e-01	5.3583	1.957241	0.000184	1.838543	0.311458	0.003678
 538	2.6850e-01	5.3670	1.990168	0.000329	3.292275	0.557726	0.006585
 539	2.6900e-01	5.3772	2.014970	0.000248	2.479895	0.420106	0.004960
 540	2.6950e-01	5.3839	2.054312	0.000393	3.933627	0.666375	0.007868
 541	2.7000e-01	5.3970	2.082107	0.000278	2.779193	0.470808	0.005559
 542	2.7050e-01	5.4059	2.114607	0.000325	3.249518	0.550483	0.006500
 543	2.7100e-01	5.4169	2.156087	0.000415	4.147411	0.702591	0.008296
 544	2.7150e-01	5.4282	2.170198	0.000141	1.410975	0.239026	0.002822
 545	2.7200e-01	5.4361	2.234770	0.000646	6.456280	1.093723	0.012914
 546	2.7250e-01	5.4480	2.235625	0.000009	0.085514	0.014486	0.000171
 547	2.7300e-01	5.4578	2.295920	0.000603	6.028711	1.021291	0.012059
 548	2.7350e-01	5.4675	2.329702	0.000338	3.377789	0.572213	0.006756
 549	2.7400e-01	5.4776	2.348946	0.000192	1.924057	0.325944	0.003849
 550	2.7450e-01	5.4883	2.392136	0.000432	4.318439	0.731563	0.008638
 551	2.7500e-01	5.4968	2.419076	0.000269	2.693680	0.456322	0.005388
 552	2.7550e-01	5.5066	2.450720	0.000316	3.164005	0.535997	0.006329
 553	2.7600e-01	5.5165	2.478088	0.000274	2.736436	0.463565	0.005474
 554	2.7650e-01	5.5251	2.523844	0.000457	4.574980	0.775023	0.009151
 555	2.7700e-01	5.5392	2.561475	0.000376	3.762600	0.637402	0.007526
 556	2.7750e-01	5.5481	2.575587	0.000141	1.410975	0.239026	0.002822
 557	2.7800e-01	5.5556	2.615784	0.000402	4.019141	0.680861	0.008039
 558	2.7850e-01	5.5679	2.659402	0.000436	4.361196	0.738807	0.008724
 559	2.7900e-01	5.5814	2.681638	0.000222	2.223355	0.376646	0.004447
 560	2.7950e-01	5.5879	2.725256	0.000436	4.361196	0.738807	0.008724
 561	2.8000e-01	5.5970	2.745782	0.000205	2.052327	0.347674	0.004105
 562	2.8050e-01	5.6104	2.789827	0.000440	4.403952	0.746050	0.008809
 563	2.8100e-01	5.6161	2.811636	0.000218	2.180598	0.369403	0.004362
 564	2.8150e-01	5.6262	2.841570	0.000299	2.992977	0.507024	0.005987
 565	2.8200e-01	5.6367	2.891174	0.000496	4.959791	0.840211	0.009921
 566	2.8250e-01	5.6445	2.917260	0.000261	2.608166	0.441835	0.005217
 567	2.8300e-01	5.6580	2.931799	0.000145	1.453732	0.246269	0.002908
 568	2.8350e-01	5.6668	2.971996	0.000402	4.019141	0.680861	0.008039
 569	2.8400e-01	5.6812	3.013475	0.000415	4.147411	0.702591	0.008296
 570	2.8450e-01	5.6909	3.031008	0.000175	1.753030	0.296971	0.003507
 571	2.8500e-01	5.6984	3.086172	0.000552	5.515630	0.934373	0.011033
 572	2.8550e-01	5.7083	3.115678	0.000295	2.950220	0.499781	0.005901
 573	2.8600e-01	5.7169	3.149460	0.000338	3.377789	0.572213	0.006756
 574	2.8650e-01	5.7266	3.187946	0.000385	3.848114	0.651888	0.007697
 575	2.8700e-01	5.7361	3.221301	0.000334	3.335032	0.564970	0.006671
 576	2.8750e-01	5.7455	3.246531	0.000252	2.522652	0.427349	0.005046
 577	2.8800e-01	5.7574	3.260643	0.000141	1.410975	0.239026	0.002822
 578	2.8850e-01	5.7678	3.316234	0.000556	5.558386	0.941616	0.011118
 579	2.8900e-01	5.7776	3.340181	0.000239	2.394382	0.405619	0.004789
 580	2.8950e-01	5.7870	3.365839	0.000257	2.565409	0.434592	0.005132
 581	2.9000e-01	5.7983	3.386792	0.000210	2.095084	0.354917	0.004191
 582	2.9050e-01	5.8078	3.430410	0.000436	4.361196	0.738807	0.008724
 583	2.9100e-01	5.8205	3.466758	0.000363	3.634330	0.615672	0.007270
 584	2.9150e-01	5.8319	3.494981	0.000282	2.821950	0.478051	0.005645
 585	2.9200e-01	5.8374	3.541165	0.000462	4.617736	0.782266	0.009237
 586	2.9250e-01	5.8496	3.554849	0.000137	1.368218	0.231782	0.002737
 587	2.9300e-01	5.8559	3.607874	0.000530	5.301846	0.898157	0.010605
 588	2.9350e-01	5.8698	3.606164	-0.000017	-0.171027	-0.028973	-0.000342
 589	2.9400e-01	5.8807	3.657051	0.000509	5.088061	0.861941	0.010177
 590	2.9450e-01	5.8868	3.695538	0.000385	3.848114	0.651888	0.007697
 591	2.9500e-01	5.8969	3.744287	0.000487	4.874277	0.825725	0.009750
 592	2.9550e-01	5.9052	3.770800	0.000265	2.650923	0.449078	0.005303
 593	2.9600e-01	5.9189	3.774221	0.000034	0.342055	0.057946	0.000684
 594	2.9650e-01	5.9268	3.810569	0.000363	3.634330	0.615672	0.007270
 595	2.9700e-01	5.9354	3.864877	0.000543	5.430116	0.919887	0.010862
 596	2.9750e-01	5.9439	3.896522	0.000316	3.164005	0.535997	0.006329
 597	2.9800e-01	5.9578	3.932442	0.000359	3.591573	0.608429	0.007184
 598	2.9850e-01	5.9662	3.968790	0.000363	3.634330	0.615672	0.007270
 599	2.9900e-01	5.9784	3.996158	0.000274	2.736436	0.463565	0.005474
 600	2.9950e-01	5.9882	4.015401	0.000192	1.924057	0.325944	0.003849
 601	3.0000e-01	6.0011	4.041059	0.000257	2.565409	0.434592	0.005132
 602	3.0050e-01	6.0065	4.059874	0.000188	1.881300	0.318701	0.003763
 603	3.0100e-01	6.0178	4.118031	0.000581	5.814927	0.985075	0.011631
 604	3.0150e-01	6.0254	4.148820	0.000308	3.078491	0.521510	0.006158
 605	3.0200e-01	6.0352	4.172340	0.000235	2.351625	0.398376	0.004704
 606	3.0250e-01	6.0474	4.212964	0.000406	4.061898	0.688104	0.008125
 607	3.0300e-01	6.0590	4.263852	0.000509	5.088061	0.861941	0.010177
 608	3.0350e-01	6.0672	4.282667	0.000188	1.881300	0.318701	0.003763
 609	3.0400e-01	6.0779	4.303193	0.000205	2.052327	0.347674	0.004105
 610	3.0450e-01	6.0858	4.351515	0.000483	4.831521	0.818482	0.009664
 611	3.0500e-01	6.1005	4.361778	0.000103	1.026164	0.173837	0.002053
 612	3.0550e-01	6.1078	4.395560	0.000338	3.377789	0.572213	0.006756
 613	3.0600e-01	6.1182	4.452434	0.000569	5.686657	0.963346	0.011375
 614	3.0650e-01	6.1276	4.465691	0.000133	1.325461	0.224539	0.002651
 615	3.0700e-01	6.1356	4.505460	0.000398	3.976384	0.673618	0.007954
 616	3.0750e-01	6.1481	4.502894	-0.000026	-0.256541	-0.043459	-0.000513
 617	3.0800e-01	6.1575	4.573880	0.000710	7.097632	1.202371	0.014197
 618	3.0850e-01	6.1676	4.588419	0.000145	1.453732	0.246269	0.002908
 619	3.0900e-01	6.1765	4.643583	0.000552	5.515630	0.934373	0.011033
 620	3.0950e-01	6.1865	4.656839	0.000133	1.325461	0.224539	0.002651
 621	3.1000e-01	6.1993	4.697891	0.000410	4.104655	0.695347	0.008210
 622	3.1050e-01	6.2061	4.724404	0.000265	2.650923	0.449078	0.005303
 623	3.1100e-01	6.2195	4.747068	0.000227	2.266111	0.383890	0.004533
 624	3.1150e-01	6.2268	4.789831	0.000428	4.275682	0.724320	0.008553
 625	3.1200e-01	6.2396	4.822330	0.000325	3.249518	0.550483	0.006500
 626	3.1250e-01	6.2494	4.852264	0.000299	2.992977	0.507024	0.005987
 627	3.1300e-01	6.2585	4.891178	0.000389	3.890871	0.659131	0.007783
 628	3.1350e-01	6.2683	4.911704	0.000205	2.052327	0.347674	0.004105
 629	3.1400e-01	6.2787	4.944203	0.000325	3.249518	0.550483	0.006500
 630	3.1450e-01	6.2872	4.991242	0.000470	4.703250	0.796752	0.009408
 631	3.1500e-01	6.2967	5.007920	0.000167	1.667516	0.282485	0.003335
 632	3.1550e-01	6.3065	5.018183	0.000103	1.026164	0.173837	0.002053
 633	3.1600e-01	6.3197	5.087886	0.000697	6.969361	1.180642	0.013941
 634	3.1650e-01	6.3251	5.122951	0.000351	3.506059	0.593942	0.007013
 635	3.1700e-01	6.3397	5.156733	0.000338	3.377789	0.572213	0.006756
 636	3.1750e-01	6.3477	5.171700	0.000150	1.496489	0.253512	0.002993
 637	3.1800e-01	6.3574	5.216601	0.000449	4.489466	0.760536	0.008980
 638	3.1850e-01	6.3687	5.244396	0.000278	2.779193	0.470808	0.005559
 639	3.1900e-01	6.3751	5.288014	0.000436	4.361196	0.738807	0.008724
 640	3.1950e-01	6.3873	5.296994	0.000090	0.897893	0.152107	0.001796
 641	3.2000e-01	6.3992	5.341895	0.000449	4.489466	0.760536	0.008980
 642	3.2050e-01	6.4076	5.361138	0.000192	1.924057	0.325944	0.003849
 643	3.2100e-01	6.4172	5.390217	0.000291	2.907464	0.492538	0.005816
 644	3.2150e-01	6.4261	5.425709	0.000355	3.548816	0.601186	0.007099
 645	3.2200e-01	6.4331	5.457354	0.000316	3.164005	0.535997	0.006329
 646	3.2250e-01	6.4465	5.497551	0.000402	4.019141	0.680861	0.008039
 647	3.2300e-01	6.4563	5.535609	0.000381	3.805357	0.644645	0.007612
 648	3.2350e-01	6.4697	5.554425	0.000188	1.881300	0.318701	0.003763
 649	3.2400e-01	6.4764	5.595477	0.000410	4.104655	0.695347	0.008210
 650	3.2450e-01	6.4868	5.625410	0.000299	2.992977	0.507024	0.005987
 651	3.2500e-01	6.4986	5.672449	0.000470	4.703250	0.796752	0.009408
 652	3.2550e-01	6.5057	5.701100	0.000286	2.864707	0.485294	0.005730
 653	3.2600e-01	6.5186	5.718633	0.000175	1.753030	0.296971	0.003507
 654	3.2650e-01	6.5289	5.753698	0.000351	3.506059	0.593942	0.007013
 655	3.2700e-01	6.5356	5.775935	0.000222	2.223355	0.376646	0.004447
 656	3.2750e-01	6.5488	5.822546	0.000466	4.660493	0.789509	0.009322
 657	3.2800e-01	6.5584	5.844782	0.000222	2.223355	0.376646	0.004447
 658	3.2850e-01	6.5692	5.869157	0.000244	2.437139	0.412862	0.004875
 659	3.2900e-01	6.5784	5.910637	0.000415	4.147411	0.702591	0.008296
 660	3.2950e-01	6.5872	5.953827	0.000432	4.318439	0.731563	0.008638
 661	3.3000e-01	6.5973	5.978629	0.000248	2.479895	0.420106	0.004960
 662	3.3050e-01	6.6058	6.008990	0.000304	3.035734	0.514267	0.006072
 663	3.3100e-01	6.6177	6.058595	0.000496	4.959791	0.840211	0.009921
 664	3.3150e-01	6.6284	6.088101	0.000295	2.950220	0.499781	0.005901
 665	3.3200e-01	6.6370	6.114186	0.000261	2.608166	0.441835	0.005217
 666	3.3250e-01	6.6479	6.131719	0.000175	1.753030	0.296971	0.003507
 667	3.3300e-01	6.6574	6.172771	0.000410	4.104655	0.695347	0.008210
 668	3.3350e-01	6.6678	6.215961	0.000432	4.318439	0.731563	0.008638
 669	3.3400e-01	6.6772	6.247605	0.000316	3.164005	0.535997	0.006329
 670	3.3450e-01	6.6861	6.262572	0.000150	1.496489	0.253512	0.002993
 671	3.3500e-01	6.6949	6.300631	0.000381	3.805357	0.644645	0.007612
 672	3.3550e-01	6.7102	6.321157	0.000205	2.052327	0.347674	0.004105
 673	3.3600e-01	6.7175	6.364775	0.000436	4.361196	0.738807	0.008724
 674	3.3650e-01	6.7270	6.394708	0.000299	2.992977	0.507024	0.005987
 675	3.3700e-01	6.7377	6.441747	0.000470	4.703250	0.796752	0.009408
 676	3.3750e-01	6.7476	6.442602	0.000009	0.085514	0.014486	0.000171
 677	3.3800e-01	6.7590	6.496483	0.000539	5.387359	0.912643	0.010776
 678	3.3850e-01	6.7657	6.496483	0.000000	0.000000	0.000000	0.000000
 679	3.3900e-01	6.7761	6.549081	0.000526	5.259089	0.890914	0.010520
 680	3.3950e-01	6.7871	6.601251	0.000522	5.216332	0.883671	0.010434
 681	3.4000e-01	6.7984	6.609376	0.000081	0.812380	0.137621	0.001625
 682	3.4050e-01	6.8091	6.652994	0.000436	4.361196	0.738807	0.008724
 683	3.4100e-01	6.8176	6.684638	0.000316	3.164005	0.535997	0.006329
 684	3.4150e-01	6.8277	6.738091	0.000534	5.344602	0.905400	0.010691
 685	3.4200e-01	6.8375	6.750493	0.000124	1.239948	0.210053	0.002480
 686	3.4250e-01	6.8500	6.757762	0.000073	0.726866	0.123134	0.001454
 687	3.4300e-01	6.8579	6.799669	0.000419	4.190168	0.709834	0.008381
 688	3.4350e-01	6.8658	6.856116	0.000564	5.643900	0.956103	0.011289
 689	3.4400e-01	6.8774	6.874076	0.000180	1.795786	0.304214	0.003592
 690	3.4450e-01	6.8878	6.905293	0.000312	3.121248	0.528754	0.006243
 691	3.4500e-01	6.8964	6.954470	0.000492	4.917034	0.832968	0.009835
 692	3.4550e-01	6.9080	6.971147	0.000167	1.667516	0.282485	0.003335
 693	3.4600e-01	6.9171	7.005357	0.000342	3.420546	0.579456	0.006842
 694	3.4650e-01	6.9305	7.045126	0.000398	3.976384	0.673618	0.007954
 695	3.4700e-01	6.9385	7.078481	0.000334	3.335032	0.564970	0.006671
 696	3.4750e-01	6.9458	7.116540	0.000381	3.805357	0.644645	0.007612
 697	3.4800e-01	6.9583	7.144335	0.000278	2.779193	0.470808	0.005559
 698	3.4850e-01	6.9672	7.175552	0.000312	3.121248	0.528754	0.006243
 699	3.4900e-01	6.9800	7.205914	0.000304	3.035734	0.514267	0.006072
 700	3.4950e-01	6.9861	7.250814	0.000449	4.489466	0.760536	0.008980
 701	3.5000e-01	6.9983	7.243545	-0.000073	-0.726866	-0.123134	-0.001454
 702	3.5050e-01	7.0071	7.310682	0.000671	6.712821	1.137183	0.013427
 703	3.5100e-01	7.0172	7.328642	0.000180	1.795786	0.304214	0.003592
 704	3.5150e-01	7.0284	7.364562	0.000359	3.591573	0.608429	0.007184
 705	3.5200e-01	7.0389	7.391930	0.000274	2.736436	0.463565	0.005474
 706	3.5250e-01	7.0474	7.444101	0.000522	5.216332	0.883671	0.010434
 707	3.5300e-01	7.0587	7.479594	0.000355	3.548816	0.601186	0.007099
 708	3.5350e-01	7.0654	7.476600	-0.000030	-0.299298	-0.050702	-0.000599
 709	3.5400e-01	7.0770	7.529626	0.000530	5.301846	0.898157	0.010605
 710	3.5450e-01	7.0850	7.575382	0.000457	4.574980	0.775023	0.009151
 711	3.5500e-01	7.0966	7.598046	0.000227	2.266111	0.383890	0.004533
 712	3.5550e-01	7.1088	7.598474	0.000004	0.042757	0.007243	0.000086
 713	3.5600e-01	7.1164	7.674591	0.000761	7.610714	1.289290	0.015223
 714	3.5650e-01	7.1313	7.665611	-0.000090	-0.897893	-0.152107	-0.001796
 715	3.5700e-01	7.1365	7.721630	0.000560	5.601143	0.948859	0.011204
 716	3.5750e-01	7.1472	7.764392	0.000428	4.275682	0.724320	0.008553
 717	3.5800e-01	7.1585	7.806299	0.000419	4.190168	0.709834	0.008381
 718	3.5850e-01	7.1667	7.841792	0.000355	3.548816	0.601186	0.007099
 719	3.5900e-01	7.1765	7.856332	0.000145	1.453732	0.246269	0.002908
 720	3.5950e-01	7.1881	7.897811	0.000415	4.147411	0.702591	0.008296
 721	3.6000e-01	7.1967	7.914916	0.000171	1.710273	0.289728	0.003421
 722	3.6050e-01	7.2077	7.950409	0.000355	3.548816	0.601186	0.007099
 723	3.6100e-01	7.2192	7.993172	0.000428	4.275682	0.724320	0.008553
 724	3.6150e-01	7.2278	8.024816	0.000316	3.164005	0.535997	0.006329
 725	3.6200e-01	7.2369	8.044059	0.000192	1.924057	0.325944	0.003849
 726	3.6250e-01	7.2479	8.079552	0.000355	3.548816	0.601186	0.007099
 727	3.6300e-01	7.2632	8.104354	0.000248	2.479895	0.420106	0.004960
 728	3.6350e-01	7.2668	8.162939	0.000586	5.857684	0.992319	0.011717
 729	3.6400e-01	7.2736	8.183037	0.000201	2.009570	0.340430	0.004020
 730	3.6450e-01	7.2852	8.224089	0.000410	4.104655	0.695347	0.008210
 731	3.6500e-01	7.3001	8.238201	0.000141	1.410975	0.239026	0.002822
 732	3.6550e-01	7.3071	8.276260	0.000381	3.805357	0.644645	0.007612
 733	3.6600e-01	7.3193	8.319450	0.000432	4.318439	0.731563	0.008638
 734	3.6650e-01	7.3273	8.342541	0.000231	2.308868	0.391133	0.004618
 735	3.6700e-01	7.3376	8.366916	0.000244	2.437139	0.412862	0.004875
 736	3.6750e-01	7.3465	8.410962	0.000440	4.403952	0.746050	0.008809
 737	3.6800e-01	7.3566	8.452014	0.000410	4.104655	0.695347	0.008210
 738	3.6850e-01	7.3663	8.483230	0.000312	3.121248	0.528754	0.006243
 739	3.6900e-01	7.3776	8.520861	0.000376	3.762600	0.637402	0.007526
 740	3.6950e-01	7.3871	8.561058	0.000402	4.019141	0.680861	0.008039
 741	3.7000e-01	7.3969	8.570893	0.000098	0.983407	0.166594	0.001967
 742	3.7050e-01	7.4072	8.617505	0.000466	4.660493	0.789509	0.009322
 743	3.7100e-01	7.4182	8.635465	0.000180	1.795786	0.304214	0.003592
 744	3.7150e-01	7.4251	8.691911	0.000564	5.643900	0.956103	0.011289
 745	3.7200e-01	7.4365	8.714575	0.000227	2.266111	0.383890	0.004533
 746	3.7250e-01	7.4469	8.751779	0.000372	3.719843	0.630159	0.007441
 747	3.7300e-01	7.4594	8.782140	0.000304	3.035734	0.514267	0.006072
 748	3.7350e-01	7.4664	8.809936	0.000278	2.779193	0.470808	0.005559
 749	3.7400e-01	7.4756	8.853981	0.000440	4.403952	0.746050	0.008809
 750	3.7450e-01	7.4866	8.895461	0.000415	4.147411	0.702591	0.008296
 751	3.7500e-01	7.4963	8.929243	0.000338	3.377789	0.572213	0.006756
 752	3.7550e-01	7.5049	8.939506	0.000103	1.026164	0.173837	0.002053
 753	3.7600e-01	7.5177	8.955329	0.000158	1.582002	0.267998	0.003164
 754	3.7650e-01	7.5253	9.017334	0.000620	6.199739	1.050264	0.012401
 755	3.7700e-01	7.5360	9.032729	0.000154	1.539245	0.260755	0.003079
 756	3.7750e-01	7.5497	9.076774	0.000440	4.403952	0.746050	0.008809
 757	3.7800e-01	7.5568	9.121247	0.000445	4.446709	0.753293	0.008895
 758	3.7850e-01	7.5671	9.114405	-0.000068	-0.684109	-0.115891	-0.001368
 759	3.7900e-01	7.5781	9.168286	0.000539	5.387359	0.912643	0.010776
 760	3.7950e-01	7.5891	9.218318	0.000500	5.002548	0.847455	0.010006
 761	3.8000e-01	7.5984	9.243976	0.000257	2.565409	0.434592	0.005132
 762	3.8050e-01	7.6056	9.262363	0.000184	1.838543	0.311458	0.003678
 763	3.8100e-01	7.6154	9.305126	0.000428	4.275682	0.724320	0.008553
 764	3.8150e-01	7.6265	9.350454	0.000453	4.532223	0.767779	0.009066
 765	3.8200e-01	7.6373	9.356869	0.000064	0.641352	0.108648	0.001283
 766	3.8250e-01	7.6471	9.409467	0.000526	5.259089	0.890914	0.010520
 767	3.8300e-01	7.6575	9.438117	0.000286	2.864707	0.485294	0.005730
 768	3.8350e-01	7.6666	9.472755	0.000346	3.463302	0.586699	0.006928
 769	3.8400e-01	7.6770	9.500551	0.000278	2.779193	0.470808	0.005559
 770	3.8450e-01	7.6871	9.546307	0.000457	4.574980	0.775023	0.009151
 771	3.8500e-01	7.6978	9.569398	0.000231	2.308868	0.391133	0.004618
 772	3.8550e-01	7.7045	9.631404	0.000620	6.199739	1.050264	0.012401
 773	3.8600e-01	7.7161	9.641239	0.000098	0.983407	0.166594	0.001967
 774	3.8650e-01	7.7283	9.668180	0.000269	2.693680	0.456322	0.005388
 775	3.8700e-01	7.7368	9.711370	0.000432	4.318439	0.731563	0.008638
 776	3.8750e-01	7.7448	9.741304	0.000299	2.992977	0.507024	0.005987
 777	3.8800e-01	7.7570	9.785777	0.000445	4.446709	0.753293	0.008895
 778	3.8850e-01	7.7662	9.820414	0.000346	3.463302	0.586699	0.006928
 779	3.8900e-01	7.7783	9.831533	0.000111	1.111677	0.188323	0.002224
 780	3.8950e-01	7.7863	9.878999	0.000475	4.746007	0.803995	0.009493
 781	3.9000e-01	7.7966	9.898242	0.000192	1.924057	0.325944	0.003849
 782	3.9050e-01	7.8070	9.968800	0.000705	7.054875	1.195128	0.014112
 783	3.9100e-01	7.8156	9.971794	0.000030	0.299298	0.050702	0.000599
 784	3.9150e-01	7.8259	10.019260	0.000475	4.746007	0.803995	0.009493
 785	3.9200e-01	7.8363	10.054753	0.000355	3.548816	0.601186	0.007099
 786	3.9250e-01	7.8461	10.086397	0.000316	3.164005	0.535997	0.006329
 787	3.9300e-01	7.8583	10.119324	0.000329	3.292275	0.557726	0.006585
 788	3.9350e-01	7.8680	10.153535	0.000342	3.420546	0.579456	0.006842
 789	3.9400e-01	7.8757	10.184751	0.000312	3.121248	0.528754	0.006243
 790	3.9450e-01	7.8876	10.215113	0.000304	3.035734	0.514267	0.006072
 791	3.9500e-01	7.8961	10.282677	0.000676	6.755577	1.144426	0.013513
 792	3.9550e-01	7.9077	10.296789	0.000141	1.410975	0.239026	0.002822
 793	3.9600e-01	7.9175	10.321591	0.000248	2.479895	0.420106	0.004960
 794	3.9650e-01	7.9279	10.354518	0.000329	3.292275	0.557726	0.006585
 795	3.9700e-01	7.9388	10.391722	0.000372	3.719843	0.630159	0.007441
 796	3.9750e-01	7.9462	10.423794	0.000321	3.206761	0.543240	0.006414
 797	3.9800e-01	7.9560	10.463563	0.000398	3.976384	0.673618	0.007954
 798	3.9850e-01	7.9706	10.511457	0.000479	4.788764	0.811239	0.009579
 799	3.9900e-01	7.9779	10.529417	0.000180	1.795786	0.304214	0.003592
 800	3.9950e-01	7.9877	10.567476	0.000381	3.805357	0.644645	0.007612
 801	4.0000e-01	7.9987	10.593133	0.000257	2.565409	0.434592	0.005132
 802	4.0050e-01	8.0103	10.615797	0.000227	2.266111	0.383890	0.004533
 803	4.0100e-01	8.0164	10.673527	0.000577	5.772171	0.977832	0.011546
 804	4.0150e-01	8.0280	10.704316	0.000308	3.078491	0.521510	0.006158
 805	4.0200e-01	8.0371	10.735105	0.000308	3.078491	0.521510	0.006158
 806	4.0250e-01	8.0481	10.770598	0.000355	3.548816	0.601186	0.007099
 807	4.0300e-01	8.0566	10.812933	0.000423	4.232925	0.717077	0.008467
 808	4.0350e-01	8.0679	10.843722	0.000308	3.078491	0.521510	0.006158
 809	4.0400e-01	8.0765	10.883491	0.000398	3.976384	0.673618	0.007954
 810	4.0450e-01	8.0911	10.913852	0.000304	3.035734	0.514267	0.006072
 811	4.0500e-01	8.0957	10.939510	0.000257	2.565409	0.434592	0.005132
 812	4.0550e-01	8.1055	10.989542	0.000500	5.002548	0.847455	0.010006
 813	4.0600e-01	8.1171	11.010496	0.000210	2.095084	0.354917	0.004191
 814	4.0650e-01	8.1262	11.052403	0.000419	4.190168	0.709834	0.008381
 815	4.0700e-01	8.1372	11.071218	0.000188	1.881300	0.318701	0.003763
 816	4.0750e-01	8.1476	11.125099	0.000539	5.387359	0.912643	0.010776
 817	4.0800e-01	8.1586	11.162303	0.000372	3.719843	0.630159	0.007441
 818	4.0850e-01	8.1683	11.199078	0.000368	3.677086	0.622915	0.007355
 819	4.0900e-01	8.1793	11.226874	0.000278	2.779193	0.470808	0.005559
 820	4.0950e-01	8.1848	11.269209	0.000423	4.232925	0.717077	0.008467
 821	4.1000e-01	8.1995	11.295294	0.000261	2.608166	0.441835	0.005217
 822	4.1050e-01	8.2089	11.351741	0.000564	5.643900	0.956103	0.011289
 823	4.1100e-01	8.2166	11.365852	0.000141	1.410975	0.239026	0.002822
 824	4.1150e-01	8.2300	11.400917	0.000351	3.506059	0.593942	0.007013
 825	4.1200e-01	8.2385	11.454371	0.000534	5.344602	0.905400	0.010691
 826	4.1250e-01	8.2471	11.479600	0.000252	2.522652	0.427349	0.005046
 827	4.1300e-01	8.2574	11.522791	0.000432	4.318439	0.731563	0.008638
 828	4.1350e-01	8.2635	11.550586	0.000278	2.779193	0.470808	0.005559
 829	4.1400e-01	8.2776	11.581375	0.000308	3.078491	0.521510	0.006158
 830	4.1450e-01	8.2874	11.611737	0.000304	3.035734	0.514267	0.006072
 831	4.1500e-01	8.2980	11.679729	0.000680	6.798334	1.151669	0.013598
 832	4.1550e-01	8.3057	11.704104	0.000244	2.437139	0.412862	0.004875
 833	4.1600e-01	8.3179	11.730617	0.000265	2.650923	0.449078	0.005303
 834	4.1650e-01	8.3273	11.780221	0.000496	4.959791	0.840211	0.009921
 835	4.1700e-01	8.3395	11.798609	0.000184	1.838543	0.311458	0.003678
 836	4.1750e-01	8.3472	11.831964	0.000334	3.335032	0.564970	0.006671
 837	4.1800e-01	8.3563	11.870878	0.000389	3.890871	0.659131	0.007783
 838	4.1850e-01	8.3679	11.902522	0.000316	3.164005	0.535997	0.006329
 839	4.1900e-01	8.3746	11.955975	0.000534	5.344602	0.905400	0.010691
 840	4.1950e-01	8.3876	11.986764	0.000308	3.078491	0.521510	0.006158
 841	4.2000e-01	8.4021	12.017981	0.000312	3.121248	0.528754	0.006243
 842	4.2050e-01	8.4076	12.060743	0.000428	4.275682	0.724320	0.008553
 843	4.2100e-01	8.4186	12.101368	0.000406	4.061898	0.688104	0.008125
 844	4.2150e-01	8.4302	12.136005	0.000346	3.463302	0.586699	0.006928
 845	4.2200e-01	8.4381	12.173636	0.000376	3.762600	0.637402	0.007526
 846	4.2250e-01	8.4473	12.201860	0.000282	2.821950	0.478051	0.005645
 847	4.2300e-01	8.4564	12.248898	0.000470	4.703250	0.796752	0.009408
 848	4.2350e-01	8.4705	12.268142	0.000192	1.924057	0.325944	0.003849
 849	4.2400e-01	8.4766	12.306200	0.000381	3.805357	0.644645	0.007612
 850	4.2450e-01	8.4882	12.363074	0.000569	5.686657	0.963346	0.011375
 851	4.2500e-01	8.4995	12.387877	0.000248	2.479895	0.420106	0.004960
 852	4.2550e-01	8.5065	12.422942	0.000351	3.506059	0.593942	0.007013
 853	4.2600e-01	8.5175	12.455441	0.000325	3.249518	0.550483	0.006500
 854	4.2650e-01	8.5272	12.502053	0.000466	4.660493	0.789509	0.009322
 855	4.2700e-01	8.5382	12.531131	0.000291	2.907464	0.492538	0.005816
 856	4.2750e-01	8.5468	12.572611	0.000415	4.147411	0.702591	0.008296
 857	4.2800e-01	8.5559	12.601689	0.000291	2.907464	0.492538	0.005816
 858	4.2850e-01	8.5687	12.661557	0.000599	5.985955	1.014048	0.011974
 859	4.2900e-01	8.5803	12.673958	0.000124	1.239948	0.210053	0.002480
 860	4.2950e-01	8.5895	12.716293	0.000423	4.232925	0.717077	0.008467
 861	4.3000e-01	8.5986	12.750930	0.000346	3.463302	0.586699	0.006928
 862	4.3050e-01	8.6078	12.791555	0.000406	4.061898	0.688104	0.008125
 863	4.3100e-01	8.6159	12.827048	0.000355	3.548816	0.601186	0.007099
 864	4.3150e-01	8.6261	12.869810	0.000428	4.275682	0.724320	0.008553
 865	4.3200e-01	8.6378	12.918132	0.000483	4.831521	0.818482	0.009664
 866	4.3250e-01	8.6481	12.944217	0.000261	2.608166	0.441835	0.005217
 867	4.3300e-01	8.6578	13.003229	0.000590	5.900441	0.999562	0.011802
 868	4.3350e-01	8.6688	13.033591	0.000304	3.035734	0.514267	0.006072
 869	4.3400e-01	8.6768	13.049413	0.000158	1.582002	0.267998	0.003164
 870	4.3450e-01	8.6868	13.108853	0.000594	5.943198	1.006805	0.011888
 871	4.3500e-01	8.6975	13.146911	0.000381	3.805357	0.644645	0.007612
 872	4.3550e-01	8.7067	13.194378	0.000475	4.746007	0.803995	0.009493
 873	4.3600e-01	8.7170	13.216614	0.000222	2.223355	0.376646	0.004447
 874	4.3650e-01	8.7292	13.258949	0.000423	4.232925	0.717077	0.008467
 875	4.3700e-01	8.7366	13.283324	0.000244	2.437139	0.412862	0.004875
 876	4.3750e-01	8.7476	13.329080	0.000457	4.574980	0.775023	0.009151
 877	4.3800e-01	8.7579	13.369277	0.000402	4.019141	0.680861	0.008039
 878	4.3850e-01	8.7656	13.405197	0.000359	3.591573	0.608429	0.007184
 879	4.3900e-01	8.7784	13.457367	0.000522	5.216332	0.883671	0.010434
 880	4.3950e-01	8.7860	13.492005	0.000346	3.463302	0.586699	0.006928
 881	4.4000e-01	8.7958	13.533912	0.000419	4.190168	0.709834	0.008381
 882	4.4050e-01	8.8086	13.550162	0.000162	1.624759	0.275242	0.003250
 883	4.4100e-01	8.8173	13.606609	0.000564	5.643900	0.956103	0.011289
 884	4.4150e-01	8.8306	13.616444	0.000098	0.983407	0.166594	0.001967
 885	4.4200e-01	8.8367	13.683154	0.000667	6.670064	1.129939	0.013342
 886	4.4250e-01	8.8458	13.713087	0.000299	2.992977	0.507024	0.005987
 887	4.4300e-01	8.8568	13.754139	0.000410	4.104655	0.695347	0.008210
 888	4.4350e-01	8.8654	13.805454	0.000513	5.130818	0.869184	0.010263
 889	4.4400e-01	8.8766	13.846079	0.000406	4.061898	0.688104	0.008125
 890	4.4450e-01	8.8861	13.882855	0.000368	3.677086	0.622915	0.007355
 891	4.4500e-01	8.8968	13.908512	0.000257	2.565409	0.434592	0.005132
 892	4.4550e-01	8.9087	13.933314	0.000248	2.479895	0.420106	0.004960
 893	4.4600e-01	8.9160	13.975649	0.000423	4.232925	0.717077	0.008467
 894	4.4650e-01	8.9264	14.050484	0.000748	7.482443	1.267560	0.014967
 895	4.4700e-01	8.9363	14.074858	0.000244	2.437139	0.412862	0.004875
 896	4.4750e-01	8.9471	14.121897	0.000470	4.703250	0.796752	0.009408
 897	4.4800e-01	8.9563	14.168081	0.000462	4.617736	0.782266	0.009237
 898	4.4850e-01	8.9667	14.197159	0.000291	2.907464	0.492538	0.005816
 899	4.4900e-01	8.9758	14.242487	0.000453	4.532223	0.767779	0.009066
 900	4.4950e-01	8.9862	14.280118	0.000376	3.762600	0.637402	0.007526
 901	4.5000e-01	8.9978	14.336993	0.000569	5.686657	0.963346	0.011375
 902	4.5050e-01	9.0045	14.372058	0.000351	3.506059	0.593942	0.007013
 903	4.5100e-01	9.0143	14.417386	0.000453	4.532223	0.767779	0.009066
 904	4.5150e-01	9.0259	14.427649	0.000103	1.026164	0.173837	0.002053
 905	4.5200e-01	9.0366	14.486234	0.000586	5.857684	0.992319	0.011717
 906	4.5250e-01	9.0479	14.529424	0.000432	4.318439	0.731563	0.008638
 907	4.5300e-01	9.0576	14.567483	0.000381	3.805357	0.644645	0.007612
 908	4.5350e-01	9.0674	14.591430	0.000239	2.394382	0.405619	0.004789
 909	4.5400e-01	9.0765	14.623929	0.000325	3.249518	0.550483	0.006500
 910	4.5450e-01	9.0887	14.663271	0.000393	3.933627	0.666375	0.007868
 911	4.5500e-01	9.0979	14.731691	0.000684	6.841091	1.158912	0.013684
 912	4.5550e-01	9.1052	14.765473	0.000338	3.377789	0.572213	0.006756
 913	4.5600e-01	9.1174	14.821064	0.000556	5.558386	0.941616	0.011118
 914	4.5650e-01	9.1321	14.846294	0.000252	2.522652	0.427349	0.005046
 915	4.5700e-01	9.1400	14.884353	0.000381	3.805357	0.644645	0.007612
 916	4.5750e-01	9.1467	14.950207	0.000658	6.584550	1.115453	0.013171
 917	4.5800e-01	9.1589	14.948924	-0.000013	-0.128270	-0.021730	-0.000257
 918	4.5850e-01	9.1650	15.018627	0.000697	6.969361	1.180642	0.013941
 919	4.5900e-01	9.1766	15.059252	0.000406	4.061898	0.688104	0.008125
 920	4.5950e-01	9.1870	15.113132	0.000539	5.387359	0.912643	0.010776
 921	4.6000e-01	9.1974	15.140928	0.000278	2.779193	0.470808	0.005559
 922	4.6050e-01	9.2090	15.191816	0.000509	5.088061	0.861941	0.010177
 923	4.6100e-01	9.2163	15.211486	0.000197	1.966814	0.333187	0.003934
 924	4.6150e-01	9.2270	15.272209	0.000607	6.071468	1.028535	0.012145
 925	4.6200e-01	9.2395	15.304709	0.000325	3.249518	0.550483	0.006500
 926	4.6250e-01	9.2456	15.338491	0.000338	3.377789	0.572213	0.006756
 927	4.6300e-01	9.2548	15.398786	0.000603	6.028711	1.021291	0.012059
 928	4.6350e-01	9.2670	15.452239	0.000534	5.344602	0.905400	0.010691
 929	4.6400e-01	9.2786	15.479607	0.000274	2.736436	0.463565	0.005474
 930	4.6450e-01	9.2850	15.530495	0.000509	5.088061	0.861941	0.010177
 931	4.6500e-01	9.2975	15.562139	0.000316	3.164005	0.535997	0.006329
 932	4.6550e-01	9.3079	15.616875	0.000547	5.472873	0.927130	0.010947
 933	4.6600e-01	9.3164	15.652796	0.000359	3.591573	0.608429	0.007184
 934	4.6650e-01	9.3250	15.706249	0.000534	5.344602	0.905400	0.010691
 935	4.6700e-01	9.3365	15.747301	0.000410	4.104655	0.695347	0.008210
 936	4.6750e-01	9.3457	15.794767	0.000475	4.746007	0.803995	0.009493
 937	4.6800e-01	9.3597	15.832398	0.000376	3.762600	0.637402	0.007526
 938	4.6850e-01	9.3671	15.874733	0.000423	4.232925	0.717077	0.008467
 939	4.6900e-01	9.3750	15.911936	0.000372	3.719843	0.630159	0.007441
 940	4.6950e-01	9.3869	15.956409	0.000445	4.446709	0.753293	0.008895
 941	4.7000e-01	9.3958	16.014139	0.000577	5.772171	0.977832	0.011546
 942	4.7050e-01	9.4080	16.044500	0.000304	3.035734	0.514267	0.006072
 943	4.7100e-01	9.4177	16.091967	0.000475	4.746007	0.803995	0.009493
 944	4.7150e-01	9.4299	16.148413	0.000564	5.643900	0.956103	0.011289
 945	4.7200e-01	9.4379	16.168084	0.000197	1.966814	0.333187	0.003934
 946	4.7250e-01	9.4479	16.230945	0.000629	6.285252	1.064751	0.012572
 947	4.7300e-01	9.4568	16.268576	0.000376	3.762600	0.637402	0.007526
 948	4.7350e-01	9.4653	16.308773	0.000402	4.019141	0.680861	0.008039
 949	4.7400e-01	9.4812	16.360088	0.000513	5.130818	0.869184	0.010263
 950	4.7450e-01	9.4849	16.408837	0.000487	4.874277	0.825725	0.009750
 951	4.7500e-01	9.4971	16.436205	0.000274	2.736436	0.463565	0.005474
 952	4.7550e-01	9.5074	16.493507	0.000573	5.729414	0.970589	0.011460
 953	4.7600e-01	9.5172	16.520020	0.000265	2.650923	0.449078	0.005303
 954	4.7650e-01	9.5258	16.582881	0.000629	6.285252	1.064751	0.012572
 955	4.7700e-01	9.5383	16.625215	0.000423	4.232925	0.717077	0.008467
 956	4.7750e-01	9.5471	16.655577	0.000304	3.035734	0.514267	0.006072
 957	4.7800e-01	9.5578	16.723997	0.000684	6.841091	1.158912	0.013684
 958	4.7850e-01	9.5679	16.747516	0.000235	2.351625	0.398376	0.004704
 959	4.7900e-01	9.5764	16.809950	0.000624	6.242496	1.057507	0.012487
 960	4.7950e-01	9.5874	16.865541	0.000556	5.558386	0.941616	0.011118
 961	4.8000e-01	9.5953	16.889488	0.000239	2.394382	0.405619	0.004789
 962	4.8050e-01	9.6057	16.952776	0.000633	6.328009	1.071994	0.012658
 963	4.8100e-01	9.6155	17.006657	0.000539	5.387359	0.912643	0.010776
 964	4.8150e-01	9.6259	17.017775	0.000111	1.111677	0.188323	0.002224
 965	4.8200e-01	9.6387	17.075077	0.000573	5.729414	0.970589	0.011460
 966	4.8250e-01	9.6472	17.129386	0.000543	5.430116	0.919887	0.010862
 967	4.8300e-01	9.6570	17.166589	0.000372	3.719843	0.630159	0.007441
 968	4.8350e-01	9.6643	17.233726	0.000671	6.712821	1.137183	0.013427
 969	4.8400e-01	9.6771	17.279910	0.000462	4.617736	0.782266	0.009237
 970	4.8450e-01	9.6875	17.323955	0.000440	4.403952	0.746050	0.008809
 971	4.8500e-01	9.6936	17.369283	0.000453	4.532223	0.767779	0.009066
 972	4.8550e-01	9.7064	17.406059	0.000368	3.677086	0.622915	0.007355
 973	4.8600e-01	9.7137	17.449677	0.000436	4.361196	0.738807	0.008724
 974	4.8650e-01	9.7266	17.497999	0.000483	4.831521	0.818482	0.009664
 975	4.8700e-01	9.7375	17.543755	0.000457	4.574980	0.775023	0.009151
 976	4.8750e-01	9.7461	17.596352	0.000526	5.259089	0.890914	0.010520
 977	4.8800e-01	9.7565	17.641681	0.000453	4.532223	0.767779	0.009066
 978	4.8850e-01	9.7681	17.702831	0.000611	6.114225	1.035778	0.012230
 979	4.8900e-01	9.7754	17.721647	0.000188	1.881300	0.318701	0.003763
 980	4.8950e-01	9.7833	17.772106	0.000505	5.045305	0.854698	0.010092
 981	4.9000e-01	9.7961	17.828553	0.000564	5.643900	0.956103	0.011289
 982	4.9050e-01	9.8071	17.865329	0.000368	3.677086	0.622915	0.007355
 983	4.9100e-01	9.8169	17.927762	0.000624	6.242496	1.057507	0.012487
 984	4.9150e-01	9.8260	17.978222	0.000505	5.045305	0.854698	0.010092
 985	4.9200e-01	9.8364	18.032958	0.000547	5.472873	0.927130	0.010947
 986	4.9250e-01	9.8450	18.062464	0.000295	2.950220	0.499781	0.005901
 987	4.9300e-01	9.8560	18.123614	0.000611	6.114225	1.035778	0.012230
 988	4.9350e-01	9.8645	18.174929	0.000513	5.130818	0.869184	0.010263
 989	4.9400e-01	9.8761	18.195455	0.000205	2.052327	0.347674	0.004105
 990	4.9450e-01	9.8853	18.267724	0.000723	7.225902	1.224101	0.014454
 991	4.9500e-01	9.8999	18.316901	0.000492	4.917034	0.832968	0.009835
 992	4.9550e-01	9.9060	18.359664	0.000428	4.275682	0.724320	0.008553
 993	4.9600e-01	9.9188	18.420814	0.000611	6.114225	1.035778	0.012230
 994	4.9650e-01	9.9261	18.454596	0.000338	3.377789	0.572213	0.006756
 995	4.9700e-01	9.9408	18.515319	0.000607	6.071468	1.028535	0.012145
 996	4.9750e-01	9.9451	18.554233	0.000389	3.890871	0.659131	0.007783
 997	4.9800e-01	9.9548	18.634199	0.000800	7.995525	1.354479	0.015993
 998	4.9850e-01	9.9670	18.650449	0.000162	1.624759	0.275242	0.003250
 999	4.9900e-01	9.9786	18.716303	0.000658	6.584550	1.115453	0.013171
1000	4.9950e-01	9.9878	18.763769	0.000475	4.746007	0.803995	0.009493
1001	5.0000e-01	9.9976	18.781730	0.000180	1.795786	0.304214	0.003592
1002	5.0050e-01	9.9854	18.800545	-0.000188	-1.881300	-0.318701	0.003763
1003	5.0100e-01	9.9762	18.797979	0.000026	0.256541	0.043459	-0.000513
1004	5.0150e-01	9.9664	18.787289	0.000107	1.068920	0.181080	-0.002138
1005	5.0200e-01	9.9567	18.800118	-0.000128	-1.282705	-0.217296	0.002566
1006	5.0250e-01	9.9463	18.812091	-0.000120	-1.197191	-0.202810	0.002395
1007	5.0300e-01	9.9371	18.800118	0.000120	1.197191	0.202810	-0.002395
1008	5.0350e-01	9.9243	18.806532	-0.000064	-0.641352	-0.108648	0.001283
1009	5.0400e-01	9.9158	18.796697	0.000098	0.983407	0.166594	-0.001967
1010	5.0450e-01	9.9048	18.805249	-0.000086	-0.855136	-0.144864	0.001711
1011	5.0500e-01	9.8950	18.799262	0.000060	0.598595	0.101405	-0.001197
1012	5.0550e-01	9.8846	18.797124	0.000021	0.213784	0.036216	-0.000428
1013	5.0600e-01	9.8749	18.786006	0.000111	1.111677	0.188323	-0.002224
1014	5.0650e-01	9.8657	18.776598	0.000094	0.940650	0.159350	-0.001882
1015	5.0700e-01	9.8566	18.781730	-0.000051	-0.513082	-0.086918	0.001026
1016	5.0750e-01	9.8462	18.786006	-0.000043	-0.427568	-0.072432	0.000855
1017	5.0800e-01	9.8364	18.776598	0.000094	0.940650	0.159350	-0.001882
1018	5.0850e-01	9.8260	18.769756	0.000068	0.684109	0.115891	-0.001368
1019	5.0900e-01	9.8175	18.786006	-0.000162	-1.624759	-0.275242	0.003250
1020	5.0950e-01	9.8038	18.768473	0.000175	1.753030	0.296971	-0.003507
1021	5.1000e-01	9.7961	18.770184	-0.000017	-0.171027	-0.028973	0.000342
1022	5.1050e-01	9.7870	18.768473	0.000017	0.171027	0.028973	-0.000342
1023	5.1100e-01	9.7778	18.738112	0.000304	3.035734	0.514267	-0.006072
1024	5.1150e-01	9.7650	18.731270	0.000068	0.684109	0.115891	-0.001368
1025	5.1200e-01	9.7577	18.735119	-0.000038	-0.384811	-0.065189	0.000770
1026	5.1250e-01	9.7461	18.719724	0.000154	1.539245	0.260755	-0.003079
1027	5.1300e-01	9.7351	18.719296	0.000004	0.042757	0.007243	-0.000086
1028	5.1350e-01	9.7241	18.716731	0.000026	0.256541	0.043459	-0.000513
1029	5.1400e-01	9.7162	18.715448	0.000013	0.128270	0.021730	-0.000257
1030	5.1450e-01	9.7052	18.682093	0.000334	3.335032	0.564970	-0.006671
1031	5.1500e-01	9.6960	18.703902	-0.000218	-2.180598	-0.369403	0.004362
1032	5.1550e-01	9.6875	18.659001	0.000449	4.489466	0.760536	-0.008980
1033	5.1600e-01	9.6771	18.660712	-0.000017	-0.171027	-0.028973	0.000342
1034	5.1650e-01	9.6649	18.637620	0.000231	2.308868	0.391133	-0.004618
1035	5.1700e-01	9.6539	18.643179	-0.000056	-0.555839	-0.094162	0.001112
1036	5.1750e-01	9.6442	18.622225	0.000210	2.095084	0.354917	-0.004191
1037	5.1800e-01	9.6356	18.616239	0.000060	0.598595	0.101405	-0.001197
1038	5.1850e-01	9.6249	18.607686	0.000086	0.855136	0.144864	-0.001711
1039	5.1900e-01	9.6167	18.587160	0.000205	2.052327	0.347674	-0.004105
1040	5.1950e-01	9.6063	18.580318	0.000068	0.684109	0.115891	-0.001368
1041	5.2000e-01	9.5996	18.575187	0.000051	0.513082	0.086918	-0.001026
1042	5.2050e-01	9.5862	18.558509	0.000167	1.667516	0.282485	-0.003335
1043	5.2100e-01	9.5755	18.540121	0.000184	1.838543	0.311458	-0.003678
1044	5.2150e-01	9.5667	18.541832	-0.000017	-0.171027	-0.028973	0.000342
1045	5.2200e-01	9.5581	18.526010	0.000158	1.582002	0.267998	-0.003164
1046	5.2250e-01	9.5477	18.508905	0.000171	1.710273	0.289728	-0.003421
1047	5.2300e-01	9.5361	18.489662	0.000192	1.924057	0.325944	-0.003849
1048	5.2350e-01	9.5291	18.484530	0.000051	0.513082	0.086918	-0.001026
1049	5.2400e-01	9.5160	18.471701	0.000128	1.282705	0.217296	-0.002566
1050	5.2450e-01	9.5050	18.465715	0.000060	0.598595	0.101405	-0.001197
1051	5.2500e-01	9.4958	18.436636	0.000291	2.907464	0.492538	-0.005816
1052	5.2550e-01	9.4858	18.415682	0.000210	2.095084	0.354917	-0.004191
1053	5.2600e-01	9.4788	18.407558	0.000081	0.812380	0.137621	-0.001625
1054	5.2650e-01	9.4672	18.406702	0.000009	0.085514	0.014486	-0.000171
1055	5.2700e-01	9.4543	18.395156	0.000115	1.154434	0.195566	-0.002309
1056	5.2750e-01	9.4427	18.382755	0.000124	1.239948	0.210053	-0.002480
1057	5.2800e-01	9.4373	18.354104	0.000286	2.864707	0.485294	-0.005730
1058	5.2850e-01	9.4284	18.346835	0.000073	0.726866	0.123134	-0.001454
1059	5.2900e-01	9.4177	18.310914	0.000359	3.591573	0.608429	-0.007184
1060	5.2950e-01	9.4080	18.315191	-0.000043	-0.427568	-0.072432	0.000855
1061	5.3000e-01	9.3979	18.270290	0.000449	4.489466	0.760536	-0.008980
1062	5.3050e-01	9.3872	18.276277	-0.000060	-0.598595	-0.101405	0.001197
1063	5.3100e-01	9.3774	18.261310	0.000150	1.496489	0.253512	-0.002993
1064	5.3150e-01	9.3665	18.224962	0.000363	3.634330	0.615672	-0.007270
1065	5.3200e-01	9.3549	18.222823	0.000021	0.213784	0.036216	-0.000428
1066	5.3250e-01	9.3451	18.216837	0.000060	0.598595	0.101405	-0.001197
1067	5.3300e-01	9.3362	18.195883	0.000210	2.095084	0.354917	-0.004191
1068	5.3350e-01	9.3250	18.184765	0.000111	1.111677	0.188323	-0.002224
1069	5.3400e-01	9.3140	18.170653	0.000141	1.410975	0.239026	-0.002822
1070	5.3450e-01	9.3060	18.130456	0.000402	4.019141	0.680861	-0.008039
1071	5.3500e-01	9.2950	18.141147	-0.000107	-1.068920	-0.181080	0.002138
1072	5.3550e-01	9.2871	18.105227	0.000359	3.591573	0.608429	-0.007184
1073	5.3600e-01	9.2773	18.094108	0.000111	1.111677	0.188323	-0.002224
1074	5.3650e-01	9.2651	18.089404	0.000047	0.470325	0.079675	-0.000941
1075	5.3700e-01	9.2566	18.059471	0.000299	2.992977	0.507024	-0.005987
1076	5.3750e-01	9.2468	18.051773	0.000077	0.769623	0.130378	-0.001539
1077	5.3800e-01	9.2365	18.027826	0.000239	2.394382	0.405619	-0.004789
1078	5.3850e-01	9.2261	17.997465	0.000304	3.035734	0.514267	-0.006072
1079	5.3900e-01	9.2169	17.986774	0.000107	1.068920	0.181080	-0.002138
1080	5.3950e-01	9.2065	17.964965	0.000218	2.180598	0.369403	-0.004362
1081	5.4000e-01	9.1977	17.952564	0.000124	1.239948	0.210053	-0.002480
1082	5.4050e-01	9.1873	17.938880	0.000137	1.368218	0.231782	-0.002737
1083	5.4100e-01	9.1760	17.918354	0.000205	2.052327	0.347674	-0.004105
1084	5.4150e-01	9.1669	17.888848	0.000295	2.950220	0.499781	-0.005901
1085	5.4200e-01	9.1553	17.896545	-0.000077	-0.769623	-0.130378	0.001539
1086	5.4250e-01	9.1467	17.845230	0.000513	5.130818	0.869184	-0.010263
1087	5.4300e-01	9.1357	17.846513	-0.000013	-0.128270	-0.021730	0.000257
1088	5.4350e-01	9.1278	17.824704	0.000218	2.180598	0.369403	-0.004362
1089	5.4400e-01	9.1150	17.796053	0.000286	2.864707	0.485294	-0.005730
1090	5.4450e-01	9.1058	17.793915	0.000021	0.213784	0.036216	-0.000428
1091	5.4500e-01	9.0985	17.766975	0.000269	2.693680	0.456322	-0.005388
1092	5.4550e-01	9.0869	17.742173	0.000248	2.479895	0.420106	-0.004960
1093	5.4600e-01	9.0778	17.736614	0.000056	0.555839	0.094162	-0.001112
1094	5.4650e-01	9.0649	17.717798	0.000188	1.881300	0.318701	-0.003763
1095	5.4700e-01	9.0546	17.709673	0.000081	0.812380	0.137621	-0.001625
1096	5.4750e-01	9.0479	17.669049	0.000406	4.061898	0.688104	-0.008125
1097	5.4800e-01	9.0363	17.656220	0.000128	1.282705	0.217296	-0.002566
1098	5.4850e-01	9.0265	17.623720	0.000325	3.249518	0.550483	-0.006500
1099	5.4900e-01	9.0155	17.610464	0.000133	1.325461	0.224539	-0.002651
1100	5.4950e-01	9.0070	17.579675	0.000308	3.078491	0.521510	-0.006158
1101	5.5000e-01	8.9966	17.576682	0.000030	0.299298	0.050702	-0.000599
1102	5.5050e-01	8.9856	17.533492	0.000432	4.318439	0.731563	-0.008638
1103	5.5100e-01	8.9749	17.549741	-0.000162	-1.624759	-0.275242	0.003250
1104	5.5150e-01	8.9667	17.510400	0.000393	3.933627	0.666375	-0.007868
1105	5.5200e-01	8.9581	17.494150	0.000162	1.624759	0.275242	-0.003250
1106	5.5250e-01	8.9456	17.472769	0.000214	2.137841	0.362160	-0.004276
1107	5.5300e-01	8.9375	17.454808	0.000180	1.795786	0.304214	-0.003592
1108	5.5350e-01	8.9252	17.432144	0.000227	2.266111	0.383890	-0.004533
1109	5.5400e-01	8.9160	17.419316	0.000128	1.282705	0.217296	-0.002566
1110	5.5450e-01	8.9041	17.393658	0.000257	2.565409	0.434592	-0.005132
1111	5.5500e-01	8.8965	17.376981	0.000167	1.667516	0.282485	-0.003335
1112	5.5550e-01	8.8855	17.333363	0.000436	4.361196	0.738807	-0.008724
1113	5.5600e-01	8.8751	17.332935	0.000004	0.042757	0.007243	-0.000086
1114	5.5650e-01	8.8678	17.297442	0.000355	3.548816	0.601186	-0.007099
1115	5.5700e-01	8.8574	17.268791	0.000286	2.864707	0.485294	-0.005730
1116	5.5750e-01	8.8464	17.269647	-0.000009	-0.085514	-0.014486	0.000171
1117	5.5800e-01	8.8336	17.243989	0.000257	2.565409	0.434592	-0.005132
1118	5.5850e-01	8.8257	17.211062	0.000329	3.292275	0.557726	-0.006585
1119	5.5900e-01	8.8147	17.223891	-0.000128	-1.282705	-0.217296	0.002566
1120	5.5950e-01	8.8043	17.156326	0.000676	6.755577	1.144426	-0.013513
1121	5.6000e-01	8.7964	17.142214	0.000141	1.410975	0.239026	-0.002822
1122	5.6050e-01	8.7866	17.130669	0.000115	1.154434	0.195566	-0.002309
1123	5.6100e-01	8.7769	17.102873	0.000278	2.779193	0.470808	-0.005559
1124	5.6150e-01	8.7686	17.082347	0.000205	2.052327	0.347674	-0.004105
1125	5.6200e-01	8.7561	17.080209	0.000021	0.213784	0.036216	-0.000428
1126	5.6250e-01	8.7445	17.052413	0.000278	2.779193	0.470808	-0.005559
1127	5.6300e-01	8.7384	17.009651	0.000428	4.275682	0.724320	-0.008553
1128	5.6350e-01	8.7286	17.004519	0.000051	0.513082	0.086918	-0.001026
1129	5.6400e-01	8.7180	16.989552	0.000150	1.496489	0.253512	-0.002993
1130	5.6450e-01	8.7091	16.953632	0.000359	3.591573	0.608429	-0.007184
1131	5.6500e-01	8.6963	16.938237	0.000154	1.539245	0.260755	-0.003079
1132	5.6550e-01	8.6877	16.903599	0.000346	3.463302	0.586699	-0.006928
1133	5.6600e-01	8.6786	16.900178	0.000034	0.342055	0.057946	-0.000684
1134	5.6650e-01	8.6646	16.868962	0.000312	3.121248	0.528754	-0.006243
1135	5.6700e-01	8.6575	16.862547	0.000064	0.641352	0.108648	-0.001283
1136	5.6750e-01	8.6456	16.818930	0.000436	4.361196	0.738807	-0.008724
1137	5.6800e-01	8.6365	16.795410	0.000235	2.351625	0.398376	-0.004704
1138	5.6850e-01	8.6255	16.786858	0.000086	0.855136	0.144864	-0.001711
1139	5.6900e-01	8.6179	16.753075	0.000338	3.377789	0.572213	-0.006756
1140	5.6950e-01	8.6084	16.737253	0.000158	1.582002	0.267998	-0.003164
1141	5.7000e-01	8.5974	16.725280	0.000120	1.197191	0.202810	-0.002395
1142	5.7050e-01	8.5876	16.700905	0.000244	2.437139	0.412862	-0.004875
1143	5.7100e-01	8.5754	16.675248	0.000257	2.565409	0.434592	-0.005132
1144	5.7150e-01	8.5663	16.639755	0.000355	3.548816	0.601186	-0.007099
1145	5.7200e-01	8.5547	16.631202	0.000086	0.855136	0.144864	-0.001711
1146	5.7250e-01	8.5443	16.614097	0.000171	1.710273	0.289728	-0.003421
1147	5.7300e-01	8.5355	16.596565	0.000175	1.753030	0.296971	-0.003507
1148	5.7350e-01	8.5260	16.554657	0.000419	4.190168	0.709834	-0.008381
1149	5.7400e-01	8.5205	16.503342	0.000513	5.130818	0.869184	-0.010263
1150	5.7450e-01	8.5052	16.519592	-0.000162	-1.624759	-0.275242	0.003250
1151	5.7500e-01	8.4940	16.481533	0.000381	3.805357	0.644645	-0.007612
1152	5.7550e-01	8.4857	16.474691	0.000068	0.684109	0.115891	-0.001368
1153	5.7600e-01	8.4747	16.445613	0.000291	2.907464	0.492538	-0.005816
1154	5.7650e-01	8.4650	16.426797	0.000188	1.881300	0.318701	-0.003763
1155	5.7700e-01	8.4552	16.384890	0.000419	4.190168	0.709834	-0.008381
1156	5.7750e-01	8.4473	16.391304	-0.000064	-0.641352	-0.108648	0.001283
1157	5.7800e-01	8.4344	16.352391	0.000389	3.890871	0.659131	-0.007783
1158	5.7850e-01	8.4253	16.344266	0.000081	0.812380	0.137621	-0.001625
1159	5.7900e-01	8.4161	16.291668	0.000526	5.259089	0.890914	-0.010520
1160	5.7950e-01	8.4027	16.276273	0.000154	1.539245	0.260755	-0.003079
1161	5.8000e-01	8.3948	16.260023	0.000162	1.624759	0.275242	-0.003250
1162	5.8050e-01	8.3862	16.239497	0.000205	2.052327	0.347674	-0.004105
1163	5.8100e-01	8.3752	16.207853	0.000316	3.164005	0.535997	-0.006329
1164	5.8150e-01	8.3643	16.183051	0.000248	2.479895	0.420106	-0.004960
1165	5.8200e-01	8.3551	16.156966	0.000261	2.608166	0.441835	-0.005217
1166	5.8250e-01	8.3441	16.153117	0.000038	0.384811	0.065189	-0.000770
1167	5.8300e-01	8.3344	16.124039	0.000291	2.907464	0.492538	-0.005816
1168	5.8350e-01	8.3240	16.083842	0.000402	4.019141	0.680861	-0.008039
1169	5.8400e-01	8.3179	16.060750	0.000231	2.308868	0.391133	-0.004618
1170	5.8450e-01	8.3075	16.046211	0.000145	1.453732	0.246269	-0.002908
1171	5.8500e-01	8.2953	16.038514	0.000077	0.769623	0.130378	-0.001539
1172	5.8550e-01	8.2849	15.999172	0.000393	3.933627	0.666375	-0.007868
1173	5.8600e-01	8.2764	15.964107	0.000351	3.506059	0.593942	-0.007013
1174	5.8650e-01	8.2669	15.950423	0.000137	1.368218	0.231782	-0.002737
1175	5.8700e-01	8.2593	15.927331	0.000231	2.308868	0.391133	-0.004618
1176	5.8750e-01	8.2455	15.905522	0.000218	2.180598	0.369403	-0.004362
1177	5.8800e-01	8.2367	15.873023	0.000325	3.249518	0.550483	-0.006500
1178	5.8850e-01	8.2272	15.852497	0.000205	2.052327	0.347674	-0.004105
1179	5.8900e-01	8.2141	15.825129	0.000274	2.736436	0.463565	-0.005474
1180	5.8950e-01	8.2068	15.793057	0.000321	3.206761	0.543240	-0.006414
1181	5.9000e-01	8.1970	15.781083	0.000120	1.197191	0.202810	-0.002395
1182	5.9050e-01	8.1851	15.783221	-0.000021	-0.213784	-0.036216	0.000428
1183	5.9100e-01	8.1757	15.739176	0.000440	4.403952	0.746050	-0.008809
1184	5.9150e-01	8.1665	15.696413	0.000428	4.275682	0.724320	-0.008553
1185	5.9200e-01	8.1555	15.682302	0.000141	1.410975	0.239026	-0.002822
1186	5.9250e-01	8.1482	15.657927	0.000244	2.437139	0.412862	-0.004875
1187	5.9300e-01	8.1363	15.647664	0.000103	1.026164	0.173837	-0.002053
1188	5.9350e-01	8.1256	15.619013	0.000286	2.864707	0.485294	-0.005730
1189	5.9400e-01	8.1165	15.589507	0.000295	2.950220	0.499781	-0.005901
1190	5.9450e-01	8.1042	15.569836	0.000197	1.966814	0.333187	-0.003934
1191	5.9500e-01	8.0981	15.541185	0.000286	2.864707	0.485294	-0.005730
1192	5.9550e-01	8.0859	15.489015	0.000522	5.216332	0.883671	-0.010434
1193	5.9600e-01	8.0750	15.477469	0.000115	1.154434	0.195566	-0.002309
1194	5.9650e-01	8.0688	15.445825	0.000316	3.164005	0.535997	-0.006329
1195	5.9700e-01	8.0603	15.438128	0.000077	0.769623	0.130378	-0.001539
1196	5.9750e-01	8.0460	15.401352	0.000368	3.677086	0.622915	-0.007355
1197	5.9800e-01	8.0359	15.381254	0.000201	2.009570	0.340430	-0.004020
1198	5.9850e-01	8.0252	15.374839	0.000064	0.641352	0.108648	-0.001283
1199	5.9900e-01	8.0173	15.335498	0.000393	3.933627	0.666375	-0.007868
1200	5.9950e-01	8.0066	15.319675	0.000158	1.582002	0.267998	-0.003164
1201	6.0000e-01	7.9984	15.306419	0.000133	1.325461	0.224539	-0.002651
1202	6.0050e-01	7.9892	15.268788	0.000376	3.762600	0.637402	-0.007526
1203	6.0100e-01	7.9773	15.234578	0.000342	3.420546	0.579456	-0.006842
1204	6.0150e-01	7.9651	15.220894	0.000137	1.368218	0.231782	-0.002737
1205	6.0200e-01	7.9565	15.190960	0.000299	2.992977	0.507024	-0.005987
1206	6.0250e-01	7.9456	15.152046	0.000389	3.890871	0.659131	-0.007783
1207	6.0300e-01	7.9364	15.136224	0.000158	1.582002	0.267998	-0.003164
1208	6.0350e-01	7.9211	15.118692	0.000175	1.753030	0.296971	-0.003507
1209	6.0400e-01	7.9132	15.076784	0.000419	4.190168	0.709834	-0.008381
1210	6.0450e-01	7.9071	15.049416	0.000274	2.736436	0.463565	-0.005474
1211	6.0500e-01	7.8964	15.043430	0.000060	0.598595	0.101405	-0.001197
1212	6.0550e-01	7.8864	15.016062	0.000274	2.736436	0.463565	-0.005474
1213	6.0600e-01	7.8735	14.986555	0.000295	2.950220	0.499781	-0.005901
1214	6.0650e-01	7.8674	14.966885	0.000197	1.966814	0.333187	-0.003934
1215	6.0700e-01	7.8558	14.947214	0.000197	1.966814	0.333187	-0.003934
1216	6.0750e-01	7.8464	14.903168	0.000440	4.403952	0.746050	-0.008809
1217	6.0800e-01	7.8345	14.878794	0.000244	2.437139	0.412862	-0.004875
1218	6.0850e-01	7.8253	14.872379	0.000064	0.641352	0.108648	-0.001283
1219	6.0900e-01	7.8156	14.836031	0.000363	3.634330	0.615672	-0.007270
1220	6.0950e-01	7.8073	14.811657	0.000244	2.437139	0.412862	-0.004875
1221	6.1000e-01	7.7954	14.776591	0.000351	3.506059	0.593942	-0.007013
1222	6.1050e-01	7.7869	14.762480	0.000141	1.410975	0.239026	-0.002822
1223	6.1100e-01	7.7762	14.727842	0.000346	3.463302	0.586699	-0.006928
1224	6.1150e-01	7.7667	14.721428	0.000064	0.641352	0.108648	-0.001283
1225	6.1200e-01	7.7554	14.682086	0.000393	3.933627	0.666375	-0.007868
1226	6.1250e-01	7.7466	14.655573	0.000265	2.650923	0.449078	-0.005303
1227	6.1300e-01	7.7368	14.618370	0.000372	3.719843	0.630159	-0.007441
1228	6.1350e-01	7.7277	14.596989	0.000214	2.137841	0.362160	-0.004276
1229	6.1400e-01	7.7161	14.591002	0.000060	0.598595	0.101405	-0.001197
1230	6.1450e-01	7.7063	14.545246	0.000457	4.574980	0.775023	-0.009151
1231	6.1500e-01	7.6947	14.524720	0.000205	2.052327	0.347674	-0.004105
1232	6.1550e-01	7.6843	14.490938	0.000338	3.377789	0.572213	-0.006756
1233	6.1600e-01	7.6782	14.447748	0.000432	4.318439	0.731563	-0.008638
1234	6.1650e-01	7.6663	14.442616	0.000051	0.513082	0.086918	-0.001026
1235	6.1700e-01	7.6569	14.425939	0.000167	1.667516	0.282485	-0.003335
1236	6.1750e-01	7.6471	14.398143	0.000278	2.779193	0.470808	-0.005559
1237	6.1800e-01	7.6379	14.379327	0.000188	1.881300	0.318701	-0.003763
1238	6.1850e-01	7.6254	14.343835	0.000355	3.548816	0.601186	-0.007099
1239	6.1900e-01	7.6154	14.334854	0.000090	0.897893	0.152107	-0.001796
1240	6.1950e-01	7.6056	14.298079	0.000368	3.677086	0.622915	-0.007355
1241	6.2000e-01	7.5958	14.292520	0.000056	0.555839	0.094162	-0.001112
1242	6.2050e-01	7.5848	14.240349	0.000522	5.216332	0.883671	-0.010434
1243	6.2100e-01	7.5784	14.232652	0.000077	0.769623	0.130378	-0.001539
1244	6.2150e-01	7.5659	14.186468	0.000462	4.617736	0.782266	-0.009237
1245	6.2200e-01	7.5562	14.163377	0.000231	2.308868	0.391133	-0.004618
1246	6.2250e-01	7.5470	14.133871	0.000295	2.950220	0.499781	-0.005901
1247	6.2300e-01	7.5348	14.107358	0.000265	2.650923	0.449078	-0.005303
1248	6.2350e-01	7.5262	14.076996	0.000304	3.035734	0.514267	-0.006072
1249	6.2400e-01	7.5198	14.062030	0.000150	1.496489	0.253512	-0.002993
1250	6.2450e-01	7.5085	14.045780	0.000162	1.624759	0.275242	-0.003250
1251	6.2500e-01	7.4976	14.015418	0.000304	3.035734	0.514267	-0.006072
1252	6.2550e-01	7.4866	13.985485	0.000299	2.992977	0.507024	-0.005987
1253	6.2600e-01	7.4759	13.966669	0.000188	1.881300	0.318701	-0.003763
1254	6.2650e-01	7.4683	13.929893	0.000368	3.677086	0.622915	-0.007355
1255	6.2700e-01	7.4573	13.896966	0.000329	3.292275	0.557726	-0.006585
1256	6.2750e-01	7.4460	13.890979	0.000060	0.598595	0.101405	-0.001197
1257	6.2800e-01	7.4359	13.839664	0.000513	5.130818	0.869184	-0.010263
1258	6.2850e-01	7.4268	13.822559	0.000171	1.710273	0.289728	-0.003421
1259	6.2900e-01	7.4170	13.813152	0.000094	0.940650	0.159350	-0.001882
1260	6.2950e-01	7.4060	13.775948	0.000372	3.719843	0.630159	-0.007441
1261	6.3000e-01	7.3984	13.737890	0.000381	3.805357	0.644645	-0.007612
1262	6.3050e-01	7.3871	13.725916	0.000120	1.197191	0.202810	-0.002395
1263	6.3100e-01	7.3761	13.686575	0.000393	3.933627	0.666375	-0.007868
1264	6.3150e-01	7.3639	13.651509	0.000351	3.506059	0.593942	-0.007013
1265	6.3200e-01	7.3553	13.642957	0.000086	0.855136	0.144864	-0.001711
1266	6.3250e-01	7.3486	13.616016	0.000269	2.693680	0.456322	-0.005388
1267	6.3300e-01	7.3364	13.562991	0.000530	5.301846	0.898157	-0.010605
1268	6.3350e-01	7.3279	13.543320	0.000197	1.966814	0.333187	-0.003934
1269	6.3400e-01	7.3181	13.542892	0.000004	0.042757	0.007243	-0.000086
1270	6.3450e-01	7.3071	13.498847	0.000440	4.403952	0.746050	-0.008809
1271	6.3500e-01	7.2964	13.478749	0.000201	2.009570	0.340430	-0.004020
1272	6.3550e-01	7.2858	13.439407	0.000393	3.933627	0.666375	-0.007868
1273	6.3600e-01	7.2763	13.405197	0.000342	3.420546	0.579456	-0.006842
1274	6.3650e-01	7.2662	13.401348	0.000038	0.384811	0.065189	-0.000770
1275	6.3700e-01	7.2577	13.357731	0.000436	4.361196	0.738807	-0.008724
1276	6.3750e-01	7.2473	13.354737	0.000030	0.299298	0.050702	-0.000599
1277	6.3800e-01	7.2348	13.308126	0.000466	4.660493	0.789509	-0.009322
1278	6.3850e-01	7.2247	13.288028	0.000201	2.009570	0.340430	-0.004020
1279	6.3900e-01	7.2174	13.277765	0.000103	1.026164	0.173837	-0.002053
1280	6.3950e-01	7.2055	13.243982	0.000338	3.377789	0.572213	-0.006756
1281	6.4000e-01	7.1967	13.201647	0.000423	4.232925	0.717077	-0.008467
1282	6.4050e-01	7.1899	13.167437	0.000342	3.420546	0.579456	-0.006842
1283	6.4100e-01	7.1765	13.153753	0.000137	1.368218	0.231782	-0.002737
1284	6.4150e-01	7.1663	13.122537	0.000312	3.121248	0.528754	-0.006243
1285	6.4200e-01	7.1564	13.105004	0.000175	1.753030	0.296971	-0.003507
1286	6.4250e-01	7.1454	13.051979	0.000530	5.301846	0.898157	-0.010605
1287	6.4300e-01	7.1371	13.061386	-0.000094	-0.940650	-0.159350	0.001882
1288	6.4350e-01	7.1252	13.021617	0.000398	3.976384	0.673618	-0.007954
1289	6.4400e-01	7.1167	12.998098	0.000235	2.351625	0.398376	-0.004704
1290	6.4450e-01	7.1082	12.981848	0.000162	1.624759	0.275242	-0.003250
1291	6.4500e-01	7.0978	12.937375	0.000445	4.446709	0.753293	-0.008895
1292	6.4550e-01	7.0886	12.907014	0.000304	3.035734	0.514267	-0.006072
1293	6.4600e-01	7.0740	12.883067	0.000239	2.394382	0.405619	-0.004789
1294	6.4650e-01	7.0657	12.858692	0.000244	2.437139	0.412862	-0.004875
1295	6.4700e-01	7.0551	12.824910	0.000338	3.377789	0.572213	-0.006756
1296	6.4750e-01	7.0450	12.795831	0.000291	2.907464	0.492538	-0.005816
1297	6.4800e-01	7.0386	12.777871	0.000180	1.795786	0.304214	-0.003592
1298	6.4850e-01	7.0282	12.744516	0.000334	3.335032	0.564970	-0.006671
1299	6.4900e-01	7.0181	12.718859	0.000257	2.565409	0.434592	-0.005132
1300	6.4950e-01	7.0081	12.707313	0.000115	1.154434	0.195566	-0.002309
1301	6.5000e-01	6.9960	12.655142	0.000522	5.216332	0.883671	-0.010434
1302	6.5050e-01	6.9852	12.627347	0.000278	2.779193	0.470808	-0.005559
1303	6.5100e-01	6.9763	12.592281	0.000351	3.506059	0.593942	-0.007013
1304	6.5150e-01	6.9653	12.579025	0.000133	1.325461	0.224539	-0.002651
1305	6.5200e-01	6.9543	12.544815	0.000342	3.420546	0.579456	-0.006842
1306	6.5250e-01	6.9440	12.529848	0.000150	1.496489	0.253512	-0.002993
1307	6.5300e-01	6.9360	12.481527	0.000483	4.831521	0.818482	-0.009664
1308	6.5350e-01	6.9263	12.479388	0.000021	0.213784	0.036216	-0.000428
1309	6.5400e-01	6.9160	12.438336	0.000410	4.104655	0.695347	-0.008210
1310	6.5450e-01	6.9080	12.413962	0.000244	2.437139	0.412862	-0.004875
1311	6.5500e-01	6.8970	12.404554	0.000094	0.940650	0.159350	-0.001882
1312	6.5550e-01	6.8860	12.368633	0.000359	3.591573	0.608429	-0.007184
1313	6.5600e-01	6.8799	12.331002	0.000376	3.762600	0.637402	-0.007526
1314	6.5650e-01	6.8646	12.304917	0.000261	2.608166	0.441835	-0.005217
1315	6.5700e-01	6.8555	12.277977	0.000269	2.693680	0.456322	-0.005388
1316	6.5750e-01	6.8457	12.242484	0.000355	3.548816	0.601186	-0.007099
1317	6.5800e-01	6.8341	12.220675	0.000218	2.180598	0.369403	-0.004362
1318	6.5850e-01	6.8253	12.191169	0.000295	2.950220	0.499781	-0.005901
1319	6.5900e-01	6.8176	12.149689	0.000415	4.147411	0.702591	-0.008296
1320	6.5950e-01	6.8073	12.115907	0.000338	3.377789	0.572213	-0.006756
1321	6.6000e-01	6.7960	12.116335	-0.000004	-0.042757	-0.007243	0.000086
1322	6.6050e-01	6.7856	12.094526	0.000218	2.180598	0.369403	-0.004362
1323	6.6100e-01	6.7755	12.041072	0.000534	5.344602	0.905400	-0.010691
1324	6.6150e-01	6.7664	12.026533	0.000145	1.453732	0.246269	-0.002908
1325	6.6200e-01	6.7575	12.001303	0.000252	2.522652	0.427349	-0.005046
1326	6.6250e-01	6.7432	11.991040	0.000103	1.026164	0.173837	-0.002053
1327	6.6300e-01	6.7346	11.941436	0.000496	4.959791	0.840211	-0.009921
1328	6.6350e-01	6.7244	11.924758	0.000167	1.667516	0.282485	-0.003335
1329	6.6400e-01	6.7194	11.889266	0.000355	3.548816	0.601186	-0.007099
1330	6.6450e-01	6.7078	11.839233	0.000500	5.002548	0.847455	-0.010006
1331	6.6500e-01	6.6992	11.845220	-0.000060	-0.598595	-0.101405	0.001197
1332	6.6550e-01	6.6858	11.804168	0.000410	4.104655	0.695347	-0.008210
1333	6.6600e-01	6.6766	11.769103	0.000351	3.506059	0.593942	-0.007013
1334	6.6650e-01	6.6644	11.759695	0.000094	0.940650	0.159350	-0.001882
1335	6.6700e-01	6.6565	11.702821	0.000569	5.686657	0.963346	-0.011375
1336	6.6750e-01	6.6467	11.708380	-0.000056	-0.555839	-0.094162	0.001112
1337	6.6800e-01	6.6376	11.669038	0.000393	3.933627	0.666375	-0.007868
1338	6.6850e-01	6.6241	11.651933	0.000171	1.710273	0.289728	-0.003421
1339	6.6900e-01	6.6144	11.607888	0.000440	4.403952	0.746050	-0.008809
1340	6.6950e-01	6.6052	11.550159	0.000577	5.772171	0.977832	-0.011546
1341	6.7000e-01	6.5964	11.552724	-0.000026	-0.256541	-0.043459	0.000513
1342	6.7050e-01	6.5875	11.509534	0.000432	4.318439	0.731563	-0.008638
1343	6.7100e-01	6.5744	11.481311	0.000282	2.821950	0.478051	-0.005645
1344	6.7150e-01	6.5680	11.453943	0.000274	2.736436	0.463565	-0.005474
1345	6.7200e-01	6.5570	11.449667	0.000043	0.427568	0.072432	-0.000855
1346	6.7250e-01	6.5466	11.396214	0.000534	5.344602	0.905400	-0.010691
1347	6.7300e-01	6.5356	11.379536	0.000167	1.667516	0.282485	-0.003335
1348	6.7350e-01	6.5240	11.343616	0.000359	3.591573	0.608429	-0.007184
1349	6.7400e-01	6.5158	11.312827	0.000308	3.078491	0.521510	-0.006158
1350	6.7450e-01	6.5070	11.281182	0.000316	3.164005	0.535997	-0.006329
1351	6.7500e-01	6.4948	11.268781	0.000124	1.239948	0.210053	-0.002480
1352	6.7550e-01	6.4851	11.246545	0.000222	2.223355	0.376646	-0.004447
1353	6.7600e-01	6.4746	11.220887	0.000257	2.565409	0.434592	-0.005132
1354	6.7650e-01	6.4673	11.198651	0.000222	2.223355	0.376646	-0.004447
1355	6.7700e-01	6.4554	11.159309	0.000393	3.933627	0.666375	-0.007868
1356	6.7750e-01	6.4471	11.114836	0.000445	4.446709	0.753293	-0.008895
1357	6.7800e-01	6.4371	11.097304	0.000175	1.753030	0.296971	-0.003507
1358	6.7850e-01	6.4288	11.072074	0.000252	2.522652	0.427349	-0.005046
1359	6.7900e-01	6.4156	11.036581	0.000355	3.548816	0.601186	-0.007099
1360	6.7950e-01	6.4069	11.011778	0.000248	2.479895	0.420106	-0.004960
1361	6.8000e-01	6.3959	10.976713	0.000351	3.506059	0.593942	-0.007013
1362	6.8050e-01	6.3867	10.942503	0.000342	3.420546	0.579456	-0.006842
1363	6.8100e-01	6.3753	10.931813	0.000107	1.068920	0.181080	-0.002138
1364	6.8150e-01	6.3647	10.901879	0.000299	2.992977	0.507024	-0.005987
1365	6.8200e-01	6.3531	10.851419	0.000505	5.045305	0.854698	-0.010092
1366	6.8250e-01	6.3495	10.814643	0.000368	3.677086	0.622915	-0.007355
1367	6.8300e-01	6.3342	10.800959	0.000137	1.368218	0.231782	-0.002737
1368	6.8350e-01	6.3249	10.779578	0.000214	2.137841	0.362160	-0.004276
1369	6.8400e-01	6.3184	10.733394	0.000462	4.617736	0.782266	-0.009237
1370	6.8450e-01	6.3060	10.726552	0.000068	0.684109	0.115891	-0.001368
1371	6.8500e-01	6.2952	10.710303	0.000162	1.624759	0.275242	-0.003250
1372	6.8550e-01	6.2860	10.677375	0.000329	3.292275	0.557726	-0.006585
1373	6.8600e-01	6.2759	10.643165	0.000342	3.420546	0.579456	-0.006842
1374	6.8650e-01	6.2659	10.579022	0.000641	6.413523	1.086480	-0.012829
1375	6.8700e-01	6.2540	10.590568	-0.000115	-1.154434	-0.195566	0.002309
1376	6.8750e-01	6.2482	10.530700	0.000599	5.985955	1.014048	-0.011974
1377	6.8800e-01	6.2369	10.522148	0.000086	0.855136	0.144864	-0.001711
1378	6.8850e-01	6.2286	10.491786	0.000304	3.035734	0.514267	-0.006072
1379	6.8900e-01	6.2152	10.463563	0.000282	2.821950	0.478051	-0.005645
1380	6.8950e-01	6.2061	10.430636	0.000329	3.292275	0.557726	-0.006585
1381	6.9000e-01	6.1990	10.403268	0.000274	2.736436	0.463565	-0.005474
1382	6.9050e-01	6.1877	10.371196	0.000321	3.206761	0.543240	-0.006414
1383	6.9100e-01	6.1768	10.345966	0.000252	2.522652	0.427349	-0.005046
1384	6.9150e-01	6.1682	10.309190	0.000368	3.677086	0.622915	-0.007355
1385	6.9200e-01	6.1578	10.300210	0.000090	0.897893	0.152107	-0.001796
1386	6.9250e-01	6.1478	10.240770	0.000594	5.943198	1.006805	-0.011888
1387	6.9300e-01	6.1359	10.229652	0.000111	1.111677	0.188323	-0.002224
1388	6.9350e-01	6.1279	10.196297	0.000334	3.335032	0.564970	-0.006671
1389	6.9400e-01	6.1160	10.183041	0.000133	1.325461	0.224539	-0.002651
1390	6.9450e-01	6.1047	10.148403	0.000346	3.463302	0.586699	-0.006928
1391	6.9500e-01	6.0950	10.091956	0.000564	5.643900	0.956103	-0.011289
1392	6.9550e-01	6.0858	10.083404	0.000086	0.855136	0.144864	-0.001711
1393	6.9600e-01	6.0757	10.041924	0.000415	4.147411	0.702591	-0.008296
1394	6.9650e-01	6.0654	10.014556	0.000274	2.736436	0.463565	-0.005474
1395	6.9700e-01	6.0551	9.988044	0.000265	2.650923	0.449078	-0.005303
1396	6.9750e-01	6.0461	9.955544	0.000325	3.249518	0.550483	-0.006500
1397	6.9800e-01	6.0339	9.946564	0.000090	0.897893	0.152107	-0.001796
1398	6.9850e-01	6.0266	9.903374	0.000432	4.318439	0.731563	-0.008638
1399	6.9900e-01	6.0156	9.864460	0.000389	3.890871	0.659131	-0.007783
1400	6.9950e-01	6.0031	9.835381	0.000291	2.907464	0.492538	-0.005816
1401	7.0000e-01	5.9982	9.816138	0.000192	1.924057	0.325944	-0.003849
1402	7.0050e-01	5.9833	9.787487	0.000286	2.864707	0.485294	-0.005730
1403	7.0100e-01	5.9747	9.740449	0.000470	4.703250	0.796752	-0.009408
1404	7.0150e-01	5.9665	9.731041	0.000094	0.940650	0.159350	-0.001882
1405	7.0200e-01	5.9552	9.712225	0.000188	1.881300	0.318701	-0.003763
1406	7.0250e-01	5.9479	9.665186	0.000470	4.703250	0.796752	-0.009408
1407	7.0300e-01	5.9366	9.635680	0.000295	2.950220	0.499781	-0.005901
1408	7.0350e-01	5.9254	9.610450	0.000252	2.522652	0.427349	-0.005046
1409	7.0400e-01	5.9167	9.580517	0.000299	2.992977	0.507024	-0.005987
1410	7.0450e-01	5.9079	9.554859	0.000257	2.565409	0.434592	-0.005132
1411	7.0500e-01	5.8966	9.503972	0.000509	5.088061	0.861941	-0.010177
1412	7.0550e-01	5.8850	9.491998	0.000120	1.197191	0.202810	-0.002395
1413	7.0600e-01	5.8765	9.441111	0.000509	5.088061	0.861941	-0.010177
1414	7.0650e-01	5.8664	9.416736	0.000244	2.437139	0.412862	-0.004875
1415	7.0700e-01	5.8563	9.381671	0.000351	3.506059	0.593942	-0.007013
1416	7.0750e-01	5.8441	9.367132	0.000145	1.453732	0.246269	-0.002908
1417	7.0800e-01	5.8347	9.334204	0.000329	3.292275	0.557726	-0.006585
1418	7.0850e-01	5.8279	9.302988	0.000312	3.121248	0.528754	-0.006243
1419	7.0900e-01	5.8142	9.289304	0.000137	1.368218	0.231782	-0.002737
1420	7.0950e-01	5.8051	9.249535	0.000398	3.976384	0.673618	-0.007954
1421	7.1000e-01	5.7991	9.192233	0.000573	5.729414	0.970589	-0.011460
1422	7.1050e-01	5.7880	9.166148	0.000261	2.608166	0.441835	-0.005217
1423	7.1100e-01	5.7758	9.131510	0.000346	3.463302	0.586699	-0.006928
1424	7.1150e-01	5.7669	9.136642	-0.000051	-0.513082	-0.086918	0.001026
1425	7.1200e-01	5.7541	9.106280	0.000304	3.035734	0.514267	-0.006072
1426	7.1250e-01	5.7465	9.053682	0.000526	5.259089	0.890914	-0.010520
1427	7.1300e-01	5.7379	9.042136	0.000115	1.154434	0.195566	-0.002309
1428	7.1350e-01	5.7257	9.001084	0.000410	4.104655	0.695347	-0.008210
1429	7.1400e-01	5.7159	8.978420	0.000227	2.266111	0.383890	-0.004533
1430	7.1450e-01	5.7031	8.952763	0.000257	2.565409	0.434592	-0.005132
1431	7.1500e-01	5.6959	8.917270	0.000355	3.548816	0.601186	-0.007099
1432	7.1550e-01	5.6857	8.881777	0.000355	3.548816	0.601186	-0.007099
1433	7.1600e-01	5.6746	8.834311	0.000475	4.746007	0.803995	-0.009493
1434	7.1650e-01	5.6644	8.842435	-0.000081	-0.812380	-0.137621	0.001625
1435	7.1700e-01	5.6573	8.794541	0.000479	4.788764	0.811239	-0.009579
1436	7.1750e-01	5.6447	8.744937	0.000496	4.959791	0.840211	-0.009921
1437	7.1800e-01	5.6381	8.732963	0.000120	1.197191	0.202810	-0.002395
1438	7.1850e-01	5.6250	8.697470	0.000355	3.548816	0.601186	-0.007099
1439	7.1900e-01	5.6161	8.684214	0.000133	1.325461	0.224539	-0.002651
1440	7.1950e-01	5.6073	8.639741	0.000445	4.446709	0.753293	-0.008895
1441	7.2000e-01	5.5981	8.608524	0.000312	3.121248	0.528754	-0.006243
1442	7.2050e-01	5.5855	8.576880	0.000316	3.164005	0.535997	-0.006329
1443	7.2100e-01	5.5765	8.570038	0.000068	0.684109	0.115891	-0.001368
1444	7.2150e-01	5.5640	8.525137	0.000449	4.489466	0.760536	-0.008980
1445	7.2200e-01	5.5548	8.475533	0.000496	4.959791	0.840211	-0.009921
1446	7.2250e-01	5.5487	8.460994	0.000145	1.453732	0.246269	-0.002908
1447	7.2300e-01	5.5353	8.422935	0.000381	3.805357	0.644645	-0.007612
1448	7.2350e-01	5.5255	8.394712	0.000282	2.821950	0.478051	-0.005645
1449	7.2400e-01	5.5157	8.371620	0.000231	2.308868	0.391133	-0.004618
1450	7.2450e-01	5.5035	8.334844	0.000368	3.677086	0.622915	-0.007355
1451	7.2500e-01	5.4959	8.300634	0.000342	3.420546	0.579456	-0.006842
1452	7.2550e-01	5.4866	8.278398	0.000222	2.223355	0.376646	-0.004447
1453	7.2600e-01	5.4742	8.269418	0.000090	0.897893	0.152107	-0.001796
1454	7.2650e-01	5.4646	8.211261	0.000581	5.814927	0.985075	-0.011631
1455	7.2700e-01	5.4553	8.169781	0.000415	4.147411	0.702591	-0.008296
1456	7.2750e-01	5.4457	8.155669	0.000141	1.410975	0.239026	-0.002822
1457	7.2800e-01	5.4382	8.130439	0.000252	2.522652	0.427349	-0.005046
1458	7.2850e-01	5.4266	8.080835	0.000496	4.959791	0.840211	-0.009921
1459	7.2900e-01	5.4175	8.045770	0.000351	3.506059	0.593942	-0.007013
1460	7.2950e-01	5.4019	8.039355	0.000064	0.641352	0.108648	-0.001283
1461	7.3000e-01	5.3976	8.013698	0.000257	2.565409	0.434592	-0.005132
1462	7.3050e-01	5.3854	7.952120	0.000616	6.156982	1.043021	-0.012316
1463	7.3100e-01	5.3784	7.926462	0.000257	2.565409	0.434592	-0.005132
1464	7.3150e-01	5.3662	7.881989	0.000445	4.446709	0.753293	-0.008895
1465	7.3200e-01	5.3578	7.877285	0.000047	0.470325	0.079675	-0.000941
1466	7.3250e-01	5.3493	7.841365	0.000359	3.591573	0.608429	-0.007184
1467	7.3300e-01	5.3365	7.802451	0.000389	3.890871	0.659131	-0.007783
1468	7.3350e-01	5.3271	7.772517	0.000299	2.992977	0.507024	-0.005987
1469	7.3400e-01	5.3163	7.766103	0.000064	0.641352	0.108648	-0.001283
1470	7.3450e-01	5.3088	7.695972	0.000701	7.012118	1.187885	-0.014026
1471	7.3500e-01	5.2982	7.669887	0.000261	2.608166	0.441835	-0.005217
1472	7.3550e-01	5.2856	7.645512	0.000244	2.437139	0.412862	-0.004875
1473	7.3600e-01	5.2769	7.608309	0.000372	3.719843	0.630159	-0.007441
1474	7.3650e-01	5.2698	7.595053	0.000133	1.325461	0.224539	-0.002651
1475	7.3700e-01	5.2563	7.568967	0.000261	2.608166	0.441835	-0.005217
1476	7.3750e-01	5.2454	7.530481	0.000385	3.848114	0.651888	-0.007697
1477	7.3800e-01	5.2356	7.514231	0.000162	1.624759	0.275242	-0.003250
1478	7.3850e-01	5.2283	7.470614	0.000436	4.361196	0.738807	-0.008724
1479	7.3900e-01	5.2161	7.413312	0.000573	5.729414	0.970589	-0.011460
1480	7.3950e-01	5.2048	7.401766	0.000115	1.154434	0.195566	-0.002309
1481	7.4000e-01	5.1993	7.365845	0.000359	3.591573	0.608429	-0.007184
1482	7.4050e-01	5.1843	7.347885	0.000180	1.795786	0.304214	-0.003592
1483	7.4100e-01	5.1750	7.311537	0.000363	3.634330	0.615672	-0.007270
1484	7.4150e-01	5.1663	7.273051	0.000385	3.848114	0.651888	-0.007697
1485	7.4200e-01	5.1556	7.229433	0.000436	4.361196	0.738807	-0.008724
1486	7.4250e-01	5.1474	7.203348	0.000261	2.608166	0.441835	-0.005217
1487	7.4300e-01	5.1367	7.175124	0.000282	2.821950	0.478051	-0.005645
1488	7.4350e-01	5.1245	7.153743	0.000214	2.137841	0.362160	-0.004276
1489	7.4400e-01	5.1147	7.118678	0.000351	3.506059	0.593942	-0.007013
1490	7.4450e-01	5.1105	7.070356	0.000483	4.831521	0.818482	-0.009664
1491	7.4500e-01	5.0951	7.064370	0.000060	0.598595	0.101405	-0.001197
1492	7.4550e-01	5.0848	7.019469	0.000449	4.489466	0.760536	-0.008980
1493	7.4600e-01	5.0745	7.015620	0.000038	0.384811	0.065189	-0.000770
1494	7.4650e-01	5.0667	6.966443	0.000492	4.917034	0.832968	-0.009835
1495	7.4700e-01	5.0574	6.935654	0.000308	3.078491	0.521510	-0.006158
1496	7.4750e-01	5.0446	6.889898	0.000457	4.574980	0.775023	-0.009151
1497	7.4800e-01	5.0307	6.885195	0.000047	0.470325	0.079675	-0.000941
1498	7.4850e-01	5.0235	6.833880	0.000513	5.130818	0.869184	-0.010263
1499	7.4900e-01	5.0171	6.794110	0.000398	3.976384	0.673618	-0.007954
1500	7.4950e-01	5.0061	6.768880	0.000252	2.522652	0.427349	-0.005046
1501	7.5000e-01	4.9963	6.720559	0.000483	4.831521	0.818482	-0.009664
1502	7.5050e-01	4.9872	6.697467	0.000231	2.308868	0.391133	-0.004618
1503	7.5100e-01	4.9780	6.664112	0.000334	3.335032	0.564970	-0.006671
1504	7.5150e-01	4.9684	6.635034	0.000291	2.907464	0.492538	-0.005816
1505	7.5200e-01	4.9554	6.600396	0.000346	3.463302	0.586699	-0.006928
1506	7.5250e-01	4.9487	6.578160	0.000222	2.223355	0.376646	-0.004447
1507	7.5300e-01	4.9384	6.554213	0.000239	2.394382	0.405619	-0.004789
1508	7.5350e-01	4.9295	6.517009	0.000372	3.719843	0.630159	-0.007441
1509	7.5400e-01	4.9155	6.484082	0.000329	3.292275	0.557726	-0.006585
1510	7.5450e-01	4.9038	6.430629	0.000534	5.344602	0.905400	-0.010691
1511	7.5500e-01	4.8970	6.404971	0.000257	2.565409	0.434592	-0.005132
1512	7.5550e-01	4.8877	6.383162	0.000218	2.180598	0.369403	-0.004362
1513	7.5600e-01	4.8776	6.352801	0.000304	3.035734	0.514267	-0.006072
1514	7.5650e-01	4.8672	6.318163	0.000346	3.463302	0.586699	-0.006928
1515	7.5700e-01	4.8560	6.295927	0.000222	2.223355	0.376646	-0.004447
1516	7.5750e-01	4.8459	6.254875	0.000410	4.104655	0.695347	-0.008210
1517	7.5800e-01	4.8358	6.201849	0.000530	5.301846	0.898157	-0.010605
1518	7.5850e-01	4.8254	6.193297	0.000086	0.855136	0.144864	-0.001711
1519	7.5900e-01	4.8157	6.152245	0.000410	4.104655	0.695347	-0.008210
1520	7.5950e-01	4.8062	6.114186	0.000381	3.805357	0.644645	-0.007612
1521	7.6000e-01	4.7957	6.100502	0.000137	1.368218	0.231782	-0.002737
1522	7.6050e-01	4.7870	6.068430	0.000321	3.206761	0.543240	-0.006414
1523	7.6100e-01	4.7784	6.032510	0.000359	3.591573	0.608429	-0.007184
1524	7.6150e-01	4.7656	6.005997	0.000265	2.650923	0.449078	-0.005303
1525	7.6200e-01	4.7578	5.969649	0.000363	3.634330	0.615672	-0.007270
1526	7.6250e-01	4.7479	5.947412	0.000222	2.223355	0.376646	-0.004447
1527	7.6300e-01	4.7369	5.899518	0.000479	4.788764	0.811239	-0.009579
1528	7.6350e-01	4.7249	5.880275	0.000192	1.924057	0.325944	-0.003849
1529	7.6400e-01	4.7162	5.832809	0.000475	4.746007	0.803995	-0.009493
1530	7.6450e-01	4.7059	5.793895	0.000389	3.890871	0.659131	-0.007783
1531	7.6500e-01	4.6938	5.768237	0.000257	2.565409	0.434592	-0.005132
1532	7.6550e-01	4.6866	5.732744	0.000355	3.548816	0.601186	-0.007099
1533	7.6600e-01	4.6759	5.704094	0.000286	2.864707	0.485294	-0.005730
1534	7.6650e-01	4.6674	5.659193	0.000449	4.489466	0.760536	-0.008980
1535	7.6700e-01	4.6564	5.639094	0.000201	2.009570	0.340430	-0.004020
1536	7.6750e-01	4.6466	5.606595	0.000325	3.249518	0.550483	-0.006500
1537	7.6800e-01	4.6353	5.553569	0.000530	5.301846	0.898157	-0.010605
1538	7.6850e-01	4.6265	5.541596	0.000120	1.197191	0.202810	-0.002395
1539	7.6900e-01	4.6167	5.500972	0.000406	4.061898	0.688104	-0.008125
1540	7.6950e-01	4.6057	5.459492	0.000415	4.147411	0.702591	-0.008296
1541	7.7000e-01	4.5947	5.432979	0.000265	2.650923	0.449078	-0.005303
1542	7.7050e-01	4.5868	5.412881	0.000201	2.009570	0.340430	-0.004020
1543	7.7100e-01	4.5772	5.367552	0.000453	4.532223	0.767779	-0.009066
1544	7.7150e-01	4.5662	5.336763	0.000308	3.078491	0.521510	-0.006158
1545	7.7200e-01	4.5578	5.311106	0.000257	2.565409	0.434592	-0.005132
1546	7.7250e-01	4.5490	5.280745	0.000304	3.035734	0.514267	-0.006072
1547	7.7300e-01	4.5374	5.229002	0.000517	5.173575	0.876427	-0.010349
1548	7.7350e-01	4.5235	5.200779	0.000282	2.821950	0.478051	-0.005645
1549	7.7400e-01	4.5152	5.177259	0.000235	2.351625	0.398376	-0.004704
1550	7.7450e-01	4.5045	5.136635	0.000406	4.061898	0.688104	-0.008125
1551	7.7500e-01	4.4969	5.098149	0.000385	3.848114	0.651888	-0.007697
1552	7.7550e-01	4.4856	5.066077	0.000321	3.206761	0.543240	-0.006414
1553	7.7600e-01	4.4759	5.037853	0.000282	2.821950	0.478051	-0.005645
1554	7.7650e-01	4.4647	5.017327	0.000205	2.052327	0.347674	-0.004105
1555	7.7700e-01	4.4568	4.975848	0.000415	4.147411	0.702591	-0.008296
1556	7.7750e-01	4.4464	4.964302	0.000115	1.154434	0.195566	-0.002309
1557	7.7800e-01	4.4342	4.927526	0.000368	3.677086	0.622915	-0.007355
1558	7.7850e-01	4.4270	4.871935	0.000556	5.558386	0.941616	-0.011118
1559	7.7900e-01	4.4147	4.850981	0.000210	2.095084	0.354917	-0.004191
1560	7.7950e-01	4.4043	4.803515	0.000475	4.746007	0.803995	-0.009493
1561	7.8000e-01	4.3994	4.783416	0.000201	2.009570	0.340430	-0.004020
1562	7.8050e-01	4.3856	4.744930	0.000385	3.848114	0.651888	-0.007697
1563	7.8100e-01	4.3750	4.711575	0.000334	3.335032	0.564970	-0.006671
1564	7.8150e-01	4.3643	4.680359	0.000312	3.121248	0.528754	-0.006243
1565	7.8200e-01	4.3579	4.661971	0.000184	1.838543	0.311458	-0.003678
1566	7.8250e-01	4.3466	4.601676	0.000603	6.028711	1.021291	-0.012059
1567	7.8300e-01	4.3353	4.584998	0.000167	1.667516	0.282485	-0.003335
1568	7.8350e-01	4.3265	4.546940	0.000381	3.805357	0.644645	-0.007612
1569	7.8400e-01	4.3149	4.511447	0.000355	3.548816	0.601186	-0.007099
1570	7.8450e-01	4.3054	4.462270	0.000492	4.917034	0.832968	-0.009835
1571	7.8500e-01	4.2957	4.431908	0.000304	3.035734	0.514267	-0.006072
1572	7.8550e-01	4.2854	4.403257	0.000286	2.864707	0.485294	-0.005730
1573	7.8600e-01	4.2767	4.366054	0.000372	3.719843	0.630159	-0.007441
1574	7.8650e-01	4.2670	4.352798	0.000133	1.325461	0.224539	-0.002651
1575	7.8700e-01	4.2548	4.311318	0.000415	4.147411	0.702591	-0.008296
1576	7.8750e-01	4.2465	4.271549	0.000398	3.976384	0.673618	-0.007954
1577	7.8800e-01	4.2365	4.227931	0.000436	4.361196	0.738807	-0.008724
1578	7.8850e-01	4.2261	4.203556	0.000244	2.437139	0.412862	-0.004875
1579	7.8900e-01	4.2148	4.158656	0.000449	4.489466	0.760536	-0.008980
1580	7.8950e-01	4.2059	4.117604	0.000410	4.104655	0.695347	-0.008210
1581	7.9000e-01	4.1956	4.096650	0.000210	2.095084	0.354917	-0.004191
1582	7.9050e-01	4.1864	4.075696	0.000210	2.095084	0.354917	-0.004191
1583	7.9100e-01	4.1760	4.051749	0.000239	2.394382	0.405619	-0.004789
1584	7.9150e-01	4.1656	3.991454	0.000603	6.028711	1.021291	-0.012059
1585	7.9200e-01	4.1586	3.997013	-0.000056	-0.555839	-0.094162	0.001112
1586	7.9250e-01	4.1461	3.932870	0.000641	6.413523	1.086480	-0.012829
1587	7.9300e-01	4.1351	3.900370	0.000325	3.249518	0.550483	-0.006500
1588	7.9350e-01	4.1264	3.855897	0.000445	4.446709	0.753293	-0.008895
1589	7.9400e-01	4.1144	3.831522	0.000244	2.437139	0.412862	-0.004875
1590	7.9450e-01	4.1055	3.799878	0.000316	3.164005	0.535997	-0.006329
1591	7.9500e-01	4.0973	3.761820	0.000381	3.805357	0.644645	-0.007612
1592	7.9550e-01	4.0833	3.727610	0.000342	3.420546	0.579456	-0.006842
1593	7.9600e-01	4.0750	3.685702	0.000419	4.190168	0.709834	-0.008381
1594	7.9650e-01	4.0656	3.648926	0.000368	3.677086	0.622915	-0.007355
1595	7.9700e-01	4.0558	3.623697	0.000252	2.522652	0.427349	-0.005046
1596	7.9750e-01	4.0462	3.590769	0.000329	3.292275	0.557726	-0.006585
1597	7.9800e-01	4.0372	3.559553	0.000312	3.121248	0.528754	-0.006243
1598	7.9850e-01	4.0256	3.536889	0.000227	2.266111	0.383890	-0.004533
1599	7.9900e-01	4.0144	3.493698	0.000432	4.318439	0.731563	-0.008638
1600	7.9950e-01	4.0057	3.432976	0.000607	6.071468	1.028535	-0.012145
1601	8.0000e-01	3.9981	3.403897	0.000291	2.907464	0.492538	-0.005816
1602	8.0050e-01	3.9862	3.369687	0.000342	3.420546	0.579456	-0.006842
1603	8.0100e-01	3.9769	3.353865	0.000158	1.582002	0.267998	-0.003164
1604	8.0150e-01	3.9650	3.305543	0.000483	4.831521	0.818482	-0.009664
1605	8.0200e-01	3.9577	3.276892	0.000286	2.864707	0.485294	-0.005730
1606	8.0250e-01	3.9471	3.223012	0.000539	5.387359	0.912643	-0.010776
1607	8.0300e-01	3.9369	3.232419	-0.000094	-0.940650	-0.159350	0.001882
1608	8.0350e-01	3.9246	3.178966	0.000534	5.344602	0.905400	-0.010691
1609	8.0400e-01	3.9160	3.140480	0.000385	3.848114	0.651888	-0.007697
1610	8.0450e-01	3.9044	3.103704	0.000368	3.677086	0.622915	-0.007355
1611	8.0500e-01	3.8959	3.063935	0.000398	3.976384	0.673618	-0.007954
1612	8.0550e-01	3.8844	3.045120	0.000188	1.881300	0.318701	-0.003763
1613	8.0600e-01	3.8733	2.992949	0.000522	5.216332	0.883671	-0.010434
1614	8.0650e-01	3.8657	2.969002	0.000239	2.394382	0.405619	-0.004789
1615	8.0700e-01	3.8562	2.935220	0.000338	3.377789	0.572213	-0.006756
1616	8.0750e-01	3.8478	2.898872	0.000363	3.634330	0.615672	-0.007270
1617	8.0800e-01	3.8345	2.870221	0.000286	2.864707	0.485294	-0.005730
1618	8.0850e-01	3.8281	2.819333	0.000509	5.088061	0.861941	-0.010177
1619	8.0900e-01	3.8138	2.788972	0.000304	3.035734	0.514267	-0.006072
1620	8.0950e-01	3.8062	2.749631	0.000393	3.933627	0.666375	-0.007868
1621	8.1000e-01	3.7941	2.719697	0.000299	2.992977	0.507024	-0.005987
1622	8.1050e-01	3.7848	2.687625	0.000321	3.206761	0.543240	-0.006414
1623	8.1100e-01	3.7726	2.649566	0.000381	3.805357	0.644645	-0.007612
1624	8.1150e-01	3.7642	2.621343	0.000282	2.821950	0.478051	-0.005645
1625	8.1200e-01	3.7567	2.575587	0.000457	4.574980	0.775023	-0.009151
1626	8.1250e-01	3.7451	2.553351	0.000222	2.223355	0.376646	-0.004447
1627	8.1300e-01	3.7318	2.513581	0.000398	3.976384	0.673618	-0.007954
1628	8.1350e-01	3.7238	2.474240	0.000393	3.933627	0.666375	-0.007868
1629	8.1400e-01	3.7164	2.437464	0.000368	3.677086	0.622915	-0.007355
1630	8.1450e-01	3.7071	2.405392	0.000321	3.206761	0.543240	-0.006414
1631	8.1500e-01	3.6942	2.361774	0.000436	4.361196	0.738807	-0.008724
1632	8.1550e-01	3.6858	2.337400	0.000244	2.437139	0.412862	-0.004875
1633	8.1600e-01	3.6763	2.311742	0.000257	2.565409	0.434592	-0.005132
1634	8.1650e-01	3.6658	2.274111	0.000376	3.762600	0.637402	-0.007526
1635	8.1700e-01	3.6542	2.241612	0.000325	3.249518	0.550483	-0.006500
1636	8.1750e-01	3.6469	2.188159	0.000534	5.344602	0.905400	-0.010691
1637	8.1800e-01	3.6366	2.160363	0.000278	2.779193	0.470808	-0.005559
1638	8.1850e-01	3.6273	2.123587	0.000368	3.677086	0.622915	-0.007355
1639	8.1900e-01	3.6169	2.077404	0.000462	4.617736	0.782266	-0.009237
1640	8.1950e-01	3.6054	2.023950	0.000534	5.344602	0.905400	-0.010691
1641	8.2000e-01	3.5977	2.016681	0.000073	0.726866	0.123134	-0.001454
1642	8.2050e-01	3.5873	1.973918	0.000428	4.275682	0.724320	-0.008553
1643	8.2100e-01	3.5760	1.946550	0.000274	2.736436	0.463565	-0.005474
1644	8.2150e-01	3.5660	1.901650	0.000449	4.489466	0.760536	-0.008980
1645	8.2200e-01	3.5559	1.886255	0.000154	1.539245	0.260755	-0.003079
1646	8.2250e-01	3.5489	1.838361	0.000479	4.788764	0.811239	-0.009579
1647	8.2300e-01	3.5397	1.812704	0.000257	2.565409	0.434592	-0.005132
1648	8.2350e-01	3.5262	1.747704	0.000650	6.499036	1.100967	-0.013000
1649	8.2400e-01	3.5152	1.721192	0.000265	2.650923	0.449078	-0.005303
1650	8.2450e-01	3.5095	1.697672	0.000235	2.351625	0.398376	-0.004704
1651	8.2500e-01	3.4943	1.670304	0.000274	2.736436	0.463565	-0.005474
1652	8.2550e-01	3.4854	1.626687	0.000436	4.361196	0.738807	-0.008724
1653	8.2600e-01	3.4787	1.574089	0.000526	5.259089	0.890914	-0.010520
1654	8.2650e-01	3.4674	1.562543	0.000115	1.154434	0.195566	-0.002309
1655	8.2700e-01	3.4564	1.539451	0.000231	2.308868	0.391133	-0.004618
1656	8.2750e-01	3.4454	1.485998	0.000534	5.344602	0.905400	-0.010691
1657	8.2800e-01	3.4351	1.421854	0.000641	6.413523	1.086480	-0.012829
1658	8.2850e-01	3.4250	1.404321	0.000175	1.753030	0.296971	-0.003507
1659	8.2900e-01	3.4177	1.373105	0.000312	3.121248	0.528754	-0.006243
1660	8.2950e-01	3.4081	1.327776	0.000453	4.532223	0.767779	-0.009066
1661	8.3000e-01	3.3972	1.296987	0.000308	3.078491	0.521510	-0.006158
1662	8.3050e-01	3.3879	1.250804	0.000462	4.617736	0.782266	-0.009237
1663	8.3100e-01	3.3759	1.231988	0.000188	1.881300	0.318701	-0.003763
1664	8.3150e-01	3.3670	1.197351	0.000346	3.463302	0.586699	-0.006928
1665	8.3200e-01	3.3600	1.152878	0.000445	4.446709	0.753293	-0.008895
1666	8.3250e-01	3.3449	1.104556	0.000483	4.831521	0.818482	-0.009664
1667	8.3300e-01	3.3388	1.067353	0.000372	3.719843	0.630159	-0.007441
1668	8.3350e-01	3.3241	1.067780	-0.000004	-0.042757	-0.007243	0.000086
1669	8.3400e-01	3.3183	1.014327	0.000534	5.344602	0.905400	-0.010691
1670	8.3450e-01	3.3054	0.957025	0.000573	5.729414	0.970589	-0.011460
1671	8.3500e-01	3.2941	0.928802	0.000282	2.821950	0.478051	-0.005645
1672	8.3550e-01	3.2840	0.904000	0.000248	2.479895	0.420106	-0.004960
1673	8.3600e-01	3.2776	0.855678	0.000483	4.831521	0.818482	-0.009664
1674	8.3650e-01	3.2660	0.819330	0.000363	3.634330	0.615672	-0.007270
1675	8.3700e-01	3.2541	0.800087	0.000192	1.924057	0.325944	-0.003849
1676	8.3750e-01	3.2446	0.734233	0.000658	6.584550	1.115453	-0.013171
1677	8.3800e-01	3.2359	0.701733	0.000325	3.249518	0.550483	-0.006500
1678	8.3850e-01	3.2283	0.681207	0.000205	2.052327	0.347674	-0.004105
1679	8.3900e-01	3.2140	0.635451	0.000457	4.574980	0.775023	-0.009151
1680	8.3950e-01	3.2031	0.594827	0.000406	4.061898	0.688104	-0.008125
1681	8.4000e-01	3.1955	0.563610	0.000312	3.121248	0.528754	-0.006243
1682	8.4050e-01	3.1870	0.538380	0.000252	2.522652	0.427349	-0.005046
1683	8.4100e-01	3.1744	0.489203	0.000492	4.917034	0.832968	-0.009835
1684	8.4150e-01	3.1631	0.464829	0.000244	2.437139	0.412862	-0.004875
1685	8.4200e-01	3.1577	0.419500	0.000453	4.532223	0.767779	-0.009066
1686	8.4250e-01	3.1464	0.377593	0.000419	4.190168	0.709834	-0.008381
1687	8.4300e-01	3.1366	0.344666	0.000329	3.292275	0.557726	-0.006585
1688	8.4350e-01	3.1268	0.320291	0.000244	2.437139	0.412862	-0.004875
1689	8.4400e-01	3.1183	0.264272	0.000560	5.601143	0.948859	-0.011204
1690	8.4450e-01	3.1067	0.237332	0.000269	2.693680	0.456322	-0.005388
1691	8.4500e-01	3.0945	0.190293	0.000470	4.703250	0.796752	-0.009408
1692	8.4550e-01	3.0820	0.173616	0.000167	1.667516	0.282485	-0.003335
1693	8.4600e-01	3.0740	0.124011	0.000496	4.959791	0.840211	-0.009921
1694	8.4650e-01	3.0641	0.088518	0.000355	3.548816	0.601186	-0.007099
1695	8.4700e-01	3.0576	0.050887	0.000376	3.762600	0.637402	-0.007526
1696	8.4750e-01	3.0466	-0.001711	0.000526	5.259089	0.890914	-0.010520
1697	8.4800e-01	3.0346	-0.025230	0.000235	2.351625	0.398376	-0.004704
1698	8.4850e-01	3.0264	-0.064571	0.000393	3.933627	0.666375	-0.007868
1699	8.4900e-01	3.0148	-0.109044	0.000445	4.446709	0.753293	-0.008895
1700	8.4950e-01	3.0072	-0.131709	0.000227	2.266111	0.383890	-0.004533
1701	8.5000e-01	2.9974	-0.167629	0.000359	3.591573	0.608429	-0.007184
1702	8.5050e-01	2.9852	-0.211675	0.000440	4.403952	0.746050	-0.008809
1703	8.5100e-01	2.9758	-0.237760	0.000261	2.608166	0.441835	-0.005217
1704	8.5150e-01	2.9669	-0.301476	0.000637	6.370766	1.079237	-0.012743
1705	8.5200e-01	2.9565	-0.341245	0.000398	3.976384	0.673618	-0.007954
1706	8.5250e-01	2.9449	-0.369896	0.000286	2.864707	0.485294	-0.005730
1707	8.5300e-01	2.9370	-0.394698	0.000248	2.479895	0.420106	-0.004960
1708	8.5350e-01	2.9256	-0.440454	0.000457	4.574980	0.775023	-0.009151
1709	8.5400e-01	2.9169	-0.480651	0.000402	4.019141	0.680861	-0.008039
1710	8.5450e-01	2.9057	-0.514861	0.000342	3.420546	0.579456	-0.006842
1711	8.5500e-01	2.8992	-0.542229	0.000274	2.736436	0.463565	-0.005474
1712	8.5550e-01	2.8853	-0.601241	0.000590	5.900441	0.999562	-0.011802
1713	8.5600e-01	2.8748	-0.609366	0.000081	0.812380	0.137621	-0.001625
1714	8.5650e-01	2.8638	-0.659398	0.000500	5.002548	0.847455	-0.010006
1715	8.5700e-01	2.8545	-0.706009	0.000466	4.660493	0.789509	-0.009322
1716	8.5750e-01	2.8476	-0.743213	0.000372	3.719843	0.630159	-0.007441
1717	8.5800e-01	2.8336	-0.766304	0.000231	2.308868	0.391133	-0.004618
1718	8.5850e-01	2.8246	-0.809067	0.000428	4.275682	0.724320	-0.008553
1719	8.5900e-01	2.8146	-0.865514	0.000564	5.643900	0.956103	-0.011289
1720	8.5950e-01	2.8058	-0.903572	0.000381	3.805357	0.644645	-0.007612
1721	8.6000e-01	2.7979	-0.922815	0.000192	1.924057	0.325944	-0.003849
1722	8.6050e-01	2.7847	-0.967288	0.000445	4.446709	0.753293	-0.008895
1723	8.6100e-01	2.7740	-1.022024	0.000547	5.472873	0.927130	-0.010947
1724	8.6150e-01	2.7653	-1.038702	0.000167	1.667516	0.282485	-0.003335
1725	8.6200e-01	2.7557	-1.072912	0.000342	3.420546	0.579456	-0.006842
1726	8.6250e-01	2.7449	-1.107122	0.000342	3.420546	0.579456	-0.006842
1727	8.6300e-01	2.7368	-1.141332	0.000342	3.420546	0.579456	-0.006842
1728	8.6350e-01	2.7244	-1.187515	0.000462	4.617736	0.782266	-0.009237
1729	8.6400e-01	2.7161	-1.234554	0.000470	4.703250	0.796752	-0.009408
1730	8.6450e-01	2.7051	-1.282021	0.000475	4.746007	0.803995	-0.009493
1731	8.6500e-01	2.6956	-1.314520	0.000325	3.249518	0.550483	-0.006500
1732	8.6550e-01	2.6855	-1.354289	0.000398	3.976384	0.673618	-0.007954
1733	8.6600e-01	2.6766	-1.402183	0.000479	4.788764	0.811239	-0.009579
1734	8.6650e-01	2.6662	-1.433828	0.000316	3.164005	0.535997	-0.006329
1735	8.6700e-01	2.6594	-1.452215	0.000184	1.838543	0.311458	-0.003678
1736	8.6750e-01	2.6440	-1.497544	0.000453	4.532223	0.767779	-0.009066
1737	8.6800e-01	2.6358	-1.537313	0.000398	3.976384	0.673618	-0.007954
1738	8.6850e-01	2.6260	-1.587345	0.000500	5.002548	0.847455	-0.010006
1739	8.6900e-01	2.6154	-1.636522	0.000492	4.917034	0.832968	-0.009835
1740	8.6950e-01	2.6031	-1.659186	0.000227	2.266111	0.383890	-0.004533
1741	8.7000e-01	2.5937	-1.693396	0.000342	3.420546	0.579456	-0.006842
1742	8.7050e-01	2.5833	-1.731455	0.000381	3.805357	0.644645	-0.007612
1743	8.7100e-01	2.5760	-1.766092	0.000346	3.463302	0.586699	-0.006928
1744	8.7150e-01	2.5666	-1.822111	0.000560	5.601143	0.948859	-0.011204
1745	8.7200e-01	2.5557	-1.845631	0.000235	2.351625	0.398376	-0.004704
1746	8.7250e-01	2.5446	-1.905498	0.000599	5.985955	1.014048	-0.011974
1747	8.7300e-01	2.5351	-1.918755	0.000133	1.325461	0.224539	-0.002651
1748	8.7350e-01	2.5266	-1.965793	0.000470	4.703250	0.796752	-0.009408
1749	8.7400e-01	2.5175	-1.995727	0.000299	2.992977	0.507024	-0.005987
1750	8.7450e-01	2.5073	-2.056450	0.000607	6.071468	1.028535	-0.012145
1751	8.7500e-01	2.4936	-2.073983	0.000175	1.753030	0.296971	-0.003507
1752	8.7550e-01	2.4881	-2.134705	0.000607	6.071468	1.028535	-0.012145
1753	8.7600e-01	2.4751	-2.148389	0.000137	1.368218	0.231782	-0.002737
1754	8.7650e-01	2.4658	-2.200987	0.000526	5.259089	0.890914	-0.010520
1755	8.7700e-01	2.4567	-2.241184	0.000402	4.019141	0.680861	-0.008039
1756	8.7750e-01	2.4457	-2.280526	0.000393	3.933627	0.666375	-0.007868
1757	8.7800e-01	2.4353	-2.296348	0.000158	1.582002	0.267998	-0.003164
1758	8.7850e-01	2.4245	-2.353650	0.000573	5.729414	0.970589	-0.011460
1759	8.7900e-01	2.4161	-2.387004	0.000334	3.335032	0.564970	-0.006671
1760	8.7950e-01	2.4048	-2.427629	0.000406	4.061898	0.688104	-0.008125
1761	8.8000e-01	2.3933	-2.479799	0.000522	5.216332	0.883671	-0.010434
1762	8.8050e-01	2.3866	-2.514864	0.000351	3.506059	0.593942	-0.007013
1763	8.8100e-01	2.3712	-2.548647	0.000338	3.377789	0.572213	-0.006756
1764	8.8150e-01	2.3665	-2.592692	0.000440	4.403952	0.746050	-0.008809
1765	8.8200e-01	2.3544	-2.626902	0.000342	3.420546	0.579456	-0.006842
1766	8.8250e-01	2.3447	-2.638876	0.000120	1.197191	0.202810	-0.002395
1767	8.8300e-01	2.3364	-2.721407	0.000825	8.252066	1.397938	-0.016506
1768	8.8350e-01	2.3258	-2.739795	0.000184	1.838543	0.311458	-0.003678
1769	8.8400e-01	2.3157	-2.794104	0.000543	5.430116	0.919887	-0.010862
1770	8.8450e-01	2.3061	-2.819333	0.000252	2.522652	0.427349	-0.005046
1771	8.8500e-01	2.2959	-2.877918	0.000586	5.857684	0.992319	-0.011717
1772	8.8550e-01	2.2849	-2.898016	0.000201	2.009570	0.340430	-0.004020
1773	8.8600e-01	2.2749	-2.937786	0.000398	3.976384	0.673618	-0.007954
1774	8.8650e-01	2.2650	-2.992949	0.000552	5.515630	0.934373	-0.011033
1775	8.8700e-01	2.2519	-3.007061	0.000141	1.410975	0.239026	-0.002822
1776	8.8750e-01	2.2464	-3.082751	0.000757	7.567957	1.282047	-0.015138
1777	8.8800e-01	2.2342	-3.097717	0.000150	1.496489	0.253512	-0.002993
1778	8.8850e-01	2.2242	-3.125941	0.000282	2.821950	0.478051	-0.005645
1779	8.8900e-01	2.2157	-3.181532	0.000556	5.558386	0.941616	-0.011118
1780	8.8950e-01	2.2049	-3.231137	0.000496	4.959791	0.840211	-0.009921
1781	8.9000e-01	2.1957	-3.261926	0.000308	3.078491	0.521510	-0.006158
1782	8.9050e-01	2.1864	-3.276465	0.000145	1.453732	0.246269	-0.002908
1783	8.9100e-01	2.1747	-3.343174	0.000667	6.670064	1.129939	-0.013342
1784	8.9150e-01	2.1649	-3.376957	0.000338	3.377789	0.572213	-0.006756
1785	8.9200e-01	2.1576	-3.426134	0.000492	4.917034	0.832968	-0.009835
1786	8.9250e-01	2.1454	-3.448370	0.000222	2.223355	0.376646	-0.004447
1787	8.9300e-01	2.1338	-3.469324	0.000210	2.095084	0.354917	-0.004191
1788	8.9350e-01	2.1249	-3.532185	0.000629	6.285252	1.064751	-0.012572
1789	8.9400e-01	2.1161	-3.585638	0.000534	5.344602	0.905400	-0.010691
1790	8.9450e-01	2.1072	-3.619420	0.000338	3.377789	0.572213	-0.006756
1791	8.9500e-01	2.0950	-3.672018	0.000526	5.259089	0.890914	-0.010520
1792	8.9550e-01	2.0856	-3.689978	0.000180	1.795786	0.304214	-0.003592
1793	8.9600e-01	2.0782	-3.751129	0.000611	6.114225	1.035778	-0.012230
1794	8.9650e-01	2.0655	-3.773365	0.000222	2.223355	0.376646	-0.004447
1795	8.9700e-01	2.0591	-3.806293	0.000329	3.292275	0.557726	-0.006585
1796	8.9750e-01	2.0454	-3.858890	0.000526	5.259089	0.890914	-0.010520
1797	8.9800e-01	2.0343	-3.911061	0.000522	5.216332	0.883671	-0.010434
1798	8.9850e-01	2.0251	-3.940139	0.000291	2.907464	0.492538	-0.005816
1799	8.9900e-01	2.0163	-3.982902	0.000428	4.275682	0.724320	-0.008553
1800	8.9950e-01	2.0067	-4.022671	0.000398	3.976384	0.673618	-0.007954
1801	9.0000e-01	1.9936	-4.055170	0.000325	3.249518	0.550483	-0.006500
1802	9.0050e-01	1.9826	-4.100926	0.000457	4.574980	0.775023	-0.009151
1803	9.0100e-01	1.9760	-4.130005	0.000291	2.907464	0.492538	-0.005816
1804	9.0150e-01	1.9647	-4.183886	0.000539	5.387359	0.912643	-0.010776
1805	9.0200e-01	1.9560	-4.236056	0.000522	5.216332	0.883671	-0.010434
1806	9.0250e-01	1.9450	-4.250168	0.000141	1.410975	0.239026	-0.002822
1807	9.0300e-01	1.9386	-4.307042	0.000569	5.686657	0.963346	-0.011375
1808	9.0350e-01	1.9278	-4.345956	0.000389	3.890871	0.659131	-0.007783
1809	9.0400e-01	1.9135	-4.372468	0.000265	2.650923	0.449078	-0.005303
1810	9.0450e-01	1.9017	-4.422501	0.000500	5.002548	0.847455	-0.010006
1811	9.0500e-01	1.8970	-4.473388	0.000509	5.088061	0.861941	-0.010177
1812	9.0550e-01	1.8854	-4.498618	0.000252	2.522652	0.427349	-0.005046
1813	9.0600e-01	1.8738	-4.533256	0.000346	3.463302	0.586699	-0.006928
1814	9.0650e-01	1.8642	-4.576873	0.000436	4.361196	0.738807	-0.008724
1815	9.0700e-01	1.8549	-4.623057	0.000462	4.617736	0.782266	-0.009237
1816	9.0750e-01	1.8454	-4.682924	0.000599	5.985955	1.014048	-0.011974
1817	9.0800e-01	1.8333	-4.719273	0.000363	3.634330	0.615672	-0.007270
1818	9.0850e-01	1.8263	-4.764601	0.000453	4.532223	0.767779	-0.009066
1819	9.0900e-01	1.8158	-4.801377	0.000368	3.677086	0.622915	-0.007355
1820	9.0950e-01	1.8050	-4.833021	0.000316	3.164005	0.535997	-0.006329
1821	9.1000e-01	1.7975	-4.878777	0.000457	4.574980	0.775023	-0.009151
1822	9.1050e-01	1.7844	-4.926671	0.000479	4.788764	0.811239	-0.009579
1823	9.1100e-01	1.7732	-4.971999	0.000453	4.532223	0.767779	-0.009066
1824	9.1150e-01	1.7667	-5.003216	0.000312	3.121248	0.528754	-0.006243
1825	9.1200e-01	1.7548	-5.050682	0.000475	4.746007	0.803995	-0.009493
1826	9.1250e-01	1.7441	-5.084465	0.000338	3.377789	0.572213	-0.006756
1827	9.1300e-01	1.7339	-5.115254	0.000308	3.078491	0.521510	-0.006158
1828	9.1350e-01	1.7261	-5.176832	0.000616	6.156982	1.043021	-0.012316
1829	9.1400e-01	1.7144	-5.187522	0.000107	1.068920	0.181080	-0.002138
1830	9.1450e-01	1.7081	-5.257225	0.000697	6.969361	1.180642	-0.013941
1831	9.1500e-01	1.6963	-5.291435	0.000342	3.420546	0.579456	-0.006842
1832	9.1550e-01	1.6862	-5.330777	0.000393	3.933627	0.666375	-0.007868
1833	9.1600e-01	1.6743	-5.373539	0.000428	4.275682	0.724320	-0.008553
1834	9.1650e-01	1.6675	-5.403045	0.000295	2.950220	0.499781	-0.005901
1835	9.1700e-01	1.6571	-5.459064	0.000560	5.601143	0.948859	-0.011204
1836	9.1750e-01	1.6443	-5.494557	0.000355	3.548816	0.601186	-0.007099
1837	9.1800e-01	1.6354	-5.533899	0.000393	3.933627	0.666375	-0.007868
1838	9.1850e-01	1.6250	-5.586924	0.000530	5.301846	0.898157	-0.010605
1839	9.1900e-01	1.6154	-5.614292	0.000274	2.736436	0.463565	-0.005474
1840	9.1950e-01	1.6051	-5.653206	0.000389	3.890871	0.659131	-0.007783
1841	9.2000e-01	1.5977	-5.702811	0.000496	4.959791	0.840211	-0.009921
1842	9.2050e-01	1.5824	-5.746856	0.000440	4.403952	0.746050	-0.008809
1843	9.2100e-01	1.5759	-5.794322	0.000475	4.746007	0.803995	-0.009493
1844	9.2150e-01	1.5652	-5.837940	0.000436	4.361196	0.738807	-0.008724
1845	9.2200e-01	1.5558	-5.875144	0.000372	3.719843	0.630159	-0.007441
1846	9.2250e-01	1.5442	-5.920044	0.000449	4.489466	0.760536	-0.008980
1847	9.2300e-01	1.5363	-5.956392	0.000363	3.634330	0.615672	-0.007270
1848	9.2350e-01	1.5254	-6.001293	0.000449	4.489466	0.760536	-0.008980
1849	9.2400e-01	1.5149	-6.032082	0.000308	3.078491	0.521510	-0.006158
1850	9.2450e-01	1.5035	-6.073989	0.000419	4.190168	0.709834	-0.008381
1851	9.2500e-01	1.4961	-6.114186	0.000402	4.019141	0.680861	-0.008039
1852	9.2550e-01	1.4853	-6.168067	0.000539	5.387359	0.912643	-0.010776
1853	9.2600e-01	1.4757	-6.207836	0.000398	3.976384	0.673618	-0.007954
1854	9.2650e-01	1.4651	-6.230928	0.000231	2.308868	0.391133	-0.004618
1855	9.2700e-01	1.4557	-6.288230	0.000573	5.729414	0.970589	-0.011460
1856	9.2750e-01	1.4442	-6.340400	0.000522	5.216332	0.883671	-0.010434
1857	9.2800e-01	1.4331	-6.351091	0.000107	1.068920	0.181080	-0.002138
1858	9.2850e-01	1.4253	-6.412669	0.000616	6.156982	1.043021	-0.012316
1859	9.2900e-01	1.4198	-6.448589	0.000359	3.591573	0.608429	-0.007184
1860	9.2950e-01	1.4043	-6.507174	0.000586	5.857684	0.992319	-0.011717
1861	9.3000e-01	1.3969	-6.535397	0.000282	2.821950	0.478051	-0.005645
1862	9.3050e-01	1.3846	-6.582436	0.000470	4.703250	0.796752	-0.009408
1863	9.3100e-01	1.3761	-6.643159	0.000607	6.071468	1.028535	-0.012145
1864	9.3150e-01	1.3628	-6.667533	0.000244	2.437139	0.412862	-0.004875
1865	9.3200e-01	1.3544	-6.723125	0.000556	5.558386	0.941616	-0.011118
1866	9.3250e-01	1.3453	-6.753486	0.000304	3.035734	0.514267	-0.006072
1867	9.3300e-01	1.3326	-6.807794	0.000543	5.430116	0.919887	-0.010862
1868	9.3350e-01	1.3260	-6.853978	0.000462	4.617736	0.782266	-0.009237
1869	9.3400e-01	1.3117	-6.868090	0.000141	1.410975	0.239026	-0.002822
1870	9.3450e-01	1.3025	-6.930950	0.000629	6.285252	1.064751	-0.012572
1871	9.3500e-01	1.2941	-6.961739	0.000308	3.078491	0.521510	-0.006158
1872	9.3550e-01	1.2862	-7.013055	0.000513	5.130818	0.869184	-0.010263
1873	9.3600e-01	1.2750	-7.036574	0.000235	2.351625	0.398376	-0.004704
1874	9.3650e-01	1.2643	-7.109270	0.000727	7.268659	1.231344	-0.014539
1875	9.3700e-01	1.2538	-7.129369	0.000201	2.009570	0.340430	-0.004020
1876	9.3750e-01	1.2473	-7.161013	0.000316	3.164005	0.535997	-0.006329
1877	9.3800e-01	1.2363	-7.227295	0.000663	6.627307	1.122696	-0.013256
1878	9.3850e-01	1.2263	-7.267919	0.000406	4.061898	0.688104	-0.008125
1879	9.3900e-01	1.2156	-7.323510	0.000556	5.558386	0.941616	-0.011118
1880	9.3950e-01	1.2051	-7.348740	0.000252	2.522652	0.427349	-0.005046
1881	9.4000e-01	1.1980	-7.393641	0.000449	4.489466	0.760536	-0.008980
1882	9.4050e-01	1.1868	-7.424430	0.000308	3.078491	0.521510	-0.006158
1883	9.4100e-01	1.1749	-7.492850	0.000684	6.841091	1.158912	-0.013684
1884	9.4150e-01	1.1671	-7.504396	0.000115	1.154434	0.195566	-0.002309
1885	9.4200e-01	1.1555	-7.565546	0.000611	6.114225	1.035778	-0.012230
1886	9.4250e-01	1.1469	-7.618144	0.000526	5.259089	0.890914	-0.010520
1887	9.4300e-01	1.1379	-7.639098	0.000210	2.095084	0.354917	-0.004191
1888	9.4350e-01	1.1256	-7.687847	0.000487	4.874277	0.825725	-0.009750
1889	9.4400e-01	1.1173	-7.723768	0.000359	3.591573	0.608429	-0.007184
1890	9.4450e-01	1.1033	-7.788767	0.000650	6.499036	1.100967	-0.013000
1891	9.4500e-01	1.0966	-7.828964	0.000402	4.019141	0.680861	-0.008039
1892	9.4550e-01	1.0852	-7.865312	0.000363	3.634330	0.615672	-0.007270
1893	9.4600e-01	1.0748	-7.917910	0.000526	5.259089	0.890914	-0.010520
1894	9.4650e-01	1.0682	-7.936297	0.000184	1.838543	0.311458	-0.003678
1895	9.4700e-01	1.0577	-7.986757	0.000505	5.045305	0.854698	-0.010092
1896	9.4750e-01	1.0452	-8.049618	0.000629	6.285252	1.064751	-0.012572
1897	9.4800e-01	1.0346	-8.079980	0.000304	3.035734	0.514267	-0.006072
1898	9.4850e-01	1.0253	-8.141558	0.000616	6.156982	1.043021	-0.012316
1899	9.4900e-01	1.0149	-8.179189	0.000376	3.762600	0.637402	-0.007526
1900	9.4950e-01	1.0072	-8.203563	0.000244	2.437139	0.412862	-0.004875
1901	9.5000e-01	0.9962	-8.265141	0.000616	6.156982	1.043021	-0.012316
1902	9.5050e-01	0.9891	-8.307904	0.000428	4.275682	0.724320	-0.008553
1903	9.5100e-01	0.9735	-8.334844	0.000269	2.693680	0.456322	-0.005388
1904	9.5150e-01	0.9653	-8.386159	0.000513	5.130818	0.869184	-0.010263
1905	9.5200e-01	0.9547	-8.404120	0.000180	1.795786	0.304214	-0.003592
1906	9.5250e-01	0.9445	-8.481520	0.000774	7.738984	1.311019	-0.015480
1907	9.5300e-01	0.9359	-8.522999	0.000415	4.147411	0.702591	-0.008296
1908	9.5350e-01	0.9244	-8.547802	0.000248	2.479895	0.420106	-0.004960
1909	9.5400e-01	0.9126	-8.600827	0.000530	5.301846	0.898157	-0.010605
1910	9.5450e-01	0.9047	-8.641452	0.000406	4.061898	0.688104	-0.008125
1911	9.5500e-01	0.8958	-8.701319	0.000599	5.985955	1.014048	-0.011974
1912	9.5550e-01	0.8862	-8.740233	0.000389	3.890871	0.659131	-0.007783
1913	9.5600e-01	0.8743	-8.765891	0.000257	2.565409	0.434592	-0.005132
1914	9.5650e-01	0.8650	-8.825330	0.000594	5.943198	1.006805	-0.011888
1915	9.5700e-01	0.8577	-8.868093	0.000428	4.275682	0.724320	-0.008553
1916	9.5750e-01	0.8473	-8.915559	0.000475	4.746007	0.803995	-0.009493
1917	9.5800e-01	0.8372	-8.939506	0.000239	2.394382	0.405619	-0.004789
1918	9.5850e-01	0.8282	-9.003223	0.000637	6.370766	1.079237	-0.012743
1919	9.5900e-01	0.8131	-9.039143	0.000359	3.591573	0.608429	-0.007184
1920	9.5950e-01	0.8048	-9.095162	0.000560	5.601143	0.948859	-0.011204
1921	9.6000e-01	0.7988	-9.114833	0.000197	1.966814	0.333187	-0.003934
1922	9.6050e-01	0.7854	-9.180687	0.000658	6.584550	1.115453	-0.013171
1923	9.6100e-01	0.7743	-9.234568	0.000539	5.387359	0.912643	-0.010776
1924	9.6150e-01	0.7653	-9.266212	0.000316	3.164005	0.535997	-0.006329
1925	9.6200e-01	0.7568	-9.313251	0.000470	4.703250	0.796752	-0.009408
1926	9.6250e-01	0.7446	-9.357724	0.000445	4.446709	0.753293	-0.008895
1927	9.6300e-01	0.7337	-9.403907	0.000462	4.617736	0.782266	-0.009237
1928	9.6350e-01	0.7247	-9.447525	0.000436	4.361196	0.738807	-0.008724
1929	9.6400e-01	0.7159	-9.494992	0.000475	4.746007	0.803995	-0.009493
1930	9.6450e-01	0.7062	-9.524498	0.000295	2.950220	0.499781	-0.005901
1931	9.6500e-01	0.6953	-9.571964	0.000475	4.746007	0.803995	-0.009493
1932	9.6550e-01	0.6847	-9.605747	0.000338	3.377789	0.572213	-0.006756
1933	9.6600e-01	0.6752	-9.653213	0.000475	4.746007	0.803995	-0.009493
1934	9.6650e-01	0.6642	-9.690416	0.000372	3.719843	0.630159	-0.007441
1935	9.6700e-01	0.6540	-9.749856	0.000594	5.943198	1.006805	-0.011888
1936	9.6750e-01	0.6445	-9.800316	0.000505	5.045305	0.854698	-0.010092
1937	9.6800e-01	0.6358	-9.828539	0.000282	2.821950	0.478051	-0.005645
1938	9.6850e-01	0.6243	-9.875578	0.000470	4.703250	0.796752	-0.009408
1939	9.6900e-01	0.6161	-9.936729	0.000611	6.114225	1.035778	-0.012230
1940	9.6950e-01	0.6068	-9.971366	0.000346	3.463302	0.586699	-0.006928
1941	9.7000e-01	0.5966	-10.028668	0.000573	5.729414	0.970589	-0.011460
1942	9.7050e-01	0.5840	-10.043207	0.000145	1.453732	0.246269	-0.002908
1943	9.7100e-01	0.5760	-10.091101	0.000479	4.788764	0.811239	-0.009579
1944	9.7150e-01	0.5686	-10.164653	0.000735	7.354173	1.245831	-0.014710
1945	9.7200e-01	0.5560	-10.191593	0.000269	2.693680	0.456322	-0.005388
1946	9.7250e-01	0.5461	-10.250178	0.000586	5.857684	0.992319	-0.011717
1947	9.7300e-01	0.5367	-10.283960	0.000338	3.377789	0.572213	-0.006756
1948	9.7350e-01	0.5247	-10.341262	0.000573	5.729414	0.970589	-0.011460
1949	9.7400e-01	0.5167	-10.378038	0.000368	3.677086	0.622915	-0.007355
1950	9.7450e-01	0.5051	-10.412675	0.000346	3.463302	0.586699	-0.006928
1951	9.7500e-01	0.4955	-10.485372	0.000727	7.268659	1.231344	-0.014539
1952	9.7550e-01	0.4865	-10.508463	0.000231	2.308868	0.391133	-0.004618
1953	9.7600e-01	0.4774	-10.550798	0.000423	4.232925	0.717077	-0.008467
1954	9.7650e-01	0.4671	-10.584581	0.000338	3.377789	0.572213	-0.006756
1955	9.7700e-01	0.4543	-10.638889	0.000543	5.430116	0.919887	-0.010862
1956	9.7750e-01	0.4426	-10.711158	0.000723	7.225902	1.224101	-0.014454
1957	9.7800e-01	0.4350	-10.732539	0.000214	2.137841	0.362160	-0.004276
1958	9.7850e-01	0.4237	-10.793262	0.000607	6.071468	1.028535	-0.012145
1959	9.7900e-01	0.4148	-10.815071	0.000218	2.180598	0.369403	-0.004362
1960	9.7950e-01	0.4063	-10.876221	0.000611	6.114225	1.035778	-0.012230
1961	9.8000e-01	0.3971	-10.911714	0.000355	3.548816	0.601186	-0.007099
1962	9.8050e-01	0.3857	-10.954477	0.000428	4.275682	0.724320	-0.008553
1963	9.8100e-01	0.3764	-10.991680	0.000372	3.719843	0.630159	-0.007441
1964	9.8150e-01	0.3654	-11.032304	0.000406	4.061898	0.688104	-0.008125
1965	9.8200e-01	0.3557	-11.079343	0.000470	4.703250	0.796752	-0.009408
1966	9.8250e-01	0.3426	-11.125099	0.000457	4.574980	0.775023	-0.009151
1967	9.8300e-01	0.3350	-11.208914	0.000838	8.380336	1.419667	-0.016763
1968	9.8350e-01	0.3249	-11.225591	0.000167	1.667516	0.282485	-0.003335
1969	9.8400e-01	0.3146	-11.289735	0.000641	6.413523	1.086480	-0.012829
1970	9.8450e-01	0.3045	-11.314110	0.000244	2.437139	0.412862	-0.004875
1971	9.8500e-01	0.2962	-11.352168	0.000381	3.805357	0.644645	-0.007612
1972	9.8550e-01	0.2854	-11.409042	0.000569	5.686657	0.963346	-0.011375
1973	9.8600e-01	0.2756	-11.451805	0.000428	4.275682	0.724320	-0.008553
1974	9.8650e-01	0.2647	-11.504830	0.000530	5.301846	0.898157	-0.010605
1975	9.8700e-01	0.2567	-11.530916	0.000261	2.608166	0.441835	-0.005217
1976	9.8750e-01	0.2449	-11.590355	0.000594	5.943198	1.006805	-0.011888
1977	9.8800e-01	0.2364	-11.637822	0.000475	4.746007	0.803995	-0.009493
1978	9.8850e-01	0.2242	-11.687426	0.000496	4.959791	0.840211	-0.009921
1979	9.8900e-01	0.2130	-11.737459	0.000500	5.002548	0.847455	-0.010006
1980	9.8950e-01	0.2049	-11.760978	0.000235	2.351625	0.398376	-0.004704
1981	9.9000e-01	0.1957	-11.814431	0.000534	5.344602	0.905400	-0.010691
1982	9.9050e-01	0.1870	-11.880285	0.000658	6.584550	1.115453	-0.013171
1983	9.9100e-01	0.1752	-11.910219	0.000299	2.992977	0.507024	-0.005987
1984	9.9150e-01	0.1680	-11.955120	0.000449	4.489466	0.760536	-0.008980
1985	9.9200e-01	0.1539	-11.985054	0.000299	2.992977	0.507024	-0.005987
1986	9.9250e-01	0.1438	-12.047487	0.000624	6.242496	1.057507	-0.012487
1987	9.9300e-01	0.1359	-12.103933	0.000564	5.643900	0.956103	-0.011289
1988	9.9350e-01	0.1255	-12.129591	0.000257	2.565409	0.434592	-0.005132
1989	9.9400e-01	0.1156	-12.197156	0.000676	6.755577	1.144426	-0.013513
1990	9.9450e-01	0.1049	-12.247615	0.000505	5.045305	0.854698	-0.010092
1991	9.9500e-01	0.0973	-12.283536	0.000359	3.591573	0.608429	-0.007184
1992	9.9550e-01	0.0856	-12.321167	0.000376	3.762600	0.637402	-0.007526
1993	9.9600e-01	0.0749	-12.375903	0.000547	5.472873	0.927130	-0.010947
1994	9.9650e-01	0.0675	-12.416100	0.000402	4.019141	0.680861	-0.008039
1995	9.9700e-01	0.0565	-12.464422	0.000483	4.831521	0.818482	-0.009664
1996	9.9750e-01	0.0452	-12.509750	0.000453	4.532223	0.767779	-0.009066
1997	9.9800e-01	0.0349	-12.549091	0.000393	3.933627	0.666375	-0.007868
1998	9.9850e-01	0.0266	-12.588005	0.000389	3.890871	0.659131	-0.007783
1999	9.9900e-01	0.0179	-12.646162	0.000581	5.814927	0.985075	-0.011631
2000	9.9950e-01	0.0034	-12.676096	0.000299	2.992977	0.507024	-0.005987
2001	1.0000e+00	-0.0034	-12.741523	0.000299	2.992977	0.507024	-0.013085

PMax (uC/cm2):	3.76e+01
Pr (uC/cm2):	6.08e+00
-Pr (uC/cm2):	0.00e+00
PLoss (uC/cm2):	0.00e+00
C (Max-Eff) (nF):	3.76e-01
K (Eff):	6.37e+02
Vert. (+/-Pr) Shift (uC/cm2):	3.04e+00
Offset (uC/cm2):	1.88e+01

A (Loop Area - uC/cm2·Volts):	-5.72e-02



Hysteresis Version: 5.48.1 - Radiant Technologies, Inc., 1999 - 9/12/24

