»»»»»»»»»»»»»»»»»»»»»»»»»»»»»»»»»»»» Hysteresis ««««««««««««««««««««««««««««««««««««
»»»  Executed Version:	5.48.1
»»»  Vision Version:	5.48.4 (R)
»»»  Vision Compiled:	9/18/24
»»»  Driver Version:	5.47.0
»»»  Windows Version:	Windows 8 or 8.1
»»»  Processor Information:	x86 (AMD or Intel) - 32 Processors
»»»  Tester Name:	PMF21124-494 (100V)
»»»  Tester S/N:	PMF21124-494
»»»  Internal Amp Type:	100V RevK 270k
»»»  Internal Amp S/N:	iAB2-596/K     
»»»  Execution Count:	1
»»»»»»»»»»»»»»»»»»»»»»»»»»»»»»»»»»»»»»»»»»««««««««««««««««««««««««««««««««««««««««««

Stored:	6/30/2025 - 13:34:16
Configured:	06/30/25 10:19:58 AM
Executed:	06/30/25 01:33:50 PM

»»»»»»»»»»»»»»»»»»»»»»»»»»»»»»»»»»» Sample Info ««««««««««««««««««««««««««««««««««««
Sample Name:	
Lot Name:	
Wafer Name:	
Die Row/Column:	0/0
Capacitor Number:	0
Sample Area (cm2):	1.00e-04
Sample Thickness (microns):	1.50e-01

Amplifier:	Internal

»»»»»»»»»»»»»»»»»»»»»»»»»»»»»»»»»»» Tester Info «««««««««««««««««««««««««««««««««««
Tester Name:	PMF21124-494 (100V)
Tester Serial Number:	PMF21124-494
Return Signal Amp. Level:	1.79 [Index: 2]

»»»»»»»»»»»»»»»»»»»»»»»»»»»»»»»» Hysteresis Info ««««««««««««««««««««««««««««««««««
Task Name:	Hyst-1804
Volts:	10.00
Field:	666.67 (kV/cm)
DCBias:	0.00
DCField:	0.00 (kV/cm)
Hysteresis Period (ms):	1.00e+00
Preset:	Enabled
Preset Delay (ms):	1.00e+03
Profile:	Standard Monopolar

»»»»»»»»»»»»»»»»»»»»»»»»»»»»»»»»»»»»»» Data «««««««««««««««««««««««««««««««««««««««
Points:	2001

Valid Data

Point	Time (ms)	Drive Voltage	Measured Polarization (uC/cm2)	Capacitance (uF)	Normalized Capacitance (uF/cm2)	Dielectric Constant	Instantaneous Current (mA)
   1	0.0000e+00	-0.0052	-18.045573	0.000492	4.917297	0.833013	0.009835
   2	5.0000e-04	0.0062	-17.996396	0.000492	4.917297	0.833013	0.009835
   3	1.0000e-03	0.0143	-17.919423	0.000770	7.696638	1.303846	0.015395
   4	1.5000e-03	0.0268	-17.840313	0.000791	7.910434	1.340064	0.015822
   5	2.0000e-03	0.0365	-17.824063	0.000162	1.624846	0.275256	0.003250
   6	2.5000e-03	0.0478	-17.772320	0.000517	5.173851	0.876474	0.010349
   7	3.0000e-03	0.0542	-17.728275	0.000440	4.404188	0.746090	0.008809
   8	3.5000e-03	0.0678	-17.685512	0.000428	4.275910	0.724359	0.008553
   9	4.0000e-03	0.0743	-17.639756	0.000458	4.575224	0.775064	0.009151
  10	4.5000e-03	0.0867	-17.588014	0.000517	5.173851	0.876474	0.010349
  11	5.0000e-03	0.0948	-17.533705	0.000543	5.430406	0.919936	0.010862
  12	5.5000e-03	0.1065	-17.481963	0.000517	5.173851	0.876474	0.010349
  13	6.0000e-03	0.1174	-17.440483	0.000415	4.147633	0.702628	0.008296
  14	6.5000e-03	0.1271	-17.405845	0.000346	3.463487	0.586731	0.006928
  15	7.0000e-03	0.1379	-17.338281	0.000676	6.755938	1.144487	0.013513
  16	7.5000e-03	0.1441	-17.296373	0.000419	4.190392	0.709872	0.008381
  17	8.0000e-03	0.1566	-17.222822	0.000735	7.354566	1.245897	0.014710
  18	8.5000e-03	0.1649	-17.189467	0.000334	3.335210	0.565000	0.006671
  19	9.0000e-03	0.1764	-17.143711	0.000458	4.575224	0.775064	0.009151
  20	9.5000e-03	0.1858	-17.099666	0.000440	4.404188	0.746090	0.008809
  21	1.0000e-02	0.1945	-17.048778	0.000509	5.088333	0.861987	0.010177
  22	1.0500e-02	0.2049	-16.986345	0.000624	6.242829	1.057564	0.012487
  23	1.1000e-02	0.2169	-16.958549	0.000278	2.779342	0.470833	0.005559
  24	1.1500e-02	0.2261	-16.908945	0.000496	4.960056	0.840256	0.009921
  25	1.2000e-02	0.2377	-16.861478	0.000475	4.746260	0.804038	0.009493
  26	1.2500e-02	0.2470	-16.815295	0.000462	4.617983	0.782308	0.009237
  27	1.3000e-02	0.2539	-16.753717	0.000616	6.157311	1.043077	0.012316
  28	1.3500e-02	0.2658	-16.722928	0.000308	3.078655	0.521538	0.006158
  29	1.4000e-02	0.2749	-16.660495	0.000624	6.242829	1.057564	0.012487
  30	1.4500e-02	0.2879	-16.606614	0.000539	5.387647	0.912692	0.010776
  31	1.5000e-02	0.2968	-16.570266	0.000363	3.634524	0.615705	0.007270
  32	1.5500e-02	0.3051	-16.525365	0.000449	4.489706	0.760577	0.008980
  33	1.6000e-02	0.3181	-16.458228	0.000671	6.713179	1.137243	0.013427
  34	1.6500e-02	0.3271	-16.433853	0.000244	2.437269	0.412885	0.004875
  35	1.7000e-02	0.3385	-16.375268	0.000586	5.857997	0.992372	0.011717
  36	1.7500e-02	0.3464	-16.331651	0.000436	4.361428	0.738846	0.008724
  37	1.8000e-02	0.3533	-16.265796	0.000658	6.584902	1.115513	0.013171
  38	1.8500e-02	0.3683	-16.217047	0.000487	4.874538	0.825769	0.009750
  39	1.9000e-02	0.3735	-16.179844	0.000372	3.720042	0.630192	0.007441
  40	1.9500e-02	0.3854	-16.137509	0.000423	4.233151	0.717115	0.008467
  41	2.0000e-02	0.3950	-16.093463	0.000440	4.404188	0.746090	0.008809
  42	2.0500e-02	0.4048	-16.030175	0.000633	6.328347	1.072051	0.012658
  43	2.1000e-02	0.4156	-15.988268	0.000419	4.190392	0.709872	0.008381
  44	2.1500e-02	0.4235	-15.932249	0.000560	5.601442	0.948910	0.011204
  45	2.2000e-02	0.4372	-15.904881	0.000274	2.736583	0.463590	0.005474
  46	2.2500e-02	0.4446	-15.855704	0.000492	4.917297	0.833013	0.009835
  47	2.3000e-02	0.4541	-15.780014	0.000757	7.568361	1.282115	0.015138
  48	2.3500e-02	0.4684	-15.752218	0.000278	2.779342	0.470833	0.005559
  49	2.4000e-02	0.4755	-15.697055	0.000552	5.515924	0.934423	0.011033
  50	2.4500e-02	0.4865	-15.645312	0.000517	5.173851	0.876474	0.010349
  51	2.5000e-02	0.4959	-15.603832	0.000415	4.147633	0.702628	0.008296
  52	2.5500e-02	0.5069	-15.555083	0.000487	4.874538	0.825769	0.009750
  53	2.6000e-02	0.5181	-15.518735	0.000363	3.634524	0.615705	0.007270
  54	2.6500e-02	0.5255	-15.464427	0.000543	5.430406	0.919936	0.010862
  55	2.7000e-02	0.5353	-15.405414	0.000590	5.900756	0.999615	0.011802
  56	2.7500e-02	0.5483	-15.344692	0.000607	6.071792	1.028589	0.012145
  57	2.8000e-02	0.5550	-15.308771	0.000359	3.591765	0.608461	0.007184
  58	2.8500e-02	0.5674	-15.288245	0.000205	2.052437	0.347692	0.004105
  59	2.9000e-02	0.5756	-15.210845	0.000774	7.739397	1.311089	0.015480
  60	2.9500e-02	0.5862	-15.182194	0.000286	2.864860	0.485320	0.005730
  61	3.0000e-02	0.5977	-15.143708	0.000385	3.848319	0.651923	0.007697
  62	3.0500e-02	0.6053	-15.081702	0.000620	6.200070	1.050320	0.012401
  63	3.1000e-02	0.6163	-15.001308	0.000804	8.038711	1.361795	0.016079
  64	3.1500e-02	0.6271	-14.981210	0.000201	2.009678	0.340449	0.004020
  65	3.2000e-02	0.6376	-14.911935	0.000693	6.926975	1.173461	0.013855
  66	3.2500e-02	0.6469	-14.894830	0.000171	1.710364	0.289744	0.003421
  67	3.3000e-02	0.6546	-14.844798	0.000500	5.002815	0.847500	0.010006
  68	3.3500e-02	0.6674	-14.799042	0.000458	4.575224	0.775064	0.009151
  69	3.4000e-02	0.6754	-14.741740	0.000573	5.729720	0.970641	0.011460
  70	3.4500e-02	0.6846	-14.711379	0.000304	3.035896	0.514295	0.006072
  71	3.5000e-02	0.6940	-14.628419	0.000830	8.295266	1.405256	0.016592
  72	3.5500e-02	0.7051	-14.608321	0.000201	2.009678	0.340449	0.004020
  73	3.6000e-02	0.7152	-14.571545	0.000368	3.677283	0.622949	0.007355
  74	3.6500e-02	0.7252	-14.515526	0.000560	5.601442	0.948910	0.011204
  75	3.7000e-02	0.7355	-14.472764	0.000428	4.275910	0.724359	0.008553
  76	3.7500e-02	0.7438	-14.421449	0.000513	5.131092	0.869231	0.010263
  77	3.8000e-02	0.7548	-14.353456	0.000680	6.798697	1.151730	0.013598
  78	3.8500e-02	0.7661	-14.339345	0.000141	1.411050	0.239038	0.002822
  79	3.9000e-02	0.7745	-14.270924	0.000684	6.841456	1.158974	0.013684
  80	3.9500e-02	0.7862	-14.231155	0.000398	3.976596	0.673654	0.007954
  81	4.0000e-02	0.7960	-14.172571	0.000586	5.857997	0.992372	0.011717
  82	4.0500e-02	0.8041	-14.121256	0.000513	5.131092	0.869231	0.010263
  83	4.1000e-02	0.8174	-14.081059	0.000402	4.019356	0.680897	0.008039
  84	4.1500e-02	0.8273	-14.034448	0.000466	4.660742	0.789551	0.009322
  85	4.2000e-02	0.8374	-13.956192	0.000782	7.824916	1.325577	0.015651
  86	4.2500e-02	0.8456	-13.955765	0.000004	0.042759	0.007244	0.000086
  87	4.3000e-02	0.8565	-13.892476	0.000633	6.328347	1.072051	0.012658
  88	4.3500e-02	0.8659	-13.860832	0.000316	3.164174	0.536026	0.006329
  89	4.4000e-02	0.8783	-13.811655	0.000492	4.917297	0.833013	0.009835
  90	4.4500e-02	0.8872	-13.766754	0.000449	4.489706	0.760577	0.008980
  91	4.5000e-02	0.8942	-13.717150	0.000496	4.960056	0.840256	0.009921
  92	4.5500e-02	0.9062	-13.674815	0.000423	4.233151	0.717115	0.008467
  93	4.6000e-02	0.9154	-13.627776	0.000470	4.703501	0.796795	0.009408
  94	4.6500e-02	0.9261	-13.568764	0.000590	5.900756	0.999615	0.011802
  95	4.7000e-02	0.9338	-13.521297	0.000475	4.746260	0.804038	0.009493
  96	4.7500e-02	0.9475	-13.486660	0.000346	3.463487	0.586731	0.006928
  97	4.8000e-02	0.9575	-13.432351	0.000543	5.430406	0.919936	0.010862
  98	4.8500e-02	0.9676	-13.374194	0.000582	5.815238	0.985128	0.011631
  99	4.9000e-02	0.9778	-13.357945	0.000162	1.624846	0.275256	0.003250
 100	4.9500e-02	0.9879	-13.294656	0.000633	6.328347	1.072051	0.012658
 101	5.0000e-02	0.9966	-13.240775	0.000539	5.387647	0.912692	0.010776
 102	5.0500e-02	1.0069	-13.217683	0.000231	2.308992	0.391154	0.004618
 103	5.1000e-02	1.0188	-13.158671	0.000590	5.900756	0.999615	0.011802
 104	5.1500e-02	1.0247	-13.112488	0.000462	4.617983	0.782308	0.009237
 105	5.2000e-02	1.0374	-13.069725	0.000428	4.275910	0.724359	0.008553
 106	5.2500e-02	1.0465	-12.999595	0.000701	7.012493	1.187948	0.014026
 107	5.3000e-02	1.0555	-12.975220	0.000244	2.437269	0.412885	0.004875
 108	5.3500e-02	1.0668	-12.920056	0.000552	5.515924	0.934423	0.011033
 109	5.4000e-02	1.0745	-12.876011	0.000440	4.404188	0.746090	0.008809
 110	5.4500e-02	1.0896	-12.834104	0.000419	4.190392	0.709872	0.008381
 111	5.5000e-02	1.0958	-12.786637	0.000475	4.746260	0.804038	0.009493
 112	5.5500e-02	1.1056	-12.728480	0.000582	5.815238	0.985128	0.011631
 113	5.6000e-02	1.1182	-12.692987	0.000355	3.549005	0.601218	0.007099
 114	5.6500e-02	1.1264	-12.666047	0.000269	2.693823	0.456346	0.005388
 115	5.7000e-02	1.1365	-12.592495	0.000735	7.354566	1.245897	0.014710
 116	5.7500e-02	1.1489	-12.556147	0.000363	3.634524	0.615705	0.007270
 117	5.8000e-02	1.1576	-12.515095	0.000410	4.104874	0.695384	0.008210
 118	5.8500e-02	1.1670	-12.455655	0.000594	5.943515	1.006859	0.011888
 119	5.9000e-02	1.1755	-12.410327	0.000453	4.532465	0.767820	0.009066
 120	5.9500e-02	1.1853	-12.361578	0.000487	4.874538	0.825769	0.009750
 121	6.0000e-02	1.1971	-12.347466	0.000141	1.411050	0.239038	0.002822
 122	6.0500e-02	1.2074	-12.266217	0.000812	8.124229	1.376282	0.016250
 123	6.1000e-02	1.2177	-12.230724	0.000355	3.549005	0.601218	0.007099
 124	6.1500e-02	1.2265	-12.198652	0.000321	3.206933	0.543269	0.006414
 125	6.2000e-02	1.2358	-12.160166	0.000385	3.848319	0.651923	0.007697
 126	6.2500e-02	1.2477	-12.099016	0.000611	6.114552	1.035833	0.012230
 127	6.3000e-02	1.2579	-12.068227	0.000308	3.078655	0.521538	0.006158
 128	6.3500e-02	1.2668	-12.036155	0.000321	3.206933	0.543269	0.006414
 129	6.4000e-02	1.2797	-11.956616	0.000795	7.953193	1.347307	0.015908
 130	6.4500e-02	1.2861	-11.929248	0.000274	2.736583	0.463590	0.005474
 131	6.5000e-02	1.2991	-11.885631	0.000436	4.361428	0.738846	0.008724
 132	6.5500e-02	1.3065	-11.828757	0.000569	5.686961	0.963397	0.011375
 133	6.6000e-02	1.3148	-11.784284	0.000445	4.446947	0.753333	0.008895
 134	6.6500e-02	1.3264	-11.742804	0.000415	4.147633	0.702628	0.008296
 135	6.7000e-02	1.3353	-11.700469	0.000423	4.233151	0.717115	0.008467
 136	6.7500e-02	1.3492	-11.652147	0.000483	4.831779	0.818525	0.009664
 137	6.8000e-02	1.3556	-11.601688	0.000505	5.045574	0.854743	0.010092
 138	6.8500e-02	1.3672	-11.542675	0.000590	5.900756	0.999615	0.011802
 139	6.9000e-02	1.3760	-11.501623	0.000410	4.104874	0.695384	0.008210
 140	6.9500e-02	1.3873	-11.470407	0.000312	3.121414	0.528782	0.006243
 141	7.0000e-02	1.3942	-11.410539	0.000599	5.986274	1.014102	0.011974
 142	7.0500e-02	1.4067	-11.366066	0.000445	4.446947	0.753333	0.008895
 143	7.1000e-02	1.4201	-11.344685	0.000214	2.137955	0.362179	0.004276
 144	7.1500e-02	1.4276	-11.291232	0.000534	5.344888	0.905448	0.010691
 145	7.2000e-02	1.4365	-11.236068	0.000552	5.515924	0.934423	0.011033
 146	7.2500e-02	1.4439	-11.197582	0.000385	3.848319	0.651923	0.007697
 147	7.3000e-02	1.4560	-11.149260	0.000483	4.831779	0.818525	0.009664
 148	7.3500e-02	1.4691	-11.086399	0.000629	6.285588	1.064807	0.012572
 149	7.4000e-02	1.4764	-11.064163	0.000222	2.223473	0.376667	0.004447
 150	7.4500e-02	1.4868	-11.019690	0.000445	4.446947	0.753333	0.008895
 151	7.5000e-02	1.4978	-10.956829	0.000629	6.285588	1.064807	0.012572
 152	7.5500e-02	1.5070	-10.917487	0.000393	3.933837	0.666410	0.007868
 153	7.6000e-02	1.5157	-10.876863	0.000406	4.062115	0.688141	0.008125
 154	7.6500e-02	1.5241	-10.852916	0.000239	2.394510	0.405641	0.004789
 155	7.7000e-02	1.5345	-10.789199	0.000637	6.371106	1.079295	0.012743
 156	7.7500e-02	1.5442	-10.757128	0.000321	3.206933	0.543269	0.006414
 157	7.8000e-02	1.5520	-10.710516	0.000466	4.660742	0.789551	0.009322
 158	7.8500e-02	1.5663	-10.653215	0.000573	5.729720	0.970641	0.011460
 159	7.9000e-02	1.5770	-10.619005	0.000342	3.420728	0.579487	0.006842
 160	7.9500e-02	1.5861	-10.578808	0.000402	4.019356	0.680897	0.008039
 161	8.0000e-02	1.5948	-10.518940	0.000599	5.986274	1.014102	0.011974
 162	8.0500e-02	1.6087	-10.486868	0.000321	3.206933	0.543269	0.006414
 163	8.1000e-02	1.6181	-10.439830	0.000470	4.703501	0.796795	0.009408
 164	8.1500e-02	1.6292	-10.417166	0.000227	2.266232	0.383910	0.004533
 165	8.2000e-02	1.6376	-10.346607	0.000706	7.055252	1.195192	0.014112
 166	8.2500e-02	1.6473	-10.291444	0.000552	5.515924	0.934423	0.011033
 167	8.3000e-02	1.6553	-10.270062	0.000214	2.137955	0.362179	0.004276
 168	8.3500e-02	1.6662	-10.209340	0.000607	6.071792	1.028589	0.012145
 169	8.4000e-02	1.6760	-10.161446	0.000479	4.789019	0.811282	0.009579
 170	8.4500e-02	1.6868	-10.118683	0.000428	4.275910	0.724359	0.008553
 171	8.5000e-02	1.7001	-10.078914	0.000398	3.976596	0.673654	0.007954
 172	8.5500e-02	1.7051	-10.034013	0.000449	4.489706	0.760577	0.008980
 173	8.6000e-02	1.7181	-9.998093	0.000359	3.591765	0.608461	0.007184
 174	8.6500e-02	1.7256	-9.945495	0.000526	5.259370	0.890961	0.010520
 175	8.7000e-02	1.7356	-9.892042	0.000534	5.344888	0.905448	0.010691
 176	8.7500e-02	1.7459	-9.872371	0.000197	1.966919	0.333205	0.003934
 177	8.8000e-02	1.7551	-9.820628	0.000517	5.173851	0.876474	0.010349
 178	8.8500e-02	1.7652	-9.775728	0.000449	4.489706	0.760577	0.008980
 179	8.9000e-02	1.7758	-9.732537	0.000432	4.318669	0.731602	0.008638
 180	8.9500e-02	1.7863	-9.658986	0.000735	7.354566	1.245897	0.014710
 181	9.0000e-02	1.7982	-9.648295	0.000107	1.068978	0.181090	0.002138
 182	9.0500e-02	1.8031	-9.593559	0.000547	5.473165	0.927179	0.010947
 183	9.1000e-02	1.8167	-9.544810	0.000487	4.874538	0.825769	0.009750
 184	9.1500e-02	1.8256	-9.512310	0.000325	3.249692	0.550513	0.006500
 185	9.2000e-02	1.8332	-9.454581	0.000577	5.772479	0.977884	0.011546
 186	9.2500e-02	1.8445	-9.415239	0.000393	3.933837	0.666410	0.007868
 187	9.3000e-02	1.8579	-9.415239	0.000000	0.000000	0.000000	0.000000
 188	9.3500e-02	1.8669	-9.332280	0.000830	8.295266	1.405256	0.016592
 189	9.4000e-02	1.8753	-9.301491	0.000308	3.078655	0.521538	0.006158
 190	9.4500e-02	1.8851	-9.256591	0.000449	4.489706	0.760577	0.008980
 191	9.5000e-02	1.8951	-9.222380	0.000342	3.420728	0.579487	0.006842
 192	9.5500e-02	1.9073	-9.171921	0.000505	5.045574	0.854743	0.010092
 193	9.6000e-02	1.9166	-9.116329	0.000556	5.558683	0.941666	0.011118
 194	9.6500e-02	1.9257	-9.053041	0.000633	6.328347	1.072051	0.012658
 195	9.7000e-02	1.9372	-9.024390	0.000286	2.864860	0.485320	0.005730
 196	9.7500e-02	1.9477	-8.976924	0.000475	4.746260	0.804038	0.009493
 197	9.8000e-02	1.9562	-8.933306	0.000436	4.361428	0.738846	0.008724
 198	9.8500e-02	1.9647	-8.912780	0.000205	2.052437	0.347692	0.004105
 199	9.9000e-02	1.9766	-8.865313	0.000475	4.746260	0.804038	0.009493
 200	9.9500e-02	1.9849	-8.810150	0.000552	5.515924	0.934423	0.011033
 201	1.0000e-01	1.9972	-8.757124	0.000530	5.302129	0.898205	0.010605
 202	1.0050e-01	2.0087	-8.722914	0.000342	3.420728	0.579487	0.006842
 203	1.0100e-01	2.0129	-8.687849	0.000351	3.506246	0.593974	0.007013
 204	1.0150e-01	2.0258	-8.638244	0.000496	4.960056	0.840256	0.009921
 205	1.0200e-01	2.0358	-8.604034	0.000342	3.420728	0.579487	0.006842
 206	1.0250e-01	2.0464	-8.542029	0.000620	6.200070	1.050320	0.012401
 207	1.0300e-01	2.0551	-8.503970	0.000381	3.805560	0.644679	0.007612
 208	1.0350e-01	2.0644	-8.450517	0.000534	5.344888	0.905448	0.010691
 209	1.0400e-01	2.0761	-8.430846	0.000197	1.966919	0.333205	0.003934
 210	1.0450e-01	2.0886	-8.386801	0.000440	4.404188	0.746090	0.008809
 211	1.0500e-01	2.0982	-8.312394	0.000744	7.440084	1.260384	0.014881
 212	1.0550e-01	2.1075	-8.298282	0.000141	1.411050	0.239038	0.002822
 213	1.0600e-01	2.1171	-8.248678	0.000496	4.960056	0.840256	0.009921
 214	1.0650e-01	2.1262	-8.208909	0.000398	3.976596	0.673654	0.007954
 215	1.0700e-01	2.1355	-8.153745	0.000552	5.515924	0.934423	0.011033
 216	1.0750e-01	2.1474	-8.113548	0.000402	4.019356	0.680897	0.008039
 217	1.0800e-01	2.1547	-8.076345	0.000372	3.720042	0.630192	0.007441
 218	1.0850e-01	2.1649	-8.048977	0.000274	2.736583	0.463590	0.005474
 219	1.0900e-01	2.1765	-7.995524	0.000534	5.344888	0.905448	0.010691
 220	1.0950e-01	2.1873	-7.954472	0.000410	4.104874	0.695384	0.008210
 221	1.1000e-01	2.1954	-7.899308	0.000552	5.515924	0.934423	0.011033
 222	1.1050e-01	2.2077	-7.843717	0.000556	5.558683	0.941666	0.011118
 223	1.1100e-01	2.2163	-7.828322	0.000154	1.539328	0.260769	0.003079
 224	1.1150e-01	2.2279	-7.791546	0.000368	3.677283	0.622949	0.007355
 225	1.1200e-01	2.2382	-7.756481	0.000351	3.506246	0.593974	0.007013
 226	1.1250e-01	2.2474	-7.715001	0.000415	4.147633	0.702628	0.008296
 227	1.1300e-01	2.2592	-7.643588	0.000714	7.140770	1.209679	0.014283
 228	1.1350e-01	2.2678	-7.606812	0.000368	3.677283	0.622949	0.007355
 229	1.1400e-01	2.2772	-7.580299	0.000265	2.651064	0.449102	0.005303
 230	1.1450e-01	2.2856	-7.545662	0.000346	3.463487	0.586731	0.006928
 231	1.1500e-01	2.2952	-7.483228	0.000624	6.242829	1.057564	0.012487
 232	1.1550e-01	2.3065	-7.430203	0.000530	5.302129	0.898205	0.010605
 233	1.1600e-01	2.3161	-7.404973	0.000252	2.522787	0.427372	0.005046
 234	1.1650e-01	2.3267	-7.348527	0.000564	5.644201	0.956154	0.011289
 235	1.1700e-01	2.3364	-7.319876	0.000286	2.864860	0.485320	0.005730
 236	1.1750e-01	2.3469	-7.286948	0.000329	3.292451	0.557756	0.006585
 237	1.1800e-01	2.3560	-7.229647	0.000573	5.729720	0.970641	0.011460
 238	1.1850e-01	2.3679	-7.195437	0.000342	3.420728	0.579487	0.006842
 239	1.1900e-01	2.3747	-7.130010	0.000654	6.542143	1.108269	0.013085
 240	1.1950e-01	2.3862	-7.106491	0.000235	2.351751	0.398397	0.004704
 241	1.2000e-01	2.3951	-7.090241	0.000162	1.624846	0.275256	0.003250
 242	1.2050e-01	2.4078	-7.020110	0.000701	7.012493	1.187948	0.014026
 243	1.2100e-01	2.4174	-6.974782	0.000453	4.532465	0.767820	0.009066
 244	1.2150e-01	2.4265	-6.911494	0.000633	6.328347	1.072051	0.012658
 245	1.2200e-01	2.4362	-6.897382	0.000141	1.411050	0.239038	0.002822
 246	1.2250e-01	2.4476	-6.848633	0.000487	4.874538	0.825769	0.009750
 247	1.2300e-01	2.4573	-6.793041	0.000556	5.558683	0.941666	0.011118
 248	1.2350e-01	2.4669	-6.766101	0.000269	2.693823	0.456346	0.005388
 249	1.2400e-01	2.4770	-6.720345	0.000458	4.575224	0.775064	0.009151
 250	1.2450e-01	2.4860	-6.688273	0.000321	3.206933	0.543269	0.006414
 251	1.2500e-01	2.4959	-6.649787	0.000385	3.848319	0.651923	0.007697
 252	1.2550e-01	2.5098	-6.600610	0.000492	4.917297	0.833013	0.009835
 253	1.2600e-01	2.5172	-6.566400	0.000342	3.420728	0.579487	0.006842
 254	1.2650e-01	2.5290	-6.518933	0.000475	4.746260	0.804038	0.009493
 255	1.2700e-01	2.5337	-6.493276	0.000257	2.565546	0.434615	0.005132
 256	1.2750e-01	2.5455	-6.430843	0.000624	6.242829	1.057564	0.012487
 257	1.2800e-01	2.5568	-6.381666	0.000492	4.917297	0.833013	0.009835
 258	1.2850e-01	2.5629	-6.347883	0.000338	3.377969	0.572243	0.006756
 259	1.2900e-01	2.5757	-6.292720	0.000552	5.515924	0.934423	0.011033
 260	1.2950e-01	2.5856	-6.278180	0.000145	1.453809	0.246282	0.002908
 261	1.3000e-01	2.5970	-6.219596	0.000586	5.857997	0.992372	0.011717
 262	1.3050e-01	2.6052	-6.179399	0.000402	4.019356	0.680897	0.008039
 263	1.3100e-01	2.6166	-6.149893	0.000295	2.950378	0.499808	0.005901
 264	1.3150e-01	2.6282	-6.107130	0.000428	4.275910	0.724359	0.008553
 265	1.3200e-01	2.6352	-6.051967	0.000552	5.515924	0.934423	0.011033
 266	1.3250e-01	2.6441	-6.012625	0.000393	3.933837	0.666410	0.007868
 267	1.3300e-01	2.6575	-5.995520	0.000171	1.710364	0.289744	0.003421
 268	1.3350e-01	2.6678	-5.938218	0.000573	5.729720	0.970641	0.011460
 269	1.3400e-01	2.6773	-5.901870	0.000363	3.634524	0.615705	0.007270
 270	1.3450e-01	2.6861	-5.857397	0.000445	4.446947	0.753333	0.008895
 271	1.3500e-01	2.6984	-5.812069	0.000453	4.532465	0.767820	0.009066
 272	1.3550e-01	2.7072	-5.778287	0.000338	3.377969	0.572243	0.006756
 273	1.3600e-01	2.7127	-5.741511	0.000368	3.677283	0.622949	0.007355
 274	1.3650e-01	2.7275	-5.694900	0.000466	4.660742	0.789551	0.009322
 275	1.3700e-01	2.7344	-5.639308	0.000556	5.558683	0.941666	0.011118
 276	1.3750e-01	2.7435	-5.599112	0.000402	4.019356	0.680897	0.008039
 277	1.3800e-01	2.7548	-5.548652	0.000505	5.045574	0.854743	0.010092
 278	1.3850e-01	2.7650	-5.534540	0.000141	1.411050	0.239038	0.002822
 279	1.3900e-01	2.7760	-5.485791	0.000487	4.874538	0.825769	0.009750
 280	1.3950e-01	2.7863	-5.435331	0.000505	5.045574	0.854743	0.010092
 281	1.4000e-01	2.7997	-5.398983	0.000363	3.634524	0.615705	0.007270
 282	1.4050e-01	2.8098	-5.366056	0.000329	3.292451	0.557756	0.006585
 283	1.4100e-01	2.8149	-5.330135	0.000359	3.591765	0.608461	0.007184
 284	1.4150e-01	2.8252	-5.274972	0.000552	5.515924	0.934423	0.011033
 285	1.4200e-01	2.8376	-5.242900	0.000321	3.206933	0.543269	0.006414
 286	1.4250e-01	2.8439	-5.207407	0.000355	3.549005	0.601218	0.007099
 287	1.4300e-01	2.8596	-5.146684	0.000607	6.071792	1.028589	0.012145
 288	1.4350e-01	2.8699	-5.118888	0.000278	2.779342	0.470833	0.005559
 289	1.4400e-01	2.8763	-5.080830	0.000381	3.805560	0.644679	0.007612
 290	1.4450e-01	2.8879	-5.032508	0.000483	4.831779	0.818525	0.009664
 291	1.4500e-01	2.8952	-5.016258	0.000162	1.624846	0.275256	0.003250
 292	1.4550e-01	2.9062	-4.949549	0.000667	6.670420	1.130000	0.013342
 293	1.4600e-01	2.9169	-4.923891	0.000257	2.565546	0.434615	0.005132
 294	1.4650e-01	2.9263	-4.880273	0.000436	4.361428	0.738846	0.008724
 295	1.4700e-01	2.9385	-4.848202	0.000321	3.206933	0.543269	0.006414
 296	1.4750e-01	2.9475	-4.797742	0.000505	5.045574	0.854743	0.010092
 297	1.4800e-01	2.9591	-4.746854	0.000509	5.088333	0.861987	0.010177
 298	1.4850e-01	2.9669	-4.709223	0.000376	3.762801	0.637436	0.007526
 299	1.4900e-01	2.9755	-4.678007	0.000312	3.121414	0.528782	0.006243
 300	1.4950e-01	2.9883	-4.620705	0.000573	5.729720	0.970641	0.011460
 301	1.5000e-01	2.9976	-4.595047	0.000257	2.565546	0.434615	0.005132
 302	1.5050e-01	3.0077	-4.537746	0.000573	5.729720	0.970641	0.011460
 303	1.5100e-01	3.0154	-4.499687	0.000381	3.805560	0.644679	0.007612
 304	1.5150e-01	3.0295	-4.460345	0.000393	3.933837	0.666410	0.007868
 305	1.5200e-01	3.0367	-4.448372	0.000120	1.197255	0.202820	0.002395
 306	1.5250e-01	3.0447	-4.395774	0.000526	5.259370	0.890961	0.010520
 307	1.5300e-01	3.0554	-4.360281	0.000355	3.549005	0.601218	0.007099
 308	1.5350e-01	3.0690	-4.316236	0.000440	4.404188	0.746090	0.008809
 309	1.5400e-01	3.0777	-4.261072	0.000552	5.515924	0.934423	0.011033
 310	1.5450e-01	3.0865	-4.243539	0.000175	1.753123	0.296987	0.003507
 311	1.5500e-01	3.0972	-4.209329	0.000342	3.420728	0.579487	0.006842
 312	1.5550e-01	3.1086	-4.165712	0.000436	4.361428	0.738846	0.008724
 313	1.5600e-01	3.1174	-4.110548	0.000552	5.515924	0.934423	0.011033
 314	1.5650e-01	3.1267	-4.068641	0.000419	4.190392	0.709872	0.008381
 315	1.5700e-01	3.1360	-4.029299	0.000393	3.933837	0.666410	0.007868
 316	1.5750e-01	3.1474	-3.994234	0.000351	3.506246	0.593974	0.007013
 317	1.5800e-01	3.1575	-3.963445	0.000308	3.078655	0.521538	0.006158
 318	1.5850e-01	3.1659	-3.910847	0.000526	5.259370	0.890961	0.010520
 319	1.5900e-01	3.1775	-3.874071	0.000368	3.677283	0.622949	0.007355
 320	1.5950e-01	3.1863	-3.844137	0.000299	2.993137	0.507051	0.005987
 321	1.6000e-01	3.1955	-3.789829	0.000543	5.430406	0.919936	0.010862
 322	1.6050e-01	3.2112	-3.753908	0.000359	3.591765	0.608461	0.007184
 323	1.6100e-01	3.2159	-3.721837	0.000321	3.206933	0.543269	0.006414
 324	1.6150e-01	3.2271	-3.694469	0.000274	2.736583	0.463590	0.005474
 325	1.6200e-01	3.2361	-3.597398	0.000971	9.706316	1.644294	0.019414
 326	1.6250e-01	3.2452	-3.597398	0.000000	0.000000	0.000000	0.000000
 327	1.6300e-01	3.2574	-3.559339	0.000381	3.805560	0.644679	0.007612
 328	1.6350e-01	3.2660	-3.550359	0.000090	0.897941	0.152115	0.001796
 329	1.6400e-01	3.2779	-3.496906	0.000534	5.344888	0.905448	0.010691
 330	1.6450e-01	3.2860	-3.437038	0.000599	5.986274	1.014102	0.011974
 331	1.6500e-01	3.2959	-3.387434	0.000496	4.960056	0.840256	0.009921
 332	1.6550e-01	3.3041	-3.345954	0.000415	4.147633	0.702628	0.008296
 333	1.6600e-01	3.3144	-3.304474	0.000415	4.147633	0.702628	0.008296
 334	1.6650e-01	3.3249	-3.283093	0.000214	2.137955	0.362179	0.004276
 335	1.6700e-01	3.3362	-3.241613	0.000415	4.147633	0.702628	0.008296
 336	1.6750e-01	3.3433	-3.207403	0.000342	3.420728	0.579487	0.006842
 337	1.6800e-01	3.3554	-3.183456	0.000239	2.394510	0.405641	0.004789
 338	1.6850e-01	3.3658	-3.119740	0.000637	6.371106	1.079295	0.012743
 339	1.6900e-01	3.3788	-3.081682	0.000381	3.805560	0.644679	0.007612
 340	1.6950e-01	3.3875	-3.041912	0.000398	3.976596	0.673654	0.007954
 341	1.7000e-01	3.3969	-3.012834	0.000291	2.907619	0.492564	0.005816
 342	1.7050e-01	3.4073	-2.990597	0.000222	2.223473	0.376667	0.004447
 343	1.7100e-01	3.4183	-2.944841	0.000458	4.575224	0.775064	0.009151
 344	1.7150e-01	3.4277	-2.902507	0.000423	4.233151	0.717115	0.008467
 345	1.7200e-01	3.4376	-2.865303	0.000372	3.720042	0.630192	0.007441
 346	1.7250e-01	3.4460	-2.818692	0.000466	4.660742	0.789551	0.009322
 347	1.7300e-01	3.4604	-2.787475	0.000312	3.121414	0.528782	0.006243
 348	1.7350e-01	3.4668	-2.735733	0.000517	5.173851	0.876474	0.010349
 349	1.7400e-01	3.4778	-2.683562	0.000522	5.216610	0.883718	0.010434
 350	1.7450e-01	3.4872	-2.651918	0.000316	3.164174	0.536026	0.006329
 351	1.7500e-01	3.4943	-2.634813	0.000171	1.710364	0.289744	0.003421
 352	1.7550e-01	3.5052	-2.591195	0.000436	4.361428	0.738846	0.008724
 353	1.7600e-01	3.5181	-2.543729	0.000475	4.746260	0.804038	0.009493
 354	1.7650e-01	3.5270	-2.511229	0.000325	3.249692	0.550513	0.006500
 355	1.7700e-01	3.5377	-2.475309	0.000359	3.591765	0.608461	0.007184
 356	1.7750e-01	3.5468	-2.437678	0.000376	3.762801	0.637436	0.007526
 357	1.7800e-01	3.5541	-2.382942	0.000547	5.473165	0.927179	0.010947
 358	1.7850e-01	3.5660	-2.375245	0.000077	0.769664	0.130385	0.001539
 359	1.7900e-01	3.5757	-2.314094	0.000611	6.114552	1.035833	0.012230
 360	1.7950e-01	3.5870	-2.270049	0.000440	4.404188	0.746090	0.008809
 361	1.8000e-01	3.5976	-2.249523	0.000205	2.052437	0.347692	0.004105
 362	1.8050e-01	3.6063	-2.197780	0.000517	5.173851	0.876474	0.010349
 363	1.8100e-01	3.6151	-2.174688	0.000231	2.308992	0.391154	0.004618
 364	1.8150e-01	3.6267	-2.134064	0.000406	4.062115	0.688141	0.008125
 365	1.8200e-01	3.6351	-2.088736	0.000453	4.532465	0.767820	0.009066
 366	1.8250e-01	3.6453	-2.046401	0.000423	4.233151	0.717115	0.008467
 367	1.8300e-01	3.6574	-2.000217	0.000462	4.617983	0.782308	0.009237
 368	1.8350e-01	3.6674	-1.971566	0.000286	2.864860	0.485320	0.005730
 369	1.8400e-01	3.6786	-1.923672	0.000479	4.789019	0.811282	0.009579
 370	1.8450e-01	3.6864	-1.882193	0.000415	4.147633	0.702628	0.008296
 371	1.8500e-01	3.6958	-1.851831	0.000304	3.035896	0.514295	0.006072
 372	1.8550e-01	3.7086	-1.810779	0.000410	4.104874	0.695384	0.008210
 373	1.8600e-01	3.7171	-1.770155	0.000406	4.062115	0.688141	0.008125
 374	1.8650e-01	3.7263	-1.748346	0.000218	2.180714	0.369423	0.004362
 375	1.8700e-01	3.7369	-1.703873	0.000445	4.446947	0.753333	0.008895
 376	1.8750e-01	3.7476	-1.665387	0.000385	3.848319	0.651923	0.007697
 377	1.8800e-01	3.7608	-1.631604	0.000338	3.377969	0.572243	0.006756
 378	1.8850e-01	3.7659	-1.589269	0.000423	4.233151	0.717115	0.008467
 379	1.8900e-01	3.7766	-1.552921	0.000363	3.634524	0.615705	0.007270
 380	1.8950e-01	3.7869	-1.502034	0.000509	5.088333	0.861987	0.010177
 381	1.9000e-01	3.7961	-1.487067	0.000150	1.496569	0.253526	0.002993
 382	1.9050e-01	3.8042	-1.425061	0.000620	6.200070	1.050320	0.012401
 383	1.9100e-01	3.8156	-1.400259	0.000248	2.480028	0.420128	0.004960
 384	1.9150e-01	3.8258	-1.364338	0.000359	3.591765	0.608461	0.007184
 385	1.9200e-01	3.8346	-1.322004	0.000423	4.233151	0.717115	0.008467
 386	1.9250e-01	3.8452	-1.280096	0.000419	4.190392	0.709872	0.008381
 387	1.9300e-01	3.8562	-1.253156	0.000269	2.693823	0.456346	0.005388
 388	1.9350e-01	3.8668	-1.211676	0.000415	4.147633	0.702628	0.008296
 389	1.9400e-01	3.8747	-1.171479	0.000402	4.019356	0.680897	0.008039
 390	1.9450e-01	3.8879	-1.115461	0.000560	5.601442	0.948910	0.011204
 391	1.9500e-01	3.8971	-1.063290	0.000522	5.216610	0.883718	0.010434
 392	1.9550e-01	3.9063	-1.052600	0.000107	1.068978	0.181090	0.002138
 393	1.9600e-01	3.9160	-1.023949	0.000286	2.864860	0.485320	0.005730
 394	1.9650e-01	3.9273	-0.969640	0.000543	5.430406	0.919936	0.010862
 395	1.9700e-01	3.9383	-0.932865	0.000368	3.677283	0.622949	0.007355
 396	1.9750e-01	3.9465	-0.894806	0.000381	3.805560	0.644679	0.007612
 397	1.9800e-01	3.9568	-0.867010	0.000278	2.779342	0.470833	0.005559
 398	1.9850e-01	3.9655	-0.831517	0.000355	3.549005	0.601218	0.007099
 399	1.9900e-01	3.9767	-0.787900	0.000436	4.361428	0.738846	0.008724
 400	1.9950e-01	3.9880	-0.748130	0.000398	3.976596	0.673654	0.007954
 401	2.0000e-01	3.9951	-0.728887	0.000192	1.924160	0.325961	0.003849
 402	2.0050e-01	4.0054	-0.684414	0.000445	4.446947	0.753333	0.008895
 403	2.0100e-01	4.0161	-0.635237	0.000492	4.917297	0.833013	0.009835
 404	2.0150e-01	4.0253	-0.606159	0.000291	2.907619	0.492564	0.005816
 405	2.0200e-01	4.0369	-0.557410	0.000487	4.874538	0.825769	0.009750
 406	2.0250e-01	4.0488	-0.542015	0.000154	1.539328	0.260769	0.003079
 407	2.0300e-01	4.0570	-0.494549	0.000475	4.746260	0.804038	0.009493
 408	2.0350e-01	4.0671	-0.462049	0.000325	3.249692	0.550513	0.006500
 409	2.0400e-01	4.0755	-0.425701	0.000363	3.634524	0.615705	0.007270
 410	2.0450e-01	4.0851	-0.379090	0.000466	4.660742	0.789551	0.009322
 411	2.0500e-01	4.0964	-0.370965	0.000081	0.812423	0.137628	0.001625
 412	2.0550e-01	4.1049	-0.316229	0.000547	5.473165	0.927179	0.010947
 413	2.0600e-01	4.1174	-0.270473	0.000458	4.575224	0.775064	0.009151
 414	2.0650e-01	4.1278	-0.242677	0.000278	2.779342	0.470833	0.005559
 415	2.0700e-01	4.1351	-0.195639	0.000470	4.703501	0.796795	0.009408
 416	2.0750e-01	4.1469	-0.178534	0.000171	1.710364	0.289744	0.003421
 417	2.0800e-01	4.1571	-0.128501	0.000500	5.002815	0.847500	0.010006
 418	2.0850e-01	4.1666	-0.093864	0.000346	3.463487	0.586731	0.006928
 419	2.0900e-01	4.1791	-0.055377	0.000385	3.848319	0.651923	0.007697
 420	2.0950e-01	4.1891	-0.020312	0.000351	3.506246	0.593974	0.007013
 421	2.1000e-01	4.1983	0.022450	0.000428	4.275910	0.724359	0.008553
 422	2.1050e-01	4.2059	0.070344	0.000479	4.789019	0.811282	0.009579
 423	2.1100e-01	4.2176	0.087449	0.000171	1.710364	0.289744	0.003421
 424	2.1150e-01	4.2270	0.125080	0.000376	3.762801	0.637436	0.007526
 425	2.1200e-01	4.2365	0.174257	0.000492	4.917297	0.833013	0.009835
 426	2.1250e-01	4.2429	0.214026	0.000398	3.976596	0.673654	0.007954
 427	2.1300e-01	4.2554	0.242677	0.000286	2.864860	0.485320	0.005730
 428	2.1350e-01	4.2676	0.280308	0.000376	3.762801	0.637436	0.007526
 429	2.1400e-01	4.2780	0.333334	0.000530	5.302129	0.898205	0.010605
 430	2.1450e-01	4.2885	0.369682	0.000363	3.634524	0.615705	0.007270
 431	2.1500e-01	4.2966	0.388925	0.000192	1.924160	0.325961	0.003849
 432	2.1550e-01	4.3073	0.428694	0.000398	3.976596	0.673654	0.007954
 433	2.1600e-01	4.3167	0.477444	0.000487	4.874538	0.825769	0.009750
 434	2.1650e-01	4.3286	0.509516	0.000321	3.206933	0.543269	0.006414
 435	2.1700e-01	4.3402	0.535601	0.000261	2.608305	0.441859	0.005217
 436	2.1750e-01	4.3475	0.563824	0.000282	2.822101	0.478077	0.005645
 437	2.1800e-01	4.3573	0.623691	0.000599	5.986274	1.014102	0.011974
 438	2.1850e-01	4.3686	0.660040	0.000363	3.634524	0.615705	0.007270
 439	2.1900e-01	4.3781	0.686980	0.000269	2.693823	0.456346	0.005388
 440	2.1950e-01	4.3886	0.723328	0.000363	3.634524	0.615705	0.007270
 441	2.2000e-01	4.3997	0.752407	0.000291	2.907619	0.492564	0.005816
 442	2.2050e-01	4.4080	0.814840	0.000624	6.242829	1.057564	0.012487
 443	2.2100e-01	4.4189	0.802011	-0.000128	-1.282773	-0.217308	-0.002566
 444	2.2150e-01	4.4250	0.849478	0.000475	4.746260	0.804038	0.009493
 445	2.2200e-01	4.4363	0.890102	0.000406	4.062115	0.688141	0.008125
 446	2.2250e-01	4.4478	0.934147	0.000440	4.404188	0.746090	0.008809
 447	2.2300e-01	4.4566	0.979903	0.000458	4.575224	0.775064	0.009151
 448	2.2350e-01	4.4682	0.981186	0.000013	0.128277	0.021731	0.000257
 449	2.2400e-01	4.4800	1.015396	0.000342	3.420728	0.579487	0.006842
 450	2.2450e-01	4.4864	1.085527	0.000701	7.012493	1.187948	0.014026
 451	2.2500e-01	4.4965	1.135559	0.000500	5.002815	0.847500	0.010006
 452	2.2550e-01	4.5059	1.158223	0.000227	2.266232	0.383910	0.004533
 453	2.2600e-01	4.5178	1.192005	0.000338	3.377969	0.572243	0.006756
 454	2.2650e-01	4.5270	1.242038	0.000500	5.002815	0.847500	0.010006
 455	2.2700e-01	4.5370	1.252301	0.000103	1.026218	0.173846	0.002053
 456	2.2750e-01	4.5491	1.309175	0.000569	5.686961	0.963397	0.011375
 457	2.2800e-01	4.5569	1.347661	0.000385	3.848319	0.651923	0.007697
 458	2.2850e-01	4.5679	1.373746	0.000261	2.608305	0.441859	0.005217
 459	2.2900e-01	4.5795	1.407956	0.000342	3.420728	0.579487	0.006842
 460	2.2950e-01	4.5878	1.448153	0.000402	4.019356	0.680897	0.008039
 461	2.3000e-01	4.5956	1.496902	0.000487	4.874538	0.825769	0.009750
 462	2.3050e-01	4.6075	1.523415	0.000265	2.651064	0.449102	0.005303
 463	2.3100e-01	4.6152	1.558908	0.000355	3.549005	0.601218	0.007099
 464	2.3150e-01	4.6277	1.558908	0.000000	0.000000	0.000000	0.000000
 465	2.3200e-01	4.6335	1.630321	0.000714	7.140770	1.209679	0.014283
 466	2.3250e-01	4.6487	1.652985	0.000227	2.266232	0.383910	0.004533
 467	2.3300e-01	4.6558	1.688906	0.000359	3.591765	0.608461	0.007184
 468	2.3350e-01	4.6664	1.725682	0.000368	3.677283	0.622949	0.007355
 469	2.3400e-01	4.6762	1.765023	0.000393	3.933837	0.666410	0.007868
 470	2.3450e-01	4.6887	1.794957	0.000299	2.993137	0.507051	0.005987
 471	2.3500e-01	4.6976	1.845417	0.000505	5.045574	0.854743	0.010092
 472	2.3550e-01	4.7083	1.874068	0.000286	2.864860	0.485320	0.005730
 473	2.3600e-01	4.7156	1.910416	0.000363	3.634524	0.615705	0.007270
 474	2.3650e-01	4.7272	1.947619	0.000372	3.720042	0.630192	0.007441
 475	2.3700e-01	4.7400	1.980546	0.000329	3.292451	0.557756	0.006585
 476	2.3750e-01	4.7485	1.997224	0.000167	1.667605	0.282500	0.003335
 477	2.3800e-01	4.7559	2.032717	0.000355	3.549005	0.601218	0.007099
 478	2.3850e-01	4.7659	2.069493	0.000368	3.677283	0.622949	0.007355
 479	2.3900e-01	4.7766	2.106696	0.000372	3.720042	0.630192	0.007441
 480	2.3950e-01	4.7852	2.156300	0.000496	4.960056	0.840256	0.009921
 481	2.4000e-01	4.7992	2.184096	0.000278	2.779342	0.470833	0.005559
 482	2.4050e-01	4.8105	2.237122	0.000530	5.302129	0.898205	0.010605
 483	2.4100e-01	4.8197	2.249095	0.000120	1.197255	0.202820	0.002395
 484	2.4150e-01	4.8287	2.297417	0.000483	4.831779	0.818525	0.009664
 485	2.4200e-01	4.8383	2.337186	0.000398	3.976596	0.673654	0.007954
 486	2.4250e-01	4.8482	2.363271	0.000261	2.608305	0.441859	0.005217
 487	2.4300e-01	4.8563	2.407744	0.000445	4.446947	0.753333	0.008895
 488	2.4350e-01	4.8669	2.413303	0.000056	0.555868	0.094167	0.001112
 489	2.4400e-01	4.8761	2.452217	0.000389	3.891078	0.659167	0.007783
 490	2.4450e-01	4.8889	2.507808	0.000556	5.558683	0.941666	0.011118
 491	2.4500e-01	4.8981	2.545867	0.000381	3.805560	0.644679	0.007612
 492	2.4550e-01	4.9072	2.566821	0.000210	2.095196	0.354936	0.004191
 493	2.4600e-01	4.9191	2.595044	0.000282	2.822101	0.478077	0.005645
 494	2.4650e-01	4.9261	2.657050	0.000620	6.200070	1.050320	0.012401
 495	2.4700e-01	4.9374	2.676293	0.000192	1.924160	0.325961	0.003849
 496	2.4750e-01	4.9471	2.708792	0.000325	3.249692	0.550513	0.006500
 497	2.4800e-01	4.9597	2.735733	0.000269	2.693823	0.456346	0.005388
 498	2.4850e-01	4.9673	2.787048	0.000513	5.131092	0.869231	0.010263
 499	2.4900e-01	4.9780	2.824679	0.000376	3.762801	0.637436	0.007526
 500	2.4950e-01	4.9884	2.861455	0.000368	3.677283	0.622949	0.007355
 501	2.5000e-01	4.9982	2.888823	0.000274	2.736583	0.463590	0.005474
 502	2.5050e-01	5.0085	2.935861	0.000470	4.703501	0.796795	0.009408
 503	2.5100e-01	5.0208	2.947835	0.000120	1.197255	0.202820	0.002395
 504	2.5150e-01	5.0281	2.996156	0.000483	4.831779	0.818525	0.009664
 505	2.5200e-01	5.0391	3.026946	0.000308	3.078655	0.521538	0.006158
 506	2.5250e-01	5.0488	3.060728	0.000338	3.377969	0.572243	0.006756
 507	2.5300e-01	5.0569	3.100069	0.000393	3.933837	0.666410	0.007868
 508	2.5350e-01	5.0668	3.111615	0.000115	1.154496	0.195577	0.002309
 509	2.5400e-01	5.0769	3.174049	0.000624	6.242829	1.057564	0.012487
 510	2.5450e-01	5.0903	3.197140	0.000231	2.308992	0.391154	0.004618
 511	2.5500e-01	5.0983	3.247600	0.000505	5.045574	0.854743	0.010092
 512	2.5550e-01	5.1062	3.282665	0.000351	3.506246	0.593974	0.007013
 513	2.5600e-01	5.1138	3.293356	0.000107	1.068978	0.181090	0.002138
 514	2.5650e-01	5.1270	3.336119	0.000428	4.275910	0.724359	0.008553
 515	2.5700e-01	5.1367	3.372039	0.000359	3.591765	0.608461	0.007184
 516	2.5750e-01	5.1477	3.392993	0.000210	2.095196	0.354936	0.004191
 517	2.5800e-01	5.1572	3.437038	0.000440	4.404188	0.746090	0.008809
 518	2.5850e-01	5.1660	3.483222	0.000462	4.617983	0.782308	0.009237
 519	2.5900e-01	5.1743	3.508452	0.000252	2.522787	0.427372	0.005046
 520	2.5950e-01	5.1880	3.533681	0.000252	2.522787	0.427372	0.005046
 521	2.6000e-01	5.1974	3.582431	0.000487	4.874538	0.825769	0.009750
 522	2.6050e-01	5.2084	3.608516	0.000261	2.608305	0.441859	0.005217
 523	2.6100e-01	5.2143	3.658548	0.000500	5.002815	0.847500	0.010006
 524	2.6150e-01	5.2284	3.673087	0.000145	1.453809	0.246282	0.002908
 525	2.6200e-01	5.2380	3.730817	0.000577	5.772479	0.977884	0.011546
 526	2.6250e-01	5.2466	3.761606	0.000308	3.078655	0.521538	0.006158
 527	2.6300e-01	5.2551	3.781276	0.000197	1.966919	0.333205	0.003934
 528	2.6350e-01	5.2658	3.817625	0.000363	3.634524	0.615705	0.007270
 529	2.6400e-01	5.2783	3.847986	0.000304	3.035896	0.514295	0.006072
 530	2.6450e-01	5.2899	3.876637	0.000286	2.864860	0.485320	0.005730
 531	2.6500e-01	5.2942	3.919827	0.000432	4.318669	0.731602	0.008638
 532	2.6550e-01	5.3094	3.952327	0.000325	3.249692	0.550513	0.006500
 533	2.6600e-01	5.3168	3.974991	0.000227	2.266232	0.383910	0.004533
 534	2.6650e-01	5.3284	4.016470	0.000415	4.147633	0.702628	0.008296
 535	2.6700e-01	5.3383	4.058805	0.000423	4.233151	0.717115	0.008467
 536	2.6750e-01	5.3467	4.084463	0.000257	2.565546	0.434615	0.005132
 537	2.6800e-01	5.3598	4.110548	0.000261	2.608305	0.441859	0.005217
 538	2.6850e-01	5.3674	4.169560	0.000590	5.900756	0.999615	0.011802
 539	2.6900e-01	5.3775	4.177685	0.000081	0.812423	0.137628	0.001625
 540	2.6950e-01	5.3870	4.227290	0.000496	4.960056	0.840256	0.009921
 541	2.7000e-01	5.3967	4.262355	0.000351	3.506246	0.593974	0.007013
 542	2.7050e-01	5.4048	4.283309	0.000210	2.095196	0.354936	0.004191
 543	2.7100e-01	5.4138	4.316236	0.000329	3.292451	0.557756	0.006585
 544	2.7150e-01	5.4251	4.346169	0.000299	2.993137	0.507051	0.005987
 545	2.7200e-01	5.4358	4.388504	0.000423	4.233151	0.717115	0.008467
 546	2.7250e-01	5.4443	4.429129	0.000406	4.062115	0.688141	0.008125
 547	2.7300e-01	5.4565	4.462484	0.000334	3.335210	0.565000	0.006671
 548	2.7350e-01	5.4672	4.491990	0.000295	2.950378	0.499808	0.005901
 549	2.7400e-01	5.4773	4.539884	0.000479	4.789019	0.811282	0.009579
 550	2.7450e-01	5.4871	4.567679	0.000278	2.779342	0.470833	0.005559
 551	2.7500e-01	5.4971	4.601462	0.000338	3.377969	0.572243	0.006756
 552	2.7550e-01	5.5060	4.625836	0.000244	2.437269	0.412885	0.004875
 553	2.7600e-01	5.5145	4.649783	0.000239	2.394510	0.405641	0.004789
 554	2.7650e-01	5.5270	4.682711	0.000329	3.292451	0.557756	0.006585
 555	2.7700e-01	5.5377	4.716065	0.000334	3.335210	0.565000	0.006671
 556	2.7750e-01	5.5469	4.759683	0.000436	4.361428	0.738846	0.008724
 557	2.7800e-01	5.5566	4.780637	0.000210	2.095196	0.354936	0.004191
 558	2.7850e-01	5.5695	4.828531	0.000479	4.789019	0.811282	0.009579
 559	2.7900e-01	5.5768	4.847346	0.000188	1.881400	0.318718	0.003763
 560	2.7950e-01	5.5859	4.899944	0.000526	5.259370	0.890961	0.010520
 561	2.8000e-01	5.5969	4.916622	0.000167	1.667605	0.282500	0.003335
 562	2.8050e-01	5.6067	4.969647	0.000530	5.302129	0.898205	0.010605
 563	2.8100e-01	5.6195	4.989318	0.000197	1.966919	0.333205	0.003934
 564	2.8150e-01	5.6262	5.019679	0.000304	3.035896	0.514295	0.006072
 565	2.8200e-01	5.6378	5.057310	0.000376	3.762801	0.637436	0.007526
 566	2.8250e-01	5.6465	5.085534	0.000282	2.822101	0.478077	0.005645
 567	2.8300e-01	5.6580	5.121454	0.000359	3.591765	0.608461	0.007184
 568	2.8350e-01	5.6659	5.149250	0.000278	2.779342	0.470833	0.005559
 569	2.8400e-01	5.6787	5.179611	0.000304	3.035896	0.514295	0.006072
 570	2.8450e-01	5.6866	5.240762	0.000611	6.114552	1.035833	0.012230
 571	2.8500e-01	5.6982	5.261715	0.000210	2.095196	0.354936	0.004191
 572	2.8550e-01	5.7074	5.287373	0.000257	2.565546	0.434615	0.005132
 573	2.8600e-01	5.7178	5.324576	0.000372	3.720042	0.630192	0.007441
 574	2.8650e-01	5.7263	5.339543	0.000150	1.496569	0.253526	0.002993
 575	2.8700e-01	5.7361	5.395990	0.000564	5.644201	0.956154	0.011289
 576	2.8750e-01	5.7477	5.407535	0.000115	1.154496	0.195577	0.002309
 577	2.8800e-01	5.7574	5.451153	0.000436	4.361428	0.738846	0.008724
 578	2.8850e-01	5.7678	5.481087	0.000299	2.993137	0.507051	0.005987
 579	2.8900e-01	5.7770	5.517007	0.000359	3.591765	0.608461	0.007184
 580	2.8950e-01	5.7880	5.540954	0.000239	2.394510	0.405641	0.004789
 581	2.9000e-01	5.7986	5.577303	0.000363	3.634524	0.615705	0.007270
 582	2.9050e-01	5.8072	5.603388	0.000261	2.608305	0.441859	0.005217
 583	2.9100e-01	5.8179	5.664111	0.000607	6.071792	1.028589	0.012145
 584	2.9150e-01	5.8273	5.697893	0.000338	3.377969	0.572243	0.006756
 585	2.9200e-01	5.8371	5.724406	0.000265	2.651064	0.449102	0.005303
 586	2.9250e-01	5.8484	5.746215	0.000218	2.180714	0.369423	0.004362
 587	2.9300e-01	5.8569	5.782135	0.000359	3.591765	0.608461	0.007184
 588	2.9350e-01	5.8649	5.808220	0.000261	2.608305	0.441859	0.005217
 589	2.9400e-01	5.8734	5.856542	0.000483	4.831779	0.818525	0.009664
 590	2.9450e-01	5.8893	5.882627	0.000261	2.608305	0.441859	0.005217
 591	2.9500e-01	5.8987	5.908285	0.000257	2.565546	0.434615	0.005132
 592	2.9550e-01	5.9088	5.948054	0.000398	3.976596	0.673654	0.007954
 593	2.9600e-01	5.9212	5.978843	0.000308	3.078655	0.521538	0.006158
 594	2.9650e-01	5.9225	6.018612	0.000398	3.976596	0.673654	0.007954
 595	2.9700e-01	5.9332	6.032296	0.000137	1.368291	0.231795	0.002737
 596	2.9750e-01	5.9470	6.069072	0.000368	3.677283	0.622949	0.007355
 597	2.9800e-01	5.9558	6.110551	0.000415	4.147633	0.702628	0.008296
 598	2.9850e-01	5.9671	6.128084	0.000175	1.753123	0.296987	0.003507
 599	2.9900e-01	5.9753	6.163149	0.000351	3.506246	0.593974	0.007013
 600	2.9950e-01	5.9845	6.228148	0.000650	6.499384	1.101025	0.013000
 601	3.0000e-01	5.9985	6.228576	0.000004	0.042759	0.007244	0.000086
 602	3.0050e-01	6.0056	6.266635	0.000381	3.805560	0.644679	0.007612
 603	3.0100e-01	6.0150	6.303838	0.000372	3.720042	0.630192	0.007441
 604	3.0150e-01	6.0272	6.336765	0.000329	3.292451	0.557756	0.006585
 605	3.0200e-01	6.0358	6.359429	0.000227	2.266232	0.383910	0.004533
 606	3.0250e-01	6.0492	6.404758	0.000453	4.532465	0.767820	0.009066
 607	3.0300e-01	6.0559	6.427422	0.000227	2.266232	0.383910	0.004533
 608	3.0350e-01	6.0706	6.468901	0.000415	4.147633	0.702628	0.008296
 609	3.0400e-01	6.0782	6.498835	0.000299	2.993137	0.507051	0.005987
 610	3.0450e-01	6.0898	6.522355	0.000235	2.351751	0.398397	0.004704
 611	3.0500e-01	6.0974	6.563407	0.000410	4.104874	0.695384	0.008210
 612	3.0550e-01	6.1072	6.610873	0.000475	4.746260	0.804038	0.009493
 613	3.0600e-01	6.1179	6.619853	0.000090	0.897941	0.152115	0.001796
 614	3.0650e-01	6.1270	6.653635	0.000338	3.377969	0.572243	0.006756
 615	3.0700e-01	6.1371	6.698108	0.000445	4.446947	0.753333	0.008895
 616	3.0750e-01	6.1493	6.707516	0.000094	0.940700	0.159359	0.001882
 617	3.0800e-01	6.1584	6.746430	0.000389	3.891078	0.659167	0.007783
 618	3.0850e-01	6.1694	6.789620	0.000432	4.318669	0.731602	0.008638
 619	3.0900e-01	6.1789	6.799028	0.000094	0.940700	0.159359	0.001882
 620	3.0950e-01	6.1865	6.844356	0.000453	4.532465	0.767820	0.009066
 621	3.1000e-01	6.1957	6.884553	0.000402	4.019356	0.680897	0.008039
 622	3.1050e-01	6.2086	6.920901	0.000363	3.634524	0.615705	0.007270
 623	3.1100e-01	6.2173	6.942710	0.000218	2.180714	0.369423	0.004362
 624	3.1150e-01	6.2268	6.966230	0.000235	2.351751	0.398397	0.004704
 625	3.1200e-01	6.2360	7.006426	0.000402	4.019356	0.680897	0.008039
 626	3.1250e-01	6.2479	7.036360	0.000299	2.993137	0.507051	0.005987
 627	3.1300e-01	6.2564	7.082971	0.000466	4.660742	0.789551	0.009322
 628	3.1350e-01	6.2683	7.091524	0.000086	0.855182	0.144872	0.001711
 629	3.1400e-01	6.2766	7.114188	0.000227	2.266232	0.383910	0.004533
 630	3.1450e-01	6.2878	7.176621	0.000624	6.242829	1.057564	0.012487
 631	3.1500e-01	6.2955	7.189878	0.000133	1.325532	0.224551	0.002651
 632	3.1550e-01	6.3080	7.200568	0.000107	1.068978	0.181090	0.002138
 633	3.1600e-01	6.3171	7.269416	0.000688	6.884215	1.166218	0.013770
 634	3.1650e-01	6.3263	7.298922	0.000295	2.950378	0.499808	0.005901
 635	3.1700e-01	6.3411	7.322014	0.000231	2.308992	0.391154	0.004618
 636	3.1750e-01	6.3449	7.334415	0.000124	1.240014	0.210064	0.002480
 637	3.1800e-01	6.3574	7.384019	0.000496	4.960056	0.840256	0.009921
 638	3.1850e-01	6.3681	7.420795	0.000368	3.677283	0.622949	0.007355
 639	3.1900e-01	6.3763	7.449018	0.000282	2.822101	0.478077	0.005645
 640	3.1950e-01	6.3873	7.467406	0.000184	1.838641	0.311474	0.003678
 641	3.2000e-01	6.3971	7.499478	0.000321	3.206933	0.543269	0.006414
 642	3.2050e-01	6.4056	7.567898	0.000684	6.841456	1.158974	0.013684
 643	3.2100e-01	6.4174	7.589707	0.000218	2.180714	0.369423	0.004362
 644	3.2150e-01	6.4258	7.599115	0.000094	0.940700	0.159359	0.001882
 645	3.2200e-01	6.4374	7.629049	0.000299	2.993137	0.507051	0.005987
 646	3.2250e-01	6.4459	7.684212	0.000552	5.515924	0.934423	0.011033
 647	3.2300e-01	6.4560	7.697469	0.000133	1.325532	0.224551	0.002651
 648	3.2350e-01	6.4664	7.735955	0.000385	3.848319	0.651923	0.007697
 649	3.2400e-01	6.4764	7.771876	0.000359	3.591765	0.608461	0.007184
 650	3.2450e-01	6.4865	7.797105	0.000252	2.522787	0.427372	0.005046
 651	3.2500e-01	6.4972	7.823618	0.000265	2.651064	0.449102	0.005303
 652	3.2550e-01	6.5094	7.859111	0.000355	3.549005	0.601218	0.007099
 653	3.2600e-01	6.5167	7.889473	0.000304	3.035896	0.514295	0.006072
 654	3.2650e-01	6.5256	7.931807	0.000423	4.233151	0.717115	0.008467
 655	3.2700e-01	6.5363	7.958320	0.000265	2.651064	0.449102	0.005303
 656	3.2750e-01	6.5479	7.994668	0.000363	3.634524	0.615705	0.007270
 657	3.2800e-01	6.5546	8.015622	0.000210	2.095196	0.354936	0.004191
 658	3.2850e-01	6.5663	8.049832	0.000342	3.420728	0.579487	0.006842
 659	3.2900e-01	6.5759	8.086180	0.000363	3.634524	0.615705	0.007270
 660	3.2950e-01	6.5872	8.103713	0.000175	1.753123	0.296987	0.003507
 661	3.3000e-01	6.5967	8.153745	0.000500	5.002815	0.847500	0.010006
 662	3.3050e-01	6.6064	8.184106	0.000304	3.035896	0.514295	0.006072
 663	3.3100e-01	6.6168	8.209336	0.000252	2.522787	0.427372	0.005046
 664	3.3150e-01	6.6286	8.224303	0.000150	1.496569	0.253526	0.002993
 665	3.3200e-01	6.6382	8.271342	0.000470	4.703501	0.796795	0.009408
 666	3.3250e-01	6.6483	8.283315	0.000120	1.197255	0.202820	0.002395
 667	3.3300e-01	6.6577	8.332920	0.000496	4.960056	0.840256	0.009921
 668	3.3350e-01	6.6675	8.353874	0.000210	2.095196	0.354936	0.004191
 669	3.3400e-01	6.6763	8.393643	0.000398	3.976596	0.673654	0.007954
 670	3.3450e-01	6.6870	8.418873	0.000252	2.522787	0.427372	0.005046
 671	3.3500e-01	6.6949	8.456931	0.000381	3.805560	0.644679	0.007612
 672	3.3550e-01	6.7078	8.476602	0.000197	1.966919	0.333205	0.003934
 673	3.3600e-01	6.7175	8.498839	0.000222	2.223473	0.376667	0.004447
 674	3.3650e-01	6.7279	8.531338	0.000325	3.249692	0.550513	0.006500
 675	3.3700e-01	6.7389	8.574101	0.000428	4.275910	0.724359	0.008553
 676	3.3750e-01	6.7474	8.608311	0.000342	3.420728	0.579487	0.006842
 677	3.3800e-01	6.7578	8.628837	0.000205	2.052437	0.347692	0.004105
 678	3.3850e-01	6.7676	8.657487	0.000286	2.864860	0.485320	0.005730
 679	3.3900e-01	6.7780	8.693408	0.000359	3.591765	0.608461	0.007184
 680	3.3950e-01	6.7871	8.739592	0.000462	4.617983	0.782308	0.009237
 681	3.4000e-01	6.7987	8.750710	0.000111	1.111737	0.188333	0.002224
 682	3.4050e-01	6.8066	8.799887	0.000492	4.917297	0.833013	0.009835
 683	3.4100e-01	6.8176	8.808012	0.000081	0.812423	0.137628	0.001625
 684	3.4150e-01	6.8262	8.846925	0.000389	3.891078	0.659167	0.007783
 685	3.4200e-01	6.8372	8.881563	0.000346	3.463487	0.586731	0.006928
 686	3.4250e-01	6.8460	8.915773	0.000342	3.420728	0.579487	0.006842
 687	3.4300e-01	6.8564	8.949128	0.000334	3.335210	0.565000	0.006671
 688	3.4350e-01	6.8683	8.954687	0.000056	0.555868	0.094167	0.001112
 689	3.4400e-01	6.8777	8.971792	0.000171	1.710364	0.289744	0.003421
 690	3.4450e-01	6.8860	9.029094	0.000573	5.729720	0.970641	0.011460
 691	3.4500e-01	6.8951	9.088534	0.000594	5.943515	1.006859	0.011888
 692	3.4550e-01	6.9067	9.094948	0.000064	0.641387	0.108654	0.001283
 693	3.4600e-01	6.9159	9.128731	0.000338	3.377969	0.572243	0.006756
 694	3.4650e-01	6.9273	9.155243	0.000265	2.651064	0.449102	0.005303
 695	3.4700e-01	6.9376	9.174914	0.000197	1.966919	0.333205	0.003934
 696	3.4750e-01	6.9461	9.215538	0.000406	4.062115	0.688141	0.008125
 697	3.4800e-01	6.9568	9.211690	-0.000038	-0.384832	-0.065192	-0.000770
 698	3.4850e-01	6.9681	9.271985	0.000603	6.029033	1.021346	0.012059
 699	3.4900e-01	6.9806	9.299781	0.000278	2.779342	0.470833	0.005559
 700	3.4950e-01	6.9873	9.344254	0.000445	4.446947	0.753333	0.008895
 701	3.5000e-01	6.9980	9.366063	0.000218	2.180714	0.369423	0.004362
 702	3.5050e-01	7.0084	9.409253	0.000432	4.318669	0.731602	0.008638
 703	3.5100e-01	7.0154	9.430634	0.000214	2.137955	0.362179	0.004276
 704	3.5150e-01	7.0264	9.444746	0.000141	1.411050	0.239038	0.002822
 705	3.5200e-01	7.0377	9.480666	0.000359	3.591765	0.608461	0.007184
 706	3.5250e-01	7.0483	9.518725	0.000381	3.805560	0.644679	0.007612
 707	3.5300e-01	7.0566	9.550369	0.000316	3.164174	0.536026	0.006329
 708	3.5350e-01	7.0667	9.585434	0.000351	3.506246	0.593974	0.007013
 709	3.5400e-01	7.0782	9.610664	0.000252	2.522787	0.427372	0.005046
 710	3.5450e-01	7.0880	9.640170	0.000295	2.950378	0.499808	0.005901
 711	3.5500e-01	7.0984	9.643164	0.000030	0.299314	0.050705	0.000599
 712	3.5550e-01	7.1069	9.701748	0.000586	5.857997	0.992372	0.011717
 713	3.5600e-01	7.1159	9.728261	0.000265	2.651064	0.449102	0.005303
 714	3.5650e-01	7.1289	9.777438	0.000492	4.917297	0.833013	0.009835
 715	3.5700e-01	7.1356	9.782570	0.000051	0.513109	0.086923	0.001026
 716	3.5750e-01	7.1474	9.819345	0.000368	3.677283	0.622949	0.007355
 717	3.5800e-01	7.1573	9.856976	0.000376	3.762801	0.637436	0.007526
 718	3.5850e-01	7.1663	9.885627	0.000286	2.864860	0.485320	0.005730
 719	3.5900e-01	7.1767	9.907009	0.000214	2.137955	0.362179	0.004276
 720	3.5950e-01	7.1878	9.906581	-0.000004	-0.042759	-0.007244	-0.000086
 721	3.6000e-01	7.1948	9.970725	0.000641	6.413865	1.086538	0.012829
 722	3.6050e-01	7.2070	10.004935	0.000342	3.420728	0.579487	0.006842
 723	3.6100e-01	7.2168	10.044704	0.000398	3.976596	0.673654	0.007954
 724	3.6150e-01	7.2260	10.052401	0.000077	0.769664	0.130385	0.001539
 725	3.6200e-01	7.2363	10.080197	0.000278	2.779342	0.470833	0.005559
 726	3.6250e-01	7.2464	10.119538	0.000393	3.933837	0.666410	0.007868
 727	3.6300e-01	7.2583	10.158452	0.000389	3.891078	0.659167	0.007783
 728	3.6350e-01	7.2662	10.201215	0.000428	4.275910	0.724359	0.008553
 729	3.6400e-01	7.2772	10.196938	-0.000043	-0.427591	-0.072436	-0.000855
 730	3.6450e-01	7.2858	10.213616	0.000167	1.667605	0.282500	0.003335
 731	3.6500e-01	7.2974	10.270062	0.000564	5.644201	0.956154	0.011289
 732	3.6550e-01	7.3065	10.308976	0.000389	3.891078	0.659167	0.007783
 733	3.6600e-01	7.3175	10.320522	0.000115	1.154496	0.195577	0.002309
 734	3.6650e-01	7.3260	10.361147	0.000406	4.062115	0.688141	0.008125
 735	3.6700e-01	7.3376	10.383383	0.000222	2.223473	0.376667	0.004447
 736	3.6750e-01	7.3462	10.405192	0.000218	2.180714	0.369423	0.004362
 737	3.6800e-01	7.3553	10.455224	0.000500	5.002815	0.847500	0.010006
 738	3.6850e-01	7.3679	10.482165	0.000269	2.693823	0.456346	0.005388
 739	3.6900e-01	7.3743	10.506539	0.000244	2.437269	0.412885	0.004875
 740	3.6950e-01	7.3840	10.538183	0.000316	3.164174	0.536026	0.006329
 741	3.7000e-01	7.3987	10.554861	0.000167	1.667605	0.282500	0.003335
 742	3.7050e-01	7.4103	10.572393	0.000175	1.753123	0.296987	0.003507
 743	3.7100e-01	7.4182	10.619432	0.000470	4.703501	0.796795	0.009408
 744	3.7150e-01	7.4280	10.643379	0.000239	2.394510	0.405641	0.004789
 745	3.7200e-01	7.4390	10.686569	0.000432	4.318669	0.731602	0.008638
 746	3.7250e-01	7.4484	10.711799	0.000252	2.522787	0.427372	0.005046
 747	3.7300e-01	7.4576	10.730615	0.000188	1.881400	0.318718	0.003763
 748	3.7350e-01	7.4683	10.763970	0.000334	3.335210	0.565000	0.006671
 749	3.7400e-01	7.4792	10.798607	0.000346	3.463487	0.586731	0.006928
 750	3.7450e-01	7.4869	10.829824	0.000312	3.121414	0.528782	0.006243
 751	3.7500e-01	7.4988	10.846074	0.000162	1.624846	0.275256	0.003250
 752	3.7550e-01	7.5061	10.888836	0.000428	4.275910	0.724359	0.008553
 753	3.7600e-01	7.5186	10.925612	0.000368	3.677283	0.622949	0.007355
 754	3.7650e-01	7.5275	10.938441	0.000128	1.282773	0.217308	0.002566
 755	3.7700e-01	7.5372	10.984624	0.000462	4.617983	0.782308	0.009237
 756	3.7750e-01	7.5464	11.017124	0.000325	3.249692	0.550513	0.006500
 757	3.7800e-01	7.5555	11.020117	0.000030	0.299314	0.050705	0.000599
 758	3.7850e-01	7.5665	11.061169	0.000410	4.104874	0.695384	0.008210
 759	3.7900e-01	7.5772	11.094524	0.000334	3.335210	0.565000	0.006671
 760	3.7950e-01	7.5873	11.113339	0.000188	1.881400	0.318718	0.003763
 761	3.8000e-01	7.5995	11.149688	0.000363	3.634524	0.615705	0.007270
 762	3.8050e-01	7.6080	11.184325	0.000346	3.463487	0.586731	0.006928
 763	3.8100e-01	7.6154	11.195016	0.000107	1.068978	0.181090	0.002138
 764	3.8150e-01	7.6257	11.247614	0.000526	5.259370	0.890961	0.010520
 765	3.8200e-01	7.6370	11.261725	0.000141	1.411050	0.239038	0.002822
 766	3.8250e-01	7.6447	11.286528	0.000248	2.480028	0.420128	0.004960
 767	3.8300e-01	7.6556	11.333139	0.000466	4.660742	0.789551	0.009322
 768	3.8350e-01	7.6697	11.365211	0.000321	3.206933	0.543269	0.006414
 769	3.8400e-01	7.6782	11.381460	0.000162	1.624846	0.275256	0.003250
 770	3.8450e-01	7.6862	11.424223	0.000428	4.275910	0.724359	0.008553
 771	3.8500e-01	7.6953	11.450736	0.000265	2.651064	0.449102	0.005303
 772	3.8550e-01	7.7069	11.475538	0.000248	2.480028	0.420128	0.004960
 773	3.8600e-01	7.7173	11.505472	0.000299	2.993137	0.507051	0.005987
 774	3.8650e-01	7.7264	11.544813	0.000393	3.933837	0.666410	0.007868
 775	3.8700e-01	7.7362	11.576458	0.000316	3.164174	0.536026	0.006329
 776	3.8750e-01	7.7472	11.592280	0.000158	1.582087	0.268013	0.003164
 777	3.8800e-01	7.7565	11.620075	0.000278	2.779342	0.470833	0.005559
 778	3.8850e-01	7.7658	11.646588	0.000265	2.651064	0.449102	0.005303
 779	3.8900e-01	7.7777	11.689351	0.000428	4.275910	0.724359	0.008553
 780	3.8950e-01	7.7863	11.708594	0.000192	1.924160	0.325961	0.003849
 781	3.9000e-01	7.7948	11.744087	0.000355	3.549005	0.601218	0.007099
 782	3.9050e-01	7.8064	11.769317	0.000252	2.522787	0.427372	0.005046
 783	3.9100e-01	7.8162	11.793691	0.000244	2.437269	0.412885	0.004875
 784	3.9150e-01	7.8247	11.814645	0.000210	2.095196	0.354936	0.004191
 785	3.9200e-01	7.8375	11.856125	0.000415	4.147633	0.702628	0.008296
 786	3.9250e-01	7.8476	11.893756	0.000376	3.762801	0.637436	0.007526
 787	3.9300e-01	7.8583	11.916847	0.000231	2.308992	0.391154	0.004618
 788	3.9350e-01	7.8659	11.932669	0.000158	1.582087	0.268013	0.003164
 789	3.9400e-01	7.8772	11.954906	0.000222	2.223473	0.376667	0.004447
 790	3.9450e-01	7.8888	11.978853	0.000239	2.394510	0.405641	0.004789
 791	3.9500e-01	7.8949	12.044707	0.000658	6.584902	1.115513	0.013171
 792	3.9550e-01	7.9062	12.057108	0.000124	1.240014	0.210064	0.002480
 793	3.9600e-01	7.9166	12.102437	0.000453	4.532465	0.767820	0.009066
 794	3.9650e-01	7.9272	12.118686	0.000162	1.624846	0.275256	0.003250
 795	3.9700e-01	7.9388	12.157600	0.000389	3.891078	0.659167	0.007783
 796	3.9750e-01	7.9468	12.173850	0.000162	1.624846	0.275256	0.003250
 797	3.9800e-01	7.9578	12.208488	0.000346	3.463487	0.586731	0.006928
 798	3.9850e-01	7.9671	12.232862	0.000244	2.437269	0.412885	0.004875
 799	3.9900e-01	7.9785	12.268355	0.000355	3.549005	0.601218	0.007099
 800	3.9950e-01	7.9871	12.279901	0.000115	1.154496	0.195577	0.002309
 801	4.0000e-01	7.9980	12.314111	0.000342	3.420728	0.579487	0.006842
 802	4.0050e-01	8.0078	12.348749	0.000346	3.463487	0.586731	0.006928
 803	4.0100e-01	8.0200	12.384669	0.000359	3.591765	0.608461	0.007184
 804	4.0150e-01	8.0264	12.412893	0.000282	2.822101	0.478077	0.005645
 805	4.0200e-01	8.0347	12.437695	0.000248	2.480028	0.420128	0.004960
 806	4.0250e-01	8.0457	12.481313	0.000436	4.361428	0.738846	0.008724
 807	4.0300e-01	8.0573	12.488155	0.000068	0.684146	0.115897	0.001368
 808	4.0350e-01	8.0664	12.534338	0.000462	4.617983	0.782308	0.009237
 809	4.0400e-01	8.0753	12.536904	0.000026	0.256555	0.043462	0.000513
 810	4.0450e-01	8.0881	12.592495	0.000556	5.558683	0.941666	0.011118
 811	4.0500e-01	8.0963	12.602331	0.000098	0.983459	0.166603	0.001967
 812	4.0550e-01	8.1067	12.633547	0.000312	3.121414	0.528782	0.006243
 813	4.0600e-01	8.1152	12.695981	0.000624	6.242829	1.057564	0.012487
 814	4.0650e-01	8.1262	12.698119	0.000021	0.213796	0.036218	0.000428
 815	4.0700e-01	8.1372	12.727197	0.000291	2.907619	0.492564	0.005816
 816	4.0750e-01	8.1476	12.767394	0.000402	4.019356	0.680897	0.008039
 817	4.0800e-01	8.1580	12.780650	0.000133	1.325532	0.224551	0.002651
 818	4.0850e-01	8.1659	12.804597	0.000239	2.394510	0.405641	0.004789
 819	4.0900e-01	8.1750	12.832393	0.000278	2.779342	0.470833	0.005559
 820	4.0950e-01	8.1854	12.883708	0.000513	5.131092	0.869231	0.010263
 821	4.1000e-01	8.1970	12.879432	-0.000043	-0.427591	-0.072436	-0.000855
 822	4.1050e-01	8.2092	12.917063	0.000376	3.762801	0.637436	0.007526
 823	4.1100e-01	8.2162	12.950418	0.000334	3.335210	0.565000	0.006671
 824	4.1150e-01	8.2257	12.981207	0.000308	3.078655	0.521538	0.006158
 825	4.1200e-01	8.2349	13.030384	0.000492	4.917297	0.833013	0.009835
 826	4.1250e-01	8.2483	13.041929	0.000115	1.154496	0.195577	0.002309
 827	4.1300e-01	8.2568	13.069725	0.000278	2.779342	0.470833	0.005559
 828	4.1350e-01	8.2660	13.096238	0.000265	2.651064	0.449102	0.005303
 829	4.1400e-01	8.2764	13.107784	0.000115	1.154496	0.195577	0.002309
 830	4.1450e-01	8.2883	13.159526	0.000517	5.173851	0.876474	0.010349
 831	4.1500e-01	8.2971	13.180908	0.000214	2.137955	0.362179	0.004276
 832	4.1550e-01	8.3057	13.228374	0.000475	4.746260	0.804038	0.009493
 833	4.1600e-01	8.3197	13.211269	-0.000171	-1.710364	-0.289744	-0.003421
 834	4.1650e-01	8.3276	13.268571	0.000573	5.729720	0.970641	0.011460
 835	4.1700e-01	8.3392	13.297222	0.000286	2.864860	0.485320	0.005730
 836	4.1750e-01	8.3484	13.317320	0.000201	2.009678	0.340449	0.004020
 837	4.1800e-01	8.3582	13.347682	0.000304	3.035896	0.514295	0.006072
 838	4.1850e-01	8.3685	13.382747	0.000351	3.506246	0.593974	0.007013
 839	4.1900e-01	8.3768	13.411825	0.000291	2.907619	0.492564	0.005816
 840	4.1950e-01	8.3863	13.441759	0.000299	2.993137	0.507051	0.005987
 841	4.2000e-01	8.3990	13.461430	0.000197	1.966919	0.333205	0.003934
 842	4.2050e-01	8.4070	13.498206	0.000368	3.677283	0.622949	0.007355
 843	4.2100e-01	8.4167	13.532416	0.000342	3.420728	0.579487	0.006842
 844	4.2150e-01	8.4283	13.566626	0.000342	3.420728	0.579487	0.006842
 845	4.2200e-01	8.4375	13.596987	0.000304	3.035896	0.514295	0.006072
 846	4.2250e-01	8.4470	13.620934	0.000239	2.394510	0.405641	0.004789
 847	4.2300e-01	8.4583	13.648730	0.000278	2.779342	0.470833	0.005559
 848	4.2350e-01	8.4674	13.667973	0.000192	1.924160	0.325961	0.003849
 849	4.2400e-01	8.4799	13.710735	0.000428	4.275910	0.724359	0.008553
 850	4.2450e-01	8.4857	13.738959	0.000282	2.822101	0.478077	0.005645
 851	4.2500e-01	8.4976	13.752215	0.000133	1.325532	0.224551	0.002651
 852	4.2550e-01	8.5083	13.793267	0.000410	4.104874	0.695384	0.008210
 853	4.2600e-01	8.5175	13.795833	0.000026	0.256555	0.043462	0.000513
 854	4.2650e-01	8.5278	13.833891	0.000381	3.805560	0.644679	0.007612
 855	4.2700e-01	8.5370	13.858694	0.000248	2.480028	0.420128	0.004960
 856	4.2750e-01	8.5461	13.905732	0.000470	4.703501	0.796795	0.009408
 857	4.2800e-01	8.5559	13.930535	0.000248	2.480028	0.420128	0.004960
 858	4.2850e-01	8.5669	13.951916	0.000214	2.137955	0.362179	0.004276
 859	4.2900e-01	8.5779	13.989975	0.000381	3.805560	0.644679	0.007612
 860	4.2950e-01	8.5889	14.011784	0.000218	2.180714	0.369423	0.004362
 861	4.3000e-01	8.5962	14.041290	0.000295	2.950378	0.499808	0.005901
 862	4.3050e-01	8.6078	14.093460	0.000522	5.216610	0.883718	0.010434
 863	4.3100e-01	8.6182	14.108427	0.000150	1.496569	0.253526	0.002993
 864	4.3150e-01	8.6285	14.133657	0.000252	2.522787	0.427372	0.005046
 865	4.3200e-01	8.6377	14.150762	0.000171	1.710364	0.289744	0.003421
 866	4.3250e-01	8.6475	14.173854	0.000231	2.308992	0.391154	0.004618
 867	4.3300e-01	8.6591	14.211485	0.000376	3.762801	0.637436	0.007526
 868	4.3350e-01	8.6682	14.240563	0.000291	2.907619	0.492564	0.005816
 869	4.3400e-01	8.6786	14.282898	0.000423	4.233151	0.717115	0.008467
 870	4.3450e-01	8.6899	14.283326	0.000004	0.042759	0.007244	0.000086
 871	4.3500e-01	8.6978	14.324378	0.000410	4.104874	0.695384	0.008210
 872	4.3550e-01	8.7085	14.350035	0.000257	2.565546	0.434615	0.005132
 873	4.3600e-01	8.7189	14.388094	0.000381	3.805560	0.644679	0.007612
 874	4.3650e-01	8.7280	14.418028	0.000299	2.993137	0.507051	0.005987
 875	4.3700e-01	8.7396	14.447534	0.000295	2.950378	0.499808	0.005901
 876	4.3750e-01	8.7500	14.456514	0.000090	0.897941	0.152115	0.001796
 877	4.3800e-01	8.7589	14.497566	0.000410	4.104874	0.695384	0.008210
 878	4.3850e-01	8.7646	14.526644	0.000291	2.907619	0.492564	0.005816
 879	4.3900e-01	8.7756	14.547170	0.000205	2.052437	0.347692	0.004105
 880	4.3950e-01	8.7878	14.584801	0.000376	3.762801	0.637436	0.007526
 881	4.4000e-01	8.7979	14.605327	0.000205	2.052437	0.347692	0.004105
 882	4.4050e-01	8.8113	14.629702	0.000244	2.437269	0.412885	0.004875
 883	4.4100e-01	8.8187	14.673320	0.000436	4.361428	0.738846	0.008724
 884	4.4150e-01	8.8287	14.660491	-0.000128	-1.282773	-0.217308	-0.002566
 885	4.4200e-01	8.8385	14.723780	0.000633	6.328347	1.072051	0.012658
 886	4.4250e-01	8.8464	14.759700	0.000359	3.591765	0.608461	0.007184
 887	4.4300e-01	8.8562	14.775095	0.000154	1.539328	0.260769	0.003079
 888	4.4350e-01	8.8672	14.802035	0.000269	2.693823	0.456346	0.005388
 889	4.4400e-01	8.8766	14.835817	0.000338	3.377969	0.572243	0.006756
 890	4.4450e-01	8.8885	14.860620	0.000248	2.480028	0.420128	0.004960
 891	4.4500e-01	8.8992	14.881573	0.000210	2.095196	0.354936	0.004191
 892	4.4550e-01	8.9081	14.917066	0.000355	3.549005	0.601218	0.007099
 893	4.4600e-01	8.9172	14.948711	0.000316	3.164174	0.536026	0.006329
 894	4.4650e-01	8.9252	14.987624	0.000389	3.891078	0.659167	0.007783
 895	4.4700e-01	8.9343	15.005585	0.000180	1.795882	0.304231	0.003592
 896	4.4750e-01	8.9471	15.042788	0.000372	3.720042	0.630192	0.007441
 897	4.4800e-01	8.9587	15.078281	0.000355	3.549005	0.601218	0.007099
 898	4.4850e-01	8.9682	15.100945	0.000227	2.266232	0.383910	0.004533
 899	4.4900e-01	8.9777	15.104366	0.000034	0.342073	0.057949	0.000684
 900	4.4950e-01	8.9880	15.137721	0.000334	3.335210	0.565000	0.006671
 901	4.5000e-01	8.9984	15.176635	0.000389	3.891078	0.659167	0.007783
 902	4.5050e-01	9.0088	15.202720	0.000261	2.608305	0.441859	0.005217
 903	4.5100e-01	9.0155	15.222818	0.000201	2.009678	0.340449	0.004020
 904	4.5150e-01	9.0277	15.261305	0.000385	3.848319	0.651923	0.007697
 905	4.5200e-01	9.0387	15.281831	0.000205	2.052437	0.347692	0.004105
 906	4.5250e-01	9.0485	15.305778	0.000239	2.394510	0.405641	0.004789
 907	4.5300e-01	9.0576	15.348113	0.000423	4.233151	0.717115	0.008467
 908	4.5350e-01	9.0686	15.372060	0.000239	2.394510	0.405641	0.004789
 909	4.5400e-01	9.0765	15.412684	0.000406	4.062115	0.688141	0.008125
 910	4.5450e-01	9.0839	15.419954	0.000073	0.726905	0.123141	0.001454
 911	4.5500e-01	9.0952	15.440052	0.000201	2.009678	0.340449	0.004020
 912	4.5550e-01	9.1058	15.487946	0.000479	4.789019	0.811282	0.009579
 913	4.5600e-01	9.1171	15.533702	0.000458	4.575224	0.775064	0.009151
 914	4.5650e-01	9.1272	15.540544	0.000068	0.684146	0.115897	0.001368
 915	4.5700e-01	9.1345	15.576037	0.000355	3.549005	0.601218	0.007099
 916	4.5750e-01	9.1486	15.604260	0.000282	2.822101	0.478077	0.005645
 917	4.5800e-01	9.1565	15.635477	0.000312	3.121414	0.528782	0.006243
 918	4.5850e-01	9.1678	15.660707	0.000252	2.522787	0.427372	0.005046
 919	4.5900e-01	9.1742	15.698765	0.000381	3.805560	0.644679	0.007612
 920	4.5950e-01	9.1870	15.716726	0.000180	1.795882	0.304231	0.003592
 921	4.6000e-01	9.1968	15.734258	0.000175	1.753123	0.296987	0.003507
 922	4.6050e-01	9.2059	15.762054	0.000278	2.779342	0.470833	0.005559
 923	4.6100e-01	9.2157	15.794981	0.000329	3.292451	0.557756	0.006585
 924	4.6150e-01	9.2261	15.842447	0.000475	4.746260	0.804038	0.009493
 925	4.6200e-01	9.2371	15.866394	0.000239	2.394510	0.405641	0.004789
 926	4.6250e-01	9.2462	15.890769	0.000244	2.437269	0.412885	0.004875
 927	4.6300e-01	9.2567	15.926262	0.000355	3.549005	0.601218	0.007099
 928	4.6350e-01	9.2670	15.975439	0.000492	4.917297	0.833013	0.009835
 929	4.6400e-01	9.2767	15.987840	0.000124	1.240014	0.210064	0.002480
 930	4.6450e-01	9.2859	15.999813	0.000120	1.197255	0.202820	0.002395
 931	4.6500e-01	9.2981	16.043004	0.000432	4.318669	0.731602	0.008638
 932	4.6550e-01	9.3066	16.054977	0.000120	1.197255	0.202820	0.002395
 933	4.6600e-01	9.3182	16.083628	0.000286	2.864860	0.485320	0.005730
 934	4.6650e-01	9.3265	16.132377	0.000487	4.874538	0.825769	0.009750
 935	4.6700e-01	9.3359	16.164449	0.000321	3.206933	0.543269	0.006414
 936	4.6750e-01	9.3451	16.179416	0.000150	1.496569	0.253526	0.002993
 937	4.6800e-01	9.3582	16.204218	0.000248	2.480028	0.420128	0.004960
 938	4.6850e-01	9.3652	16.235863	0.000316	3.164174	0.536026	0.006329
 939	4.6900e-01	9.3750	16.257672	0.000218	2.180714	0.369423	0.004362
 940	4.6950e-01	9.3854	16.295303	0.000376	3.762801	0.637436	0.007526
 941	4.7000e-01	9.3958	16.328657	0.000334	3.335210	0.565000	0.006671
 942	4.7050e-01	9.4067	16.337210	0.000086	0.855182	0.144872	0.001711
 943	4.7100e-01	9.4165	16.386814	0.000496	4.960056	0.840256	0.009921
 944	4.7150e-01	9.4263	16.412472	0.000257	2.565546	0.434615	0.005132
 945	4.7200e-01	9.4385	16.424873	0.000124	1.240014	0.210064	0.002480
 946	4.7250e-01	9.4458	16.450958	0.000261	2.608305	0.441859	0.005217
 947	4.7300e-01	9.4556	16.499707	0.000487	4.874538	0.825769	0.009750
 948	4.7350e-01	9.4641	16.536911	0.000372	3.720042	0.630192	0.007441
 949	4.7400e-01	9.4757	16.551450	0.000145	1.453809	0.246282	0.002908
 950	4.7450e-01	9.4849	16.580956	0.000295	2.950378	0.499808	0.005901
 951	4.7500e-01	9.4952	16.597206	0.000162	1.624846	0.275256	0.003250
 952	4.7550e-01	9.5056	16.617732	0.000205	2.052437	0.347692	0.004105
 953	4.7600e-01	9.5154	16.660495	0.000428	4.275910	0.724359	0.008553
 954	4.7650e-01	9.5251	16.687435	0.000269	2.693823	0.456346	0.005388
 955	4.7700e-01	9.5367	16.718224	0.000308	3.078655	0.521538	0.006158
 956	4.7750e-01	9.5465	16.762269	0.000440	4.404188	0.746090	0.008809
 957	4.7800e-01	9.5578	16.776381	0.000141	1.411050	0.239038	0.002822
 958	4.7850e-01	9.5667	16.807170	0.000308	3.078655	0.521538	0.006158
 959	4.7900e-01	9.5770	16.841380	0.000342	3.420728	0.579487	0.006842
 960	4.7950e-01	9.5868	16.864044	0.000227	2.266232	0.383910	0.004533
 961	4.8000e-01	9.5950	16.911511	0.000475	4.746260	0.804038	0.009493
 962	4.8050e-01	9.6063	16.920063	0.000086	0.855182	0.144872	0.001711
 963	4.8100e-01	9.6149	16.963681	0.000436	4.361428	0.738846	0.008724
 964	4.8150e-01	9.6249	16.980358	0.000167	1.667605	0.282500	0.003335
 965	4.8200e-01	9.6356	17.003450	0.000231	2.308992	0.391154	0.004618
 966	4.8250e-01	9.6478	17.035950	0.000325	3.249692	0.550513	0.006500
 967	4.8300e-01	9.6585	17.058614	0.000227	2.266232	0.383910	0.004533
 968	4.8350e-01	9.6661	17.116771	0.000582	5.815238	0.985128	0.011631
 969	4.8400e-01	9.6771	17.120192	0.000034	0.342073	0.057949	0.000684
 970	4.8450e-01	9.6875	17.153974	0.000338	3.377969	0.572243	0.006756
 971	4.8500e-01	9.6973	17.184335	0.000304	3.035896	0.514295	0.006072
 972	4.8550e-01	9.7070	17.205289	0.000210	2.095196	0.354936	0.004191
 973	4.8600e-01	9.7174	17.249762	0.000445	4.446947	0.753333	0.008895
 974	4.8650e-01	9.7266	17.272854	0.000231	2.308992	0.391154	0.004618
 975	4.8700e-01	9.7375	17.295946	0.000231	2.308992	0.391154	0.004618
 976	4.8750e-01	9.7461	17.321176	0.000252	2.522787	0.427372	0.005046
 977	4.8800e-01	9.7595	17.344267	0.000231	2.308992	0.391154	0.004618
 978	4.8850e-01	9.7656	17.395155	0.000509	5.088333	0.861987	0.010177
 979	4.8900e-01	9.7760	17.407556	0.000124	1.240014	0.210064	0.002480
 980	4.8950e-01	9.7858	17.434069	0.000265	2.651064	0.449102	0.005303
 981	4.9000e-01	9.7943	17.452029	0.000180	1.795882	0.304231	0.003592
 982	4.9050e-01	9.8047	17.496502	0.000445	4.446947	0.753333	0.008895
 983	4.9100e-01	9.8163	17.522159	0.000257	2.565546	0.434615	0.005132
 984	4.9150e-01	9.8248	17.565350	0.000432	4.318669	0.731602	0.008638
 985	4.9200e-01	9.8358	17.569198	0.000038	0.384832	0.065192	0.000770
 986	4.9250e-01	9.8438	17.620513	0.000513	5.131092	0.869231	0.010263
 987	4.9300e-01	9.8560	17.649592	0.000291	2.907619	0.492564	0.005816
 988	4.9350e-01	9.8657	17.670118	0.000205	2.052437	0.347692	0.004105
 989	4.9400e-01	9.8779	17.712453	0.000423	4.233151	0.717115	0.008467
 990	4.9450e-01	9.8877	17.739393	0.000269	2.693823	0.456346	0.005388
 991	4.9500e-01	9.8959	17.753505	0.000141	1.411050	0.239038	0.002822
 992	4.9550e-01	9.9048	17.781300	0.000278	2.779342	0.470833	0.005559
 993	4.9600e-01	9.9146	17.845017	0.000637	6.371106	1.079295	0.012743
 994	4.9650e-01	9.9274	17.853997	0.000090	0.897941	0.152115	0.001796
 995	4.9700e-01	9.9365	17.895904	0.000419	4.190392	0.709872	0.008381
 996	4.9750e-01	9.9500	17.910016	0.000141	1.411050	0.239038	0.002822
 997	4.9800e-01	9.9579	17.936101	0.000261	2.608305	0.441859	0.005217
 998	4.9850e-01	9.9670	17.955771	0.000197	1.966919	0.333205	0.003934
 999	4.9900e-01	9.9762	17.986133	0.000304	3.035896	0.514295	0.006072
1000	4.9950e-01	9.9866	18.029323	0.000432	4.318669	0.731602	0.008638
1001	5.0000e-01	9.9954	18.045573	0.000162	1.624846	0.275256	0.003250
1002	5.0050e-01	9.9854	18.002383	0.000432	4.318669	0.731602	-0.008638
1003	5.0100e-01	9.9695	18.003238	-0.000009	-0.085518	-0.014487	0.000171
1004	5.0150e-01	9.9643	17.962186	0.000410	4.104874	0.695384	-0.008210
1005	5.0200e-01	9.9561	17.961331	0.000009	0.085518	0.014487	-0.000171
1006	5.0250e-01	9.9445	17.932252	0.000291	2.907619	0.492564	-0.005816
1007	5.0300e-01	9.9341	17.916002	0.000162	1.624846	0.275256	-0.003250
1008	5.0350e-01	9.9261	17.901891	0.000141	1.411050	0.239038	-0.002822
1009	5.0400e-01	9.9152	17.865970	0.000359	3.591765	0.608461	-0.007184
1010	5.0450e-01	9.9060	17.851859	0.000141	1.411050	0.239038	-0.002822
1011	5.0500e-01	9.8956	17.829622	0.000222	2.223473	0.376667	-0.004447
1012	5.0550e-01	9.8868	17.823208	0.000064	0.641387	0.108654	-0.001283
1013	5.0600e-01	9.8755	17.807813	0.000154	1.539328	0.260769	-0.003079
1014	5.0650e-01	9.8645	17.793274	0.000145	1.453809	0.246282	-0.002908
1015	5.0700e-01	9.8578	17.782156	0.000111	1.111737	0.188333	-0.002224
1016	5.0750e-01	9.8505	17.745807	0.000363	3.634524	0.615705	-0.007270
1017	5.0800e-01	9.8376	17.730841	0.000150	1.496569	0.253526	-0.002993
1018	5.0850e-01	9.8257	17.708176	0.000227	2.266232	0.383910	-0.004533
1019	5.0900e-01	9.8169	17.697058	0.000111	1.111737	0.188333	-0.002224
1020	5.0950e-01	9.8059	17.676960	0.000201	2.009678	0.340449	-0.004020
1021	5.1000e-01	9.7961	17.653013	0.000239	2.394510	0.405641	-0.004789
1022	5.1050e-01	9.7845	17.635053	0.000180	1.795882	0.304231	-0.003592
1023	5.1100e-01	9.7742	17.614954	0.000201	2.009678	0.340449	-0.004020
1024	5.1150e-01	9.7644	17.584165	0.000308	3.078655	0.521538	-0.006158
1025	5.1200e-01	9.7540	17.570909	0.000133	1.325532	0.224551	-0.002651
1026	5.1250e-01	9.7467	17.535416	0.000355	3.549005	0.601218	-0.007099
1027	5.1300e-01	9.7342	17.532850	0.000026	0.256555	0.043462	-0.000513
1028	5.1350e-01	9.7260	17.531140	0.000017	0.171036	0.028974	-0.000342
1029	5.1400e-01	9.7156	17.504199	0.000269	2.693823	0.456346	-0.005388
1030	5.1450e-01	9.7064	17.467423	0.000368	3.677283	0.622949	-0.007355
1031	5.1500e-01	9.6954	17.446897	0.000205	2.052437	0.347692	-0.004105
1032	5.1550e-01	9.6838	17.440055	0.000068	0.684146	0.115897	-0.001368
1033	5.1600e-01	9.6753	17.378050	0.000620	6.200070	1.050320	-0.012401
1034	5.1650e-01	9.6643	17.363510	0.000145	1.453809	0.246282	-0.002908
1035	5.1700e-01	9.6588	17.344695	0.000188	1.881400	0.318718	-0.003763
1036	5.1750e-01	9.6466	17.330583	0.000141	1.411050	0.239038	-0.002822
1037	5.1800e-01	9.6350	17.335287	-0.000047	-0.470350	-0.079679	0.000941
1038	5.1850e-01	9.6259	17.286538	0.000487	4.874538	0.825769	-0.009750
1039	5.1900e-01	9.6158	17.263874	0.000227	2.266232	0.383910	-0.004533
1040	5.1950e-01	9.6082	17.262163	0.000017	0.171036	0.028974	-0.000342
1041	5.2000e-01	9.5947	17.201440	0.000607	6.071792	1.028589	-0.012145
1042	5.2050e-01	9.5868	17.209565	-0.000081	-0.812423	-0.137628	0.001625
1043	5.2100e-01	9.5770	17.185191	0.000244	2.437269	0.412885	-0.004875
1044	5.2150e-01	9.5673	17.164665	0.000205	2.052437	0.347692	-0.004105
1045	5.2200e-01	9.5569	17.138580	0.000261	2.608305	0.441859	-0.005217
1046	5.2250e-01	9.5483	17.128317	0.000103	1.026218	0.173846	-0.002053
1047	5.2300e-01	9.5349	17.097955	0.000304	3.035896	0.514295	-0.006072
1048	5.2350e-01	9.5270	17.069304	0.000286	2.864860	0.485320	-0.005730
1049	5.2400e-01	9.5160	17.065456	0.000038	0.384832	0.065192	-0.000770
1050	5.2450e-01	9.5056	17.057758	0.000077	0.769664	0.130385	-0.001539
1051	5.2500e-01	9.4962	17.010292	0.000475	4.746260	0.804038	-0.009493
1052	5.2550e-01	9.4836	16.999601	0.000107	1.068978	0.181090	-0.002138
1053	5.2600e-01	9.4751	16.958549	0.000410	4.104874	0.695384	-0.008210
1054	5.2650e-01	9.4653	16.955984	0.000026	0.256555	0.043462	-0.000513
1055	5.2700e-01	9.4563	16.926477	0.000295	2.950378	0.499808	-0.005901
1056	5.2750e-01	9.4464	16.896971	0.000295	2.950378	0.499808	-0.005901
1057	5.2800e-01	9.4348	16.908090	-0.000111	-1.111737	-0.188333	0.002224
1058	5.2850e-01	9.4247	16.857202	0.000509	5.088333	0.861987	-0.010177
1059	5.2900e-01	9.4165	16.841808	0.000154	1.539328	0.260769	-0.003079
1060	5.2950e-01	9.4073	16.806742	0.000351	3.506246	0.593974	-0.007013
1061	5.3000e-01	9.3951	16.788782	0.000180	1.795882	0.304231	-0.003592
1062	5.3050e-01	9.3878	16.759276	0.000295	2.950378	0.499808	-0.005901
1063	5.3100e-01	9.3762	16.734474	0.000248	2.480028	0.420128	-0.004960
1064	5.3150e-01	9.3649	16.715658	0.000188	1.881400	0.318718	-0.003763
1065	5.3200e-01	9.3555	16.703685	0.000120	1.197255	0.202820	-0.002395
1066	5.3250e-01	9.3469	16.688290	0.000154	1.539328	0.260769	-0.003079
1067	5.3300e-01	9.3362	16.656218	0.000321	3.206933	0.543269	-0.006414
1068	5.3350e-01	9.3250	16.617732	0.000385	3.848319	0.651923	-0.007697
1069	5.3400e-01	9.3164	16.609179	0.000086	0.855182	0.144872	-0.001711
1070	5.3450e-01	9.3060	16.593357	0.000158	1.582087	0.268013	-0.003164
1071	5.3500e-01	9.2950	16.571121	0.000222	2.223473	0.376667	-0.004447
1072	5.3550e-01	9.2834	16.538194	0.000329	3.292451	0.557756	-0.006585
1073	5.3600e-01	9.2761	16.529214	0.000090	0.897941	0.152115	-0.001796
1074	5.3650e-01	9.2664	16.510826	0.000184	1.838641	0.311474	-0.003678
1075	5.3700e-01	9.2554	16.462504	0.000483	4.831779	0.818525	-0.009664
1076	5.3750e-01	9.2474	16.451813	0.000107	1.068978	0.181090	-0.002138
1077	5.3800e-01	9.2358	16.412899	0.000389	3.891078	0.659167	-0.007783
1078	5.3850e-01	9.2267	16.410761	0.000021	0.213796	0.036218	-0.000428
1079	5.3900e-01	9.2163	16.395367	0.000154	1.539328	0.260769	-0.003079
1080	5.3950e-01	9.2059	16.355598	0.000398	3.976596	0.673654	-0.007954
1081	5.4000e-01	9.1980	16.328657	0.000269	2.693823	0.456346	-0.005388
1082	5.4050e-01	9.1833	16.310697	0.000180	1.795882	0.304231	-0.003592
1083	5.4100e-01	9.1754	16.279480	0.000312	3.121414	0.528782	-0.006243
1084	5.4150e-01	9.1650	16.274349	0.000051	0.513109	0.086923	-0.001026
1085	5.4200e-01	9.1583	16.225600	0.000487	4.874538	0.825769	-0.009750
1086	5.4250e-01	9.1431	16.205074	0.000205	2.052437	0.347692	-0.004105
1087	5.4300e-01	9.1364	16.198232	0.000068	0.684146	0.115897	-0.001368
1088	5.4350e-01	9.1238	16.169581	0.000286	2.864860	0.485320	-0.005730
1089	5.4400e-01	9.1150	16.149910	0.000197	1.966919	0.333205	-0.003934
1090	5.4450e-01	9.1052	16.114845	0.000351	3.506246	0.593974	-0.007013
1091	5.4500e-01	9.0961	16.104582	0.000103	1.026218	0.173846	-0.002053
1092	5.4550e-01	9.0863	16.050701	0.000539	5.387647	0.912692	-0.010776
1093	5.4600e-01	9.0759	16.041721	0.000090	0.897941	0.152115	-0.001796
1094	5.4650e-01	9.0668	16.018201	0.000235	2.351751	0.398397	-0.004704
1095	5.4700e-01	9.0546	16.004945	0.000133	1.325532	0.224551	-0.002651
1096	5.4750e-01	9.0442	15.971590	0.000334	3.335210	0.565000	-0.006671
1097	5.4800e-01	9.0344	15.955340	0.000162	1.624846	0.275256	-0.003250
1098	5.4850e-01	9.0265	15.921130	0.000342	3.420728	0.579487	-0.006842
1099	5.4900e-01	9.0164	15.910440	0.000107	1.068978	0.181090	-0.002138
1100	5.4950e-01	9.0063	15.888203	0.000222	2.223473	0.376667	-0.004447
1101	5.5000e-01	8.9984	15.855276	0.000329	3.292451	0.557756	-0.006585
1102	5.5050e-01	8.9862	15.818928	0.000363	3.634524	0.615705	-0.007270
1103	5.5100e-01	8.9755	15.806099	0.000128	1.282773	0.217308	-0.002566
1104	5.5150e-01	8.9667	15.789849	0.000162	1.624846	0.275256	-0.003250
1105	5.5200e-01	8.9575	15.757350	0.000325	3.249692	0.550513	-0.006500
1106	5.5250e-01	8.9459	15.741955	0.000154	1.539328	0.260769	-0.003079
1107	5.5300e-01	8.9349	15.720147	0.000218	2.180714	0.369423	-0.004362
1108	5.5350e-01	8.9233	15.693206	0.000269	2.693823	0.456346	-0.005388
1109	5.5400e-01	8.9160	15.676101	0.000171	1.710364	0.289744	-0.003421
1110	5.5450e-01	8.9063	15.626069	0.000500	5.002815	0.847500	-0.010006
1111	5.5500e-01	8.8965	15.612385	0.000137	1.368291	0.231795	-0.002737
1112	5.5550e-01	8.8873	15.599556	0.000128	1.282773	0.217308	-0.002566
1113	5.5600e-01	8.8788	15.574326	0.000252	2.522787	0.427372	-0.005046
1114	5.5650e-01	8.8667	15.547386	0.000269	2.693823	0.456346	-0.005388
1115	5.5700e-01	8.8544	15.520446	0.000269	2.693823	0.456346	-0.005388
1116	5.5750e-01	8.8458	15.493078	0.000274	2.736583	0.463590	-0.005474
1117	5.5800e-01	8.8348	15.481104	0.000120	1.197255	0.202820	-0.002395
1118	5.5850e-01	8.8263	15.430217	0.000509	5.088333	0.861987	-0.010177
1119	5.5900e-01	8.8126	15.437486	-0.000073	-0.726905	-0.123141	0.001454
1120	5.5950e-01	8.8037	15.390875	0.000466	4.660742	0.789551	-0.009322
1121	5.6000e-01	8.7982	15.385744	0.000051	0.513109	0.086923	-0.001026
1122	5.6050e-01	8.7872	15.330152	0.000556	5.558683	0.941666	-0.011118
1123	5.6100e-01	8.7769	15.331435	-0.000013	-0.128277	-0.021731	0.000257
1124	5.6150e-01	8.7659	15.310054	0.000214	2.137955	0.362179	-0.004276
1125	5.6200e-01	8.7585	15.258311	0.000517	5.173851	0.876474	-0.010349
1126	5.6250e-01	8.7476	15.244200	0.000141	1.411050	0.239038	-0.002822
1127	5.6300e-01	8.7347	15.213411	0.000308	3.078655	0.521538	-0.006158
1128	5.6350e-01	8.7286	15.208707	0.000047	0.470350	0.079679	-0.000941
1129	5.6400e-01	8.7152	15.182622	0.000261	2.608305	0.441859	-0.005217
1130	5.6450e-01	8.7079	15.168082	0.000145	1.453809	0.246282	-0.002908
1131	5.6500e-01	8.6975	15.148412	0.000197	1.966919	0.333205	-0.003934
1132	5.6550e-01	8.6853	15.101800	0.000466	4.660742	0.789551	-0.009322
1133	5.6600e-01	8.6792	15.072722	0.000291	2.907619	0.492564	-0.005816
1134	5.6650e-01	8.6664	15.060748	0.000120	1.197255	0.202820	-0.002395
1135	5.6700e-01	8.6542	15.025255	0.000355	3.549005	0.601218	-0.007099
1136	5.6750e-01	8.6450	14.994466	0.000308	3.078655	0.521538	-0.006158
1137	5.6800e-01	8.6353	14.972658	0.000218	2.180714	0.369423	-0.004362
1138	5.6850e-01	8.6279	14.959829	0.000128	1.282773	0.217308	-0.002566
1139	5.6900e-01	8.6163	14.936309	0.000235	2.351751	0.398397	-0.004704
1140	5.6950e-01	8.6053	14.895685	0.000406	4.062115	0.688141	-0.008125
1141	5.7000e-01	8.5974	14.873448	0.000222	2.223473	0.376667	-0.004447
1142	5.7050e-01	8.5883	14.850357	0.000231	2.308992	0.391154	-0.004618
1143	5.7100e-01	8.5785	14.838811	0.000115	1.154496	0.195577	-0.002309
1144	5.7150e-01	8.5675	14.805456	0.000334	3.335210	0.565000	-0.006671
1145	5.7200e-01	8.5596	14.784930	0.000205	2.052437	0.347692	-0.004105
1146	5.7250e-01	8.5477	14.752431	0.000325	3.249692	0.550513	-0.006500
1147	5.7300e-01	8.5391	14.725063	0.000274	2.736583	0.463590	-0.005474
1148	5.7350e-01	8.5260	14.700260	0.000248	2.480028	0.420128	-0.004960
1149	5.7400e-01	8.5187	14.682300	0.000180	1.795882	0.304231	-0.003592
1150	5.7450e-01	8.5071	14.655360	0.000269	2.693823	0.456346	-0.005388
1151	5.7500e-01	8.4979	14.624998	0.000304	3.035896	0.514295	-0.006072
1152	5.7550e-01	8.4875	14.597203	0.000278	2.779342	0.470833	-0.005559
1153	5.7600e-01	8.4778	14.591643	0.000056	0.555868	0.094167	-0.001112
1154	5.7650e-01	8.4680	14.547598	0.000440	4.404188	0.746090	-0.008809
1155	5.7700e-01	8.4558	14.520658	0.000269	2.693823	0.456346	-0.005388
1156	5.7750e-01	8.4473	14.487303	0.000334	3.335210	0.565000	-0.006671
1157	5.7800e-01	8.4375	14.480888	0.000064	0.641387	0.108654	-0.001283
1158	5.7850e-01	8.4265	14.444113	0.000368	3.677283	0.622949	-0.007355
1159	5.7900e-01	8.4155	14.430429	0.000137	1.368291	0.231795	-0.002737
1160	5.7950e-01	8.4052	14.404771	0.000257	2.565546	0.434615	-0.005132
1161	5.8000e-01	8.3966	14.378258	0.000265	2.651064	0.449102	-0.005303
1162	5.8050e-01	8.3856	14.350463	0.000278	2.779342	0.470833	-0.005559
1163	5.8100e-01	8.3759	14.333358	0.000171	1.710364	0.289744	-0.003421
1164	5.8150e-01	8.3667	14.293161	0.000402	4.019356	0.680897	-0.008039
1165	5.8200e-01	8.3588	14.255102	0.000381	3.805560	0.644679	-0.007612
1166	5.8250e-01	8.3478	14.229445	0.000257	2.565546	0.434615	-0.005132
1167	5.8300e-01	8.3350	14.223886	0.000056	0.555868	0.094167	-0.001112
1168	5.8350e-01	8.3258	14.186682	0.000372	3.720042	0.630192	-0.007441
1169	5.8400e-01	8.3160	14.170433	0.000162	1.624846	0.275256	-0.003250
1170	5.8450e-01	8.3051	14.140926	0.000295	2.950378	0.499808	-0.005901
1171	5.8500e-01	8.2942	14.113558	0.000274	2.736583	0.463590	-0.005474
1172	5.8550e-01	8.2861	14.107572	0.000060	0.598627	0.101410	-0.001197
1173	5.8600e-01	8.2758	14.078921	0.000286	2.864860	0.485320	-0.005730
1174	5.8650e-01	8.2666	14.037869	0.000410	4.104874	0.695384	-0.008210
1175	5.8700e-01	8.2584	14.016060	0.000218	2.180714	0.369423	-0.004362
1176	5.8750e-01	8.2477	13.983988	0.000321	3.206933	0.543269	-0.006414
1177	5.8800e-01	8.2330	13.971587	0.000124	1.240014	0.210064	-0.002480
1178	5.8850e-01	8.2251	13.930535	0.000410	4.104874	0.695384	-0.008210
1179	5.8900e-01	8.2172	13.895042	0.000355	3.549005	0.601218	-0.007099
1180	5.8950e-01	8.2068	13.896752	-0.000017	-0.171036	-0.028974	0.000342
1181	5.9000e-01	8.1970	13.854417	0.000423	4.233151	0.717115	-0.008467
1182	5.9050e-01	8.1836	13.826194	0.000282	2.822101	0.478077	-0.005645
1183	5.9100e-01	8.1757	13.813793	0.000124	1.240014	0.210064	-0.002480
1184	5.9150e-01	8.1659	13.794122	0.000197	1.966919	0.333205	-0.003934
1185	5.9200e-01	8.1543	13.777445	0.000167	1.667605	0.282500	-0.003335
1186	5.9250e-01	8.1461	13.709452	0.000680	6.798697	1.151730	-0.013598
1187	5.9300e-01	8.1366	13.692775	0.000167	1.667605	0.282500	-0.003335
1188	5.9350e-01	8.1284	13.658993	0.000338	3.377969	0.572243	-0.006756
1189	5.9400e-01	8.1158	13.670966	-0.000120	-1.197255	-0.202820	0.002395
1190	5.9450e-01	8.1042	13.633335	0.000376	3.762801	0.637436	-0.007526
1191	5.9500e-01	8.0969	13.613664	0.000197	1.966919	0.333205	-0.003934
1192	5.9550e-01	8.0859	13.587152	0.000265	2.651064	0.449102	-0.005303
1193	5.9600e-01	8.0762	13.550376	0.000368	3.677283	0.622949	-0.007355
1194	5.9650e-01	8.0673	13.525574	0.000248	2.480028	0.420128	-0.004960
1195	5.9700e-01	8.0579	13.478535	0.000470	4.703501	0.796795	-0.009408
1196	5.9750e-01	8.0463	13.468699	0.000098	0.983459	0.166603	-0.001967
1197	5.9800e-01	8.0383	13.443042	0.000257	2.565546	0.434615	-0.005132
1198	5.9850e-01	8.0280	13.413536	0.000295	2.950378	0.499808	-0.005901
1199	5.9900e-01	8.0188	13.388306	0.000252	2.522787	0.427372	-0.005046
1200	5.9950e-01	8.0042	13.363931	0.000244	2.437269	0.412885	-0.004875
1201	6.0000e-01	7.9999	13.343833	0.000201	2.009678	0.340449	-0.004020
1202	6.0050e-01	7.9858	13.313471	0.000304	3.035896	0.514295	-0.006072
1203	6.0100e-01	7.9773	13.284393	0.000291	2.907619	0.492564	-0.005816
1204	6.0150e-01	7.9663	13.269854	0.000145	1.453809	0.246282	-0.002908
1205	6.0200e-01	7.9553	13.256597	0.000133	1.325532	0.224551	-0.002651
1206	6.0250e-01	7.9492	13.209986	0.000466	4.660742	0.789551	-0.009322
1207	6.0300e-01	7.9340	13.180908	0.000291	2.907619	0.492564	-0.005816
1208	6.0350e-01	7.9260	13.171928	0.000090	0.897941	0.152115	-0.001796
1209	6.0400e-01	7.9196	13.130020	0.000419	4.190392	0.709872	-0.008381
1210	6.0450e-01	7.9071	13.091534	0.000385	3.848319	0.651923	-0.007697
1211	6.0500e-01	7.8937	13.071008	0.000205	2.052437	0.347692	-0.004105
1212	6.0550e-01	7.8876	13.041929	0.000291	2.907619	0.492564	-0.005816
1213	6.0600e-01	7.8766	13.039364	0.000026	0.256555	0.043462	-0.000513
1214	6.0650e-01	7.8668	13.002588	0.000368	3.677283	0.622949	-0.007355
1215	6.0700e-01	7.8568	12.959398	0.000432	4.318669	0.731602	-0.008638
1216	6.0750e-01	7.8479	12.947424	0.000120	1.197255	0.202820	-0.002395
1217	6.0800e-01	7.8345	12.933740	0.000137	1.368291	0.231795	-0.002737
1218	6.0850e-01	7.8247	12.898247	0.000355	3.549005	0.601218	-0.007099
1219	6.0900e-01	7.8143	12.867031	0.000312	3.121414	0.528782	-0.006243
1220	6.0950e-01	7.8070	12.831538	0.000355	3.549005	0.601218	-0.007099
1221	6.1000e-01	7.7963	12.801176	0.000304	3.035896	0.514295	-0.006072
1222	6.1050e-01	7.7863	12.797755	0.000034	0.342073	0.057949	-0.000684
1223	6.1100e-01	7.7765	12.762263	0.000355	3.549005	0.601218	-0.007099
1224	6.1150e-01	7.7670	12.732756	0.000295	2.950378	0.499808	-0.005901
1225	6.1200e-01	7.7591	12.705388	0.000274	2.736583	0.463590	-0.005474
1226	6.1250e-01	7.7441	12.670751	0.000346	3.463487	0.586731	-0.006928
1227	6.1300e-01	7.7356	12.651508	0.000192	1.924160	0.325961	-0.003849
1228	6.1350e-01	7.7258	12.622429	0.000291	2.907619	0.492564	-0.005816
1229	6.1400e-01	7.7158	12.602331	0.000201	2.009678	0.340449	-0.004020
1230	6.1450e-01	7.7051	12.567693	0.000346	3.463487	0.586731	-0.006928
1231	6.1500e-01	7.6965	12.542035	0.000257	2.565546	0.434615	-0.005132
1232	6.1550e-01	7.6874	12.518516	0.000235	2.351751	0.398397	-0.004704
1233	6.1600e-01	7.6755	12.477892	0.000406	4.062115	0.688141	-0.008125
1234	6.1650e-01	7.6660	12.459504	0.000184	1.838641	0.311474	-0.003678
1235	6.1700e-01	7.6538	12.425721	0.000338	3.377969	0.572243	-0.006756
1236	6.1750e-01	7.6453	12.407761	0.000180	1.795882	0.304231	-0.003592
1237	6.1800e-01	7.6369	12.385525	0.000222	2.223473	0.376667	-0.004447
1238	6.1850e-01	7.6276	12.352597	0.000329	3.292451	0.557756	-0.006585
1239	6.1900e-01	7.6147	12.326085	0.000265	2.651064	0.449102	-0.005303
1240	6.1950e-01	7.6074	12.300855	0.000252	2.522787	0.427372	-0.005046
1241	6.2000e-01	7.5983	12.284177	0.000167	1.667605	0.282500	-0.003335
1242	6.2050e-01	7.5836	12.252533	0.000316	3.164174	0.536026	-0.006329
1243	6.2100e-01	7.5751	12.233718	0.000188	1.881400	0.318718	-0.003763
1244	6.2150e-01	7.5671	12.186679	0.000470	4.703501	0.796795	-0.009408
1245	6.2200e-01	7.5540	12.175988	0.000107	1.068978	0.181090	-0.002138
1246	6.2250e-01	7.5446	12.134936	0.000410	4.104874	0.695384	-0.008210
1247	6.2300e-01	7.5342	12.109279	0.000257	2.565546	0.434615	-0.005132
1248	6.2350e-01	7.5250	12.087470	0.000218	2.180714	0.369423	-0.004362
1249	6.2400e-01	7.5171	12.079773	0.000077	0.769664	0.130385	-0.001539
1250	6.2450e-01	7.5061	12.024609	0.000552	5.515924	0.934423	-0.011033
1251	6.2500e-01	7.4966	11.993820	0.000308	3.078655	0.521538	-0.006158
1252	6.2550e-01	7.4872	11.955761	0.000381	3.805560	0.644679	-0.007612
1253	6.2600e-01	7.4750	11.942505	0.000133	1.325532	0.224551	-0.002651
1254	6.2650e-01	7.4658	11.914709	0.000278	2.779342	0.470833	-0.005559
1255	6.2700e-01	7.4548	11.899742	0.000150	1.496569	0.253526	-0.002993
1256	6.2750e-01	7.4475	11.883493	0.000162	1.624846	0.275256	-0.003250
1257	6.2800e-01	7.4359	11.844579	0.000389	3.891078	0.659167	-0.007783
1258	6.2850e-01	7.4268	11.816783	0.000278	2.779342	0.470833	-0.005559
1259	6.2900e-01	7.4155	11.780863	0.000359	3.591765	0.608461	-0.007184
1260	6.2950e-01	7.4060	11.760764	0.000201	2.009678	0.340449	-0.004020
1261	6.3000e-01	7.3950	11.738528	0.000222	2.223473	0.376667	-0.004447
1262	6.3050e-01	7.3883	11.692772	0.000458	4.575224	0.775064	-0.009151
1263	6.3100e-01	7.3758	11.675667	0.000171	1.710364	0.289744	-0.003421
1264	6.3150e-01	7.3645	11.650009	0.000257	2.565546	0.434615	-0.005132
1265	6.3200e-01	7.3553	11.625207	0.000248	2.480028	0.420128	-0.004960
1266	6.3250e-01	7.3477	11.581589	0.000436	4.361428	0.738846	-0.008724
1267	6.3300e-01	7.3376	11.558070	0.000235	2.351751	0.398397	-0.004704
1268	6.3350e-01	7.3267	11.536261	0.000218	2.180714	0.369423	-0.004362
1269	6.3400e-01	7.3163	11.515307	0.000210	2.095196	0.354936	-0.004191
1270	6.3450e-01	7.3065	11.501623	0.000137	1.368291	0.231795	-0.002737
1271	6.3500e-01	7.2968	11.438762	0.000629	6.285588	1.064807	-0.012572
1272	6.3550e-01	7.2858	11.431065	0.000077	0.769664	0.130385	-0.001539
1273	6.3600e-01	7.2760	11.400704	0.000304	3.035896	0.514295	-0.006072
1274	6.3650e-01	7.2650	11.362217	0.000385	3.848319	0.651923	-0.007697
1275	6.3700e-01	7.2583	11.335705	0.000265	2.651064	0.449102	-0.005303
1276	6.3750e-01	7.2467	11.326297	0.000094	0.940700	0.159359	-0.001882
1277	6.3800e-01	7.2394	11.283962	0.000423	4.233151	0.717115	-0.008467
1278	6.3850e-01	7.2278	11.251462	0.000325	3.249692	0.550513	-0.006500
1279	6.3900e-01	7.2150	11.244193	0.000073	0.726905	0.123141	-0.001454
1280	6.3950e-01	7.2083	11.178766	0.000654	6.542143	1.108269	-0.013085
1281	6.4000e-01	7.1948	11.155247	0.000235	2.351751	0.398397	-0.004704
1282	6.4050e-01	7.1887	11.142418	0.000128	1.282773	0.217308	-0.002566
1283	6.4100e-01	7.1747	11.133010	0.000094	0.940700	0.159359	-0.001882
1284	6.4150e-01	7.1655	11.088110	0.000449	4.489706	0.760577	-0.008980
1285	6.4200e-01	7.1600	11.061597	0.000265	2.651064	0.449102	-0.005303
1286	6.4250e-01	7.1451	11.034656	0.000269	2.693823	0.456346	-0.005388
1287	6.4300e-01	7.1350	11.021400	0.000133	1.325532	0.224551	-0.002651
1288	6.4350e-01	7.1254	10.983769	0.000376	3.762801	0.637436	-0.007526
1289	6.4400e-01	7.1173	10.962388	0.000214	2.137955	0.362179	-0.004276
1290	6.4450e-01	7.1075	10.914921	0.000475	4.746260	0.804038	-0.009493
1291	6.4500e-01	7.0966	10.917915	-0.000030	-0.299314	-0.050705	0.000599
1292	6.4550e-01	7.0862	10.880711	0.000372	3.720042	0.630192	-0.007441
1293	6.4600e-01	7.0770	10.835383	0.000453	4.532465	0.767820	-0.009066
1294	6.4650e-01	7.0650	10.823410	0.000120	1.197255	0.202820	-0.002395
1295	6.4700e-01	7.0557	10.790910	0.000325	3.249692	0.550513	-0.006500
1296	6.4750e-01	7.0459	10.746437	0.000445	4.446947	0.753333	-0.008895
1297	6.4800e-01	7.0380	10.717786	0.000286	2.864860	0.485320	-0.005730
1298	6.4850e-01	7.0239	10.713510	0.000043	0.427591	0.072436	-0.000855
1299	6.4900e-01	7.0166	10.673313	0.000402	4.019356	0.680897	-0.008039
1300	6.4950e-01	7.0068	10.635254	0.000381	3.805560	0.644679	-0.007612
1301	6.5000e-01	6.9958	10.621998	0.000133	1.325532	0.224551	-0.002651
1302	6.5050e-01	6.9839	10.580518	0.000415	4.147633	0.702628	-0.008296
1303	6.5100e-01	6.9772	10.559992	0.000205	2.052437	0.347692	-0.004105
1304	6.5150e-01	6.9678	10.524072	0.000359	3.591765	0.608461	-0.007184
1305	6.5200e-01	6.9547	10.496704	0.000274	2.736583	0.463590	-0.005474
1306	6.5250e-01	6.9452	10.486441	0.000103	1.026218	0.173846	-0.002053
1307	6.5300e-01	6.9351	10.442395	0.000440	4.404188	0.746090	-0.008809
1308	6.5350e-01	6.9260	10.419304	0.000231	2.308992	0.391154	-0.004618
1309	6.5400e-01	6.9165	10.387232	0.000321	3.206933	0.543269	-0.006414
1310	6.5450e-01	6.9052	10.362857	0.000244	2.437269	0.412885	-0.004875
1311	6.5500e-01	6.8951	10.325654	0.000372	3.720042	0.630192	-0.007441
1312	6.5550e-01	6.8869	10.302562	0.000231	2.308992	0.391154	-0.004618
1313	6.5600e-01	6.8762	10.256806	0.000458	4.575224	0.775064	-0.009151
1314	6.5650e-01	6.8631	10.241839	0.000150	1.496569	0.253526	-0.002993
1315	6.5700e-01	6.8546	10.222596	0.000192	1.924160	0.325961	-0.003849
1316	6.5750e-01	6.8451	10.181972	0.000406	4.062115	0.688141	-0.008125
1317	6.5800e-01	6.8353	10.148617	0.000334	3.335210	0.565000	-0.006671
1318	6.5850e-01	6.8256	10.131084	0.000175	1.753123	0.296987	-0.003507
1319	6.5900e-01	6.8146	10.102006	0.000291	2.907619	0.492564	-0.005816
1320	6.5950e-01	6.8036	10.080197	0.000218	2.180714	0.369423	-0.004362
1321	6.6000e-01	6.7944	10.062664	0.000175	1.753123	0.296987	-0.003507
1322	6.6050e-01	6.7841	10.018191	0.000445	4.446947	0.753333	-0.008895
1323	6.6100e-01	6.7752	9.977139	0.000410	4.104874	0.695384	-0.008210
1324	6.6150e-01	6.7657	9.948061	0.000291	2.907619	0.492564	-0.005816
1325	6.6200e-01	6.7572	9.936087	0.000120	1.197255	0.202820	-0.002395
1326	6.6250e-01	6.7502	9.902732	0.000334	3.335210	0.565000	-0.006671
1327	6.6300e-01	6.7358	9.858687	0.000440	4.404188	0.746090	-0.008809
1328	6.6350e-01	6.7239	9.851417	0.000073	0.726905	0.123141	-0.001454
1329	6.6400e-01	6.7154	9.813359	0.000381	3.805560	0.644679	-0.007612
1330	6.6450e-01	6.7059	9.791122	0.000222	2.223473	0.376667	-0.004447
1331	6.6500e-01	6.6953	9.750498	0.000406	4.062115	0.688141	-0.008125
1332	6.6550e-01	6.6864	9.710301	0.000402	4.019356	0.680897	-0.008039
1333	6.6600e-01	6.6751	9.681222	0.000291	2.907619	0.492564	-0.005816
1334	6.6650e-01	6.6684	9.667111	0.000141	1.411050	0.239038	-0.002822
1335	6.6700e-01	6.6534	9.636749	0.000304	3.035896	0.514295	-0.006072
1336	6.6750e-01	6.6449	9.594414	0.000423	4.233151	0.717115	-0.008467
1337	6.6800e-01	6.6382	9.576882	0.000175	1.753123	0.296987	-0.003507
1338	6.6850e-01	6.6266	9.545238	0.000316	3.164174	0.536026	-0.006329
1339	6.6900e-01	6.6156	9.514876	0.000304	3.035896	0.514295	-0.006072
1340	6.6950e-01	6.6058	9.484515	0.000304	3.035896	0.514295	-0.006072
1341	6.7000e-01	6.5973	9.461851	0.000227	2.266232	0.383910	-0.004533
1342	6.7050e-01	6.5869	9.436621	0.000252	2.522787	0.427372	-0.005046
1343	6.7100e-01	6.5778	9.389582	0.000470	4.703501	0.796795	-0.009408
1344	6.7150e-01	6.5665	9.378891	0.000107	1.068978	0.181090	-0.002138
1345	6.7200e-01	6.5558	9.345109	0.000338	3.377969	0.572243	-0.006756
1346	6.7250e-01	6.5454	9.306623	0.000385	3.848319	0.651923	-0.007697
1347	6.7300e-01	6.5344	9.282676	0.000239	2.394510	0.405641	-0.004789
1348	6.7350e-01	6.5240	9.254025	0.000286	2.864860	0.485320	-0.005730
1349	6.7400e-01	6.5149	9.230933	0.000231	2.308992	0.391154	-0.004618
1350	6.7450e-01	6.5076	9.189453	0.000415	4.147633	0.702628	-0.008296
1351	6.7500e-01	6.4954	9.190736	-0.000013	-0.128277	-0.021731	0.000257
1352	6.7550e-01	6.4868	9.130441	0.000603	6.029033	1.021346	-0.012059
1353	6.7600e-01	6.4755	9.118895	0.000115	1.154496	0.195577	-0.002309
1354	6.7650e-01	6.4667	9.084685	0.000342	3.420728	0.579487	-0.006842
1355	6.7700e-01	6.4542	9.046199	0.000385	3.848319	0.651923	-0.007697
1356	6.7750e-01	6.4465	9.027383	0.000188	1.881400	0.318718	-0.003763
1357	6.7800e-01	6.4355	8.989752	0.000376	3.762801	0.637436	-0.007526
1358	6.7850e-01	6.4270	8.967943	0.000218	2.180714	0.369423	-0.004362
1359	6.7900e-01	6.4136	8.934161	0.000338	3.377969	0.572243	-0.006756
1360	6.7950e-01	6.4050	8.897813	0.000363	3.634524	0.615705	-0.007270
1361	6.8000e-01	6.3977	8.846925	0.000509	5.088333	0.861987	-0.010177
1362	6.8050e-01	6.3846	8.826827	0.000201	2.009678	0.340449	-0.004020
1363	6.8100e-01	6.3754	8.824261	0.000026	0.256555	0.043462	-0.000513
1364	6.8150e-01	6.3647	8.766960	0.000573	5.729720	0.970641	-0.011460
1365	6.8200e-01	6.3550	8.768242	-0.000013	-0.128277	-0.021731	0.000257
1366	6.8250e-01	6.3477	8.728046	0.000402	4.019356	0.680897	-0.008039
1367	6.8300e-01	6.3358	8.698540	0.000295	2.950378	0.499808	-0.005901
1368	6.8350e-01	6.3252	8.653211	0.000453	4.532465	0.767820	-0.009066
1369	6.8400e-01	6.3159	8.639527	0.000137	1.368291	0.231795	-0.002737
1370	6.8450e-01	6.3055	8.595909	0.000436	4.361428	0.738846	-0.008724
1371	6.8500e-01	6.2943	8.580515	0.000154	1.539328	0.260769	-0.003079
1372	6.8550e-01	6.2866	8.539891	0.000406	4.062115	0.688141	-0.008125
1373	6.8600e-01	6.2766	8.521503	0.000184	1.838641	0.311474	-0.003678
1374	6.8650e-01	6.2668	8.473181	0.000483	4.831779	0.818525	-0.009664
1375	6.8700e-01	6.2561	8.446668	0.000265	2.651064	0.449102	-0.005303
1376	6.8750e-01	6.2460	8.435122	0.000115	1.154496	0.195577	-0.002309
1377	6.8800e-01	6.2369	8.390222	0.000449	4.489706	0.760577	-0.008980
1378	6.8850e-01	6.2286	8.365419	0.000248	2.480028	0.420128	-0.004960
1379	6.8900e-01	6.2170	8.333348	0.000321	3.206933	0.543269	-0.006414
1380	6.8950e-01	6.2064	8.303841	0.000295	2.950378	0.499808	-0.005901
1381	6.9000e-01	6.1987	8.283315	0.000205	2.052437	0.347692	-0.004105
1382	6.9050e-01	6.1859	8.239698	0.000436	4.361428	0.738846	-0.008724
1383	6.9100e-01	6.1774	8.219172	0.000205	2.052437	0.347692	-0.004105
1384	6.9150e-01	6.1676	8.193942	0.000252	2.522787	0.427372	-0.005046
1385	6.9200e-01	6.1548	8.153745	0.000402	4.019356	0.680897	-0.008039
1386	6.9250e-01	6.1450	8.105423	0.000483	4.831779	0.818525	-0.009664
1387	6.9300e-01	6.1365	8.096871	0.000086	0.855182	0.144872	-0.001711
1388	6.9350e-01	6.1258	8.070358	0.000265	2.651064	0.449102	-0.005303
1389	6.9400e-01	6.1194	8.033582	0.000368	3.677283	0.622949	-0.007355
1390	6.9450e-01	6.1060	7.999372	0.000342	3.420728	0.579487	-0.006842
1391	6.9500e-01	6.0965	7.975853	0.000235	2.351751	0.398397	-0.004704
1392	6.9550e-01	6.0864	7.951906	0.000239	2.394510	0.405641	-0.004789
1393	6.9600e-01	6.0742	7.902301	0.000496	4.960056	0.840256	-0.009921
1394	6.9650e-01	6.0651	7.894176	0.000081	0.812423	0.137628	-0.001625
1395	6.9700e-01	6.0559	7.862104	0.000321	3.206933	0.543269	-0.006414
1396	6.9750e-01	6.0468	7.834309	0.000278	2.779342	0.470833	-0.005559
1397	6.9800e-01	6.0364	7.777007	0.000573	5.729720	0.970641	-0.011460
1398	6.9850e-01	6.0257	7.747501	0.000295	2.950378	0.499808	-0.005901
1399	6.9900e-01	6.0172	7.731251	0.000162	1.624846	0.275256	-0.003250
1400	6.9950e-01	6.0052	7.720133	0.000111	1.111737	0.188333	-0.002224
1401	7.0000e-01	5.9979	7.663259	0.000569	5.686961	0.963397	-0.011375
1402	7.0050e-01	5.9839	7.650858	0.000124	1.240014	0.210064	-0.002480
1403	7.0100e-01	5.9749	7.605957	0.000449	4.489706	0.760577	-0.008980
1404	7.0150e-01	5.9644	7.575168	0.000308	3.078655	0.521538	-0.006158
1405	7.0200e-01	5.9564	7.551649	0.000235	2.351751	0.398397	-0.004704
1406	7.0250e-01	5.9451	7.511024	0.000406	4.062115	0.688141	-0.008125
1407	7.0300e-01	5.9351	7.495202	0.000158	1.582087	0.268013	-0.003164
1408	7.0350e-01	5.9247	7.456716	0.000385	3.848319	0.651923	-0.007697
1409	7.0400e-01	5.9192	7.413098	0.000436	4.361428	0.738846	-0.008724
1410	7.0450e-01	5.9064	7.387013	0.000261	2.608305	0.441859	-0.005217
1411	7.0500e-01	5.8929	7.341257	0.000458	4.575224	0.775064	-0.009151
1412	7.0550e-01	5.8894	7.340402	0.000009	0.085518	0.014487	-0.000171
1413	7.0600e-01	5.8780	7.301915	0.000385	3.848319	0.651923	-0.007697
1414	7.0650e-01	5.8644	7.254449	0.000475	4.746260	0.804038	-0.009493
1415	7.0700e-01	5.8539	7.241193	0.000133	1.325532	0.224551	-0.002651
1416	7.0750e-01	5.8444	7.200996	0.000402	4.019356	0.680897	-0.008039
1417	7.0800e-01	5.8368	7.174483	0.000265	2.651064	0.449102	-0.005303
1418	7.0850e-01	5.8264	7.148826	0.000257	2.565546	0.434615	-0.005132
1419	7.0900e-01	5.8145	7.112905	0.000359	3.591765	0.608461	-0.007184
1420	7.0950e-01	5.8044	7.070570	0.000423	4.233151	0.717115	-0.008467
1421	7.1000e-01	5.7941	7.056886	0.000137	1.368291	0.231795	-0.002737
1422	7.1050e-01	5.7861	7.028235	0.000286	2.864860	0.485320	-0.005730
1423	7.1100e-01	5.7751	6.995308	0.000329	3.292451	0.557756	-0.006585
1424	7.1150e-01	5.7660	6.959815	0.000355	3.549005	0.601218	-0.007099
1425	7.1200e-01	5.7538	6.934158	0.000257	2.565546	0.434615	-0.005132
1426	7.1250e-01	5.7465	6.893106	0.000410	4.104874	0.695384	-0.008210
1427	7.1300e-01	5.7336	6.867020	0.000261	2.608305	0.441859	-0.005217
1428	7.1350e-01	5.7257	6.835376	0.000316	3.164174	0.536026	-0.006329
1429	7.1400e-01	5.7167	6.802449	0.000329	3.292451	0.557756	-0.006585
1430	7.1450e-01	5.7075	6.769094	0.000334	3.335210	0.565000	-0.006671
1431	7.1500e-01	5.6985	6.737022	0.000321	3.206933	0.543269	-0.006414
1432	7.1550e-01	5.6830	6.711792	0.000252	2.522787	0.427372	-0.005046
1433	7.1600e-01	5.6769	6.668602	0.000432	4.318669	0.731602	-0.008638
1434	7.1650e-01	5.6647	6.641662	0.000269	2.693823	0.456346	-0.005388
1435	7.1700e-01	5.6549	6.607880	0.000338	3.377969	0.572243	-0.006756
1436	7.1750e-01	5.6482	6.579656	0.000282	2.822101	0.478077	-0.005645
1437	7.1800e-01	5.6372	6.569393	0.000103	1.026218	0.173846	-0.002053
1438	7.1850e-01	5.6263	6.529624	0.000398	3.976596	0.673654	-0.007954
1439	7.1900e-01	5.6158	6.487289	0.000423	4.233151	0.717115	-0.008467
1440	7.1950e-01	5.6055	6.465480	0.000218	2.180714	0.369423	-0.004362
1441	7.2000e-01	5.5957	6.417586	0.000479	4.789019	0.811282	-0.009579
1442	7.2050e-01	5.5865	6.395350	0.000222	2.223473	0.376667	-0.004447
1443	7.2100e-01	5.5771	6.376534	0.000188	1.881400	0.318718	-0.003763
1444	7.2150e-01	5.5678	6.329068	0.000475	4.746260	0.804038	-0.009493
1445	7.2200e-01	5.5579	6.296996	0.000321	3.206933	0.543269	-0.006414
1446	7.2250e-01	5.5475	6.287161	0.000098	0.983459	0.166603	-0.001967
1447	7.2300e-01	5.5377	6.224300	0.000629	6.285588	1.064807	-0.012572
1448	7.2350e-01	5.5267	6.198215	0.000261	2.608305	0.441859	-0.005217
1449	7.2400e-01	5.5151	6.181110	0.000171	1.710364	0.289744	-0.003421
1450	7.2450e-01	5.5072	6.172129	0.000090	0.897941	0.152115	-0.001796
1451	7.2500e-01	5.4961	6.125946	0.000462	4.617983	0.782308	-0.009237
1452	7.2550e-01	5.4852	6.070355	0.000556	5.558683	0.941666	-0.011118
1453	7.2600e-01	5.4761	6.048546	0.000218	2.180714	0.369423	-0.004362
1454	7.2650e-01	5.4657	6.016474	0.000321	3.206933	0.543269	-0.006414
1455	7.2700e-01	5.4562	5.983547	0.000329	3.292451	0.557756	-0.006585
1456	7.2750e-01	5.4449	5.966442	0.000171	1.710364	0.289744	-0.003421
1457	7.2800e-01	5.4376	5.898877	0.000676	6.755938	1.144487	-0.013513
1458	7.2850e-01	5.4256	5.880061	0.000188	1.881400	0.318718	-0.003763
1459	7.2900e-01	5.4163	5.866805	0.000133	1.325532	0.224551	-0.002651
1460	7.2950e-01	5.4047	5.833878	0.000329	3.292451	0.557756	-0.006585
1461	7.3000e-01	5.3979	5.790688	0.000432	4.318669	0.731602	-0.008638
1462	7.3050e-01	5.3867	5.757761	0.000329	3.292451	0.557756	-0.006585
1463	7.3100e-01	5.3748	5.726971	0.000308	3.078655	0.521538	-0.006158
1464	7.3150e-01	5.3647	5.691051	0.000359	3.591765	0.608461	-0.007184
1465	7.3200e-01	5.3581	5.664538	0.000265	2.651064	0.449102	-0.005303
1466	7.3250e-01	5.3464	5.627762	0.000368	3.677283	0.622949	-0.007355
1467	7.3300e-01	5.3339	5.596118	0.000316	3.164174	0.536026	-0.006329
1468	7.3350e-01	5.3265	5.551218	0.000449	4.489706	0.760577	-0.008980
1469	7.3400e-01	5.3162	5.524705	0.000265	2.651064	0.449102	-0.005303
1470	7.3450e-01	5.3044	5.484936	0.000398	3.976596	0.673654	-0.007954
1471	7.3500e-01	5.2979	5.433621	0.000513	5.131092	0.869231	-0.010263
1472	7.3550e-01	5.2856	5.440463	-0.000068	-0.684146	-0.115897	0.001368
1473	7.3600e-01	5.2789	5.410956	0.000295	2.950378	0.499808	-0.005901
1474	7.3650e-01	5.2673	5.374608	0.000363	3.634524	0.615705	-0.007270
1475	7.3700e-01	5.2551	5.337405	0.000372	3.720042	0.630192	-0.007441
1476	7.3750e-01	5.2463	5.308326	0.000291	2.907619	0.492564	-0.005816
1477	7.3800e-01	5.2362	5.281814	0.000265	2.651064	0.449102	-0.005303
1478	7.3850e-01	5.2257	5.244183	0.000376	3.762801	0.637436	-0.007526
1479	7.3900e-01	5.2179	5.207834	0.000363	3.634524	0.615705	-0.007270
1480	7.3950e-01	5.2069	5.169348	0.000385	3.848319	0.651923	-0.007697
1481	7.4000e-01	5.1953	5.145401	0.000239	2.394510	0.405641	-0.004789
1482	7.4050e-01	5.1839	5.130007	0.000154	1.539328	0.260769	-0.003079
1483	7.4100e-01	5.1740	5.083395	0.000466	4.660742	0.789551	-0.009322
1484	7.4150e-01	5.1648	5.047047	0.000363	3.634524	0.615705	-0.007270
1485	7.4200e-01	5.1578	5.030370	0.000167	1.667605	0.282500	-0.003335
1486	7.4250e-01	5.1456	4.985897	0.000445	4.446947	0.753333	-0.008895
1487	7.4300e-01	5.1382	4.947411	0.000385	3.848319	0.651923	-0.007697
1488	7.4350e-01	5.1285	4.904220	0.000432	4.318669	0.731602	-0.008638
1489	7.4400e-01	5.1190	4.901655	0.000026	0.256555	0.043462	-0.000513
1490	7.4450e-01	5.1080	4.832807	0.000688	6.884215	1.166218	-0.013770
1491	7.4500e-01	5.0949	4.823827	0.000090	0.897941	0.152115	-0.001796
1492	7.4550e-01	5.0867	4.782775	0.000410	4.104874	0.695384	-0.008210
1493	7.4600e-01	5.0751	4.745144	0.000376	3.762801	0.637436	-0.007526
1494	7.4650e-01	5.0650	4.724190	0.000210	2.095196	0.354936	-0.004191
1495	7.4700e-01	5.0574	4.692974	0.000312	3.121414	0.528782	-0.006243
1496	7.4750e-01	5.0446	4.657481	0.000355	3.549005	0.601218	-0.007099
1497	7.4800e-01	5.0333	4.629257	0.000282	2.822101	0.478077	-0.005645
1498	7.4850e-01	5.0270	4.601462	0.000278	2.779342	0.470833	-0.005559
1499	7.4900e-01	5.0208	4.554423	0.000470	4.703501	0.796795	-0.009408
1500	7.4950e-01	5.0044	4.529621	0.000248	2.480028	0.420128	-0.004960
1501	7.5000e-01	4.9918	4.499687	0.000299	2.993137	0.507051	-0.005987
1502	7.5050e-01	4.9860	4.437254	0.000624	6.242829	1.057564	-0.012487
1503	7.5100e-01	4.9780	4.434260	0.000030	0.299314	0.050705	-0.000599
1504	7.5150e-01	4.9658	4.392353	0.000419	4.190392	0.709872	-0.008381
1505	7.5200e-01	4.9567	4.350018	0.000423	4.233151	0.717115	-0.008467
1506	7.5250e-01	4.9475	4.298703	0.000513	5.131092	0.869231	-0.010263
1507	7.5300e-01	4.9359	4.265776	0.000329	3.292451	0.557756	-0.006585
1508	7.5350e-01	4.9225	4.265776	-0.000000	-0.000000	-0.000000	0.000000
1509	7.5400e-01	4.9158	4.228145	0.000376	3.762801	0.637436	-0.007526
1510	7.5450e-01	4.9054	4.191369	0.000368	3.677283	0.622949	-0.007355
1511	7.5500e-01	4.8932	4.156731	0.000346	3.463487	0.586731	-0.006928
1512	7.5550e-01	4.8843	4.132357	0.000244	2.437269	0.412885	-0.004875
1513	7.5600e-01	4.8785	4.081469	0.000509	5.088333	0.861987	-0.010177
1514	7.5650e-01	4.8660	4.058378	0.000231	2.308992	0.391154	-0.004618
1515	7.5700e-01	4.8557	4.028016	0.000304	3.035896	0.514295	-0.006072
1516	7.5750e-01	4.8447	3.998083	0.000299	2.993137	0.507051	-0.005987
1517	7.5800e-01	4.8346	3.962162	0.000359	3.591765	0.608461	-0.007184
1518	7.5850e-01	4.8273	3.936504	0.000257	2.565546	0.434615	-0.005132
1519	7.5900e-01	4.8141	3.894170	0.000423	4.233151	0.717115	-0.008467
1520	7.5950e-01	4.8053	3.863381	0.000308	3.078655	0.521538	-0.006158
1521	7.6000e-01	4.7971	3.816342	0.000470	4.703501	0.796795	-0.009408
1522	7.6050e-01	4.7876	3.778711	0.000376	3.762801	0.637436	-0.007526
1523	7.6100e-01	4.7760	3.746211	0.000325	3.249692	0.550513	-0.006500
1524	7.6150e-01	4.7638	3.730817	0.000154	1.539328	0.260769	-0.003079
1525	7.6200e-01	4.7565	3.677791	0.000530	5.302129	0.898205	-0.010605
1526	7.6250e-01	4.7470	3.657693	0.000201	2.009678	0.340449	-0.004020
1527	7.6300e-01	4.7377	3.626476	0.000312	3.121414	0.528782	-0.006243
1528	7.6350e-01	4.7278	3.597398	0.000291	2.907619	0.492564	-0.005816
1529	7.6400e-01	4.7159	3.551642	0.000458	4.575224	0.775064	-0.009151
1530	7.6450e-01	4.7049	3.523418	0.000282	2.822101	0.478077	-0.005645
1531	7.6500e-01	4.6960	3.462696	0.000607	6.071792	1.028589	-0.012145
1532	7.6550e-01	4.6872	3.449867	0.000128	1.282773	0.217308	-0.002566
1533	7.6600e-01	4.6765	3.416085	0.000338	3.377969	0.572243	-0.006756
1534	7.6650e-01	4.6637	3.373750	0.000423	4.233151	0.717115	-0.008467
1535	7.6700e-01	4.6558	3.357927	0.000158	1.582087	0.268013	-0.003164
1536	7.6750e-01	4.6442	3.333980	0.000239	2.394510	0.405641	-0.004789
1537	7.6800e-01	4.6375	3.280527	0.000534	5.344888	0.905448	-0.010691
1538	7.6850e-01	4.6240	3.225791	0.000547	5.473165	0.927179	-0.010947
1539	7.6900e-01	4.6167	3.218949	0.000068	0.684146	0.115897	-0.001368
1540	7.6950e-01	4.6063	3.176187	0.000428	4.275910	0.724359	-0.008553
1541	7.7000e-01	4.5990	3.138128	0.000381	3.805560	0.644679	-0.007612
1542	7.7050e-01	4.5862	3.105201	0.000329	3.292451	0.557756	-0.006585
1543	7.7100e-01	4.5786	3.062866	0.000423	4.233151	0.717115	-0.008467
1544	7.7150e-01	4.5618	3.043623	0.000192	1.924160	0.325961	-0.003849
1545	7.7200e-01	4.5551	3.006847	0.000368	3.677283	0.622949	-0.007355
1546	7.7250e-01	4.5450	2.956815	0.000500	5.002815	0.847500	-0.010006
1547	7.7300e-01	4.5343	2.928592	0.000282	2.822101	0.478077	-0.005645
1548	7.7350e-01	4.5235	2.905500	0.000231	2.308992	0.391154	-0.004618
1549	7.7400e-01	4.5135	2.864876	0.000406	4.062115	0.688141	-0.008125
1550	7.7450e-01	4.5036	2.833231	0.000316	3.164174	0.536026	-0.006329
1551	7.7500e-01	4.4972	2.788758	0.000445	4.446947	0.753333	-0.008895
1552	7.7550e-01	4.4888	2.755831	0.000329	3.292451	0.557756	-0.006585
1553	7.7600e-01	4.4765	2.723759	0.000321	3.206933	0.543269	-0.006414
1554	7.7650e-01	4.4667	2.706227	0.000175	1.753123	0.296987	-0.003507
1555	7.7700e-01	4.4536	2.657477	0.000487	4.874538	0.825769	-0.009750
1556	7.7750e-01	4.4455	2.616425	0.000410	4.104874	0.695384	-0.008210
1557	7.7800e-01	4.4357	2.583498	0.000329	3.292451	0.557756	-0.006585
1558	7.7850e-01	4.4283	2.550571	0.000329	3.292451	0.557756	-0.006585
1559	7.7900e-01	4.4122	2.514223	0.000363	3.634524	0.615705	-0.007270
1560	7.7950e-01	4.4043	2.478302	0.000359	3.591765	0.608461	-0.007184
1561	7.8000e-01	4.3945	2.464618	0.000137	1.368291	0.231795	-0.002737
1562	7.8050e-01	4.3854	2.407316	0.000573	5.729720	0.970641	-0.011460
1563	7.8100e-01	4.3744	2.378666	0.000286	2.864860	0.485320	-0.005730
1564	7.8150e-01	4.3675	2.349159	0.000295	2.950378	0.499808	-0.005901
1565	7.8200e-01	4.3555	2.311528	0.000376	3.762801	0.637436	-0.007526
1566	7.8250e-01	4.3475	2.276891	0.000346	3.463487	0.586731	-0.006928
1567	7.8300e-01	4.3369	2.234556	0.000423	4.233151	0.717115	-0.008467
1568	7.8350e-01	4.3256	2.217451	0.000171	1.710364	0.289744	-0.003421
1569	7.8400e-01	4.3155	2.172978	0.000445	4.446947	0.753333	-0.008895
1570	7.8450e-01	4.3073	2.127650	0.000453	4.532465	0.767820	-0.009066
1571	7.8500e-01	4.2957	2.089591	0.000381	3.805560	0.644679	-0.007612
1572	7.8550e-01	4.2874	2.058374	0.000312	3.121414	0.528782	-0.006243
1573	7.8600e-01	4.2757	2.026730	0.000316	3.164174	0.536026	-0.006329
1574	7.8650e-01	4.2661	1.998507	0.000282	2.822101	0.478077	-0.005645
1575	7.8700e-01	4.2567	1.967290	0.000312	3.121414	0.528782	-0.006243
1576	7.8750e-01	4.2462	1.924955	0.000423	4.233151	0.717115	-0.008467
1577	7.8800e-01	4.2357	1.877916	0.000470	4.703501	0.796795	-0.009408
1578	7.8850e-01	4.2273	1.858673	0.000192	1.924160	0.325961	-0.003849
1579	7.8900e-01	4.2169	1.819332	0.000393	3.933837	0.666410	-0.007868
1580	7.8950e-01	4.2075	1.771865	0.000475	4.746260	0.804038	-0.009493
1581	7.9000e-01	4.1953	1.752622	0.000192	1.924160	0.325961	-0.003849
1582	7.9050e-01	4.1865	1.694038	0.000586	5.857997	0.992372	-0.011717
1583	7.9100e-01	4.1766	1.678215	0.000158	1.582087	0.268013	-0.003164
1584	7.9150e-01	4.1653	1.642722	0.000355	3.549005	0.601218	-0.007099
1585	7.9200e-01	4.1559	1.622196	0.000205	2.052437	0.347692	-0.004105
1586	7.9250e-01	4.1453	1.566178	0.000560	5.601442	0.948910	-0.011204
1587	7.9300e-01	4.1370	1.528974	0.000372	3.720042	0.630192	-0.007441
1588	7.9350e-01	4.1284	1.510159	0.000188	1.881400	0.318718	-0.003763
1589	7.9400e-01	4.1153	1.469534	0.000406	4.062115	0.688141	-0.008125
1590	7.9450e-01	4.1052	1.412660	0.000569	5.686961	0.963397	-0.011375
1591	7.9500e-01	4.0936	1.416081	-0.000034	-0.342073	-0.057949	0.000684
1592	7.9550e-01	4.0822	1.360062	0.000560	5.601442	0.948910	-0.011204
1593	7.9600e-01	4.0753	1.335260	0.000248	2.480028	0.420128	-0.004960
1594	7.9650e-01	4.0645	1.279669	0.000556	5.558683	0.941666	-0.011118
1595	7.9700e-01	4.0573	1.246741	0.000329	3.292451	0.557756	-0.006585
1596	7.9750e-01	4.0448	1.209538	0.000372	3.720042	0.630192	-0.007441
1597	7.9800e-01	4.0327	1.184308	0.000252	2.522787	0.427372	-0.005046
1598	7.9850e-01	4.0268	1.138552	0.000458	4.575224	0.775064	-0.009151
1599	7.9900e-01	4.0152	1.087237	0.000513	5.131092	0.869231	-0.010263
1600	7.9950e-01	4.0030	1.093224	-0.000060	-0.598627	-0.101410	0.001197
1601	8.0000e-01	3.9966	1.026087	0.000671	6.713179	1.137243	-0.013427
1602	8.0050e-01	3.9832	0.993587	0.000325	3.249692	0.550513	-0.006500
1603	8.0100e-01	3.9749	0.968785	0.000248	2.480028	0.420128	-0.004960
1604	8.0150e-01	3.9651	0.919608	0.000492	4.917297	0.833013	-0.009835
1605	8.0200e-01	3.9540	0.896089	0.000235	2.351751	0.398397	-0.004704
1606	8.0250e-01	3.9459	0.852899	0.000432	4.318669	0.731602	-0.008638
1607	8.0300e-01	3.9352	0.799018	0.000539	5.387647	0.912692	-0.010776
1608	8.0350e-01	3.9236	0.793459	0.000056	0.555868	0.094167	-0.001112
1609	8.0400e-01	3.9145	0.735729	0.000577	5.772479	0.977884	-0.011546
1610	8.0450e-01	3.9029	0.714776	0.000210	2.095196	0.354936	-0.004191
1611	8.0500e-01	3.8922	0.675434	0.000393	3.933837	0.666410	-0.007868
1612	8.0550e-01	3.8867	0.639941	0.000355	3.549005	0.601218	-0.007099
1613	8.0600e-01	3.8773	0.604448	0.000355	3.549005	0.601218	-0.007099
1614	8.0650e-01	3.8654	0.553989	0.000505	5.045574	0.854743	-0.010092
1615	8.0700e-01	3.8538	0.527048	0.000269	2.693823	0.456346	-0.005388
1616	8.0750e-01	3.8446	0.508233	0.000188	1.881400	0.318718	-0.003763
1617	8.0800e-01	3.8351	0.457773	0.000505	5.045574	0.854743	-0.010092
1618	8.0850e-01	3.8261	0.422280	0.000355	3.549005	0.601218	-0.007099
1619	8.0900e-01	3.8177	0.373531	0.000487	4.874538	0.825769	-0.009750
1620	8.0950e-01	3.8074	0.355570	0.000180	1.795882	0.304231	-0.003592
1621	8.1000e-01	3.7946	0.311953	0.000436	4.361428	0.738846	-0.008724
1622	8.1050e-01	3.7854	0.271328	0.000406	4.062115	0.688141	-0.008125
1623	8.1100e-01	3.7726	0.253796	0.000175	1.753123	0.296987	-0.003507
1624	8.1150e-01	3.7653	0.184520	0.000693	6.926975	1.173461	-0.013855
1625	8.1200e-01	3.7579	0.158435	0.000261	2.608305	0.441859	-0.005217
1626	8.1250e-01	3.7457	0.128929	0.000295	2.950378	0.499808	-0.005901
1627	8.1300e-01	3.7363	0.097285	0.000316	3.164174	0.536026	-0.006329
1628	8.1350e-01	3.7269	0.051529	0.000458	4.575224	0.775064	-0.009151
1629	8.1400e-01	3.7186	0.006201	0.000453	4.532465	0.767820	-0.009066
1630	8.1450e-01	3.7039	-0.011760	0.000180	1.795882	0.304231	-0.003592
1631	8.1500e-01	3.6948	-0.072055	0.000603	6.029033	1.021346	-0.012059
1632	8.1550e-01	3.6859	-0.101561	0.000295	2.950378	0.499808	-0.005901
1633	8.1600e-01	3.6783	-0.145606	0.000440	4.404188	0.746090	-0.008809
1634	8.1650e-01	3.6636	-0.184948	0.000393	3.933837	0.666410	-0.007868
1635	8.1700e-01	3.6561	-0.206757	0.000218	2.180714	0.369423	-0.004362
1636	8.1750e-01	3.6499	-0.251657	0.000449	4.489706	0.760577	-0.008980
1637	8.1800e-01	3.6359	-0.283302	0.000316	3.164174	0.536026	-0.006329
1638	8.1850e-01	3.6251	-0.305111	0.000218	2.180714	0.369423	-0.004362
1639	8.1900e-01	3.6121	-0.339321	0.000342	3.420728	0.579487	-0.006842
1640	8.1950e-01	3.6035	-0.391491	0.000522	5.216610	0.883718	-0.010434
1641	8.2000e-01	3.5959	-0.437247	0.000458	4.575224	0.775064	-0.009151
1642	8.2050e-01	3.5875	-0.463332	0.000261	2.608305	0.441859	-0.005217
1643	8.2100e-01	3.5754	-0.498397	0.000351	3.506246	0.593974	-0.007013
1644	8.2150e-01	3.5675	-0.531752	0.000334	3.335210	0.565000	-0.006671
1645	8.2200e-01	3.5553	-0.584778	0.000530	5.302129	0.898205	-0.010605
1646	8.2250e-01	3.5468	-0.604448	0.000197	1.966919	0.333205	-0.003934
1647	8.2300e-01	3.5343	-0.650204	0.000458	4.575224	0.775064	-0.009151
1648	8.2350e-01	3.5248	-0.703230	0.000530	5.302129	0.898205	-0.010605
1649	8.2400e-01	3.5147	-0.729315	0.000261	2.608305	0.441859	-0.005217
1650	8.2450e-01	3.5052	-0.772505	0.000432	4.318669	0.731602	-0.008638
1651	8.2500e-01	3.4959	-0.797735	0.000252	2.522787	0.427372	-0.005046
1652	8.2550e-01	3.4860	-0.828096	0.000304	3.035896	0.514295	-0.006072
1653	8.2600e-01	3.4753	-0.881977	0.000539	5.387647	0.912692	-0.010776
1654	8.2650e-01	3.4651	-0.903786	0.000218	2.180714	0.369423	-0.004362
1655	8.2700e-01	3.4543	-0.933720	0.000299	2.993137	0.507051	-0.005987
1656	8.2750e-01	3.4460	-1.008982	0.000753	7.525602	1.274871	-0.015052
1657	8.2800e-01	3.4332	-1.034639	0.000257	2.565546	0.434615	-0.005132
1658	8.2850e-01	3.4242	-1.074836	0.000402	4.019356	0.680897	-0.008039
1659	8.2900e-01	3.4164	-1.089803	0.000150	1.496569	0.253526	-0.002993
1660	8.2950e-01	3.4085	-1.134704	0.000449	4.489706	0.760577	-0.008980
1661	8.3000e-01	3.3938	-1.185163	0.000505	5.045574	0.854743	-0.010092
1662	8.3050e-01	3.3858	-1.234768	0.000496	4.960056	0.840256	-0.009921
1663	8.3100e-01	3.3765	-1.258715	0.000239	2.394510	0.405641	-0.004789
1664	8.3150e-01	3.3644	-1.283090	0.000244	2.437269	0.412885	-0.004875
1665	8.3200e-01	3.3549	-1.342530	0.000594	5.943515	1.006859	-0.011888
1666	8.3250e-01	3.3441	-1.365621	0.000231	2.308992	0.391154	-0.004618
1667	8.3300e-01	3.3340	-1.404108	0.000385	3.848319	0.651923	-0.007697
1668	8.3350e-01	3.3301	-1.449436	0.000453	4.532465	0.767820	-0.009066
1669	8.3400e-01	3.3142	-1.472955	0.000235	2.351751	0.398397	-0.004704
1670	8.3450e-01	3.3046	-1.529402	0.000564	5.644201	0.956154	-0.011289
1671	8.3500e-01	3.2963	-1.563612	0.000342	3.420728	0.579487	-0.006842
1672	8.3550e-01	3.2841	-1.599960	0.000363	3.634524	0.615705	-0.007270
1673	8.3600e-01	3.2766	-1.657689	0.000577	5.772479	0.977884	-0.011546
1674	8.3650e-01	3.2649	-1.681209	0.000235	2.351751	0.398397	-0.004704
1675	8.3700e-01	3.2571	-1.730813	0.000496	4.960056	0.840256	-0.009921
1676	8.3750e-01	3.2465	-1.751767	0.000210	2.095196	0.354936	-0.004191
1677	8.3800e-01	3.2362	-1.793247	0.000415	4.147633	0.702628	-0.008296
1678	8.3850e-01	3.2267	-1.841568	0.000483	4.831779	0.818525	-0.009664
1679	8.3900e-01	3.2162	-1.877061	0.000355	3.549005	0.601218	-0.007099
1680	8.3950e-01	3.2068	-1.908278	0.000312	3.121414	0.528782	-0.006243
1681	8.4000e-01	3.1937	-1.931370	0.000231	2.308992	0.391154	-0.004618
1682	8.4050e-01	3.1842	-1.979264	0.000479	4.789019	0.811282	-0.009579
1683	8.4100e-01	3.1729	-2.009625	0.000304	3.035896	0.514295	-0.006072
1684	8.4150e-01	3.1671	-2.058374	0.000487	4.874538	0.825769	-0.009750
1685	8.4200e-01	3.1549	-2.112255	0.000539	5.387647	0.912692	-0.010776
1686	8.4250e-01	3.1439	-2.143044	0.000308	3.078655	0.521538	-0.006158
1687	8.4300e-01	3.1346	-2.181530	0.000385	3.848319	0.651923	-0.007697
1688	8.4350e-01	3.1244	-2.223865	0.000423	4.233151	0.717115	-0.008467
1689	8.4400e-01	3.1140	-2.261496	0.000376	3.762801	0.637436	-0.007526
1690	8.4450e-01	3.1076	-2.304686	0.000432	4.318669	0.731602	-0.008638
1691	8.4500e-01	3.0981	-2.338041	0.000334	3.335210	0.565000	-0.006671
1692	8.4550e-01	3.0881	-2.367120	0.000291	2.907619	0.492564	-0.005816
1693	8.4600e-01	3.0768	-2.408172	0.000410	4.104874	0.695384	-0.008210
1694	8.4650e-01	3.0687	-2.445375	0.000372	3.720042	0.630192	-0.007441
1695	8.4700e-01	3.0572	-2.500539	0.000552	5.515924	0.934423	-0.011033
1696	8.4750e-01	3.0444	-2.551426	0.000509	5.088333	0.861987	-0.010177
1697	8.4800e-01	3.0368	-2.575373	0.000239	2.394510	0.405641	-0.004789
1698	8.4850e-01	3.0259	-2.616425	0.000410	4.104874	0.695384	-0.008210
1699	8.4900e-01	3.0140	-2.654484	0.000381	3.805560	0.644679	-0.007612
1700	8.4950e-01	3.0057	-2.692970	0.000385	3.848319	0.651923	-0.007697
1701	8.5000e-01	2.9975	-2.722476	0.000295	2.950378	0.499808	-0.005901
1702	8.5050e-01	2.9840	-2.760963	0.000385	3.848319	0.651923	-0.007697
1703	8.5100e-01	2.9751	-2.799021	0.000381	3.805560	0.644679	-0.007612
1704	8.5150e-01	2.9666	-2.840073	0.000410	4.104874	0.695384	-0.008210
1705	8.5200e-01	2.9553	-2.900796	0.000607	6.071792	1.028589	-0.012145
1706	8.5250e-01	2.9457	-2.924315	0.000235	2.351751	0.398397	-0.004704
1707	8.5300e-01	2.9353	-2.968788	0.000445	4.446947	0.753333	-0.008895
1708	8.5350e-01	2.9272	-3.006419	0.000376	3.762801	0.637436	-0.007526
1709	8.5400e-01	2.9175	-3.044478	0.000381	3.805560	0.644679	-0.007612
1710	8.5450e-01	2.9070	-3.076122	0.000316	3.164174	0.536026	-0.006329
1711	8.5500e-01	2.8951	-3.117602	0.000415	4.147633	0.702628	-0.008296
1712	8.5550e-01	2.8836	-3.153523	0.000359	3.591765	0.608461	-0.007184
1713	8.5600e-01	2.8754	-3.214245	0.000607	6.071792	1.028589	-0.012145
1714	8.5650e-01	2.8650	-3.231778	0.000175	1.753123	0.296987	-0.003507
1715	8.5700e-01	2.8529	-3.277962	0.000462	4.617983	0.782308	-0.009237
1716	8.5750e-01	2.8465	-3.313882	0.000359	3.591765	0.608461	-0.007184
1717	8.5800e-01	2.8339	-3.372467	0.000586	5.857997	0.992372	-0.011717
1718	8.5850e-01	2.8246	-3.417367	0.000449	4.489706	0.760577	-0.008980
1719	8.5900e-01	2.8153	-3.439604	0.000222	2.223473	0.376667	-0.004447
1720	8.5950e-01	2.8061	-3.489636	0.000500	5.002815	0.847500	-0.010006
1721	8.6000e-01	2.7948	-3.510162	0.000205	2.052437	0.347692	-0.004105
1722	8.6050e-01	2.7854	-3.548648	0.000385	3.848319	0.651923	-0.007697
1723	8.6100e-01	2.7771	-3.603812	0.000552	5.515924	0.934423	-0.011033
1724	8.6150e-01	2.7669	-3.637167	0.000334	3.335210	0.565000	-0.006671
1725	8.6200e-01	2.7554	-3.672660	0.000355	3.549005	0.601218	-0.007099
1726	8.6250e-01	2.7429	-3.709863	0.000372	3.720042	0.630192	-0.007441
1727	8.6300e-01	2.7386	-3.749205	0.000393	3.933837	0.666410	-0.007868
1728	8.6350e-01	2.7261	-3.793678	0.000445	4.446947	0.753333	-0.008895
1729	8.6400e-01	2.7170	-3.842427	0.000487	4.874538	0.825769	-0.009750
1730	8.6450e-01	2.7057	-3.877065	0.000346	3.463487	0.586731	-0.006928
1731	8.6500e-01	2.6959	-3.914696	0.000376	3.762801	0.637436	-0.007526
1732	8.6550e-01	2.6859	-3.963445	0.000487	4.874538	0.825769	-0.009750
1733	8.6600e-01	2.6717	-4.001504	0.000381	3.805560	0.644679	-0.007612
1734	8.6650e-01	2.6655	-4.038707	0.000372	3.720042	0.630192	-0.007441
1735	8.6700e-01	2.6575	-4.095153	0.000564	5.644201	0.956154	-0.011289
1736	8.6750e-01	2.6453	-4.117818	0.000227	2.266232	0.383910	-0.004533
1737	8.6800e-01	2.6349	-4.183244	0.000654	6.542143	1.108269	-0.013085
1738	8.6850e-01	2.6237	-4.214461	0.000312	3.121414	0.528782	-0.006243
1739	8.6900e-01	2.6160	-4.234559	0.000201	2.009678	0.340449	-0.004020
1740	8.6950e-01	2.6048	-4.297420	0.000629	6.285588	1.064807	-0.012572
1741	8.7000e-01	2.5955	-4.331630	0.000342	3.420728	0.579487	-0.006842
1742	8.7050e-01	2.5835	-4.374393	0.000428	4.275910	0.724359	-0.008553
1743	8.7100e-01	2.5747	-4.399195	0.000248	2.480028	0.420128	-0.004960
1744	8.7150e-01	2.5657	-4.459490	0.000603	6.029033	1.021346	-0.012059
1745	8.7200e-01	2.5568	-4.486003	0.000265	2.651064	0.449102	-0.005303
1746	8.7250e-01	2.5439	-4.524489	0.000385	3.848319	0.651923	-0.007697
1747	8.7300e-01	2.5342	-4.576232	0.000517	5.173851	0.876474	-0.010349
1748	8.7350e-01	2.5236	-4.615146	0.000389	3.891078	0.659167	-0.007783
1749	8.7400e-01	2.5132	-4.660902	0.000458	4.575224	0.775064	-0.009151
1750	8.7450e-01	2.5066	-4.691263	0.000304	3.035896	0.514295	-0.006072
1751	8.7500e-01	2.4959	-4.722480	0.000312	3.121414	0.528782	-0.006243
1752	8.7550e-01	2.4873	-4.788334	0.000658	6.584902	1.115513	-0.013171
1753	8.7600e-01	2.4771	-4.823399	0.000351	3.506246	0.593974	-0.007013
1754	8.7650e-01	2.4683	-4.852050	0.000286	2.864860	0.485320	-0.005730
1755	8.7700e-01	2.4557	-4.916194	0.000641	6.413865	1.086538	-0.012829
1756	8.7750e-01	2.4481	-4.935437	0.000192	1.924160	0.325961	-0.003849
1757	8.7800e-01	2.4343	-4.989746	0.000543	5.430406	0.919936	-0.010862
1758	8.7850e-01	2.4255	-5.030370	0.000406	4.062115	0.688141	-0.008125
1759	8.7900e-01	2.4166	-5.068429	0.000381	3.805560	0.644679	-0.007612
1760	8.7950e-01	2.4055	-5.104349	0.000359	3.591765	0.608461	-0.007184
1761	8.8000e-01	2.3959	-5.145401	0.000410	4.104874	0.695384	-0.008210
1762	8.8050e-01	2.3865	-5.193723	0.000483	4.831779	0.818525	-0.009664
1763	8.8100e-01	2.3767	-5.225795	0.000321	3.206933	0.543269	-0.006414
1764	8.8150e-01	2.3670	-5.263853	0.000381	3.805560	0.644679	-0.007612
1765	8.8200e-01	2.3553	-5.317306	0.000534	5.344888	0.905448	-0.010691
1766	8.8250e-01	2.3456	-5.357931	0.000406	4.062115	0.688141	-0.008125
1767	8.8300e-01	2.3355	-5.404970	0.000470	4.703501	0.796795	-0.009408
1768	8.8350e-01	2.3264	-5.440463	0.000355	3.549005	0.601218	-0.007099
1769	8.8400e-01	2.3157	-5.481087	0.000406	4.062115	0.688141	-0.008125
1770	8.8450e-01	2.3047	-5.549935	0.000688	6.884215	1.166218	-0.013770
1771	8.8500e-01	2.2955	-5.588421	0.000385	3.848319	0.651923	-0.007697
1772	8.8550e-01	2.2850	-5.613651	0.000252	2.522787	0.427372	-0.005046
1773	8.8600e-01	2.2762	-5.646150	0.000325	3.249692	0.550513	-0.006500
1774	8.8650e-01	2.2639	-5.696182	0.000500	5.002815	0.847500	-0.010006
1775	8.8700e-01	2.2532	-5.725261	0.000291	2.907619	0.492564	-0.005816
1776	8.8750e-01	2.2437	-5.777431	0.000522	5.216610	0.883718	-0.010434
1777	8.8800e-01	2.2340	-5.812497	0.000351	3.506246	0.593974	-0.007013
1778	8.8850e-01	2.2240	-5.880061	0.000676	6.755938	1.144487	-0.013513
1779	8.8900e-01	2.2176	-5.904864	0.000248	2.480028	0.420128	-0.004960
1780	8.8950e-01	2.2046	-5.942067	0.000372	3.720042	0.630192	-0.007441
1781	8.9000e-01	2.1945	-5.975849	0.000338	3.377969	0.572243	-0.006756
1782	8.9050e-01	2.1857	-6.026309	0.000505	5.045574	0.854743	-0.010092
1783	8.9100e-01	2.1742	-6.076341	0.000500	5.002815	0.847500	-0.010006
1784	8.9150e-01	2.1661	-6.111834	0.000355	3.549005	0.601218	-0.007099
1785	8.9200e-01	2.1559	-6.143479	0.000316	3.164174	0.536026	-0.006329
1786	8.9250e-01	2.1478	-6.178544	0.000351	3.506246	0.593974	-0.007013
1787	8.9300e-01	2.1341	-6.249102	0.000706	7.055252	1.195192	-0.014112
1788	8.9350e-01	2.1227	-6.288016	0.000389	3.891078	0.659167	-0.007783
1789	8.9400e-01	2.1171	-6.318805	0.000308	3.078655	0.521538	-0.006158
1790	8.9450e-01	2.1063	-6.346601	0.000278	2.779342	0.470833	-0.005559
1791	8.9500e-01	2.0959	-6.408606	0.000620	6.200070	1.050320	-0.012401
1792	8.9550e-01	2.0837	-6.460776	0.000522	5.216610	0.883718	-0.010434
1793	8.9600e-01	2.0752	-6.497980	0.000372	3.720042	0.630192	-0.007441
1794	8.9650e-01	2.0655	-6.533045	0.000351	3.506246	0.593974	-0.007013
1795	8.9700e-01	2.0546	-6.585643	0.000526	5.259370	0.890961	-0.010520
1796	8.9750e-01	2.0441	-6.620281	0.000346	3.463487	0.586731	-0.006928
1797	8.9800e-01	2.0335	-6.666892	0.000466	4.660742	0.789551	-0.009322
1798	8.9850e-01	2.0243	-6.715214	0.000483	4.831779	0.818525	-0.009664
1799	8.9900e-01	2.0148	-6.756693	0.000415	4.147633	0.702628	-0.008296
1800	8.9950e-01	2.0055	-6.782778	0.000261	2.608305	0.441859	-0.005217
1801	9.0000e-01	1.9957	-6.836231	0.000534	5.344888	0.905448	-0.010691
1802	9.0050e-01	1.9849	-6.879849	0.000436	4.361428	0.738846	-0.008724
1803	9.0100e-01	1.9748	-6.928171	0.000483	4.831779	0.818525	-0.009664
1804	9.0150e-01	1.9640	-6.969651	0.000415	4.147633	0.702628	-0.008296
1805	9.0200e-01	1.9531	-6.998729	0.000291	2.907619	0.492564	-0.005816
1806	9.0250e-01	1.9447	-7.043630	0.000449	4.489706	0.760577	-0.008980
1807	9.0300e-01	1.9373	-7.081261	0.000376	3.762801	0.637436	-0.007526
1808	9.0350e-01	1.9249	-7.135997	0.000547	5.473165	0.927179	-0.010947
1809	9.0400e-01	1.9143	-7.180042	0.000440	4.404188	0.746090	-0.008809
1810	9.0450e-01	1.9043	-7.215963	0.000359	3.591765	0.608461	-0.007184
1811	9.0500e-01	1.8952	-7.272409	0.000564	5.644201	0.956154	-0.011289
1812	9.0550e-01	1.8843	-7.306619	0.000342	3.420728	0.579487	-0.006842
1813	9.0600e-01	1.8750	-7.350665	0.000440	4.404188	0.746090	-0.008809
1814	9.0650e-01	1.8639	-7.414808	0.000641	6.413865	1.086538	-0.012829
1815	9.0700e-01	1.8549	-7.454150	0.000393	3.933837	0.666410	-0.007868
1816	9.0750e-01	1.8468	-7.484084	0.000299	2.993137	0.507051	-0.005987
1817	9.0800e-01	1.8365	-7.531123	0.000470	4.703501	0.796795	-0.009408
1818	9.0850e-01	1.8271	-7.584148	0.000530	5.302129	0.898205	-0.010605
1819	9.0900e-01	1.8181	-7.638884	0.000547	5.473165	0.927179	-0.010947
1820	9.0950e-01	1.8036	-7.661548	0.000227	2.266232	0.383910	-0.004533
1821	9.1000e-01	1.7957	-7.702173	0.000406	4.062115	0.688141	-0.008125
1822	9.1050e-01	1.7841	-7.747929	0.000458	4.575224	0.775064	-0.009151
1823	9.1100e-01	1.7744	-7.791546	0.000436	4.361428	0.738846	-0.008724
1824	9.1150e-01	1.7633	-7.846282	0.000547	5.473165	0.927179	-0.010947
1825	9.1200e-01	1.7543	-7.856118	0.000098	0.983459	0.166603	-0.001967
1826	9.1250e-01	1.7441	-7.921972	0.000658	6.584902	1.115513	-0.013171
1827	9.1300e-01	1.7335	-7.953616	0.000316	3.164174	0.536026	-0.006329
1828	9.1350e-01	1.7255	-8.016905	0.000633	6.328347	1.072051	-0.012658
1829	9.1400e-01	1.7130	-8.068647	0.000517	5.173851	0.876474	-0.010349
1830	9.1450e-01	1.7058	-8.100719	0.000321	3.206933	0.543269	-0.006414
1831	9.1500e-01	1.6969	-8.149896	0.000492	4.917297	0.833013	-0.009835
1832	9.1550e-01	1.6843	-8.197363	0.000475	4.746260	0.804038	-0.009493
1833	9.1600e-01	1.6761	-8.225158	0.000278	2.779342	0.470833	-0.005559
1834	9.1650e-01	1.6631	-8.267066	0.000419	4.190392	0.709872	-0.008381
1835	9.1700e-01	1.6541	-8.327788	0.000607	6.071792	1.028589	-0.012145
1836	9.1750e-01	1.6437	-8.355156	0.000274	2.736583	0.463590	-0.005474
1837	9.1800e-01	1.6333	-8.388084	0.000329	3.292451	0.557756	-0.006585
1838	9.1850e-01	1.6253	-8.458214	0.000701	7.012493	1.187948	-0.014026
1839	9.1900e-01	1.6152	-8.485155	0.000269	2.693823	0.456346	-0.005388
1840	9.1950e-01	1.6047	-8.537752	0.000526	5.259370	0.890961	-0.010520
1841	9.2000e-01	1.5961	-8.584791	0.000470	4.703501	0.796795	-0.009408
1842	9.2050e-01	1.5858	-8.632258	0.000475	4.746260	0.804038	-0.009493
1843	9.2100e-01	1.5753	-8.677158	0.000449	4.489706	0.760577	-0.008980
1844	9.2150e-01	1.5630	-8.714789	0.000376	3.762801	0.637436	-0.007526
1845	9.2200e-01	1.5527	-8.746006	0.000312	3.121414	0.528782	-0.006243
1846	9.2250e-01	1.5451	-8.809294	0.000633	6.328347	1.072051	-0.012658
1847	9.2300e-01	1.5372	-8.852057	0.000428	4.275910	0.724359	-0.008553
1848	9.2350e-01	1.5271	-8.890543	0.000385	3.848319	0.651923	-0.007697
1849	9.2400e-01	1.5145	-8.940148	0.000496	4.960056	0.840256	-0.009921
1850	9.2450e-01	1.5056	-8.987614	0.000475	4.746260	0.804038	-0.009493
1851	9.2500e-01	1.4944	-9.025673	0.000381	3.805560	0.644679	-0.007612
1852	9.2550e-01	1.4851	-9.091955	0.000663	6.627661	1.122756	-0.013256
1853	9.2600e-01	1.4737	-9.116757	0.000248	2.480028	0.420128	-0.004960
1854	9.2650e-01	1.4655	-9.162941	0.000462	4.617983	0.782308	-0.009237
1855	9.2700e-01	1.4554	-9.210407	0.000475	4.746260	0.804038	-0.009493
1856	9.2750e-01	1.4474	-9.270702	0.000603	6.029033	1.021346	-0.012059
1857	9.2800e-01	1.4354	-9.301919	0.000312	3.121414	0.528782	-0.006243
1858	9.2850e-01	1.4233	-9.355372	0.000534	5.344888	0.905448	-0.010691
1859	9.2900e-01	1.4124	-9.395569	0.000402	4.019356	0.680897	-0.008039
1860	9.2950e-01	1.4046	-9.456292	0.000607	6.071792	1.028589	-0.012145
1861	9.3000e-01	1.3940	-9.503330	0.000470	4.703501	0.796795	-0.009408
1862	9.3050e-01	1.3864	-9.525994	0.000227	2.266232	0.383910	-0.004533
1863	9.3100e-01	1.3745	-9.568329	0.000423	4.233151	0.717115	-0.008467
1864	9.3150e-01	1.3672	-9.635894	0.000676	6.755938	1.144487	-0.013513
1865	9.3200e-01	1.3552	-9.671815	0.000359	3.591765	0.608461	-0.007184
1866	9.3250e-01	1.3458	-9.718426	0.000466	4.660742	0.789551	-0.009322
1867	9.3300e-01	1.3321	-9.754774	0.000363	3.634524	0.615705	-0.007270
1868	9.3350e-01	1.3239	-9.813359	0.000586	5.857997	0.992372	-0.011717
1869	9.3400e-01	1.3159	-9.855266	0.000419	4.190392	0.709872	-0.008381
1870	9.3450e-01	1.3056	-9.892469	0.000372	3.720042	0.630192	-0.007441
1871	9.3500e-01	1.2923	-9.937370	0.000449	4.489706	0.760577	-0.008980
1872	9.3550e-01	1.2848	-9.969442	0.000321	3.206933	0.543269	-0.006414
1873	9.3600e-01	1.2775	-10.037007	0.000676	6.755938	1.144487	-0.013513
1874	9.3650e-01	1.2631	-10.072927	0.000359	3.591765	0.608461	-0.007184
1875	9.3700e-01	1.2547	-10.119966	0.000470	4.703501	0.796795	-0.009408
1876	9.3750e-01	1.2476	-10.167432	0.000475	4.746260	0.804038	-0.009493
1877	9.3800e-01	1.2368	-10.198221	0.000308	3.078655	0.521538	-0.006158
1878	9.3850e-01	1.2271	-10.252530	0.000543	5.430406	0.919936	-0.010862
1879	9.3900e-01	1.2163	-10.297858	0.000453	4.532465	0.767820	-0.009066
1880	9.3950e-01	1.2025	-10.361574	0.000637	6.371106	1.079295	-0.012743
1881	9.4000e-01	1.1975	-10.390225	0.000286	2.864860	0.485320	-0.005730
1882	9.4050e-01	1.1868	-10.434698	0.000445	4.446947	0.753333	-0.008895
1883	9.4100e-01	1.1754	-10.508677	0.000740	7.397325	1.253141	-0.014796
1884	9.4150e-01	1.1652	-10.532197	0.000235	2.351751	0.398397	-0.004704
1885	9.4200e-01	1.1570	-10.582229	0.000500	5.002815	0.847500	-0.010006
1886	9.4250e-01	1.1443	-10.626274	0.000440	4.404188	0.746090	-0.008809
1887	9.4300e-01	1.1377	-10.669464	0.000432	4.318669	0.731602	-0.008638
1888	9.4350e-01	1.1268	-10.735746	0.000663	6.627661	1.122756	-0.013256
1889	9.4400e-01	1.1150	-10.743444	0.000077	0.769664	0.130385	-0.001539
1890	9.4450e-01	1.1065	-10.822982	0.000795	7.953193	1.347307	-0.015908
1891	9.4500e-01	1.0912	-10.849495	0.000265	2.651064	0.449102	-0.005303
1892	9.4550e-01	1.0834	-10.884560	0.000351	3.506246	0.593974	-0.007013
1893	9.4600e-01	1.0747	-10.971795	0.000872	8.722857	1.477692	-0.017447
1894	9.4650e-01	1.0652	-10.994032	0.000222	2.223473	0.376667	-0.004447
1895	9.4700e-01	1.0547	-11.053472	0.000594	5.943515	1.006859	-0.011888
1896	9.4750e-01	1.0452	-11.079985	0.000265	2.651064	0.449102	-0.005303
1897	9.4800e-01	1.0361	-11.119326	0.000393	3.933837	0.666410	-0.007868
1898	9.4850e-01	1.0249	-11.191595	0.000723	7.226288	1.224166	-0.014454
1899	9.4900e-01	1.0160	-11.215542	0.000239	2.394510	0.405641	-0.004789
1900	9.4950e-01	1.0056	-11.266429	0.000509	5.088333	0.861987	-0.010177
1901	9.5000e-01	0.9948	-11.331428	0.000650	6.499384	1.101025	-0.013000
1902	9.5050e-01	0.9840	-11.377184	0.000458	4.575224	0.775064	-0.009151
1903	9.5100e-01	0.9747	-11.413532	0.000363	3.634524	0.615705	-0.007270
1904	9.5150e-01	0.9663	-11.461426	0.000479	4.789019	0.811282	-0.009579
1905	9.5200e-01	0.9575	-11.549090	0.000877	8.765616	1.484936	-0.017533
1906	9.5250e-01	0.9460	-11.582017	0.000329	3.292451	0.557756	-0.006585
1907	9.5300e-01	0.9353	-11.596984	0.000150	1.496569	0.253526	-0.002993
1908	9.5350e-01	0.9258	-11.673529	0.000765	7.653879	1.296602	-0.015309
1909	9.5400e-01	0.9160	-11.681226	0.000077	0.769664	0.130385	-0.001539
1910	9.5450e-01	0.9048	-11.746652	0.000654	6.542143	1.108269	-0.013085
1911	9.5500e-01	0.8966	-11.809513	0.000629	6.285588	1.064807	-0.012572
1912	9.5550e-01	0.8847	-11.835599	0.000261	2.608305	0.441859	-0.005217
1913	9.5600e-01	0.8768	-11.904874	0.000693	6.926975	1.173461	-0.013855
1914	9.5650e-01	0.8656	-11.934380	0.000295	2.950378	0.499808	-0.005901
1915	9.5700e-01	0.8524	-11.982702	0.000483	4.831779	0.818525	-0.009664
1916	9.5750e-01	0.8453	-12.040003	0.000573	5.729720	0.970641	-0.011460
1917	9.5800e-01	0.8344	-12.084904	0.000449	4.489706	0.760577	-0.008980
1918	9.5850e-01	0.8270	-12.137930	0.000530	5.302129	0.898205	-0.010605
1919	9.5900e-01	0.8165	-12.158883	0.000210	2.095196	0.354936	-0.004191
1920	9.5950e-01	0.8033	-12.211054	0.000522	5.216610	0.883718	-0.010434
1921	9.6000e-01	0.7944	-12.269211	0.000582	5.815238	0.985128	-0.011631
1922	9.6050e-01	0.7849	-12.316677	0.000475	4.746260	0.804038	-0.009493
1923	9.6100e-01	0.7743	-12.353453	0.000368	3.677283	0.622949	-0.007355
1924	9.6150e-01	0.7664	-12.412893	0.000594	5.943515	1.006859	-0.011888
1925	9.6200e-01	0.7544	-12.462497	0.000496	4.960056	0.840256	-0.009921
1926	9.6250e-01	0.7461	-12.498418	0.000359	3.591765	0.608461	-0.007184
1927	9.6300e-01	0.7360	-12.554864	0.000564	5.644201	0.956154	-0.011289
1928	9.6350e-01	0.7256	-12.613449	0.000586	5.857997	0.992372	-0.011717
1929	9.6400e-01	0.7149	-12.662626	0.000492	4.917297	0.833013	-0.009835
1930	9.6450e-01	0.7034	-12.703250	0.000406	4.062115	0.688141	-0.008125
1931	9.6500e-01	0.6960	-12.742592	0.000393	3.933837	0.666410	-0.007868
1932	9.6550e-01	0.6846	-12.815716	0.000731	7.311806	1.238654	-0.014625
1933	9.6600e-01	0.6747	-12.846505	0.000308	3.078655	0.521538	-0.006158
1934	9.6650e-01	0.6622	-12.904234	0.000577	5.772479	0.977884	-0.011546
1935	9.6700e-01	0.6525	-12.949135	0.000449	4.489706	0.760577	-0.008980
1936	9.6750e-01	0.6470	-12.982062	0.000329	3.292451	0.557756	-0.006585
1937	9.6800e-01	0.6377	-13.041502	0.000594	5.943515	1.006859	-0.011888
1938	9.6850e-01	0.6244	-13.082554	0.000410	4.104874	0.695384	-0.008210
1939	9.6900e-01	0.6142	-13.138573	0.000560	5.601442	0.948910	-0.011204
1940	9.6950e-01	0.6060	-13.194164	0.000556	5.558683	0.941666	-0.011118
1941	9.7000e-01	0.5931	-13.233933	0.000398	3.976596	0.673654	-0.007954
1942	9.7050e-01	0.5861	-13.283538	0.000496	4.960056	0.840256	-0.009921
1943	9.7100e-01	0.5737	-13.342122	0.000586	5.857997	0.992372	-0.011717
1944	9.7150e-01	0.5641	-13.359655	0.000175	1.753123	0.296987	-0.003507
1945	9.7200e-01	0.5544	-13.426365	0.000667	6.670420	1.130000	-0.013342
1946	9.7250e-01	0.5450	-13.478962	0.000526	5.259370	0.890961	-0.010520
1947	9.7300e-01	0.5351	-13.530705	0.000517	5.173851	0.876474	-0.010349
1948	9.7350e-01	0.5260	-13.566626	0.000359	3.591765	0.608461	-0.007184
1949	9.7400e-01	0.5148	-13.632480	0.000658	6.584902	1.115513	-0.013171
1950	9.7450e-01	0.5043	-13.671394	0.000389	3.891078	0.659167	-0.007783
1951	9.7500e-01	0.4961	-13.714584	0.000432	4.318669	0.731602	-0.008638
1952	9.7550e-01	0.4842	-13.768892	0.000543	5.430406	0.919936	-0.010862
1953	9.7600e-01	0.4744	-13.833891	0.000650	6.499384	1.101025	-0.013000
1954	9.7650e-01	0.4644	-13.874088	0.000402	4.019356	0.680897	-0.008039
1955	9.7700e-01	0.4576	-13.913857	0.000398	3.976596	0.673654	-0.007954
1956	9.7750e-01	0.4478	-13.954909	0.000410	4.104874	0.695384	-0.008210
1957	9.7800e-01	0.4331	-14.004942	0.000500	5.002815	0.847500	-0.010006
1958	9.7850e-01	0.4243	-14.071651	0.000667	6.670420	1.130000	-0.013342
1959	9.7900e-01	0.4152	-14.108427	0.000368	3.677283	0.622949	-0.007355
1960	9.7950e-01	0.4036	-14.180696	0.000723	7.226288	1.224166	-0.014454
1961	9.8000e-01	0.3979	-14.219182	0.000385	3.848319	0.651923	-0.007697
1962	9.8050e-01	0.3875	-14.249971	0.000308	3.078655	0.521538	-0.006158
1963	9.8100e-01	0.3740	-14.305135	0.000552	5.515924	0.934423	-0.011033
1964	9.8150e-01	0.3653	-14.359015	0.000539	5.387647	0.912692	-0.010776
1965	9.8200e-01	0.3557	-14.411186	0.000522	5.216610	0.883718	-0.010434
1966	9.8250e-01	0.3432	-14.450099	0.000389	3.891078	0.659167	-0.007783
1967	9.8300e-01	0.3344	-14.512960	0.000629	6.285588	1.064807	-0.012572
1968	9.8350e-01	0.3239	-14.561710	0.000487	4.874538	0.825769	-0.009750
1969	9.8400e-01	0.3168	-14.614735	0.000530	5.302129	0.898205	-0.010605
1970	9.8450e-01	0.3049	-14.670754	0.000560	5.601442	0.948910	-0.011204
1971	9.8500e-01	0.2953	-14.708813	0.000381	3.805560	0.644679	-0.007612
1972	9.8550e-01	0.2874	-14.746016	0.000372	3.720042	0.630192	-0.007441
1973	9.8600e-01	0.2753	-14.790489	0.000445	4.446947	0.753333	-0.008895
1974	9.8650e-01	0.2676	-14.879008	0.000885	8.851134	1.499423	-0.017704
1975	9.8700e-01	0.2574	-14.890981	0.000120	1.197255	0.202820	-0.002395
1976	9.8750e-01	0.2454	-14.966243	0.000753	7.525602	1.274871	-0.015052
1977	9.8800e-01	0.2350	-14.992328	0.000261	2.608305	0.441859	-0.005217
1978	9.8850e-01	0.2238	-15.033380	0.000410	4.104874	0.695384	-0.008210
1979	9.8900e-01	0.2171	-15.110353	0.000770	7.696638	1.303846	-0.015395
1980	9.8950e-01	0.2040	-15.148412	0.000381	3.805560	0.644679	-0.007612
1981	9.9000e-01	0.1964	-15.197588	0.000492	4.917297	0.833013	-0.009835
1982	9.9050e-01	0.1867	-15.242061	0.000445	4.446947	0.753333	-0.008895
1983	9.9100e-01	0.1767	-15.291238	0.000492	4.917297	0.833013	-0.009835
1984	9.9150e-01	0.1640	-15.351534	0.000603	6.029033	1.021346	-0.012059
1985	9.9200e-01	0.1571	-15.408835	0.000573	5.729720	0.970641	-0.011460
1986	9.9250e-01	0.1448	-15.461433	0.000526	5.259370	0.890961	-0.010520
1987	9.9300e-01	0.1361	-15.502913	0.000415	4.147633	0.702628	-0.008296
1988	9.9350e-01	0.1244	-15.558077	0.000552	5.515924	0.934423	-0.011033
1989	9.9400e-01	0.1128	-15.612813	0.000547	5.473165	0.927179	-0.010947
1990	9.9450e-01	0.1040	-15.651299	0.000385	3.848319	0.651923	-0.007697
1991	9.9500e-01	0.0980	-15.704324	0.000530	5.302129	0.898205	-0.010605
1992	9.9550e-01	0.0871	-15.743238	0.000389	3.891078	0.659167	-0.007783
1993	9.9600e-01	0.0761	-15.808237	0.000650	6.499384	1.101025	-0.013000
1994	9.9650e-01	0.0632	-15.860835	0.000526	5.259370	0.890961	-0.010520
1995	9.9700e-01	0.0542	-15.889914	0.000291	2.907619	0.492564	-0.005816
1996	9.9750e-01	0.0438	-15.962182	0.000723	7.226288	1.224166	-0.014454
1997	9.9800e-01	0.0356	-16.003234	0.000410	4.104874	0.695384	-0.008210
1998	9.9850e-01	0.0257	-16.041293	0.000381	3.805560	0.644679	-0.007612
1999	9.9900e-01	0.0135	-16.106292	0.000650	6.499384	1.101025	-0.013000
2000	9.9950e-01	0.0047	-16.155469	0.000492	4.917297	0.833013	-0.009835
2001	1.0000e+00	-0.0056	-16.208922	0.000492	4.917297	0.833013	-0.010691

PMax (uC/cm2):	3.61e+01
Pr (uC/cm2):	1.83e+00
-Pr (uC/cm2):	0.00e+00
PLoss (uC/cm2):	0.00e+00
C (Max-Eff) (nF):	3.61e-01
K (Eff):	6.12e+02
Vert. (+/-Pr) Shift (uC/cm2):	9.16e-01
Offset (uC/cm2):	1.80e+01

A (Loop Area - uC/cm2·Volts):	-1.77e-02



Hysteresis Version: 5.48.1 - Radiant Technologies, Inc., 1999 - 9/12/24

