»»»»»»»»»»»»»»»»»»»»»»»»»»»»»»»»»»»» Hysteresis ««««««««««««««««««««««««««««««««««««
»»»  Executed Version:	5.48.1
»»»  Vision Version:	5.48.4 (R)
»»»  Vision Compiled:	9/18/24
»»»  Driver Version:	5.47.0
»»»  Windows Version:	Windows 8 or 8.1
»»»  Processor Information:	x86 (AMD or Intel) - 32 Processors
»»»  Tester Name:	PMF21124-494 (100V)
»»»  Tester S/N:	PMF21124-494
»»»  Internal Amp Type:	100V RevK 270k
»»»  Internal Amp S/N:	iAB2-596/K     
»»»  Execution Count:	1
»»»»»»»»»»»»»»»»»»»»»»»»»»»»»»»»»»»»»»»»»»««««««««««««««««««««««««««««««««««««««««««

Stored:	6/30/2025 - 14:32:40
Configured:	06/30/25 10:19:58 AM
Executed:	06/30/25 02:32:01 PM

»»»»»»»»»»»»»»»»»»»»»»»»»»»»»»»»»»» Sample Info ««««««««««««««««««««««««««««««««««««
Sample Name:	
Lot Name:	
Wafer Name:	
Die Row/Column:	0/0
Capacitor Number:	0
Sample Area (cm2):	1.00e-04
Sample Thickness (microns):	1.50e-01

Amplifier:	Internal

»»»»»»»»»»»»»»»»»»»»»»»»»»»»»»»»»»» Tester Info «««««««««««««««««««««««««««««««««««
Tester Name:	PMF21124-494 (100V)
Tester Serial Number:	PMF21124-494
Return Signal Amp. Level:	1.79 [Index: 2]

»»»»»»»»»»»»»»»»»»»»»»»»»»»»»»»» Hysteresis Info ««««««««««««««««««««««««««««««««««
Task Name:	Hyst-1804
Volts:	10.00
Field:	666.67 (kV/cm)
DCBias:	0.00
DCField:	0.00 (kV/cm)
Hysteresis Period (ms):	1.00e+00
Preset:	Enabled
Preset Delay (ms):	1.00e+03
Profile:	Standard Monopolar

»»»»»»»»»»»»»»»»»»»»»»»»»»»»»»»»»»»»»» Data «««««««««««««««««««««««««««««««««««««««
Points:	2001

Valid Data

Point	Time (ms)	Drive Voltage	Measured Polarization (uC/cm2)	Capacitance (uF)	Normalized Capacitance (uF/cm2)	Dielectric Constant	Instantaneous Current (mA)
   1	0.0000e+00	-0.0031	-20.239718	0.000607	6.070889	1.028437	0.012145
   2	5.0000e-04	0.0066	-20.178995	0.000607	6.070889	1.028437	0.012145
   3	1.0000e-03	0.0161	-20.115279	0.000637	6.370159	1.079134	0.012743
   4	1.5000e-03	0.0242	-20.085773	0.000295	2.949939	0.499733	0.005901
   5	2.0000e-03	0.0335	-20.019491	0.000663	6.626675	1.122589	0.013256
   6	2.5000e-03	0.0489	-19.992123	0.000274	2.736175	0.463521	0.005474
   7	3.0000e-03	0.0557	-19.930117	0.000620	6.199148	1.050164	0.012401
   8	3.5000e-03	0.0631	-19.867684	0.000624	6.241900	1.057407	0.012487
   9	4.0000e-03	0.0759	-19.812520	0.000552	5.515104	0.934284	0.011033
  10	4.5000e-03	0.0858	-19.753936	0.000586	5.857126	0.992224	0.011717
  11	5.0000e-03	0.0973	-19.702621	0.000513	5.130329	0.869101	0.010263
  12	5.5000e-03	0.1082	-19.657292	0.000453	4.531791	0.767706	0.009066
  13	6.0000e-03	0.1183	-19.606833	0.000504	5.044824	0.854616	0.010092
  14	6.5000e-03	0.1266	-19.543972	0.000628	6.284653	1.064649	0.012572
  15	7.0000e-03	0.1358	-19.497788	0.000462	4.617296	0.782191	0.009237
  16	7.5000e-03	0.1441	-19.458019	0.000398	3.976005	0.673553	0.007954
  17	8.0000e-03	0.1571	-19.395158	0.000628	6.284653	1.064649	0.012572
  18	8.5000e-03	0.1645	-19.355817	0.000393	3.933252	0.666311	0.007868
  19	9.0000e-03	0.1753	-19.297660	0.000581	5.814373	0.984981	0.011631
  20	9.5000e-03	0.1839	-19.227529	0.000701	7.011450	1.187772	0.014026
  21	1.0000e-02	0.1968	-19.200161	0.000274	2.736175	0.463521	0.005474
  22	1.0500e-02	0.2069	-19.140721	0.000594	5.942631	1.006709	0.011888
  23	1.1000e-02	0.2176	-19.101807	0.000389	3.890500	0.659068	0.007783
  24	1.1500e-02	0.2246	-19.045361	0.000564	5.643362	0.956011	0.011289
  25	1.2000e-02	0.2381	-18.982500	0.000628	6.284653	1.064649	0.012572
  26	1.2500e-02	0.2441	-18.934178	0.000483	4.831060	0.818404	0.009664
  27	1.3000e-02	0.2557	-18.864475	0.000697	6.968697	1.180529	0.013941
  28	1.3500e-02	0.2637	-18.841383	0.000231	2.308648	0.391096	0.004618
  29	1.4000e-02	0.2747	-18.775101	0.000663	6.626675	1.122589	0.013256
  30	1.4500e-02	0.2834	-18.711813	0.000633	6.327406	1.071892	0.012658
  31	1.5000e-02	0.2962	-18.670761	0.000410	4.104263	0.695281	0.008210
  32	1.5500e-02	0.3053	-18.622012	0.000487	4.873813	0.825646	0.009750
  33	1.6000e-02	0.3154	-18.576256	0.000457	4.574543	0.774949	0.009151
  34	1.6500e-02	0.3222	-18.538625	0.000376	3.762241	0.637341	0.007526
  35	1.7000e-02	0.3388	-18.470205	0.000684	6.840439	1.158802	0.013684
  36	1.7500e-02	0.3449	-18.394087	0.000761	7.609988	1.289167	0.015223
  37	1.8000e-02	0.3564	-18.362015	0.000321	3.206456	0.543188	0.006414
  38	1.8500e-02	0.3677	-18.300437	0.000616	6.156395	1.042922	0.012316
  39	1.9000e-02	0.3758	-18.258103	0.000423	4.232521	0.717009	0.008467
  40	1.9500e-02	0.3866	-18.201656	0.000564	5.643362	0.956011	0.011289
  41	2.0000e-02	0.3974	-18.148203	0.000534	5.344093	0.905314	0.010691
  42	2.0500e-02	0.4054	-18.104585	0.000436	4.360780	0.738736	0.008724
  43	2.1000e-02	0.4176	-18.061823	0.000428	4.275274	0.724251	0.008553
  44	2.1500e-02	0.4230	-17.984850	0.000770	7.695494	1.303652	0.015395
  45	2.2000e-02	0.4369	-17.949357	0.000355	3.548478	0.601128	0.007099
  46	2.2500e-02	0.4475	-17.889490	0.000599	5.985384	1.013951	0.011974
  47	2.3000e-02	0.4544	-17.851431	0.000380	3.804994	0.644583	0.007612
  48	2.3500e-02	0.4646	-17.797550	0.000539	5.386846	0.912556	0.010776
  49	2.4000e-02	0.4749	-17.732123	0.000654	6.541170	1.108104	0.013085
  50	2.4500e-02	0.4865	-17.682091	0.000500	5.002071	0.847374	0.010006
  51	2.5000e-02	0.4951	-17.647881	0.000342	3.420219	0.579401	0.006842
  52	2.5500e-02	0.5032	-17.603408	0.000445	4.446285	0.753221	0.008895
  53	2.6000e-02	0.5179	-17.520449	0.000829	8.294032	1.405047	0.016592
  54	2.6500e-02	0.5251	-17.493936	0.000265	2.650670	0.449036	0.005303
  55	2.7000e-02	0.5376	-17.419102	0.000748	7.481730	1.267439	0.014967
  56	2.7500e-02	0.5466	-17.378905	0.000402	4.018758	0.680796	0.008039
  57	2.8000e-02	0.5559	-17.320320	0.000586	5.857126	0.992224	0.011717
  58	2.8500e-02	0.5673	-17.265584	0.000547	5.472351	0.927041	0.010947
  59	2.9000e-02	0.5786	-17.220256	0.000453	4.531791	0.767706	0.009066
  60	2.9500e-02	0.5837	-17.172790	0.000475	4.745554	0.803919	0.009493
  61	3.0000e-02	0.5949	-17.122330	0.000504	5.044824	0.854616	0.010092
  62	3.0500e-02	0.6070	-17.071015	0.000513	5.130329	0.869101	0.010263
  63	3.1000e-02	0.6145	-17.021410	0.000496	4.959318	0.840131	0.009921
  64	3.1500e-02	0.6271	-16.968385	0.000530	5.301340	0.898071	0.010605
  65	3.2000e-02	0.6352	-16.906379	0.000620	6.199148	1.050164	0.012401
  66	3.2500e-02	0.6454	-16.844373	0.000620	6.199148	1.050164	0.012401
  67	3.3000e-02	0.6552	-16.808025	0.000363	3.633983	0.615613	0.007270
  68	3.3500e-02	0.6668	-16.747730	0.000603	6.028137	1.021194	0.012059
  69	3.4000e-02	0.6755	-16.719507	0.000282	2.821681	0.478006	0.005645
  70	3.4500e-02	0.6860	-16.657074	0.000624	6.241900	1.057407	0.012487
  71	3.5000e-02	0.6953	-16.609607	0.000475	4.745554	0.803919	0.009493
  72	3.5500e-02	0.7064	-16.560003	0.000496	4.959318	0.840131	0.009921
  73	3.6000e-02	0.7132	-16.494148	0.000658	6.583922	1.115347	0.013171
  74	3.6500e-02	0.7253	-16.448820	0.000453	4.531791	0.767706	0.009066
  75	3.7000e-02	0.7372	-16.398360	0.000504	5.044824	0.854616	0.010092
  76	3.7500e-02	0.7486	-16.334644	0.000637	6.370159	1.079134	0.012743
  77	3.8000e-02	0.7556	-16.282046	0.000526	5.258587	0.890829	0.010520
  78	3.8500e-02	0.7672	-16.223461	0.000586	5.857126	0.992224	0.011717
  79	3.9000e-02	0.7734	-16.178561	0.000449	4.489038	0.760464	0.008980
  80	3.9500e-02	0.7843	-16.124680	0.000539	5.386846	0.912556	0.010776
  81	4.0000e-02	0.7961	-16.090470	0.000342	3.420219	0.579401	0.006842
  82	4.0500e-02	0.8057	-16.027181	0.000633	6.327406	1.071892	0.012658
  83	4.1000e-02	0.8145	-15.981426	0.000457	4.574543	0.774949	0.009151
  84	4.1500e-02	0.8287	-15.941229	0.000402	4.018758	0.680796	0.008039
  85	4.2000e-02	0.8356	-15.877513	0.000637	6.370159	1.079134	0.012743
  86	4.2500e-02	0.8466	-15.836033	0.000415	4.147016	0.702524	0.008296
  87	4.3000e-02	0.8550	-15.801823	0.000342	3.420219	0.579401	0.006842
  88	4.3500e-02	0.8659	-15.746659	0.000552	5.515104	0.934284	0.011033
  89	4.4000e-02	0.8791	-15.654292	0.000923	9.234592	1.564382	0.018473
  90	4.4500e-02	0.8865	-15.605971	0.000483	4.831060	0.818404	0.009664
  91	4.5000e-02	0.8987	-15.570050	0.000359	3.591230	0.608371	0.007184
  92	4.5500e-02	0.9056	-15.514459	0.000556	5.557856	0.941526	0.011118
  93	4.6000e-02	0.9180	-15.458440	0.000560	5.600609	0.948769	0.011204
  94	4.6500e-02	0.9259	-15.424230	0.000342	3.420219	0.579401	0.006842
  95	4.7000e-02	0.9353	-15.376763	0.000475	4.745554	0.803919	0.009493
  96	4.7500e-02	0.9487	-15.312192	0.000646	6.455664	1.093619	0.012914
  97	4.8000e-02	0.9591	-15.253180	0.000590	5.899878	0.999466	0.011802
  98	4.8500e-02	0.9633	-15.208707	0.000445	4.446285	0.753221	0.008895
  99	4.9000e-02	0.9756	-15.157392	0.000513	5.130329	0.869101	0.010263
 100	4.9500e-02	0.9867	-15.118478	0.000389	3.890500	0.659068	0.007783
 101	5.0000e-02	0.9947	-15.048775	0.000697	6.968697	1.180529	0.013941
 102	5.0500e-02	1.0055	-15.000453	0.000483	4.831060	0.818404	0.009664
 103	5.1000e-02	1.0139	-14.949138	0.000513	5.130329	0.869101	0.010263
 104	5.1500e-02	1.0245	-14.902955	0.000462	4.617296	0.782191	0.009237
 105	5.2000e-02	1.0363	-14.839238	0.000637	6.370159	1.079134	0.012743
 106	5.2500e-02	1.0480	-14.784502	0.000547	5.472351	0.927041	0.010947
 107	5.3000e-02	1.0559	-14.748582	0.000359	3.591230	0.608371	0.007184
 108	5.3500e-02	1.0664	-14.684438	0.000641	6.412911	1.086377	0.012829
 109	5.4000e-02	1.0751	-14.660063	0.000244	2.436906	0.412823	0.004875
 110	5.4500e-02	1.0867	-14.595492	0.000646	6.455664	1.093619	0.012914
 111	5.5000e-02	1.0986	-14.552302	0.000432	4.318027	0.731494	0.008638
 112	5.5500e-02	1.1072	-14.506118	0.000462	4.617296	0.782191	0.009237
 113	5.6000e-02	1.1174	-14.428718	0.000774	7.738246	1.310894	0.015480
 114	5.6500e-02	1.1282	-14.395363	0.000333	3.334714	0.564916	0.006671
 115	5.7000e-02	1.1380	-14.354311	0.000410	4.104263	0.695281	0.008210
 116	5.7500e-02	1.1472	-14.309838	0.000445	4.446285	0.753221	0.008895
 117	5.8000e-02	1.1553	-14.257240	0.000526	5.258587	0.890829	0.010520
 118	5.8500e-02	1.1668	-14.184117	0.000731	7.310719	1.238469	0.014625
 119	5.9000e-02	1.1769	-14.132374	0.000517	5.173082	0.876344	0.010349
 120	5.9500e-02	1.1854	-14.072506	0.000599	5.985384	1.013951	0.011974
 121	6.0000e-02	1.1993	-14.008790	0.000637	6.370159	1.079134	0.012743
 122	6.0500e-02	1.2068	-13.970732	0.000380	3.804994	0.644583	0.007612
 123	6.1000e-02	1.2170	-13.931818	0.000389	3.890500	0.659068	0.007783
 124	6.1500e-02	1.2268	-13.886917	0.000449	4.489038	0.760464	0.008980
 125	6.2000e-02	1.2348	-13.846720	0.000402	4.018758	0.680796	0.008039
 126	6.2500e-02	1.2460	-13.787708	0.000590	5.899878	0.999466	0.011802
 127	6.3000e-02	1.2552	-13.706459	0.000812	8.123021	1.376077	0.016250
 128	6.3500e-02	1.2677	-13.680374	0.000261	2.607917	0.441793	0.005217
 129	6.4000e-02	1.2752	-13.632908	0.000475	4.745554	0.803919	0.009493
 130	6.4500e-02	1.2874	-13.576889	0.000560	5.600609	0.948769	0.011204
 131	6.5000e-02	1.2926	-13.537120	0.000398	3.976005	0.673553	0.007954
 132	6.5500e-02	1.3033	-13.487943	0.000492	4.916565	0.832889	0.009835
 133	6.6000e-02	1.3133	-13.437055	0.000509	5.087576	0.861859	0.010177
 134	6.6500e-02	1.3272	-13.375050	0.000620	6.199148	1.050164	0.012401
 135	6.7000e-02	1.3334	-13.325445	0.000496	4.959318	0.840131	0.009921
 136	6.7500e-02	1.3463	-13.283110	0.000423	4.232521	0.717009	0.008467
 137	6.8000e-02	1.3541	-13.237354	0.000457	4.574543	0.774949	0.009151
 138	6.8500e-02	1.3654	-13.178770	0.000586	5.857126	0.992224	0.011717
 139	6.9000e-02	1.3773	-13.121468	0.000573	5.728867	0.970496	0.011460
 140	6.9500e-02	1.3873	-13.086402	0.000351	3.505725	0.593886	0.007013
 141	7.0000e-02	1.3955	-13.020121	0.000663	6.626675	1.122589	0.013256
 142	7.0500e-02	1.4047	-12.990187	0.000299	2.992692	0.506976	0.005987
 143	7.1000e-02	1.4161	-12.940155	0.000500	5.002071	0.847374	0.010006
 144	7.1500e-02	1.4262	-12.864893	0.000752	7.524483	1.274682	0.015052
 145	7.2000e-02	1.4316	-12.829827	0.000351	3.505725	0.593886	0.007013
 146	7.2500e-02	1.4465	-12.773381	0.000564	5.643362	0.956011	0.011289
 147	7.3000e-02	1.4575	-12.739171	0.000342	3.420219	0.579401	0.006842
 148	7.3500e-02	1.4663	-12.665619	0.000735	7.353472	1.245712	0.014710
 149	7.4000e-02	1.4747	-12.629699	0.000359	3.591230	0.608371	0.007184
 150	7.4500e-02	1.4861	-12.568976	0.000607	6.070889	1.028437	0.012145
 151	7.5000e-02	1.4963	-12.545456	0.000235	2.351401	0.398338	0.004704
 152	7.5500e-02	1.5048	-12.492003	0.000534	5.344093	0.905314	0.010691
 153	7.6000e-02	1.5155	-12.429998	0.000620	6.199148	1.050164	0.012401
 154	7.6500e-02	1.5272	-12.390656	0.000393	3.933252	0.666311	0.007868
 155	7.7000e-02	1.5372	-12.334210	0.000564	5.643362	0.956011	0.011289
 156	7.7500e-02	1.5457	-12.278191	0.000560	5.600609	0.948769	0.011204
 157	7.8000e-02	1.5553	-12.220461	0.000577	5.771620	0.977739	0.011546
 158	7.8500e-02	1.5645	-12.191383	0.000291	2.907186	0.492491	0.005816
 159	7.9000e-02	1.5749	-12.124246	0.000671	6.712181	1.137074	0.013427
 160	7.9500e-02	1.5855	-12.075924	0.000483	4.831060	0.818404	0.009664
 161	8.0000e-02	1.5971	-12.016056	0.000599	5.985384	1.013951	0.011974
 162	8.0500e-02	1.6050	-11.972439	0.000436	4.360780	0.738736	0.008724
 163	8.1000e-02	1.6168	-11.911716	0.000607	6.070889	1.028437	0.012145
 164	8.1500e-02	1.6266	-11.879644	0.000321	3.206456	0.543188	0.006414
 165	8.2000e-02	1.6363	-11.811652	0.000680	6.797686	1.151559	0.013598
 166	8.2500e-02	1.6458	-11.765040	0.000466	4.660049	0.789434	0.009322
 167	8.3000e-02	1.6582	-11.713298	0.000517	5.173082	0.876344	0.010349
 168	8.3500e-02	1.6681	-11.675239	0.000380	3.804994	0.644583	0.007612
 169	8.4000e-02	1.6743	-11.645305	0.000299	2.992692	0.506976	0.005987
 170	8.4500e-02	1.6870	-11.588859	0.000564	5.643362	0.956011	0.011289
 171	8.5000e-02	1.6980	-11.528136	0.000607	6.070889	1.028437	0.012145
 172	8.5500e-02	1.7058	-11.479814	0.000483	4.831060	0.818404	0.009664
 173	8.6000e-02	1.7175	-11.427216	0.000526	5.258587	0.890829	0.010520
 174	8.6500e-02	1.7226	-11.382743	0.000445	4.446285	0.753221	0.008895
 175	8.7000e-02	1.7397	-11.327580	0.000552	5.515104	0.934284	0.011033
 176	8.7500e-02	1.7435	-11.286100	0.000415	4.147016	0.702524	0.008296
 177	8.8000e-02	1.7570	-11.223667	0.000624	6.241900	1.057407	0.012487
 178	8.8500e-02	1.7659	-11.182615	0.000410	4.104263	0.695281	0.008210
 179	8.9000e-02	1.7750	-11.122320	0.000603	6.028137	1.021194	0.012059
 180	8.9500e-02	1.7847	-11.079985	0.000423	4.232521	0.717009	0.008467
 181	9.0000e-02	1.7966	-11.022683	0.000573	5.728867	0.970496	0.011460
 182	9.0500e-02	1.8079	-11.002585	0.000201	2.009379	0.340398	0.004020
 183	9.1000e-02	1.8180	-10.928605	0.000740	7.396224	1.252954	0.014796
 184	9.1500e-02	1.8237	-10.891830	0.000368	3.676736	0.622856	0.007355
 185	9.2000e-02	1.8373	-10.829824	0.000620	6.199148	1.050164	0.012401
 186	9.2500e-02	1.8457	-10.793476	0.000363	3.633983	0.615613	0.007270
 187	9.3000e-02	1.8568	-10.756272	0.000372	3.719489	0.630098	0.007441
 188	9.3500e-02	1.8638	-10.705813	0.000504	5.044824	0.854616	0.010092
 189	9.4000e-02	1.8761	-10.651504	0.000543	5.429598	0.919799	0.010862
 190	9.4500e-02	1.8854	-10.579663	0.000718	7.182461	1.216742	0.014368
 191	9.5000e-02	1.8956	-10.548446	0.000312	3.120950	0.528703	0.006243
 192	9.5500e-02	1.9055	-10.479171	0.000693	6.925944	1.173287	0.013855
 193	9.6000e-02	1.9183	-10.447527	0.000316	3.163703	0.535946	0.006329
 194	9.6500e-02	1.9260	-10.397495	0.000500	5.002071	0.847374	0.010006
 195	9.7000e-02	1.9348	-10.346607	0.000509	5.087576	0.861859	0.010177
 196	9.7500e-02	1.9458	-10.295720	0.000509	5.087576	0.861859	0.010177
 197	9.8000e-02	1.9582	-10.256806	0.000389	3.890500	0.659068	0.007783
 198	9.8500e-02	1.9662	-10.200787	0.000560	5.600609	0.948769	0.011204
 199	9.9000e-02	1.9760	-10.165294	0.000355	3.548478	0.601128	0.007099
 200	9.9500e-02	1.9881	-10.090887	0.000744	7.438977	1.260197	0.014881
 201	1.0000e-01	1.9925	-10.060526	0.000304	3.035445	0.514218	0.006072
 202	1.0050e-01	2.0071	-10.003652	0.000569	5.686115	0.963254	0.011375
 203	1.0100e-01	2.0134	-9.960034	0.000436	4.360780	0.738736	0.008724
 204	1.0150e-01	2.0249	-9.918982	0.000410	4.104263	0.695281	0.008210
 205	1.0200e-01	2.0387	-9.853128	0.000658	6.583922	1.115347	0.013171
 206	1.0250e-01	2.0454	-9.836878	0.000162	1.624604	0.275215	0.003250
 207	1.0300e-01	2.0558	-9.782570	0.000543	5.429598	0.919799	0.010862
 208	1.0350e-01	2.0654	-9.718426	0.000641	6.412911	1.086377	0.012829
 209	1.0400e-01	2.0773	-9.663262	0.000552	5.515104	0.934284	0.011033
 210	1.0450e-01	2.0861	-9.631190	0.000321	3.206456	0.543188	0.006414
 211	1.0500e-01	2.0963	-9.569185	0.000620	6.199148	1.050164	0.012401
 212	1.0550e-01	2.1080	-9.526422	0.000428	4.275274	0.724251	0.008553
 213	1.0600e-01	2.1167	-9.484942	0.000415	4.147016	0.702524	0.008296
 214	1.0650e-01	2.1271	-9.409680	0.000752	7.524483	1.274682	0.015052
 215	1.0700e-01	2.1390	-9.371194	0.000385	3.847747	0.651826	0.007697
 216	1.0750e-01	2.1457	-9.317313	0.000539	5.386846	0.912556	0.010776
 217	1.0800e-01	2.1537	-9.281393	0.000359	3.591230	0.608371	0.007184
 218	1.0850e-01	2.1649	-9.236064	0.000453	4.531791	0.767706	0.009066
 219	1.0900e-01	2.1753	-9.183039	0.000530	5.301340	0.898071	0.010605
 220	1.0950e-01	2.1878	-9.130013	0.000530	5.301340	0.898071	0.010605
 221	1.1000e-01	2.1997	-9.095376	0.000346	3.462972	0.586643	0.006928
 222	1.1050e-01	2.2081	-9.053469	0.000419	4.189769	0.709766	0.008381
 223	1.1100e-01	2.2177	-8.989325	0.000641	6.412911	1.086377	0.012829
 224	1.1150e-01	2.2253	-8.953832	0.000355	3.548478	0.601128	0.007099
 225	1.1200e-01	2.2369	-8.899951	0.000539	5.386846	0.912556	0.010776
 226	1.1250e-01	2.2470	-8.838801	0.000611	6.113642	1.035679	0.012230
 227	1.1300e-01	2.2575	-8.781926	0.000569	5.686115	0.963254	0.011375
 228	1.1350e-01	2.2668	-8.758407	0.000235	2.351401	0.398338	0.004704
 229	1.1400e-01	2.2762	-8.697684	0.000607	6.070889	1.028437	0.012145
 230	1.1450e-01	2.2894	-8.661764	0.000359	3.591230	0.608371	0.007184
 231	1.1500e-01	2.2993	-8.614297	0.000475	4.745554	0.803919	0.009493
 232	1.1550e-01	2.3064	-8.551864	0.000624	6.241900	1.057407	0.012487
 233	1.1600e-01	2.3181	-8.514233	0.000376	3.762241	0.637341	0.007526
 234	1.1650e-01	2.3251	-8.465911	0.000483	4.831060	0.818404	0.009664
 235	1.1700e-01	2.3364	-8.416307	0.000496	4.959318	0.840131	0.009921
 236	1.1750e-01	2.3444	-8.374400	0.000419	4.189769	0.709766	0.008381
 237	1.1800e-01	2.3572	-8.310256	0.000641	6.412911	1.086377	0.012829
 238	1.1850e-01	2.3663	-8.272625	0.000376	3.762241	0.637341	0.007526
 239	1.1900e-01	2.3772	-8.235849	0.000368	3.676736	0.622856	0.007355
 240	1.1950e-01	2.3839	-8.162725	0.000731	7.310719	1.238469	0.014625
 241	1.2000e-01	2.3950	-8.120818	0.000419	4.189769	0.709766	0.008381
 242	1.2050e-01	2.4069	-8.070358	0.000504	5.044824	0.854616	0.010092
 243	1.2100e-01	2.4182	-8.037003	0.000333	3.334714	0.564916	0.006671
 244	1.2150e-01	2.4251	-7.982267	0.000547	5.472351	0.927041	0.010947
 245	1.2200e-01	2.4379	-7.942070	0.000402	4.018758	0.680796	0.008039
 246	1.2250e-01	2.4454	-7.890755	0.000513	5.130329	0.869101	0.010263
 247	1.2300e-01	2.4575	-7.857828	0.000329	3.291961	0.557673	0.006585
 248	1.2350e-01	2.4655	-7.817631	0.000402	4.018758	0.680796	0.008039
 249	1.2400e-01	2.4744	-7.735527	0.000821	8.208526	1.390562	0.016421
 250	1.2450e-01	2.4890	-7.691482	0.000440	4.403532	0.745979	0.008809
 251	1.2500e-01	2.4982	-7.641450	0.000500	5.002071	0.847374	0.010006
 252	1.2550e-01	2.5089	-7.594839	0.000466	4.660049	0.789434	0.009322
 253	1.2600e-01	2.5174	-7.568326	0.000265	2.650670	0.449036	0.005303
 254	1.2650e-01	2.5282	-7.502899	0.000654	6.541170	1.108104	0.013085
 255	1.2700e-01	2.5342	-7.490498	0.000124	1.239830	0.210033	0.002480
 256	1.2750e-01	2.5467	-7.424216	0.000663	6.626675	1.122589	0.013256
 257	1.2800e-01	2.5574	-7.386585	0.000376	3.762241	0.637341	0.007526
 258	1.2850e-01	2.5660	-7.345961	0.000406	4.061511	0.688039	0.008125
 259	1.2900e-01	2.5751	-7.269843	0.000761	7.609988	1.289167	0.015223
 260	1.2950e-01	2.5876	-7.236489	0.000333	3.334714	0.564916	0.006671
 261	1.3000e-01	2.5977	-7.188167	0.000483	4.831060	0.818404	0.009664
 262	1.3050e-01	2.6089	-7.150108	0.000380	3.804994	0.644583	0.007612
 263	1.3100e-01	2.6155	-7.091096	0.000590	5.899878	0.999466	0.011802
 264	1.3150e-01	2.6244	-7.041492	0.000496	4.959318	0.840131	0.009921
 265	1.3200e-01	2.6353	-6.996591	0.000449	4.489038	0.760464	0.008980
 266	1.3250e-01	2.6447	-6.957249	0.000393	3.933252	0.666311	0.007868
 267	1.3300e-01	2.6573	-6.906790	0.000504	5.044824	0.854616	0.010092
 268	1.3350e-01	2.6675	-6.846494	0.000603	6.028137	1.021194	0.012059
 269	1.3400e-01	2.6772	-6.813995	0.000325	3.249208	0.550431	0.006500
 270	1.3450e-01	2.6868	-6.768239	0.000457	4.574543	0.774949	0.009151
 271	1.3500e-01	2.6947	-6.712220	0.000560	5.600609	0.948769	0.011204
 272	1.3550e-01	2.7069	-6.659195	0.000530	5.301340	0.898071	0.010605
 273	1.3600e-01	2.7185	-6.614722	0.000445	4.446285	0.753221	0.008895
 274	1.3650e-01	2.7274	-6.583933	0.000308	3.078197	0.521461	0.006158
 275	1.3700e-01	2.7388	-6.548867	0.000351	3.505725	0.593886	0.007013
 276	1.3750e-01	2.7472	-6.478309	0.000705	7.054202	1.195014	0.014112
 277	1.3800e-01	2.7573	-6.435974	0.000423	4.232521	0.717009	0.008467
 278	1.3850e-01	2.7643	-6.387225	0.000487	4.873813	0.825646	0.009750
 279	1.3900e-01	2.7738	-6.350022	0.000372	3.719489	0.630098	0.007441
 280	1.3950e-01	2.7885	-6.292292	0.000577	5.771620	0.977739	0.011546
 281	1.4000e-01	2.7954	-6.247391	0.000449	4.489038	0.760464	0.008980
 282	1.4050e-01	2.8048	-6.223872	0.000235	2.351401	0.398338	0.004704
 283	1.4100e-01	2.8159	-6.161011	0.000628	6.284653	1.064649	0.012572
 284	1.4150e-01	2.8265	-6.132788	0.000282	2.821681	0.478006	0.005645
 285	1.4200e-01	2.8384	-6.072065	0.000607	6.070889	1.028437	0.012145
 286	1.4250e-01	2.8468	-6.014763	0.000573	5.728867	0.970496	0.011460
 287	1.4300e-01	2.8570	-5.974139	0.000406	4.061511	0.688039	0.008125
 288	1.4350e-01	2.8693	-5.945060	0.000291	2.907186	0.492491	0.005816
 289	1.4400e-01	2.8772	-5.874075	0.000710	7.096955	1.202257	0.014197
 290	1.4450e-01	2.8856	-5.840720	0.000333	3.334714	0.564916	0.006671
 291	1.4500e-01	2.8946	-5.788550	0.000522	5.215835	0.883586	0.010434
 292	1.4550e-01	2.9057	-5.744932	0.000436	4.360780	0.738736	0.008724
 293	1.4600e-01	2.9176	-5.688058	0.000569	5.686115	0.963254	0.011375
 294	1.4650e-01	2.9257	-5.665821	0.000222	2.223143	0.376611	0.004447
 295	1.4700e-01	2.9371	-5.597401	0.000684	6.840439	1.158802	0.013684
 296	1.4750e-01	2.9468	-5.548224	0.000492	4.916565	0.832889	0.009835
 297	1.4800e-01	2.9565	-5.528126	0.000201	2.009379	0.340398	0.004020
 298	1.4850e-01	2.9674	-5.472962	0.000552	5.515104	0.934284	0.011033
 299	1.4900e-01	2.9813	-5.442173	0.000308	3.078197	0.521461	0.006158
 300	1.4950e-01	2.9861	-5.368622	0.000735	7.353472	1.245712	0.014710
 301	1.5000e-01	2.9974	-5.322010	0.000466	4.660049	0.789434	0.009322
 302	1.5050e-01	3.0066	-5.283096	0.000389	3.890500	0.659068	0.007783
 303	1.5100e-01	3.0179	-5.248031	0.000351	3.505725	0.593886	0.007013
 304	1.5150e-01	3.0270	-5.199282	0.000487	4.873813	0.825646	0.009750
 305	1.5200e-01	3.0341	-5.131289	0.000680	6.797686	1.151559	0.013598
 306	1.5250e-01	3.0446	-5.120599	0.000107	1.068819	0.181063	0.002138
 307	1.5300e-01	3.0554	-5.063297	0.000573	5.728867	0.970496	0.011460
 308	1.5350e-01	3.0644	-5.012410	0.000509	5.087576	0.861859	0.010177
 309	1.5400e-01	3.0770	-4.973923	0.000385	3.847747	0.651826	0.007697
 310	1.5450e-01	3.0888	-4.929878	0.000440	4.403532	0.745979	0.008809
 311	1.5500e-01	3.0969	-4.881984	0.000479	4.788307	0.811161	0.009579
 312	1.5550e-01	3.1064	-4.812281	0.000697	6.968697	1.180529	0.013941
 313	1.5600e-01	3.1165	-4.791327	0.000209	2.094884	0.354883	0.004191
 314	1.5650e-01	3.1274	-4.742578	0.000487	4.873813	0.825646	0.009750
 315	1.5700e-01	3.1354	-4.708368	0.000342	3.420219	0.579401	0.006842
 316	1.5750e-01	3.1447	-4.646790	0.000616	6.156395	1.042922	0.012316
 317	1.5800e-01	3.1567	-4.610870	0.000359	3.591230	0.608371	0.007184
 318	1.5850e-01	3.1665	-4.560410	0.000504	5.044824	0.854616	0.010092
 319	1.5900e-01	3.1763	-4.503536	0.000569	5.686115	0.963254	0.011375
 320	1.5950e-01	3.1860	-4.470608	0.000329	3.291961	0.557673	0.006585
 321	1.6000e-01	3.1979	-4.424853	0.000457	4.574543	0.774949	0.009151
 322	1.6050e-01	3.2071	-4.387649	0.000372	3.719489	0.630098	0.007441
 323	1.6100e-01	3.2156	-4.331203	0.000564	5.643362	0.956011	0.011289
 324	1.6150e-01	3.2281	-4.291433	0.000398	3.976005	0.673553	0.007954
 325	1.6200e-01	3.2385	-4.247388	0.000440	4.403532	0.745979	0.008809
 326	1.6250e-01	3.2487	-4.199066	0.000483	4.831060	0.818404	0.009664
 327	1.6300e-01	3.2578	-4.182817	0.000162	1.624604	0.275215	0.003250
 328	1.6350e-01	3.2666	-4.116535	0.000663	6.626675	1.122589	0.013256
 329	1.6400e-01	3.2764	-4.048115	0.000684	6.840439	1.158802	0.013684
 330	1.6450e-01	3.2875	-4.023740	0.000244	2.436906	0.412823	0.004875
 331	1.6500e-01	3.2950	-3.999793	0.000239	2.394154	0.405581	0.004789
 332	1.6550e-01	3.3070	-3.930090	0.000697	6.968697	1.180529	0.013941
 333	1.6600e-01	3.3182	-3.873216	0.000569	5.686115	0.963254	0.011375
 334	1.6650e-01	3.3278	-3.832164	0.000410	4.104263	0.695281	0.008210
 335	1.6700e-01	3.3405	-3.793250	0.000389	3.890500	0.659068	0.007783
 336	1.6750e-01	3.3459	-3.744073	0.000492	4.916565	0.832889	0.009835
 337	1.6800e-01	3.3577	-3.704732	0.000393	3.933252	0.666311	0.007868
 338	1.6850e-01	3.3667	-3.651278	0.000534	5.344093	0.905314	0.010691
 339	1.6900e-01	3.3771	-3.621772	0.000295	2.949939	0.499733	0.005901
 340	1.6950e-01	3.3862	-3.564898	0.000569	5.686115	0.963254	0.011375
 341	1.7000e-01	3.3966	-3.532826	0.000321	3.206456	0.543188	0.006414
 342	1.7050e-01	3.4055	-3.490919	0.000419	4.189769	0.709766	0.008381
 343	1.7100e-01	3.4172	-3.454998	0.000359	3.591230	0.608371	0.007184
 344	1.7150e-01	3.4265	-3.398124	0.000569	5.686115	0.963254	0.011375
 345	1.7200e-01	3.4357	-3.353651	0.000445	4.446285	0.753221	0.008895
 346	1.7250e-01	3.4467	-3.288652	0.000650	6.498417	1.100862	0.013000
 347	1.7300e-01	3.4567	-3.257863	0.000308	3.078197	0.521461	0.006158
 348	1.7350e-01	3.4674	-3.201417	0.000564	5.643362	0.956011	0.011289
 349	1.7400e-01	3.4760	-3.186877	0.000145	1.453593	0.246245	0.002908
 350	1.7450e-01	3.4854	-3.107339	0.000795	7.952010	1.347107	0.015908
 351	1.7500e-01	3.4952	-3.081682	0.000257	2.565165	0.434551	0.005132
 352	1.7550e-01	3.5071	-3.048327	0.000333	3.334714	0.564916	0.006671
 353	1.7600e-01	3.5190	-2.997867	0.000504	5.044824	0.854616	0.010092
 354	1.7650e-01	3.5272	-2.967933	0.000299	2.992692	0.506976	0.005987
 355	1.7700e-01	3.5388	-2.902507	0.000654	6.541170	1.108104	0.013085
 356	1.7750e-01	3.5480	-2.855040	0.000475	4.745554	0.803919	0.009493
 357	1.7800e-01	3.5560	-2.822968	0.000321	3.206456	0.543188	0.006414
 358	1.7850e-01	3.5655	-2.778495	0.000445	4.446285	0.753221	0.008895
 359	1.7900e-01	3.5770	-2.734877	0.000436	4.360780	0.738736	0.008724
 360	1.7950e-01	3.5871	-2.680997	0.000539	5.386846	0.912556	0.010776
 361	1.8000e-01	3.5947	-2.642510	0.000385	3.847747	0.651826	0.007697
 362	1.8050e-01	3.6079	-2.601458	0.000410	4.104263	0.695281	0.008210
 363	1.8100e-01	3.6151	-2.542874	0.000586	5.857126	0.992224	0.011717
 364	1.8150e-01	3.6304	-2.521065	0.000218	2.180390	0.369368	0.004362
 365	1.8200e-01	3.6368	-2.463335	0.000577	5.771620	0.977739	0.011546
 366	1.8250e-01	3.6462	-2.448369	0.000150	1.496346	0.253488	0.002993
 367	1.8300e-01	3.6594	-2.390211	0.000581	5.814373	0.984981	0.011631
 368	1.8350e-01	3.6650	-2.337186	0.000530	5.301340	0.898071	0.010605
 369	1.8400e-01	3.6786	-2.305542	0.000316	3.163703	0.535946	0.006329
 370	1.8450e-01	3.6853	-2.248240	0.000573	5.728867	0.970496	0.011460
 371	1.8500e-01	3.6972	-2.206333	0.000419	4.189769	0.709766	0.008381
 372	1.8550e-01	3.7067	-2.192221	0.000141	1.410840	0.239003	0.002822
 373	1.8600e-01	3.7183	-2.115676	0.000765	7.652741	1.296409	0.015309
 374	1.8650e-01	3.7271	-2.081466	0.000342	3.420219	0.579401	0.006842
 375	1.8700e-01	3.7361	-2.028868	0.000526	5.258587	0.890829	0.010520
 376	1.8750e-01	3.7476	-1.990382	0.000385	3.847747	0.651826	0.007697
 377	1.8800e-01	3.7579	-1.950185	0.000402	4.018758	0.680796	0.008039
 378	1.8850e-01	3.7656	-1.918968	0.000312	3.120950	0.528703	0.006243
 379	1.8900e-01	3.7769	-1.868081	0.000509	5.087576	0.861859	0.010177
 380	1.8950e-01	3.7885	-1.823180	0.000449	4.489038	0.760464	0.008980
 381	1.9000e-01	3.7994	-1.774859	0.000483	4.831060	0.818404	0.009664
 382	1.9050e-01	3.8052	-1.738511	0.000363	3.633983	0.615613	0.007270
 383	1.9100e-01	3.8187	-1.690617	0.000479	4.788307	0.811161	0.009579
 384	1.9150e-01	3.8239	-1.670091	0.000205	2.052132	0.347641	0.004105
 385	1.9200e-01	3.8371	-1.617920	0.000522	5.215835	0.883586	0.010434
 386	1.9250e-01	3.8498	-1.571309	0.000466	4.660049	0.789434	0.009322
 387	1.9300e-01	3.8565	-1.508448	0.000628	6.284653	1.064649	0.012572
 388	1.9350e-01	3.8684	-1.482363	0.000261	2.607917	0.441793	0.005217
 389	1.9400e-01	3.8757	-1.449436	0.000329	3.291961	0.557673	0.006585
 390	1.9450e-01	3.8857	-1.392989	0.000564	5.643362	0.956011	0.011289
 391	1.9500e-01	3.8962	-1.357496	0.000355	3.548478	0.601128	0.007099
 392	1.9550e-01	3.9053	-1.307037	0.000504	5.044824	0.854616	0.010092
 393	1.9600e-01	3.9204	-1.267695	0.000393	3.933252	0.666311	0.007868
 394	1.9650e-01	3.9276	-1.216808	0.000509	5.087576	0.861859	0.010177
 395	1.9700e-01	3.9348	-1.180887	0.000359	3.591230	0.608371	0.007184
 396	1.9750e-01	3.9487	-1.145394	0.000355	3.548478	0.601128	0.007099
 397	1.9800e-01	3.9581	-1.065856	0.000795	7.952010	1.347107	0.015908
 398	1.9850e-01	3.9688	-1.056021	0.000098	0.983313	0.166578	0.001967
 399	1.9900e-01	3.9777	-1.008127	0.000479	4.788307	0.811161	0.009579
 400	1.9950e-01	3.9871	-0.964936	0.000432	4.318027	0.731494	0.008638
 401	2.0000e-01	3.9972	-0.925595	0.000393	3.933252	0.666311	0.007868
 402	2.0050e-01	4.0053	-0.881550	0.000440	4.403532	0.745979	0.008809
 403	2.0100e-01	4.0158	-0.835794	0.000457	4.574543	0.774949	0.009151
 404	2.0150e-01	4.0262	-0.786189	0.000496	4.959318	0.840131	0.009921
 405	2.0200e-01	4.0381	-0.731453	0.000547	5.472351	0.927041	0.010947
 406	2.0250e-01	4.0463	-0.691256	0.000402	4.018758	0.680796	0.008039
 407	2.0300e-01	4.0582	-0.663888	0.000274	2.736175	0.463521	0.005474
 408	2.0350e-01	4.0675	-0.624119	0.000398	3.976005	0.673553	0.007954
 409	2.0400e-01	4.0760	-0.589481	0.000346	3.462972	0.586643	0.006928
 410	2.0450e-01	4.0881	-0.549285	0.000402	4.018758	0.680796	0.008039
 411	2.0500e-01	4.1019	-0.508233	0.000410	4.104263	0.695281	0.008210
 412	2.0550e-01	4.1046	-0.435109	0.000731	7.310719	1.238469	0.014625
 413	2.0600e-01	4.1171	-0.410734	0.000244	2.436906	0.412823	0.004875
 414	2.0650e-01	4.1272	-0.370537	0.000402	4.018758	0.680796	0.008039
 415	2.0700e-01	4.1357	-0.335900	0.000346	3.462972	0.586643	0.006928
 416	2.0750e-01	4.1469	-0.279881	0.000560	5.600609	0.948769	0.011204
 417	2.0800e-01	4.1553	-0.239256	0.000406	4.061511	0.688039	0.008125
 418	2.0850e-01	4.1681	-0.202481	0.000368	3.676736	0.622856	0.007355
 419	2.0900e-01	4.1776	-0.161429	0.000410	4.104263	0.695281	0.008210
 420	2.0950e-01	4.1891	-0.118238	0.000432	4.318027	0.731494	0.008638
 421	2.1000e-01	4.1957	-0.096002	0.000222	2.223143	0.376611	0.004447
 422	2.1050e-01	4.2039	-0.039128	0.000569	5.686115	0.963254	0.011375
 423	2.1100e-01	4.2155	0.000641	0.000398	3.976005	0.673553	0.007954
 424	2.1150e-01	4.2258	0.054095	0.000534	5.344093	0.905314	0.010691
 425	2.1200e-01	4.2365	0.083173	0.000291	2.907186	0.492491	0.005816
 426	2.1250e-01	4.2474	0.143896	0.000607	6.070889	1.028437	0.012145
 427	2.1300e-01	4.2564	0.181527	0.000376	3.762241	0.637341	0.007526
 428	2.1350e-01	4.2657	0.221296	0.000398	3.976005	0.673553	0.007954
 429	2.1400e-01	4.2761	0.256789	0.000355	3.548478	0.601128	0.007099
 430	2.1450e-01	4.2845	0.306394	0.000496	4.959318	0.840131	0.009921
 431	2.1500e-01	4.2963	0.349156	0.000428	4.275274	0.724251	0.008553
 432	2.1550e-01	4.3055	0.401754	0.000526	5.258587	0.890829	0.010520
 433	2.1600e-01	4.3188	0.432115	0.000304	3.035445	0.514218	0.006072
 434	2.1650e-01	4.3268	0.482575	0.000504	5.044824	0.854616	0.010092
 435	2.1700e-01	4.3393	0.507805	0.000252	2.522412	0.427308	0.005046
 436	2.1750e-01	4.3463	0.548857	0.000410	4.104263	0.695281	0.008210
 437	2.1800e-01	4.3585	0.584778	0.000359	3.591230	0.608371	0.007184
 438	2.1850e-01	4.3684	0.618132	0.000333	3.334714	0.564916	0.006671
 439	2.1900e-01	4.3756	0.672013	0.000539	5.386846	0.912556	0.010776
 440	2.1950e-01	4.3854	0.695960	0.000239	2.394154	0.405581	0.004789
 441	2.2000e-01	4.3968	0.751551	0.000556	5.557856	0.941526	0.011118
 442	2.2050e-01	4.4080	0.799873	0.000483	4.831060	0.818404	0.009664
 443	2.2100e-01	4.4171	0.843063	0.000432	4.318027	0.731494	0.008638
 444	2.2150e-01	4.4270	0.890102	0.000470	4.702802	0.796676	0.009408
 445	2.2200e-01	4.4376	0.911056	0.000209	2.094884	0.354883	0.004191
 446	2.2250e-01	4.4467	0.965792	0.000547	5.472351	0.927041	0.010947
 447	2.2300e-01	4.4553	1.011120	0.000453	4.531791	0.767706	0.009066
 448	2.2350e-01	4.4675	1.039343	0.000282	2.821681	0.478006	0.005645
 449	2.2400e-01	4.4801	1.074409	0.000351	3.505725	0.593886	0.007013
 450	2.2450e-01	4.4861	1.118454	0.000440	4.403532	0.745979	0.008809
 451	2.2500e-01	4.4960	1.180460	0.000620	6.199148	1.050164	0.012401
 452	2.2550e-01	4.5056	1.209966	0.000295	2.949939	0.499733	0.005901
 453	2.2600e-01	4.5148	1.237761	0.000278	2.778928	0.470763	0.005559
 454	2.2650e-01	4.5255	1.290787	0.000530	5.301340	0.898071	0.010605
 455	2.2700e-01	4.5367	1.336970	0.000462	4.617296	0.782191	0.009237
 456	2.2750e-01	4.5453	1.373319	0.000363	3.633983	0.615613	0.007270
 457	2.2800e-01	4.5551	1.429337	0.000560	5.600609	0.948769	0.011204
 458	2.2850e-01	4.5685	1.446870	0.000175	1.752862	0.296943	0.003507
 459	2.2900e-01	4.5776	1.502889	0.000560	5.600609	0.948769	0.011204
 460	2.2950e-01	4.5874	1.547362	0.000445	4.446285	0.753221	0.008895
 461	2.3000e-01	4.5956	1.578579	0.000312	3.120950	0.528703	0.006243
 462	2.3050e-01	4.6053	1.605519	0.000269	2.693423	0.456278	0.005388
 463	2.3100e-01	4.6167	1.653413	0.000479	4.788307	0.811161	0.009579
 464	2.3150e-01	4.6291	1.712425	0.000590	5.899878	0.999466	0.011802
 465	2.3200e-01	4.6436	1.736372	0.000239	2.394154	0.405581	0.004789
 466	2.3250e-01	4.6466	1.782984	0.000466	4.660049	0.789434	0.009322
 467	2.3300e-01	4.6564	1.816766	0.000338	3.377467	0.572158	0.006756
 468	2.3350e-01	4.6649	1.865515	0.000487	4.873813	0.825646	0.009750
 469	2.3400e-01	4.6783	1.908278	0.000428	4.275274	0.724251	0.008553
 470	2.3450e-01	4.6887	1.945909	0.000376	3.762241	0.637341	0.007526
 471	2.3500e-01	4.6967	1.970711	0.000248	2.479659	0.420066	0.004960
 472	2.3550e-01	4.7072	2.030579	0.000599	5.985384	1.013951	0.011974
 473	2.3600e-01	4.7192	2.076762	0.000462	4.617296	0.782191	0.009237
 474	2.3650e-01	4.7250	2.110117	0.000333	3.334714	0.564916	0.006671
 475	2.3700e-01	4.7382	2.145610	0.000355	3.548478	0.601128	0.007099
 476	2.3750e-01	4.7473	2.202484	0.000569	5.686115	0.963254	0.011375
 477	2.3800e-01	4.7571	2.225148	0.000227	2.265895	0.383853	0.004533
 478	2.3850e-01	4.7678	2.278601	0.000534	5.344093	0.905314	0.010691
 479	2.3900e-01	4.7769	2.302548	0.000239	2.394154	0.405581	0.004789
 480	2.3950e-01	4.7870	2.351298	0.000487	4.873813	0.825646	0.009750
 481	2.4000e-01	4.7977	2.387218	0.000359	3.591230	0.608371	0.007184
 482	2.4050e-01	4.8083	2.416724	0.000295	2.949939	0.499733	0.005901
 483	2.4100e-01	4.8157	2.447941	0.000312	3.120950	0.528703	0.006243
 484	2.4150e-01	4.8264	2.517644	0.000697	6.968697	1.180529	0.013941
 485	2.4200e-01	4.8346	2.542874	0.000252	2.522412	0.427308	0.005046
 486	2.4250e-01	4.8505	2.597610	0.000547	5.472351	0.927041	0.010947
 487	2.4300e-01	4.8581	2.638234	0.000406	4.061511	0.688039	0.008125
 488	2.4350e-01	4.8651	2.671589	0.000333	3.334714	0.564916	0.006671
 489	2.4400e-01	4.8774	2.691260	0.000197	1.966626	0.333155	0.003934
 490	2.4450e-01	4.8862	2.747706	0.000564	5.643362	0.956011	0.011289
 491	2.4500e-01	4.8978	2.779778	0.000321	3.206456	0.543188	0.006414
 492	2.4550e-01	4.9094	2.810995	0.000312	3.120950	0.528703	0.006243
 493	2.4600e-01	4.9164	2.877277	0.000663	6.626675	1.122589	0.013256
 494	2.4650e-01	4.9287	2.914480	0.000372	3.719489	0.630098	0.007441
 495	2.4700e-01	4.9390	2.937144	0.000227	2.265895	0.383853	0.004533
 496	2.4750e-01	4.9472	2.985893	0.000487	4.873813	0.825646	0.009750
 497	2.4800e-01	4.9585	3.009840	0.000239	2.394154	0.405581	0.004789
 498	2.4850e-01	4.9664	3.067998	0.000581	5.814373	0.984981	0.011631
 499	2.4900e-01	4.9774	3.122306	0.000543	5.429598	0.919799	0.010862
 500	2.4950e-01	4.9893	3.158654	0.000363	3.633983	0.615613	0.007270
 501	2.5000e-01	4.9979	3.190298	0.000316	3.163703	0.535946	0.006329
 502	2.5050e-01	5.0064	3.215956	0.000257	2.565165	0.434551	0.005132
 503	2.5100e-01	5.0174	3.272830	0.000569	5.686115	0.963254	0.011375
 504	2.5150e-01	5.0244	3.303619	0.000308	3.078197	0.521461	0.006158
 505	2.5200e-01	5.0378	3.357927	0.000543	5.429598	0.919799	0.010862
 506	2.5250e-01	5.0491	3.358355	0.000004	0.042753	0.007243	0.000086
 507	2.5300e-01	5.0604	3.399407	0.000410	4.104263	0.695281	0.008210
 508	2.5350e-01	5.0703	3.459702	0.000603	6.028137	1.021194	0.012059
 509	2.5400e-01	5.0745	3.478945	0.000192	1.923873	0.325913	0.003849
 510	2.5450e-01	5.0868	3.525984	0.000470	4.702802	0.796676	0.009408
 511	2.5500e-01	5.0970	3.588845	0.000628	6.284653	1.064649	0.012572
 512	2.5550e-01	5.1077	3.614075	0.000252	2.522412	0.427308	0.005046
 513	2.5600e-01	5.1166	3.644864	0.000308	3.078197	0.521461	0.006158
 514	2.5650e-01	5.1270	3.694469	0.000496	4.959318	0.840131	0.009921
 515	2.5700e-01	5.1349	3.732955	0.000385	3.847747	0.651826	0.007697
 516	2.5750e-01	5.1459	3.763316	0.000304	3.035445	0.514218	0.006072
 517	2.5800e-01	5.1566	3.821901	0.000586	5.857126	0.992224	0.011717
 518	2.5850e-01	5.1666	3.848841	0.000269	2.693423	0.456278	0.005388
 519	2.5900e-01	5.1773	3.888183	0.000393	3.933252	0.666311	0.007868
 520	2.5950e-01	5.1868	3.944202	0.000560	5.600609	0.948769	0.011204
 521	2.6000e-01	5.1960	3.954465	0.000103	1.026066	0.173820	0.002053
 522	2.6050e-01	5.2075	4.000221	0.000457	4.574543	0.774949	0.009151
 523	2.6100e-01	5.2148	4.034431	0.000342	3.420219	0.579401	0.006842
 524	2.6150e-01	5.2310	4.084035	0.000496	4.959318	0.840131	0.009921
 525	2.6200e-01	5.2377	4.132357	0.000483	4.831060	0.818404	0.009664
 526	2.6250e-01	5.2441	4.165712	0.000333	3.334714	0.564916	0.006671
 527	2.6300e-01	5.2565	4.215316	0.000496	4.959318	0.840131	0.009921
 528	2.6350e-01	5.2657	4.231566	0.000162	1.624604	0.275215	0.003250
 529	2.6400e-01	5.2740	4.267486	0.000359	3.591230	0.608371	0.007184
 530	2.6450e-01	5.2878	4.329920	0.000624	6.241900	1.057407	0.012487
 531	2.6500e-01	5.2969	4.352584	0.000227	2.265895	0.383853	0.004533
 532	2.6550e-01	5.3040	4.397057	0.000445	4.446285	0.753221	0.008895
 533	2.6600e-01	5.3162	4.421859	0.000248	2.479659	0.420066	0.004960
 534	2.6650e-01	5.3278	4.459063	0.000372	3.719489	0.630098	0.007441
 535	2.6700e-01	5.3378	4.508239	0.000492	4.916565	0.832889	0.009835
 536	2.6750e-01	5.3461	4.549719	0.000415	4.147016	0.702524	0.008296
 537	2.6800e-01	5.3571	4.573238	0.000235	2.351401	0.398338	0.004704
 538	2.6850e-01	5.3696	4.609587	0.000363	3.633983	0.615613	0.007270
 539	2.6900e-01	5.3778	4.664750	0.000552	5.515104	0.934284	0.011033
 540	2.6950e-01	5.3851	4.716493	0.000517	5.173082	0.876344	0.010349
 541	2.7000e-01	5.3986	4.744716	0.000282	2.821681	0.478006	0.005645
 542	2.7050e-01	5.4047	4.790472	0.000457	4.574543	0.774949	0.009151
 543	2.7100e-01	5.4138	4.824682	0.000342	3.420219	0.579401	0.006842
 544	2.7150e-01	5.4254	4.856754	0.000321	3.206456	0.543188	0.006414
 545	2.7200e-01	5.4340	4.890109	0.000333	3.334714	0.564916	0.006671
 546	2.7250e-01	5.4477	4.944845	0.000547	5.472351	0.927041	0.010947
 547	2.7300e-01	5.4550	4.978200	0.000333	3.334714	0.564916	0.006671
 548	2.7350e-01	5.4669	5.009844	0.000316	3.163703	0.535946	0.006329
 549	2.7400e-01	5.4773	5.030798	0.000209	2.094884	0.354883	0.004191
 550	2.7450e-01	5.4852	5.091948	0.000611	6.113642	1.035679	0.012230
 551	2.7500e-01	5.4962	5.128296	0.000363	3.633983	0.615613	0.007270
 552	2.7550e-01	5.5069	5.168065	0.000398	3.976005	0.673553	0.007954
 553	2.7600e-01	5.5170	5.191585	0.000235	2.351401	0.398338	0.004704
 554	2.7650e-01	5.5264	5.248886	0.000573	5.728867	0.970496	0.011460
 555	2.7700e-01	5.5368	5.262998	0.000141	1.410840	0.239003	0.002822
 556	2.7750e-01	5.5464	5.303622	0.000406	4.061511	0.688039	0.008125
 557	2.7800e-01	5.5560	5.348951	0.000453	4.531791	0.767706	0.009066
 558	2.7850e-01	5.5664	5.399411	0.000504	5.044824	0.854616	0.010092
 559	2.7900e-01	5.5774	5.423785	0.000244	2.436906	0.412823	0.004875
 560	2.7950e-01	5.5865	5.451153	0.000274	2.736175	0.463521	0.005474
 561	2.8000e-01	5.5963	5.504179	0.000530	5.301340	0.898071	0.010605
 562	2.8050e-01	5.6061	5.540954	0.000368	3.676736	0.622856	0.007355
 563	2.8100e-01	5.6140	5.571744	0.000308	3.078197	0.521461	0.006158
 564	2.8150e-01	5.6250	5.635460	0.000637	6.370159	1.079134	0.012743
 565	2.8200e-01	5.6384	5.666676	0.000312	3.120950	0.528703	0.006243
 566	2.8250e-01	5.6482	5.707728	0.000410	4.104263	0.695281	0.008210
 567	2.8300e-01	5.6577	5.743649	0.000359	3.591230	0.608371	0.007184
 568	2.8350e-01	5.6659	5.765458	0.000218	2.180390	0.369368	0.004362
 569	2.8400e-01	5.6769	5.791115	0.000257	2.565165	0.434551	0.005132
 570	2.8450e-01	5.6860	5.851838	0.000607	6.070889	1.028437	0.012145
 571	2.8500e-01	5.6934	5.897166	0.000453	4.531791	0.767706	0.009066
 572	2.8550e-01	5.7098	5.927528	0.000304	3.035445	0.514218	0.006072
 573	2.8600e-01	5.7166	5.954041	0.000265	2.650670	0.449036	0.005303
 574	2.8650e-01	5.7288	5.996375	0.000423	4.232521	0.717009	0.008467
 575	2.8700e-01	5.7352	6.040421	0.000440	4.403532	0.745979	0.008809
 576	2.8750e-01	5.7471	6.071637	0.000312	3.120950	0.528703	0.006243
 577	2.8800e-01	5.7556	6.120814	0.000492	4.916565	0.832889	0.009835
 578	2.8850e-01	5.7629	6.150748	0.000299	2.992692	0.506976	0.005987
 579	2.8900e-01	5.7758	6.190945	0.000402	4.018758	0.680796	0.008039
 580	2.8950e-01	5.7867	6.237128	0.000462	4.617296	0.782191	0.009237
 581	2.9000e-01	5.7974	6.254233	0.000171	1.710110	0.289700	0.003421
 582	2.9050e-01	5.8029	6.307259	0.000530	5.301340	0.898071	0.010605
 583	2.9100e-01	5.8173	6.347456	0.000402	4.018758	0.680796	0.008039
 584	2.9150e-01	5.8301	6.382949	0.000355	3.548478	0.601128	0.007099
 585	2.9200e-01	5.8380	6.423573	0.000406	4.061511	0.688039	0.008125
 586	2.9250e-01	5.8484	6.450086	0.000265	2.650670	0.449036	0.005303
 587	2.9300e-01	5.8554	6.482585	0.000325	3.249208	0.550431	0.006500
 588	2.9350e-01	5.8670	6.520644	0.000380	3.804994	0.644583	0.007612
 589	2.9400e-01	5.8765	6.562551	0.000419	4.189769	0.709766	0.008381
 590	2.9450e-01	5.8856	6.593340	0.000308	3.078197	0.521461	0.006158
 591	2.9500e-01	5.8966	6.642945	0.000496	4.959318	0.840131	0.009921
 592	2.9550e-01	5.9082	6.689556	0.000466	4.660049	0.789434	0.009322
 593	2.9600e-01	5.9195	6.706233	0.000167	1.667357	0.282458	0.003335
 594	2.9650e-01	5.9253	6.757976	0.000517	5.173082	0.876344	0.010349
 595	2.9700e-01	5.9369	6.802021	0.000440	4.403532	0.745979	0.008809
 596	2.9750e-01	5.9485	6.822547	0.000205	2.052132	0.347641	0.004105
 597	2.9800e-01	5.9570	6.868303	0.000457	4.574543	0.774949	0.009151
 598	2.9850e-01	5.9665	6.901230	0.000329	3.291961	0.557673	0.006585
 599	2.9900e-01	5.9784	6.929454	0.000282	2.821681	0.478006	0.005645
 600	2.9950e-01	5.9875	6.961953	0.000325	3.249208	0.550431	0.006500
 601	3.0000e-01	5.9970	7.008992	0.000470	4.702802	0.796676	0.009408
 602	3.0050e-01	6.0071	7.049616	0.000406	4.061511	0.688039	0.008125
 603	3.0100e-01	6.0193	7.081261	0.000316	3.163703	0.535946	0.006329
 604	3.0150e-01	6.0251	7.107774	0.000265	2.650670	0.449036	0.005303
 605	3.0200e-01	6.0382	7.152674	0.000449	4.489038	0.760464	0.008980
 606	3.0250e-01	6.0455	7.182608	0.000299	2.992692	0.506976	0.005987
 607	3.0300e-01	6.0550	7.234778	0.000522	5.215835	0.883586	0.010434
 608	3.0350e-01	6.0654	7.259580	0.000248	2.479659	0.420066	0.004960
 609	3.0400e-01	6.0773	7.316882	0.000573	5.728867	0.970496	0.011460
 610	3.0450e-01	6.0876	7.327145	0.000103	1.026066	0.173820	0.002053
 611	3.0500e-01	6.0974	7.354086	0.000269	2.693423	0.456278	0.005388
 612	3.0550e-01	6.1066	7.414381	0.000603	6.028137	1.021194	0.012059
 613	3.0600e-01	6.1154	7.464841	0.000504	5.044824	0.854616	0.010092
 614	3.0650e-01	6.1279	7.494347	0.000295	2.949939	0.499733	0.005901
 615	3.0700e-01	6.1377	7.517439	0.000231	2.308648	0.391096	0.004618
 616	3.0750e-01	6.1469	7.551649	0.000342	3.420219	0.579401	0.006842
 617	3.0800e-01	6.1566	7.620924	0.000693	6.925944	1.173287	0.013855
 618	3.0850e-01	6.1682	7.616648	-0.000043	-0.427527	-0.072425	-0.000855
 619	3.0900e-01	6.1783	7.663686	0.000470	4.702802	0.796676	0.009408
 620	3.0950e-01	6.1877	7.708159	0.000445	4.446285	0.753221	0.008895
 621	3.1000e-01	6.1981	7.742369	0.000342	3.420219	0.579401	0.006842
 622	3.1050e-01	6.2061	7.780856	0.000385	3.847747	0.651826	0.007697
 623	3.1100e-01	6.2158	7.781283	0.000004	0.042753	0.007243	0.000086
 624	3.1150e-01	6.2271	7.835164	0.000539	5.386846	0.912556	0.010776
 625	3.1200e-01	6.2344	7.874506	0.000393	3.933252	0.666311	0.007868
 626	3.1250e-01	6.2482	7.929669	0.000552	5.515104	0.934284	0.011033
 627	3.1300e-01	6.2585	7.944636	0.000150	1.496346	0.253488	0.002993
 628	3.1350e-01	6.2671	7.981840	0.000372	3.719489	0.630098	0.007441
 629	3.1400e-01	6.2805	8.025457	0.000436	4.360780	0.738736	0.008724
 630	3.1450e-01	6.2875	8.048121	0.000227	2.265895	0.383853	0.004533
 631	3.1500e-01	6.2973	8.104996	0.000569	5.686115	0.963254	0.011375
 632	3.1550e-01	6.3077	8.126805	0.000218	2.180390	0.369368	0.004362
 633	3.1600e-01	6.3177	8.166146	0.000393	3.933252	0.666311	0.007868
 634	3.1650e-01	6.3275	8.222165	0.000560	5.600609	0.948769	0.011204
 635	3.1700e-01	6.3361	8.218316	-0.000038	-0.384775	-0.065183	-0.000770
 636	3.1750e-01	6.3477	8.294861	0.000765	7.652741	1.296409	0.015309
 637	3.1800e-01	6.3553	8.296144	0.000013	0.128258	0.021728	0.000257
 638	3.1850e-01	6.3657	8.354301	0.000581	5.814373	0.984981	0.011631
 639	3.1900e-01	6.3770	8.385945	0.000316	3.163703	0.535946	0.006329
 640	3.1950e-01	6.3852	8.422294	0.000363	3.633983	0.615613	0.007270
 641	3.2000e-01	6.3971	8.468477	0.000462	4.617296	0.782191	0.009237
 642	3.2050e-01	6.4063	8.482589	0.000141	1.410840	0.239003	0.002822
 643	3.2100e-01	6.4185	8.531766	0.000492	4.916565	0.832889	0.009835
 644	3.2150e-01	6.4252	8.568541	0.000368	3.676736	0.622856	0.007355
 645	3.2200e-01	6.4349	8.591633	0.000231	2.308648	0.391096	0.004618
 646	3.2250e-01	6.4441	8.626698	0.000351	3.505725	0.593886	0.007013
 647	3.2300e-01	6.4581	8.675020	0.000483	4.831060	0.818404	0.009664
 648	3.2350e-01	6.4661	8.704526	0.000295	2.949939	0.499733	0.005901
 649	3.2400e-01	6.4742	8.743440	0.000389	3.890500	0.659068	0.007783
 650	3.2450e-01	6.4862	8.771663	0.000282	2.821681	0.478006	0.005645
 651	3.2500e-01	6.4972	8.819985	0.000483	4.831060	0.818404	0.009664
 652	3.2550e-01	6.5071	8.854623	0.000346	3.462972	0.586643	0.006928
 653	3.2600e-01	6.5155	8.885412	0.000308	3.078197	0.521461	0.006158
 654	3.2650e-01	6.5259	8.905510	0.000201	2.009379	0.340398	0.004020
 655	3.2700e-01	6.5384	8.968371	0.000628	6.284653	1.064649	0.012572
 656	3.2750e-01	6.5445	9.002153	0.000338	3.377467	0.572158	0.006756
 657	3.2800e-01	6.5546	9.022679	0.000205	2.052132	0.347641	0.004105
 658	3.2850e-01	6.5656	9.065014	0.000423	4.232521	0.717009	0.008467
 659	3.2900e-01	6.5765	9.105639	0.000406	4.061511	0.688039	0.008125
 660	3.2950e-01	6.5878	9.127448	0.000218	2.180390	0.369368	0.004362
 661	3.3000e-01	6.5985	9.186032	0.000586	5.857126	0.992224	0.011717
 662	3.3050e-01	6.6078	9.204848	0.000188	1.881121	0.318670	0.003763
 663	3.3100e-01	6.6187	9.248893	0.000440	4.403532	0.745979	0.008809
 664	3.3150e-01	6.6248	9.268136	0.000192	1.923873	0.325913	0.003849
 665	3.3200e-01	6.6376	9.307906	0.000398	3.976005	0.673553	0.007954
 666	3.3250e-01	6.6455	9.351523	0.000436	4.360780	0.738736	0.008724
 667	3.3300e-01	6.6553	9.378036	0.000265	2.650670	0.449036	0.005303
 668	3.3350e-01	6.6650	9.404549	0.000265	2.650670	0.449036	0.005303
 669	3.3400e-01	6.6751	9.441752	0.000372	3.719489	0.630098	0.007441
 670	3.3450e-01	6.6870	9.481521	0.000398	3.976005	0.673553	0.007954
 671	3.3500e-01	6.6949	9.530271	0.000487	4.873813	0.825646	0.009750
 672	3.3550e-01	6.7065	9.552080	0.000218	2.180390	0.369368	0.004362
 673	3.3600e-01	6.7163	9.578592	0.000265	2.650670	0.449036	0.005303
 674	3.3650e-01	6.7285	9.630763	0.000522	5.215835	0.883586	0.010434
 675	3.3700e-01	6.7380	9.667966	0.000372	3.719489	0.630098	0.007441
 676	3.3750e-01	6.7480	9.691058	0.000231	2.308648	0.391096	0.004618
 677	3.3800e-01	6.7551	9.738952	0.000479	4.788307	0.811161	0.009579
 678	3.3850e-01	6.7676	9.754774	0.000158	1.581851	0.267973	0.003164
 679	3.3900e-01	6.7786	9.786846	0.000321	3.206456	0.543188	0.006414
 680	3.3950e-01	6.7877	9.831747	0.000449	4.489038	0.760464	0.008980
 681	3.4000e-01	6.7969	9.877075	0.000453	4.531791	0.767706	0.009066
 682	3.4050e-01	6.8080	9.898456	0.000214	2.137637	0.362126	0.004276
 683	3.4100e-01	6.8170	9.939080	0.000406	4.061511	0.688039	0.008125
 684	3.4150e-01	6.8280	9.977994	0.000389	3.890500	0.659068	0.007783
 685	3.4200e-01	6.8359	10.011777	0.000338	3.377467	0.572158	0.006756
 686	3.4250e-01	6.8477	10.044276	0.000325	3.249208	0.550431	0.006500
 687	3.4300e-01	6.8524	10.097302	0.000530	5.301340	0.898071	0.010605
 688	3.4350e-01	6.8671	10.113124	0.000158	1.581851	0.267973	0.003164
 689	3.4400e-01	6.8777	10.153748	0.000406	4.061511	0.688039	0.008125
 690	3.4450e-01	6.8851	10.191807	0.000380	3.804994	0.644583	0.007612
 691	3.4500e-01	6.9000	10.226445	0.000346	3.462972	0.586643	0.006928
 692	3.4550e-01	6.9070	10.246115	0.000197	1.966626	0.333155	0.003934
 693	3.4600e-01	6.9159	10.301707	0.000556	5.557856	0.941526	0.011118
 694	3.4650e-01	6.9263	10.317101	0.000154	1.539099	0.260730	0.003079
 695	3.4700e-01	6.9373	10.354732	0.000376	3.762241	0.637341	0.007526
 696	3.4750e-01	6.9472	10.394501	0.000398	3.976005	0.673553	0.007954
 697	3.4800e-01	6.9583	10.408613	0.000141	1.410840	0.239003	0.002822
 698	3.4850e-01	6.9659	10.462494	0.000539	5.386846	0.912556	0.010776
 699	3.4900e-01	6.9745	10.505256	0.000428	4.275274	0.724251	0.008553
 700	3.4950e-01	6.9843	10.530914	0.000257	2.565165	0.434551	0.005132
 701	3.5000e-01	6.9983	10.552723	0.000218	2.180390	0.369368	0.004362
 702	3.5050e-01	7.0062	10.594630	0.000419	4.189769	0.709766	0.008381
 703	3.5100e-01	7.0154	10.635254	0.000406	4.061511	0.688039	0.008125
 704	3.5150e-01	7.0264	10.683576	0.000483	4.831060	0.818404	0.009664
 705	3.5200e-01	7.0349	10.709661	0.000261	2.607917	0.441793	0.005217
 706	3.5250e-01	7.0468	10.745154	0.000355	3.548478	0.601128	0.007099
 707	3.5300e-01	7.0581	10.789199	0.000440	4.403532	0.745979	0.008809
 708	3.5350e-01	7.0673	10.814002	0.000248	2.479659	0.420066	0.004960
 709	3.5400e-01	7.0764	10.822982	0.000090	0.897808	0.152093	0.001796
 710	3.5450e-01	7.0863	10.884560	0.000616	6.156395	1.042922	0.012316
 711	3.5500e-01	7.0966	10.928605	0.000440	4.403532	0.745979	0.008809
 712	3.5550e-01	7.1071	10.945710	0.000171	1.710110	0.289700	0.003421
 713	3.5600e-01	7.1179	10.976927	0.000312	3.120950	0.528703	0.006243
 714	3.5650e-01	7.1265	10.986762	0.000098	0.983313	0.166578	0.001967
 715	3.5700e-01	7.1376	11.046202	0.000594	5.942631	1.006709	0.011888
 716	3.5750e-01	7.1442	11.076564	0.000304	3.035445	0.514218	0.006072
 717	3.5800e-01	7.1564	11.110774	0.000342	3.420219	0.579401	0.006842
 718	3.5850e-01	7.1667	11.148832	0.000380	3.804994	0.644583	0.007612
 719	3.5900e-01	7.1748	11.182187	0.000333	3.334714	0.564916	0.006671
 720	3.5950e-01	7.1875	11.218108	0.000359	3.591230	0.608371	0.007184
 721	3.6000e-01	7.1942	11.239061	0.000209	2.094884	0.354883	0.004191
 722	3.6050e-01	7.2064	11.271988	0.000329	3.291961	0.557673	0.006585
 723	3.6100e-01	7.2150	11.342974	0.000710	7.096955	1.202257	0.014197
 724	3.6150e-01	7.2278	11.347678	0.000047	0.470280	0.079668	0.000941
 725	3.6200e-01	7.2369	11.390441	0.000428	4.275274	0.724251	0.008553
 726	3.6250e-01	7.2467	11.435341	0.000449	4.489038	0.760464	0.008980
 727	3.6300e-01	7.2583	11.447742	0.000124	1.239830	0.210033	0.002480
 728	3.6350e-01	7.2711	11.491788	0.000440	4.403532	0.745979	0.008809
 729	3.6400e-01	7.2791	11.517018	0.000252	2.522412	0.427308	0.005046
 730	3.6450e-01	7.2849	11.523004	0.000060	0.598538	0.101395	0.001197
 731	3.6500e-01	7.2974	11.583300	0.000603	6.028137	1.021194	0.012059
 732	3.6550e-01	7.3096	11.641884	0.000586	5.857126	0.992224	0.011717
 733	3.6600e-01	7.3193	11.666259	0.000244	2.436906	0.412823	0.004875
 734	3.6650e-01	7.3260	11.698758	0.000325	3.249208	0.550431	0.006500
 735	3.6700e-01	7.3370	11.729120	0.000304	3.035445	0.514218	0.006072
 736	3.6750e-01	7.3474	11.764185	0.000351	3.505725	0.593886	0.007013
 737	3.6800e-01	7.3596	11.768034	0.000038	0.384775	0.065183	0.000770
 738	3.6850e-01	7.3669	11.822342	0.000543	5.429598	0.919799	0.010862
 739	3.6900e-01	7.3764	11.847572	0.000252	2.522412	0.427308	0.005046
 740	3.6950e-01	7.3883	11.893756	0.000462	4.617296	0.782191	0.009237
 741	3.7000e-01	7.3938	11.933952	0.000402	4.018758	0.680796	0.008039
 742	3.7050e-01	7.4069	11.949774	0.000158	1.581851	0.267973	0.003164
 743	3.7100e-01	7.4164	11.979281	0.000295	2.949939	0.499733	0.005901
 744	3.7150e-01	7.4261	12.025037	0.000457	4.574543	0.774949	0.009151
 745	3.7200e-01	7.4390	12.060957	0.000359	3.591230	0.608371	0.007184
 746	3.7250e-01	7.4487	12.118259	0.000573	5.728867	0.970496	0.011460
 747	3.7300e-01	7.4579	12.113983	-0.000043	-0.427527	-0.072425	-0.000855
 748	3.7350e-01	7.4640	12.165298	0.000513	5.130329	0.869101	0.010263
 749	3.7400e-01	7.4774	12.175988	0.000107	1.068819	0.181063	0.002138
 750	3.7450e-01	7.4890	12.222599	0.000466	4.660049	0.789434	0.009322
 751	3.7500e-01	7.4959	12.272204	0.000496	4.959318	0.840131	0.009921
 752	3.7550e-01	7.5085	12.303848	0.000316	3.163703	0.535946	0.006329
 753	3.7600e-01	7.5153	12.338913	0.000351	3.505725	0.593886	0.007013
 754	3.7650e-01	7.5262	12.354308	0.000154	1.539099	0.260730	0.003079
 755	3.7700e-01	7.5366	12.385952	0.000316	3.163703	0.535946	0.006329
 756	3.7750e-01	7.5464	12.422728	0.000368	3.676736	0.622856	0.007355
 757	3.7800e-01	7.5568	12.449241	0.000265	2.650670	0.449036	0.005303
 758	3.7850e-01	7.5702	12.469767	0.000205	2.052132	0.347641	0.004105
 759	3.7900e-01	7.5787	12.516806	0.000470	4.702802	0.796676	0.009408
 760	3.7950e-01	7.5848	12.542463	0.000257	2.565165	0.434551	0.005132
 761	3.8000e-01	7.5970	12.597199	0.000547	5.472351	0.927041	0.010947
 762	3.8050e-01	7.6056	12.616442	0.000192	1.923873	0.325913	0.003849
 763	3.8100e-01	7.6154	12.655784	0.000393	3.933252	0.666311	0.007868
 764	3.8150e-01	7.6242	12.678876	0.000231	2.308648	0.391096	0.004618
 765	3.8200e-01	7.6358	12.731901	0.000530	5.301340	0.898071	0.010605
 766	3.8250e-01	7.6447	12.760124	0.000282	2.821681	0.478006	0.005645
 767	3.8300e-01	7.6569	12.794762	0.000346	3.462972	0.586643	0.006928
 768	3.8350e-01	7.6660	12.825979	0.000312	3.120950	0.528703	0.006243
 769	3.8400e-01	7.6767	12.864037	0.000380	3.804994	0.644583	0.007612
 770	3.8450e-01	7.6883	12.895254	0.000312	3.120950	0.528703	0.006243
 771	3.8500e-01	7.6971	12.929892	0.000346	3.462972	0.586643	0.006928
 772	3.8550e-01	7.7075	12.964529	0.000346	3.462972	0.586643	0.006928
 773	3.8600e-01	7.7148	12.990187	0.000257	2.565165	0.434551	0.005132
 774	3.8650e-01	7.7271	13.021831	0.000316	3.163703	0.535946	0.006329
 775	3.8700e-01	7.7371	13.043640	0.000218	2.180390	0.369368	0.004362
 776	3.8750e-01	7.7484	13.065449	0.000218	2.180390	0.369368	0.004362
 777	3.8800e-01	7.7582	13.129165	0.000637	6.370159	1.079134	0.012743
 778	3.8850e-01	7.7661	13.162947	0.000338	3.377467	0.572158	0.006756
 779	3.8900e-01	7.7756	13.174066	0.000111	1.111571	0.188305	0.002224
 780	3.8950e-01	7.7863	13.216828	0.000428	4.275274	0.724251	0.008553
 781	3.9000e-01	7.7972	13.242913	0.000261	2.607917	0.441793	0.005217
 782	3.9050e-01	7.8043	13.286959	0.000440	4.403532	0.745979	0.008809
 783	3.9100e-01	7.8159	13.336136	0.000492	4.916565	0.832889	0.009835
 784	3.9150e-01	7.8268	13.375477	0.000393	3.933252	0.666311	0.007868
 785	3.9200e-01	7.8369	13.398141	0.000227	2.265895	0.383853	0.004533
 786	3.9250e-01	7.8473	13.404983	0.000068	0.684044	0.115880	0.001368
 787	3.9300e-01	7.8589	13.453305	0.000483	4.831060	0.818404	0.009664
 788	3.9350e-01	7.8644	13.493502	0.000402	4.018758	0.680796	0.008039
 789	3.9400e-01	7.8731	13.531133	0.000376	3.762241	0.637341	0.007526
 790	3.9450e-01	7.8845	13.554652	0.000235	2.351401	0.398338	0.004704
 791	3.9500e-01	7.8967	13.580737	0.000261	2.607917	0.441793	0.005217
 792	3.9550e-01	7.9065	13.623500	0.000428	4.275274	0.724251	0.008553
 793	3.9600e-01	7.9147	13.646164	0.000227	2.265895	0.383853	0.004533
 794	3.9650e-01	7.9248	13.682940	0.000368	3.676736	0.622856	0.007355
 795	3.9700e-01	7.9349	13.712018	0.000291	2.907186	0.492491	0.005816
 796	3.9750e-01	7.9480	13.735538	0.000235	2.351401	0.398338	0.004704
 797	3.9800e-01	7.9578	13.788136	0.000526	5.258587	0.890829	0.010520
 798	3.9850e-01	7.9666	13.806096	0.000180	1.795615	0.304185	0.003592
 799	3.9900e-01	7.9767	13.825339	0.000192	1.923873	0.325913	0.003849
 800	3.9950e-01	7.9852	13.876654	0.000513	5.130329	0.869101	0.010263
 801	4.0000e-01	7.9974	13.900601	0.000239	2.394154	0.405581	0.004789
 802	4.0050e-01	8.0067	13.953627	0.000530	5.301340	0.898071	0.010605
 803	4.0100e-01	8.0164	13.953199	-0.000004	-0.042753	-0.007243	-0.000086
 804	4.0150e-01	8.0255	14.002803	0.000496	4.959318	0.840131	0.009921
 805	4.0200e-01	8.0350	14.031454	0.000286	2.864434	0.485248	0.005730
 806	4.0250e-01	8.0457	14.049415	0.000180	1.795615	0.304185	0.003592
 807	4.0300e-01	8.0576	14.118262	0.000688	6.883191	1.166044	0.013770
 808	4.0350e-01	8.0652	14.145630	0.000274	2.736175	0.463521	0.005474
 809	4.0400e-01	8.0786	14.161452	0.000158	1.581851	0.267973	0.003164
 810	4.0450e-01	8.0853	14.201649	0.000402	4.018758	0.680796	0.008039
 811	4.0500e-01	8.0957	14.223030	0.000214	2.137637	0.362126	0.004276
 812	4.0550e-01	8.1055	14.268786	0.000457	4.574543	0.774949	0.009151
 813	4.0600e-01	8.1152	14.303424	0.000346	3.462972	0.586643	0.006928
 814	4.0650e-01	8.1274	14.329509	0.000261	2.607917	0.441793	0.005217
 815	4.0700e-01	8.1366	14.359015	0.000295	2.949939	0.499733	0.005901
 816	4.0750e-01	8.1458	14.408192	0.000492	4.916565	0.832889	0.009835
 817	4.0800e-01	8.1581	14.424014	0.000158	1.581851	0.267973	0.003164
 818	4.0850e-01	8.1665	14.463356	0.000393	3.933252	0.666311	0.007868
 819	4.0900e-01	8.1769	14.499276	0.000359	3.591230	0.608371	0.007184
 820	4.0950e-01	8.1854	14.507829	0.000086	0.855055	0.144850	0.001711
 821	4.1000e-01	8.1992	14.551447	0.000436	4.360780	0.738736	0.008724
 822	4.1050e-01	8.2056	14.583519	0.000321	3.206456	0.543188	0.006414
 823	4.1100e-01	8.2159	14.626281	0.000428	4.275274	0.724251	0.008553
 824	4.1150e-01	8.2257	14.660063	0.000338	3.377467	0.572158	0.006756
 825	4.1200e-01	8.2381	14.669044	0.000090	0.897808	0.152093	0.001796
 826	4.1250e-01	8.2471	14.716510	0.000475	4.745554	0.803919	0.009493
 827	4.1300e-01	8.2574	14.770391	0.000539	5.386846	0.912556	0.010776
 828	4.1350e-01	8.2635	14.773384	0.000030	0.299269	0.050698	0.000599
 829	4.1400e-01	8.2788	14.836245	0.000628	6.284653	1.064649	0.012572
 830	4.1450e-01	8.2867	14.834962	-0.000013	-0.128258	-0.021728	-0.000257
 831	4.1500e-01	8.2996	14.862758	0.000278	2.778928	0.470763	0.005559
 832	4.1550e-01	8.3066	14.920915	0.000581	5.814373	0.984981	0.011631
 833	4.1600e-01	8.3160	14.935882	0.000150	1.496346	0.253488	0.002993
 834	4.1650e-01	8.3276	14.992328	0.000564	5.643362	0.956011	0.011289
 835	4.1700e-01	8.3356	15.015420	0.000231	2.308648	0.391096	0.004618
 836	4.1750e-01	8.3472	15.062886	0.000475	4.745554	0.803919	0.009493
 837	4.1800e-01	8.3575	15.058183	-0.000047	-0.470280	-0.079668	-0.000941
 838	4.1850e-01	8.3679	15.116767	0.000586	5.857126	0.992224	0.011717
 839	4.1900e-01	8.3777	15.155254	0.000385	3.847747	0.651826	0.007697
 840	4.1950e-01	8.3862	15.154826	-0.000004	-0.042753	-0.007243	-0.000086
 841	4.2000e-01	8.3951	15.211700	0.000569	5.686115	0.963254	0.011375
 842	4.2050e-01	8.4088	15.232226	0.000205	2.052132	0.347641	0.004105
 843	4.2100e-01	8.4192	15.271995	0.000398	3.976005	0.673553	0.007954
 844	4.2150e-01	8.4302	15.301501	0.000295	2.949939	0.499733	0.005901
 845	4.2200e-01	8.4375	15.315613	0.000141	1.410840	0.239003	0.002822
 846	4.2250e-01	8.4473	15.370349	0.000547	5.472351	0.927041	0.010947
 847	4.2300e-01	8.4576	15.393868	0.000235	2.351401	0.398338	0.004704
 848	4.2350e-01	8.4650	15.407125	0.000133	1.325335	0.224518	0.002651
 849	4.2400e-01	8.4766	15.455874	0.000487	4.873813	0.825646	0.009750
 850	4.2450e-01	8.4888	15.484525	0.000286	2.864434	0.485248	0.005730
 851	4.2500e-01	8.4999	15.529853	0.000453	4.531791	0.767706	0.009066
 852	4.2550e-01	8.5068	15.544820	0.000150	1.496346	0.253488	0.002993
 853	4.2600e-01	8.5187	15.576037	0.000312	3.120950	0.528703	0.006243
 854	4.2650e-01	8.5272	15.634621	0.000586	5.857126	0.992224	0.011717
 855	4.2700e-01	8.5364	15.645740	0.000111	1.111571	0.188305	0.002224
 856	4.2750e-01	8.5461	15.688075	0.000423	4.232521	0.717009	0.008467
 857	4.2800e-01	8.5541	15.695772	0.000077	0.769549	0.130365	0.001539
 858	4.2850e-01	8.5681	15.727416	0.000316	3.163703	0.535946	0.006329
 859	4.2900e-01	8.5773	15.776593	0.000492	4.916565	0.832889	0.009835
 860	4.2950e-01	8.5876	15.799685	0.000231	2.308648	0.391096	0.004618
 861	4.3000e-01	8.5968	15.830901	0.000312	3.120950	0.528703	0.006243
 862	4.3050e-01	8.6041	15.862973	0.000321	3.206456	0.543188	0.006414
 863	4.3100e-01	8.6197	15.903170	0.000402	4.018758	0.680796	0.008039
 864	4.3150e-01	8.6285	15.922841	0.000197	1.966626	0.333155	0.003934
 865	4.3200e-01	8.6359	15.960900	0.000380	3.804994	0.644583	0.007612
 866	4.3250e-01	8.6453	16.014353	0.000534	5.344093	0.905314	0.010691
 867	4.3300e-01	8.6566	16.021195	0.000068	0.684044	0.115880	0.001368
 868	4.3350e-01	8.6694	16.081062	0.000599	5.985384	1.013951	0.011974
 869	4.3400e-01	8.6792	16.092181	0.000111	1.111571	0.188305	0.002224
 870	4.3450e-01	8.6847	16.127246	0.000351	3.505725	0.593886	0.007013
 871	4.3500e-01	8.6963	16.144351	0.000171	1.710110	0.289700	0.003421
 872	4.3550e-01	8.7079	16.172574	0.000282	2.821681	0.478006	0.005645
 873	4.3600e-01	8.7158	16.208067	0.000355	3.548478	0.601128	0.007099
 874	4.3650e-01	8.7244	16.260237	0.000522	5.215835	0.883586	0.010434
 875	4.3700e-01	8.7372	16.273921	0.000137	1.368088	0.231760	0.002737
 876	4.3750e-01	8.7451	16.329513	0.000556	5.557856	0.941526	0.011118
 877	4.3800e-01	8.7561	16.363723	0.000342	3.420219	0.579401	0.006842
 878	4.3850e-01	8.7689	16.373986	0.000103	1.026066	0.173820	0.002053
 879	4.3900e-01	8.7750	16.410761	0.000368	3.676736	0.622856	0.007355
 880	4.3950e-01	8.7872	16.447110	0.000363	3.633983	0.615613	0.007270
 881	4.4000e-01	8.7982	16.474478	0.000274	2.736175	0.463521	0.005474
 882	4.4050e-01	8.8092	16.508688	0.000342	3.420219	0.579401	0.006842
 883	4.4100e-01	8.8159	16.534345	0.000257	2.565165	0.434551	0.005132
 884	4.4150e-01	8.8281	16.559147	0.000248	2.479659	0.420066	0.004960
 885	4.4200e-01	8.8358	16.593357	0.000342	3.420219	0.579401	0.006842
 886	4.4250e-01	8.8458	16.633982	0.000406	4.061511	0.688039	0.008125
 887	4.4300e-01	8.8580	16.660922	0.000269	2.693423	0.456278	0.005388
 888	4.4350e-01	8.8696	16.691284	0.000304	3.035445	0.514218	0.006072
 889	4.4400e-01	8.8782	16.731053	0.000398	3.976005	0.673553	0.007954
 890	4.4450e-01	8.8879	16.761842	0.000308	3.078197	0.521461	0.006158
 891	4.4500e-01	8.8947	16.769539	0.000077	0.769549	0.130365	0.001539
 892	4.4550e-01	8.9075	16.823847	0.000543	5.429598	0.919799	0.010862
 893	4.4600e-01	8.9166	16.854636	0.000308	3.078197	0.521461	0.006158
 894	4.4650e-01	8.9270	16.864899	0.000103	1.026066	0.173820	0.002053
 895	4.4700e-01	8.9380	16.908945	0.000440	4.403532	0.745979	0.008809
 896	4.4750e-01	8.9453	16.933747	0.000248	2.479659	0.420066	0.004960
 897	4.4800e-01	8.9569	16.972661	0.000389	3.890500	0.659068	0.007783
 898	4.4850e-01	8.9673	17.001312	0.000286	2.864434	0.485248	0.005730
 899	4.4900e-01	8.9807	17.024831	0.000235	2.351401	0.398338	0.004704
 900	4.4950e-01	8.9886	17.060324	0.000355	3.548478	0.601128	0.007099
 901	4.5000e-01	8.9996	17.113777	0.000534	5.344093	0.905314	0.010691
 902	4.5050e-01	9.0054	17.150125	0.000363	3.633983	0.615613	0.007270
 903	4.5100e-01	9.0198	17.168513	0.000184	1.838368	0.311428	0.003678
 904	4.5150e-01	9.0265	17.181770	0.000133	1.325335	0.224518	0.002651
 905	4.5200e-01	9.0405	17.228381	0.000466	4.660049	0.789434	0.009322
 906	4.5250e-01	9.0494	17.246341	0.000180	1.795615	0.304185	0.003592
 907	4.5300e-01	9.0576	17.283117	0.000368	3.676736	0.622856	0.007355
 908	4.5350e-01	9.0668	17.326307	0.000432	4.318027	0.731494	0.008638
 909	4.5400e-01	9.0778	17.366076	0.000398	3.976005	0.673553	0.007954
 910	4.5450e-01	9.0881	17.377194	0.000111	1.111571	0.188305	0.002224
 911	4.5500e-01	9.0955	17.408839	0.000316	3.163703	0.535946	0.006329
 912	4.5550e-01	9.1058	17.425944	0.000171	1.710110	0.289700	0.003421
 913	4.5600e-01	9.1156	17.470844	0.000449	4.489038	0.760464	0.008980
 914	4.5650e-01	9.1266	17.517028	0.000462	4.617296	0.782191	0.009237
 915	4.5700e-01	9.1376	17.549955	0.000329	3.291961	0.557673	0.006585
 916	4.5750e-01	9.1479	17.566205	0.000162	1.624604	0.275215	0.003250
 917	4.5800e-01	9.1583	17.618375	0.000522	5.215835	0.883586	0.010434
 918	4.5850e-01	9.1650	17.623934	0.000056	0.555786	0.094153	0.001112
 919	4.5900e-01	9.1760	17.671401	0.000475	4.745554	0.803919	0.009493
 920	4.5950e-01	9.1846	17.691499	0.000201	2.009379	0.340398	0.004020
 921	4.6000e-01	9.1968	17.728275	0.000368	3.676736	0.622856	0.007355
 922	4.6050e-01	9.2072	17.760774	0.000325	3.249208	0.550431	0.006500
 923	4.6100e-01	9.2188	17.790280	0.000295	2.949939	0.499733	0.005901
 924	4.6150e-01	9.2267	17.815083	0.000248	2.479659	0.420066	0.004960
 925	4.6200e-01	9.2374	17.845872	0.000308	3.078197	0.521461	0.006158
 926	4.6250e-01	9.2474	17.873240	0.000274	2.736175	0.463521	0.005474
 927	4.6300e-01	9.2566	17.915575	0.000423	4.232521	0.717009	0.008467
 928	4.6350e-01	9.2664	17.957482	0.000419	4.189769	0.709766	0.008381
 929	4.6400e-01	9.2761	17.963469	0.000060	0.598538	0.101395	0.001197
 930	4.6450e-01	9.2865	18.020771	0.000573	5.728867	0.970496	0.011460
 931	4.6500e-01	9.2944	18.034882	0.000141	1.410840	0.239003	0.002822
 932	4.6550e-01	9.3063	18.060540	0.000257	2.565165	0.434551	0.005132
 933	4.6600e-01	9.3164	18.098171	0.000376	3.762241	0.637341	0.007526
 934	4.6650e-01	9.3243	18.134519	0.000363	3.633983	0.615613	0.007270
 935	4.6700e-01	9.3378	18.159749	0.000252	2.522412	0.427308	0.005046
 936	4.6750e-01	9.3463	18.179419	0.000197	1.966626	0.333155	0.003934
 937	4.6800e-01	9.3549	18.223037	0.000436	4.360780	0.738736	0.008724
 938	4.6850e-01	9.3649	18.255964	0.000329	3.291961	0.557673	0.006585
 939	4.6900e-01	9.3762	18.276490	0.000205	2.052132	0.347641	0.004105
 940	4.6950e-01	9.3860	18.323529	0.000470	4.702802	0.796676	0.009408
 941	4.7000e-01	9.3970	18.332937	0.000094	0.940560	0.159335	0.001882
 942	4.7050e-01	9.4055	18.393232	0.000603	6.028137	1.021194	0.012059
 943	4.7100e-01	9.4177	18.410337	0.000171	1.710110	0.289700	0.003421
 944	4.7150e-01	9.4244	18.445830	0.000355	3.548478	0.601128	0.007099
 945	4.7200e-01	9.4373	18.480040	0.000342	3.420219	0.579401	0.006842
 946	4.7250e-01	9.4446	18.527506	0.000475	4.745554	0.803919	0.009493
 947	4.7300e-01	9.4556	18.546322	0.000188	1.881121	0.318670	0.003763
 948	4.7350e-01	9.4681	18.569841	0.000235	2.351401	0.398338	0.004704
 949	4.7400e-01	9.4763	18.599775	0.000299	2.992692	0.506976	0.005987
 950	4.7450e-01	9.4864	18.636979	0.000372	3.719489	0.630098	0.007441
 951	4.7500e-01	9.4971	18.669050	0.000321	3.206456	0.543188	0.006414
 952	4.7550e-01	9.5050	18.697701	0.000286	2.864434	0.485248	0.005730
 953	4.7600e-01	9.5160	18.711385	0.000137	1.368088	0.231760	0.002737
 954	4.7650e-01	9.5251	18.755858	0.000445	4.446285	0.753221	0.008895
 955	4.7700e-01	9.5355	18.784082	0.000282	2.821681	0.478006	0.005645
 956	4.7750e-01	9.5471	18.849081	0.000650	6.498417	1.100862	0.013000
 957	4.7800e-01	9.5563	18.851219	0.000021	0.213764	0.036213	0.000428
 958	4.7850e-01	9.5618	18.903817	0.000526	5.258587	0.890829	0.010520
 959	4.7900e-01	9.5776	18.916218	0.000124	1.239830	0.210033	0.002480
 960	4.7950e-01	9.5880	18.929474	0.000133	1.325335	0.224518	0.002651
 961	4.8000e-01	9.5956	18.991908	0.000624	6.241900	1.057407	0.012487
 962	4.8050e-01	9.6045	19.016282	0.000244	2.436906	0.412823	0.004875
 963	4.8100e-01	9.6136	19.032104	0.000158	1.581851	0.267973	0.003164
 964	4.8150e-01	9.6259	19.075294	0.000432	4.318027	0.731494	0.008638
 965	4.8200e-01	9.6362	19.097959	0.000227	2.265895	0.383853	0.004533
 966	4.8250e-01	9.6460	19.139011	0.000410	4.104263	0.695281	0.008210
 967	4.8300e-01	9.6545	19.171510	0.000325	3.249208	0.550431	0.006500
 968	4.8350e-01	9.6674	19.204010	0.000325	3.249208	0.550431	0.006500
 969	4.8400e-01	9.6771	19.221115	0.000171	1.710110	0.289700	0.003421
 970	4.8450e-01	9.6841	19.257890	0.000368	3.676736	0.622856	0.007355
 971	4.8500e-01	9.6960	19.291673	0.000338	3.377467	0.572158	0.006756
 972	4.8550e-01	9.7084	19.301936	0.000103	1.026066	0.173820	0.002053
 973	4.8600e-01	9.7168	19.358810	0.000569	5.686115	0.963254	0.011375
 974	4.8650e-01	9.7238	19.396013	0.000372	3.719489	0.630098	0.007441
 975	4.8700e-01	9.7351	19.420388	0.000244	2.436906	0.412823	0.004875
 976	4.8750e-01	9.7461	19.431079	0.000107	1.068819	0.181063	0.002138
 977	4.8800e-01	9.7559	19.468710	0.000376	3.762241	0.637341	0.007526
 978	4.8850e-01	9.7668	19.508051	0.000393	3.933252	0.666311	0.007868
 979	4.8900e-01	9.7809	19.543116	0.000351	3.505725	0.593886	0.007013
 980	4.8950e-01	9.7876	19.576044	0.000329	3.291961	0.557673	0.006585
 981	4.9000e-01	9.7955	19.603412	0.000274	2.736175	0.463521	0.005474
 982	4.9050e-01	9.8077	19.640615	0.000372	3.719489	0.630098	0.007441
 983	4.9100e-01	9.8169	19.673970	0.000333	3.334714	0.564916	0.006671
 984	4.9150e-01	9.8248	19.705186	0.000312	3.120950	0.528703	0.006243
 985	4.9200e-01	9.8370	19.710318	0.000051	0.513033	0.086910	0.001026
 986	4.9250e-01	9.8462	19.765909	0.000556	5.557856	0.941526	0.011118
 987	4.9300e-01	9.8569	19.789856	0.000239	2.394154	0.405581	0.004789
 988	4.9350e-01	9.8669	19.816797	0.000269	2.693423	0.456278	0.005388
 989	4.9400e-01	9.8761	19.867256	0.000504	5.044824	0.854616	0.010092
 990	4.9450e-01	9.8859	19.894197	0.000269	2.693423	0.456278	0.005388
 991	4.9500e-01	9.8993	19.915578	0.000214	2.137637	0.362126	0.004276
 992	4.9550e-01	9.9045	19.959196	0.000436	4.360780	0.738736	0.008724
 993	4.9600e-01	9.9176	19.966466	0.000073	0.726797	0.123123	0.001454
 994	4.9650e-01	9.9261	20.013504	0.000470	4.702802	0.796676	0.009408
 995	4.9700e-01	9.9377	20.038734	0.000252	2.522412	0.427308	0.005046
 996	4.9750e-01	9.9454	20.069096	0.000304	3.035445	0.514218	0.006072
 997	4.9800e-01	9.9573	20.091332	0.000222	2.223143	0.376611	0.004447
 998	4.9850e-01	9.9670	20.141792	0.000504	5.044824	0.854616	0.010092
 999	4.9900e-01	9.9762	20.171726	0.000299	2.992692	0.506976	0.005987
1000	4.9950e-01	9.9860	20.205936	0.000342	3.420219	0.579401	0.006842
1001	5.0000e-01	9.9982	20.239718	0.000338	3.377467	0.572158	0.006756
1002	5.0050e-01	9.9854	20.198666	0.000410	4.104263	0.695281	-0.008210
1003	5.0100e-01	9.9744	20.149062	0.000496	4.959318	0.840131	-0.009921
1004	5.0150e-01	9.9646	20.137516	0.000115	1.154324	0.195548	-0.002309
1005	5.0200e-01	9.9554	20.109720	0.000278	2.778928	0.470763	-0.005559
1006	5.0250e-01	9.9469	20.121266	-0.000115	-1.154324	-0.195548	0.002309
1007	5.0300e-01	9.9347	20.088766	0.000325	3.249208	0.550431	-0.006500
1008	5.0350e-01	9.9255	20.034030	0.000547	5.472351	0.927041	-0.010947
1009	5.0400e-01	9.9133	20.028899	0.000051	0.513033	0.086910	-0.001026
1010	5.0450e-01	9.9060	20.001103	0.000278	2.778928	0.470763	-0.005559
1011	5.0500e-01	9.8962	19.969459	0.000316	3.163703	0.535946	-0.006329
1012	5.0550e-01	9.8883	19.969459	-0.000000	-0.000000	-0.000000	0.000000
1013	5.0600e-01	9.8749	19.936532	0.000329	3.291961	0.557673	-0.006585
1014	5.0650e-01	9.8639	19.931400	0.000051	0.513033	0.086910	-0.001026
1015	5.0700e-01	9.8541	19.912157	0.000192	1.923873	0.325913	-0.003849
1016	5.0750e-01	9.8468	19.863408	0.000487	4.873813	0.825646	-0.009750
1017	5.0800e-01	9.8358	19.840316	0.000231	2.308648	0.391096	-0.004618
1018	5.0850e-01	9.8267	19.829625	0.000107	1.068819	0.181063	-0.002138
1019	5.0900e-01	9.8132	19.818935	0.000107	1.068819	0.181063	-0.002138
1020	5.0950e-01	9.8041	19.779593	0.000393	3.933252	0.666311	-0.007868
1021	5.1000e-01	9.7928	19.763771	0.000158	1.581851	0.267973	-0.003164
1022	5.1050e-01	9.7839	19.740252	0.000235	2.351401	0.398338	-0.004704
1023	5.1100e-01	9.7742	19.703904	0.000363	3.633983	0.615613	-0.007270
1024	5.1150e-01	9.7644	19.691075	0.000128	1.282582	0.217275	-0.002566
1025	5.1200e-01	9.7571	19.649595	0.000415	4.147016	0.702524	-0.008296
1026	5.1250e-01	9.7455	19.622655	0.000269	2.693423	0.456278	-0.005388
1027	5.1300e-01	9.7363	19.611964	0.000107	1.068819	0.181063	-0.002138
1028	5.1350e-01	9.7241	19.591866	0.000201	2.009379	0.340398	-0.004020
1029	5.1400e-01	9.7156	19.555090	0.000368	3.676736	0.622856	-0.007355
1030	5.1450e-01	9.7046	19.540978	0.000141	1.410840	0.239003	-0.002822
1031	5.1500e-01	9.6942	19.513183	0.000278	2.778928	0.470763	-0.005559
1032	5.1550e-01	9.6838	19.486242	0.000269	2.693423	0.456278	-0.005388
1033	5.1600e-01	9.6771	19.447328	0.000389	3.890500	0.659068	-0.007783
1034	5.1650e-01	9.6634	19.453315	-0.000060	-0.598538	-0.101395	0.001197
1035	5.1700e-01	9.6533	19.431506	0.000218	2.180390	0.369368	-0.004362
1036	5.1750e-01	9.6454	19.401573	0.000299	2.992692	0.506976	-0.005987
1037	5.1800e-01	9.6362	19.385323	0.000162	1.624604	0.275215	-0.003250
1038	5.1850e-01	9.6252	19.345981	0.000393	3.933252	0.666311	-0.007868
1039	5.1900e-01	9.6130	19.328876	0.000171	1.710110	0.289700	-0.003421
1040	5.1950e-01	9.6048	19.283976	0.000449	4.489038	0.760464	-0.008980
1041	5.2000e-01	9.5956	19.272857	0.000111	1.111571	0.188305	-0.002224
1042	5.2050e-01	9.5856	19.250193	0.000227	2.265895	0.383853	-0.004533
1043	5.2100e-01	9.5752	19.210424	0.000398	3.976005	0.673553	-0.007954
1044	5.2150e-01	9.5679	19.197168	0.000133	1.325335	0.224518	-0.002651
1045	5.2200e-01	9.5551	19.172365	0.000248	2.479659	0.420066	-0.004960
1046	5.2250e-01	9.5459	19.156971	0.000154	1.539099	0.260730	-0.003079
1047	5.2300e-01	9.5343	19.113353	0.000436	4.360780	0.738736	-0.008724
1048	5.2350e-01	9.5264	19.110360	0.000030	0.299269	0.050698	-0.000599
1049	5.2400e-01	9.5166	19.064176	0.000462	4.617296	0.782191	-0.009237
1050	5.2450e-01	9.5056	19.020558	0.000436	4.360780	0.738736	-0.008724
1051	5.2500e-01	9.4940	19.011151	0.000094	0.940560	0.159335	-0.001882
1052	5.2550e-01	9.4843	18.985066	0.000261	2.607917	0.441793	-0.005217
1053	5.2600e-01	9.4757	18.970099	0.000150	1.496346	0.253488	-0.002993
1054	5.2650e-01	9.4666	18.956842	0.000133	1.325335	0.224518	-0.002651
1055	5.2700e-01	9.4556	18.942303	0.000145	1.453593	0.246245	-0.002908
1056	5.2750e-01	9.4458	18.885856	0.000564	5.643362	0.956011	-0.011289
1057	5.2800e-01	9.4342	18.887139	-0.000013	-0.128258	-0.021728	0.000257
1058	5.2850e-01	9.4232	18.844804	0.000423	4.232521	0.717009	-0.008467
1059	5.2900e-01	9.4165	18.814871	0.000299	2.992692	0.506976	-0.005987
1060	5.2950e-01	9.4055	18.794772	0.000201	2.009379	0.340398	-0.004020
1061	5.3000e-01	9.3958	18.768259	0.000265	2.650670	0.449036	-0.005303
1062	5.3050e-01	9.3829	18.733622	0.000346	3.462972	0.586643	-0.006928
1063	5.3100e-01	9.3787	18.719510	0.000141	1.410840	0.239003	-0.002822
1064	5.3150e-01	9.3640	18.698984	0.000205	2.052132	0.347641	-0.004105
1065	5.3200e-01	9.3579	18.660498	0.000385	3.847747	0.651826	-0.007697
1066	5.3250e-01	9.3420	18.652373	0.000081	0.812302	0.137608	-0.001625
1067	5.3300e-01	9.3378	18.600203	0.000522	5.215835	0.883586	-0.010434
1068	5.3350e-01	9.3237	18.589940	0.000103	1.026066	0.173820	-0.002053
1069	5.3400e-01	9.3146	18.567703	0.000222	2.223143	0.376611	-0.004447
1070	5.3450e-01	9.3079	18.535631	0.000321	3.206456	0.543188	-0.006414
1071	5.3500e-01	9.2957	18.506553	0.000291	2.907186	0.492491	-0.005816
1072	5.3550e-01	9.2816	18.483461	0.000231	2.308648	0.391096	-0.004618
1073	5.3600e-01	9.2737	18.464218	0.000192	1.923873	0.325913	-0.003849
1074	5.3650e-01	9.2651	18.444547	0.000197	1.966626	0.333155	-0.003934
1075	5.3700e-01	9.2560	18.390666	0.000539	5.386846	0.912556	-0.010776
1076	5.3750e-01	9.2438	18.385107	0.000056	0.555786	0.094153	-0.001112
1077	5.3800e-01	9.2365	18.332082	0.000530	5.301340	0.898071	-0.010605
1078	5.3850e-01	9.2273	18.322246	0.000098	0.983313	0.166578	-0.001967
1079	5.3900e-01	9.2188	18.301720	0.000205	2.052132	0.347641	-0.004105
1080	5.3950e-01	9.2059	18.287609	0.000141	1.410840	0.239003	-0.002822
1081	5.4000e-01	9.1980	18.240998	0.000466	4.660049	0.789434	-0.009322
1082	5.4050e-01	9.1846	18.214057	0.000269	2.693423	0.456278	-0.005388
1083	5.4100e-01	9.1754	18.163597	0.000504	5.044824	0.854616	-0.010092
1084	5.4150e-01	9.1638	18.196524	-0.000329	-3.291961	-0.557673	0.006585
1085	5.4200e-01	9.1547	18.138367	0.000581	5.814373	0.984981	-0.011631
1086	5.4250e-01	9.1455	18.100309	0.000380	3.804994	0.644583	-0.007612
1087	5.4300e-01	9.1357	18.098598	0.000017	0.171011	0.028970	-0.000342
1088	5.4350e-01	9.1275	18.058829	0.000398	3.976005	0.673553	-0.007954
1089	5.4400e-01	9.1162	18.041297	0.000175	1.752862	0.296943	-0.003507
1090	5.4450e-01	9.1040	18.015639	0.000257	2.565165	0.434551	-0.005132
1091	5.4500e-01	9.0958	17.975442	0.000402	4.018758	0.680796	-0.008039
1092	5.4550e-01	9.0857	17.953206	0.000222	2.223143	0.376611	-0.004447
1093	5.4600e-01	9.0753	17.920279	0.000329	3.291961	0.557673	-0.006585
1094	5.4650e-01	9.0637	17.885641	0.000346	3.462972	0.586643	-0.006928
1095	5.4700e-01	9.0546	17.867681	0.000180	1.795615	0.304185	-0.003592
1096	5.4750e-01	9.0469	17.833043	0.000346	3.462972	0.586643	-0.006928
1097	5.4800e-01	9.0363	17.816793	0.000162	1.624604	0.275215	-0.003250
1098	5.4850e-01	9.0271	17.796267	0.000205	2.052132	0.347641	-0.004105
1099	5.4900e-01	9.0161	17.772748	0.000235	2.351401	0.398338	-0.004704
1100	5.4950e-01	9.0051	17.725281	0.000475	4.745554	0.803919	-0.009493
1101	5.5000e-01	8.9941	17.688078	0.000372	3.719489	0.630098	-0.007441
1102	5.5050e-01	8.9850	17.694065	-0.000060	-0.598538	-0.101395	0.001197
1103	5.5100e-01	8.9764	17.662421	0.000316	3.163703	0.535946	-0.006329
1104	5.5150e-01	8.9679	17.633770	0.000286	2.864434	0.485248	-0.005730
1105	5.5200e-01	8.9545	17.607684	0.000261	2.607917	0.441793	-0.005217
1106	5.5250e-01	8.9441	17.561073	0.000466	4.660049	0.789434	-0.009322
1107	5.5300e-01	8.9365	17.549527	0.000115	1.154324	0.195548	-0.002309
1108	5.5350e-01	8.9270	17.516600	0.000329	3.291961	0.557673	-0.006585
1109	5.5400e-01	8.9154	17.494791	0.000218	2.180390	0.369368	-0.004362
1110	5.5450e-01	8.9044	17.449463	0.000453	4.531791	0.767706	-0.009066
1111	5.5500e-01	8.8959	17.439628	0.000098	0.983313	0.166578	-0.001967
1112	5.5550e-01	8.8867	17.399859	0.000398	3.976005	0.673553	-0.007954
1113	5.5600e-01	8.8751	17.386175	0.000137	1.368088	0.231760	-0.002737
1114	5.5650e-01	8.8660	17.364793	0.000214	2.137637	0.362126	-0.004276
1115	5.5700e-01	8.8568	17.327162	0.000376	3.762241	0.637341	-0.007526
1116	5.5750e-01	8.8458	17.287821	0.000393	3.933252	0.666311	-0.007868
1117	5.5800e-01	8.8379	17.278841	0.000090	0.897808	0.152093	-0.001796
1118	5.5850e-01	8.8251	17.253611	0.000252	2.522412	0.427308	-0.005046
1119	5.5900e-01	8.8129	17.245058	0.000086	0.855055	0.144850	-0.001711
1120	5.5950e-01	8.8049	17.187756	0.000573	5.728867	0.970496	-0.011460
1121	5.6000e-01	8.7946	17.163809	0.000239	2.394154	0.405581	-0.004789
1122	5.6050e-01	8.7866	17.135159	0.000286	2.864434	0.485248	-0.005730
1123	5.6100e-01	8.7762	17.100521	0.000346	3.462972	0.586643	-0.006928
1124	5.6150e-01	8.7659	17.080850	0.000197	1.966626	0.333155	-0.003934
1125	5.6200e-01	8.7573	17.056476	0.000244	2.436906	0.412823	-0.004875
1126	5.6250e-01	8.7460	17.030390	0.000261	2.607917	0.441793	-0.005217
1127	5.6300e-01	8.7381	16.999601	0.000308	3.078197	0.521461	-0.006158
1128	5.6350e-01	8.7280	16.965391	0.000342	3.420219	0.579401	-0.006842
1129	5.6400e-01	8.7161	16.949569	0.000158	1.581851	0.267973	-0.003164
1130	5.6450e-01	8.7054	16.911511	0.000380	3.804994	0.644583	-0.007612
1131	5.6500e-01	8.6978	16.879011	0.000325	3.249208	0.550431	-0.006500
1132	5.6550e-01	8.6877	16.851215	0.000278	2.778928	0.470763	-0.005559
1133	5.6600e-01	8.6745	16.828979	0.000222	2.223143	0.376611	-0.004447
1134	5.6650e-01	8.6670	16.822137	0.000068	0.684044	0.115880	-0.001368
1135	5.6700e-01	8.6554	16.775098	0.000470	4.702802	0.796676	-0.009408
1136	5.6750e-01	8.6450	16.757565	0.000175	1.752862	0.296943	-0.003507
1137	5.6800e-01	8.6371	16.705395	0.000522	5.215835	0.883586	-0.010434
1138	5.6850e-01	8.6267	16.691711	0.000137	1.368088	0.231760	-0.002737
1139	5.6900e-01	8.6188	16.665198	0.000265	2.650670	0.449036	-0.005303
1140	5.6950e-01	8.6072	16.617304	0.000479	4.788307	0.811161	-0.009579
1141	5.7000e-01	8.5962	16.595923	0.000214	2.137637	0.362126	-0.004276
1142	5.7050e-01	8.5852	16.568127	0.000278	2.778928	0.470763	-0.005559
1143	5.7100e-01	8.5754	16.547174	0.000209	2.094884	0.354883	-0.004191
1144	5.7150e-01	8.5663	16.510398	0.000368	3.676736	0.622856	-0.007355
1145	5.7200e-01	8.5571	16.483458	0.000269	2.693423	0.456278	-0.005388
1146	5.7250e-01	8.5449	16.472767	0.000107	1.068819	0.181063	-0.002138
1147	5.7300e-01	8.5370	16.428722	0.000440	4.403532	0.745979	-0.008809
1148	5.7350e-01	8.5254	16.406057	0.000227	2.265895	0.383853	-0.004533
1149	5.7400e-01	8.5132	16.362867	0.000432	4.318027	0.731494	-0.008638
1150	5.7450e-01	8.5046	16.341914	0.000209	2.094884	0.354883	-0.004191
1151	5.7500e-01	8.4952	16.318394	0.000235	2.351401	0.398338	-0.004704
1152	5.7550e-01	8.4863	16.288033	0.000304	3.035445	0.514218	-0.006072
1153	5.7600e-01	8.4778	16.256816	0.000312	3.120950	0.528703	-0.006243
1154	5.7650e-01	8.4665	16.220040	0.000368	3.676736	0.622856	-0.007355
1155	5.7700e-01	8.4564	16.211060	0.000090	0.897808	0.152093	-0.001796
1156	5.7750e-01	8.4467	16.165304	0.000457	4.574543	0.774949	-0.009151
1157	5.7800e-01	8.4357	16.161028	0.000043	0.427527	0.072425	-0.000855
1158	5.7850e-01	8.4259	16.113562	0.000475	4.745554	0.803919	-0.009493
1159	5.7900e-01	8.4167	16.097740	0.000158	1.581851	0.267973	-0.003164
1160	5.7950e-01	8.4070	16.054549	0.000432	4.318027	0.731494	-0.008638
1161	5.8000e-01	8.3966	16.034023	0.000205	2.052132	0.347641	-0.004105
1162	5.8050e-01	8.3862	16.007083	0.000269	2.693423	0.456278	-0.005388
1163	5.8100e-01	8.3789	15.969024	0.000380	3.804994	0.644583	-0.007612
1164	5.8150e-01	8.3655	15.945933	0.000231	2.308648	0.391096	-0.004618
1165	5.8200e-01	8.3582	15.941656	0.000043	0.427527	0.072425	-0.000855
1166	5.8250e-01	8.3441	15.894618	0.000470	4.702802	0.796676	-0.009408
1167	5.8300e-01	8.3337	15.877513	0.000171	1.710110	0.289700	-0.003421
1168	5.8350e-01	8.3270	15.827480	0.000500	5.002071	0.847374	-0.010006
1169	5.8400e-01	8.3176	15.800540	0.000269	2.693423	0.456278	-0.005388
1170	5.8450e-01	8.3051	15.785146	0.000154	1.539099	0.260730	-0.003079
1171	5.8500e-01	8.2968	15.743666	0.000415	4.147016	0.702524	-0.008296
1172	5.8550e-01	8.2880	15.703469	0.000402	4.018758	0.680796	-0.008039
1173	5.8600e-01	8.2758	15.688930	0.000145	1.453593	0.246245	-0.002908
1174	5.8650e-01	8.2666	15.665410	0.000235	2.351401	0.398338	-0.004704
1175	5.8700e-01	8.2556	15.638042	0.000274	2.736175	0.463521	-0.005474
1176	5.8750e-01	8.2446	15.614951	0.000231	2.308648	0.391096	-0.004618
1177	5.8800e-01	8.2355	15.567484	0.000475	4.745554	0.803919	-0.009493
1178	5.8850e-01	8.2239	15.556366	0.000111	1.111571	0.188305	-0.002224
1179	5.8900e-01	8.2144	15.507189	0.000492	4.916565	0.832889	-0.009835
1180	5.8950e-01	8.2068	15.464854	0.000423	4.232521	0.717009	-0.008467
1181	5.9000e-01	8.1964	15.440907	0.000239	2.394154	0.405581	-0.004789
1182	5.9050e-01	8.1836	15.439624	0.000013	0.128258	0.021728	-0.000257
1183	5.9100e-01	8.1775	15.398145	0.000415	4.147016	0.702524	-0.008296
1184	5.9150e-01	8.1636	15.377619	0.000205	2.052132	0.347641	-0.004105
1185	5.9200e-01	8.1561	15.347685	0.000299	2.992692	0.506976	-0.005987
1186	5.9250e-01	8.1451	15.317751	0.000299	2.992692	0.506976	-0.005987
1187	5.9300e-01	8.1354	15.294659	0.000231	2.308648	0.391096	-0.004618
1188	5.9350e-01	8.1250	15.255318	0.000393	3.933252	0.666311	-0.007868
1189	5.9400e-01	8.1146	15.218970	0.000363	3.633983	0.615613	-0.007270
1190	5.9450e-01	8.1064	15.203575	0.000154	1.539099	0.260730	-0.003079
1191	5.9500e-01	8.0957	15.164234	0.000393	3.933252	0.666311	-0.007868
1192	5.9550e-01	8.0859	15.142852	0.000214	2.137637	0.362126	-0.004276
1193	5.9600e-01	8.0756	15.102228	0.000406	4.061511	0.688039	-0.008125
1194	5.9650e-01	8.0658	15.077853	0.000244	2.436906	0.412823	-0.004875
1195	5.9700e-01	8.0548	15.054334	0.000235	2.351401	0.398338	-0.004704
1196	5.9750e-01	8.0450	15.012427	0.000419	4.189769	0.709766	-0.008381
1197	5.9800e-01	8.0359	15.003019	0.000094	0.940560	0.159335	-0.001882
1198	5.9850e-01	8.0261	14.966671	0.000363	3.633983	0.615613	-0.007270
1199	5.9900e-01	8.0151	14.933744	0.000329	3.291961	0.557673	-0.006585
1200	5.9950e-01	8.0042	14.907231	0.000265	2.650670	0.449036	-0.005303
1201	6.0000e-01	7.9956	14.858909	0.000483	4.831060	0.818404	-0.009664
1202	6.0050e-01	7.9858	14.839238	0.000197	1.966626	0.333155	-0.003934
1203	6.0100e-01	7.9770	14.811443	0.000278	2.778928	0.470763	-0.005559
1204	6.0150e-01	7.9657	14.779371	0.000321	3.206456	0.543188	-0.006414
1205	6.0200e-01	7.9565	14.753286	0.000261	2.607917	0.441793	-0.005217
1206	6.0250e-01	7.9437	14.716510	0.000368	3.676736	0.622856	-0.007355
1207	6.0300e-01	7.9333	14.686149	0.000304	3.035445	0.514218	-0.006072
1208	6.0350e-01	7.9257	14.651083	0.000351	3.505725	0.593886	-0.007013
1209	6.0400e-01	7.9150	14.632268	0.000188	1.881121	0.318670	-0.003763
1210	6.0450e-01	7.9053	14.613452	0.000188	1.881121	0.318670	-0.003763
1211	6.0500e-01	7.8961	14.578815	0.000346	3.462972	0.586643	-0.006928
1212	6.0550e-01	7.8833	14.530493	0.000483	4.831060	0.818404	-0.009664
1213	6.0600e-01	7.8735	14.493290	0.000372	3.719489	0.630098	-0.007441
1214	6.0650e-01	7.8674	14.466349	0.000269	2.693423	0.456278	-0.005388
1215	6.0700e-01	7.8555	14.464639	0.000017	0.171011	0.028970	-0.000342
1216	6.0750e-01	7.8436	14.425725	0.000389	3.890500	0.659068	-0.007783
1217	6.0800e-01	7.8357	14.405626	0.000201	2.009379	0.340398	-0.004020
1218	6.0850e-01	7.8253	14.348325	0.000573	5.728867	0.970496	-0.011460
1219	6.0900e-01	7.8162	14.333785	0.000145	1.453593	0.246245	-0.002908
1220	6.0950e-01	7.8064	14.286747	0.000470	4.702802	0.796676	-0.009408
1221	6.1000e-01	7.7972	14.267076	0.000197	1.966626	0.333155	-0.003934
1222	6.1050e-01	7.7844	14.242701	0.000244	2.436906	0.412823	-0.004875
1223	6.1100e-01	7.7759	14.218327	0.000244	2.436906	0.412823	-0.004875
1224	6.1150e-01	7.7673	14.181978	0.000363	3.633983	0.615613	-0.007270
1225	6.1200e-01	7.7542	14.142637	0.000393	3.933252	0.666311	-0.007868
1226	6.1250e-01	7.7438	14.114414	0.000282	2.821681	0.478006	-0.005645
1227	6.1300e-01	7.7362	14.086190	0.000282	2.821681	0.478006	-0.005645
1228	6.1350e-01	7.7246	14.060533	0.000257	2.565165	0.434551	-0.005132
1229	6.1400e-01	7.7167	14.037013	0.000235	2.351401	0.398338	-0.004704
1230	6.1450e-01	7.7039	14.000238	0.000368	3.676736	0.622856	-0.007355
1231	6.1500e-01	7.6962	13.960896	0.000393	3.933252	0.666311	-0.007868
1232	6.1550e-01	7.6859	13.948067	0.000128	1.282582	0.217275	-0.002566
1233	6.1600e-01	7.6764	13.922410	0.000257	2.565165	0.434551	-0.005132
1234	6.1650e-01	7.6663	13.877509	0.000449	4.489038	0.760464	-0.008980
1235	6.1700e-01	7.6550	13.816786	0.000607	6.070889	1.028437	-0.012145
1236	6.1750e-01	7.6466	13.812083	0.000047	0.470280	0.079668	-0.000941
1237	6.1800e-01	7.6355	13.793695	0.000184	1.838368	0.311428	-0.003678
1238	6.1850e-01	7.6248	13.757347	0.000363	3.633983	0.615613	-0.007270
1239	6.1900e-01	7.6147	13.734255	0.000231	2.308648	0.391096	-0.004618
1240	6.1950e-01	7.6050	13.709025	0.000252	2.522412	0.427308	-0.005046
1241	6.2000e-01	7.5934	13.669683	0.000393	3.933252	0.666311	-0.007868
1242	6.2050e-01	7.5854	13.617941	0.000517	5.173082	0.876344	-0.010349
1243	6.2100e-01	7.5732	13.603829	0.000141	1.410840	0.239003	-0.002822
1244	6.2150e-01	7.5668	13.573468	0.000304	3.035445	0.514218	-0.006072
1245	6.2200e-01	7.5562	13.549521	0.000239	2.394154	0.405581	-0.004789
1246	6.2250e-01	7.5447	13.524291	0.000252	2.522412	0.427308	-0.005046
1247	6.2300e-01	7.5348	13.478535	0.000457	4.574543	0.774949	-0.009151
1248	6.2350e-01	7.5275	13.456726	0.000218	2.180390	0.369368	-0.004362
1249	6.2400e-01	7.5162	13.417812	0.000389	3.890500	0.659068	-0.007783
1250	6.2450e-01	7.5058	13.380181	0.000376	3.762241	0.637341	-0.007526
1251	6.2500e-01	7.4963	13.371201	0.000090	0.897808	0.152093	-0.001796
1252	6.2550e-01	7.4854	13.335708	0.000355	3.548478	0.601128	-0.007099
1253	6.2600e-01	7.4762	13.273702	0.000620	6.199148	1.050164	-0.012401
1254	6.2650e-01	7.4658	13.258308	0.000154	1.539099	0.260730	-0.003079
1255	6.2700e-01	7.4567	13.250183	0.000081	0.812302	0.137608	-0.001625
1256	6.2750e-01	7.4445	13.204855	0.000453	4.531791	0.767706	-0.009066
1257	6.2800e-01	7.4356	13.167651	0.000372	3.719489	0.630098	-0.007441
1258	6.2850e-01	7.4255	13.141566	0.000261	2.607917	0.441793	-0.005217
1259	6.2900e-01	7.4152	13.113770	0.000278	2.778928	0.470763	-0.005559
1260	6.2950e-01	7.4086	13.090679	0.000231	2.308648	0.391096	-0.004618
1261	6.3000e-01	7.3956	13.058607	0.000321	3.206456	0.543188	-0.006414
1262	6.3050e-01	7.3853	13.042357	0.000162	1.624604	0.275215	-0.003250
1263	6.3100e-01	7.3755	12.978213	0.000641	6.412911	1.086377	-0.012829
1264	6.3150e-01	7.3639	12.964102	0.000141	1.410840	0.239003	-0.002822
1265	6.3200e-01	7.3523	12.941010	0.000231	2.308648	0.391096	-0.004618
1266	6.3250e-01	7.3459	12.895682	0.000453	4.531791	0.767706	-0.009066
1267	6.3300e-01	7.3346	12.859333	0.000363	3.633983	0.615613	-0.007270
1268	6.3350e-01	7.3285	12.822558	0.000368	3.676736	0.622856	-0.007355
1269	6.3400e-01	7.3175	12.806736	0.000158	1.581851	0.267973	-0.003164
1270	6.3450e-01	7.3047	12.764401	0.000423	4.232521	0.717009	-0.008467
1271	6.3500e-01	7.2949	12.747723	0.000167	1.667357	0.282458	-0.003335
1272	6.3550e-01	7.2864	12.720355	0.000274	2.736175	0.463521	-0.005474
1273	6.3600e-01	7.2781	12.687000	0.000333	3.334714	0.564916	-0.006671
1274	6.3650e-01	7.2641	12.624995	0.000620	6.199148	1.050164	-0.012401
1275	6.3700e-01	7.2577	12.616442	0.000086	0.855055	0.144850	-0.001711
1276	6.3750e-01	7.2432	12.589502	0.000269	2.693423	0.456278	-0.005388
1277	6.3800e-01	7.2333	12.537332	0.000522	5.215835	0.883586	-0.010434
1278	6.3850e-01	7.2272	12.515523	0.000218	2.180390	0.369368	-0.004362
1279	6.3900e-01	7.2165	12.486872	0.000286	2.864434	0.485248	-0.005730
1280	6.3950e-01	7.2058	12.457366	0.000295	2.949939	0.499733	-0.005901
1281	6.4000e-01	7.1942	12.412465	0.000449	4.489038	0.760464	-0.008980
1282	6.4050e-01	7.1872	12.386808	0.000257	2.565165	0.434551	-0.005132
1283	6.4100e-01	7.1730	12.346611	0.000402	4.018758	0.680796	-0.008039
1284	6.4150e-01	7.1655	12.326940	0.000197	1.966626	0.333155	-0.003934
1285	6.4200e-01	7.1545	12.311973	0.000150	1.496346	0.253488	-0.002993
1286	6.4250e-01	7.1460	12.270493	0.000415	4.147016	0.702524	-0.008296
1287	6.4300e-01	7.1368	12.239704	0.000308	3.078197	0.521461	-0.006158
1288	6.4350e-01	7.1237	12.215330	0.000244	2.436906	0.412823	-0.004875
1289	6.4400e-01	7.1173	12.170002	0.000453	4.531791	0.767706	-0.009066
1290	6.4450e-01	7.1051	12.149903	0.000201	2.009379	0.340398	-0.004020
1291	6.4500e-01	7.0996	12.103720	0.000462	4.617296	0.782191	-0.009237
1292	6.4550e-01	7.0856	12.090463	0.000133	1.325335	0.224518	-0.002651
1293	6.4600e-01	7.0752	12.052405	0.000380	3.804994	0.644583	-0.007612
1294	6.4650e-01	7.0679	12.013491	0.000389	3.890500	0.659068	-0.007783
1295	6.4700e-01	7.0552	11.995530	0.000180	1.795615	0.304185	-0.003592
1296	6.4750e-01	7.0450	11.957044	0.000385	3.847747	0.651826	-0.007697
1297	6.4800e-01	7.0374	11.913426	0.000436	4.360780	0.738736	-0.008724
1298	6.4850e-01	7.0258	11.893756	0.000197	1.966626	0.333155	-0.003934
1299	6.4900e-01	7.0154	11.860828	0.000329	3.291961	0.557673	-0.006585
1300	6.4950e-01	7.0050	11.812934	0.000479	4.788307	0.811161	-0.009579
1301	6.5000e-01	6.9966	11.796685	0.000162	1.624604	0.275215	-0.003250
1302	6.5050e-01	6.9861	11.757343	0.000393	3.933252	0.666311	-0.007868
1303	6.5100e-01	6.9760	11.727837	0.000295	2.949939	0.499733	-0.005901
1304	6.5150e-01	6.9649	11.675239	0.000526	5.258587	0.890829	-0.010520
1305	6.5200e-01	6.9557	11.657706	0.000175	1.752862	0.296943	-0.003507
1306	6.5250e-01	6.9458	11.630766	0.000269	2.693423	0.456278	-0.005388
1307	6.5300e-01	6.9360	11.605536	0.000252	2.522412	0.427308	-0.005046
1308	6.5350e-01	6.9235	11.584155	0.000214	2.137637	0.362126	-0.004276
1309	6.5400e-01	6.9128	11.530702	0.000534	5.344093	0.905314	-0.010691
1310	6.5450e-01	6.9061	11.515307	0.000154	1.539099	0.260730	-0.003079
1311	6.5500e-01	6.8954	11.473400	0.000419	4.189769	0.709766	-0.008381
1312	6.5550e-01	6.8835	11.455867	0.000175	1.752862	0.296943	-0.003507
1313	6.5600e-01	6.8759	11.408829	0.000470	4.702802	0.796676	-0.009408
1314	6.5650e-01	6.8665	11.355803	0.000530	5.301340	0.898071	-0.010605
1315	6.5700e-01	6.8579	11.354520	0.000013	0.128258	0.021728	-0.000257
1316	6.5750e-01	6.8459	11.303205	0.000513	5.130329	0.869101	-0.010263
1317	6.5800e-01	6.8359	11.276265	0.000269	2.693423	0.456278	-0.005388
1318	6.5850e-01	6.8286	11.251890	0.000244	2.436906	0.412823	-0.004875
1319	6.5900e-01	6.8130	11.214259	0.000376	3.762241	0.637341	-0.007526
1320	6.5950e-01	6.8048	11.184325	0.000299	2.992692	0.506976	-0.005987
1321	6.6000e-01	6.7950	11.131727	0.000526	5.258587	0.890829	-0.010520
1322	6.6050e-01	6.7844	11.121892	0.000098	0.983313	0.166578	-0.001967
1323	6.6100e-01	6.7773	11.071860	0.000500	5.002071	0.847374	-0.010006
1324	6.6150e-01	6.7654	11.053044	0.000188	1.881121	0.318670	-0.003763
1325	6.6200e-01	6.7554	11.026532	0.000265	2.650670	0.449036	-0.005303
1326	6.6250e-01	6.7429	11.008571	0.000180	1.795615	0.304185	-0.003592
1327	6.6300e-01	6.7386	10.952125	0.000564	5.643362	0.956011	-0.011289
1328	6.6350e-01	6.7250	10.926467	0.000257	2.565165	0.434551	-0.005132
1329	6.6400e-01	6.7157	10.881567	0.000449	4.489038	0.760464	-0.008980
1330	6.6450e-01	6.7044	10.864034	0.000175	1.752862	0.296943	-0.003507
1331	6.6500e-01	6.6965	10.809298	0.000547	5.472351	0.927041	-0.010947
1332	6.6550e-01	6.6858	10.791765	0.000175	1.752862	0.296943	-0.003507
1333	6.6600e-01	6.6766	10.750713	0.000410	4.104263	0.695281	-0.008210
1334	6.6650e-01	6.6653	10.732753	0.000180	1.795615	0.304185	-0.003592
1335	6.6700e-01	6.6571	10.662622	0.000701	7.011450	1.187772	-0.014026
1336	6.6750e-01	6.6449	10.649794	0.000128	1.282582	0.217275	-0.002566
1337	6.6800e-01	6.6400	10.624564	0.000252	2.522412	0.427308	-0.005046
1338	6.6850e-01	6.6229	10.596768	0.000278	2.778928	0.470763	-0.005559
1339	6.6900e-01	6.6132	10.563841	0.000329	3.291961	0.557673	-0.006585
1340	6.6950e-01	6.6054	10.534335	0.000295	2.949939	0.499733	-0.005901
1341	6.7000e-01	6.5991	10.500980	0.000333	3.334714	0.564916	-0.006671
1342	6.7050e-01	6.5863	10.459928	0.000410	4.104263	0.695281	-0.008210
1343	6.7100e-01	6.5768	10.432560	0.000274	2.736175	0.463521	-0.005474
1344	6.7150e-01	6.5674	10.400060	0.000325	3.249208	0.550431	-0.006500
1345	6.7200e-01	6.5567	10.366706	0.000333	3.334714	0.564916	-0.006671
1346	6.7250e-01	6.5480	10.323516	0.000432	4.318027	0.731494	-0.008638
1347	6.7300e-01	6.5356	10.304700	0.000188	1.881121	0.318670	-0.003763
1348	6.7350e-01	6.5253	10.268780	0.000359	3.591230	0.608371	-0.007184
1349	6.7400e-01	6.5143	10.228583	0.000402	4.018758	0.680796	-0.008039
1350	6.7450e-01	6.5063	10.212761	0.000158	1.581851	0.267973	-0.003164
1351	6.7500e-01	6.4935	10.162728	0.000500	5.002071	0.847374	-0.010006
1352	6.7550e-01	6.4847	10.128946	0.000338	3.377467	0.572158	-0.006756
1353	6.7600e-01	6.4722	10.104571	0.000244	2.436906	0.412823	-0.004875
1354	6.7650e-01	6.4655	10.047697	0.000569	5.686115	0.963254	-0.011375
1355	6.7700e-01	6.4557	10.032303	0.000154	1.539099	0.260730	-0.003079
1356	6.7750e-01	6.4441	9.991251	0.000410	4.104263	0.695281	-0.008210
1357	6.7800e-01	6.4352	9.962172	0.000291	2.907186	0.492491	-0.005816
1358	6.7850e-01	6.4265	9.934804	0.000274	2.736175	0.463521	-0.005474
1359	6.7900e-01	6.4142	9.889048	0.000457	4.574543	0.774949	-0.009151
1360	6.7950e-01	6.4057	9.868950	0.000201	2.009379	0.340398	-0.004020
1361	6.8000e-01	6.3931	9.854838	0.000141	1.410840	0.239003	-0.002822
1362	6.8050e-01	6.3855	9.787273	0.000675	6.754933	1.144317	-0.013513
1363	6.8100e-01	6.3751	9.766320	0.000209	2.094884	0.354883	-0.004191
1364	6.8150e-01	6.3663	9.720564	0.000457	4.574543	0.774949	-0.009151
1365	6.8200e-01	6.3544	9.685071	0.000355	3.548478	0.601128	-0.007099
1366	6.8250e-01	6.3490	9.655993	0.000291	2.907186	0.492491	-0.005816
1367	6.8300e-01	6.3342	9.642736	0.000133	1.325335	0.224518	-0.002651
1368	6.8350e-01	6.3235	9.581586	0.000611	6.113642	1.035679	-0.012230
1369	6.8400e-01	6.3176	9.562770	0.000188	1.881121	0.318670	-0.003763
1370	6.8450e-01	6.3049	9.542672	0.000201	2.009379	0.340398	-0.004020
1371	6.8500e-01	6.2918	9.486225	0.000564	5.643362	0.956011	-0.011289
1372	6.8550e-01	6.2854	9.458430	0.000278	2.778928	0.470763	-0.005559
1373	6.8600e-01	6.2744	9.424220	0.000342	3.420219	0.579401	-0.006842
1374	6.8650e-01	6.2659	9.387016	0.000372	3.719489	0.630098	-0.007441
1375	6.8700e-01	6.2531	9.365207	0.000218	2.180390	0.369368	-0.004362
1376	6.8750e-01	6.2445	9.324583	0.000406	4.061511	0.688039	-0.008125
1377	6.8800e-01	6.2341	9.286524	0.000380	3.804994	0.644583	-0.007612
1378	6.8850e-01	6.2245	9.242479	0.000440	4.403532	0.745979	-0.008809
1379	6.8900e-01	6.2183	9.229650	0.000128	1.282582	0.217275	-0.002566
1380	6.8950e-01	6.2067	9.198006	0.000316	3.163703	0.535946	-0.006329
1381	6.9000e-01	6.1974	9.166362	0.000316	3.163703	0.535946	-0.006329
1382	6.9050e-01	6.1881	9.119750	0.000466	4.660049	0.789434	-0.009322
1383	6.9100e-01	6.1752	9.083830	0.000359	3.591230	0.608371	-0.007184
1384	6.9150e-01	6.1664	9.055607	0.000282	2.821681	0.478006	-0.005645
1385	6.9200e-01	6.1569	9.022252	0.000333	3.334714	0.564916	-0.006671
1386	6.9250e-01	6.1469	8.980345	0.000419	4.189769	0.709766	-0.008381
1387	6.9300e-01	6.1340	8.987187	-0.000068	-0.684044	-0.115880	0.001368
1388	6.9350e-01	6.1249	8.914063	0.000731	7.310719	1.238469	-0.014625
1389	6.9400e-01	6.1177	8.888833	0.000252	2.522412	0.427308	-0.005046
1390	6.9450e-01	6.1047	8.839228	0.000496	4.959318	0.840131	-0.009921
1391	6.9500e-01	6.0950	8.810577	0.000286	2.864434	0.485248	-0.005730
1392	6.9550e-01	6.0835	8.803308	0.000073	0.726797	0.123123	-0.001454
1393	6.9600e-01	6.0767	8.745151	0.000581	5.814373	0.984981	-0.011631
1394	6.9650e-01	6.0660	8.707520	0.000376	3.762241	0.637341	-0.007526
1395	6.9700e-01	6.0541	8.668606	0.000389	3.890500	0.659068	-0.007783
1396	6.9750e-01	6.0446	8.654494	0.000141	1.410840	0.239003	-0.002822
1397	6.9800e-01	6.0345	8.594199	0.000603	6.028137	1.021194	-0.012059
1398	6.9850e-01	6.0255	8.562555	0.000316	3.163703	0.535946	-0.006329
1399	6.9900e-01	6.0147	8.531766	0.000308	3.078197	0.521461	-0.006158
1400	6.9950e-01	6.0040	8.530055	0.000017	0.171011	0.028970	-0.000342
1401	7.0000e-01	5.9955	8.469332	0.000607	6.070889	1.028437	-0.012145
1402	7.0050e-01	5.9836	8.449234	0.000201	2.009379	0.340398	-0.004020
1403	7.0100e-01	5.9758	8.389794	0.000594	5.942631	1.006709	-0.011888
1404	7.0150e-01	5.9637	8.381242	0.000086	0.855055	0.144850	-0.001711
1405	7.0200e-01	5.9546	8.341045	0.000402	4.018758	0.680796	-0.008039
1406	7.0250e-01	5.9456	8.288875	0.000522	5.215835	0.883586	-0.010434
1407	7.0300e-01	5.9351	8.272625	0.000162	1.624604	0.275215	-0.003250
1408	7.0350e-01	5.9232	8.239698	0.000329	3.291961	0.557673	-0.006585
1409	7.0400e-01	5.9195	8.217461	0.000222	2.223143	0.376611	-0.004447
1410	7.0450e-01	5.9082	8.159304	0.000581	5.814373	0.984981	-0.011631
1411	7.0500e-01	5.8951	8.136212	0.000231	2.308648	0.391096	-0.004618
1412	7.0550e-01	5.8841	8.094305	0.000419	4.189769	0.709766	-0.008381
1413	7.0600e-01	5.8752	8.042135	0.000522	5.215835	0.883586	-0.010434
1414	7.0650e-01	5.8664	8.029734	0.000124	1.239830	0.210033	-0.002480
1415	7.0700e-01	5.8551	7.979274	0.000504	5.044824	0.854616	-0.010092
1416	7.0750e-01	5.8443	7.958320	0.000209	2.094884	0.354883	-0.004191
1417	7.0800e-01	5.8365	7.915985	0.000423	4.232521	0.717009	-0.008467
1418	7.0850e-01	5.8253	7.877071	0.000389	3.890500	0.659068	-0.007783
1419	7.0900e-01	5.8148	7.857828	0.000192	1.923873	0.325913	-0.003849
1420	7.0950e-01	5.8063	7.806941	0.000509	5.087576	0.861859	-0.010177
1421	7.1000e-01	5.7974	7.764606	0.000423	4.232521	0.717009	-0.008467
1422	7.1050e-01	5.7849	7.746646	0.000180	1.795615	0.304185	-0.003592
1423	7.1100e-01	5.7759	7.722271	0.000244	2.436906	0.412823	-0.004875
1424	7.1150e-01	5.7648	7.672239	0.000500	5.002071	0.847374	-0.010006
1425	7.1200e-01	5.7538	7.648292	0.000239	2.394154	0.405581	-0.004789
1426	7.1250e-01	5.7447	7.596122	0.000522	5.215835	0.883586	-0.010434
1427	7.1300e-01	5.7382	7.580727	0.000154	1.539099	0.260730	-0.003079
1428	7.1350e-01	5.7251	7.528984	0.000517	5.173082	0.876344	-0.010349
1429	7.1400e-01	5.7159	7.487077	0.000419	4.189769	0.709766	-0.008381
1430	7.1450e-01	5.7092	7.451584	0.000355	3.548478	0.601128	-0.007099
1431	7.1500e-01	5.6946	7.448163	0.000034	0.342022	0.057940	-0.000684
1432	7.1550e-01	5.6854	7.412243	0.000359	3.591230	0.608371	-0.007184
1433	7.1600e-01	5.6734	7.349809	0.000624	6.241900	1.057407	-0.012487
1434	7.1650e-01	5.6659	7.325007	0.000248	2.479659	0.420066	-0.004960
1435	7.1700e-01	5.6567	7.293363	0.000316	3.163703	0.535946	-0.006329
1436	7.1750e-01	5.6482	7.260008	0.000333	3.334714	0.564916	-0.006671
1437	7.1800e-01	5.6342	7.236061	0.000239	2.394154	0.405581	-0.004789
1438	7.1850e-01	5.6274	7.169779	0.000663	6.626675	1.122589	-0.013256
1439	7.1900e-01	5.6158	7.140273	0.000295	2.949939	0.499733	-0.005901
1440	7.1950e-01	5.6061	7.098366	0.000419	4.189769	0.709766	-0.008381
1441	7.2000e-01	5.5988	7.065011	0.000333	3.334714	0.564916	-0.006671
1442	7.2050e-01	5.5841	7.033367	0.000316	3.163703	0.535946	-0.006329
1443	7.2100e-01	5.5766	7.001722	0.000316	3.163703	0.535946	-0.006329
1444	7.2150e-01	5.5652	6.967940	0.000338	3.377467	0.572158	-0.006756
1445	7.2200e-01	5.5560	6.912349	0.000556	5.557856	0.941526	-0.011118
1446	7.2250e-01	5.5469	6.888402	0.000239	2.394154	0.405581	-0.004789
1447	7.2300e-01	5.5353	6.858896	0.000295	2.949939	0.499733	-0.005901
1448	7.2350e-01	5.5283	6.804160	0.000547	5.472351	0.927041	-0.010947
1449	7.2400e-01	5.5170	6.800311	0.000038	0.384775	0.065183	-0.000770
1450	7.2450e-01	5.5066	6.749424	0.000509	5.087576	0.861859	-0.010177
1451	7.2500e-01	5.4938	6.718635	0.000308	3.078197	0.521461	-0.006158
1452	7.2550e-01	5.4860	6.683569	0.000351	3.505725	0.593886	-0.007013
1453	7.2600e-01	5.4755	6.648076	0.000355	3.548478	0.601128	-0.007099
1454	7.2650e-01	5.4669	6.611728	0.000363	3.633983	0.615613	-0.007270
1455	7.2700e-01	5.4523	6.580084	0.000316	3.163703	0.535946	-0.006329
1456	7.2750e-01	5.4434	6.521927	0.000581	5.814373	0.984981	-0.011631
1457	7.2800e-01	5.4358	6.510381	0.000115	1.154324	0.195548	-0.002309
1458	7.2850e-01	5.4234	6.453079	0.000573	5.728867	0.970496	-0.011460
1459	7.2900e-01	5.4163	6.424856	0.000282	2.821681	0.478006	-0.005645
1460	7.2950e-01	5.4065	6.389791	0.000351	3.505725	0.593886	-0.007013
1461	7.3000e-01	5.3979	6.365416	0.000244	2.436906	0.412823	-0.004875
1462	7.3050e-01	5.3851	6.313246	0.000522	5.215835	0.883586	-0.010434
1463	7.3100e-01	5.3732	6.303838	0.000094	0.940560	0.159335	-0.001882
1464	7.3150e-01	5.3650	6.250812	0.000530	5.301340	0.898071	-0.010605
1465	7.3200e-01	5.3561	6.200353	0.000504	5.044824	0.854616	-0.010092
1466	7.3250e-01	5.3467	6.170847	0.000295	2.949939	0.499733	-0.005901
1467	7.3300e-01	5.3357	6.139202	0.000316	3.163703	0.535946	-0.006329
1468	7.3350e-01	5.3271	6.105847	0.000333	3.334714	0.564916	-0.006671
1469	7.3400e-01	5.3156	6.066506	0.000393	3.933252	0.666311	-0.007868
1470	7.3450e-01	5.3058	6.025882	0.000406	4.061511	0.688039	-0.008125
1471	7.3500e-01	5.2942	5.999369	0.000265	2.650670	0.449036	-0.005303
1472	7.3550e-01	5.2863	5.969007	0.000304	3.035445	0.514218	-0.006072
1473	7.3600e-01	5.2753	5.936080	0.000329	3.291961	0.557673	-0.006585
1474	7.3650e-01	5.2661	5.896311	0.000398	3.976005	0.673553	-0.007954
1475	7.3700e-01	5.2571	5.839865	0.000564	5.643362	0.956011	-0.011289
1476	7.3750e-01	5.2478	5.809076	0.000308	3.078197	0.521461	-0.006158
1477	7.3800e-01	5.2366	5.758188	0.000509	5.087576	0.861859	-0.010177
1478	7.3850e-01	5.2252	5.741938	0.000162	1.624604	0.275215	-0.003250
1479	7.3900e-01	5.2148	5.678222	0.000637	6.370159	1.079134	-0.012743
1480	7.3950e-01	5.2045	5.678650	-0.000004	-0.042753	-0.007243	0.000086
1481	7.4000e-01	5.1978	5.636743	0.000419	4.189769	0.709766	-0.008381
1482	7.4050e-01	5.1880	5.576875	0.000599	5.985384	1.013951	-0.011974
1483	7.4100e-01	5.1761	5.541382	0.000355	3.548478	0.601128	-0.007099
1484	7.4150e-01	5.1640	5.512304	0.000291	2.907186	0.492491	-0.005816
1485	7.4200e-01	5.1553	5.472107	0.000402	4.018758	0.680796	-0.008039
1486	7.4250e-01	5.1440	5.433621	0.000385	3.847747	0.651826	-0.007697
1487	7.4300e-01	5.1367	5.392141	0.000415	4.147016	0.702524	-0.008296
1488	7.4350e-01	5.1257	5.379312	0.000128	1.282582	0.217275	-0.002566
1489	7.4400e-01	5.1147	5.328425	0.000509	5.087576	0.861859	-0.010177
1490	7.4450e-01	5.1038	5.297208	0.000312	3.120950	0.528703	-0.006243
1491	7.4500e-01	5.0970	5.250597	0.000466	4.660049	0.789434	-0.009322
1492	7.4550e-01	5.0854	5.211683	0.000389	3.890500	0.659068	-0.007783
1493	7.4600e-01	5.0746	5.206124	0.000056	0.555786	0.094153	-0.001112
1494	7.4650e-01	5.0656	5.148822	0.000573	5.728867	0.970496	-0.011460
1495	7.4700e-01	5.0555	5.104349	0.000445	4.446285	0.753221	-0.008895
1496	7.4750e-01	5.0461	5.057738	0.000466	4.660049	0.789434	-0.009322
1497	7.4800e-01	5.0342	5.059448	-0.000017	-0.171011	-0.028970	0.000342
1498	7.4850e-01	5.0246	5.018396	0.000410	4.104263	0.695281	-0.008210
1499	7.4900e-01	5.0146	4.934582	0.000838	8.379537	1.419532	-0.016763
1500	7.4950e-01	5.0050	4.897806	0.000368	3.676736	0.622856	-0.007355
1501	7.5000e-01	4.9950	4.893530	0.000043	0.427527	0.072425	-0.000855
1502	7.5050e-01	4.9866	4.838366	0.000552	5.515104	0.934284	-0.011033
1503	7.5100e-01	4.9765	4.820834	0.000175	1.752862	0.296943	-0.003507
1504	7.5150e-01	4.9677	4.783203	0.000376	3.762241	0.637341	-0.007526
1505	7.5200e-01	4.9539	4.734026	0.000492	4.916565	0.832889	-0.009835
1506	7.5250e-01	4.9475	4.689553	0.000445	4.446285	0.753221	-0.008895
1507	7.5300e-01	4.9348	4.663895	0.000257	2.565165	0.434551	-0.005132
1508	7.5350e-01	4.9280	4.621560	0.000423	4.232521	0.717009	-0.008467
1509	7.5400e-01	4.9171	4.594620	0.000269	2.693423	0.456278	-0.005388
1510	7.5450e-01	4.9081	4.553568	0.000410	4.104263	0.695281	-0.008210
1511	7.5500e-01	4.8956	4.524062	0.000295	2.949939	0.499733	-0.005901
1512	7.5550e-01	4.8898	4.477450	0.000466	4.660049	0.789434	-0.009322
1513	7.5600e-01	4.8750	4.446661	0.000308	3.078197	0.521461	-0.006158
1514	7.5650e-01	4.8651	4.406892	0.000398	3.976005	0.673553	-0.007954
1515	7.5700e-01	4.8547	4.357715	0.000492	4.916565	0.832889	-0.009835
1516	7.5750e-01	4.8470	4.325216	0.000325	3.249208	0.550431	-0.006500
1517	7.5800e-01	4.8372	4.288012	0.000372	3.719489	0.630098	-0.007441
1518	7.5850e-01	4.8260	4.246960	0.000410	4.104263	0.695281	-0.008210
1519	7.5900e-01	4.8169	4.195218	0.000517	5.173082	0.876344	-0.010349
1520	7.5950e-01	4.8053	4.163146	0.000321	3.206456	0.543188	-0.006414
1521	7.6000e-01	4.7955	4.130219	0.000329	3.291961	0.557673	-0.006585
1522	7.6050e-01	4.7852	4.094298	0.000359	3.591230	0.608371	-0.007184
1523	7.6100e-01	4.7739	4.045549	0.000487	4.873813	0.825646	-0.009750
1524	7.6150e-01	4.7665	4.016470	0.000291	2.907186	0.492491	-0.005816
1525	7.6200e-01	4.7559	3.989958	0.000265	2.650670	0.449036	-0.005303
1526	7.6250e-01	4.7449	3.951899	0.000380	3.804994	0.644583	-0.007612
1527	7.6300e-01	4.7357	3.912130	0.000398	3.976005	0.673553	-0.007954
1528	7.6350e-01	4.7263	3.868084	0.000440	4.403532	0.745979	-0.008809
1529	7.6400e-01	4.7159	3.843282	0.000248	2.479659	0.420066	-0.004960
1530	7.6450e-01	4.7070	3.786836	0.000564	5.643362	0.956011	-0.011289
1531	7.6500e-01	4.6964	3.741507	0.000453	4.531791	0.767706	-0.009066
1532	7.6550e-01	4.6852	3.703876	0.000376	3.762241	0.637341	-0.007526
1533	7.6600e-01	4.6753	3.663680	0.000402	4.018758	0.680796	-0.008039
1534	7.6650e-01	4.6667	3.617924	0.000457	4.574543	0.774949	-0.009151
1535	7.6700e-01	4.6576	3.604240	0.000137	1.368088	0.231760	-0.002737
1536	7.6750e-01	4.6429	3.557201	0.000470	4.702802	0.796676	-0.009408
1537	7.6800e-01	4.6350	3.525129	0.000321	3.206456	0.543188	-0.006414
1538	7.6850e-01	4.6252	3.478090	0.000470	4.702802	0.796676	-0.009408
1539	7.6900e-01	4.6149	3.434045	0.000440	4.403532	0.745979	-0.008809
1540	7.6950e-01	4.6039	3.407532	0.000265	2.650670	0.449036	-0.005303
1541	7.7000e-01	4.5953	3.370329	0.000372	3.719489	0.630098	-0.007441
1542	7.7050e-01	4.5845	3.332270	0.000380	3.804994	0.644583	-0.007612
1543	7.7100e-01	4.5740	3.278817	0.000534	5.344093	0.905314	-0.010691
1544	7.7150e-01	4.5663	3.248028	0.000308	3.078197	0.521461	-0.006158
1545	7.7200e-01	4.5541	3.202699	0.000453	4.531791	0.767706	-0.009066
1546	7.7250e-01	4.5447	3.179608	0.000231	2.308648	0.391096	-0.004618
1547	7.7300e-01	4.5361	3.125299	0.000543	5.429598	0.919799	-0.010862
1548	7.7350e-01	4.5233	3.092800	0.000325	3.249208	0.550431	-0.006500
1549	7.7400e-01	4.5139	3.067570	0.000252	2.522412	0.427308	-0.005046
1550	7.7450e-01	4.5056	3.021814	0.000457	4.574543	0.774949	-0.009151
1551	7.7500e-01	4.4952	2.985893	0.000359	3.591230	0.608371	-0.007184
1552	7.7550e-01	4.4910	2.951683	0.000342	3.420219	0.579401	-0.006842
1553	7.7600e-01	4.4757	2.899086	0.000526	5.258587	0.890829	-0.010520
1554	7.7650e-01	4.4641	2.871290	0.000278	2.778928	0.470763	-0.005559
1555	7.7700e-01	4.4550	2.815271	0.000560	5.600609	0.948769	-0.011204
1556	7.7750e-01	4.4453	2.769515	0.000457	4.574543	0.774949	-0.009151
1557	7.7800e-01	4.4330	2.724614	0.000449	4.489038	0.760464	-0.008980
1558	7.7850e-01	4.4258	2.711786	0.000128	1.282582	0.217275	-0.002566
1559	7.7900e-01	4.4156	2.689549	0.000222	2.223143	0.376611	-0.004447
1560	7.7950e-01	4.4055	2.606590	0.000829	8.294032	1.405047	-0.016592
1561	7.8000e-01	4.3948	2.592906	0.000137	1.368088	0.231760	-0.002737
1562	7.8050e-01	4.3860	2.552281	0.000406	4.061511	0.688039	-0.008125
1563	7.8100e-01	4.3750	2.522775	0.000295	2.949939	0.499733	-0.005901
1564	7.8150e-01	4.3658	2.451362	0.000714	7.139708	1.209499	-0.014283
1565	7.8200e-01	4.3559	2.421000	0.000304	3.035445	0.514218	-0.006072
1566	7.8250e-01	4.3463	2.406889	0.000141	1.410840	0.239003	-0.002822
1567	7.8300e-01	4.3365	2.349159	0.000577	5.771620	0.977739	-0.011546
1568	7.8350e-01	4.3259	2.295279	0.000539	5.386846	0.912556	-0.010776
1569	7.8400e-01	4.3152	2.273042	0.000222	2.223143	0.376611	-0.004447
1570	7.8450e-01	4.3082	2.240970	0.000321	3.206456	0.543188	-0.006414
1571	7.8500e-01	4.2950	2.211464	0.000295	2.949939	0.499733	-0.005901
1572	7.8550e-01	4.2862	2.172550	0.000389	3.890500	0.659068	-0.007783
1573	7.8600e-01	4.2761	2.130643	0.000419	4.189769	0.709766	-0.008381
1574	7.8650e-01	4.2677	2.075479	0.000552	5.515104	0.934284	-0.011033
1575	7.8700e-01	4.2538	2.048111	0.000274	2.736175	0.463521	-0.005474
1576	7.8750e-01	4.2446	1.991237	0.000569	5.686115	0.963254	-0.011375
1577	7.8800e-01	4.2353	1.959593	0.000316	3.163703	0.535946	-0.006329
1578	7.8850e-01	4.2262	1.909988	0.000496	4.959318	0.840131	-0.009921
1579	7.8900e-01	4.2163	1.877916	0.000321	3.206456	0.543188	-0.006414
1580	7.8950e-01	4.2050	1.839430	0.000385	3.847747	0.651826	-0.007697
1581	7.9000e-01	4.1956	1.784694	0.000547	5.472351	0.927041	-0.010947
1582	7.9050e-01	4.1896	1.737228	0.000475	4.745554	0.803919	-0.009493
1583	7.9100e-01	4.1750	1.735945	0.000013	0.128258	0.021728	-0.000257
1584	7.9150e-01	4.1644	1.688051	0.000479	4.788307	0.811161	-0.009579
1585	7.9200e-01	4.1547	1.648282	0.000398	3.976005	0.673553	-0.007954
1586	7.9250e-01	4.1461	1.606374	0.000419	4.189769	0.709766	-0.008381
1587	7.9300e-01	4.1351	1.552066	0.000543	5.429598	0.919799	-0.010862
1588	7.9350e-01	4.1236	1.527264	0.000248	2.479659	0.420066	-0.004960
1589	7.9400e-01	4.1138	1.467396	0.000599	5.985384	1.013951	-0.011974
1590	7.9450e-01	4.1040	1.436179	0.000312	3.120950	0.528703	-0.006243
1591	7.9500e-01	4.0955	1.386575	0.000496	4.959318	0.840131	-0.009921
1592	7.9550e-01	4.0863	1.355786	0.000308	3.078197	0.521461	-0.006158
1593	7.9600e-01	4.0750	1.330556	0.000252	2.522412	0.427308	-0.005046
1594	7.9650e-01	4.0640	1.267268	0.000633	6.327406	1.071892	-0.012658
1595	7.9700e-01	4.0543	1.239472	0.000278	2.778928	0.470763	-0.005559
1596	7.9750e-01	4.0457	1.190723	0.000487	4.873813	0.825646	-0.009750
1597	7.9800e-01	4.0352	1.159506	0.000312	3.120950	0.528703	-0.006243
1598	7.9850e-01	4.0240	1.113322	0.000462	4.617296	0.782191	-0.009237
1599	7.9900e-01	4.0137	1.082106	0.000312	3.120950	0.528703	-0.006243
1600	7.9950e-01	4.0048	1.049179	0.000329	3.291961	0.557673	-0.006585
1601	8.0000e-01	3.9954	1.003850	0.000453	4.531791	0.767706	-0.009066
1602	8.0050e-01	3.9868	0.961088	0.000428	4.275274	0.724251	-0.008553
1603	8.0100e-01	3.9725	0.913621	0.000475	4.745554	0.803919	-0.009493
1604	8.0150e-01	3.9664	0.880694	0.000329	3.291961	0.557673	-0.006585
1605	8.0200e-01	3.9572	0.823392	0.000573	5.728867	0.970496	-0.011460
1606	8.0250e-01	3.9465	0.786189	0.000372	3.719489	0.630098	-0.007441
1607	8.0300e-01	3.9372	0.750696	0.000355	3.548478	0.601128	-0.007099
1608	8.0350e-01	3.9252	0.707078	0.000436	4.360780	0.738736	-0.008724
1609	8.0400e-01	3.9172	0.669875	0.000372	3.719489	0.630098	-0.007441
1610	8.0450e-01	3.9047	0.632672	0.000372	3.719489	0.630098	-0.007441
1611	8.0500e-01	3.8959	0.573659	0.000590	5.899878	0.999466	-0.011802
1612	8.0550e-01	3.8843	0.555699	0.000180	1.795615	0.304185	-0.003592
1613	8.0600e-01	3.8776	0.502246	0.000534	5.344093	0.905314	-0.010691
1614	8.0650e-01	3.8632	0.464187	0.000380	3.804994	0.644583	-0.007612
1615	8.0700e-01	3.8542	0.424418	0.000398	3.976005	0.673553	-0.007954
1616	8.0750e-01	3.8466	0.379090	0.000453	4.531791	0.767706	-0.009066
1617	8.0800e-01	3.8370	0.335044	0.000440	4.403532	0.745979	-0.008809
1618	8.0850e-01	3.8245	0.279881	0.000552	5.515104	0.934284	-0.011033
1619	8.0900e-01	3.8138	0.249947	0.000299	2.992692	0.506976	-0.005987
1620	8.0950e-01	3.8052	0.216165	0.000338	3.377467	0.572158	-0.006756
1621	8.1000e-01	3.7964	0.174257	0.000419	4.189769	0.709766	-0.008381
1622	8.1050e-01	3.7866	0.131922	0.000423	4.232521	0.717009	-0.008467
1623	8.1100e-01	3.7738	0.093436	0.000385	3.847747	0.651826	-0.007697
1624	8.1150e-01	3.7657	0.037417	0.000560	5.600609	0.948769	-0.011204
1625	8.1200e-01	3.7537	-0.009194	0.000466	4.660049	0.789434	-0.009322
1626	8.1250e-01	3.7448	-0.037417	0.000282	2.821681	0.478006	-0.005645
1627	8.1300e-01	3.7366	-0.072910	0.000355	3.548478	0.601128	-0.007099
1628	8.1350e-01	3.7244	-0.128501	0.000556	5.557856	0.941526	-0.011118
1629	8.1400e-01	3.7170	-0.163139	0.000346	3.462972	0.586643	-0.006928
1630	8.1450e-01	3.7073	-0.218303	0.000552	5.515104	0.934284	-0.011033
1631	8.1500e-01	3.6989	-0.249519	0.000312	3.120950	0.528703	-0.006243
1632	8.1550e-01	3.6871	-0.279025	0.000295	2.949939	0.499733	-0.005901
1633	8.1600e-01	3.6752	-0.314946	0.000359	3.591230	0.608371	-0.007184
1634	8.1650e-01	3.6652	-0.382083	0.000671	6.712181	1.137074	-0.013427
1635	8.1700e-01	3.6573	-0.418004	0.000359	3.591230	0.608371	-0.007184
1636	8.1750e-01	3.6452	-0.451786	0.000338	3.377467	0.572158	-0.006756
1637	8.1800e-01	3.6342	-0.506522	0.000547	5.472351	0.927041	-0.010947
1638	8.1850e-01	3.6234	-0.538594	0.000321	3.206456	0.543188	-0.006414
1639	8.1900e-01	3.6164	-0.583067	0.000445	4.446285	0.753221	-0.008895
1640	8.1950e-01	3.6049	-0.630961	0.000479	4.788307	0.811161	-0.009579
1641	8.2000e-01	3.5959	-0.671158	0.000402	4.018758	0.680796	-0.008039
1642	8.2050e-01	3.5858	-0.709644	0.000385	3.847747	0.651826	-0.007697
1643	8.2100e-01	3.5754	-0.752407	0.000428	4.275274	0.724251	-0.008553
1644	8.2150e-01	3.5632	-0.775071	0.000227	2.265895	0.383853	-0.004533
1645	8.2200e-01	3.5547	-0.831090	0.000560	5.600609	0.948769	-0.011204
1646	8.2250e-01	3.5426	-0.860168	0.000291	2.907186	0.492491	-0.005816
1647	8.2300e-01	3.5352	-0.905924	0.000457	4.574543	0.774949	-0.009151
1648	8.2350e-01	3.5266	-0.940134	0.000342	3.420219	0.579401	-0.006842
1649	8.2400e-01	3.5138	-0.991022	0.000509	5.087576	0.861859	-0.010177
1650	8.2450e-01	3.5059	-1.033784	0.000428	4.275274	0.724251	-0.008553
1651	8.2500e-01	3.4943	-1.067994	0.000342	3.420219	0.579401	-0.006842
1652	8.2550e-01	3.4821	-1.130855	0.000628	6.284653	1.064649	-0.012572
1653	8.2600e-01	3.4779	-1.161216	0.000304	3.035445	0.514218	-0.006072
1654	8.2650e-01	3.4658	-1.200558	0.000393	3.933252	0.666311	-0.007868
1655	8.2700e-01	3.4555	-1.255722	0.000552	5.515104	0.934284	-0.011033
1656	8.2750e-01	3.4485	-1.293353	0.000376	3.762241	0.637341	-0.007526
1657	8.2800e-01	3.4332	-1.348089	0.000547	5.472351	0.927041	-0.010947
1658	8.2850e-01	3.4286	-1.376312	0.000282	2.821681	0.478006	-0.005645
1659	8.2900e-01	3.4151	-1.411377	0.000351	3.505725	0.593886	-0.007013
1660	8.2950e-01	3.4082	-1.480225	0.000688	6.883191	1.166044	-0.013770
1661	8.3000e-01	3.3948	-1.514007	0.000338	3.377467	0.572158	-0.006756
1662	8.3050e-01	3.3856	-1.549500	0.000355	3.548478	0.601128	-0.007099
1663	8.3100e-01	3.3768	-1.589697	0.000402	4.018758	0.680796	-0.008039
1664	8.3150e-01	3.3661	-1.629466	0.000398	3.976005	0.673553	-0.007954
1665	8.3200e-01	3.3560	-1.678643	0.000492	4.916565	0.832889	-0.009835
1666	8.3250e-01	3.3451	-1.726965	0.000483	4.831060	0.818404	-0.009664
1667	8.3300e-01	3.3344	-1.760747	0.000338	3.377467	0.572158	-0.006756
1668	8.3350e-01	3.3241	-1.783839	0.000231	2.308648	0.391096	-0.004618
1669	8.3400e-01	3.3176	-1.839858	0.000560	5.600609	0.948769	-0.011204
1670	8.3450e-01	3.3067	-1.891600	0.000517	5.173082	0.876344	-0.010349
1671	8.3500e-01	3.2973	-1.939494	0.000479	4.788307	0.811161	-0.009579
1672	8.3550e-01	3.2864	-2.005349	0.000658	6.583922	1.115347	-0.013171
1673	8.3600e-01	3.2752	-2.028868	0.000235	2.351401	0.398338	-0.004704
1674	8.3650e-01	3.2678	-2.067782	0.000389	3.890500	0.659068	-0.007783
1675	8.3700e-01	3.2568	-2.113966	0.000462	4.617296	0.782191	-0.009237
1676	8.3750e-01	3.2455	-2.149031	0.000351	3.505725	0.593886	-0.007013
1677	8.3800e-01	3.2329	-2.199491	0.000504	5.044824	0.854616	-0.010092
1678	8.3850e-01	3.2257	-2.251233	0.000517	5.173082	0.876344	-0.010349
1679	8.3900e-01	3.2142	-2.285443	0.000342	3.420219	0.579401	-0.006842
1680	8.3950e-01	3.2050	-2.328206	0.000428	4.275274	0.724251	-0.008553
1681	8.4000e-01	3.1971	-2.355574	0.000274	2.736175	0.463521	-0.005474
1682	8.4050e-01	3.1866	-2.402613	0.000470	4.702802	0.796676	-0.009408
1683	8.4100e-01	3.1729	-2.445375	0.000428	4.275274	0.724251	-0.008553
1684	8.4150e-01	3.1635	-2.513368	0.000680	6.797686	1.151559	-0.013598
1685	8.4200e-01	3.1566	-2.546295	0.000329	3.291961	0.557673	-0.006585
1686	8.4250e-01	3.1447	-2.562972	0.000167	1.667357	0.282458	-0.003335
1687	8.4300e-01	3.1342	-2.634386	0.000714	7.139708	1.209499	-0.014283
1688	8.4350e-01	3.1242	-2.683562	0.000492	4.916565	0.832889	-0.009835
1689	8.4400e-01	3.1172	-2.719055	0.000355	3.548478	0.601128	-0.007099
1690	8.4450e-01	3.1067	-2.771653	0.000526	5.258587	0.890829	-0.010520
1691	8.4500e-01	3.0977	-2.805008	0.000333	3.334714	0.564916	-0.006671
1692	8.4550e-01	3.0862	-2.867441	0.000624	6.241900	1.057407	-0.012487
1693	8.4600e-01	3.0744	-2.888823	0.000214	2.137637	0.362126	-0.004276
1694	8.4650e-01	3.0630	-2.939282	0.000504	5.044824	0.854616	-0.010092
1695	8.4700e-01	3.0539	-2.969644	0.000304	3.035445	0.514218	-0.006072
1696	8.4750e-01	3.0432	-3.020959	0.000513	5.130329	0.869101	-0.010263
1697	8.4800e-01	3.0338	-3.070563	0.000496	4.959318	0.840131	-0.009921
1698	8.4850e-01	3.0289	-3.109050	0.000385	3.847747	0.651826	-0.007697
1699	8.4900e-01	3.0142	-3.170628	0.000616	6.156395	1.042922	-0.012316
1700	8.4950e-01	3.0029	-3.211680	0.000410	4.104263	0.695281	-0.008210
1701	8.5000e-01	2.9970	-3.238620	0.000269	2.693423	0.456278	-0.005388
1702	8.5050e-01	2.9880	-3.295922	0.000573	5.728867	0.970496	-0.011460
1703	8.5100e-01	2.9752	-3.334408	0.000385	3.847747	0.651826	-0.007697
1704	8.5150e-01	2.9633	-3.371611	0.000372	3.719489	0.630098	-0.007441
1705	8.5200e-01	2.9585	-3.425492	0.000539	5.386846	0.912556	-0.010776
1706	8.5250e-01	2.9459	-3.459275	0.000338	3.377467	0.572158	-0.006756
1707	8.5300e-01	2.9376	-3.533254	0.000740	7.396224	1.252954	-0.014796
1708	8.5350e-01	2.9237	-3.562332	0.000291	2.907186	0.492491	-0.005816
1709	8.5400e-01	2.9138	-3.606805	0.000445	4.446285	0.753221	-0.008895
1710	8.5450e-01	2.9045	-3.644436	0.000376	3.762241	0.637341	-0.007526
1711	8.5500e-01	2.8960	-3.685916	0.000415	4.147016	0.702524	-0.008296
1712	8.5550e-01	2.8867	-3.728251	0.000423	4.232521	0.717009	-0.008467
1713	8.5600e-01	2.8738	-3.768875	0.000406	4.061511	0.688039	-0.008125
1714	8.5650e-01	2.8635	-3.821046	0.000522	5.215835	0.883586	-0.010434
1715	8.5700e-01	2.8552	-3.870223	0.000492	4.916565	0.832889	-0.009835
1716	8.5750e-01	2.8458	-3.921965	0.000517	5.173082	0.876344	-0.010349
1717	8.5800e-01	2.8352	-3.971997	0.000500	5.002071	0.847374	-0.010006
1718	8.5850e-01	2.8250	-4.002359	0.000304	3.035445	0.514218	-0.006072
1719	8.5900e-01	2.8162	-4.028872	0.000265	2.650670	0.449036	-0.005303
1720	8.5950e-01	2.8053	-4.102851	0.000740	7.396224	1.252954	-0.014796
1721	8.6000e-01	2.7927	-4.133640	0.000308	3.078197	0.521461	-0.006158
1722	8.6050e-01	2.7838	-4.183244	0.000496	4.959318	0.840131	-0.009921
1723	8.6100e-01	2.7750	-4.237980	0.000547	5.472351	0.927041	-0.010947
1724	8.6150e-01	2.7674	-4.273046	0.000351	3.505725	0.593886	-0.007013
1725	8.6200e-01	2.7571	-4.335906	0.000628	6.284653	1.064649	-0.012572
1726	8.6250e-01	2.7472	-4.355150	0.000192	1.923873	0.325913	-0.003849
1727	8.6300e-01	2.7394	-4.418011	0.000628	6.284653	1.064649	-0.012572
1728	8.6350e-01	2.7237	-4.456069	0.000380	3.804994	0.644583	-0.007612
1729	8.6400e-01	2.7173	-4.513371	0.000573	5.728867	0.970496	-0.011460
1730	8.6450e-01	2.7057	-4.546726	0.000333	3.334714	0.564916	-0.006671
1731	8.6500e-01	2.6952	-4.577942	0.000312	3.120950	0.528703	-0.006243
1732	8.6550e-01	2.6874	-4.644224	0.000663	6.626675	1.122589	-0.013256
1733	8.6600e-01	2.6752	-4.673730	0.000295	2.949939	0.499733	-0.005901
1734	8.6650e-01	2.6662	-4.740868	0.000671	6.712181	1.137074	-0.013427
1735	8.6700e-01	2.6569	-4.778926	0.000380	3.804994	0.644583	-0.007612
1736	8.6750e-01	2.6472	-4.828531	0.000496	4.959318	0.840131	-0.009921
1737	8.6800e-01	2.6349	-4.872149	0.000436	4.360780	0.738736	-0.008724
1738	8.6850e-01	2.6256	-4.908069	0.000359	3.591230	0.608371	-0.007184
1739	8.6900e-01	2.6160	-4.960667	0.000526	5.258587	0.890829	-0.010520
1740	8.6950e-01	2.6038	-5.012410	0.000517	5.173082	0.876344	-0.010349
1741	8.7000e-01	2.5946	-5.052179	0.000398	3.976005	0.673553	-0.007954
1742	8.7050e-01	2.5847	-5.110336	0.000581	5.814373	0.984981	-0.011631
1743	8.7100e-01	2.5742	-5.138987	0.000286	2.864434	0.485248	-0.005730
1744	8.7150e-01	2.5639	-5.182605	0.000436	4.360780	0.738736	-0.008724
1745	8.7200e-01	2.5546	-5.233920	0.000513	5.130329	0.869101	-0.010263
1746	8.7250e-01	2.5439	-5.293787	0.000599	5.985384	1.013951	-0.011974
1747	8.7300e-01	2.5339	-5.325859	0.000321	3.206456	0.543188	-0.006414
1748	8.7350e-01	2.5255	-5.368194	0.000423	4.232521	0.717009	-0.008467
1749	8.7400e-01	2.5132	-5.425496	0.000573	5.728867	0.970496	-0.011460
1750	8.7450e-01	2.5064	-5.477238	0.000517	5.173082	0.876344	-0.010349
1751	8.7500e-01	2.4945	-5.501185	0.000239	2.394154	0.405581	-0.004789
1752	8.7550e-01	2.4864	-5.541382	0.000402	4.018758	0.680796	-0.008039
1753	8.7600e-01	2.4763	-5.604671	0.000633	6.327406	1.071892	-0.012658
1754	8.7650e-01	2.4659	-5.657696	0.000530	5.301340	0.898071	-0.010605
1755	8.7700e-01	2.4552	-5.687202	0.000295	2.949939	0.499733	-0.005901
1756	8.7750e-01	2.4469	-5.743649	0.000564	5.643362	0.956011	-0.011289
1757	8.7800e-01	2.4356	-5.789832	0.000462	4.617296	0.782191	-0.009237
1758	8.7850e-01	2.4259	-5.839009	0.000492	4.916565	0.832889	-0.009835
1759	8.7900e-01	2.4164	-5.892890	0.000539	5.386846	0.912556	-0.010776
1760	8.7950e-01	2.4042	-5.942067	0.000492	4.916565	0.832889	-0.009835
1761	8.8000e-01	2.3944	-5.981409	0.000393	3.933252	0.666311	-0.007868
1762	8.8050e-01	2.3847	-6.022461	0.000410	4.104263	0.695281	-0.008210
1763	8.8100e-01	2.3730	-6.066506	0.000440	4.403532	0.745979	-0.008809
1764	8.8150e-01	2.3672	-6.119531	0.000530	5.301340	0.898071	-0.010605
1765	8.8200e-01	2.3581	-6.167426	0.000479	4.788307	0.811161	-0.009579
1766	8.8250e-01	2.3444	-6.218313	0.000509	5.087576	0.861859	-0.010177
1767	8.8300e-01	2.3322	-6.263641	0.000453	4.531791	0.767706	-0.009066
1768	8.8350e-01	2.3235	-6.305548	0.000419	4.189769	0.709766	-0.008381
1769	8.8400e-01	2.3147	-6.372686	0.000671	6.712181	1.137074	-0.013427
1770	8.8450e-01	2.3056	-6.395777	0.000231	2.308648	0.391096	-0.004618
1771	8.8500e-01	2.2946	-6.459921	0.000641	6.412911	1.086377	-0.012829
1772	8.8550e-01	2.2858	-6.477454	0.000175	1.752862	0.296943	-0.003507
1773	8.8600e-01	2.2745	-6.538604	0.000611	6.113642	1.035679	-0.012230
1774	8.8650e-01	2.2645	-6.600610	0.000620	6.199148	1.050164	-0.012401
1775	8.8700e-01	2.2547	-6.629261	0.000286	2.864434	0.485248	-0.005730
1776	8.8750e-01	2.2462	-6.696826	0.000675	6.754933	1.144317	-0.013513
1777	8.8800e-01	2.2354	-6.743009	0.000462	4.617296	0.782191	-0.009237
1778	8.8850e-01	2.2256	-6.784916	0.000419	4.189769	0.709766	-0.008381
1779	8.8900e-01	2.2148	-6.833666	0.000487	4.873813	0.825646	-0.009750
1780	8.8950e-01	2.2054	-6.885408	0.000517	5.173082	0.876344	-0.010349
1781	8.9000e-01	2.1928	-6.945276	0.000599	5.985384	1.013951	-0.011974
1782	8.9050e-01	2.1844	-6.975210	0.000299	2.992692	0.506976	-0.005987
1783	8.9100e-01	2.1754	-7.025669	0.000504	5.044824	0.854616	-0.010092
1784	8.9150e-01	2.1655	-7.056031	0.000304	3.035445	0.514218	-0.006072
1785	8.9200e-01	2.1579	-7.107346	0.000513	5.130329	0.869101	-0.010263
1786	8.9250e-01	2.1451	-7.149253	0.000419	4.189769	0.709766	-0.008381
1787	8.9300e-01	2.1338	-7.206555	0.000573	5.728867	0.970496	-0.011460
1788	8.9350e-01	2.1268	-7.271554	0.000650	6.498417	1.100862	-0.013000
1789	8.9400e-01	2.1159	-7.308757	0.000372	3.719489	0.630098	-0.007441
1790	8.9450e-01	2.1042	-7.333987	0.000252	2.522412	0.427308	-0.005046
1791	8.9500e-01	2.0975	-7.412670	0.000787	7.866505	1.332622	-0.015737
1792	8.9550e-01	2.0874	-7.419512	0.000068	0.684044	0.115880	-0.001368
1793	8.9600e-01	2.0744	-7.497768	0.000782	7.823752	1.325379	-0.015651
1794	8.9650e-01	2.0663	-7.531123	0.000333	3.334714	0.564916	-0.006671
1795	8.9700e-01	2.0570	-7.585431	0.000543	5.429598	0.919799	-0.010862
1796	8.9750e-01	2.0448	-7.655561	0.000701	7.011450	1.187772	-0.014026
1797	8.9800e-01	2.0334	-7.694475	0.000389	3.890500	0.659068	-0.007783
1798	8.9850e-01	2.0248	-7.735527	0.000410	4.104263	0.695281	-0.008210
1799	8.9900e-01	2.0166	-7.777435	0.000419	4.189769	0.709766	-0.008381
1800	8.9950e-01	2.0056	-7.831315	0.000539	5.386846	0.912556	-0.010776
1801	9.0000e-01	1.9962	-7.865098	0.000338	3.377467	0.572158	-0.006756
1802	9.0050e-01	1.9837	-7.923255	0.000581	5.814373	0.984981	-0.011631
1803	9.0100e-01	1.9746	-7.974142	0.000509	5.087576	0.861859	-0.010177
1804	9.0150e-01	1.9649	-8.023319	0.000492	4.916565	0.832889	-0.009835
1805	9.0200e-01	1.9544	-8.058812	0.000355	3.548478	0.601128	-0.007099
1806	9.0250e-01	1.9459	-8.137923	0.000791	7.909257	1.339864	-0.015822
1807	9.0300e-01	1.9355	-8.170422	0.000325	3.249208	0.550431	-0.006500
1808	9.0350e-01	1.9238	-8.223875	0.000534	5.344093	0.905314	-0.010691
1809	9.0400e-01	1.9164	-8.254664	0.000308	3.078197	0.521461	-0.006158
1810	9.0450e-01	1.9037	-8.324367	0.000697	6.968697	1.180529	-0.013941
1811	9.0500e-01	1.8939	-8.367985	0.000436	4.360780	0.738736	-0.008724
1812	9.0550e-01	1.8842	-8.429991	0.000620	6.199148	1.050164	-0.012401
1813	9.0600e-01	1.8759	-8.452655	0.000227	2.265895	0.383853	-0.004533
1814	9.0650e-01	1.8634	-8.515516	0.000628	6.284653	1.064649	-0.012572
1815	9.0700e-01	1.8542	-8.555285	0.000398	3.976005	0.673553	-0.007954
1816	9.0750e-01	1.8475	-8.607883	0.000526	5.258587	0.890829	-0.010520
1817	9.0800e-01	1.8353	-8.644231	0.000363	3.633983	0.615613	-0.007270
1818	9.0850e-01	1.8256	-8.706664	0.000624	6.241900	1.057407	-0.012487
1819	9.0900e-01	1.8124	-8.768670	0.000620	6.199148	1.050164	-0.012401
1820	9.0950e-01	1.8051	-8.811005	0.000423	4.232521	0.717009	-0.008467
1821	9.1000e-01	1.7957	-8.849491	0.000385	3.847747	0.651826	-0.007697
1822	9.1050e-01	1.7847	-8.901662	0.000522	5.215835	0.883586	-0.010434
1823	9.1100e-01	1.7747	-8.960674	0.000590	5.899878	0.999466	-0.011802
1824	9.1150e-01	1.7682	-9.017120	0.000564	5.643362	0.956011	-0.011289
1825	9.1200e-01	1.7562	-9.044061	0.000269	2.693423	0.456278	-0.005388
1826	9.1250e-01	1.7456	-9.101363	0.000573	5.728867	0.970496	-0.011460
1827	9.1300e-01	1.7326	-9.145836	0.000445	4.446285	0.753221	-0.008895
1828	9.1350e-01	1.7245	-9.217249	0.000714	7.139708	1.209499	-0.014283
1829	9.1400e-01	1.7155	-9.246328	0.000291	2.907186	0.492491	-0.005816
1830	9.1450e-01	1.7052	-9.315603	0.000693	6.925944	1.173287	-0.013855
1831	9.1500e-01	1.6970	-9.364352	0.000487	4.873813	0.825646	-0.009750
1832	9.1550e-01	1.6857	-9.389154	0.000248	2.479659	0.420066	-0.004960
1833	9.1600e-01	1.6751	-9.452443	0.000633	6.327406	1.071892	-0.012658
1834	9.1650e-01	1.6651	-9.503758	0.000513	5.130329	0.869101	-0.010263
1835	9.1700e-01	1.6594	-9.557639	0.000539	5.386846	0.912556	-0.010776
1836	9.1750e-01	1.6452	-9.582869	0.000252	2.522412	0.427308	-0.005046
1837	9.1800e-01	1.6348	-9.660696	0.000778	7.780999	1.318137	-0.015566
1838	9.1850e-01	1.6243	-9.706025	0.000453	4.531791	0.767706	-0.009066
1839	9.1900e-01	1.6147	-9.746221	0.000402	4.018758	0.680796	-0.008039
1840	9.1950e-01	1.6042	-9.809510	0.000633	6.327406	1.071892	-0.012658
1841	9.2000e-01	1.5927	-9.851417	0.000419	4.189769	0.709766	-0.008381
1842	9.2050e-01	1.5872	-9.891614	0.000402	4.018758	0.680796	-0.008039
1843	9.2100e-01	1.5744	-9.950199	0.000586	5.857126	0.992224	-0.011717
1844	9.2150e-01	1.5649	-10.018619	0.000684	6.840439	1.158802	-0.013684
1845	9.2200e-01	1.5553	-10.051974	0.000333	3.334714	0.564916	-0.006671
1846	9.2250e-01	1.5430	-10.095164	0.000432	4.318027	0.731494	-0.008638
1847	9.2300e-01	1.5356	-10.159307	0.000641	6.412911	1.086377	-0.012829
1848	9.2350e-01	1.5237	-10.205063	0.000457	4.574543	0.774949	-0.009151
1849	9.2400e-01	1.5161	-10.237135	0.000321	3.206456	0.543188	-0.006414
1850	9.2450e-01	1.5042	-10.297003	0.000599	5.985384	1.013951	-0.011974
1851	9.2500e-01	1.4949	-10.351311	0.000543	5.429598	0.919799	-0.010862
1852	9.2550e-01	1.4853	-10.408613	0.000573	5.728867	0.970496	-0.011460
1853	9.2600e-01	1.4727	-10.446672	0.000380	3.804994	0.644583	-0.007612
1854	9.2650e-01	1.4651	-10.489434	0.000428	4.275274	0.724251	-0.008553
1855	9.2700e-01	1.4539	-10.572821	0.000834	8.336785	1.412290	-0.016677
1856	9.2750e-01	1.4452	-10.608742	0.000359	3.591230	0.608371	-0.007184
1857	9.2800e-01	1.4336	-10.657491	0.000487	4.873813	0.825646	-0.009750
1858	9.2850e-01	1.4268	-10.692984	0.000355	3.548478	0.601128	-0.007099
1859	9.2900e-01	1.4151	-10.740878	0.000479	4.788307	0.811161	-0.009579
1860	9.2950e-01	1.4043	-10.800745	0.000599	5.985384	1.013951	-0.011974
1861	9.3000e-01	1.3926	-10.854199	0.000534	5.344093	0.905314	-0.010691
1862	9.3050e-01	1.3864	-10.907224	0.000530	5.301340	0.898071	-0.010605
1863	9.3100e-01	1.3759	-10.960677	0.000534	5.344093	0.905314	-0.010691
1864	9.3150e-01	1.3637	-11.007716	0.000470	4.702802	0.796676	-0.009408
1865	9.3200e-01	1.3539	-11.076564	0.000688	6.883191	1.166044	-0.013770
1866	9.3250e-01	1.3453	-11.108636	0.000321	3.206456	0.543188	-0.006414
1867	9.3300e-01	1.3354	-11.168931	0.000603	6.028137	1.021194	-0.012059
1868	9.3350e-01	1.3278	-11.211693	0.000428	4.275274	0.724251	-0.008553
1869	9.3400e-01	1.3118	-11.277120	0.000654	6.541170	1.108104	-0.013085
1870	9.3450e-01	1.3042	-11.317744	0.000406	4.061511	0.688039	-0.008125
1871	9.3500e-01	1.2952	-11.375046	0.000573	5.728867	0.970496	-0.011460
1872	9.3550e-01	1.2839	-11.427644	0.000526	5.258587	0.890829	-0.010520
1873	9.3600e-01	1.2746	-11.473828	0.000462	4.617296	0.782191	-0.009237
1874	9.3650e-01	1.2646	-11.511459	0.000376	3.762241	0.637341	-0.007526
1875	9.3700e-01	1.2562	-11.568760	0.000573	5.728867	0.970496	-0.011460
1876	9.3750e-01	1.2440	-11.620931	0.000522	5.215835	0.883586	-0.010434
1877	9.3800e-01	1.2338	-11.664121	0.000432	4.318027	0.731494	-0.008638
1878	9.3850e-01	1.2273	-11.725271	0.000611	6.113642	1.035679	-0.012230
1879	9.3900e-01	1.2160	-11.762902	0.000376	3.762241	0.637341	-0.007526
1880	9.3950e-01	1.2067	-11.838592	0.000757	7.567235	1.281924	-0.015138
1881	9.4000e-01	1.1979	-11.870664	0.000321	3.206456	0.543188	-0.006414
1882	9.4050e-01	1.1848	-11.931814	0.000611	6.113642	1.035679	-0.012230
1883	9.4100e-01	1.1764	-11.965597	0.000338	3.377467	0.572158	-0.006756
1884	9.4150e-01	1.1661	-12.039576	0.000740	7.396224	1.252954	-0.014796
1885	9.4200e-01	1.1588	-12.093029	0.000534	5.344093	0.905314	-0.010691
1886	9.4250e-01	1.1462	-12.148193	0.000552	5.515104	0.934284	-0.011033
1887	9.4300e-01	1.1369	-12.203356	0.000552	5.515104	0.934284	-0.011033
1888	9.4350e-01	1.1261	-12.254671	0.000513	5.130329	0.869101	-0.010263
1889	9.4400e-01	1.1174	-12.303421	0.000487	4.873813	0.825646	-0.009750
1890	9.4450e-01	1.1051	-12.335065	0.000316	3.163703	0.535946	-0.006329
1891	9.4500e-01	1.0979	-12.397926	0.000628	6.284653	1.064649	-0.012572
1892	9.4550e-01	1.0835	-12.451807	0.000539	5.386846	0.912556	-0.010776
1893	9.4600e-01	1.0759	-12.500556	0.000487	4.873813	0.825646	-0.009750
1894	9.4650e-01	1.0661	-12.553581	0.000530	5.301340	0.898071	-0.010605
1895	9.4700e-01	1.0570	-12.618580	0.000650	6.498417	1.100862	-0.013000
1896	9.4750e-01	1.0469	-12.658350	0.000398	3.976005	0.673553	-0.007954
1897	9.4800e-01	1.0348	-12.706671	0.000483	4.831060	0.818404	-0.009664
1898	9.4850e-01	1.0249	-12.757131	0.000504	5.044824	0.854616	-0.010092
1899	9.4900e-01	1.0162	-12.817426	0.000603	6.028137	1.021194	-0.012059
1900	9.4950e-01	1.0038	-12.885846	0.000684	6.840439	1.158802	-0.013684
1901	9.5000e-01	0.9950	-12.929464	0.000436	4.360780	0.738736	-0.008724
1902	9.5050e-01	0.9874	-12.976075	0.000466	4.660049	0.789434	-0.009322
1903	9.5100e-01	0.9731	-13.036798	0.000607	6.070889	1.028437	-0.012145
1904	9.5150e-01	0.9641	-13.073574	0.000368	3.676736	0.622856	-0.007355
1905	9.5200e-01	0.9561	-13.140283	0.000667	6.669428	1.129832	-0.013342
1906	9.5250e-01	0.9440	-13.160382	0.000201	2.009379	0.340398	-0.004020
1907	9.5300e-01	0.9335	-13.234361	0.000740	7.396224	1.252954	-0.014796
1908	9.5350e-01	0.9268	-13.278834	0.000445	4.446285	0.753221	-0.008895
1909	9.5400e-01	0.9172	-13.339984	0.000611	6.113642	1.035679	-0.012230
1910	9.5450e-01	0.9035	-13.390016	0.000500	5.002071	0.847374	-0.010006
1911	9.5500e-01	0.8968	-13.432779	0.000428	4.275274	0.724251	-0.008553
1912	9.5550e-01	0.8867	-13.508469	0.000757	7.567235	1.281924	-0.015138
1913	9.5600e-01	0.8751	-13.552942	0.000445	4.446285	0.753221	-0.008895
1914	9.5650e-01	0.8679	-13.594849	0.000419	4.189769	0.709766	-0.008381
1915	9.5700e-01	0.8578	-13.667973	0.000731	7.310719	1.238469	-0.014625
1916	9.5750e-01	0.8447	-13.700900	0.000329	3.291961	0.557673	-0.006585
1917	9.5800e-01	0.8379	-13.764189	0.000633	6.327406	1.071892	-0.012658
1918	9.5850e-01	0.8257	-13.839023	0.000748	7.481730	1.267439	-0.014967
1919	9.5900e-01	0.8151	-13.880503	0.000415	4.147016	0.702524	-0.008296
1920	9.5950e-01	0.8063	-13.930535	0.000500	5.002071	0.847374	-0.010006
1921	9.6000e-01	0.7948	-13.997244	0.000667	6.669428	1.129832	-0.013342
1922	9.6050e-01	0.7827	-14.031027	0.000338	3.377467	0.572158	-0.006756
1923	9.6100e-01	0.7742	-14.076783	0.000457	4.574543	0.774949	-0.009151
1924	9.6150e-01	0.7635	-14.116979	0.000402	4.018758	0.680796	-0.008039
1925	9.6200e-01	0.7558	-14.192241	0.000752	7.524483	1.274682	-0.015052
1926	9.6250e-01	0.7462	-14.232011	0.000398	3.976005	0.673553	-0.007954
1927	9.6300e-01	0.7356	-14.310694	0.000787	7.866505	1.332622	-0.015737
1928	9.6350e-01	0.7281	-14.357732	0.000470	4.702802	0.796676	-0.009408
1929	9.6400e-01	0.7135	-14.400923	0.000432	4.318027	0.731494	-0.008638
1930	9.6450e-01	0.7053	-14.460362	0.000594	5.942631	1.006709	-0.011888
1931	9.6500e-01	0.6971	-14.509112	0.000487	4.873813	0.825646	-0.009750
1932	9.6550e-01	0.6873	-14.560427	0.000513	5.130329	0.869101	-0.010263
1933	9.6600e-01	0.6760	-14.604045	0.000436	4.360780	0.738736	-0.008724
1934	9.6650e-01	0.6677	-14.657925	0.000539	5.386846	0.912556	-0.010776
1935	9.6700e-01	0.6544	-14.715655	0.000577	5.771620	0.977739	-0.011546
1936	9.6750e-01	0.6454	-14.757990	0.000423	4.232521	0.717009	-0.008467
1937	9.6800e-01	0.6364	-14.819568	0.000616	6.156395	1.042922	-0.012316
1938	9.6850e-01	0.6226	-14.878580	0.000590	5.899878	0.999466	-0.011802
1939	9.6900e-01	0.6147	-14.941013	0.000624	6.241900	1.057407	-0.012487
1940	9.6950e-01	0.6060	-14.993184	0.000522	5.215835	0.883586	-0.010434
1941	9.7000e-01	0.5967	-15.045354	0.000522	5.215835	0.883586	-0.010434
1942	9.7050e-01	0.5868	-15.105649	0.000603	6.028137	1.021194	-0.012059
1943	9.7100e-01	0.5752	-15.155254	0.000496	4.959318	0.840131	-0.009921
1944	9.7150e-01	0.5647	-15.191174	0.000359	3.591230	0.608371	-0.007184
1945	9.7200e-01	0.5570	-15.242917	0.000517	5.173082	0.876344	-0.010349
1946	9.7250e-01	0.5463	-15.297653	0.000547	5.472351	0.927041	-0.010947
1947	9.7300e-01	0.5363	-15.373342	0.000757	7.567235	1.281924	-0.015138
1948	9.7350e-01	0.5238	-15.413539	0.000402	4.018758	0.680796	-0.008039
1949	9.7400e-01	0.5157	-15.484953	0.000714	7.139708	1.209499	-0.014283
1950	9.7450e-01	0.5037	-15.522584	0.000376	3.762241	0.637341	-0.007526
1951	9.7500e-01	0.4957	-15.567057	0.000445	4.446285	0.753221	-0.008895
1952	9.7550e-01	0.4840	-15.647450	0.000804	8.037516	1.361592	-0.016079
1953	9.7600e-01	0.4762	-15.697910	0.000504	5.044824	0.854616	-0.010092
1954	9.7650e-01	0.4651	-15.753501	0.000556	5.557856	0.941526	-0.011118
1955	9.7700e-01	0.4555	-15.792843	0.000393	3.933252	0.666311	-0.007868
1956	9.7750e-01	0.4450	-15.846296	0.000534	5.344093	0.905314	-0.010691
1957	9.7800e-01	0.4367	-15.884782	0.000385	3.847747	0.651826	-0.007697
1958	9.7850e-01	0.4251	-15.960044	0.000752	7.524483	1.274682	-0.015052
1959	9.7900e-01	0.4183	-16.012215	0.000522	5.215835	0.883586	-0.010434
1960	9.7950e-01	0.4037	-16.079779	0.000675	6.754933	1.144317	-0.013513
1961	9.8000e-01	0.3955	-16.113989	0.000342	3.420219	0.579401	-0.006842
1962	9.8050e-01	0.3834	-16.173002	0.000590	5.899878	0.999466	-0.011802
1963	9.8100e-01	0.3747	-16.235007	0.000620	6.199148	1.050164	-0.012401
1964	9.8150e-01	0.3649	-16.282474	0.000475	4.745554	0.803919	-0.009493
1965	9.8200e-01	0.3545	-16.334644	0.000522	5.215835	0.883586	-0.010434
1966	9.8250e-01	0.3460	-16.397077	0.000624	6.241900	1.057407	-0.012487
1967	9.8300e-01	0.3349	-16.439412	0.000423	4.232521	0.717009	-0.008467
1968	9.8350e-01	0.3247	-16.493721	0.000543	5.429598	0.919799	-0.010862
1969	9.8400e-01	0.3123	-16.548457	0.000547	5.472351	0.927041	-0.010947
1970	9.8450e-01	0.3040	-16.623719	0.000752	7.524483	1.274682	-0.015052
1971	9.8500e-01	0.2956	-16.682303	0.000586	5.857126	0.992224	-0.011717
1972	9.8550e-01	0.2863	-16.721645	0.000393	3.933252	0.666311	-0.007868
1973	9.8600e-01	0.2766	-16.787499	0.000658	6.583922	1.115347	-0.013171
1974	9.8650e-01	0.2660	-16.830689	0.000432	4.318027	0.731494	-0.008638
1975	9.8700e-01	0.2551	-16.883287	0.000526	5.258587	0.890829	-0.010520
1976	9.8750e-01	0.2444	-16.941444	0.000581	5.814373	0.984981	-0.011631
1977	9.8800e-01	0.2354	-16.994897	0.000534	5.344093	0.905314	-0.010691
1978	9.8850e-01	0.2224	-17.047068	0.000522	5.215835	0.883586	-0.010434
1979	9.8900e-01	0.2160	-17.108646	0.000616	6.156395	1.042922	-0.012316
1980	9.8950e-01	0.2040	-17.155685	0.000470	4.702802	0.796676	-0.009408
1981	9.9000e-01	0.1958	-17.231374	0.000757	7.567235	1.281924	-0.015138
1982	9.9050e-01	0.1842	-17.289959	0.000586	5.857126	0.992224	-0.011717
1983	9.9100e-01	0.1754	-17.310913	0.000209	2.094884	0.354883	-0.004191
1984	9.9150e-01	0.1656	-17.374629	0.000637	6.370159	1.079134	-0.012743
1985	9.9200e-01	0.1523	-17.464858	0.000902	9.020829	1.528170	-0.018046
1986	9.9250e-01	0.1440	-17.499068	0.000342	3.420219	0.579401	-0.006842
1987	9.9300e-01	0.1334	-17.557652	0.000586	5.857126	0.992224	-0.011717
1988	9.9350e-01	0.1249	-17.608967	0.000513	5.130329	0.869101	-0.010263
1989	9.9400e-01	0.1203	-17.661565	0.000526	5.258587	0.890829	-0.010520
1990	9.9450e-01	0.1051	-17.725281	0.000637	6.370159	1.079134	-0.012743
1991	9.9500e-01	0.0965	-17.777024	0.000517	5.173082	0.876344	-0.010349
1992	9.9550e-01	0.0840	-17.824063	0.000470	4.702802	0.796676	-0.009408
1993	9.9600e-01	0.0752	-17.898042	0.000740	7.396224	1.252954	-0.014796
1994	9.9650e-01	0.0636	-17.929259	0.000312	3.120950	0.528703	-0.006243
1995	9.9700e-01	0.0561	-17.990409	0.000611	6.113642	1.035679	-0.012230
1996	9.9750e-01	0.0443	-18.042579	0.000522	5.215835	0.883586	-0.010434
1997	9.9800e-01	0.0346	-18.107151	0.000646	6.455664	1.093619	-0.012914
1998	9.9850e-01	0.0237	-18.155900	0.000487	4.873813	0.825646	-0.009750
1999	9.9900e-01	0.0141	-18.223893	0.000680	6.797686	1.151559	-0.013598
2000	9.9950e-01	0.0052	-18.266655	0.000428	4.275274	0.724251	-0.008553
2001	1.0000e+00	-0.0051	-18.329944	0.000428	4.275274	0.724251	-0.012658

PMax (uC/cm2):	4.05e+01
Pr (uC/cm2):	1.92e+00
-Pr (uC/cm2):	0.00e+00
PLoss (uC/cm2):	0.00e+00
C (Max-Eff) (nF):	4.05e-01
K (Eff):	6.86e+02
Vert. (+/-Pr) Shift (uC/cm2):	9.61e-01
Offset (uC/cm2):	2.03e+01

A (Loop Area - uC/cm2·Volts):	-2.08e-02



Hysteresis Version: 5.48.1 - Radiant Technologies, Inc., 1999 - 9/12/24

