»»»»»»»»»»»»»»»»»»»»»»»»»»»»»»»»»»»» Hysteresis ««««««««««««««««««««««««««««««««««««
»»»  Executed Version:	5.48.1
»»»  Vision Version:	5.48.4 (R)
»»»  Vision Compiled:	9/18/24
»»»  Driver Version:	5.47.0
»»»  Windows Version:	Windows 8 or 8.1
»»»  Processor Information:	x86 (AMD or Intel) - 32 Processors
»»»  Tester Name:	PMF21124-494 (100V)
»»»  Tester S/N:	PMF21124-494
»»»  Internal Amp Type:	100V RevK 270k
»»»  Internal Amp S/N:	iAB2-596/K     
»»»  Execution Count:	1
»»»»»»»»»»»»»»»»»»»»»»»»»»»»»»»»»»»»»»»»»»««««««««««««««««««««««««««««««««««««««««««

Stored:	6/30/2025 - 14:17:30
Configured:	06/30/25 10:19:58 AM
Executed:	06/30/25 02:17:07 PM

»»»»»»»»»»»»»»»»»»»»»»»»»»»»»»»»»»» Sample Info ««««««««««««««««««««««««««««««««««««
Sample Name:	
Lot Name:	
Wafer Name:	
Die Row/Column:	0/0
Capacitor Number:	0
Sample Area (cm2):	1.00e-04
Sample Thickness (microns):	1.50e-01

Amplifier:	Internal

»»»»»»»»»»»»»»»»»»»»»»»»»»»»»»»»»»» Tester Info «««««««««««««««««««««««««««««««««««
Tester Name:	PMF21124-494 (100V)
Tester Serial Number:	PMF21124-494
Return Signal Amp. Level:	1.79 [Index: 2]

»»»»»»»»»»»»»»»»»»»»»»»»»»»»»»»» Hysteresis Info ««««««««««««««««««««««««««««««««««
Task Name:	Hyst-1804
Volts:	10.00
Field:	666.67 (kV/cm)
DCBias:	0.00
DCField:	0.00 (kV/cm)
Hysteresis Period (ms):	1.00e+00
Preset:	Enabled
Preset Delay (ms):	1.00e+03
Profile:	Standard Monopolar

»»»»»»»»»»»»»»»»»»»»»»»»»»»»»»»»»»»»»» Data «««««««««««««««««««««««««««««««««««««««
Points:	2001

Valid Data

Point	Time (ms)	Drive Voltage	Measured Polarization (uC/cm2)	Capacitance (uF)	Normalized Capacitance (uF/cm2)	Dielectric Constant	Instantaneous Current (mA)
   1	0.0000e+00	-0.0046	-21.299801	0.000530	5.301421	0.898085	0.010605
   2	5.0000e-04	0.0050	-21.246776	0.000530	5.301421	0.898085	0.010605
   3	1.0000e-03	0.0137	-21.185625	0.000611	6.113735	1.035695	0.012230
   4	1.5000e-03	0.0261	-21.136876	0.000487	4.873887	0.825659	0.009750
   5	2.0000e-03	0.0359	-21.071449	0.000654	6.541269	1.108121	0.013085
   6	2.5000e-03	0.0456	-21.024838	0.000466	4.660120	0.789446	0.009322
   7	3.0000e-03	0.0542	-20.976944	0.000479	4.788380	0.811174	0.009579
   8	3.5000e-03	0.0664	-20.923491	0.000534	5.344174	0.905328	0.010691
   9	4.0000e-03	0.0759	-20.859347	0.000641	6.413009	1.086393	0.012829
  10	4.5000e-03	0.0857	-20.816585	0.000428	4.275339	0.724262	0.008553
  11	5.0000e-03	0.0959	-20.737902	0.000787	7.866625	1.332642	0.015737
  12	5.5000e-03	0.1070	-20.693428	0.000445	4.446353	0.753233	0.008895
  13	6.0000e-03	0.1163	-20.642113	0.000513	5.130407	0.869115	0.010263
  14	6.5000e-03	0.1223	-20.585667	0.000564	5.643448	0.956026	0.011289
  15	7.0000e-03	0.1353	-20.538628	0.000470	4.702873	0.796688	0.009408
  16	7.5000e-03	0.1464	-20.478761	0.000599	5.985475	1.013967	0.011974
  17	8.0000e-03	0.1577	-20.422742	0.000560	5.600695	0.948783	0.011204
  18	8.5000e-03	0.1652	-20.368861	0.000539	5.386928	0.912570	0.010776
  19	9.0000e-03	0.1751	-20.300013	0.000688	6.883296	1.166062	0.013770
  20	9.5000e-03	0.1849	-20.275639	0.000244	2.436943	0.412829	0.004875
  21	1.0000e-02	0.1958	-20.197383	0.000782	7.823871	1.325400	0.015651
  22	1.0500e-02	0.2052	-20.170870	0.000265	2.650710	0.449043	0.005303
  23	1.1000e-02	0.2177	-20.101595	0.000693	6.926050	1.173305	0.013855
  24	1.1500e-02	0.2248	-20.048997	0.000526	5.258668	0.890842	0.010520
  25	1.2000e-02	0.2357	-19.995972	0.000530	5.301421	0.898085	0.010605
  26	1.2500e-02	0.2450	-19.924986	0.000710	7.097063	1.202275	0.014197
  27	1.3000e-02	0.2539	-19.897618	0.000274	2.736217	0.463528	0.005474
  28	1.3500e-02	0.2656	-19.808244	0.000894	8.935459	1.513708	0.017875
  29	1.4000e-02	0.2763	-19.756929	0.000513	5.130407	0.869115	0.010263
  30	1.4500e-02	0.2862	-19.718870	0.000381	3.805052	0.644593	0.007612
  31	1.5000e-02	0.2944	-19.672687	0.000462	4.617367	0.782203	0.009237
  32	1.5500e-02	0.3047	-19.620517	0.000522	5.215914	0.883600	0.010434
  33	1.6000e-02	0.3172	-19.540551	0.000799	7.994885	1.354370	0.015993
  34	1.6500e-02	0.3239	-19.482821	0.000577	5.771708	0.977754	0.011546
  35	1.7000e-02	0.3382	-19.441342	0.000415	4.147079	0.702534	0.008296
  36	1.7500e-02	0.3449	-19.372922	0.000684	6.840543	1.158819	0.013684
  37	1.8000e-02	0.3564	-19.343415	0.000295	2.949984	0.499741	0.005901
  38	1.8500e-02	0.3665	-19.260456	0.000829	8.294159	1.405068	0.016592
  39	1.9000e-02	0.3764	-19.224963	0.000355	3.548532	0.601138	0.007099
  40	1.9500e-02	0.3835	-19.170655	0.000543	5.429681	0.919813	0.010862
  41	2.0000e-02	0.3969	-19.101380	0.000693	6.926050	1.173305	0.013855
  42	2.0500e-02	0.4081	-19.054341	0.000470	4.702873	0.796688	0.009408
  43	2.1000e-02	0.4141	-18.994901	0.000594	5.942722	1.006724	0.011888
  44	2.1500e-02	0.4276	-18.960263	0.000346	3.463025	0.586652	0.006928
  45	2.2000e-02	0.4366	-18.895692	0.000646	6.455763	1.093636	0.012914
  46	2.2500e-02	0.4449	-18.833686	0.000620	6.199242	1.050180	0.012401
  47	2.3000e-02	0.4563	-18.776384	0.000573	5.728955	0.970511	0.011460
  48	2.3500e-02	0.4662	-18.717372	0.000590	5.899968	0.999482	0.011802
  49	2.4000e-02	0.4783	-18.686583	0.000308	3.078244	0.521469	0.006158
  50	2.4500e-02	0.4865	-18.618163	0.000684	6.840543	1.158819	0.013684
  51	2.5000e-02	0.4959	-18.567703	0.000504	5.044901	0.854629	0.010092
  52	2.5500e-02	0.5059	-18.520664	0.000470	4.702873	0.796688	0.009408
  53	2.6000e-02	0.5173	-18.441981	0.000787	7.866625	1.332642	0.015737
  54	2.6500e-02	0.5252	-18.421028	0.000209	2.094916	0.354888	0.004191
  55	2.7000e-02	0.5347	-18.338924	0.000821	8.208652	1.390583	0.016421
  56	2.7500e-02	0.5437	-18.304286	0.000346	3.463025	0.586652	0.006928
  57	2.8000e-02	0.5573	-18.239287	0.000650	6.498516	1.100878	0.013000
  58	2.8500e-02	0.5653	-18.181985	0.000573	5.728955	0.970511	0.011460
  59	2.9000e-02	0.5777	-18.128104	0.000539	5.386928	0.912570	0.010776
  60	2.9500e-02	0.5860	-18.071230	0.000569	5.686201	0.963269	0.011375
  61	3.0000e-02	0.5972	-18.028040	0.000432	4.318093	0.731505	0.008638
  62	3.0500e-02	0.6049	-17.972021	0.000560	5.600695	0.948783	0.011204
  63	3.1000e-02	0.6176	-17.922417	0.000496	4.959394	0.840144	0.009921
  64	3.1500e-02	0.6264	-17.862977	0.000594	5.942722	1.006724	0.011888
  65	3.2000e-02	0.6368	-17.801826	0.000611	6.113735	1.035695	0.012230
  66	3.2500e-02	0.6470	-17.756498	0.000453	4.531860	0.767718	0.009066
  67	3.3000e-02	0.6554	-17.708604	0.000479	4.788380	0.811174	0.009579
  68	3.3500e-02	0.6689	-17.636335	0.000723	7.225324	1.224003	0.014454
  69	3.4000e-02	0.6769	-17.598277	0.000381	3.805052	0.644593	0.007612
  70	3.4500e-02	0.6871	-17.526436	0.000718	7.182570	1.216760	0.014368
  71	3.5000e-02	0.6954	-17.488377	0.000381	3.805052	0.644593	0.007612
  72	3.5500e-02	0.7063	-17.419529	0.000688	6.883296	1.166062	0.013770
  73	3.6000e-02	0.7121	-17.369070	0.000504	5.044901	0.854629	0.010092
  74	3.6500e-02	0.7253	-17.322886	0.000462	4.617367	0.782203	0.009237
  75	3.7000e-02	0.7355	-17.243775	0.000791	7.909378	1.339885	0.015822
  76	3.7500e-02	0.7462	-17.226670	0.000171	1.710136	0.289705	0.003421
  77	3.8000e-02	0.7567	-17.143283	0.000834	8.336912	1.412311	0.016677
  78	3.8500e-02	0.7655	-17.091968	0.000513	5.130407	0.869115	0.010263
  79	3.9000e-02	0.7774	-17.049206	0.000428	4.275339	0.724262	0.008553
  80	3.9500e-02	0.7850	-16.995325	0.000539	5.386928	0.912570	0.010776
  81	4.0000e-02	0.7970	-16.931181	0.000641	6.413009	1.086393	0.012829
  82	4.0500e-02	0.8056	-16.872597	0.000586	5.857215	0.992239	0.011717
  83	4.1000e-02	0.8177	-16.838814	0.000338	3.377518	0.572167	0.006756
  84	4.1500e-02	0.8262	-16.788782	0.000500	5.002147	0.847387	0.010006
  85	4.2000e-02	0.8358	-16.721645	0.000671	6.712283	1.137092	0.013427
  86	4.2500e-02	0.8450	-16.663916	0.000577	5.771708	0.977754	0.011546
  87	4.3000e-02	0.8558	-16.622008	0.000419	4.189833	0.709777	0.008381
  88	4.3500e-02	0.8643	-16.562141	0.000599	5.985475	1.013967	0.011974
  89	4.4000e-02	0.8746	-16.503128	0.000590	5.899968	0.999482	0.011802
  90	4.4500e-02	0.8863	-16.468491	0.000346	3.463025	0.586652	0.006928
  91	4.5000e-02	0.8980	-16.396650	0.000718	7.182570	1.216760	0.014368
  92	4.5500e-02	0.9043	-16.352177	0.000445	4.446353	0.753233	0.008895
  93	4.6000e-02	0.9166	-16.297441	0.000547	5.472434	0.927055	0.010947
  94	4.6500e-02	0.9277	-16.238428	0.000590	5.899968	0.999482	0.011802
  95	4.7000e-02	0.9350	-16.186258	0.000522	5.215914	0.883600	0.010434
  96	4.7500e-02	0.9508	-16.123825	0.000624	6.241996	1.057423	0.012487
  97	4.8000e-02	0.9560	-16.069516	0.000543	5.429681	0.919813	0.010862
  98	4.8500e-02	0.9668	-16.026326	0.000432	4.318093	0.731505	0.008638
  99	4.9000e-02	0.9739	-15.964748	0.000616	6.156489	1.042937	0.012316
 100	4.9500e-02	0.9863	-15.916427	0.000483	4.831134	0.818416	0.009664
 101	5.0000e-02	0.9973	-15.856987	0.000594	5.942722	1.006724	0.011888
 102	5.0500e-02	1.0073	-15.810375	0.000466	4.660120	0.789446	0.009322
 103	5.1000e-02	1.0153	-15.768896	0.000415	4.147079	0.702534	0.008296
 104	5.1500e-02	1.0262	-15.708173	0.000607	6.070982	1.028452	0.012145
 105	5.2000e-02	1.0381	-15.662417	0.000457	4.574613	0.774960	0.009151
 106	5.2500e-02	1.0457	-15.603832	0.000586	5.857215	0.992239	0.011717
 107	5.3000e-02	1.0573	-15.542682	0.000611	6.113735	1.035695	0.012230
 108	5.3500e-02	1.0676	-15.523867	0.000188	1.881149	0.318675	0.003763
 109	5.4000e-02	1.0782	-15.458012	0.000658	6.584023	1.115364	0.013171
 110	5.4500e-02	1.0874	-15.392158	0.000658	6.584023	1.115364	0.013171
 111	5.5000e-02	1.0980	-15.338705	0.000534	5.344174	0.905328	0.010691
 112	5.5500e-02	1.1069	-15.282258	0.000564	5.643448	0.956026	0.011289
 113	5.6000e-02	1.1141	-15.224101	0.000581	5.814462	0.984996	0.011631
 114	5.6500e-02	1.1255	-15.173214	0.000509	5.087654	0.861872	0.010177
 115	5.7000e-02	1.1368	-15.122326	0.000509	5.087654	0.861872	0.010177
 116	5.7500e-02	1.1447	-15.070584	0.000517	5.173161	0.876357	0.010349
 117	5.8000e-02	1.1583	-15.023973	0.000466	4.660120	0.789446	0.009322
 118	5.8500e-02	1.1661	-14.985914	0.000381	3.805052	0.644593	0.007612
 119	5.9000e-02	1.1774	-14.923908	0.000620	6.199242	1.050180	0.012401
 120	5.9500e-02	1.1866	-14.855488	0.000684	6.840543	1.158819	0.013684
 121	6.0000e-02	1.1954	-14.799469	0.000560	5.600695	0.948783	0.011204
 122	6.0500e-02	1.2112	-14.739174	0.000603	6.028229	1.021210	0.012059
 123	6.1000e-02	1.2177	-14.692135	0.000470	4.702873	0.796688	0.009408
 124	6.1500e-02	1.2256	-14.649800	0.000423	4.232586	0.717019	0.008467
 125	6.2000e-02	1.2370	-14.595920	0.000539	5.386928	0.912570	0.010776
 126	6.2500e-02	1.2453	-14.545888	0.000500	5.002147	0.847387	0.010006
 127	6.3000e-02	1.2548	-14.480888	0.000650	6.498516	1.100878	0.013000
 128	6.3500e-02	1.2670	-14.432139	0.000487	4.873887	0.825659	0.009750
 129	6.4000e-02	1.2760	-14.381252	0.000509	5.087654	0.861872	0.010177
 130	6.4500e-02	1.2845	-14.352601	0.000286	2.864477	0.485256	0.005730
 131	6.5000e-02	1.2958	-14.279905	0.000727	7.268077	1.231246	0.014539
 132	6.5500e-02	1.3092	-14.230300	0.000496	4.959394	0.840144	0.009921
 133	6.6000e-02	1.3137	-14.167867	0.000624	6.241996	1.057423	0.012487
 134	6.6500e-02	1.3247	-14.125104	0.000428	4.275339	0.724262	0.008553
 135	6.7000e-02	1.3363	-14.069513	0.000556	5.557941	0.941541	0.011118
 136	6.7500e-02	1.3467	-14.031882	0.000376	3.762299	0.637351	0.007526
 137	6.8000e-02	1.3552	-13.976291	0.000556	5.557941	0.941541	0.011118
 138	6.8500e-02	1.3675	-13.938660	0.000376	3.762299	0.637351	0.007526
 139	6.9000e-02	1.3739	-13.868101	0.000705	7.054310	1.195032	0.014112
 140	6.9500e-02	1.3868	-13.805241	0.000628	6.284749	1.064665	0.012572
 141	7.0000e-02	1.3948	-13.762050	0.000432	4.318093	0.731505	0.008638
 142	7.0500e-02	1.4029	-13.687644	0.000744	7.439091	1.260216	0.014881
 143	7.1000e-02	1.4172	-13.638894	0.000487	4.873887	0.825659	0.009750
 144	7.1500e-02	1.4262	-13.616658	0.000222	2.223177	0.376616	0.004447
 145	7.2000e-02	1.4365	-13.555507	0.000611	6.113735	1.035695	0.012230
 146	7.2500e-02	1.4436	-13.497350	0.000581	5.814462	0.984996	0.011631
 147	7.3000e-02	1.4559	-13.428075	0.000693	6.926050	1.173305	0.013855
 148	7.3500e-02	1.4676	-13.407121	0.000209	2.094916	0.354888	0.004191
 149	7.4000e-02	1.4760	-13.347254	0.000599	5.985475	1.013967	0.011974
 150	7.4500e-02	1.4839	-13.276268	0.000710	7.097063	1.202275	0.014197
 151	7.5000e-02	1.4944	-13.235644	0.000406	4.061572	0.688049	0.008125
 152	7.5500e-02	1.5055	-13.196302	0.000393	3.933312	0.666321	0.007868
 153	7.6000e-02	1.5149	-13.135152	0.000611	6.113735	1.035695	0.012230
 154	7.6500e-02	1.5260	-13.093244	0.000419	4.189833	0.709777	0.008381
 155	7.7000e-02	1.5363	-13.030811	0.000624	6.241996	1.057423	0.012487
 156	7.7500e-02	1.5449	-12.979069	0.000517	5.173161	0.876357	0.010349
 157	7.8000e-02	1.5564	-12.936306	0.000428	4.275339	0.724262	0.008553
 158	7.8500e-02	1.5674	-12.879432	0.000569	5.686201	0.963269	0.011375
 159	7.9000e-02	1.5726	-12.803315	0.000761	7.610104	1.289187	0.015223
 160	7.9500e-02	1.5840	-12.768677	0.000346	3.463025	0.586652	0.006928
 161	8.0000e-02	1.5907	-12.719500	0.000492	4.916640	0.832901	0.009835
 162	8.0500e-02	1.6081	-12.661771	0.000577	5.771708	0.977754	0.011546
 163	8.1000e-02	1.6170	-12.619436	0.000423	4.232586	0.717019	0.008467
 164	8.1500e-02	1.6267	-12.557002	0.000624	6.241996	1.057423	0.012487
 165	8.2000e-02	1.6383	-12.518516	0.000385	3.847805	0.651836	0.007697
 166	8.2500e-02	1.6483	-12.473188	0.000453	4.531860	0.767718	0.009066
 167	8.3000e-02	1.6559	-12.406478	0.000667	6.669530	1.129849	0.013342
 168	8.3500e-02	1.6676	-12.366709	0.000398	3.976066	0.673564	0.007954
 169	8.4000e-02	1.6748	-12.306842	0.000599	5.985475	1.013967	0.011974
 170	8.4500e-02	1.6844	-12.267072	0.000398	3.976066	0.673564	0.007954
 171	8.5000e-02	1.6937	-12.210626	0.000564	5.643448	0.956026	0.011289
 172	8.5500e-02	1.7052	-12.155890	0.000547	5.472434	0.927055	0.010947
 173	8.6000e-02	1.7172	-12.113555	0.000423	4.232586	0.717019	0.008467
 174	8.6500e-02	1.7284	-12.055826	0.000577	5.771708	0.977754	0.011546
 175	8.7000e-02	1.7358	-12.023754	0.000321	3.206505	0.543197	0.006414
 176	8.7500e-02	1.7438	-11.956616	0.000671	6.712283	1.137092	0.013427
 177	8.8000e-02	1.7581	-11.895894	0.000607	6.070982	1.028452	0.012145
 178	8.8500e-02	1.7664	-11.862111	0.000338	3.377518	0.572167	0.006756
 179	8.9000e-02	1.7753	-11.800533	0.000616	6.156489	1.042937	0.012316
 180	8.9500e-02	1.7867	-11.750929	0.000496	4.959394	0.840144	0.009921
 181	9.0000e-02	1.7936	-11.694910	0.000560	5.600695	0.948783	0.011204
 182	9.0500e-02	1.8045	-11.640174	0.000547	5.472434	0.927055	0.010947
 183	9.1000e-02	1.8159	-11.604253	0.000359	3.591285	0.608380	0.007184
 184	9.1500e-02	1.8298	-11.543530	0.000607	6.070982	1.028452	0.012145
 185	9.2000e-02	1.8372	-11.504617	0.000389	3.890559	0.659079	0.007783
 186	9.2500e-02	1.8463	-11.450736	0.000539	5.386928	0.912570	0.010776
 187	9.3000e-02	1.8561	-11.380178	0.000705	7.054310	1.195032	0.014112
 188	9.3500e-02	1.8655	-11.360079	0.000201	2.009410	0.340403	0.004020
 189	9.4000e-02	1.8768	-11.284817	0.000752	7.524597	1.274701	0.015052
 190	9.4500e-02	1.8867	-11.239917	0.000449	4.489106	0.760475	0.008980
 191	9.5000e-02	1.8974	-11.180049	0.000599	5.985475	1.013967	0.011974
 192	9.5500e-02	1.9086	-11.149260	0.000308	3.078244	0.521469	0.006158
 193	9.6000e-02	1.9166	-11.107780	0.000415	4.147079	0.702534	0.008296
 194	9.6500e-02	1.9263	-11.056038	0.000517	5.173161	0.876357	0.010349
 195	9.7000e-02	1.9363	-10.997453	0.000586	5.857215	0.992239	0.011717
 196	9.7500e-02	1.9456	-10.932882	0.000646	6.455763	1.093636	0.012914
 197	9.8000e-02	1.9545	-10.888409	0.000445	4.446353	0.753233	0.008895
 198	9.8500e-02	1.9659	-10.841370	0.000470	4.702873	0.796688	0.009408
 199	9.9000e-02	1.9753	-10.790055	0.000513	5.130407	0.869115	0.010263
 200	9.9500e-02	1.9859	-10.742588	0.000475	4.745627	0.803931	0.009493
 201	1.0000e-01	1.9934	-10.696405	0.000462	4.617367	0.782203	0.009237
 202	1.0050e-01	2.0044	-10.634827	0.000616	6.156489	1.042937	0.012316
 203	1.0100e-01	2.0139	-10.589926	0.000449	4.489106	0.760475	0.008980
 204	1.0150e-01	2.0273	-10.539039	0.000509	5.087654	0.861872	0.010177
 205	1.0200e-01	2.0376	-10.509960	0.000291	2.907231	0.492498	0.005816
 206	1.0250e-01	2.0438	-10.446672	0.000633	6.327502	1.071908	0.012658
 207	1.0300e-01	2.0557	-10.388087	0.000586	5.857215	0.992239	0.011717
 208	1.0350e-01	2.0656	-10.345752	0.000423	4.232586	0.717019	0.008467
 209	1.0400e-01	2.0770	-10.281181	0.000646	6.455763	1.093636	0.012914
 210	1.0450e-01	2.0840	-10.236708	0.000445	4.446353	0.753233	0.008895
 211	1.0500e-01	2.0975	-10.193945	0.000428	4.275339	0.724262	0.008553
 212	1.0550e-01	2.1065	-10.150327	0.000436	4.360846	0.738747	0.008724
 213	1.0600e-01	2.1164	-10.079342	0.000710	7.097063	1.202275	0.014197
 214	1.0650e-01	2.1295	-10.031020	0.000483	4.831134	0.818416	0.009664
 215	1.0700e-01	2.1361	-9.995955	0.000351	3.505778	0.593895	0.007013
 216	1.0750e-01	2.1441	-9.942501	0.000534	5.344174	0.905328	0.010691
 217	1.0800e-01	2.1554	-9.902305	0.000402	4.018819	0.680806	0.008039
 218	1.0850e-01	2.1667	-9.853983	0.000483	4.831134	0.818416	0.009664
 219	1.0900e-01	2.1759	-9.793260	0.000607	6.070982	1.028452	0.012145
 220	1.0950e-01	2.1861	-9.748360	0.000449	4.489106	0.760475	0.008980
 221	1.1000e-01	2.1970	-9.698327	0.000500	5.002147	0.847387	0.010006
 222	1.1050e-01	2.2060	-9.648723	0.000496	4.959394	0.840144	0.009921
 223	1.1100e-01	2.2165	-9.600829	0.000479	4.788380	0.811174	0.009579
 224	1.1150e-01	2.2271	-9.542672	0.000581	5.814462	0.984996	0.011631
 225	1.1200e-01	2.2380	-9.489219	0.000534	5.344174	0.905328	0.010691
 226	1.1250e-01	2.2458	-9.449022	0.000402	4.018819	0.680806	0.008039
 227	1.1300e-01	2.2537	-9.411391	0.000376	3.762299	0.637351	0.007526
 228	1.1350e-01	2.2679	-9.356655	0.000547	5.472434	0.927055	0.010947
 229	1.1400e-01	2.2778	-9.291228	0.000654	6.541269	1.108121	0.013085
 230	1.1450e-01	2.2871	-9.248038	0.000432	4.318093	0.731505	0.008638
 231	1.1500e-01	2.2974	-9.198433	0.000496	4.959394	0.840144	0.009921
 232	1.1550e-01	2.3070	-9.161658	0.000368	3.676792	0.622865	0.007355
 233	1.1600e-01	2.3157	-9.106922	0.000547	5.472434	0.927055	0.010947
 234	1.1650e-01	2.3257	-9.053469	0.000534	5.344174	0.905328	0.010691
 235	1.1700e-01	2.3352	-8.984621	0.000688	6.883296	1.166062	0.013770
 236	1.1750e-01	2.3476	-8.964095	0.000205	2.052163	0.347646	0.004105
 237	1.1800e-01	2.3553	-8.901662	0.000624	6.241996	1.057423	0.012487
 238	1.1850e-01	2.3660	-8.858471	0.000432	4.318093	0.731505	0.008638
 239	1.1900e-01	2.3785	-8.818702	0.000398	3.976066	0.673564	0.007954
 240	1.1950e-01	2.3859	-8.766532	0.000522	5.215914	0.883600	0.010434
 241	1.2000e-01	2.3970	-8.707520	0.000590	5.899968	0.999482	0.011802
 242	1.2050e-01	2.4060	-8.658343	0.000492	4.916640	0.832901	0.009835
 243	1.2100e-01	2.4180	-8.615153	0.000432	4.318093	0.731505	0.008638
 244	1.2150e-01	2.4283	-8.566403	0.000487	4.873887	0.825659	0.009750
 245	1.2200e-01	2.4362	-8.531338	0.000351	3.505778	0.593895	0.007013
 246	1.2250e-01	2.4451	-8.480451	0.000509	5.087654	0.861872	0.010177
 247	1.2300e-01	2.4568	-8.430846	0.000496	4.959394	0.840144	0.009921
 248	1.2350e-01	2.4667	-8.363281	0.000676	6.755036	1.144334	0.013513
 249	1.2400e-01	2.4768	-8.306407	0.000569	5.686201	0.963269	0.011375
 250	1.2450e-01	2.4872	-8.268776	0.000376	3.762299	0.637351	0.007526
 251	1.2500e-01	2.4933	-8.222165	0.000466	4.660120	0.789446	0.009322
 252	1.2550e-01	2.5067	-8.190948	0.000312	3.120998	0.528711	0.006243
 253	1.2600e-01	2.5165	-8.124666	0.000663	6.626776	1.122606	0.013256
 254	1.2650e-01	2.5294	-8.069075	0.000556	5.557941	0.941541	0.011118
 255	1.2700e-01	2.5343	-8.029734	0.000393	3.933312	0.666321	0.007868
 256	1.2750e-01	2.5479	-8.001938	0.000278	2.778971	0.470770	0.005559
 257	1.2800e-01	2.5600	-7.945919	0.000560	5.600695	0.948783	0.011204
 258	1.2850e-01	2.5661	-7.895459	0.000504	5.044901	0.854629	0.010092
 259	1.2900e-01	2.5763	-7.855690	0.000398	3.976066	0.673564	0.007954
 260	1.2950e-01	2.5848	-7.802665	0.000530	5.301421	0.898085	0.010605
 261	1.3000e-01	2.5973	-7.756909	0.000457	4.574613	0.774960	0.009151
 262	1.3050e-01	2.6074	-7.711153	0.000457	4.574613	0.774960	0.009151
 263	1.3100e-01	2.6170	-7.653851	0.000573	5.728955	0.970511	0.011460
 264	1.3150e-01	2.6291	-7.604674	0.000492	4.916640	0.832901	0.009835
 265	1.3200e-01	2.6349	-7.554214	0.000504	5.044901	0.854629	0.010092
 266	1.3250e-01	2.6459	-7.512735	0.000415	4.147079	0.702534	0.008296
 267	1.3300e-01	2.6552	-7.452867	0.000599	5.985475	1.013967	0.011974
 268	1.3350e-01	2.6645	-7.408394	0.000445	4.446353	0.753233	0.008895
 269	1.3400e-01	2.6761	-7.352803	0.000556	5.557941	0.941541	0.011118
 270	1.3450e-01	2.6855	-7.309185	0.000436	4.360846	0.738747	0.008724
 271	1.3500e-01	2.6955	-7.257870	0.000513	5.130407	0.869115	0.010263
 272	1.3550e-01	2.7039	-7.206983	0.000509	5.087654	0.861872	0.010177
 273	1.3600e-01	2.7148	-7.168496	0.000385	3.847805	0.651836	0.007697
 274	1.3650e-01	2.7271	-7.134286	0.000342	3.420272	0.579410	0.006842
 275	1.3700e-01	2.7346	-7.065866	0.000684	6.840543	1.158819	0.013684
 276	1.3750e-01	2.7454	-7.023959	0.000419	4.189833	0.709777	0.008381
 277	1.3800e-01	2.7561	-6.973072	0.000509	5.087654	0.861872	0.010177
 278	1.3850e-01	2.7655	-6.950407	0.000227	2.265930	0.383859	0.004533
 279	1.3900e-01	2.7766	-6.882415	0.000680	6.797790	1.151577	0.013598
 280	1.3950e-01	2.7872	-6.831955	0.000504	5.044901	0.854629	0.010092
 281	1.4000e-01	2.7972	-6.788337	0.000436	4.360846	0.738747	0.008724
 282	1.4050e-01	2.8070	-6.742582	0.000457	4.574613	0.774960	0.009151
 283	1.4100e-01	2.8143	-6.700674	0.000419	4.189833	0.709777	0.008381
 284	1.4150e-01	2.8247	-6.651497	0.000492	4.916640	0.832901	0.009835
 285	1.4200e-01	2.8350	-6.597189	0.000543	5.429681	0.919813	0.010862
 286	1.4250e-01	2.8455	-6.561268	0.000359	3.591285	0.608380	0.007184
 287	1.4300e-01	2.8560	-6.511664	0.000496	4.959394	0.840144	0.009921
 288	1.4350e-01	2.8647	-6.458211	0.000534	5.344174	0.905328	0.010691
 289	1.4400e-01	2.8751	-6.421435	0.000368	3.676792	0.622865	0.007355
 290	1.4450e-01	2.8842	-6.366699	0.000547	5.472434	0.927055	0.010947
 291	1.4500e-01	2.8956	-6.314956	0.000517	5.173161	0.876357	0.010349
 292	1.4550e-01	2.9074	-6.277753	0.000372	3.719545	0.630108	0.007441
 293	1.4600e-01	2.9144	-6.228148	0.000496	4.959394	0.840144	0.009921
 294	1.4650e-01	2.9273	-6.182820	0.000453	4.531860	0.767718	0.009066
 295	1.4700e-01	2.9361	-6.131933	0.000509	5.087654	0.861872	0.010177
 296	1.4750e-01	2.9437	-6.091736	0.000402	4.018819	0.680806	0.008039
 297	1.4800e-01	2.9568	-6.049401	0.000423	4.232586	0.717019	0.008467
 298	1.4850e-01	2.9651	-5.995093	0.000543	5.429681	0.919813	0.010862
 299	1.4900e-01	2.9749	-5.953613	0.000415	4.147079	0.702534	0.008296
 300	1.4950e-01	2.9843	-5.888614	0.000650	6.498516	1.100878	0.013000
 301	1.5000e-01	2.9987	-5.831312	0.000573	5.728955	0.970511	0.011460
 302	1.5050e-01	3.0054	-5.800951	0.000304	3.035491	0.514226	0.006072
 303	1.5100e-01	3.0161	-5.749636	0.000513	5.130407	0.869115	0.010263
 304	1.5150e-01	3.0277	-5.706018	0.000436	4.360846	0.738747	0.008724
 305	1.5200e-01	3.0382	-5.669242	0.000368	3.676792	0.622865	0.007355
 306	1.5250e-01	3.0487	-5.629901	0.000393	3.933312	0.666321	0.007868
 307	1.5300e-01	3.0566	-5.575165	0.000547	5.472434	0.927055	0.010947
 308	1.5350e-01	3.0676	-5.536251	0.000389	3.890559	0.659079	0.007783
 309	1.5400e-01	3.0756	-5.472107	0.000641	6.413009	1.086393	0.012829
 310	1.5450e-01	3.0887	-5.435759	0.000363	3.634039	0.615623	0.007270
 311	1.5500e-01	3.0945	-5.387865	0.000479	4.788380	0.811174	0.009579
 312	1.5550e-01	3.1073	-5.337832	0.000500	5.002147	0.847387	0.010006
 313	1.5600e-01	3.1155	-5.291649	0.000462	4.617367	0.782203	0.009237
 314	1.5650e-01	3.1274	-5.257011	0.000346	3.463025	0.586652	0.006928
 315	1.5700e-01	3.1342	-5.188591	0.000684	6.840543	1.158819	0.013684
 316	1.5750e-01	3.1454	-5.138559	0.000500	5.002147	0.847387	0.010006
 317	1.5800e-01	3.1557	-5.105204	0.000333	3.334765	0.564924	0.006671
 318	1.5850e-01	3.1665	-5.063725	0.000415	4.147079	0.702534	0.008296
 319	1.5900e-01	3.1769	-5.016258	0.000475	4.745627	0.803931	0.009493
 320	1.5950e-01	3.1839	-4.964088	0.000522	5.215914	0.883600	0.010434
 321	1.6000e-01	3.1989	-4.940569	0.000235	2.351437	0.398344	0.004704
 322	1.6050e-01	3.2054	-4.887971	0.000526	5.258668	0.890842	0.010520
 323	1.6100e-01	3.2167	-4.834090	0.000539	5.386928	0.912570	0.010776
 324	1.6150e-01	3.2258	-4.795604	0.000385	3.847805	0.651836	0.007697
 325	1.6200e-01	3.2340	-4.732743	0.000628	6.284749	1.064665	0.012572
 326	1.6250e-01	3.2471	-4.696822	0.000359	3.591285	0.608380	0.007184
 327	1.6300e-01	3.2568	-4.650639	0.000462	4.617367	0.782203	0.009237
 328	1.6350e-01	3.2678	-4.606166	0.000445	4.446353	0.753233	0.008895
 329	1.6400e-01	3.2748	-4.535180	0.000710	7.097063	1.202275	0.014197
 330	1.6450e-01	3.2867	-4.503963	0.000312	3.120998	0.528711	0.006243
 331	1.6500e-01	3.2971	-4.466760	0.000372	3.719545	0.630108	0.007441
 332	1.6550e-01	3.3075	-4.412451	0.000543	5.429681	0.919813	0.010862
 333	1.6600e-01	3.3150	-4.373110	0.000393	3.933312	0.666321	0.007868
 334	1.6650e-01	3.3257	-4.334624	0.000385	3.847805	0.651836	0.007697
 335	1.6700e-01	3.3344	-4.281598	0.000530	5.301421	0.898085	0.010605
 336	1.6750e-01	3.3469	-4.237553	0.000440	4.403600	0.745990	0.008809
 337	1.6800e-01	3.3539	-4.184099	0.000534	5.344174	0.905328	0.010691
 338	1.6850e-01	3.3653	-4.143047	0.000410	4.104326	0.695292	0.008210
 339	1.6900e-01	3.3766	-4.108410	0.000346	3.463025	0.586652	0.006928
 340	1.6950e-01	3.3890	-4.049825	0.000586	5.857215	0.992239	0.011717
 341	1.7000e-01	3.3960	-4.013905	0.000359	3.591285	0.608380	0.007184
 342	1.7050e-01	3.4064	-3.941636	0.000723	7.225324	1.224003	0.014454
 343	1.7100e-01	3.4161	-3.918544	0.000231	2.308683	0.391102	0.004618
 344	1.7150e-01	3.4265	-3.879630	0.000389	3.890559	0.659079	0.007783
 345	1.7200e-01	3.4357	-3.814204	0.000654	6.541269	1.108121	0.013085
 346	1.7250e-01	3.4473	-3.785125	0.000291	2.907231	0.492498	0.005816
 347	1.7300e-01	3.4576	-3.735948	0.000492	4.916640	0.832901	0.009835
 348	1.7350e-01	3.4686	-3.678646	0.000573	5.728955	0.970511	0.011460
 349	1.7400e-01	3.4747	-3.656838	0.000218	2.180423	0.369374	0.004362
 350	1.7450e-01	3.4853	-3.583714	0.000731	7.310830	1.238488	0.014625
 351	1.7500e-01	3.4979	-3.554207	0.000295	2.949984	0.499741	0.005901
 352	1.7550e-01	3.5098	-3.505886	0.000483	4.831134	0.818416	0.009664
 353	1.7600e-01	3.5165	-3.470821	0.000351	3.505778	0.593895	0.007013
 354	1.7650e-01	3.5278	-3.427630	0.000432	4.318093	0.731505	0.008638
 355	1.7700e-01	3.5365	-3.373322	0.000543	5.429681	0.919813	0.010862
 356	1.7750e-01	3.5481	-3.339112	0.000342	3.420272	0.579410	0.006842
 357	1.7800e-01	3.5547	-3.279244	0.000599	5.985475	1.013967	0.011974
 358	1.7850e-01	3.5669	-3.241186	0.000381	3.805052	0.644593	0.007612
 359	1.7900e-01	3.5764	-3.185167	0.000560	5.600695	0.948783	0.011204
 360	1.7950e-01	3.5869	-3.150957	0.000342	3.420272	0.579410	0.006842
 361	1.8000e-01	3.5950	-3.099642	0.000513	5.130407	0.869115	0.010263
 362	1.8050e-01	3.6087	-3.050893	0.000487	4.873887	0.825659	0.009750
 363	1.8100e-01	3.6157	-3.017965	0.000329	3.292011	0.557682	0.006585
 364	1.8150e-01	3.6255	-2.965367	0.000526	5.258668	0.890842	0.010520
 365	1.8200e-01	3.6359	-2.923888	0.000415	4.147079	0.702534	0.008296
 366	1.8250e-01	3.6477	-2.883691	0.000402	4.018819	0.680806	0.008039
 367	1.8300e-01	3.6581	-2.833659	0.000500	5.002147	0.847387	0.010006
 368	1.8350e-01	3.6676	-2.790896	0.000428	4.275339	0.724262	0.008553
 369	1.8400e-01	3.6792	-2.762245	0.000286	2.864477	0.485256	0.005730
 370	1.8450e-01	3.6880	-2.702378	0.000599	5.985475	1.013967	0.011974
 371	1.8500e-01	3.6975	-2.665602	0.000368	3.676792	0.622865	0.007355
 372	1.8550e-01	3.7079	-2.607445	0.000581	5.814462	0.984996	0.011631
 373	1.8600e-01	3.7177	-2.585636	0.000218	2.180423	0.369374	0.004362
 374	1.8650e-01	3.7259	-2.536459	0.000492	4.916640	0.832901	0.009835
 375	1.8700e-01	3.7369	-2.489421	0.000470	4.702873	0.796688	0.009408
 376	1.8750e-01	3.7445	-2.440671	0.000487	4.873887	0.825659	0.009750
 377	1.8800e-01	3.7587	-2.403040	0.000376	3.762299	0.637351	0.007526
 378	1.8850e-01	3.7686	-2.358567	0.000445	4.446353	0.753233	0.008895
 379	1.8900e-01	3.7772	-2.306825	0.000517	5.173161	0.876357	0.010349
 380	1.8950e-01	3.7869	-2.247812	0.000590	5.899968	0.999482	0.011802
 381	1.9000e-01	3.7973	-2.209754	0.000381	3.805052	0.644593	0.007612
 382	1.9050e-01	3.8054	-2.166991	0.000428	4.275339	0.724262	0.008553
 383	1.9100e-01	3.8153	-2.129788	0.000372	3.719545	0.630108	0.007441
 384	1.9150e-01	3.8260	-2.075052	0.000547	5.472434	0.927055	0.010947
 385	1.9200e-01	3.8354	-2.046828	0.000282	2.821724	0.478013	0.005645
 386	1.9250e-01	3.8443	-2.000217	0.000466	4.660120	0.789446	0.009322
 387	1.9300e-01	3.8541	-1.947619	0.000526	5.258668	0.890842	0.010520
 388	1.9350e-01	3.8660	-1.915547	0.000321	3.206505	0.543197	0.006414
 389	1.9400e-01	3.8776	-1.864232	0.000513	5.130407	0.869115	0.010263
 390	1.9450e-01	3.8837	-1.827884	0.000363	3.634039	0.615623	0.007270
 391	1.9500e-01	3.8983	-1.771010	0.000569	5.686201	0.963269	0.011375
 392	1.9550e-01	3.9035	-1.740221	0.000308	3.078244	0.521469	0.006158
 393	1.9600e-01	3.9169	-1.702590	0.000376	3.762299	0.637351	0.007526
 394	1.9650e-01	3.9246	-1.647854	0.000547	5.472434	0.927055	0.010947
 395	1.9700e-01	3.9371	-1.611506	0.000363	3.634039	0.615623	0.007270
 396	1.9750e-01	3.9447	-1.561901	0.000496	4.959394	0.840144	0.009921
 397	1.9800e-01	3.9569	-1.526408	0.000355	3.548532	0.601138	0.007099
 398	1.9850e-01	3.9685	-1.478514	0.000479	4.788380	0.811174	0.009579
 399	1.9900e-01	3.9748	-1.428910	0.000496	4.959394	0.840144	0.009921
 400	1.9950e-01	3.9832	-1.388713	0.000402	4.018819	0.680806	0.008039
 401	2.0000e-01	3.9996	-1.352365	0.000363	3.634039	0.615623	0.007270
 402	2.0050e-01	4.0070	-1.310458	0.000419	4.189833	0.709777	0.008381
 403	2.0100e-01	4.0162	-1.248880	0.000616	6.156489	1.042937	0.012316
 404	2.0150e-01	4.0271	-1.202696	0.000462	4.617367	0.782203	0.009237
 405	2.0200e-01	4.0338	-1.182170	0.000205	2.052163	0.347646	0.004105
 406	2.0250e-01	4.0485	-1.114178	0.000680	6.797790	1.151577	0.013598
 407	2.0300e-01	4.0546	-1.087665	0.000265	2.650710	0.449043	0.005303
 408	2.0350e-01	4.0656	-1.047040	0.000406	4.061572	0.688049	0.008125
 409	2.0400e-01	4.0764	-0.996153	0.000509	5.087654	0.861872	0.010177
 410	2.0450e-01	4.0866	-0.952963	0.000432	4.318093	0.731505	0.008638
 411	2.0500e-01	4.0971	-0.916187	0.000368	3.676792	0.622865	0.007355
 412	2.0550e-01	4.1071	-0.871714	0.000445	4.446353	0.753233	0.008895
 413	2.0600e-01	4.1190	-0.823392	0.000483	4.831134	0.818416	0.009664
 414	2.0650e-01	4.1278	-0.775498	0.000479	4.788380	0.811174	0.009579
 415	2.0700e-01	4.1367	-0.741716	0.000338	3.377518	0.572167	0.006756
 416	2.0750e-01	4.1428	-0.686552	0.000552	5.515188	0.934298	0.011033
 417	2.0800e-01	4.1574	-0.651915	0.000346	3.463025	0.586652	0.006928
 418	2.0850e-01	4.1678	-0.620270	0.000316	3.163751	0.535954	0.006329
 419	2.0900e-01	4.1779	-0.565534	0.000547	5.472434	0.927055	0.010947
 420	2.0950e-01	4.1870	-0.522344	0.000432	4.318093	0.731505	0.008638
 421	2.1000e-01	4.1965	-0.480009	0.000423	4.232586	0.717019	0.008467
 422	2.1050e-01	4.2078	-0.435964	0.000440	4.403600	0.745990	0.008809
 423	2.1100e-01	4.2163	-0.391491	0.000445	4.446353	0.753233	0.008895
 424	2.1150e-01	4.2252	-0.344880	0.000466	4.660120	0.789446	0.009322
 425	2.1200e-01	4.2355	-0.318367	0.000265	2.650710	0.449043	0.005303
 426	2.1250e-01	4.2456	-0.264059	0.000543	5.429681	0.919813	0.010862
 427	2.1300e-01	4.2548	-0.223434	0.000406	4.061572	0.688049	0.008125
 428	2.1350e-01	4.2679	-0.184520	0.000389	3.890559	0.659079	0.007783
 429	2.1400e-01	4.2770	-0.161429	0.000231	2.308683	0.391102	0.004618
 430	2.1450e-01	4.2860	-0.087449	0.000740	7.396337	1.252973	0.014796
 431	2.1500e-01	4.2950	-0.044259	0.000432	4.318093	0.731505	0.008638
 432	2.1550e-01	4.3066	-0.013898	0.000304	3.035491	0.514226	0.006072
 433	2.1600e-01	4.3165	0.050246	0.000641	6.413009	1.086393	0.012829
 434	2.1650e-01	4.3259	0.072055	0.000218	2.180423	0.369374	0.004362
 435	2.1700e-01	4.3350	0.115673	0.000436	4.360846	0.738747	0.008724
 436	2.1750e-01	4.3475	0.164422	0.000487	4.873887	0.825659	0.009750
 437	2.1800e-01	4.3575	0.179816	0.000154	1.539122	0.260734	0.003079
 438	2.1850e-01	4.3652	0.245243	0.000654	6.541269	1.108121	0.013085
 439	2.1900e-01	4.3747	0.284585	0.000393	3.933312	0.666321	0.007868
 440	2.1950e-01	4.3861	0.316229	0.000316	3.163751	0.535954	0.006329
 441	2.2000e-01	4.3988	0.377379	0.000611	6.113735	1.035695	0.012230
 442	2.2050e-01	4.4064	0.402182	0.000248	2.479697	0.420072	0.004960
 443	2.2100e-01	4.4147	0.465470	0.000633	6.327502	1.071908	0.012658
 444	2.2150e-01	4.4287	0.484713	0.000192	1.923903	0.325918	0.003849
 445	2.2200e-01	4.4348	0.554416	0.000697	6.968803	1.180547	0.013941
 446	2.2250e-01	4.4476	0.604021	0.000496	4.959394	0.840144	0.009921
 447	2.2300e-01	4.4580	0.619415	0.000154	1.539122	0.260734	0.003079
 448	2.2350e-01	4.4649	0.674579	0.000552	5.515188	0.934298	0.011033
 449	2.2400e-01	4.4766	0.703657	0.000291	2.907231	0.492498	0.005816
 450	2.2450e-01	4.4886	0.758393	0.000547	5.472434	0.927055	0.010947
 451	2.2500e-01	4.4955	0.804577	0.000462	4.617367	0.782203	0.009237
 452	2.2550e-01	4.5050	0.834511	0.000299	2.992738	0.506983	0.005987
 453	2.2600e-01	4.5197	0.878984	0.000445	4.446353	0.753233	0.008895
 454	2.2650e-01	4.5261	0.912339	0.000333	3.334765	0.564924	0.006671
 455	2.2700e-01	4.5355	0.973917	0.000616	6.156489	1.042937	0.012316
 456	2.2750e-01	4.5456	1.005988	0.000321	3.206505	0.543197	0.006414
 457	2.2800e-01	4.5590	1.045758	0.000398	3.976066	0.673564	0.007954
 458	2.2850e-01	4.5691	1.085099	0.000393	3.933312	0.666321	0.007868
 459	2.2900e-01	4.5767	1.122730	0.000376	3.762299	0.637351	0.007526
 460	2.2950e-01	4.5862	1.186019	0.000633	6.327502	1.071908	0.012658
 461	2.3000e-01	4.5972	1.212959	0.000269	2.693464	0.456285	0.005388
 462	2.3050e-01	4.6060	1.250162	0.000372	3.719545	0.630108	0.007441
 463	2.3100e-01	4.6205	1.295063	0.000449	4.489106	0.760475	0.008980
 464	2.3150e-01	4.6283	1.321576	0.000265	2.650710	0.449043	0.005303
 465	2.3200e-01	4.6381	1.369470	0.000479	4.788380	0.811174	0.009579
 466	2.3250e-01	4.6484	1.414371	0.000449	4.489106	0.760475	0.008980
 467	2.3300e-01	4.6545	1.479370	0.000650	6.498516	1.100878	0.013000
 468	2.3350e-01	4.6666	1.514863	0.000355	3.548532	0.601138	0.007099
 469	2.3400e-01	4.6771	1.551638	0.000368	3.676792	0.622865	0.007355
 470	2.3450e-01	4.6889	1.570026	0.000184	1.838396	0.311433	0.003678
 471	2.3500e-01	4.6973	1.626473	0.000564	5.643448	0.956026	0.011289
 472	2.3550e-01	4.7064	1.651703	0.000252	2.522450	0.427315	0.005046
 473	2.3600e-01	4.7162	1.716702	0.000650	6.498516	1.100878	0.013000
 474	2.3650e-01	4.7250	1.747918	0.000312	3.120998	0.528711	0.006243
 475	2.3700e-01	4.7369	1.791108	0.000432	4.318093	0.731505	0.008638
 476	2.3750e-01	4.7464	1.821897	0.000308	3.078244	0.521469	0.006158
 477	2.3800e-01	4.7568	1.877061	0.000552	5.515188	0.934298	0.011033
 478	2.3850e-01	4.7659	1.909561	0.000325	3.249258	0.550439	0.006500
 479	2.3900e-01	4.7791	1.951468	0.000419	4.189833	0.709777	0.008381
 480	2.3950e-01	4.7858	2.011335	0.000599	5.985475	1.013967	0.011974
 481	2.4000e-01	4.7955	2.037421	0.000261	2.607957	0.441800	0.005217
 482	2.4050e-01	4.8083	2.078900	0.000415	4.147079	0.702534	0.008296
 483	2.4100e-01	4.8178	2.114821	0.000359	3.591285	0.608380	0.007184
 484	2.4150e-01	4.8236	2.177254	0.000624	6.241996	1.057423	0.012487
 485	2.4200e-01	4.8343	2.203339	0.000261	2.607957	0.441800	0.005217
 486	2.4250e-01	4.8492	2.248240	0.000449	4.489106	0.760475	0.008980
 487	2.4300e-01	4.8553	2.288864	0.000406	4.061572	0.688049	0.008125
 488	2.4350e-01	4.8672	2.325212	0.000363	3.634039	0.615623	0.007270
 489	2.4400e-01	4.8770	2.356857	0.000316	3.163751	0.535954	0.006329
 490	2.4450e-01	4.8901	2.417579	0.000607	6.070982	1.028452	0.012145
 491	2.4500e-01	4.8953	2.441954	0.000244	2.436943	0.412829	0.004875
 492	2.4550e-01	4.9054	2.488565	0.000466	4.660120	0.789446	0.009322
 493	2.4600e-01	4.9170	2.524913	0.000363	3.634039	0.615623	0.007270
 494	2.4650e-01	4.9274	2.571952	0.000470	4.702873	0.796688	0.009408
 495	2.4700e-01	4.9368	2.608300	0.000363	3.634039	0.615623	0.007270
 496	2.4750e-01	4.9454	2.647642	0.000393	3.933312	0.666321	0.007868
 497	2.4800e-01	4.9570	2.692543	0.000449	4.489106	0.760475	0.008980
 498	2.4850e-01	4.9670	2.741292	0.000487	4.873887	0.825659	0.009750
 499	2.4900e-01	4.9756	2.773364	0.000321	3.206505	0.543197	0.006414
 500	2.4950e-01	4.9872	2.809712	0.000363	3.634039	0.615623	0.007270
 501	2.5000e-01	4.9977	2.849481	0.000398	3.976066	0.673564	0.007954
 502	2.5050e-01	5.0047	2.885829	0.000363	3.634039	0.615623	0.007270
 503	2.5100e-01	5.0171	2.927736	0.000419	4.189833	0.709777	0.008381
 504	2.5150e-01	5.0262	2.978624	0.000509	5.087654	0.861872	0.010177
 505	2.5200e-01	5.0369	3.022669	0.000440	4.403600	0.745990	0.008809
 506	2.5250e-01	5.0507	3.046616	0.000239	2.394190	0.405587	0.004789
 507	2.5300e-01	5.0577	3.097504	0.000509	5.087654	0.861872	0.010177
 508	2.5350e-01	5.0643	3.135562	0.000381	3.805052	0.644593	0.007612
 509	2.5400e-01	5.0790	3.175759	0.000402	4.018819	0.680806	0.008039
 510	2.5450e-01	5.0838	3.216384	0.000406	4.061572	0.688049	0.008125
 511	2.5500e-01	5.0959	3.244607	0.000282	2.821724	0.478013	0.005645
 512	2.5550e-01	5.1051	3.288652	0.000440	4.403600	0.745990	0.008809
 513	2.5600e-01	5.1132	3.354506	0.000658	6.584023	1.115364	0.013171
 514	2.5650e-01	5.1266	3.377598	0.000231	2.308683	0.391102	0.004618
 515	2.5700e-01	5.1395	3.403256	0.000257	2.565204	0.434557	0.005132
 516	2.5750e-01	5.1477	3.454143	0.000509	5.087654	0.861872	0.010177
 517	2.5800e-01	5.1599	3.479801	0.000257	2.565204	0.434557	0.005132
 518	2.5850e-01	5.1666	3.537530	0.000577	5.771708	0.977754	0.011546
 519	2.5900e-01	5.1770	3.562332	0.000248	2.479697	0.420072	0.004960
 520	2.5950e-01	5.1839	3.620917	0.000586	5.857215	0.992239	0.011717
 521	2.6000e-01	5.1978	3.655982	0.000351	3.505778	0.593895	0.007013
 522	2.6050e-01	5.2078	3.685061	0.000291	2.907231	0.492498	0.005816
 523	2.6100e-01	5.2164	3.727396	0.000423	4.232586	0.717019	0.008467
 524	2.6150e-01	5.2301	3.757329	0.000299	2.992738	0.506983	0.005987
 525	2.6200e-01	5.2377	3.809500	0.000522	5.215914	0.883600	0.010434
 526	2.6250e-01	5.2466	3.852690	0.000432	4.318093	0.731505	0.008638
 527	2.6300e-01	5.2570	3.880058	0.000274	2.736217	0.463528	0.005474
 528	2.6350e-01	5.2655	3.940353	0.000603	6.028229	1.021210	0.012059
 529	2.6400e-01	5.2759	3.974135	0.000338	3.377518	0.572167	0.006756
 530	2.6450e-01	5.2872	4.006207	0.000321	3.206505	0.543197	0.006414
 531	2.6500e-01	5.2962	4.052819	0.000466	4.660120	0.789446	0.009322
 532	2.6550e-01	5.3072	4.094726	0.000419	4.189833	0.709777	0.008381
 533	2.6600e-01	5.3156	4.127225	0.000325	3.249258	0.550439	0.006500
 534	2.6650e-01	5.3250	4.149462	0.000222	2.223177	0.376616	0.004447
 535	2.6700e-01	5.3357	4.211895	0.000624	6.241996	1.057423	0.012487
 536	2.6750e-01	5.3473	4.246105	0.000342	3.420272	0.579410	0.006842
 537	2.6800e-01	5.3601	4.291861	0.000457	4.574613	0.774960	0.009151
 538	2.6850e-01	5.3668	4.329492	0.000376	3.762299	0.637351	0.007526
 539	2.6900e-01	5.3766	4.373110	0.000436	4.360846	0.738747	0.008724
 540	2.6950e-01	5.3891	4.387222	0.000141	1.410862	0.239006	0.002822
 541	2.7000e-01	5.3992	4.452648	0.000654	6.541269	1.108121	0.013085
 542	2.7050e-01	5.4065	4.482582	0.000299	2.992738	0.506983	0.005987
 543	2.7100e-01	5.4144	4.535607	0.000530	5.301421	0.898085	0.010605
 544	2.7150e-01	5.4272	4.551857	0.000162	1.624629	0.275220	0.003250
 545	2.7200e-01	5.4369	4.609587	0.000577	5.771708	0.977754	0.011546
 546	2.7250e-01	5.4471	4.633106	0.000235	2.351437	0.398344	0.004704
 547	2.7300e-01	5.4546	4.689553	0.000564	5.643448	0.956026	0.011289
 548	2.7350e-01	5.4657	4.724190	0.000346	3.463025	0.586652	0.006928
 549	2.7400e-01	5.4788	4.765242	0.000410	4.104326	0.695292	0.008210
 550	2.7450e-01	5.4877	4.802018	0.000368	3.676792	0.622865	0.007355
 551	2.7500e-01	5.4974	4.836656	0.000346	3.463025	0.586652	0.006928
 552	2.7550e-01	5.5072	4.873859	0.000372	3.719545	0.630108	0.007441
 553	2.7600e-01	5.5170	4.913201	0.000393	3.933312	0.666321	0.007868
 554	2.7650e-01	5.5246	4.956818	0.000436	4.360846	0.738747	0.008724
 555	2.7700e-01	5.5386	5.003857	0.000470	4.702873	0.796688	0.009408
 556	2.7750e-01	5.5453	5.038922	0.000351	3.505778	0.593895	0.007013
 557	2.7800e-01	5.5566	5.064580	0.000257	2.565204	0.434557	0.005132
 558	2.7850e-01	5.5646	5.106915	0.000423	4.232586	0.717019	0.008467
 559	2.7900e-01	5.5801	5.161223	0.000543	5.429681	0.919813	0.010862
 560	2.7950e-01	5.5859	5.196289	0.000351	3.505778	0.593895	0.007013
 561	2.8000e-01	5.5970	5.215104	0.000188	1.881149	0.318675	0.003763
 562	2.8050e-01	5.6094	5.265564	0.000504	5.044901	0.854629	0.010092
 563	2.8100e-01	5.6161	5.289083	0.000235	2.351437	0.398344	0.004704
 564	2.8150e-01	5.6274	5.337832	0.000487	4.873887	0.825659	0.009750
 565	2.8200e-01	5.6354	5.396417	0.000586	5.857215	0.992239	0.011717
 566	2.8250e-01	5.6479	5.425496	0.000291	2.907231	0.492498	0.005816
 567	2.8300e-01	5.6564	5.473390	0.000479	4.788380	0.811174	0.009579
 568	2.8350e-01	5.6653	5.501613	0.000282	2.821724	0.478013	0.005645
 569	2.8400e-01	5.6793	5.544375	0.000428	4.275339	0.724262	0.008553
 570	2.8450e-01	5.6851	5.570888	0.000265	2.650710	0.449043	0.005303
 571	2.8500e-01	5.6952	5.618782	0.000479	4.788380	0.811174	0.009579
 572	2.8550e-01	5.7050	5.666249	0.000475	4.745627	0.803931	0.009493
 573	2.8600e-01	5.7156	5.685492	0.000192	1.923903	0.325918	0.003849
 574	2.8650e-01	5.7291	5.734241	0.000487	4.873887	0.825659	0.009750
 575	2.8700e-01	5.7355	5.769734	0.000355	3.548532	0.601138	0.007099
 576	2.8750e-01	5.7458	5.802234	0.000325	3.249258	0.550439	0.006500
 577	2.8800e-01	5.7574	5.859108	0.000569	5.686201	0.963269	0.011375
 578	2.8850e-01	5.7672	5.878778	0.000197	1.966656	0.333161	0.003934
 579	2.8900e-01	5.7784	5.936936	0.000581	5.814462	0.984996	0.011631
 580	2.8950e-01	5.7858	5.953185	0.000162	1.624629	0.275220	0.003250
 581	2.9000e-01	5.7965	5.994665	0.000415	4.147079	0.702534	0.008296
 582	2.9050e-01	5.8047	6.027164	0.000325	3.249258	0.550439	0.006500
 583	2.9100e-01	5.8173	6.078052	0.000509	5.087654	0.861872	0.010177
 584	2.9150e-01	5.8276	6.101571	0.000235	2.351437	0.398344	0.004704
 585	2.9200e-01	5.8392	6.145189	0.000436	4.360846	0.738747	0.008724
 586	2.9250e-01	5.8481	6.202918	0.000577	5.771708	0.977754	0.011546
 587	2.9300e-01	5.8582	6.224300	0.000214	2.137670	0.362131	0.004276
 588	2.9350e-01	5.8664	6.272194	0.000479	4.788380	0.811174	0.009579
 589	2.9400e-01	5.8759	6.313673	0.000415	4.147079	0.702534	0.008296
 590	2.9450e-01	5.8870	6.337620	0.000239	2.394190	0.405587	0.004789
 591	2.9500e-01	5.8954	6.382949	0.000453	4.531860	0.767718	0.009066
 592	2.9550e-01	5.9064	6.420152	0.000372	3.719545	0.630108	0.007441
 593	2.9600e-01	5.9161	6.451369	0.000312	3.120998	0.528711	0.006243
 594	2.9650e-01	5.9244	6.492421	0.000410	4.104326	0.695292	0.008210
 595	2.9700e-01	5.9370	6.535611	0.000432	4.318093	0.731505	0.008638
 596	2.9750e-01	5.9442	6.585215	0.000496	4.959394	0.840144	0.009921
 597	2.9800e-01	5.9558	6.613866	0.000286	2.864477	0.485256	0.005730
 598	2.9850e-01	5.9662	6.631399	0.000175	1.752889	0.296947	0.003507
 599	2.9900e-01	5.9741	6.694260	0.000628	6.284749	1.064665	0.012572
 600	2.9950e-01	5.9872	6.714786	0.000205	2.052163	0.347646	0.004105
 601	3.0000e-01	5.9995	6.759259	0.000445	4.446353	0.753233	0.008895
 602	3.0050e-01	6.0052	6.802877	0.000436	4.360846	0.738747	0.008724
 603	3.0100e-01	6.0150	6.839225	0.000363	3.634039	0.615623	0.007270
 604	3.0150e-01	6.0266	6.875145	0.000359	3.591285	0.608380	0.007184
 605	3.0200e-01	6.0352	6.896527	0.000214	2.137670	0.362131	0.004276
 606	3.0250e-01	6.0455	6.946559	0.000500	5.002147	0.847387	0.010006
 607	3.0300e-01	6.0566	6.994880	0.000483	4.831134	0.818416	0.009664
 608	3.0350e-01	6.0663	7.028235	0.000333	3.334765	0.564924	0.006671
 609	3.0400e-01	6.0776	7.066294	0.000381	3.805052	0.644593	0.007612
 610	3.0450e-01	6.0846	7.095372	0.000291	2.907231	0.492498	0.005816
 611	3.0500e-01	6.0953	7.132148	0.000368	3.676792	0.622865	0.007355
 612	3.0550e-01	6.1053	7.175338	0.000432	4.318093	0.731505	0.008638
 613	3.0600e-01	6.1176	7.226653	0.000513	5.130407	0.869115	0.010263
 614	3.0650e-01	6.1279	7.266422	0.000398	3.976066	0.673564	0.007954
 615	3.0700e-01	6.1395	7.284810	0.000184	1.838396	0.311433	0.003678
 616	3.0750e-01	6.1456	7.330566	0.000457	4.574613	0.774960	0.009151
 617	3.0800e-01	6.1578	7.360928	0.000304	3.035491	0.514226	0.006072
 618	3.0850e-01	6.1658	7.398559	0.000376	3.762299	0.637351	0.007526
 619	3.0900e-01	6.1761	7.450301	0.000517	5.173161	0.876357	0.010349
 620	3.0950e-01	6.1879	7.476386	0.000261	2.607957	0.441800	0.005217
 621	3.1000e-01	6.1981	7.521715	0.000453	4.531860	0.767718	0.009066
 622	3.1050e-01	6.2050	7.554642	0.000329	3.292011	0.557682	0.006585
 623	3.1100e-01	6.2183	7.596549	0.000419	4.189833	0.709777	0.008381
 624	3.1150e-01	6.2256	7.618786	0.000222	2.223177	0.376616	0.004447
 625	3.1200e-01	6.2355	7.666680	0.000479	4.788380	0.811174	0.009579
 626	3.1250e-01	6.2476	7.715857	0.000492	4.916640	0.832901	0.009835
 627	3.1300e-01	6.2579	7.729541	0.000137	1.368109	0.231764	0.002737
 628	3.1350e-01	6.2665	7.785132	0.000556	5.557941	0.941541	0.011118
 629	3.1400e-01	6.2769	7.819770	0.000346	3.463025	0.586652	0.006928
 630	3.1450e-01	6.2862	7.842861	0.000231	2.308683	0.391102	0.004618
 631	3.1500e-01	6.2946	7.899736	0.000569	5.686201	0.963269	0.011375
 632	3.1550e-01	6.3080	7.910854	0.000111	1.111588	0.188308	0.002224
 633	3.1600e-01	6.3182	7.960031	0.000492	4.916640	0.832901	0.009835
 634	3.1650e-01	6.3257	8.005787	0.000457	4.574613	0.774960	0.009151
 635	3.1700e-01	6.3350	8.033155	0.000274	2.736217	0.463528	0.005474
 636	3.1750e-01	6.3470	8.075489	0.000423	4.232586	0.717019	0.008467
 637	3.1800e-01	6.3544	8.093877	0.000184	1.838396	0.311433	0.003678
 638	3.1850e-01	6.3644	8.151179	0.000573	5.728955	0.970511	0.011460
 639	3.1900e-01	6.3760	8.163580	0.000124	1.239848	0.210036	0.002480
 640	3.1950e-01	6.3852	8.217033	0.000534	5.344174	0.905328	0.010691
 641	3.2000e-01	6.3942	8.263645	0.000466	4.660120	0.789446	0.009322
 642	3.2050e-01	6.4056	8.255520	-0.000081	-0.812314	-0.137610	-0.001625
 643	3.2100e-01	6.4188	8.318381	0.000628	6.284749	1.064665	0.012572
 644	3.2150e-01	6.4264	8.368840	0.000504	5.044901	0.854629	0.010092
 645	3.2200e-01	6.4365	8.401768	0.000329	3.292011	0.557682	0.006585
 646	3.2250e-01	6.4453	8.444530	0.000428	4.275339	0.724262	0.008553
 647	3.2300e-01	6.4539	8.471471	0.000269	2.693464	0.456285	0.005388
 648	3.2350e-01	6.4648	8.518509	0.000470	4.702873	0.796688	0.009408
 649	3.2400e-01	6.4772	8.524924	0.000064	0.641301	0.108639	0.001283
 650	3.2450e-01	6.4880	8.587785	0.000628	6.284749	1.064665	0.012572
 651	3.2500e-01	6.4978	8.618146	0.000304	3.035491	0.514226	0.006072
 652	3.2550e-01	6.5045	8.648935	0.000308	3.078244	0.521469	0.006158
 653	3.2600e-01	6.5161	8.689559	0.000406	4.061572	0.688049	0.008125
 654	3.2650e-01	6.5283	8.728473	0.000389	3.890559	0.659079	0.007783
 655	3.2700e-01	6.5341	8.762683	0.000342	3.420272	0.579410	0.006842
 656	3.2750e-01	6.5450	8.808012	0.000453	4.531860	0.767718	0.009066
 657	3.2800e-01	6.5573	8.843932	0.000359	3.591285	0.608380	0.007184
 658	3.2850e-01	6.5659	8.878142	0.000342	3.420272	0.579410	0.006842
 659	3.2900e-01	6.5765	8.923470	0.000453	4.531860	0.767718	0.009066
 660	3.2950e-01	6.5857	8.970509	0.000470	4.702873	0.796688	0.009408
 661	3.3000e-01	6.5955	8.987614	0.000171	1.710136	0.289705	0.003421
 662	3.3050e-01	6.6077	9.038502	0.000509	5.087654	0.861872	0.010177
 663	3.3100e-01	6.6135	9.062021	0.000235	2.351437	0.398344	0.004704
 664	3.3150e-01	6.6248	9.096231	0.000342	3.420272	0.579410	0.006842
 665	3.3200e-01	6.6357	9.136428	0.000402	4.018819	0.680806	0.008039
 666	3.3250e-01	6.6455	9.171065	0.000346	3.463025	0.586652	0.006928
 667	3.3300e-01	6.6541	9.208269	0.000372	3.719545	0.630108	0.007441
 668	3.3350e-01	6.6656	9.248893	0.000406	4.061572	0.688049	0.008125
 669	3.3400e-01	6.6766	9.280965	0.000321	3.206505	0.543197	0.006414
 670	3.3450e-01	6.6870	9.311327	0.000304	3.035491	0.514226	0.006072
 671	3.3500e-01	6.6968	9.340833	0.000295	2.949984	0.499741	0.005901
 672	3.3550e-01	6.7053	9.393003	0.000522	5.215914	0.883600	0.010434
 673	3.3600e-01	6.7175	9.421226	0.000282	2.821724	0.478013	0.005645
 674	3.3650e-01	6.7291	9.469976	0.000487	4.873887	0.825659	0.009750
 675	3.3700e-01	6.7371	9.500765	0.000308	3.078244	0.521469	0.006158
 676	3.3750e-01	6.7480	9.538396	0.000376	3.762299	0.637351	0.007526
 677	3.3800e-01	6.7566	9.565764	0.000274	2.736217	0.463528	0.005474
 678	3.3850e-01	6.7670	9.601684	0.000359	3.591285	0.608380	0.007184
 679	3.3900e-01	6.7746	9.646585	0.000449	4.489106	0.760475	0.008980
 680	3.3950e-01	6.7873	9.668394	0.000218	2.180423	0.369374	0.004362
 681	3.4000e-01	6.7978	9.717571	0.000492	4.916640	0.832901	0.009835
 682	3.4050e-01	6.8060	9.759050	0.000415	4.147079	0.702534	0.008296
 683	3.4100e-01	6.8167	9.772307	0.000133	1.325355	0.224521	0.002651
 684	3.4150e-01	6.8256	9.819773	0.000475	4.745627	0.803931	0.009493
 685	3.4200e-01	6.8365	9.850562	0.000308	3.078244	0.521469	0.006158
 686	3.4250e-01	6.8475	9.893752	0.000432	4.318093	0.731505	0.008638
 687	3.4300e-01	6.8567	9.929673	0.000359	3.591285	0.608380	0.007184
 688	3.4350e-01	6.8634	9.976284	0.000466	4.660120	0.789446	0.009322
 689	3.4400e-01	6.8781	10.003224	0.000269	2.693464	0.456285	0.005388
 690	3.4450e-01	6.8872	10.036151	0.000329	3.292011	0.557682	0.006585
 691	3.4500e-01	6.8945	10.083618	0.000475	4.745627	0.803931	0.009493
 692	3.4550e-01	6.9063	10.105854	0.000222	2.223177	0.376616	0.004447
 693	3.4600e-01	6.9165	10.144341	0.000385	3.847805	0.651836	0.007697
 694	3.4650e-01	6.9278	10.181544	0.000372	3.719545	0.630108	0.007441
 695	3.4700e-01	6.9388	10.221313	0.000398	3.976066	0.673564	0.007954
 696	3.4750e-01	6.9470	10.251675	0.000304	3.035491	0.514226	0.006072
 697	3.4800e-01	6.9543	10.285029	0.000333	3.334765	0.564924	0.006671
 698	3.4850e-01	6.9666	10.326081	0.000410	4.104326	0.695292	0.008210
 699	3.4900e-01	6.9760	10.372692	0.000466	4.660120	0.789446	0.009322
 700	3.4950e-01	6.9864	10.394929	0.000222	2.223177	0.376616	0.004447
 701	3.5000e-01	6.9965	10.430850	0.000359	3.591285	0.608380	0.007184
 702	3.5050e-01	7.0099	10.460356	0.000295	2.949984	0.499741	0.005901
 703	3.5100e-01	7.0178	10.503118	0.000428	4.275339	0.724262	0.008553
 704	3.5150e-01	7.0288	10.531341	0.000282	2.821724	0.478013	0.005645
 705	3.5200e-01	7.0392	10.571966	0.000406	4.061572	0.688049	0.008125
 706	3.5250e-01	7.0459	10.596340	0.000244	2.436943	0.412829	0.004875
 707	3.5300e-01	7.0575	10.652359	0.000560	5.600695	0.948783	0.011204
 708	3.5350e-01	7.0645	10.679727	0.000274	2.736217	0.463528	0.005474
 709	3.5400e-01	7.0752	10.720779	0.000410	4.104326	0.695292	0.008210
 710	3.5450e-01	7.0856	10.760121	0.000393	3.933312	0.666321	0.007868
 711	3.5500e-01	7.0955	10.792620	0.000325	3.249258	0.550439	0.006500
 712	3.5550e-01	7.1063	10.826831	0.000342	3.420272	0.579410	0.006842
 713	3.5600e-01	7.1175	10.853343	0.000265	2.650710	0.449043	0.005303
 714	3.5650e-01	7.1255	10.891830	0.000385	3.847805	0.651836	0.007697
 715	3.5700e-01	7.1350	10.912356	0.000205	2.052163	0.347646	0.004105
 716	3.5750e-01	7.1475	10.970513	0.000581	5.814462	0.984996	0.011631
 717	3.5800e-01	7.1591	10.999591	0.000291	2.907231	0.492498	0.005816
 718	3.5850e-01	7.1658	11.039788	0.000402	4.018819	0.680806	0.008039
 719	3.5900e-01	7.1777	11.069722	0.000299	2.992738	0.506983	0.005987
 720	3.5950e-01	7.1854	11.106070	0.000363	3.634039	0.615623	0.007270
 721	3.6000e-01	7.1967	11.138997	0.000329	3.292011	0.557682	0.006585
 722	3.6050e-01	7.2052	11.176200	0.000372	3.719545	0.630108	0.007441
 723	3.6100e-01	7.2218	11.211266	0.000351	3.505778	0.593895	0.007013
 724	3.6150e-01	7.2284	11.248041	0.000368	3.676792	0.622865	0.007355
 725	3.6200e-01	7.2388	11.285672	0.000376	3.762299	0.637351	0.007526
 726	3.6250e-01	7.2479	11.318600	0.000329	3.292011	0.557682	0.006585
 727	3.6300e-01	7.2559	11.352382	0.000338	3.377518	0.572167	0.006756
 728	3.6350e-01	7.2675	11.382316	0.000299	2.992738	0.506983	0.005987
 729	3.6400e-01	7.2778	11.416098	0.000338	3.377518	0.572167	0.006756
 730	3.6450e-01	7.2882	11.487512	0.000714	7.139817	1.209518	0.014283
 731	3.6500e-01	7.2980	11.504617	0.000171	1.710136	0.289705	0.003421
 732	3.6550e-01	7.3071	11.517445	0.000128	1.282602	0.217279	0.002566
 733	3.6600e-01	7.3175	11.575175	0.000577	5.771708	0.977754	0.011546
 734	3.6650e-01	7.3273	11.598267	0.000231	2.308683	0.391102	0.004618
 735	3.6700e-01	7.3358	11.651720	0.000534	5.344174	0.905328	0.010691
 736	3.6750e-01	7.3468	11.682081	0.000304	3.035491	0.514226	0.006072
 737	3.6800e-01	7.3569	11.702179	0.000201	2.009410	0.340403	0.004020
 738	3.6850e-01	7.3663	11.753067	0.000509	5.087654	0.861872	0.010177
 739	3.6900e-01	7.3779	11.772310	0.000192	1.923903	0.325918	0.003849
 740	3.6950e-01	7.3871	11.814645	0.000423	4.232586	0.717019	0.008467
 741	3.7000e-01	7.3962	11.842013	0.000274	2.736217	0.463528	0.005474
 742	3.7050e-01	7.4054	11.876651	0.000346	3.463025	0.586652	0.006928
 743	3.7100e-01	7.4182	11.911288	0.000346	3.463025	0.586652	0.006928
 744	3.7150e-01	7.4280	11.947636	0.000363	3.634039	0.615623	0.007270
 745	3.7200e-01	7.4371	11.998096	0.000504	5.044901	0.854629	0.010092
 746	3.7250e-01	7.4451	12.018622	0.000205	2.052163	0.347646	0.004105
 747	3.7300e-01	7.4582	12.064378	0.000457	4.574613	0.774960	0.009151
 748	3.7350e-01	7.4689	12.098160	0.000338	3.377518	0.572167	0.006756
 749	3.7400e-01	7.4774	12.119542	0.000214	2.137670	0.362131	0.004276
 750	3.7450e-01	7.4855	12.168291	0.000487	4.873887	0.825659	0.009750
 751	3.7500e-01	7.4969	12.198225	0.000299	2.992738	0.506983	0.005987
 752	3.7550e-01	7.5079	12.245691	0.000475	4.745627	0.803931	0.009493
 753	3.7600e-01	7.5172	12.262796	0.000171	1.710136	0.289705	0.003421
 754	3.7650e-01	7.5293	12.304703	0.000419	4.189833	0.709777	0.008381
 755	3.7700e-01	7.5366	12.332071	0.000274	2.736217	0.463528	0.005474
 756	3.7750e-01	7.5473	12.380821	0.000487	4.873887	0.825659	0.009750
 757	3.7800e-01	7.5580	12.416741	0.000359	3.591285	0.608380	0.007184
 758	3.7850e-01	7.5708	12.433419	0.000167	1.667382	0.282462	0.003335
 759	3.7900e-01	7.5793	12.477892	0.000445	4.446353	0.753233	0.008895
 760	3.7950e-01	7.5867	12.519799	0.000419	4.189833	0.709777	0.008381
 761	3.8000e-01	7.5940	12.550588	0.000308	3.078244	0.521469	0.006158
 762	3.8050e-01	7.6044	12.607462	0.000569	5.686201	0.963269	0.011375
 763	3.8100e-01	7.6178	12.610028	0.000026	0.256520	0.043456	0.000513
 764	3.8150e-01	7.6254	12.651080	0.000410	4.104326	0.695292	0.008210
 765	3.8200e-01	7.6367	12.705816	0.000547	5.472434	0.927055	0.010947
 766	3.8250e-01	7.6483	12.717789	0.000120	1.197095	0.202793	0.002395
 767	3.8300e-01	7.6544	12.776802	0.000590	5.899968	0.999482	0.011802
 768	3.8350e-01	7.6685	12.790058	0.000133	1.325355	0.224521	0.002651
 769	3.8400e-01	7.6752	12.832821	0.000428	4.275339	0.724262	0.008553
 770	3.8450e-01	7.6874	12.864465	0.000316	3.163751	0.535954	0.006329
 771	3.8500e-01	7.6991	12.900385	0.000359	3.591285	0.608380	0.007184
 772	3.8550e-01	7.7100	12.937161	0.000368	3.676792	0.622865	0.007355
 773	3.8600e-01	7.7167	12.973082	0.000359	3.591285	0.608380	0.007184
 774	3.8650e-01	7.7246	12.998739	0.000257	2.565204	0.434557	0.005132
 775	3.8700e-01	7.7380	13.038936	0.000402	4.018819	0.680806	0.008039
 776	3.8750e-01	7.7487	13.091962	0.000530	5.301421	0.898085	0.010605
 777	3.8800e-01	7.7567	13.123178	0.000312	3.120998	0.528711	0.006243
 778	3.8850e-01	7.7663	13.139000	0.000158	1.581876	0.267977	0.003164
 779	3.8900e-01	7.7759	13.188605	0.000496	4.959394	0.840144	0.009921
 780	3.8950e-01	7.7875	13.219822	0.000312	3.120998	0.528711	0.006243
 781	3.9000e-01	7.7972	13.255314	0.000355	3.548532	0.601138	0.007099
 782	3.9050e-01	7.8070	13.301070	0.000457	4.574613	0.774960	0.009151
 783	3.9100e-01	7.8180	13.320313	0.000192	1.923903	0.325918	0.003849
 784	3.9150e-01	7.8265	13.368208	0.000479	4.788380	0.811174	0.009579
 785	3.9200e-01	7.8369	13.386595	0.000184	1.838396	0.311433	0.003678
 786	3.9250e-01	7.8479	13.428075	0.000415	4.147079	0.702534	0.008296
 787	3.9300e-01	7.8552	13.468272	0.000402	4.018819	0.680806	0.008039
 788	3.9350e-01	7.8650	13.494357	0.000261	2.607957	0.441800	0.005217
 789	3.9400e-01	7.8790	13.549948	0.000556	5.557941	0.941541	0.011118
 790	3.9450e-01	7.8882	13.571757	0.000218	2.180423	0.369374	0.004362
 791	3.9500e-01	7.8967	13.608533	0.000368	3.676792	0.622865	0.007355
 792	3.9550e-01	7.9053	13.651295	0.000428	4.275339	0.724262	0.008553
 793	3.9600e-01	7.9156	13.676098	0.000248	2.479697	0.420072	0.004960
 794	3.9650e-01	7.9248	13.715012	0.000389	3.890559	0.659079	0.007783
 795	3.9700e-01	7.9346	13.740242	0.000252	2.522450	0.427315	0.005046
 796	3.9750e-01	7.9471	13.789846	0.000496	4.959394	0.840144	0.009921
 797	3.9800e-01	7.9550	13.812510	0.000227	2.265930	0.383859	0.004533
 798	3.9850e-01	7.9675	13.837740	0.000252	2.522450	0.427315	0.005046
 799	3.9900e-01	7.9767	13.899746	0.000620	6.199242	1.050180	0.012401
 800	3.9950e-01	7.9858	13.932673	0.000329	3.292011	0.557682	0.006585
 801	4.0000e-01	7.9950	13.972014	0.000393	3.933312	0.666321	0.007868
 802	4.0050e-01	8.0054	13.997672	0.000257	2.565204	0.434557	0.005132
 803	4.0100e-01	8.0170	14.029744	0.000321	3.206505	0.543197	0.006414
 804	4.0150e-01	8.0261	14.055401	0.000257	2.565204	0.434557	0.005132
 805	4.0200e-01	8.0362	14.084907	0.000295	2.949984	0.499741	0.005901
 806	4.0250e-01	8.0463	14.137078	0.000522	5.215914	0.883600	0.010434
 807	4.0300e-01	8.0563	14.161452	0.000244	2.436943	0.412829	0.004875
 808	4.0350e-01	8.0676	14.198228	0.000368	3.676792	0.622865	0.007355
 809	4.0400e-01	8.0750	14.246122	0.000479	4.788380	0.811174	0.009579
 810	4.0450e-01	8.0865	14.277766	0.000316	3.163751	0.535954	0.006329
 811	4.0500e-01	8.0957	14.303852	0.000261	2.607957	0.441800	0.005217
 812	4.0550e-01	8.1067	14.343621	0.000398	3.976066	0.673564	0.007954
 813	4.0600e-01	8.1189	14.367568	0.000239	2.394190	0.405587	0.004789
 814	4.0650e-01	8.1256	14.417172	0.000496	4.959394	0.840144	0.009921
 815	4.0700e-01	8.1366	14.448817	0.000316	3.163751	0.535954	0.006329
 816	4.0750e-01	8.1464	14.492434	0.000436	4.360846	0.738747	0.008724
 817	4.0800e-01	8.1563	14.504836	0.000124	1.239848	0.210036	0.002480
 818	4.0850e-01	8.1689	14.554012	0.000492	4.916640	0.832901	0.009835
 819	4.0900e-01	8.1766	14.586512	0.000325	3.249258	0.550439	0.006500
 820	4.0950e-01	8.1856	14.612169	0.000257	2.565204	0.434557	0.005132
 821	4.1000e-01	8.1949	14.661774	0.000496	4.959394	0.840144	0.009921
 822	4.1050e-01	8.2086	14.685293	0.000235	2.351437	0.398344	0.004704
 823	4.1100e-01	8.2172	14.733615	0.000483	4.831134	0.818416	0.009664
 824	4.1150e-01	8.2254	14.760983	0.000274	2.736217	0.463528	0.005474
 825	4.1200e-01	8.2358	14.814436	0.000534	5.344174	0.905328	0.010691
 826	4.1250e-01	8.2455	14.849929	0.000355	3.548532	0.601138	0.007099
 827	4.1300e-01	8.2568	14.864468	0.000145	1.453615	0.246249	0.002908
 828	4.1350e-01	8.2678	14.897396	0.000329	3.292011	0.557682	0.006585
 829	4.1400e-01	8.2753	14.942296	0.000449	4.489106	0.760475	0.008980
 830	4.1450e-01	8.2898	14.968809	0.000265	2.650710	0.449043	0.005303
 831	4.1500e-01	8.2965	14.998315	0.000295	2.949984	0.499741	0.005901
 832	4.1550e-01	8.3044	15.040650	0.000423	4.232586	0.717019	0.008467
 833	4.1600e-01	8.3191	15.087261	0.000466	4.660120	0.789446	0.009322
 834	4.1650e-01	8.3264	15.108642	0.000214	2.137670	0.362131	0.004276
 835	4.1700e-01	8.3380	15.140714	0.000321	3.206505	0.543197	0.006414
 836	4.1750e-01	8.3481	15.174924	0.000342	3.420272	0.579410	0.006842
 837	4.1800e-01	8.3563	15.184760	0.000098	0.983328	0.166580	0.001967
 838	4.1850e-01	8.3673	15.248048	0.000633	6.327502	1.071908	0.012658
 839	4.1900e-01	8.3777	15.289100	0.000410	4.104326	0.695292	0.008210
 840	4.1950e-01	8.3875	15.322027	0.000329	3.292011	0.557682	0.006585
 841	4.2000e-01	8.3987	15.369494	0.000475	4.745627	0.803931	0.009493
 842	4.2050e-01	8.4058	15.393868	0.000244	2.436943	0.412829	0.004875
 843	4.2100e-01	8.4161	15.434065	0.000402	4.018819	0.680806	0.008039
 844	4.2150e-01	8.4259	15.455874	0.000218	2.180423	0.369374	0.004362
 845	4.2200e-01	8.4363	15.489229	0.000333	3.334765	0.564924	0.006671
 846	4.2250e-01	8.4503	15.528570	0.000393	3.933312	0.666321	0.007868
 847	4.2300e-01	8.4552	15.567057	0.000385	3.847805	0.651836	0.007697
 848	4.2350e-01	8.4641	15.611102	0.000440	4.403600	0.745990	0.008809
 849	4.2400e-01	8.4767	15.636332	0.000252	2.522450	0.427315	0.005046
 850	4.2450e-01	8.4839	15.683798	0.000475	4.745627	0.803931	0.009493
 851	4.2500e-01	8.4950	15.721429	0.000376	3.762299	0.637351	0.007526
 852	4.2550e-01	8.5059	15.747942	0.000265	2.650710	0.449043	0.005303
 853	4.2600e-01	8.5159	15.783863	0.000359	3.591285	0.608380	0.007184
 854	4.2650e-01	8.5274	15.824487	0.000406	4.061572	0.688049	0.008125
 855	4.2700e-01	8.5352	15.862118	0.000376	3.762299	0.637351	0.007526
 856	4.2750e-01	8.5468	15.889486	0.000274	2.736217	0.463528	0.005474
 857	4.2800e-01	8.5571	15.908729	0.000192	1.923903	0.325918	0.003849
 858	4.2850e-01	8.5687	15.952775	0.000440	4.403600	0.745990	0.008809
 859	4.2900e-01	8.5785	15.996392	0.000436	4.360846	0.738747	0.008724
 860	4.2950e-01	8.5846	16.048135	0.000517	5.173161	0.876357	0.010349
 861	4.3000e-01	8.5956	16.064385	0.000162	1.624629	0.275220	0.003250
 862	4.3050e-01	8.6053	16.100733	0.000363	3.634039	0.615623	0.007270
 863	4.3100e-01	8.6157	16.138364	0.000376	3.762299	0.637351	0.007526
 864	4.3150e-01	8.6261	16.168725	0.000304	3.035491	0.514226	0.006072
 865	4.3200e-01	8.6359	16.202508	0.000338	3.377518	0.572167	0.006756
 866	4.3250e-01	8.6472	16.224744	0.000222	2.223177	0.376616	0.004447
 867	4.3300e-01	8.6560	16.278625	0.000539	5.386928	0.912570	0.010776
 868	4.3350e-01	8.6688	16.314118	0.000355	3.548532	0.601138	0.007099
 869	4.3400e-01	8.6780	16.349611	0.000355	3.548532	0.601138	0.007099
 870	4.3450e-01	8.6877	16.380400	0.000308	3.078244	0.521469	0.006158
 871	4.3500e-01	8.6963	16.415465	0.000351	3.505778	0.593895	0.007013
 872	4.3550e-01	8.7042	16.464642	0.000492	4.916640	0.832901	0.009835
 873	4.3600e-01	8.7161	16.491583	0.000269	2.693464	0.456285	0.005388
 874	4.3650e-01	8.7262	16.520233	0.000286	2.864477	0.485256	0.005730
 875	4.3700e-01	8.7354	16.569838	0.000496	4.959394	0.840144	0.009921
 876	4.3750e-01	8.7457	16.596778	0.000269	2.693464	0.456285	0.005388
 877	4.3800e-01	8.7579	16.627140	0.000304	3.035491	0.514226	0.006072
 878	4.3850e-01	8.7695	16.675889	0.000487	4.873887	0.825659	0.009750
 879	4.3900e-01	8.7762	16.707533	0.000316	3.163751	0.535954	0.006329
 880	4.3950e-01	8.7866	16.745164	0.000376	3.762299	0.637351	0.007526
 881	4.4000e-01	8.7958	16.784933	0.000398	3.976066	0.673564	0.007954
 882	4.4050e-01	8.8062	16.826841	0.000419	4.189833	0.709777	0.008381
 883	4.4100e-01	8.8196	16.847367	0.000205	2.052163	0.347646	0.004105
 884	4.4150e-01	8.8269	16.875162	0.000278	2.778971	0.470770	0.005559
 885	4.4200e-01	8.8367	16.916214	0.000410	4.104326	0.695292	0.008210
 886	4.4250e-01	8.8464	16.956411	0.000402	4.018819	0.680806	0.008039
 887	4.4300e-01	8.8562	16.973516	0.000171	1.710136	0.289705	0.003421
 888	4.4350e-01	8.8672	17.029963	0.000564	5.643448	0.956026	0.011289
 889	4.4400e-01	8.8754	17.062890	0.000329	3.292011	0.557682	0.006585
 890	4.4450e-01	8.8855	17.129172	0.000663	6.626776	1.122606	0.013256
 891	4.4500e-01	8.8965	17.130882	0.000017	0.171014	0.028970	0.000342
 892	4.4550e-01	8.9044	17.159961	0.000291	2.907231	0.492498	0.005816
 893	4.4600e-01	8.9160	17.205717	0.000457	4.574613	0.774960	0.009151
 894	4.4650e-01	8.9270	17.243775	0.000381	3.805052	0.644593	0.007612
 895	4.4700e-01	8.9392	17.270716	0.000269	2.693464	0.456285	0.005388
 896	4.4750e-01	8.9441	17.302360	0.000316	3.163751	0.535954	0.006329
 897	4.4800e-01	8.9554	17.346405	0.000440	4.403600	0.745990	0.008809
 898	4.4850e-01	8.9664	17.381043	0.000346	3.463025	0.586652	0.006928
 899	4.4900e-01	8.9755	17.417819	0.000368	3.676792	0.622865	0.007355
 900	4.4950e-01	8.9850	17.455878	0.000381	3.805052	0.644593	0.007612
 901	4.5000e-01	8.9954	17.514890	0.000590	5.899968	0.999482	0.011802
 902	4.5050e-01	9.0033	17.533705	0.000188	1.881149	0.318675	0.003763
 903	4.5100e-01	9.0155	17.566632	0.000329	3.292011	0.557682	0.006585
 904	4.5150e-01	9.0259	17.609395	0.000428	4.275339	0.724262	0.008553
 905	4.5200e-01	9.0387	17.654296	0.000449	4.489106	0.760475	0.008980
 906	4.5250e-01	9.0460	17.694065	0.000398	3.976066	0.673564	0.007954
 907	4.5300e-01	9.0558	17.708604	0.000145	1.453615	0.246249	0.002908
 908	4.5350e-01	9.0720	17.749656	0.000410	4.104326	0.695292	0.008210
 909	4.5400e-01	9.0771	17.780445	0.000308	3.078244	0.521469	0.006158
 910	4.5450e-01	9.0845	17.812517	0.000321	3.206505	0.543197	0.006414
 911	4.5500e-01	9.0961	17.856990	0.000445	4.446353	0.753233	0.008895
 912	4.5550e-01	9.1077	17.886069	0.000291	2.907231	0.492498	0.005816
 913	4.5600e-01	9.1156	17.938239	0.000522	5.215914	0.883600	0.010434
 914	4.5650e-01	9.1248	17.986988	0.000487	4.873887	0.825659	0.009750
 915	4.5700e-01	9.1364	18.001527	0.000145	1.453615	0.246249	0.002908
 916	4.5750e-01	9.1449	18.053698	0.000522	5.215914	0.883600	0.010434
 917	4.5800e-01	9.1577	18.084059	0.000304	3.035491	0.514226	0.006072
 918	4.5850e-01	9.1675	18.118269	0.000342	3.420272	0.579410	0.006842
 919	4.5900e-01	9.1766	18.154617	0.000363	3.634039	0.615623	0.007270
 920	4.5950e-01	9.1846	18.190110	0.000355	3.548532	0.601138	0.007099
 921	4.6000e-01	9.1974	18.223465	0.000333	3.334765	0.564924	0.006671
 922	4.6050e-01	9.2072	18.271787	0.000483	4.831134	0.818416	0.009664
 923	4.6100e-01	9.2157	18.295306	0.000235	2.351437	0.398344	0.004704
 924	4.6150e-01	9.2273	18.324384	0.000291	2.907231	0.492498	0.005816
 925	4.6200e-01	9.2360	18.367575	0.000432	4.318093	0.731505	0.008638
 926	4.6250e-01	9.2474	18.397936	0.000304	3.035491	0.514226	0.006072
 927	4.6300e-01	9.2575	18.435995	0.000381	3.805052	0.644593	0.007612
 928	4.6350e-01	9.2657	18.481323	0.000453	4.531860	0.767718	0.009066
 929	4.6400e-01	9.2755	18.523658	0.000423	4.232586	0.717019	0.008467
 930	4.6450e-01	9.2877	18.548888	0.000252	2.522450	0.427315	0.005046
 931	4.6500e-01	9.2975	18.587802	0.000389	3.890559	0.659079	0.007783
 932	4.6550e-01	9.3091	18.636551	0.000487	4.873887	0.825659	0.009750
 933	4.6600e-01	9.3176	18.661353	0.000248	2.479697	0.420072	0.004960
 934	4.6650e-01	9.3274	18.691715	0.000304	3.035491	0.514226	0.006072
 935	4.6700e-01	9.3384	18.747733	0.000560	5.600695	0.948783	0.011204
 936	4.6750e-01	9.3469	18.781516	0.000338	3.377518	0.572167	0.006756
 937	4.6800e-01	9.3561	18.823423	0.000419	4.189833	0.709777	0.008381
 938	4.6850e-01	9.3634	18.844804	0.000214	2.137670	0.362131	0.004276
 939	4.6900e-01	9.3799	18.892698	0.000479	4.788380	0.811174	0.009579
 940	4.6950e-01	9.3866	18.923915	0.000312	3.120998	0.528711	0.006243
 941	4.7000e-01	9.3954	18.958125	0.000342	3.420272	0.579410	0.006842
 942	4.7050e-01	9.4049	19.003026	0.000449	4.489106	0.760475	0.008980
 943	4.7100e-01	9.4159	19.042795	0.000398	3.976066	0.673564	0.007954
 944	4.7150e-01	9.4244	19.066314	0.000235	2.351437	0.398344	0.004704
 945	4.7200e-01	9.4351	19.125327	0.000590	5.899968	0.999482	0.011802
 946	4.7250e-01	9.4464	19.138583	0.000133	1.325355	0.224521	0.002651
 947	4.7300e-01	9.4553	19.181773	0.000432	4.318093	0.731505	0.008638
 948	4.7350e-01	9.4678	19.221970	0.000402	4.018819	0.680806	0.008039
 949	4.7400e-01	9.4763	19.262594	0.000406	4.061572	0.688049	0.008125
 950	4.7450e-01	9.4873	19.298515	0.000359	3.591285	0.608380	0.007184
 951	4.7500e-01	9.4977	19.342133	0.000436	4.360846	0.738747	0.008724
 952	4.7550e-01	9.5062	19.386606	0.000445	4.446353	0.753233	0.008895
 953	4.7600e-01	9.5172	19.410980	0.000244	2.436943	0.412829	0.004875
 954	4.7650e-01	9.5258	19.461012	0.000500	5.002147	0.847387	0.010006
 955	4.7700e-01	9.5355	19.496505	0.000355	3.548532	0.601138	0.007099
 956	4.7750e-01	9.5483	19.540551	0.000440	4.403600	0.745990	0.008809
 957	4.7800e-01	9.5584	19.568774	0.000282	2.821724	0.478013	0.005645
 958	4.7850e-01	9.5648	19.603412	0.000346	3.463025	0.586652	0.006928
 959	4.7900e-01	9.5776	19.644464	0.000410	4.104326	0.695292	0.008210
 960	4.7950e-01	9.5825	19.690647	0.000462	4.617367	0.782203	0.009237
 961	4.8000e-01	9.5947	19.716305	0.000257	2.565204	0.434557	0.005132
 962	4.8050e-01	9.6100	19.753936	0.000376	3.762299	0.637351	0.007526
 963	4.8100e-01	9.6179	19.797554	0.000436	4.360846	0.738747	0.008724
 964	4.8150e-01	9.6265	19.833902	0.000363	3.634039	0.615623	0.007270
 965	4.8200e-01	9.6353	19.863835	0.000299	2.992738	0.506983	0.005987
 966	4.8250e-01	9.6484	19.900611	0.000368	3.676792	0.622865	0.007355
 967	4.8300e-01	9.6552	19.960479	0.000599	5.985475	1.013967	0.011974
 968	4.8350e-01	9.6661	19.989130	0.000286	2.864477	0.485256	0.005730
 969	4.8400e-01	9.6759	20.029754	0.000406	4.061572	0.688049	0.008125
 970	4.8450e-01	9.6875	20.064819	0.000351	3.505778	0.593895	0.007013
 971	4.8500e-01	9.6967	20.109292	0.000445	4.446353	0.753233	0.008895
 972	4.8550e-01	9.7058	20.150772	0.000415	4.147079	0.702534	0.008296
 973	4.8600e-01	9.7171	20.172153	0.000214	2.137670	0.362131	0.004276
 974	4.8650e-01	9.7250	20.227317	0.000552	5.515188	0.934298	0.011033
 975	4.8700e-01	9.7382	20.251264	0.000239	2.394190	0.405587	0.004789
 976	4.8750e-01	9.7479	20.294882	0.000436	4.360846	0.738747	0.008724
 977	4.8800e-01	9.7552	20.333796	0.000389	3.890559	0.659079	0.007783
 978	4.8850e-01	9.7668	20.373565	0.000398	3.976066	0.673564	0.007954
 979	4.8900e-01	9.7778	20.410341	0.000368	3.676792	0.622865	0.007355
 980	4.8950e-01	9.7870	20.445406	0.000351	3.505778	0.593895	0.007013
 981	4.9000e-01	9.7974	20.479616	0.000342	3.420272	0.579410	0.006842
 982	4.9050e-01	9.8087	20.548891	0.000693	6.926050	1.173305	0.013855
 983	4.9100e-01	9.8169	20.568562	0.000197	1.966656	0.333161	0.003934
 984	4.9150e-01	9.8267	20.623298	0.000547	5.472434	0.927055	0.010947
 985	4.9200e-01	9.8337	20.656225	0.000329	3.292011	0.557682	0.006585
 986	4.9250e-01	9.8474	20.695567	0.000393	3.933312	0.666321	0.007868
 987	4.9300e-01	9.8560	20.737474	0.000419	4.189833	0.709777	0.008381
 988	4.9350e-01	9.8718	20.767835	0.000304	3.035491	0.514226	0.006072
 989	4.9400e-01	9.8755	20.804611	0.000368	3.676792	0.622865	0.007355
 990	4.9450e-01	9.8865	20.853360	0.000487	4.873887	0.825659	0.009750
 991	4.9500e-01	9.8981	20.879018	0.000257	2.565204	0.434557	0.005132
 992	4.9550e-01	9.9060	20.917932	0.000389	3.890559	0.659079	0.007783
 993	4.9600e-01	9.9194	20.967536	0.000496	4.959394	0.840144	0.009921
 994	4.9650e-01	9.9277	21.013292	0.000457	4.574613	0.774960	0.009151
 995	4.9700e-01	9.9359	21.047930	0.000346	3.463025	0.586652	0.006928
 996	4.9750e-01	9.9451	21.093686	0.000457	4.574613	0.774960	0.009151
 997	4.9800e-01	9.9573	21.115922	0.000222	2.223177	0.376616	0.004447
 998	4.9850e-01	9.9677	21.159112	0.000432	4.318093	0.731505	0.008638
 999	4.9900e-01	9.9756	21.224111	0.000650	6.498516	1.100878	0.013000
1000	4.9950e-01	9.9866	21.244637	0.000205	2.052163	0.347646	0.004105
1001	5.0000e-01	9.9969	21.299801	0.000552	5.515188	0.934298	0.011033
1002	5.0050e-01	9.9866	21.268584	0.000312	3.120998	0.528711	-0.006243
1003	5.0100e-01	9.9750	21.245920	0.000227	2.265930	0.383859	-0.004533
1004	5.0150e-01	9.9664	21.245493	0.000004	0.042753	0.007243	-0.000086
1005	5.0200e-01	9.9567	21.214276	0.000312	3.120998	0.528711	-0.006243
1006	5.0250e-01	9.9457	21.204441	0.000098	0.983328	0.166580	-0.001967
1007	5.0300e-01	9.9377	21.187336	0.000171	1.710136	0.289705	-0.003421
1008	5.0350e-01	9.9280	21.174079	0.000133	1.325355	0.224521	-0.002651
1009	5.0400e-01	9.9121	21.175362	-0.000013	-0.128260	-0.021728	0.000257
1010	5.0450e-01	9.9048	21.162533	0.000128	1.282602	0.217279	-0.002566
1011	5.0500e-01	9.8944	21.145856	0.000167	1.667382	0.282462	-0.003335
1012	5.0550e-01	9.8853	21.125330	0.000205	2.052163	0.347646	-0.004105
1013	5.0600e-01	9.8746	21.093686	0.000316	3.163751	0.535954	-0.006329
1014	5.0650e-01	9.8645	21.094541	-0.000009	-0.085507	-0.014485	0.000171
1015	5.0700e-01	9.8578	21.072732	0.000218	2.180423	0.369374	-0.004362
1016	5.0750e-01	9.8462	21.054772	0.000180	1.795643	0.304190	-0.003592
1017	5.0800e-01	9.8352	21.037239	0.000175	1.752889	0.296947	-0.003507
1018	5.0850e-01	9.8254	21.012437	0.000248	2.479697	0.420072	-0.004960
1019	5.0900e-01	9.8163	20.993194	0.000192	1.923903	0.325918	-0.003849
1020	5.0950e-01	9.8053	20.984641	0.000086	0.855068	0.144852	-0.001711
1021	5.1000e-01	9.7949	20.969247	0.000154	1.539122	0.260734	-0.003079
1022	5.1050e-01	9.7858	20.954708	0.000145	1.453615	0.246249	-0.002908
1023	5.1100e-01	9.7736	20.933754	0.000209	2.094916	0.354888	-0.004191
1024	5.1150e-01	9.7629	20.917076	0.000167	1.667382	0.282462	-0.003335
1025	5.1200e-01	9.7571	20.887998	0.000291	2.907231	0.492498	-0.005816
1026	5.1250e-01	9.7449	20.875597	0.000124	1.239848	0.210036	-0.002480
1027	5.1300e-01	9.7369	20.845235	0.000304	3.035491	0.514226	-0.006072
1028	5.1350e-01	9.7253	20.834117	0.000111	1.111588	0.188308	-0.002224
1029	5.1400e-01	9.7150	20.815729	0.000184	1.838396	0.311433	-0.003678
1030	5.1450e-01	9.7046	20.797341	0.000184	1.838396	0.311433	-0.003678
1031	5.1500e-01	9.6948	20.767835	0.000295	2.949984	0.499741	-0.005901
1032	5.1550e-01	9.6875	20.745171	0.000227	2.265930	0.383859	-0.004533
1033	5.1600e-01	9.6771	20.742178	0.000030	0.299274	0.050698	-0.000599
1034	5.1650e-01	9.6661	20.718231	0.000239	2.394190	0.405587	-0.004789
1035	5.1700e-01	9.6576	20.699415	0.000188	1.881149	0.318675	-0.003763
1036	5.1750e-01	9.6460	20.678034	0.000214	2.137670	0.362131	-0.004276
1037	5.1800e-01	9.6368	20.642969	0.000351	3.505778	0.593895	-0.007013
1038	5.1850e-01	9.6271	20.632706	0.000103	1.026081	0.173823	-0.002053
1039	5.1900e-01	9.6191	20.620305	0.000124	1.239848	0.210036	-0.002480
1040	5.1950e-01	9.6051	20.588233	0.000321	3.206505	0.543197	-0.006414
1041	5.2000e-01	9.5953	20.580535	0.000077	0.769561	0.130367	-0.001539
1042	5.2050e-01	9.5856	20.550602	0.000299	2.992738	0.506983	-0.005987
1043	5.2100e-01	9.5758	20.518957	0.000316	3.163751	0.535954	-0.006329
1044	5.2150e-01	9.5667	20.509550	0.000094	0.940575	0.159338	-0.001882
1045	5.2200e-01	9.5557	20.502708	0.000068	0.684054	0.115882	-0.001368
1046	5.2250e-01	9.5471	20.478333	0.000244	2.436943	0.412829	-0.004875
1047	5.2300e-01	9.5355	20.447544	0.000308	3.078244	0.521469	-0.006158
1048	5.2350e-01	9.5270	20.433860	0.000137	1.368109	0.231764	-0.002737
1049	5.2400e-01	9.5181	20.405209	0.000286	2.864477	0.485256	-0.005730
1050	5.2450e-01	9.5056	20.386394	0.000188	1.881149	0.318675	-0.003763
1051	5.2500e-01	9.4952	20.343203	0.000432	4.318093	0.731505	-0.008638
1052	5.2550e-01	9.4858	20.327809	0.000154	1.539122	0.260734	-0.003079
1053	5.2600e-01	9.4769	20.313697	0.000141	1.410862	0.239006	-0.002822
1054	5.2650e-01	9.4647	20.289750	0.000239	2.394190	0.405587	-0.004789
1055	5.2700e-01	9.4565	20.274783	0.000150	1.496369	0.253492	-0.002993
1056	5.2750e-01	9.4472	20.238435	0.000363	3.634039	0.615623	-0.007270
1057	5.2800e-01	9.4391	20.218764	0.000197	1.966656	0.333161	-0.003934
1058	5.2850e-01	9.4263	20.183699	0.000351	3.505778	0.593895	-0.007013
1059	5.2900e-01	9.4141	20.186265	-0.000026	-0.256520	-0.043456	0.000513
1060	5.2950e-01	9.4073	20.156331	0.000299	2.992738	0.506983	-0.005987
1061	5.3000e-01	9.3973	20.131529	0.000248	2.479697	0.420072	-0.004960
1062	5.3050e-01	9.3860	20.107154	0.000244	2.436943	0.412829	-0.004875
1063	5.3100e-01	9.3781	20.074655	0.000325	3.249258	0.550439	-0.006500
1064	5.3150e-01	9.3634	20.062681	0.000120	1.197095	0.202793	-0.002395
1065	5.3200e-01	9.3530	20.031465	0.000312	3.120998	0.528711	-0.006243
1066	5.3250e-01	9.3469	20.013504	0.000180	1.795643	0.304190	-0.003592
1067	5.3300e-01	9.3359	20.004524	0.000090	0.897821	0.152095	-0.001796
1068	5.3350e-01	9.3237	19.973735	0.000308	3.078244	0.521469	-0.006158
1069	5.3400e-01	9.3155	19.962189	0.000115	1.154342	0.195551	-0.002309
1070	5.3450e-01	9.3063	19.923703	0.000385	3.847805	0.651836	-0.007697
1071	5.3500e-01	9.2963	19.909164	0.000145	1.453615	0.246249	-0.002908
1072	5.3550e-01	9.2810	19.884361	0.000248	2.479697	0.420072	-0.004960
1073	5.3600e-01	9.2749	19.863835	0.000205	2.052163	0.347646	-0.004105
1074	5.3650e-01	9.2676	19.824494	0.000393	3.933312	0.666321	-0.007868
1075	5.3700e-01	9.2535	19.790712	0.000338	3.377518	0.572167	-0.006756
1076	5.3750e-01	9.2480	19.778310	0.000124	1.239848	0.210036	-0.002480
1077	5.3800e-01	9.2374	19.741535	0.000368	3.676792	0.622865	-0.007355
1078	5.3850e-01	9.2255	19.726995	0.000145	1.453615	0.246249	-0.002908
1079	5.3900e-01	9.2139	19.706897	0.000201	2.009410	0.340403	-0.004020
1080	5.3950e-01	9.2047	19.670121	0.000368	3.676792	0.622865	-0.007355
1081	5.4000e-01	9.1968	19.639760	0.000304	3.035491	0.514226	-0.006072
1082	5.4050e-01	9.1864	19.630780	0.000090	0.897821	0.152095	-0.001796
1083	5.4100e-01	9.1754	19.609398	0.000214	2.137670	0.362131	-0.004276
1084	5.4150e-01	9.1641	19.571767	0.000376	3.762299	0.637351	-0.007526
1085	5.4200e-01	9.1553	19.555090	0.000167	1.667382	0.282462	-0.003335
1086	5.4250e-01	9.1473	19.534136	0.000209	2.094916	0.354888	-0.004191
1087	5.4300e-01	9.1403	19.499499	0.000346	3.463025	0.586652	-0.006928
1088	5.4350e-01	9.1248	19.489236	0.000103	1.026081	0.173823	-0.002053
1089	5.4400e-01	9.1162	19.459730	0.000295	2.949984	0.499741	-0.005901
1090	5.4450e-01	9.1058	19.429368	0.000304	3.035491	0.514226	-0.006072
1091	5.4500e-01	9.0973	19.402855	0.000265	2.650710	0.449043	-0.005303
1092	5.4550e-01	9.0863	19.364369	0.000385	3.847805	0.651836	-0.007697
1093	5.4600e-01	9.0753	19.354961	0.000094	0.940575	0.159338	-0.001882
1094	5.4650e-01	9.0659	19.313054	0.000419	4.189833	0.709777	-0.008381
1095	5.4700e-01	9.0594	19.302363	0.000107	1.068835	0.181066	-0.002138
1096	5.4750e-01	9.0466	19.272430	0.000299	2.992738	0.506983	-0.005987
1097	5.4800e-01	9.0356	19.246772	0.000257	2.565204	0.434557	-0.005132
1098	5.4850e-01	9.0228	19.233943	0.000128	1.282602	0.217279	-0.002566
1099	5.4900e-01	9.0143	19.204865	0.000291	2.907231	0.492498	-0.005816
1100	5.4950e-01	9.0079	19.179207	0.000257	2.565204	0.434557	-0.005132
1101	5.5000e-01	8.9948	19.148418	0.000308	3.078244	0.521469	-0.006158
1102	5.5050e-01	8.9856	19.128320	0.000201	2.009410	0.340403	-0.004020
1103	5.5100e-01	8.9755	19.112925	0.000154	1.539122	0.260734	-0.003079
1104	5.5150e-01	8.9679	19.090261	0.000227	2.265930	0.383859	-0.004533
1105	5.5200e-01	8.9563	19.058189	0.000321	3.206505	0.543197	-0.006414
1106	5.5250e-01	8.9453	19.011151	0.000470	4.702873	0.796688	-0.009408
1107	5.5300e-01	8.9349	18.999605	0.000115	1.154342	0.195551	-0.002309
1108	5.5350e-01	8.9264	18.973092	0.000265	2.650710	0.449043	-0.005303
1109	5.5400e-01	8.9160	18.956842	0.000162	1.624629	0.275220	-0.003250
1110	5.5450e-01	8.9063	18.922205	0.000346	3.463025	0.586652	-0.006928
1111	5.5500e-01	8.8965	18.884146	0.000381	3.805052	0.644593	-0.007612
1112	5.5550e-01	8.8867	18.878159	0.000060	0.598548	0.101397	-0.001197
1113	5.5600e-01	8.8776	18.831548	0.000466	4.660120	0.789446	-0.009322
1114	5.5650e-01	8.8672	18.805035	0.000265	2.650710	0.449043	-0.005303
1115	5.5700e-01	8.8562	18.785792	0.000192	1.923903	0.325918	-0.003849
1116	5.5750e-01	8.8470	18.759279	0.000265	2.650710	0.449043	-0.005303
1117	5.5800e-01	8.8345	18.733194	0.000261	2.607957	0.441800	-0.005217
1118	5.5850e-01	8.8257	18.720365	0.000128	1.282602	0.217279	-0.002566
1119	5.5900e-01	8.8135	18.690432	0.000299	2.992738	0.506983	-0.005987
1120	5.5950e-01	8.8074	18.664774	0.000257	2.565204	0.434557	-0.005132
1121	5.6000e-01	8.7994	18.629281	0.000355	3.548532	0.601138	-0.007099
1122	5.6050e-01	8.7845	18.605762	0.000235	2.351437	0.398344	-0.004704
1123	5.6100e-01	8.7756	18.577111	0.000286	2.864477	0.485256	-0.005730
1124	5.6150e-01	8.7677	18.552309	0.000248	2.479697	0.420072	-0.004960
1125	5.6200e-01	8.7561	18.533921	0.000184	1.838396	0.311433	-0.003678
1126	5.6250e-01	8.7463	18.509974	0.000239	2.394190	0.405587	-0.004789
1127	5.6300e-01	8.7354	18.465073	0.000449	4.489106	0.760475	-0.008980
1128	5.6350e-01	8.7268	18.449251	0.000158	1.581876	0.267977	-0.003164
1129	5.6400e-01	8.7146	18.422738	0.000265	2.650710	0.449043	-0.005303
1130	5.6450e-01	8.7073	18.403068	0.000197	1.966656	0.333161	-0.003934
1131	5.6500e-01	8.6957	18.373561	0.000295	2.949984	0.499741	-0.005901
1132	5.6550e-01	8.6853	18.345338	0.000282	2.821724	0.478013	-0.005645
1133	5.6600e-01	8.6746	18.321391	0.000239	2.394190	0.405587	-0.004789
1134	5.6650e-01	8.6664	18.290602	0.000308	3.078244	0.521469	-0.006158
1135	5.6700e-01	8.6588	18.259813	0.000308	3.078244	0.521469	-0.006158
1136	5.6750e-01	8.6438	18.239287	0.000205	2.052163	0.347646	-0.004105
1137	5.6800e-01	8.6389	18.195242	0.000440	4.403600	0.745990	-0.008809
1138	5.6850e-01	8.6285	18.169584	0.000257	2.565204	0.434557	-0.005132
1139	5.6900e-01	8.6176	18.143927	0.000257	2.565204	0.434557	-0.005132
1140	5.6950e-01	8.6060	18.133236	0.000107	1.068835	0.181066	-0.002138
1141	5.7000e-01	8.5956	18.093467	0.000398	3.976066	0.673564	-0.007954
1142	5.7050e-01	8.5880	18.070803	0.000227	2.265930	0.383859	-0.004533
1143	5.7100e-01	8.5767	18.040014	0.000308	3.078244	0.521469	-0.006158
1144	5.7150e-01	8.5651	18.005804	0.000342	3.420272	0.579410	-0.006842
1145	5.7200e-01	8.5559	17.990837	0.000150	1.496369	0.253492	-0.002993
1146	5.7250e-01	8.5455	17.956199	0.000346	3.463025	0.586652	-0.006928
1147	5.7300e-01	8.5376	17.930114	0.000261	2.607957	0.441800	-0.005217
1148	5.7350e-01	8.5272	17.902318	0.000278	2.778971	0.470770	-0.005559
1149	5.7400e-01	8.5156	17.870674	0.000316	3.163751	0.535954	-0.006329
1150	5.7450e-01	8.5052	17.855707	0.000150	1.496369	0.253492	-0.002993
1151	5.7500e-01	8.4958	17.816366	0.000393	3.933312	0.666321	-0.007868
1152	5.7550e-01	8.4865	17.797550	0.000188	1.881149	0.318675	-0.003763
1153	5.7600e-01	8.4753	17.763340	0.000342	3.420272	0.579410	-0.006842
1154	5.7650e-01	8.4680	17.725281	0.000381	3.805052	0.644593	-0.007612
1155	5.7700e-01	8.4570	17.707321	0.000180	1.795643	0.304190	-0.003592
1156	5.7750e-01	8.4479	17.686795	0.000205	2.052163	0.347646	-0.004105
1157	5.7800e-01	8.4387	17.666697	0.000201	2.009410	0.340403	-0.004020
1158	5.7850e-01	8.4277	17.624362	0.000423	4.232586	0.717019	-0.008467
1159	5.7900e-01	8.4167	17.598277	0.000261	2.607957	0.441800	-0.005217
1160	5.7950e-01	8.4058	17.589724	0.000086	0.855068	0.144852	-0.001711
1161	5.8000e-01	8.3966	17.555087	0.000346	3.463025	0.586652	-0.006928
1162	5.8050e-01	8.3887	17.516173	0.000389	3.890559	0.659079	-0.007783
1163	5.8100e-01	8.3771	17.493936	0.000222	2.223177	0.376616	-0.004447
1164	5.8150e-01	8.3673	17.465713	0.000282	2.821724	0.478013	-0.005645
1165	5.8200e-01	8.3560	17.439200	0.000265	2.650710	0.449043	-0.005303
1166	5.8250e-01	8.3447	17.400714	0.000385	3.847805	0.651836	-0.007697
1167	5.8300e-01	8.3386	17.385319	0.000154	1.539122	0.260734	-0.003079
1168	5.8350e-01	8.3270	17.356241	0.000291	2.907231	0.492498	-0.005816
1169	5.8400e-01	8.3160	17.339991	0.000162	1.624629	0.275220	-0.003250
1170	5.8450e-01	8.3063	17.292097	0.000479	4.788380	0.811174	-0.009579
1171	5.8500e-01	8.2983	17.248479	0.000436	4.360846	0.738747	-0.008724
1172	5.8550e-01	8.2855	17.252756	-0.000043	-0.427534	-0.072426	0.000855
1173	5.8600e-01	8.2770	17.207855	0.000449	4.489106	0.760475	-0.008980
1174	5.8650e-01	8.2660	17.177493	0.000304	3.035491	0.514226	-0.006072
1175	5.8700e-01	8.2556	17.156967	0.000205	2.052163	0.347646	-0.004105
1176	5.8750e-01	8.2452	17.117626	0.000393	3.933312	0.666321	-0.007868
1177	5.8800e-01	8.2370	17.103514	0.000141	1.410862	0.239006	-0.002822
1178	5.8850e-01	8.2257	17.059897	0.000436	4.360846	0.738747	-0.008724
1179	5.8900e-01	8.2147	17.050916	0.000090	0.897821	0.152095	-0.001796
1180	5.8950e-01	8.2033	17.013285	0.000376	3.762299	0.637351	-0.007526
1181	5.9000e-01	8.1952	16.984207	0.000291	2.907231	0.492498	-0.005816
1182	5.9050e-01	8.1860	16.952135	0.000321	3.206505	0.543197	-0.006414
1183	5.9100e-01	8.1793	16.899537	0.000526	5.258668	0.890842	-0.010520
1184	5.9150e-01	8.1656	16.899109	0.000004	0.042753	0.007243	-0.000086
1185	5.9200e-01	8.1561	16.874307	0.000248	2.479697	0.420072	-0.004960
1186	5.9250e-01	8.1470	16.845656	0.000286	2.864477	0.485256	-0.005730
1187	5.9300e-01	8.1354	16.822992	0.000227	2.265930	0.383859	-0.004533
1188	5.9350e-01	8.1256	16.765263	0.000577	5.771708	0.977754	-0.011546
1189	5.9400e-01	8.1161	16.761414	0.000038	0.384781	0.065184	-0.000770
1190	5.9450e-01	8.1058	16.725921	0.000355	3.548532	0.601138	-0.007099
1191	5.9500e-01	8.0945	16.695987	0.000299	2.992738	0.506983	-0.005987
1192	5.9550e-01	8.0850	16.671613	0.000244	2.436943	0.412829	-0.004875
1193	5.9600e-01	8.0768	16.644672	0.000269	2.693464	0.456285	-0.005388
1194	5.9650e-01	8.0659	16.616449	0.000282	2.821724	0.478013	-0.005645
1195	5.9700e-01	8.0573	16.580101	0.000363	3.634039	0.615623	-0.007270
1196	5.9750e-01	8.0469	16.547601	0.000325	3.249258	0.550439	-0.006500
1197	5.9800e-01	8.0359	16.524510	0.000231	2.308683	0.391102	-0.004618
1198	5.9850e-01	8.0249	16.480892	0.000436	4.360846	0.738747	-0.008724
1199	5.9900e-01	8.0133	16.483030	-0.000021	-0.213767	-0.036213	0.000428
1200	5.9950e-01	8.0081	16.444116	0.000389	3.890559	0.659079	-0.007783
1201	6.0000e-01	7.9938	16.421452	0.000227	2.265930	0.383859	-0.004533
1202	6.0050e-01	7.9877	16.386814	0.000346	3.463025	0.586652	-0.006928
1203	6.0100e-01	7.9770	16.353887	0.000329	3.292011	0.557682	-0.006585
1204	6.0150e-01	7.9651	16.323526	0.000304	3.035491	0.514226	-0.006072
1205	6.0200e-01	7.9559	16.300006	0.000235	2.351437	0.398344	-0.004704
1206	6.0250e-01	7.9471	16.272638	0.000274	2.736217	0.463528	-0.005474
1207	6.0300e-01	7.9382	16.230731	0.000419	4.189833	0.709777	-0.008381
1208	6.0350e-01	7.9280	16.210205	0.000205	2.052163	0.347646	-0.004105
1209	6.0400e-01	7.9169	16.180699	0.000295	2.949984	0.499741	-0.005901
1210	6.0450e-01	7.9047	16.147344	0.000333	3.334765	0.564924	-0.006671
1211	6.0500e-01	7.8918	16.122114	0.000252	2.522450	0.427315	-0.005046
1212	6.0550e-01	7.8839	16.072937	0.000492	4.916640	0.832901	-0.009835
1213	6.0600e-01	7.8757	16.075503	-0.000026	-0.256520	-0.043456	0.000513
1214	6.0650e-01	7.8656	16.034879	0.000406	4.061572	0.688049	-0.008125
1215	6.0700e-01	7.8555	16.006655	0.000282	2.821724	0.478013	-0.005645
1216	6.0750e-01	7.8448	15.984419	0.000222	2.223177	0.376616	-0.004447
1217	6.0800e-01	7.8357	15.941656	0.000428	4.275339	0.724262	-0.008553
1218	6.0850e-01	7.8259	15.916427	0.000252	2.522450	0.427315	-0.005046
1219	6.0900e-01	7.8149	15.883499	0.000329	3.292011	0.557682	-0.006585
1220	6.0950e-01	7.8076	15.845013	0.000385	3.847805	0.651836	-0.007697
1221	6.1000e-01	7.7942	15.821921	0.000231	2.308683	0.391102	-0.004618
1222	6.1050e-01	7.7856	15.788994	0.000329	3.292011	0.557682	-0.006585
1223	6.1100e-01	7.7783	15.764620	0.000244	2.436943	0.412829	-0.004875
1224	6.1150e-01	7.7670	15.735969	0.000286	2.864477	0.485256	-0.005730
1225	6.1200e-01	7.7576	15.708173	0.000278	2.778971	0.470770	-0.005559
1226	6.1250e-01	7.7469	15.670970	0.000372	3.719545	0.630108	-0.007441
1227	6.1300e-01	7.7380	15.652582	0.000184	1.838396	0.311433	-0.003678
1228	6.1350e-01	7.7264	15.609819	0.000428	4.275339	0.724262	-0.008553
1229	6.1400e-01	7.7155	15.595708	0.000141	1.410862	0.239006	-0.002822
1230	6.1450e-01	7.7063	15.552517	0.000432	4.318093	0.731505	-0.008638
1231	6.1500e-01	7.6965	15.539261	0.000133	1.325355	0.224521	-0.002651
1232	6.1550e-01	7.6868	15.502485	0.000368	3.676792	0.622865	-0.007355
1233	6.1600e-01	7.6758	15.463571	0.000389	3.890559	0.659079	-0.007783
1234	6.1650e-01	7.6654	15.436203	0.000274	2.736217	0.463528	-0.005474
1235	6.1700e-01	7.6544	15.401138	0.000351	3.505778	0.593895	-0.007013
1236	6.1750e-01	7.6471	15.378902	0.000222	2.223177	0.376616	-0.004447
1237	6.1800e-01	7.6367	15.334001	0.000449	4.489106	0.760475	-0.008980
1238	6.1850e-01	7.6257	15.335284	-0.000013	-0.128260	-0.021728	0.000257
1239	6.1900e-01	7.6147	15.298080	0.000372	3.719545	0.630108	-0.007441
1240	6.1950e-01	7.6074	15.254463	0.000436	4.360846	0.738747	-0.008724
1241	6.2000e-01	7.5940	15.228805	0.000257	2.565204	0.434557	-0.005132
1242	6.2050e-01	7.5836	15.219825	0.000090	0.897821	0.152095	-0.001796
1243	6.2100e-01	7.5763	15.168938	0.000509	5.087654	0.861872	-0.010177
1244	6.2150e-01	7.5629	15.134300	0.000346	3.463025	0.586652	-0.006928
1245	6.2200e-01	7.5534	15.115484	0.000188	1.881149	0.318675	-0.003763
1246	6.2250e-01	7.5473	15.067163	0.000483	4.831134	0.818416	-0.009664
1247	6.2300e-01	7.5360	15.041078	0.000261	2.607957	0.441800	-0.005217
1248	6.2350e-01	7.5262	15.024828	0.000162	1.624629	0.275220	-0.003250
1249	6.2400e-01	7.5177	14.970519	0.000543	5.429681	0.919813	-0.010862
1250	6.2450e-01	7.5092	14.941869	0.000286	2.864477	0.485256	-0.005730
1251	6.2500e-01	7.4966	14.939730	0.000021	0.213767	0.036213	-0.000428
1252	6.2550e-01	7.4875	14.888415	0.000513	5.130407	0.869115	-0.010263
1253	6.2600e-01	7.4750	14.867889	0.000205	2.052163	0.347646	-0.004105
1254	6.2650e-01	7.4646	14.813581	0.000543	5.429681	0.919813	-0.010862
1255	6.2700e-01	7.4582	14.793910	0.000197	1.966656	0.333161	-0.003934
1256	6.2750e-01	7.4481	14.780654	0.000133	1.325355	0.224521	-0.002651
1257	6.2800e-01	7.4377	14.738747	0.000419	4.189833	0.709777	-0.008381
1258	6.2850e-01	7.4292	14.694274	0.000445	4.446353	0.753233	-0.008895
1259	6.2900e-01	7.4127	14.662629	0.000316	3.163751	0.535954	-0.006329
1260	6.2950e-01	7.4063	14.649373	0.000133	1.325355	0.224521	-0.002651
1261	6.3000e-01	7.3962	14.620294	0.000291	2.907231	0.492498	-0.005816
1262	6.3050e-01	7.3859	14.600196	0.000201	2.009410	0.340403	-0.004020
1263	6.3100e-01	7.3781	14.552302	0.000479	4.788380	0.811174	-0.009579
1264	6.3150e-01	7.3679	14.530493	0.000218	2.180423	0.369374	-0.004362
1265	6.3200e-01	7.3578	14.497138	0.000333	3.334765	0.564924	-0.006671
1266	6.3250e-01	7.3480	14.462928	0.000342	3.420272	0.579410	-0.006842
1267	6.3300e-01	7.3334	14.426580	0.000363	3.634039	0.615623	-0.007270
1268	6.3350e-01	7.3236	14.397074	0.000295	2.949984	0.499741	-0.005901
1269	6.3400e-01	7.3151	14.353456	0.000436	4.360846	0.738747	-0.008724
1270	6.3450e-01	7.3044	14.329509	0.000239	2.394190	0.405587	-0.004789
1271	6.3500e-01	7.2969	14.289740	0.000398	3.976066	0.673564	-0.007954
1272	6.3550e-01	7.2852	14.276911	0.000128	1.282602	0.217279	-0.002566
1273	6.3600e-01	7.2772	14.254247	0.000227	2.265930	0.383859	-0.004533
1274	6.3650e-01	7.2665	14.206353	0.000479	4.788380	0.811174	-0.009579
1275	6.3700e-01	7.2577	14.178130	0.000282	2.821724	0.478013	-0.005645
1276	6.3750e-01	7.2461	14.154183	0.000239	2.394190	0.405587	-0.004789
1277	6.3800e-01	7.2363	14.117407	0.000368	3.676792	0.622865	-0.007355
1278	6.3850e-01	7.2253	14.094743	0.000227	2.265930	0.383859	-0.004533
1279	6.3900e-01	7.2144	14.043855	0.000509	5.087654	0.861872	-0.010177
1280	6.3950e-01	7.2040	14.007935	0.000359	3.591285	0.608380	-0.007184
1281	6.4000e-01	7.1957	13.979712	0.000282	2.821724	0.478013	-0.005645
1282	6.4050e-01	7.1887	13.973725	0.000060	0.598548	0.101397	-0.001197
1283	6.4100e-01	7.1756	13.928397	0.000453	4.531860	0.767718	-0.009066
1284	6.4150e-01	7.1646	13.900601	0.000278	2.778971	0.470770	-0.005559
1285	6.4200e-01	7.1565	13.860832	0.000398	3.976066	0.673564	-0.007954
1286	6.4250e-01	7.1469	13.828332	0.000325	3.249258	0.550439	-0.006500
1287	6.4300e-01	7.1390	13.799681	0.000286	2.864477	0.485256	-0.005730
1288	6.4350e-01	7.1266	13.759057	0.000406	4.061572	0.688049	-0.008125
1289	6.4400e-01	7.1173	13.730834	0.000282	2.821724	0.478013	-0.005645
1290	6.4450e-01	7.1063	13.707314	0.000235	2.351437	0.398344	-0.004704
1291	6.4500e-01	7.0959	13.672249	0.000351	3.505778	0.593895	-0.007013
1292	6.4550e-01	7.0850	13.638894	0.000333	3.334765	0.564924	-0.006671
1293	6.4600e-01	7.0764	13.603829	0.000351	3.505778	0.593895	-0.007013
1294	6.4650e-01	7.0657	13.589290	0.000145	1.453615	0.246249	-0.002908
1295	6.4700e-01	7.0569	13.543106	0.000462	4.617367	0.782203	-0.009237
1296	6.4750e-01	7.0459	13.529850	0.000133	1.325355	0.224521	-0.002651
1297	6.4800e-01	7.0367	13.483666	0.000462	4.617367	0.782203	-0.009237
1298	6.4850e-01	7.0245	13.452877	0.000308	3.078244	0.521469	-0.006158
1299	6.4900e-01	7.0175	13.419095	0.000338	3.377518	0.572167	-0.006756
1300	6.4950e-01	7.0078	13.383602	0.000355	3.548532	0.601138	-0.007099
1301	6.5000e-01	6.9971	13.357517	0.000261	2.607957	0.441800	-0.005217
1302	6.5050e-01	6.9843	13.323734	0.000338	3.377518	0.572167	-0.006756
1303	6.5100e-01	6.9769	13.299787	0.000239	2.394190	0.405587	-0.004789
1304	6.5150e-01	6.9653	13.255314	0.000445	4.446353	0.753233	-0.008895
1305	6.5200e-01	6.9565	13.211697	0.000436	4.360846	0.738747	-0.008724
1306	6.5250e-01	6.9446	13.197157	0.000145	1.453615	0.246249	-0.002908
1307	6.5300e-01	6.9354	13.168507	0.000286	2.864477	0.485256	-0.005730
1308	6.5350e-01	6.9263	13.129593	0.000389	3.890559	0.659079	-0.007783
1309	6.5400e-01	6.9159	13.100514	0.000291	2.907231	0.492498	-0.005816
1310	6.5450e-01	6.9067	13.073574	0.000269	2.693464	0.456285	-0.005388
1311	6.5500e-01	6.8982	13.035515	0.000381	3.805052	0.644593	-0.007612
1312	6.5550e-01	6.8893	13.000450	0.000351	3.505778	0.593895	-0.007013
1313	6.5600e-01	6.8787	12.977358	0.000231	2.308683	0.391102	-0.004618
1314	6.5650e-01	6.8643	12.936306	0.000410	4.104326	0.695292	-0.008210
1315	6.5700e-01	6.8555	12.919629	0.000167	1.667382	0.282462	-0.003335
1316	6.5750e-01	6.8457	12.885846	0.000338	3.377518	0.572167	-0.006756
1317	6.5800e-01	6.8338	12.837097	0.000487	4.873887	0.825659	-0.009750
1318	6.5850e-01	6.8250	12.810584	0.000265	2.650710	0.449043	-0.005303
1319	6.5900e-01	6.8152	12.775947	0.000346	3.463025	0.586652	-0.006928
1320	6.5950e-01	6.8063	12.750289	0.000257	2.565204	0.434557	-0.005132
1321	6.6000e-01	6.7969	12.707099	0.000432	4.318093	0.731505	-0.008638
1322	6.6050e-01	6.7853	12.680586	0.000265	2.650710	0.449043	-0.005303
1323	6.6100e-01	6.7773	12.661343	0.000192	1.923903	0.325918	-0.003849
1324	6.6150e-01	6.7654	12.610456	0.000509	5.087654	0.861872	-0.010177
1325	6.6200e-01	6.7572	12.589930	0.000205	2.052163	0.347646	-0.004105
1326	6.6250e-01	6.7462	12.551016	0.000389	3.890559	0.659079	-0.007783
1327	6.6300e-01	6.7358	12.520654	0.000304	3.035491	0.514226	-0.006072
1328	6.6350e-01	6.7249	12.484306	0.000363	3.634039	0.615623	-0.007270
1329	6.6400e-01	6.7154	12.447958	0.000363	3.634039	0.615623	-0.007270
1330	6.6450e-01	6.7041	12.432991	0.000150	1.496369	0.253492	-0.002993
1331	6.6500e-01	6.6949	12.394932	0.000381	3.805052	0.644593	-0.007612
1332	6.6550e-01	6.6864	12.358157	0.000368	3.676792	0.622865	-0.007355
1333	6.6600e-01	6.6760	12.326940	0.000312	3.120998	0.528711	-0.006243
1334	6.6650e-01	6.6663	12.283322	0.000436	4.360846	0.738747	-0.008724
1335	6.6700e-01	6.6571	12.266217	0.000171	1.710136	0.289705	-0.003421
1336	6.6750e-01	6.6455	12.214475	0.000517	5.173161	0.876357	-0.010349
1337	6.6800e-01	6.6382	12.186251	0.000282	2.821724	0.478013	-0.005645
1338	6.6850e-01	6.6269	12.155462	0.000308	3.078244	0.521469	-0.006158
1339	6.6900e-01	6.6150	12.109279	0.000462	4.617367	0.782203	-0.009237
1340	6.6950e-01	6.6071	12.108851	0.000004	0.042753	0.007243	-0.000086
1341	6.7000e-01	6.5955	12.038721	0.000701	7.011557	1.187790	-0.014026
1342	6.7050e-01	6.5878	12.039148	-0.000004	-0.042753	-0.007243	0.000086
1343	6.7100e-01	6.5771	12.004511	0.000346	3.463025	0.586652	-0.006928
1344	6.7150e-01	6.5643	11.931387	0.000731	7.310830	1.238488	-0.014625
1345	6.7200e-01	6.5570	11.936090	-0.000047	-0.470287	-0.079669	0.000941
1346	6.7250e-01	6.5472	11.881782	0.000543	5.429681	0.919813	-0.010862
1347	6.7300e-01	6.5369	11.836881	0.000449	4.489106	0.760475	-0.008980
1348	6.7350e-01	6.5259	11.825336	0.000115	1.154342	0.195551	-0.002309
1349	6.7400e-01	6.5164	11.792408	0.000329	3.292011	0.557682	-0.006585
1350	6.7450e-01	6.5063	11.753922	0.000385	3.847805	0.651836	-0.007697
1351	6.7500e-01	6.4929	11.726554	0.000274	2.736217	0.463528	-0.005474
1352	6.7550e-01	6.4865	11.694055	0.000325	3.249258	0.550439	-0.006500
1353	6.7600e-01	6.4746	11.656424	0.000376	3.762299	0.637351	-0.007526
1354	6.7650e-01	6.4655	11.627345	0.000291	2.907231	0.492498	-0.005816
1355	6.7700e-01	6.4590	11.584583	0.000428	4.275339	0.724262	-0.008553
1356	6.7750e-01	6.4465	11.552083	0.000325	3.249258	0.550439	-0.006500
1357	6.7800e-01	6.4349	11.531985	0.000201	2.009410	0.340403	-0.004020
1358	6.7850e-01	6.4261	11.476393	0.000556	5.557941	0.941541	-0.011118
1359	6.7900e-01	6.4154	11.452874	0.000235	2.351437	0.398344	-0.004704
1360	6.7950e-01	6.4041	11.427644	0.000252	2.522450	0.427315	-0.005046
1361	6.8000e-01	6.3940	11.394717	0.000329	3.292011	0.557682	-0.006585
1362	6.8050e-01	6.3852	11.365638	0.000291	2.907231	0.492498	-0.005816
1363	6.8100e-01	6.3748	11.321165	0.000445	4.446353	0.753233	-0.008895
1364	6.8150e-01	6.3654	11.291232	0.000299	2.992738	0.506983	-0.005987
1365	6.8200e-01	6.3559	11.245903	0.000453	4.531860	0.767718	-0.009066
1366	6.8250e-01	6.3467	11.216825	0.000291	2.907231	0.492498	-0.005816
1367	6.8300e-01	6.3364	11.193733	0.000231	2.308683	0.391102	-0.004618
1368	6.8350e-01	6.3289	11.150543	0.000432	4.318093	0.731505	-0.008638
1369	6.8400e-01	6.3171	11.110774	0.000398	3.976066	0.673564	-0.007954
1370	6.8450e-01	6.3063	11.069722	0.000410	4.104326	0.695292	-0.008210
1371	6.8500e-01	6.2933	11.068011	0.000017	0.171014	0.028970	-0.000342
1372	6.8550e-01	6.2878	11.032518	0.000355	3.548532	0.601138	-0.007099
1373	6.8600e-01	6.2738	10.988045	0.000445	4.446353	0.753233	-0.008895
1374	6.8650e-01	6.2677	10.941862	0.000462	4.617367	0.782203	-0.009237
1375	6.8700e-01	6.2579	10.920908	0.000209	2.094916	0.354888	-0.004191
1376	6.8750e-01	6.2469	10.880284	0.000406	4.061572	0.688049	-0.008125
1377	6.8800e-01	6.2354	10.848639	0.000316	3.163751	0.535954	-0.006329
1378	6.8850e-01	6.2253	10.812719	0.000359	3.591285	0.608380	-0.007184
1379	6.8900e-01	6.2152	10.777226	0.000355	3.548532	0.601138	-0.007099
1380	6.8950e-01	6.2045	10.758838	0.000184	1.838396	0.311433	-0.003678
1381	6.9000e-01	6.1990	10.725056	0.000338	3.377518	0.572167	-0.006756
1382	6.9050e-01	6.1853	10.683576	0.000415	4.147079	0.702534	-0.008296
1383	6.9100e-01	6.1751	10.646373	0.000372	3.719545	0.630108	-0.007441
1384	6.9150e-01	6.1664	10.612590	0.000338	3.377518	0.572167	-0.006756
1385	6.9200e-01	6.1591	10.582229	0.000304	3.035491	0.514226	-0.006072
1386	6.9250e-01	6.1462	10.555716	0.000265	2.650710	0.449043	-0.005303
1387	6.9300e-01	6.1383	10.506539	0.000492	4.916640	0.832901	-0.009835
1388	6.9350e-01	6.1267	10.477888	0.000286	2.864477	0.485256	-0.005730
1389	6.9400e-01	6.1163	10.436836	0.000410	4.104326	0.695292	-0.008210
1390	6.9450e-01	6.1050	10.413745	0.000231	2.308683	0.391102	-0.004618
1391	6.9500e-01	6.0934	10.374403	0.000393	3.933312	0.666321	-0.007868
1392	6.9550e-01	6.0880	10.323088	0.000513	5.130407	0.869115	-0.010263
1393	6.9600e-01	6.0774	10.311114	0.000120	1.197095	0.202793	-0.002395
1394	6.9650e-01	6.0675	10.270062	0.000410	4.104326	0.695292	-0.008210
1395	6.9700e-01	6.0571	10.225589	0.000445	4.446353	0.753233	-0.008895
1396	6.9750e-01	6.0449	10.210622	0.000150	1.496369	0.253492	-0.002993
1397	6.9800e-01	6.0382	10.164011	0.000466	4.660120	0.789446	-0.009322
1398	6.9850e-01	6.0278	10.129374	0.000346	3.463025	0.586652	-0.006928
1399	6.9900e-01	6.0187	10.099440	0.000299	2.992738	0.506983	-0.005987
1400	6.9950e-01	6.0046	10.051118	0.000483	4.831134	0.818416	-0.009664
1401	7.0000e-01	5.9955	10.040855	0.000103	1.026081	0.173823	-0.002053
1402	7.0050e-01	5.9848	9.980988	0.000599	5.985475	1.013967	-0.011974
1403	7.0100e-01	5.9778	9.965593	0.000154	1.539122	0.260734	-0.003079
1404	7.0150e-01	5.9662	9.924969	0.000406	4.061572	0.688049	-0.008125
1405	7.0200e-01	5.9578	9.879641	0.000453	4.531860	0.767718	-0.009066
1406	7.0250e-01	5.9485	9.868522	0.000111	1.111588	0.188308	-0.002224
1407	7.0300e-01	5.9401	9.811220	0.000573	5.728955	0.970511	-0.011460
1408	7.0350e-01	5.9265	9.791122	0.000201	2.009410	0.340403	-0.004020
1409	7.0400e-01	5.9167	9.765892	0.000252	2.522450	0.427315	-0.005046
1410	7.0450e-01	5.9061	9.715432	0.000504	5.044901	0.854629	-0.010092
1411	7.0500e-01	5.8980	9.694906	0.000205	2.052163	0.347646	-0.004105
1412	7.0550e-01	5.8868	9.653427	0.000415	4.147079	0.702534	-0.008296
1413	7.0600e-01	5.8759	9.623921	0.000295	2.949984	0.499741	-0.005901
1414	7.0650e-01	5.8649	9.585007	0.000389	3.890559	0.659079	-0.007783
1415	7.0700e-01	5.8545	9.523001	0.000620	6.199242	1.050180	-0.012401
1416	7.0750e-01	5.8473	9.507179	0.000158	1.581876	0.267977	-0.003164
1417	7.0800e-01	5.8392	9.472969	0.000342	3.420272	0.579410	-0.006842
1418	7.0850e-01	5.8273	9.436621	0.000363	3.634039	0.615623	-0.007270
1419	7.0900e-01	5.8154	9.410108	0.000265	2.650710	0.449043	-0.005303
1420	7.0950e-01	5.8070	9.363924	0.000462	4.617367	0.782203	-0.009237
1421	7.1000e-01	5.7947	9.333991	0.000299	2.992738	0.506983	-0.005987
1422	7.1050e-01	5.7860	9.303202	0.000308	3.078244	0.521469	-0.006158
1423	7.1100e-01	5.7796	9.277544	0.000257	2.565204	0.434557	-0.005132
1424	7.1150e-01	5.7669	9.215966	0.000616	6.156489	1.042937	-0.012316
1425	7.1200e-01	5.7544	9.195012	0.000209	2.094916	0.354888	-0.004191
1426	7.1250e-01	5.7471	9.166789	0.000282	2.821724	0.478013	-0.005645
1427	7.1300e-01	5.7388	9.118468	0.000483	4.831134	0.818416	-0.009664
1428	7.1350e-01	5.7275	9.086396	0.000321	3.206505	0.543197	-0.006414
1429	7.1400e-01	5.7159	9.034653	0.000517	5.173161	0.876357	-0.010349
1430	7.1450e-01	5.7068	9.001726	0.000329	3.292011	0.557682	-0.006585
1431	7.1500e-01	5.6943	8.996594	0.000051	0.513041	0.086911	-0.001026
1432	7.1550e-01	5.6851	8.942286	0.000543	5.429681	0.919813	-0.010862
1433	7.1600e-01	5.6760	8.909359	0.000329	3.292011	0.557682	-0.006585
1434	7.1650e-01	5.6656	8.870017	0.000393	3.933312	0.666321	-0.007868
1435	7.1700e-01	5.6604	8.823406	0.000466	4.660120	0.789446	-0.009322
1436	7.1750e-01	5.6470	8.798176	0.000252	2.522450	0.427315	-0.005046
1437	7.1800e-01	5.6367	8.750710	0.000475	4.745627	0.803931	-0.009493
1438	7.1850e-01	5.6262	8.730184	0.000205	2.052163	0.347646	-0.004105
1439	7.1900e-01	5.6168	8.669461	0.000607	6.070982	1.028452	-0.012145
1440	7.1950e-01	5.6073	8.657915	0.000115	1.154342	0.195551	-0.002309
1441	7.2000e-01	5.5994	8.621567	0.000363	3.634039	0.615623	-0.007270
1442	7.2050e-01	5.5853	8.582225	0.000393	3.933312	0.666321	-0.007868
1443	7.2100e-01	5.5753	8.566403	0.000158	1.581876	0.267977	-0.003164
1444	7.2150e-01	5.5658	8.523641	0.000428	4.275339	0.724262	-0.008553
1445	7.2200e-01	5.5560	8.474036	0.000496	4.959394	0.840144	-0.009921
1446	7.2250e-01	5.5469	8.448379	0.000257	2.565204	0.434557	-0.005132
1447	7.2300e-01	5.5357	8.401768	0.000466	4.660120	0.789446	-0.009322
1448	7.2350e-01	5.5243	8.371834	0.000299	2.992738	0.506983	-0.005987
1449	7.2400e-01	5.5173	8.328216	0.000436	4.360846	0.738747	-0.008724
1450	7.2450e-01	5.5066	8.307262	0.000209	2.094916	0.354888	-0.004191
1451	7.2500e-01	5.4971	8.263217	0.000440	4.403600	0.745990	-0.008809
1452	7.2550e-01	5.4855	8.234138	0.000291	2.907231	0.492498	-0.005816
1453	7.2600e-01	5.4773	8.191376	0.000428	4.275339	0.724262	-0.008553
1454	7.2650e-01	5.4663	8.150752	0.000406	4.061572	0.688049	-0.008125
1455	7.2700e-01	5.4559	8.124666	0.000261	2.607957	0.441800	-0.005217
1456	7.2750e-01	5.4451	8.092167	0.000325	3.249258	0.550439	-0.006500
1457	7.2800e-01	5.4376	8.039569	0.000526	5.258668	0.890842	-0.010520
1458	7.2850e-01	5.4269	8.010490	0.000291	2.907231	0.492498	-0.005816
1459	7.2900e-01	5.4163	7.963452	0.000470	4.702873	0.796688	-0.009408
1460	7.2950e-01	5.4041	7.943353	0.000201	2.009410	0.340403	-0.004020
1461	7.3000e-01	5.3961	7.898453	0.000449	4.489106	0.760475	-0.008980
1462	7.3050e-01	5.3857	7.861249	0.000372	3.719545	0.630108	-0.007441
1463	7.3100e-01	5.3740	7.824901	0.000363	3.634039	0.615623	-0.007270
1464	7.3150e-01	5.3658	7.780856	0.000440	4.403600	0.745990	-0.008809
1465	7.3200e-01	5.3564	7.756481	0.000244	2.436943	0.412829	-0.004875
1466	7.3250e-01	5.3458	7.708587	0.000479	4.788380	0.811174	-0.009579
1467	7.3300e-01	5.3357	7.659410	0.000492	4.916640	0.832901	-0.009835
1468	7.3350e-01	5.3265	7.653851	0.000056	0.555794	0.094154	-0.001112
1469	7.3400e-01	5.3157	7.615792	0.000381	3.805052	0.644593	-0.007612
1470	7.3450e-01	5.3052	7.580299	0.000355	3.548532	0.601138	-0.007099
1471	7.3500e-01	5.2960	7.548655	0.000316	3.163751	0.535954	-0.006329
1472	7.3550e-01	5.2870	7.500761	0.000479	4.788380	0.811174	-0.009579
1473	7.3600e-01	5.2771	7.463130	0.000376	3.762299	0.637351	-0.007526
1474	7.3650e-01	5.2667	7.411387	0.000517	5.173161	0.876357	-0.010349
1475	7.3700e-01	5.2551	7.392572	0.000188	1.881149	0.318675	-0.003763
1476	7.3750e-01	5.2478	7.350237	0.000423	4.232586	0.717019	-0.008467
1477	7.3800e-01	5.2353	7.304481	0.000457	4.574613	0.774960	-0.009151
1478	7.3850e-01	5.2283	7.281817	0.000227	2.265930	0.383859	-0.004533
1479	7.3900e-01	5.2127	7.231785	0.000500	5.002147	0.847387	-0.010006
1480	7.3950e-01	5.2066	7.205272	0.000265	2.650710	0.449043	-0.005303
1481	7.4000e-01	5.1971	7.158661	0.000466	4.660120	0.789446	-0.009322
1482	7.4050e-01	5.1849	7.128727	0.000299	2.992738	0.506983	-0.005987
1483	7.4100e-01	5.1764	7.105208	0.000235	2.351437	0.398344	-0.004704
1484	7.4150e-01	5.1669	7.057314	0.000479	4.788380	0.811174	-0.009579
1485	7.4200e-01	5.1579	7.008992	0.000483	4.831134	0.818416	-0.009664
1486	7.4250e-01	5.1465	6.987611	0.000214	2.137670	0.362131	-0.004276
1487	7.4300e-01	5.1321	6.946559	0.000410	4.104326	0.695292	-0.008210
1488	7.4350e-01	5.1265	6.907217	0.000393	3.933312	0.666321	-0.007868
1489	7.4400e-01	5.1172	6.869586	0.000376	3.762299	0.637351	-0.007526
1490	7.4450e-01	5.1068	6.833238	0.000363	3.634039	0.615623	-0.007270
1491	7.4500e-01	5.0949	6.796035	0.000372	3.719545	0.630108	-0.007441
1492	7.4550e-01	5.0854	6.755410	0.000406	4.061572	0.688049	-0.008125
1493	7.4600e-01	5.0739	6.701529	0.000539	5.386928	0.912570	-0.010776
1494	7.4650e-01	5.0671	6.680148	0.000214	2.137670	0.362131	-0.004276
1495	7.4700e-01	5.0562	6.632254	0.000479	4.788380	0.811174	-0.009579
1496	7.4750e-01	5.0458	6.603176	0.000291	2.907231	0.492498	-0.005816
1497	7.4800e-01	5.0360	6.566828	0.000363	3.634039	0.615623	-0.007270
1498	7.4850e-01	5.0253	6.536039	0.000308	3.078244	0.521469	-0.006158
1499	7.4900e-01	5.0174	6.505249	0.000308	3.078244	0.521469	-0.006158
1500	7.4950e-01	5.0073	6.450086	0.000552	5.515188	0.934298	-0.011033
1501	7.5000e-01	4.9988	6.425284	0.000248	2.479697	0.420072	-0.004960
1502	7.5050e-01	4.9902	6.375679	0.000496	4.959394	0.840144	-0.009921
1503	7.5100e-01	4.9789	6.333772	0.000419	4.189833	0.709777	-0.008381
1504	7.5150e-01	4.9671	6.317094	0.000167	1.667382	0.282462	-0.003335
1505	7.5200e-01	4.9554	6.267490	0.000496	4.959394	0.840144	-0.009921
1506	7.5250e-01	4.9463	6.229004	0.000385	3.847805	0.651836	-0.007697
1507	7.5300e-01	4.9356	6.195221	0.000338	3.377518	0.572167	-0.006756
1508	7.5350e-01	4.9265	6.159728	0.000355	3.548532	0.601138	-0.007099
1509	7.5400e-01	4.9176	6.120814	0.000389	3.890559	0.659079	-0.007783
1510	7.5450e-01	4.9078	6.069499	0.000513	5.130407	0.869115	-0.010263
1511	7.5500e-01	4.8956	6.049401	0.000201	2.009410	0.340403	-0.004020
1512	7.5550e-01	4.8877	5.992527	0.000569	5.686201	0.963269	-0.011375
1513	7.5600e-01	4.8773	5.964304	0.000282	2.821724	0.478013	-0.005645
1514	7.5650e-01	4.8636	5.933942	0.000304	3.035491	0.514226	-0.006072
1515	7.5700e-01	4.8567	5.893745	0.000402	4.018819	0.680806	-0.008039
1516	7.5750e-01	4.8450	5.845851	0.000479	4.788380	0.811174	-0.009579
1517	7.5800e-01	4.8361	5.794964	0.000509	5.087654	0.861872	-0.010177
1518	7.5850e-01	4.8264	5.771445	0.000235	2.351437	0.398344	-0.004704
1519	7.5900e-01	4.8163	5.716281	0.000552	5.515188	0.934298	-0.011033
1520	7.5950e-01	4.8041	5.688058	0.000282	2.821724	0.478013	-0.005645
1521	7.6000e-01	4.7949	5.664111	0.000239	2.394190	0.405587	-0.004789
1522	7.6050e-01	4.7864	5.611085	0.000530	5.301421	0.898085	-0.010605
1523	7.6100e-01	4.7742	5.596546	0.000145	1.453615	0.246249	-0.002908
1524	7.6150e-01	4.7644	5.544803	0.000517	5.173161	0.876357	-0.010349
1525	7.6200e-01	4.7589	5.508455	0.000363	3.634039	0.615623	-0.007270
1526	7.6250e-01	4.7473	5.469541	0.000389	3.890559	0.659079	-0.007783
1527	7.6300e-01	4.7358	5.418226	0.000513	5.130407	0.869115	-0.010263
1528	7.6350e-01	4.7272	5.391713	0.000265	2.650710	0.449043	-0.005303
1529	7.6400e-01	4.7162	5.351516	0.000402	4.018819	0.680806	-0.008039
1530	7.6450e-01	4.7070	5.316024	0.000355	3.548532	0.601138	-0.007099
1531	7.6500e-01	4.6954	5.265136	0.000509	5.087654	0.861872	-0.010177
1532	7.6550e-01	4.6875	5.226222	0.000389	3.890559	0.659079	-0.007783
1533	7.6600e-01	4.6759	5.191157	0.000351	3.505778	0.593895	-0.007013
1534	7.6650e-01	4.6655	5.146256	0.000449	4.489106	0.760475	-0.008980
1535	7.6700e-01	4.6561	5.115040	0.000312	3.120998	0.528711	-0.006243
1536	7.6750e-01	4.6461	5.070139	0.000449	4.489106	0.760475	-0.008980
1537	7.6800e-01	4.6371	5.054745	0.000154	1.539122	0.260734	-0.003079
1538	7.6850e-01	4.6252	4.997015	0.000577	5.771708	0.977754	-0.011546
1539	7.6900e-01	4.6149	4.952114	0.000449	4.489106	0.760475	-0.008980
1540	7.6950e-01	4.6065	4.926029	0.000261	2.607957	0.441800	-0.005217
1541	7.7000e-01	4.5966	4.873004	0.000530	5.301421	0.898085	-0.010605
1542	7.7050e-01	4.5905	4.840932	0.000321	3.206505	0.543197	-0.006414
1543	7.7100e-01	4.5755	4.808860	0.000321	3.206505	0.543197	-0.006414
1544	7.7150e-01	4.5679	4.759255	0.000496	4.959394	0.840144	-0.009921
1545	7.7200e-01	4.5587	4.747282	0.000120	1.197095	0.202793	-0.002395
1546	7.7250e-01	4.5483	4.697677	0.000496	4.959394	0.840144	-0.009921
1547	7.7300e-01	4.5345	4.650211	0.000475	4.745627	0.803931	-0.009493
1548	7.7350e-01	4.5264	4.613863	0.000363	3.634039	0.615623	-0.007270
1549	7.7400e-01	4.5163	4.580508	0.000333	3.334765	0.564924	-0.006671
1550	7.7450e-01	4.5055	4.542022	0.000385	3.847805	0.651836	-0.007697
1551	7.7500e-01	4.4965	4.484292	0.000577	5.771708	0.977754	-0.011546
1552	7.7550e-01	4.4879	4.450938	0.000333	3.334765	0.564924	-0.006671
1553	7.7600e-01	4.4759	4.407320	0.000436	4.360846	0.738747	-0.008724
1554	7.7650e-01	4.4672	4.380380	0.000269	2.693464	0.456285	-0.005388
1555	7.7700e-01	4.4568	4.336762	0.000436	4.360846	0.738747	-0.008724
1556	7.7750e-01	4.4475	4.297420	0.000393	3.933312	0.666321	-0.007868
1557	7.7800e-01	4.4354	4.258934	0.000385	3.847805	0.651836	-0.007697
1558	7.7850e-01	4.4244	4.218737	0.000402	4.018819	0.680806	-0.008039
1559	7.7900e-01	4.4171	4.163146	0.000556	5.557941	0.941541	-0.011118
1560	7.7950e-01	4.4055	4.141765	0.000214	2.137670	0.362131	-0.004276
1561	7.8000e-01	4.3974	4.080614	0.000611	6.113735	1.035695	-0.012230
1562	7.8050e-01	4.3869	4.062226	0.000184	1.838396	0.311433	-0.003678
1563	7.8100e-01	4.3753	4.030154	0.000321	3.206505	0.543197	-0.006414
1564	7.8150e-01	4.3652	3.978412	0.000517	5.173161	0.876357	-0.010349
1565	7.8200e-01	4.3564	3.933939	0.000445	4.446353	0.753233	-0.008895
1566	7.8250e-01	4.3460	3.883479	0.000504	5.044901	0.854629	-0.010092
1567	7.8300e-01	4.3347	3.868084	0.000154	1.539122	0.260734	-0.003079
1568	7.8350e-01	4.3240	3.831309	0.000368	3.676792	0.622865	-0.007355
1569	7.8400e-01	4.3167	3.792395	0.000389	3.890559	0.659079	-0.007783
1570	7.8450e-01	4.3036	3.746639	0.000457	4.574613	0.774960	-0.009151
1571	7.8500e-01	4.2963	3.700455	0.000462	4.617367	0.782203	-0.009237
1572	7.8550e-01	4.2847	3.658120	0.000423	4.232586	0.717019	-0.008467
1573	7.8600e-01	4.2761	3.620489	0.000376	3.762299	0.637351	-0.007526
1574	7.8650e-01	4.2654	3.580720	0.000398	3.976066	0.673564	-0.007954
1575	7.8700e-01	4.2566	3.540951	0.000398	3.976066	0.673564	-0.007954
1576	7.8750e-01	4.2477	3.496050	0.000449	4.489106	0.760475	-0.008980
1577	7.8800e-01	4.2368	3.469538	0.000265	2.650710	0.449043	-0.005303
1578	7.8850e-01	4.2264	3.416940	0.000526	5.258668	0.890842	-0.010520
1579	7.8900e-01	4.2163	3.383157	0.000338	3.377518	0.572167	-0.006756
1580	7.8950e-01	4.2055	3.332698	0.000504	5.044901	0.854629	-0.010092
1581	7.9000e-01	4.1957	3.304047	0.000286	2.864477	0.485256	-0.005730
1582	7.9050e-01	4.1858	3.255725	0.000483	4.831134	0.818416	-0.009664
1583	7.9100e-01	4.1779	3.218094	0.000376	3.762299	0.637351	-0.007526
1584	7.9150e-01	4.1666	3.178752	0.000393	3.933312	0.666321	-0.007868
1585	7.9200e-01	4.1565	3.123161	0.000556	5.557941	0.941541	-0.011118
1586	7.9250e-01	4.1461	3.100069	0.000231	2.308683	0.391102	-0.004618
1587	7.9300e-01	4.1342	3.065004	0.000351	3.505778	0.593895	-0.007013
1588	7.9350e-01	4.1248	3.026518	0.000385	3.847805	0.651836	-0.007697
1589	7.9400e-01	4.1153	2.984611	0.000419	4.189833	0.709777	-0.008381
1590	7.9450e-01	4.1072	2.936289	0.000483	4.831134	0.818416	-0.009664
1591	7.9500e-01	4.0961	2.890105	0.000462	4.617367	0.782203	-0.009237
1592	7.9550e-01	4.0860	2.850336	0.000398	3.976066	0.673564	-0.007954
1593	7.9600e-01	4.0768	2.804580	0.000457	4.574613	0.774960	-0.009151
1594	7.9650e-01	4.0649	2.775929	0.000286	2.864477	0.485256	-0.005730
1595	7.9700e-01	4.0540	2.731884	0.000440	4.403600	0.745990	-0.008809
1596	7.9750e-01	4.0466	2.690404	0.000415	4.147079	0.702534	-0.008296
1597	7.9800e-01	4.0346	2.654056	0.000363	3.634039	0.615623	-0.007270
1598	7.9850e-01	4.0266	2.604879	0.000492	4.916640	0.832901	-0.009835
1599	7.9900e-01	4.0149	2.567676	0.000372	3.719545	0.630108	-0.007441
1600	7.9950e-01	4.0076	2.524913	0.000428	4.275339	0.724262	-0.008553
1601	8.0000e-01	3.9964	2.498401	0.000265	2.650710	0.449043	-0.005303
1602	8.0050e-01	3.9862	2.441954	0.000564	5.643448	0.956026	-0.011289
1603	8.0100e-01	3.9759	2.394060	0.000479	4.788380	0.811174	-0.009579
1604	8.0150e-01	3.9661	2.367975	0.000261	2.607957	0.441800	-0.005217
1605	8.0200e-01	3.9569	2.310673	0.000573	5.728955	0.970511	-0.011460
1606	8.0250e-01	3.9441	2.300410	0.000103	1.026081	0.173823	-0.002053
1607	8.0300e-01	3.9362	2.249095	0.000513	5.130407	0.869115	-0.010263
1608	8.0350e-01	3.9216	2.224293	0.000248	2.479697	0.420072	-0.004960
1609	8.0400e-01	3.9142	2.158866	0.000654	6.541269	1.108121	-0.013085
1610	8.0450e-01	3.9063	2.104558	0.000543	5.429681	0.919813	-0.010862
1611	8.0500e-01	3.8940	2.078045	0.000265	2.650710	0.449043	-0.005303
1612	8.0550e-01	3.8849	2.027585	0.000504	5.044901	0.854629	-0.010092
1613	8.0600e-01	3.8760	1.985678	0.000419	4.189833	0.709777	-0.008381
1614	8.0650e-01	3.8635	1.945054	0.000406	4.061572	0.688049	-0.008125
1615	8.0700e-01	3.8571	1.906567	0.000385	3.847805	0.651836	-0.007697
1616	8.0750e-01	3.8496	1.879199	0.000274	2.736217	0.463528	-0.005474
1617	8.0800e-01	3.8351	1.820187	0.000590	5.899968	0.999482	-0.011802
1618	8.0850e-01	3.8252	1.791964	0.000282	2.821724	0.478013	-0.005645
1619	8.0900e-01	3.8116	1.752622	0.000393	3.933312	0.666321	-0.007868
1620	8.0950e-01	3.8055	1.693182	0.000594	5.942722	1.006724	-0.011888
1621	8.1000e-01	3.7961	1.656407	0.000368	3.676792	0.622865	-0.007355
1622	8.1050e-01	3.7857	1.618348	0.000381	3.805052	0.644593	-0.007612
1623	8.1100e-01	3.7744	1.573447	0.000449	4.489106	0.760475	-0.008980
1624	8.1150e-01	3.7645	1.532395	0.000410	4.104326	0.695292	-0.008210
1625	8.1200e-01	3.7592	1.479797	0.000526	5.258668	0.890842	-0.010520
1626	8.1250e-01	3.7436	1.455850	0.000239	2.394190	0.405587	-0.004789
1627	8.1300e-01	3.7347	1.398976	0.000569	5.686201	0.963269	-0.011375
1628	8.1350e-01	3.7262	1.366477	0.000325	3.249258	0.550439	-0.006500
1629	8.1400e-01	3.7146	1.326707	0.000398	3.976066	0.673564	-0.007954
1630	8.1450e-01	3.7053	1.283090	0.000436	4.360846	0.738747	-0.008724
1631	8.1500e-01	3.6954	1.240755	0.000423	4.232586	0.717019	-0.008467
1632	8.1550e-01	3.6871	1.194571	0.000462	4.617367	0.782203	-0.009237
1633	8.1600e-01	3.6761	1.148815	0.000457	4.574613	0.774960	-0.009151
1634	8.1650e-01	3.6655	1.114605	0.000342	3.420272	0.579410	-0.006842
1635	8.1700e-01	3.6572	1.070560	0.000440	4.403600	0.745990	-0.008809
1636	8.1750e-01	3.6457	1.031218	0.000393	3.933312	0.666321	-0.007868
1637	8.1800e-01	3.6340	0.979903	0.000513	5.130407	0.869115	-0.010263
1638	8.1850e-01	3.6270	0.961515	0.000184	1.838396	0.311433	-0.003678
1639	8.1900e-01	3.6151	0.909773	0.000517	5.173161	0.876357	-0.010349
1640	8.1950e-01	3.6038	0.850333	0.000594	5.942722	1.006724	-0.011888
1641	8.2000e-01	3.5938	0.807998	0.000423	4.232586	0.717019	-0.008467
1642	8.2050e-01	3.5875	0.773788	0.000342	3.420272	0.579410	-0.006842
1643	8.2100e-01	3.5740	0.728887	0.000449	4.489106	0.760475	-0.008980
1644	8.2150e-01	3.5645	0.690401	0.000385	3.847805	0.651836	-0.007697
1645	8.2200e-01	3.5547	0.640796	0.000496	4.959394	0.840144	-0.009921
1646	8.2250e-01	3.5471	0.598034	0.000428	4.275339	0.724262	-0.008553
1647	8.2300e-01	3.5365	0.560831	0.000372	3.719545	0.630108	-0.007441
1648	8.2350e-01	3.5251	0.515502	0.000453	4.531860	0.767718	-0.009066
1649	8.2400e-01	3.5190	0.468036	0.000475	4.745627	0.803931	-0.009493
1650	8.2450e-01	3.5068	0.429977	0.000381	3.805052	0.644593	-0.007612
1651	8.2500e-01	3.4988	0.383794	0.000462	4.617367	0.782203	-0.009237
1652	8.2550e-01	3.4869	0.341886	0.000419	4.189833	0.709777	-0.008381
1653	8.2600e-01	3.4746	0.310242	0.000316	3.163751	0.535954	-0.006329
1654	8.2650e-01	3.4632	0.270045	0.000402	4.018819	0.680806	-0.008039
1655	8.2700e-01	3.4558	0.221724	0.000483	4.831134	0.818416	-0.009664
1656	8.2750e-01	3.4457	0.161001	0.000607	6.070982	1.028452	-0.012145
1657	8.2800e-01	3.4372	0.126791	0.000342	3.420272	0.579410	-0.006842
1658	8.2850e-01	3.4294	0.090015	0.000368	3.676792	0.622865	-0.007355
1659	8.2900e-01	3.4174	0.047680	0.000423	4.232586	0.717019	-0.008467
1660	8.2950e-01	3.4033	0.004918	0.000428	4.275339	0.724262	-0.008553
1661	8.3000e-01	3.3968	-0.048535	0.000534	5.344174	0.905328	-0.010691
1662	8.3050e-01	3.3850	-0.083173	0.000346	3.463025	0.586652	-0.006928
1663	8.3100e-01	3.3762	-0.124225	0.000410	4.104326	0.695292	-0.008210
1664	8.3150e-01	3.3661	-0.168271	0.000440	4.403600	0.745990	-0.008809
1665	8.3200e-01	3.3553	-0.214882	0.000466	4.660120	0.789446	-0.009322
1666	8.3250e-01	3.3432	-0.245671	0.000308	3.078244	0.521469	-0.006158
1667	8.3300e-01	3.3356	-0.281591	0.000359	3.591285	0.608380	-0.007184
1668	8.3350e-01	3.3260	-0.350439	0.000688	6.883296	1.166062	-0.013770
1669	8.3400e-01	3.3157	-0.383794	0.000333	3.334765	0.564924	-0.006671
1670	8.3450e-01	3.3072	-0.440668	0.000569	5.686201	0.963269	-0.011375
1671	8.3500e-01	3.2974	-0.482147	0.000415	4.147079	0.702534	-0.008296
1672	8.3550e-01	3.2847	-0.522772	0.000406	4.061572	0.688049	-0.008125
1673	8.3600e-01	3.2741	-0.571521	0.000487	4.873887	0.825659	-0.009750
1674	8.3650e-01	3.2648	-0.620698	0.000492	4.916640	0.832901	-0.009835
1675	8.3700e-01	3.2556	-0.654480	0.000338	3.377518	0.572167	-0.006756
1676	8.3750e-01	3.2449	-0.694677	0.000402	4.018819	0.680806	-0.008039
1677	8.3800e-01	3.2364	-0.748558	0.000539	5.386928	0.912570	-0.010776
1678	8.3850e-01	3.2286	-0.786189	0.000376	3.762299	0.637351	-0.007526
1679	8.3900e-01	3.2147	-0.829807	0.000436	4.360846	0.738747	-0.008724
1680	8.3950e-01	3.2056	-0.876846	0.000470	4.702873	0.796688	-0.009408
1681	8.4000e-01	3.1940	-0.906352	0.000295	2.949984	0.499741	-0.005901
1682	8.4050e-01	3.1848	-0.957239	0.000509	5.087654	0.861872	-0.010177
1683	8.4100e-01	3.1754	-1.005133	0.000479	4.788380	0.811174	-0.009579
1684	8.4150e-01	3.1689	-1.053882	0.000487	4.873887	0.825659	-0.009750
1685	8.4200e-01	3.1583	-1.086382	0.000325	3.249258	0.550439	-0.006500
1686	8.4250e-01	3.1448	-1.149243	0.000628	6.284749	1.064665	-0.012572
1687	8.4300e-01	3.1368	-1.186446	0.000372	3.719545	0.630108	-0.007441
1688	8.4350e-01	3.1268	-1.231347	0.000449	4.489106	0.760475	-0.008980
1689	8.4400e-01	3.1166	-1.267268	0.000359	3.591285	0.608380	-0.007184
1690	8.4450e-01	3.1086	-1.332267	0.000650	6.498516	1.100878	-0.013000
1691	8.4500e-01	3.0945	-1.354075	0.000218	2.180423	0.369374	-0.004362
1692	8.4550e-01	3.0844	-1.401542	0.000475	4.745627	0.803931	-0.009493
1693	8.4600e-01	3.0765	-1.453712	0.000522	5.215914	0.883600	-0.010434
1694	8.4650e-01	3.0643	-1.499040	0.000453	4.531860	0.767718	-0.009066
1695	8.4700e-01	3.0585	-1.551211	0.000522	5.215914	0.883600	-0.010434
1696	8.4750e-01	3.0469	-1.587559	0.000363	3.634039	0.615623	-0.007270
1697	8.4800e-01	3.0383	-1.631604	0.000440	4.403600	0.745990	-0.008809
1698	8.4850e-01	3.0229	-1.661966	0.000304	3.035491	0.514226	-0.006072
1699	8.4900e-01	3.0176	-1.722688	0.000607	6.070982	1.028452	-0.012145
1700	8.4950e-01	3.0069	-1.765879	0.000432	4.318093	0.731505	-0.008638
1701	8.5000e-01	2.9951	-1.808641	0.000428	4.275339	0.724262	-0.008553
1702	8.5050e-01	2.9849	-1.867653	0.000590	5.899968	0.999482	-0.011802
1703	8.5100e-01	2.9752	-1.900153	0.000325	3.249258	0.550439	-0.006500
1704	8.5150e-01	2.9651	-1.945909	0.000457	4.574613	0.774960	-0.009151
1705	8.5200e-01	2.9553	-1.997651	0.000517	5.173161	0.876357	-0.010349
1706	8.5250e-01	2.9449	-2.039986	0.000423	4.232586	0.717019	-0.008467
1707	8.5300e-01	2.9358	-2.079756	0.000398	3.976066	0.673564	-0.007954
1708	8.5350e-01	2.9248	-2.122090	0.000423	4.232586	0.717019	-0.008467
1709	8.5400e-01	2.9144	-2.166136	0.000440	4.403600	0.745990	-0.008809
1710	8.5450e-01	2.9077	-2.205905	0.000398	3.976066	0.673564	-0.007954
1711	8.5500e-01	2.8964	-2.259358	0.000534	5.344174	0.905328	-0.010691
1712	8.5550e-01	2.8857	-2.307680	0.000483	4.831134	0.818416	-0.009664
1713	8.5600e-01	2.8737	-2.354291	0.000466	4.660120	0.789446	-0.009322
1714	8.5650e-01	2.8638	-2.409882	0.000556	5.557941	0.941541	-0.011118
1715	8.5700e-01	2.8558	-2.430836	0.000209	2.094916	0.354888	-0.004191
1716	8.5750e-01	2.8452	-2.496690	0.000658	6.584023	1.115364	-0.013171
1717	8.5800e-01	2.8372	-2.544584	0.000479	4.788380	0.811174	-0.009579
1718	8.5850e-01	2.8263	-2.571097	0.000265	2.650710	0.449043	-0.005303
1719	8.5900e-01	2.8145	-2.624550	0.000534	5.344174	0.905328	-0.010691
1720	8.5950e-01	2.8043	-2.672444	0.000479	4.788380	0.811174	-0.009579
1721	8.6000e-01	2.7972	-2.720766	0.000483	4.831134	0.818416	-0.009664
1722	8.6050e-01	2.7852	-2.757114	0.000363	3.634039	0.615623	-0.007270
1723	8.6100e-01	2.7753	-2.807146	0.000500	5.002147	0.847387	-0.010006
1724	8.6150e-01	2.7664	-2.860172	0.000530	5.301421	0.898085	-0.010605
1725	8.6200e-01	2.7540	-2.898658	0.000385	3.847805	0.651836	-0.007697
1726	8.6250e-01	2.7488	-2.940138	0.000415	4.147079	0.702534	-0.008296
1727	8.6300e-01	2.7370	-2.995729	0.000556	5.557941	0.941541	-0.011118
1728	8.6350e-01	2.7255	-3.044478	0.000487	4.873887	0.825659	-0.009750
1729	8.6400e-01	2.7155	-3.099642	0.000552	5.515188	0.934298	-0.011033
1730	8.6450e-01	2.7052	-3.129576	0.000299	2.992738	0.506983	-0.005987
1731	8.6500e-01	2.6938	-3.160365	0.000308	3.078244	0.521469	-0.006158
1732	8.6550e-01	2.6849	-3.236482	0.000761	7.610104	1.289187	-0.015223
1733	8.6600e-01	2.6751	-3.273258	0.000368	3.676792	0.622865	-0.007355
1734	8.6650e-01	2.6633	-3.311316	0.000381	3.805052	0.644593	-0.007612
1735	8.6700e-01	2.6556	-3.352368	0.000410	4.104326	0.695292	-0.008210
1736	8.6750e-01	2.6459	-3.415229	0.000628	6.284749	1.064665	-0.012572
1737	8.6800e-01	2.6361	-3.449012	0.000338	3.377518	0.572167	-0.006756
1738	8.6850e-01	2.6257	-3.498189	0.000492	4.916640	0.832901	-0.009835
1739	8.6900e-01	2.6151	-3.552497	0.000543	5.429681	0.919813	-0.010862
1740	8.6950e-01	2.6026	-3.598680	0.000462	4.617367	0.782203	-0.009237
1741	8.7000e-01	2.5954	-3.647857	0.000492	4.916640	0.832901	-0.009835
1742	8.7050e-01	2.5830	-3.678219	0.000304	3.035491	0.514226	-0.006072
1743	8.7100e-01	2.5761	-3.727823	0.000496	4.959394	0.840144	-0.009921
1744	8.7150e-01	2.5650	-3.779138	0.000513	5.130407	0.869115	-0.010263
1745	8.7200e-01	2.5569	-3.824467	0.000453	4.531860	0.767718	-0.009066
1746	8.7250e-01	2.5449	-3.880913	0.000564	5.643448	0.956026	-0.011289
1747	8.7300e-01	2.5340	-3.912130	0.000312	3.120998	0.528711	-0.006243
1748	8.7350e-01	2.5256	-3.973280	0.000611	6.113735	1.035695	-0.012230
1749	8.7400e-01	2.5146	-4.015615	0.000423	4.232586	0.717019	-0.008467
1750	8.7450e-01	2.5058	-4.063082	0.000475	4.745627	0.803931	-0.009493
1751	8.7500e-01	2.4966	-4.117818	0.000547	5.472434	0.927055	-0.010947
1752	8.7550e-01	2.4866	-4.146041	0.000282	2.821724	0.478013	-0.005645
1753	8.7600e-01	2.4744	-4.205481	0.000594	5.942722	1.006724	-0.011888
1754	8.7650e-01	2.4643	-4.249099	0.000436	4.360846	0.738747	-0.008724
1755	8.7700e-01	2.4557	-4.304690	0.000556	5.557941	0.941541	-0.011118
1756	8.7750e-01	2.4469	-4.356432	0.000517	5.173161	0.876357	-0.010349
1757	8.7800e-01	2.4368	-4.391925	0.000355	3.548532	0.601138	-0.007099
1758	8.7850e-01	2.4268	-4.452221	0.000603	6.028229	1.021210	-0.012059
1759	8.7900e-01	2.4144	-4.494555	0.000423	4.232586	0.717019	-0.008467
1760	8.7950e-01	2.4055	-4.528765	0.000342	3.420272	0.579410	-0.006842
1761	8.8000e-01	2.3953	-4.583502	0.000547	5.472434	0.927055	-0.010947
1762	8.8050e-01	2.3868	-4.623271	0.000398	3.976066	0.673564	-0.007954
1763	8.8100e-01	2.3767	-4.682283	0.000590	5.899968	0.999482	-0.011802
1764	8.8150e-01	2.3666	-4.728039	0.000457	4.574613	0.774960	-0.009151
1765	8.8200e-01	2.3572	-4.784058	0.000560	5.600695	0.948783	-0.011204
1766	8.8250e-01	2.3459	-4.824255	0.000402	4.018819	0.680806	-0.008039
1767	8.8300e-01	2.3361	-4.864879	0.000406	4.061572	0.688049	-0.008125
1768	8.8350e-01	2.3241	-4.927312	0.000624	6.241996	1.057423	-0.012487
1769	8.8400e-01	2.3175	-4.970930	0.000436	4.360846	0.738747	-0.008724
1770	8.8450e-01	2.3054	-5.016686	0.000457	4.574613	0.774960	-0.009151
1771	8.8500e-01	2.2951	-5.071422	0.000547	5.472434	0.927055	-0.010947
1772	8.8550e-01	2.2876	-5.098790	0.000274	2.736217	0.463528	-0.005474
1773	8.8600e-01	2.2758	-5.165927	0.000671	6.712283	1.137092	-0.013427
1774	8.8650e-01	2.2639	-5.198427	0.000325	3.249258	0.550439	-0.006500
1775	8.8700e-01	2.2528	-5.241617	0.000432	4.318093	0.731505	-0.008638
1776	8.8750e-01	2.2449	-5.303622	0.000620	6.199242	1.050180	-0.012401
1777	8.8800e-01	2.2357	-5.350234	0.000466	4.660120	0.789446	-0.009322
1778	8.8850e-01	2.2242	-5.411384	0.000611	6.113735	1.035695	-0.012230
1779	8.8900e-01	2.2192	-5.449015	0.000376	3.762299	0.637351	-0.007526
1780	8.8950e-01	2.2064	-5.506317	0.000573	5.728955	0.970511	-0.011460
1781	8.9000e-01	2.1960	-5.539244	0.000329	3.292011	0.557682	-0.006585
1782	8.9050e-01	2.1860	-5.591842	0.000526	5.258668	0.890842	-0.010520
1783	8.9100e-01	2.1768	-5.653848	0.000620	6.199242	1.050180	-0.012401
1784	8.9150e-01	2.1669	-5.695327	0.000415	4.147079	0.702534	-0.008296
1785	8.9200e-01	2.1573	-5.756478	0.000611	6.113735	1.035695	-0.012230
1786	8.9250e-01	2.1455	-5.780425	0.000239	2.394190	0.405587	-0.004789
1787	8.9300e-01	2.1354	-5.830029	0.000496	4.959394	0.840144	-0.009921
1788	8.9350e-01	2.1249	-5.876213	0.000462	4.617367	0.782203	-0.009237
1789	8.9400e-01	2.1173	-5.928811	0.000526	5.258668	0.890842	-0.010520
1790	8.9450e-01	2.1065	-5.977560	0.000487	4.873887	0.825659	-0.009750
1791	8.9500e-01	2.0961	-6.039138	0.000616	6.156489	1.042937	-0.012316
1792	8.9550e-01	2.0895	-6.069927	0.000308	3.078244	0.521469	-0.006158
1793	8.9600e-01	2.0764	-6.141340	0.000714	7.139817	1.209518	-0.014283
1794	8.9650e-01	2.0654	-6.166143	0.000248	2.479697	0.420072	-0.004960
1795	8.9700e-01	2.0567	-6.222589	0.000564	5.643448	0.956026	-0.011289
1796	8.9750e-01	2.0459	-6.284595	0.000620	6.199242	1.050180	-0.012401
1797	8.9800e-01	2.0309	-6.315811	0.000312	3.120998	0.528711	-0.006243
1798	8.9850e-01	2.0255	-6.374824	0.000590	5.899968	0.999482	-0.011802
1799	8.9900e-01	2.0184	-6.417586	0.000428	4.275339	0.724262	-0.008553
1800	8.9950e-01	2.0058	-6.472322	0.000547	5.472434	0.927055	-0.010947
1801	9.0000e-01	1.9949	-6.518933	0.000466	4.660120	0.789446	-0.009322
1802	9.0050e-01	1.9829	-6.576663	0.000577	5.771708	0.977754	-0.011546
1803	9.0100e-01	1.9788	-6.620708	0.000440	4.403600	0.745990	-0.008809
1804	9.0150e-01	1.9655	-6.663898	0.000432	4.318093	0.731505	-0.008638
1805	9.0200e-01	1.9549	-6.730180	0.000663	6.626776	1.122606	-0.013256
1806	9.0250e-01	1.9447	-6.765246	0.000351	3.505778	0.593895	-0.007013
1807	9.0300e-01	1.9371	-6.830672	0.000654	6.541269	1.108121	-0.013085
1808	9.0350e-01	1.9250	-6.870869	0.000402	4.018819	0.680806	-0.008039
1809	9.0400e-01	1.9153	-6.921329	0.000504	5.044901	0.854629	-0.010092
1810	9.0450e-01	1.9049	-6.976920	0.000556	5.557941	0.941541	-0.011118
1811	9.0500e-01	1.8945	-7.000867	0.000239	2.394190	0.405587	-0.004789
1812	9.0550e-01	1.8855	-7.055603	0.000547	5.472434	0.927055	-0.010947
1813	9.0600e-01	1.8774	-7.123596	0.000680	6.797790	1.151577	-0.013598
1814	9.0650e-01	1.8652	-7.159089	0.000355	3.548532	0.601138	-0.007099
1815	9.0700e-01	1.8578	-7.220239	0.000611	6.113735	1.035695	-0.012230
1816	9.0750e-01	1.8451	-7.264712	0.000445	4.446353	0.753233	-0.008895
1817	9.0800e-01	1.8359	-7.319020	0.000543	5.429681	0.919813	-0.010862
1818	9.0850e-01	1.8250	-7.371191	0.000522	5.215914	0.883600	-0.010434
1819	9.0900e-01	1.8128	-7.412243	0.000410	4.104326	0.695292	-0.008210
1820	9.0950e-01	1.8056	-7.479380	0.000671	6.712283	1.137092	-0.013427
1821	9.1000e-01	1.7957	-7.510597	0.000312	3.120998	0.528711	-0.006243
1822	9.1050e-01	1.7841	-7.557635	0.000470	4.702873	0.796688	-0.009408
1823	9.1100e-01	1.7770	-7.616220	0.000586	5.857215	0.992239	-0.011717
1824	9.1150e-01	1.7666	-7.676087	0.000599	5.985475	1.013967	-0.011974
1825	9.1200e-01	1.7543	-7.714146	0.000381	3.805052	0.644593	-0.007612
1826	9.1250e-01	1.7454	-7.770593	0.000564	5.643448	0.956026	-0.011289
1827	9.1300e-01	1.7353	-7.838157	0.000676	6.755036	1.144334	-0.013513
1828	9.1350e-01	1.7242	-7.876644	0.000385	3.847805	0.651836	-0.007697
1829	9.1400e-01	1.7169	-7.921972	0.000453	4.531860	0.767718	-0.009066
1830	9.1450e-01	1.7081	-7.972004	0.000500	5.002147	0.847387	-0.010006
1831	9.1500e-01	1.6980	-8.038286	0.000663	6.626776	1.122606	-0.013256
1832	9.1550e-01	1.6852	-8.085325	0.000470	4.702873	0.796688	-0.009408
1833	9.1600e-01	1.6769	-8.134929	0.000496	4.959394	0.840144	-0.009921
1834	9.1650e-01	1.6643	-8.188810	0.000539	5.386928	0.912570	-0.010776
1835	9.1700e-01	1.6568	-8.234994	0.000462	4.617367	0.782203	-0.009237
1836	9.1750e-01	1.6452	-8.275618	0.000406	4.061572	0.688049	-0.008125
1837	9.1800e-01	1.6359	-8.329927	0.000543	5.429681	0.919813	-0.010862
1838	9.1850e-01	1.6254	-8.367558	0.000376	3.762299	0.637351	-0.007526
1839	9.1900e-01	1.6133	-8.433839	0.000663	6.626776	1.122606	-0.013256
1840	9.1950e-01	1.6042	-8.490286	0.000564	5.643448	0.956026	-0.011289
1841	9.2000e-01	1.5961	-8.529628	0.000393	3.933312	0.666321	-0.007868
1842	9.2050e-01	1.5851	-8.574956	0.000453	4.531860	0.767718	-0.009066
1843	9.2100e-01	1.5757	-8.647224	0.000723	7.225324	1.224003	-0.014454
1844	9.2150e-01	1.5642	-8.703671	0.000564	5.643448	0.956026	-0.011289
1845	9.2200e-01	1.5573	-8.746006	0.000423	4.232586	0.717019	-0.008467
1846	9.2250e-01	1.5454	-8.783637	0.000376	3.762299	0.637351	-0.007526
1847	9.2300e-01	1.5358	-8.854195	0.000705	7.054310	1.195032	-0.014112
1848	9.2350e-01	1.5255	-8.884557	0.000304	3.035491	0.514226	-0.006072
1849	9.2400e-01	1.5155	-8.947845	0.000633	6.327502	1.071908	-0.012658
1850	9.2450e-01	1.5045	-9.020114	0.000723	7.225324	1.224003	-0.014454
1851	9.2500e-01	1.4973	-9.059455	0.000393	3.933312	0.666321	-0.007868
1852	9.2550e-01	1.4878	-9.100507	0.000410	4.104326	0.695292	-0.008210
1853	9.2600e-01	1.4758	-9.151395	0.000509	5.087654	0.861872	-0.010177
1854	9.2650e-01	1.4656	-9.208269	0.000569	5.686201	0.963269	-0.011375
1855	9.2700e-01	1.4558	-9.270275	0.000620	6.199242	1.050180	-0.012401
1856	9.2750e-01	1.4438	-9.324583	0.000543	5.429681	0.919813	-0.010862
1857	9.2800e-01	1.4359	-9.359221	0.000346	3.463025	0.586652	-0.006928
1858	9.2850e-01	1.4267	-9.414384	0.000552	5.515188	0.934298	-0.011033
1859	9.2900e-01	1.4130	-9.466982	0.000526	5.258668	0.890842	-0.010520
1860	9.2950e-01	1.4048	-9.524712	0.000577	5.771708	0.977754	-0.011546
1861	9.3000e-01	1.3949	-9.581158	0.000564	5.643448	0.956026	-0.011289
1862	9.3050e-01	1.3856	-9.629052	0.000479	4.788380	0.811174	-0.009579
1863	9.3100e-01	1.3754	-9.667538	0.000385	3.847805	0.651836	-0.007697
1864	9.3150e-01	1.3644	-9.722702	0.000552	5.515188	0.934298	-0.011033
1865	9.3200e-01	1.3583	-9.772734	0.000500	5.002147	0.847387	-0.010006
1866	9.3250e-01	1.3459	-9.834312	0.000616	6.156489	1.042937	-0.012316
1867	9.3300e-01	1.3351	-9.895463	0.000611	6.113735	1.035695	-0.012230
1868	9.3350e-01	1.3248	-9.935659	0.000402	4.018819	0.680806	-0.008039
1869	9.3400e-01	1.3159	-9.995099	0.000594	5.942722	1.006724	-0.011888
1870	9.3450e-01	1.3033	-10.028882	0.000338	3.377518	0.572167	-0.006756
1871	9.3500e-01	1.2946	-10.098585	0.000697	6.968803	1.180547	-0.013941
1872	9.3550e-01	1.2871	-10.151610	0.000530	5.301421	0.898085	-0.010605
1873	9.3600e-01	1.2746	-10.217892	0.000663	6.626776	1.122606	-0.013256
1874	9.3650e-01	1.2653	-10.252530	0.000346	3.463025	0.586652	-0.006928
1875	9.3700e-01	1.2540	-10.316246	0.000637	6.370256	1.079151	-0.012743
1876	9.3750e-01	1.2472	-10.326081	0.000098	0.983328	0.166580	-0.001967
1877	9.3800e-01	1.2354	-10.405620	0.000795	7.952131	1.347128	-0.015908
1878	9.3850e-01	1.2244	-10.467198	0.000616	6.156489	1.042937	-0.012316
1879	9.3900e-01	1.2149	-10.505684	0.000385	3.847805	0.651836	-0.007697
1880	9.3950e-01	1.2059	-10.583512	0.000778	7.781118	1.318157	-0.015566
1881	9.4000e-01	1.1963	-10.627130	0.000436	4.360846	0.738747	-0.008724
1882	9.4050e-01	1.1845	-10.681010	0.000539	5.386928	0.912570	-0.010776
1883	9.4100e-01	1.1761	-10.725911	0.000449	4.489106	0.760475	-0.008980
1884	9.4150e-01	1.1646	-10.774233	0.000483	4.831134	0.818416	-0.009664
1885	9.4200e-01	1.1538	-10.840942	0.000667	6.669530	1.129849	-0.013342
1886	9.4250e-01	1.1455	-10.887981	0.000470	4.702873	0.796688	-0.009408
1887	9.4300e-01	1.1353	-10.932026	0.000440	4.403600	0.745990	-0.008809
1888	9.4350e-01	1.1253	-10.996598	0.000646	6.455763	1.093636	-0.012914
1889	9.4400e-01	1.1136	-11.036367	0.000398	3.976066	0.673564	-0.007954
1890	9.4450e-01	1.1082	-11.097517	0.000611	6.113735	1.035695	-0.012230
1891	9.4500e-01	1.0966	-11.143273	0.000457	4.574613	0.774960	-0.009151
1892	9.4550e-01	1.0850	-11.221101	0.000778	7.781118	1.318157	-0.015566
1893	9.4600e-01	1.0773	-11.268567	0.000475	4.745627	0.803931	-0.009493
1894	9.4650e-01	1.0667	-11.328007	0.000594	5.942722	1.006724	-0.011888
1895	9.4700e-01	1.0561	-11.357941	0.000299	2.992738	0.506983	-0.005987
1896	9.4750e-01	1.0455	-11.422513	0.000646	6.455763	1.093636	-0.012914
1897	9.4800e-01	1.0358	-11.473828	0.000513	5.130407	0.869115	-0.010263
1898	9.4850e-01	1.0257	-11.536688	0.000628	6.284749	1.064665	-0.012572
1899	9.4900e-01	1.0184	-11.599977	0.000633	6.327502	1.071908	-0.012658
1900	9.4950e-01	1.0068	-11.651292	0.000513	5.130407	0.869115	-0.010263
1901	9.5000e-01	0.9958	-11.689778	0.000385	3.847805	0.651836	-0.007697
1902	9.5050e-01	0.9900	-11.756488	0.000667	6.669530	1.129849	-0.013342
1903	9.5100e-01	0.9745	-11.809086	0.000526	5.258668	0.890842	-0.010520
1904	9.5150e-01	0.9663	-11.867243	0.000581	5.814462	0.984996	-0.011631
1905	9.5200e-01	0.9552	-11.924117	0.000569	5.686201	0.963269	-0.011375
1906	9.5250e-01	0.9454	-11.957899	0.000338	3.377518	0.572167	-0.006756
1907	9.5300e-01	0.9355	-12.034017	0.000761	7.610104	1.289187	-0.015223
1908	9.5350e-01	0.9265	-12.076779	0.000428	4.275339	0.724262	-0.008553
1909	9.5400e-01	0.9171	-12.134081	0.000573	5.728955	0.970511	-0.011460
1910	9.5450e-01	0.9084	-12.192666	0.000586	5.857215	0.992239	-0.011717
1911	9.5500e-01	0.8965	-12.237139	0.000445	4.446353	0.753233	-0.008895
1912	9.5550e-01	0.8883	-12.289737	0.000526	5.258668	0.890842	-0.010520
1913	9.5600e-01	0.8752	-12.344473	0.000547	5.472434	0.927055	-0.010947
1914	9.5650e-01	0.8685	-12.409044	0.000646	6.455763	1.093636	-0.012914
1915	9.5700e-01	0.8573	-12.462925	0.000539	5.386928	0.912570	-0.010776
1916	9.5750e-01	0.8444	-12.514240	0.000513	5.130407	0.869115	-0.010263
1917	9.5800e-01	0.8347	-12.568121	0.000539	5.386928	0.912570	-0.010776
1918	9.5850e-01	0.8244	-12.611311	0.000432	4.318093	0.731505	-0.008638
1919	9.5900e-01	0.8157	-12.686145	0.000748	7.481844	1.267459	-0.014967
1920	9.5950e-01	0.8038	-12.729335	0.000432	4.318093	0.731505	-0.008638
1921	9.6000e-01	0.7966	-12.795617	0.000663	6.626776	1.122606	-0.013256
1922	9.6050e-01	0.7861	-12.830683	0.000351	3.505778	0.593895	-0.007013
1923	9.6100e-01	0.7770	-12.893971	0.000633	6.327502	1.071908	-0.012658
1924	9.6150e-01	0.7638	-12.945714	0.000517	5.173161	0.876357	-0.010349
1925	9.6200e-01	0.7542	-13.016272	0.000705	7.054310	1.195032	-0.014112
1926	9.6250e-01	0.7467	-13.073574	0.000573	5.728955	0.970511	-0.011460
1927	9.6300e-01	0.7345	-13.109067	0.000355	3.548532	0.601138	-0.007099
1928	9.6350e-01	0.7259	-13.177487	0.000684	6.840543	1.158819	-0.013684
1929	9.6400e-01	0.7151	-13.237354	0.000599	5.985475	1.013967	-0.011974
1930	9.6450e-01	0.7080	-13.289952	0.000526	5.258668	0.890842	-0.010520
1931	9.6500e-01	0.6949	-13.356662	0.000667	6.669530	1.129849	-0.013342
1932	9.6550e-01	0.6851	-13.391727	0.000351	3.505778	0.593895	-0.007013
1933	9.6600e-01	0.6757	-13.453733	0.000620	6.199242	1.050180	-0.012401
1934	9.6650e-01	0.6657	-13.511462	0.000577	5.771708	0.977754	-0.011546
1935	9.6700e-01	0.6552	-13.564060	0.000526	5.258668	0.890842	-0.010520
1936	9.6750e-01	0.6444	-13.626921	0.000628	6.284749	1.064665	-0.012572
1937	9.6800e-01	0.6355	-13.664552	0.000376	3.762299	0.637351	-0.007526
1938	9.6850e-01	0.6248	-13.734682	0.000701	7.011557	1.187790	-0.014026
1939	9.6900e-01	0.6191	-13.797116	0.000624	6.241996	1.057423	-0.012487
1940	9.6950e-01	0.6069	-13.848003	0.000509	5.087654	0.861872	-0.010177
1941	9.7000e-01	0.5965	-13.908298	0.000603	6.028229	1.021210	-0.012059
1942	9.7050e-01	0.5826	-13.963890	0.000556	5.557941	0.941541	-0.011118
1943	9.7100e-01	0.5788	-14.024185	0.000603	6.028229	1.021210	-0.012059
1944	9.7150e-01	0.5638	-14.067375	0.000432	4.318093	0.731505	-0.008638
1945	9.7200e-01	0.5564	-14.132374	0.000650	6.498516	1.100878	-0.013000
1946	9.7250e-01	0.5454	-14.182406	0.000500	5.002147	0.847387	-0.010006
1947	9.7300e-01	0.5359	-14.221320	0.000389	3.890559	0.659079	-0.007783
1948	9.7350e-01	0.5244	-14.302569	0.000812	8.123145	1.376098	-0.016250
1949	9.7400e-01	0.5164	-14.352173	0.000496	4.959394	0.840144	-0.009921
1950	9.7450e-01	0.5067	-14.404771	0.000526	5.258668	0.890842	-0.010520
1951	9.7500e-01	0.4962	-14.467632	0.000628	6.284749	1.064665	-0.012572
1952	9.7550e-01	0.4861	-14.515954	0.000483	4.831134	0.818416	-0.009664
1953	9.7600e-01	0.4755	-14.569407	0.000534	5.344174	0.905328	-0.010691
1954	9.7650e-01	0.4639	-14.621577	0.000522	5.215914	0.883600	-0.010434
1955	9.7700e-01	0.4539	-14.683583	0.000620	6.199242	1.050180	-0.012401
1956	9.7750e-01	0.4459	-14.737036	0.000534	5.344174	0.905328	-0.010691
1957	9.7800e-01	0.4303	-14.828548	0.000915	9.149226	1.549921	-0.018302
1958	9.7850e-01	0.4239	-14.859764	0.000312	3.120998	0.528711	-0.006243
1959	9.7900e-01	0.4169	-14.907231	0.000475	4.745627	0.803931	-0.009493
1960	9.7950e-01	0.4052	-14.958546	0.000513	5.130407	0.869115	-0.010263
1961	9.8000e-01	0.3968	-15.027394	0.000688	6.883296	1.166062	-0.013770
1962	9.8050e-01	0.3844	-15.077426	0.000500	5.002147	0.847387	-0.010006
1963	9.8100e-01	0.3747	-15.148412	0.000710	7.097063	1.202275	-0.014197
1964	9.8150e-01	0.3680	-15.192029	0.000436	4.360846	0.738747	-0.008724
1965	9.8200e-01	0.3535	-15.266864	0.000748	7.481844	1.267459	-0.014967
1966	9.8250e-01	0.3477	-15.307916	0.000410	4.104326	0.695292	-0.008210
1967	9.8300e-01	0.3342	-15.373770	0.000658	6.584023	1.115364	-0.013171
1968	9.8350e-01	0.3239	-15.435348	0.000616	6.156489	1.042937	-0.012316
1969	9.8400e-01	0.3163	-15.487518	0.000522	5.215914	0.883600	-0.010434
1970	9.8450e-01	0.3043	-15.534557	0.000470	4.702873	0.796688	-0.009408
1971	9.8500e-01	0.2949	-15.595708	0.000611	6.113735	1.035695	-0.012230
1972	9.8550e-01	0.2869	-15.650444	0.000547	5.472434	0.927055	-0.010947
1973	9.8600e-01	0.2737	-15.720147	0.000697	6.968803	1.180547	-0.013941
1974	9.8650e-01	0.2653	-15.778731	0.000586	5.857215	0.992239	-0.011717
1975	9.8700e-01	0.2544	-15.819783	0.000410	4.104326	0.695292	-0.008210
1976	9.8750e-01	0.2453	-15.890769	0.000710	7.097063	1.202275	-0.014197
1977	9.8800e-01	0.2338	-15.936525	0.000457	4.574613	0.774960	-0.009151
1978	9.8850e-01	0.2237	-15.998531	0.000620	6.199242	1.050180	-0.012401
1979	9.8900e-01	0.2159	-16.043004	0.000445	4.446353	0.753233	-0.008895
1980	9.8950e-01	0.2061	-16.114845	0.000718	7.182570	1.216760	-0.014368
1981	9.9000e-01	0.1945	-16.183265	0.000684	6.840543	1.158819	-0.013684
1982	9.9050e-01	0.1823	-16.230731	0.000475	4.745627	0.803931	-0.009493
1983	9.9100e-01	0.1738	-16.293592	0.000628	6.284749	1.064665	-0.012572
1984	9.9150e-01	0.1668	-16.344907	0.000513	5.130407	0.869115	-0.010263
1985	9.9200e-01	0.1546	-16.395367	0.000504	5.044901	0.854629	-0.010092
1986	9.9250e-01	0.1482	-16.456517	0.000611	6.113735	1.035695	-0.012230
1987	9.9300e-01	0.1374	-16.528786	0.000723	7.225324	1.224003	-0.014454
1988	9.9350e-01	0.1206	-16.582667	0.000539	5.386928	0.912570	-0.010776
1989	9.9400e-01	0.1139	-16.624146	0.000415	4.147079	0.702534	-0.008296
1990	9.9450e-01	0.1044	-16.695987	0.000718	7.182570	1.216760	-0.014368
1991	9.9500e-01	0.0948	-16.751151	0.000552	5.515188	0.934298	-0.011033
1992	9.9550e-01	0.0893	-16.804177	0.000530	5.301421	0.898085	-0.010605
1993	9.9600e-01	0.0745	-16.876445	0.000723	7.225324	1.224003	-0.014454
1994	9.9650e-01	0.0661	-16.927760	0.000513	5.130407	0.869115	-0.010263
1995	9.9700e-01	0.0579	-16.989766	0.000620	6.199242	1.050180	-0.012401
1996	9.9750e-01	0.0426	-17.032956	0.000432	4.318093	0.731505	-0.008638
1997	9.9800e-01	0.0363	-17.087265	0.000543	5.429681	0.919813	-0.010862
1998	9.9850e-01	0.0263	-17.147560	0.000603	6.028229	1.021210	-0.012059
1999	9.9900e-01	0.0131	-17.208282	0.000607	6.070982	1.028452	-0.012145
2000	9.9950e-01	0.0053	-17.277985	0.000697	6.968803	1.180547	-0.013941
2001	1.0000e+00	-0.0058	-17.325452	0.000697	6.968803	1.180547	-0.009493

PMax (uC/cm2):	4.26e+01
Pr (uC/cm2):	3.98e+00
-Pr (uC/cm2):	0.00e+00
PLoss (uC/cm2):	0.00e+00
C (Max-Eff) (nF):	4.26e-01
K (Eff):	7.22e+02
Vert. (+/-Pr) Shift (uC/cm2):	1.99e+00
Offset (uC/cm2):	2.13e+01

A (Loop Area - uC/cm2·Volts):	-3.87e-02



Hysteresis Version: 5.48.1 - Radiant Technologies, Inc., 1999 - 9/12/24

