»»»»»»»»»»»»»»»»»»»»»»»»»»»»»»»»»»»» Hysteresis ««««««««««««««««««««««««««««««««««««
»»»  Executed Version:	5.48.1
»»»  Vision Version:	5.48.4 (R)
»»»  Vision Compiled:	9/18/24
»»»  Driver Version:	5.47.0
»»»  Windows Version:	Windows 8 or 8.1
»»»  Processor Information:	x86 (AMD or Intel) - 32 Processors
»»»  Tester Name:	PMF21124-494 (100V)
»»»  Tester S/N:	PMF21124-494
»»»  Internal Amp Type:	100V RevK 270k
»»»  Internal Amp S/N:	iAB2-596/K     
»»»  Execution Count:	1
»»»»»»»»»»»»»»»»»»»»»»»»»»»»»»»»»»»»»»»»»»««««««««««««««««««««««««««««««««««««««««««

Stored:	6/30/2025 - 14:35:52
Configured:	06/30/25 10:19:58 AM
Executed:	06/30/25 02:34:52 PM

»»»»»»»»»»»»»»»»»»»»»»»»»»»»»»»»»»» Sample Info ««««««««««««««««««««««««««««««««««««
Sample Name:	
Lot Name:	
Wafer Name:	
Die Row/Column:	0/0
Capacitor Number:	0
Sample Area (cm2):	1.00e-04
Sample Thickness (microns):	1.50e-01

Amplifier:	Internal

»»»»»»»»»»»»»»»»»»»»»»»»»»»»»»»»»»» Tester Info «««««««««««««««««««««««««««««««««««
Tester Name:	PMF21124-494 (100V)
Tester Serial Number:	PMF21124-494
Return Signal Amp. Level:	1.79 [Index: 2]

»»»»»»»»»»»»»»»»»»»»»»»»»»»»»»»» Hysteresis Info ««««««««««««««««««««««««««««««««««
Task Name:	Hyst-1804
Volts:	10.00
Field:	666.67 (kV/cm)
DCBias:	0.00
DCField:	0.00 (kV/cm)
Hysteresis Period (ms):	1.00e+00
Preset:	Enabled
Preset Delay (ms):	1.00e+03
Profile:	Standard Monopolar

»»»»»»»»»»»»»»»»»»»»»»»»»»»»»»»»»»»»»» Data «««««««««««««««««««««««««««««««««««««««
Points:	2001

Valid Data

Point	Time (ms)	Drive Voltage	Measured Polarization (uC/cm2)	Capacitance (uF)	Normalized Capacitance (uF/cm2)	Dielectric Constant	Instantaneous Current (mA)
   1	0.0000e+00	-0.0050	-19.851862	0.000731	7.311054	1.238526	0.014625
   2	5.0000e-04	0.0025	-19.778738	0.000731	7.311054	1.238526	0.014625
   3	1.0000e-03	0.0179	-19.746666	0.000321	3.206602	0.543213	0.006414
   4	1.5000e-03	0.0262	-19.689364	0.000573	5.729130	0.970541	0.011460
   5	2.0000e-03	0.0356	-19.641898	0.000475	4.745772	0.803955	0.009493
   6	2.5000e-03	0.0446	-19.611964	0.000299	2.992829	0.506999	0.005987
   7	3.0000e-03	0.0539	-19.560222	0.000517	5.173319	0.876384	0.010349
   8	3.5000e-03	0.0655	-19.515748	0.000445	4.446489	0.753256	0.008895
   9	4.0000e-03	0.0780	-19.455453	0.000603	6.028413	1.021241	0.012059
  10	4.5000e-03	0.0818	-19.422099	0.000333	3.334867	0.564942	0.006671
  11	5.0000e-03	0.0960	-19.378908	0.000432	4.318225	0.731527	0.008638
  12	5.5000e-03	0.1059	-19.337001	0.000419	4.189960	0.709799	0.008381
  13	6.0000e-03	0.1162	-19.288679	0.000483	4.831281	0.818441	0.009664
  14	6.5000e-03	0.1254	-19.245062	0.000436	4.360979	0.738770	0.008724
  15	7.0000e-03	0.1349	-19.208286	0.000368	3.676904	0.622884	0.007355
  16	7.5000e-03	0.1467	-19.149274	0.000590	5.900148	0.999512	0.011802
  17	8.0000e-03	0.1589	-19.106511	0.000428	4.275470	0.724284	0.008553
  18	8.5000e-03	0.1658	-19.067597	0.000389	3.890678	0.659099	0.007783
  19	9.0000e-03	0.1748	-19.020986	0.000466	4.660262	0.789470	0.009322
  20	9.5000e-03	0.1865	-18.983355	0.000376	3.762413	0.637370	0.007526
  21	1.0000e-02	0.1994	-18.929047	0.000543	5.429847	0.919841	0.010862
  22	1.0500e-02	0.2055	-18.889277	0.000398	3.976187	0.673584	0.007954
  23	1.1000e-02	0.2164	-18.834541	0.000547	5.472601	0.927084	0.010947
  24	1.1500e-02	0.2262	-18.793917	0.000406	4.061696	0.688070	0.008125
  25	1.2000e-02	0.2379	-18.739181	0.000547	5.472601	0.927084	0.010947
  26	1.2500e-02	0.2482	-18.706254	0.000329	3.292112	0.557699	0.006585
  27	1.3000e-02	0.2545	-18.680169	0.000261	2.608037	0.441813	0.005217
  28	1.3500e-02	0.2667	-18.609183	0.000710	7.097280	1.202312	0.014197
  29	1.4000e-02	0.2763	-18.561716	0.000475	4.745772	0.803955	0.009493
  30	1.4500e-02	0.2864	-18.507836	0.000539	5.387092	0.912598	0.010776
  31	1.5000e-02	0.2950	-18.456521	0.000513	5.130564	0.869141	0.010263
  32	1.5500e-02	0.3075	-18.431291	0.000252	2.522527	0.427328	0.005046
  33	1.6000e-02	0.3153	-18.373134	0.000581	5.814639	0.985027	0.011631
  34	1.6500e-02	0.3262	-18.338496	0.000346	3.463131	0.586670	0.006928
  35	1.7000e-02	0.3346	-18.313266	0.000252	2.522527	0.427328	0.005046
  36	1.7500e-02	0.3461	-18.242708	0.000705	7.054525	1.195069	0.014112
  37	1.8000e-02	0.3534	-18.190110	0.000526	5.258828	0.890870	0.010520
  38	1.8500e-02	0.3648	-18.156328	0.000338	3.377621	0.572185	0.006756
  39	1.9000e-02	0.3780	-18.105440	0.000509	5.087809	0.861898	0.010177
  40	1.9500e-02	0.3844	-18.043862	0.000616	6.156677	1.042969	0.012316
  41	2.0000e-02	0.3954	-17.999817	0.000440	4.403734	0.746013	0.008809
  42	2.0500e-02	0.4062	-17.958337	0.000415	4.147206	0.702556	0.008296
  43	2.1000e-02	0.4166	-17.921989	0.000363	3.634149	0.615642	0.007270
  44	2.1500e-02	0.4251	-17.898470	0.000235	2.351508	0.398356	0.004704
  45	2.2000e-02	0.4372	-17.842023	0.000564	5.643620	0.956055	0.011289
  46	2.2500e-02	0.4432	-17.776596	0.000654	6.541469	1.108155	0.013085
  47	2.3000e-02	0.4569	-17.735117	0.000415	4.147206	0.702556	0.008296
  48	2.3500e-02	0.4662	-17.706466	0.000286	2.864565	0.485270	0.005730
  49	2.4000e-02	0.4738	-17.651302	0.000552	5.515356	0.934327	0.011033
  50	2.4500e-02	0.4860	-17.600415	0.000509	5.087809	0.861898	0.010177
  51	2.5000e-02	0.4959	-17.554659	0.000457	4.574753	0.774984	0.009151
  52	2.5500e-02	0.5049	-17.498212	0.000564	5.643620	0.956055	0.011289
  53	2.6000e-02	0.5180	-17.467851	0.000304	3.035584	0.514242	0.006072
  54	2.6500e-02	0.5273	-17.430648	0.000372	3.719659	0.630127	0.007441
  55	2.7000e-02	0.5364	-17.372918	0.000577	5.771884	0.977784	0.011546
  56	2.7500e-02	0.5436	-17.340846	0.000321	3.206602	0.543213	0.006414
  57	2.8000e-02	0.5577	-17.280551	0.000603	6.028413	1.021241	0.012059
  58	2.8500e-02	0.5679	-17.257032	0.000235	2.351508	0.398356	0.004704
  59	2.9000e-02	0.5785	-17.202296	0.000547	5.472601	0.927084	0.010947
  60	2.9500e-02	0.5844	-17.142428	0.000599	5.985658	1.013998	0.011974
  61	3.0000e-02	0.5963	-17.094107	0.000483	4.831281	0.818441	0.009664
  62	3.0500e-02	0.6059	-17.053910	0.000402	4.018942	0.680827	0.008039
  63	3.1000e-02	0.6125	-17.001739	0.000522	5.216073	0.883627	0.010434
  64	3.1500e-02	0.6280	-16.974799	0.000269	2.693546	0.456299	0.005388
  65	3.2000e-02	0.6379	-16.917925	0.000569	5.686375	0.963298	0.011375
  66	3.2500e-02	0.6458	-16.863617	0.000543	5.429847	0.919841	0.010862
  67	3.3000e-02	0.6563	-16.836676	0.000269	2.693546	0.456299	0.005388
  68	3.3500e-02	0.6691	-16.791775	0.000449	4.489243	0.760498	0.008980
  69	3.4000e-02	0.6754	-16.727632	0.000641	6.413205	1.086426	0.012829
  70	3.4500e-02	0.6830	-16.689573	0.000381	3.805168	0.644613	0.007612
  71	3.5000e-02	0.6970	-16.630561	0.000590	5.900148	0.999512	0.011802
  72	3.5500e-02	0.7085	-16.591647	0.000389	3.890678	0.659099	0.007783
  73	3.6000e-02	0.7153	-16.560003	0.000316	3.163848	0.535970	0.006329
  74	3.6500e-02	0.7263	-16.506977	0.000530	5.301583	0.898112	0.010605
  75	3.7000e-02	0.7373	-16.471057	0.000359	3.591395	0.608399	0.007184
  76	3.7500e-02	0.7462	-16.422735	0.000483	4.831281	0.818441	0.009664
  77	3.8000e-02	0.7564	-16.363295	0.000594	5.942903	1.006755	0.011888
  78	3.8500e-02	0.7665	-16.330795	0.000325	3.249357	0.550456	0.006500
  79	3.9000e-02	0.7780	-16.271356	0.000594	5.942903	1.006755	0.011888
  80	3.9500e-02	0.7884	-16.226455	0.000449	4.489243	0.760498	0.008980
  81	4.0000e-02	0.7959	-16.179416	0.000470	4.703017	0.796713	0.009408
  82	4.0500e-02	0.8035	-16.154186	0.000252	2.522527	0.427328	0.005046
  83	4.1000e-02	0.8183	-16.087904	0.000663	6.626978	1.122641	0.013256
  84	4.1500e-02	0.8268	-16.054977	0.000329	3.292112	0.557699	0.006585
  85	4.2000e-02	0.8374	-16.013925	0.000410	4.104451	0.695313	0.008210
  86	4.2500e-02	0.8472	-15.932249	0.000817	8.166147	1.383383	0.016335
  87	4.3000e-02	0.8538	-15.895901	0.000363	3.634149	0.615642	0.007270
  88	4.3500e-02	0.8676	-15.858697	0.000372	3.719659	0.630127	0.007441
  89	4.4000e-02	0.8781	-15.793270	0.000654	6.541469	1.108155	0.013085
  90	4.4500e-02	0.8885	-15.788567	0.000047	0.470302	0.079671	0.000941
  91	4.5000e-02	0.8961	-15.741100	0.000475	4.745772	0.803955	0.009493
  92	4.5500e-02	0.9058	-15.687219	0.000539	5.387092	0.912598	0.010776
  93	4.6000e-02	0.9164	-15.635049	0.000522	5.216073	0.883627	0.010434
  94	4.6500e-02	0.9242	-15.597418	0.000376	3.762413	0.637370	0.007526
  95	4.7000e-02	0.9339	-15.543965	0.000534	5.344337	0.905355	0.010691
  96	4.7500e-02	0.9471	-15.496071	0.000479	4.788526	0.811198	0.009579
  97	4.8000e-02	0.9578	-15.460578	0.000355	3.548640	0.601156	0.007099
  98	4.8500e-02	0.9647	-15.412684	0.000479	4.788526	0.811198	0.009579
  99	4.9000e-02	0.9739	-15.344264	0.000684	6.840752	1.158855	0.013684
 100	4.9500e-02	0.9880	-15.321600	0.000227	2.265999	0.383871	0.004533
 101	5.0000e-02	0.9958	-15.278837	0.000428	4.275470	0.724284	0.008553
 102	5.0500e-02	1.0041	-15.228805	0.000500	5.002300	0.847413	0.010006
 103	5.1000e-02	1.0202	-15.192029	0.000368	3.676904	0.622884	0.007355
 104	5.1500e-02	1.0281	-15.131307	0.000607	6.071167	1.028484	0.012145
 105	5.2000e-02	1.0360	-15.100090	0.000312	3.121093	0.528727	0.006243
 106	5.2500e-02	1.0462	-15.054334	0.000457	4.574753	0.774984	0.009151
 107	5.3000e-02	1.0540	-15.009006	0.000453	4.531998	0.767741	0.009066
 108	5.3500e-02	1.0678	-14.972658	0.000363	3.634149	0.615642	0.007270
 109	5.4000e-02	1.0780	-14.909369	0.000633	6.327695	1.071941	0.012658
 110	5.4500e-02	1.0841	-14.867462	0.000419	4.189960	0.709799	0.008381
 111	5.5000e-02	1.0956	-14.830686	0.000368	3.676904	0.622884	0.007355
 112	5.5500e-02	1.1076	-14.777233	0.000534	5.344337	0.905355	0.010691
 113	5.6000e-02	1.1177	-14.718221	0.000590	5.900148	0.999512	0.011802
 114	5.6500e-02	1.1279	-14.678879	0.000393	3.933432	0.666341	0.007868
 115	5.7000e-02	1.1366	-14.635689	0.000432	4.318225	0.731527	0.008638
 116	5.7500e-02	1.1456	-14.596775	0.000389	3.890678	0.659099	0.007783
 117	5.8000e-02	1.1571	-14.522368	0.000744	7.439318	1.260255	0.014881
 118	5.8500e-02	1.1649	-14.499704	0.000227	2.265999	0.383871	0.004533
 119	5.9000e-02	1.1768	-14.446678	0.000530	5.301583	0.898112	0.010605
 120	5.9500e-02	1.1856	-14.421021	0.000257	2.565282	0.434571	0.005132
 121	6.0000e-02	1.1977	-14.361581	0.000594	5.942903	1.006755	0.011888
 122	6.0500e-02	1.2081	-14.306417	0.000552	5.515356	0.934327	0.011033
 123	6.1000e-02	1.2167	-14.264082	0.000423	4.232715	0.717041	0.008467
 124	6.1500e-02	1.2264	-14.243129	0.000209	2.094980	0.354899	0.004191
 125	6.2000e-02	1.2378	-14.170005	0.000731	7.311054	1.238526	0.014625
 126	6.2500e-02	1.2487	-14.132374	0.000376	3.762413	0.637370	0.007526
 127	6.3000e-02	1.2566	-14.097736	0.000346	3.463131	0.586670	0.006928
 128	6.3500e-02	1.2674	-14.050270	0.000475	4.745772	0.803955	0.009493
 129	6.4000e-02	1.2769	-13.988692	0.000616	6.156677	1.042969	0.012316
 130	6.4500e-02	1.2881	-13.969449	0.000192	1.923961	0.325928	0.003849
 131	6.5000e-02	1.2973	-13.904450	0.000650	6.498714	1.100912	0.013000
 132	6.5500e-02	1.3084	-13.866391	0.000381	3.805168	0.644613	0.007612
 133	6.6000e-02	1.3162	-13.823628	0.000428	4.275470	0.724284	0.008553
 134	6.6500e-02	1.3255	-13.771031	0.000526	5.258828	0.890870	0.010520
 135	6.7000e-02	1.3357	-13.741524	0.000295	2.950074	0.499756	0.005901
 136	6.7500e-02	1.3470	-13.694486	0.000470	4.703017	0.796713	0.009408
 137	6.8000e-02	1.3561	-13.629487	0.000650	6.498714	1.100912	0.013000
 138	6.8500e-02	1.3663	-13.590145	0.000393	3.933432	0.666341	0.007868
 139	6.9000e-02	1.3773	-13.557646	0.000325	3.249357	0.550456	0.006500
 140	6.9500e-02	1.3880	-13.516166	0.000415	4.147206	0.702556	0.008296
 141	7.0000e-02	1.3956	-13.465278	0.000509	5.087809	0.861898	0.010177
 142	7.0500e-02	1.4046	-13.421233	0.000440	4.403734	0.746013	0.008809
 143	7.1000e-02	1.4154	-13.359655	0.000616	6.156677	1.042969	0.012316
 144	7.1500e-02	1.4261	-13.330149	0.000295	2.950074	0.499756	0.005901
 145	7.2000e-02	1.4352	-13.289952	0.000402	4.018942	0.680827	0.008039
 146	7.2500e-02	1.4462	-13.271564	0.000184	1.838452	0.311442	0.003678
 147	7.3000e-02	1.4571	-13.193736	0.000778	7.781355	1.318197	0.015566
 148	7.3500e-02	1.4661	-13.141566	0.000522	5.216073	0.883627	0.010434
 149	7.4000e-02	1.4757	-13.090679	0.000509	5.087809	0.861898	0.010177
 150	7.4500e-02	1.4867	-13.047916	0.000428	4.275470	0.724284	0.008553
 151	7.5000e-02	1.4954	-12.997029	0.000509	5.087809	0.861898	0.010177
 152	7.5500e-02	1.5059	-12.958970	0.000381	3.805168	0.644613	0.007612
 153	7.6000e-02	1.5210	-12.912787	0.000462	4.617507	0.782227	0.009237
 154	7.6500e-02	1.5260	-12.867886	0.000449	4.489243	0.760498	0.008980
 155	7.7000e-02	1.5379	-12.827262	0.000406	4.061696	0.688070	0.008125
 156	7.7500e-02	1.5483	-12.781506	0.000457	4.574753	0.774984	0.009151
 157	7.8000e-02	1.5558	-12.741309	0.000402	4.018942	0.680827	0.008039
 158	7.8500e-02	1.5646	-12.688283	0.000530	5.301583	0.898112	0.010605
 159	7.9000e-02	1.5781	-12.654501	0.000338	3.377621	0.572185	0.006756
 160	7.9500e-02	1.5863	-12.626278	0.000282	2.821810	0.478028	0.005645
 161	8.0000e-02	1.5970	-12.549305	0.000770	7.695846	1.303712	0.015395
 162	8.0500e-02	1.6071	-12.537332	0.000120	1.197132	0.202800	0.002395
 163	8.1000e-02	1.6157	-12.471905	0.000654	6.541469	1.108155	0.013085
 164	8.1500e-02	1.6267	-12.421018	0.000509	5.087809	0.861898	0.010177
 165	8.2000e-02	1.6360	-12.369703	0.000513	5.130564	0.869141	0.010263
 166	8.2500e-02	1.6480	-12.336775	0.000329	3.292112	0.557699	0.006585
 167	8.3000e-02	1.6568	-12.301710	0.000351	3.505885	0.593913	0.007013
 168	8.3500e-02	1.6665	-12.260230	0.000415	4.147206	0.702556	0.008296
 169	8.4000e-02	1.6772	-12.201646	0.000586	5.857394	0.992269	0.011717
 170	8.4500e-02	1.6876	-12.155462	0.000462	4.617507	0.782227	0.009237
 171	8.5000e-02	1.6949	-12.105858	0.000496	4.959545	0.840170	0.009921
 172	8.5500e-02	1.7062	-12.056681	0.000492	4.916790	0.832927	0.009835
 173	8.6000e-02	1.7154	-12.052832	0.000038	0.384792	0.065186	0.000770
 174	8.6500e-02	1.7274	-11.987406	0.000654	6.541469	1.108155	0.013085
 175	8.7000e-02	1.7381	-11.922834	0.000646	6.455960	1.093669	0.012914
 176	8.7500e-02	1.7456	-11.886914	0.000359	3.591395	0.608399	0.007184
 177	8.8000e-02	1.7560	-11.846717	0.000402	4.018942	0.680827	0.008039
 178	8.8500e-02	1.7651	-11.796257	0.000505	5.045054	0.854655	0.010092
 179	8.9000e-02	1.7751	-11.764613	0.000316	3.163848	0.535970	0.006329
 180	8.9500e-02	1.7846	-11.701324	0.000633	6.327695	1.071941	0.012658
 181	9.0000e-02	1.7966	-11.662410	0.000389	3.890678	0.659099	0.007783
 182	9.0500e-02	1.8080	-11.644878	0.000175	1.752943	0.296957	0.003507
 183	9.1000e-02	1.8135	-11.577313	0.000676	6.755242	1.144369	0.013513
 184	9.1500e-02	1.8256	-11.538399	0.000389	3.890678	0.659099	0.007783
 185	9.2000e-02	1.8378	-11.484091	0.000543	5.429847	0.919841	0.010862
 186	9.2500e-02	1.8457	-11.443466	0.000406	4.061696	0.688070	0.008125
 187	9.3000e-02	1.8549	-11.405835	0.000376	3.762413	0.637370	0.007526
 188	9.3500e-02	1.8665	-11.347250	0.000586	5.857394	0.992269	0.011717
 189	9.4000e-02	1.8781	-11.320738	0.000265	2.650791	0.449056	0.005303
 190	9.4500e-02	1.8857	-11.290804	0.000299	2.992829	0.506999	0.005987
 191	9.5000e-02	1.8996	-11.250607	0.000402	4.018942	0.680827	0.008039
 192	9.5500e-02	1.9044	-11.174917	0.000757	7.567582	1.281983	0.015138
 193	9.6000e-02	1.9147	-11.121892	0.000530	5.301583	0.898112	0.010605
 194	9.6500e-02	1.9247	-11.081268	0.000406	4.061696	0.688070	0.008125
 195	9.7000e-02	1.9394	-11.047485	0.000338	3.377621	0.572185	0.006756
 196	9.7500e-02	1.9492	-11.005150	0.000423	4.232715	0.717041	0.008467
 197	9.8000e-02	1.9553	-10.955973	0.000492	4.916790	0.832927	0.009835
 198	9.8500e-02	1.9662	-10.898244	0.000577	5.771884	0.977784	0.011546
 199	9.9000e-02	1.9781	-10.875152	0.000231	2.308754	0.391113	0.004618
 200	9.9500e-02	1.9867	-10.839659	0.000355	3.548640	0.601156	0.007099
 201	1.0000e-01	1.9958	-10.791765	0.000479	4.788526	0.811198	0.009579
 202	1.0050e-01	2.0050	-10.747292	0.000445	4.446489	0.753256	0.008895
 203	1.0100e-01	2.0161	-10.698543	0.000487	4.874036	0.825684	0.009750
 204	1.0150e-01	2.0271	-10.659201	0.000393	3.933432	0.666341	0.007868
 205	1.0200e-01	2.0335	-10.604038	0.000552	5.515356	0.934327	0.011033
 206	1.0250e-01	2.0454	-10.563413	0.000406	4.061696	0.688070	0.008125
 207	1.0300e-01	2.0560	-10.507394	0.000560	5.600866	0.948812	0.011204
 208	1.0350e-01	2.0687	-10.457362	0.000500	5.002300	0.847413	0.010006
 209	1.0400e-01	2.0752	-10.424008	0.000333	3.334867	0.564942	0.006671
 210	1.0450e-01	2.0865	-10.370982	0.000530	5.301583	0.898112	0.010605
 211	1.0500e-01	2.0969	-10.341476	0.000295	2.950074	0.499756	0.005901
 212	1.0550e-01	2.1045	-10.286740	0.000547	5.472601	0.927084	0.010947
 213	1.0600e-01	2.1175	-10.252102	0.000346	3.463131	0.586670	0.006928
 214	1.0650e-01	2.1249	-10.214899	0.000372	3.719659	0.630127	0.007441
 215	1.0700e-01	2.1368	-10.157597	0.000573	5.729130	0.970541	0.011460
 216	1.0750e-01	2.1442	-10.129374	0.000282	2.821810	0.478028	0.005645
 217	1.0800e-01	2.1564	-10.065658	0.000637	6.370450	1.079183	0.012743
 218	1.0850e-01	2.1669	-10.041711	0.000239	2.394263	0.405599	0.004789
 219	1.0900e-01	2.1765	-9.995527	0.000462	4.617507	0.782227	0.009237
 220	1.0950e-01	2.1854	-9.933521	0.000620	6.199431	1.050212	0.012401
 221	1.1000e-01	2.1968	-9.909147	0.000244	2.437018	0.412842	0.004875
 222	1.1050e-01	2.2061	-9.859115	0.000500	5.002300	0.847413	0.010006
 223	1.1100e-01	2.2144	-9.821483	0.000376	3.762413	0.637370	0.007526
 224	1.1150e-01	2.2237	-9.767175	0.000543	5.429847	0.919841	0.010862
 225	1.1200e-01	2.2357	-9.715860	0.000513	5.130564	0.869141	0.010263
 226	1.1250e-01	2.2478	-9.679940	0.000359	3.591395	0.608399	0.007184
 227	1.1300e-01	2.2601	-9.619644	0.000603	6.028413	1.021241	0.012059
 228	1.1350e-01	2.2687	-9.591421	0.000282	2.821810	0.478028	0.005645
 229	1.1400e-01	2.2768	-9.535830	0.000556	5.558111	0.941569	0.011118
 230	1.1450e-01	2.2846	-9.506324	0.000295	2.950074	0.499756	0.005901
 231	1.1500e-01	2.2949	-9.458002	0.000483	4.831281	0.818441	0.009664
 232	1.1550e-01	2.3061	-9.417805	0.000402	4.018942	0.680827	0.008039
 233	1.1600e-01	2.3157	-9.379747	0.000381	3.805168	0.644613	0.007612
 234	1.1650e-01	2.3273	-9.309188	0.000705	7.054525	1.195069	0.014112
 235	1.1700e-01	2.3389	-9.290801	0.000184	1.838452	0.311442	0.003678
 236	1.1750e-01	2.3487	-9.242051	0.000487	4.874036	0.825684	0.009750
 237	1.1800e-01	2.3575	-9.205275	0.000368	3.676904	0.622884	0.007355
 238	1.1850e-01	2.3669	-9.167644	0.000376	3.762413	0.637370	0.007526
 239	1.1900e-01	2.3761	-9.111198	0.000564	5.643620	0.956055	0.011289
 240	1.1950e-01	2.3865	-9.079554	0.000316	3.163848	0.535970	0.006329
 241	1.2000e-01	2.3951	-9.055179	0.000244	2.437018	0.412842	0.004875
 242	1.2050e-01	2.4069	-8.985476	0.000697	6.969016	1.180583	0.013941
 243	1.2100e-01	2.4188	-8.935444	0.000500	5.002300	0.847413	0.010006
 244	1.2150e-01	2.4261	-8.889260	0.000462	4.617507	0.782227	0.009237
 245	1.2200e-01	2.4359	-8.847353	0.000419	4.189960	0.709799	0.008381
 246	1.2250e-01	2.4461	-8.802880	0.000445	4.446489	0.753256	0.008895
 247	1.2300e-01	2.4592	-8.762256	0.000406	4.061696	0.688070	0.008125
 248	1.2350e-01	2.4658	-8.721631	0.000406	4.061696	0.688070	0.008125
 249	1.2400e-01	2.4783	-8.664330	0.000573	5.729130	0.970541	0.011460
 250	1.2450e-01	2.4861	-8.646797	0.000175	1.752943	0.296957	0.003507
 251	1.2500e-01	2.4971	-8.616863	0.000299	2.992829	0.506999	0.005987
 252	1.2550e-01	2.5064	-8.536470	0.000804	8.037883	1.361654	0.016079
 253	1.2600e-01	2.5150	-8.504825	0.000316	3.163848	0.535970	0.006329
 254	1.2650e-01	2.5292	-8.461635	0.000432	4.318225	0.731527	0.008638
 255	1.2700e-01	2.5386	-8.428280	0.000333	3.334867	0.564942	0.006671
 256	1.2750e-01	2.5466	-8.391077	0.000372	3.719659	0.630127	0.007441
 257	1.2800e-01	2.5549	-8.353018	0.000381	3.805168	0.644613	0.007612
 258	1.2850e-01	2.5690	-8.290585	0.000624	6.242186	1.057455	0.012487
 259	1.2900e-01	2.5751	-8.246112	0.000445	4.446489	0.753256	0.008895
 260	1.2950e-01	2.5890	-8.205060	0.000410	4.104451	0.695313	0.008210
 261	1.3000e-01	2.5941	-8.156738	0.000483	4.831281	0.818441	0.009664
 262	1.3050e-01	2.6067	-8.120390	0.000363	3.634149	0.615642	0.007270
 263	1.3100e-01	2.6160	-8.080621	0.000398	3.976187	0.673584	0.007954
 264	1.3150e-01	2.6271	-8.022036	0.000586	5.857394	0.992269	0.011717
 265	1.3200e-01	2.6367	-7.988682	0.000333	3.334867	0.564942	0.006671
 266	1.3250e-01	2.6473	-7.949768	0.000389	3.890678	0.659099	0.007783
 267	1.3300e-01	2.6550	-7.914275	0.000355	3.548640	0.601156	0.007099
 268	1.3350e-01	2.6675	-7.864670	0.000496	4.959545	0.840170	0.009921
 269	1.3400e-01	2.6749	-7.807368	0.000573	5.729130	0.970541	0.011460
 270	1.3450e-01	2.6862	-7.756909	0.000505	5.045054	0.854655	0.010092
 271	1.3500e-01	2.6947	-7.734245	0.000227	2.265999	0.383871	0.004533
 272	1.3550e-01	2.7087	-7.683785	0.000505	5.045054	0.854655	0.010092
 273	1.3600e-01	2.7197	-7.655134	0.000286	2.864565	0.485270	0.005730
 274	1.3650e-01	2.7266	-7.609378	0.000457	4.574753	0.774984	0.009151
 275	1.3700e-01	2.7399	-7.549510	0.000599	5.985658	1.013998	0.011974
 276	1.3750e-01	2.7450	-7.507176	0.000423	4.232715	0.717041	0.008467
 277	1.3800e-01	2.7571	-7.456288	0.000509	5.087809	0.861898	0.010177
 278	1.3850e-01	2.7667	-7.424644	0.000316	3.163848	0.535970	0.006329
 279	1.3900e-01	2.7748	-7.401552	0.000231	2.308754	0.391113	0.004618
 280	1.3950e-01	2.7853	-7.353230	0.000483	4.831281	0.818441	0.009664
 281	1.4000e-01	2.7969	-7.304054	0.000492	4.916790	0.832927	0.009835
 282	1.4050e-01	2.8064	-7.258298	0.000457	4.574753	0.774984	0.009151
 283	1.4100e-01	2.8174	-7.203562	0.000547	5.472601	0.927084	0.010947
 284	1.4150e-01	2.8290	-7.187312	0.000162	1.624679	0.275228	0.003250
 285	1.4200e-01	2.8387	-7.146687	0.000406	4.061696	0.688070	0.008125
 286	1.4250e-01	2.8445	-7.085537	0.000611	6.113922	1.035726	0.012230
 287	1.4300e-01	2.8546	-7.041064	0.000445	4.446489	0.753256	0.008895
 288	1.4350e-01	2.8674	-7.000012	0.000410	4.104451	0.695313	0.008210
 289	1.4400e-01	2.8760	-6.967940	0.000321	3.206602	0.543213	0.006414
 290	1.4450e-01	2.8879	-6.934585	0.000333	3.334867	0.564942	0.006671
 291	1.4500e-01	2.8963	-6.879422	0.000552	5.515356	0.934327	0.011033
 292	1.4550e-01	2.9071	-6.840935	0.000385	3.847923	0.651856	0.007697
 293	1.4600e-01	2.9179	-6.819982	0.000209	2.094980	0.354899	0.004191
 294	1.4650e-01	2.9256	-6.765246	0.000547	5.472601	0.927084	0.010947
 295	1.4700e-01	2.9347	-6.707944	0.000573	5.729130	0.970541	0.011460
 296	1.4750e-01	2.9469	-6.675444	0.000325	3.249357	0.550456	0.006500
 297	1.4800e-01	2.9565	-6.633965	0.000415	4.147206	0.702556	0.008296
 298	1.4850e-01	2.9677	-6.594196	0.000398	3.976187	0.673584	0.007954
 299	1.4900e-01	2.9782	-6.533045	0.000611	6.113922	1.035726	0.012230
 300	1.4950e-01	2.9883	-6.489855	0.000432	4.318225	0.731527	0.008638
 301	1.5000e-01	2.9987	-6.462487	0.000274	2.736301	0.463542	0.005474
 302	1.5050e-01	3.0099	-6.418869	0.000436	4.360979	0.738770	0.008724
 303	1.5100e-01	3.0170	-6.394495	0.000244	2.437018	0.412842	0.004875
 304	1.5150e-01	3.0272	-6.333344	0.000611	6.113922	1.035726	0.012230
 305	1.5200e-01	3.0372	-6.308969	0.000244	2.437018	0.412842	0.004875
 306	1.5250e-01	3.0484	-6.259793	0.000492	4.916790	0.832927	0.009835
 307	1.5300e-01	3.0585	-6.195221	0.000646	6.455960	1.093669	0.012914
 308	1.5350e-01	3.0682	-6.161011	0.000342	3.420376	0.579427	0.006842
 309	1.5400e-01	3.0774	-6.115683	0.000453	4.531998	0.767741	0.009066
 310	1.5450e-01	3.0860	-6.082756	0.000329	3.292112	0.557699	0.006585
 311	1.5500e-01	3.0965	-6.040421	0.000423	4.232715	0.717041	0.008467
 312	1.5550e-01	3.1055	-5.998941	0.000415	4.147206	0.702556	0.008296
 313	1.5600e-01	3.1171	-5.970718	0.000282	2.821810	0.478028	0.005645
 314	1.5650e-01	3.1271	-5.910423	0.000603	6.028413	1.021241	0.012059
 315	1.5700e-01	3.1356	-5.875357	0.000351	3.505885	0.593913	0.007013
 316	1.5750e-01	3.1490	-5.844996	0.000304	3.035584	0.514242	0.006072
 317	1.5800e-01	3.1605	-5.792398	0.000526	5.258828	0.890870	0.010520
 318	1.5850e-01	3.1628	-5.752629	0.000398	3.976187	0.673584	0.007954
 319	1.5900e-01	3.1735	-5.716708	0.000359	3.591395	0.608399	0.007184
 320	1.5950e-01	3.1863	-5.647861	0.000688	6.883507	1.166098	0.013770
 321	1.6000e-01	3.1996	-5.623486	0.000244	2.437018	0.412842	0.004875
 322	1.6050e-01	3.2097	-5.586283	0.000372	3.719659	0.630127	0.007441
 323	1.6100e-01	3.2175	-5.529836	0.000564	5.643620	0.956055	0.011289
 324	1.6150e-01	3.2269	-5.508027	0.000218	2.180490	0.369385	0.004362
 325	1.6200e-01	3.2364	-5.460561	0.000475	4.745772	0.803955	0.009493
 326	1.6250e-01	3.2459	-5.428489	0.000321	3.206602	0.543213	0.006414
 327	1.6300e-01	3.2558	-5.381878	0.000466	4.660262	0.789470	0.009322
 328	1.6350e-01	3.2697	-5.339543	0.000423	4.232715	0.717041	0.008467
 329	1.6400e-01	3.2779	-5.303195	0.000363	3.634149	0.615642	0.007270
 330	1.6450e-01	3.2874	-5.235202	0.000680	6.797997	1.151612	0.013598
 331	1.6500e-01	3.2945	-5.205696	0.000295	2.950074	0.499756	0.005901
 332	1.6550e-01	3.3083	-5.181749	0.000239	2.394263	0.405599	0.004789
 333	1.6600e-01	3.3189	-5.117178	0.000646	6.455960	1.093669	0.012914
 334	1.6650e-01	3.3271	-5.084678	0.000325	3.249357	0.550456	0.006500
 335	1.6700e-01	3.3375	-5.058593	0.000261	2.608037	0.441813	0.005217
 336	1.6750e-01	3.3455	-5.018396	0.000402	4.018942	0.680827	0.008039
 337	1.6800e-01	3.3573	-4.973496	0.000449	4.489243	0.760498	0.008980
 338	1.6850e-01	3.3667	-4.928167	0.000453	4.531998	0.767741	0.009066
 339	1.6900e-01	3.3748	-4.843925	0.000842	8.422676	1.426840	0.016848
 340	1.6950e-01	3.3865	-4.828958	0.000150	1.496414	0.253499	0.002993
 341	1.7000e-01	3.3963	-4.793893	0.000351	3.505885	0.593913	0.007013
 342	1.7050e-01	3.4079	-4.765242	0.000286	2.864565	0.485270	0.005730
 343	1.7100e-01	3.4164	-4.707513	0.000577	5.771884	0.977784	0.011546
 344	1.7150e-01	3.4286	-4.687842	0.000197	1.966716	0.333171	0.003934
 345	1.7200e-01	3.4377	-4.628402	0.000594	5.942903	1.006755	0.011888
 346	1.7250e-01	3.4473	-4.580081	0.000483	4.831281	0.818441	0.009664
 347	1.7300e-01	3.4570	-4.563831	0.000162	1.624679	0.275228	0.003250
 348	1.7350e-01	3.4662	-4.502253	0.000616	6.156677	1.042969	0.012316
 349	1.7400e-01	3.4756	-4.474457	0.000278	2.779055	0.470785	0.005559
 350	1.7450e-01	3.4863	-4.428274	0.000462	4.617507	0.782227	0.009237
 351	1.7500e-01	3.4949	-4.403899	0.000244	2.437018	0.412842	0.004875
 352	1.7550e-01	3.5085	-4.346169	0.000577	5.771884	0.977784	0.011546
 353	1.7600e-01	3.5181	-4.292716	0.000534	5.344337	0.905355	0.010691
 354	1.7650e-01	3.5284	-4.255941	0.000368	3.676904	0.622884	0.007355
 355	1.7700e-01	3.5388	-4.218737	0.000372	3.719659	0.630127	0.007441
 356	1.7750e-01	3.5480	-4.184955	0.000338	3.377621	0.572185	0.006756
 357	1.7800e-01	3.5559	-4.134067	0.000509	5.087809	0.861898	0.010177
 358	1.7850e-01	3.5675	-4.106272	0.000278	2.779055	0.470785	0.005559
 359	1.7900e-01	3.5764	-4.075055	0.000312	3.121093	0.528727	0.006243
 360	1.7950e-01	3.5883	-4.019891	0.000552	5.515356	0.934327	0.011033
 361	1.8000e-01	3.6017	-3.967721	0.000522	5.216073	0.883627	0.010434
 362	1.8050e-01	3.6047	-3.932228	0.000355	3.548640	0.601156	0.007099
 363	1.8100e-01	3.6194	-3.901439	0.000308	3.078338	0.521485	0.006158
 364	1.8150e-01	3.6275	-3.840716	0.000607	6.071167	1.028484	0.012145
 365	1.8200e-01	3.6362	-3.807789	0.000329	3.292112	0.557699	0.006585
 366	1.8250e-01	3.6477	-3.780849	0.000269	2.693546	0.456299	0.005388
 367	1.8300e-01	3.6555	-3.732100	0.000487	4.874036	0.825684	0.009750
 368	1.8350e-01	3.6671	-3.682495	0.000496	4.959545	0.840170	0.009921
 369	1.8400e-01	3.6771	-3.638877	0.000436	4.360979	0.738770	0.008724
 370	1.8450e-01	3.6870	-3.623910	0.000150	1.496414	0.253499	0.002993
 371	1.8500e-01	3.6958	-3.563188	0.000607	6.071167	1.028484	0.012145
 372	1.8550e-01	3.7042	-3.534537	0.000286	2.864565	0.485270	0.005730
 373	1.8600e-01	3.7175	-3.496906	0.000376	3.762413	0.637370	0.007526
 374	1.8650e-01	3.7271	-3.463979	0.000329	3.292112	0.557699	0.006585
 375	1.8700e-01	3.7366	-3.387434	0.000765	7.653091	1.296469	0.015309
 376	1.8750e-01	3.7473	-3.369473	0.000180	1.795697	0.304199	0.003592
 377	1.8800e-01	3.7584	-3.339540	0.000299	2.992829	0.506999	0.005987
 378	1.8850e-01	3.7660	-3.292501	0.000470	4.703017	0.796713	0.009408
 379	1.8900e-01	3.7764	-3.244607	0.000479	4.788526	0.811198	0.009579
 380	1.8950e-01	3.7872	-3.214245	0.000304	3.035584	0.514242	0.006072
 381	1.9000e-01	3.7985	-3.164641	0.000496	4.959545	0.840170	0.009921
 382	1.9050e-01	3.8058	-3.131714	0.000329	3.292112	0.557699	0.006585
 383	1.9100e-01	3.8168	-3.075695	0.000560	5.600866	0.948812	0.011204
 384	1.9150e-01	3.8278	-3.045761	0.000299	2.992829	0.506999	0.005987
 385	1.9200e-01	3.8391	-3.000433	0.000453	4.531998	0.767741	0.009066
 386	1.9250e-01	3.8484	-2.968788	0.000316	3.163848	0.535970	0.006329
 387	1.9300e-01	3.8547	-2.927309	0.000415	4.147206	0.702556	0.008296
 388	1.9350e-01	3.8647	-2.872573	0.000547	5.472601	0.927084	0.010947
 389	1.9400e-01	3.8745	-2.840501	0.000321	3.206602	0.543213	0.006414
 390	1.9450e-01	3.8855	-2.810995	0.000295	2.950074	0.499756	0.005901
 391	1.9500e-01	3.8959	-2.787048	0.000239	2.394263	0.405599	0.004789
 392	1.9550e-01	3.9087	-2.741719	0.000453	4.531998	0.767741	0.009066
 393	1.9600e-01	3.9160	-2.686128	0.000556	5.558111	0.941569	0.011118
 394	1.9650e-01	3.9254	-2.656194	0.000299	2.992829	0.506999	0.005987
 395	1.9700e-01	3.9355	-2.596754	0.000594	5.942903	1.006755	0.011888
 396	1.9750e-01	3.9453	-2.554847	0.000419	4.189960	0.709799	0.008381
 397	1.9800e-01	3.9578	-2.509947	0.000449	4.489243	0.760498	0.008980
 398	1.9850e-01	3.9661	-2.472743	0.000372	3.719659	0.630127	0.007441
 399	1.9900e-01	3.9774	-2.423566	0.000492	4.916790	0.832927	0.009835
 400	1.9950e-01	3.9854	-2.385935	0.000376	3.762413	0.637370	0.007526
 401	2.0000e-01	3.9984	-2.365409	0.000205	2.052226	0.347656	0.004105
 402	2.0050e-01	4.0042	-2.312384	0.000530	5.301583	0.898112	0.010605
 403	2.0100e-01	4.0155	-2.285443	0.000269	2.693546	0.456299	0.005388
 404	2.0150e-01	4.0265	-2.246529	0.000389	3.890678	0.659099	0.007783
 405	2.0200e-01	4.0361	-2.213175	0.000333	3.334867	0.564942	0.006671
 406	2.0250e-01	4.0454	-2.155873	0.000573	5.729130	0.970541	0.011460
 407	2.0300e-01	4.0553	-2.124656	0.000312	3.121093	0.528727	0.006243
 408	2.0350e-01	4.0662	-2.097716	0.000269	2.693546	0.456299	0.005388
 409	2.0400e-01	4.0781	-2.052815	0.000449	4.489243	0.760498	0.008980
 410	2.0450e-01	4.0845	-2.004921	0.000479	4.788526	0.811198	0.009579
 411	2.0500e-01	4.0976	-1.977125	0.000278	2.779055	0.470785	0.005559
 412	2.0550e-01	4.1048	-1.936929	0.000402	4.018942	0.680827	0.008039
 413	2.0600e-01	4.1175	-1.889035	0.000479	4.788526	0.811198	0.009579
 414	2.0650e-01	4.1263	-1.869792	0.000192	1.923961	0.325928	0.003849
 415	2.0700e-01	4.1376	-1.806503	0.000633	6.327695	1.071941	0.012658
 416	2.0750e-01	4.1451	-1.775286	0.000312	3.121093	0.528727	0.006243
 417	2.0800e-01	4.1562	-1.711570	0.000637	6.370450	1.079183	0.012743
 418	2.0850e-01	4.1647	-1.673512	0.000381	3.805168	0.644613	0.007612
 419	2.0900e-01	4.1791	-1.652130	0.000214	2.137735	0.362142	0.004276
 420	2.0950e-01	4.1879	-1.616210	0.000359	3.591395	0.608399	0.007184
 421	2.1000e-01	4.1959	-1.563184	0.000530	5.301583	0.898112	0.010605
 422	2.1050e-01	4.2072	-1.531112	0.000321	3.206602	0.543213	0.006414
 423	2.1100e-01	4.2163	-1.487922	0.000432	4.318225	0.731527	0.008638
 424	2.1150e-01	4.2264	-1.466113	0.000218	2.180490	0.369385	0.004362
 425	2.1200e-01	4.2355	-1.417364	0.000487	4.874036	0.825684	0.009750
 426	2.1250e-01	4.2459	-1.375029	0.000423	4.232715	0.717041	0.008467
 427	2.1300e-01	4.2578	-1.333549	0.000415	4.147206	0.702556	0.008296
 428	2.1350e-01	4.2670	-1.318155	0.000154	1.539169	0.260742	0.003079
 429	2.1400e-01	4.2767	-1.259143	0.000590	5.900148	0.999512	0.011802
 430	2.1450e-01	4.2883	-1.211676	0.000475	4.745772	0.803955	0.009493
 431	2.1500e-01	4.2982	-1.168914	0.000428	4.275470	0.724284	0.008553
 432	2.1550e-01	4.3050	-1.114178	0.000547	5.472601	0.927084	0.010947
 433	2.1600e-01	4.3140	-1.095362	0.000188	1.881207	0.318685	0.003763
 434	2.1650e-01	4.3256	-1.064573	0.000308	3.078338	0.521485	0.006158
 435	2.1700e-01	4.3378	-1.027797	0.000368	3.676904	0.622884	0.007355
 436	2.1750e-01	4.3488	-0.988028	0.000398	3.976187	0.673584	0.007954
 437	2.1800e-01	4.3591	-0.943128	0.000449	4.489243	0.760498	0.008980
 438	2.1850e-01	4.3704	-0.901220	0.000419	4.189960	0.709799	0.008381
 439	2.1900e-01	4.3768	-0.866155	0.000351	3.505885	0.593913	0.007013
 440	2.1950e-01	4.3866	-0.831517	0.000346	3.463131	0.586670	0.006928
 441	2.2000e-01	4.3935	-0.783196	0.000483	4.831281	0.818441	0.009664
 442	2.2050e-01	4.4092	-0.744709	0.000385	3.847923	0.651856	0.007697
 443	2.2100e-01	4.4165	-0.710499	0.000342	3.420376	0.579427	0.006842
 444	2.2150e-01	4.4250	-0.678000	0.000325	3.249357	0.550456	0.006500
 445	2.2200e-01	4.4348	-0.645073	0.000329	3.292112	0.557699	0.006585
 446	2.2250e-01	4.4473	-0.602310	0.000428	4.275470	0.724284	0.008553
 447	2.2300e-01	4.4562	-0.553989	0.000483	4.831281	0.818441	0.009664
 448	2.2350e-01	4.4690	-0.520206	0.000338	3.377621	0.572185	0.006756
 449	2.2400e-01	4.4771	-0.466753	0.000534	5.344337	0.905355	0.010691
 450	2.2450e-01	4.4873	-0.437247	0.000295	2.950074	0.499756	0.005901
 451	2.2500e-01	4.4977	-0.399188	0.000381	3.805168	0.644613	0.007612
 452	2.2550e-01	4.5059	-0.349156	0.000500	5.002300	0.847413	0.010006
 453	2.2600e-01	4.5190	-0.326920	0.000222	2.223244	0.376628	0.004447
 454	2.2650e-01	4.5264	-0.282019	0.000449	4.489243	0.760498	0.008980
 455	2.2700e-01	4.5413	-0.244815	0.000372	3.719659	0.630127	0.007441
 456	2.2750e-01	4.5456	-0.228138	0.000167	1.667433	0.282471	0.003335
 457	2.2800e-01	4.5575	-0.181955	0.000462	4.617507	0.782227	0.009237
 458	2.2850e-01	4.5660	-0.164850	0.000171	1.710188	0.289714	0.003421
 459	2.2900e-01	4.5770	-0.093864	0.000710	7.097280	1.202312	0.014197
 460	2.2950e-01	4.5898	-0.042549	0.000513	5.130564	0.869141	0.010263
 461	2.3000e-01	4.5959	-0.009194	0.000333	3.334867	0.564942	0.006671
 462	2.3050e-01	4.6063	0.005345	0.000145	1.453660	0.246257	0.002908
 463	2.3100e-01	4.6161	0.087449	0.000821	8.208902	1.390626	0.016421
 464	2.3150e-01	4.6274	0.133205	0.000457	4.574753	0.774984	0.009151
 465	2.3200e-01	4.6362	0.141330	0.000081	0.812339	0.137614	0.001625
 466	2.3250e-01	4.6460	0.180672	0.000393	3.933432	0.666341	0.007868
 467	2.3300e-01	4.6552	0.211033	0.000304	3.035584	0.514242	0.006072
 468	2.3350e-01	4.6661	0.253796	0.000428	4.275470	0.724284	0.008553
 469	2.3400e-01	4.6735	0.274749	0.000209	2.094980	0.354899	0.004191
 470	2.3450e-01	4.6857	0.316657	0.000419	4.189960	0.709799	0.008381
 471	2.3500e-01	4.6974	0.354288	0.000376	3.762413	0.637370	0.007526
 472	2.3550e-01	4.7076	0.404747	0.000505	5.045054	0.854655	0.010092
 473	2.3600e-01	4.7174	0.453069	0.000483	4.831281	0.818441	0.009664
 474	2.3650e-01	4.7284	0.483003	0.000299	2.992829	0.506999	0.005987
 475	2.3700e-01	4.7400	0.505667	0.000227	2.265999	0.383871	0.004533
 476	2.3750e-01	4.7476	0.563824	0.000581	5.814639	0.985027	0.011631
 477	2.3800e-01	4.7542	0.598034	0.000342	3.420376	0.579427	0.006842
 478	2.3850e-01	4.7668	0.644217	0.000462	4.617507	0.782227	0.009237
 479	2.3900e-01	4.7791	0.663461	0.000192	1.923961	0.325928	0.003849
 480	2.3950e-01	4.7879	0.705368	0.000419	4.189960	0.709799	0.008381
 481	2.4000e-01	4.7958	0.752834	0.000475	4.745772	0.803955	0.009493
 482	2.4050e-01	4.8059	0.783623	0.000308	3.078338	0.521485	0.006158
 483	2.4100e-01	4.8164	0.829379	0.000457	4.574753	0.774984	0.009151
 484	2.4150e-01	4.8273	0.861023	0.000316	3.163848	0.535970	0.006329
 485	2.4200e-01	4.8376	0.892668	0.000316	3.163848	0.535970	0.006329
 486	2.4250e-01	4.8463	0.931154	0.000385	3.847923	0.651856	0.007697
 487	2.4300e-01	4.8575	0.977765	0.000466	4.660262	0.789470	0.009322
 488	2.4350e-01	4.8663	0.991022	0.000133	1.325396	0.224528	0.002651
 489	2.4400e-01	4.8788	1.038060	0.000470	4.703017	0.796713	0.009408
 490	2.4450e-01	4.8877	1.078257	0.000402	4.018942	0.680827	0.008039
 491	2.4500e-01	4.8978	1.117599	0.000393	3.933432	0.666341	0.007868
 492	2.4550e-01	4.9075	1.138980	0.000214	2.137735	0.362142	0.004276
 493	2.4600e-01	4.9159	1.196709	0.000577	5.771884	0.977784	0.011546
 494	2.4650e-01	4.9295	1.236051	0.000393	3.933432	0.666341	0.007868
 495	2.4700e-01	4.9367	1.283945	0.000479	4.788526	0.811198	0.009579
 496	2.4750e-01	4.9466	1.310458	0.000265	2.650791	0.449056	0.005303
 497	2.4800e-01	4.9567	1.334832	0.000244	2.437018	0.412842	0.004875
 498	2.4850e-01	4.9670	1.382726	0.000479	4.788526	0.811198	0.009579
 499	2.4900e-01	4.9762	1.419930	0.000372	3.719659	0.630127	0.007441
 500	2.4950e-01	4.9879	1.466541	0.000466	4.660262	0.789470	0.009322
 501	2.5000e-01	4.9976	1.504172	0.000376	3.762413	0.637370	0.007526
 502	2.5050e-01	5.0061	1.552494	0.000483	4.831281	0.818441	0.009664
 503	2.5100e-01	5.0171	1.567460	0.000150	1.496414	0.253499	0.002993
 504	2.5150e-01	5.0269	1.578151	0.000107	1.068867	0.181071	0.002138
 505	2.5200e-01	5.0371	1.656407	0.000782	7.824110	1.325440	0.015651
 506	2.5250e-01	5.0464	1.685485	0.000291	2.907320	0.492513	0.005816
 507	2.5300e-01	5.0555	1.711998	0.000265	2.650791	0.449056	0.005303
 508	2.5350e-01	5.0671	1.762458	0.000505	5.045054	0.854655	0.010092
 509	2.5400e-01	5.0775	1.799661	0.000372	3.719659	0.630127	0.007441
 510	2.5450e-01	5.0867	1.829167	0.000295	2.950074	0.499756	0.005901
 511	2.5500e-01	5.0970	1.873640	0.000445	4.446489	0.753256	0.008895
 512	2.5550e-01	5.1114	1.911699	0.000381	3.805168	0.644613	0.007612
 513	2.5600e-01	5.1167	1.953178	0.000415	4.147206	0.702556	0.008296
 514	2.5650e-01	5.1294	1.989954	0.000368	3.676904	0.622884	0.007355
 515	2.5700e-01	5.1373	2.031434	0.000415	4.147206	0.702556	0.008296
 516	2.5750e-01	5.1483	2.059657	0.000282	2.821810	0.478028	0.005645
 517	2.5800e-01	5.1575	2.100709	0.000410	4.104451	0.695313	0.008210
 518	2.5850e-01	5.1653	2.134064	0.000333	3.334867	0.564942	0.006671
 519	2.5900e-01	5.1749	2.158011	0.000239	2.394263	0.405599	0.004789
 520	2.5950e-01	5.1868	2.208471	0.000505	5.045054	0.854655	0.010092
 521	2.6000e-01	5.1938	2.246529	0.000381	3.805168	0.644613	0.007612
 522	2.6050e-01	5.2084	2.276891	0.000304	3.035584	0.514242	0.006072
 523	2.6100e-01	5.2158	2.336331	0.000594	5.942903	1.006755	0.011888
 524	2.6150e-01	5.2271	2.365837	0.000295	2.950074	0.499756	0.005901
 525	2.6200e-01	5.2386	2.386363	0.000205	2.052226	0.347656	0.004105
 526	2.6250e-01	5.2460	2.456066	0.000697	6.969016	1.180583	0.013941
 527	2.6300e-01	5.2576	2.486855	0.000308	3.078338	0.521485	0.006158
 528	2.6350e-01	5.2655	2.506098	0.000192	1.923961	0.325928	0.003849
 529	2.6400e-01	5.2759	2.537742	0.000316	3.163848	0.535970	0.006329
 530	2.6450e-01	5.2881	2.586491	0.000487	4.874036	0.825684	0.009750
 531	2.6500e-01	5.2972	2.610438	0.000239	2.394263	0.405599	0.004789
 532	2.6550e-01	5.3058	2.642510	0.000321	3.206602	0.543213	0.006414
 533	2.6600e-01	5.3192	2.689549	0.000470	4.703017	0.796713	0.009408
 534	2.6650e-01	5.3296	2.715634	0.000261	2.608037	0.441813	0.005217
 535	2.6700e-01	5.3366	2.759680	0.000440	4.403734	0.746013	0.008809
 536	2.6750e-01	5.3481	2.808001	0.000483	4.831281	0.818441	0.009664
 537	2.6800e-01	5.3577	2.839646	0.000316	3.163848	0.535970	0.006329
 538	2.6850e-01	5.3690	2.871718	0.000321	3.206602	0.543213	0.006414
 539	2.6900e-01	5.3773	2.898658	0.000269	2.693546	0.456299	0.005388
 540	2.6950e-01	5.3867	2.940565	0.000419	4.189960	0.709799	0.008381
 541	2.7000e-01	5.3979	2.983755	0.000432	4.318225	0.731527	0.008638
 542	2.7050e-01	5.4065	3.018821	0.000351	3.505885	0.593913	0.007013
 543	2.7100e-01	5.4169	3.046616	0.000278	2.779055	0.470785	0.005559
 544	2.7150e-01	5.4274	3.106056	0.000594	5.942903	1.006755	0.011888
 545	2.7200e-01	5.4395	3.126582	0.000205	2.052226	0.347656	0.004105
 546	2.7250e-01	5.4486	3.173621	0.000470	4.703017	0.796713	0.009408
 547	2.7300e-01	5.4608	3.217666	0.000440	4.403734	0.746013	0.008809
 548	2.7350e-01	5.4681	3.219805	0.000021	0.213773	0.036214	0.000428
 549	2.7400e-01	5.4773	3.287797	0.000680	6.797997	1.151612	0.013598
 550	2.7450e-01	5.4861	3.317731	0.000299	2.992829	0.506999	0.005987
 551	2.7500e-01	5.4947	3.345954	0.000282	2.821810	0.478028	0.005645
 552	2.7550e-01	5.5066	3.387006	0.000410	4.104451	0.695313	0.008210
 553	2.7600e-01	5.5161	3.419933	0.000329	3.292112	0.557699	0.006585
 554	2.7650e-01	5.5263	3.462268	0.000423	4.232715	0.717041	0.008467
 555	2.7700e-01	5.5359	3.505031	0.000428	4.275470	0.724284	0.008553
 556	2.7750e-01	5.5490	3.533681	0.000286	2.864565	0.485270	0.005730
 557	2.7800e-01	5.5566	3.555918	0.000222	2.223244	0.376628	0.004447
 558	2.7850e-01	5.5658	3.620489	0.000646	6.455960	1.093669	0.012914
 559	2.7900e-01	5.5771	3.645292	0.000248	2.479773	0.420085	0.004960
 560	2.7950e-01	5.5862	3.672660	0.000274	2.736301	0.463542	0.005474
 561	2.8000e-01	5.5981	3.720554	0.000479	4.788526	0.811198	0.009579
 562	2.8050e-01	5.6061	3.755191	0.000346	3.463131	0.586670	0.006928
 563	2.8100e-01	5.6158	3.788546	0.000333	3.334867	0.564942	0.006671
 564	2.8150e-01	5.6271	3.815059	0.000265	2.650791	0.449056	0.005303
 565	2.8200e-01	5.6360	3.864236	0.000492	4.916790	0.832927	0.009835
 566	2.8250e-01	5.6439	3.901012	0.000368	3.676904	0.622884	0.007355
 567	2.8300e-01	5.6564	3.918972	0.000180	1.795697	0.304199	0.003592
 568	2.8350e-01	5.6668	3.953182	0.000342	3.420376	0.579427	0.006842
 569	2.8400e-01	5.6775	4.007490	0.000543	5.429847	0.919841	0.010862
 570	2.8450e-01	5.6854	4.038707	0.000312	3.121093	0.528727	0.006243
 571	2.8500e-01	5.6972	4.083608	0.000449	4.489243	0.760498	0.008980
 572	2.8550e-01	5.7077	4.112258	0.000286	2.864565	0.485270	0.005730
 573	2.8600e-01	5.7172	4.141337	0.000291	2.907320	0.492513	0.005816
 574	2.8650e-01	5.7269	4.198639	0.000573	5.729130	0.970541	0.011460
 575	2.8700e-01	5.7367	4.209757	0.000111	1.111622	0.188314	0.002224
 576	2.8750e-01	5.7452	4.262355	0.000526	5.258828	0.890870	0.010520
 577	2.8800e-01	5.7578	4.303407	0.000410	4.104451	0.695313	0.008210
 578	2.8850e-01	5.7672	4.326071	0.000227	2.265999	0.383871	0.004533
 579	2.8900e-01	5.7773	4.349590	0.000235	2.351508	0.398356	0.004704
 580	2.8950e-01	5.7877	4.388504	0.000389	3.890678	0.659099	0.007783
 581	2.9000e-01	5.7956	4.435116	0.000466	4.660262	0.789470	0.009322
 582	2.9050e-01	5.8105	4.454359	0.000192	1.923961	0.325928	0.003849
 583	2.9100e-01	5.8136	4.536035	0.000817	8.166147	1.383383	0.016335
 584	2.9150e-01	5.8282	4.551002	0.000150	1.496414	0.253499	0.002993
 585	2.9200e-01	5.8362	4.581363	0.000304	3.035584	0.514242	0.006072
 586	2.9250e-01	5.8463	4.627975	0.000466	4.660262	0.789470	0.009322
 587	2.9300e-01	5.8569	4.658764	0.000308	3.078338	0.521485	0.006158
 588	2.9350e-01	5.8667	4.693829	0.000351	3.505885	0.593913	0.007013
 589	2.9400e-01	5.8780	4.734026	0.000402	4.018942	0.680827	0.008039
 590	2.9450e-01	5.8868	4.763104	0.000291	2.907320	0.492513	0.005816
 591	2.9500e-01	5.8972	4.796031	0.000329	3.292112	0.557699	0.006585
 592	2.9550e-01	5.9073	4.839649	0.000436	4.360979	0.738770	0.008724
 593	2.9600e-01	5.9167	4.892247	0.000526	5.258828	0.890870	0.010520
 594	2.9650e-01	5.9271	4.893530	0.000013	0.128264	0.021729	0.000257
 595	2.9700e-01	5.9389	4.939713	0.000462	4.617507	0.782227	0.009237
 596	2.9750e-01	5.9473	4.976489	0.000368	3.676904	0.622884	0.007355
 597	2.9800e-01	5.9573	4.997443	0.000209	2.094980	0.354899	0.004191
 598	2.9850e-01	5.9686	5.044054	0.000466	4.660262	0.789470	0.009322
 599	2.9900e-01	5.9766	5.068001	0.000239	2.394263	0.405599	0.004789
 600	2.9950e-01	5.9875	5.127868	0.000599	5.985658	1.013998	0.011974
 601	3.0000e-01	5.9998	5.161651	0.000338	3.377621	0.572185	0.006756
 602	3.0050e-01	6.0083	5.191157	0.000295	2.950074	0.499756	0.005901
 603	3.0100e-01	6.0175	5.234347	0.000432	4.318225	0.731527	0.008638
 604	3.0150e-01	6.0260	5.255728	0.000214	2.137735	0.362142	0.004276
 605	3.0200e-01	6.0370	5.311747	0.000560	5.600866	0.948812	0.011204
 606	3.0250e-01	6.0461	5.345530	0.000338	3.377621	0.572185	0.006756
 607	3.0300e-01	6.0587	5.380595	0.000351	3.505885	0.593913	0.007013
 608	3.0350e-01	6.0669	5.407535	0.000269	2.693546	0.456299	0.005388
 609	3.0400e-01	6.0785	5.431482	0.000239	2.394263	0.405599	0.004789
 610	3.0450e-01	6.0852	5.480659	0.000492	4.916790	0.832927	0.009835
 611	3.0500e-01	6.0971	5.513159	0.000325	3.249357	0.550456	0.006500
 612	3.0550e-01	6.1052	5.530264	0.000171	1.710188	0.289714	0.003421
 613	3.0600e-01	6.1182	5.592697	0.000624	6.242186	1.057455	0.012487
 614	3.0650e-01	6.1252	5.621776	0.000291	2.907320	0.492513	0.005816
 615	3.0700e-01	6.1366	5.675656	0.000539	5.387092	0.912598	0.010776
 616	3.0750e-01	6.1462	5.687630	0.000120	1.197132	0.202800	0.002395
 617	3.0800e-01	6.1578	5.728682	0.000410	4.104451	0.695313	0.008210
 618	3.0850e-01	6.1688	5.753912	0.000252	2.522527	0.427328	0.005046
 619	3.0900e-01	6.1761	5.796247	0.000423	4.232715	0.717041	0.008467
 620	3.0950e-01	6.1868	5.834733	0.000385	3.847923	0.651856	0.007697
 621	3.1000e-01	6.2000	5.857397	0.000227	2.265999	0.383871	0.004533
 622	3.1050e-01	6.2042	5.911278	0.000539	5.387092	0.912598	0.010776
 623	3.1100e-01	6.2186	5.931376	0.000201	2.009471	0.340414	0.004020
 624	3.1150e-01	6.2293	5.983547	0.000522	5.216073	0.883627	0.010434
 625	3.1200e-01	6.2390	6.011770	0.000282	2.821810	0.478028	0.005645
 626	3.1250e-01	6.2476	6.048546	0.000368	3.676904	0.622884	0.007355
 627	3.1300e-01	6.2601	6.087460	0.000389	3.890678	0.659099	0.007783
 628	3.1350e-01	6.2680	6.116538	0.000291	2.907320	0.492513	0.005816
 629	3.1400e-01	6.2793	6.137919	0.000214	2.137735	0.362142	0.004276
 630	3.1450e-01	6.2888	6.218313	0.000804	8.037883	1.361654	0.016079
 631	3.1500e-01	6.2982	6.223444	0.000051	0.513056	0.086914	0.001026
 632	3.1550e-01	6.3062	6.247391	0.000239	2.394263	0.405599	0.004789
 633	3.1600e-01	6.3161	6.311535	0.000641	6.413205	1.086426	0.012829
 634	3.1650e-01	6.3275	6.348739	0.000372	3.719659	0.630127	0.007441
 635	3.1700e-01	6.3406	6.366271	0.000175	1.752943	0.296957	0.003507
 636	3.1750e-01	6.3472	6.383804	0.000175	1.752943	0.296957	0.003507
 637	3.1800e-01	6.3586	6.435974	0.000522	5.216073	0.883627	0.010434
 638	3.1850e-01	6.3684	6.481730	0.000457	4.574753	0.774984	0.009151
 639	3.1900e-01	6.3776	6.523637	0.000419	4.189960	0.709799	0.008381
 640	3.1950e-01	6.3870	6.532618	0.000090	0.897849	0.152100	0.001796
 641	3.2000e-01	6.3959	6.572387	0.000398	3.976187	0.673584	0.007954
 642	3.2050e-01	6.4056	6.593768	0.000214	2.137735	0.362142	0.004276
 643	3.2100e-01	6.4166	6.632254	0.000385	3.847923	0.651856	0.007697
 644	3.2150e-01	6.4297	6.681859	0.000496	4.959545	0.840170	0.009921
 645	3.2200e-01	6.4330	6.718207	0.000363	3.634149	0.615642	0.007270
 646	3.2250e-01	6.4459	6.753700	0.000355	3.548640	0.601156	0.007099
 647	3.2300e-01	6.4578	6.793469	0.000398	3.976187	0.673584	0.007954
 648	3.2350e-01	6.4679	6.828962	0.000355	3.548640	0.601156	0.007099
 649	3.2400e-01	6.4752	6.860606	0.000316	3.163848	0.535970	0.006329
 650	3.2450e-01	6.4850	6.885836	0.000252	2.522527	0.427328	0.005046
 651	3.2500e-01	6.4941	6.927316	0.000415	4.147206	0.702556	0.008296
 652	3.2550e-01	6.5045	6.956822	0.000295	2.950074	0.499756	0.005901
 653	3.2600e-01	6.5167	6.973072	0.000162	1.624679	0.275228	0.003250
 654	3.2650e-01	6.5277	7.041919	0.000688	6.883507	1.166098	0.013770
 655	3.2700e-01	6.5344	7.079123	0.000372	3.719659	0.630127	0.007441
 656	3.2750e-01	6.5485	7.115471	0.000363	3.634149	0.615642	0.007270
 657	3.2800e-01	6.5547	7.131721	0.000162	1.624679	0.275228	0.003250
 658	3.2850e-01	6.5640	7.172773	0.000410	4.104451	0.695313	0.008210
 659	3.2900e-01	6.5771	7.215107	0.000423	4.232715	0.717041	0.008467
 660	3.2950e-01	6.5875	7.272409	0.000573	5.729130	0.970541	0.011460
 661	3.3000e-01	6.5945	7.278396	0.000060	0.598566	0.101400	0.001197
 662	3.3050e-01	6.6068	7.306192	0.000278	2.779055	0.470785	0.005559
 663	3.3100e-01	6.6162	7.342540	0.000363	3.634149	0.615642	0.007270
 664	3.3150e-01	6.6296	7.379743	0.000372	3.719659	0.630127	0.007441
 665	3.3200e-01	6.6351	7.437473	0.000577	5.771884	0.977784	0.011546
 666	3.3250e-01	6.6461	7.458854	0.000214	2.137735	0.362142	0.004276
 667	3.3300e-01	6.6568	7.465268	0.000064	0.641320	0.108643	0.001283
 668	3.3350e-01	6.6663	7.523853	0.000586	5.857394	0.992269	0.011717
 669	3.3400e-01	6.6766	7.557635	0.000338	3.377621	0.572185	0.006756
 670	3.3450e-01	6.6858	7.608523	0.000509	5.087809	0.861898	0.010177
 671	3.3500e-01	6.6956	7.635463	0.000269	2.693546	0.456299	0.005388
 672	3.3550e-01	6.7093	7.667963	0.000325	3.249357	0.550456	0.006500
 673	3.3600e-01	6.7177	7.702600	0.000346	3.463131	0.586670	0.006928
 674	3.3650e-01	6.7303	7.741942	0.000393	3.933432	0.666341	0.007868
 675	3.3700e-01	6.7346	7.785987	0.000440	4.403734	0.746013	0.008809
 676	3.3750e-01	6.7468	7.792402	0.000064	0.641320	0.108643	0.001283
 677	3.3800e-01	6.7572	7.803520	0.000111	1.111622	0.188314	0.002224
 678	3.3850e-01	6.7676	7.852269	0.000487	4.874036	0.825684	0.009750
 679	3.3900e-01	6.7776	7.909999	0.000577	5.771884	0.977784	0.011546
 680	3.3950e-01	6.7886	7.938649	0.000286	2.864565	0.485270	0.005730
 681	3.4000e-01	6.7975	7.985688	0.000470	4.703017	0.796713	0.009408
 682	3.4050e-01	6.8091	8.006642	0.000209	2.094980	0.354899	0.004191
 683	3.4100e-01	6.8176	8.060095	0.000534	5.344337	0.905355	0.010691
 684	3.4150e-01	6.8256	8.081049	0.000209	2.094980	0.354899	0.004191
 685	3.4200e-01	6.8375	8.124666	0.000436	4.360979	0.738770	0.008724
 686	3.4250e-01	6.8451	8.172133	0.000475	4.745772	0.803955	0.009493
 687	3.4300e-01	6.8542	8.182396	0.000103	1.026113	0.173828	0.002053
 688	3.4350e-01	6.8677	8.225158	0.000428	4.275470	0.724284	0.008553
 689	3.4400e-01	6.8787	8.246112	0.000209	2.094980	0.354899	0.004191
 690	3.4450e-01	6.8878	8.290585	0.000445	4.446489	0.753256	0.008895
 691	3.4500e-01	6.8979	8.333348	0.000428	4.275470	0.724284	0.008553
 692	3.4550e-01	6.9086	8.371834	0.000385	3.847923	0.651856	0.007697
 693	3.4600e-01	6.9159	8.403906	0.000321	3.206602	0.543213	0.006414
 694	3.4650e-01	6.9269	8.430846	0.000269	2.693546	0.456299	0.005388
 695	3.4700e-01	6.9391	8.445813	0.000150	1.496414	0.253499	0.002993
 696	3.4750e-01	6.9479	8.479595	0.000338	3.377621	0.572185	0.006756
 697	3.4800e-01	6.9580	8.528345	0.000487	4.874036	0.825684	0.009750
 698	3.4850e-01	6.9659	8.562555	0.000342	3.420376	0.579427	0.006842
 699	3.4900e-01	6.9775	8.604890	0.000423	4.232715	0.717041	0.008467
 700	3.4950e-01	6.9861	8.640382	0.000355	3.548640	0.601156	0.007099
 701	3.5000e-01	6.9983	8.669461	0.000291	2.907320	0.492513	0.005816
 702	3.5050e-01	7.0087	8.719921	0.000505	5.045054	0.854655	0.010092
 703	3.5100e-01	7.0148	8.741302	0.000214	2.137735	0.362142	0.004276
 704	3.5150e-01	7.0255	8.772519	0.000312	3.121093	0.528727	0.006243
 705	3.5200e-01	7.0383	8.805018	0.000325	3.249357	0.550456	0.006500
 706	3.5250e-01	7.0465	8.853340	0.000483	4.831281	0.818441	0.009664
 707	3.5300e-01	7.0587	8.875149	0.000218	2.180490	0.369385	0.004362
 708	3.5350e-01	7.0667	8.910214	0.000351	3.505885	0.593913	0.007013
 709	3.5400e-01	7.0770	8.938437	0.000282	2.821810	0.478028	0.005645
 710	3.5450e-01	7.0871	8.989752	0.000513	5.130564	0.869141	0.010263
 711	3.5500e-01	7.0959	9.030377	0.000406	4.061696	0.688070	0.008125
 712	3.5550e-01	7.1082	9.052186	0.000218	2.180490	0.369385	0.004362
 713	3.5600e-01	7.1173	9.078698	0.000265	2.650791	0.449056	0.005303
 714	3.5650e-01	7.1265	9.121033	0.000423	4.232715	0.717041	0.008467
 715	3.5700e-01	7.1353	9.141132	0.000201	2.009471	0.340414	0.004020
 716	3.5750e-01	7.1478	9.213828	0.000727	7.268299	1.231283	0.014539
 717	3.5800e-01	7.1582	9.220242	0.000064	0.641320	0.108643	0.001283
 718	3.5850e-01	7.1667	9.260012	0.000398	3.976187	0.673584	0.007954
 719	3.5900e-01	7.1753	9.302346	0.000423	4.232715	0.717041	0.008467
 720	3.5950e-01	7.1872	9.348958	0.000466	4.660262	0.789470	0.009322
 721	3.6000e-01	7.1976	9.364780	0.000158	1.581924	0.267985	0.003164
 722	3.6050e-01	7.2073	9.401555	0.000368	3.676904	0.622884	0.007355
 723	3.6100e-01	7.2192	9.426358	0.000248	2.479773	0.420085	0.004960
 724	3.6150e-01	7.2260	9.440042	0.000137	1.368150	0.231771	0.002737
 725	3.6200e-01	7.2382	9.511028	0.000710	7.097280	1.202312	0.014197
 726	3.6250e-01	7.2488	9.540106	0.000291	2.907320	0.492513	0.005816
 727	3.6300e-01	7.2592	9.574316	0.000342	3.420376	0.579427	0.006842
 728	3.6350e-01	7.2675	9.613230	0.000389	3.890678	0.659099	0.007783
 729	3.6400e-01	7.2748	9.641453	0.000282	2.821810	0.478028	0.005645
 730	3.6450e-01	7.2870	9.679940	0.000385	3.847923	0.651856	0.007697
 731	3.6500e-01	7.2957	9.740235	0.000603	6.028413	1.021241	0.012059
 732	3.6550e-01	7.3071	9.741518	0.000013	0.128264	0.021729	0.000257
 733	3.6600e-01	7.3141	9.805661	0.000641	6.413205	1.086426	0.012829
 734	3.6650e-01	7.3254	9.823622	0.000180	1.795697	0.304199	0.003592
 735	3.6700e-01	7.3383	9.848424	0.000248	2.479773	0.420085	0.004960
 736	3.6750e-01	7.3480	9.899739	0.000513	5.130564	0.869141	0.010263
 737	3.6800e-01	7.3608	9.917699	0.000180	1.795697	0.304199	0.003592
 738	3.6850e-01	7.3663	9.971580	0.000539	5.387092	0.912598	0.010776
 739	3.6900e-01	7.3767	10.000658	0.000291	2.907320	0.492513	0.005816
 740	3.6950e-01	7.3865	10.052829	0.000522	5.216073	0.883627	0.010434
 741	3.7000e-01	7.3935	10.072500	0.000197	1.966716	0.333171	0.003934
 742	3.7050e-01	7.4048	10.110131	0.000376	3.762413	0.637370	0.007526
 743	3.7100e-01	7.4170	10.115262	0.000051	0.513056	0.086914	0.001026
 744	3.7150e-01	7.4261	10.181972	0.000667	6.669733	1.129883	0.013342
 745	3.7200e-01	7.4353	10.199932	0.000180	1.795697	0.304199	0.003592
 746	3.7250e-01	7.4451	10.251675	0.000517	5.173319	0.876384	0.010349
 747	3.7300e-01	7.4536	10.256806	0.000051	0.513056	0.086914	0.001026
 748	3.7350e-01	7.4677	10.300851	0.000440	4.403734	0.746013	0.008809
 749	3.7400e-01	7.4756	10.350884	0.000500	5.002300	0.847413	0.010006
 750	3.7450e-01	7.4860	10.382955	0.000321	3.206602	0.543213	0.006414
 751	3.7500e-01	7.4957	10.429994	0.000470	4.703017	0.796713	0.009408
 752	3.7550e-01	7.5079	10.458218	0.000282	2.821810	0.478028	0.005645
 753	3.7600e-01	7.5189	10.501408	0.000432	4.318225	0.731527	0.008638
 754	3.7650e-01	7.5269	10.511671	0.000103	1.026113	0.173828	0.002053
 755	3.7700e-01	7.5394	10.556571	0.000449	4.489243	0.760498	0.008980
 756	3.7750e-01	7.5476	10.584795	0.000282	2.821810	0.478028	0.005645
 757	3.7800e-01	7.5562	10.619860	0.000351	3.505885	0.593913	0.007013
 758	3.7850e-01	7.5681	10.635254	0.000154	1.539169	0.260742	0.003079
 759	3.7900e-01	7.5760	10.701536	0.000663	6.626978	1.122641	0.013256
 760	3.7950e-01	7.5873	10.732753	0.000312	3.121093	0.528727	0.006243
 761	3.8000e-01	7.5980	10.773805	0.000410	4.104451	0.695313	0.008210
 762	3.8050e-01	7.6068	10.793903	0.000201	2.009471	0.340414	0.004020
 763	3.8100e-01	7.6184	10.830679	0.000368	3.676904	0.622884	0.007355
 764	3.8150e-01	7.6263	10.854199	0.000235	2.351508	0.398356	0.004704
 765	3.8200e-01	7.6367	10.902948	0.000487	4.874036	0.825684	0.009750
 766	3.8250e-01	7.6459	10.938868	0.000359	3.591395	0.608399	0.007184
 767	3.8300e-01	7.6575	10.969657	0.000308	3.078338	0.521485	0.006158
 768	3.8350e-01	7.6642	11.014986	0.000453	4.531998	0.767741	0.009066
 769	3.8400e-01	7.6770	11.050051	0.000351	3.505885	0.593913	0.007013
 770	3.8450e-01	7.6855	11.073998	0.000239	2.394263	0.405599	0.004789
 771	3.8500e-01	7.6959	11.115050	0.000410	4.104451	0.695313	0.008210
 772	3.8550e-01	7.7057	11.153109	0.000381	3.805168	0.644613	0.007612
 773	3.8600e-01	7.7173	11.194588	0.000415	4.147206	0.702556	0.008296
 774	3.8650e-01	7.7264	11.212549	0.000180	1.795697	0.304199	0.003592
 775	3.8700e-01	7.7368	11.252318	0.000398	3.976187	0.673584	0.007954
 776	3.8750e-01	7.7481	11.290376	0.000381	3.805168	0.644613	0.007612
 777	3.8800e-01	7.7576	11.309192	0.000188	1.881207	0.318685	0.003763
 778	3.8850e-01	7.7655	11.373763	0.000646	6.455960	1.093669	0.012914
 779	3.8900e-01	7.7780	11.398138	0.000244	2.437018	0.412842	0.004875
 780	3.8950e-01	7.7884	11.442183	0.000440	4.403734	0.746013	0.008809
 781	3.9000e-01	7.7954	11.471689	0.000295	2.950074	0.499756	0.005901
 782	3.9050e-01	7.8076	11.505472	0.000338	3.377621	0.572185	0.006756
 783	3.9100e-01	7.8186	11.563629	0.000581	5.814639	0.985027	0.011631
 784	3.9150e-01	7.8247	11.573464	0.000098	0.983358	0.166585	0.001967
 785	3.9200e-01	7.8369	11.592707	0.000192	1.923961	0.325928	0.003849
 786	3.9250e-01	7.8467	11.647871	0.000552	5.515356	0.934327	0.011033
 787	3.9300e-01	7.8540	11.677377	0.000295	2.950074	0.499756	0.005901
 788	3.9350e-01	7.8687	11.716719	0.000393	3.933432	0.666341	0.007868
 789	3.9400e-01	7.8793	11.757771	0.000410	4.104451	0.695313	0.008210
 790	3.9450e-01	7.8845	11.798395	0.000406	4.061696	0.688070	0.008125
 791	3.9500e-01	7.8979	11.806948	0.000086	0.855094	0.144857	0.001711
 792	3.9550e-01	7.9048	11.825336	0.000184	1.838452	0.311442	0.003678
 793	3.9600e-01	7.9163	11.885631	0.000603	6.028413	1.021241	0.012059
 794	3.9650e-01	7.9263	11.911288	0.000257	2.565282	0.434571	0.005132
 795	3.9700e-01	7.9382	11.957899	0.000466	4.660262	0.789470	0.009322
 796	3.9750e-01	7.9471	11.993392	0.000355	3.548640	0.601156	0.007099
 797	3.9800e-01	7.9575	12.036155	0.000428	4.275470	0.724284	0.008553
 798	3.9850e-01	7.9666	12.052832	0.000167	1.667433	0.282471	0.003335
 799	3.9900e-01	7.9767	12.090463	0.000376	3.762413	0.637370	0.007526
 800	3.9950e-01	7.9871	12.149475	0.000590	5.900148	0.999512	0.011802
 801	4.0000e-01	7.9994	12.161449	0.000120	1.197132	0.202800	0.002395
 802	4.0050e-01	8.0054	12.200791	0.000393	3.933432	0.666341	0.007868
 803	4.0100e-01	8.0182	12.243125	0.000423	4.232715	0.717041	0.008467
 804	4.0150e-01	8.0267	12.261941	0.000188	1.881207	0.318685	0.003763
 805	4.0200e-01	8.0383	12.305986	0.000440	4.403734	0.746013	0.008809
 806	4.0250e-01	8.0487	12.333782	0.000278	2.779055	0.470785	0.005559
 807	4.0300e-01	8.0582	12.369703	0.000359	3.591395	0.608399	0.007184
 808	4.0350e-01	8.0676	12.415458	0.000457	4.574753	0.774984	0.009151
 809	4.0400e-01	8.0750	12.454372	0.000389	3.890678	0.659099	0.007783
 810	4.0450e-01	8.0859	12.491148	0.000368	3.676904	0.622884	0.007355
 811	4.0500e-01	8.0963	12.509536	0.000184	1.838452	0.311442	0.003678
 812	4.0550e-01	8.1055	12.553154	0.000436	4.360979	0.738770	0.008724
 813	4.0600e-01	8.1186	12.591640	0.000385	3.847923	0.651856	0.007697
 814	4.0650e-01	8.1250	12.616870	0.000252	2.522527	0.427328	0.005046
 815	4.0700e-01	8.1360	12.647231	0.000304	3.035584	0.514242	0.006072
 816	4.0750e-01	8.1454	12.691704	0.000445	4.446489	0.753256	0.008895
 817	4.0800e-01	8.1580	12.736605	0.000449	4.489243	0.760498	0.008980
 818	4.0850e-01	8.1671	12.766539	0.000299	2.992829	0.506999	0.005987
 819	4.0900e-01	8.1781	12.798611	0.000321	3.206602	0.543213	0.006414
 820	4.0950e-01	8.1879	12.835386	0.000368	3.676904	0.622884	0.007355
 821	4.1000e-01	8.2013	12.893971	0.000586	5.857394	0.992269	0.011717
 822	4.1050e-01	8.2062	12.921767	0.000278	2.779055	0.470785	0.005559
 823	4.1100e-01	8.2196	12.946997	0.000252	2.522527	0.427328	0.005046
 824	4.1150e-01	8.2266	12.965385	0.000184	1.838452	0.311442	0.003678
 825	4.1200e-01	8.2379	13.013279	0.000479	4.788526	0.811198	0.009579
 826	4.1250e-01	8.2483	13.070153	0.000569	5.686375	0.963298	0.011375
 827	4.1300e-01	8.2544	13.097521	0.000274	2.736301	0.463542	0.005474
 828	4.1350e-01	8.2669	13.108639	0.000111	1.111622	0.188314	0.002224
 829	4.1400e-01	8.2751	13.144987	0.000363	3.634149	0.615642	0.007270
 830	4.1450e-01	8.2867	13.200151	0.000552	5.515356	0.934327	0.011033
 831	4.1500e-01	8.2986	13.247190	0.000470	4.703017	0.796713	0.009408
 832	4.1550e-01	8.3087	13.272419	0.000252	2.522527	0.427328	0.005046
 833	4.1600e-01	8.3160	13.301070	0.000286	2.864565	0.485270	0.005730
 834	4.1650e-01	8.3264	13.344688	0.000436	4.360979	0.738770	0.008724
 835	4.1700e-01	8.3363	13.381892	0.000372	3.719659	0.630127	0.007441
 836	4.1750e-01	8.3490	13.402418	0.000205	2.052226	0.347656	0.004105
 837	4.1800e-01	8.3572	13.439621	0.000372	3.719659	0.630127	0.007441
 838	4.1850e-01	8.3676	13.476824	0.000372	3.719659	0.630127	0.007441
 839	4.1900e-01	8.3781	13.540541	0.000637	6.370450	1.079183	0.012743
 840	4.1950e-01	8.3881	13.562349	0.000218	2.180490	0.369385	0.004362
 841	4.2000e-01	8.3942	13.587152	0.000248	2.479773	0.420085	0.004960
 842	4.2050e-01	8.4070	13.610671	0.000235	2.351508	0.398356	0.004704
 843	4.2100e-01	8.4167	13.695341	0.000847	8.465430	1.434083	0.016934
 844	4.2150e-01	8.4265	13.693203	-0.000021	-0.213773	-0.036214	-0.000428
 845	4.2200e-01	8.4387	13.730834	0.000376	3.762413	0.637370	0.007526
 846	4.2250e-01	8.4448	13.771458	0.000406	4.061696	0.688070	0.008125
 847	4.2300e-01	8.4578	13.798826	0.000274	2.736301	0.463542	0.005474
 848	4.2350e-01	8.4662	13.831753	0.000329	3.292112	0.557699	0.006585
 849	4.2400e-01	8.4790	13.874516	0.000428	4.275470	0.724284	0.008553
 850	4.2450e-01	8.4875	13.902739	0.000282	2.821810	0.478028	0.005645
 851	4.2500e-01	8.4949	13.943364	0.000406	4.061696	0.688070	0.008125
 852	4.2550e-01	8.5074	13.987837	0.000445	4.446489	0.753256	0.008895
 853	4.2600e-01	8.5168	14.005797	0.000180	1.795697	0.304199	0.003592
 854	4.2650e-01	8.5254	14.055401	0.000496	4.959545	0.840170	0.009921
 855	4.2700e-01	8.5364	14.085335	0.000299	2.992829	0.506999	0.005987
 856	4.2750e-01	8.5468	14.134512	0.000492	4.916790	0.832927	0.009835
 857	4.2800e-01	8.5556	14.181551	0.000470	4.703017	0.796713	0.009408
 858	4.2850e-01	8.5693	14.198656	0.000171	1.710188	0.289714	0.003421
 859	4.2900e-01	8.5767	14.242701	0.000440	4.403734	0.746013	0.008809
 860	4.2950e-01	8.5883	14.267503	0.000248	2.479773	0.420085	0.004960
 861	4.3000e-01	8.5959	14.329509	0.000620	6.199431	1.050212	0.012401
 862	4.3050e-01	8.6041	14.356022	0.000265	2.650791	0.449056	0.005303
 863	4.3100e-01	8.6163	14.391942	0.000359	3.591395	0.608399	0.007184
 864	4.3150e-01	8.6292	14.421876	0.000299	2.992829	0.506999	0.005987
 865	4.3200e-01	8.6371	14.462928	0.000410	4.104451	0.695313	0.008210
 866	4.3250e-01	8.6469	14.483454	0.000205	2.052226	0.347656	0.004105
 867	4.3300e-01	8.6569	14.536480	0.000530	5.301583	0.898112	0.010605
 868	4.3350e-01	8.6652	14.574538	0.000381	3.805168	0.644613	0.007612
 869	4.3400e-01	8.6761	14.592926	0.000184	1.838452	0.311442	0.003678
 870	4.3450e-01	8.6865	14.642958	0.000500	5.002300	0.847413	0.010006
 871	4.3500e-01	8.6984	14.677596	0.000346	3.463131	0.586670	0.006928
 872	4.3550e-01	8.7067	14.729339	0.000517	5.173319	0.876384	0.010349
 873	4.3600e-01	8.7177	14.768680	0.000393	3.933432	0.666341	0.007868
 874	4.3650e-01	8.7250	14.795621	0.000269	2.693546	0.456299	0.005388
 875	4.3700e-01	8.7372	14.823416	0.000278	2.779055	0.470785	0.005559
 876	4.3750e-01	8.7457	14.851640	0.000282	2.821810	0.478028	0.005645
 877	4.3800e-01	8.7592	14.903382	0.000517	5.173319	0.876384	0.010349
 878	4.3850e-01	8.7665	14.949993	0.000466	4.660262	0.789470	0.009322
 879	4.3900e-01	8.7756	14.994039	0.000440	4.403734	0.746013	0.008809
 880	4.3950e-01	8.7842	15.028676	0.000346	3.463131	0.586670	0.006928
 881	4.4000e-01	8.7976	15.051768	0.000231	2.308754	0.391113	0.004618
 882	4.4050e-01	8.8074	15.091965	0.000402	4.018942	0.680827	0.008039
 883	4.4100e-01	8.8177	15.122326	0.000304	3.035584	0.514242	0.006072
 884	4.4150e-01	8.8306	15.145846	0.000235	2.351508	0.398356	0.004704
 885	4.4200e-01	8.8379	15.191602	0.000457	4.574753	0.774984	0.009151
 886	4.4250e-01	8.8470	15.228377	0.000368	3.676904	0.622884	0.007355
 887	4.4300e-01	8.8580	15.275844	0.000475	4.745772	0.803955	0.009493
 888	4.4350e-01	8.8684	15.312192	0.000363	3.634149	0.615642	0.007270
 889	4.4400e-01	8.8776	15.335711	0.000235	2.351508	0.398356	0.004704
 890	4.4450e-01	8.8861	15.384033	0.000483	4.831281	0.818441	0.009664
 891	4.4500e-01	8.8928	15.422519	0.000385	3.847923	0.651856	0.007697
 892	4.4550e-01	8.9063	15.460578	0.000381	3.805168	0.644613	0.007612
 893	4.4600e-01	8.9148	15.492650	0.000321	3.206602	0.543213	0.006414
 894	4.4650e-01	8.9282	15.523867	0.000312	3.121093	0.528727	0.006243
 895	4.4700e-01	8.9368	15.579458	0.000556	5.558111	0.941569	0.011118
 896	4.4750e-01	8.9471	15.614951	0.000355	3.548640	0.601156	0.007099
 897	4.4800e-01	8.9563	15.664555	0.000496	4.959545	0.840170	0.009921
 898	4.4850e-01	8.9667	15.689358	0.000248	2.479773	0.420085	0.004960
 899	4.4900e-01	8.9755	15.728271	0.000389	3.890678	0.659099	0.007783
 900	4.4950e-01	8.9868	15.770179	0.000419	4.189960	0.709799	0.008381
 901	4.5000e-01	8.9990	15.801395	0.000312	3.121093	0.528727	0.006243
 902	4.5050e-01	9.0063	15.871098	0.000697	6.969016	1.180583	0.013941
 903	4.5100e-01	9.0167	15.884782	0.000137	1.368150	0.231771	0.002737
 904	4.5150e-01	9.0247	15.908302	0.000235	2.351508	0.398356	0.004704
 905	4.5200e-01	9.0366	15.955340	0.000470	4.703017	0.796713	0.009408
 906	4.5250e-01	9.0460	15.973728	0.000184	1.838452	0.311442	0.003678
 907	4.5300e-01	9.0565	16.031458	0.000577	5.771884	0.977784	0.011546
 908	4.5350e-01	9.0674	16.055405	0.000239	2.394263	0.405599	0.004789
 909	4.5400e-01	9.0759	16.105865	0.000505	5.045054	0.854655	0.010092
 910	4.5450e-01	9.0845	16.133660	0.000278	2.779055	0.470785	0.005559
 911	4.5500e-01	9.0979	16.196521	0.000628	6.284941	1.064698	0.012572
 912	4.5550e-01	9.1077	16.213198	0.000167	1.667433	0.282471	0.003335
 913	4.5600e-01	9.1156	16.262803	0.000496	4.959545	0.840170	0.009921
 914	4.5650e-01	9.1284	16.303855	0.000410	4.104451	0.695313	0.008210
 915	4.5700e-01	9.1376	16.325236	0.000214	2.137735	0.362142	0.004276
 916	4.5750e-01	9.1437	16.365861	0.000406	4.061696	0.688070	0.008125
 917	4.5800e-01	9.1541	16.410334	0.000445	4.446489	0.753256	0.008895
 918	4.5850e-01	9.1663	16.431715	0.000214	2.137735	0.362142	0.004276
 919	4.5900e-01	9.1748	16.481747	0.000500	5.002300	0.847413	0.010006
 920	4.5950e-01	9.1840	16.517668	0.000359	3.591395	0.608399	0.007184
 921	4.6000e-01	9.1949	16.550167	0.000325	3.249357	0.550456	0.006500
 922	4.6050e-01	9.2084	16.601055	0.000509	5.087809	0.861898	0.010177
 923	4.6100e-01	9.2163	16.625857	0.000248	2.479773	0.420085	0.004960
 924	4.6150e-01	9.2270	16.686580	0.000607	6.071167	1.028484	0.012145
 925	4.6200e-01	9.2358	16.707533	0.000209	2.094980	0.354899	0.004191
 926	4.6250e-01	9.2487	16.754572	0.000470	4.703017	0.796713	0.009408
 927	4.6300e-01	9.2566	16.789637	0.000351	3.505885	0.593913	0.007013
 928	4.6350e-01	9.2676	16.829834	0.000402	4.018942	0.680827	0.008039
 929	4.6400e-01	9.2767	16.879439	0.000496	4.959545	0.840170	0.009921
 930	4.6450e-01	9.2848	16.911938	0.000325	3.249357	0.550456	0.006500
 931	4.6500e-01	9.2975	16.955556	0.000436	4.360979	0.738770	0.008724
 932	4.6550e-01	9.3054	16.996608	0.000410	4.104451	0.695313	0.008210
 933	4.6600e-01	9.3158	17.030818	0.000342	3.420376	0.579427	0.006842
 934	4.6650e-01	9.3277	17.073581	0.000428	4.275470	0.724284	0.008553
 935	4.6700e-01	9.3353	17.118909	0.000453	4.531998	0.767741	0.009066
 936	4.6750e-01	9.3451	17.154402	0.000355	3.548640	0.601156	0.007099
 937	4.6800e-01	9.3561	17.196309	0.000419	4.189960	0.709799	0.008381
 938	4.6850e-01	9.3652	17.213842	0.000175	1.752943	0.296957	0.003507
 939	4.6900e-01	9.3753	17.275847	0.000620	6.199431	1.050212	0.012401
 940	4.6950e-01	9.3872	17.298511	0.000227	2.265999	0.383871	0.004533
 941	4.7000e-01	9.3951	17.336570	0.000381	3.805168	0.644613	0.007612
 942	4.7050e-01	9.4025	17.399431	0.000628	6.284941	1.064698	0.012572
 943	4.7100e-01	9.4165	17.425944	0.000265	2.650791	0.449056	0.005303
 944	4.7150e-01	9.4254	17.459299	0.000333	3.334867	0.564942	0.006671
 945	4.7200e-01	9.4366	17.499068	0.000398	3.976187	0.673584	0.007954
 946	4.7250e-01	9.4464	17.552093	0.000530	5.301583	0.898112	0.010605
 947	4.7300e-01	9.4568	17.587586	0.000355	3.548640	0.601156	0.007099
 948	4.7350e-01	9.4672	17.601270	0.000137	1.368150	0.231771	0.002737
 949	4.7400e-01	9.4775	17.680808	0.000795	7.952374	1.347169	0.015908
 950	4.7450e-01	9.4868	17.715874	0.000351	3.505885	0.593913	0.007013
 951	4.7500e-01	9.4946	17.741104	0.000252	2.522527	0.427328	0.005046
 952	4.7550e-01	9.5050	17.794129	0.000530	5.301583	0.898112	0.010605
 953	4.7600e-01	9.5172	17.806958	0.000128	1.282641	0.217285	0.002566
 954	4.7650e-01	9.5270	17.856135	0.000492	4.916790	0.832927	0.009835
 955	4.7700e-01	9.5374	17.910871	0.000547	5.472601	0.927084	0.010947
 956	4.7750e-01	9.5459	17.949785	0.000389	3.890678	0.659099	0.007783
 957	4.7800e-01	9.5563	18.001955	0.000522	5.216073	0.883627	0.010434
 958	4.7850e-01	9.5667	18.028468	0.000265	2.650791	0.449056	0.005303
 959	4.7900e-01	9.5752	18.080638	0.000522	5.216073	0.883627	0.010434
 960	4.7950e-01	9.5844	18.122545	0.000419	4.189960	0.709799	0.008381
 961	4.8000e-01	9.5984	18.154190	0.000316	3.163848	0.535970	0.006329
 962	4.8050e-01	9.6075	18.190538	0.000363	3.634149	0.615642	0.007270
 963	4.8100e-01	9.6143	18.213202	0.000227	2.265999	0.383871	0.004533
 964	4.8150e-01	9.6240	18.272642	0.000594	5.942903	1.006755	0.011888
 965	4.8200e-01	9.6362	18.320108	0.000475	4.745772	0.803955	0.009493
 966	4.8250e-01	9.6472	18.355601	0.000355	3.548640	0.601156	0.007099
 967	4.8300e-01	9.6600	18.412475	0.000569	5.686375	0.963298	0.011375
 968	4.8350e-01	9.6704	18.458659	0.000462	4.617507	0.782227	0.009237
 969	4.8400e-01	9.6765	18.477474	0.000188	1.881207	0.318685	0.003763
 970	4.8450e-01	9.6857	18.506553	0.000291	2.907320	0.492513	0.005816
 971	4.8500e-01	9.6942	18.568558	0.000620	6.199431	1.050212	0.012401
 972	4.8550e-01	9.7052	18.608328	0.000398	3.976187	0.673584	0.007954
 973	4.8600e-01	9.7147	18.649807	0.000415	4.147206	0.702556	0.008296
 974	4.8650e-01	9.7247	18.691287	0.000415	4.147206	0.702556	0.008296
 975	4.8700e-01	9.7345	18.737470	0.000462	4.617507	0.782227	0.009237
 976	4.8750e-01	9.7479	18.775957	0.000385	3.847923	0.651856	0.007697
 977	4.8800e-01	9.7589	18.825134	0.000492	4.916790	0.832927	0.009835
 978	4.8850e-01	9.7662	18.864903	0.000398	3.976187	0.673584	0.007954
 979	4.8900e-01	9.7754	18.900396	0.000355	3.548640	0.601156	0.007099
 980	4.8950e-01	9.7864	18.951283	0.000509	5.087809	0.861898	0.010177
 981	4.9000e-01	9.7961	18.984210	0.000329	3.292112	0.557699	0.006585
 982	4.9050e-01	9.8047	19.014144	0.000299	2.992829	0.506999	0.005987
 983	4.9100e-01	9.8157	19.077005	0.000628	6.284941	1.064698	0.012572
 984	4.9150e-01	9.8267	19.092827	0.000158	1.581924	0.267985	0.003164
 985	4.9200e-01	9.8334	19.128748	0.000359	3.591395	0.608399	0.007184
 986	4.9250e-01	9.8468	19.189898	0.000611	6.113922	1.035726	0.012230
 987	4.9300e-01	9.8541	19.248483	0.000586	5.857394	0.992269	0.011717
 988	4.9350e-01	9.8657	19.283976	0.000355	3.548640	0.601156	0.007099
 989	4.9400e-01	9.8749	19.330159	0.000462	4.617507	0.782227	0.009237
 990	4.9450e-01	9.8865	19.375915	0.000457	4.574753	0.774984	0.009151
 991	4.9500e-01	9.8975	19.407559	0.000316	3.163848	0.535970	0.006329
 992	4.9550e-01	9.9048	19.468282	0.000607	6.071167	1.028484	0.012145
 993	4.9600e-01	9.9176	19.504630	0.000363	3.634149	0.615642	0.007270
 994	4.9650e-01	9.9249	19.541834	0.000372	3.719659	0.630127	0.007441
 995	4.9700e-01	9.9353	19.582458	0.000406	4.061696	0.688070	0.008125
 996	4.9750e-01	9.9481	19.640615	0.000581	5.814639	0.985027	0.011631
 997	4.9800e-01	9.9564	19.651733	0.000111	1.111622	0.188314	0.002224
 998	4.9850e-01	9.9654	19.728706	0.000770	7.695846	1.303712	0.015395
 999	4.9900e-01	9.9750	19.760778	0.000321	3.206602	0.543213	0.006414
1000	4.9950e-01	9.9835	19.810810	0.000500	5.002300	0.847413	0.010006
1001	5.0000e-01	9.9969	19.851862	0.000410	4.104451	0.695313	0.008210
1002	5.0050e-01	9.9854	19.800119	0.000517	5.173319	0.876384	-0.010349
1003	5.0100e-01	9.9747	19.810810	-0.000107	-1.068867	-0.181071	0.002138
1004	5.0150e-01	9.9622	19.823639	-0.000128	-1.282641	-0.217285	0.002566
1005	5.0200e-01	9.9561	19.797554	0.000261	2.608037	0.441813	-0.005217
1006	5.0250e-01	9.9426	19.797126	0.000004	0.042755	0.007243	-0.000086
1007	5.0300e-01	9.9353	19.781304	0.000158	1.581924	0.267985	-0.003164
1008	5.0350e-01	9.9274	19.786863	-0.000056	-0.555811	-0.094157	0.001112
1009	5.0400e-01	9.9139	19.788573	-0.000017	-0.171019	-0.028971	0.000342
1010	5.0450e-01	9.9048	19.788573	-0.000000	-0.000000	-0.000000	0.000000
1011	5.0500e-01	9.8950	19.767192	0.000214	2.137735	0.362142	-0.004276
1012	5.0550e-01	9.8828	19.760778	0.000064	0.641320	0.108643	-0.001283
1013	5.0600e-01	9.8761	19.765909	-0.000051	-0.513056	-0.086914	0.001026
1014	5.0650e-01	9.8642	19.741962	0.000239	2.394263	0.405599	-0.004789
1015	5.0700e-01	9.8529	19.739824	0.000021	0.213773	0.036214	-0.000428
1016	5.0750e-01	9.8462	19.736403	0.000034	0.342038	0.057943	-0.000684
1017	5.0800e-01	9.8370	19.716305	0.000201	2.009471	0.340414	-0.004020
1018	5.0850e-01	9.8206	19.713739	0.000026	0.256528	0.043457	-0.000513
1019	5.0900e-01	9.8148	19.672259	0.000415	4.147206	0.702556	-0.008296
1020	5.0950e-01	9.8035	19.691930	-0.000197	-1.966716	-0.333171	0.003934
1021	5.1000e-01	9.7968	19.685943	0.000060	0.598566	0.101400	-0.001197
1022	5.1050e-01	9.7852	19.664134	0.000218	2.180490	0.369385	-0.004362
1023	5.1100e-01	9.7760	19.647885	0.000162	1.624679	0.275228	-0.003250
1024	5.1150e-01	9.7638	19.650450	-0.000026	-0.256528	-0.043457	0.000513
1025	5.1200e-01	9.7546	19.653871	-0.000034	-0.342038	-0.057943	0.000684
1026	5.1250e-01	9.7461	19.610681	0.000432	4.318225	0.731527	-0.008638
1027	5.1300e-01	9.7375	19.621372	-0.000107	-1.068867	-0.181071	0.002138
1028	5.1350e-01	9.7247	19.604267	0.000171	1.710188	0.289714	-0.003421
1029	5.1400e-01	9.7162	19.599991	0.000043	0.427547	0.072428	-0.000855
1030	5.1450e-01	9.7052	19.591438	0.000086	0.855094	0.144857	-0.001711
1031	5.1500e-01	9.6933	19.566208	0.000252	2.522527	0.427328	-0.005046
1032	5.1550e-01	9.6857	19.556800	0.000094	0.940603	0.159343	-0.001882
1033	5.1600e-01	9.6765	19.537557	0.000192	1.923961	0.325928	-0.003849
1034	5.1650e-01	9.6649	19.507196	0.000304	3.035584	0.514242	-0.006072
1035	5.1700e-01	9.6564	19.507624	-0.000004	-0.042755	-0.007243	0.000086
1036	5.1750e-01	9.6454	19.511900	-0.000043	-0.427547	-0.072428	0.000855
1037	5.1800e-01	9.6350	19.511472	0.000004	0.042755	0.007243	-0.000086
1038	5.1850e-01	9.6252	19.472558	0.000389	3.890678	0.659099	-0.007783
1039	5.1900e-01	9.6143	19.489663	-0.000171	-1.710188	-0.289714	0.003421
1040	5.1950e-01	9.6039	19.466999	0.000227	2.265999	0.383871	-0.004533
1041	5.2000e-01	9.5947	19.426802	0.000402	4.018942	0.680827	-0.008039
1042	5.2050e-01	9.5856	19.438348	-0.000115	-1.154377	-0.195557	0.002309
1043	5.2100e-01	9.5749	19.416967	0.000214	2.137735	0.362142	-0.004276
1044	5.2150e-01	9.5650	19.410125	0.000068	0.684075	0.115885	-0.001368
1045	5.2200e-01	9.5526	19.387033	0.000231	2.308754	0.391113	-0.004618
1046	5.2250e-01	9.5453	19.353678	0.000333	3.334867	0.564942	-0.006671
1047	5.2300e-01	9.5361	19.355389	-0.000017	-0.171019	-0.028971	0.000342
1048	5.2350e-01	9.5276	19.338284	0.000171	1.710188	0.289714	-0.003421
1049	5.2400e-01	9.5148	19.301508	0.000368	3.676904	0.622884	-0.007355
1050	5.2450e-01	9.5062	19.311344	-0.000098	-0.983358	-0.166585	0.001967
1051	5.2500e-01	9.4958	19.287824	0.000235	2.351508	0.398356	-0.004704
1052	5.2550e-01	9.4855	19.283548	0.000043	0.427547	0.072428	-0.000855
1053	5.2600e-01	9.4751	19.281837	0.000017	0.171019	0.028971	-0.000342
1054	5.2650e-01	9.4662	19.245489	0.000363	3.634149	0.615642	-0.007270
1055	5.2700e-01	9.4531	19.242924	0.000026	0.256528	0.043457	-0.000513
1056	5.2750e-01	9.4446	19.221542	0.000214	2.137735	0.362142	-0.004276
1057	5.2800e-01	9.4370	19.203582	0.000180	1.795697	0.304199	-0.003592
1058	5.2850e-01	9.4250	19.179207	0.000244	2.437018	0.412842	-0.004875
1059	5.2900e-01	9.4165	19.158254	0.000209	2.094980	0.354899	-0.004191
1060	5.2950e-01	9.4061	19.151839	0.000064	0.641320	0.108643	-0.001283
1061	5.3000e-01	9.3964	19.148846	0.000030	0.299283	0.050700	-0.000599
1062	5.3050e-01	9.3890	19.123616	0.000252	2.522527	0.427328	-0.005046
1063	5.3100e-01	9.3756	19.103518	0.000201	2.009471	0.340414	-0.004020
1064	5.3150e-01	9.3658	19.098386	0.000051	0.513056	0.086914	-0.001026
1065	5.3200e-01	9.3567	19.068880	0.000295	2.950074	0.499756	-0.005901
1066	5.3250e-01	9.3457	19.056051	0.000128	1.282641	0.217285	-0.002566
1067	5.3300e-01	9.3372	19.051775	0.000043	0.427547	0.072428	-0.000855
1068	5.3350e-01	9.3256	19.019703	0.000321	3.206602	0.543213	-0.006414
1069	5.3400e-01	9.3176	18.996611	0.000231	2.308754	0.391113	-0.004618
1070	5.3450e-01	9.3042	18.973092	0.000235	2.351508	0.398356	-0.004704
1071	5.3500e-01	9.2981	18.971381	0.000017	0.171019	0.028971	-0.000342
1072	5.3550e-01	9.2853	18.937171	0.000342	3.420376	0.579427	-0.006842
1073	5.3600e-01	9.2804	18.922205	0.000150	1.496414	0.253499	-0.002993
1074	5.3650e-01	9.2645	18.908093	0.000141	1.410905	0.239014	-0.002822
1075	5.3700e-01	9.2542	18.911086	-0.000030	-0.299283	-0.050700	0.000599
1076	5.3750e-01	9.2456	18.870890	0.000402	4.018942	0.680827	-0.008039
1077	5.3800e-01	9.2358	18.855067	0.000158	1.581924	0.267985	-0.003164
1078	5.3850e-01	9.2255	18.820857	0.000342	3.420376	0.579427	-0.006842
1079	5.3900e-01	9.2157	18.809312	0.000115	1.154377	0.195557	-0.002309
1080	5.3950e-01	9.2053	18.811877	-0.000026	-0.256528	-0.043457	0.000513
1081	5.4000e-01	9.1956	18.769970	0.000419	4.189960	0.709799	-0.008381
1082	5.4050e-01	9.1876	18.749016	0.000209	2.094980	0.354899	-0.004191
1083	5.4100e-01	9.1760	18.746023	0.000030	0.299283	0.050700	-0.000599
1084	5.4150e-01	9.1676	18.722931	0.000231	2.308754	0.391113	-0.004618
1085	5.4200e-01	9.1571	18.675037	0.000479	4.788526	0.811198	-0.009579
1086	5.4250e-01	9.1473	18.684445	-0.000094	-0.940603	-0.159343	0.001882
1087	5.4300e-01	9.1382	18.678458	0.000060	0.598566	0.101400	-0.001197
1088	5.4350e-01	9.1229	18.650663	0.000278	2.779055	0.470785	-0.005559
1089	5.4400e-01	9.1125	18.621156	0.000295	2.950074	0.499756	-0.005901
1090	5.4450e-01	9.1046	18.601058	0.000201	2.009471	0.340414	-0.004020
1091	5.4500e-01	9.0973	18.590367	0.000107	1.068867	0.181071	-0.002138
1092	5.4550e-01	9.0857	18.565565	0.000248	2.479773	0.420085	-0.004960
1093	5.4600e-01	9.0771	18.543756	0.000218	2.180490	0.369385	-0.004362
1094	5.4650e-01	9.0668	18.521520	0.000222	2.223244	0.376628	-0.004447
1095	5.4700e-01	9.0533	18.479612	0.000419	4.189960	0.709799	-0.008381
1096	5.4750e-01	9.0469	18.493296	-0.000137	-1.368150	-0.231771	0.002737
1097	5.4800e-01	9.0363	18.471488	0.000218	2.180490	0.369385	-0.004362
1098	5.4850e-01	9.0259	18.464646	0.000068	0.684075	0.115885	-0.001368
1099	5.4900e-01	9.0152	18.442409	0.000222	2.223244	0.376628	-0.004447
1100	5.4950e-01	9.0063	18.417179	0.000252	2.522527	0.427328	-0.005046
1101	5.5000e-01	8.9984	18.391522	0.000257	2.565282	0.434571	-0.005132
1102	5.5050e-01	8.9880	18.373561	0.000180	1.795697	0.304199	-0.003592
1103	5.5100e-01	8.9722	18.376982	-0.000034	-0.342038	-0.057943	0.000684
1104	5.5150e-01	8.9655	18.317970	0.000590	5.900148	0.999512	-0.011802
1105	5.5200e-01	8.9563	18.305569	0.000124	1.239886	0.210042	-0.002480
1106	5.5250e-01	8.9453	18.308562	-0.000030	-0.299283	-0.050700	0.000599
1107	5.5300e-01	8.9343	18.275635	0.000329	3.292112	0.557699	-0.006585
1108	5.5350e-01	8.9264	18.249978	0.000257	2.565282	0.434571	-0.005132
1109	5.5400e-01	8.9160	18.220899	0.000291	2.907320	0.492513	-0.005816
1110	5.5450e-01	8.9056	18.207215	0.000137	1.368150	0.231771	-0.002737
1111	5.5500e-01	8.8965	18.179847	0.000274	2.736301	0.463542	-0.005474
1112	5.5550e-01	8.8882	18.158893	0.000209	2.094980	0.354899	-0.004191
1113	5.5600e-01	8.8763	18.128104	0.000308	3.078338	0.521485	-0.006158
1114	5.5650e-01	8.8669	18.105013	0.000231	2.308754	0.391113	-0.004618
1115	5.5700e-01	8.8541	18.085342	0.000197	1.966716	0.333171	-0.003934
1116	5.5750e-01	8.8470	18.070375	0.000150	1.496414	0.253499	-0.002993
1117	5.5800e-01	8.8379	18.066099	0.000043	0.427547	0.072428	-0.000855
1118	5.5850e-01	8.8281	18.037876	0.000282	2.821810	0.478028	-0.005645
1119	5.5900e-01	8.8171	18.033172	0.000047	0.470302	0.079671	-0.000941
1120	5.5950e-01	8.8049	17.973732	0.000594	5.942903	1.006755	-0.011888
1121	5.6000e-01	8.7946	17.978008	-0.000043	-0.427547	-0.072428	0.000855
1122	5.6050e-01	8.7872	17.965607	0.000124	1.239886	0.210042	-0.002480
1123	5.6100e-01	8.7775	17.934390	0.000312	3.121093	0.528727	-0.006243
1124	5.6150e-01	8.7656	17.914292	0.000201	2.009471	0.340414	-0.004020
1125	5.6200e-01	8.7585	17.889490	0.000248	2.479773	0.420085	-0.004960
1126	5.6250e-01	8.7463	17.851431	0.000381	3.805168	0.644613	-0.007612
1127	5.6300e-01	8.7360	17.843306	0.000081	0.812339	0.137614	-0.001625
1128	5.6350e-01	8.7274	17.809951	0.000333	3.334867	0.564942	-0.006671
1129	5.6400e-01	8.7170	17.788142	0.000218	2.180490	0.369385	-0.004362
1130	5.6450e-01	8.7067	17.779590	0.000086	0.855094	0.144857	-0.001711
1131	5.6500e-01	8.6945	17.765478	0.000141	1.410905	0.239014	-0.002822
1132	5.6550e-01	8.6853	17.717157	0.000483	4.831281	0.818441	-0.009664
1133	5.6600e-01	8.6768	17.711597	0.000056	0.555811	0.094157	-0.001112
1134	5.6650e-01	8.6633	17.689361	0.000222	2.223244	0.376628	-0.004447
1135	5.6700e-01	8.6578	17.670118	0.000192	1.923961	0.325928	-0.003849
1136	5.6750e-01	8.6475	17.643605	0.000265	2.650791	0.449056	-0.005303
1137	5.6800e-01	8.6359	17.617948	0.000257	2.565282	0.434571	-0.005132
1138	5.6850e-01	8.6261	17.591007	0.000269	2.693546	0.456299	-0.005388
1139	5.6900e-01	8.6139	17.588869	0.000021	0.213773	0.036214	-0.000428
1140	5.6950e-01	8.6041	17.553804	0.000351	3.505885	0.593913	-0.007013
1141	5.7000e-01	8.5959	17.542258	0.000115	1.154377	0.195557	-0.002309
1142	5.7050e-01	8.5873	17.519166	0.000231	2.308754	0.391113	-0.004618
1143	5.7100e-01	8.5767	17.480680	0.000385	3.847923	0.651856	-0.007697
1144	5.7150e-01	8.5675	17.455878	0.000248	2.479773	0.420085	-0.004960
1145	5.7200e-01	8.5577	17.440055	0.000158	1.581924	0.267985	-0.003164
1146	5.7250e-01	8.5461	17.443049	-0.000030	-0.299283	-0.050700	0.000599
1147	5.7300e-01	8.5373	17.406273	0.000368	3.676904	0.622884	-0.007355
1148	5.7350e-01	8.5242	17.373773	0.000325	3.249357	0.550456	-0.006500
1149	5.7400e-01	8.5181	17.347688	0.000261	2.608037	0.441813	-0.005217
1150	5.7450e-01	8.5062	17.333577	0.000141	1.410905	0.239014	-0.002822
1151	5.7500e-01	8.4967	17.300650	0.000329	3.292112	0.557699	-0.006585
1152	5.7550e-01	8.4869	17.259598	0.000410	4.104451	0.695313	-0.008210
1153	5.7600e-01	8.4735	17.243348	0.000162	1.624679	0.275228	-0.003250
1154	5.7650e-01	8.4651	17.235651	0.000077	0.769585	0.130371	-0.001539
1155	5.7700e-01	8.4589	17.212559	0.000231	2.308754	0.391113	-0.004618
1156	5.7750e-01	8.4467	17.192888	0.000197	1.966716	0.333171	-0.003934
1157	5.7800e-01	8.4363	17.148415	0.000445	4.446489	0.753256	-0.008895
1158	5.7850e-01	8.4253	17.134303	0.000141	1.410905	0.239014	-0.002822
1159	5.7900e-01	8.4183	17.119336	0.000150	1.496414	0.253499	-0.002993
1160	5.7950e-01	8.4070	17.088120	0.000312	3.121093	0.528727	-0.006243
1161	5.8000e-01	8.3948	17.062035	0.000261	2.608037	0.441813	-0.005217
1162	5.8050e-01	8.3884	17.050489	0.000115	1.154377	0.195557	-0.002309
1163	5.8100e-01	8.3765	17.010720	0.000398	3.976187	0.673584	-0.007954
1164	5.8150e-01	8.3661	17.040226	-0.000295	-2.950074	-0.499756	0.005901
1165	5.8200e-01	8.3539	16.970950	0.000693	6.926261	1.173340	-0.013855
1166	5.8250e-01	8.3435	16.965819	0.000051	0.513056	0.086914	-0.001026
1167	5.8300e-01	8.3356	16.932037	0.000338	3.377621	0.572185	-0.006756
1168	5.8350e-01	8.3234	16.917925	0.000141	1.410905	0.239014	-0.002822
1169	5.8400e-01	8.3162	16.853781	0.000641	6.413205	1.086426	-0.012829
1170	5.8450e-01	8.3075	16.847794	0.000060	0.598566	0.101400	-0.001197
1171	5.8500e-01	8.2947	16.844801	0.000030	0.299283	0.050700	-0.000599
1172	5.8550e-01	8.2849	16.817005	0.000278	2.779055	0.470785	-0.005559
1173	5.8600e-01	8.2745	16.781512	0.000355	3.548640	0.601156	-0.007099
1174	5.8650e-01	8.2663	16.755855	0.000257	2.565282	0.434571	-0.005132
1175	5.8700e-01	8.2538	16.733618	0.000222	2.223244	0.376628	-0.004447
1176	5.8750e-01	8.2446	16.699408	0.000342	3.420376	0.579427	-0.006842
1177	5.8800e-01	8.2346	16.681021	0.000184	1.838452	0.311442	-0.003678
1178	5.8850e-01	8.2269	16.654935	0.000261	2.608037	0.441813	-0.005217
1179	5.8900e-01	8.2159	16.645955	0.000090	0.897849	0.152100	-0.001796
1180	5.8950e-01	8.2083	16.618587	0.000274	2.736301	0.463542	-0.005474
1181	5.9000e-01	8.1952	16.586515	0.000321	3.206602	0.543213	-0.006414
1182	5.9050e-01	8.1854	16.579246	0.000073	0.726830	0.123128	-0.001454
1183	5.9100e-01	8.1744	16.554016	0.000252	2.522527	0.427328	-0.005046
1184	5.9150e-01	8.1650	16.519806	0.000342	3.420376	0.579427	-0.006842
1185	5.9200e-01	8.1561	16.509970	0.000098	0.983358	0.166585	-0.001967
1186	5.9250e-01	8.1458	16.483885	0.000261	2.608037	0.441813	-0.005217
1187	5.9300e-01	8.1342	16.441550	0.000423	4.232715	0.717041	-0.008467
1188	5.9350e-01	8.1262	16.423590	0.000180	1.795697	0.304199	-0.003592
1189	5.9400e-01	8.1161	16.412044	0.000115	1.154377	0.195557	-0.002309
1190	5.9450e-01	8.1067	16.370565	0.000415	4.147206	0.702556	-0.008296
1191	5.9500e-01	8.0963	16.342769	0.000278	2.779055	0.470785	-0.005559
1192	5.9550e-01	8.0841	16.320532	0.000222	2.223244	0.376628	-0.004447
1193	5.9600e-01	8.0731	16.321815	-0.000013	-0.128264	-0.021729	0.000257
1194	5.9650e-01	8.0676	16.263231	0.000586	5.857394	0.992269	-0.011717
1195	5.9700e-01	8.0560	16.259382	0.000038	0.384792	0.065186	-0.000770
1196	5.9750e-01	8.0469	16.238001	0.000214	2.137735	0.362142	-0.004276
1197	5.9800e-01	8.0359	16.193955	0.000440	4.403734	0.746013	-0.008809
1198	5.9850e-01	8.0261	16.175140	0.000188	1.881207	0.318685	-0.003763
1199	5.9900e-01	8.0145	16.146061	0.000291	2.907320	0.492513	-0.005816
1200	5.9950e-01	8.0066	16.116555	0.000295	2.950074	0.499756	-0.005901
1201	6.0000e-01	7.9959	16.108430	0.000081	0.812339	0.137614	-0.001625
1202	6.0050e-01	7.9846	16.070372	0.000381	3.805168	0.644613	-0.007612
1203	6.0100e-01	7.9767	16.055832	0.000145	1.453660	0.246257	-0.002908
1204	6.0150e-01	7.9645	16.012215	0.000436	4.360979	0.738770	-0.008724
1205	6.0200e-01	7.9578	16.013497	-0.000013	-0.128264	-0.021729	0.000257
1206	6.0250e-01	7.9480	15.954913	0.000586	5.857394	0.992269	-0.011717
1207	6.0300e-01	7.9349	15.950209	0.000047	0.470302	0.079671	-0.000941
1208	6.0350e-01	7.9254	15.920703	0.000295	2.950074	0.499756	-0.005901
1209	6.0400e-01	7.9169	15.886065	0.000346	3.463131	0.586670	-0.006928
1210	6.0450e-01	7.9065	15.888203	-0.000021	-0.213773	-0.036214	0.000428
1211	6.0500e-01	7.8967	15.859125	0.000291	2.907320	0.492513	-0.005816
1212	6.0550e-01	7.8839	15.838599	0.000205	2.052226	0.347656	-0.004105
1213	6.0600e-01	7.8754	15.807810	0.000308	3.078338	0.521485	-0.006158
1214	6.0650e-01	7.8668	15.771462	0.000363	3.634149	0.615642	-0.007270
1215	6.0700e-01	7.8571	15.739817	0.000316	3.163848	0.535970	-0.006329
1216	6.0750e-01	7.8442	15.712022	0.000278	2.779055	0.470785	-0.005559
1217	6.0800e-01	7.8339	15.700903	0.000111	1.111622	0.188314	-0.002224
1218	6.0850e-01	7.8241	15.656430	0.000445	4.446489	0.753256	-0.008895
1219	6.0900e-01	7.8128	15.641036	0.000154	1.539169	0.260742	-0.003079
1220	6.0950e-01	7.8052	15.626924	0.000141	1.410905	0.239014	-0.002822
1221	6.1000e-01	7.7966	15.597418	0.000295	2.950074	0.499756	-0.005901
1222	6.1050e-01	7.7856	15.569195	0.000282	2.821810	0.478028	-0.005645
1223	6.1100e-01	7.7740	15.538406	0.000308	3.078338	0.521485	-0.006158
1224	6.1150e-01	7.7661	15.518307	0.000201	2.009471	0.340414	-0.004020
1225	6.1200e-01	7.7544	15.482387	0.000359	3.591395	0.608399	-0.007184
1226	6.1250e-01	7.7460	15.476828	0.000056	0.555811	0.094157	-0.001112
1227	6.1300e-01	7.7356	15.432355	0.000445	4.446489	0.753256	-0.008895
1228	6.1350e-01	7.7246	15.404131	0.000282	2.821810	0.478028	-0.005645
1229	6.1400e-01	7.7136	15.391730	0.000124	1.239886	0.210042	-0.002480
1230	6.1450e-01	7.7057	15.372915	0.000188	1.881207	0.318685	-0.003763
1231	6.1500e-01	7.6953	15.332718	0.000402	4.018942	0.680827	-0.008039
1232	6.1550e-01	7.6852	15.310909	0.000218	2.180490	0.369385	-0.004362
1233	6.1600e-01	7.6776	15.295942	0.000150	1.496414	0.253499	-0.002993
1234	6.1650e-01	7.6666	15.250186	0.000457	4.574753	0.774984	-0.009151
1235	6.1700e-01	7.6538	15.241634	0.000086	0.855094	0.144857	-0.001711
1236	6.1750e-01	7.6440	15.189891	0.000517	5.173319	0.876384	-0.010349
1237	6.1800e-01	7.6355	15.189036	0.000009	0.085509	0.014486	-0.000171
1238	6.1850e-01	7.6279	15.131734	0.000573	5.729130	0.970541	-0.011460
1239	6.1900e-01	7.6178	15.124465	0.000073	0.726830	0.123128	-0.001454
1240	6.1950e-01	7.6068	15.091965	0.000325	3.249357	0.550456	-0.006500
1241	6.2000e-01	7.5952	15.057755	0.000342	3.420376	0.579427	-0.006842
1242	6.2050e-01	7.5836	15.038084	0.000197	1.966716	0.333171	-0.003934
1243	6.2100e-01	7.5751	15.004302	0.000338	3.377621	0.572185	-0.006756
1244	6.2150e-01	7.5659	14.990190	0.000141	1.410905	0.239014	-0.002822
1245	6.2200e-01	7.5525	14.976506	0.000137	1.368150	0.231771	-0.002737
1246	6.2250e-01	7.5464	14.929895	0.000466	4.660262	0.789470	-0.009322
1247	6.2300e-01	7.5366	14.911507	0.000184	1.838452	0.311442	-0.003678
1248	6.2350e-01	7.5256	14.879863	0.000316	3.163848	0.535970	-0.006329
1249	6.2400e-01	7.5153	14.852495	0.000274	2.736301	0.463542	-0.005474
1250	6.2450e-01	7.5055	14.820851	0.000316	3.163848	0.535970	-0.006329
1251	6.2500e-01	7.4939	14.787923	0.000329	3.292112	0.557699	-0.006585
1252	6.2550e-01	7.4905	14.785358	0.000026	0.256528	0.043457	-0.000513
1253	6.2600e-01	7.4753	14.750720	0.000346	3.463131	0.586670	-0.006928
1254	6.2650e-01	7.4634	14.716082	0.000346	3.463131	0.586670	-0.006928
1255	6.2700e-01	7.4554	14.702398	0.000137	1.368150	0.231771	-0.002737
1256	6.2750e-01	7.4457	14.670754	0.000316	3.163848	0.535970	-0.006329
1257	6.2800e-01	7.4377	14.630557	0.000402	4.018942	0.680827	-0.008039
1258	6.2850e-01	7.4271	14.612169	0.000184	1.838452	0.311442	-0.003678
1259	6.2900e-01	7.4152	14.594209	0.000180	1.795697	0.304199	-0.003592
1260	6.2950e-01	7.4078	14.574538	0.000197	1.966716	0.333171	-0.003934
1261	6.3000e-01	7.3947	14.521941	0.000526	5.258828	0.890870	-0.010520
1262	6.3050e-01	7.3849	14.506118	0.000158	1.581924	0.267985	-0.003164
1263	6.3100e-01	7.3743	14.494572	0.000115	1.154377	0.195557	-0.002309
1264	6.3150e-01	7.3657	14.463356	0.000312	3.121093	0.528727	-0.006243
1265	6.3200e-01	7.3566	14.442402	0.000209	2.094980	0.354899	-0.004191
1266	6.3250e-01	7.3492	14.392798	0.000496	4.959545	0.840170	-0.009921
1267	6.3300e-01	7.3358	14.372699	0.000201	2.009471	0.340414	-0.004020
1268	6.3350e-01	7.3285	14.355594	0.000171	1.710188	0.289714	-0.003421
1269	6.3400e-01	7.3169	14.335924	0.000197	1.966716	0.333171	-0.003934
1270	6.3450e-01	7.3047	14.287602	0.000483	4.831281	0.818441	-0.009664
1271	6.3500e-01	7.2934	14.261517	0.000261	2.608037	0.441813	-0.005217
1272	6.3550e-01	7.2852	14.249543	0.000120	1.197132	0.202800	-0.002395
1273	6.3600e-01	7.2778	14.192669	0.000569	5.686375	0.963298	-0.011375
1274	6.3650e-01	7.2668	14.181978	0.000107	1.068867	0.181071	-0.002138
1275	6.3700e-01	7.2552	14.162308	0.000197	1.966716	0.333171	-0.003934
1276	6.3750e-01	7.2461	14.121256	0.000410	4.104451	0.695313	-0.008210
1277	6.3800e-01	7.2359	14.105006	0.000162	1.624679	0.275228	-0.003250
1278	6.3850e-01	7.2247	14.066947	0.000381	3.805168	0.644613	-0.007612
1279	6.3900e-01	7.2192	14.029316	0.000376	3.762413	0.637370	-0.007526
1280	6.3950e-01	7.2047	14.022474	0.000068	0.684075	0.115885	-0.001368
1281	6.4000e-01	7.1960	13.986554	0.000359	3.591395	0.608399	-0.007184
1282	6.4050e-01	7.1848	13.957475	0.000291	2.907320	0.492513	-0.005816
1283	6.4100e-01	7.1765	13.920272	0.000372	3.719659	0.630127	-0.007441
1284	6.4150e-01	7.1645	13.921127	-0.000009	-0.085509	-0.014486	0.000171
1285	6.4200e-01	7.1539	13.871522	0.000496	4.959545	0.840170	-0.009921
1286	6.4250e-01	7.1472	13.849286	0.000222	2.223244	0.376628	-0.004447
1287	6.4300e-01	7.1356	13.827905	0.000214	2.137735	0.362142	-0.004276
1288	6.4350e-01	7.1240	13.791129	0.000368	3.676904	0.622884	-0.007355
1289	6.4400e-01	7.1146	13.754353	0.000368	3.676904	0.622884	-0.007355
1290	6.4450e-01	7.1036	13.756919	-0.000026	-0.256528	-0.043457	0.000513
1291	6.4500e-01	7.0972	13.708170	0.000487	4.874036	0.825684	-0.009750
1292	6.4550e-01	7.0844	13.693203	0.000150	1.496414	0.253499	-0.002993
1293	6.4600e-01	7.0749	13.653006	0.000402	4.018942	0.680827	-0.008039
1294	6.4650e-01	7.0667	13.626921	0.000261	2.608037	0.441813	-0.005217
1295	6.4700e-01	7.0557	13.596987	0.000299	2.992829	0.506999	-0.005987
1296	6.4750e-01	7.0447	13.579882	0.000171	1.710188	0.289714	-0.003421
1297	6.4800e-01	7.0349	13.580310	-0.000004	-0.042755	-0.007243	0.000086
1298	6.4850e-01	7.0264	13.531988	0.000483	4.831281	0.818441	-0.009664
1299	6.4900e-01	7.0166	13.508041	0.000239	2.394263	0.405599	-0.004789
1300	6.4950e-01	7.0068	13.446035	0.000620	6.199431	1.050212	-0.012401
1301	6.5000e-01	6.9946	13.432351	0.000137	1.368150	0.231771	-0.002737
1302	6.5050e-01	6.9836	13.393010	0.000393	3.933432	0.666341	-0.007868
1303	6.5100e-01	6.9720	13.375050	0.000180	1.795697	0.304199	-0.003592
1304	6.5150e-01	6.9662	13.365214	0.000098	0.983358	0.166585	-0.001967
1305	6.5200e-01	6.9586	13.313471	0.000517	5.173319	0.876384	-0.010349
1306	6.5250e-01	6.9440	13.302353	0.000111	1.111622	0.188314	-0.002224
1307	6.5300e-01	6.9379	13.230085	0.000723	7.225544	1.224040	-0.014454
1308	6.5350e-01	6.9244	13.213835	0.000162	1.624679	0.275228	-0.003250
1309	6.5400e-01	6.9150	13.203572	0.000103	1.026113	0.173828	-0.002053
1310	6.5450e-01	6.9073	13.163375	0.000402	4.018942	0.680827	-0.008039
1311	6.5500e-01	6.8976	13.139000	0.000244	2.437018	0.412842	-0.004875
1312	6.5550e-01	6.8851	13.112488	0.000265	2.650791	0.449056	-0.005303
1313	6.5600e-01	6.8759	13.080416	0.000321	3.206602	0.543213	-0.006414
1314	6.5650e-01	6.8640	13.043640	0.000368	3.676904	0.622884	-0.007355
1315	6.5700e-01	6.8564	13.032522	0.000111	1.111622	0.188314	-0.002224
1316	6.5750e-01	6.8457	12.997884	0.000346	3.463131	0.586670	-0.006928
1317	6.5800e-01	6.8372	12.973082	0.000248	2.479773	0.420085	-0.004960
1318	6.5850e-01	6.8256	12.941865	0.000312	3.121093	0.528727	-0.006243
1319	6.5900e-01	6.8152	12.918346	0.000235	2.351508	0.398356	-0.004704
1320	6.5950e-01	6.8060	12.894826	0.000235	2.351508	0.398356	-0.004704
1321	6.6000e-01	6.7963	12.875583	0.000192	1.923961	0.325928	-0.003849
1322	6.6050e-01	6.7834	12.833676	0.000419	4.189960	0.709799	-0.008381
1323	6.6100e-01	6.7755	12.789203	0.000445	4.446489	0.753256	-0.008895
1324	6.6150e-01	6.7633	12.787492	0.000017	0.171019	0.028971	-0.000342
1325	6.6200e-01	6.7560	12.749861	0.000376	3.762413	0.637370	-0.007526
1326	6.6250e-01	6.7426	12.725914	0.000239	2.394263	0.405599	-0.004789
1327	6.6300e-01	6.7348	12.669468	0.000564	5.643620	0.956055	-0.011289
1328	6.6350e-01	6.7261	12.676737	-0.000073	-0.726830	-0.123128	0.001454
1329	6.6400e-01	6.7197	12.625422	0.000513	5.130564	0.869141	-0.010263
1330	6.6450e-01	6.7047	12.576673	0.000487	4.874036	0.825684	-0.009750
1331	6.6500e-01	6.6953	12.557430	0.000192	1.923961	0.325928	-0.003849
1332	6.6550e-01	6.6864	12.531345	0.000261	2.608037	0.441813	-0.005217
1333	6.6600e-01	6.6748	12.506115	0.000252	2.522527	0.427328	-0.005046
1334	6.6650e-01	6.6650	12.476181	0.000299	2.992829	0.506999	-0.005987
1335	6.6700e-01	6.6571	12.435984	0.000402	4.018942	0.680827	-0.008039
1336	6.6750e-01	6.6492	12.418024	0.000180	1.795697	0.304199	-0.003592
1337	6.6800e-01	6.6376	12.405195	0.000128	1.282641	0.217285	-0.002566
1338	6.6850e-01	6.6226	12.358157	0.000470	4.703017	0.796713	-0.009408
1339	6.6900e-01	6.6141	12.354308	0.000038	0.384792	0.065186	-0.000770
1340	6.6950e-01	6.6052	12.309407	0.000449	4.489243	0.760498	-0.008980
1341	6.7000e-01	6.5948	12.283750	0.000257	2.565282	0.434571	-0.005132
1342	6.7050e-01	6.5851	12.250823	0.000329	3.292112	0.557699	-0.006585
1343	6.7100e-01	6.5759	12.225593	0.000252	2.522527	0.427328	-0.005046
1344	6.7150e-01	6.5656	12.179837	0.000457	4.574753	0.774984	-0.009151
1345	6.7200e-01	6.5576	12.164870	0.000150	1.496414	0.253499	-0.002993
1346	6.7250e-01	6.5466	12.146482	0.000184	1.838452	0.311442	-0.003678
1347	6.7300e-01	6.5353	12.114838	0.000316	3.163848	0.535970	-0.006329
1348	6.7350e-01	6.5283	12.072503	0.000423	4.232715	0.717041	-0.008467
1349	6.7400e-01	6.5143	12.057964	0.000145	1.453660	0.246257	-0.002908
1350	6.7450e-01	6.5051	11.996813	0.000611	6.113922	1.035726	-0.012230
1351	6.7500e-01	6.4957	12.007504	-0.000107	-1.068867	-0.181071	0.002138
1352	6.7550e-01	6.4850	11.961320	0.000462	4.617507	0.782227	-0.009237
1353	6.7600e-01	6.4780	11.906584	0.000547	5.472601	0.927084	-0.010947
1354	6.7650e-01	6.4662	11.886486	0.000201	2.009471	0.340414	-0.004020
1355	6.7700e-01	6.4581	11.857835	0.000286	2.864565	0.485270	-0.005730
1356	6.7750e-01	6.4441	11.838592	0.000192	1.923961	0.325928	-0.003849
1357	6.7800e-01	6.4343	11.803527	0.000351	3.505885	0.593913	-0.007013
1358	6.7850e-01	6.4252	11.771882	0.000316	3.163848	0.535970	-0.006329
1359	6.7900e-01	6.4148	11.720567	0.000513	5.130564	0.869141	-0.010263
1360	6.7950e-01	6.4063	11.712442	0.000081	0.812339	0.137614	-0.001625
1361	6.8000e-01	6.3995	11.700469	0.000120	1.197132	0.202800	-0.002395
1362	6.8050e-01	6.3849	11.663693	0.000368	3.676904	0.622884	-0.007355
1363	6.8100e-01	6.3745	11.626917	0.000368	3.676904	0.622884	-0.007355
1364	6.8150e-01	6.3641	11.588431	0.000385	3.847923	0.651856	-0.007697
1365	6.8200e-01	6.3588	11.550800	0.000376	3.762413	0.637370	-0.007526
1366	6.8250e-01	6.3458	11.533695	0.000171	1.710188	0.289714	-0.003421
1367	6.8300e-01	6.3351	11.521294	0.000124	1.239886	0.210042	-0.002480
1368	6.8350e-01	6.3257	11.474255	0.000470	4.703017	0.796713	-0.009408
1369	6.8400e-01	6.3150	11.442611	0.000316	3.163848	0.535970	-0.006329
1370	6.8450e-01	6.3049	11.434486	0.000081	0.812339	0.137614	-0.001625
1371	6.8500e-01	6.2936	11.400276	0.000342	3.420376	0.579427	-0.006842
1372	6.8550e-01	6.2863	11.363073	0.000372	3.719659	0.630127	-0.007441
1373	6.8600e-01	6.2762	11.331856	0.000312	3.121093	0.528727	-0.006243
1374	6.8650e-01	6.2689	11.286100	0.000457	4.574753	0.774984	-0.009151
1375	6.8700e-01	6.2573	11.260015	0.000261	2.608037	0.441813	-0.005217
1376	6.8750e-01	6.2451	11.229654	0.000304	3.035584	0.514242	-0.006072
1377	6.8800e-01	6.2363	11.205279	0.000244	2.437018	0.412842	-0.004875
1378	6.8850e-01	6.2259	11.172779	0.000325	3.249357	0.550456	-0.006500
1379	6.8900e-01	6.2172	11.145839	0.000269	2.693546	0.456299	-0.005388
1380	6.8950e-01	6.2039	11.128734	0.000171	1.710188	0.289714	-0.003421
1381	6.9000e-01	6.1948	11.095807	0.000329	3.292112	0.557699	-0.006585
1382	6.9050e-01	6.1859	11.039788	0.000560	5.600866	0.948812	-0.011204
1383	6.9100e-01	6.1765	11.035939	0.000038	0.384792	0.065186	-0.000770
1384	6.9150e-01	6.1646	10.997881	0.000381	3.805168	0.644613	-0.007612
1385	6.9200e-01	6.1554	10.974361	0.000235	2.351508	0.398356	-0.004704
1386	6.9250e-01	6.1459	10.932882	0.000415	4.147206	0.702556	-0.008296
1387	6.9300e-01	6.1360	10.889264	0.000436	4.360979	0.738770	-0.008724
1388	6.9350e-01	6.1230	10.882849	0.000064	0.641320	0.108643	-0.001283
1389	6.9400e-01	6.1151	10.831534	0.000513	5.130564	0.869141	-0.010263
1390	6.9450e-01	6.1041	10.831962	-0.000004	-0.042755	-0.007243	0.000086
1391	6.9500e-01	6.0956	10.782357	0.000496	4.959545	0.840170	-0.009921
1392	6.9550e-01	6.0846	10.739167	0.000432	4.318225	0.731527	-0.008638
1393	6.9600e-01	6.0825	10.737029	0.000021	0.213773	0.036214	-0.000428
1394	6.9650e-01	6.0678	10.675024	0.000620	6.199431	1.050212	-0.012401
1395	6.9700e-01	6.0555	10.674168	0.000009	0.085509	0.014486	-0.000171
1396	6.9750e-01	6.0449	10.618149	0.000560	5.600866	0.948812	-0.011204
1397	6.9800e-01	6.0347	10.600189	0.000180	1.795697	0.304199	-0.003592
1398	6.9850e-01	6.0260	10.569400	0.000308	3.078338	0.521485	-0.006158
1399	6.9900e-01	6.0150	10.528776	0.000406	4.061696	0.688070	-0.008125
1400	6.9950e-01	6.0034	10.499697	0.000291	2.907320	0.492513	-0.005816
1401	7.0000e-01	5.9976	10.479599	0.000201	2.009471	0.340414	-0.004020
1402	7.0050e-01	5.9836	10.449665	0.000299	2.992829	0.506999	-0.005987
1403	7.0100e-01	5.9744	10.427856	0.000218	2.180490	0.369385	-0.004362
1404	7.0150e-01	5.9650	10.374403	0.000534	5.344337	0.905355	-0.010691
1405	7.0200e-01	5.9549	10.350884	0.000235	2.351508	0.398356	-0.004704
1406	7.0250e-01	5.9460	10.310687	0.000402	4.018942	0.680827	-0.008039
1407	7.0300e-01	5.9348	10.293154	0.000175	1.752943	0.296957	-0.003507
1408	7.0350e-01	5.9273	10.256806	0.000363	3.634149	0.615642	-0.007270
1409	7.0400e-01	5.9174	10.220886	0.000359	3.591395	0.608399	-0.007184
1410	7.0450e-01	5.9073	10.197794	0.000231	2.308754	0.391113	-0.004618
1411	7.0500e-01	5.8948	10.165722	0.000321	3.206602	0.543213	-0.006414
1412	7.0550e-01	5.8875	10.138354	0.000274	2.736301	0.463542	-0.005474
1413	7.0600e-01	5.8789	10.099440	0.000389	3.890678	0.659099	-0.007783
1414	7.0650e-01	5.8670	10.084045	0.000154	1.539169	0.260742	-0.003079
1415	7.0700e-01	5.8569	10.038290	0.000457	4.574753	0.774984	-0.009151
1416	7.0750e-01	5.8444	10.006218	0.000321	3.206602	0.543213	-0.006414
1417	7.0800e-01	5.8353	9.991251	0.000150	1.496414	0.253499	-0.002993
1418	7.0850e-01	5.8270	9.947633	0.000436	4.360979	0.738770	-0.008724
1419	7.0900e-01	5.8163	9.925824	0.000218	2.180490	0.369385	-0.004362
1420	7.0950e-01	5.8044	9.885200	0.000406	4.061696	0.688070	-0.008125
1421	7.1000e-01	5.7947	9.867667	0.000175	1.752943	0.296957	-0.003507
1422	7.1050e-01	5.7877	9.839444	0.000282	2.821810	0.478028	-0.005645
1423	7.1100e-01	5.7739	9.801813	0.000376	3.762413	0.637370	-0.007526
1424	7.1150e-01	5.7678	9.743228	0.000586	5.857394	0.992269	-0.011717
1425	7.1200e-01	5.7571	9.710301	0.000329	3.292112	0.557699	-0.006585
1426	7.1250e-01	5.7471	9.701321	0.000090	0.897849	0.152100	-0.001796
1427	7.1300e-01	5.7361	9.674808	0.000265	2.650791	0.449056	-0.005303
1428	7.1350e-01	5.7236	9.645302	0.000295	2.950074	0.499756	-0.005901
1429	7.1400e-01	5.7166	9.587145	0.000581	5.814639	0.985027	-0.011631
1430	7.1450e-01	5.7057	9.559777	0.000274	2.736301	0.463542	-0.005474
1431	7.1500e-01	5.6946	9.528133	0.000316	3.163848	0.535970	-0.006329
1432	7.1550e-01	5.6854	9.505896	0.000222	2.223244	0.376628	-0.004447
1433	7.1600e-01	5.6766	9.465272	0.000406	4.061696	0.688070	-0.008125
1434	7.1650e-01	5.6679	9.464844	0.000004	0.042755	0.007243	-0.000086
1435	7.1700e-01	5.6543	9.418660	0.000462	4.617507	0.782227	-0.009237
1436	7.1750e-01	5.6439	9.391292	0.000274	2.736301	0.463542	-0.005474
1437	7.1800e-01	5.6375	9.355800	0.000355	3.548640	0.601156	-0.007099
1438	7.1850e-01	5.6235	9.328859	0.000269	2.693546	0.456299	-0.005388
1439	7.1900e-01	5.6149	9.270275	0.000586	5.857394	0.992269	-0.011717
1440	7.1950e-01	5.6070	9.248893	0.000214	2.137735	0.362142	-0.004276
1441	7.2000e-01	5.5966	9.206131	0.000428	4.275470	0.724284	-0.008553
1442	7.2050e-01	5.5865	9.206558	-0.000004	-0.042755	-0.007243	0.000086
1443	7.2100e-01	5.5774	9.163368	0.000432	4.318225	0.731527	-0.008638
1444	7.2150e-01	5.5676	9.128731	0.000346	3.463131	0.586670	-0.006928
1445	7.2200e-01	5.5573	9.089389	0.000393	3.933432	0.666341	-0.007868
1446	7.2250e-01	5.5469	9.074850	0.000145	1.453660	0.246257	-0.002908
1447	7.2300e-01	5.5380	9.020541	0.000543	5.429847	0.919841	-0.010862
1448	7.2350e-01	5.5273	9.010278	0.000103	1.026113	0.173828	-0.002053
1449	7.2400e-01	5.5176	8.965805	0.000445	4.446489	0.753256	-0.008895
1450	7.2450e-01	5.5052	8.952549	0.000133	1.325396	0.224528	-0.002651
1451	7.2500e-01	5.4953	8.905510	0.000470	4.703017	0.796713	-0.009408
1452	7.2550e-01	5.4866	8.876859	0.000286	2.864565	0.485270	-0.005730
1453	7.2600e-01	5.4744	8.855050	0.000218	2.180490	0.369385	-0.004362
1454	7.2650e-01	5.4626	8.825544	0.000295	2.950074	0.499756	-0.005901
1455	7.2700e-01	5.4565	8.778078	0.000475	4.745772	0.803955	-0.009493
1456	7.2750e-01	5.4462	8.721204	0.000569	5.686375	0.963298	-0.011375
1457	7.2800e-01	5.4385	8.709230	0.000120	1.197132	0.202800	-0.002395
1458	7.2850e-01	5.4285	8.680579	0.000286	2.864565	0.485270	-0.005730
1459	7.2900e-01	5.4160	8.645942	0.000346	3.463131	0.586670	-0.006928
1460	7.2950e-01	5.4065	8.605745	0.000402	4.018942	0.680827	-0.008039
1461	7.3000e-01	5.3983	8.579660	0.000261	2.608037	0.441813	-0.005217
1462	7.3050e-01	5.3876	8.556140	0.000235	2.351508	0.398356	-0.004704
1463	7.3100e-01	5.3738	8.521503	0.000346	3.463131	0.586670	-0.006928
1464	7.3150e-01	5.3676	8.481306	0.000402	4.018942	0.680827	-0.008039
1465	7.3200e-01	5.3546	8.456076	0.000252	2.522527	0.427328	-0.005046
1466	7.3250e-01	5.3467	8.411603	0.000445	4.446489	0.753256	-0.008895
1467	7.3300e-01	5.3357	8.375255	0.000363	3.634149	0.615642	-0.007270
1468	7.3350e-01	5.3250	8.331637	0.000436	4.360979	0.738770	-0.008724
1469	7.3400e-01	5.3149	8.326506	0.000051	0.513056	0.086914	-0.001026
1470	7.3450e-01	5.3067	8.278612	0.000479	4.788526	0.811198	-0.009579
1471	7.3500e-01	5.2948	8.241836	0.000368	3.676904	0.622884	-0.007355
1472	7.3550e-01	5.2881	8.208053	0.000338	3.377621	0.572185	-0.006756
1473	7.3600e-01	5.2771	8.183251	0.000248	2.479773	0.420085	-0.004960
1474	7.3650e-01	5.2667	8.153745	0.000295	2.950074	0.499756	-0.005901
1475	7.3700e-01	5.2554	8.113121	0.000406	4.061696	0.688070	-0.008125
1476	7.3750e-01	5.2472	8.103713	0.000094	0.940603	0.159343	-0.001882
1477	7.3800e-01	5.2344	8.059240	0.000445	4.446489	0.753256	-0.008895
1478	7.3850e-01	5.2271	8.014767	0.000445	4.446489	0.753256	-0.008895
1479	7.3900e-01	5.2161	7.993813	0.000209	2.094980	0.354899	-0.004191
1480	7.3950e-01	5.2060	7.945491	0.000483	4.831281	0.818441	-0.009664
1481	7.4000e-01	5.1971	7.917696	0.000278	2.779055	0.470785	-0.005559
1482	7.4050e-01	5.1840	7.880920	0.000368	3.676904	0.622884	-0.007355
1483	7.4100e-01	5.1765	7.881775	-0.000009	-0.085509	-0.014486	0.000171
1484	7.4150e-01	5.1657	7.833026	0.000487	4.874036	0.825684	-0.009750
1485	7.4200e-01	5.1563	7.785132	0.000479	4.788526	0.811198	-0.009579
1486	7.4250e-01	5.1440	7.753060	0.000321	3.206602	0.543213	-0.006414
1487	7.4300e-01	5.1367	7.731679	0.000214	2.137735	0.362142	-0.004276
1488	7.4350e-01	5.1251	7.670956	0.000607	6.071167	1.028484	-0.012145
1489	7.4400e-01	5.1147	7.651713	0.000192	1.923961	0.325928	-0.003849
1490	7.4450e-01	5.1062	7.627338	0.000244	2.437018	0.412842	-0.004875
1491	7.4500e-01	5.0943	7.582865	0.000445	4.446489	0.753256	-0.008895
1492	7.4550e-01	5.0848	7.553787	0.000291	2.907320	0.492513	-0.005816
1493	7.4600e-01	5.0759	7.520860	0.000329	3.292112	0.557699	-0.006585
1494	7.4650e-01	5.0668	7.476814	0.000440	4.403734	0.746013	-0.008809
1495	7.4700e-01	5.0560	7.465268	0.000115	1.154377	0.195557	-0.002309
1496	7.4750e-01	5.0476	7.401980	0.000633	6.327695	1.071941	-0.012658
1497	7.4800e-01	5.0357	7.386585	0.000154	1.539169	0.260742	-0.003079
1498	7.4850e-01	5.0256	7.365204	0.000214	2.137735	0.362142	-0.004276
1499	7.4900e-01	5.0156	7.338691	0.000265	2.650791	0.449056	-0.005303
1500	7.4950e-01	5.0052	7.301915	0.000368	3.676904	0.622884	-0.007355
1501	7.5000e-01	4.9954	7.260008	0.000419	4.189960	0.709799	-0.008381
1502	7.5050e-01	4.9866	7.237772	0.000222	2.223244	0.376628	-0.004447
1503	7.5100e-01	4.9741	7.186457	0.000513	5.130564	0.869141	-0.010263
1504	7.5150e-01	4.9628	7.147115	0.000393	3.933432	0.666341	-0.007868
1505	7.5200e-01	4.9554	7.124451	0.000227	2.265999	0.383871	-0.004533
1506	7.5250e-01	4.9463	7.086820	0.000376	3.762413	0.637370	-0.007526
1507	7.5300e-01	4.9353	7.053465	0.000333	3.334867	0.564942	-0.006671
1508	7.5350e-01	4.9243	7.029090	0.000244	2.437018	0.412842	-0.004875
1509	7.5400e-01	4.9148	6.965374	0.000637	6.370450	1.079183	-0.012743
1510	7.5450e-01	4.9042	6.938862	0.000265	2.650791	0.449056	-0.005303
1511	7.5500e-01	4.8962	6.897809	0.000410	4.104451	0.695313	-0.008210
1512	7.5550e-01	4.8846	6.886264	0.000115	1.154377	0.195557	-0.002309
1513	7.5600e-01	4.8763	6.849915	0.000363	3.634149	0.615642	-0.007270
1514	7.5650e-01	4.8645	6.843501	0.000064	0.641320	0.108643	-0.001283
1515	7.5700e-01	4.8560	6.800739	0.000428	4.275470	0.724284	-0.008553
1516	7.5750e-01	4.8450	6.757121	0.000436	4.360979	0.738770	-0.008724
1517	7.5800e-01	4.8364	6.696826	0.000603	6.028413	1.021241	-0.012059
1518	7.5850e-01	4.8279	6.676300	0.000205	2.052226	0.347656	-0.004105
1519	7.5900e-01	4.8157	6.634820	0.000415	4.147206	0.702556	-0.008296
1520	7.5950e-01	4.8083	6.633965	0.000009	0.085509	0.014486	-0.000171
1521	7.6000e-01	4.7952	6.569393	0.000646	6.455960	1.093669	-0.012914
1522	7.6050e-01	4.7870	6.523210	0.000462	4.617507	0.782227	-0.009237
1523	7.6100e-01	4.7748	6.516795	0.000064	0.641320	0.108643	-0.001283
1524	7.6150e-01	4.7650	6.475743	0.000410	4.104451	0.695313	-0.008210
1525	7.6200e-01	4.7546	6.450513	0.000252	2.522527	0.427328	-0.005046
1526	7.6250e-01	4.7433	6.391501	0.000590	5.900148	0.999512	-0.011802
1527	7.6300e-01	4.7336	6.372686	0.000188	1.881207	0.318685	-0.003763
1528	7.6350e-01	4.7241	6.341469	0.000312	3.121093	0.528727	-0.006243
1529	7.6400e-01	4.7153	6.300845	0.000406	4.061696	0.688070	-0.008125
1530	7.6450e-01	4.7040	6.257227	0.000436	4.360979	0.738770	-0.008724
1531	7.6500e-01	4.6973	6.241832	0.000154	1.539169	0.260742	-0.003079
1532	7.6550e-01	4.6851	6.189662	0.000522	5.216073	0.883627	-0.010434
1533	7.6600e-01	4.6741	6.159728	0.000299	2.992829	0.506999	-0.005987
1534	7.6650e-01	4.6667	6.116110	0.000436	4.360979	0.738770	-0.008724
1535	7.6700e-01	4.6552	6.104992	0.000111	1.111622	0.188314	-0.002224
1536	7.6750e-01	4.6463	6.079335	0.000257	2.565282	0.434571	-0.005132
1537	7.6800e-01	4.6368	5.995948	0.000834	8.337166	1.412354	-0.016677
1538	7.6850e-01	4.6249	6.006638	-0.000107	-1.068867	-0.181071	0.002138
1539	7.6900e-01	4.6161	5.966442	0.000402	4.018942	0.680827	-0.008039
1540	7.6950e-01	4.6063	5.905719	0.000607	6.071167	1.028484	-0.012145
1541	7.7000e-01	4.5963	5.882199	0.000235	2.351508	0.398356	-0.004704
1542	7.7050e-01	4.5892	5.868515	0.000137	1.368150	0.231771	-0.002737
1543	7.7100e-01	4.5740	5.824042	0.000445	4.446489	0.753256	-0.008895
1544	7.7150e-01	4.5642	5.762464	0.000616	6.156677	1.042969	-0.012316
1545	7.7200e-01	4.5554	5.748780	0.000137	1.368150	0.231771	-0.002737
1546	7.7250e-01	4.5459	5.688485	0.000603	6.028413	1.021241	-0.012059
1547	7.7300e-01	4.5358	5.667104	0.000214	2.137735	0.362142	-0.004276
1548	7.7350e-01	4.5264	5.626480	0.000406	4.061696	0.688070	-0.008125
1549	7.7400e-01	4.5167	5.612796	0.000137	1.368150	0.231771	-0.002737
1550	7.7450e-01	4.5078	5.576020	0.000368	3.676904	0.622884	-0.007355
1551	7.7500e-01	4.4971	5.543520	0.000325	3.249357	0.550456	-0.006500
1552	7.7550e-01	4.4861	5.513586	0.000299	2.992829	0.506999	-0.005987
1553	7.7600e-01	4.4771	5.490495	0.000231	2.308754	0.391113	-0.004618
1554	7.7650e-01	4.4638	5.407108	0.000834	8.337166	1.412354	-0.016677
1555	7.7700e-01	4.4519	5.400693	0.000064	0.641320	0.108643	-0.001283
1556	7.7750e-01	4.4459	5.363062	0.000376	3.762413	0.637370	-0.007526
1557	7.7800e-01	4.4353	5.329280	0.000338	3.377621	0.572185	-0.006756
1558	7.7850e-01	4.4252	5.284807	0.000445	4.446489	0.753256	-0.008895
1559	7.7900e-01	4.4159	5.248031	0.000368	3.676904	0.622884	-0.007355
1560	7.7950e-01	4.4087	5.222801	0.000252	2.522527	0.427328	-0.005046
1561	7.8000e-01	4.3983	5.186881	0.000359	3.591395	0.608399	-0.007184
1562	7.8050e-01	4.3860	5.144118	0.000428	4.275470	0.724284	-0.008553
1563	7.8100e-01	4.3759	5.110336	0.000338	3.377621	0.572185	-0.006756
1564	7.8150e-01	4.3643	5.069284	0.000410	4.104451	0.695313	-0.008210
1565	7.8200e-01	4.3555	5.041061	0.000282	2.821810	0.478028	-0.005645
1566	7.8250e-01	4.3471	5.016258	0.000248	2.479773	0.420085	-0.004960
1567	7.8300e-01	4.3350	4.950404	0.000658	6.584224	1.115398	-0.013171
1568	7.8350e-01	4.3250	4.932871	0.000175	1.752943	0.296957	-0.003507
1569	7.8400e-01	4.3170	4.882412	0.000505	5.045054	0.854655	-0.010092
1570	7.8450e-01	4.3063	4.855471	0.000269	2.693546	0.456299	-0.005388
1571	7.8500e-01	4.2963	4.834518	0.000209	2.094980	0.354899	-0.004191
1572	7.8550e-01	4.2844	4.784485	0.000500	5.002300	0.847413	-0.010006
1573	7.8600e-01	4.2755	4.740868	0.000436	4.360979	0.738770	-0.008724
1574	7.8650e-01	4.2667	4.714355	0.000265	2.650791	0.449056	-0.005303
1575	7.8700e-01	4.2566	4.683566	0.000308	3.078338	0.521485	-0.006158
1576	7.8750e-01	4.2474	4.646362	0.000372	3.719659	0.630127	-0.007441
1577	7.8800e-01	4.2352	4.604883	0.000415	4.147206	0.702556	-0.008296
1578	7.8850e-01	4.2258	4.569817	0.000351	3.505885	0.593913	-0.007013
1579	7.8900e-01	4.2163	4.533897	0.000359	3.591395	0.608399	-0.007184
1580	7.8950e-01	4.2065	4.492845	0.000410	4.104451	0.695313	-0.008210
1581	7.9000e-01	4.1969	4.444096	0.000487	4.874036	0.825684	-0.009750
1582	7.9050e-01	4.1841	4.427418	0.000167	1.667433	0.282471	-0.003335
1583	7.9100e-01	4.1757	4.384656	0.000428	4.275470	0.724284	-0.008553
1584	7.9150e-01	4.1656	4.353439	0.000312	3.121093	0.528727	-0.006243
1585	7.9200e-01	4.1553	4.318801	0.000346	3.463131	0.586670	-0.006928
1586	7.9250e-01	4.1449	4.314098	0.000047	0.470302	0.079671	-0.000941
1587	7.9300e-01	4.1368	4.247816	0.000663	6.626978	1.122641	-0.013256
1588	7.9350e-01	4.1254	4.205908	0.000419	4.189960	0.709799	-0.008381
1589	7.9400e-01	4.1159	4.165284	0.000406	4.061696	0.688070	-0.008125
1590	7.9450e-01	4.1055	4.140054	0.000252	2.522527	0.427328	-0.005046
1591	7.9500e-01	4.0951	4.107555	0.000325	3.249357	0.550456	-0.006500
1592	7.9550e-01	4.0845	4.065220	0.000423	4.232715	0.717041	-0.008467
1593	7.9600e-01	4.0744	4.027589	0.000376	3.762413	0.637370	-0.007526
1594	7.9650e-01	4.0669	3.978839	0.000487	4.874036	0.825684	-0.009750
1595	7.9700e-01	4.0566	3.949761	0.000291	2.907320	0.492513	-0.005816
1596	7.9750e-01	4.0445	3.918544	0.000312	3.121093	0.528727	-0.006243
1597	7.9800e-01	4.0369	3.886472	0.000321	3.206602	0.543213	-0.006414
1598	7.9850e-01	4.0303	3.847986	0.000385	3.847923	0.651856	-0.007697
1599	7.9900e-01	4.0167	3.822329	0.000257	2.565282	0.434571	-0.005132
1600	7.9950e-01	4.0060	3.776145	0.000462	4.617507	0.782227	-0.009237
1601	8.0000e-01	3.9954	3.728251	0.000479	4.788526	0.811198	-0.009579
1602	8.0050e-01	3.9858	3.702593	0.000257	2.565282	0.434571	-0.005132
1603	8.0100e-01	3.9748	3.680357	0.000222	2.223244	0.376628	-0.004447
1604	8.0150e-01	3.9648	3.620062	0.000603	6.028413	1.021241	-0.012059
1605	8.0200e-01	3.9549	3.588845	0.000312	3.121093	0.528727	-0.006243
1606	8.0250e-01	3.9450	3.564043	0.000248	2.479773	0.420085	-0.004960
1607	8.0300e-01	3.9325	3.519142	0.000449	4.489243	0.760498	-0.008980
1608	8.0350e-01	3.9246	3.479801	0.000393	3.933432	0.666341	-0.007868
1609	8.0400e-01	3.9151	3.439604	0.000402	4.018942	0.680827	-0.008039
1610	8.0450e-01	3.9038	3.407532	0.000321	3.206602	0.543213	-0.006414
1611	8.0500e-01	3.8947	3.372467	0.000351	3.505885	0.593913	-0.007013
1612	8.0550e-01	3.8855	3.341250	0.000312	3.121093	0.528727	-0.006243
1613	8.0600e-01	3.8753	3.310889	0.000304	3.035584	0.514242	-0.006072
1614	8.0650e-01	3.8632	3.261712	0.000492	4.916790	0.832927	-0.009835
1615	8.0700e-01	3.8539	3.220232	0.000415	4.147206	0.702556	-0.008296
1616	8.0750e-01	3.8453	3.187305	0.000329	3.292112	0.557699	-0.006585
1617	8.0800e-01	3.8367	3.143260	0.000440	4.403734	0.746013	-0.008809
1618	8.0850e-01	3.8229	3.111615	0.000316	3.163848	0.535970	-0.006329
1619	8.0900e-01	3.8159	3.072274	0.000393	3.933432	0.666341	-0.007868
1620	8.0950e-01	3.8043	3.035070	0.000372	3.719659	0.630127	-0.007441
1621	8.1000e-01	3.7952	2.991453	0.000436	4.360979	0.738770	-0.008724
1622	8.1050e-01	3.7866	2.964512	0.000269	2.693546	0.456299	-0.005388
1623	8.1100e-01	3.7743	2.937144	0.000274	2.736301	0.463542	-0.005474
1624	8.1150e-01	3.7650	2.884974	0.000522	5.216073	0.883627	-0.010434
1625	8.1200e-01	3.7579	2.838363	0.000466	4.660262	0.789470	-0.009322
1626	8.1250e-01	3.7448	2.810139	0.000282	2.821810	0.478028	-0.005645
1627	8.1300e-01	3.7335	2.767805	0.000423	4.232715	0.717041	-0.008467
1628	8.1350e-01	3.7231	2.728463	0.000393	3.933432	0.666341	-0.007868
1629	8.1400e-01	3.7164	2.691687	0.000368	3.676904	0.622884	-0.007355
1630	8.1450e-01	3.7067	2.645931	0.000457	4.574753	0.774984	-0.009151
1631	8.1500e-01	3.6957	2.644649	0.000013	0.128264	0.021729	-0.000257
1632	8.1550e-01	3.6867	2.593761	0.000509	5.087809	0.861898	-0.010177
1633	8.1600e-01	3.6752	2.538170	0.000556	5.558111	0.941569	-0.011118
1634	8.1650e-01	3.6646	2.516361	0.000218	2.180490	0.369385	-0.004362
1635	8.1700e-01	3.6544	2.483006	0.000333	3.334867	0.564942	-0.006671
1636	8.1750e-01	3.6459	2.435112	0.000479	4.788526	0.811198	-0.009579
1637	8.1800e-01	3.6348	2.403468	0.000316	3.163848	0.535970	-0.006329
1638	8.1850e-01	3.6243	2.377383	0.000261	2.608037	0.441813	-0.005217
1639	8.1900e-01	3.6151	2.330772	0.000466	4.660262	0.789470	-0.009322
1640	8.1950e-01	3.6029	2.276891	0.000539	5.387092	0.912598	-0.010776
1641	8.2000e-01	3.5947	2.232845	0.000440	4.403734	0.746013	-0.008809
1642	8.2050e-01	3.5855	2.214030	0.000188	1.881207	0.318685	-0.003763
1643	8.2100e-01	3.5768	2.163998	0.000500	5.002300	0.847413	-0.010006
1644	8.2150e-01	3.5670	2.119097	0.000449	4.489243	0.760498	-0.008980
1645	8.2200e-01	3.5559	2.098999	0.000201	2.009471	0.340414	-0.004020
1646	8.2250e-01	3.5477	2.050249	0.000487	4.874036	0.825684	-0.009750
1647	8.2300e-01	3.5342	2.020743	0.000295	2.950074	0.499756	-0.005901
1648	8.2350e-01	3.5248	1.968145	0.000526	5.258828	0.890870	-0.010520
1649	8.2400e-01	3.5157	1.951468	0.000167	1.667433	0.282471	-0.003335
1650	8.2450e-01	3.5081	1.916830	0.000346	3.463131	0.586670	-0.006928
1651	8.2500e-01	3.4937	1.865943	0.000509	5.087809	0.861898	-0.010177
1652	8.2550e-01	3.4872	1.827884	0.000381	3.805168	0.644613	-0.007612
1653	8.2600e-01	3.4747	1.760747	0.000671	6.712488	1.137126	-0.013427
1654	8.2650e-01	3.4654	1.757326	0.000034	0.342038	0.057943	-0.000684
1655	8.2700e-01	3.4555	1.707294	0.000500	5.002300	0.847413	-0.010006
1656	8.2750e-01	3.4448	1.673084	0.000342	3.420376	0.579427	-0.006842
1657	8.2800e-01	3.4375	1.640157	0.000329	3.292112	0.557699	-0.006585
1658	8.2850e-01	3.4258	1.585421	0.000547	5.472601	0.927084	-0.010947
1659	8.2900e-01	3.4163	1.555059	0.000304	3.035584	0.514242	-0.006072
1660	8.2950e-01	3.4074	1.519139	0.000359	3.591395	0.608399	-0.007184
1661	8.3000e-01	3.3951	1.475521	0.000436	4.360979	0.738770	-0.008724
1662	8.3050e-01	3.3850	1.429765	0.000457	4.574753	0.774984	-0.009151
1663	8.3100e-01	3.3760	1.396838	0.000329	3.292112	0.557699	-0.006585
1664	8.3150e-01	3.3651	1.372891	0.000239	2.394263	0.405599	-0.004789
1665	8.3200e-01	3.3551	1.316017	0.000569	5.686375	0.963298	-0.011375
1666	8.3250e-01	3.3469	1.280524	0.000355	3.548640	0.601156	-0.007099
1667	8.3300e-01	3.3360	1.249307	0.000312	3.121093	0.528727	-0.006243
1668	8.3350e-01	3.3261	1.217663	0.000316	3.163848	0.535970	-0.006329
1669	8.3400e-01	3.3165	1.171052	0.000466	4.660262	0.789470	-0.009322
1670	8.3450e-01	3.3061	1.129145	0.000419	4.189960	0.709799	-0.008381
1671	8.3500e-01	3.2990	1.096645	0.000325	3.249357	0.550456	-0.006500
1672	8.3550e-01	3.2852	1.053027	0.000436	4.360979	0.738770	-0.008724
1673	8.3600e-01	3.2755	1.038060	0.000150	1.496414	0.253499	-0.002993
1674	8.3650e-01	3.2648	0.987601	0.000505	5.045054	0.854655	-0.010092
1675	8.3700e-01	3.2599	0.930299	0.000573	5.729130	0.970541	-0.011460
1676	8.3750e-01	3.2471	0.909773	0.000205	2.052226	0.347656	-0.004105
1677	8.3800e-01	3.2368	0.870859	0.000389	3.890678	0.659099	-0.007783
1678	8.3850e-01	3.2248	0.819544	0.000513	5.130564	0.869141	-0.010263
1679	8.3900e-01	3.2169	0.754972	0.000646	6.455960	1.093669	-0.012914
1680	8.3950e-01	3.2057	0.753262	0.000017	0.171019	0.028971	-0.000342
1681	8.4000e-01	3.1974	0.694250	0.000590	5.900148	0.999512	-0.011802
1682	8.4050e-01	3.1845	0.659612	0.000346	3.463131	0.586670	-0.006928
1683	8.4100e-01	3.1757	0.620270	0.000393	3.933432	0.666341	-0.007868
1684	8.4150e-01	3.1616	0.581784	0.000385	3.847923	0.651856	-0.007697
1685	8.4200e-01	3.1580	0.540732	0.000410	4.104451	0.695313	-0.008210
1686	8.4250e-01	3.1459	0.511654	0.000291	2.907320	0.492513	-0.005816
1687	8.4300e-01	3.1363	0.462477	0.000492	4.916790	0.832927	-0.009835
1688	8.4350e-01	3.1274	0.420142	0.000423	4.232715	0.717041	-0.008467
1689	8.4400e-01	3.1165	0.372675	0.000475	4.745772	0.803955	-0.009493
1690	8.4450e-01	3.1031	0.335044	0.000376	3.762413	0.637370	-0.007526
1691	8.4500e-01	3.0957	0.304255	0.000308	3.078338	0.521485	-0.006158
1692	8.4550e-01	3.0847	0.241394	0.000628	6.284941	1.064698	-0.012572
1693	8.4600e-01	3.0757	0.223434	0.000180	1.795697	0.304199	-0.003592
1694	8.4650e-01	3.0659	0.185803	0.000376	3.762413	0.637370	-0.007526
1695	8.4700e-01	3.0556	0.151166	0.000346	3.463131	0.586670	-0.006928
1696	8.4750e-01	3.0447	0.100278	0.000509	5.087809	0.861898	-0.010177
1697	8.4800e-01	3.0357	0.075476	0.000248	2.479773	0.420085	-0.004960
1698	8.4850e-01	3.0273	0.037845	0.000376	3.762413	0.637370	-0.007526
1699	8.4900e-01	3.0154	-0.014753	0.000526	5.258828	0.890870	-0.010520
1700	8.4950e-01	3.0032	-0.052812	0.000381	3.805168	0.644613	-0.007612
1701	8.5000e-01	2.9935	-0.104127	0.000513	5.130564	0.869141	-0.010263
1702	8.5050e-01	2.9871	-0.137482	0.000333	3.334867	0.564942	-0.006671
1703	8.5100e-01	2.9767	-0.192645	0.000552	5.515356	0.934327	-0.011033
1704	8.5150e-01	2.9633	-0.212744	0.000201	2.009471	0.340414	-0.004020
1705	8.5200e-01	2.9555	-0.267052	0.000543	5.429847	0.919841	-0.010862
1706	8.5250e-01	2.9431	-0.286295	0.000192	1.923961	0.325928	-0.003849
1707	8.5300e-01	2.9364	-0.331196	0.000449	4.489243	0.760498	-0.008980
1708	8.5350e-01	2.9277	-0.373103	0.000419	4.189960	0.709799	-0.008381
1709	8.5400e-01	2.9133	-0.406458	0.000333	3.334867	0.564942	-0.006671
1710	8.5450e-01	2.9048	-0.460766	0.000543	5.429847	0.919841	-0.010862
1711	8.5500e-01	2.8992	-0.511226	0.000505	5.045054	0.854655	-0.010092
1712	8.5550e-01	2.8867	-0.542443	0.000312	3.121093	0.528727	-0.006243
1713	8.5600e-01	2.8761	-0.589481	0.000470	4.703017	0.796713	-0.009408
1714	8.5650e-01	2.8650	-0.633099	0.000436	4.360979	0.738770	-0.008724
1715	8.5700e-01	2.8564	-0.661750	0.000286	2.864565	0.485270	-0.005730
1716	8.5750e-01	2.8471	-0.688263	0.000265	2.650791	0.449056	-0.005303
1717	8.5800e-01	2.8323	-0.748986	0.000607	6.071167	1.028484	-0.012145
1718	8.5850e-01	2.8274	-0.778492	0.000295	2.950074	0.499756	-0.005901
1719	8.5900e-01	2.8149	-0.831090	0.000526	5.258828	0.890870	-0.010520
1720	8.5950e-01	2.8024	-0.852899	0.000218	2.180490	0.369385	-0.004362
1721	8.6000e-01	2.7954	-0.904641	0.000517	5.173319	0.876384	-0.010349
1722	8.6050e-01	2.7850	-0.937568	0.000329	3.292112	0.557699	-0.006585
1723	8.6100e-01	2.7733	-0.992304	0.000547	5.472601	0.927084	-0.010947
1724	8.6150e-01	2.7649	-1.016679	0.000244	2.437018	0.412842	-0.004875
1725	8.6200e-01	2.7551	-1.056876	0.000402	4.018942	0.680827	-0.008039
1726	8.6250e-01	2.7469	-1.110329	0.000534	5.344337	0.905355	-0.010691
1727	8.6300e-01	2.7369	-1.140690	0.000304	3.035584	0.514242	-0.006072
1728	8.6350e-01	2.7255	-1.186019	0.000453	4.531998	0.767741	-0.009066
1729	8.6400e-01	2.7173	-1.237761	0.000517	5.173319	0.876384	-0.010349
1730	8.6450e-01	2.7049	-1.270261	0.000325	3.249357	0.550456	-0.006500
1731	8.6500e-01	2.6923	-1.320721	0.000505	5.045054	0.854655	-0.010092
1732	8.6550e-01	2.6862	-1.356641	0.000359	3.591395	0.608399	-0.007184
1733	8.6600e-01	2.6771	-1.397693	0.000410	4.104451	0.695313	-0.008210
1734	8.6650e-01	2.6678	-1.433186	0.000355	3.548640	0.601156	-0.007099
1735	8.6700e-01	2.6535	-1.478942	0.000457	4.574753	0.774984	-0.009151
1736	8.6750e-01	2.6453	-1.508448	0.000295	2.950074	0.499756	-0.005901
1737	8.6800e-01	2.6349	-1.564039	0.000556	5.558111	0.941569	-0.011118
1738	8.6850e-01	2.6237	-1.625617	0.000616	6.156677	1.042969	-0.012316
1739	8.6900e-01	2.6162	-1.653413	0.000278	2.779055	0.470785	-0.005559
1740	8.6950e-01	2.6028	-1.688906	0.000355	3.548640	0.601156	-0.007099
1741	8.7000e-01	2.5952	-1.718412	0.000295	2.950074	0.499756	-0.005901
1742	8.7050e-01	2.5842	-1.758609	0.000402	4.018942	0.680827	-0.008039
1743	8.7100e-01	2.5726	-1.803510	0.000449	4.489243	0.760498	-0.008980
1744	8.7150e-01	2.5664	-1.841141	0.000376	3.762413	0.637370	-0.007526
1745	8.7200e-01	2.5553	-1.879627	0.000385	3.847923	0.651856	-0.007697
1746	8.7250e-01	2.5449	-1.923672	0.000440	4.403734	0.746013	-0.008809
1747	8.7300e-01	2.5338	-1.989527	0.000658	6.584224	1.115398	-0.013171
1748	8.7350e-01	2.5218	-2.016895	0.000274	2.736301	0.463542	-0.005474
1749	8.7400e-01	2.5116	-2.062651	0.000457	4.574753	0.774984	-0.009151
1750	8.7450e-01	2.5089	-2.115676	0.000530	5.301583	0.898112	-0.010605
1751	8.7500e-01	2.4942	-2.138340	0.000227	2.265999	0.383871	-0.004533
1752	8.7550e-01	2.4860	-2.176399	0.000381	3.805168	0.644613	-0.007612
1753	8.7600e-01	2.4762	-2.234983	0.000586	5.857394	0.992269	-0.011717
1754	8.7650e-01	2.4649	-2.270049	0.000351	3.505885	0.593913	-0.007013
1755	8.7700e-01	2.4531	-2.292713	0.000227	2.265999	0.383871	-0.004533
1756	8.7750e-01	2.4451	-2.326923	0.000342	3.420376	0.579427	-0.006842
1757	8.7800e-01	2.4335	-2.382087	0.000552	5.515356	0.934327	-0.011033
1758	8.7850e-01	2.4228	-2.431691	0.000496	4.959545	0.840170	-0.009921
1759	8.7900e-01	2.4142	-2.462480	0.000308	3.078338	0.521485	-0.006158
1760	8.7950e-01	2.4058	-2.535176	0.000727	7.268299	1.231283	-0.014539
1761	8.8000e-01	2.3963	-2.556558	0.000214	2.137735	0.362142	-0.004276
1762	8.8050e-01	2.3855	-2.614715	0.000581	5.814639	0.985027	-0.011631
1763	8.8100e-01	2.3758	-2.635241	0.000205	2.052226	0.347656	-0.004105
1764	8.8150e-01	2.3645	-2.681852	0.000466	4.660262	0.789470	-0.009322
1765	8.8200e-01	2.3531	-2.732739	0.000509	5.087809	0.861898	-0.010177
1766	8.8250e-01	2.3445	-2.777640	0.000449	4.489243	0.760498	-0.008980
1767	8.8300e-01	2.3350	-2.816981	0.000393	3.933432	0.666341	-0.007868
1768	8.8350e-01	2.3269	-2.855895	0.000389	3.890678	0.659099	-0.007783
1769	8.8400e-01	2.3160	-2.917046	0.000611	6.113922	1.035726	-0.012230
1770	8.8450e-01	2.3055	-2.937999	0.000209	2.094980	0.354899	-0.004191
1771	8.8500e-01	2.2961	-2.978196	0.000402	4.018942	0.680827	-0.008039
1772	8.8550e-01	2.2865	-3.014544	0.000363	3.634149	0.615642	-0.007270
1773	8.8600e-01	2.2742	-3.072701	0.000581	5.814639	0.985027	-0.011631
1774	8.8650e-01	2.2646	-3.101352	0.000286	2.864565	0.485270	-0.005730
1775	8.8700e-01	2.2571	-3.145398	0.000440	4.403734	0.746013	-0.008809
1776	8.8750e-01	2.2461	-3.193719	0.000483	4.831281	0.818441	-0.009664
1777	8.8800e-01	2.2342	-3.237337	0.000436	4.360979	0.738770	-0.008724
1778	8.8850e-01	2.2287	-3.279672	0.000423	4.232715	0.717041	-0.008467
1779	8.8900e-01	2.2144	-3.315165	0.000355	3.548640	0.601156	-0.007099
1780	8.8950e-01	2.2049	-3.358355	0.000432	4.318225	0.731527	-0.008638
1781	8.9000e-01	2.1954	-3.409670	0.000513	5.130564	0.869141	-0.010263
1782	8.9050e-01	2.1872	-3.452433	0.000428	4.275470	0.724284	-0.008553
1783	8.9100e-01	2.1756	-3.500754	0.000483	4.831281	0.818441	-0.009664
1784	8.9150e-01	2.1643	-3.546938	0.000462	4.617507	0.782227	-0.009237
1785	8.9200e-01	2.1573	-3.596542	0.000496	4.959545	0.840170	-0.009921
1786	8.9250e-01	2.1455	-3.632463	0.000359	3.591395	0.608399	-0.007184
1787	8.9300e-01	2.1344	-3.681212	0.000487	4.874036	0.825684	-0.009750
1788	8.9350e-01	2.1249	-3.700028	0.000188	1.881207	0.318685	-0.003763
1789	8.9400e-01	2.1133	-3.749632	0.000496	4.959545	0.840170	-0.009921
1790	8.9450e-01	2.1051	-3.799664	0.000500	5.002300	0.847413	-0.010006
1791	8.9500e-01	2.0941	-3.852262	0.000526	5.258828	0.890870	-0.010520
1792	8.9550e-01	2.0831	-3.892031	0.000398	3.976187	0.673584	-0.007954
1793	8.9600e-01	2.0787	-3.944629	0.000526	5.258828	0.890870	-0.010520
1794	8.9650e-01	2.0644	-3.973280	0.000286	2.864565	0.485270	-0.005730
1795	8.9700e-01	2.0532	-4.010911	0.000376	3.762413	0.637370	-0.007526
1796	8.9750e-01	2.0444	-4.072062	0.000611	6.113922	1.035726	-0.012230
1797	8.9800e-01	2.0345	-4.110976	0.000389	3.890678	0.659099	-0.007783
1798	8.9850e-01	2.0270	-4.157587	0.000466	4.660262	0.789470	-0.009322
1799	8.9900e-01	2.0135	-4.195218	0.000376	3.762413	0.637370	-0.007526
1800	8.9950e-01	2.0035	-4.249526	0.000543	5.429847	0.919841	-0.010862
1801	9.0000e-01	1.9953	-4.311532	0.000620	6.199431	1.050212	-0.012401
1802	9.0050e-01	1.9841	-4.326499	0.000150	1.496414	0.253499	-0.002993
1803	9.0100e-01	1.9768	-4.372682	0.000462	4.617507	0.782227	-0.009237
1804	9.0150e-01	1.9667	-4.418866	0.000462	4.617507	0.782227	-0.009237
1805	9.0200e-01	1.9556	-4.463339	0.000445	4.446489	0.753256	-0.008895
1806	9.0250e-01	1.9421	-4.520213	0.000569	5.686375	0.963298	-0.011375
1807	9.0300e-01	1.9370	-4.524489	0.000043	0.427547	0.072428	-0.000855
1808	9.0350e-01	1.9267	-4.595047	0.000705	7.054525	1.195069	-0.014112
1809	9.0400e-01	1.9131	-4.624126	0.000291	2.907320	0.492513	-0.005816
1810	9.0450e-01	1.9077	-4.674586	0.000505	5.045054	0.854655	-0.010092
1811	9.0500e-01	1.8937	-4.751558	0.000770	7.695846	1.303712	-0.015395
1812	9.0550e-01	1.8835	-4.775933	0.000244	2.437018	0.412842	-0.004875
1813	9.0600e-01	1.8760	-4.810143	0.000342	3.420376	0.579427	-0.006842
1814	9.0650e-01	1.8661	-4.855899	0.000457	4.574753	0.774984	-0.009151
1815	9.0700e-01	1.8553	-4.911062	0.000552	5.515356	0.934327	-0.011033
1816	9.0750e-01	1.8456	-4.977772	0.000667	6.669733	1.129883	-0.013342
1817	9.0800e-01	1.8353	-4.979483	0.000017	0.171019	0.028971	-0.000342
1818	9.0850e-01	1.8254	-5.039778	0.000603	6.028413	1.021241	-0.012059
1819	9.0900e-01	1.8129	-5.057738	0.000180	1.795697	0.304199	-0.003592
1820	9.0950e-01	1.8027	-5.130007	0.000723	7.225544	1.224040	-0.014454
1821	9.1000e-01	1.7944	-5.167210	0.000372	3.719659	0.630127	-0.007441
1822	9.1050e-01	1.7850	-5.205269	0.000381	3.805168	0.644613	-0.007612
1823	9.1100e-01	1.7754	-5.252307	0.000470	4.703017	0.796713	-0.009408
1824	9.1150e-01	1.7647	-5.295498	0.000432	4.318225	0.731527	-0.008638
1825	9.1200e-01	1.7521	-5.343392	0.000479	4.788526	0.811198	-0.009579
1826	9.1250e-01	1.7460	-5.392141	0.000487	4.874036	0.825684	-0.009750
1827	9.1300e-01	1.7363	-5.425496	0.000333	3.334867	0.564942	-0.006671
1828	9.1350e-01	1.7252	-5.473390	0.000479	4.788526	0.811198	-0.009579
1829	9.1400e-01	1.7145	-5.531974	0.000586	5.857394	0.992269	-0.011717
1830	9.1450e-01	1.7033	-5.573026	0.000410	4.104451	0.695313	-0.008210
1831	9.1500e-01	1.6924	-5.616217	0.000432	4.318225	0.731527	-0.008638
1832	9.1550e-01	1.6870	-5.654275	0.000381	3.805168	0.644613	-0.007612
1833	9.1600e-01	1.6751	-5.690196	0.000359	3.591395	0.608399	-0.007184
1834	9.1650e-01	1.6671	-5.735524	0.000453	4.531998	0.767741	-0.009066
1835	9.1700e-01	1.6539	-5.800095	0.000646	6.455960	1.093669	-0.012914
1836	9.1750e-01	1.6438	-5.833450	0.000333	3.334867	0.564942	-0.006671
1837	9.1800e-01	1.6360	-5.886476	0.000530	5.301583	0.898112	-0.010605
1838	9.1850e-01	1.6245	-5.922396	0.000359	3.591395	0.608399	-0.007184
1839	9.1900e-01	1.6145	-5.984830	0.000624	6.242186	1.057455	-0.012487
1840	9.1950e-01	1.6077	-6.001079	0.000162	1.624679	0.275228	-0.003250
1841	9.2000e-01	1.5974	-6.078907	0.000778	7.781355	1.318197	-0.015566
1842	9.2050e-01	1.5849	-6.104992	0.000261	2.608037	0.441813	-0.005217
1843	9.2100e-01	1.5775	-6.152459	0.000475	4.745772	0.803955	-0.009493
1844	9.2150e-01	1.5630	-6.206339	0.000539	5.387092	0.912598	-0.010776
1845	9.2200e-01	1.5554	-6.237556	0.000312	3.121093	0.528727	-0.006243
1846	9.2250e-01	1.5445	-6.282029	0.000445	4.446489	0.753256	-0.008895
1847	9.2300e-01	1.5353	-6.329068	0.000470	4.703017	0.796713	-0.009408
1848	9.2350e-01	1.5253	-6.376107	0.000470	4.703017	0.796713	-0.009408
1849	9.2400e-01	1.5167	-6.434691	0.000586	5.857394	0.992269	-0.011717
1850	9.2450e-01	1.5046	-6.472322	0.000376	3.762413	0.637370	-0.007526
1851	9.2500e-01	1.4950	-6.521927	0.000496	4.959545	0.840170	-0.009921
1852	9.2550e-01	1.4845	-6.574525	0.000526	5.258828	0.890870	-0.010520
1853	9.2600e-01	1.4771	-6.605314	0.000308	3.078338	0.521485	-0.006158
1854	9.2650e-01	1.4664	-6.660477	0.000552	5.515356	0.934327	-0.011033
1855	9.2700e-01	1.4548	-6.701957	0.000415	4.147206	0.702556	-0.008296
1856	9.2750e-01	1.4433	-6.755410	0.000534	5.344337	0.905355	-0.010691
1857	9.2800e-01	1.4337	-6.799028	0.000436	4.360979	0.738770	-0.008724
1858	9.2850e-01	1.4242	-6.817844	0.000188	1.881207	0.318685	-0.003763
1859	9.2900e-01	1.4156	-6.890540	0.000727	7.268299	1.231283	-0.014539
1860	9.2950e-01	1.4038	-6.929881	0.000393	3.933432	0.666341	-0.007868
1861	9.3000e-01	1.3929	-6.976493	0.000466	4.660262	0.789470	-0.009322
1862	9.3050e-01	1.3847	-7.013268	0.000368	3.676904	0.622884	-0.007355
1863	9.3100e-01	1.3742	-7.069715	0.000564	5.643620	0.956055	-0.011289
1864	9.3150e-01	1.3640	-7.115043	0.000453	4.531998	0.767741	-0.009066
1865	9.3200e-01	1.3538	-7.173628	0.000586	5.857394	0.992269	-0.011717
1866	9.3250e-01	1.3440	-7.200568	0.000269	2.693546	0.456299	-0.005388
1867	9.3300e-01	1.3371	-7.258298	0.000577	5.771884	0.977784	-0.011546
1868	9.3350e-01	1.3251	-7.303198	0.000449	4.489243	0.760498	-0.008980
1869	9.3400e-01	1.3142	-7.338264	0.000351	3.505885	0.593913	-0.007013
1870	9.3450e-01	1.3051	-7.401552	0.000633	6.327695	1.071941	-0.012658
1871	9.3500e-01	1.2965	-7.456288	0.000547	5.472601	0.927084	-0.010947
1872	9.3550e-01	1.2845	-7.493064	0.000368	3.676904	0.622884	-0.007355
1873	9.3600e-01	1.2711	-7.539247	0.000462	4.617507	0.782227	-0.009237
1874	9.3650e-01	1.2629	-7.557208	0.000180	1.795697	0.304199	-0.003592
1875	9.3700e-01	1.2533	-7.643588	0.000864	8.636449	1.463054	-0.017276
1876	9.3750e-01	1.2445	-7.679081	0.000355	3.548640	0.601156	-0.007099
1877	9.3800e-01	1.2366	-7.711153	0.000321	3.206602	0.543213	-0.006414
1878	9.3850e-01	1.2251	-7.771020	0.000599	5.985658	1.013998	-0.011974
1879	9.3900e-01	1.2137	-7.803092	0.000321	3.206602	0.543213	-0.006414
1880	9.3950e-01	1.2062	-7.853552	0.000505	5.045054	0.854655	-0.010092
1881	9.4000e-01	1.1960	-7.912992	0.000594	5.942903	1.006755	-0.011888
1882	9.4050e-01	1.1832	-7.946347	0.000333	3.334867	0.564942	-0.006671
1883	9.4100e-01	1.1757	-8.001938	0.000556	5.558111	0.941569	-0.011118
1884	9.4150e-01	1.1667	-8.054536	0.000526	5.258828	0.890870	-0.010520
1885	9.4200e-01	1.1565	-8.096871	0.000423	4.232715	0.717041	-0.008467
1886	9.4250e-01	1.1454	-8.131081	0.000342	3.420376	0.579427	-0.006842
1887	9.4300e-01	1.1346	-8.173416	0.000423	4.232715	0.717041	-0.008467
1888	9.4350e-01	1.1267	-8.239270	0.000658	6.584224	1.115398	-0.013171
1889	9.4400e-01	1.1170	-8.287164	0.000479	4.788526	0.811198	-0.009579
1890	9.4450e-01	1.1050	-8.333775	0.000466	4.660262	0.789470	-0.009322
1891	9.4500e-01	1.0962	-8.366275	0.000325	3.249357	0.550456	-0.006500
1892	9.4550e-01	1.0870	-8.416734	0.000505	5.045054	0.854655	-0.010092
1893	9.4600e-01	1.0765	-8.473609	0.000569	5.686375	0.963298	-0.011375
1894	9.4650e-01	1.0642	-8.503115	0.000295	2.950074	0.499756	-0.005901
1895	9.4700e-01	1.0542	-8.571107	0.000680	6.797997	1.151612	-0.013598
1896	9.4750e-01	1.0439	-8.613870	0.000428	4.275470	0.724284	-0.008553
1897	9.4800e-01	1.0355	-8.656205	0.000423	4.232715	0.717041	-0.008467
1898	9.4850e-01	1.0252	-8.687849	0.000316	3.163848	0.535970	-0.006329
1899	9.4900e-01	1.0172	-8.765249	0.000774	7.738600	1.310954	-0.015480
1900	9.4950e-01	1.0063	-8.804163	0.000389	3.890678	0.659099	-0.007783
1901	9.5000e-01	0.9953	-8.859754	0.000556	5.558111	0.941569	-0.011118
1902	9.5050e-01	0.9851	-8.895675	0.000359	3.591395	0.608399	-0.007184
1903	9.5100e-01	0.9753	-8.967088	0.000714	7.140035	1.209555	-0.014283
1904	9.5150e-01	0.9650	-9.009851	0.000428	4.275470	0.724284	-0.008553
1905	9.5200e-01	0.9555	-9.049192	0.000393	3.933432	0.666341	-0.007868
1906	9.5250e-01	0.9456	-9.079981	0.000308	3.078338	0.521485	-0.006158
1907	9.5300e-01	0.9343	-9.119323	0.000393	3.933432	0.666341	-0.007868
1908	9.5350e-01	0.9281	-9.180046	0.000607	6.071167	1.028484	-0.012145
1909	9.5400e-01	0.9149	-9.225801	0.000457	4.574753	0.774984	-0.009151
1910	9.5450e-01	0.9064	-9.292939	0.000671	6.712488	1.137126	-0.013427
1911	9.5500e-01	0.8955	-9.328859	0.000359	3.591395	0.608399	-0.007184
1912	9.5550e-01	0.8849	-9.403266	0.000744	7.439318	1.260255	-0.014881
1913	9.5600e-01	0.8746	-9.434055	0.000308	3.078338	0.521485	-0.006158
1914	9.5650e-01	0.8668	-9.470403	0.000363	3.634149	0.615642	-0.007270
1915	9.5700e-01	0.8543	-9.515731	0.000453	4.531998	0.767741	-0.009066
1916	9.5750e-01	0.8450	-9.566191	0.000505	5.045054	0.854655	-0.010092
1917	9.5800e-01	0.8389	-9.623921	0.000577	5.771884	0.977784	-0.011546
1918	9.5850e-01	0.8250	-9.650861	0.000269	2.693546	0.456299	-0.005388
1919	9.5900e-01	0.8166	-9.720136	0.000693	6.926261	1.173340	-0.013855
1920	9.5950e-01	0.8074	-9.770596	0.000505	5.045054	0.854655	-0.010092
1921	9.6000e-01	0.7968	-9.806517	0.000359	3.591395	0.608399	-0.007184
1922	9.6050e-01	0.7848	-9.850990	0.000445	4.446489	0.753256	-0.008895
1923	9.6100e-01	0.7758	-9.892042	0.000410	4.104451	0.695313	-0.008210
1924	9.6150e-01	0.7655	-9.949343	0.000573	5.729130	0.970541	-0.011460
1925	9.6200e-01	0.7572	-10.010494	0.000611	6.113922	1.035726	-0.012230
1926	9.6250e-01	0.7452	-10.056677	0.000462	4.617507	0.782227	-0.009237
1927	9.6300e-01	0.7342	-10.096019	0.000393	3.933432	0.666341	-0.007868
1928	9.6350e-01	0.7237	-10.132367	0.000363	3.634149	0.615642	-0.007270
1929	9.6400e-01	0.7133	-10.188386	0.000560	5.600866	0.948812	-0.011204
1930	9.6450e-01	0.7037	-10.229438	0.000410	4.104451	0.695313	-0.008210
1931	9.6500e-01	0.6956	-10.288878	0.000594	5.942903	1.006755	-0.011888
1932	9.6550e-01	0.6860	-10.351311	0.000624	6.242186	1.057455	-0.012487
1933	9.6600e-01	0.6754	-10.379107	0.000278	2.779055	0.470785	-0.005559
1934	9.6650e-01	0.6655	-10.433843	0.000547	5.472601	0.927084	-0.010947
1935	9.6700e-01	0.6554	-10.486441	0.000526	5.258828	0.890870	-0.010520
1936	9.6750e-01	0.6462	-10.538611	0.000522	5.216073	0.883627	-0.010434
1937	9.6800e-01	0.6380	-10.600189	0.000616	6.156677	1.042969	-0.012316
1938	9.6850e-01	0.6278	-10.628412	0.000282	2.821810	0.478028	-0.005645
1939	9.6900e-01	0.6163	-10.664761	0.000363	3.634149	0.615642	-0.007270
1940	9.6950e-01	0.6050	-10.740878	0.000761	7.610336	1.289226	-0.015223
1941	9.7000e-01	0.5967	-10.797752	0.000569	5.686375	0.963298	-0.011375
1942	9.7050e-01	0.5824	-10.855481	0.000577	5.771884	0.977784	-0.011546
1943	9.7100e-01	0.5781	-10.884132	0.000286	2.864565	0.485270	-0.005730
1944	9.7150e-01	0.5643	-10.926467	0.000423	4.232715	0.717041	-0.008467
1945	9.7200e-01	0.5538	-10.975216	0.000487	4.874036	0.825684	-0.009750
1946	9.7250e-01	0.5414	-11.023966	0.000487	4.874036	0.825684	-0.009750
1947	9.7300e-01	0.5360	-11.078274	0.000543	5.429847	0.919841	-0.010862
1948	9.7350e-01	0.5258	-11.146694	0.000684	6.840752	1.158855	-0.013684
1949	9.7400e-01	0.5128	-11.196726	0.000500	5.002300	0.847413	-0.010006
1950	9.7450e-01	0.5058	-11.218535	0.000218	2.180490	0.369385	-0.004362
1951	9.7500e-01	0.4929	-11.247614	0.000291	2.907320	0.492513	-0.005816
1952	9.7550e-01	0.4832	-11.320310	0.000727	7.268299	1.231283	-0.014539
1953	9.7600e-01	0.4752	-11.353237	0.000329	3.292112	0.557699	-0.006585
1954	9.7650e-01	0.4630	-11.427644	0.000744	7.439318	1.260255	-0.014881
1955	9.7700e-01	0.4552	-11.454157	0.000265	2.650791	0.449056	-0.005303
1956	9.7750e-01	0.4458	-11.525998	0.000718	7.182789	1.216797	-0.014368
1957	9.7800e-01	0.4311	-11.575175	0.000492	4.916790	0.832927	-0.009835
1958	9.7850e-01	0.4236	-11.619648	0.000445	4.446489	0.753256	-0.008895
1959	9.7900e-01	0.4171	-11.691061	0.000714	7.140035	1.209555	-0.014283
1960	9.7950e-01	0.4054	-11.741093	0.000500	5.002300	0.847413	-0.010006
1961	9.8000e-01	0.3936	-11.761192	0.000201	2.009471	0.340414	-0.004020
1962	9.8050e-01	0.3824	-11.812934	0.000517	5.173319	0.876384	-0.010349
1963	9.8100e-01	0.3745	-11.856125	0.000432	4.318225	0.731527	-0.008638
1964	9.8150e-01	0.3638	-11.917703	0.000616	6.156677	1.042969	-0.012316
1965	9.8200e-01	0.3560	-11.972011	0.000543	5.429847	0.919841	-0.010862
1966	9.8250e-01	0.3471	-12.031023	0.000590	5.900148	0.999512	-0.011802
1967	9.8300e-01	0.3342	-12.067799	0.000368	3.676904	0.622884	-0.007355
1968	9.8350e-01	0.3224	-12.105858	0.000381	3.805168	0.644613	-0.007612
1969	9.8400e-01	0.3129	-12.156317	0.000505	5.045054	0.854655	-0.010092
1970	9.8450e-01	0.3035	-12.196514	0.000402	4.018942	0.680827	-0.008039
1971	9.8500e-01	0.2937	-12.260230	0.000637	6.370450	1.079183	-0.012743
1972	9.8550e-01	0.2849	-12.315822	0.000556	5.558111	0.941569	-0.011118
1973	9.8600e-01	0.2746	-12.385525	0.000697	6.969016	1.180583	-0.013941
1974	9.8650e-01	0.2659	-12.411610	0.000261	2.608037	0.441813	-0.005217
1975	9.8700e-01	0.2560	-12.465918	0.000543	5.429847	0.919841	-0.010862
1976	9.8750e-01	0.2465	-12.515523	0.000496	4.959545	0.840170	-0.009921
1977	9.8800e-01	0.2337	-12.574963	0.000594	5.942903	1.006755	-0.011888
1978	9.8850e-01	0.2273	-12.601903	0.000269	2.693546	0.456299	-0.005388
1979	9.8900e-01	0.2126	-12.675455	0.000735	7.353808	1.245769	-0.014710
1980	9.8950e-01	0.2060	-12.734894	0.000594	5.942903	1.006755	-0.011888
1981	9.9000e-01	0.1968	-12.762690	0.000278	2.779055	0.470785	-0.005559
1982	9.9050e-01	0.1846	-12.813578	0.000509	5.087809	0.861898	-0.010177
1983	9.9100e-01	0.1742	-12.856340	0.000428	4.275470	0.724284	-0.008553
1984	9.9150e-01	0.1669	-12.913214	0.000569	5.686375	0.963298	-0.011375
1985	9.9200e-01	0.1550	-12.969233	0.000560	5.600866	0.948812	-0.011204
1986	9.9250e-01	0.1422	-13.004298	0.000351	3.505885	0.593913	-0.007013
1987	9.9300e-01	0.1337	-13.063311	0.000590	5.900148	0.999512	-0.011802
1988	9.9350e-01	0.1212	-13.118902	0.000556	5.558111	0.941569	-0.011118
1989	9.9400e-01	0.1160	-13.171928	0.000530	5.301583	0.898112	-0.010605
1990	9.9450e-01	0.1051	-13.232223	0.000603	6.028413	1.021241	-0.012059
1991	9.9500e-01	0.0946	-13.266005	0.000338	3.377621	0.572185	-0.006756
1992	9.9550e-01	0.0842	-13.351103	0.000851	8.508185	1.441326	-0.017019
1993	9.9600e-01	0.0758	-13.366069	0.000150	1.496414	0.253499	-0.002993
1994	9.9650e-01	0.0669	-13.419095	0.000530	5.301583	0.898112	-0.010605
1995	9.9700e-01	0.0548	-13.471265	0.000522	5.216073	0.883627	-0.010434
1996	9.9750e-01	0.0468	-13.516593	0.000453	4.531998	0.767741	-0.009066
1997	9.9800e-01	0.0381	-13.564488	0.000479	4.788526	0.811198	-0.009579
1998	9.9850e-01	0.0250	-13.615803	0.000513	5.130564	0.869141	-0.010263
1999	9.9900e-01	0.0148	-13.670539	0.000547	5.472601	0.927084	-0.010947
2000	9.9950e-01	0.0040	-13.727413	0.000569	5.686375	0.963298	-0.011375
2001	1.0000e+00	-0.0048	-13.784715	0.000569	5.686375	0.963298	-0.011460

PMax (uC/cm2):	3.97e+01
Pr (uC/cm2):	6.07e+00
-Pr (uC/cm2):	0.00e+00
PLoss (uC/cm2):	0.00e+00
C (Max-Eff) (nF):	3.97e-01
K (Eff):	6.73e+02
Vert. (+/-Pr) Shift (uC/cm2):	3.03e+00
Offset (uC/cm2):	1.99e+01

A (Loop Area - uC/cm2·Volts):	-5.65e-02



Hysteresis Version: 5.48.1 - Radiant Technologies, Inc., 1999 - 9/12/24

