»»»»»»»»»»»»»»»»»»»»»»»»»»»»»»»»»»»» Hysteresis ««««««««««««««««««««««««««««««««««««
»»»  Executed Version:	5.48.1
»»»  Vision Version:	5.48.4 (R)
»»»  Vision Compiled:	9/18/24
»»»  Driver Version:	5.47.0
»»»  Windows Version:	Windows 8 or 8.1
»»»  Processor Information:	x86 (AMD or Intel) - 32 Processors
»»»  Tester Name:	PMF21124-494 (100V)
»»»  Tester S/N:	PMF21124-494
»»»  Internal Amp Type:	100V RevK 270k
»»»  Internal Amp S/N:	iAB2-596/K     
»»»  Execution Count:	1
»»»»»»»»»»»»»»»»»»»»»»»»»»»»»»»»»»»»»»»»»»««««««««««««««««««««««««««««««««««««««««««

Stored:	6/30/2025 - 14:52:42
Configured:	06/30/25 10:19:58 AM
Executed:	06/30/25 02:52:19 PM

»»»»»»»»»»»»»»»»»»»»»»»»»»»»»»»»»»» Sample Info ««««««««««««««««««««««««««««««««««««
Sample Name:	
Lot Name:	
Wafer Name:	
Die Row/Column:	0/0
Capacitor Number:	0
Sample Area (cm2):	1.00e-04
Sample Thickness (microns):	1.50e-01

Amplifier:	Internal

»»»»»»»»»»»»»»»»»»»»»»»»»»»»»»»»»»» Tester Info «««««««««««««««««««««««««««««««««««
Tester Name:	PMF21124-494 (100V)
Tester Serial Number:	PMF21124-494
Return Signal Amp. Level:	1.79 [Index: 2]

»»»»»»»»»»»»»»»»»»»»»»»»»»»»»»»» Hysteresis Info ««««««««««««««««««««««««««««««««««
Task Name:	Hyst-1804
Volts:	10.00
Field:	666.67 (kV/cm)
DCBias:	0.00
DCField:	0.00 (kV/cm)
Hysteresis Period (ms):	1.00e+00
Preset:	Enabled
Preset Delay (ms):	1.00e+03
Profile:	Standard Monopolar

»»»»»»»»»»»»»»»»»»»»»»»»»»»»»»»»»»»»»» Data «««««««««««««««««««««««««««««««««««««««
Points:	2001

Valid Data

Point	Time (ms)	Drive Voltage	Measured Polarization (uC/cm2)	Capacitance (uF)	Normalized Capacitance (uF/cm2)	Dielectric Constant	Instantaneous Current (mA)
   1	0.0000e+00	-0.0043	-20.244208	0.000680	6.797116	1.151463	0.013598
   2	5.0000e-04	0.0076	-20.176216	0.000680	6.797116	1.151463	0.013598
   3	1.0000e-03	0.0159	-20.126611	0.000496	4.958902	0.840061	0.009921
   4	1.5000e-03	0.0252	-20.064606	0.000620	6.198628	1.050076	0.012401
   5	2.0000e-03	0.0340	-20.026974	0.000376	3.761926	0.637287	0.007526
   6	2.5000e-03	0.0455	-20.001317	0.000256	2.564949	0.434514	0.005132
   7	3.0000e-03	0.0548	-19.933752	0.000675	6.754367	1.144221	0.013513
   8	3.5000e-03	0.0656	-19.871747	0.000620	6.198628	1.050076	0.012401
   9	4.0000e-03	0.0742	-19.812734	0.000590	5.899383	0.999383	0.011802
  10	4.5000e-03	0.0811	-19.757998	0.000547	5.471892	0.926964	0.010947
  11	5.0000e-03	0.0977	-19.723788	0.000342	3.419932	0.579352	0.006842
  12	5.5000e-03	0.1056	-19.688295	0.000355	3.548180	0.601078	0.007099
  13	6.0000e-03	0.1147	-19.624579	0.000637	6.369624	1.079044	0.012743
  14	6.5000e-03	0.1264	-19.574119	0.000504	5.044400	0.854545	0.010092
  15	7.0000e-03	0.1359	-19.522804	0.000513	5.129899	0.869028	0.010263
  16	7.5000e-03	0.1450	-19.452246	0.000705	7.053611	1.194914	0.014112
  17	8.0000e-03	0.1573	-19.433431	0.000188	1.880963	0.318644	0.003763
  18	8.5000e-03	0.1662	-19.388530	0.000449	4.488661	0.760400	0.008980
  19	9.0000e-03	0.1720	-19.300867	0.000876	8.763577	1.484590	0.017533
  20	9.5000e-03	0.1851	-19.263236	0.000376	3.761926	0.637287	0.007526
  21	1.0000e-02	0.1968	-19.214059	0.000492	4.916153	0.832819	0.009835
  22	1.0500e-02	0.2071	-19.137942	0.000761	7.609350	1.289059	0.015223
  23	1.1000e-02	0.2162	-19.113995	0.000239	2.393953	0.405547	0.004789
  24	1.1500e-02	0.2293	-19.058831	0.000551	5.514641	0.934205	0.011033
  25	1.2000e-02	0.2357	-19.007088	0.000517	5.172648	0.876270	0.010349
  26	1.2500e-02	0.2451	-18.945083	0.000620	6.198628	1.050076	0.012401
  27	1.3000e-02	0.2581	-18.892485	0.000526	5.258146	0.890754	0.010520
  28	1.3500e-02	0.2663	-18.845018	0.000475	4.745156	0.803851	0.009493
  29	1.4000e-02	0.2752	-18.784723	0.000603	6.027631	1.021108	0.012059
  30	1.4500e-02	0.2842	-18.735546	0.000492	4.916153	0.832819	0.009835
  31	1.5000e-02	0.2954	-18.687652	0.000479	4.787905	0.811093	0.009579
  32	1.5500e-02	0.3072	-18.630350	0.000573	5.728387	0.970415	0.011460
  33	1.6000e-02	0.3188	-18.601699	0.000286	2.864193	0.485207	0.005730
  34	1.6500e-02	0.3265	-18.555516	0.000462	4.616909	0.782126	0.009237
  35	1.7000e-02	0.3345	-18.480681	0.000748	7.481102	1.267333	0.014967
  36	1.7500e-02	0.3457	-18.453741	0.000269	2.693197	0.456240	0.005388
  37	1.8000e-02	0.3557	-18.378051	0.000757	7.566600	1.281817	0.015138
  38	1.8500e-02	0.3645	-18.327592	0.000504	5.044400	0.854545	0.010092
  39	1.9000e-02	0.3734	-18.282691	0.000449	4.488661	0.760400	0.008980
  40	1.9500e-02	0.3848	-18.225389	0.000573	5.728387	0.970415	0.011460
  41	2.0000e-02	0.3958	-18.171936	0.000534	5.343644	0.905238	0.010691
  42	2.0500e-02	0.4057	-18.124042	0.000479	4.787905	0.811093	0.009579
  43	2.1000e-02	0.4173	-18.073155	0.000509	5.087149	0.861786	0.010177
  44	2.1500e-02	0.4253	-18.040227	0.000329	3.291685	0.557627	0.006585
  45	2.2000e-02	0.4356	-17.969242	0.000710	7.096360	1.202156	0.014197
  46	2.2500e-02	0.4456	-17.935887	0.000333	3.334434	0.564868	0.006671
  47	2.3000e-02	0.4565	-17.884999	0.000509	5.087149	0.861786	0.010177
  48	2.3500e-02	0.4691	-17.819145	0.000658	6.583370	1.115253	0.013171
  49	2.4000e-02	0.4778	-17.765692	0.000534	5.343644	0.905238	0.010691
  50	2.4500e-02	0.4852	-17.716943	0.000487	4.873404	0.825577	0.009750
  51	2.5000e-02	0.4950	-17.667766	0.000492	4.916153	0.832819	0.009835
  52	2.5500e-02	0.5066	-17.605760	0.000620	6.198628	1.050076	0.012401
  53	2.6000e-02	0.5162	-17.555300	0.000504	5.044400	0.854545	0.010092
  54	2.6500e-02	0.5245	-17.488163	0.000671	6.711617	1.136979	0.013427
  55	2.7000e-02	0.5363	-17.437703	0.000504	5.044400	0.854545	0.010092
  56	2.7500e-02	0.5460	-17.427868	0.000098	0.983231	0.166564	0.001967
  57	2.8000e-02	0.5546	-17.358593	0.000693	6.925363	1.173188	0.013855
  58	2.8500e-02	0.5634	-17.306422	0.000522	5.215397	0.883512	0.010434
  59	2.9000e-02	0.5746	-17.270074	0.000363	3.633678	0.615562	0.007270
  60	2.9500e-02	0.5875	-17.181128	0.000889	8.891824	1.506316	0.017789
  61	3.0000e-02	0.5938	-17.170865	0.000103	1.025980	0.173806	0.002053
  62	3.0500e-02	0.6055	-17.107149	0.000637	6.369624	1.079044	0.012743
  63	3.1000e-02	0.6149	-17.048137	0.000590	5.899383	0.999383	0.011802
  64	3.1500e-02	0.6265	-17.003664	0.000445	4.445912	0.753158	0.008895
  65	3.2000e-02	0.6393	-16.965605	0.000380	3.804675	0.644529	0.007612
  66	3.2500e-02	0.6443	-16.888633	0.000769	7.694848	1.303543	0.015395
  67	3.3000e-02	0.6554	-16.831758	0.000569	5.685638	0.963173	0.011375
  68	3.3500e-02	0.6665	-16.793700	0.000380	3.804675	0.644529	0.007612
  69	3.4000e-02	0.6763	-16.743240	0.000504	5.044400	0.854545	0.010092
  70	3.4500e-02	0.6877	-16.674820	0.000684	6.839865	1.158704	0.013684
  71	3.5000e-02	0.6934	-16.632485	0.000423	4.232166	0.716948	0.008467
  72	3.5500e-02	0.7065	-16.588012	0.000445	4.445912	0.753158	0.008895
  73	3.6000e-02	0.7142	-16.534559	0.000534	5.343644	0.905238	0.010691
  74	3.6500e-02	0.7263	-16.489658	0.000449	4.488661	0.760400	0.008980
  75	3.7000e-02	0.7358	-16.434495	0.000551	5.514641	0.934205	0.011033
  76	3.7500e-02	0.7464	-16.370778	0.000637	6.369624	1.079044	0.012743
  77	3.8000e-02	0.7559	-16.340845	0.000299	2.992441	0.506933	0.005987
  78	3.8500e-02	0.7690	-16.289102	0.000517	5.172648	0.876270	0.010349
  79	3.9000e-02	0.7776	-16.226241	0.000628	6.284126	1.064560	0.012572
  80	3.9500e-02	0.7877	-16.189465	0.000368	3.676427	0.622804	0.007355
  81	4.0000e-02	0.7992	-16.130025	0.000594	5.942133	1.006625	0.011888
  82	4.0500e-02	0.8060	-16.083414	0.000466	4.659658	0.789367	0.009322
  83	4.1000e-02	0.8195	-16.015849	0.000675	6.754367	1.144221	0.013513
  84	4.1500e-02	0.8270	-15.976936	0.000389	3.890173	0.659013	0.007783
  85	4.2000e-02	0.8364	-15.921772	0.000551	5.514641	0.934205	0.011033
  86	4.2500e-02	0.8441	-15.872167	0.000496	4.958902	0.840061	0.009921
  87	4.3000e-02	0.8553	-15.819142	0.000530	5.300895	0.897996	0.010605
  88	4.3500e-02	0.8656	-15.746018	0.000731	7.310106	1.238365	0.014625
  89	4.4000e-02	0.8769	-15.722071	0.000239	2.393953	0.405547	0.004789
  90	4.4500e-02	0.8883	-15.663914	0.000581	5.813885	0.984899	0.011631
  91	4.5000e-02	0.8951	-15.610033	0.000539	5.386394	0.912480	0.010776
  92	4.5500e-02	0.9052	-15.571547	0.000385	3.847424	0.651771	0.007697
  93	4.6000e-02	0.9171	-15.515955	0.000556	5.557390	0.941447	0.011118
  94	4.6500e-02	0.9268	-15.468917	0.000470	4.702407	0.796609	0.009408
  95	4.7000e-02	0.9357	-15.419312	0.000496	4.958902	0.840061	0.009921
  96	4.7500e-02	0.9473	-15.362010	0.000573	5.728387	0.970415	0.011460
  97	4.8000e-02	0.9578	-15.310268	0.000517	5.172648	0.876270	0.010349
  98	4.8500e-02	0.9667	-15.252966	0.000573	5.728387	0.970415	0.011460
  99	4.9000e-02	0.9771	-15.212769	0.000402	4.018421	0.680739	0.008039
 100	4.9500e-02	0.9869	-15.167441	0.000453	4.531410	0.767642	0.009066
 101	5.0000e-02	0.9957	-15.105435	0.000620	6.198628	1.050076	0.012401
 102	5.0500e-02	1.0074	-15.074646	0.000308	3.077939	0.521417	0.006158
 103	5.1000e-02	1.0172	-15.008792	0.000658	6.583370	1.115253	0.013171
 104	5.1500e-02	1.0281	-14.962181	0.000466	4.659658	0.789367	0.009322
 105	5.2000e-02	1.0345	-14.913004	0.000492	4.916153	0.832819	0.009835
 106	5.2500e-02	1.0472	-14.836459	0.000765	7.652099	1.296301	0.015309
 107	5.3000e-02	1.0590	-14.816788	0.000197	1.966461	0.333128	0.003934
 108	5.3500e-02	1.0664	-14.762052	0.000547	5.471892	0.926964	0.010947
 109	5.4000e-02	1.0755	-14.710737	0.000513	5.129899	0.869028	0.010263
 110	5.4500e-02	1.0880	-14.667547	0.000432	4.317665	0.731432	0.008638
 111	5.5000e-02	1.0953	-14.617942	0.000496	4.958902	0.840061	0.009921
 112	5.5500e-02	1.1086	-14.548239	0.000697	6.968112	1.180430	0.013941
 113	5.6000e-02	1.1191	-14.505905	0.000423	4.232166	0.716948	0.008467
 114	5.6500e-02	1.1259	-14.445609	0.000603	6.027631	1.021108	0.012059
 115	5.7000e-02	1.1372	-14.396005	0.000496	4.958902	0.840061	0.009921
 116	5.7500e-02	1.1450	-14.354098	0.000419	4.189417	0.709706	0.008381
 117	5.8000e-02	1.1556	-14.296368	0.000577	5.771136	0.977657	0.011546
 118	5.8500e-02	1.1691	-14.240349	0.000560	5.600139	0.948689	0.011204
 119	5.9000e-02	1.1763	-14.216830	0.000235	2.351204	0.398305	0.004704
 120	5.9500e-02	1.1861	-14.139857	0.000769	7.694848	1.303543	0.015395
 121	6.0000e-02	1.1992	-14.097095	0.000427	4.274916	0.724190	0.008553
 122	6.0500e-02	1.2073	-14.057326	0.000398	3.975671	0.673497	0.007954
 123	6.1000e-02	1.2166	-14.010714	0.000466	4.659658	0.789367	0.009322
 124	6.1500e-02	1.2268	-13.955123	0.000556	5.557390	0.941447	0.011118
 125	6.2000e-02	1.2344	-13.905519	0.000496	4.958902	0.840061	0.009921
 126	6.2500e-02	1.2450	-13.849072	0.000564	5.642889	0.955931	0.011289
 127	6.3000e-02	1.2565	-13.817000	0.000321	3.206187	0.543143	0.006414
 128	6.3500e-02	1.2676	-13.744304	0.000727	7.267356	1.231124	0.014539
 129	6.4000e-02	1.2737	-13.696410	0.000479	4.787905	0.811093	0.009579
 130	6.4500e-02	1.2862	-13.650226	0.000462	4.616909	0.782126	0.009237
 131	6.5000e-02	1.2943	-13.605326	0.000449	4.488661	0.760400	0.008980
 132	6.5500e-02	1.3054	-13.533912	0.000714	7.139109	1.209398	0.014283
 133	6.6000e-02	1.3155	-13.542465	-0.000085	-0.854983	-0.144838	-0.001711
 134	6.6500e-02	1.3266	-13.448815	0.000936	9.362065	1.585977	0.018730
 135	6.7000e-02	1.3358	-13.396217	0.000526	5.258146	0.890754	0.010520
 136	6.7500e-02	1.3456	-13.337205	0.000590	5.899383	0.999383	0.011802
 137	6.8000e-02	1.3559	-13.311120	0.000261	2.607698	0.441756	0.005217
 138	6.8500e-02	1.3649	-13.243127	0.000680	6.797116	1.151463	0.013598
 139	6.9000e-02	1.3756	-13.195233	0.000479	4.787905	0.811093	0.009579
 140	6.9500e-02	1.3850	-13.152898	0.000423	4.232166	0.716948	0.008467
 141	7.0000e-02	1.3968	-13.106287	0.000466	4.659658	0.789367	0.009322
 142	7.0500e-02	1.4061	-13.066090	0.000402	4.018421	0.680739	0.008039
 143	7.1000e-02	1.4175	-13.010927	0.000551	5.514641	0.934205	0.011033
 144	7.1500e-02	1.4253	-12.951059	0.000598	5.984882	1.013866	0.011974
 145	7.2000e-02	1.4371	-12.912145	0.000389	3.890173	0.659013	0.007783
 146	7.2500e-02	1.4444	-12.848001	0.000641	6.412373	1.086285	0.012829
 147	7.3000e-02	1.4541	-12.801390	0.000466	4.659658	0.789367	0.009322
 148	7.3500e-02	1.4667	-12.763759	0.000376	3.761926	0.637287	0.007526
 149	7.4000e-02	1.4758	-12.706885	0.000569	5.685638	0.963173	0.011375
 150	7.4500e-02	1.4874	-12.645735	0.000611	6.113129	1.035592	0.012230
 151	7.5000e-02	1.4984	-12.605538	0.000402	4.018421	0.680739	0.008039
 152	7.5500e-02	1.5076	-12.578597	0.000269	2.693197	0.456240	0.005388
 153	7.6000e-02	1.5164	-12.510177	0.000684	6.839865	1.158704	0.013684
 154	7.6500e-02	1.5257	-12.468698	0.000415	4.146668	0.702465	0.008296
 155	7.7000e-02	1.5357	-12.407120	0.000616	6.155878	1.042834	0.012316
 156	7.7500e-02	1.5457	-12.368633	0.000385	3.847424	0.651771	0.007697
 157	7.8000e-02	1.5579	-12.304917	0.000637	6.369624	1.079044	0.012743
 158	7.8500e-02	1.5660	-12.261727	0.000432	4.317665	0.731432	0.008638
 159	7.9000e-02	1.5759	-12.215971	0.000457	4.574160	0.774884	0.009151
 160	7.9500e-02	1.5871	-12.148406	0.000675	6.754367	1.144221	0.013513
 161	8.0000e-02	1.5956	-12.105644	0.000427	4.274916	0.724190	0.008553
 162	8.0500e-02	1.6074	-12.076565	0.000291	2.906943	0.492449	0.005816
 163	8.1000e-02	1.6205	-12.003869	0.000727	7.267356	1.231124	0.014539
 164	8.1500e-02	1.6262	-11.964955	0.000389	3.890173	0.659013	0.007783
 165	8.2000e-02	1.6379	-11.927752	0.000372	3.719177	0.630046	0.007441
 166	8.2500e-02	1.6469	-11.852917	0.000748	7.481102	1.267333	0.014967
 167	8.3000e-02	1.6576	-11.825549	0.000274	2.735946	0.463482	0.005474
 168	8.3500e-02	1.6666	-11.760978	0.000646	6.455122	1.093527	0.012914
 169	8.4000e-02	1.6768	-11.733182	0.000278	2.778695	0.470724	0.005559
 170	8.4500e-02	1.6840	-11.646802	0.000864	8.635329	1.462864	0.017276
 171	8.5000e-02	1.6992	-11.617296	0.000295	2.949692	0.499691	0.005901
 172	8.5500e-02	1.7073	-11.559139	0.000581	5.813885	0.984899	0.011631
 173	8.6000e-02	1.7162	-11.518942	0.000402	4.018421	0.680739	0.008039
 174	8.6500e-02	1.7272	-11.459502	0.000594	5.942133	1.006625	0.011888
 175	8.7000e-02	1.7346	-11.427003	0.000325	3.248936	0.550385	0.006500
 176	8.7500e-02	1.7450	-11.378253	0.000487	4.873404	0.825577	0.009750
 177	8.8000e-02	1.7558	-11.323090	0.000551	5.514641	0.934205	0.011033
 178	8.8500e-02	1.7664	-11.268354	0.000547	5.471892	0.926964	0.010947
 179	8.9000e-02	1.7758	-11.229867	0.000385	3.847424	0.651771	0.007697
 180	8.9500e-02	1.7865	-11.184967	0.000449	4.488661	0.760400	0.008980
 181	9.0000e-02	1.7984	-11.127237	0.000577	5.771136	0.977657	0.011546
 182	9.0500e-02	1.8054	-11.075067	0.000522	5.215397	0.883512	0.010434
 183	9.1000e-02	1.8167	-11.036153	0.000389	3.890173	0.659013	0.007783
 184	9.1500e-02	1.8259	-10.979707	0.000564	5.642889	0.955931	0.011289
 185	9.2000e-02	1.8349	-10.929247	0.000504	5.044400	0.854545	0.010092
 186	9.2500e-02	1.8457	-10.893326	0.000359	3.590929	0.608320	0.007184
 187	9.3000e-02	1.8576	-10.853129	0.000402	4.018421	0.680739	0.008039
 188	9.3500e-02	1.8652	-10.787275	0.000658	6.583370	1.115253	0.013171
 189	9.4000e-02	1.8762	-10.732967	0.000543	5.429143	0.919722	0.010862
 190	9.4500e-02	1.8828	-10.679514	0.000534	5.343644	0.905238	0.010691
 191	9.5000e-02	1.8949	-10.644448	0.000351	3.505431	0.593836	0.007013
 192	9.5500e-02	1.9055	-10.595271	0.000492	4.916153	0.832819	0.009835
 193	9.6000e-02	1.9171	-10.541818	0.000534	5.343644	0.905238	0.010691
 194	9.6500e-02	1.9253	-10.486227	0.000556	5.557390	0.941447	0.011118
 195	9.7000e-02	1.9354	-10.435767	0.000504	5.044400	0.854545	0.010092
 196	9.7500e-02	1.9470	-10.386163	0.000496	4.958902	0.840061	0.009921
 197	9.8000e-02	1.9559	-10.351953	0.000342	3.419932	0.579352	0.006842
 198	9.8500e-02	1.9649	-10.291657	0.000603	6.027631	1.021108	0.012059
 199	9.9000e-02	1.9736	-10.251888	0.000398	3.975671	0.673497	0.007954
 200	9.9500e-02	1.9898	-10.218961	0.000329	3.291685	0.557627	0.006585
 201	1.0000e-01	1.9958	-10.167646	0.000513	5.129899	0.869028	0.010263
 202	1.0050e-01	2.0058	-10.113765	0.000539	5.386394	0.912480	0.010776
 203	1.0100e-01	2.0152	-10.073996	0.000398	3.975671	0.673497	0.007954
 204	1.0150e-01	2.0280	-10.020115	0.000539	5.386394	0.912480	0.010776
 205	1.0200e-01	2.0361	-9.961103	0.000590	5.899383	0.999383	0.011802
 206	1.0250e-01	2.0447	-9.911926	0.000492	4.916153	0.832819	0.009835
 207	1.0300e-01	2.0541	-9.855907	0.000560	5.600139	0.948689	0.011204
 208	1.0350e-01	2.0647	-9.802027	0.000539	5.386394	0.912480	0.010776
 209	1.0400e-01	2.0764	-9.791764	0.000103	1.025980	0.173806	0.002053
 210	1.0450e-01	2.0879	-9.730613	0.000611	6.113129	1.035592	0.012230
 211	1.0500e-01	2.0962	-9.686140	0.000445	4.445912	0.753158	0.008895
 212	1.0550e-01	2.1045	-9.639101	0.000470	4.702407	0.796609	0.009408
 213	1.0600e-01	2.1179	-9.577951	0.000611	6.113129	1.035592	0.012230
 214	1.0650e-01	2.1233	-9.530484	0.000475	4.745156	0.803851	0.009493
 215	1.0700e-01	2.1365	-9.483873	0.000466	4.659658	0.789367	0.009322
 216	1.0750e-01	2.1460	-9.438973	0.000449	4.488661	0.760400	0.008980
 217	1.0800e-01	2.1540	-9.379960	0.000590	5.899383	0.999383	0.011802
 218	1.0850e-01	2.1652	-9.334632	0.000453	4.531410	0.767642	0.009066
 219	1.0900e-01	2.1782	-9.300422	0.000342	3.419932	0.579352	0.006842
 220	1.0950e-01	2.1869	-9.252956	0.000475	4.745156	0.803851	0.009493
 221	1.1000e-01	2.1976	-9.210193	0.000427	4.274916	0.724190	0.008553
 222	1.1050e-01	2.2073	-9.160161	0.000500	5.001651	0.847303	0.010006
 223	1.1100e-01	2.2156	-9.119964	0.000402	4.018421	0.680739	0.008039
 224	1.1150e-01	2.2287	-9.066083	0.000539	5.386394	0.912480	0.010776
 225	1.1200e-01	2.2357	-9.004933	0.000611	6.113129	1.035592	0.012230
 226	1.1250e-01	2.2461	-8.966874	0.000380	3.804675	0.644529	0.007612
 227	1.1300e-01	2.2595	-8.917270	0.000496	4.958902	0.840061	0.009921
 228	1.1350e-01	2.2668	-8.876218	0.000410	4.103919	0.695223	0.008210
 229	1.1400e-01	2.2772	-8.843718	0.000325	3.248936	0.550385	0.006500
 230	1.1450e-01	2.2882	-8.768884	0.000748	7.481102	1.267333	0.014967
 231	1.1500e-01	2.2975	-8.727404	0.000415	4.146668	0.702465	0.008296
 232	1.1550e-01	2.3068	-8.669675	0.000577	5.771136	0.977657	0.011546
 233	1.1600e-01	2.3151	-8.647438	0.000222	2.222956	0.376579	0.004447
 234	1.1650e-01	2.3265	-8.575597	0.000718	7.181858	1.216640	0.014368
 235	1.1700e-01	2.3383	-8.534545	0.000410	4.103919	0.695223	0.008210
 236	1.1750e-01	2.3453	-8.498197	0.000363	3.633678	0.615562	0.007270
 237	1.1800e-01	2.3593	-8.445172	0.000530	5.300895	0.897996	0.010605
 238	1.1850e-01	2.3648	-8.415238	0.000299	2.992441	0.506933	0.005987
 239	1.1900e-01	2.3763	-8.353232	0.000620	6.198628	1.050076	0.012401
 240	1.1950e-01	2.3882	-8.298496	0.000547	5.471892	0.926964	0.010947
 241	1.2000e-01	2.3956	-8.241194	0.000573	5.728387	0.970415	0.011460
 242	1.2050e-01	2.4051	-8.199715	0.000415	4.146668	0.702465	0.008296
 243	1.2100e-01	2.4142	-8.159945	0.000398	3.975671	0.673497	0.007954
 244	1.2150e-01	2.4239	-8.117183	0.000427	4.274916	0.724190	0.008553
 245	1.2200e-01	2.4380	-8.072710	0.000445	4.445912	0.753158	0.008895
 246	1.2250e-01	2.4458	-8.005573	0.000671	6.711617	1.136979	0.013427
 247	1.2300e-01	2.4557	-7.967086	0.000385	3.847424	0.651771	0.007697
 248	1.2350e-01	2.4683	-7.940146	0.000269	2.693197	0.456240	0.005388
 249	1.2400e-01	2.4777	-7.880706	0.000594	5.942133	1.006625	0.011888
 250	1.2450e-01	2.4908	-7.832812	0.000479	4.787905	0.811093	0.009579
 251	1.2500e-01	2.4994	-7.798602	0.000342	3.419932	0.579352	0.006842
 252	1.2550e-01	2.5064	-7.740445	0.000581	5.813885	0.984899	0.011631
 253	1.2600e-01	2.5192	-7.685281	0.000551	5.514641	0.934205	0.011033
 254	1.2650e-01	2.5296	-7.636532	0.000487	4.873404	0.825577	0.009750
 255	1.2700e-01	2.5366	-7.612585	0.000239	2.393953	0.405547	0.004789
 256	1.2750e-01	2.5464	-7.544165	0.000684	6.839865	1.158704	0.013684
 257	1.2800e-01	2.5589	-7.491140	0.000530	5.300895	0.897996	0.010605
 258	1.2850e-01	2.5648	-7.471469	0.000197	1.966461	0.333128	0.003934
 259	1.2900e-01	2.5758	-7.442390	0.000291	2.906943	0.492449	0.005816
 260	1.2950e-01	2.5867	-7.385944	0.000564	5.642889	0.955931	0.011289
 261	1.3000e-01	2.5999	-7.322228	0.000637	6.369624	1.079044	0.012743
 262	1.3050e-01	2.6071	-7.282458	0.000398	3.975671	0.673497	0.007954
 263	1.3100e-01	2.6154	-7.217032	0.000654	6.540621	1.108011	0.013085
 264	1.3150e-01	2.6240	-7.178545	0.000385	3.847424	0.651771	0.007697
 265	1.3200e-01	2.6363	-7.157164	0.000214	2.137458	0.362095	0.004276
 266	1.3250e-01	2.6479	-7.102856	0.000543	5.429143	0.919722	0.010862
 267	1.3300e-01	2.6572	-7.042988	0.000598	5.984882	1.013866	0.011974
 268	1.3350e-01	2.6668	-6.986969	0.000560	5.600139	0.948689	0.011204
 269	1.3400e-01	2.6764	-6.949766	0.000372	3.719177	0.630046	0.007441
 270	1.3450e-01	2.6868	-6.897596	0.000522	5.215397	0.883512	0.010434
 271	1.3500e-01	2.6933	-6.853550	0.000440	4.403163	0.745916	0.008809
 272	1.3550e-01	2.7078	-6.828748	0.000248	2.479451	0.420030	0.004960
 273	1.3600e-01	2.7174	-6.771446	0.000573	5.728387	0.970415	0.011460
 274	1.3650e-01	2.7271	-6.723552	0.000479	4.787905	0.811093	0.009579
 275	1.3700e-01	2.7356	-6.684638	0.000389	3.890173	0.659013	0.007783
 276	1.3750e-01	2.7464	-6.650001	0.000346	3.462682	0.586594	0.006928
 277	1.3800e-01	2.7592	-6.597403	0.000526	5.258146	0.890754	0.010520
 278	1.3850e-01	2.7655	-6.540529	0.000569	5.685638	0.963173	0.011375
 279	1.3900e-01	2.7790	-6.501187	0.000393	3.932922	0.666255	0.007868
 280	1.3950e-01	2.7872	-6.451155	0.000500	5.001651	0.847303	0.010006
 281	1.4000e-01	2.7965	-6.407109	0.000440	4.403163	0.745916	0.008809
 282	1.4050e-01	2.8067	-6.349380	0.000577	5.771136	0.977657	0.011546
 283	1.4100e-01	2.8168	-6.286092	0.000633	6.326875	1.071802	0.012658
 284	1.4150e-01	2.8262	-6.268131	0.000180	1.795465	0.304160	0.003592
 285	1.4200e-01	2.8365	-6.236915	0.000312	3.120688	0.528659	0.006243
 286	1.4250e-01	2.8484	-6.169350	0.000675	6.754367	1.144221	0.013513
 287	1.4300e-01	2.8564	-6.151390	0.000180	1.795465	0.304160	0.003592
 288	1.4350e-01	2.8653	-6.099647	0.000517	5.172648	0.876270	0.010349
 289	1.4400e-01	2.8751	-6.033793	0.000658	6.583370	1.115253	0.013171
 290	1.4450e-01	2.8868	-6.010273	0.000235	2.351204	0.398305	0.004704
 291	1.4500e-01	2.8955	-5.953827	0.000564	5.642889	0.955931	0.011289
 292	1.4550e-01	2.9071	-5.896953	0.000569	5.685638	0.963173	0.011375
 293	1.4600e-01	2.9153	-5.870012	0.000269	2.693197	0.456240	0.005388
 294	1.4650e-01	2.9256	-5.812710	0.000573	5.728387	0.970415	0.011460
 295	1.4700e-01	2.9358	-5.778500	0.000342	3.419932	0.579352	0.006842
 296	1.4750e-01	2.9484	-5.733172	0.000453	4.531410	0.767642	0.009066
 297	1.4800e-01	2.9565	-5.680147	0.000530	5.300895	0.897996	0.010605
 298	1.4850e-01	2.9666	-5.623700	0.000564	5.642889	0.955931	0.011289
 299	1.4900e-01	2.9791	-5.600608	0.000231	2.308454	0.391063	0.004618
 300	1.4950e-01	2.9865	-5.546300	0.000543	5.429143	0.919722	0.010862
 301	1.5000e-01	2.9982	-5.493274	0.000530	5.300895	0.897996	0.010605
 302	1.5050e-01	3.0084	-5.468900	0.000244	2.436702	0.412788	0.004875
 303	1.5100e-01	3.0144	-5.400480	0.000684	6.839865	1.158704	0.013684
 304	1.5150e-01	3.0276	-5.361566	0.000389	3.890173	0.659013	0.007783
 305	1.5200e-01	3.0345	-5.323935	0.000376	3.761926	0.637287	0.007526
 306	1.5250e-01	3.0467	-5.285876	0.000380	3.804675	0.644529	0.007612
 307	1.5300e-01	3.0549	-5.216601	0.000693	6.925363	1.173188	0.013855
 308	1.5350e-01	3.0665	-5.209331	0.000073	0.726736	0.123112	0.001454
 309	1.5400e-01	3.0780	-5.143049	0.000663	6.626119	1.122495	0.013256
 310	1.5450e-01	3.0884	-5.112260	0.000308	3.077939	0.521417	0.006158
 311	1.5500e-01	3.0939	-5.048972	0.000633	6.326875	1.071802	0.012658
 312	1.5550e-01	3.1052	-5.012623	0.000363	3.633678	0.615562	0.007270
 313	1.5600e-01	3.1186	-4.959170	0.000534	5.343644	0.905238	0.010691
 314	1.5650e-01	3.1294	-4.913414	0.000457	4.574160	0.774884	0.009151
 315	1.5700e-01	3.1357	-4.868086	0.000453	4.531410	0.767642	0.009066
 316	1.5750e-01	3.1458	-4.828745	0.000393	3.932922	0.666255	0.007868
 317	1.5800e-01	3.1564	-4.785982	0.000427	4.274916	0.724190	0.008553
 318	1.5850e-01	3.1676	-4.744075	0.000419	4.189417	0.709706	0.008381
 319	1.5900e-01	3.1773	-4.688484	0.000556	5.557390	0.941447	0.011118
 320	1.5950e-01	3.1839	-4.641872	0.000466	4.659658	0.789367	0.009322
 321	1.6000e-01	3.1969	-4.603386	0.000385	3.847424	0.651771	0.007697
 322	1.6050e-01	3.2068	-4.590557	0.000128	1.282475	0.217257	0.002566
 323	1.6100e-01	3.2135	-4.526841	0.000637	6.369624	1.079044	0.012743
 324	1.6150e-01	3.2269	-4.472533	0.000543	5.429143	0.919722	0.010862
 325	1.6200e-01	3.2375	-4.404968	0.000675	6.754367	1.144221	0.013513
 326	1.6250e-01	3.2454	-4.371613	0.000333	3.334434	0.564868	0.006671
 327	1.6300e-01	3.2565	-4.342535	0.000291	2.906943	0.492449	0.005816
 328	1.6350e-01	3.2635	-4.284378	0.000581	5.813885	0.984899	0.011631
 329	1.6400e-01	3.2751	-4.240760	0.000436	4.360414	0.738674	0.008724
 330	1.6450e-01	3.2881	-4.208260	0.000325	3.248936	0.550385	0.006500
 331	1.6500e-01	3.2966	-4.172340	0.000359	3.590929	0.608320	0.007184
 332	1.6550e-01	3.3057	-4.111189	0.000611	6.113129	1.035592	0.012230
 333	1.6600e-01	3.3167	-4.076124	0.000351	3.505431	0.593836	0.007013
 334	1.6650e-01	3.3261	-4.031223	0.000449	4.488661	0.760400	0.008980
 335	1.6700e-01	3.3392	-3.980764	0.000504	5.044400	0.854545	0.010092
 336	1.6750e-01	3.3466	-3.963659	0.000171	1.709966	0.289676	0.003421
 337	1.6800e-01	3.3588	-3.904219	0.000594	5.942133	1.006625	0.011888
 338	1.6850e-01	3.3696	-3.848627	0.000556	5.557390	0.941447	0.011118
 339	1.6900e-01	3.3778	-3.802016	0.000466	4.659658	0.789367	0.009322
 340	1.6950e-01	3.3868	-3.767379	0.000346	3.462682	0.586594	0.006928
 341	1.7000e-01	3.3962	-3.709222	0.000581	5.813885	0.984899	0.011631
 342	1.7050e-01	3.4082	-3.673729	0.000355	3.548180	0.601078	0.007099
 343	1.7100e-01	3.4149	-3.612151	0.000616	6.155878	1.042834	0.012316
 344	1.7150e-01	3.4241	-3.590342	0.000218	2.180207	0.369337	0.004362
 345	1.7200e-01	3.4383	-3.561691	0.000286	2.864193	0.485207	0.005730
 346	1.7250e-01	3.4473	-3.504817	0.000569	5.685638	0.963173	0.011375
 347	1.7300e-01	3.4573	-3.451791	0.000530	5.300895	0.897996	0.010605
 348	1.7350e-01	3.4686	-3.418864	0.000329	3.291685	0.557627	0.006585
 349	1.7400e-01	3.4760	-3.364556	0.000543	5.429143	0.919722	0.010862
 350	1.7450e-01	3.4866	-3.337615	0.000269	2.693197	0.456240	0.005388
 351	1.7500e-01	3.4955	-3.304260	0.000333	3.334434	0.564868	0.006671
 352	1.7550e-01	3.5075	-3.252945	0.000513	5.129899	0.869028	0.010263
 353	1.7600e-01	3.5181	-3.195216	0.000577	5.771136	0.977657	0.011546
 354	1.7650e-01	3.5271	-3.148605	0.000466	4.659658	0.789367	0.009322
 355	1.7700e-01	3.5382	-3.101566	0.000470	4.702407	0.796609	0.009408
 356	1.7750e-01	3.5461	-3.063935	0.000376	3.761926	0.637287	0.007526
 357	1.7800e-01	3.5559	-3.019462	0.000445	4.445912	0.753158	0.008895
 358	1.7850e-01	3.5672	-2.973706	0.000457	4.574160	0.774884	0.009151
 359	1.7900e-01	3.5760	-2.944200	0.000295	2.949692	0.499691	0.005901
 360	1.7950e-01	3.5883	-2.915121	0.000291	2.906943	0.492449	0.005816
 361	1.8000e-01	3.5962	-2.865945	0.000492	4.916153	0.832819	0.009835
 362	1.8050e-01	3.6069	-2.819761	0.000462	4.616909	0.782126	0.009237
 363	1.8100e-01	3.6157	-2.764170	0.000556	5.557390	0.941447	0.011118
 364	1.8150e-01	3.6271	-2.720552	0.000436	4.360414	0.738674	0.008724
 365	1.8200e-01	3.6366	-2.685914	0.000346	3.462682	0.586594	0.006928
 366	1.8250e-01	3.6476	-2.663250	0.000227	2.265705	0.383821	0.004533
 367	1.8300e-01	3.6540	-2.587561	0.000757	7.566600	1.281817	0.015138
 368	1.8350e-01	3.6682	-2.566607	0.000209	2.094709	0.354853	0.004191
 369	1.8400e-01	3.6787	-2.506739	0.000598	5.984882	1.013866	0.011974
 370	1.8450e-01	3.6896	-2.470391	0.000363	3.633678	0.615562	0.007270
 371	1.8500e-01	3.6971	-2.437036	0.000333	3.334434	0.564868	0.006671
 372	1.8550e-01	3.7065	-2.391281	0.000457	4.574160	0.774884	0.009151
 373	1.8600e-01	3.7178	-2.359636	0.000316	3.163437	0.535901	0.006329
 374	1.8650e-01	3.7257	-2.316018	0.000436	4.360414	0.738674	0.008724
 375	1.8700e-01	3.7372	-2.255723	0.000603	6.027631	1.021108	0.012059
 376	1.8750e-01	3.7476	-2.217237	0.000385	3.847424	0.651771	0.007697
 377	1.8800e-01	3.7555	-2.186448	0.000308	3.077939	0.521417	0.006158
 378	1.8850e-01	3.7671	-2.127436	0.000590	5.899383	0.999383	0.011802
 379	1.8900e-01	3.7753	-2.087239	0.000402	4.018421	0.680739	0.008039
 380	1.8950e-01	3.7885	-2.055167	0.000321	3.206187	0.543143	0.006414
 381	1.9000e-01	3.7960	-1.996155	0.000590	5.899383	0.999383	0.011802
 382	1.9050e-01	3.8071	-1.962372	0.000338	3.377183	0.572110	0.006756
 383	1.9100e-01	3.8135	-1.899084	0.000633	6.326875	1.071802	0.012658
 384	1.9150e-01	3.8271	-1.880696	0.000184	1.838214	0.311402	0.003678
 385	1.9200e-01	3.8361	-1.840499	0.000402	4.018421	0.680739	0.008039
 386	1.9250e-01	3.8454	-1.773790	0.000667	6.668868	1.129737	0.013342
 387	1.9300e-01	3.8562	-1.759678	0.000141	1.410722	0.238983	0.002822
 388	1.9350e-01	3.8643	-1.691258	0.000684	6.839865	1.158704	0.013684
 389	1.9400e-01	3.8773	-1.672442	0.000188	1.880963	0.318644	0.003763
 390	1.9450e-01	3.8886	-1.642936	0.000295	2.949692	0.499691	0.005901
 391	1.9500e-01	3.9008	-1.568957	0.000740	7.395604	1.252849	0.014796
 392	1.9550e-01	3.9085	-1.509517	0.000594	5.942133	1.006625	0.011888
 393	1.9600e-01	3.9163	-1.488136	0.000214	2.137458	0.362095	0.004276
 394	1.9650e-01	3.9264	-1.458202	0.000299	2.992441	0.506933	0.005987
 395	1.9700e-01	3.9377	-1.415867	0.000423	4.232166	0.716948	0.008467
 396	1.9750e-01	3.9471	-1.369256	0.000466	4.659658	0.789367	0.009322
 397	1.9800e-01	3.9584	-1.313665	0.000556	5.557390	0.941447	0.011118
 398	1.9850e-01	3.9651	-1.290145	0.000235	2.351204	0.398305	0.004704
 399	1.9900e-01	3.9754	-1.236265	0.000539	5.386394	0.912480	0.010776
 400	1.9950e-01	3.9868	-1.186660	0.000496	4.958902	0.840061	0.009921
 401	2.0000e-01	3.9972	-1.145180	0.000415	4.146668	0.702465	0.008296
 402	2.0050e-01	4.0044	-1.107977	0.000372	3.719177	0.630046	0.007441
 403	2.0100e-01	4.0155	-1.069491	0.000385	3.847424	0.651771	0.007697
 404	2.0150e-01	4.0265	-1.042978	0.000265	2.650448	0.448998	0.005303
 405	2.0200e-01	4.0372	-0.990808	0.000522	5.215397	0.883512	0.010434
 406	2.0250e-01	4.0448	-0.962157	0.000286	2.864193	0.485207	0.005730
 407	2.0300e-01	4.0552	-0.918111	0.000440	4.403163	0.745916	0.008809
 408	2.0350e-01	4.0680	-0.851402	0.000667	6.668868	1.129737	0.013342
 409	2.0400e-01	4.0784	-0.821468	0.000299	2.992441	0.506933	0.005987
 410	2.0450e-01	4.0857	-0.759462	0.000620	6.198628	1.050076	0.012401
 411	2.0500e-01	4.1016	-0.747061	0.000124	1.239726	0.210015	0.002480
 412	2.0550e-01	4.1072	-0.709858	0.000372	3.719177	0.630046	0.007441
 413	2.0600e-01	4.1199	-0.671799	0.000380	3.804675	0.644529	0.007612
 414	2.0650e-01	4.1266	-0.608511	0.000633	6.326875	1.071802	0.012658
 415	2.0700e-01	4.1357	-0.587130	0.000214	2.137458	0.362095	0.004276
 416	2.0750e-01	4.1458	-0.536242	0.000509	5.087149	0.861786	0.010177
 417	2.0800e-01	4.1595	-0.493907	0.000423	4.232166	0.716948	0.008467
 418	2.0850e-01	4.1705	-0.460125	0.000338	3.377183	0.572110	0.006756
 419	2.0900e-01	4.1791	-0.403251	0.000569	5.685638	0.963173	0.011375
 420	2.0950e-01	4.1879	-0.360916	0.000423	4.232166	0.716948	0.008467
 421	2.1000e-01	4.1972	-0.337824	0.000231	2.308454	0.391063	0.004618
 422	2.1050e-01	4.2084	-0.294634	0.000432	4.317665	0.731432	0.008638
 423	2.1100e-01	4.2163	-0.263417	0.000312	3.120688	0.528659	0.006243
 424	2.1150e-01	4.2261	-0.205688	0.000577	5.771136	0.977657	0.011546
 425	2.1200e-01	4.2358	-0.172333	0.000333	3.334434	0.564868	0.006671
 426	2.1250e-01	4.2476	-0.129570	0.000427	4.274916	0.724190	0.008553
 427	2.1300e-01	4.2566	-0.073124	0.000564	5.642889	0.955931	0.011289
 428	2.1350e-01	4.2688	-0.035065	0.000380	3.804675	0.644529	0.007612
 429	2.1400e-01	4.2780	0.015822	0.000509	5.087149	0.861786	0.010177
 430	2.1450e-01	4.2873	0.040197	0.000244	2.436702	0.412788	0.004875
 431	2.1500e-01	4.2978	0.096216	0.000560	5.600139	0.948689	0.011204
 432	2.1550e-01	4.3079	0.121873	0.000256	2.564949	0.434514	0.005132
 433	2.1600e-01	4.3178	0.171905	0.000500	5.001651	0.847303	0.010006
 434	2.1650e-01	4.3262	0.197135	0.000252	2.522200	0.427272	0.005046
 435	2.1700e-01	4.3384	0.245457	0.000483	4.830655	0.818335	0.009664
 436	2.1750e-01	4.3469	0.279667	0.000342	3.419932	0.579352	0.006842
 437	2.1800e-01	4.3561	0.314732	0.000351	3.505431	0.593836	0.007013
 438	2.1850e-01	4.3657	0.383152	0.000684	6.839865	1.158704	0.013684
 439	2.1900e-01	4.3764	0.402395	0.000192	1.923712	0.325886	0.003849
 440	2.1950e-01	4.3865	0.465256	0.000628	6.284126	1.064560	0.012572
 441	2.2000e-01	4.3970	0.499466	0.000342	3.419932	0.579352	0.006842
 442	2.2050e-01	4.4065	0.537525	0.000380	3.804675	0.644529	0.007612
 443	2.2100e-01	4.4153	0.575156	0.000376	3.761926	0.637287	0.007526
 444	2.2150e-01	4.4244	0.617063	0.000419	4.189417	0.709706	0.008381
 445	2.2200e-01	4.4360	0.671799	0.000547	5.471892	0.926964	0.010947
 446	2.2250e-01	4.4461	0.688049	0.000162	1.624468	0.275192	0.003250
 447	2.2300e-01	4.4562	0.741075	0.000530	5.300895	0.897996	0.010605
 448	2.2350e-01	4.4662	0.793673	0.000526	5.258146	0.890754	0.010520
 449	2.2400e-01	4.4754	0.812916	0.000192	1.923712	0.325886	0.003849
 450	2.2450e-01	4.4878	0.857816	0.000449	4.488661	0.760400	0.008980
 451	2.2500e-01	4.4952	0.904000	0.000462	4.616909	0.782126	0.009237
 452	2.2550e-01	4.5071	0.951894	0.000479	4.787905	0.811093	0.009579
 453	2.2600e-01	4.5172	0.979690	0.000278	2.778695	0.470724	0.005559
 454	2.2650e-01	4.5276	1.015182	0.000355	3.548180	0.601078	0.007099
 455	2.2700e-01	4.5367	1.047254	0.000321	3.206187	0.543143	0.006414
 456	2.2750e-01	4.5453	1.098142	0.000509	5.087149	0.861786	0.010177
 457	2.2800e-01	4.5575	1.137911	0.000398	3.975671	0.673497	0.007954
 458	2.2850e-01	4.5656	1.189654	0.000517	5.172648	0.876270	0.010349
 459	2.2900e-01	4.5746	1.222581	0.000329	3.291685	0.557627	0.006585
 460	2.2950e-01	4.5850	1.275606	0.000530	5.300895	0.897996	0.010605
 461	2.3000e-01	4.5959	1.297843	0.000222	2.222956	0.376579	0.004447
 462	2.3050e-01	4.6068	1.328632	0.000308	3.077939	0.521417	0.006158
 463	2.3100e-01	4.6194	1.397052	0.000684	6.839865	1.158704	0.013684
 464	2.3150e-01	4.6262	1.422282	0.000252	2.522200	0.427272	0.005046
 465	2.3200e-01	4.6350	1.459057	0.000368	3.676427	0.622804	0.007355
 466	2.3250e-01	4.6442	1.515076	0.000560	5.600139	0.948689	0.011204
 467	2.3300e-01	4.6570	1.548431	0.000333	3.334434	0.564868	0.006671
 468	2.3350e-01	4.6692	1.574516	0.000261	2.607698	0.441756	0.005217
 469	2.3400e-01	4.6765	1.626259	0.000517	5.172648	0.876270	0.010349
 470	2.3450e-01	4.6881	1.682278	0.000560	5.600139	0.948689	0.011204
 471	2.3500e-01	4.6979	1.705370	0.000231	2.308454	0.391063	0.004618
 472	2.3550e-01	4.7076	1.738297	0.000329	3.291685	0.557627	0.006585
 473	2.3600e-01	4.7174	1.772934	0.000346	3.462682	0.586594	0.006928
 474	2.3650e-01	4.7260	1.837506	0.000646	6.455122	1.093527	0.012914
 475	2.3700e-01	4.7377	1.825960	-0.000115	-1.154227	-0.195531	-0.002309
 476	2.3750e-01	4.7467	1.885400	0.000594	5.942133	1.006625	0.011888
 477	2.3800e-01	4.7598	1.946550	0.000611	6.113129	1.035592	0.012230
 478	2.3850e-01	4.7694	1.988458	0.000419	4.189417	0.709706	0.008381
 479	2.3900e-01	4.7779	2.023950	0.000355	3.548180	0.601078	0.007099
 480	2.3950e-01	4.7888	2.041055	0.000171	1.709966	0.289676	0.003421
 481	2.4000e-01	4.7980	2.085956	0.000449	4.488661	0.760400	0.008980
 482	2.4050e-01	4.8074	2.131284	0.000453	4.531410	0.767642	0.009066
 483	2.4100e-01	4.8174	2.174475	0.000432	4.317665	0.731432	0.008638
 484	2.4150e-01	4.8260	2.201415	0.000269	2.693197	0.456240	0.005388
 485	2.4200e-01	4.8367	2.257006	0.000556	5.557390	0.941447	0.011118
 486	2.4250e-01	4.8480	2.301052	0.000440	4.403163	0.745916	0.008809
 487	2.4300e-01	4.8571	2.314736	0.000137	1.367973	0.231741	0.002737
 488	2.4350e-01	4.8688	2.363485	0.000487	4.873404	0.825577	0.009750
 489	2.4400e-01	4.8764	2.399833	0.000363	3.633678	0.615562	0.007270
 490	2.4450e-01	4.8865	2.446444	0.000466	4.659658	0.789367	0.009322
 491	2.4500e-01	4.8988	2.483220	0.000368	3.676427	0.622804	0.007355
 492	2.4550e-01	4.9060	2.515719	0.000325	3.248936	0.550385	0.006500
 493	2.4600e-01	4.9176	2.552923	0.000372	3.719177	0.630046	0.007441
 494	2.4650e-01	4.9265	2.629895	0.000769	7.694848	1.303543	0.015395
 495	2.4700e-01	4.9387	2.644007	0.000141	1.410722	0.238983	0.002822
 496	2.4750e-01	4.9475	2.676507	0.000325	3.248936	0.550385	0.006500
 497	2.4800e-01	4.9597	2.724401	0.000479	4.787905	0.811093	0.009579
 498	2.4850e-01	4.9689	2.754334	0.000299	2.992441	0.506933	0.005987
 499	2.4900e-01	4.9780	2.794104	0.000398	3.975671	0.673497	0.007954
 500	2.4950e-01	4.9860	2.841998	0.000479	4.787905	0.811093	0.009579
 501	2.5000e-01	4.9963	2.890319	0.000483	4.830655	0.818335	0.009664
 502	2.5050e-01	5.0085	2.918542	0.000282	2.821444	0.477966	0.005645
 503	2.5100e-01	5.0162	2.965154	0.000466	4.659658	0.789367	0.009322
 504	2.5150e-01	5.0270	2.998936	0.000338	3.377183	0.572110	0.006756
 505	2.5200e-01	5.0395	3.023311	0.000244	2.436702	0.412788	0.004875
 506	2.5250e-01	5.0497	3.056238	0.000329	3.291685	0.557627	0.006585
 507	2.5300e-01	5.0555	3.097290	0.000410	4.103919	0.695223	0.008210
 508	2.5350e-01	5.0696	3.176401	0.000791	7.908594	1.339752	0.015822
 509	2.5400e-01	5.0757	3.170414	-0.000060	-0.598488	-0.101387	-0.001197
 510	2.5450e-01	5.0867	3.231137	0.000607	6.070380	1.028350	0.012145
 511	2.5500e-01	5.0958	3.239261	0.000081	0.812234	0.137596	0.001625
 512	2.5550e-01	5.1068	3.316234	0.000769	7.694848	1.303543	0.015395
 513	2.5600e-01	5.1173	3.349589	0.000333	3.334434	0.564868	0.006671
 514	2.5650e-01	5.1288	3.384654	0.000351	3.505431	0.593836	0.007013
 515	2.5700e-01	5.1367	3.417154	0.000325	3.248936	0.550385	0.006500
 516	2.5750e-01	5.1485	3.469324	0.000522	5.215397	0.883512	0.010434
 517	2.5800e-01	5.1575	3.505244	0.000359	3.590929	0.608320	0.007184
 518	2.5850e-01	5.1672	3.541165	0.000359	3.590929	0.608320	0.007184
 519	2.5900e-01	5.1758	3.575375	0.000342	3.419932	0.579352	0.006842
 520	2.5950e-01	5.1875	3.613434	0.000380	3.804675	0.644529	0.007612
 521	2.6000e-01	5.1993	3.648499	0.000351	3.505431	0.593836	0.007013
 522	2.6050e-01	5.2063	3.682281	0.000338	3.377183	0.572110	0.006756
 523	2.6100e-01	5.2164	3.728465	0.000462	4.616909	0.782126	0.009237
 524	2.6150e-01	5.2258	3.764385	0.000359	3.590929	0.608320	0.007184
 525	2.6200e-01	5.2368	3.798168	0.000338	3.377183	0.572110	0.006756
 526	2.6250e-01	5.2466	3.841358	0.000432	4.317665	0.731432	0.008638
 527	2.6300e-01	5.2551	3.880272	0.000389	3.890173	0.659013	0.007783
 528	2.6350e-01	5.2667	3.925172	0.000449	4.488661	0.760400	0.008980
 529	2.6400e-01	5.2773	3.946981	0.000218	2.180207	0.369337	0.004362
 530	2.6450e-01	5.2881	3.990599	0.000436	4.360414	0.738674	0.008724
 531	2.6500e-01	5.2968	4.019250	0.000286	2.864193	0.485207	0.005730
 532	2.6550e-01	5.3058	4.068854	0.000496	4.958902	0.840061	0.009921
 533	2.6600e-01	5.3163	4.091091	0.000222	2.222956	0.376579	0.004447
 534	2.6650e-01	5.3278	4.149676	0.000586	5.856634	0.992141	0.011717
 535	2.6700e-01	5.3369	4.184741	0.000351	3.505431	0.593836	0.007013
 536	2.6750e-01	5.3473	4.218523	0.000338	3.377183	0.572110	0.006756
 537	2.6800e-01	5.3552	4.259575	0.000410	4.103919	0.695223	0.008210
 538	2.6850e-01	5.3664	4.303621	0.000440	4.403163	0.745916	0.008809
 539	2.6900e-01	5.3754	4.338686	0.000351	3.505431	0.593836	0.007013
 540	2.6950e-01	5.3865	4.365626	0.000269	2.693197	0.456240	0.005388
 541	2.7000e-01	5.3949	4.402402	0.000368	3.676427	0.622804	0.007355
 542	2.7050e-01	5.4053	4.448158	0.000457	4.574160	0.774884	0.009151
 543	2.7100e-01	5.4155	4.481085	0.000329	3.291685	0.557627	0.006585
 544	2.7150e-01	5.4257	4.535394	0.000543	5.429143	0.919722	0.010862
 545	2.7200e-01	5.4376	4.571314	0.000359	3.590929	0.608320	0.007184
 546	2.7250e-01	5.4480	4.581150	0.000098	0.983231	0.166564	0.001967
 547	2.7300e-01	5.4559	4.646149	0.000650	6.497872	1.100769	0.013000
 548	2.7350e-01	5.4657	4.667102	0.000209	2.094709	0.354853	0.004191
 549	2.7400e-01	5.4791	4.716279	0.000492	4.916153	0.832819	0.009835
 550	2.7450e-01	5.4865	4.747496	0.000312	3.120688	0.528659	0.006243
 551	2.7500e-01	5.4974	4.782989	0.000355	3.548180	0.601078	0.007099
 552	2.7550e-01	5.5072	4.803515	0.000205	2.051959	0.347611	0.004105
 553	2.7600e-01	5.5171	4.874501	0.000710	7.096360	1.202156	0.014197
 554	2.7650e-01	5.5261	4.913842	0.000393	3.932922	0.666255	0.007868
 555	2.7700e-01	5.5359	4.936079	0.000222	2.222956	0.376579	0.004447
 556	2.7750e-01	5.5457	4.946769	0.000107	1.068729	0.181048	0.002138
 557	2.7800e-01	5.5573	5.004071	0.000573	5.728387	0.970415	0.011460
 558	2.7850e-01	5.5678	5.035288	0.000312	3.120688	0.528659	0.006243
 559	2.7900e-01	5.5786	5.077195	0.000419	4.189417	0.709706	0.008381
 560	2.7950e-01	5.5841	5.127227	0.000500	5.001651	0.847303	0.010006
 561	2.8000e-01	5.5969	5.178970	0.000517	5.172648	0.876270	0.010349
 562	2.8050e-01	5.6088	5.187522	0.000085	0.854983	0.144838	0.001711
 563	2.8100e-01	5.6168	5.250811	0.000633	6.326875	1.071802	0.012658
 564	2.8150e-01	5.6268	5.253804	0.000030	0.299244	0.050693	0.000599
 565	2.8200e-01	5.6375	5.323935	0.000701	7.010861	1.187672	0.014026
 566	2.8250e-01	5.6470	5.356007	0.000321	3.206187	0.543143	0.006414
 567	2.8300e-01	5.6577	5.373539	0.000175	1.752715	0.296918	0.003507
 568	2.8350e-01	5.6671	5.421861	0.000483	4.830655	0.818335	0.009664
 569	2.8400e-01	5.6781	5.468044	0.000462	4.616909	0.782126	0.009237
 570	2.8450e-01	5.6873	5.507386	0.000393	3.932922	0.666255	0.007868
 571	2.8500e-01	5.6958	5.547155	0.000398	3.975671	0.673497	0.007954
 572	2.8550e-01	5.7057	5.575806	0.000286	2.864193	0.485207	0.005730
 573	2.8600e-01	5.7167	5.592056	0.000162	1.624468	0.275192	0.003250
 574	2.8650e-01	5.7283	5.644654	0.000526	5.258146	0.890754	0.010520
 575	2.8700e-01	5.7385	5.663042	0.000184	1.838214	0.311402	0.003678
 576	2.8750e-01	5.7448	5.729751	0.000667	6.668868	1.129737	0.013342
 577	2.8800e-01	5.7587	5.752415	0.000227	2.265705	0.383821	0.004533
 578	2.8850e-01	5.7660	5.793895	0.000415	4.146668	0.702465	0.008296
 579	2.8900e-01	5.7788	5.837513	0.000436	4.360414	0.738674	0.008724
 580	2.8950e-01	5.7855	5.852052	0.000145	1.453471	0.246225	0.002908
 581	2.9000e-01	5.7965	5.898235	0.000462	4.616909	0.782126	0.009237
 582	2.9050e-01	5.8076	5.937149	0.000389	3.890173	0.659013	0.007783
 583	2.9100e-01	5.8200	5.984188	0.000470	4.702407	0.796609	0.009408
 584	2.9150e-01	5.8255	6.017543	0.000333	3.334434	0.564868	0.006671
 585	2.9200e-01	5.8380	6.046194	0.000286	2.864193	0.485207	0.005730
 586	2.9250e-01	5.8466	6.100075	0.000539	5.386394	0.912480	0.010776
 587	2.9300e-01	5.8551	6.128298	0.000282	2.821444	0.477966	0.005645
 588	2.9350e-01	5.8691	6.171916	0.000436	4.360414	0.738674	0.008724
 589	2.9400e-01	5.8771	6.195007	0.000231	2.308454	0.391063	0.004618
 590	2.9450e-01	5.8884	6.237770	0.000427	4.274916	0.724190	0.008553
 591	2.9500e-01	5.8966	6.274973	0.000372	3.719177	0.630046	0.007441
 592	2.9550e-01	5.9064	6.317308	0.000423	4.232166	0.716948	0.008467
 593	2.9600e-01	5.9192	6.349808	0.000325	3.248936	0.550385	0.006500
 594	2.9650e-01	5.9253	6.395991	0.000462	4.616909	0.782126	0.009237
 595	2.9700e-01	5.9375	6.419938	0.000239	2.393953	0.405547	0.004789
 596	2.9750e-01	5.9479	6.452865	0.000329	3.291685	0.557627	0.006585
 597	2.9800e-01	5.9576	6.496483	0.000436	4.360414	0.738674	0.008724
 598	2.9850e-01	5.9657	6.542667	0.000462	4.616909	0.782126	0.009237
 599	2.9900e-01	5.9772	6.567897	0.000252	2.522200	0.427272	0.005046
 600	2.9950e-01	5.9883	6.610231	0.000423	4.232166	0.716948	0.008467
 601	3.0000e-01	5.9998	6.631185	0.000209	2.094709	0.354853	0.004191
 602	3.0050e-01	6.0071	6.661547	0.000304	3.035190	0.514175	0.006072
 603	3.0100e-01	6.0167	6.714572	0.000530	5.300895	0.897996	0.010605
 604	3.0150e-01	6.0287	6.738519	0.000239	2.393953	0.405547	0.004789
 605	3.0200e-01	6.0376	6.777005	0.000385	3.847424	0.651771	0.007697
 606	3.0250e-01	6.0474	6.821906	0.000449	4.488661	0.760400	0.008980
 607	3.0300e-01	6.0583	6.855688	0.000338	3.377183	0.572110	0.006756
 608	3.0350e-01	6.0648	6.866379	0.000107	1.068729	0.181048	0.002138
 609	3.0400e-01	6.0760	6.936082	0.000697	6.968112	1.180430	0.013941
 610	3.0450e-01	6.0876	6.964305	0.000282	2.821444	0.477966	0.005645
 611	3.0500e-01	6.0974	7.003647	0.000393	3.932922	0.666255	0.007868
 612	3.0550e-01	6.1060	7.023318	0.000197	1.966461	0.333128	0.003934
 613	3.0600e-01	6.1182	7.080192	0.000569	5.685638	0.963173	0.011375
 614	3.0650e-01	6.1262	7.113546	0.000333	3.334434	0.564868	0.006671
 615	3.0700e-01	6.1377	7.132790	0.000192	1.923712	0.325886	0.003849
 616	3.0750e-01	6.1478	7.193940	0.000611	6.113129	1.035592	0.012230
 617	3.0800e-01	6.1594	7.218742	0.000248	2.479451	0.420030	0.004960
 618	3.0850e-01	6.1664	7.242262	0.000235	2.351204	0.398305	0.004704
 619	3.0900e-01	6.1758	7.283314	0.000410	4.103919	0.695223	0.008210
 620	3.0950e-01	6.1871	7.335912	0.000526	5.258146	0.890754	0.010520
 621	3.1000e-01	6.1969	7.358576	0.000227	2.265705	0.383821	0.004533
 622	3.1050e-01	6.2082	7.402194	0.000436	4.360414	0.738674	0.008724
 623	3.1100e-01	6.2177	7.415878	0.000137	1.367973	0.231741	0.002737
 624	3.1150e-01	6.2268	7.462061	0.000462	4.616909	0.782126	0.009237
 625	3.1200e-01	6.2372	7.470186	0.000081	0.812234	0.137596	0.001625
 626	3.1250e-01	6.2465	7.556566	0.000864	8.635329	1.462864	0.017276
 627	3.1300e-01	6.2581	7.563408	0.000068	0.683986	0.115870	0.001368
 628	3.1350e-01	6.2689	7.607026	0.000436	4.360414	0.738674	0.008724
 629	3.1400e-01	6.2753	7.660052	0.000530	5.300895	0.897996	0.010605
 630	3.1450e-01	6.2881	7.670742	0.000107	1.068729	0.181048	0.002138
 631	3.1500e-01	6.2965	7.704525	0.000338	3.377183	0.572110	0.006756
 632	3.1550e-01	6.3049	7.727189	0.000227	2.265705	0.383821	0.004533
 633	3.1600e-01	6.3171	7.775083	0.000479	4.787905	0.811093	0.009579
 634	3.1650e-01	6.3293	7.818273	0.000432	4.317665	0.731432	0.008638
 635	3.1700e-01	6.3379	7.860608	0.000423	4.232166	0.716948	0.008467
 636	3.1750e-01	6.3477	7.878568	0.000180	1.795465	0.304160	0.003592
 637	3.1800e-01	6.3556	7.920903	0.000423	4.232166	0.716948	0.008467
 638	3.1850e-01	6.3660	7.954258	0.000333	3.334434	0.564868	0.006671
 639	3.1900e-01	6.3770	7.985047	0.000308	3.077939	0.521417	0.006158
 640	3.1950e-01	6.3864	8.024388	0.000393	3.932922	0.666255	0.007868
 641	3.2000e-01	6.3940	8.065868	0.000415	4.146668	0.702465	0.008296
 642	3.2050e-01	6.4044	8.099223	0.000333	3.334434	0.564868	0.006671
 643	3.2100e-01	6.4157	8.119749	0.000205	2.051959	0.347611	0.004105
 644	3.2150e-01	6.4240	8.170208	0.000504	5.044400	0.854545	0.010092
 645	3.2200e-01	6.4355	8.212971	0.000427	4.274916	0.724190	0.008553
 646	3.2250e-01	6.4465	8.240767	0.000278	2.778695	0.470724	0.005559
 647	3.2300e-01	6.4575	8.278398	0.000376	3.761926	0.637287	0.007526
 648	3.2350e-01	6.4703	8.316029	0.000376	3.761926	0.637287	0.007526
 649	3.2400e-01	6.4753	8.371620	0.000556	5.557390	0.941447	0.011118
 650	3.2450e-01	6.4880	8.394712	0.000231	2.308454	0.391063	0.004618
 651	3.2500e-01	6.4954	8.408823	0.000141	1.410722	0.238983	0.002822
 652	3.2550e-01	6.5076	8.464415	0.000556	5.557390	0.941447	0.011118
 653	3.2600e-01	6.5138	8.503329	0.000389	3.890173	0.659013	0.007783
 654	3.2650e-01	6.5283	8.528986	0.000256	2.564949	0.434514	0.005132
 655	3.2700e-01	6.5341	8.561486	0.000325	3.248936	0.550385	0.006500
 656	3.2750e-01	6.5472	8.606814	0.000453	4.531410	0.767642	0.009066
 657	3.2800e-01	6.5594	8.642734	0.000359	3.590929	0.608320	0.007184
 658	3.2850e-01	6.5659	8.666681	0.000239	2.393953	0.405547	0.004789
 659	3.2900e-01	6.5762	8.693622	0.000269	2.693197	0.456240	0.005388
 660	3.2950e-01	6.5881	8.729115	0.000355	3.548180	0.601078	0.007099
 661	3.3000e-01	6.5961	8.768456	0.000393	3.932922	0.666255	0.007868
 662	3.3050e-01	6.6077	8.796680	0.000282	2.821444	0.477966	0.005645
 663	3.3100e-01	6.6174	8.843291	0.000466	4.659658	0.789367	0.009322
 664	3.3150e-01	6.6272	8.868521	0.000252	2.522200	0.427272	0.005046
 665	3.3200e-01	6.6406	8.913421	0.000449	4.488661	0.760400	0.008980
 666	3.3250e-01	6.6470	8.950625	0.000372	3.719177	0.630046	0.007441
 667	3.3300e-01	6.6537	8.968157	0.000175	1.752715	0.296918	0.003507
 668	3.3350e-01	6.6676	9.011775	0.000436	4.360414	0.738674	0.008724
 669	3.3400e-01	6.6760	9.058386	0.000466	4.659658	0.789367	0.009322
 670	3.3450e-01	6.6846	9.082333	0.000239	2.393953	0.405547	0.004789
 671	3.3500e-01	6.6974	9.113977	0.000316	3.163437	0.535901	0.006329
 672	3.3550e-01	6.7059	9.162727	0.000487	4.873404	0.825577	0.009750
 673	3.3600e-01	6.7181	9.187101	0.000244	2.436702	0.412788	0.004875
 674	3.3650e-01	6.7255	9.253383	0.000663	6.626119	1.122495	0.013256
 675	3.3700e-01	6.7365	9.251245	-0.000021	-0.213746	-0.036210	-0.000428
 676	3.3750e-01	6.7517	9.286738	0.000355	3.548180	0.601078	0.007099
 677	3.3800e-01	6.7569	9.338053	0.000513	5.129899	0.869028	0.010263
 678	3.3850e-01	6.7657	9.365421	0.000274	2.735946	0.463482	0.005474
 679	3.3900e-01	6.7761	9.394927	0.000295	2.949692	0.499691	0.005901
 680	3.3950e-01	6.7865	9.438545	0.000436	4.360414	0.738674	0.008724
 681	3.4000e-01	6.7969	9.464203	0.000256	2.564949	0.434514	0.005132
 682	3.4050e-01	6.8054	9.518083	0.000539	5.386394	0.912480	0.010776
 683	3.4100e-01	6.8164	9.539465	0.000214	2.137458	0.362095	0.004276
 684	3.4150e-01	6.8271	9.563412	0.000239	2.393953	0.405547	0.004789
 685	3.4200e-01	6.8378	9.594628	0.000312	3.120688	0.528659	0.006243
 686	3.4250e-01	6.8500	9.641239	0.000466	4.659658	0.789367	0.009322
 687	3.4300e-01	6.8579	9.669463	0.000282	2.821444	0.477966	0.005645
 688	3.4350e-01	6.8661	9.703245	0.000338	3.377183	0.572110	0.006756
 689	3.4400e-01	6.8774	9.771238	0.000680	6.797116	1.151463	0.013598
 690	3.4450e-01	6.8860	9.770382	-0.000009	-0.085498	-0.014484	-0.000171
 691	3.4500e-01	6.8967	9.808441	0.000380	3.804675	0.644529	0.007612
 692	3.4550e-01	6.9055	9.853769	0.000453	4.531410	0.767642	0.009066
 693	3.4600e-01	6.9177	9.892255	0.000385	3.847424	0.651771	0.007697
 694	3.4650e-01	6.9273	9.914492	0.000222	2.222956	0.376579	0.004447
 695	3.4700e-01	6.9339	9.946136	0.000316	3.163437	0.535901	0.006329
 696	3.4750e-01	6.9464	9.974360	0.000282	2.821444	0.477966	0.005645
 697	3.4800e-01	6.9580	10.033372	0.000590	5.899383	0.999383	0.011802
 698	3.4850e-01	6.9684	10.062450	0.000291	2.906943	0.492449	0.005816
 699	3.4900e-01	6.9763	10.086397	0.000239	2.393953	0.405547	0.004789
 700	3.4950e-01	6.9861	10.103502	0.000171	1.709966	0.289676	0.003421
 701	3.5000e-01	6.9962	10.159949	0.000564	5.642889	0.955931	0.011289
 702	3.5050e-01	7.0071	10.171495	0.000115	1.154227	0.195531	0.002309
 703	3.5100e-01	7.0175	10.245474	0.000740	7.395604	1.252849	0.014796
 704	3.5150e-01	7.0245	10.240770	-0.000047	-0.470241	-0.079661	-0.000941
 705	3.5200e-01	7.0361	10.290375	0.000496	4.958902	0.840061	0.009921
 706	3.5250e-01	7.0453	10.322874	0.000325	3.248936	0.550385	0.006500
 707	3.5300e-01	7.0566	10.363071	0.000402	4.018421	0.680739	0.008039
 708	3.5350e-01	7.0679	10.387873	0.000248	2.479451	0.420030	0.004960
 709	3.5400e-01	7.0782	10.425932	0.000380	3.804675	0.644529	0.007612
 710	3.5450e-01	7.0898	10.455438	0.000295	2.949692	0.499691	0.005901
 711	3.5500e-01	7.0972	10.487082	0.000316	3.163437	0.535901	0.006329
 712	3.5550e-01	7.1063	10.531983	0.000449	4.488661	0.760400	0.008980
 713	3.5600e-01	7.1149	10.569186	0.000372	3.719177	0.630046	0.007441
 714	3.5650e-01	7.1259	10.599548	0.000304	3.035190	0.514175	0.006072
 715	3.5700e-01	7.1350	10.612376	0.000128	1.282475	0.217257	0.002566
 716	3.5750e-01	7.1510	10.671816	0.000594	5.942133	1.006625	0.011888
 717	3.5800e-01	7.1564	10.709875	0.000380	3.804675	0.644529	0.007612
 718	3.5850e-01	7.1680	10.732112	0.000222	2.222956	0.376579	0.004447
 719	3.5900e-01	7.1777	10.771025	0.000389	3.890173	0.659013	0.007783
 720	3.5950e-01	7.1887	10.811650	0.000406	4.061170	0.687981	0.008125
 721	3.6000e-01	7.1967	10.830038	0.000184	1.838214	0.311402	0.003678
 722	3.6050e-01	7.2064	10.872373	0.000423	4.232166	0.716948	0.008467
 723	3.6100e-01	7.2168	10.888622	0.000162	1.624468	0.275192	0.003250
 724	3.6150e-01	7.2272	10.931385	0.000427	4.274916	0.724190	0.008553
 725	3.6200e-01	7.2360	10.977141	0.000457	4.574160	0.774884	0.009151
 726	3.6250e-01	7.2473	11.011778	0.000346	3.462682	0.586594	0.006928
 727	3.6300e-01	7.2571	11.059672	0.000479	4.787905	0.811093	0.009579
 728	3.6350e-01	7.2687	11.058390	-0.000013	-0.128247	-0.021726	-0.000257
 729	3.6400e-01	7.2760	11.112698	0.000543	5.429143	0.919722	0.010862
 730	3.6450e-01	7.2876	11.129375	0.000167	1.667217	0.282434	0.003335
 731	3.6500e-01	7.2955	11.165724	0.000363	3.633678	0.615562	0.007270
 732	3.6550e-01	7.3059	11.222170	0.000564	5.642889	0.955931	0.011289
 733	3.6600e-01	7.3157	11.241413	0.000192	1.923712	0.325886	0.003849
 734	3.6650e-01	7.3285	11.253387	0.000120	1.196976	0.202773	0.002395
 735	3.6700e-01	7.3383	11.313254	0.000598	5.984882	1.013866	0.011974
 736	3.6750e-01	7.3471	11.342760	0.000295	2.949692	0.499691	0.005901
 737	3.6800e-01	7.3560	11.379536	0.000368	3.676427	0.622804	0.007355
 738	3.6850e-01	7.3660	11.417167	0.000376	3.761926	0.637287	0.007526
 739	3.6900e-01	7.3755	11.421443	0.000043	0.427492	0.072419	0.000855
 740	3.6950e-01	7.3853	11.462068	0.000406	4.061170	0.687981	0.008125
 741	3.7000e-01	7.3975	11.501837	0.000398	3.975671	0.673497	0.007954
 742	3.7050e-01	7.4036	11.545027	0.000432	4.317665	0.731432	0.008638
 743	3.7100e-01	7.4170	11.576671	0.000316	3.163437	0.535901	0.006329
 744	3.7150e-01	7.4268	11.627559	0.000509	5.087149	0.861786	0.010177
 745	3.7200e-01	7.4368	11.629697	0.000021	0.213746	0.036210	0.000428
 746	3.7250e-01	7.4481	11.689137	0.000594	5.942133	1.006625	0.011888
 747	3.7300e-01	7.4579	11.715650	0.000265	2.650448	0.448998	0.005303
 748	3.7350e-01	7.4707	11.744728	0.000291	2.906943	0.492449	0.005816
 749	3.7400e-01	7.4774	11.801175	0.000564	5.642889	0.955931	0.011289
 750	3.7450e-01	7.4890	11.817424	0.000162	1.624468	0.275192	0.003250
 751	3.7500e-01	7.4976	11.844365	0.000269	2.693197	0.456240	0.005388
 752	3.7550e-01	7.5073	11.890548	0.000462	4.616909	0.782126	0.009237
 753	3.7600e-01	7.5177	11.912357	0.000218	2.180207	0.369337	0.004362
 754	3.7650e-01	7.5269	11.961107	0.000487	4.873404	0.825577	0.009750
 755	3.7700e-01	7.5336	11.985909	0.000248	2.479451	0.420030	0.004960
 756	3.7750e-01	7.5439	12.014987	0.000291	2.906943	0.492449	0.005816
 757	3.7800e-01	7.5574	12.045776	0.000308	3.077939	0.521417	0.006158
 758	3.7850e-01	7.5684	12.050908	0.000051	0.512990	0.086903	0.001026
 759	3.7900e-01	7.5769	12.118045	0.000671	6.711617	1.136979	0.013427
 760	3.7950e-01	7.5867	12.134722	0.000167	1.667217	0.282434	0.003335
 761	3.8000e-01	7.5964	12.174919	0.000402	4.018421	0.680739	0.008039
 762	3.8050e-01	7.6062	12.215116	0.000402	4.018421	0.680739	0.008039
 763	3.8100e-01	7.6172	12.246333	0.000312	3.120688	0.528659	0.006243
 764	3.8150e-01	7.6288	12.268142	0.000218	2.180207	0.369337	0.004362
 765	3.8200e-01	7.6379	12.291233	0.000231	2.308454	0.391063	0.004618
 766	3.8250e-01	7.6456	12.340410	0.000492	4.916153	0.832819	0.009835
 767	3.8300e-01	7.6563	12.386166	0.000457	4.574160	0.774884	0.009151
 768	3.8350e-01	7.6672	12.410968	0.000248	2.479451	0.420030	0.004960
 769	3.8400e-01	7.6746	12.440047	0.000291	2.906943	0.492449	0.005816
 770	3.8450e-01	7.6862	12.478961	0.000389	3.890173	0.659013	0.007783
 771	3.8500e-01	7.6978	12.507612	0.000286	2.864193	0.485207	0.005730
 772	3.8550e-01	7.7069	12.540111	0.000325	3.248936	0.550385	0.006500
 773	3.8600e-01	7.7148	12.581591	0.000415	4.146668	0.702465	0.008296
 774	3.8650e-01	7.7277	12.616228	0.000346	3.462682	0.586594	0.006928
 775	3.8700e-01	7.7344	12.653860	0.000376	3.761926	0.637287	0.007526
 776	3.8750e-01	7.7472	12.695767	0.000419	4.189417	0.709706	0.008381
 777	3.8800e-01	7.7563	12.726983	0.000312	3.120688	0.528659	0.006243
 778	3.8850e-01	7.7655	12.751786	0.000248	2.479451	0.420030	0.004960
 779	3.8900e-01	7.7759	12.793693	0.000419	4.189417	0.709706	0.008381
 780	3.8950e-01	7.7850	12.818923	0.000252	2.522200	0.427272	0.005046
 781	3.9000e-01	7.7942	12.856126	0.000372	3.719177	0.630046	0.007441
 782	3.9050e-01	7.8044	12.893330	0.000372	3.719177	0.630046	0.007441
 783	3.9100e-01	7.8159	12.911718	0.000184	1.838214	0.311402	0.003678
 784	3.9150e-01	7.8281	12.946355	0.000346	3.462682	0.586594	0.006928
 785	3.9200e-01	7.8375	12.987407	0.000410	4.103919	0.695223	0.008210
 786	3.9250e-01	7.8461	13.011354	0.000239	2.393953	0.405547	0.004789
 787	3.9300e-01	7.8558	13.049841	0.000385	3.847424	0.651771	0.007697
 788	3.9350e-01	7.8653	13.086616	0.000368	3.676427	0.622804	0.007355
 789	3.9400e-01	7.8766	13.098590	0.000120	1.196976	0.202773	0.002395
 790	3.9450e-01	7.8870	13.150760	0.000522	5.215397	0.883512	0.010434
 791	3.9500e-01	7.8979	13.172569	0.000218	2.180207	0.369337	0.004362
 792	3.9550e-01	7.9068	13.215331	0.000427	4.274916	0.724190	0.008553
 793	3.9600e-01	7.9169	13.241844	0.000265	2.650448	0.448998	0.005303
 794	3.9650e-01	7.9260	13.294870	0.000530	5.300895	0.897996	0.010605
 795	3.9700e-01	7.9361	13.325231	0.000304	3.035190	0.514175	0.006072
 796	3.9750e-01	7.9468	13.362435	0.000372	3.719177	0.630046	0.007441
 797	3.9800e-01	7.9556	13.397072	0.000346	3.462682	0.586594	0.006928
 798	3.9850e-01	7.9700	13.427434	0.000304	3.035190	0.514175	0.006072
 799	3.9900e-01	7.9742	13.443256	0.000158	1.581719	0.267950	0.003164
 800	3.9950e-01	7.9852	13.467203	0.000239	2.393953	0.405547	0.004789
 801	4.0000e-01	7.9956	13.514242	0.000470	4.702407	0.796609	0.009408
 802	4.0050e-01	8.0084	13.540327	0.000261	2.607698	0.441756	0.005217
 803	4.0100e-01	8.0164	13.575820	0.000355	3.548180	0.601078	0.007099
 804	4.0150e-01	8.0261	13.625852	0.000500	5.001651	0.847303	0.010006
 805	4.0200e-01	8.0414	13.617299	-0.000085	-0.854983	-0.144838	-0.001711
 806	4.0250e-01	8.0487	13.690851	0.000735	7.352855	1.245607	0.014710
 807	4.0300e-01	8.0557	13.699831	0.000090	0.897732	0.152080	0.001796
 808	4.0350e-01	8.0652	13.752429	0.000526	5.258146	0.890754	0.010520
 809	4.0400e-01	8.0762	13.782363	0.000299	2.992441	0.506933	0.005987
 810	4.0450e-01	8.0878	13.808448	0.000261	2.607698	0.441756	0.005217
 811	4.0500e-01	8.0963	13.848645	0.000402	4.018421	0.680739	0.008039
 812	4.0550e-01	8.1055	13.886703	0.000380	3.804675	0.644529	0.007612
 813	4.0600e-01	8.1152	13.895683	0.000090	0.897732	0.152080	0.001796
 814	4.0650e-01	8.1259	13.937163	0.000415	4.146668	0.702465	0.008296
 815	4.0700e-01	8.1354	13.977787	0.000406	4.061170	0.687981	0.008125
 816	4.0750e-01	8.1488	14.000024	0.000222	2.222956	0.376579	0.004447
 817	4.0800e-01	8.1537	14.058609	0.000586	5.856634	0.992141	0.011717
 818	4.0850e-01	8.1677	14.089398	0.000308	3.077939	0.521417	0.006158
 819	4.0900e-01	8.1763	14.115483	0.000261	2.607698	0.441756	0.005217
 820	4.0950e-01	8.1860	14.132160	0.000167	1.667217	0.282434	0.003335
 821	4.1000e-01	8.1989	14.153969	0.000218	2.180207	0.369337	0.004362
 822	4.1050e-01	8.2080	14.219823	0.000658	6.583370	1.115253	0.013171
 823	4.1100e-01	8.2159	14.242060	0.000222	2.222956	0.376579	0.004447
 824	4.1150e-01	8.2291	14.274987	0.000329	3.291685	0.557627	0.006585
 825	4.1200e-01	8.2397	14.307486	0.000325	3.248936	0.550385	0.006500
 826	4.1250e-01	8.2471	14.342979	0.000355	3.548180	0.601078	0.007099
 827	4.1300e-01	8.2556	14.384031	0.000410	4.103919	0.695223	0.008210
 828	4.1350e-01	8.2675	14.383604	-0.000004	-0.042749	-0.007242	-0.000086
 829	4.1400e-01	8.2745	14.442188	0.000586	5.856634	0.992141	0.011717
 830	4.1450e-01	8.2877	14.482385	0.000402	4.018421	0.680739	0.008039
 831	4.1500e-01	8.2959	14.509326	0.000269	2.693197	0.456240	0.005388
 832	4.1550e-01	8.3075	14.527713	0.000184	1.838214	0.311402	0.003678
 833	4.1600e-01	8.3170	14.570048	0.000423	4.232166	0.716948	0.008467
 834	4.1650e-01	8.3246	14.602548	0.000325	3.248936	0.550385	0.006500
 835	4.1700e-01	8.3365	14.638896	0.000363	3.633678	0.615562	0.007270
 836	4.1750e-01	8.3478	14.674817	0.000359	3.590929	0.608320	0.007184
 837	4.1800e-01	8.3594	14.680376	0.000056	0.555739	0.094145	0.001112
 838	4.1850e-01	8.3685	14.735112	0.000547	5.471892	0.926964	0.010947
 839	4.1900e-01	8.3740	14.765473	0.000304	3.035190	0.514175	0.006072
 840	4.1950e-01	8.3862	14.793696	0.000282	2.821444	0.477966	0.005645
 841	4.2000e-01	8.3954	14.824058	0.000304	3.035190	0.514175	0.006072
 842	4.2050e-01	8.4076	14.877511	0.000534	5.343644	0.905238	0.010691
 843	4.2100e-01	8.4161	14.907017	0.000295	2.949692	0.499691	0.005901
 844	4.2150e-01	8.4277	14.928826	0.000218	2.180207	0.369337	0.004362
 845	4.2200e-01	8.4375	14.978858	0.000500	5.001651	0.847303	0.010006
 846	4.2250e-01	8.4485	14.996391	0.000175	1.752715	0.296918	0.003507
 847	4.2300e-01	8.4589	15.036160	0.000398	3.975671	0.673497	0.007954
 848	4.2350e-01	8.4668	15.057541	0.000214	2.137458	0.362095	0.004276
 849	4.2400e-01	8.4760	15.101159	0.000436	4.360414	0.738674	0.008724
 850	4.2450e-01	8.4863	15.125961	0.000248	2.479451	0.420030	0.004960
 851	4.2500e-01	8.4967	15.140500	0.000145	1.453471	0.246225	0.002908
 852	4.2550e-01	8.5034	15.189250	0.000487	4.873404	0.825577	0.009750
 853	4.2600e-01	8.5156	15.235861	0.000466	4.659658	0.789367	0.009322
 854	4.2650e-01	8.5272	15.263229	0.000274	2.735946	0.463482	0.005474
 855	4.2700e-01	8.5358	15.294446	0.000312	3.120688	0.528659	0.006243
 856	4.2750e-01	8.5471	15.323096	0.000286	2.864193	0.485207	0.005730
 857	4.2800e-01	8.5559	15.367569	0.000445	4.445912	0.753158	0.008895
 858	4.2850e-01	8.5675	15.384247	0.000167	1.667217	0.282434	0.003335
 859	4.2900e-01	8.5773	15.423161	0.000389	3.890173	0.659013	0.007783
 860	4.2950e-01	8.5866	15.457371	0.000342	3.419932	0.579352	0.006842
 861	4.3000e-01	8.5980	15.494574	0.000372	3.719177	0.630046	0.007441
 862	4.3050e-01	8.6084	15.536909	0.000423	4.232166	0.716948	0.008467
 863	4.3100e-01	8.6163	15.571974	0.000351	3.505431	0.593836	0.007013
 864	4.3150e-01	8.6267	15.576678	0.000047	0.470241	0.079661	0.000941
 865	4.3200e-01	8.6346	15.624145	0.000475	4.745156	0.803851	0.009493
 866	4.3250e-01	8.6481	15.651940	0.000278	2.778695	0.470724	0.005559
 867	4.3300e-01	8.6548	15.692137	0.000402	4.018421	0.680739	0.008039
 868	4.3350e-01	8.6664	15.713946	0.000218	2.180207	0.369337	0.004362
 869	4.3400e-01	8.6768	15.761840	0.000479	4.787905	0.811093	0.009579
 870	4.3450e-01	8.6877	15.790919	0.000291	2.906943	0.492449	0.005816
 871	4.3500e-01	8.6987	15.820425	0.000295	2.949692	0.499691	0.005901
 872	4.3550e-01	8.7073	15.868746	0.000483	4.830655	0.818335	0.009664
 873	4.3600e-01	8.7183	15.892266	0.000235	2.351204	0.398305	0.004704
 874	4.3650e-01	8.7259	15.924338	0.000321	3.206187	0.543143	0.006414
 875	4.3700e-01	8.7396	15.959403	0.000351	3.505431	0.593836	0.007013
 876	4.3750e-01	8.7451	15.988054	0.000286	2.864193	0.485207	0.005730
 877	4.3800e-01	8.7573	16.034665	0.000466	4.659658	0.789367	0.009322
 878	4.3850e-01	8.7653	16.069303	0.000346	3.462682	0.586594	0.006928
 879	4.3900e-01	8.7762	16.098381	0.000291	2.906943	0.492449	0.005816
 880	4.3950e-01	8.7860	16.115486	0.000171	1.709966	0.289676	0.003421
 881	4.4000e-01	8.7970	16.144992	0.000295	2.949692	0.499691	0.005901
 882	4.4050e-01	8.8068	16.197163	0.000522	5.215397	0.883512	0.010434
 883	4.4100e-01	8.8159	16.211702	0.000145	1.453471	0.246225	0.002908
 884	4.4150e-01	8.8281	16.260879	0.000492	4.916153	0.832819	0.009835
 885	4.4200e-01	8.8348	16.286964	0.000261	2.607698	0.441756	0.005217
 886	4.4250e-01	8.8452	16.342127	0.000551	5.514641	0.934205	0.011033
 887	4.4300e-01	8.8562	16.355812	0.000137	1.367973	0.231741	0.002737
 888	4.4350e-01	8.8644	16.385745	0.000299	2.992441	0.506933	0.005987
 889	4.4400e-01	8.8754	16.422093	0.000363	3.633678	0.615562	0.007270
 890	4.4450e-01	8.8861	16.459297	0.000372	3.719177	0.630046	0.007441
 891	4.4500e-01	8.8965	16.480678	0.000214	2.137458	0.362095	0.004276
 892	4.4550e-01	8.9038	16.524296	0.000436	4.360414	0.738674	0.008724
 893	4.4600e-01	8.9172	16.567058	0.000427	4.274916	0.724190	0.008553
 894	4.4650e-01	8.9270	16.589723	0.000227	2.265705	0.383821	0.004533
 895	4.4700e-01	8.9355	16.650873	0.000611	6.113129	1.035592	0.012230
 896	4.4750e-01	8.9453	16.658998	0.000081	0.812234	0.137596	0.001625
 897	4.4800e-01	8.9557	16.682945	0.000239	2.393953	0.405547	0.004789
 898	4.4850e-01	8.9679	16.712451	0.000295	2.949692	0.499691	0.005901
 899	4.4900e-01	8.9771	16.742385	0.000299	2.992441	0.506933	0.005987
 900	4.4950e-01	8.9862	16.775312	0.000329	3.291685	0.557627	0.006585
 901	4.5000e-01	8.9975	16.831758	0.000564	5.642889	0.955931	0.011289
 902	4.5050e-01	9.0073	16.848436	0.000167	1.667217	0.282434	0.003335
 903	4.5100e-01	9.0149	16.882646	0.000342	3.419932	0.579352	0.006842
 904	4.5150e-01	9.0248	16.934816	0.000522	5.215397	0.883512	0.010434
 905	4.5200e-01	9.0375	16.982710	0.000479	4.787905	0.811093	0.009579
 906	4.5250e-01	9.0460	16.978434	-0.000043	-0.427492	-0.072419	-0.000855
 907	4.5300e-01	9.0570	17.016493	0.000380	3.804675	0.644529	0.007612
 908	4.5350e-01	9.0656	17.046854	0.000304	3.035190	0.514175	0.006072
 909	4.5400e-01	9.0784	17.095176	0.000483	4.830655	0.818335	0.009664
 910	4.5450e-01	9.0872	17.098597	0.000034	0.341993	0.057935	0.000684
 911	4.5500e-01	9.0985	17.140504	0.000419	4.189417	0.709706	0.008381
 912	4.5550e-01	9.1077	17.192674	0.000522	5.215397	0.883512	0.010434
 913	4.5600e-01	9.1180	17.225174	0.000325	3.248936	0.550385	0.006500
 914	4.5650e-01	9.1266	17.252542	0.000274	2.735946	0.463482	0.005474
 915	4.5700e-01	9.1370	17.296587	0.000440	4.403163	0.745916	0.008809
 916	4.5750e-01	9.1461	17.324383	0.000278	2.778695	0.470724	0.005559
 917	4.5800e-01	9.1565	17.350896	0.000265	2.650448	0.448998	0.005303
 918	4.5850e-01	9.1699	17.385961	0.000351	3.505431	0.593836	0.007013
 919	4.5900e-01	9.1742	17.421026	0.000351	3.505431	0.593836	0.007013
 920	4.5950e-01	9.1907	17.460795	0.000398	3.975671	0.673497	0.007954
 921	4.6000e-01	9.1962	17.487308	0.000265	2.650448	0.448998	0.005303
 922	4.6050e-01	9.2078	17.531353	0.000440	4.403163	0.745916	0.008809
 923	4.6100e-01	9.2200	17.555728	0.000244	2.436702	0.412788	0.004875
 924	4.6150e-01	9.2261	17.571978	0.000162	1.624468	0.275192	0.003250
 925	4.6200e-01	9.2349	17.627569	0.000556	5.557390	0.941447	0.011118
 926	4.6250e-01	9.2484	17.655365	0.000278	2.778695	0.470724	0.005559
 927	4.6300e-01	9.2560	17.686581	0.000312	3.120688	0.528659	0.006243
 928	4.6350e-01	9.2645	17.724212	0.000376	3.761926	0.637287	0.007526
 929	4.6400e-01	9.2755	17.753291	0.000291	2.906943	0.492449	0.005816
 930	4.6450e-01	9.2871	17.787929	0.000346	3.462682	0.586594	0.006928
 931	4.6500e-01	9.2960	17.825560	0.000376	3.761926	0.637287	0.007526
 932	4.6550e-01	9.3060	17.865329	0.000398	3.975671	0.673497	0.007954
 933	4.6600e-01	9.3164	17.905953	0.000406	4.061170	0.687981	0.008125
 934	4.6650e-01	9.3237	17.937170	0.000312	3.120688	0.528659	0.006243
 935	4.6700e-01	9.3369	17.965821	0.000286	2.864193	0.485207	0.005730
 936	4.6750e-01	9.3445	17.993189	0.000274	2.735946	0.463482	0.005474
 937	4.6800e-01	9.3561	18.035096	0.000419	4.189417	0.709706	0.008381
 938	4.6850e-01	9.3652	18.074437	0.000393	3.932922	0.666255	0.007868
 939	4.6900e-01	9.3756	18.115062	0.000406	4.061170	0.687981	0.008125
 940	4.6950e-01	9.3860	18.126180	0.000111	1.111478	0.188289	0.002224
 941	4.7000e-01	9.3970	18.149700	0.000235	2.351204	0.398305	0.004704
 942	4.7050e-01	9.4086	18.216409	0.000667	6.668868	1.129737	0.013342
 943	4.7100e-01	9.4171	18.230948	0.000145	1.453471	0.246225	0.002908
 944	4.7150e-01	9.4250	18.254040	0.000231	2.308454	0.391063	0.004618
 945	4.7200e-01	9.4350	18.318612	0.000646	6.455122	1.093527	0.012914
 946	4.7250e-01	9.4476	18.339138	0.000205	2.051959	0.347611	0.004105
 947	4.7300e-01	9.4577	18.370354	0.000312	3.120688	0.528659	0.006243
 948	4.7350e-01	9.4647	18.387459	0.000171	1.709966	0.289676	0.003421
 949	4.7400e-01	9.4763	18.436208	0.000487	4.873404	0.825577	0.009750
 950	4.7450e-01	9.4836	18.472984	0.000368	3.676427	0.622804	0.007355
 951	4.7500e-01	9.4965	18.518740	0.000457	4.574160	0.774884	0.009151
 952	4.7550e-01	9.5068	18.546536	0.000278	2.778695	0.470724	0.005559
 953	4.7600e-01	9.5172	18.587588	0.000410	4.103919	0.695223	0.008210
 954	4.7650e-01	9.5251	18.618377	0.000308	3.077939	0.521417	0.006158
 955	4.7700e-01	9.5361	18.647883	0.000295	2.949692	0.499691	0.005901
 956	4.7750e-01	9.5447	18.682093	0.000342	3.419932	0.579352	0.006842
 957	4.7800e-01	9.5557	18.721435	0.000393	3.932922	0.666255	0.007868
 958	4.7850e-01	9.5667	18.748803	0.000274	2.735946	0.463482	0.005474
 959	4.7900e-01	9.5770	18.778309	0.000295	2.949692	0.499691	0.005901
 960	4.7950e-01	9.5856	18.804394	0.000261	2.607698	0.441756	0.005217
 961	4.8000e-01	9.5978	18.840742	0.000363	3.633678	0.615562	0.007270
 962	4.8050e-01	9.6060	18.893768	0.000530	5.300895	0.897996	0.010605
 963	4.8100e-01	9.6155	18.930116	0.000363	3.633678	0.615562	0.007270
 964	4.8150e-01	9.6249	18.964753	0.000346	3.462682	0.586594	0.006928
 965	4.8200e-01	9.6356	18.980148	0.000154	1.538970	0.260709	0.003079
 966	4.8250e-01	9.6466	19.013503	0.000333	3.334434	0.564868	0.006671
 967	4.8300e-01	9.6552	19.054555	0.000410	4.103919	0.695223	0.008210
 968	4.8350e-01	9.6649	19.111856	0.000573	5.728387	0.970415	0.011460
 969	4.8400e-01	9.6777	19.123830	0.000120	1.196976	0.202773	0.002395
 970	4.8450e-01	9.6875	19.162316	0.000385	3.847424	0.651771	0.007697
 971	4.8500e-01	9.6948	19.196526	0.000342	3.419932	0.579352	0.006842
 972	4.8550e-01	9.7083	19.242282	0.000457	4.574160	0.774884	0.009151
 973	4.8600e-01	9.7153	19.287183	0.000449	4.488661	0.760400	0.008980
 974	4.8650e-01	9.7278	19.305143	0.000180	1.795465	0.304160	0.003592
 975	4.8700e-01	9.7363	19.331228	0.000261	2.607698	0.441756	0.005217
 976	4.8750e-01	9.7449	19.365011	0.000338	3.377183	0.572110	0.006756
 977	4.8800e-01	9.7559	19.419747	0.000547	5.471892	0.926964	0.010947
 978	4.8850e-01	9.7693	19.462509	0.000427	4.274916	0.724190	0.008553
 979	4.8900e-01	9.7754	19.492015	0.000295	2.949692	0.499691	0.005901
 980	4.8950e-01	9.7870	19.520666	0.000286	2.864193	0.485207	0.005730
 981	4.9000e-01	9.7955	19.522804	0.000021	0.213746	0.036210	0.000428
 982	4.9050e-01	9.8053	19.593790	0.000710	7.096360	1.202156	0.014197
 983	4.9100e-01	9.8172	19.621158	0.000274	2.735946	0.463482	0.005474
 984	4.9150e-01	9.8279	19.651519	0.000304	3.035190	0.514175	0.006072
 985	4.9200e-01	9.8376	19.708821	0.000573	5.728387	0.970415	0.011460
 986	4.9250e-01	9.8453	19.704973	-0.000038	-0.384742	-0.065177	-0.000770
 987	4.9300e-01	9.8566	19.744742	0.000398	3.975671	0.673497	0.007954
 988	4.9350e-01	9.8685	19.809313	0.000646	6.455122	1.093527	0.012914
 989	4.9400e-01	9.8761	19.836681	0.000274	2.735946	0.463482	0.005474
 990	4.9450e-01	9.8877	19.872174	0.000355	3.548180	0.601078	0.007099
 991	4.9500e-01	9.8950	19.922634	0.000504	5.044400	0.854545	0.010092
 992	4.9550e-01	9.9057	19.956416	0.000338	3.377183	0.572110	0.006756
 993	4.9600e-01	9.9146	19.984640	0.000282	2.821444	0.477966	0.005645
 994	4.9650e-01	9.9255	20.013290	0.000286	2.864193	0.485207	0.005730
 995	4.9700e-01	9.9371	20.041941	0.000286	2.864193	0.485207	0.005730
 996	4.9750e-01	9.9469	20.083849	0.000419	4.189417	0.709706	0.008381
 997	4.9800e-01	9.9567	20.118486	0.000346	3.462682	0.586594	0.006928
 998	4.9850e-01	9.9652	20.171084	0.000526	5.258146	0.890754	0.010520
 999	4.9900e-01	9.9774	20.183485	0.000124	1.239726	0.210015	0.002480
1000	4.9950e-01	9.9854	20.244208	0.000607	6.070380	1.028350	0.012145
1001	5.0000e-01	9.9982	20.229241	-0.000150	-1.496220	-0.253467	-0.002993
1002	5.0050e-01	9.9854	20.210426	0.000188	1.880963	0.318644	-0.003763
1003	5.0100e-01	9.9750	20.214274	-0.000038	-0.384742	-0.065177	0.000770
1004	5.0150e-01	9.9640	20.188189	0.000261	2.607698	0.441756	-0.005217
1005	5.0200e-01	9.9536	20.181347	0.000068	0.683986	0.115870	-0.001368
1006	5.0250e-01	9.9469	20.153979	0.000274	2.735946	0.463482	-0.005474
1007	5.0300e-01	9.9365	20.141578	0.000124	1.239726	0.210015	-0.002480
1008	5.0350e-01	9.9231	20.145854	-0.000043	-0.427492	-0.072419	0.000855
1009	5.0400e-01	9.9139	20.096677	0.000492	4.916153	0.832819	-0.009835
1010	5.0450e-01	9.9054	20.104802	-0.000081	-0.812234	-0.137596	0.001625
1011	5.0500e-01	9.8950	20.084704	0.000201	2.009210	0.340369	-0.004020
1012	5.0550e-01	9.8853	20.056908	0.000278	2.778695	0.470724	-0.005559
1013	5.0600e-01	9.8749	20.051777	0.000051	0.512990	0.086903	-0.001026
1014	5.0650e-01	9.8633	20.027830	0.000239	2.393953	0.405547	-0.004789
1015	5.0700e-01	9.8547	20.015429	0.000124	1.239726	0.210015	-0.002480
1016	5.0750e-01	9.8462	19.994047	0.000214	2.137458	0.362095	-0.004276
1017	5.0800e-01	9.8358	19.960265	0.000338	3.377183	0.572110	-0.006756
1018	5.0850e-01	9.8245	19.961975	-0.000017	-0.170997	-0.028968	0.000342
1019	5.0900e-01	9.8151	19.931186	0.000308	3.077939	0.521417	-0.006158
1020	5.0950e-01	9.8047	19.908522	0.000227	2.265705	0.383821	-0.004533
1021	5.1000e-01	9.7931	19.898259	0.000103	1.025980	0.173806	-0.002053
1022	5.1050e-01	9.7856	19.875168	0.000231	2.308454	0.391063	-0.004618
1023	5.1100e-01	9.7778	19.866187	0.000090	0.897732	0.152080	-0.001796
1024	5.1150e-01	9.7614	19.836254	0.000299	2.992441	0.506933	-0.005987
1025	5.1200e-01	9.7540	19.811879	0.000244	2.436702	0.412788	-0.004875
1026	5.1250e-01	9.7449	19.780662	0.000312	3.120688	0.528659	-0.006243
1027	5.1300e-01	9.7357	19.793063	-0.000124	-1.239726	-0.210015	0.002480
1028	5.1350e-01	9.7247	19.737045	0.000560	5.600139	0.948689	-0.011204
1029	5.1400e-01	9.7150	19.738327	-0.000013	-0.128247	-0.021726	0.000257
1030	5.1450e-01	9.7046	19.716946	0.000214	2.137458	0.362095	-0.004276
1031	5.1500e-01	9.6948	19.689151	0.000278	2.778695	0.470724	-0.005559
1032	5.1550e-01	9.6838	19.692999	-0.000038	-0.384742	-0.065177	0.000770
1033	5.1600e-01	9.6729	19.653230	0.000398	3.975671	0.673497	-0.007954
1034	5.1650e-01	9.6655	19.618592	0.000346	3.462682	0.586594	-0.006928
1035	5.1700e-01	9.6564	19.604481	0.000141	1.410722	0.238983	-0.002822
1036	5.1750e-01	9.6478	19.577113	0.000274	2.735946	0.463482	-0.005474
1037	5.1800e-01	9.6344	19.551028	0.000261	2.607698	0.441756	-0.005217
1038	5.1850e-01	9.6252	19.535205	0.000158	1.581719	0.267950	-0.003164
1039	5.1900e-01	9.6167	19.528791	0.000064	0.641237	0.108629	-0.001283
1040	5.1950e-01	9.6033	19.512969	0.000158	1.581719	0.267950	-0.003164
1041	5.2000e-01	9.5941	19.468496	0.000445	4.445912	0.753158	-0.008895
1042	5.2050e-01	9.5862	19.460799	0.000077	0.769485	0.130354	-0.001539
1043	5.2100e-01	9.5758	19.440273	0.000205	2.051959	0.347611	-0.004105
1044	5.2150e-01	9.5642	19.417181	0.000231	2.308454	0.391063	-0.004618
1045	5.2200e-01	9.5526	19.394089	0.000231	2.308454	0.391063	-0.004618
1046	5.2250e-01	9.5453	19.367576	0.000265	2.650448	0.448998	-0.005303
1047	5.2300e-01	9.5367	19.358169	0.000094	0.940481	0.159322	-0.001882
1048	5.2350e-01	9.5245	19.311130	0.000470	4.702407	0.796609	-0.009408
1049	5.2400e-01	9.5160	19.300439	0.000107	1.068729	0.181048	-0.002138
1050	5.2450e-01	9.5062	19.255111	0.000453	4.531410	0.767642	-0.009066
1051	5.2500e-01	9.4958	19.248696	0.000064	0.641237	0.108629	-0.001283
1052	5.2550e-01	9.4870	19.220473	0.000282	2.821444	0.477966	-0.005645
1053	5.2600e-01	9.4769	19.214486	0.000060	0.598488	0.101387	-0.001197
1054	5.2650e-01	9.4638	19.193105	0.000214	2.137458	0.362095	-0.004276
1055	5.2700e-01	9.4550	19.175573	0.000175	1.752715	0.296918	-0.003507
1056	5.2750e-01	9.4446	19.145211	0.000304	3.035190	0.514175	-0.006072
1057	5.2800e-01	9.4373	19.122547	0.000227	2.265705	0.383821	-0.004533
1058	5.2850e-01	9.4229	19.100738	0.000218	2.180207	0.369337	-0.004362
1059	5.2900e-01	9.4165	19.099883	0.000009	0.085498	0.014484	-0.000171
1060	5.2950e-01	9.4067	19.019917	0.000799	7.994092	1.354236	-0.015993
1061	5.3000e-01	9.3970	19.030180	-0.000103	-1.025980	-0.173806	0.002053
1062	5.3050e-01	9.3854	19.002812	0.000274	2.735946	0.463482	-0.005474
1063	5.3100e-01	9.3774	18.983141	0.000197	1.966461	0.333128	-0.003934
1064	5.3150e-01	9.3665	18.948076	0.000351	3.505431	0.593836	-0.007013
1065	5.3200e-01	9.3549	18.917287	0.000308	3.077939	0.521417	-0.006158
1066	5.3250e-01	9.3451	18.910873	0.000064	0.641237	0.108629	-0.001283
1067	5.3300e-01	9.3378	18.885643	0.000252	2.522200	0.427272	-0.005046
1068	5.3350e-01	9.3259	18.845018	0.000406	4.061170	0.687981	-0.008125
1069	5.3400e-01	9.3134	18.842025	0.000030	0.299244	0.050693	-0.000599
1070	5.3450e-01	9.3036	18.814657	0.000274	2.735946	0.463482	-0.005474
1071	5.3500e-01	9.2957	18.804821	0.000098	0.983231	0.166564	-0.001967
1072	5.3550e-01	9.2859	18.772322	0.000325	3.248936	0.550385	-0.006500
1073	5.3600e-01	9.2743	18.740250	0.000321	3.206187	0.543143	-0.006414
1074	5.3650e-01	9.2639	18.710744	0.000295	2.949692	0.499691	-0.005901
1075	5.3700e-01	9.2548	18.711599	-0.000009	-0.085498	-0.014484	0.000171
1076	5.3750e-01	9.2444	18.681665	0.000299	2.992441	0.506933	-0.005987
1077	5.3800e-01	9.2352	18.651304	0.000304	3.035190	0.514175	-0.006072
1078	5.3850e-01	9.2267	18.612818	0.000385	3.847424	0.651771	-0.007697
1079	5.3900e-01	9.2139	18.601699	0.000111	1.111478	0.188289	-0.002224
1080	5.3950e-01	9.2065	18.563213	0.000385	3.847424	0.651771	-0.007697
1081	5.4000e-01	9.1974	18.534562	0.000286	2.864193	0.485207	-0.005730
1082	5.4050e-01	9.1864	18.527720	0.000068	0.683986	0.115870	-0.001368
1083	5.4100e-01	9.1766	18.494366	0.000333	3.334434	0.564868	-0.006671
1084	5.4150e-01	9.1660	18.484958	0.000094	0.940481	0.159322	-0.001882
1085	5.4200e-01	9.1547	18.450320	0.000346	3.462682	0.586594	-0.006928
1086	5.4250e-01	9.1467	18.415682	0.000346	3.462682	0.586594	-0.006928
1087	5.4300e-01	9.1357	18.401571	0.000141	1.410722	0.238983	-0.002822
1088	5.4350e-01	9.1266	18.378051	0.000235	2.351204	0.398305	-0.004704
1089	5.4400e-01	9.1168	18.344269	0.000338	3.377183	0.572110	-0.006756
1090	5.4450e-01	9.1046	18.326736	0.000175	1.752715	0.296918	-0.003507
1091	5.4500e-01	9.0961	18.294665	0.000321	3.206187	0.543143	-0.006414
1092	5.4550e-01	9.0872	18.269435	0.000252	2.522200	0.427272	-0.005046
1093	5.4600e-01	9.0765	18.239501	0.000299	2.992441	0.506933	-0.005987
1094	5.4650e-01	9.0643	18.232231	0.000073	0.726736	0.123112	-0.001454
1095	5.4700e-01	9.0564	18.196311	0.000359	3.590929	0.608320	-0.007184
1096	5.4750e-01	9.0466	18.157397	0.000389	3.890173	0.659013	-0.007783
1097	5.4800e-01	9.0369	18.144568	0.000128	1.282475	0.217257	-0.002566
1098	5.4850e-01	9.0228	18.129601	0.000150	1.496220	0.253467	-0.002993
1099	5.4900e-01	9.0137	18.088977	0.000406	4.061170	0.687981	-0.008125
1100	5.4950e-01	9.0048	18.061181	0.000278	2.778695	0.470724	-0.005559
1101	5.5000e-01	8.9966	18.063747	-0.000026	-0.256495	-0.043451	0.000513
1102	5.5050e-01	8.9844	18.002596	0.000611	6.113129	1.035592	-0.012230
1103	5.5100e-01	8.9746	17.984636	0.000180	1.795465	0.304160	-0.003592
1104	5.5150e-01	8.9662	17.988912	-0.000043	-0.427492	-0.072419	0.000855
1105	5.5200e-01	8.9584	17.955130	0.000338	3.377183	0.572110	-0.006756
1106	5.5250e-01	8.9441	17.920920	0.000342	3.419932	0.579352	-0.006842
1107	5.5300e-01	8.9349	17.893552	0.000274	2.735946	0.463482	-0.005474
1108	5.5350e-01	8.9252	17.861480	0.000321	3.206187	0.543143	-0.006414
1109	5.5400e-01	8.9139	17.832829	0.000286	2.864193	0.485207	-0.005730
1110	5.5450e-01	8.9063	17.808027	0.000248	2.479451	0.420030	-0.004960
1111	5.5500e-01	8.8922	17.796481	0.000115	1.154227	0.195531	-0.002309
1112	5.5550e-01	8.8849	17.754146	0.000423	4.232166	0.716948	-0.008467
1113	5.5600e-01	8.8788	17.731482	0.000227	2.265705	0.383821	-0.004533
1114	5.5650e-01	8.8672	17.712667	0.000188	1.880963	0.318644	-0.003763
1115	5.5700e-01	8.8550	17.675891	0.000368	3.676427	0.622804	-0.007355
1116	5.5750e-01	8.8464	17.651944	0.000239	2.393953	0.405547	-0.004789
1117	5.5800e-01	8.8348	17.638687	0.000133	1.325224	0.224499	-0.002651
1118	5.5850e-01	8.8239	17.608326	0.000304	3.035190	0.514175	-0.006072
1119	5.5900e-01	8.8150	17.591221	0.000171	1.709966	0.289676	-0.003421
1120	5.5950e-01	8.8062	17.538195	0.000530	5.300895	0.897996	-0.010605
1121	5.6000e-01	8.7952	17.525367	0.000128	1.282475	0.217257	-0.002566
1122	5.6050e-01	8.7860	17.494578	0.000308	3.077939	0.521417	-0.006158
1123	5.6100e-01	8.7738	17.479611	0.000150	1.496220	0.253467	-0.002993
1124	5.6150e-01	8.7646	17.438986	0.000406	4.061170	0.687981	-0.008125
1125	5.6200e-01	8.7546	17.423164	0.000158	1.581719	0.267950	-0.003164
1126	5.6250e-01	8.7445	17.385961	0.000372	3.719177	0.630046	-0.007441
1127	5.6300e-01	8.7384	17.350896	0.000351	3.505431	0.593836	-0.007013
1128	5.6350e-01	8.7250	17.346619	0.000043	0.427492	0.072419	-0.000855
1129	5.6400e-01	8.7172	17.321817	0.000248	2.479451	0.420030	-0.004960
1130	5.6450e-01	8.7048	17.294449	0.000274	2.735946	0.463482	-0.005474
1131	5.6500e-01	8.6969	17.252542	0.000419	4.189417	0.709706	-0.008381
1132	5.6550e-01	8.6871	17.232016	0.000205	2.051959	0.347611	-0.004105
1133	5.6600e-01	8.6755	17.199944	0.000321	3.206187	0.543143	-0.006414
1134	5.6650e-01	8.6670	17.180701	0.000192	1.923712	0.325886	-0.003849
1135	5.6700e-01	8.6548	17.165734	0.000150	1.496220	0.253467	-0.002993
1136	5.6750e-01	8.6426	17.141787	0.000239	2.393953	0.405547	-0.004789
1137	5.6800e-01	8.6356	17.099024	0.000427	4.274916	0.724190	-0.008553
1138	5.6850e-01	8.6267	17.091755	0.000073	0.726736	0.123112	-0.001454
1139	5.6900e-01	8.6145	17.031459	0.000603	6.027631	1.021108	-0.012059
1140	5.6950e-01	8.6047	17.009223	0.000222	2.222956	0.376579	-0.004447
1141	5.7000e-01	8.5956	16.996822	0.000124	1.239726	0.210015	-0.002480
1142	5.7050e-01	8.5864	16.962612	0.000342	3.419932	0.579352	-0.006842
1143	5.7100e-01	8.5760	16.950638	0.000120	1.196976	0.202773	-0.002395
1144	5.7150e-01	8.5663	16.918139	0.000325	3.248936	0.550385	-0.006500
1145	5.7200e-01	8.5565	16.875376	0.000427	4.274916	0.724190	-0.008553
1146	5.7250e-01	8.5464	16.857416	0.000180	1.795465	0.304160	-0.003592
1147	5.7300e-01	8.5384	16.828337	0.000291	2.906943	0.492449	-0.005816
1148	5.7350e-01	8.5266	16.799259	0.000291	2.906943	0.492449	-0.005816
1149	5.7400e-01	8.5156	16.774884	0.000244	2.436702	0.412788	-0.004875
1150	5.7450e-01	8.5071	16.738964	0.000359	3.590929	0.608320	-0.007184
1151	5.7500e-01	8.4985	16.732977	0.000060	0.598488	0.101387	-0.001197
1152	5.7550e-01	8.4859	16.687221	0.000457	4.574160	0.774884	-0.009151
1153	5.7600e-01	8.4772	16.669688	0.000175	1.752715	0.296918	-0.003507
1154	5.7650e-01	8.4637	16.631202	0.000385	3.847424	0.651771	-0.007697
1155	5.7700e-01	8.4546	16.617518	0.000137	1.367973	0.231741	-0.002737
1156	5.7750e-01	8.4448	16.589295	0.000282	2.821444	0.477966	-0.005645
1157	5.7800e-01	8.4351	16.575183	0.000141	1.410722	0.238983	-0.002822
1158	5.7850e-01	8.4253	16.542256	0.000329	3.291685	0.557627	-0.006585
1159	5.7900e-01	8.4174	16.491369	0.000509	5.087149	0.861786	-0.010177
1160	5.7950e-01	8.4058	16.470415	0.000209	2.094709	0.354853	-0.004191
1161	5.8000e-01	8.3990	16.438771	0.000316	3.163437	0.535901	-0.006329
1162	5.8050e-01	8.3856	16.413969	0.000248	2.479451	0.420030	-0.004960
1163	5.8100e-01	8.3759	16.378903	0.000351	3.505431	0.593836	-0.007013
1164	5.8150e-01	8.3643	16.373772	0.000051	0.512990	0.086903	-0.001026
1165	5.8200e-01	8.3551	16.344266	0.000295	2.949692	0.499691	-0.005901
1166	5.8250e-01	8.3469	16.301931	0.000423	4.232166	0.716948	-0.008467
1167	5.8300e-01	8.3331	16.273707	0.000282	2.821444	0.477966	-0.005645
1168	5.8350e-01	8.3270	16.249333	0.000244	2.436702	0.412788	-0.004875
1169	5.8400e-01	8.3185	16.221110	0.000282	2.821444	0.477966	-0.005645
1170	5.8450e-01	8.3051	16.212129	0.000090	0.897732	0.152080	-0.001796
1171	5.8500e-01	8.2965	16.169367	0.000427	4.274916	0.724190	-0.008553
1172	5.8550e-01	8.2874	16.141999	0.000274	2.735946	0.463482	-0.005474
1173	5.8600e-01	8.2782	16.098381	0.000436	4.360414	0.738674	-0.008724
1174	5.8650e-01	8.2654	16.080848	0.000175	1.752715	0.296918	-0.003507
1175	5.8700e-01	8.2574	16.056046	0.000248	2.479451	0.420030	-0.004960
1176	5.8750e-01	8.2452	16.044500	0.000115	1.154227	0.195531	-0.002309
1177	5.8800e-01	8.2385	16.012856	0.000316	3.163437	0.535901	-0.006329
1178	5.8850e-01	8.2239	15.973942	0.000389	3.890173	0.659013	-0.007783
1179	5.8900e-01	8.2159	15.940160	0.000338	3.377183	0.572110	-0.006756
1180	5.8950e-01	8.2062	15.914075	0.000261	2.607698	0.441756	-0.005217
1181	5.9000e-01	8.1964	15.881147	0.000329	3.291685	0.557627	-0.006585
1182	5.9050e-01	8.1848	15.863615	0.000175	1.752715	0.296918	-0.003507
1183	5.9100e-01	8.1766	15.837102	0.000265	2.650448	0.448998	-0.005303
1184	5.9150e-01	8.1671	15.811445	0.000256	2.564949	0.434514	-0.005132
1185	5.9200e-01	8.1567	15.780656	0.000308	3.077939	0.521417	-0.006158
1186	5.9250e-01	8.1458	15.750722	0.000299	2.992441	0.506933	-0.005987
1187	5.9300e-01	8.1354	15.708387	0.000423	4.232166	0.716948	-0.008467
1188	5.9350e-01	8.1250	15.711808	-0.000034	-0.341993	-0.057935	0.000684
1189	5.9400e-01	8.1152	15.687006	0.000248	2.479451	0.420030	-0.004960
1190	5.9450e-01	8.1073	15.641677	0.000453	4.531410	0.767642	-0.009066
1191	5.9500e-01	8.0978	15.593783	0.000479	4.787905	0.811093	-0.009579
1192	5.9550e-01	8.0841	15.605757	-0.000120	-1.196976	-0.202773	0.002395
1193	5.9600e-01	8.0777	15.560428	0.000453	4.531410	0.767642	-0.009066
1194	5.9650e-01	8.0670	15.521087	0.000393	3.932922	0.666255	-0.007868
1195	5.9700e-01	8.0576	15.483456	0.000376	3.761926	0.637287	-0.007526
1196	5.9750e-01	8.0463	15.452239	0.000312	3.120688	0.528659	-0.006243
1197	5.9800e-01	8.0359	15.432141	0.000201	2.009210	0.340369	-0.004020
1198	5.9850e-01	8.0280	15.412470	0.000197	1.966461	0.333128	-0.003934
1199	5.9900e-01	8.0139	15.381681	0.000308	3.077939	0.521417	-0.006158
1200	5.9950e-01	8.0063	15.356451	0.000252	2.522200	0.427272	-0.005046
1201	6.0000e-01	7.9938	15.317965	0.000385	3.847424	0.651771	-0.007697
1202	6.0050e-01	7.9846	15.298294	0.000197	1.966461	0.333128	-0.003934
1203	6.0100e-01	7.9750	15.279479	0.000188	1.880963	0.318644	-0.003763
1204	6.0150e-01	7.9681	15.236716	0.000427	4.274916	0.724190	-0.008553
1205	6.0200e-01	7.9575	15.205500	0.000312	3.120688	0.528659	-0.006243
1206	6.0250e-01	7.9453	15.173000	0.000325	3.248936	0.550385	-0.006500
1207	6.0300e-01	7.9364	15.159316	0.000137	1.367973	0.231741	-0.002737
1208	6.0350e-01	7.9248	15.127672	0.000316	3.163437	0.535901	-0.006329
1209	6.0400e-01	7.9176	15.079350	0.000483	4.830655	0.818335	-0.009664
1210	6.0450e-01	7.9041	15.071653	0.000077	0.769485	0.130354	-0.001539
1211	6.0500e-01	7.8967	15.037870	0.000338	3.377183	0.572110	-0.006756
1212	6.0550e-01	7.8864	14.992970	0.000449	4.488661	0.760400	-0.008980
1213	6.0600e-01	7.8796	14.983134	0.000098	0.983231	0.166564	-0.001967
1214	6.0650e-01	7.8644	14.964746	0.000184	1.838214	0.311402	-0.003678
1215	6.0700e-01	7.8571	14.914287	0.000504	5.044400	0.854545	-0.010092
1216	6.0750e-01	7.8455	14.870241	0.000440	4.403163	0.745916	-0.008809
1217	6.0800e-01	7.8375	14.856130	0.000141	1.410722	0.238983	-0.002822
1218	6.0850e-01	7.8253	14.833038	0.000231	2.308454	0.391063	-0.004618
1219	6.0900e-01	7.8210	14.799683	0.000333	3.334434	0.564868	-0.006671
1220	6.0950e-01	7.8070	14.785144	0.000145	1.453471	0.246225	-0.002908
1221	6.1000e-01	7.7954	14.764618	0.000205	2.051959	0.347611	-0.004105
1222	6.1050e-01	7.7853	14.715869	0.000487	4.873404	0.825577	-0.009750
1223	6.1100e-01	7.7740	14.694487	0.000214	2.137458	0.362095	-0.004276
1224	6.1150e-01	7.7667	14.664554	0.000299	2.992441	0.506933	-0.005987
1225	6.1200e-01	7.7563	14.639324	0.000252	2.522200	0.427272	-0.005046
1226	6.1250e-01	7.7466	14.599555	0.000398	3.975671	0.673497	-0.007954
1227	6.1300e-01	7.7362	14.585870	0.000137	1.367973	0.231741	-0.002737
1228	6.1350e-01	7.7246	14.544818	0.000410	4.103919	0.695223	-0.008210
1229	6.1400e-01	7.7167	14.522582	0.000222	2.222956	0.376579	-0.004447
1230	6.1450e-01	7.7060	14.477681	0.000449	4.488661	0.760400	-0.008980
1231	6.1500e-01	7.6953	14.453307	0.000244	2.436702	0.412788	-0.004875
1232	6.1550e-01	7.6865	14.425939	0.000274	2.735946	0.463482	-0.005474
1233	6.1600e-01	7.6752	14.387452	0.000385	3.847424	0.651771	-0.007697
1234	6.1650e-01	7.6648	14.372913	0.000145	1.453471	0.246225	-0.002908
1235	6.1700e-01	7.6569	14.342124	0.000308	3.077939	0.521417	-0.006158
1236	6.1750e-01	7.6459	14.306204	0.000359	3.590929	0.608320	-0.007184
1237	6.1800e-01	7.6370	14.285250	0.000209	2.094709	0.354853	-0.004191
1238	6.1850e-01	7.6245	14.254461	0.000308	3.077939	0.521417	-0.006158
1239	6.1900e-01	7.6166	14.222817	0.000316	3.163437	0.535901	-0.006329
1240	6.1950e-01	7.6050	14.199297	0.000235	2.351204	0.398305	-0.004704
1241	6.2000e-01	7.5958	14.150976	0.000483	4.830655	0.818335	-0.009664
1242	6.2050e-01	7.5873	14.114627	0.000363	3.633678	0.615562	-0.007270
1243	6.2100e-01	7.5781	14.093674	0.000209	2.094709	0.354853	-0.004191
1244	6.2150e-01	7.5653	14.084694	0.000090	0.897732	0.152080	-0.001796
1245	6.2200e-01	7.5525	14.087687	-0.000030	-0.299244	-0.050693	0.000599
1246	6.2250e-01	7.5482	14.004300	0.000834	8.336085	1.412171	-0.016677
1247	6.2300e-01	7.5360	13.986340	0.000180	1.795465	0.304160	-0.003592
1248	6.2350e-01	7.5272	13.957261	0.000291	2.906943	0.492449	-0.005816
1249	6.2400e-01	7.5159	13.936308	0.000209	2.094709	0.354853	-0.004191
1250	6.2450e-01	7.5061	13.886276	0.000500	5.001651	0.847303	-0.010006
1251	6.2500e-01	7.4945	13.866177	0.000201	2.009210	0.340369	-0.004020
1252	6.2550e-01	7.4860	13.826408	0.000398	3.975671	0.673497	-0.007954
1253	6.2600e-01	7.4768	13.809731	0.000167	1.667217	0.282434	-0.003335
1254	6.2650e-01	7.4658	13.783218	0.000265	2.650448	0.448998	-0.005303
1255	6.2700e-01	7.4548	13.741311	0.000419	4.189417	0.709706	-0.008381
1256	6.2750e-01	7.4489	13.707956	0.000333	3.334434	0.564868	-0.006671
1257	6.2800e-01	7.4417	13.662200	0.000457	4.574160	0.774884	-0.009151
1258	6.2850e-01	7.4255	13.654503	0.000077	0.769485	0.130354	-0.001539
1259	6.2900e-01	7.4170	13.612168	0.000423	4.232166	0.716948	-0.008467
1260	6.2950e-01	7.4030	13.583944	0.000282	2.821444	0.477966	-0.005645
1261	6.3000e-01	7.3987	13.566412	0.000175	1.752715	0.296918	-0.003507
1262	6.3050e-01	7.3859	13.543320	0.000231	2.308454	0.391063	-0.004618
1263	6.3100e-01	7.3749	13.482170	0.000611	6.113129	1.035592	-0.012230
1264	6.3150e-01	7.3694	13.472334	0.000098	0.983231	0.166564	-0.001967
1265	6.3200e-01	7.3538	13.447104	0.000252	2.522200	0.427272	-0.005046
1266	6.3250e-01	7.3450	13.403487	0.000436	4.360414	0.738674	-0.008724
1267	6.3300e-01	7.3364	13.395789	0.000077	0.769485	0.130354	-0.001539
1268	6.3350e-01	7.3244	13.349606	0.000462	4.616909	0.782126	-0.009237
1269	6.3400e-01	7.3138	13.328225	0.000214	2.137458	0.362095	-0.004276
1270	6.3450e-01	7.3065	13.298718	0.000295	2.949692	0.499691	-0.005901
1271	6.3500e-01	7.2977	13.249114	0.000496	4.958902	0.840061	-0.009921
1272	6.3550e-01	7.2852	13.239706	0.000094	0.940481	0.159322	-0.001882
1273	6.3600e-01	7.2778	13.220463	0.000192	1.923712	0.325886	-0.003849
1274	6.3650e-01	7.2658	13.182832	0.000376	3.761926	0.637287	-0.007526
1275	6.3700e-01	7.2571	13.122109	0.000607	6.070380	1.028350	-0.012145
1276	6.3750e-01	7.2458	13.103721	0.000184	1.838214	0.311402	-0.003678
1277	6.3800e-01	7.2363	13.082768	0.000209	2.094709	0.354853	-0.004191
1278	6.3850e-01	7.2260	13.052834	0.000299	2.992441	0.506933	-0.005987
1279	6.3900e-01	7.2156	13.013065	0.000398	3.975671	0.673497	-0.007954
1280	6.3950e-01	7.2046	12.994249	0.000188	1.880963	0.318644	-0.003763
1281	6.4000e-01	7.1960	12.956191	0.000380	3.804675	0.644529	-0.007612
1282	6.4050e-01	7.1848	12.934382	0.000218	2.180207	0.369337	-0.004362
1283	6.4100e-01	7.1750	12.899744	0.000346	3.462682	0.586594	-0.006928
1284	6.4150e-01	7.1655	12.853561	0.000462	4.616909	0.782126	-0.009237
1285	6.4200e-01	7.1558	12.843297	0.000103	1.025980	0.173806	-0.002053
1286	6.4250e-01	7.1472	12.804811	0.000385	3.847424	0.651771	-0.007697
1287	6.4300e-01	7.1338	12.777871	0.000269	2.693197	0.456240	-0.005388
1288	6.4350e-01	7.1265	12.757345	0.000205	2.051959	0.347611	-0.004105
1289	6.4400e-01	7.1179	12.710734	0.000466	4.659658	0.789367	-0.009322
1290	6.4450e-01	7.1075	12.671392	0.000393	3.932922	0.666255	-0.007868
1291	6.4500e-01	7.0959	12.649156	0.000222	2.222956	0.376579	-0.004447
1292	6.4550e-01	7.0856	12.604255	0.000449	4.488661	0.760400	-0.008980
1293	6.4600e-01	7.0761	12.586295	0.000180	1.795465	0.304160	-0.003592
1294	6.4650e-01	7.0667	12.534980	0.000513	5.129899	0.869028	-0.010263
1295	6.4700e-01	7.0551	12.531559	0.000034	0.341993	0.057935	-0.000684
1296	6.4750e-01	7.0450	12.494783	0.000368	3.676427	0.622804	-0.007355
1297	6.4800e-01	7.0374	12.463139	0.000316	3.163437	0.535901	-0.006329
1298	6.4850e-01	7.0247	12.434915	0.000282	2.821444	0.477966	-0.005645
1299	6.4900e-01	7.0175	12.389587	0.000453	4.531410	0.767642	-0.009066
1300	6.4950e-01	7.0056	12.368206	0.000214	2.137458	0.362095	-0.004276
1301	6.5000e-01	6.9954	12.342976	0.000252	2.522200	0.427272	-0.005046
1302	6.5050e-01	6.9849	12.302352	0.000406	4.061170	0.687981	-0.008125
1303	6.5100e-01	6.9769	12.272418	0.000299	2.992441	0.506933	-0.005987
1304	6.5150e-01	6.9672	12.244194	0.000282	2.821444	0.477966	-0.005645
1305	6.5200e-01	6.9521	12.212550	0.000316	3.163437	0.535901	-0.006329
1306	6.5250e-01	6.9446	12.184327	0.000282	2.821444	0.477966	-0.005645
1307	6.5300e-01	6.9337	12.135578	0.000487	4.873404	0.825577	-0.009750
1308	6.5350e-01	6.9235	12.125742	0.000098	0.983231	0.166564	-0.001967
1309	6.5400e-01	6.9135	12.092815	0.000329	3.291685	0.557627	-0.006585
1310	6.5450e-01	6.9067	12.064592	0.000282	2.821444	0.477966	-0.005645
1311	6.5500e-01	6.8936	12.040645	0.000239	2.393953	0.405547	-0.004789
1312	6.5550e-01	6.8848	12.000448	0.000402	4.018421	0.680739	-0.008039
1313	6.5600e-01	6.8756	11.976073	0.000244	2.436702	0.412788	-0.004875
1314	6.5650e-01	6.8640	11.905088	0.000710	7.096360	1.202156	-0.014197
1315	6.5700e-01	6.8549	11.901667	0.000034	0.341993	0.057935	-0.000684
1316	6.5750e-01	6.8457	11.864036	0.000376	3.761926	0.637287	-0.007526
1317	6.5800e-01	6.8372	11.831536	0.000325	3.248936	0.550385	-0.006500
1318	6.5850e-01	6.8250	11.812721	0.000188	1.880963	0.318644	-0.003763
1319	6.5900e-01	6.8152	11.761833	0.000509	5.087149	0.861786	-0.010177
1320	6.5950e-01	6.8048	11.727196	0.000346	3.462682	0.586594	-0.006928
1321	6.6000e-01	6.7944	11.700255	0.000269	2.693197	0.456240	-0.005388
1322	6.6050e-01	6.7867	11.676736	0.000235	2.351204	0.398305	-0.004704
1323	6.6100e-01	6.7740	11.639960	0.000368	3.676427	0.622804	-0.007355
1324	6.6150e-01	6.7639	11.625421	0.000145	1.453471	0.246225	-0.002908
1325	6.6200e-01	6.7548	11.582658	0.000427	4.274916	0.724190	-0.008553
1326	6.6250e-01	6.7432	11.540323	0.000423	4.232166	0.716948	-0.008467
1327	6.6300e-01	6.7361	11.528777	0.000115	1.154227	0.195531	-0.002309
1328	6.6350e-01	6.7252	11.483022	0.000457	4.574160	0.774884	-0.009151
1329	6.6400e-01	6.7151	11.453943	0.000291	2.906943	0.492449	-0.005816
1330	6.6450e-01	6.7072	11.438548	0.000154	1.538970	0.260709	-0.003079
1331	6.6500e-01	6.6959	11.392365	0.000462	4.616909	0.782126	-0.009237
1332	6.6550e-01	6.6840	11.364569	0.000278	2.778695	0.470724	-0.005559
1333	6.6600e-01	6.6762	11.327366	0.000372	3.719177	0.630046	-0.007441
1334	6.6650e-01	6.6653	11.308978	0.000184	1.838214	0.311402	-0.003678
1335	6.6700e-01	6.6553	11.272630	0.000363	3.633678	0.615562	-0.007270
1336	6.6750e-01	6.6473	11.220887	0.000517	5.172648	0.876270	-0.010349
1337	6.6800e-01	6.6382	11.198651	0.000222	2.222956	0.376579	-0.004447
1338	6.6850e-01	6.6248	11.172566	0.000261	2.607698	0.441756	-0.005217
1339	6.6900e-01	6.6144	11.146053	0.000265	2.650448	0.448998	-0.005303
1340	6.6950e-01	6.6089	11.113553	0.000325	3.248936	0.550385	-0.006500
1341	6.7000e-01	6.5948	11.093883	0.000197	1.966461	0.333128	-0.003934
1342	6.7050e-01	6.5863	11.046416	0.000475	4.745156	0.803851	-0.009493
1343	6.7100e-01	6.5735	11.015199	0.000312	3.120688	0.528659	-0.006243
1344	6.7150e-01	6.5643	10.983128	0.000321	3.206187	0.543143	-0.006414
1345	6.7200e-01	6.5564	10.929674	0.000534	5.343644	0.905238	-0.010691
1346	6.7250e-01	6.5460	10.912569	0.000171	1.709966	0.289676	-0.003421
1347	6.7300e-01	6.5353	10.878787	0.000338	3.377183	0.572110	-0.006756
1348	6.7350e-01	6.5305	10.858689	0.000201	2.009210	0.340369	-0.004020
1349	6.7400e-01	6.5161	10.798393	0.000603	6.027631	1.021108	-0.012059
1350	6.7450e-01	6.5057	10.788558	0.000098	0.983231	0.166564	-0.001967
1351	6.7500e-01	6.4944	10.760335	0.000282	2.821444	0.477966	-0.005645
1352	6.7550e-01	6.4856	10.725697	0.000346	3.462682	0.586594	-0.006928
1353	6.7600e-01	6.4754	10.669251	0.000564	5.642889	0.955931	-0.011289
1354	6.7650e-01	6.4673	10.656422	0.000128	1.282475	0.217257	-0.002566
1355	6.7700e-01	6.4557	10.631192	0.000252	2.522200	0.427272	-0.005046
1356	6.7750e-01	6.4435	10.567048	0.000641	6.412373	1.086285	-0.012829
1357	6.7800e-01	6.4362	10.554647	0.000124	1.239726	0.210015	-0.002480
1358	6.7850e-01	6.4264	10.509746	0.000449	4.488661	0.760400	-0.008980
1359	6.7900e-01	6.4117	10.490931	0.000188	1.880963	0.318644	-0.003763
1360	6.7950e-01	6.4038	10.459287	0.000316	3.163437	0.535901	-0.006329
1361	6.8000e-01	6.3931	10.427215	0.000321	3.206187	0.543143	-0.006414
1362	6.8050e-01	6.3855	10.388728	0.000385	3.847424	0.651771	-0.007697
1363	6.8100e-01	6.3753	10.358795	0.000299	2.992441	0.506933	-0.005987
1364	6.8150e-01	6.3661	10.333992	0.000248	2.479451	0.420030	-0.004960
1365	6.8200e-01	6.3556	10.315605	0.000184	1.838214	0.311402	-0.003678
1366	6.8250e-01	6.3449	10.270276	0.000453	4.531410	0.767642	-0.009066
1367	6.8300e-01	6.3356	10.227086	0.000432	4.317665	0.731432	-0.008638
1368	6.8350e-01	6.3251	10.197152	0.000299	2.992441	0.506933	-0.005987
1369	6.8400e-01	6.3156	10.169784	0.000274	2.735946	0.463482	-0.005474
1370	6.8450e-01	6.3062	10.139851	0.000299	2.992441	0.506933	-0.005987
1371	6.8500e-01	6.2933	10.107351	0.000325	3.248936	0.550385	-0.006500
1372	6.8550e-01	6.2857	10.059885	0.000475	4.745156	0.803851	-0.009493
1373	6.8600e-01	6.2738	10.039359	0.000205	2.051959	0.347611	-0.004105
1374	6.8650e-01	6.2630	10.014984	0.000244	2.436702	0.412788	-0.004875
1375	6.8700e-01	6.2564	9.970083	0.000449	4.488661	0.760400	-0.008980
1376	6.8750e-01	6.2476	9.933308	0.000368	3.676427	0.622804	-0.007355
1377	6.8800e-01	6.2372	9.882420	0.000509	5.087149	0.861786	-0.010177
1378	6.8850e-01	6.2256	9.869591	0.000128	1.282475	0.217257	-0.002566
1379	6.8900e-01	6.2186	9.849921	0.000197	1.966461	0.333128	-0.003934
1380	6.8950e-01	6.2054	9.813572	0.000363	3.633678	0.615562	-0.007270
1381	6.9000e-01	6.1987	9.783639	0.000299	2.992441	0.506933	-0.005987
1382	6.9050e-01	6.1853	9.739593	0.000440	4.403163	0.745916	-0.008809
1383	6.9100e-01	6.1751	9.702817	0.000368	3.676427	0.622804	-0.007355
1384	6.9150e-01	6.1652	9.674594	0.000282	2.821444	0.477966	-0.005645
1385	6.9200e-01	6.1560	9.638674	0.000359	3.590929	0.608320	-0.007184
1386	6.9250e-01	6.1484	9.599760	0.000389	3.890173	0.659013	-0.007783
1387	6.9300e-01	6.1353	9.601470	-0.000017	-0.170997	-0.028968	0.000342
1388	6.9350e-01	6.1272	9.540320	0.000611	6.113129	1.035592	-0.012230
1389	6.9400e-01	6.1182	9.491998	0.000483	4.830655	0.818335	-0.009664
1390	6.9450e-01	6.1072	9.461637	0.000304	3.035190	0.514175	-0.006072
1391	6.9500e-01	6.0962	9.436407	0.000252	2.522200	0.427272	-0.005046
1392	6.9550e-01	6.0849	9.403480	0.000329	3.291685	0.557627	-0.006585
1393	6.9600e-01	6.0762	9.373974	0.000295	2.949692	0.499691	-0.005901
1394	6.9650e-01	6.0657	9.332066	0.000419	4.189417	0.709706	-0.008381
1395	6.9700e-01	6.0577	9.296146	0.000359	3.590929	0.608320	-0.007184
1396	6.9750e-01	6.0461	9.268350	0.000278	2.778695	0.470724	-0.005559
1397	6.9800e-01	6.0345	9.235423	0.000329	3.291685	0.557627	-0.006585
1398	6.9850e-01	6.0272	9.221311	0.000141	1.410722	0.238983	-0.002822
1399	6.9900e-01	6.0144	9.161444	0.000598	5.984882	1.013866	-0.011974
1400	6.9950e-01	6.0066	9.130655	0.000308	3.077939	0.521417	-0.006158
1401	7.0000e-01	5.9967	9.106280	0.000244	2.436702	0.412788	-0.004875
1402	7.0050e-01	5.9863	9.072925	0.000333	3.334434	0.564868	-0.006671
1403	7.0100e-01	5.9796	9.027597	0.000453	4.531410	0.767642	-0.009066
1404	7.0150e-01	5.9622	9.032301	-0.000047	-0.470241	-0.079661	0.000941
1405	7.0200e-01	5.9549	8.961743	0.000705	7.053611	1.194914	-0.014112
1406	7.0250e-01	5.9473	8.931809	0.000299	2.992441	0.506933	-0.005987
1407	7.0300e-01	5.9348	8.896744	0.000351	3.505431	0.593836	-0.007013
1408	7.0350e-01	5.9256	8.871514	0.000252	2.522200	0.427272	-0.005046
1409	7.0400e-01	5.9177	8.821054	0.000504	5.044400	0.854545	-0.010092
1410	7.0450e-01	5.9064	8.800956	0.000201	2.009210	0.340369	-0.004020
1411	7.0500e-01	5.8942	8.755627	0.000453	4.531410	0.767642	-0.009066
1412	7.0550e-01	5.8899	8.732963	0.000227	2.265705	0.383821	-0.004533
1413	7.0600e-01	5.8754	8.706878	0.000261	2.607698	0.441756	-0.005217
1414	7.0650e-01	5.8661	8.671813	0.000351	3.505431	0.593836	-0.007013
1415	7.0700e-01	5.8575	8.608524	0.000633	6.326875	1.071802	-0.012658
1416	7.0750e-01	5.8469	8.582867	0.000256	2.564949	0.434514	-0.005132
1417	7.0800e-01	5.8351	8.599972	-0.000171	-1.709966	-0.289676	0.003421
1418	7.0850e-01	5.8264	8.511881	0.000881	8.806326	1.491832	-0.017618
1419	7.0900e-01	5.8185	8.484941	0.000269	2.693197	0.456240	-0.005388
1420	7.0950e-01	5.8060	8.457145	0.000278	2.778695	0.470724	-0.005559
1421	7.1000e-01	5.7947	8.434481	0.000227	2.265705	0.383821	-0.004533
1422	7.1050e-01	5.7867	8.374613	0.000598	5.984882	1.013866	-0.011974
1423	7.1100e-01	5.7751	8.375896	-0.000013	-0.128247	-0.021726	0.000257
1424	7.1150e-01	5.7660	8.322871	0.000530	5.300895	0.897996	-0.010605
1425	7.1200e-01	5.7545	8.293792	0.000291	2.906943	0.492449	-0.005816
1426	7.1250e-01	5.7477	8.263858	0.000299	2.992441	0.506933	-0.005987
1427	7.1300e-01	5.7376	8.230931	0.000329	3.291685	0.557627	-0.006585
1428	7.1350e-01	5.7263	8.190307	0.000406	4.061170	0.687981	-0.008125
1429	7.1400e-01	5.7153	8.148400	0.000419	4.189417	0.709706	-0.008381
1430	7.1450e-01	5.7074	8.121459	0.000269	2.693197	0.456240	-0.005388
1431	7.1500e-01	5.6952	8.070572	0.000509	5.087149	0.861786	-0.010177
1432	7.1550e-01	5.6851	8.068861	0.000017	0.170997	0.028968	-0.000342
1433	7.1600e-01	5.6772	8.008994	0.000598	5.984882	1.013866	-0.011974
1434	7.1650e-01	5.6641	7.979915	0.000291	2.906943	0.492449	-0.005816
1435	7.1700e-01	5.6551	7.957251	0.000227	2.265705	0.383821	-0.004533
1436	7.1750e-01	5.6491	7.906791	0.000504	5.044400	0.854545	-0.010092
1437	7.1800e-01	5.6372	7.869588	0.000372	3.719177	0.630046	-0.007441
1438	7.1850e-01	5.6274	7.839654	0.000299	2.992441	0.506933	-0.005987
1439	7.1900e-01	5.6165	7.804161	0.000355	3.548180	0.601078	-0.007099
1440	7.1950e-01	5.6036	7.778504	0.000256	2.564949	0.434514	-0.005132
1441	7.2000e-01	5.5965	7.749425	0.000291	2.906943	0.492449	-0.005816
1442	7.2050e-01	5.5865	7.719491	0.000299	2.992441	0.506933	-0.005987
1443	7.2100e-01	5.5762	7.671597	0.000479	4.787905	0.811093	-0.009579
1444	7.2150e-01	5.5655	7.639526	0.000321	3.206187	0.543143	-0.006414
1445	7.2200e-01	5.5566	7.621565	0.000180	1.795465	0.304160	-0.003592
1446	7.2250e-01	5.5463	7.565546	0.000560	5.600139	0.948689	-0.011204
1447	7.2300e-01	5.5347	7.533474	0.000321	3.206187	0.543143	-0.006414
1448	7.2350e-01	5.5255	7.512093	0.000214	2.137458	0.362095	-0.004276
1449	7.2400e-01	5.5157	7.476600	0.000355	3.548180	0.601078	-0.007099
1450	7.2450e-01	5.5032	7.440680	0.000359	3.590929	0.608320	-0.007184
1451	7.2500e-01	5.4968	7.398345	0.000423	4.232166	0.716948	-0.008467
1452	7.2550e-01	5.4828	7.361997	0.000363	3.633678	0.615562	-0.007270
1453	7.2600e-01	5.4767	7.327787	0.000342	3.419932	0.579352	-0.006842
1454	7.2650e-01	5.4660	7.288873	0.000389	3.890173	0.659013	-0.007783
1455	7.2700e-01	5.4547	7.248676	0.000402	4.018421	0.680739	-0.008039
1456	7.2750e-01	5.4471	7.214466	0.000342	3.419932	0.579352	-0.006842
1457	7.2800e-01	5.4346	7.189236	0.000252	2.522200	0.427272	-0.005046
1458	7.2850e-01	5.4248	7.142197	0.000470	4.702407	0.796609	-0.009408
1459	7.2900e-01	5.4153	7.102428	0.000398	3.975671	0.673497	-0.007954
1460	7.2950e-01	5.4047	7.096869	0.000056	0.555739	0.094145	-0.001112
1461	7.3000e-01	5.3998	7.050258	0.000466	4.659658	0.789367	-0.009322
1462	7.3050e-01	5.3903	6.999798	0.000504	5.044400	0.854545	-0.010092
1463	7.3100e-01	5.3790	6.971575	0.000282	2.821444	0.477966	-0.005645
1464	7.3150e-01	5.3682	6.924964	0.000466	4.659658	0.789367	-0.009322
1465	7.3200e-01	5.3581	6.909569	0.000154	1.538970	0.260709	-0.003079
1466	7.3250e-01	5.3467	6.870228	0.000393	3.932922	0.666255	-0.007868
1467	7.3300e-01	5.3357	6.821051	0.000492	4.916153	0.832819	-0.009835
1468	7.3350e-01	5.3278	6.803090	0.000180	1.795465	0.304160	-0.003592
1469	7.3400e-01	5.3125	6.780426	0.000227	2.265705	0.383821	-0.004533
1470	7.3450e-01	5.3046	6.722697	0.000577	5.771136	0.977657	-0.011546
1471	7.3500e-01	5.2997	6.701316	0.000214	2.137458	0.362095	-0.004276
1472	7.3550e-01	5.2856	6.640593	0.000607	6.070380	1.028350	-0.012145
1473	7.3600e-01	5.2771	6.629475	0.000111	1.111478	0.188289	-0.002224
1474	7.3650e-01	5.2646	6.588850	0.000406	4.061170	0.687981	-0.008125
1475	7.3700e-01	5.2551	6.547798	0.000410	4.103919	0.695223	-0.008210
1476	7.3750e-01	5.2417	6.517009	0.000308	3.077939	0.521417	-0.006158
1477	7.3800e-01	5.2356	6.475957	0.000410	4.103919	0.695223	-0.008210
1478	7.3850e-01	5.2260	6.417800	0.000581	5.813885	0.984899	-0.011631
1479	7.3900e-01	5.2161	6.407537	0.000103	1.025980	0.173806	-0.002053
1480	7.3950e-01	5.2040	6.357077	0.000504	5.044400	0.854545	-0.010092
1481	7.4000e-01	5.1981	6.345959	0.000111	1.111478	0.188289	-0.002224
1482	7.4050e-01	5.1862	6.295499	0.000504	5.044400	0.854545	-0.010092
1483	7.4100e-01	5.1746	6.251454	0.000440	4.403163	0.745916	-0.008809
1484	7.4150e-01	5.1636	6.225369	0.000261	2.607698	0.441756	-0.005217
1485	7.4200e-01	5.1566	6.182606	0.000427	4.274916	0.724190	-0.008553
1486	7.4250e-01	5.1431	6.169350	0.000133	1.325224	0.224499	-0.002651
1487	7.4300e-01	5.1349	6.112903	0.000564	5.642889	0.955931	-0.011289
1488	7.4350e-01	5.1251	6.083825	0.000291	2.906943	0.492449	-0.005816
1489	7.4400e-01	5.1143	6.038924	0.000449	4.488661	0.760400	-0.008980
1490	7.4450e-01	5.1056	5.998727	0.000402	4.018421	0.680739	-0.008039
1491	7.4500e-01	5.0916	5.974353	0.000244	2.436702	0.412788	-0.004875
1492	7.4550e-01	5.0839	5.930307	0.000440	4.403163	0.745916	-0.008809
1493	7.4600e-01	5.0742	5.892249	0.000380	3.804675	0.644529	-0.007612
1494	7.4650e-01	5.0665	5.860604	0.000316	3.163437	0.535901	-0.006329
1495	7.4700e-01	5.0548	5.832381	0.000282	2.821444	0.477966	-0.005645
1496	7.4750e-01	5.0455	5.801592	0.000308	3.077939	0.521417	-0.006158
1497	7.4800e-01	5.0348	5.776362	0.000252	2.522200	0.427272	-0.005046
1498	7.4850e-01	5.0266	5.697252	0.000791	7.908594	1.339752	-0.015822
1499	7.4900e-01	5.0171	5.663469	0.000338	3.377183	0.572110	-0.006756
1500	7.4950e-01	5.0067	5.656627	0.000068	0.683986	0.115870	-0.001368
1501	7.5000e-01	4.9963	5.615147	0.000415	4.146668	0.702465	-0.008296
1502	7.5050e-01	4.9884	5.577516	0.000376	3.761926	0.637287	-0.007526
1503	7.5100e-01	4.9762	5.521925	0.000556	5.557390	0.941447	-0.011118
1504	7.5150e-01	4.9658	5.497123	0.000248	2.479451	0.420030	-0.004960
1505	7.5200e-01	4.9585	5.472748	0.000244	2.436702	0.412788	-0.004875
1506	7.5250e-01	4.9475	5.430841	0.000419	4.189417	0.709706	-0.008381
1507	7.5300e-01	4.9359	5.403473	0.000274	2.735946	0.463482	-0.005474
1508	7.5350e-01	4.9252	5.350447	0.000530	5.300895	0.897996	-0.010605
1509	7.5400e-01	4.9149	5.313672	0.000368	3.676427	0.622804	-0.007355
1510	7.5450e-01	4.9039	5.291008	0.000227	2.265705	0.383821	-0.004533
1511	7.5500e-01	4.8941	5.243969	0.000470	4.702407	0.796609	-0.009408
1512	7.5550e-01	4.8865	5.210186	0.000338	3.377183	0.572110	-0.006756
1513	7.5600e-01	4.8785	5.163148	0.000470	4.702407	0.796609	-0.009408
1514	7.5650e-01	4.8665	5.123378	0.000398	3.975671	0.673497	-0.007954
1515	7.5700e-01	4.8590	5.093017	0.000304	3.035190	0.514175	-0.006072
1516	7.5750e-01	4.8456	5.060945	0.000321	3.206187	0.543143	-0.006414
1517	7.5800e-01	4.8360	5.001933	0.000590	5.899383	0.999383	-0.011802
1518	7.5850e-01	4.8273	4.984400	0.000175	1.752715	0.296918	-0.003507
1519	7.5900e-01	4.8157	4.949763	0.000346	3.462682	0.586594	-0.006928
1520	7.5950e-01	4.8047	4.910421	0.000393	3.932922	0.666255	-0.007868
1521	7.6000e-01	4.7968	4.877066	0.000333	3.334434	0.564868	-0.006671
1522	7.6050e-01	4.7832	4.844567	0.000325	3.248936	0.550385	-0.006500
1523	7.6100e-01	4.7778	4.817199	0.000274	2.735946	0.463482	-0.005474
1524	7.6150e-01	4.7644	4.748779	0.000684	6.839865	1.158704	-0.013684
1525	7.6200e-01	4.7537	4.711575	0.000372	3.719177	0.630046	-0.007441
1526	7.6250e-01	4.7444	4.678648	0.000329	3.291685	0.557627	-0.006585
1527	7.6300e-01	4.7371	4.653846	0.000248	2.479451	0.420030	-0.004960
1528	7.6350e-01	4.7244	4.618781	0.000351	3.505431	0.593836	-0.007013
1529	7.6400e-01	4.7165	4.575163	0.000436	4.360414	0.738674	-0.008724
1530	7.6450e-01	4.7064	4.528124	0.000470	4.702407	0.796609	-0.009408
1531	7.6500e-01	4.6957	4.505888	0.000222	2.222956	0.376579	-0.004447
1532	7.6550e-01	4.6869	4.463980	0.000419	4.189417	0.709706	-0.008381
1533	7.6600e-01	4.6753	4.422928	0.000410	4.103919	0.695223	-0.008210
1534	7.6650e-01	4.6646	4.389573	0.000333	3.334434	0.564868	-0.006671
1535	7.6700e-01	4.6567	4.357074	0.000325	3.248936	0.550385	-0.006500
1536	7.6750e-01	4.6448	4.318160	0.000389	3.890173	0.659013	-0.007783
1537	7.6800e-01	4.6379	4.273687	0.000445	4.445912	0.753158	-0.008895
1538	7.6850e-01	4.6243	4.235628	0.000380	3.804675	0.644529	-0.007612
1539	7.6900e-01	4.6138	4.205695	0.000299	2.992441	0.506933	-0.005987
1540	7.6950e-01	4.6060	4.161649	0.000440	4.403163	0.745916	-0.008809
1541	7.7000e-01	4.5956	4.131288	0.000304	3.035190	0.514175	-0.006072
1542	7.7050e-01	4.5850	4.093657	0.000376	3.761926	0.637287	-0.007526
1543	7.7100e-01	4.5718	4.049184	0.000445	4.445912	0.753158	-0.008895
1544	7.7150e-01	4.5627	4.004711	0.000445	4.445912	0.753158	-0.008895
1545	7.7200e-01	4.5551	3.980764	0.000239	2.393953	0.405547	-0.004789
1546	7.7250e-01	4.5447	3.941422	0.000393	3.932922	0.666255	-0.007868
1547	7.7300e-01	4.5364	3.897377	0.000440	4.403163	0.745916	-0.008809
1548	7.7350e-01	4.5258	3.857608	0.000398	3.975671	0.673497	-0.007954
1549	7.7400e-01	4.5197	3.804154	0.000534	5.343644	0.905238	-0.010691
1550	7.7450e-01	4.5065	3.801589	0.000026	0.256495	0.043451	-0.000513
1551	7.7500e-01	4.4934	3.760537	0.000410	4.103919	0.695223	-0.008210
1552	7.7550e-01	4.4853	3.686985	0.000735	7.352855	1.245607	-0.014710
1553	7.7600e-01	4.4785	3.670308	0.000167	1.667217	0.282434	-0.003335
1554	7.7650e-01	4.4666	3.639091	0.000312	3.120688	0.528659	-0.006243
1555	7.7700e-01	4.4556	3.596756	0.000423	4.232166	0.716948	-0.008467
1556	7.7750e-01	4.4479	3.533040	0.000637	6.369624	1.079044	-0.012743
1557	7.7800e-01	4.4366	3.527053	0.000060	0.598488	0.101387	-0.001197
1558	7.7850e-01	4.4235	3.487712	0.000393	3.932922	0.666255	-0.007868
1559	7.7900e-01	4.4144	3.433831	0.000539	5.386394	0.912480	-0.010776
1560	7.7950e-01	4.4049	3.404325	0.000295	2.949692	0.499691	-0.005901
1561	7.8000e-01	4.3988	3.367549	0.000368	3.676427	0.622804	-0.007355
1562	7.8050e-01	4.3860	3.333339	0.000342	3.419932	0.579352	-0.006842
1563	7.8100e-01	4.3774	3.286300	0.000470	4.702407	0.796609	-0.009408
1564	7.8150e-01	4.3634	3.237979	0.000483	4.830655	0.818335	-0.009664
1565	7.8200e-01	4.3518	3.201630	0.000363	3.633678	0.615562	-0.007270
1566	7.8250e-01	4.3451	3.192650	0.000090	0.897732	0.152080	-0.001796
1567	7.8300e-01	4.3347	3.140480	0.000522	5.215397	0.883512	-0.010434
1568	7.8350e-01	4.3265	3.089165	0.000513	5.129899	0.869028	-0.010263
1569	7.8400e-01	4.3164	3.072915	0.000162	1.624468	0.275192	-0.003250
1570	7.8450e-01	4.3054	3.039133	0.000338	3.377183	0.572110	-0.006756
1571	7.8500e-01	4.2941	2.974561	0.000646	6.455122	1.093527	-0.012914
1572	7.8550e-01	4.2877	2.951897	0.000227	2.265705	0.383821	-0.004533
1573	7.8600e-01	4.2754	2.901437	0.000504	5.044400	0.854545	-0.010092
1574	7.8650e-01	4.2639	2.877490	0.000239	2.393953	0.405547	-0.004789
1575	7.8700e-01	4.2560	2.837294	0.000402	4.018421	0.680739	-0.008039
1576	7.8750e-01	4.2480	2.760321	0.000769	7.694848	1.303543	-0.015395
1577	7.8800e-01	4.2343	2.739368	0.000209	2.094709	0.354853	-0.004191
1578	7.8850e-01	4.2255	2.707296	0.000321	3.206187	0.543143	-0.006414
1579	7.8900e-01	4.2162	2.689335	0.000180	1.795465	0.304160	-0.003592
1580	7.8950e-01	4.2047	2.634599	0.000547	5.471892	0.926964	-0.010947
1581	7.9000e-01	4.1956	2.593120	0.000415	4.146668	0.702465	-0.008296
1582	7.9050e-01	4.1849	2.542232	0.000509	5.087149	0.861786	-0.010177
1583	7.9100e-01	4.1751	2.513154	0.000291	2.906943	0.492449	-0.005816
1584	7.9150e-01	4.1647	2.484075	0.000291	2.906943	0.492449	-0.005816
1585	7.9200e-01	4.1577	2.451576	0.000325	3.248936	0.550385	-0.006500
1586	7.9250e-01	4.1438	2.394702	0.000569	5.685638	0.963173	-0.011375
1587	7.9300e-01	4.1376	2.345952	0.000487	4.873404	0.825577	-0.009750
1588	7.9350e-01	4.1226	2.312597	0.000333	3.334434	0.564868	-0.006671
1589	7.9400e-01	4.1187	2.268980	0.000436	4.360414	0.738674	-0.008724
1590	7.9450e-01	4.1054	2.239474	0.000295	2.949692	0.499691	-0.005901
1591	7.9500e-01	4.0942	2.197994	0.000415	4.146668	0.702465	-0.008296
1592	7.9550e-01	4.0845	2.173192	0.000248	2.479451	0.420030	-0.004960
1593	7.9600e-01	4.0735	2.115462	0.000577	5.771136	0.977657	-0.011546
1594	7.9650e-01	4.0646	2.090660	0.000248	2.479451	0.420030	-0.004960
1595	7.9700e-01	4.0567	2.058160	0.000325	3.248936	0.550385	-0.006500
1596	7.9750e-01	4.0462	1.977339	0.000808	8.079590	1.368720	-0.016164
1597	7.9800e-01	4.0365	1.953392	0.000239	2.393953	0.405547	-0.004789
1598	7.9850e-01	4.0266	1.933294	0.000201	2.009210	0.340369	-0.004020
1599	7.9900e-01	4.0161	1.890531	0.000427	4.274916	0.724190	-0.008553
1600	7.9950e-01	4.0057	1.850762	0.000398	3.975671	0.673497	-0.007954
1601	8.0000e-01	3.9931	1.810993	0.000398	3.975671	0.673497	-0.007954
1602	8.0050e-01	3.9863	1.754119	0.000569	5.685638	0.963173	-0.011375
1603	8.0100e-01	3.9738	1.723757	0.000304	3.035190	0.514175	-0.006072
1604	8.0150e-01	3.9645	1.695534	0.000282	2.821444	0.477966	-0.005645
1605	8.0200e-01	3.9577	1.636522	0.000590	5.899383	0.999383	-0.011802
1606	8.0250e-01	3.9471	1.606161	0.000304	3.035190	0.514175	-0.006072
1607	8.0300e-01	3.9368	1.576654	0.000295	2.949692	0.499691	-0.005901
1608	8.0350e-01	3.9270	1.515932	0.000607	6.070380	1.028350	-0.012145
1609	8.0400e-01	3.9157	1.476162	0.000398	3.975671	0.673497	-0.007954
1610	8.0450e-01	3.9058	1.434255	0.000419	4.189417	0.709706	-0.008381
1611	8.0500e-01	3.8959	1.411163	0.000231	2.308454	0.391063	-0.004618
1612	8.0550e-01	3.8898	1.352151	0.000590	5.899383	0.999383	-0.011802
1613	8.0600e-01	3.8762	1.323928	0.000282	2.821444	0.477966	-0.005645
1614	8.0650e-01	3.8643	1.293139	0.000308	3.077939	0.521417	-0.006158
1615	8.0700e-01	3.8550	1.229850	0.000633	6.326875	1.071802	-0.012658
1616	8.0750e-01	3.8464	1.209752	0.000201	2.009210	0.340369	-0.004020
1617	8.0800e-01	3.8367	1.166134	0.000436	4.360414	0.738674	-0.008724
1618	8.0850e-01	3.8245	1.113964	0.000522	5.215397	0.883512	-0.010434
1619	8.0900e-01	3.8171	1.089589	0.000244	2.436702	0.412788	-0.004875
1620	8.0950e-01	3.8028	1.039129	0.000504	5.044400	0.854545	-0.010092
1621	8.1000e-01	3.7933	0.992946	0.000462	4.616909	0.782126	-0.009237
1622	8.1050e-01	3.7811	0.987814	0.000051	0.512990	0.086903	-0.001026
1623	8.1100e-01	3.7729	0.929657	0.000581	5.813885	0.984899	-0.011631
1624	8.1150e-01	3.7671	0.880053	0.000496	4.958902	0.840061	-0.009921
1625	8.1200e-01	3.7579	0.840711	0.000393	3.932922	0.666255	-0.007868
1626	8.1250e-01	3.7469	0.807784	0.000329	3.291685	0.557627	-0.006585
1627	8.1300e-01	3.7367	0.769298	0.000385	3.847424	0.651771	-0.007697
1628	8.1350e-01	3.7258	0.731239	0.000380	3.804675	0.644529	-0.007612
1629	8.1400e-01	3.7155	0.678214	0.000530	5.300895	0.897996	-0.010605
1630	8.1450e-01	3.7057	0.652129	0.000261	2.607698	0.441756	-0.005217
1631	8.1500e-01	3.6942	0.611504	0.000406	4.061170	0.687981	-0.008125
1632	8.1550e-01	3.6877	0.548643	0.000628	6.284126	1.064560	-0.012572
1633	8.1600e-01	3.6755	0.506736	0.000419	4.189417	0.709706	-0.008381
1634	8.1650e-01	3.6682	0.469533	0.000372	3.719177	0.630046	-0.007441
1635	8.1700e-01	3.6569	0.432757	0.000368	3.676427	0.622804	-0.007355
1636	8.1750e-01	3.6453	0.382725	0.000500	5.001651	0.847303	-0.010006
1637	8.1800e-01	3.6353	0.356639	0.000261	2.607698	0.441756	-0.005217
1638	8.1850e-01	3.6261	0.306607	0.000500	5.001651	0.847303	-0.010006
1639	8.1900e-01	3.6152	0.261279	0.000453	4.531410	0.767642	-0.009066
1640	8.1950e-01	3.6069	0.229207	0.000321	3.206187	0.543143	-0.006414
1641	8.2000e-01	3.5950	0.169340	0.000598	5.984882	1.013866	-0.011974
1642	8.2050e-01	3.5870	0.144537	0.000248	2.479451	0.420030	-0.004960
1643	8.2100e-01	3.5757	0.100492	0.000440	4.403163	0.745916	-0.008809
1644	8.2150e-01	3.5651	0.062861	0.000376	3.761926	0.637287	-0.007526
1645	8.2200e-01	3.5559	0.043618	0.000192	1.923712	0.325886	-0.003849
1646	8.2250e-01	3.5439	-0.005559	0.000492	4.916153	0.832819	-0.009835
1647	8.2300e-01	3.5339	-0.059440	0.000539	5.386394	0.912480	-0.010776
1648	8.2350e-01	3.5274	-0.113321	0.000539	5.386394	0.912480	-0.010776
1649	8.2400e-01	3.5138	-0.157366	0.000440	4.403163	0.745916	-0.008809
1650	8.2450e-01	3.5071	-0.193714	0.000363	3.633678	0.615562	-0.007270
1651	8.2500e-01	3.4950	-0.217661	0.000239	2.393953	0.405547	-0.004789
1652	8.2550e-01	3.4857	-0.254009	0.000363	3.633678	0.615562	-0.007270
1653	8.2600e-01	3.4753	-0.303186	0.000492	4.916153	0.832819	-0.009835
1654	8.2650e-01	3.4656	-0.350225	0.000470	4.702407	0.796609	-0.009408
1655	8.2700e-01	3.4576	-0.401968	0.000517	5.172648	0.876270	-0.010349
1656	8.2750e-01	3.4439	-0.432757	0.000308	3.077939	0.521417	-0.006158
1657	8.2800e-01	3.4383	-0.468250	0.000355	3.548180	0.601078	-0.007099
1658	8.2850e-01	3.4236	-0.502887	0.000346	3.462682	0.586594	-0.006928
1659	8.2900e-01	3.4149	-0.553347	0.000504	5.044400	0.854545	-0.010092
1660	8.2950e-01	3.4046	-0.598675	0.000453	4.531410	0.767642	-0.009066
1661	8.3000e-01	3.3942	-0.629464	0.000308	3.077939	0.521417	-0.006158
1662	8.3050e-01	3.3838	-0.687621	0.000581	5.813885	0.984899	-0.011631
1663	8.3100e-01	3.3755	-0.735943	0.000483	4.830655	0.818335	-0.009664
1664	8.3150e-01	3.3667	-0.758180	0.000222	2.222956	0.376579	-0.004447
1665	8.3200e-01	3.3566	-0.801370	0.000432	4.317665	0.731432	-0.008638
1666	8.3250e-01	3.3463	-0.855251	0.000539	5.386394	0.912480	-0.010776
1667	8.3300e-01	3.3356	-0.883046	0.000278	2.778695	0.470724	-0.005559
1668	8.3350e-01	3.3261	-0.942914	0.000598	5.984882	1.013866	-0.011974
1669	8.3400e-01	3.3167	-0.965150	0.000222	2.222956	0.376579	-0.004447
1670	8.3450e-01	3.3057	-1.013044	0.000479	4.787905	0.811093	-0.009579
1671	8.3500e-01	3.2935	-1.066070	0.000530	5.300895	0.897996	-0.010605
1672	8.3550e-01	3.2849	-1.100707	0.000346	3.462682	0.586594	-0.006928
1673	8.3600e-01	3.2758	-1.140904	0.000402	4.018421	0.680739	-0.008039
1674	8.3650e-01	3.2672	-1.181529	0.000406	4.061170	0.687981	-0.008125
1675	8.3700e-01	3.2568	-1.227712	0.000462	4.616909	0.782126	-0.009237
1676	8.3750e-01	3.2455	-1.264916	0.000372	3.719177	0.630046	-0.007441
1677	8.3800e-01	3.2370	-1.315803	0.000509	5.087149	0.861786	-0.010177
1678	8.3850e-01	3.2254	-1.358993	0.000432	4.317665	0.731432	-0.008638
1679	8.3900e-01	3.2156	-1.409453	0.000504	5.044400	0.854545	-0.010092
1680	8.3950e-01	3.2062	-1.441952	0.000325	3.248936	0.550385	-0.006500
1681	8.4000e-01	3.1953	-1.475735	0.000338	3.377183	0.572110	-0.006756
1682	8.4050e-01	3.1843	-1.529188	0.000534	5.343644	0.905238	-0.010691
1683	8.4100e-01	3.1738	-1.586062	0.000569	5.685638	0.963173	-0.011375
1684	8.4150e-01	3.1671	-1.610009	0.000239	2.393953	0.405547	-0.004789
1685	8.4200e-01	3.1570	-1.653627	0.000436	4.360414	0.738674	-0.008724
1686	8.4250e-01	3.1445	-1.697672	0.000440	4.403163	0.745916	-0.008809
1687	8.4300e-01	3.1357	-1.743428	0.000457	4.574160	0.774884	-0.009151
1688	8.4350e-01	3.1264	-1.776783	0.000333	3.334434	0.564868	-0.006671
1689	8.4400e-01	3.1149	-1.813131	0.000363	3.633678	0.615562	-0.007270
1690	8.4450e-01	3.1033	-1.871288	0.000581	5.813885	0.984899	-0.011631
1691	8.4500e-01	3.0975	-1.910202	0.000389	3.890173	0.659013	-0.007783
1692	8.4550e-01	3.0850	-1.970925	0.000607	6.070380	1.028350	-0.012145
1693	8.4600e-01	3.0748	-1.994872	0.000239	2.393953	0.405547	-0.004789
1694	8.4650e-01	3.0658	-2.035069	0.000402	4.018421	0.680739	-0.008039
1695	8.4700e-01	3.0566	-2.091088	0.000560	5.600139	0.948689	-0.011204
1696	8.4750e-01	3.0438	-2.131284	0.000402	4.018421	0.680739	-0.008039
1697	8.4800e-01	3.0365	-2.147534	0.000162	1.624468	0.275192	-0.003250
1698	8.4850e-01	3.0258	-2.198849	0.000513	5.129899	0.869028	-0.010263
1699	8.4900e-01	3.0161	-2.250592	0.000517	5.172648	0.876270	-0.010349
1700	8.4950e-01	3.0056	-2.303617	0.000530	5.300895	0.897996	-0.010605
1701	8.5000e-01	2.9971	-2.327992	0.000244	2.436702	0.412788	-0.004875
1702	8.5050e-01	2.9819	-2.388287	0.000603	6.027631	1.021108	-0.012059
1703	8.5100e-01	2.9739	-2.443023	0.000547	5.471892	0.926964	-0.010947
1704	8.5150e-01	2.9651	-2.478088	0.000351	3.505431	0.593836	-0.007013
1705	8.5200e-01	2.9559	-2.511016	0.000329	3.291685	0.557627	-0.006585
1706	8.5250e-01	2.9449	-2.543943	0.000329	3.291685	0.557627	-0.006585
1707	8.5300e-01	2.9365	-2.617494	0.000735	7.352855	1.245607	-0.014710
1708	8.5350e-01	2.9279	-2.664961	0.000475	4.745156	0.803851	-0.009493
1709	8.5400e-01	2.9156	-2.694894	0.000299	2.992441	0.506933	-0.005987
1710	8.5450e-01	2.9050	-2.727394	0.000325	3.248936	0.550385	-0.006500
1711	8.5500e-01	2.8968	-2.788544	0.000611	6.113129	1.035592	-0.012230
1712	8.5550e-01	2.8860	-2.823182	0.000346	3.462682	0.586594	-0.006928
1713	8.5600e-01	2.8769	-2.871076	0.000479	4.787905	0.811093	-0.009579
1714	8.5650e-01	2.8664	-2.906997	0.000359	3.590929	0.608320	-0.007184
1715	8.5700e-01	2.8548	-2.954035	0.000470	4.702407	0.796609	-0.009408
1716	8.5750e-01	2.8433	-2.986535	0.000325	3.248936	0.550385	-0.006500
1717	8.5800e-01	2.8339	-3.040843	0.000543	5.429143	0.919722	-0.010862
1718	8.5850e-01	2.8275	-3.088737	0.000479	4.787905	0.811093	-0.009579
1719	8.5900e-01	2.8149	-3.134921	0.000462	4.616909	0.782126	-0.009237
1720	8.5950e-01	2.8046	-3.184098	0.000492	4.916153	0.832819	-0.009835
1721	8.6000e-01	2.7963	-3.218735	0.000346	3.462682	0.586594	-0.006928
1722	8.6050e-01	2.7853	-3.260643	0.000419	4.189417	0.709706	-0.008381
1723	8.6100e-01	2.7747	-3.325642	0.000650	6.497872	1.100769	-0.013000
1724	8.6150e-01	2.7686	-3.358141	0.000325	3.248936	0.550385	-0.006500
1725	8.6200e-01	2.7571	-3.397483	0.000393	3.932922	0.666255	-0.007868
1726	8.6250e-01	2.7444	-3.447943	0.000504	5.044400	0.854545	-0.010092
1727	8.6300e-01	2.7344	-3.505244	0.000573	5.728387	0.970415	-0.011460
1728	8.6350e-01	2.7261	-3.538599	0.000333	3.334434	0.564868	-0.006671
1729	8.6400e-01	2.7161	-3.581362	0.000427	4.274916	0.724190	-0.008553
1730	8.6450e-01	2.7029	-3.622841	0.000415	4.146668	0.702465	-0.008296
1731	8.6500e-01	2.6928	-3.662610	0.000398	3.975671	0.673497	-0.007954
1732	8.6550e-01	2.6862	-3.705373	0.000427	4.274916	0.724190	-0.008553
1733	8.6600e-01	2.6756	-3.759681	0.000543	5.429143	0.919722	-0.010862
1734	8.6650e-01	2.6654	-3.810996	0.000513	5.129899	0.869028	-0.010263
1735	8.6700e-01	2.6550	-3.832805	0.000218	2.180207	0.369337	-0.004362
1736	8.6750e-01	2.6459	-3.882837	0.000500	5.001651	0.847303	-0.010006
1737	8.6800e-01	2.6367	-3.942277	0.000594	5.942133	1.006625	-0.011888
1738	8.6850e-01	2.6263	-4.003855	0.000616	6.155878	1.042834	-0.012316
1739	8.6900e-01	2.6147	-4.035500	0.000316	3.163437	0.535901	-0.006329
1740	8.6950e-01	2.6035	-4.077407	0.000419	4.189417	0.709706	-0.008381
1741	8.7000e-01	2.5947	-4.112045	0.000346	3.462682	0.586594	-0.006928
1742	8.7050e-01	2.5857	-4.153524	0.000415	4.146668	0.702465	-0.008296
1743	8.7100e-01	2.5756	-4.209971	0.000564	5.642889	0.955931	-0.011289
1744	8.7150e-01	2.5647	-4.264707	0.000547	5.471892	0.926964	-0.010947
1745	8.7200e-01	2.5568	-4.320726	0.000560	5.600139	0.948689	-0.011204
1746	8.7250e-01	2.5464	-4.359212	0.000385	3.847424	0.651771	-0.007697
1747	8.7300e-01	2.5354	-4.398981	0.000398	3.975671	0.673497	-0.007954
1748	8.7350e-01	2.5237	-4.440888	0.000419	4.189417	0.709706	-0.008381
1749	8.7400e-01	2.5122	-4.476809	0.000359	3.590929	0.608320	-0.007184
1750	8.7450e-01	2.5064	-4.520854	0.000440	4.403163	0.745916	-0.008809
1751	8.7500e-01	2.4979	-4.566610	0.000457	4.574160	0.774884	-0.009151
1752	8.7550e-01	2.4866	-4.615360	0.000487	4.873404	0.825577	-0.009750
1753	8.7600e-01	2.4771	-4.665819	0.000504	5.044400	0.854545	-0.010092
1754	8.7650e-01	2.4639	-4.707727	0.000419	4.189417	0.709706	-0.008381
1755	8.7700e-01	2.4561	-4.761607	0.000539	5.386394	0.912480	-0.010776
1756	8.7750e-01	2.4459	-4.802659	0.000410	4.103919	0.695223	-0.008210
1757	8.7800e-01	2.4354	-4.835587	0.000329	3.291685	0.557627	-0.006585
1758	8.7850e-01	2.4265	-4.877494	0.000419	4.189417	0.709706	-0.008381
1759	8.7900e-01	2.4132	-4.943776	0.000663	6.626119	1.122495	-0.013256
1760	8.7950e-01	2.4068	-4.989104	0.000453	4.531410	0.767642	-0.009066
1761	8.8000e-01	2.3912	-5.039136	0.000500	5.001651	0.847303	-0.010006
1762	8.8050e-01	2.3851	-5.084465	0.000453	4.531410	0.767642	-0.009066
1763	8.8100e-01	2.3701	-5.123378	0.000389	3.890173	0.659013	-0.007783
1764	8.8150e-01	2.3669	-5.161865	0.000385	3.847424	0.651771	-0.007697
1765	8.8200e-01	2.3557	-5.185384	0.000235	2.351204	0.398305	-0.004704
1766	8.8250e-01	2.3432	-5.243113	0.000577	5.771136	0.977657	-0.011546
1767	8.8300e-01	2.3316	-5.316237	0.000731	7.310106	1.238365	-0.014625
1768	8.8350e-01	2.3270	-5.330777	0.000145	1.453471	0.246225	-0.002908
1769	8.8400e-01	2.3158	-5.400480	0.000697	6.968112	1.180430	-0.013941
1770	8.8450e-01	2.3047	-5.438538	0.000380	3.804675	0.644529	-0.007612
1771	8.8500e-01	2.2943	-5.485149	0.000466	4.659658	0.789367	-0.009322
1772	8.8550e-01	2.2870	-5.527484	0.000423	4.232166	0.716948	-0.008467
1773	8.8600e-01	2.2758	-5.579227	0.000517	5.172648	0.876270	-0.010349
1774	8.8650e-01	2.2653	-5.621134	0.000419	4.189417	0.709706	-0.008381
1775	8.8700e-01	2.2546	-5.683568	0.000624	6.241377	1.057318	-0.012487
1776	8.8750e-01	2.2493	-5.726330	0.000427	4.274916	0.724190	-0.008553
1777	8.8800e-01	2.2343	-5.771231	0.000449	4.488661	0.760400	-0.008980
1778	8.8850e-01	2.2260	-5.817414	0.000462	4.616909	0.782126	-0.009237
1779	8.8900e-01	2.2144	-5.840506	0.000231	2.308454	0.391063	-0.004618
1780	8.8950e-01	2.2052	-5.905077	0.000646	6.455122	1.093527	-0.012914
1781	8.9000e-01	2.1965	-5.968794	0.000637	6.369624	1.079044	-0.012743
1782	8.9050e-01	2.1867	-5.994451	0.000256	2.564949	0.434514	-0.005132
1783	8.9100e-01	2.1739	-6.036786	0.000423	4.232166	0.716948	-0.008467
1784	8.9150e-01	2.1672	-6.092377	0.000556	5.557390	0.941447	-0.011118
1785	8.9200e-01	2.1567	-6.139844	0.000475	4.745156	0.803851	-0.009493
1786	8.9250e-01	2.1456	-6.192442	0.000526	5.258146	0.890754	-0.010520
1787	8.9300e-01	2.1333	-6.237342	0.000449	4.488661	0.760400	-0.008980
1788	8.9350e-01	2.1240	-6.282243	0.000449	4.488661	0.760400	-0.008980
1789	8.9400e-01	2.1162	-6.343821	0.000616	6.155878	1.042834	-0.012316
1790	8.9450e-01	2.1059	-6.390432	0.000466	4.659658	0.789367	-0.009322
1791	8.9500e-01	2.0949	-6.428918	0.000385	3.847424	0.651771	-0.007697
1792	8.9550e-01	2.0863	-6.479378	0.000504	5.044400	0.854545	-0.010092
1793	8.9600e-01	2.0752	-6.503753	0.000244	2.436702	0.412788	-0.004875
1794	8.9650e-01	2.0654	-6.570035	0.000663	6.626119	1.122495	-0.013256
1795	8.9700e-01	2.0560	-6.610231	0.000402	4.018421	0.680739	-0.008039
1796	8.9750e-01	2.0448	-6.676513	0.000663	6.626119	1.122495	-0.013256
1797	8.9800e-01	2.0353	-6.706875	0.000304	3.035190	0.514175	-0.006072
1798	8.9850e-01	2.0258	-6.765887	0.000590	5.899383	0.999383	-0.011802
1799	8.9900e-01	2.0180	-6.809932	0.000440	4.403163	0.745916	-0.008809
1800	8.9950e-01	2.0050	-6.867234	0.000573	5.728387	0.970415	-0.011460
1801	9.0000e-01	1.9942	-6.908714	0.000415	4.146668	0.702465	-0.008296
1802	9.0050e-01	1.9841	-6.948483	0.000398	3.975671	0.673497	-0.007954
1803	9.0100e-01	1.9753	-6.994667	0.000462	4.616909	0.782126	-0.009237
1804	9.0150e-01	1.9645	-7.049830	0.000551	5.514641	0.934205	-0.011033
1805	9.0200e-01	1.9564	-7.111408	0.000616	6.155878	1.042834	-0.012316
1806	9.0250e-01	1.9440	-7.143053	0.000316	3.163437	0.535901	-0.006329
1807	9.0300e-01	1.9370	-7.172131	0.000291	2.906943	0.492449	-0.005816
1808	9.0350e-01	1.9250	-7.238413	0.000663	6.626119	1.122495	-0.013256
1809	9.0400e-01	1.9151	-7.290156	0.000517	5.172648	0.876270	-0.010349
1810	9.0450e-01	1.9025	-7.319662	0.000295	2.949692	0.499691	-0.005901
1811	9.0500e-01	1.8966	-7.391930	0.000722	7.224607	1.223882	-0.014454
1812	9.0550e-01	1.8839	-7.421864	0.000299	2.992441	0.506933	-0.005987
1813	9.0600e-01	1.8773	-7.467620	0.000457	4.574160	0.774884	-0.009151
1814	9.0650e-01	1.8659	-7.501830	0.000342	3.419932	0.579352	-0.006842
1815	9.0700e-01	1.8558	-7.564691	0.000628	6.284126	1.064560	-0.012572
1816	9.0750e-01	1.8463	-7.596763	0.000321	3.206187	0.543143	-0.006414
1817	9.0800e-01	1.8354	-7.675018	0.000782	7.823095	1.325268	-0.015651
1818	9.0850e-01	1.8247	-7.737024	0.000620	6.198628	1.050076	-0.012401
1819	9.0900e-01	1.8134	-7.774655	0.000376	3.761926	0.637287	-0.007526
1820	9.0950e-01	1.8049	-7.802451	0.000278	2.778695	0.470724	-0.005559
1821	9.1000e-01	1.7942	-7.861035	0.000586	5.856634	0.992141	-0.011717
1822	9.1050e-01	1.7851	-7.910212	0.000492	4.916153	0.832819	-0.009835
1823	9.1100e-01	1.7740	-7.968797	0.000586	5.856634	0.992141	-0.011717
1824	9.1150e-01	1.7642	-8.006000	0.000372	3.719177	0.630046	-0.007441
1825	9.1200e-01	1.7560	-8.046625	0.000406	4.061170	0.687981	-0.008125
1826	9.1250e-01	1.7438	-8.098367	0.000517	5.172648	0.876270	-0.010349
1827	9.1300e-01	1.7349	-8.153959	0.000556	5.557390	0.941447	-0.011118
1828	9.1350e-01	1.7271	-8.198859	0.000449	4.488661	0.760400	-0.008980
1829	9.1400e-01	1.7162	-8.248036	0.000492	4.916153	0.832819	-0.009835
1830	9.1450e-01	1.7078	-8.300207	0.000522	5.215397	0.883512	-0.010434
1831	9.1500e-01	1.6959	-8.352804	0.000526	5.258146	0.890754	-0.010520
1832	9.1550e-01	1.6841	-8.408396	0.000556	5.557390	0.941447	-0.011118
1833	9.1600e-01	1.6769	-8.461849	0.000534	5.343644	0.905238	-0.010691
1834	9.1650e-01	1.6654	-8.498625	0.000368	3.676427	0.622804	-0.007355
1835	9.1700e-01	1.6560	-8.532835	0.000342	3.419932	0.579352	-0.006842
1836	9.1750e-01	1.6445	-8.586288	0.000534	5.343644	0.905238	-0.010691
1837	9.1800e-01	1.6364	-8.645300	0.000590	5.899383	0.999383	-0.011802
1838	9.1850e-01	1.6245	-8.703885	0.000586	5.856634	0.992141	-0.011717
1839	9.1900e-01	1.6128	-8.747930	0.000440	4.403163	0.745916	-0.008809
1840	9.1950e-01	1.6074	-8.794969	0.000470	4.702407	0.796609	-0.009408
1841	9.2000e-01	1.5961	-8.822765	0.000278	2.778695	0.470724	-0.005559
1842	9.2050e-01	1.5865	-8.879639	0.000569	5.685638	0.963173	-0.011375
1843	9.2100e-01	1.5744	-8.946776	0.000671	6.711617	1.136979	-0.013427
1844	9.2150e-01	1.5647	-8.999374	0.000526	5.258146	0.890754	-0.010520
1845	9.2200e-01	1.5566	-9.033584	0.000342	3.419932	0.579352	-0.006842
1846	9.2250e-01	1.5442	-9.078057	0.000445	4.445912	0.753158	-0.008895
1847	9.2300e-01	1.5350	-9.128517	0.000504	5.044400	0.854545	-0.010092
1848	9.2350e-01	1.5248	-9.193516	0.000650	6.497872	1.100769	-0.013000
1849	9.2400e-01	1.5128	-9.237989	0.000445	4.445912	0.753158	-0.008895
1850	9.2450e-01	1.5057	-9.269205	0.000312	3.120688	0.528659	-0.006243
1851	9.2500e-01	1.4955	-9.344040	0.000748	7.481102	1.267333	-0.014967
1852	9.2550e-01	1.4838	-9.379960	0.000359	3.590929	0.608320	-0.007184
1853	9.2600e-01	1.4756	-9.425289	0.000453	4.531410	0.767642	-0.009066
1854	9.2650e-01	1.4655	-9.477031	0.000517	5.172648	0.876270	-0.010349
1855	9.2700e-01	1.4559	-9.542030	0.000650	6.497872	1.100769	-0.013000
1856	9.2750e-01	1.4473	-9.578806	0.000368	3.676427	0.622804	-0.007355
1857	9.2800e-01	1.4350	-9.643378	0.000646	6.455122	1.093527	-0.012914
1858	9.2850e-01	1.4250	-9.686140	0.000427	4.274916	0.724190	-0.008553
1859	9.2900e-01	1.4114	-9.734034	0.000479	4.787905	0.811093	-0.009579
1860	9.2950e-01	1.4026	-9.774231	0.000402	4.018421	0.680739	-0.008039
1861	9.3000e-01	1.3957	-9.831105	0.000569	5.685638	0.963173	-0.011375
1862	9.3050e-01	1.3844	-9.880710	0.000496	4.958902	0.840061	-0.009921
1863	9.3100e-01	1.3772	-9.932025	0.000513	5.129899	0.869028	-0.010263
1864	9.3150e-01	1.3670	-9.981629	0.000496	4.958902	0.840061	-0.009921
1865	9.3200e-01	1.3538	-10.036793	0.000551	5.514641	0.934205	-0.011033
1866	9.3250e-01	1.3457	-10.080838	0.000440	4.403163	0.745916	-0.008809
1867	9.3300e-01	1.3364	-10.144982	0.000641	6.412373	1.086285	-0.012829
1868	9.3350e-01	1.3242	-10.214685	0.000697	6.968112	1.180430	-0.013941
1869	9.3400e-01	1.3136	-10.234783	0.000201	2.009210	0.340369	-0.004020
1870	9.3450e-01	1.3043	-10.295506	0.000607	6.070380	1.028350	-0.012145
1871	9.3500e-01	1.2933	-10.331854	0.000363	3.633678	0.615562	-0.007270
1872	9.3550e-01	1.2846	-10.405406	0.000735	7.352855	1.245607	-0.014710
1873	9.3600e-01	1.2752	-10.468694	0.000633	6.326875	1.071802	-0.012658
1874	9.3650e-01	1.2654	-10.503760	0.000351	3.505431	0.593836	-0.007013
1875	9.3700e-01	1.2558	-10.546950	0.000432	4.317665	0.731432	-0.008638
1876	9.3750e-01	1.2451	-10.604252	0.000573	5.728387	0.970415	-0.011460
1877	9.3800e-01	1.2355	-10.648725	0.000445	4.445912	0.753158	-0.008895
1878	9.3850e-01	1.2260	-10.688921	0.000402	4.018421	0.680739	-0.008039
1879	9.3900e-01	1.2159	-10.740236	0.000513	5.129899	0.869028	-0.010263
1880	9.3950e-01	1.2057	-10.786848	0.000466	4.659658	0.789367	-0.009322
1881	9.4000e-01	1.1957	-10.838163	0.000513	5.129899	0.869028	-0.010263
1882	9.4050e-01	1.1875	-10.881353	0.000432	4.317665	0.731432	-0.008638
1883	9.4100e-01	1.1754	-10.954477	0.000731	7.310106	1.238365	-0.014625
1884	9.4150e-01	1.1623	-10.981417	0.000269	2.693197	0.456240	-0.005388
1885	9.4200e-01	1.1563	-11.049837	0.000684	6.839865	1.158704	-0.013684
1886	9.4250e-01	1.1453	-11.094738	0.000449	4.488661	0.760400	-0.008980
1887	9.4300e-01	1.1365	-11.153322	0.000586	5.856634	0.992141	-0.011717
1888	9.4350e-01	1.1278	-11.223025	0.000697	6.968112	1.180430	-0.013941
1889	9.4400e-01	1.1185	-11.247828	0.000248	2.479451	0.420030	-0.004960
1890	9.4450e-01	1.1067	-11.320096	0.000722	7.224607	1.223882	-0.014454
1891	9.4500e-01	1.0962	-11.366707	0.000466	4.659658	0.789367	-0.009322
1892	9.4550e-01	1.0852	-11.405194	0.000385	3.847424	0.651771	-0.007697
1893	9.4600e-01	1.0760	-11.479600	0.000744	7.438353	1.260091	-0.014881
1894	9.4650e-01	1.0675	-11.511672	0.000321	3.206187	0.543143	-0.006414
1895	9.4700e-01	1.0574	-11.567264	0.000556	5.557390	0.941447	-0.011118
1896	9.4750e-01	1.0445	-11.610881	0.000436	4.360414	0.738674	-0.008724
1897	9.4800e-01	1.0342	-11.666900	0.000560	5.600139	0.948689	-0.011204
1898	9.4850e-01	1.0229	-11.734893	0.000680	6.797116	1.151463	-0.013598
1899	9.4900e-01	1.0159	-11.760550	0.000256	2.564949	0.434514	-0.005132
1900	9.4950e-01	1.0056	-11.817424	0.000569	5.685638	0.963173	-0.011375
1901	9.5000e-01	0.9955	-11.871305	0.000539	5.386394	0.912480	-0.010776
1902	9.5050e-01	0.9847	-11.906798	0.000355	3.548180	0.601078	-0.007099
1903	9.5100e-01	0.9747	-11.972225	0.000654	6.540621	1.108011	-0.013085
1904	9.5150e-01	0.9647	-12.033803	0.000616	6.155878	1.042834	-0.012316
1905	9.5200e-01	0.9523	-12.087684	0.000539	5.386394	0.912480	-0.010776
1906	9.5250e-01	0.9464	-12.138143	0.000504	5.044400	0.854545	-0.010092
1907	9.5300e-01	0.9372	-12.189886	0.000517	5.172648	0.876270	-0.010349
1908	9.5350e-01	0.9261	-12.235214	0.000453	4.531410	0.767642	-0.009066
1909	9.5400e-01	0.9135	-12.300641	0.000654	6.540621	1.108011	-0.013085
1910	9.5450e-01	0.9068	-12.332285	0.000316	3.163437	0.535901	-0.006329
1911	9.5500e-01	0.8942	-12.405837	0.000735	7.352855	1.245607	-0.014710
1912	9.5550e-01	0.8847	-12.459718	0.000539	5.386394	0.912480	-0.010776
1913	9.5600e-01	0.8759	-12.489651	0.000299	2.992441	0.506933	-0.005987
1914	9.5650e-01	0.8649	-12.564058	0.000744	7.438353	1.260091	-0.014881
1915	9.5700e-01	0.8563	-12.609814	0.000457	4.574160	0.774884	-0.009151
1916	9.5750e-01	0.8446	-12.642741	0.000329	3.291685	0.557627	-0.006585
1917	9.5800e-01	0.8375	-12.697050	0.000543	5.429143	0.919722	-0.010862
1918	9.5850e-01	0.8250	-12.776588	0.000795	7.951343	1.346994	-0.015908
1919	9.5900e-01	0.8144	-12.819778	0.000432	4.317665	0.731432	-0.008638
1920	9.5950e-01	0.8081	-12.875369	0.000556	5.557390	0.941447	-0.011118
1921	9.6000e-01	0.7985	-12.936947	0.000616	6.155878	1.042834	-0.012316
1922	9.6050e-01	0.7832	-12.966454	0.000295	2.949692	0.499691	-0.005901
1923	9.6100e-01	0.7755	-13.015630	0.000492	4.916153	0.832819	-0.009835
1924	9.6150e-01	0.7700	-13.092603	0.000769	7.694848	1.303543	-0.015395
1925	9.6200e-01	0.7549	-13.141352	0.000487	4.873404	0.825577	-0.009750
1926	9.6250e-01	0.7458	-13.167437	0.000261	2.607698	0.441756	-0.005217
1927	9.6300e-01	0.7335	-13.243555	0.000761	7.609350	1.289059	-0.015223
1928	9.6350e-01	0.7230	-13.294870	0.000513	5.129899	0.869028	-0.010263
1929	9.6400e-01	0.7169	-13.346185	0.000513	5.129899	0.869028	-0.010263
1930	9.6450e-01	0.7057	-13.394934	0.000487	4.873404	0.825577	-0.009750
1931	9.6500e-01	0.6956	-13.472762	0.000778	7.780346	1.318026	-0.015566
1932	9.6550e-01	0.6859	-13.502268	0.000295	2.949692	0.499691	-0.005901
1933	9.6600e-01	0.6749	-13.560853	0.000586	5.856634	0.992141	-0.011717
1934	9.6650e-01	0.6645	-13.589931	0.000291	2.906943	0.492449	-0.005816
1935	9.6700e-01	0.6552	-13.643384	0.000534	5.343644	0.905238	-0.010691
1936	9.6750e-01	0.6474	-13.726771	0.000834	8.336085	1.412171	-0.016677
1937	9.6800e-01	0.6377	-13.760981	0.000342	3.419932	0.579352	-0.006842
1938	9.6850e-01	0.6244	-13.817000	0.000560	5.600139	0.948689	-0.011204
1939	9.6900e-01	0.6135	-13.860190	0.000432	4.317665	0.731432	-0.008638
1940	9.6950e-01	0.6058	-13.916209	0.000560	5.600139	0.948689	-0.011204
1941	9.7000e-01	0.5975	-14.001307	0.000851	8.507082	1.441139	-0.017019
1942	9.7050e-01	0.5878	-14.032096	0.000308	3.077939	0.521417	-0.006158
1943	9.7100e-01	0.5758	-14.112489	0.000804	8.036841	1.361478	-0.016079
1944	9.7150e-01	0.5668	-14.151831	0.000393	3.932922	0.666255	-0.007868
1945	9.7200e-01	0.5518	-14.189462	0.000376	3.761926	0.637287	-0.007526
1946	9.7250e-01	0.5440	-14.250612	0.000611	6.113129	1.035592	-0.012230
1947	9.7300e-01	0.5331	-14.297223	0.000466	4.659658	0.789367	-0.009322
1948	9.7350e-01	0.5267	-14.362650	0.000654	6.540621	1.108011	-0.013085
1949	9.7400e-01	0.5143	-14.421662	0.000590	5.899383	0.999383	-0.011802
1950	9.7450e-01	0.5059	-14.463142	0.000415	4.146668	0.702465	-0.008296
1951	9.7500e-01	0.4965	-14.518733	0.000556	5.557390	0.941447	-0.011118
1952	9.7550e-01	0.4865	-14.567483	0.000487	4.873404	0.825577	-0.009750
1953	9.7600e-01	0.4749	-14.621791	0.000543	5.429143	0.919722	-0.010862
1954	9.7650e-01	0.4633	-14.679093	0.000573	5.728387	0.970415	-0.011460
1955	9.7700e-01	0.4523	-14.720572	0.000415	4.146668	0.702465	-0.008296
1956	9.7750e-01	0.4419	-14.771032	0.000504	5.044400	0.854545	-0.010092
1957	9.7800e-01	0.4338	-14.839025	0.000680	6.797116	1.151463	-0.013598
1958	9.7850e-01	0.4251	-14.905734	0.000667	6.668868	1.129737	-0.013342
1959	9.7900e-01	0.4147	-14.945503	0.000398	3.975671	0.673497	-0.007954
1960	9.7950e-01	0.4056	-15.036588	0.000911	9.105570	1.542525	-0.018217
1961	9.8000e-01	0.3975	-15.057969	0.000214	2.137458	0.362095	-0.004276
1962	9.8050e-01	0.3862	-15.116981	0.000590	5.899383	0.999383	-0.011802
1963	9.8100e-01	0.3761	-15.143921	0.000269	2.693197	0.456240	-0.005388
1964	9.8150e-01	0.3653	-15.224315	0.000804	8.036841	1.361478	-0.016079
1965	9.8200e-01	0.3517	-15.276485	0.000522	5.215397	0.883512	-0.010434
1966	9.8250e-01	0.3423	-15.345333	0.000688	6.882614	1.165946	-0.013770
1967	9.8300e-01	0.3354	-15.368852	0.000235	2.351204	0.398305	-0.004704
1968	9.8350e-01	0.3258	-15.432996	0.000641	6.412373	1.086285	-0.012829
1969	9.8400e-01	0.3152	-15.508258	0.000752	7.523851	1.274575	-0.015052
1970	9.8450e-01	0.3040	-15.558290	0.000500	5.001651	0.847303	-0.010006
1971	9.8500e-01	0.2972	-15.620296	0.000620	6.198628	1.050076	-0.012401
1972	9.8550e-01	0.2851	-15.655361	0.000351	3.505431	0.593836	-0.007013
1973	9.8600e-01	0.2753	-15.702400	0.000470	4.702407	0.796609	-0.009408
1974	9.8650e-01	0.2653	-15.770820	0.000684	6.839865	1.158704	-0.013684
1975	9.8700e-01	0.2576	-15.807168	0.000363	3.633678	0.615562	-0.007270
1976	9.8750e-01	0.2455	-15.870029	0.000628	6.284126	1.064560	-0.012572
1977	9.8800e-01	0.2369	-15.933745	0.000637	6.369624	1.079044	-0.012743
1978	9.8850e-01	0.2238	-15.977791	0.000440	4.403163	0.745916	-0.008809
1979	9.8900e-01	0.2143	-16.014567	0.000368	3.676427	0.622804	-0.007355
1980	9.8950e-01	0.2036	-16.094960	0.000804	8.036841	1.361478	-0.016079
1981	9.9000e-01	0.1942	-16.121900	0.000269	2.693197	0.456240	-0.005388
1982	9.9050e-01	0.1836	-16.200584	0.000787	7.865845	1.332510	-0.015737
1983	9.9100e-01	0.1754	-16.264300	0.000637	6.369624	1.079044	-0.012743
1984	9.9150e-01	0.1682	-16.317325	0.000530	5.300895	0.897996	-0.010605
1985	9.9200e-01	0.1534	-16.358377	0.000410	4.103919	0.695223	-0.008210
1986	9.9250e-01	0.1472	-16.446040	0.000876	8.763577	1.484590	-0.017533
1987	9.9300e-01	0.1337	-16.492224	0.000462	4.616909	0.782126	-0.009237
1988	9.9350e-01	0.1271	-16.532421	0.000402	4.018421	0.680739	-0.008039
1989	9.9400e-01	0.1131	-16.577321	0.000449	4.488661	0.760400	-0.008980
1990	9.9450e-01	0.1039	-16.629064	0.000517	5.172648	0.876270	-0.010349
1991	9.9500e-01	0.0957	-16.694918	0.000658	6.583370	1.115253	-0.013171
1992	9.9550e-01	0.0869	-16.747516	0.000526	5.258146	0.890754	-0.010520
1993	9.9600e-01	0.0728	-16.791562	0.000440	4.403163	0.745916	-0.008809
1994	9.9650e-01	0.0650	-16.866824	0.000752	7.523851	1.274575	-0.015052
1995	9.9700e-01	0.0543	-16.877087	0.000103	1.025980	0.173806	-0.002053
1996	9.9750e-01	0.0438	-16.975441	0.000983	9.832306	1.665638	-0.019671
1997	9.9800e-01	0.0349	-17.033598	0.000581	5.813885	0.984899	-0.011631
1998	9.9850e-01	0.0246	-17.075077	0.000415	4.146668	0.702465	-0.008296
1999	9.9900e-01	0.0151	-17.127675	0.000526	5.258146	0.890754	-0.010520
2000	9.9950e-01	0.0040	-17.185405	0.000577	5.771136	0.977657	-0.011546
2001	1.0000e+00	-0.0056	-17.221325	0.000577	5.771136	0.977657	-0.007184

PMax (uC/cm2):	4.05e+01
Pr (uC/cm2):	3.04e+00
-Pr (uC/cm2):	0.00e+00
PLoss (uC/cm2):	0.00e+00
C (Max-Eff) (nF):	4.05e-01
K (Eff):	6.86e+02
Vert. (+/-Pr) Shift (uC/cm2):	1.52e+00
Offset (uC/cm2):	2.03e+01

A (Loop Area - uC/cm2·Volts):	-3.02e-02



Hysteresis Version: 5.48.1 - Radiant Technologies, Inc., 1999 - 9/12/24

