»»»»»»»»»»»»»»»»»»»»»»»»»»»»»»»»»»»» Hysteresis ««««««««««««««««««««««««««««««««««««
»»»  Executed Version:	5.48.1
»»»  Vision Version:	5.48.4 (R)
»»»  Vision Compiled:	9/18/24
»»»  Driver Version:	5.47.0
»»»  Windows Version:	Windows 8 or 8.1
»»»  Processor Information:	x86 (AMD or Intel) - 32 Processors
»»»  Tester Name:	PMF21124-494 (100V)
»»»  Tester S/N:	PMF21124-494
»»»  Internal Amp Type:	100V RevK 270k
»»»  Internal Amp S/N:	iAB2-596/K     
»»»  Execution Count:	1
»»»»»»»»»»»»»»»»»»»»»»»»»»»»»»»»»»»»»»»»»»««««««««««««««««««««««««««««««««««««««««««

Stored:	6/30/2025 - 15:54:21
Configured:	06/30/25 10:19:58 AM
Executed:	06/30/25 03:53:37 PM

»»»»»»»»»»»»»»»»»»»»»»»»»»»»»»»»»»» Sample Info ««««««««««««««««««««««««««««««««««««
Sample Name:	
Lot Name:	
Wafer Name:	
Die Row/Column:	0/0
Capacitor Number:	0
Sample Area (cm2):	1.00e-04
Sample Thickness (microns):	1.50e-01

Amplifier:	Internal

»»»»»»»»»»»»»»»»»»»»»»»»»»»»»»»»»»» Tester Info «««««««««««««««««««««««««««««««««««
Tester Name:	PMF21124-494 (100V)
Tester Serial Number:	PMF21124-494
Return Signal Amp. Level:	1.79 [Index: 2]

»»»»»»»»»»»»»»»»»»»»»»»»»»»»»»»» Hysteresis Info ««««««««««««««««««««««««««««««««««
Task Name:	Hyst-1804
Volts:	10.00
Field:	666.67 (kV/cm)
DCBias:	0.00
DCField:	0.00 (kV/cm)
Hysteresis Period (ms):	1.00e+00
Preset:	Enabled
Preset Delay (ms):	1.00e+03
Profile:	Standard Monopolar

»»»»»»»»»»»»»»»»»»»»»»»»»»»»»»»»»»»»»» Data «««««««««««««««««««««««««««««««««««««««
Points:	2001

Valid Data

Point	Time (ms)	Drive Voltage	Measured Polarization (uC/cm2)	Capacitance (uF)	Normalized Capacitance (uF/cm2)	Dielectric Constant	Instantaneous Current (mA)
   1	0.0000e+00	-0.0044	-19.477690	0.000791	7.910615	1.340094	0.015822
   2	5.0000e-04	0.0069	-19.398579	0.000791	7.910615	1.340094	0.015822
   3	1.0000e-03	0.0158	-19.334435	0.000641	6.414012	1.086563	0.012829
   4	1.5000e-03	0.0262	-19.276706	0.000577	5.772611	0.977907	0.011546
   5	2.0000e-03	0.0357	-19.238647	0.000381	3.805647	0.644694	0.007612
   6	2.5000e-03	0.0459	-19.186905	0.000517	5.173970	0.876494	0.010349
   7	3.0000e-03	0.0564	-19.144142	0.000428	4.276008	0.724375	0.008553
   8	3.5000e-03	0.0658	-19.091117	0.000530	5.302250	0.898225	0.010605
   9	4.0000e-03	0.0785	-19.046644	0.000445	4.447048	0.753350	0.008895
  10	4.5000e-03	0.0858	-18.973947	0.000727	7.269214	1.231438	0.014539
  11	5.0000e-03	0.0935	-18.944869	0.000291	2.907685	0.492575	0.005816
  12	5.5000e-03	0.1054	-18.898258	0.000466	4.660849	0.789569	0.009322
  13	6.0000e-03	0.1156	-18.819575	0.000787	7.867855	1.332851	0.015737
  14	6.5000e-03	0.1272	-18.797766	0.000218	2.180764	0.369431	0.004362
  15	7.0000e-03	0.1380	-18.735760	0.000620	6.200212	1.050344	0.012401
  16	7.5000e-03	0.1468	-18.684873	0.000509	5.088450	0.862007	0.010177
  17	8.0000e-03	0.1567	-18.622012	0.000629	6.285732	1.064832	0.012572
  18	8.5000e-03	0.1651	-18.573262	0.000487	4.874649	0.825788	0.009750
  19	9.0000e-03	0.1742	-18.521092	0.000522	5.216730	0.883738	0.010434
  20	9.5000e-03	0.1858	-18.476191	0.000449	4.489808	0.760594	0.008980
  21	1.0000e-02	0.1954	-18.422311	0.000539	5.387770	0.912713	0.010776
  22	1.0500e-02	0.2059	-18.372706	0.000496	4.960169	0.840275	0.009921
  23	1.1000e-02	0.2153	-18.353891	0.000188	1.881444	0.318725	0.003763
  24	1.1500e-02	0.2254	-18.266655	0.000872	8.723056	1.477726	0.017447
  25	1.2000e-02	0.2367	-18.235011	0.000316	3.164246	0.536038	0.006329
  26	1.2500e-02	0.2484	-18.176426	0.000586	5.858131	0.992394	0.011717
  27	1.3000e-02	0.2555	-18.115276	0.000611	6.114692	1.035857	0.012230
  28	1.3500e-02	0.2666	-18.071658	0.000436	4.361528	0.738863	0.008724
  29	1.4000e-02	0.2776	-18.024619	0.000470	4.703609	0.796813	0.009408
  30	1.4500e-02	0.2834	-18.004093	0.000205	2.052484	0.347700	0.004105
  31	1.5000e-02	0.2969	-17.926265	0.000778	7.782335	1.318363	0.015566
  32	1.5500e-02	0.3029	-17.890772	0.000355	3.549087	0.601232	0.007099
  33	1.6000e-02	0.3165	-17.826201	0.000646	6.456772	1.093807	0.012914
  34	1.6500e-02	0.3248	-17.755215	0.000710	7.098173	1.202463	0.014197
  35	1.7000e-02	0.3373	-17.714163	0.000410	4.104968	0.695400	0.008210
  36	1.7500e-02	0.3468	-17.668407	0.000458	4.575329	0.775082	0.009151
  37	1.8000e-02	0.3547	-17.628211	0.000402	4.019448	0.680913	0.008039
  38	1.8500e-02	0.3654	-17.577751	0.000505	5.045690	0.854763	0.010092
  39	1.9000e-02	0.3761	-17.516173	0.000616	6.157452	1.043101	0.012316
  40	1.9500e-02	0.3864	-17.490088	0.000261	2.608365	0.441869	0.005217
  41	2.0000e-02	0.3960	-17.422523	0.000676	6.756093	1.144513	0.013513
  42	2.0500e-02	0.4056	-17.354103	0.000684	6.841613	1.159001	0.013684
  43	2.1000e-02	0.4166	-17.326735	0.000274	2.736645	0.463600	0.005474
  44	2.1500e-02	0.4246	-17.270716	0.000560	5.601571	0.948932	0.011204
  45	2.2000e-02	0.4367	-17.200158	0.000706	7.055413	1.195219	0.014112
  46	2.2500e-02	0.4446	-17.171934	0.000282	2.822165	0.478088	0.005645
  47	2.3000e-02	0.4582	-17.103942	0.000680	6.798853	1.151757	0.013598
  48	2.3500e-02	0.4647	-17.063745	0.000402	4.019448	0.680913	0.008039
  49	2.4000e-02	0.4771	-17.022265	0.000415	4.147728	0.702644	0.008296
  50	2.4500e-02	0.4874	-16.968812	0.000535	5.345010	0.905469	0.010691
  51	2.5000e-02	0.4961	-16.908517	0.000603	6.029171	1.021369	0.012059
  52	2.5500e-02	0.5051	-16.861051	0.000475	4.746369	0.804057	0.009493
  53	2.6000e-02	0.5170	-16.796479	0.000646	6.456772	1.093807	0.012914
  54	2.6500e-02	0.5262	-16.755855	0.000406	4.062208	0.688157	0.008125
  55	2.7000e-02	0.5373	-16.722928	0.000329	3.292526	0.557769	0.006585
  56	2.7500e-02	0.5457	-16.664771	0.000582	5.815371	0.985151	0.011631
  57	2.8000e-02	0.5556	-16.609607	0.000552	5.516050	0.934444	0.011033
  58	2.8500e-02	0.5672	-16.559147	0.000505	5.045690	0.854763	0.010092
  59	2.9000e-02	0.5746	-16.497142	0.000620	6.200212	1.050344	0.012401
  60	2.9500e-02	0.5850	-16.442833	0.000543	5.430530	0.919957	0.010862
  61	3.0000e-02	0.5941	-16.399643	0.000432	4.318768	0.731619	0.008638
  62	3.0500e-02	0.6057	-16.365861	0.000338	3.378046	0.572257	0.006756
  63	3.1000e-02	0.6163	-16.310269	0.000556	5.558810	0.941688	0.011118
  64	3.1500e-02	0.6261	-16.270500	0.000398	3.976688	0.673669	0.007954
  65	3.2000e-02	0.6369	-16.195666	0.000748	7.483014	1.267657	0.014967
  66	3.2500e-02	0.6450	-16.155897	0.000398	3.976688	0.673669	0.007954
  67	3.3000e-02	0.6547	-16.098167	0.000577	5.772611	0.977907	0.011546
  68	3.3500e-02	0.6642	-16.053267	0.000449	4.489808	0.760594	0.008980
  69	3.4000e-02	0.6776	-16.008366	0.000449	4.489808	0.760594	0.008980
  70	3.4500e-02	0.6858	-15.968597	0.000398	3.976688	0.673669	0.007954
  71	3.5000e-02	0.6943	-15.901460	0.000671	6.713333	1.137269	0.013427
  72	3.5500e-02	0.7067	-15.829619	0.000718	7.183694	1.216951	0.014368
  73	3.6000e-02	0.7166	-15.808237	0.000214	2.138004	0.362188	0.004276
  74	3.6500e-02	0.7272	-15.738107	0.000701	7.012653	1.187976	0.014026
  75	3.7000e-02	0.7370	-15.702614	0.000355	3.549087	0.601232	0.007099
  76	3.7500e-02	0.7449	-15.646167	0.000564	5.644331	0.956175	0.011289
  77	3.8000e-02	0.7581	-15.596563	0.000496	4.960169	0.840275	0.009921
  78	3.8500e-02	0.7657	-15.543965	0.000526	5.259490	0.890982	0.010520
  79	3.9000e-02	0.7755	-15.501202	0.000428	4.276008	0.724375	0.008553
  80	3.9500e-02	0.7864	-15.453736	0.000475	4.746369	0.804057	0.009493
  81	4.0000e-02	0.7951	-15.393013	0.000607	6.071931	1.028613	0.012145
  82	4.0500e-02	0.8047	-15.348113	0.000449	4.489808	0.760594	0.008980
  83	4.1000e-02	0.8164	-15.288673	0.000594	5.943651	1.006882	0.011888
  84	4.1500e-02	0.8257	-15.239923	0.000487	4.874649	0.825788	0.009750
  85	4.2000e-02	0.8370	-15.198871	0.000410	4.104968	0.695400	0.008210
  86	4.2500e-02	0.8465	-15.162951	0.000359	3.591847	0.608475	0.007184
  87	4.3000e-02	0.8576	-15.095386	0.000676	6.756093	1.144513	0.013513
  88	4.3500e-02	0.8672	-15.038084	0.000573	5.729851	0.970663	0.011460
  89	4.4000e-02	0.8792	-15.011144	0.000269	2.693885	0.456356	0.005388
  90	4.4500e-02	0.8839	-14.947000	0.000641	6.414012	1.086563	0.012829
  91	4.5000e-02	0.8977	-14.890126	0.000569	5.687091	0.963419	0.011375
  92	4.5500e-02	0.9068	-14.859764	0.000304	3.035966	0.514307	0.006072
  93	4.6000e-02	0.9170	-14.804173	0.000556	5.558810	0.941688	0.011118
  94	4.6500e-02	0.9267	-14.762266	0.000419	4.190488	0.709888	0.008381
  95	4.7000e-02	0.9360	-14.702826	0.000594	5.943651	1.006882	0.011888
  96	4.7500e-02	0.9458	-14.632268	0.000706	7.055413	1.195219	0.014112
  97	4.8000e-02	0.9558	-14.601051	0.000312	3.121486	0.528794	0.006243
  98	4.8500e-02	0.9666	-14.547170	0.000539	5.387770	0.912713	0.010776
  99	4.9000e-02	0.9760	-14.513388	0.000338	3.378046	0.572257	0.006756
 100	4.9500e-02	0.9867	-14.451810	0.000616	6.157452	1.043101	0.012316
 101	5.0000e-02	0.9979	-14.384245	0.000676	6.756093	1.144513	0.013513
 102	5.0500e-02	1.0047	-14.350035	0.000342	3.420806	0.579500	0.006842
 103	5.1000e-02	1.0168	-14.291878	0.000582	5.815371	0.985151	0.011631
 104	5.1500e-02	1.0294	-14.255958	0.000359	3.591847	0.608475	0.007184
 105	5.2000e-02	1.0320	-14.175136	0.000808	8.081655	1.369069	0.016164
 106	5.2500e-02	1.0460	-14.131091	0.000440	4.404288	0.746107	0.008809
 107	5.3000e-02	1.0584	-14.106289	0.000248	2.480085	0.420138	0.004960
 108	5.3500e-02	1.0670	-14.044283	0.000620	6.200212	1.050344	0.012401
 109	5.4000e-02	1.0769	-13.995534	0.000487	4.874649	0.825788	0.009750
 110	5.4500e-02	1.0873	-13.963034	0.000325	3.249766	0.550525	0.006500
 111	5.5000e-02	1.0951	-13.904877	0.000582	5.815371	0.985151	0.011631
 112	5.5500e-02	1.1050	-13.874088	0.000308	3.078726	0.521550	0.006158
 113	5.6000e-02	1.1147	-13.821063	0.000530	5.302250	0.898225	0.010605
 114	5.6500e-02	1.1273	-13.755208	0.000659	6.585052	1.115538	0.013171
 115	5.7000e-02	1.1365	-13.708170	0.000470	4.703609	0.796813	0.009408
 116	5.7500e-02	1.1470	-13.661986	0.000462	4.618089	0.782325	0.009237
 117	5.8000e-02	1.1584	-13.617941	0.000440	4.404288	0.746107	0.008809
 118	5.8500e-02	1.1658	-13.538830	0.000791	7.910615	1.340094	0.015822
 119	5.9000e-02	1.1771	-13.512745	0.000261	2.608365	0.441869	0.005217
 120	5.9500e-02	1.1846	-13.447746	0.000650	6.499532	1.101051	0.013000
 121	6.0000e-02	1.1966	-13.398997	0.000487	4.874649	0.825788	0.009750
 122	6.0500e-02	1.2077	-13.365642	0.000334	3.335286	0.565013	0.006671
 123	6.1000e-02	1.2146	-13.298077	0.000676	6.756093	1.144513	0.013513
 124	6.1500e-02	1.2289	-13.256170	0.000419	4.190488	0.709888	0.008381
 125	6.2000e-02	1.2329	-13.198440	0.000577	5.772611	0.977907	0.011546
 126	6.2500e-02	1.2474	-13.177487	0.000210	2.095244	0.354944	0.004191
 127	6.3000e-02	1.2569	-13.126599	0.000509	5.088450	0.862007	0.010177
 128	6.3500e-02	1.2694	-13.061173	0.000654	6.542292	1.108294	0.013085
 129	6.4000e-02	1.2743	-13.024824	0.000363	3.634607	0.615719	0.007270
 130	6.4500e-02	1.2878	-12.970088	0.000547	5.473290	0.927200	0.010947
 131	6.5000e-02	1.2970	-12.920056	0.000500	5.002929	0.847519	0.010006
 132	6.5500e-02	1.3071	-12.864893	0.000552	5.516050	0.934444	0.011033
 133	6.6000e-02	1.3167	-12.825551	0.000393	3.933927	0.666425	0.007868
 134	6.6500e-02	1.3251	-12.774664	0.000509	5.088450	0.862007	0.010177
 135	6.7000e-02	1.3340	-12.735322	0.000393	3.933927	0.666425	0.007868
 136	6.7500e-02	1.3430	-12.663909	0.000714	7.140933	1.209707	0.014283
 137	6.8000e-02	1.3539	-12.631837	0.000321	3.207006	0.543282	0.006414
 138	6.8500e-02	1.3648	-12.567265	0.000646	6.456772	1.093807	0.012914
 139	6.9000e-02	1.3761	-12.521082	0.000462	4.618089	0.782325	0.009237
 140	6.9500e-02	1.3847	-12.476609	0.000445	4.447048	0.753350	0.008895
 141	7.0000e-02	1.3953	-12.414176	0.000624	6.242972	1.057588	0.012487
 142	7.0500e-02	1.4052	-12.364571	0.000496	4.960169	0.840275	0.009921
 143	7.1000e-02	1.4167	-12.323091	0.000415	4.147728	0.702644	0.008296
 144	7.1500e-02	1.4266	-12.279474	0.000436	4.361528	0.738863	0.008724
 145	7.2000e-02	1.4346	-12.237566	0.000419	4.190488	0.709888	0.008381
 146	7.2500e-02	1.4462	-12.186679	0.000509	5.088450	0.862007	0.010177
 147	7.3000e-02	1.4568	-12.131088	0.000556	5.558810	0.941688	0.011118
 148	7.3500e-02	1.4662	-12.079773	0.000513	5.131210	0.869250	0.010263
 149	7.4000e-02	1.4730	-12.064806	0.000150	1.496603	0.253531	0.002993
 150	7.4500e-02	1.4868	-11.985267	0.000795	7.953375	1.347338	0.015908
 151	7.5000e-02	1.4965	-11.932669	0.000526	5.259490	0.890982	0.010520
 152	7.5500e-02	1.5057	-11.902308	0.000304	3.035966	0.514307	0.006072
 153	7.6000e-02	1.5167	-11.811652	0.000907	9.065137	1.535676	0.018131
 154	7.6500e-02	1.5247	-11.807375	0.000043	0.427601	0.072438	0.000855
 155	7.7000e-02	1.5353	-11.747080	0.000603	6.029171	1.021369	0.012059
 156	7.7500e-02	1.5463	-11.683792	0.000633	6.328492	1.072076	0.012658
 157	7.8000e-02	1.5540	-11.641029	0.000428	4.276008	0.724375	0.008553
 158	7.8500e-02	1.5644	-11.602115	0.000389	3.891167	0.659182	0.007783
 159	7.9000e-02	1.5755	-11.558925	0.000432	4.318768	0.731619	0.008638
 160	7.9500e-02	1.5842	-11.504617	0.000543	5.430530	0.919957	0.010862
 161	8.0000e-02	1.5967	-11.456723	0.000479	4.789129	0.811300	0.009579
 162	8.0500e-02	1.6052	-11.421657	0.000351	3.506327	0.593988	0.007013
 163	8.1000e-02	1.6160	-11.342547	0.000791	7.910615	1.340094	0.015822
 164	8.1500e-02	1.6264	-11.312185	0.000304	3.035966	0.514307	0.006072
 165	8.2000e-02	1.6347	-11.249752	0.000624	6.242972	1.057588	0.012487
 166	8.2500e-02	1.6458	-11.210838	0.000389	3.891167	0.659182	0.007783
 167	8.3000e-02	1.6578	-11.159951	0.000509	5.088450	0.862007	0.010177
 168	8.3500e-02	1.6669	-11.106070	0.000539	5.387770	0.912713	0.010776
 169	8.4000e-02	1.6763	-11.076136	0.000299	2.993206	0.507063	0.005987
 170	8.4500e-02	1.6858	-11.030380	0.000458	4.575329	0.775082	0.009151
 171	8.5000e-02	1.6938	-10.981203	0.000492	4.917409	0.833032	0.009835
 172	8.5500e-02	1.7098	-10.929461	0.000517	5.173970	0.876494	0.010349
 173	8.6000e-02	1.7157	-10.876435	0.000530	5.302250	0.898225	0.010605
 174	8.6500e-02	1.7241	-10.828969	0.000475	4.746369	0.804057	0.009493
 175	8.7000e-02	1.7389	-10.765680	0.000633	6.328492	1.072076	0.012658
 176	8.7500e-02	1.7489	-10.745154	0.000205	2.052484	0.347700	0.004105
 177	8.8000e-02	1.7563	-10.674596	0.000706	7.055413	1.195219	0.014112
 178	8.8500e-02	1.7654	-10.617294	0.000573	5.729851	0.970663	0.011460
 179	8.9000e-02	1.7750	-10.592919	0.000244	2.437325	0.412894	0.004875
 180	8.9500e-02	1.7842	-10.554861	0.000381	3.805647	0.644694	0.007612
 181	9.0000e-02	1.7982	-10.491145	0.000637	6.371252	1.079319	0.012743
 182	9.0500e-02	1.8045	-10.435553	0.000556	5.558810	0.941688	0.011118
 183	9.1000e-02	1.8140	-10.391936	0.000436	4.361528	0.738863	0.008724
 184	9.1500e-02	1.8269	-10.363285	0.000286	2.864925	0.485332	0.005730
 185	9.2000e-02	1.8387	-10.320950	0.000423	4.233248	0.717132	0.008467
 186	9.2500e-02	1.8421	-10.257234	0.000637	6.371252	1.079319	0.012743
 187	9.3000e-02	1.8544	-10.188814	0.000684	6.841613	1.159001	0.013684
 188	9.3500e-02	1.8652	-10.162728	0.000261	2.608365	0.441869	0.005217
 189	9.4000e-02	1.8732	-10.097302	0.000654	6.542292	1.108294	0.013085
 190	9.4500e-02	1.8875	-10.062237	0.000351	3.506327	0.593988	0.007013
 191	9.5000e-02	1.8984	-10.026744	0.000355	3.549087	0.601232	0.007099
 192	9.5500e-02	1.9055	-9.965593	0.000611	6.114692	1.035857	0.012230
 193	9.6000e-02	1.9153	-9.917699	0.000479	4.789129	0.811300	0.009579
 194	9.6500e-02	1.9256	-9.881779	0.000359	3.591847	0.608475	0.007184
 195	9.7000e-02	1.9406	-9.829181	0.000526	5.259490	0.890982	0.010520
 196	9.7500e-02	1.9453	-9.762044	0.000671	6.713333	1.137269	0.013427
 197	9.8000e-02	1.9539	-9.707735	0.000543	5.430530	0.919957	0.010862
 198	9.8500e-02	1.9666	-9.687637	0.000201	2.009724	0.340456	0.004020
 199	9.9000e-02	1.9768	-9.628624	0.000590	5.900891	0.999638	0.011802
 200	9.9500e-02	1.9873	-9.590993	0.000376	3.762887	0.637450	0.007526
 201	1.0000e-01	1.9977	-9.552935	0.000381	3.805647	0.644694	0.007612
 202	1.0050e-01	2.0066	-9.491784	0.000611	6.114692	1.035857	0.012230
 203	1.0100e-01	2.0160	-9.450732	0.000410	4.104968	0.695400	0.008210
 204	1.0150e-01	2.0276	-9.388299	0.000624	6.242972	1.057588	0.012487
 205	1.0200e-01	2.0341	-9.341260	0.000470	4.703609	0.796813	0.009408
 206	1.0250e-01	2.0490	-9.312182	0.000291	2.907685	0.492575	0.005816
 207	1.0300e-01	2.0575	-9.254025	0.000582	5.815371	0.985151	0.011631
 208	1.0350e-01	2.0657	-9.227940	0.000261	2.608365	0.441869	0.005217
 209	1.0400e-01	2.0758	-9.149684	0.000783	7.825095	1.325607	0.015651
 210	1.0450e-01	2.0862	-9.128303	0.000214	2.138004	0.362188	0.004276
 211	1.0500e-01	2.0956	-9.081692	0.000466	4.660849	0.789569	0.009322
 212	1.0550e-01	2.1070	-8.997022	0.000847	8.466496	1.434263	0.016934
 213	1.0600e-01	2.1173	-8.974785	0.000222	2.223524	0.376675	0.004447
 214	1.0650e-01	2.1266	-8.925609	0.000492	4.917409	0.833032	0.009835
 215	1.0700e-01	2.1379	-8.880708	0.000449	4.489808	0.760594	0.008980
 216	1.0750e-01	2.1466	-8.841366	0.000393	3.933927	0.666425	0.007868
 217	1.0800e-01	2.1568	-8.788341	0.000530	5.302250	0.898225	0.010605
 218	1.0850e-01	2.1678	-8.753276	0.000351	3.506327	0.593988	0.007013
 219	1.0900e-01	2.1760	-8.704099	0.000492	4.917409	0.833032	0.009835
 220	1.0950e-01	2.1883	-8.646797	0.000573	5.729851	0.970663	0.011460
 221	1.1000e-01	2.1976	-8.610021	0.000368	3.677367	0.622963	0.007355
 222	1.1050e-01	2.2058	-8.550154	0.000599	5.986411	1.014126	0.011974
 223	1.1100e-01	2.2159	-8.520220	0.000299	2.993206	0.507063	0.005987
 224	1.1150e-01	2.2290	-8.468477	0.000517	5.173970	0.876494	0.010349
 225	1.1200e-01	2.2390	-8.424004	0.000445	4.447048	0.753350	0.008895
 226	1.1250e-01	2.2434	-8.361998	0.000620	6.200212	1.050344	0.012401
 227	1.1300e-01	2.2592	-8.335486	0.000265	2.651125	0.449113	0.005303
 228	1.1350e-01	2.2709	-8.295289	0.000402	4.019448	0.680913	0.008039
 229	1.1400e-01	2.2755	-8.235849	0.000594	5.943651	1.006882	0.011888
 230	1.1450e-01	2.2878	-8.179830	0.000560	5.601571	0.948932	0.011204
 231	1.1500e-01	2.2964	-8.135785	0.000440	4.404288	0.746107	0.008809
 232	1.1550e-01	2.3049	-8.078055	0.000577	5.772611	0.977907	0.011546
 233	1.1600e-01	2.3158	-8.057102	0.000210	2.095244	0.354944	0.004191
 234	1.1650e-01	2.3260	-7.997662	0.000594	5.943651	1.006882	0.011888
 235	1.1700e-01	2.3355	-7.968156	0.000295	2.950446	0.499819	0.005901
 236	1.1750e-01	2.3463	-7.914275	0.000539	5.387770	0.912713	0.010776
 237	1.1800e-01	2.3558	-7.853124	0.000611	6.114692	1.035857	0.012230
 238	1.1850e-01	2.3669	-7.821052	0.000321	3.207006	0.543282	0.006414
 239	1.1900e-01	2.3764	-7.778718	0.000423	4.233248	0.717132	0.008467
 240	1.1950e-01	2.3856	-7.722271	0.000564	5.644331	0.956175	0.011289
 241	1.2000e-01	2.3969	-7.676515	0.000458	4.575329	0.775082	0.009151
 242	1.2050e-01	2.4075	-7.657272	0.000192	1.924204	0.325969	0.003849
 243	1.2100e-01	2.4164	-7.587141	0.000701	7.012653	1.187976	0.014026
 244	1.2150e-01	2.4265	-7.535399	0.000517	5.173970	0.876494	0.010349
 245	1.2200e-01	2.4359	-7.505893	0.000295	2.950446	0.499819	0.005901
 246	1.2250e-01	2.4458	-7.450729	0.000552	5.516050	0.934444	0.011033
 247	1.2300e-01	2.4561	-7.392572	0.000582	5.815371	0.985151	0.011631
 248	1.2350e-01	2.4652	-7.364349	0.000282	2.822165	0.478088	0.005645
 249	1.2400e-01	2.4772	-7.306619	0.000577	5.772611	0.977907	0.011546
 250	1.2450e-01	2.4860	-7.254021	0.000526	5.259490	0.890982	0.010520
 251	1.2500e-01	2.4957	-7.211686	0.000423	4.233248	0.717132	0.008467
 252	1.2550e-01	2.5092	-7.184746	0.000269	2.693885	0.456356	0.005388
 253	1.2600e-01	2.5152	-7.135142	0.000496	4.960169	0.840275	0.009921
 254	1.2650e-01	2.5302	-7.076129	0.000590	5.900891	0.999638	0.011802
 255	1.2700e-01	2.5354	-7.055603	0.000205	2.052484	0.347700	0.004105
 256	1.2750e-01	2.5450	-7.017545	0.000381	3.805647	0.644694	0.007612
 257	1.2800e-01	2.5574	-6.946131	0.000714	7.140933	1.209707	0.014283
 258	1.2850e-01	2.5641	-6.902513	0.000436	4.361528	0.738863	0.008724
 259	1.2900e-01	2.5775	-6.852909	0.000496	4.960169	0.840275	0.009921
 260	1.2950e-01	2.5856	-6.835804	0.000171	1.710403	0.289750	0.003421
 261	1.3000e-01	2.5949	-6.777219	0.000586	5.858131	0.992394	0.011717
 262	1.3050e-01	2.6045	-6.714358	0.000629	6.285732	1.064832	0.012572
 263	1.3100e-01	2.6167	-6.691694	0.000227	2.266284	0.383919	0.004533
 264	1.3150e-01	2.6297	-6.647221	0.000445	4.447048	0.753350	0.008895
 265	1.3200e-01	2.6418	-6.597189	0.000500	5.002929	0.847519	0.010006
 266	1.3250e-01	2.6472	-6.534328	0.000629	6.285732	1.064832	0.012572
 267	1.3300e-01	2.6548	-6.496269	0.000381	3.805647	0.644694	0.007612
 268	1.3350e-01	2.6677	-6.459066	0.000372	3.720127	0.630207	0.007441
 269	1.3400e-01	2.6727	-6.395777	0.000633	6.328492	1.072076	0.012658
 270	1.3450e-01	2.6859	-6.382093	0.000137	1.368323	0.231800	0.002737
 271	1.3500e-01	2.6945	-6.328213	0.000539	5.387770	0.912713	0.010776
 272	1.3550e-01	2.7061	-6.246536	0.000817	8.167175	1.383557	0.016335
 273	1.3600e-01	2.7143	-6.240549	0.000060	0.598641	0.101413	0.001197
 274	1.3650e-01	2.7266	-6.181537	0.000590	5.900891	0.999638	0.011802
 275	1.3700e-01	2.7351	-6.144761	0.000368	3.677367	0.622963	0.007355
 276	1.3750e-01	2.7441	-6.081473	0.000633	6.328492	1.072076	0.012658
 277	1.3800e-01	2.7541	-6.026737	0.000547	5.473290	0.927200	0.010947
 278	1.3850e-01	2.7707	-6.007494	0.000192	1.924204	0.325969	0.003849
 279	1.3900e-01	2.7756	-5.960883	0.000466	4.660849	0.789569	0.009322
 280	1.3950e-01	2.7866	-5.915127	0.000458	4.575329	0.775082	0.009151
 281	1.4000e-01	2.7985	-5.874075	0.000410	4.104968	0.695400	0.008210
 282	1.4050e-01	2.8064	-5.825753	0.000483	4.831889	0.818544	0.009664
 283	1.4100e-01	2.8143	-5.779142	0.000466	4.660849	0.789569	0.009322
 284	1.4150e-01	2.8259	-5.754340	0.000248	2.480085	0.420138	0.004960
 285	1.4200e-01	2.8390	-5.709011	0.000453	4.532569	0.767838	0.009066
 286	1.4250e-01	2.8479	-5.645295	0.000637	6.371252	1.079319	0.012743
 287	1.4300e-01	2.8564	-5.621776	0.000235	2.351804	0.398406	0.004704
 288	1.4350e-01	2.8687	-5.578586	0.000432	4.318768	0.731619	0.008638
 289	1.4400e-01	2.8768	-5.508883	0.000697	6.969893	1.180732	0.013941
 290	1.4450e-01	2.8861	-5.471252	0.000376	3.762887	0.637450	0.007526
 291	1.4500e-01	2.8969	-5.430627	0.000406	4.062208	0.688157	0.008125
 292	1.4550e-01	2.9086	-5.392141	0.000385	3.848407	0.651938	0.007697
 293	1.4600e-01	2.9169	-5.337832	0.000543	5.430530	0.919957	0.010862
 294	1.4650e-01	2.9242	-5.310464	0.000274	2.736645	0.463600	0.005474
 295	1.4700e-01	2.9367	-5.248886	0.000616	6.157452	1.043101	0.012316
 296	1.4750e-01	2.9456	-5.189447	0.000594	5.943651	1.006882	0.011888
 297	1.4800e-01	2.9578	-5.180039	0.000094	0.940722	0.159363	0.001882
 298	1.4850e-01	2.9660	-5.118461	0.000616	6.157452	1.043101	0.012316
 299	1.4900e-01	2.9755	-5.075698	0.000428	4.276008	0.724375	0.008553
 300	1.4950e-01	2.9858	-5.034219	0.000415	4.147728	0.702644	0.008296
 301	1.5000e-01	3.0002	-4.975634	0.000586	5.858131	0.992394	0.011717
 302	1.5050e-01	3.0072	-4.953397	0.000222	2.223524	0.376675	0.004447
 303	1.5100e-01	3.0145	-4.914911	0.000385	3.848407	0.651938	0.007697
 304	1.5150e-01	3.0263	-4.861030	0.000539	5.387770	0.912713	0.010776
 305	1.5200e-01	3.0336	-4.803729	0.000573	5.729851	0.970663	0.011460
 306	1.5250e-01	3.0479	-4.741295	0.000624	6.242972	1.057588	0.012487
 307	1.5300e-01	3.0568	-4.724618	0.000167	1.667643	0.282506	0.003335
 308	1.5350e-01	3.0666	-4.672875	0.000517	5.173970	0.876494	0.010349
 309	1.5400e-01	3.0737	-4.620705	0.000522	5.216730	0.883738	0.010434
 310	1.5450e-01	3.0849	-4.598041	0.000227	2.266284	0.383919	0.004533
 311	1.5500e-01	3.0971	-4.548864	0.000492	4.917409	0.833032	0.009835
 312	1.5550e-01	3.1081	-4.500115	0.000487	4.874649	0.825788	0.009750
 313	1.5600e-01	3.1157	-4.460773	0.000393	3.933927	0.666425	0.007868
 314	1.5650e-01	3.1274	-4.429129	0.000316	3.164246	0.536038	0.006329
 315	1.5700e-01	3.1351	-4.369689	0.000594	5.943651	1.006882	0.011888
 316	1.5750e-01	3.1483	-4.326926	0.000428	4.276008	0.724375	0.008553
 317	1.5800e-01	3.1567	-4.291861	0.000351	3.506327	0.593988	0.007013
 318	1.5850e-01	3.1644	-4.242257	0.000496	4.960169	0.840275	0.009921
 319	1.5900e-01	3.1773	-4.195645	0.000466	4.660849	0.789569	0.009322
 320	1.5950e-01	3.1850	-4.147751	0.000479	4.789129	0.811300	0.009579
 321	1.6000e-01	3.1961	-4.114824	0.000329	3.292526	0.557769	0.006585
 322	1.6050e-01	3.2053	-4.072062	0.000428	4.276008	0.724375	0.008553
 323	1.6100e-01	3.2182	-4.018609	0.000535	5.345010	0.905469	0.010691
 324	1.6150e-01	3.2272	-3.984398	0.000342	3.420806	0.579500	0.006842
 325	1.6200e-01	3.2379	-3.926669	0.000577	5.772611	0.977907	0.011546
 326	1.6250e-01	3.2462	-3.905715	0.000210	2.095244	0.354944	0.004191
 327	1.6300e-01	3.2560	-3.862953	0.000428	4.276008	0.724375	0.008553
 328	1.6350e-01	3.2651	-3.819335	0.000436	4.361528	0.738863	0.008724
 329	1.6400e-01	3.2779	-3.755191	0.000641	6.414012	1.086563	0.012829
 330	1.6450e-01	3.2852	-3.722264	0.000329	3.292526	0.557769	0.006585
 331	1.6500e-01	3.2953	-3.678219	0.000440	4.404288	0.746107	0.008809
 332	1.6550e-01	3.3047	-3.642726	0.000355	3.549087	0.601232	0.007099
 333	1.6600e-01	3.3164	-3.585424	0.000573	5.729851	0.970663	0.011460
 334	1.6650e-01	3.3260	-3.560194	0.000252	2.522845	0.427381	0.005046
 335	1.6700e-01	3.3350	-3.514866	0.000453	4.532569	0.767838	0.009066
 336	1.6750e-01	3.3472	-3.466972	0.000479	4.789129	0.811300	0.009579
 337	1.6800e-01	3.3585	-3.442170	0.000248	2.480085	0.420138	0.004960
 338	1.6850e-01	3.3673	-3.368618	0.000735	7.354734	1.245926	0.014710
 339	1.6900e-01	3.3783	-3.347237	0.000214	2.138004	0.362188	0.004276
 340	1.6950e-01	3.3847	-3.292073	0.000552	5.516050	0.934444	0.011033
 341	1.7000e-01	3.3963	-3.246745	0.000453	4.532569	0.767838	0.009066
 342	1.7050e-01	3.4064	-3.228357	0.000184	1.838683	0.311481	0.003678
 343	1.7100e-01	3.4169	-3.164213	0.000641	6.414012	1.086563	0.012829
 344	1.7150e-01	3.4277	-3.128720	0.000355	3.549087	0.601232	0.007099
 345	1.7200e-01	3.4360	-3.069708	0.000590	5.900891	0.999638	0.011802
 346	1.7250e-01	3.4491	-3.035498	0.000342	3.420806	0.579500	0.006842
 347	1.7300e-01	3.4571	-2.979479	0.000560	5.601571	0.948932	0.011204
 348	1.7350e-01	3.4682	-2.936289	0.000432	4.318768	0.731619	0.008638
 349	1.7400e-01	3.4792	-2.922177	0.000141	1.411083	0.239044	0.002822
 350	1.7450e-01	3.4866	-2.890961	0.000312	3.121486	0.528794	0.006243
 351	1.7500e-01	3.4964	-2.834514	0.000564	5.644331	0.956175	0.011289
 352	1.7550e-01	3.5080	-2.776357	0.000582	5.815371	0.985151	0.011631
 353	1.7600e-01	3.5139	-2.752410	0.000239	2.394565	0.405650	0.004789
 354	1.7650e-01	3.5251	-2.701523	0.000509	5.088450	0.862007	0.010177
 355	1.7700e-01	3.5388	-2.667313	0.000342	3.420806	0.579500	0.006842
 356	1.7750e-01	3.5486	-2.601031	0.000663	6.627813	1.122782	0.013256
 357	1.7800e-01	3.5556	-2.582215	0.000188	1.881444	0.318725	0.003763
 358	1.7850e-01	3.5654	-2.547578	0.000346	3.463567	0.586744	0.006928
 359	1.7900e-01	3.5779	-2.481296	0.000663	6.627813	1.122782	0.013256
 360	1.7950e-01	3.5874	-2.465474	0.000158	1.582123	0.268019	0.003164
 361	1.8000e-01	3.5954	-2.420145	0.000453	4.532569	0.767838	0.009066
 362	1.8050e-01	3.6060	-2.359850	0.000603	6.029171	1.021369	0.012059
 363	1.8100e-01	3.6148	-2.318370	0.000415	4.147728	0.702644	0.008296
 364	1.8150e-01	3.6282	-2.267055	0.000513	5.131210	0.869250	0.010263
 365	1.8200e-01	3.6346	-2.239260	0.000278	2.779405	0.470844	0.005559
 366	1.8250e-01	3.6465	-2.200346	0.000389	3.891167	0.659182	0.007783
 367	1.8300e-01	3.6560	-2.148603	0.000517	5.173970	0.876494	0.010349
 368	1.8350e-01	3.6635	-2.122090	0.000265	2.651125	0.449113	0.005303
 369	1.8400e-01	3.6789	-2.074624	0.000475	4.746369	0.804057	0.009493
 370	1.8450e-01	3.6884	-2.023309	0.000513	5.131210	0.869250	0.010263
 371	1.8500e-01	3.6987	-1.986961	0.000363	3.634607	0.615719	0.007270
 372	1.8550e-01	3.7074	-1.949757	0.000372	3.720127	0.630207	0.007441
 373	1.8600e-01	3.7170	-1.896732	0.000530	5.302250	0.898225	0.010605
 374	1.8650e-01	3.7271	-1.848410	0.000483	4.831889	0.818544	0.009664
 375	1.8700e-01	3.7354	-1.818049	0.000304	3.035966	0.514307	0.006072
 376	1.8750e-01	3.7479	-1.797950	0.000201	2.009724	0.340456	0.004020
 377	1.8800e-01	3.7564	-1.741504	0.000564	5.644331	0.956175	0.011289
 378	1.8850e-01	3.7671	-1.711143	0.000304	3.035966	0.514307	0.006072
 379	1.8900e-01	3.7793	-1.660683	0.000505	5.045690	0.854763	0.010092
 380	1.8950e-01	3.7904	-1.609795	0.000509	5.088450	0.862007	0.010177
 381	1.9000e-01	3.7956	-1.558908	0.000509	5.088450	0.862007	0.010177
 382	1.9050e-01	3.8074	-1.536671	0.000222	2.223524	0.376675	0.004447
 383	1.9100e-01	3.8148	-1.503744	0.000329	3.292526	0.557769	0.006585
 384	1.9150e-01	3.8269	-1.440028	0.000637	6.371252	1.079319	0.012743
 385	1.9200e-01	3.8358	-1.390424	0.000496	4.960169	0.840275	0.009921
 386	1.9250e-01	3.8474	-1.377167	0.000133	1.325563	0.224556	0.002651
 387	1.9300e-01	3.8556	-1.314734	0.000624	6.242972	1.057588	0.012487
 388	1.9350e-01	3.8690	-1.288649	0.000261	2.608365	0.441869	0.005217
 389	1.9400e-01	3.8762	-1.226643	0.000620	6.200212	1.050344	0.012401
 390	1.9450e-01	3.8873	-1.184736	0.000419	4.190488	0.709888	0.008381
 391	1.9500e-01	3.8974	-1.164210	0.000205	2.052484	0.347700	0.004105
 392	1.9550e-01	3.9043	-1.133421	0.000308	3.078726	0.521550	0.006158
 393	1.9600e-01	3.9178	-1.085954	0.000475	4.746369	0.804057	0.009493
 394	1.9650e-01	3.9284	-1.035922	0.000500	5.002929	0.847519	0.010006
 395	1.9700e-01	3.9375	-0.992732	0.000432	4.318768	0.731619	0.008638
 396	1.9750e-01	3.9462	-0.961088	0.000316	3.164246	0.536038	0.006329
 397	1.9800e-01	3.9597	-0.908062	0.000530	5.302250	0.898225	0.010605
 398	1.9850e-01	3.9691	-0.880267	0.000278	2.779405	0.470844	0.005559
 399	1.9900e-01	3.9774	-0.835366	0.000449	4.489808	0.760594	0.008980
 400	1.9950e-01	3.9888	-0.784479	0.000509	5.088450	0.862007	0.010177
 401	2.0000e-01	3.9973	-0.757538	0.000269	2.693885	0.456356	0.005388
 402	2.0050e-01	4.0070	-0.716914	0.000406	4.062208	0.688157	0.008125
 403	2.0100e-01	4.0176	-0.680138	0.000368	3.677367	0.622963	0.007355
 404	2.0150e-01	4.0265	-0.625830	0.000543	5.430530	0.919957	0.010862
 405	2.0200e-01	4.0352	-0.587343	0.000385	3.848407	0.651938	0.007697
 406	2.0250e-01	4.0443	-0.542015	0.000453	4.532569	0.767838	0.009066
 407	2.0300e-01	4.0576	-0.520206	0.000218	2.180764	0.369431	0.004362
 408	2.0350e-01	4.0652	-0.469319	0.000509	5.088450	0.862007	0.010177
 409	2.0400e-01	4.0763	-0.442806	0.000265	2.651125	0.449113	0.005303
 410	2.0450e-01	4.0869	-0.367972	0.000748	7.483014	1.267657	0.014967
 411	2.0500e-01	4.0967	-0.371393	-0.000034	-0.342081	-0.057950	-0.000684
 412	2.0550e-01	4.1058	-0.284585	0.000868	8.680296	1.470482	0.017362
 413	2.0600e-01	4.1177	-0.264914	0.000197	1.966964	0.333213	0.003934
 414	2.0650e-01	4.1277	-0.222579	0.000423	4.233248	0.717132	0.008467
 415	2.0700e-01	4.1370	-0.184948	0.000376	3.762887	0.637450	0.007526
 416	2.0750e-01	4.1438	-0.131922	0.000530	5.302250	0.898225	0.010605
 417	2.0800e-01	4.1556	-0.095147	0.000368	3.677367	0.622963	0.007355
 418	2.0850e-01	4.1675	-0.072055	0.000231	2.309044	0.391163	0.004618
 419	2.0900e-01	4.1772	-0.001497	0.000706	7.055413	1.195219	0.014112
 420	2.0950e-01	4.1879	0.019029	0.000205	2.052484	0.347700	0.004105
 421	2.1000e-01	4.1980	0.047680	0.000286	2.864925	0.485332	0.005730
 422	2.1050e-01	4.2078	0.088732	0.000410	4.104968	0.695400	0.008210
 423	2.1100e-01	4.2165	0.123370	0.000346	3.463567	0.586744	0.006928
 424	2.1150e-01	4.2258	0.178534	0.000552	5.516050	0.934444	0.011033
 425	2.1200e-01	4.2346	0.229849	0.000513	5.131210	0.869250	0.010263
 426	2.1250e-01	4.2450	0.257217	0.000274	2.736645	0.463600	0.005474
 427	2.1300e-01	4.2590	0.299979	0.000428	4.276008	0.724375	0.008553
 428	2.1350e-01	4.2676	0.329485	0.000295	2.950446	0.499819	0.005901
 429	2.1400e-01	4.2792	0.359419	0.000299	2.993206	0.507063	0.005987
 430	2.1450e-01	4.2871	0.438957	0.000795	7.953375	1.347338	0.015908
 431	2.1500e-01	4.2941	0.468463	0.000295	2.950446	0.499819	0.005901
 432	2.1550e-01	4.3079	0.504384	0.000359	3.591847	0.608475	0.007184
 433	2.1600e-01	4.3176	0.534745	0.000304	3.035966	0.514307	0.006072
 434	2.1650e-01	4.3256	0.595041	0.000603	6.029171	1.021369	0.012059
 435	2.1700e-01	4.3381	0.621553	0.000265	2.651125	0.449113	0.005303
 436	2.1750e-01	4.3471	0.645500	0.000239	2.394565	0.405650	0.004789
 437	2.1800e-01	4.3536	0.701092	0.000556	5.558810	0.941688	0.011118
 438	2.1850e-01	4.3683	0.723756	0.000227	2.266284	0.383919	0.004533
 439	2.1900e-01	4.3789	0.779775	0.000560	5.601571	0.948932	0.011204
 440	2.1950e-01	4.3854	0.819544	0.000398	3.976688	0.673669	0.007954
 441	2.2000e-01	4.3982	0.854609	0.000351	3.506327	0.593988	0.007013
 442	2.2050e-01	4.4089	0.896516	0.000419	4.190488	0.709888	0.008381
 443	2.2100e-01	4.4193	0.926450	0.000299	2.993206	0.507063	0.005987
 444	2.2150e-01	4.4270	0.978620	0.000522	5.216730	0.883738	0.010434
 445	2.2200e-01	4.4357	1.005133	0.000265	2.651125	0.449113	0.005303
 446	2.2250e-01	4.4458	1.062435	0.000573	5.729851	0.970663	0.011460
 447	2.2300e-01	4.4574	1.090658	0.000282	2.822165	0.478088	0.005645
 448	2.2350e-01	4.4662	1.136842	0.000462	4.618089	0.782325	0.009237
 449	2.2400e-01	4.4772	1.168486	0.000316	3.164246	0.536038	0.006329
 450	2.2450e-01	4.4867	1.215525	0.000470	4.703609	0.796813	0.009408
 451	2.2500e-01	4.4977	1.269406	0.000539	5.387770	0.912713	0.010776
 452	2.2550e-01	4.5074	1.290787	0.000214	2.138004	0.362188	0.004276
 453	2.2600e-01	4.5163	1.322004	0.000312	3.121486	0.528794	0.006243
 454	2.2650e-01	4.5276	1.377167	0.000552	5.516050	0.934444	0.011033
 455	2.2700e-01	4.5374	1.409239	0.000321	3.207006	0.543282	0.006414
 456	2.2750e-01	4.5511	1.447725	0.000385	3.848407	0.651938	0.007697
 457	2.2800e-01	4.5593	1.483218	0.000355	3.549087	0.601232	0.007099
 458	2.2850e-01	4.5662	1.519994	0.000368	3.677367	0.622963	0.007355
 459	2.2900e-01	4.5770	1.571309	0.000513	5.131210	0.869250	0.010263
 460	2.2950e-01	4.5856	1.603809	0.000325	3.249766	0.550525	0.006500
 461	2.3000e-01	4.5978	1.639729	0.000359	3.591847	0.608475	0.007184
 462	2.3050e-01	4.6075	1.679926	0.000402	4.019448	0.680913	0.008039
 463	2.3100e-01	4.6161	1.712425	0.000325	3.249766	0.550525	0.006500
 464	2.3150e-01	4.6265	1.759037	0.000466	4.660849	0.789569	0.009322
 465	2.3200e-01	4.6375	1.801371	0.000423	4.233248	0.717132	0.008467
 466	2.3250e-01	4.6494	1.854397	0.000530	5.302250	0.898225	0.010605
 467	2.3300e-01	4.6579	1.866371	0.000120	1.197282	0.202825	0.002395
 468	2.3350e-01	4.6677	1.916830	0.000505	5.045690	0.854763	0.010092
 469	2.3400e-01	4.6793	1.949757	0.000329	3.292526	0.557769	0.006585
 470	2.3450e-01	4.6860	1.987816	0.000381	3.805647	0.644694	0.007612
 471	2.3500e-01	4.6976	2.013474	0.000257	2.565605	0.434625	0.005132
 472	2.3550e-01	4.7070	2.054098	0.000406	4.062208	0.688157	0.008125
 473	2.3600e-01	4.7165	2.094295	0.000402	4.019448	0.680913	0.008039
 474	2.3650e-01	4.7290	2.143472	0.000492	4.917409	0.833032	0.009835
 475	2.3700e-01	4.7382	2.190510	0.000470	4.703609	0.796813	0.009408
 476	2.3750e-01	4.7449	2.229424	0.000389	3.891167	0.659182	0.007783
 477	2.3800e-01	4.7581	2.261496	0.000321	3.207006	0.543282	0.006414
 478	2.3850e-01	4.7656	2.310673	0.000492	4.917409	0.833032	0.009835
 479	2.3900e-01	4.7757	2.344883	0.000342	3.420806	0.579500	0.006842
 480	2.3950e-01	4.7870	2.387218	0.000423	4.233248	0.717132	0.008467
 481	2.4000e-01	4.7949	2.427415	0.000402	4.019448	0.680913	0.008039
 482	2.4050e-01	4.8068	2.441954	0.000145	1.453843	0.246288	0.002908
 483	2.4100e-01	4.8169	2.488993	0.000470	4.703609	0.796813	0.009408
 484	2.4150e-01	4.8260	2.524913	0.000359	3.591847	0.608475	0.007184
 485	2.4200e-01	4.8340	2.582215	0.000573	5.729851	0.970663	0.011460
 486	2.4250e-01	4.8439	2.609156	0.000269	2.693885	0.456356	0.005388
 487	2.4300e-01	4.8584	2.651491	0.000423	4.233248	0.717132	0.008467
 488	2.4350e-01	4.8663	2.678003	0.000265	2.651125	0.449113	0.005303
 489	2.4400e-01	4.8767	2.736588	0.000586	5.858131	0.992394	0.011717
 490	2.4450e-01	4.8871	2.759252	0.000227	2.266284	0.383919	0.004533
 491	2.4500e-01	4.8993	2.799021	0.000398	3.976688	0.673669	0.007954
 492	2.4550e-01	4.9091	2.840501	0.000415	4.147728	0.702644	0.008296
 493	2.4600e-01	4.9170	2.875139	0.000346	3.463567	0.586744	0.006928
 494	2.4650e-01	4.9280	2.912770	0.000376	3.762887	0.637450	0.007526
 495	2.4700e-01	4.9371	2.945697	0.000329	3.292526	0.557769	0.006585
 496	2.4750e-01	4.9487	2.995729	0.000500	5.002929	0.847519	0.010006
 497	2.4800e-01	4.9585	3.025235	0.000295	2.950446	0.499819	0.005901
 498	2.4850e-01	4.9658	3.053031	0.000278	2.779405	0.470844	0.005559
 499	2.4900e-01	4.9770	3.100925	0.000479	4.789129	0.811300	0.009579
 500	2.4950e-01	4.9870	3.124016	0.000231	2.309044	0.391163	0.004618
 501	2.5000e-01	4.9957	3.174904	0.000509	5.088450	0.862007	0.010177
 502	2.5050e-01	5.0055	3.214245	0.000393	3.933927	0.666425	0.007868
 503	2.5100e-01	5.0177	3.251876	0.000376	3.762887	0.637450	0.007526
 504	2.5150e-01	5.0276	3.304047	0.000522	5.216730	0.883738	0.010434
 505	2.5200e-01	5.0366	3.318158	0.000141	1.411083	0.239044	0.002822
 506	2.5250e-01	5.0488	3.365197	0.000470	4.703609	0.796813	0.009408
 507	2.5300e-01	5.0577	3.394276	0.000291	2.907685	0.492575	0.005816
 508	2.5350e-01	5.0655	3.436611	0.000423	4.233248	0.717132	0.008467
 509	2.5400e-01	5.0758	3.475952	0.000393	3.933927	0.666425	0.007868
 510	2.5450e-01	5.0873	3.514438	0.000385	3.848407	0.651938	0.007697
 511	2.5500e-01	5.0958	3.554207	0.000398	3.976688	0.673669	0.007954
 512	2.5550e-01	5.1051	3.589700	0.000355	3.549087	0.601232	0.007099
 513	2.5600e-01	5.1172	3.616213	0.000265	2.651125	0.449113	0.005303
 514	2.5650e-01	5.1263	3.659831	0.000436	4.361528	0.738863	0.008724
 515	2.5700e-01	5.1370	3.706870	0.000470	4.703609	0.796813	0.009408
 516	2.5750e-01	5.1471	3.726540	0.000197	1.966964	0.333213	0.003934
 517	2.5800e-01	5.1578	3.764171	0.000376	3.762887	0.637450	0.007526
 518	2.5850e-01	5.1680	3.820618	0.000564	5.644331	0.956175	0.011289
 519	2.5900e-01	5.1752	3.855256	0.000346	3.463567	0.586744	0.006928
 520	2.5950e-01	5.1868	3.881768	0.000265	2.651125	0.449113	0.005303
 521	2.6000e-01	5.1953	3.927524	0.000458	4.575329	0.775082	0.009151
 522	2.6050e-01	5.2063	3.952754	0.000252	2.522845	0.427381	0.005046
 523	2.6100e-01	5.2161	3.985254	0.000325	3.249766	0.550525	0.006500
 524	2.6150e-01	5.2286	4.040845	0.000556	5.558810	0.941688	0.011118
 525	2.6200e-01	5.2332	4.068213	0.000274	2.736645	0.463600	0.005474
 526	2.6250e-01	5.2441	4.112258	0.000440	4.404288	0.746107	0.008809
 527	2.6300e-01	5.2571	4.144758	0.000325	3.249766	0.550525	0.006500
 528	2.6350e-01	5.2673	4.171698	0.000269	2.693885	0.456356	0.005388
 529	2.6400e-01	5.2759	4.209329	0.000376	3.762887	0.637450	0.007526
 530	2.6450e-01	5.2881	4.249954	0.000406	4.062208	0.688157	0.008125
 531	2.6500e-01	5.2945	4.301269	0.000513	5.131210	0.869250	0.010263
 532	2.6550e-01	5.3070	4.347452	0.000462	4.618089	0.782325	0.009237
 533	2.6600e-01	5.3168	4.365840	0.000184	1.838683	0.311481	0.003678
 534	2.6650e-01	5.3259	4.400478	0.000346	3.463567	0.586744	0.006928
 535	2.6700e-01	5.3336	4.438537	0.000381	3.805647	0.644694	0.007612
 536	2.6750e-01	5.3479	4.477450	0.000389	3.891167	0.659182	0.007783
 537	2.6800e-01	5.3564	4.524489	0.000470	4.703609	0.796813	0.009408
 538	2.6850e-01	5.3665	4.554851	0.000304	3.035966	0.514307	0.006072
 539	2.6900e-01	5.3748	4.599324	0.000445	4.447048	0.753350	0.008895
 540	2.6950e-01	5.3873	4.632678	0.000334	3.335286	0.565013	0.006671
 541	2.7000e-01	5.3967	4.672020	0.000393	3.933927	0.666425	0.007868
 542	2.7050e-01	5.4065	4.698533	0.000265	2.651125	0.449113	0.005303
 543	2.7100e-01	5.4150	4.748992	0.000505	5.045690	0.854763	0.010092
 544	2.7150e-01	5.4248	4.765242	0.000162	1.624883	0.275263	0.003250
 545	2.7200e-01	5.4370	4.808860	0.000436	4.361528	0.738863	0.008724
 546	2.7250e-01	5.4446	4.852050	0.000432	4.318768	0.731619	0.008638
 547	2.7300e-01	5.4547	4.903365	0.000513	5.131210	0.869250	0.010263
 548	2.7350e-01	5.4657	4.929450	0.000261	2.608365	0.441869	0.005217
 549	2.7400e-01	5.4776	4.952114	0.000227	2.266284	0.383919	0.004533
 550	2.7450e-01	5.4865	4.973496	0.000214	2.138004	0.362188	0.004276
 551	2.7500e-01	5.4980	5.013265	0.000398	3.976688	0.673669	0.007954
 552	2.7550e-01	5.5072	5.057310	0.000440	4.404288	0.746107	0.008809
 553	2.7600e-01	5.5206	5.091093	0.000338	3.378046	0.572257	0.006756
 554	2.7650e-01	5.5267	5.144973	0.000539	5.387770	0.912713	0.010776
 555	2.7700e-01	5.5386	5.189447	0.000445	4.447048	0.753350	0.008895
 556	2.7750e-01	5.5481	5.217670	0.000282	2.822165	0.478088	0.005645
 557	2.7800e-01	5.5566	5.249314	0.000316	3.164246	0.536038	0.006329
 558	2.7850e-01	5.5663	5.283524	0.000342	3.420806	0.579500	0.006842
 559	2.7900e-01	5.5759	5.312175	0.000286	2.864925	0.485332	0.005730
 560	2.7950e-01	5.5853	5.353227	0.000410	4.104968	0.695400	0.008210
 561	2.8000e-01	5.5975	5.391713	0.000385	3.848407	0.651938	0.007697
 562	2.8050e-01	5.6082	5.431482	0.000398	3.976688	0.673669	0.007954
 563	2.8100e-01	5.6160	5.471679	0.000402	4.019448	0.680913	0.008039
 564	2.8150e-01	5.6305	5.502041	0.000304	3.035966	0.514307	0.006072
 565	2.8200e-01	5.6366	5.550790	0.000487	4.874649	0.825788	0.009750
 566	2.8250e-01	5.6464	5.562763	0.000120	1.197282	0.202825	0.002395
 567	2.8300e-01	5.6586	5.592270	0.000295	2.950446	0.499819	0.005901
 568	2.8350e-01	5.6653	5.650854	0.000586	5.858131	0.992394	0.011717
 569	2.8400e-01	5.6781	5.667532	0.000167	1.667643	0.282506	0.003335
 570	2.8450e-01	5.6857	5.717136	0.000496	4.960169	0.840275	0.009921
 571	2.8500e-01	5.6964	5.745359	0.000282	2.822165	0.478088	0.005645
 572	2.8550e-01	5.7080	5.794964	0.000496	4.960169	0.840275	0.009921
 573	2.8600e-01	5.7144	5.831312	0.000363	3.634607	0.615719	0.007270
 574	2.8650e-01	5.7251	5.861673	0.000304	3.035966	0.514307	0.006072
 575	2.8700e-01	5.7373	5.908285	0.000466	4.660849	0.789569	0.009322
 576	2.8750e-01	5.7453	5.922824	0.000145	1.453843	0.246288	0.002908
 577	2.8800e-01	5.7562	5.967725	0.000449	4.489808	0.760594	0.008980
 578	2.8850e-01	5.7660	6.006638	0.000389	3.891167	0.659182	0.007783
 579	2.8900e-01	5.7761	6.046408	0.000398	3.976688	0.673669	0.007954
 580	2.8950e-01	5.7855	6.069499	0.000231	2.309044	0.391163	0.004618
 581	2.9000e-01	5.7971	6.091736	0.000222	2.223524	0.376675	0.004447
 582	2.9050e-01	5.8069	6.135781	0.000440	4.404288	0.746107	0.008809
 583	2.9100e-01	5.8156	6.174268	0.000385	3.848407	0.651938	0.007697
 584	2.9150e-01	5.8282	6.211043	0.000368	3.677367	0.622963	0.007355
 585	2.9200e-01	5.8374	6.251668	0.000406	4.062208	0.688157	0.008125
 586	2.9250e-01	5.8456	6.303410	0.000517	5.173970	0.876494	0.010349
 587	2.9300e-01	5.8557	6.337620	0.000342	3.420806	0.579500	0.006842
 588	2.9350e-01	5.8655	6.348739	0.000111	1.111762	0.188338	0.002224
 589	2.9400e-01	5.8771	6.391929	0.000432	4.318768	0.731619	0.008638
 590	2.9450e-01	5.8887	6.431270	0.000393	3.933927	0.666425	0.007868
 591	2.9500e-01	5.8969	6.467618	0.000363	3.634607	0.615719	0.007270
 592	2.9550e-01	5.9076	6.492848	0.000252	2.522845	0.427381	0.005046
 593	2.9600e-01	5.9161	6.536039	0.000432	4.318768	0.731619	0.008638
 594	2.9650e-01	5.9253	6.554854	0.000188	1.881444	0.318725	0.003763
 595	2.9700e-01	5.9357	6.616004	0.000611	6.114692	1.035857	0.012230
 596	2.9750e-01	5.9479	6.632682	0.000167	1.667643	0.282506	0.003335
 597	2.9800e-01	5.9595	6.663898	0.000312	3.121486	0.528794	0.006243
 598	2.9850e-01	5.9692	6.703668	0.000398	3.976688	0.673669	0.007954
 599	2.9900e-01	5.9766	6.739588	0.000359	3.591847	0.608475	0.007184
 600	2.9950e-01	5.9865	6.781495	0.000419	4.190488	0.709888	0.008381
 601	3.0000e-01	5.9976	6.798600	0.000171	1.710403	0.289750	0.003421
 602	3.0050e-01	6.0071	6.840935	0.000423	4.233248	0.717132	0.008467
 603	3.0100e-01	6.0175	6.887546	0.000466	4.660849	0.789569	0.009322
 604	3.0150e-01	6.0278	6.916625	0.000291	2.907685	0.492575	0.005816
 605	3.0200e-01	6.0373	6.952546	0.000359	3.591847	0.608475	0.007184
 606	3.0250e-01	6.0480	6.979058	0.000265	2.651125	0.449113	0.005303
 607	3.0300e-01	6.0553	7.020966	0.000419	4.190488	0.709888	0.008381
 608	3.0350e-01	6.0669	7.061590	0.000406	4.062208	0.688157	0.008125
 609	3.0400e-01	6.0780	7.103497	0.000419	4.190488	0.709888	0.008381
 610	3.0450e-01	6.0890	7.112050	0.000086	0.855202	0.144875	0.001711
 611	3.0500e-01	6.0974	7.160371	0.000483	4.831889	0.818544	0.009664
 612	3.0550e-01	6.1084	7.184318	0.000239	2.394565	0.405650	0.004789
 613	3.0600e-01	6.1182	7.228364	0.000440	4.404288	0.746107	0.008809
 614	3.0650e-01	6.1261	7.253594	0.000252	2.522845	0.427381	0.005046
 615	3.0700e-01	6.1365	7.296784	0.000432	4.318768	0.731619	0.008638
 616	3.0750e-01	6.1456	7.339119	0.000423	4.233248	0.717132	0.008467
 617	3.0800e-01	6.1572	7.381881	0.000428	4.276008	0.724375	0.008553
 618	3.0850e-01	6.1664	7.410960	0.000291	2.907685	0.492575	0.005816
 619	3.0900e-01	6.1789	7.465696	0.000547	5.473290	0.927200	0.010947
 620	3.0950e-01	6.1873	7.473821	0.000081	0.812442	0.137631	0.001625
 621	3.1000e-01	6.1981	7.513590	0.000398	3.976688	0.673669	0.007954
 622	3.1050e-01	6.2054	7.530695	0.000171	1.710403	0.289750	0.003421
 623	3.1100e-01	6.2158	7.577306	0.000466	4.660849	0.789569	0.009322
 624	3.1150e-01	6.2265	7.617075	0.000398	3.976688	0.673669	0.007954
 625	3.1200e-01	6.2384	7.647864	0.000308	3.078726	0.521550	0.006158
 626	3.1250e-01	6.2476	7.676087	0.000282	2.822165	0.478088	0.005645
 627	3.1300e-01	6.2616	7.699607	0.000235	2.351804	0.398406	0.004704
 628	3.1350e-01	6.2683	7.744935	0.000453	4.532569	0.767838	0.009066
 629	3.1400e-01	6.2758	7.781711	0.000368	3.677367	0.622963	0.007355
 630	3.1450e-01	6.2872	7.796678	0.000150	1.496603	0.253531	0.002993
 631	3.1500e-01	6.2965	7.858683	0.000620	6.200212	1.050344	0.012401
 632	3.1550e-01	6.3092	7.885624	0.000269	2.693885	0.456356	0.005388
 633	3.1600e-01	6.3174	7.900163	0.000145	1.453843	0.246288	0.002908
 634	3.1650e-01	6.3275	7.952761	0.000526	5.259490	0.890982	0.010520
 635	3.1700e-01	6.3336	8.003648	0.000509	5.088450	0.862007	0.010177
 636	3.1750e-01	6.3483	8.017760	0.000141	1.411083	0.239044	0.002822
 637	3.1800e-01	6.3550	8.069503	0.000517	5.173970	0.876494	0.010349
 638	3.1850e-01	6.3696	8.108844	0.000393	3.933927	0.666425	0.007868
 639	3.1900e-01	6.3776	8.127660	0.000188	1.881444	0.318725	0.003763
 640	3.1950e-01	6.3861	8.163580	0.000359	3.591847	0.608475	0.007184
 641	3.2000e-01	6.3965	8.189238	0.000257	2.565605	0.434625	0.005132
 642	3.2050e-01	6.4050	8.227724	0.000385	3.848407	0.651938	0.007697
 643	3.2100e-01	6.4185	8.252099	0.000244	2.437325	0.412894	0.004875
 644	3.2150e-01	6.4264	8.295289	0.000432	4.318768	0.731619	0.008638
 645	3.2200e-01	6.4355	8.311539	0.000162	1.624883	0.275263	0.003250
 646	3.2250e-01	6.4453	8.359005	0.000475	4.746369	0.804057	0.009493
 647	3.2300e-01	6.4554	8.399629	0.000406	4.062208	0.688157	0.008125
 648	3.2350e-01	6.4679	8.431274	0.000316	3.164246	0.536038	0.006329
 649	3.2400e-01	6.4749	8.468050	0.000368	3.677367	0.622963	0.007355
 650	3.2450e-01	6.4868	8.490714	0.000227	2.266284	0.383919	0.004533
 651	3.2500e-01	6.4957	8.527489	0.000368	3.677367	0.622963	0.007355
 652	3.2550e-01	6.5042	8.594199	0.000667	6.670573	1.130026	0.013342
 653	3.2600e-01	6.5167	8.588640	-0.000056	-0.555881	-0.094169	-0.001112
 654	3.2650e-01	6.5271	8.631830	0.000432	4.318768	0.731619	0.008638
 655	3.2700e-01	6.5359	8.675448	0.000436	4.361528	0.738863	0.008724
 656	3.2750e-01	6.5475	8.711796	0.000363	3.634607	0.615719	0.007270
 657	3.2800e-01	6.5573	8.746006	0.000342	3.420806	0.579500	0.006842
 658	3.2850e-01	6.5663	8.748999	0.000030	0.299321	0.050706	0.000599
 659	3.2900e-01	6.5778	8.800742	0.000517	5.173970	0.876494	0.010349
 660	3.2950e-01	6.5898	8.846925	0.000462	4.618089	0.782325	0.009237
 661	3.3000e-01	6.5973	8.874294	0.000274	2.736645	0.463600	0.005474
 662	3.3050e-01	6.6058	8.901234	0.000269	2.693885	0.456356	0.005388
 663	3.3100e-01	6.6156	8.932878	0.000316	3.164246	0.536038	0.006329
 664	3.3150e-01	6.6296	8.974785	0.000419	4.190488	0.709888	0.008381
 665	3.3200e-01	6.6357	9.010706	0.000359	3.591847	0.608475	0.007184
 666	3.3250e-01	6.6461	9.030804	0.000201	2.009724	0.340456	0.004020
 667	3.3300e-01	6.6571	9.059883	0.000291	2.907685	0.492575	0.005816
 668	3.3350e-01	6.6650	9.099224	0.000393	3.933927	0.666425	0.007868
 669	3.3400e-01	6.6785	9.156954	0.000577	5.772611	0.977907	0.011546
 670	3.3450e-01	6.6895	9.182611	0.000257	2.565605	0.434625	0.005132
 671	3.3500e-01	6.6962	9.218959	0.000363	3.634607	0.615719	0.007270
 672	3.3550e-01	6.7068	9.254880	0.000359	3.591847	0.608475	0.007184
 673	3.3600e-01	6.7157	9.255308	0.000004	0.042760	0.007244	0.000086
 674	3.3650e-01	6.7255	9.305340	0.000500	5.002929	0.847519	0.010006
 675	3.3700e-01	6.7349	9.346819	0.000415	4.147728	0.702644	0.008296
 676	3.3750e-01	6.7450	9.375898	0.000291	2.907685	0.492575	0.005816
 677	3.3800e-01	6.7572	9.411391	0.000355	3.549087	0.601232	0.007099
 678	3.3850e-01	6.7676	9.433627	0.000222	2.223524	0.376675	0.004447
 679	3.3900e-01	6.7780	9.461851	0.000282	2.822165	0.478088	0.005645
 680	3.3950e-01	6.7874	9.502475	0.000406	4.062208	0.688157	0.008125
 681	3.4000e-01	6.7966	9.534119	0.000316	3.164246	0.536038	0.006329
 682	3.4050e-01	6.8069	9.573033	0.000389	3.891167	0.659182	0.007783
 683	3.4100e-01	6.8172	9.601256	0.000282	2.822165	0.478088	0.005645
 684	3.4150e-01	6.8268	9.636749	0.000355	3.549087	0.601232	0.007099
 685	3.4200e-01	6.8365	9.677374	0.000406	4.062208	0.688157	0.008125
 686	3.4250e-01	6.8475	9.702604	0.000252	2.522845	0.427381	0.005046
 687	3.4300e-01	6.8573	9.736814	0.000342	3.420806	0.579500	0.006842
 688	3.4350e-01	6.8707	9.776155	0.000393	3.933927	0.666425	0.007868
 689	3.4400e-01	6.8781	9.811220	0.000351	3.506327	0.593988	0.007013
 690	3.4450e-01	6.8863	9.837733	0.000265	2.651125	0.449113	0.005303
 691	3.4500e-01	6.8979	9.856549	0.000188	1.881444	0.318725	0.003763
 692	3.4550e-01	6.9052	9.916416	0.000599	5.986411	1.014126	0.011974
 693	3.4600e-01	6.9171	9.935232	0.000188	1.881444	0.318725	0.003763
 694	3.4650e-01	6.9244	9.970297	0.000351	3.506327	0.593988	0.007013
 695	3.4700e-01	6.9356	9.985692	0.000154	1.539363	0.260775	0.003079
 696	3.4750e-01	6.9452	10.043849	0.000582	5.815371	0.985151	0.011631
 697	3.4800e-01	6.9562	10.066940	0.000231	2.309044	0.391163	0.004618
 698	3.4850e-01	6.9684	10.069506	0.000026	0.256560	0.043463	0.000513
 699	3.4900e-01	6.9781	10.140920	0.000714	7.140933	1.209707	0.014283
 700	3.4950e-01	6.9885	10.168715	0.000278	2.779405	0.470844	0.005559
 701	3.5000e-01	6.9971	10.187531	0.000188	1.881444	0.318725	0.003763
 702	3.5050e-01	7.0063	10.224307	0.000368	3.677367	0.622963	0.007355
 703	3.5100e-01	7.0166	10.266214	0.000419	4.190488	0.709888	0.008381
 704	3.5150e-01	7.0251	10.298713	0.000325	3.249766	0.550525	0.006500
 705	3.5200e-01	7.0343	10.326937	0.000282	2.822165	0.478088	0.005645
 706	3.5250e-01	7.0459	10.350456	0.000235	2.351804	0.398406	0.004704
 707	3.5300e-01	7.0558	10.379534	0.000291	2.907685	0.492575	0.005816
 708	3.5350e-01	7.0645	10.424435	0.000449	4.489808	0.760594	0.008980
 709	3.5400e-01	7.0776	10.445816	0.000214	2.138004	0.362188	0.004276
 710	3.5450e-01	7.0871	10.476605	0.000308	3.078726	0.521550	0.006158
 711	3.5500e-01	7.0972	10.524072	0.000475	4.746369	0.804057	0.009493
 712	3.5550e-01	7.1057	10.568117	0.000440	4.404288	0.746107	0.008809
 713	3.5600e-01	7.1167	10.589071	0.000210	2.095244	0.354944	0.004191
 714	3.5650e-01	7.1277	10.624991	0.000359	3.591847	0.608475	0.007184
 715	3.5700e-01	7.1381	10.647656	0.000227	2.266284	0.383919	0.004533
 716	3.5750e-01	7.1448	10.686569	0.000389	3.891167	0.659182	0.007783
 717	3.5800e-01	7.1585	10.705813	0.000192	1.924204	0.325969	0.003849
 718	3.5850e-01	7.1658	10.751568	0.000458	4.575329	0.775082	0.009151
 719	3.5900e-01	7.1759	10.796469	0.000449	4.489808	0.760594	0.008980
 720	3.5950e-01	7.1851	10.812291	0.000158	1.582123	0.268019	0.003164
 721	3.6000e-01	7.1960	10.852488	0.000402	4.019448	0.680913	0.008039
 722	3.6050e-01	7.2055	10.870021	0.000175	1.753163	0.296994	0.003507
 723	3.6100e-01	7.2174	10.917059	0.000470	4.703609	0.796813	0.009408
 724	3.6150e-01	7.2266	10.944000	0.000269	2.693885	0.456356	0.005388
 725	3.6200e-01	7.2363	10.973506	0.000295	2.950446	0.499819	0.005901
 726	3.6250e-01	7.2461	11.010709	0.000372	3.720127	0.630207	0.007441
 727	3.6300e-01	7.2571	11.030808	0.000201	2.009724	0.340456	0.004020
 728	3.6350e-01	7.2665	11.066728	0.000359	3.591847	0.608475	0.007184
 729	3.6400e-01	7.2772	11.106070	0.000393	3.933927	0.666425	0.007868
 730	3.6450e-01	7.2864	11.140280	0.000342	3.420806	0.579500	0.006842
 731	3.6500e-01	7.2931	11.177056	0.000368	3.677367	0.622963	0.007355
 732	3.6550e-01	7.3083	11.203568	0.000265	2.651125	0.449113	0.005303
 733	3.6600e-01	7.3175	11.241199	0.000376	3.762887	0.637450	0.007526
 734	3.6650e-01	7.3260	11.261298	0.000201	2.009724	0.340456	0.004020
 735	3.6700e-01	7.3364	11.318172	0.000569	5.687091	0.963419	0.011375
 736	3.6750e-01	7.3450	11.336560	0.000184	1.838683	0.311481	0.003678
 737	3.6800e-01	7.3572	11.357513	0.000210	2.095244	0.354944	0.004191
 738	3.6850e-01	7.3660	11.385737	0.000282	2.822165	0.478088	0.005645
 739	3.6900e-01	7.3776	11.413532	0.000278	2.779405	0.470844	0.005559
 740	3.6950e-01	7.3853	11.484091	0.000706	7.055413	1.195219	0.014112
 741	3.7000e-01	7.3969	11.502051	0.000180	1.795923	0.304238	0.003592
 742	3.7050e-01	7.4054	11.546524	0.000445	4.447048	0.753350	0.008895
 743	3.7100e-01	7.4179	11.552083	0.000056	0.555881	0.094169	0.001112
 744	3.7150e-01	7.4255	11.582444	0.000304	3.035966	0.514307	0.006072
 745	3.7200e-01	7.4347	11.605109	0.000227	2.266284	0.383919	0.004533
 746	3.7250e-01	7.4438	11.651292	0.000462	4.618089	0.782325	0.009237
 747	3.7300e-01	7.4564	11.678232	0.000269	2.693885	0.456356	0.005388
 748	3.7350e-01	7.4658	11.733396	0.000552	5.516050	0.934444	0.011033
 749	3.7400e-01	7.4750	11.741521	0.000081	0.812442	0.137631	0.001625
 750	3.7450e-01	7.4863	11.782145	0.000406	4.062208	0.688157	0.008125
 751	3.7500e-01	7.4982	11.800961	0.000188	1.881444	0.318725	0.003763
 752	3.7550e-01	7.5079	11.826618	0.000257	2.565605	0.434625	0.005132
 753	3.7600e-01	7.5171	11.872802	0.000462	4.618089	0.782325	0.009237
 754	3.7650e-01	7.5269	11.892473	0.000197	1.966964	0.333213	0.003934
 755	3.7700e-01	7.5372	11.931387	0.000389	3.891167	0.659182	0.007783
 756	3.7750e-01	7.5482	11.954906	0.000235	2.351804	0.398406	0.004704
 757	3.7800e-01	7.5562	11.982274	0.000274	2.736645	0.463600	0.005474
 758	3.7850e-01	7.5668	12.018622	0.000363	3.634607	0.615719	0.007270
 759	3.7900e-01	7.5766	12.048984	0.000304	3.035966	0.514307	0.006072
 760	3.7950e-01	7.5879	12.096878	0.000479	4.789129	0.811300	0.009579
 761	3.8000e-01	7.5986	12.126811	0.000299	2.993206	0.507063	0.005987
 762	3.8050e-01	7.6056	12.156317	0.000295	2.950446	0.499819	0.005901
 763	3.8100e-01	7.6166	12.190955	0.000346	3.463567	0.586744	0.006928
 764	3.8150e-01	7.6257	12.192666	0.000017	0.171040	0.028975	0.000342
 765	3.8200e-01	7.6399	12.237139	0.000445	4.447048	0.753350	0.008895
 766	3.8250e-01	7.6471	12.284177	0.000470	4.703609	0.796813	0.009408
 767	3.8300e-01	7.6563	12.319243	0.000351	3.506327	0.593988	0.007013
 768	3.8350e-01	7.6654	12.349176	0.000299	2.993206	0.507063	0.005987
 769	3.8400e-01	7.6758	12.366709	0.000175	1.753163	0.296994	0.003507
 770	3.8450e-01	7.6880	12.400492	0.000338	3.378046	0.572257	0.006756
 771	3.8500e-01	7.6962	12.431708	0.000312	3.121486	0.528794	0.006243
 772	3.8550e-01	7.7048	12.482168	0.000505	5.045690	0.854763	0.010092
 773	3.8600e-01	7.7155	12.489438	0.000073	0.726921	0.123144	0.001454
 774	3.8650e-01	7.7289	12.530917	0.000415	4.147728	0.702644	0.008296
 775	3.8700e-01	7.7368	12.572825	0.000419	4.190488	0.709888	0.008381
 776	3.8750e-01	7.7454	12.594633	0.000218	2.180764	0.369431	0.004362
 777	3.8800e-01	7.7551	12.643810	0.000492	4.917409	0.833032	0.009835
 778	3.8850e-01	7.7640	12.657067	0.000133	1.325563	0.224556	0.002651
 779	3.8900e-01	7.7762	12.676737	0.000197	1.966964	0.333213	0.003934
 780	3.8950e-01	7.7875	12.722921	0.000462	4.618089	0.782325	0.009237
 781	3.9000e-01	7.7975	12.740881	0.000180	1.795923	0.304238	0.003592
 782	3.9050e-01	7.8058	12.786210	0.000453	4.532569	0.767838	0.009066
 783	3.9100e-01	7.8156	12.815288	0.000291	2.907685	0.492575	0.005816
 784	3.9150e-01	7.8265	12.844367	0.000291	2.907685	0.492575	0.005816
 785	3.9200e-01	7.8363	12.887557	0.000432	4.318768	0.731619	0.008638
 786	3.9250e-01	7.8479	12.910648	0.000231	2.309044	0.391163	0.004618
 787	3.9300e-01	7.8564	12.944859	0.000342	3.420806	0.579500	0.006842
 788	3.9350e-01	7.8668	12.979924	0.000351	3.506327	0.593988	0.007013
 789	3.9400e-01	7.8802	12.994035	0.000141	1.411083	0.239044	0.002822
 790	3.9450e-01	7.8885	13.020121	0.000261	2.608365	0.441869	0.005217
 791	3.9500e-01	7.8970	13.073574	0.000535	5.345010	0.905469	0.010691
 792	3.9550e-01	7.9065	13.082554	0.000090	0.897962	0.152119	0.001796
 793	3.9600e-01	7.9169	13.150546	0.000680	6.798853	1.151757	0.013598
 794	3.9650e-01	7.9272	13.150546	0.000000	0.000000	0.000000	0.000000
 795	3.9700e-01	7.9376	13.192881	0.000423	4.233248	0.717132	0.008467
 796	3.9750e-01	7.9474	13.218111	0.000252	2.522845	0.427381	0.005046
 797	3.9800e-01	7.9578	13.243769	0.000257	2.565605	0.434625	0.005132
 798	3.9850e-01	7.9651	13.279261	0.000355	3.549087	0.601232	0.007099
 799	3.9900e-01	7.9782	13.311333	0.000321	3.207006	0.543282	0.006414
 800	3.9950e-01	7.9871	13.336563	0.000252	2.522845	0.427381	0.005046
 801	4.0000e-01	7.9959	13.367780	0.000312	3.121486	0.528794	0.006243
 802	4.0050e-01	8.0032	13.404128	0.000363	3.634607	0.615719	0.007270
 803	4.0100e-01	8.0154	13.444752	0.000406	4.062208	0.688157	0.008125
 804	4.0150e-01	8.0261	13.455443	0.000107	1.069002	0.181094	0.002138
 805	4.0200e-01	8.0359	13.504192	0.000487	4.874649	0.825788	0.009750
 806	4.0250e-01	8.0478	13.521725	0.000175	1.753163	0.296994	0.003507
 807	4.0300e-01	8.0585	13.585014	0.000633	6.328492	1.072076	0.012658
 808	4.0350e-01	8.0646	13.579027	-0.000060	-0.598641	-0.101413	-0.001197
 809	4.0400e-01	8.0762	13.620079	0.000410	4.104968	0.695400	0.008210
 810	4.0450e-01	8.0872	13.644881	0.000248	2.480085	0.420138	0.004960
 811	4.0500e-01	8.0957	13.678663	0.000338	3.378046	0.572257	0.006756
 812	4.0550e-01	8.1085	13.721426	0.000428	4.276008	0.724375	0.008553
 813	4.0600e-01	8.1177	13.745801	0.000244	2.437325	0.412894	0.004875
 814	4.0650e-01	8.1259	13.785142	0.000393	3.933927	0.666425	0.007868
 815	4.0700e-01	8.1372	13.816786	0.000316	3.164246	0.536038	0.006329
 816	4.0750e-01	8.1451	13.842444	0.000257	2.565605	0.434625	0.005132
 817	4.0800e-01	8.1573	13.877937	0.000355	3.549087	0.601232	0.007099
 818	4.0850e-01	8.1659	13.893331	0.000154	1.539363	0.260775	0.003079
 819	4.0900e-01	8.1781	13.945074	0.000517	5.173970	0.876494	0.010349
 820	4.0950e-01	8.1873	13.968166	0.000231	2.309044	0.391163	0.004618
 821	4.1000e-01	8.1982	13.978001	0.000098	0.983482	0.166606	0.001967
 822	4.1050e-01	8.2068	14.034448	0.000564	5.644331	0.956175	0.011289
 823	4.1100e-01	8.2190	14.058395	0.000239	2.394565	0.405650	0.004789
 824	4.1150e-01	8.2263	14.077210	0.000188	1.881444	0.318725	0.003763
 825	4.1200e-01	8.2358	14.133657	0.000564	5.644331	0.956175	0.011289
 826	4.1250e-01	8.2465	14.143492	0.000098	0.983482	0.166606	0.001967
 827	4.1300e-01	8.2550	14.193524	0.000500	5.002929	0.847519	0.010006
 828	4.1350e-01	8.2684	14.217471	0.000239	2.394565	0.405650	0.004789
 829	4.1400e-01	8.2767	14.261517	0.000440	4.404288	0.746107	0.008809
 830	4.1450e-01	8.2861	14.261517	0.000000	0.000000	0.000000	0.000000
 831	4.1500e-01	8.2983	14.300431	0.000389	3.891167	0.659182	0.007783
 832	4.1550e-01	8.3066	14.328654	0.000282	2.822165	0.478088	0.005645
 833	4.1600e-01	8.3179	14.360726	0.000321	3.207006	0.543282	0.006414
 834	4.1650e-01	8.3282	14.400067	0.000393	3.933927	0.666425	0.007868
 835	4.1700e-01	8.3359	14.417600	0.000175	1.753163	0.296994	0.003507
 836	4.1750e-01	8.3466	14.456086	0.000385	3.848407	0.651938	0.007697
 837	4.1800e-01	8.3575	14.492862	0.000368	3.677367	0.622963	0.007355
 838	4.1850e-01	8.3673	14.524934	0.000321	3.207006	0.543282	0.006414
 839	4.1900e-01	8.3777	14.560427	0.000355	3.549087	0.601232	0.007099
 840	4.1950e-01	8.3875	14.595064	0.000346	3.463567	0.586744	0.006928
 841	4.2000e-01	8.3972	14.624571	0.000295	2.950446	0.499819	0.005901
 842	4.2050e-01	8.4085	14.639110	0.000145	1.453843	0.246288	0.002908
 843	4.2100e-01	8.4174	14.669899	0.000308	3.078726	0.521550	0.006158
 844	4.2150e-01	8.4271	14.710951	0.000410	4.104968	0.695400	0.008210
 845	4.2200e-01	8.4338	14.706247	-0.000047	-0.470361	-0.079681	-0.000941
 846	4.2250e-01	8.4467	14.759700	0.000535	5.345010	0.905469	0.010691
 847	4.2300e-01	8.4570	14.788779	0.000291	2.907685	0.492575	0.005816
 848	4.2350e-01	8.4656	14.815291	0.000265	2.651125	0.449113	0.005303
 849	4.2400e-01	8.4778	14.856771	0.000415	4.147728	0.702644	0.008296
 850	4.2450e-01	8.4888	14.892264	0.000355	3.549087	0.601232	0.007099
 851	4.2500e-01	8.4973	14.909797	0.000175	1.753163	0.296994	0.003507
 852	4.2550e-01	8.5046	14.968381	0.000586	5.858131	0.992394	0.011717
 853	4.2600e-01	8.5187	14.979927	0.000115	1.154522	0.195581	0.002309
 854	4.2650e-01	8.5260	14.996605	0.000167	1.667643	0.282506	0.003335
 855	4.2700e-01	8.5358	15.043216	0.000466	4.660849	0.789569	0.009322
 856	4.2750e-01	8.5516	15.053906	0.000107	1.069002	0.181094	0.002138
 857	4.2800e-01	8.5571	15.095814	0.000419	4.190488	0.709888	0.008381
 858	4.2850e-01	8.5681	15.120188	0.000244	2.437325	0.412894	0.004875
 859	4.2900e-01	8.5776	15.153115	0.000329	3.292526	0.557769	0.006585
 860	4.2950e-01	8.5880	15.183477	0.000304	3.035966	0.514307	0.006072
 861	4.3000e-01	8.5968	15.216832	0.000334	3.335286	0.565013	0.006671
 862	4.3050e-01	8.6053	15.249331	0.000325	3.249766	0.550525	0.006500
 863	4.3100e-01	8.6182	15.272850	0.000235	2.351804	0.398406	0.004704
 864	4.3150e-01	8.6255	15.299791	0.000269	2.693885	0.456356	0.005388
 865	4.3200e-01	8.6374	15.327587	0.000278	2.779405	0.470844	0.005559
 866	4.3250e-01	8.6472	15.376763	0.000492	4.917409	0.833032	0.009835
 867	4.3300e-01	8.6591	15.409263	0.000325	3.249766	0.550525	0.006500
 868	4.3350e-01	8.6676	15.436631	0.000274	2.736645	0.463600	0.005474
 869	4.3400e-01	8.6768	15.458867	0.000222	2.223524	0.376675	0.004447
 870	4.3450e-01	8.6853	15.484097	0.000252	2.522845	0.427381	0.005046
 871	4.3500e-01	8.6957	15.531991	0.000479	4.789129	0.811300	0.009579
 872	4.3550e-01	8.7064	15.549524	0.000175	1.753163	0.296994	0.003507
 873	4.3600e-01	8.7170	15.590576	0.000410	4.104968	0.695400	0.008210
 874	4.3650e-01	8.7268	15.624786	0.000342	3.420806	0.579500	0.006842
 875	4.3700e-01	8.7372	15.641463	0.000167	1.667643	0.282506	0.003335
 876	4.3750e-01	8.7482	15.677384	0.000359	3.591847	0.608475	0.007184
 877	4.3800e-01	8.7610	15.699193	0.000218	2.180764	0.369431	0.004362
 878	4.3850e-01	8.7695	15.723995	0.000248	2.480085	0.420138	0.004960
 879	4.3900e-01	8.7784	15.767185	0.000432	4.318768	0.731619	0.008638
 880	4.3950e-01	8.7866	15.791132	0.000239	2.394565	0.405650	0.004789
 881	4.4000e-01	8.7994	15.821494	0.000304	3.035966	0.514307	0.006072
 882	4.4050e-01	8.8086	15.862973	0.000415	4.147728	0.702644	0.008296
 883	4.4100e-01	8.8174	15.886493	0.000235	2.351804	0.398406	0.004704
 884	4.4150e-01	8.8297	15.903598	0.000171	1.710403	0.289750	0.003421
 885	4.4200e-01	8.8367	15.939946	0.000363	3.634607	0.615719	0.007270
 886	4.4250e-01	8.8458	15.966459	0.000265	2.651125	0.449113	0.005303
 887	4.4300e-01	8.8583	15.998103	0.000316	3.164246	0.536038	0.006329
 888	4.4350e-01	8.8629	16.042148	0.000440	4.404288	0.746107	0.008809
 889	4.4400e-01	8.8757	16.058826	0.000167	1.667643	0.282506	0.003335
 890	4.4450e-01	8.8867	16.097312	0.000385	3.848407	0.651938	0.007697
 891	4.4500e-01	8.8971	16.137936	0.000406	4.062208	0.688157	0.008125
 892	4.4550e-01	8.9063	16.155469	0.000175	1.753163	0.296994	0.003507
 893	4.4600e-01	8.9163	16.196521	0.000410	4.104968	0.695400	0.008210
 894	4.4650e-01	8.9276	16.225172	0.000286	2.864925	0.485332	0.005730
 895	4.4700e-01	8.9355	16.255533	0.000304	3.035966	0.514307	0.006072
 896	4.4750e-01	8.9471	16.296585	0.000410	4.104968	0.695400	0.008210
 897	4.4800e-01	8.9581	16.288033	-0.000086	-0.855202	-0.144875	-0.001711
 898	4.4850e-01	8.9694	16.325664	0.000376	3.762887	0.637450	0.007526
 899	4.4900e-01	8.9777	16.366288	0.000406	4.062208	0.688157	0.008125
 900	4.4950e-01	8.9856	16.389808	0.000235	2.351804	0.398406	0.004704
 901	4.5000e-01	8.9986	16.458228	0.000684	6.841613	1.159001	0.013684
 902	4.5050e-01	9.0051	16.465925	0.000077	0.769681	0.130388	0.001539
 903	4.5100e-01	9.0143	16.489444	0.000235	2.351804	0.398406	0.004704
 904	4.5150e-01	9.0271	16.511681	0.000222	2.223524	0.376675	0.004447
 905	4.5200e-01	9.0393	16.566845	0.000552	5.516050	0.934444	0.011033
 906	4.5250e-01	9.0472	16.586515	0.000197	1.966964	0.333213	0.003934
 907	4.5300e-01	9.0570	16.607041	0.000205	2.052484	0.347700	0.004105
 908	4.5350e-01	9.0656	16.639969	0.000329	3.292526	0.557769	0.006585
 909	4.5400e-01	9.0753	16.696843	0.000569	5.687091	0.963419	0.011375
 910	4.5450e-01	9.0875	16.710099	0.000133	1.325563	0.224556	0.002651
 911	4.5500e-01	9.0979	16.727632	0.000175	1.753163	0.296994	0.003507
 912	4.5550e-01	9.1064	16.764407	0.000368	3.677367	0.622963	0.007355
 913	4.5600e-01	9.1156	16.784933	0.000205	2.052484	0.347700	0.004105
 914	4.5650e-01	9.1241	16.826413	0.000415	4.147728	0.702644	0.008296
 915	4.5700e-01	9.1364	16.846939	0.000205	2.052484	0.347700	0.004105
 916	4.5750e-01	9.1479	16.883715	0.000368	3.677367	0.622963	0.007355
 917	4.5800e-01	9.1559	16.918780	0.000351	3.506327	0.593988	0.007013
 918	4.5850e-01	9.1652	16.944010	0.000252	2.522845	0.427381	0.005046
 919	4.5900e-01	9.1782	16.952563	0.000086	0.855202	0.144875	0.001711
 920	4.5950e-01	9.1861	17.004305	0.000517	5.173970	0.876494	0.010349
 921	4.6000e-01	9.1980	17.035950	0.000316	3.164246	0.536038	0.006329
 922	4.6050e-01	9.2056	17.056048	0.000201	2.009724	0.340456	0.004020
 923	4.6100e-01	9.2175	17.091541	0.000355	3.549087	0.601232	0.007099
 924	4.6150e-01	9.2249	17.139435	0.000479	4.789129	0.811300	0.009579
 925	4.6200e-01	9.2371	17.143711	0.000043	0.427601	0.072438	0.000855
 926	4.6250e-01	9.2456	17.166803	0.000231	2.309044	0.391163	0.004618
 927	4.6300e-01	9.2549	17.212986	0.000462	4.618089	0.782325	0.009237
 928	4.6350e-01	9.2654	17.245914	0.000329	3.292526	0.557769	0.006585
 929	4.6400e-01	9.2780	17.283117	0.000372	3.720127	0.630207	0.007441
 930	4.6450e-01	9.2865	17.310057	0.000269	2.693885	0.456356	0.005388
 931	4.6500e-01	9.2950	17.341702	0.000316	3.164246	0.536038	0.006329
 932	4.6550e-01	9.3069	17.372491	0.000308	3.078726	0.521550	0.006158
 933	4.6600e-01	9.3170	17.405418	0.000329	3.292526	0.557769	0.006585
 934	4.6650e-01	9.3271	17.438773	0.000334	3.335286	0.565013	0.006671
 935	4.6700e-01	9.3396	17.459726	0.000210	2.095244	0.354944	0.004191
 936	4.6750e-01	9.3469	17.488805	0.000291	2.907685	0.492575	0.005816
 937	4.6800e-01	9.3567	17.520021	0.000312	3.121486	0.528794	0.006243
 938	4.6850e-01	9.3655	17.549955	0.000299	2.993206	0.507063	0.005987
 939	4.6900e-01	9.3787	17.586731	0.000368	3.677367	0.622963	0.007355
 940	4.6950e-01	9.3848	17.617948	0.000312	3.121486	0.528794	0.006243
 941	4.7000e-01	9.3982	17.642322	0.000244	2.437325	0.412894	0.004875
 942	4.7050e-01	9.4086	17.655579	0.000133	1.325563	0.224556	0.002651
 943	4.7100e-01	9.4165	17.708604	0.000530	5.302250	0.898225	0.010605
 944	4.7150e-01	9.4250	17.741104	0.000325	3.249766	0.550525	0.006500
 945	4.7200e-01	9.4360	17.763768	0.000227	2.266284	0.383919	0.004533
 946	4.7250e-01	9.4441	17.810379	0.000466	4.660849	0.789569	0.009322
 947	4.7300e-01	9.4545	17.824063	0.000137	1.368323	0.231800	0.002737
 948	4.7350e-01	9.4659	17.851859	0.000278	2.779405	0.470844	0.005559
 949	4.7400e-01	9.4745	17.882220	0.000304	3.035966	0.514307	0.006072
 950	4.7450e-01	9.4885	17.913009	0.000308	3.078726	0.521550	0.006158
 951	4.7500e-01	9.4946	17.919851	0.000068	0.684161	0.115900	0.001368
 952	4.7550e-01	9.5056	17.978863	0.000590	5.900891	0.999638	0.011802
 953	4.7600e-01	9.5203	18.011363	0.000325	3.249766	0.550525	0.006500
 954	4.7650e-01	9.5270	18.034027	0.000227	2.266284	0.383919	0.004533
 955	4.7700e-01	9.5367	18.063533	0.000295	2.950446	0.499819	0.005901
 956	4.7750e-01	9.5477	18.097743	0.000342	3.420806	0.579500	0.006842
 957	4.7800e-01	9.5544	18.134946	0.000372	3.720127	0.630207	0.007441
 958	4.7850e-01	9.5654	18.172150	0.000372	3.720127	0.630207	0.007441
 959	4.7900e-01	9.5755	18.183696	0.000115	1.154522	0.195581	0.002309
 960	4.7950e-01	9.5859	18.212774	0.000291	2.907685	0.492575	0.005816
 961	4.8000e-01	9.5959	18.243136	0.000304	3.035966	0.514307	0.006072
 962	4.8050e-01	9.6051	18.284615	0.000415	4.147728	0.702644	0.008296
 963	4.8100e-01	9.6179	18.305569	0.000210	2.095244	0.354944	0.004191
 964	4.8150e-01	9.6252	18.321391	0.000158	1.582123	0.268019	0.003164
 965	4.8200e-01	9.6362	18.378265	0.000569	5.687091	0.963419	0.011375
 966	4.8250e-01	9.6448	18.393660	0.000154	1.539363	0.260775	0.003079
 967	4.8300e-01	9.6552	18.413758	0.000201	2.009724	0.340456	0.004020
 968	4.8350e-01	9.6674	18.473626	0.000599	5.986411	1.014126	0.011974
 969	4.8400e-01	9.6765	18.501421	0.000278	2.779405	0.470844	0.005559
 970	4.8450e-01	9.6863	18.503132	0.000017	0.171040	0.028975	0.000342
 971	4.8500e-01	9.6942	18.557013	0.000539	5.387770	0.912713	0.010776
 972	4.8550e-01	9.7028	18.590795	0.000338	3.378046	0.572257	0.006756
 973	4.8600e-01	9.7186	18.607472	0.000167	1.667643	0.282506	0.003335
 974	4.8650e-01	9.7266	18.630992	0.000235	2.351804	0.398406	0.004704
 975	4.8700e-01	9.7377	18.677175	0.000462	4.618089	0.782325	0.009237
 976	4.8750e-01	9.7449	18.706681	0.000295	2.950446	0.499819	0.005901
 977	4.8800e-01	9.7540	18.734477	0.000278	2.779405	0.470844	0.005559
 978	4.8850e-01	9.7650	18.778522	0.000440	4.404288	0.746107	0.008809
 979	4.8900e-01	9.7748	18.809739	0.000312	3.121486	0.528794	0.006243
 980	4.8950e-01	9.7830	18.830693	0.000210	2.095244	0.354944	0.004191
 981	4.9000e-01	9.7931	18.869607	0.000389	3.891167	0.659182	0.007783
 982	4.9050e-01	9.8071	18.883718	0.000141	1.411083	0.239044	0.002822
 983	4.9100e-01	9.8145	18.927336	0.000436	4.361528	0.738863	0.008724
 984	4.9150e-01	9.8256	18.951283	0.000239	2.394565	0.405650	0.004789
 985	4.9200e-01	9.8340	18.971809	0.000205	2.052484	0.347700	0.004105
 986	4.9250e-01	9.8486	18.999177	0.000274	2.736645	0.463600	0.005474
 987	4.9300e-01	9.8547	19.045361	0.000462	4.618089	0.782325	0.009237
 988	4.9350e-01	9.8685	19.053913	0.000086	0.855202	0.144875	0.001711
 989	4.9400e-01	9.8749	19.091544	0.000376	3.762887	0.637450	0.007526
 990	4.9450e-01	9.8859	19.140293	0.000487	4.874649	0.825788	0.009750
 991	4.9500e-01	9.8981	19.164668	0.000244	2.437325	0.412894	0.004875
 992	4.9550e-01	9.9042	19.208714	0.000440	4.404288	0.746107	0.008809
 993	4.9600e-01	9.9194	19.242496	0.000338	3.378046	0.572257	0.006756
 994	4.9650e-01	9.9231	19.266443	0.000239	2.394565	0.405650	0.004789
 995	4.9700e-01	9.9329	19.294666	0.000282	2.822165	0.478088	0.005645
 996	4.9750e-01	9.9463	19.317758	0.000231	2.309044	0.391163	0.004618
 997	4.9800e-01	9.9542	19.348975	0.000312	3.121486	0.528794	0.006243
 998	4.9850e-01	9.9646	19.395158	0.000462	4.618089	0.782325	0.009237
 999	4.9900e-01	9.9759	19.401145	0.000060	0.598641	0.101413	0.001197
1000	4.9950e-01	9.9847	19.455026	0.000539	5.387770	0.912713	0.010776
1001	5.0000e-01	9.9963	19.477690	0.000227	2.266284	0.383919	0.004533
1002	5.0050e-01	9.9854	19.441769	0.000359	3.591847	0.608475	-0.007184
1003	5.0100e-01	9.9771	19.420816	0.000210	2.095244	0.354944	-0.004191
1004	5.0150e-01	9.9658	19.386606	0.000342	3.420806	0.579500	-0.006842
1005	5.0200e-01	9.9536	19.381474	0.000051	0.513121	0.086925	-0.001026
1006	5.0250e-01	9.9446	19.357527	0.000239	2.394565	0.405650	-0.004789
1007	5.0300e-01	9.9330	19.319468	0.000381	3.805647	0.644694	-0.007612
1008	5.0350e-01	9.9249	19.290390	0.000291	2.907685	0.492575	-0.005816
1009	5.0400e-01	9.9152	19.300225	-0.000098	-0.983482	-0.166606	0.001967
1010	5.0450e-01	9.9051	19.276706	0.000235	2.351804	0.398406	-0.004704
1011	5.0500e-01	9.8950	19.252759	0.000239	2.394565	0.405650	-0.004789
1012	5.0550e-01	9.8846	19.230095	0.000227	2.266284	0.383919	-0.004533
1013	5.0600e-01	9.8743	19.209141	0.000210	2.095244	0.354944	-0.004191
1014	5.0650e-01	9.8645	19.198451	0.000107	1.069002	0.181094	-0.002138
1015	5.0700e-01	9.8560	19.182628	0.000158	1.582123	0.268019	-0.003164
1016	5.0750e-01	9.8480	19.144997	0.000376	3.762887	0.637450	-0.007526
1017	5.0800e-01	9.8346	19.128748	0.000162	1.624883	0.275263	-0.003250
1018	5.0850e-01	9.8236	19.131313	-0.000026	-0.256560	-0.043463	0.000513
1019	5.0900e-01	9.8126	19.115491	0.000158	1.582123	0.268019	-0.003164
1020	5.0950e-01	9.8016	19.091544	0.000239	2.394565	0.405650	-0.004789
1021	5.1000e-01	9.7943	19.056907	0.000346	3.463567	0.586744	-0.006928
1022	5.1050e-01	9.7847	19.041512	0.000154	1.539363	0.260775	-0.003079
1023	5.1100e-01	9.7736	19.007302	0.000342	3.420806	0.579500	-0.006842
1024	5.1150e-01	9.7656	18.997039	0.000103	1.026242	0.173850	-0.002053
1025	5.1200e-01	9.7540	18.969671	0.000274	2.736645	0.463600	-0.005474
1026	5.1250e-01	9.7449	18.947862	0.000218	2.180764	0.369431	-0.004362
1027	5.1300e-01	9.7339	18.921349	0.000265	2.651125	0.449113	-0.005303
1028	5.1350e-01	9.7232	18.908948	0.000124	1.240042	0.210069	-0.002480
1029	5.1400e-01	9.7137	18.893554	0.000154	1.539363	0.260775	-0.003079
1030	5.1450e-01	9.7046	18.872172	0.000214	2.138004	0.362188	-0.004276
1031	5.1500e-01	9.6942	18.848225	0.000239	2.394565	0.405650	-0.004789
1032	5.1550e-01	9.6875	18.824706	0.000235	2.351804	0.398406	-0.004704
1033	5.1600e-01	9.6747	18.801614	0.000231	2.309044	0.391163	-0.004618
1034	5.1650e-01	9.6661	18.773391	0.000282	2.822165	0.478088	-0.005645
1035	5.1700e-01	9.6545	18.759707	0.000137	1.368323	0.231800	-0.002737
1036	5.1750e-01	9.6460	18.743885	0.000158	1.582123	0.268019	-0.003164
1037	5.1800e-01	9.6362	18.714806	0.000291	2.907685	0.492575	-0.005816
1038	5.1850e-01	9.6228	18.678886	0.000359	3.591847	0.608475	-0.007184
1039	5.1900e-01	9.6136	18.657505	0.000214	2.138004	0.362188	-0.004276
1040	5.1950e-01	9.6033	18.654084	0.000034	0.342081	0.057950	-0.000684
1041	5.2000e-01	9.5978	18.602769	0.000513	5.131210	0.869250	-0.010263
1042	5.2050e-01	9.5886	18.599348	0.000034	0.342081	0.057950	-0.000684
1043	5.2100e-01	9.5746	18.571552	0.000278	2.779405	0.470844	-0.005559
1044	5.2150e-01	9.5642	18.571552	-0.000000	-0.000000	-0.000000	0.000000
1045	5.2200e-01	9.5551	18.540763	0.000308	3.078726	0.521550	-0.006158
1046	5.2250e-01	9.5447	18.500994	0.000398	3.976688	0.673669	-0.007954
1047	5.2300e-01	9.5355	18.489020	0.000120	1.197282	0.202825	-0.002395
1048	5.2350e-01	9.5245	18.456521	0.000325	3.249766	0.550525	-0.006500
1049	5.2400e-01	9.5154	18.443264	0.000133	1.325563	0.224556	-0.002651
1050	5.2450e-01	9.5050	18.412903	0.000304	3.035966	0.514307	-0.006072
1051	5.2500e-01	9.4972	18.385535	0.000274	2.736645	0.463600	-0.005474
1052	5.2550e-01	9.4855	18.352180	0.000334	3.335286	0.565013	-0.006671
1053	5.2600e-01	9.4769	18.345338	0.000068	0.684161	0.115900	-0.001368
1054	5.2650e-01	9.4672	18.334220	0.000111	1.111762	0.188338	-0.002224
1055	5.2700e-01	9.4556	18.279484	0.000547	5.473290	0.927200	-0.010947
1056	5.2750e-01	9.4464	18.268366	0.000111	1.111762	0.188338	-0.002224
1057	5.2800e-01	9.4366	18.259385	0.000090	0.897962	0.152119	-0.001796
1058	5.2850e-01	9.4269	18.226886	0.000325	3.249766	0.550525	-0.006500
1059	5.2900e-01	9.4128	18.197380	0.000295	2.950446	0.499819	-0.005901
1060	5.2950e-01	9.4052	18.189255	0.000081	0.812442	0.137631	-0.001625
1061	5.3000e-01	9.3970	18.163170	0.000261	2.608365	0.441869	-0.005217
1062	5.3050e-01	9.3835	18.127249	0.000359	3.591847	0.608475	-0.007184
1063	5.3100e-01	9.3732	18.121262	0.000060	0.598641	0.101413	-0.001197
1064	5.3150e-01	9.3658	18.084487	0.000368	3.677367	0.622963	-0.007355
1065	5.3200e-01	9.3555	18.050277	0.000342	3.420806	0.579500	-0.006842
1066	5.3250e-01	9.3439	18.051987	-0.000017	-0.171040	-0.028975	0.000342
1067	5.3300e-01	9.3341	18.021626	0.000304	3.035966	0.514307	-0.006072
1068	5.3350e-01	9.3240	18.001100	0.000205	2.052484	0.347700	-0.004105
1069	5.3400e-01	9.3188	17.963469	0.000376	3.762887	0.637450	-0.007526
1070	5.3450e-01	9.3051	17.931397	0.000321	3.207006	0.543282	-0.006414
1071	5.3500e-01	9.2957	17.902746	0.000286	2.864925	0.485332	-0.005730
1072	5.3550e-01	9.2853	17.895049	0.000077	0.769681	0.130388	-0.001539
1073	5.3600e-01	9.2767	17.854424	0.000406	4.062208	0.688157	-0.008125
1074	5.3650e-01	9.2694	17.837747	0.000167	1.667643	0.282506	-0.003335
1075	5.3700e-01	9.2554	17.821925	0.000158	1.582123	0.268019	-0.003164
1076	5.3750e-01	9.2438	17.820642	0.000013	0.128280	0.021731	-0.000257
1077	5.3800e-01	9.2352	17.768899	0.000517	5.173970	0.876494	-0.010349
1078	5.3850e-01	9.2242	17.755215	0.000137	1.368323	0.231800	-0.002737
1079	5.3900e-01	9.2172	17.728702	0.000265	2.651125	0.449113	-0.005303
1080	5.3950e-01	9.2065	17.702190	0.000265	2.651125	0.449113	-0.005303
1081	5.4000e-01	9.1956	17.669690	0.000325	3.249766	0.550525	-0.006500
1082	5.4050e-01	9.1840	17.655579	0.000141	1.411083	0.239044	-0.002822
1083	5.4100e-01	9.1739	17.618375	0.000372	3.720127	0.630207	-0.007441
1084	5.4150e-01	9.1669	17.602981	0.000154	1.539363	0.260775	-0.003079
1085	5.4200e-01	9.1522	17.586731	0.000162	1.624883	0.275263	-0.003250
1086	5.4250e-01	9.1449	17.561929	0.000248	2.480085	0.420138	-0.004960
1087	5.4300e-01	9.1345	17.550810	0.000111	1.111762	0.188338	-0.002224
1088	5.4350e-01	9.1241	17.511041	0.000398	3.976688	0.673669	-0.007954
1089	5.4400e-01	9.1165	17.466141	0.000449	4.489808	0.760594	-0.008980
1090	5.4450e-01	9.1071	17.451601	0.000145	1.453843	0.246288	-0.002908
1091	5.4500e-01	9.0955	17.429792	0.000218	2.180764	0.369431	-0.004362
1092	5.4550e-01	9.0869	17.391734	0.000381	3.805647	0.644694	-0.007612
1093	5.4600e-01	9.0759	17.377622	0.000141	1.411083	0.239044	-0.002822
1094	5.4650e-01	9.0649	17.363083	0.000145	1.453843	0.246288	-0.002908
1095	5.4700e-01	9.0564	17.322458	0.000406	4.062208	0.688157	-0.008125
1096	5.4750e-01	9.0454	17.303643	0.000188	1.881444	0.318725	-0.003763
1097	5.4800e-01	9.0358	17.283545	0.000201	2.009724	0.340456	-0.004020
1098	5.4850e-01	9.0247	17.257459	0.000261	2.608365	0.441869	-0.005217
1099	5.4900e-01	9.0143	17.223677	0.000338	3.378046	0.572257	-0.006756
1100	5.4950e-01	9.0063	17.192888	0.000308	3.078726	0.521550	-0.006158
1101	5.5000e-01	8.9955	17.195881	-0.000030	-0.299321	-0.050706	0.000599
1102	5.5050e-01	8.9856	17.157823	0.000381	3.805647	0.644694	-0.007612
1103	5.5100e-01	8.9752	17.122757	0.000351	3.506327	0.593988	-0.007013
1104	5.5150e-01	8.9658	17.097955	0.000248	2.480085	0.420138	-0.004960
1105	5.5200e-01	8.9557	17.065028	0.000329	3.292526	0.557769	-0.006585
1106	5.5250e-01	8.9465	17.053055	0.000120	1.197282	0.202825	-0.002395
1107	5.5300e-01	8.9334	17.014568	0.000385	3.848407	0.651938	-0.007697
1108	5.5350e-01	8.9233	17.013285	0.000013	0.128280	0.021731	-0.000257
1109	5.5400e-01	8.9185	16.981213	0.000321	3.207006	0.543282	-0.006414
1110	5.5450e-01	8.9063	16.949142	0.000321	3.207006	0.543282	-0.006414
1111	5.5500e-01	8.8995	16.920491	0.000286	2.864925	0.485332	-0.005730
1112	5.5550e-01	8.8849	16.918353	0.000021	0.213800	0.036219	-0.000428
1113	5.5600e-01	8.8757	16.882004	0.000363	3.634607	0.615719	-0.007270
1114	5.5650e-01	8.8660	16.837531	0.000445	4.447048	0.753350	-0.008895
1115	5.5700e-01	8.8525	16.817433	0.000201	2.009724	0.340456	-0.004020
1116	5.5750e-01	8.8452	16.787499	0.000299	2.993206	0.507063	-0.005987
1117	5.5800e-01	8.8319	16.768256	0.000192	1.924204	0.325969	-0.003849
1118	5.5850e-01	8.8245	16.738322	0.000299	2.993206	0.507063	-0.005987
1119	5.5900e-01	8.8156	16.721645	0.000167	1.667643	0.282506	-0.003335
1120	5.5950e-01	8.8068	16.692566	0.000291	2.907685	0.492575	-0.005816
1121	5.6000e-01	8.7970	16.678455	0.000141	1.411083	0.239044	-0.002822
1122	5.6050e-01	8.7848	16.631844	0.000466	4.660849	0.789569	-0.009322
1123	5.6100e-01	8.7750	16.622008	0.000098	0.983482	0.166606	-0.001967
1124	5.6150e-01	8.7671	16.610462	0.000115	1.154522	0.195581	-0.002309
1125	5.6200e-01	8.7573	16.542470	0.000680	6.798853	1.151757	-0.013598
1126	5.6250e-01	8.7463	16.544180	-0.000017	-0.171040	-0.028975	0.000342
1127	5.6300e-01	8.7360	16.498852	0.000453	4.532569	0.767838	-0.009066
1128	5.6350e-01	8.7244	16.497142	0.000017	0.171040	0.028975	-0.000342
1129	5.6400e-01	8.7170	16.462504	0.000346	3.463567	0.586744	-0.006928
1130	5.6450e-01	8.7042	16.431715	0.000308	3.078726	0.521550	-0.006158
1131	5.6500e-01	8.6945	16.406913	0.000248	2.480085	0.420138	-0.004960
1132	5.6550e-01	8.6871	16.377407	0.000295	2.950446	0.499819	-0.005901
1133	5.6600e-01	8.6768	16.357308	0.000201	2.009724	0.340456	-0.004020
1134	5.6650e-01	8.6633	16.343624	0.000137	1.368323	0.231800	-0.002737
1135	5.6700e-01	8.6542	16.317967	0.000257	2.565605	0.434625	-0.005132
1136	5.6750e-01	8.6462	16.252112	0.000659	6.585052	1.115538	-0.013171
1137	5.6800e-01	8.6362	16.256816	-0.000047	-0.470361	-0.079681	0.000941
1138	5.6850e-01	8.6261	16.241849	0.000150	1.496603	0.253531	-0.002993
1139	5.6900e-01	8.6169	16.198232	0.000436	4.361528	0.738863	-0.008724
1140	5.6950e-01	8.6060	16.165732	0.000325	3.249766	0.550525	-0.006500
1141	5.7000e-01	8.5962	16.142213	0.000235	2.351804	0.398406	-0.004704
1142	5.7050e-01	8.5864	16.128529	0.000137	1.368323	0.231800	-0.002737
1143	5.7100e-01	8.5767	16.096884	0.000316	3.164246	0.536038	-0.006329
1144	5.7150e-01	8.5675	16.053694	0.000432	4.318768	0.731619	-0.008638
1145	5.7200e-01	8.5571	16.042148	0.000115	1.154522	0.195581	-0.002309
1146	5.7250e-01	8.5474	16.028037	0.000141	1.411083	0.239044	-0.002822
1147	5.7300e-01	8.5364	16.004090	0.000239	2.394565	0.405650	-0.004789
1148	5.7350e-01	8.5254	15.955340	0.000487	4.874649	0.825788	-0.009750
1149	5.7400e-01	8.5187	15.925834	0.000295	2.950446	0.499819	-0.005901
1150	5.7450e-01	8.5052	15.912150	0.000137	1.368323	0.231800	-0.002737
1151	5.7500e-01	8.4961	15.888203	0.000239	2.394565	0.405650	-0.004789
1152	5.7550e-01	8.4836	15.860408	0.000278	2.779405	0.470844	-0.005559
1153	5.7600e-01	8.4747	15.830901	0.000295	2.950446	0.499819	-0.005901
1154	5.7650e-01	8.4662	15.811231	0.000197	1.966964	0.333213	-0.003934
1155	5.7700e-01	8.4525	15.788994	0.000222	2.223524	0.376675	-0.004447
1156	5.7750e-01	8.4454	15.764192	0.000248	2.480085	0.420138	-0.004960
1157	5.7800e-01	8.4363	15.723140	0.000410	4.104968	0.695400	-0.008210
1158	5.7850e-01	8.4248	15.709456	0.000137	1.368323	0.231800	-0.002737
1159	5.7900e-01	8.4174	15.667121	0.000423	4.233248	0.717132	-0.008467
1160	5.7950e-01	8.4070	15.640181	0.000269	2.693885	0.456356	-0.005388
1161	5.8000e-01	8.3954	15.610247	0.000299	2.993206	0.507063	-0.005987
1162	5.8050e-01	8.3850	15.573899	0.000363	3.634607	0.615719	-0.007270
1163	5.8100e-01	8.3780	15.556794	0.000171	1.710403	0.289750	-0.003421
1164	5.8150e-01	8.3667	15.534130	0.000227	2.266284	0.383919	-0.004533
1165	5.8200e-01	8.3575	15.509755	0.000244	2.437325	0.412894	-0.004875
1166	5.8250e-01	8.3466	15.476400	0.000334	3.335286	0.565013	-0.006671
1167	5.8300e-01	8.3362	15.461006	0.000154	1.539363	0.260775	-0.003079
1168	5.8350e-01	8.3264	15.417815	0.000432	4.318768	0.731619	-0.008638
1169	5.8400e-01	8.3167	15.401566	0.000162	1.624883	0.275263	-0.003250
1170	5.8450e-01	8.3060	15.355382	0.000462	4.618089	0.782325	-0.009237
1171	5.8500e-01	8.2947	15.342553	0.000128	1.282802	0.217313	-0.002566
1172	5.8550e-01	8.2861	15.322883	0.000197	1.966964	0.333213	-0.003934
1173	5.8600e-01	8.2759	15.298508	0.000244	2.437325	0.412894	-0.004875
1174	5.8650e-01	8.2654	15.271568	0.000269	2.693885	0.456356	-0.005388
1175	5.8700e-01	8.2568	15.245055	0.000265	2.651125	0.449113	-0.005303
1176	5.8750e-01	8.2428	15.200582	0.000445	4.447048	0.753350	-0.008895
1177	5.8800e-01	8.2397	15.182194	0.000184	1.838683	0.311481	-0.003678
1178	5.8850e-01	8.2251	15.150550	0.000316	3.164246	0.536038	-0.006329
1179	5.8900e-01	8.2162	15.118478	0.000321	3.207006	0.543282	-0.006414
1180	5.8950e-01	8.2025	15.098379	0.000201	2.009724	0.340456	-0.004020
1181	5.9000e-01	8.1949	15.082557	0.000158	1.582123	0.268019	-0.003164
1182	5.9050e-01	8.1836	15.041933	0.000406	4.062208	0.688157	-0.008125
1183	5.9100e-01	8.1726	15.042788	-0.000009	-0.085520	-0.014488	0.000171
1184	5.9150e-01	8.1653	14.997887	0.000449	4.489808	0.760594	-0.008980
1185	5.9200e-01	8.1549	14.961967	0.000359	3.591847	0.608475	-0.007184
1186	5.9250e-01	8.1464	14.932033	0.000299	2.993206	0.507063	-0.005987
1187	5.9300e-01	8.1360	14.914928	0.000171	1.710403	0.289750	-0.003421
1188	5.9350e-01	8.1262	14.867889	0.000470	4.703609	0.796813	-0.009408
1189	5.9400e-01	8.1134	14.857199	0.000107	1.069002	0.181094	-0.002138
1190	5.9450e-01	8.1055	14.825554	0.000316	3.164246	0.536038	-0.006329
1191	5.9500e-01	8.0933	14.769963	0.000556	5.558810	0.941688	-0.011118
1192	5.9550e-01	8.0853	14.776805	-0.000068	-0.684161	-0.115900	0.001368
1193	5.9600e-01	8.0762	14.736181	0.000406	4.062208	0.688157	-0.008125
1194	5.9650e-01	8.0676	14.710096	0.000261	2.608365	0.441869	-0.005217
1195	5.9700e-01	8.0554	14.682728	0.000274	2.736645	0.463600	-0.005474
1196	5.9750e-01	8.0444	14.667761	0.000150	1.496603	0.253531	-0.002993
1197	5.9800e-01	8.0353	14.645097	0.000227	2.266284	0.383919	-0.004533
1198	5.9850e-01	8.0255	14.624571	0.000205	2.052484	0.347700	-0.004105
1199	5.9900e-01	8.0133	14.577104	0.000475	4.746369	0.804057	-0.009493
1200	5.9950e-01	8.0057	14.571117	0.000060	0.598641	0.101413	-0.001197
1201	6.0000e-01	7.9962	14.512105	0.000590	5.900891	0.999638	-0.011802
1202	6.0050e-01	7.9858	14.497993	0.000141	1.411083	0.239044	-0.002822
1203	6.0100e-01	7.9762	14.461645	0.000363	3.634607	0.615719	-0.007270
1204	6.0150e-01	7.9645	14.437698	0.000239	2.394565	0.405650	-0.004789
1205	6.0200e-01	7.9541	14.421021	0.000167	1.667643	0.282506	-0.003335
1206	6.0250e-01	7.9437	14.375265	0.000458	4.575329	0.775082	-0.009151
1207	6.0300e-01	7.9346	14.350463	0.000248	2.480085	0.420138	-0.004960
1208	6.0350e-01	7.9257	14.318819	0.000316	3.164246	0.536038	-0.006329
1209	6.0400e-01	7.9144	14.305562	0.000133	1.325563	0.224556	-0.002651
1210	6.0450e-01	7.9065	14.285036	0.000205	2.052484	0.347700	-0.004105
1211	6.0500e-01	7.8943	14.237142	0.000479	4.789129	0.811300	-0.009579
1212	6.0550e-01	7.8876	14.208064	0.000291	2.907685	0.492575	-0.005816
1213	6.0600e-01	7.8760	14.173854	0.000342	3.420806	0.579500	-0.006842
1214	6.0650e-01	7.8656	14.153328	0.000205	2.052484	0.347700	-0.004105
1215	6.0700e-01	7.8540	14.128098	0.000252	2.522845	0.427381	-0.005046
1216	6.0750e-01	7.8455	14.100302	0.000278	2.779405	0.470844	-0.005559
1217	6.0800e-01	7.8357	14.098164	0.000021	0.213800	0.036219	-0.000428
1218	6.0850e-01	7.8259	14.067802	0.000304	3.035966	0.514307	-0.006072
1219	6.0900e-01	7.8122	14.040862	0.000269	2.693885	0.456356	-0.005388
1220	6.0950e-01	7.8040	13.984416	0.000564	5.644331	0.956175	-0.011289
1221	6.1000e-01	7.7969	13.961324	0.000231	2.309044	0.391163	-0.004618
1222	6.1050e-01	7.7847	13.941653	0.000197	1.966964	0.333213	-0.003934
1223	6.1100e-01	7.7768	13.904450	0.000372	3.720127	0.630207	-0.007441
1224	6.1150e-01	7.7655	13.898890	0.000056	0.555881	0.094169	-0.001112
1225	6.1200e-01	7.7554	13.855273	0.000436	4.361528	0.738863	-0.008724
1226	6.1250e-01	7.7472	13.823628	0.000316	3.164246	0.536038	-0.006329
1227	6.1300e-01	7.7350	13.797971	0.000257	2.565605	0.434625	-0.005132
1228	6.1350e-01	7.7255	13.764189	0.000338	3.378046	0.572257	-0.006756
1229	6.1400e-01	7.7167	13.747511	0.000167	1.667643	0.282506	-0.003335
1230	6.1450e-01	7.7063	13.710308	0.000372	3.720127	0.630207	-0.007441
1231	6.1500e-01	7.6971	13.693630	0.000167	1.667643	0.282506	-0.003335
1232	6.1550e-01	7.6855	13.654716	0.000389	3.891167	0.659182	-0.007783
1233	6.1600e-01	7.6782	13.607678	0.000470	4.703609	0.796813	-0.009408
1234	6.1650e-01	7.6648	13.593138	0.000145	1.453843	0.246288	-0.002908
1235	6.1700e-01	7.6556	13.575606	0.000175	1.753163	0.296994	-0.003507
1236	6.1750e-01	7.6483	13.543962	0.000316	3.164246	0.536038	-0.006329
1237	6.1800e-01	7.6367	13.508041	0.000359	3.591847	0.608475	-0.007184
1238	6.1850e-01	7.6271	13.480673	0.000274	2.736645	0.463600	-0.005474
1239	6.1900e-01	7.6160	13.472548	0.000081	0.812442	0.137631	-0.001625
1240	6.1950e-01	7.6093	13.428930	0.000436	4.361528	0.738863	-0.008724
1241	6.2000e-01	7.5989	13.404556	0.000244	2.437325	0.412894	-0.004875
1242	6.2050e-01	7.5848	13.360510	0.000440	4.404288	0.746107	-0.008809
1243	6.2100e-01	7.5757	13.334425	0.000261	2.608365	0.441869	-0.005217
1244	6.2150e-01	7.5659	13.324590	0.000098	0.983482	0.166606	-0.001967
1245	6.2200e-01	7.5555	13.284393	0.000402	4.019448	0.680913	-0.008039
1246	6.2250e-01	7.5458	13.255314	0.000291	2.907685	0.492575	-0.005816
1247	6.2300e-01	7.5372	13.227091	0.000282	2.822165	0.478088	-0.005645
1248	6.2350e-01	7.5299	13.191171	0.000359	3.591847	0.608475	-0.007184
1249	6.2400e-01	7.5153	13.186039	0.000051	0.513121	0.086925	-0.001026
1250	6.2450e-01	7.5067	13.146270	0.000398	3.976688	0.673669	-0.007954
1251	6.2500e-01	7.4921	13.127882	0.000184	1.838683	0.311481	-0.003678
1252	6.2550e-01	7.4872	13.094100	0.000338	3.378046	0.572257	-0.006756
1253	6.2600e-01	7.4768	13.057752	0.000363	3.634607	0.615719	-0.007270
1254	6.2650e-01	7.4640	13.039364	0.000184	1.838683	0.311481	-0.003678
1255	6.2700e-01	7.4573	12.987621	0.000517	5.173970	0.876494	-0.010349
1256	6.2750e-01	7.4493	12.977786	0.000098	0.983482	0.166606	-0.001967
1257	6.2800e-01	7.4374	12.932885	0.000449	4.489808	0.760594	-0.008980
1258	6.2850e-01	7.4261	12.894826	0.000381	3.805647	0.644694	-0.007612
1259	6.2900e-01	7.4152	12.876438	0.000184	1.838683	0.311481	-0.003678
1260	6.2950e-01	7.4063	12.857195	0.000192	1.924204	0.325969	-0.003849
1261	6.3000e-01	7.3975	12.807591	0.000496	4.960169	0.840275	-0.009921
1262	6.3050e-01	7.3846	12.778512	0.000291	2.907685	0.492575	-0.005816
1263	6.3100e-01	7.3761	12.766539	0.000120	1.197282	0.202825	-0.002395
1264	6.3150e-01	7.3651	12.734894	0.000316	3.164246	0.536038	-0.006329
1265	6.3200e-01	7.3549	12.695125	0.000398	3.976688	0.673669	-0.007954
1266	6.3250e-01	7.3462	12.656639	0.000385	3.848407	0.651938	-0.007697
1267	6.3300e-01	7.3378	12.639534	0.000171	1.710403	0.289750	-0.003421
1268	6.3350e-01	7.3254	12.601903	0.000376	3.762887	0.637450	-0.007526
1269	6.3400e-01	7.3154	12.580094	0.000218	2.180764	0.369431	-0.004362
1270	6.3450e-01	7.3059	12.571114	0.000090	0.897962	0.152119	-0.001796
1271	6.3500e-01	7.2992	12.532200	0.000389	3.891167	0.659182	-0.007783
1272	6.3550e-01	7.2864	12.497562	0.000346	3.463567	0.586744	-0.006928
1273	6.3600e-01	7.2766	12.458649	0.000389	3.891167	0.659182	-0.007783
1274	6.3650e-01	7.2662	12.426149	0.000325	3.249766	0.550525	-0.006500
1275	6.3700e-01	7.2543	12.421445	0.000047	0.470361	0.079681	-0.000941
1276	6.3750e-01	7.2437	12.376972	0.000445	4.447048	0.753350	-0.008895
1277	6.3800e-01	7.2375	12.362861	0.000141	1.411083	0.239044	-0.002822
1278	6.3850e-01	7.2272	12.314966	0.000479	4.789129	0.811300	-0.009579
1279	6.3900e-01	7.2156	12.279901	0.000351	3.506327	0.593988	-0.007013
1280	6.3950e-01	7.2023	12.248257	0.000316	3.164246	0.536038	-0.006329
1281	6.4000e-01	7.1960	12.219178	0.000291	2.907685	0.492575	-0.005816
1282	6.4050e-01	7.1866	12.194804	0.000244	2.437325	0.412894	-0.004875
1283	6.4100e-01	7.1771	12.180692	0.000141	1.411083	0.239044	-0.002822
1284	6.4150e-01	7.1658	12.125101	0.000556	5.558810	0.941688	-0.011118
1285	6.4200e-01	7.1536	12.109279	0.000158	1.582123	0.268019	-0.003164
1286	6.4250e-01	7.1454	12.082766	0.000265	2.651125	0.449113	-0.005303
1287	6.4300e-01	7.1381	12.051122	0.000316	3.164246	0.536038	-0.006329
1288	6.4350e-01	7.1246	12.020760	0.000304	3.035966	0.514307	-0.006072
1289	6.4400e-01	7.1167	12.010925	0.000098	0.983482	0.166606	-0.001967
1290	6.4450e-01	7.1109	11.964314	0.000466	4.660849	0.789569	-0.009322
1291	6.4500e-01	7.0959	11.938229	0.000261	2.608365	0.441869	-0.005217
1292	6.4550e-01	7.0837	11.927110	0.000111	1.111762	0.188338	-0.002224
1293	6.4600e-01	7.0740	11.872802	0.000543	5.430530	0.919957	-0.010862
1294	6.4650e-01	7.0670	11.847572	0.000252	2.522845	0.427381	-0.005046
1295	6.4700e-01	7.0544	11.824480	0.000231	2.309044	0.391163	-0.004618
1296	6.4750e-01	7.0468	11.794547	0.000299	2.993206	0.507063	-0.005987
1297	6.4800e-01	7.0386	11.762902	0.000316	3.164246	0.536038	-0.006329
1298	6.4850e-01	7.0241	11.718429	0.000445	4.447048	0.753350	-0.008895
1299	6.4900e-01	7.0148	11.687640	0.000308	3.078726	0.521550	-0.006158
1300	6.4950e-01	7.0047	11.672246	0.000154	1.539363	0.260775	-0.003079
1301	6.5000e-01	6.9952	11.633759	0.000385	3.848407	0.651938	-0.007697
1302	6.5050e-01	6.9891	11.608102	0.000257	2.565605	0.434625	-0.005132
1303	6.5100e-01	6.9751	11.571754	0.000363	3.634607	0.615719	-0.007270
1304	6.5150e-01	6.9635	11.548662	0.000231	2.309044	0.391163	-0.004618
1305	6.5200e-01	6.9556	11.525143	0.000235	2.351804	0.398406	-0.004704
1306	6.5250e-01	6.9415	11.503334	0.000218	2.180764	0.369431	-0.004362
1307	6.5300e-01	6.9348	11.467841	0.000355	3.549087	0.601232	-0.007099
1308	6.5350e-01	6.9257	11.438762	0.000291	2.907685	0.492575	-0.005816
1309	6.5400e-01	6.9165	11.409684	0.000291	2.907685	0.492575	-0.005816
1310	6.5450e-01	6.9080	11.368632	0.000410	4.104968	0.695400	-0.008210
1311	6.5500e-01	6.8958	11.348533	0.000201	2.009724	0.340456	-0.004020
1312	6.5550e-01	6.8857	11.300212	0.000483	4.831889	0.818544	-0.009664
1313	6.5600e-01	6.8781	11.301922	-0.000017	-0.171040	-0.028975	0.000342
1314	6.5650e-01	6.8652	11.246331	0.000556	5.558810	0.941688	-0.011118
1315	6.5700e-01	6.8579	11.221101	0.000252	2.522845	0.427381	-0.005046
1316	6.5750e-01	6.8469	11.195444	0.000257	2.565605	0.434625	-0.005132
1317	6.5800e-01	6.8359	11.157812	0.000376	3.762887	0.637450	-0.007526
1318	6.5850e-01	6.8262	11.122747	0.000351	3.506327	0.593988	-0.007013
1319	6.5900e-01	6.8176	11.107353	0.000154	1.539363	0.260775	-0.003079
1320	6.5950e-01	6.8060	11.053044	0.000543	5.430530	0.919957	-0.010862
1321	6.6000e-01	6.7947	11.042354	0.000107	1.069002	0.181094	-0.002138
1322	6.6050e-01	6.7834	10.986335	0.000560	5.601571	0.948932	-0.011204
1323	6.6100e-01	6.7780	10.964526	0.000218	2.180764	0.369431	-0.004362
1324	6.6150e-01	6.7645	10.918342	0.000462	4.618089	0.782325	-0.009237
1325	6.6200e-01	6.7548	10.907224	0.000111	1.111762	0.188338	-0.002224
1326	6.6250e-01	6.7468	10.881567	0.000257	2.565605	0.434625	-0.005132
1327	6.6300e-01	6.7371	10.855481	0.000261	2.608365	0.441869	-0.005217
1328	6.6350e-01	6.7267	10.829396	0.000261	2.608365	0.441869	-0.005217
1329	6.6400e-01	6.7151	10.784068	0.000453	4.532569	0.767838	-0.009066
1330	6.6450e-01	6.7062	10.757983	0.000261	2.608365	0.441869	-0.005217
1331	6.6500e-01	6.6959	10.710944	0.000470	4.703609	0.796813	-0.009408
1332	6.6550e-01	6.6846	10.698971	0.000120	1.197282	0.202825	-0.002395
1333	6.6600e-01	6.6788	10.663050	0.000359	3.591847	0.608475	-0.007184
1334	6.6650e-01	6.6638	10.638675	0.000244	2.437325	0.412894	-0.004875
1335	6.6700e-01	6.6553	10.610880	0.000278	2.779405	0.470844	-0.005559
1336	6.6750e-01	6.6479	10.562130	0.000487	4.874649	0.825788	-0.009750
1337	6.6800e-01	6.6360	10.543743	0.000184	1.838683	0.311481	-0.003678
1338	6.6850e-01	6.6260	10.521506	0.000222	2.223524	0.376675	-0.004447
1339	6.6900e-01	6.6156	10.485158	0.000363	3.634607	0.615719	-0.007270
1340	6.6950e-01	6.6071	10.440685	0.000445	4.447048	0.753350	-0.008895
1341	6.7000e-01	6.5973	10.412889	0.000278	2.779405	0.470844	-0.005559
1342	6.7050e-01	6.5854	10.387232	0.000257	2.565605	0.434625	-0.005132
1343	6.7100e-01	6.5756	10.363285	0.000239	2.394565	0.405650	-0.004789
1344	6.7150e-01	6.5662	10.325226	0.000381	3.805647	0.644694	-0.007612
1345	6.7200e-01	6.5540	10.325226	-0.000000	-0.000000	-0.000000	0.000000
1346	6.7250e-01	6.5454	10.258517	0.000667	6.670573	1.130026	-0.013342
1347	6.7300e-01	6.5358	10.232004	0.000265	2.651125	0.449113	-0.005303
1348	6.7350e-01	6.5259	10.185393	0.000466	4.660849	0.789569	-0.009322
1349	6.7400e-01	6.5161	10.155031	0.000304	3.035966	0.514307	-0.006072
1350	6.7450e-01	6.5027	10.121676	0.000334	3.335286	0.565013	-0.006671
1351	6.7500e-01	6.4932	10.110986	0.000107	1.069002	0.181094	-0.002138
1352	6.7550e-01	6.4856	10.072927	0.000381	3.805647	0.644694	-0.007612
1353	6.7600e-01	6.4752	10.060526	0.000124	1.240042	0.210069	-0.002480
1354	6.7650e-01	6.4630	10.008356	0.000522	5.216730	0.883738	-0.010434
1355	6.7700e-01	6.4587	9.988685	0.000197	1.966964	0.333213	-0.003934
1356	6.7750e-01	6.4450	9.952764	0.000359	3.591847	0.608475	-0.007184
1357	6.7800e-01	6.4359	9.938225	0.000145	1.453843	0.246288	-0.002908
1358	6.7850e-01	6.4249	9.882634	0.000556	5.558810	0.941688	-0.011118
1359	6.7900e-01	6.4185	9.860397	0.000222	2.223524	0.376675	-0.004447
1360	6.7950e-01	6.4059	9.835168	0.000252	2.522845	0.427381	-0.005046
1361	6.8000e-01	6.3940	9.801813	0.000334	3.335286	0.565013	-0.006671
1362	6.8050e-01	6.3861	9.754774	0.000470	4.703609	0.796813	-0.009408
1363	6.8100e-01	6.3751	9.747932	0.000068	0.684161	0.115900	-0.001368
1364	6.8150e-01	6.3654	9.708163	0.000398	3.976688	0.673669	-0.007954
1365	6.8200e-01	6.3550	9.673098	0.000351	3.506327	0.593988	-0.007013
1366	6.8250e-01	6.3489	9.643164	0.000299	2.993206	0.507063	-0.005987
1367	6.8300e-01	6.3367	9.608098	0.000351	3.506327	0.593988	-0.007013
1368	6.8350e-01	6.3239	9.584579	0.000235	2.351804	0.398406	-0.004704
1369	6.8400e-01	6.3171	9.512310	0.000723	7.226454	1.224194	-0.014454
1370	6.8450e-01	6.3007	9.509745	0.000026	0.256560	0.043463	-0.000513
1371	6.8500e-01	6.2952	9.483232	0.000265	2.651125	0.449113	-0.005303
1372	6.8550e-01	6.2860	9.443890	0.000393	3.933927	0.666425	-0.007868
1373	6.8600e-01	6.2750	9.413101	0.000308	3.078726	0.521550	-0.006158
1374	6.8650e-01	6.2659	9.368628	0.000445	4.447048	0.753350	-0.008895
1375	6.8700e-01	6.2561	9.368201	0.000004	0.042760	0.007244	-0.000086
1376	6.8750e-01	6.2460	9.308333	0.000599	5.986411	1.014126	-0.011974
1377	6.8800e-01	6.2354	9.277117	0.000312	3.121486	0.528794	-0.006243
1378	6.8850e-01	6.2259	9.269847	0.000073	0.726921	0.123144	-0.001454
1379	6.8900e-01	6.2183	9.205703	0.000641	6.414012	1.086563	-0.012829
1380	6.8950e-01	6.2070	9.188170	0.000175	1.753163	0.296994	-0.003507
1381	6.9000e-01	6.1951	9.178763	0.000094	0.940722	0.159363	-0.001882
1382	6.9050e-01	6.1841	9.132579	0.000462	4.618089	0.782325	-0.009237
1383	6.9100e-01	6.1737	9.097942	0.000346	3.463567	0.586744	-0.006928
1384	6.9150e-01	6.1646	9.058600	0.000393	3.933927	0.666425	-0.007868
1385	6.9200e-01	6.1554	9.039357	0.000192	1.924204	0.325969	-0.003849
1386	6.9250e-01	6.1469	9.004719	0.000346	3.463567	0.586744	-0.006928
1387	6.9300e-01	6.1356	8.968799	0.000359	3.591847	0.608475	-0.007184
1388	6.9350e-01	6.1237	8.923470	0.000453	4.532569	0.767838	-0.009066
1389	6.9400e-01	6.1157	8.895247	0.000282	2.822165	0.478088	-0.005645
1390	6.9450e-01	6.1029	8.880708	0.000145	1.453843	0.246288	-0.002908
1391	6.9500e-01	6.0950	8.848636	0.000321	3.207006	0.543282	-0.006414
1392	6.9550e-01	6.0872	8.815281	0.000334	3.335286	0.565013	-0.006671
1393	6.9600e-01	6.0776	8.780216	0.000351	3.506327	0.593988	-0.007013
1394	6.9650e-01	6.0657	8.719066	0.000611	6.114692	1.035857	-0.012230
1395	6.9700e-01	6.0559	8.725480	-0.000064	-0.641401	-0.108656	0.001283
1396	6.9750e-01	6.0464	8.681007	0.000445	4.447048	0.753350	-0.008895
1397	6.9800e-01	6.0358	8.634396	0.000466	4.660849	0.789569	-0.009322
1398	6.9850e-01	6.0254	8.618146	0.000162	1.624883	0.275263	-0.003250
1399	6.9900e-01	6.0162	8.577094	0.000410	4.104968	0.695400	-0.008210
1400	6.9950e-01	6.0063	8.557851	0.000192	1.924204	0.325969	-0.003849
1401	7.0000e-01	5.9982	8.508246	0.000496	4.960169	0.840275	-0.009921
1402	7.0050e-01	5.9869	8.490286	0.000180	1.795923	0.304238	-0.003592
1403	7.0100e-01	5.9741	8.459925	0.000304	3.035966	0.514307	-0.006072
1404	7.0150e-01	5.9674	8.410320	0.000496	4.960169	0.840275	-0.009921
1405	7.0200e-01	5.9573	8.389366	0.000210	2.095244	0.354944	-0.004191
1406	7.0250e-01	5.9454	8.340617	0.000487	4.874649	0.825788	-0.009750
1407	7.0300e-01	5.9360	8.320519	0.000201	2.009724	0.340456	-0.004020
1408	7.0350e-01	5.9238	8.267493	0.000530	5.302250	0.898225	-0.010605
1409	7.0400e-01	5.9155	8.244829	0.000227	2.266284	0.383919	-0.004533
1410	7.0450e-01	5.9082	8.224303	0.000205	2.052484	0.347700	-0.004105
1411	7.0500e-01	5.8955	8.186244	0.000381	3.805647	0.644694	-0.007612
1412	7.0550e-01	5.8887	8.158876	0.000274	2.736645	0.463600	-0.005474
1413	7.0600e-01	5.8746	8.140916	0.000180	1.795923	0.304238	-0.003592
1414	7.0650e-01	5.8661	8.056674	0.000842	8.423736	1.427019	-0.016848
1415	7.0700e-01	5.8557	8.060950	-0.000043	-0.427601	-0.072438	0.000855
1416	7.0750e-01	5.8459	8.035293	0.000257	2.565605	0.434625	-0.005132
1417	7.0800e-01	5.8382	7.998517	0.000368	3.677367	0.622963	-0.007355
1418	7.0850e-01	5.8252	7.968583	0.000299	2.993206	0.507063	-0.005987
1419	7.0900e-01	5.8142	7.925393	0.000432	4.318768	0.731619	-0.008638
1420	7.0950e-01	5.8087	7.872367	0.000530	5.302250	0.898225	-0.010605
1421	7.1000e-01	5.7935	7.847138	0.000252	2.522845	0.427381	-0.005046
1422	7.1050e-01	5.7843	7.830888	0.000162	1.624883	0.275263	-0.003250
1423	7.1100e-01	5.7788	7.770593	0.000603	6.029171	1.021369	-0.012059
1424	7.1150e-01	5.7642	7.742369	0.000282	2.822165	0.478088	-0.005645
1425	7.1200e-01	5.7587	7.746646	-0.000043	-0.427601	-0.072438	0.000855
1426	7.1250e-01	5.7455	7.689344	0.000573	5.729851	0.970663	-0.011460
1427	7.1300e-01	5.7368	7.651713	0.000376	3.762887	0.637450	-0.007526
1428	7.1350e-01	5.7245	7.622207	0.000295	2.950446	0.499819	-0.005901
1429	7.1400e-01	5.7150	7.596122	0.000261	2.608365	0.441869	-0.005217
1430	7.1450e-01	5.7077	7.568754	0.000274	2.736645	0.463600	-0.005474
1431	7.1500e-01	5.6976	7.533688	0.000351	3.506327	0.593988	-0.007013
1432	7.1550e-01	5.6860	7.481518	0.000522	5.216730	0.883738	-0.010434
1433	7.1600e-01	5.6775	7.468262	0.000133	1.325563	0.224556	-0.002651
1434	7.1650e-01	5.6659	7.431913	0.000363	3.634607	0.615719	-0.007270
1435	7.1700e-01	5.6555	7.385730	0.000462	4.618089	0.782325	-0.009237
1436	7.1750e-01	5.6497	7.350237	0.000355	3.549087	0.601232	-0.007099
1437	7.1800e-01	5.6329	7.325007	0.000252	2.522845	0.427381	-0.005046
1438	7.1850e-01	5.6256	7.295501	0.000295	2.950446	0.499819	-0.005901
1439	7.1900e-01	5.6149	7.268988	0.000265	2.651125	0.449113	-0.005303
1440	7.1950e-01	5.6067	7.233495	0.000355	3.549087	0.601232	-0.007099
1441	7.2000e-01	5.5954	7.195437	0.000381	3.805647	0.644694	-0.007612
1442	7.2050e-01	5.5856	7.156095	0.000393	3.933927	0.666425	-0.007868
1443	7.2100e-01	5.5765	7.118464	0.000376	3.762887	0.637450	-0.007526
1444	7.2150e-01	5.5661	7.106063	0.000124	1.240042	0.210069	-0.002480
1445	7.2200e-01	5.5560	7.082971	0.000231	2.309044	0.391163	-0.004618
1446	7.2250e-01	5.5481	7.029090	0.000539	5.387770	0.912713	-0.010776
1447	7.2300e-01	5.5362	6.991887	0.000372	3.720127	0.630207	-0.007441
1448	7.2350e-01	5.5261	6.950835	0.000410	4.104968	0.695400	-0.008210
1449	7.2400e-01	5.5179	6.923039	0.000278	2.779405	0.470844	-0.005559
1450	7.2450e-01	5.5042	6.895244	0.000278	2.779405	0.470844	-0.005559
1451	7.2500e-01	5.4956	6.876428	0.000188	1.881444	0.318725	-0.003763
1452	7.2550e-01	5.4881	6.814423	0.000620	6.200212	1.050344	-0.012401
1453	7.2600e-01	5.4776	6.778502	0.000359	3.591847	0.608475	-0.007184
1454	7.2650e-01	5.4657	6.771660	0.000068	0.684161	0.115900	-0.001368
1455	7.2700e-01	5.4565	6.720773	0.000509	5.088450	0.862007	-0.010177
1456	7.2750e-01	5.4486	6.686990	0.000338	3.378046	0.572257	-0.006756
1457	7.2800e-01	5.4343	6.654918	0.000321	3.207006	0.543282	-0.006414
1458	7.2850e-01	5.4231	6.592057	0.000629	6.285732	1.064832	-0.012572
1459	7.2900e-01	5.4150	6.568538	0.000235	2.351804	0.398406	-0.004704
1460	7.2950e-01	5.4068	6.543308	0.000252	2.522845	0.427381	-0.005046
1461	7.3000e-01	5.3967	6.530479	0.000128	1.282802	0.217313	-0.002566
1462	7.3050e-01	5.3845	6.482585	0.000479	4.789129	0.811300	-0.009579
1463	7.3100e-01	5.3741	6.463770	0.000188	1.881444	0.318725	-0.003763
1464	7.3150e-01	5.3665	6.409889	0.000539	5.387770	0.912713	-0.010776
1465	7.3200e-01	5.3540	6.388080	0.000218	2.180764	0.369431	-0.004362
1466	7.3250e-01	5.3473	6.332917	0.000552	5.516050	0.934444	-0.011033
1467	7.3300e-01	5.3375	6.305548	0.000274	2.736645	0.463600	-0.005474
1468	7.3350e-01	5.3253	6.261931	0.000436	4.361528	0.738863	-0.008724
1469	7.3400e-01	5.3134	6.237128	0.000248	2.480085	0.420138	-0.004960
1470	7.3450e-01	5.3027	6.200780	0.000363	3.634607	0.615719	-0.007270
1471	7.3500e-01	5.2948	6.151176	0.000496	4.960169	0.840275	-0.009921
1472	7.3550e-01	5.2859	6.128512	0.000227	2.266284	0.383919	-0.004533
1473	7.3600e-01	5.2740	6.098578	0.000299	2.993206	0.507063	-0.005987
1474	7.3650e-01	5.2658	6.057098	0.000415	4.147728	0.702644	-0.008296
1475	7.3700e-01	5.2548	6.026737	0.000304	3.035966	0.514307	-0.006072
1476	7.3750e-01	5.2466	5.990389	0.000363	3.634607	0.615719	-0.007270
1477	7.3800e-01	5.2356	5.953613	0.000368	3.677367	0.622963	-0.007355
1478	7.3850e-01	5.2246	5.935225	0.000184	1.838683	0.311481	-0.003678
1479	7.3900e-01	5.2167	5.910423	0.000248	2.480085	0.420138	-0.004960
1480	7.3950e-01	5.2072	5.857397	0.000530	5.302250	0.898225	-0.010605
1481	7.4000e-01	5.1971	5.819766	0.000376	3.762887	0.637450	-0.007526
1482	7.4050e-01	5.1862	5.788977	0.000308	3.078726	0.521550	-0.006158
1483	7.4100e-01	5.1758	5.759899	0.000291	2.907685	0.492575	-0.005816
1484	7.4150e-01	5.1654	5.723123	0.000368	3.677367	0.622963	-0.007355
1485	7.4200e-01	5.1547	5.682071	0.000410	4.104968	0.695400	-0.008210
1486	7.4250e-01	5.1416	5.669670	0.000124	1.240042	0.210069	-0.002480
1487	7.4300e-01	5.1355	5.603815	0.000659	6.585052	1.115538	-0.013171
1488	7.4350e-01	5.1257	5.577730	0.000261	2.608365	0.441869	-0.005217
1489	7.4400e-01	5.1144	5.542237	0.000355	3.549087	0.601232	-0.007099
1490	7.4450e-01	5.1062	5.490067	0.000522	5.216730	0.883738	-0.010434
1491	7.4500e-01	5.0970	5.484936	0.000051	0.513121	0.086925	-0.001026
1492	7.4550e-01	5.0870	5.444311	0.000406	4.062208	0.688157	-0.008125
1493	7.4600e-01	5.0754	5.435759	0.000086	0.855202	0.144875	-0.001711
1494	7.4650e-01	5.0665	5.378885	0.000569	5.687091	0.963419	-0.011375
1495	7.4700e-01	5.0543	5.314741	0.000641	6.414012	1.086563	-0.012829
1496	7.4750e-01	5.0443	5.310892	0.000038	0.384841	0.065194	-0.000770
1497	7.4800e-01	5.0336	5.276254	0.000346	3.463567	0.586744	-0.006928
1498	7.4850e-01	5.0262	5.223229	0.000530	5.302250	0.898225	-0.010605
1499	7.4900e-01	5.0159	5.184743	0.000385	3.848407	0.651938	-0.007697
1500	7.4950e-01	5.0050	5.150533	0.000342	3.420806	0.579500	-0.006842
1501	7.5000e-01	4.9988	5.108198	0.000423	4.233248	0.717132	-0.008467
1502	7.5050e-01	4.9872	5.085106	0.000231	2.309044	0.391163	-0.004618
1503	7.5100e-01	4.9766	5.053889	0.000312	3.121486	0.528794	-0.006243
1504	7.5150e-01	4.9670	5.004712	0.000492	4.917409	0.833032	-0.009835
1505	7.5200e-01	4.9539	4.984186	0.000205	2.052484	0.347700	-0.004105
1506	7.5250e-01	4.9451	4.959384	0.000248	2.480085	0.420138	-0.004960
1507	7.5300e-01	4.9359	4.911490	0.000479	4.789129	0.811300	-0.009579
1508	7.5350e-01	4.9255	4.893102	0.000184	1.838683	0.311481	-0.003678
1509	7.5400e-01	4.9158	4.851195	0.000419	4.190488	0.709888	-0.008381
1510	7.5450e-01	4.9072	4.795176	0.000560	5.601571	0.948932	-0.011204
1511	7.5500e-01	4.8972	4.771657	0.000235	2.351804	0.398406	-0.004704
1512	7.5550e-01	4.8901	4.727611	0.000440	4.404288	0.746107	-0.008809
1513	7.5600e-01	4.8761	4.693401	0.000342	3.420806	0.579500	-0.006842
1514	7.5650e-01	4.8663	4.667316	0.000261	2.608365	0.441869	-0.005217
1515	7.5700e-01	4.8541	4.617712	0.000496	4.960169	0.840275	-0.009921
1516	7.5750e-01	4.8453	4.601034	0.000167	1.667643	0.282506	-0.003335
1517	7.5800e-01	4.8346	4.553140	0.000479	4.789129	0.811300	-0.009579
1518	7.5850e-01	4.8242	4.527910	0.000252	2.522845	0.427381	-0.005046
1519	7.5900e-01	4.8169	4.503108	0.000248	2.480085	0.420138	-0.004960
1520	7.5950e-01	4.8053	4.450082	0.000530	5.302250	0.898225	-0.010605
1521	7.6000e-01	4.7949	4.424425	0.000257	2.565605	0.434625	-0.005132
1522	7.6050e-01	4.7885	4.364985	0.000594	5.943651	1.006882	-0.011888
1523	7.6100e-01	4.7760	4.338472	0.000265	2.651125	0.449113	-0.005303
1524	7.6150e-01	4.7668	4.300414	0.000381	3.805647	0.644694	-0.007612
1525	7.6200e-01	4.7540	4.256368	0.000440	4.404288	0.746107	-0.008809
1526	7.6250e-01	4.7455	4.228145	0.000282	2.822165	0.478088	-0.005645
1527	7.6300e-01	4.7363	4.201632	0.000265	2.651125	0.449113	-0.005303
1528	7.6350e-01	4.7241	4.166139	0.000355	3.549087	0.601232	-0.007099
1529	7.6400e-01	4.7171	4.107127	0.000590	5.900891	0.999638	-0.011802
1530	7.6450e-01	4.7095	4.086173	0.000210	2.095244	0.354944	-0.004191
1531	7.6500e-01	4.6951	4.050253	0.000359	3.591847	0.608475	-0.007184
1532	7.6550e-01	4.6851	4.010484	0.000398	3.976688	0.673669	-0.007954
1533	7.6600e-01	4.6741	3.989530	0.000210	2.095244	0.354944	-0.004191
1534	7.6650e-01	4.6674	3.941208	0.000483	4.831889	0.818544	-0.009664
1535	7.6700e-01	4.6545	3.911702	0.000295	2.950446	0.499819	-0.005901
1536	7.6750e-01	4.6432	3.875354	0.000363	3.634607	0.615719	-0.007270
1537	7.6800e-01	4.6338	3.838578	0.000368	3.677367	0.622963	-0.007355
1538	7.6850e-01	4.6272	3.781704	0.000569	5.687091	0.963419	-0.011375
1539	7.6900e-01	4.6155	3.756902	0.000248	2.480085	0.420138	-0.004960
1540	7.6950e-01	4.6071	3.731672	0.000252	2.522845	0.427381	-0.005046
1541	7.7000e-01	4.5969	3.706014	0.000257	2.565605	0.434625	-0.005132
1542	7.7050e-01	4.5825	3.642726	0.000633	6.328492	1.072076	-0.012658
1543	7.7100e-01	4.5755	3.610226	0.000325	3.249766	0.550525	-0.006500
1544	7.7150e-01	4.5673	3.578154	0.000321	3.207006	0.543282	-0.006414
1545	7.7200e-01	4.5551	3.547793	0.000304	3.035966	0.514307	-0.006072
1546	7.7250e-01	4.5454	3.511873	0.000359	3.591847	0.608475	-0.007184
1547	7.7300e-01	4.5354	3.475524	0.000363	3.634607	0.615719	-0.007270
1548	7.7350e-01	4.5251	3.429769	0.000458	4.575329	0.775082	-0.009151
1549	7.7400e-01	4.5166	3.398552	0.000312	3.121486	0.528794	-0.006243
1550	7.7450e-01	4.5035	3.348520	0.000500	5.002929	0.847519	-0.010006
1551	7.7500e-01	4.4943	3.317731	0.000308	3.078726	0.521550	-0.006158
1552	7.7550e-01	4.4865	3.265988	0.000517	5.173970	0.876494	-0.010349
1553	7.7600e-01	4.4745	3.257008	0.000090	0.897962	0.152119	-0.001796
1554	7.7650e-01	4.4681	3.202272	0.000547	5.473290	0.927200	-0.010947
1555	7.7700e-01	4.4589	3.164213	0.000381	3.805647	0.644694	-0.007612
1556	7.7750e-01	4.4452	3.133424	0.000308	3.078726	0.521550	-0.006158
1557	7.7800e-01	4.4339	3.113753	0.000197	1.966964	0.333213	-0.003934
1558	7.7850e-01	4.4241	3.066287	0.000475	4.746369	0.804057	-0.009493
1559	7.7900e-01	4.4180	3.014544	0.000517	5.173970	0.876494	-0.010349
1560	7.7950e-01	4.4067	2.981617	0.000329	3.292526	0.557769	-0.006585
1561	7.8000e-01	4.3954	2.950401	0.000312	3.121486	0.528794	-0.006243
1562	7.8050e-01	4.3848	2.926026	0.000244	2.437325	0.412894	-0.004875
1563	7.8100e-01	4.3762	2.900796	0.000252	2.522845	0.427381	-0.005046
1564	7.8150e-01	4.3636	2.828955	0.000718	7.183694	1.216951	-0.014368
1565	7.8200e-01	4.3558	2.802015	0.000269	2.693885	0.456356	-0.005388
1566	7.8250e-01	4.3460	2.770370	0.000316	3.164246	0.536038	-0.006329
1567	7.8300e-01	4.3344	2.741719	0.000286	2.864925	0.485332	-0.005730
1568	7.8350e-01	4.3283	2.687411	0.000543	5.430530	0.919957	-0.010862
1569	7.8400e-01	4.3155	2.647214	0.000402	4.019448	0.680913	-0.008039
1570	7.8450e-01	4.3066	2.605735	0.000415	4.147728	0.702644	-0.008296
1571	7.8500e-01	4.2963	2.582643	0.000231	2.309044	0.391163	-0.004618
1572	7.8550e-01	4.2865	2.550571	0.000321	3.207006	0.543282	-0.006414
1573	7.8600e-01	4.2767	2.506526	0.000440	4.404288	0.746107	-0.008809
1574	7.8650e-01	4.2654	2.453072	0.000535	5.345010	0.905469	-0.010691
1575	7.8700e-01	4.2532	2.453072	-0.000000	-0.000000	-0.000000	0.000000
1576	7.8750e-01	4.2478	2.369258	0.000838	8.380976	1.419776	-0.016763
1577	7.8800e-01	4.2334	2.346166	0.000231	2.309044	0.391163	-0.004618
1578	7.8850e-01	4.2236	2.321791	0.000244	2.437325	0.412894	-0.004875
1579	7.8900e-01	4.2160	2.292713	0.000291	2.907685	0.492575	-0.005816
1580	7.8950e-01	4.2065	2.255937	0.000368	3.677367	0.622963	-0.007355
1581	7.9000e-01	4.1997	2.203767	0.000522	5.216730	0.883738	-0.010434
1582	7.9050e-01	4.1852	2.162715	0.000410	4.104968	0.695400	-0.008210
1583	7.9100e-01	4.1757	2.131926	0.000308	3.078726	0.521550	-0.006158
1584	7.9150e-01	4.1663	2.093440	0.000385	3.848407	0.651938	-0.007697
1585	7.9200e-01	4.1534	2.055809	0.000376	3.762887	0.637450	-0.007526
1586	7.9250e-01	4.1444	2.008770	0.000470	4.703609	0.796813	-0.009408
1587	7.9300e-01	4.1391	1.974987	0.000338	3.378046	0.572257	-0.006756
1588	7.9350e-01	4.1245	1.936073	0.000389	3.891167	0.659182	-0.007783
1589	7.9400e-01	4.1132	1.892456	0.000436	4.361528	0.738863	-0.008724
1590	7.9450e-01	4.1064	1.856535	0.000359	3.591847	0.608475	-0.007184
1591	7.9500e-01	4.0942	1.828739	0.000278	2.779405	0.470844	-0.005559
1592	7.9550e-01	4.0845	1.782984	0.000458	4.575329	0.775082	-0.009151
1593	7.9600e-01	4.0756	1.734234	0.000487	4.874649	0.825788	-0.009750
1594	7.9650e-01	4.0689	1.701735	0.000325	3.249766	0.550525	-0.006500
1595	7.9700e-01	4.0552	1.655124	0.000466	4.660849	0.789569	-0.009322
1596	7.9750e-01	4.0422	1.622196	0.000329	3.292526	0.557769	-0.006585
1597	7.9800e-01	4.0344	1.575158	0.000470	4.703609	0.796813	-0.009408
1598	7.9850e-01	4.0230	1.532395	0.000428	4.276008	0.724375	-0.008553
1599	7.9900e-01	4.0147	1.512297	0.000201	2.009724	0.340456	-0.004020
1600	7.9950e-01	4.0045	1.495192	0.000171	1.710403	0.289750	-0.003421
1601	8.0000e-01	3.9957	1.441739	0.000535	5.345010	0.905469	-0.010691
1602	8.0050e-01	3.9856	1.384864	0.000569	5.687091	0.963419	-0.011375
1603	8.0100e-01	3.9725	1.359207	0.000257	2.565605	0.434625	-0.005132
1604	8.0150e-01	3.9633	1.317727	0.000415	4.147728	0.702644	-0.008296
1605	8.0200e-01	3.9561	1.284373	0.000334	3.335286	0.565013	-0.006671
1606	8.0250e-01	3.9444	1.243748	0.000406	4.062208	0.688157	-0.008125
1607	8.0300e-01	3.9368	1.212959	0.000308	3.078726	0.521550	-0.006158
1608	8.0350e-01	3.9253	1.164637	0.000483	4.831889	0.818544	-0.009664
1609	8.0400e-01	3.9163	1.138552	0.000261	2.608365	0.441869	-0.005217
1610	8.0450e-01	3.9047	1.089375	0.000492	4.917409	0.833032	-0.009835
1611	8.0500e-01	3.8971	1.043619	0.000458	4.575329	0.775082	-0.009151
1612	8.0550e-01	3.8875	1.026942	0.000167	1.667643	0.282506	-0.003335
1613	8.0600e-01	3.8733	0.957667	0.000693	6.927133	1.173488	-0.013855
1614	8.0650e-01	3.8654	0.937141	0.000205	2.052484	0.347700	-0.004105
1615	8.0700e-01	3.8564	0.889247	0.000479	4.789129	0.811300	-0.009579
1616	8.0750e-01	3.8460	0.854609	0.000346	3.463567	0.586744	-0.006928
1617	8.0800e-01	3.8344	0.808853	0.000458	4.575329	0.775082	-0.009151
1618	8.0850e-01	3.8257	0.771650	0.000372	3.720127	0.630207	-0.007441
1619	8.0900e-01	3.8138	0.721618	0.000500	5.002929	0.847519	-0.010006
1620	8.0950e-01	3.8034	0.690829	0.000308	3.078726	0.521550	-0.006158
1621	8.1000e-01	3.7929	0.654908	0.000359	3.591847	0.608475	-0.007184
1622	8.1050e-01	3.7851	0.621553	0.000334	3.335286	0.565013	-0.006671
1623	8.1100e-01	3.7729	0.583495	0.000381	3.805647	0.644694	-0.007612
1624	8.1150e-01	3.7656	0.544153	0.000393	3.933927	0.666425	-0.007868
1625	8.1200e-01	3.7556	0.521061	0.000231	2.309044	0.391163	-0.004618
1626	8.1250e-01	3.7463	0.459483	0.000616	6.157452	1.043101	-0.012316
1627	8.1300e-01	3.7360	0.419714	0.000398	3.976688	0.673669	-0.007954
1628	8.1350e-01	3.7287	0.375669	0.000440	4.404288	0.746107	-0.008809
1629	8.1400e-01	3.7165	0.347018	0.000286	2.864925	0.485332	-0.005730
1630	8.1450e-01	3.7042	0.317512	0.000295	2.950446	0.499819	-0.005901
1631	8.1500e-01	3.6957	0.265341	0.000522	5.216730	0.883738	-0.010434
1632	8.1550e-01	3.6838	0.226000	0.000393	3.933927	0.666425	-0.007868
1633	8.1600e-01	3.6774	0.197777	0.000282	2.822165	0.478088	-0.005645
1634	8.1650e-01	3.6639	0.142185	0.000556	5.558810	0.941688	-0.011118
1635	8.1700e-01	3.6578	0.106265	0.000359	3.591847	0.608475	-0.007184
1636	8.1750e-01	3.6478	0.061364	0.000449	4.489808	0.760594	-0.008980
1637	8.1800e-01	3.6362	0.012187	0.000492	4.917409	0.833032	-0.009835
1638	8.1850e-01	3.6261	-0.007911	0.000201	2.009724	0.340456	-0.004020
1639	8.1900e-01	3.6146	-0.030575	0.000227	2.266284	0.383919	-0.004533
1640	8.1950e-01	3.6044	-0.096857	0.000663	6.627813	1.122782	-0.013256
1641	8.2000e-01	3.5959	-0.123370	0.000265	2.651125	0.449113	-0.005303
1642	8.2050e-01	3.5876	-0.162284	0.000389	3.891167	0.659182	-0.007783
1643	8.2100e-01	3.5753	-0.212744	0.000505	5.045690	0.854763	-0.010092
1644	8.2150e-01	3.5638	-0.247809	0.000351	3.506327	0.593988	-0.007013
1645	8.2200e-01	3.5556	-0.302545	0.000547	5.473290	0.927200	-0.010947
1646	8.2250e-01	3.5446	-0.331196	0.000286	2.864925	0.485332	-0.005730
1647	8.2300e-01	3.5330	-0.369254	0.000381	3.805647	0.644694	-0.007612
1648	8.2350e-01	3.5236	-0.418004	0.000487	4.874649	0.825788	-0.009750
1649	8.2400e-01	3.5143	-0.447510	0.000295	2.950446	0.499819	-0.005901
1650	8.2450e-01	3.5065	-0.507377	0.000599	5.986411	1.014126	-0.011974
1651	8.2500e-01	3.4956	-0.551850	0.000445	4.447048	0.753350	-0.008895
1652	8.2550e-01	3.4877	-0.574942	0.000231	2.309044	0.391163	-0.004618
1653	8.2600e-01	3.4761	-0.607442	0.000325	3.249766	0.550525	-0.006500
1654	8.2650e-01	3.4668	-0.651059	0.000436	4.361528	0.738863	-0.008724
1655	8.2700e-01	3.4561	-0.699809	0.000487	4.874649	0.825788	-0.009750
1656	8.2750e-01	3.4451	-0.736585	0.000368	3.677367	0.622963	-0.007355
1657	8.2800e-01	3.4372	-0.781058	0.000445	4.447048	0.753350	-0.008895
1658	8.2850e-01	3.4247	-0.825531	0.000445	4.447048	0.753350	-0.008895
1659	8.2900e-01	3.4137	-0.844774	0.000192	1.924204	0.325969	-0.003849
1660	8.2950e-01	3.4043	-0.911911	0.000671	6.713333	1.137269	-0.013427
1661	8.3000e-01	3.3957	-0.952963	0.000410	4.104968	0.695400	-0.008210
1662	8.3050e-01	3.3856	-0.986318	0.000334	3.335286	0.565013	-0.006671
1663	8.3100e-01	3.3749	-1.023949	0.000376	3.762887	0.637450	-0.007526
1664	8.3150e-01	3.3643	-1.061152	0.000372	3.720127	0.630207	-0.007441
1665	8.3200e-01	3.3549	-1.100066	0.000389	3.891167	0.659182	-0.007783
1666	8.3250e-01	3.3455	-1.127006	0.000269	2.693885	0.456356	-0.005388
1667	8.3300e-01	3.3380	-1.169769	0.000428	4.276008	0.724375	-0.008553
1668	8.3350e-01	3.3260	-1.227498	0.000577	5.772611	0.977907	-0.011546
1669	8.3400e-01	3.3173	-1.250162	0.000227	2.266284	0.383919	-0.004533
1670	8.3450e-01	3.3031	-1.303616	0.000535	5.345010	0.905469	-0.010691
1671	8.3500e-01	3.2977	-1.352365	0.000487	4.874649	0.825788	-0.009750
1672	8.3550e-01	3.2854	-1.396410	0.000440	4.404288	0.746107	-0.008809
1673	8.3600e-01	3.2759	-1.427627	0.000312	3.121486	0.528794	-0.006243
1674	8.3650e-01	3.2656	-1.466969	0.000393	3.933927	0.666425	-0.007868
1675	8.3700e-01	3.2564	-1.525553	0.000586	5.858131	0.992394	-0.011717
1676	8.3750e-01	3.2448	-1.553349	0.000278	2.779405	0.470844	-0.005559
1677	8.3800e-01	3.2361	-1.595684	0.000423	4.233248	0.717132	-0.008467
1678	8.3850e-01	3.2253	-1.649137	0.000535	5.345010	0.905469	-0.010691
1679	8.3900e-01	3.2192	-1.691472	0.000423	4.233248	0.717132	-0.008467
1680	8.3950e-01	3.2092	-1.728675	0.000372	3.720127	0.630207	-0.007441
1681	8.4000e-01	3.1947	-1.756898	0.000282	2.822165	0.478088	-0.005645
1682	8.4050e-01	3.1879	-1.803082	0.000462	4.618089	0.782325	-0.009237
1683	8.4100e-01	3.1773	-1.853969	0.000509	5.088450	0.862007	-0.010177
1684	8.4150e-01	3.1657	-1.889462	0.000355	3.549087	0.601232	-0.007099
1685	8.4200e-01	3.1555	-1.924100	0.000346	3.463567	0.586744	-0.006928
1686	8.4250e-01	3.1442	-1.956599	0.000325	3.249766	0.550525	-0.006500
1687	8.4300e-01	3.1345	-2.005349	0.000487	4.874649	0.825788	-0.009750
1688	8.4350e-01	3.1242	-2.055809	0.000505	5.045690	0.854763	-0.010092
1689	8.4400e-01	3.1139	-2.080611	0.000248	2.480085	0.420138	-0.004960
1690	8.4450e-01	3.1055	-2.133209	0.000526	5.259490	0.890982	-0.010520
1691	8.4500e-01	3.0949	-2.199918	0.000667	6.670573	1.130026	-0.013342
1692	8.4550e-01	3.0847	-2.218734	0.000188	1.881444	0.318725	-0.003763
1693	8.4600e-01	3.0768	-2.264490	0.000458	4.575329	0.775082	-0.009151
1694	8.4650e-01	3.0679	-2.303404	0.000389	3.891167	0.659182	-0.007783
1695	8.4700e-01	3.0539	-2.332910	0.000295	2.950446	0.499819	-0.005901
1696	8.4750e-01	3.0444	-2.398764	0.000659	6.585052	1.115538	-0.013171
1697	8.4800e-01	3.0345	-2.423994	0.000252	2.522845	0.427381	-0.005046
1698	8.4850e-01	3.0255	-2.476164	0.000522	5.216730	0.883738	-0.010434
1699	8.4900e-01	3.0127	-2.530473	0.000543	5.430530	0.919957	-0.010862
1700	8.4950e-01	3.0061	-2.553992	0.000235	2.351804	0.398406	-0.004704
1701	8.5000e-01	2.9956	-2.604879	0.000509	5.088450	0.862007	-0.010177
1702	8.5050e-01	2.9858	-2.674155	0.000693	6.927133	1.173488	-0.013855
1703	8.5100e-01	2.9770	-2.686983	0.000128	1.282802	0.217313	-0.002566
1704	8.5150e-01	2.9674	-2.727608	0.000406	4.062208	0.688157	-0.008125
1705	8.5200e-01	2.9591	-2.777640	0.000500	5.002929	0.847519	-0.010006
1706	8.5250e-01	2.9456	-2.802442	0.000248	2.480085	0.420138	-0.004960
1707	8.5300e-01	2.9346	-2.848626	0.000462	4.618089	0.782325	-0.009237
1708	8.5350e-01	2.9289	-2.916191	0.000676	6.756093	1.144513	-0.013513
1709	8.5400e-01	2.9171	-2.944841	0.000286	2.864925	0.485332	-0.005730
1710	8.5450e-01	2.9057	-2.999577	0.000547	5.473290	0.927200	-0.010947
1711	8.5500e-01	2.8951	-3.015827	0.000162	1.624883	0.275263	-0.003250
1712	8.5550e-01	2.8842	-3.067142	0.000513	5.131210	0.869250	-0.010263
1713	8.5600e-01	2.8741	-3.136418	0.000693	6.927133	1.173488	-0.013855
1714	8.5650e-01	2.8653	-3.147963	0.000115	1.154522	0.195581	-0.002309
1715	8.5700e-01	2.8537	-3.212963	0.000650	6.499532	1.101051	-0.013000
1716	8.5750e-01	2.8432	-3.241186	0.000282	2.822165	0.478088	-0.005645
1717	8.5800e-01	2.8342	-3.283521	0.000423	4.233248	0.717132	-0.008467
1718	8.5850e-01	2.8259	-3.321152	0.000376	3.762887	0.637450	-0.007526
1719	8.5900e-01	2.8169	-3.362631	0.000415	4.147728	0.702644	-0.008296
1720	8.5950e-01	2.8078	-3.414802	0.000522	5.216730	0.883738	-0.010434
1721	8.6000e-01	2.7975	-3.449439	0.000346	3.463567	0.586744	-0.006928
1722	8.6050e-01	2.7860	-3.496906	0.000475	4.746369	0.804057	-0.009493
1723	8.6100e-01	2.7740	-3.549931	0.000530	5.302250	0.898225	-0.010605
1724	8.6150e-01	2.7668	-3.588417	0.000385	3.848407	0.651938	-0.007697
1725	8.6200e-01	2.7566	-3.631180	0.000428	4.276008	0.724375	-0.008553
1726	8.6250e-01	2.7452	-3.656410	0.000252	2.522845	0.427381	-0.005046
1727	8.6300e-01	2.7350	-3.723975	0.000676	6.756093	1.144513	-0.013513
1728	8.6350e-01	2.7258	-3.746211	0.000222	2.223524	0.376675	-0.004447
1729	8.6400e-01	2.7129	-3.801375	0.000552	5.516050	0.934444	-0.011033
1730	8.6450e-01	2.7055	-3.855683	0.000543	5.430530	0.919957	-0.010862
1731	8.6500e-01	2.6956	-3.863381	0.000077	0.769681	0.130388	-0.001539
1732	8.6550e-01	2.6883	-3.909564	0.000462	4.618089	0.782325	-0.009237
1733	8.6600e-01	2.6754	-3.948478	0.000389	3.891167	0.659182	-0.007783
1734	8.6650e-01	2.6640	-4.034431	0.000859	8.594776	1.455995	-0.017191
1735	8.6700e-01	2.6508	-4.050253	0.000158	1.582123	0.268019	-0.003164
1736	8.6750e-01	2.6437	-4.113114	0.000629	6.285732	1.064832	-0.012572
1737	8.6800e-01	2.6359	-4.152455	0.000393	3.933927	0.666425	-0.007868
1738	8.6850e-01	2.6248	-4.197356	0.000449	4.489808	0.760594	-0.008980
1739	8.6900e-01	2.6107	-4.250809	0.000535	5.345010	0.905469	-0.010691
1740	8.6950e-01	2.6056	-4.281170	0.000304	3.035966	0.514307	-0.006072
1741	8.7000e-01	2.5947	-4.342321	0.000611	6.114692	1.035857	-0.012230
1742	8.7050e-01	2.5822	-4.370116	0.000278	2.779405	0.470844	-0.005559
1743	8.7100e-01	2.5751	-4.403044	0.000329	3.292526	0.557769	-0.006585
1744	8.7150e-01	2.5635	-4.446234	0.000432	4.318768	0.731619	-0.008638
1745	8.7200e-01	2.5553	-4.492845	0.000466	4.660849	0.789569	-0.009322
1746	8.7250e-01	2.5463	-4.542449	0.000496	4.960169	0.840275	-0.009921
1747	8.7300e-01	2.5340	-4.592054	0.000496	4.960169	0.840275	-0.009921
1748	8.7350e-01	2.5240	-4.649783	0.000577	5.772611	0.977907	-0.011546
1749	8.7400e-01	2.5159	-4.682283	0.000325	3.249766	0.550525	-0.006500
1750	8.7450e-01	2.5056	-4.717776	0.000355	3.549087	0.601232	-0.007099
1751	8.7500e-01	2.4953	-4.765242	0.000475	4.746369	0.804057	-0.009493
1752	8.7550e-01	2.4864	-4.800735	0.000355	3.549087	0.601232	-0.007099
1753	8.7600e-01	2.4771	-4.856326	0.000556	5.558810	0.941688	-0.011118
1754	8.7650e-01	2.4661	-4.903793	0.000475	4.746369	0.804057	-0.009493
1755	8.7700e-01	2.4567	-4.938003	0.000342	3.420806	0.579500	-0.006842
1756	8.7750e-01	2.4469	-4.985469	0.000475	4.746369	0.804057	-0.009493
1757	8.7800e-01	2.4365	-5.041488	0.000560	5.601571	0.948932	-0.011204
1758	8.7850e-01	2.4281	-5.085534	0.000440	4.404288	0.746107	-0.008809
1759	8.7900e-01	2.4170	-5.136849	0.000513	5.131210	0.869250	-0.010263
1760	8.7950e-01	2.4051	-5.169348	0.000325	3.249766	0.550525	-0.006500
1761	8.8000e-01	2.3968	-5.214249	0.000449	4.489808	0.760594	-0.008980
1762	8.8050e-01	2.3853	-5.248886	0.000346	3.463567	0.586744	-0.006928
1763	8.8100e-01	2.3767	-5.298919	0.000500	5.002929	0.847519	-0.010006
1764	8.8150e-01	2.3653	-5.354938	0.000560	5.601571	0.948932	-0.011204
1765	8.8200e-01	2.3536	-5.394279	0.000393	3.933927	0.666425	-0.007868
1766	8.8250e-01	2.3453	-5.443028	0.000487	4.874649	0.825788	-0.009750
1767	8.8300e-01	2.3351	-5.498620	0.000556	5.558810	0.941688	-0.011118
1768	8.8350e-01	2.3253	-5.537533	0.000389	3.891167	0.659182	-0.007783
1769	8.8400e-01	2.3131	-5.561908	0.000244	2.437325	0.412894	-0.004875
1770	8.8450e-01	2.3047	-5.608092	0.000462	4.618089	0.782325	-0.009237
1771	8.8500e-01	2.2952	-5.673091	0.000650	6.499532	1.101051	-0.013000
1772	8.8550e-01	2.2865	-5.708156	0.000351	3.506327	0.593988	-0.007013
1773	8.8600e-01	2.2748	-5.778714	0.000706	7.055413	1.195219	-0.014112
1774	8.8650e-01	2.2658	-5.794536	0.000158	1.582123	0.268019	-0.003164
1775	8.8700e-01	2.2562	-5.836016	0.000415	4.147728	0.702644	-0.008296
1776	8.8750e-01	2.2466	-5.889041	0.000530	5.302250	0.898225	-0.010605
1777	8.8800e-01	2.2357	-5.922824	0.000338	3.378046	0.572257	-0.006756
1778	8.8850e-01	2.2260	-5.971573	0.000487	4.874649	0.825788	-0.009750
1779	8.8900e-01	2.2147	-6.015619	0.000440	4.404288	0.746107	-0.008809
1780	8.8950e-01	2.2037	-6.072065	0.000564	5.644331	0.956175	-0.011289
1781	8.9000e-01	2.1973	-6.131505	0.000594	5.943651	1.006882	-0.011888
1782	8.9050e-01	2.1858	-6.153742	0.000222	2.223524	0.376675	-0.004447
1783	8.9100e-01	2.1764	-6.220879	0.000671	6.713333	1.137269	-0.013427
1784	8.9150e-01	2.1657	-6.242260	0.000214	2.138004	0.362188	-0.004276
1785	8.9200e-01	2.1539	-6.310680	0.000684	6.841613	1.159001	-0.013684
1786	8.9250e-01	2.1452	-6.343180	0.000325	3.249766	0.550525	-0.006500
1787	8.9300e-01	2.1369	-6.405185	0.000620	6.200212	1.050344	-0.012401
1788	8.9350e-01	2.1274	-6.435547	0.000304	3.035966	0.514307	-0.006072
1789	8.9400e-01	2.1146	-6.497980	0.000624	6.242972	1.057588	-0.012487
1790	8.9450e-01	2.1036	-6.539887	0.000419	4.190488	0.709888	-0.008381
1791	8.9500e-01	2.0931	-6.577518	0.000376	3.762887	0.637450	-0.007526
1792	8.9550e-01	2.0865	-6.623274	0.000458	4.575329	0.775082	-0.009151
1793	8.9600e-01	2.0749	-6.682286	0.000590	5.900891	0.999638	-0.011802
1794	8.9650e-01	2.0633	-6.715214	0.000329	3.292526	0.557769	-0.006585
1795	8.9700e-01	2.0551	-6.763963	0.000487	4.874649	0.825788	-0.009750
1796	8.9750e-01	2.0435	-6.839225	0.000753	7.525774	1.274901	-0.015052
1797	8.9800e-01	2.0361	-6.864455	0.000252	2.522845	0.427381	-0.005046
1798	8.9850e-01	2.0250	-6.902513	0.000381	3.805647	0.644694	-0.007612
1799	8.9900e-01	2.0148	-6.955111	0.000526	5.259490	0.890982	-0.010520
1800	8.9950e-01	2.0044	-6.991459	0.000363	3.634607	0.615719	-0.007270
1801	9.0000e-01	1.9943	-7.045768	0.000543	5.430530	0.919957	-0.010862
1802	9.0050e-01	1.9836	-7.095372	0.000496	4.960169	0.840275	-0.009921
1803	9.0100e-01	1.9753	-7.145832	0.000505	5.045690	0.854763	-0.010092
1804	9.0150e-01	1.9653	-7.180897	0.000351	3.506327	0.593988	-0.007013
1805	9.0200e-01	1.9528	-7.231357	0.000505	5.045690	0.854763	-0.010092
1806	9.0250e-01	1.9473	-7.264712	0.000334	3.335286	0.565013	-0.006671
1807	9.0300e-01	1.9379	-7.311323	0.000466	4.660849	0.789569	-0.009322
1808	9.0350e-01	1.9250	-7.379743	0.000684	6.841613	1.159001	-0.013684
1809	9.0400e-01	1.9167	-7.415664	0.000359	3.591847	0.608475	-0.007184
1810	9.0450e-01	1.9046	-7.462275	0.000466	4.660849	0.789569	-0.009322
1811	9.0500e-01	1.8977	-7.516156	0.000539	5.387770	0.912713	-0.010776
1812	9.0550e-01	1.8829	-7.576878	0.000607	6.071931	1.028613	-0.012145
1813	9.0600e-01	1.8750	-7.584576	0.000077	0.769681	0.130388	-0.001539
1814	9.0650e-01	1.8658	-7.669673	0.000851	8.509256	1.441507	-0.017019
1815	9.0700e-01	1.8561	-7.709442	0.000398	3.976688	0.673669	-0.007954
1816	9.0750e-01	1.8446	-7.748784	0.000393	3.933927	0.666425	-0.007868
1817	9.0800e-01	1.8401	-7.793257	0.000445	4.447048	0.753350	-0.008895
1818	9.0850e-01	1.8233	-7.853552	0.000603	6.029171	1.021369	-0.012059
1819	9.0900e-01	1.8174	-7.887762	0.000342	3.420806	0.579500	-0.006842
1820	9.0950e-01	1.8063	-7.938222	0.000505	5.045690	0.854763	-0.010092
1821	9.1000e-01	1.7944	-7.981840	0.000436	4.361528	0.738863	-0.008724
1822	9.1050e-01	1.7848	-8.023747	0.000419	4.190488	0.709888	-0.008381
1823	9.1100e-01	1.7769	-8.087463	0.000637	6.371252	1.079319	-0.012743
1824	9.1150e-01	1.7676	-8.126805	0.000393	3.933927	0.666425	-0.007868
1825	9.1200e-01	1.7549	-8.158021	0.000312	3.121486	0.528794	-0.006243
1826	9.1250e-01	1.7477	-8.224303	0.000663	6.627813	1.122782	-0.013256
1827	9.1300e-01	1.7336	-8.258085	0.000338	3.378046	0.572257	-0.006756
1828	9.1350e-01	1.7264	-8.312394	0.000543	5.430530	0.919957	-0.010862
1829	9.1400e-01	1.7139	-8.350880	0.000385	3.848407	0.651938	-0.007697
1830	9.1450e-01	1.7043	-8.389794	0.000389	3.891167	0.659182	-0.007783
1831	9.1500e-01	1.6962	-8.446668	0.000569	5.687091	0.963419	-0.011375
1832	9.1550e-01	1.6873	-8.497128	0.000505	5.045690	0.854763	-0.010092
1833	9.1600e-01	1.6762	-8.538180	0.000410	4.104968	0.695400	-0.008210
1834	9.1650e-01	1.6667	-8.613014	0.000748	7.483014	1.267657	-0.014967
1835	9.1700e-01	1.6528	-8.651073	0.000381	3.805647	0.644694	-0.007612
1836	9.1750e-01	1.6449	-8.695119	0.000440	4.404288	0.746107	-0.008809
1837	9.1800e-01	1.6353	-8.747289	0.000522	5.216730	0.883738	-0.010434
1838	9.1850e-01	1.6251	-8.793900	0.000466	4.660849	0.789569	-0.009322
1839	9.1900e-01	1.6142	-8.837945	0.000440	4.404288	0.746107	-0.008809
1840	9.1950e-01	1.6075	-8.888405	0.000505	5.045690	0.854763	-0.010092
1841	9.2000e-01	1.5939	-8.936299	0.000479	4.789129	0.811300	-0.009579
1842	9.2050e-01	1.5853	-8.983338	0.000470	4.703609	0.796813	-0.009408
1843	9.2100e-01	1.5743	-9.040640	0.000573	5.729851	0.970663	-0.011460
1844	9.2150e-01	1.5639	-9.062876	0.000222	2.223524	0.376675	-0.004447
1845	9.2200e-01	1.5538	-9.118468	0.000556	5.558810	0.941688	-0.011118
1846	9.2250e-01	1.5463	-9.192019	0.000735	7.354734	1.245926	-0.014710
1847	9.2300e-01	1.5359	-9.226657	0.000346	3.463567	0.586744	-0.006928
1848	9.2350e-01	1.5248	-9.300636	0.000740	7.397494	1.253169	-0.014796
1849	9.2400e-01	1.5168	-9.330570	0.000299	2.993206	0.507063	-0.005987
1850	9.2450e-01	1.5074	-9.376753	0.000462	4.618089	0.782325	-0.009237
1851	9.2500e-01	1.4941	-9.429779	0.000530	5.302250	0.898225	-0.010605
1852	9.2550e-01	1.4833	-9.482804	0.000530	5.302250	0.898225	-0.010605
1853	9.2600e-01	1.4740	-9.564481	0.000817	8.167175	1.383557	-0.016335
1854	9.2650e-01	1.4651	-9.555928	-0.000086	-0.855202	-0.144875	0.001711
1855	9.2700e-01	1.4541	-9.622638	0.000667	6.670573	1.130026	-0.013342
1856	9.2750e-01	1.4455	-9.679084	0.000564	5.644331	0.956175	-0.011289
1857	9.2800e-01	1.4365	-9.712439	0.000334	3.335286	0.565013	-0.006671
1858	9.2850e-01	1.4241	-9.785991	0.000735	7.354734	1.245926	-0.014710
1859	9.2900e-01	1.4150	-9.822339	0.000363	3.634607	0.615719	-0.007270
1860	9.2950e-01	1.4050	-9.873654	0.000513	5.131210	0.869250	-0.010263
1861	9.3000e-01	1.3953	-9.920265	0.000466	4.660849	0.789569	-0.009322
1862	9.3050e-01	1.3821	-9.959179	0.000389	3.891167	0.659182	-0.007783
1863	9.3100e-01	1.3745	-10.013915	0.000547	5.473290	0.927200	-0.010947
1864	9.3150e-01	1.3657	-10.069079	0.000552	5.516050	0.934444	-0.011033
1865	9.3200e-01	1.3542	-10.086184	0.000171	1.710403	0.289750	-0.003421
1866	9.3250e-01	1.3448	-10.165294	0.000791	7.910615	1.340094	-0.015822
1867	9.3300e-01	1.3339	-10.218320	0.000530	5.302250	0.898225	-0.010605
1868	9.3350e-01	1.3254	-10.264076	0.000458	4.575329	0.775082	-0.009151
1869	9.3400e-01	1.3152	-10.316246	0.000522	5.216730	0.883738	-0.010434
1870	9.3450e-01	1.3044	-10.358581	0.000423	4.233248	0.717132	-0.008467
1871	9.3500e-01	1.2930	-10.422297	0.000637	6.371252	1.079319	-0.012743
1872	9.3550e-01	1.2839	-10.460783	0.000385	3.848407	0.651938	-0.007697
1873	9.3600e-01	1.2762	-10.506112	0.000453	4.532569	0.767838	-0.009066
1874	9.3650e-01	1.2633	-10.562558	0.000564	5.644331	0.956175	-0.011289
1875	9.3700e-01	1.2557	-10.622426	0.000599	5.986411	1.014126	-0.011974
1876	9.3750e-01	1.2452	-10.654498	0.000321	3.207006	0.543282	-0.006414
1877	9.3800e-01	1.2370	-10.681010	0.000265	2.651125	0.449113	-0.005303
1878	9.3850e-01	1.2286	-10.752424	0.000714	7.140933	1.209707	-0.014283
1879	9.3900e-01	1.2173	-10.816140	0.000637	6.371252	1.079319	-0.012743
1880	9.3950e-01	1.2057	-10.861041	0.000449	4.489808	0.760594	-0.008980
1881	9.4000e-01	1.1951	-10.905514	0.000445	4.447048	0.753350	-0.008895
1882	9.4050e-01	1.1813	-10.946566	0.000410	4.104968	0.695400	-0.008210
1883	9.4100e-01	1.1768	-11.023111	0.000765	7.654054	1.296632	-0.015309
1884	9.4150e-01	1.1660	-11.046630	0.000235	2.351804	0.398406	-0.004704
1885	9.4200e-01	1.1553	-11.097517	0.000509	5.088450	0.862007	-0.010177
1886	9.4250e-01	1.1440	-11.154391	0.000569	5.687091	0.963419	-0.011375
1887	9.4300e-01	1.1345	-11.209128	0.000547	5.473290	0.927200	-0.010947
1888	9.4350e-01	1.1261	-11.252318	0.000432	4.318768	0.731619	-0.008638
1889	9.4400e-01	1.1159	-11.296791	0.000445	4.447048	0.753350	-0.008895
1890	9.4450e-01	1.1047	-11.358796	0.000620	6.200212	1.050344	-0.012401
1891	9.4500e-01	1.0944	-11.398138	0.000393	3.933927	0.666425	-0.007868
1892	9.4550e-01	1.0858	-11.457150	0.000590	5.900891	0.999638	-0.011802
1893	9.4600e-01	1.0757	-11.513169	0.000560	5.601571	0.948932	-0.011204
1894	9.4650e-01	1.0647	-11.564056	0.000509	5.088450	0.862007	-0.010177
1895	9.4700e-01	1.0549	-11.597839	0.000338	3.378046	0.572257	-0.006756
1896	9.4750e-01	1.0464	-11.658134	0.000603	6.029171	1.021369	-0.012059
1897	9.4800e-01	1.0379	-11.721423	0.000633	6.328492	1.072076	-0.012658
1898	9.4850e-01	1.0271	-11.765896	0.000445	4.447048	0.753350	-0.008895
1899	9.4900e-01	1.0154	-11.830467	0.000646	6.456772	1.093807	-0.012914
1900	9.4950e-01	1.0056	-11.889479	0.000590	5.900891	0.999638	-0.011802
1901	9.5000e-01	0.9972	-11.918558	0.000291	2.907685	0.492575	-0.005816
1902	9.5050e-01	0.9851	-11.983985	0.000654	6.542292	1.108294	-0.013085
1903	9.5100e-01	0.9741	-12.010497	0.000265	2.651125	0.449113	-0.005303
1904	9.5150e-01	0.9659	-12.063523	0.000530	5.302250	0.898225	-0.010605
1905	9.5200e-01	0.9574	-12.122963	0.000594	5.943651	1.006882	-0.011888
1906	9.5250e-01	0.9454	-12.167008	0.000440	4.404288	0.746107	-0.008809
1907	9.5300e-01	0.9348	-12.236711	0.000697	6.969893	1.180732	-0.013941
1908	9.5350e-01	0.9269	-12.272632	0.000359	3.591847	0.608475	-0.007184
1909	9.5400e-01	0.9155	-12.328650	0.000560	5.601571	0.948932	-0.011204
1910	9.5450e-01	0.9053	-12.380821	0.000522	5.216730	0.883738	-0.010434
1911	9.5500e-01	0.8939	-12.429998	0.000492	4.917409	0.833032	-0.009835
1912	9.5550e-01	0.8865	-12.479602	0.000496	4.960169	0.840275	-0.009921
1913	9.5600e-01	0.8768	-12.542891	0.000633	6.328492	1.072076	-0.012658
1914	9.5650e-01	0.8678	-12.579667	0.000368	3.677367	0.622963	-0.007355
1915	9.5700e-01	0.8539	-12.652790	0.000731	7.311974	1.238682	-0.014625
1916	9.5750e-01	0.8456	-12.687428	0.000346	3.463567	0.586744	-0.006928
1917	9.5800e-01	0.8356	-12.742164	0.000547	5.473290	0.927200	-0.010947
1918	9.5850e-01	0.8242	-12.794334	0.000522	5.216730	0.883738	-0.010434
1919	9.5900e-01	0.8145	-12.857195	0.000629	6.285732	1.064832	-0.012572
1920	9.5950e-01	0.8043	-12.905945	0.000487	4.874649	0.825788	-0.009750
1921	9.6000e-01	0.7959	-12.940155	0.000342	3.420806	0.579500	-0.006842
1922	9.6050e-01	0.7850	-12.987193	0.000470	4.703609	0.796813	-0.009408
1923	9.6100e-01	0.7749	-13.041074	0.000539	5.387770	0.912713	-0.010776
1924	9.6150e-01	0.7645	-13.112060	0.000710	7.098173	1.202463	-0.014197
1925	9.6200e-01	0.7565	-13.150119	0.000381	3.805647	0.644694	-0.007612
1926	9.6250e-01	0.7451	-13.215973	0.000659	6.585052	1.115538	-0.013171
1927	9.6300e-01	0.7346	-13.267716	0.000517	5.173970	0.876494	-0.010349
1928	9.6350e-01	0.7240	-13.309623	0.000419	4.190488	0.709888	-0.008381
1929	9.6400e-01	0.7130	-13.376332	0.000667	6.670573	1.130026	-0.013342
1930	9.6450e-01	0.7044	-13.408404	0.000321	3.207006	0.543282	-0.006414
1931	9.6500e-01	0.6955	-13.461002	0.000526	5.259490	0.890982	-0.010520
1932	9.6550e-01	0.6843	-13.505048	0.000440	4.404288	0.746107	-0.008809
1933	9.6600e-01	0.6747	-13.547383	0.000423	4.233248	0.717132	-0.008467
1934	9.6650e-01	0.6651	-13.617085	0.000697	6.969893	1.180732	-0.013941
1935	9.6700e-01	0.6552	-13.671394	0.000543	5.430530	0.919957	-0.010862
1936	9.6750e-01	0.6426	-13.721854	0.000505	5.045690	0.854763	-0.010092
1937	9.6800e-01	0.6354	-13.779155	0.000573	5.729851	0.970663	-0.011460
1938	9.6850e-01	0.6240	-13.825767	0.000466	4.660849	0.789569	-0.009322
1939	9.6900e-01	0.6139	-13.892048	0.000663	6.627813	1.122782	-0.013256
1940	9.6950e-01	0.6056	-13.932673	0.000406	4.062208	0.688157	-0.008125
1941	9.7000e-01	0.5959	-13.987409	0.000547	5.473290	0.927200	-0.010947
1942	9.7050e-01	0.5850	-14.038296	0.000509	5.088450	0.862007	-0.010177
1943	9.7100e-01	0.5749	-14.089611	0.000513	5.131210	0.869250	-0.010263
1944	9.7150e-01	0.5661	-14.140499	0.000509	5.088450	0.862007	-0.010177
1945	9.7200e-01	0.5558	-14.213623	0.000731	7.311974	1.238682	-0.014625
1946	9.7250e-01	0.5446	-14.244412	0.000308	3.078726	0.521550	-0.006158
1947	9.7300e-01	0.5357	-14.283753	0.000393	3.933927	0.666425	-0.007868
1948	9.7350e-01	0.5267	-14.339345	0.000556	5.558810	0.941688	-0.011118
1949	9.7400e-01	0.5126	-14.420166	0.000808	8.081655	1.369069	-0.016164
1950	9.7450e-01	0.5035	-14.480888	0.000607	6.071931	1.028613	-0.012145
1951	9.7500e-01	0.4974	-14.504836	0.000239	2.394565	0.405650	-0.004789
1952	9.7550e-01	0.4858	-14.561282	0.000564	5.644331	0.956175	-0.011289
1953	9.7600e-01	0.4771	-14.616873	0.000556	5.558810	0.941688	-0.011118
1954	9.7650e-01	0.4649	-14.682300	0.000654	6.542292	1.108294	-0.013085
1955	9.7700e-01	0.4565	-14.724635	0.000423	4.233248	0.717132	-0.008467
1956	9.7750e-01	0.4462	-14.775950	0.000513	5.131210	0.869250	-0.010263
1957	9.7800e-01	0.4351	-14.826410	0.000505	5.045690	0.854763	-0.010092
1958	9.7850e-01	0.4246	-14.887988	0.000616	6.157452	1.043101	-0.012316
1959	9.7900e-01	0.4145	-14.942296	0.000543	5.430530	0.919957	-0.010862
1960	9.7950e-01	0.4056	-14.988052	0.000458	4.575329	0.775082	-0.009151
1961	9.8000e-01	0.3957	-15.039795	0.000517	5.173970	0.876494	-0.010349
1962	9.8050e-01	0.3848	-15.088116	0.000483	4.831889	0.818544	-0.009664
1963	9.8100e-01	0.3747	-15.147556	0.000594	5.943651	1.006882	-0.011888
1964	9.8150e-01	0.3638	-15.197588	0.000500	5.002929	0.847519	-0.010006
1965	9.8200e-01	0.3562	-15.257028	0.000594	5.943651	1.006882	-0.011888
1966	9.8250e-01	0.3456	-15.325021	0.000680	6.798853	1.151757	-0.013598
1967	9.8300e-01	0.3336	-15.359658	0.000346	3.463567	0.586744	-0.006928
1968	9.8350e-01	0.3255	-15.404987	0.000453	4.532569	0.767838	-0.009066
1969	9.8400e-01	0.3143	-15.472124	0.000671	6.713333	1.137269	-0.013427
1970	9.8450e-01	0.3040	-15.541827	0.000697	6.969893	1.180732	-0.013941
1971	9.8500e-01	0.2937	-15.578603	0.000368	3.677367	0.622963	-0.007355
1972	9.8550e-01	0.2840	-15.634621	0.000560	5.601571	0.948932	-0.011204
1973	9.8600e-01	0.2715	-15.690640	0.000560	5.601571	0.948932	-0.011204
1974	9.8650e-01	0.2685	-15.743666	0.000530	5.302250	0.898225	-0.010605
1975	9.8700e-01	0.2531	-15.786428	0.000428	4.276008	0.724375	-0.008553
1976	9.8750e-01	0.2449	-15.842020	0.000556	5.558810	0.941688	-0.011118
1977	9.8800e-01	0.2377	-15.886065	0.000440	4.404288	0.746107	-0.008809
1978	9.8850e-01	0.2249	-15.954913	0.000688	6.884373	1.166244	-0.013770
1979	9.8900e-01	0.2141	-15.998103	0.000432	4.318768	0.731619	-0.008638
1980	9.8950e-01	0.2084	-16.067378	0.000693	6.927133	1.173488	-0.013855
1981	9.9000e-01	0.1968	-16.110141	0.000428	4.276008	0.724375	-0.008553
1982	9.9050e-01	0.1859	-16.164877	0.000547	5.473290	0.927200	-0.010947
1983	9.9100e-01	0.1746	-16.226455	0.000616	6.157452	1.043101	-0.012316
1984	9.9150e-01	0.1633	-16.291454	0.000650	6.499532	1.101051	-0.013000
1985	9.9200e-01	0.1556	-16.329940	0.000385	3.848407	0.651938	-0.007697
1986	9.9250e-01	0.1432	-16.403064	0.000731	7.311974	1.238682	-0.014625
1987	9.9300e-01	0.1350	-16.438985	0.000359	3.591847	0.608475	-0.007184
1988	9.9350e-01	0.1269	-16.501846	0.000629	6.285732	1.064832	-0.012572
1989	9.9400e-01	0.1132	-16.541615	0.000398	3.976688	0.673669	-0.007954
1990	9.9450e-01	0.1062	-16.607041	0.000654	6.542292	1.108294	-0.013085
1991	9.9500e-01	0.0939	-16.662205	0.000552	5.516050	0.934444	-0.011033
1992	9.9550e-01	0.0861	-16.738750	0.000765	7.654054	1.296632	-0.015309
1993	9.9600e-01	0.0745	-16.762697	0.000239	2.394565	0.405650	-0.004789
1994	9.9650e-01	0.0673	-16.828124	0.000654	6.542292	1.108294	-0.013085
1995	9.9700e-01	0.0558	-16.877301	0.000492	4.917409	0.833032	-0.009835
1996	9.9750e-01	0.0455	-16.922629	0.000453	4.532569	0.767838	-0.009066
1997	9.9800e-01	0.0355	-16.967102	0.000445	4.447048	0.753350	-0.008895
1998	9.9850e-01	0.0259	-17.048778	0.000817	8.167175	1.383557	-0.016335
1999	9.9900e-01	0.0152	-17.088120	0.000393	3.933927	0.666425	-0.007868
2000	9.9950e-01	0.0032	-17.148843	0.000607	6.071931	1.028613	-0.012145
2001	1.0000e+00	-0.0040	-17.199730	0.000607	6.071931	1.028613	-0.010177

PMax (uC/cm2):	3.89e+01
Pr (uC/cm2):	2.27e+00
-Pr (uC/cm2):	0.00e+00
PLoss (uC/cm2):	0.00e+00
C (Max-Eff) (nF):	3.90e-01
K (Eff):	6.60e+02
Vert. (+/-Pr) Shift (uC/cm2):	1.13e+00
Offset (uC/cm2):	1.95e+01

A (Loop Area - uC/cm2·Volts):	-2.18e-02



Hysteresis Version: 5.48.1 - Radiant Technologies, Inc., 1999 - 9/12/24

