»»»»»»»»»»»»»»»»»»»»»»»»»»»»»»»»»»»» Hysteresis ««««««««««««««««««««««««««««««««««««
»»»  Executed Version:	5.48.1
»»»  Vision Version:	5.48.4 (R)
»»»  Vision Compiled:	9/18/24
»»»  Driver Version:	5.47.0
»»»  Windows Version:	Windows 8 or 8.1
»»»  Processor Information:	x86 (AMD or Intel) - 32 Processors
»»»  Tester Name:	PMF21124-494 (100V)
»»»  Tester S/N:	PMF21124-494
»»»  Internal Amp Type:	100V RevK 270k
»»»  Internal Amp S/N:	iAB2-596/K     
»»»  Execution Count:	1
»»»»»»»»»»»»»»»»»»»»»»»»»»»»»»»»»»»»»»»»»»««««««««««««««««««««««««««««««««««««««««««

Stored:	6/30/2025 - 17:2:27
Configured:	06/30/25 10:19:58 AM
Executed:	06/30/25 05:01:41 PM

»»»»»»»»»»»»»»»»»»»»»»»»»»»»»»»»»»» Sample Info ««««««««««««««««««««««««««««««««««««
Sample Name:	
Lot Name:	
Wafer Name:	
Die Row/Column:	0/0
Capacitor Number:	0
Sample Area (cm2):	1.00e-04
Sample Thickness (microns):	1.50e-01

Amplifier:	Internal

»»»»»»»»»»»»»»»»»»»»»»»»»»»»»»»»»»» Tester Info «««««««««««««««««««««««««««««««««««
Tester Name:	PMF21124-494 (100V)
Tester Serial Number:	PMF21124-494
Return Signal Amp. Level:	1.79 [Index: 2]

»»»»»»»»»»»»»»»»»»»»»»»»»»»»»»»» Hysteresis Info ««««««««««««««««««««««««««««««««««
Task Name:	Hyst-1804
Volts:	10.00
Field:	666.67 (kV/cm)
DCBias:	0.00
DCField:	0.00 (kV/cm)
Hysteresis Period (ms):	1.00e+00
Preset:	Enabled
Preset Delay (ms):	1.00e+03
Profile:	Standard Monopolar

»»»»»»»»»»»»»»»»»»»»»»»»»»»»»»»»»»»»»» Data «««««««««««««««««««««««««««««««««««««««
Points:	2001

Valid Data

Point	Time (ms)	Drive Voltage	Measured Polarization (uC/cm2)	Capacitance (uF)	Normalized Capacitance (uF/cm2)	Dielectric Constant	Instantaneous Current (mA)
   1	0.0000e+00	-0.0043	-20.988490	0.000676	6.755964	1.144491	0.013513
   2	5.0000e-04	0.0047	-20.920925	0.000676	6.755964	1.144491	0.013513
   3	1.0000e-03	0.0159	-20.891419	0.000295	2.950389	0.499809	0.005901
   4	1.5000e-03	0.0246	-20.828558	0.000629	6.285612	1.064811	0.012572
   5	2.0000e-03	0.0384	-20.787934	0.000406	4.062130	0.688143	0.008125
   6	2.5000e-03	0.0459	-20.743461	0.000445	4.446964	0.753336	0.008895
   7	3.0000e-03	0.0568	-20.678462	0.000650	6.499408	1.101030	0.013000
   8	3.5000e-03	0.0652	-20.639120	0.000393	3.933852	0.666413	0.007868
   9	4.0000e-03	0.0780	-20.567707	0.000714	7.140797	1.209684	0.014283
  10	4.5000e-03	0.0865	-20.525799	0.000419	4.190408	0.709874	0.008381
  11	5.0000e-03	0.0955	-20.471063	0.000547	5.473186	0.927183	0.010947
  12	5.5000e-03	0.1045	-20.432577	0.000385	3.848334	0.651925	0.007697
  13	6.0000e-03	0.1141	-20.385111	0.000475	4.746278	0.804041	0.009493
  14	6.5000e-03	0.1238	-20.317118	0.000680	6.798723	1.151735	0.013598
  15	7.0000e-03	0.1381	-20.270079	0.000470	4.703519	0.796798	0.009408
  16	7.5000e-03	0.1427	-20.200804	0.000693	6.927001	1.173466	0.013855
  17	8.0000e-03	0.1545	-20.162746	0.000381	3.805575	0.644682	0.007612
  18	8.5000e-03	0.1675	-20.116562	0.000462	4.618001	0.782310	0.009237
  19	9.0000e-03	0.1749	-20.064819	0.000517	5.173871	0.876477	0.010349
  20	9.5000e-03	0.1861	-20.004524	0.000603	6.029056	1.021350	0.012059
  21	1.0000e-02	0.1976	-19.948933	0.000556	5.558704	0.941670	0.011118
  22	1.0500e-02	0.2036	-19.907453	0.000415	4.147649	0.702631	0.008296
  23	1.1000e-02	0.2155	-19.861697	0.000458	4.575241	0.775067	0.009151
  24	1.1500e-02	0.2282	-19.794988	0.000667	6.670445	1.130004	0.013342
  25	1.2000e-02	0.2383	-19.752653	0.000423	4.233167	0.717118	0.008467
  26	1.2500e-02	0.2444	-19.694923	0.000577	5.772501	0.977888	0.011546
  27	1.3000e-02	0.2566	-19.660286	0.000346	3.463500	0.586733	0.006928
  28	1.3500e-02	0.2641	-19.593576	0.000667	6.670445	1.130004	0.013342
  29	1.4000e-02	0.2753	-19.549103	0.000445	4.446964	0.753336	0.008895
  30	1.4500e-02	0.2843	-19.494795	0.000543	5.430427	0.919939	0.010862
  31	1.5000e-02	0.2970	-19.433217	0.000616	6.157334	1.043081	0.012316
  32	1.5500e-02	0.3065	-19.397296	0.000359	3.591778	0.608464	0.007184
  33	1.6000e-02	0.3156	-19.338284	0.000590	5.900779	0.999619	0.011802
  34	1.6500e-02	0.3268	-19.288679	0.000496	4.960075	0.840259	0.009921
  35	1.7000e-02	0.3335	-19.237792	0.000509	5.088353	0.861990	0.010177
  36	1.7500e-02	0.3458	-19.177925	0.000599	5.986297	1.014106	0.011974
  37	1.8000e-02	0.3551	-19.137300	0.000406	4.062130	0.688143	0.008125
  38	1.8500e-02	0.3665	-19.079571	0.000577	5.772501	0.977888	0.011546
  39	1.9000e-02	0.3741	-19.020131	0.000594	5.943538	1.006863	0.011888
  40	1.9500e-02	0.3854	-18.970954	0.000492	4.917315	0.833016	0.009835
  41	2.0000e-02	0.3960	-18.917928	0.000530	5.302149	0.898208	0.010605
  42	2.0500e-02	0.4043	-18.873883	0.000440	4.404204	0.746092	0.008809
  43	2.1000e-02	0.4177	-18.817436	0.000564	5.644223	0.956157	0.011289
  44	2.1500e-02	0.4288	-18.771680	0.000458	4.575241	0.775067	0.009151
  45	2.2000e-02	0.4353	-18.716517	0.000552	5.515945	0.934426	0.011033
  46	2.2500e-02	0.4455	-18.639972	0.000765	7.653908	1.296607	0.015309
  47	2.3000e-02	0.4581	-18.616453	0.000235	2.351760	0.398399	0.004704
  48	2.3500e-02	0.4660	-18.554874	0.000616	6.157334	1.043081	0.012316
  49	2.4000e-02	0.4769	-18.513395	0.000415	4.147649	0.702631	0.008296
  50	2.4500e-02	0.4852	-18.453527	0.000599	5.986297	1.014106	0.011974
  51	2.5000e-02	0.4969	-18.403923	0.000496	4.960075	0.840259	0.009921
  52	2.5500e-02	0.5058	-18.368857	0.000351	3.506260	0.593976	0.007013
  53	2.6000e-02	0.5157	-18.310700	0.000582	5.815260	0.985132	0.011631
  54	2.6500e-02	0.5290	-18.249978	0.000607	6.071816	1.028593	0.012145
  55	2.7000e-02	0.5368	-18.204222	0.000458	4.575241	0.775067	0.009151
  56	2.7500e-02	0.5466	-18.140078	0.000641	6.413890	1.086542	0.012829
  57	2.8000e-02	0.5566	-18.096888	0.000432	4.318686	0.731605	0.008638
  58	2.8500e-02	0.5675	-18.036165	0.000607	6.071816	1.028593	0.012145
  59	2.9000e-02	0.5757	-17.985705	0.000505	5.045593	0.854747	0.010092
  60	2.9500e-02	0.5846	-17.941660	0.000440	4.404204	0.746092	0.008809
  61	3.0000e-02	0.5936	-17.873667	0.000680	6.798723	1.151735	0.013598
  62	3.0500e-02	0.6065	-17.838175	0.000355	3.549019	0.601220	0.007099
  63	3.1000e-02	0.6162	-17.773175	0.000650	6.499408	1.101030	0.013000
  64	3.1500e-02	0.6232	-17.738965	0.000342	3.420741	0.579489	0.006842
  65	3.2000e-02	0.6370	-17.685940	0.000530	5.302149	0.898208	0.010605
  66	3.2500e-02	0.6444	-17.623079	0.000629	6.285612	1.064811	0.012572
  67	3.3000e-02	0.6551	-17.561501	0.000616	6.157334	1.043081	0.012316
  68	3.3500e-02	0.6640	-17.519594	0.000419	4.190408	0.709874	0.008381
  69	3.4000e-02	0.6760	-17.468706	0.000509	5.088353	0.861990	0.010177
  70	3.4500e-02	0.6854	-17.409694	0.000590	5.900779	0.999619	0.011802
  71	3.5000e-02	0.6966	-17.369070	0.000406	4.062130	0.688143	0.008125
  72	3.5500e-02	0.7050	-17.314761	0.000543	5.430427	0.919939	0.010862
  73	3.6000e-02	0.7173	-17.260453	0.000543	5.430427	0.919939	0.010862
  74	3.6500e-02	0.7245	-17.213842	0.000466	4.660760	0.789554	0.009322
  75	3.7000e-02	0.7361	-17.162099	0.000517	5.173871	0.876477	0.010349
  76	3.7500e-02	0.7471	-17.109929	0.000522	5.216630	0.883721	0.010434
  77	3.8000e-02	0.7571	-17.054765	0.000552	5.515945	0.934426	0.011033
  78	3.8500e-02	0.7629	-16.999174	0.000556	5.558704	0.941670	0.011118
  79	3.9000e-02	0.7751	-16.958122	0.000410	4.104889	0.695387	0.008210
  80	3.9500e-02	0.7889	-16.908517	0.000496	4.960075	0.840259	0.009921
  81	4.0000e-02	0.7977	-16.862334	0.000462	4.618001	0.782310	0.009237
  82	4.0500e-02	0.8054	-16.796052	0.000663	6.627686	1.122760	0.013256
  83	4.1000e-02	0.8157	-16.757993	0.000381	3.805575	0.644682	0.007612
  84	4.1500e-02	0.8248	-16.693422	0.000646	6.456649	1.093786	0.012914
  85	4.2000e-02	0.8360	-16.641251	0.000522	5.216630	0.883721	0.010434
  86	4.2500e-02	0.8456	-16.583522	0.000577	5.772501	0.977888	0.011546
  87	4.3000e-02	0.8569	-16.539477	0.000440	4.404204	0.746092	0.008809
  88	4.3500e-02	0.8666	-16.484313	0.000552	5.515945	0.934426	0.011033
  89	4.4000e-02	0.8774	-16.444971	0.000393	3.933852	0.666413	0.007868
  90	4.4500e-02	0.8841	-16.373130	0.000718	7.183557	1.216927	0.014368
  91	4.5000e-02	0.8971	-16.336355	0.000368	3.677297	0.622951	0.007355
  92	4.5500e-02	0.9067	-16.293164	0.000432	4.318686	0.731605	0.008638
  93	4.6000e-02	0.9160	-16.229448	0.000637	6.371131	1.079299	0.012743
  94	4.6500e-02	0.9245	-16.181554	0.000479	4.789038	0.811285	0.009579
  95	4.7000e-02	0.9383	-16.131094	0.000505	5.045593	0.854747	0.010092
  96	4.7500e-02	0.9463	-16.086194	0.000449	4.489723	0.760580	0.008980
  97	4.8000e-02	0.9558	-16.029747	0.000564	5.644223	0.956157	0.011289
  98	4.8500e-02	0.9668	-15.985274	0.000445	4.446964	0.753336	0.008895
  99	4.9000e-02	0.9756	-15.934387	0.000509	5.088353	0.861990	0.010177
 100	4.9500e-02	0.9853	-15.872809	0.000616	6.157334	1.043081	0.012316
 101	5.0000e-02	0.9964	-15.818928	0.000539	5.387667	0.912696	0.010776
 102	5.0500e-02	1.0067	-15.768896	0.000500	5.002834	0.847503	0.010006
 103	5.1000e-02	1.0168	-15.713305	0.000556	5.558704	0.941670	0.011118
 104	5.1500e-02	1.0263	-15.662417	0.000509	5.088353	0.861990	0.010177
 105	5.2000e-02	1.0363	-15.623076	0.000393	3.933852	0.666413	0.007868
 106	5.2500e-02	1.0463	-15.564919	0.000582	5.815260	0.985132	0.011631
 107	5.3000e-02	1.0574	-15.518735	0.000462	4.618001	0.782310	0.009237
 108	5.3500e-02	1.0644	-15.457157	0.000616	6.157334	1.043081	0.012316
 109	5.4000e-02	1.0775	-15.411401	0.000458	4.575241	0.775067	0.009151
 110	5.4500e-02	1.0833	-15.369921	0.000415	4.147649	0.702631	0.008296
 111	5.5000e-02	1.0974	-15.306205	0.000637	6.371131	1.079299	0.012743
 112	5.5500e-02	1.1069	-15.266008	0.000402	4.019371	0.680900	0.008039
 113	5.6000e-02	1.1149	-15.202720	0.000633	6.328371	1.072055	0.012658
 114	5.6500e-02	1.1280	-15.156536	0.000462	4.618001	0.782310	0.009237
 115	5.7000e-02	1.1367	-15.118905	0.000376	3.762815	0.637438	0.007526
 116	5.7500e-02	1.1457	-15.067163	0.000517	5.173871	0.876477	0.010349
 117	5.8000e-02	1.1561	-15.004729	0.000624	6.242853	1.057568	0.012487
 118	5.8500e-02	1.1658	-14.955553	0.000492	4.917315	0.833016	0.009835
 119	5.9000e-02	1.1768	-14.901672	0.000539	5.387667	0.912696	0.010776
 120	5.9500e-02	1.1848	-14.846080	0.000556	5.558704	0.941670	0.011118
 121	6.0000e-02	1.1974	-14.800325	0.000458	4.575241	0.775067	0.009151
 122	6.0500e-02	1.2056	-14.745161	0.000552	5.515945	0.934426	0.011033
 123	6.1000e-02	1.2174	-14.692563	0.000526	5.259390	0.890965	0.010520
 124	6.1500e-02	1.2257	-14.648090	0.000445	4.446964	0.753336	0.008895
 125	6.2000e-02	1.2371	-14.602762	0.000453	4.532482	0.767823	0.009066
 126	6.2500e-02	1.2460	-14.556578	0.000462	4.618001	0.782310	0.009237
 127	6.3000e-02	1.2555	-14.507829	0.000487	4.874556	0.825772	0.009750
 128	6.3500e-02	1.2676	-14.447961	0.000599	5.986297	1.014106	0.011974
 129	6.4000e-02	1.2748	-14.404771	0.000432	4.318686	0.731605	0.008638
 130	6.4500e-02	1.2848	-14.325233	0.000795	7.953223	1.347313	0.015908
 131	6.5000e-02	1.2946	-14.300003	0.000252	2.522797	0.427373	0.005046
 132	6.5500e-02	1.3054	-14.240135	0.000599	5.986297	1.014106	0.011974
 133	6.6000e-02	1.3157	-14.189676	0.000505	5.045593	0.854747	0.010092
 134	6.6500e-02	1.3251	-14.149479	0.000402	4.019371	0.680900	0.008039
 135	6.7000e-02	1.3344	-14.087473	0.000620	6.200093	1.050324	0.012401
 136	6.7500e-02	1.3449	-14.046849	0.000406	4.062130	0.688143	0.008125
 137	6.8000e-02	1.3551	-13.990830	0.000560	5.601464	0.948914	0.011204
 138	6.8500e-02	1.3658	-13.944646	0.000462	4.618001	0.782310	0.009237
 139	6.9000e-02	1.3750	-13.890338	0.000543	5.430427	0.919939	0.010862
 140	6.9500e-02	1.3840	-13.841589	0.000487	4.874556	0.825772	0.009750
 141	7.0000e-02	1.3917	-13.787708	0.000539	5.387667	0.912696	0.010776
 142	7.0500e-02	1.4075	-13.743235	0.000445	4.446964	0.753336	0.008895
 143	7.1000e-02	1.4139	-13.684650	0.000586	5.858019	0.992375	0.011717
 144	7.1500e-02	1.4272	-13.638039	0.000466	4.660760	0.789554	0.009322
 145	7.2000e-02	1.4352	-13.580310	0.000577	5.772501	0.977888	0.011546
 146	7.2500e-02	1.4455	-13.534981	0.000453	4.532482	0.767823	0.009066
 147	7.3000e-02	1.4547	-13.482811	0.000522	5.216630	0.883721	0.010434
 148	7.3500e-02	1.4668	-13.435345	0.000475	4.746278	0.804041	0.009493
 149	7.4000e-02	1.4761	-13.387451	0.000479	4.789038	0.811285	0.009579
 150	7.4500e-02	1.4876	-13.332715	0.000547	5.473186	0.927183	0.010947
 151	7.5000e-02	1.4964	-13.290807	0.000419	4.190408	0.709874	0.008381
 152	7.5500e-02	1.5045	-13.236927	0.000539	5.387667	0.912696	0.010776
 153	7.6000e-02	1.5166	-13.178770	0.000582	5.815260	0.985132	0.011631
 154	7.6500e-02	1.5257	-13.126599	0.000522	5.216630	0.883721	0.010434
 155	7.7000e-02	1.5335	-13.065021	0.000616	6.157334	1.043081	0.012316
 156	7.7500e-02	1.5469	-13.036370	0.000286	2.864871	0.485322	0.005730
 157	7.8000e-02	1.5558	-12.984200	0.000522	5.216630	0.883721	0.010434
 158	7.8500e-02	1.5648	-12.936306	0.000479	4.789038	0.811285	0.009579
 159	7.9000e-02	1.5771	-12.881570	0.000547	5.473186	0.927183	0.010947
 160	7.9500e-02	1.5829	-12.828544	0.000530	5.302149	0.898208	0.010605
 161	8.0000e-02	1.5962	-12.782361	0.000462	4.618001	0.782310	0.009237
 162	8.0500e-02	1.6071	-12.727625	0.000547	5.473186	0.927183	0.010947
 163	8.1000e-02	1.6155	-12.673744	0.000539	5.387667	0.912696	0.010776
 164	8.1500e-02	1.6240	-12.622429	0.000513	5.131112	0.869234	0.010263
 165	8.2000e-02	1.6357	-12.592068	0.000304	3.035908	0.514297	0.006072
 166	8.2500e-02	1.6463	-12.525358	0.000667	6.670445	1.130004	0.013342
 167	8.3000e-02	1.6558	-12.482596	0.000428	4.275927	0.724362	0.008553
 168	8.3500e-02	1.6690	-12.408189	0.000744	7.440112	1.260389	0.014881
 169	8.4000e-02	1.6779	-12.376117	0.000321	3.206945	0.543271	0.006414
 170	8.4500e-02	1.6879	-12.322664	0.000534	5.344908	0.905452	0.010691
 171	8.5000e-02	1.6957	-12.282039	0.000406	4.062130	0.688143	0.008125
 172	8.5500e-02	1.7094	-12.226876	0.000552	5.515945	0.934426	0.011033
 173	8.6000e-02	1.7139	-12.179409	0.000475	4.746278	0.804041	0.009493
 174	8.6500e-02	1.7286	-12.142633	0.000368	3.677297	0.622951	0.007355
 175	8.7000e-02	1.7347	-12.078062	0.000646	6.456649	1.093786	0.012914
 176	8.7500e-02	1.7456	-12.034017	0.000440	4.404204	0.746092	0.008809
 177	8.8000e-02	1.7581	-11.977998	0.000560	5.601464	0.948914	0.011204
 178	8.8500e-02	1.7664	-11.933097	0.000449	4.489723	0.760580	0.008980
 179	8.9000e-02	1.7749	-11.879644	0.000534	5.344908	0.905452	0.010691
 180	8.9500e-02	1.7831	-11.830467	0.000492	4.917315	0.833016	0.009835
 181	9.0000e-02	1.7960	-11.780007	0.000505	5.045593	0.854747	0.010092
 182	9.0500e-02	1.8066	-11.723133	0.000569	5.686982	0.963401	0.011375
 183	9.1000e-02	1.8165	-11.684647	0.000385	3.848334	0.651925	0.007697
 184	9.1500e-02	1.8268	-11.614516	0.000701	7.012519	1.187953	0.014026
 185	9.2000e-02	1.8369	-11.585865	0.000286	2.864871	0.485322	0.005730
 186	9.2500e-02	1.8468	-11.518728	0.000671	6.713205	1.137248	0.013427
 187	9.3000e-02	1.8571	-11.483663	0.000351	3.506260	0.593976	0.007013
 188	9.3500e-02	1.8680	-11.436624	0.000470	4.703519	0.796798	0.009408
 189	9.4000e-02	1.8768	-11.390441	0.000462	4.618001	0.782310	0.009237
 190	9.4500e-02	1.8867	-11.332284	0.000582	5.815260	0.985132	0.011631
 191	9.5000e-02	1.8970	-11.274127	0.000582	5.815260	0.985132	0.011631
 192	9.5500e-02	1.9090	-11.237351	0.000368	3.677297	0.622951	0.007355
 193	9.6000e-02	1.9160	-11.180477	0.000569	5.686982	0.963401	0.011375
 194	9.6500e-02	1.9275	-11.141563	0.000389	3.891093	0.659169	0.007783
 195	9.7000e-02	1.9363	-11.100083	0.000415	4.147649	0.702631	0.008296
 196	9.7500e-02	1.9458	-11.042354	0.000577	5.772501	0.977888	0.011546
 197	9.8000e-02	1.9552	-10.987618	0.000547	5.473186	0.927183	0.010947
 198	9.8500e-02	1.9669	-10.929888	0.000577	5.772501	0.977888	0.011546
 199	9.9000e-02	1.9756	-10.879428	0.000505	5.045593	0.854747	0.010092
 200	9.9500e-02	1.9842	-10.834955	0.000445	4.446964	0.753336	0.008895
 201	1.0000e-01	1.9936	-10.788344	0.000466	4.660760	0.789554	0.009322
 202	1.0050e-01	2.0061	-10.736174	0.000522	5.216630	0.883721	0.010434
 203	1.0100e-01	2.0166	-10.680583	0.000556	5.558704	0.941670	0.011118
 204	1.0150e-01	2.0251	-10.642096	0.000385	3.848334	0.651925	0.007697
 205	1.0200e-01	2.0361	-10.589498	0.000526	5.259390	0.890965	0.010520
 206	1.0250e-01	2.0467	-10.548874	0.000406	4.062130	0.688143	0.008125
 207	1.0300e-01	2.0557	-10.495421	0.000534	5.344908	0.905452	0.010691
 208	1.0350e-01	2.0689	-10.450093	0.000453	4.532482	0.767823	0.009066
 209	1.0400e-01	2.0782	-10.386376	0.000637	6.371131	1.079299	0.012743
 210	1.0450e-01	2.0878	-10.336344	0.000500	5.002834	0.847503	0.010006
 211	1.0500e-01	2.0961	-10.294865	0.000415	4.147649	0.702631	0.008296
 212	1.0550e-01	2.1059	-10.252530	0.000423	4.233167	0.717118	0.008467
 213	1.0600e-01	2.1161	-10.221313	0.000312	3.121426	0.528784	0.006243
 214	1.0650e-01	2.1249	-10.140920	0.000804	8.038742	1.361800	0.016079
 215	1.0700e-01	2.1381	-10.108420	0.000325	3.249704	0.550515	0.006500
 216	1.0750e-01	2.1455	-10.044704	0.000637	6.371131	1.079299	0.012743
 217	1.0800e-01	2.1536	-10.004935	0.000398	3.976612	0.673656	0.007954
 218	1.0850e-01	2.1658	-9.965166	0.000398	3.976612	0.673656	0.007954
 219	1.0900e-01	2.1765	-9.898028	0.000671	6.713205	1.137248	0.013427
 220	1.0950e-01	2.1861	-9.857832	0.000402	4.019371	0.680900	0.008039
 221	1.1000e-01	2.1980	-9.823194	0.000346	3.463500	0.586733	0.006928
 222	1.1050e-01	2.2035	-9.744511	0.000787	7.867705	1.332825	0.015737
 223	1.1100e-01	2.2148	-9.708163	0.000363	3.634538	0.615707	0.007270
 224	1.1150e-01	2.2256	-9.654710	0.000534	5.344908	0.905452	0.010691
 225	1.1200e-01	2.2371	-9.613658	0.000410	4.104889	0.695387	0.008210
 226	1.1250e-01	2.2476	-9.565764	0.000479	4.789038	0.811285	0.009579
 227	1.1300e-01	2.2556	-9.514449	0.000513	5.131112	0.869234	0.010263
 228	1.1350e-01	2.2645	-9.456292	0.000582	5.815260	0.985132	0.011631
 229	1.1400e-01	2.2760	-9.419516	0.000368	3.677297	0.622951	0.007355
 230	1.1450e-01	2.2858	-9.385306	0.000342	3.420741	0.579489	0.006842
 231	1.1500e-01	2.2938	-9.305340	0.000800	7.995983	1.354556	0.015993
 232	1.1550e-01	2.3056	-9.282676	0.000227	2.266241	0.383912	0.004533
 233	1.1600e-01	2.3154	-9.224946	0.000577	5.772501	0.977888	0.011546
 234	1.1650e-01	2.3257	-9.163368	0.000616	6.157334	1.043081	0.012316
 235	1.1700e-01	2.3364	-9.131296	0.000321	3.206945	0.543271	0.006414
 236	1.1750e-01	2.3478	-9.065014	0.000663	6.627686	1.122760	0.013256
 237	1.1800e-01	2.3604	-9.029949	0.000351	3.506260	0.593976	0.007013
 238	1.1850e-01	2.3679	-8.989752	0.000402	4.019371	0.680900	0.008039
 239	1.1900e-01	2.3781	-8.919194	0.000706	7.055279	1.195197	0.014112
 240	1.1950e-01	2.3859	-8.887122	0.000321	3.206945	0.543271	0.006414
 241	1.2000e-01	2.3948	-8.839656	0.000475	4.746278	0.804041	0.009493
 242	1.2050e-01	2.4066	-8.789624	0.000500	5.002834	0.847503	0.010006
 243	1.2100e-01	2.4170	-8.753276	0.000363	3.634538	0.615707	0.007270
 244	1.2150e-01	2.4242	-8.685711	0.000676	6.755964	1.144491	0.013513
 245	1.2200e-01	2.4365	-8.656205	0.000295	2.950389	0.499809	0.005901
 246	1.2250e-01	2.4476	-8.605745	0.000505	5.045593	0.854747	0.010092
 247	1.2300e-01	2.4557	-8.548015	0.000577	5.772501	0.977888	0.011546
 248	1.2350e-01	2.4672	-8.507391	0.000406	4.062130	0.688143	0.008125
 249	1.2400e-01	2.4799	-8.449662	0.000577	5.772501	0.977888	0.011546
 250	1.2450e-01	2.4860	-8.403478	0.000462	4.618001	0.782310	0.009237
 251	1.2500e-01	2.5001	-8.362426	0.000410	4.104889	0.695387	0.008210
 252	1.2550e-01	2.5055	-8.319236	0.000432	4.318686	0.731605	0.008638
 253	1.2600e-01	2.5167	-8.256375	0.000629	6.285612	1.064811	0.012572
 254	1.2650e-01	2.5266	-8.226441	0.000299	2.993149	0.507053	0.005987
 255	1.2700e-01	2.5363	-8.164008	0.000624	6.242853	1.057568	0.012487
 256	1.2750e-01	2.5446	-8.106279	0.000577	5.772501	0.977888	0.011546
 257	1.2800e-01	2.5566	-8.083614	0.000227	2.266241	0.383912	0.004533
 258	1.2850e-01	2.5654	-8.023747	0.000599	5.986297	1.014106	0.011974
 259	1.2900e-01	2.5780	-7.983978	0.000398	3.976612	0.673656	0.007954
 260	1.2950e-01	2.5858	-7.914702	0.000693	6.927001	1.173466	0.013855
 261	1.3000e-01	2.5952	-7.886907	0.000278	2.779352	0.470835	0.005559
 262	1.3050e-01	2.6047	-7.847993	0.000389	3.891093	0.659169	0.007783
 263	1.3100e-01	2.6155	-7.764178	0.000838	8.380816	1.419749	0.016763
 264	1.3150e-01	2.6270	-7.738093	0.000261	2.608315	0.441861	0.005217
 265	1.3200e-01	2.6363	-7.683785	0.000543	5.430427	0.919939	0.010862
 266	1.3250e-01	2.6478	-7.636318	0.000475	4.746278	0.804041	0.009493
 267	1.3300e-01	2.6567	-7.596977	0.000393	3.933852	0.666413	0.007868
 268	1.3350e-01	2.6664	-7.532833	0.000641	6.413890	1.086542	0.012829
 269	1.3400e-01	2.6761	-7.492636	0.000402	4.019371	0.680900	0.008039
 270	1.3450e-01	2.6866	-7.453722	0.000389	3.891093	0.659169	0.007783
 271	1.3500e-01	2.6956	-7.384447	0.000693	6.927001	1.173466	0.013855
 272	1.3550e-01	2.7066	-7.342112	0.000423	4.233167	0.717118	0.008467
 273	1.3600e-01	2.7161	-7.295929	0.000462	4.618001	0.782310	0.009237
 274	1.3650e-01	2.7275	-7.244186	0.000517	5.173871	0.876477	0.010349
 275	1.3700e-01	2.7353	-7.212969	0.000312	3.121426	0.528784	0.006243
 276	1.3750e-01	2.7457	-7.171062	0.000419	4.190408	0.709874	0.008381
 277	1.3800e-01	2.7567	-7.121030	0.000500	5.002834	0.847503	0.010006
 278	1.3850e-01	2.7670	-7.073136	0.000479	4.789038	0.811285	0.009579
 279	1.3900e-01	2.7772	-7.035932	0.000372	3.720056	0.630195	0.007441
 280	1.3950e-01	2.7850	-6.965374	0.000706	7.055279	1.195197	0.014112
 281	1.4000e-01	2.7986	-6.935441	0.000299	2.993149	0.507053	0.005987
 282	1.4050e-01	2.8079	-6.864882	0.000706	7.055279	1.195197	0.014112
 283	1.4100e-01	2.8119	-6.840508	0.000244	2.437278	0.412886	0.004875
 284	1.4150e-01	2.8271	-6.789620	0.000509	5.088353	0.861990	0.010177
 285	1.4200e-01	2.8366	-6.746003	0.000436	4.361445	0.738849	0.008724
 286	1.4250e-01	2.8450	-6.683569	0.000624	6.242853	1.057568	0.012487
 287	1.4300e-01	2.8558	-6.645083	0.000385	3.848334	0.651925	0.007697
 288	1.4350e-01	2.8659	-6.598044	0.000470	4.703519	0.796798	0.009408
 289	1.4400e-01	2.8741	-6.552716	0.000453	4.532482	0.767823	0.009066
 290	1.4450e-01	2.8854	-6.503539	0.000492	4.917315	0.833016	0.009835
 291	1.4500e-01	2.8967	-6.459921	0.000436	4.361445	0.738849	0.008724
 292	1.4550e-01	2.9053	-6.399198	0.000607	6.071816	1.028593	0.012145
 293	1.4600e-01	2.9188	-6.364988	0.000342	3.420741	0.579489	0.006842
 294	1.4650e-01	2.9262	-6.323936	0.000410	4.104889	0.695387	0.008210
 295	1.4700e-01	2.9361	-6.268773	0.000552	5.515945	0.934426	0.011033
 296	1.4750e-01	2.9463	-6.211899	0.000569	5.686982	0.963401	0.011375
 297	1.4800e-01	2.9578	-6.187524	0.000244	2.437278	0.412886	0.004875
 298	1.4850e-01	2.9646	-6.139630	0.000479	4.789038	0.811285	0.009579
 299	1.4900e-01	2.9741	-6.084039	0.000556	5.558704	0.941670	0.011118
 300	1.4950e-01	2.9829	-6.037855	0.000462	4.618001	0.782310	0.009237
 301	1.5000e-01	2.9987	-5.992954	0.000449	4.489723	0.760580	0.008980
 302	1.5050e-01	3.0040	-5.938646	0.000543	5.430427	0.919939	0.010862
 303	1.5100e-01	3.0157	-5.896311	0.000423	4.233167	0.717118	0.008467
 304	1.5150e-01	3.0237	-5.844568	0.000517	5.173871	0.876477	0.010349
 305	1.5200e-01	3.0362	-5.800951	0.000436	4.361445	0.738849	0.008724
 306	1.5250e-01	3.0441	-5.752201	0.000487	4.874556	0.825772	0.009750
 307	1.5300e-01	3.0560	-5.719274	0.000329	3.292463	0.557758	0.006585
 308	1.5350e-01	3.0658	-5.661972	0.000573	5.729742	0.970644	0.011460
 309	1.5400e-01	3.0774	-5.615789	0.000462	4.618001	0.782310	0.009237
 310	1.5450e-01	3.0847	-5.569605	0.000462	4.618001	0.782310	0.009237
 311	1.5500e-01	3.0959	-5.528553	0.000410	4.104889	0.695387	0.008210
 312	1.5550e-01	3.1064	-5.482797	0.000458	4.575241	0.775067	0.009151
 313	1.5600e-01	3.1180	-5.438752	0.000440	4.404204	0.746092	0.008809
 314	1.5650e-01	3.1277	-5.384016	0.000547	5.473186	0.927183	0.010947
 315	1.5700e-01	3.1360	-5.339971	0.000440	4.404204	0.746092	0.008809
 316	1.5750e-01	3.1464	-5.297636	0.000423	4.233167	0.717118	0.008467
 317	1.5800e-01	3.1567	-5.244610	0.000530	5.302149	0.898208	0.010605
 318	1.5850e-01	3.1650	-5.209545	0.000351	3.506260	0.593976	0.007013
 319	1.5900e-01	3.1754	-5.155664	0.000539	5.387667	0.912696	0.010776
 320	1.5950e-01	3.1857	-5.118033	0.000376	3.762815	0.637438	0.007526
 321	1.6000e-01	3.1982	-5.059021	0.000590	5.900779	0.999619	0.011802
 322	1.6050e-01	3.2053	-5.016258	0.000428	4.275927	0.724362	0.008553
 323	1.6100e-01	3.2149	-4.975206	0.000410	4.104889	0.695387	0.008210
 324	1.6150e-01	3.2263	-4.923891	0.000513	5.131112	0.869234	0.010263
 325	1.6200e-01	3.2379	-4.885405	0.000385	3.848334	0.651925	0.007697
 326	1.6250e-01	3.2474	-4.840077	0.000453	4.532482	0.767823	0.009066
 327	1.6300e-01	3.2574	-4.798169	0.000419	4.190408	0.709874	0.008381
 328	1.6350e-01	3.2645	-4.745144	0.000530	5.302149	0.898208	0.010605
 329	1.6400e-01	3.2758	-4.703237	0.000419	4.190408	0.709874	0.008381
 330	1.6450e-01	3.2851	-4.664323	0.000389	3.891093	0.659169	0.007783
 331	1.6500e-01	3.2912	-4.604028	0.000603	6.029056	1.021350	0.012059
 332	1.6550e-01	3.3078	-4.565969	0.000381	3.805575	0.644682	0.007612
 333	1.6600e-01	3.3160	-4.512943	0.000530	5.302149	0.898208	0.010605
 334	1.6650e-01	3.3275	-4.477450	0.000355	3.549019	0.601220	0.007099
 335	1.6700e-01	3.3363	-4.427846	0.000496	4.960075	0.840259	0.009921
 336	1.6750e-01	3.3484	-4.380380	0.000475	4.746278	0.804041	0.009493
 337	1.6800e-01	3.3549	-4.339327	0.000410	4.104889	0.695387	0.008210
 338	1.6850e-01	3.3652	-4.288440	0.000509	5.088353	0.861990	0.010177
 339	1.6900e-01	3.3759	-4.238836	0.000496	4.960075	0.840259	0.009921
 340	1.6950e-01	3.3862	-4.197356	0.000415	4.147649	0.702631	0.008296
 341	1.7000e-01	3.3981	-4.151600	0.000458	4.575241	0.775067	0.009151
 342	1.7050e-01	3.4045	-4.102851	0.000487	4.874556	0.825772	0.009750
 343	1.7100e-01	3.4171	-4.060088	0.000428	4.275927	0.724362	0.008553
 344	1.7150e-01	3.4286	-4.016470	0.000436	4.361445	0.738849	0.008724
 345	1.7200e-01	3.4363	-3.975418	0.000410	4.104889	0.695387	0.008210
 346	1.7250e-01	3.4464	-3.935649	0.000398	3.976612	0.673656	0.007954
 347	1.7300e-01	3.4541	-3.875354	0.000603	6.029056	1.021350	0.012059
 348	1.7350e-01	3.4675	-3.839434	0.000359	3.591778	0.608464	0.007184
 349	1.7400e-01	3.4753	-3.788974	0.000505	5.045593	0.854747	0.010092
 350	1.7450e-01	3.4839	-3.735093	0.000539	5.387667	0.912696	0.010776
 351	1.7500e-01	3.4943	-3.706442	0.000286	2.864871	0.485322	0.005730
 352	1.7550e-01	3.5052	-3.643154	0.000633	6.328371	1.072055	0.012658
 353	1.7600e-01	3.5156	-3.614075	0.000291	2.907630	0.492566	0.005816
 354	1.7650e-01	3.5266	-3.573023	0.000410	4.104889	0.695387	0.008210
 355	1.7700e-01	3.5383	-3.531971	0.000410	4.104889	0.695387	0.008210
 356	1.7750e-01	3.5468	-3.464834	0.000671	6.713205	1.137248	0.013427
 357	1.7800e-01	3.5542	-3.441742	0.000231	2.309000	0.391155	0.004618
 358	1.7850e-01	3.5675	-3.397697	0.000440	4.404204	0.746092	0.008809
 359	1.7900e-01	3.5785	-3.356217	0.000415	4.147649	0.702631	0.008296
 360	1.7950e-01	3.5852	-3.305757	0.000505	5.045593	0.854747	0.010092
 361	1.8000e-01	3.5983	-3.263422	0.000423	4.233167	0.717118	0.008467
 362	1.8050e-01	3.6039	-3.199706	0.000637	6.371131	1.079299	0.012743
 363	1.8100e-01	3.6165	-3.159937	0.000398	3.976612	0.673656	0.007954
 364	1.8150e-01	3.6258	-3.126582	0.000334	3.335223	0.565002	0.006671
 365	1.8200e-01	3.6359	-3.073984	0.000526	5.259390	0.890965	0.010520
 366	1.8250e-01	3.6469	-3.035926	0.000381	3.805575	0.644682	0.007612
 367	1.8300e-01	3.6557	-2.979479	0.000564	5.644223	0.956157	0.011289
 368	1.8350e-01	3.6670	-2.932440	0.000470	4.703519	0.796798	0.009408
 369	1.8400e-01	3.6755	-2.895665	0.000368	3.677297	0.622951	0.007355
 370	1.8450e-01	3.6871	-2.855040	0.000406	4.062130	0.688143	0.008125
 371	1.8500e-01	3.6996	-2.810139	0.000449	4.489723	0.760580	0.008980
 372	1.8550e-01	3.7056	-2.762245	0.000479	4.789038	0.811285	0.009579
 373	1.8600e-01	3.7168	-2.728891	0.000334	3.335223	0.565002	0.006671
 374	1.8650e-01	3.7266	-2.686983	0.000419	4.190408	0.709874	0.008381
 375	1.8700e-01	3.7347	-2.635241	0.000517	5.173871	0.876477	0.010349
 376	1.8750e-01	3.7463	-2.602741	0.000325	3.249704	0.550515	0.006500
 377	1.8800e-01	3.7610	-2.551854	0.000509	5.088353	0.861990	0.010177
 378	1.8850e-01	3.7659	-2.502677	0.000492	4.917315	0.833016	0.009835
 379	1.8900e-01	3.7762	-2.455211	0.000475	4.746278	0.804041	0.009493
 380	1.8950e-01	3.7885	-2.421856	0.000334	3.335223	0.565002	0.006671
 381	1.9000e-01	3.7946	-2.363271	0.000586	5.858019	0.992375	0.011717
 382	1.9050e-01	3.8042	-2.335048	0.000282	2.822112	0.478079	0.005645
 383	1.9100e-01	3.8139	-2.283305	0.000517	5.173871	0.876477	0.010349
 384	1.9150e-01	3.8289	-2.242253	0.000410	4.104889	0.695387	0.008210
 385	1.9200e-01	3.8344	-2.199491	0.000428	4.275927	0.724362	0.008553
 386	1.9250e-01	3.8458	-2.155873	0.000436	4.361445	0.738849	0.008724
 387	1.9300e-01	3.8617	-2.102420	0.000534	5.344908	0.905452	0.010691
 388	1.9350e-01	3.8672	-2.075479	0.000269	2.693834	0.456348	0.005388
 389	1.9400e-01	3.8782	-2.022026	0.000534	5.344908	0.905452	0.010691
 390	1.9450e-01	3.8879	-1.977981	0.000440	4.404204	0.746092	0.008809
 391	1.9500e-01	3.8969	-1.927949	0.000500	5.002834	0.847503	0.010006
 392	1.9550e-01	3.9050	-1.887324	0.000406	4.062130	0.688143	0.008125
 393	1.9600e-01	3.9182	-1.853969	0.000334	3.335223	0.565002	0.006671
 394	1.9650e-01	3.9249	-1.785122	0.000688	6.884242	1.166222	0.013770
 395	1.9700e-01	3.9359	-1.747918	0.000372	3.720056	0.630195	0.007441
 396	1.9750e-01	3.9459	-1.710715	0.000372	3.720056	0.630195	0.007441
 397	1.9800e-01	3.9575	-1.658117	0.000526	5.259390	0.890965	0.010520
 398	1.9850e-01	3.9656	-1.637163	0.000210	2.095204	0.354937	0.004191
 399	1.9900e-01	3.9761	-1.579434	0.000577	5.772501	0.977888	0.011546
 400	1.9950e-01	3.9862	-1.534533	0.000449	4.489723	0.760580	0.008980
 401	2.0000e-01	3.9967	-1.483218	0.000513	5.131112	0.869234	0.010263
 402	2.0050e-01	4.0057	-1.447725	0.000355	3.549019	0.601220	0.007099
 403	2.0100e-01	4.0182	-1.422068	0.000257	2.565556	0.434617	0.005132
 404	2.0150e-01	4.0266	-1.367759	0.000543	5.430427	0.919939	0.010862
 405	2.0200e-01	4.0361	-1.313451	0.000543	5.430427	0.919939	0.010862
 406	2.0250e-01	4.0488	-1.289076	0.000244	2.437278	0.412886	0.004875
 407	2.0300e-01	4.0567	-1.233057	0.000560	5.601464	0.948914	0.011204
 408	2.0350e-01	4.0643	-1.185591	0.000475	4.746278	0.804041	0.009493
 409	2.0400e-01	4.0735	-1.144111	0.000415	4.147649	0.702631	0.008296
 410	2.0450e-01	4.0847	-1.106053	0.000381	3.805575	0.644682	0.007612
 411	2.0500e-01	4.0912	-1.046613	0.000594	5.943538	1.006863	0.011888
 412	2.0550e-01	4.1029	-1.008982	0.000376	3.762815	0.637438	0.007526
 413	2.0600e-01	4.1162	-0.993587	0.000154	1.539334	0.260770	0.003079
 414	2.0650e-01	4.1260	-0.948687	0.000449	4.489723	0.760580	0.008980
 415	2.0700e-01	4.1376	-0.889247	0.000594	5.943538	1.006863	0.011888
 416	2.0750e-01	4.1437	-0.848195	0.000410	4.104889	0.695387	0.008210
 417	2.0800e-01	4.1565	-0.798590	0.000496	4.960075	0.840259	0.009921
 418	2.0850e-01	4.1669	-0.761814	0.000368	3.677297	0.622951	0.007355
 419	2.0900e-01	4.1788	-0.728032	0.000338	3.377982	0.572246	0.006756
 420	2.0950e-01	4.1876	-0.671585	0.000564	5.644223	0.956157	0.011289
 421	2.1000e-01	4.1940	-0.623264	0.000483	4.831797	0.818529	0.009664
 422	2.1050e-01	4.2062	-0.577080	0.000462	4.618001	0.782310	0.009237
 423	2.1100e-01	4.2175	-0.549712	0.000274	2.736593	0.463591	0.005474
 424	2.1150e-01	4.2265	-0.496687	0.000530	5.302149	0.898208	0.010605
 425	2.1200e-01	4.2379	-0.467608	0.000291	2.907630	0.492566	0.005816
 426	2.1250e-01	4.2444	-0.416293	0.000513	5.131112	0.869234	0.010263
 427	2.1300e-01	4.2566	-0.377807	0.000385	3.848334	0.651925	0.007697
 428	2.1350e-01	4.2670	-0.335472	0.000423	4.233167	0.717118	0.008467
 429	2.1400e-01	4.2781	-0.278170	0.000573	5.729742	0.970644	0.011460
 430	2.1450e-01	4.2874	-0.247381	0.000308	3.078667	0.521540	0.006158
 431	2.1500e-01	4.2995	-0.206757	0.000406	4.062130	0.688143	0.008125
 432	2.1550e-01	4.3054	-0.159718	0.000470	4.703519	0.796798	0.009408
 433	2.1600e-01	4.3170	-0.128501	0.000312	3.121426	0.528784	0.006243
 434	2.1650e-01	4.3251	-0.093436	0.000351	3.506260	0.593976	0.007013
 435	2.1700e-01	4.3369	-0.036990	0.000564	5.644223	0.956157	0.011289
 436	2.1750e-01	4.3457	0.001069	0.000381	3.805575	0.644682	0.007612
 437	2.1800e-01	4.3585	0.044687	0.000436	4.361445	0.738849	0.008724
 438	2.1850e-01	4.3673	0.087022	0.000423	4.233167	0.717118	0.008467
 439	2.1900e-01	4.3762	0.151593	0.000646	6.456649	1.093786	0.012914
 440	2.1950e-01	4.3878	0.174685	0.000231	2.309000	0.391155	0.004618
 441	2.2000e-01	4.3976	0.228566	0.000539	5.387667	0.912696	0.010776
 442	2.2050e-01	4.4044	0.270473	0.000419	4.190408	0.709874	0.008381
 443	2.2100e-01	4.4168	0.306394	0.000359	3.591778	0.608464	0.007184
 444	2.2150e-01	4.4244	0.344025	0.000376	3.762815	0.637438	0.007526
 445	2.2200e-01	4.4373	0.391063	0.000470	4.703519	0.796798	0.009408
 446	2.2250e-01	4.4470	0.437674	0.000466	4.660760	0.789554	0.009322
 447	2.2300e-01	4.4568	0.476161	0.000385	3.848334	0.651925	0.007697
 448	2.2350e-01	4.4672	0.510798	0.000346	3.463500	0.586733	0.006928
 449	2.2400e-01	4.4772	0.563396	0.000526	5.259390	0.890965	0.010520
 450	2.2450e-01	4.4873	0.589481	0.000261	2.608315	0.441861	0.005217
 451	2.2500e-01	4.4958	0.642079	0.000526	5.259390	0.890965	0.010520
 452	2.2550e-01	4.5048	0.680138	0.000381	3.805575	0.644682	0.007612
 453	2.2600e-01	4.5163	0.730598	0.000505	5.045593	0.854747	0.010092
 454	2.2650e-01	4.5270	0.766091	0.000355	3.549019	0.601220	0.007099
 455	2.2700e-01	4.5392	0.814412	0.000483	4.831797	0.818529	0.009664
 456	2.2750e-01	4.5472	0.849905	0.000355	3.549019	0.601220	0.007099
 457	2.2800e-01	4.5601	0.881977	0.000321	3.206945	0.543271	0.006414
 458	2.2850e-01	4.5674	0.940134	0.000582	5.815260	0.985132	0.011631
 459	2.2900e-01	4.5770	0.969213	0.000291	2.907630	0.492566	0.005816
 460	2.2950e-01	4.5853	1.020528	0.000513	5.131112	0.869234	0.010263
 461	2.3000e-01	4.5974	1.066711	0.000462	4.618001	0.782310	0.009237
 462	2.3050e-01	4.6057	1.105198	0.000385	3.848334	0.651925	0.007697
 463	2.3100e-01	4.6179	1.142829	0.000376	3.762815	0.637438	0.007526
 464	2.3150e-01	4.6289	1.180460	0.000376	3.762815	0.637438	0.007526
 465	2.3200e-01	4.6368	1.213387	0.000329	3.292463	0.557758	0.006585
 466	2.3250e-01	4.6454	1.257860	0.000445	4.446964	0.753336	0.008895
 467	2.3300e-01	4.6558	1.298484	0.000406	4.062130	0.688143	0.008125
 468	2.3350e-01	4.6677	1.354075	0.000556	5.558704	0.941670	0.011118
 469	2.3400e-01	4.6783	1.394700	0.000406	4.062130	0.688143	0.008125
 470	2.3450e-01	4.6852	1.417364	0.000227	2.266241	0.383912	0.004533
 471	2.3500e-01	4.6950	1.469534	0.000522	5.216630	0.883721	0.010434
 472	2.3550e-01	4.7055	1.522987	0.000534	5.344908	0.905452	0.010691
 473	2.3600e-01	4.7171	1.576013	0.000530	5.302149	0.898208	0.010605
 474	2.3650e-01	4.7260	1.589697	0.000137	1.368296	0.231796	0.002737
 475	2.3700e-01	4.7369	1.644005	0.000543	5.430427	0.919939	0.010862
 476	2.3750e-01	4.7443	1.682492	0.000385	3.848334	0.651925	0.007697
 477	2.3800e-01	4.7565	1.716702	0.000342	3.420741	0.579489	0.006842
 478	2.3850e-01	4.7653	1.767589	0.000509	5.088353	0.861990	0.010177
 479	2.3900e-01	4.7754	1.799233	0.000316	3.164186	0.536028	0.006329
 480	2.3950e-01	4.7858	1.840285	0.000410	4.104889	0.695387	0.008210
 481	2.4000e-01	4.7968	1.874495	0.000342	3.420741	0.579489	0.006842
 482	2.4050e-01	4.8050	1.936929	0.000624	6.242853	1.057568	0.012487
 483	2.4100e-01	4.8157	1.978836	0.000419	4.190408	0.709874	0.008381
 484	2.4150e-01	4.8297	2.013901	0.000351	3.506260	0.593976	0.007013
 485	2.4200e-01	4.8370	2.053670	0.000398	3.976612	0.673656	0.007954
 486	2.4250e-01	4.8479	2.087025	0.000334	3.335223	0.565002	0.006671
 487	2.4300e-01	4.8575	2.128077	0.000410	4.104889	0.695387	0.008210
 488	2.4350e-01	4.8672	2.164425	0.000363	3.634538	0.615707	0.007270
 489	2.4400e-01	4.8752	2.223438	0.000590	5.900779	0.999619	0.011802
 490	2.4450e-01	4.8877	2.268338	0.000449	4.489723	0.760580	0.008980
 491	2.4500e-01	4.8975	2.293568	0.000252	2.522797	0.427373	0.005046
 492	2.4550e-01	4.9062	2.323930	0.000304	3.035908	0.514297	0.006072
 493	2.4600e-01	4.9176	2.372251	0.000483	4.831797	0.818529	0.009664
 494	2.4650e-01	4.9268	2.421000	0.000487	4.874556	0.825772	0.009750
 495	2.4700e-01	4.9380	2.446230	0.000252	2.522797	0.427373	0.005046
 496	2.4750e-01	4.9490	2.491131	0.000449	4.489723	0.760580	0.008980
 497	2.4800e-01	4.9573	2.522775	0.000316	3.164186	0.536028	0.006329
 498	2.4850e-01	4.9670	2.580505	0.000577	5.772501	0.977888	0.011546
 499	2.4900e-01	4.9780	2.612577	0.000321	3.206945	0.543271	0.006414
 500	2.4950e-01	4.9884	2.658333	0.000458	4.575241	0.775067	0.009151
 501	2.5000e-01	4.9982	2.712641	0.000543	5.430427	0.919939	0.010862
 502	2.5050e-01	5.0055	2.744713	0.000321	3.206945	0.543271	0.006414
 503	2.5100e-01	5.0159	2.795173	0.000505	5.045593	0.854747	0.010092
 504	2.5150e-01	5.0299	2.824251	0.000291	2.907630	0.492566	0.005816
 505	2.5200e-01	5.0381	2.846488	0.000222	2.223482	0.376668	0.004447
 506	2.5250e-01	5.0479	2.906783	0.000603	6.029056	1.021350	0.012059
 507	2.5300e-01	5.0552	2.941420	0.000346	3.463500	0.586733	0.006928
 508	2.5350e-01	5.0668	2.975203	0.000338	3.377982	0.572246	0.006756
 509	2.5400e-01	5.0751	3.023097	0.000479	4.789038	0.811285	0.009579
 510	2.5450e-01	5.0864	3.045333	0.000222	2.223482	0.376668	0.004447
 511	2.5500e-01	5.0954	3.098359	0.000530	5.302149	0.898208	0.010605
 512	2.5550e-01	5.1062	3.132569	0.000342	3.420741	0.579489	0.006842
 513	2.5600e-01	5.1169	3.178752	0.000462	4.618001	0.782310	0.009237
 514	2.5650e-01	5.1240	3.217666	0.000389	3.891093	0.659169	0.007783
 515	2.5700e-01	5.1350	3.268981	0.000513	5.131112	0.869234	0.010263
 516	2.5750e-01	5.1450	3.298060	0.000291	2.907630	0.492566	0.005816
 517	2.5800e-01	5.1569	3.330559	0.000325	3.249704	0.550515	0.006500
 518	2.5850e-01	5.1674	3.371611	0.000410	4.104889	0.695387	0.008210
 519	2.5900e-01	5.1759	3.416512	0.000449	4.489723	0.760580	0.008980
 520	2.5950e-01	5.1850	3.458847	0.000423	4.233167	0.717118	0.008467
 521	2.6000e-01	5.1974	3.499899	0.000410	4.104889	0.695387	0.008210
 522	2.6050e-01	5.2081	3.545655	0.000458	4.575241	0.775067	0.009151
 523	2.6100e-01	5.2167	3.571740	0.000261	2.608315	0.441861	0.005217
 524	2.6150e-01	5.2243	3.616641	0.000449	4.489723	0.760580	0.008980
 525	2.6200e-01	5.2393	3.650423	0.000338	3.377982	0.572246	0.006756
 526	2.6250e-01	5.2466	3.690192	0.000398	3.976612	0.673656	0.007954
 527	2.6300e-01	5.2560	3.751770	0.000616	6.157334	1.043081	0.012316
 528	2.6350e-01	5.2661	3.777855	0.000261	2.608315	0.441861	0.005217
 529	2.6400e-01	5.2778	3.814631	0.000368	3.677297	0.622951	0.007355
 530	2.6450e-01	5.2838	3.859960	0.000453	4.532482	0.767823	0.009066
 531	2.6500e-01	5.2939	3.895452	0.000355	3.549019	0.601220	0.007099
 532	2.6550e-01	5.3088	3.930518	0.000351	3.506260	0.593976	0.007013
 533	2.6600e-01	5.3175	3.971997	0.000415	4.147649	0.702631	0.008296
 534	2.6650e-01	5.3278	4.020319	0.000483	4.831797	0.818529	0.009664
 535	2.6700e-01	5.3378	4.049825	0.000295	2.950389	0.499809	0.005901
 536	2.6750e-01	5.3455	4.079331	0.000295	2.950389	0.499809	0.005901
 537	2.6800e-01	5.3554	4.122094	0.000428	4.275927	0.724362	0.008553
 538	2.6850e-01	5.3656	4.167422	0.000453	4.532482	0.767823	0.009066
 539	2.6900e-01	5.3754	4.195218	0.000278	2.779352	0.470835	0.005559
 540	2.6950e-01	5.3836	4.260217	0.000650	6.499408	1.101030	0.013000
 541	2.7000e-01	5.3986	4.282453	0.000222	2.223482	0.376668	0.004447
 542	2.7050e-01	5.4059	4.313670	0.000312	3.121426	0.528784	0.006243
 543	2.7100e-01	5.4144	4.344031	0.000304	3.035908	0.514297	0.006072
 544	2.7150e-01	5.4272	4.391925	0.000479	4.789038	0.811285	0.009579
 545	2.7200e-01	5.4358	4.437681	0.000458	4.575241	0.775067	0.009151
 546	2.7250e-01	5.4449	4.481727	0.000440	4.404204	0.746092	0.008809
 547	2.7300e-01	5.4549	4.517647	0.000359	3.591778	0.608464	0.007184
 548	2.7350e-01	5.4657	4.565541	0.000479	4.789038	0.811285	0.009579
 549	2.7400e-01	5.4756	4.605310	0.000398	3.976612	0.673656	0.007954
 550	2.7450e-01	5.4874	4.622415	0.000171	1.710371	0.289745	0.003421
 551	2.7500e-01	5.4984	4.675013	0.000526	5.259390	0.890965	0.010520
 552	2.7550e-01	5.5049	4.731887	0.000569	5.686982	0.963401	0.011375
 553	2.7600e-01	5.5157	4.768236	0.000363	3.634538	0.615707	0.007270
 554	2.7650e-01	5.5261	4.790900	0.000227	2.266241	0.383912	0.004533
 555	2.7700e-01	5.5371	4.840077	0.000492	4.917315	0.833016	0.009835
 556	2.7750e-01	5.5457	4.871293	0.000312	3.121426	0.528784	0.006243
 557	2.7800e-01	5.5563	4.910635	0.000393	3.933852	0.666413	0.007868
 558	2.7850e-01	5.5708	4.946128	0.000355	3.549019	0.601220	0.007099
 559	2.7900e-01	5.5777	4.987607	0.000415	4.147649	0.702631	0.008296
 560	2.7950e-01	5.5853	5.027377	0.000398	3.976612	0.673656	0.007954
 561	2.8000e-01	5.5951	5.076553	0.000492	4.917315	0.833016	0.009835
 562	2.8050e-01	5.6058	5.094941	0.000184	1.838648	0.311475	0.003678
 563	2.8100e-01	5.6165	5.155664	0.000607	6.071816	1.028593	0.012145
 564	2.8150e-01	5.6281	5.169348	0.000137	1.368296	0.231796	0.002737
 565	2.8200e-01	5.6345	5.223657	0.000543	5.430427	0.919939	0.010862
 566	2.8250e-01	5.6462	5.252735	0.000291	2.907630	0.492566	0.005816
 567	2.8300e-01	5.6569	5.291221	0.000385	3.848334	0.651925	0.007697
 568	2.8350e-01	5.6683	5.342536	0.000513	5.131112	0.869234	0.010263
 569	2.8400e-01	5.6793	5.363918	0.000214	2.137963	0.362181	0.004276
 570	2.8450e-01	5.6873	5.416088	0.000522	5.216630	0.883721	0.010434
 571	2.8500e-01	5.6940	5.466548	0.000505	5.045593	0.854747	0.010092
 572	2.8550e-01	5.7056	5.490922	0.000244	2.437278	0.412886	0.004875
 573	2.8600e-01	5.7166	5.527698	0.000368	3.677297	0.622951	0.007355
 574	2.8650e-01	5.7240	5.552928	0.000252	2.522797	0.427373	0.005046
 575	2.8700e-01	5.7367	5.599539	0.000466	4.660760	0.789554	0.009322
 576	2.8750e-01	5.7477	5.637170	0.000376	3.762815	0.637438	0.007526
 577	2.8800e-01	5.7550	5.685064	0.000479	4.789038	0.811285	0.009579
 578	2.8850e-01	5.7654	5.705590	0.000205	2.052445	0.347694	0.004105
 579	2.8900e-01	5.7783	5.762464	0.000569	5.686982	0.963401	0.011375
 580	2.8950e-01	5.7874	5.800523	0.000381	3.805575	0.644682	0.007612
 581	2.9000e-01	5.7977	5.821904	0.000214	2.137963	0.362181	0.004276
 582	2.9050e-01	5.8069	5.878778	0.000569	5.686982	0.963401	0.011375
 583	2.9100e-01	5.8155	5.915127	0.000363	3.634538	0.615707	0.007270
 584	2.9150e-01	5.8255	5.960027	0.000449	4.489723	0.760580	0.008980
 585	2.9200e-01	5.8368	5.983974	0.000239	2.394519	0.405642	0.004789
 586	2.9250e-01	5.8472	6.025882	0.000419	4.190408	0.709874	0.008381
 587	2.9300e-01	5.8551	6.062657	0.000368	3.677297	0.622951	0.007355
 588	2.9350e-01	5.8661	6.094302	0.000316	3.164186	0.536028	0.006329
 589	2.9400e-01	5.8762	6.134071	0.000398	3.976612	0.673656	0.007954
 590	2.9450e-01	5.8871	6.180254	0.000462	4.618001	0.782310	0.009237
 591	2.9500e-01	5.8942	6.200780	0.000205	2.052445	0.347694	0.004105
 592	2.9550e-01	5.9064	6.250812	0.000500	5.002834	0.847503	0.010006
 593	2.9600e-01	5.9183	6.286733	0.000359	3.591778	0.608464	0.007184
 594	2.9650e-01	5.9259	6.329496	0.000428	4.275927	0.724362	0.008553
 595	2.9700e-01	5.9348	6.364133	0.000346	3.463500	0.586733	0.006928
 596	2.9750e-01	5.9470	6.409034	0.000449	4.489723	0.760580	0.008980
 597	2.9800e-01	5.9570	6.433836	0.000248	2.480037	0.420130	0.004960
 598	2.9850e-01	5.9668	6.456073	0.000222	2.223482	0.376668	0.004447
 599	2.9900e-01	5.9775	6.509098	0.000530	5.302149	0.898208	0.010605
 600	2.9950e-01	5.9889	6.548867	0.000398	3.976612	0.673656	0.007954
 601	3.0000e-01	5.9998	6.579656	0.000308	3.078667	0.521540	0.006158
 602	3.0050e-01	6.0056	6.624129	0.000445	4.446964	0.753336	0.008895
 603	3.0100e-01	6.0168	6.671596	0.000475	4.746278	0.804041	0.009493
 604	3.0150e-01	6.0260	6.701957	0.000304	3.035908	0.514297	0.006072
 605	3.0200e-01	6.0355	6.739588	0.000376	3.762815	0.637438	0.007526
 606	3.0250e-01	6.0446	6.773371	0.000338	3.377982	0.572246	0.006756
 607	3.0300e-01	6.0577	6.806725	0.000334	3.335223	0.565002	0.006671
 608	3.0350e-01	6.0651	6.838797	0.000321	3.206945	0.543271	0.006414
 609	3.0400e-01	6.0779	6.902086	0.000633	6.328371	1.072055	0.012658
 610	3.0450e-01	6.0886	6.918763	0.000167	1.667611	0.282501	0.003335
 611	3.0500e-01	6.0974	6.964091	0.000453	4.532482	0.767823	0.009066
 612	3.0550e-01	6.1060	6.998729	0.000346	3.463500	0.586733	0.006928
 613	3.0600e-01	6.1169	7.040209	0.000415	4.147649	0.702631	0.008296
 614	3.0650e-01	6.1249	7.072281	0.000321	3.206945	0.543271	0.006414
 615	3.0700e-01	6.1368	7.115043	0.000428	4.275927	0.724362	0.008553
 616	3.0750e-01	6.1456	7.157378	0.000423	4.233167	0.717118	0.008467
 617	3.0800e-01	6.1557	7.189450	0.000321	3.206945	0.543271	0.006414
 618	3.0850e-01	6.1678	7.205272	0.000158	1.582093	0.268014	0.003164
 619	3.0900e-01	6.1781	7.256159	0.000509	5.088353	0.861990	0.010177
 620	3.0950e-01	6.1865	7.289514	0.000334	3.335223	0.565002	0.006671
 621	3.1000e-01	6.1957	7.336981	0.000475	4.746278	0.804041	0.009493
 622	3.1050e-01	6.2054	7.380171	0.000432	4.318686	0.731605	0.008638
 623	3.1100e-01	6.2164	7.410532	0.000304	3.035908	0.514297	0.006072
 624	3.1150e-01	6.2280	7.457999	0.000475	4.746278	0.804041	0.009493
 625	3.1200e-01	6.2360	7.474676	0.000167	1.667611	0.282501	0.003335
 626	3.1250e-01	6.2451	7.514873	0.000402	4.019371	0.680900	0.008039
 627	3.1300e-01	6.2543	7.558491	0.000436	4.361445	0.738849	0.008724
 628	3.1350e-01	6.2662	7.604674	0.000462	4.618001	0.782310	0.009237
 629	3.1400e-01	6.2772	7.640167	0.000355	3.549019	0.601220	0.007099
 630	3.1450e-01	6.2868	7.671811	0.000316	3.164186	0.536028	0.006329
 631	3.1500e-01	6.2964	7.706021	0.000342	3.420741	0.579489	0.006842
 632	3.1550e-01	6.3095	7.733389	0.000274	2.736593	0.463591	0.005474
 633	3.1600e-01	6.3160	7.780000	0.000466	4.660760	0.789554	0.009322
 634	3.1650e-01	6.3257	7.834309	0.000543	5.430427	0.919939	0.010862
 635	3.1700e-01	6.3367	7.863815	0.000295	2.950389	0.499809	0.005901
 636	3.1750e-01	6.3489	7.899308	0.000355	3.549019	0.601220	0.007099
 637	3.1800e-01	6.3544	7.932663	0.000334	3.335223	0.565002	0.006671
 638	3.1850e-01	6.3660	7.955754	0.000231	2.309000	0.391155	0.004618
 639	3.1900e-01	6.3788	7.994668	0.000389	3.891093	0.659169	0.007783
 640	3.1950e-01	6.3879	8.037431	0.000428	4.275927	0.724362	0.008553
 641	3.2000e-01	6.3989	8.055819	0.000184	1.838648	0.311475	0.003678
 642	3.2050e-01	6.4069	8.104568	0.000487	4.874556	0.825772	0.009750
 643	3.2100e-01	6.4160	8.148186	0.000436	4.361445	0.738849	0.008724
 644	3.2150e-01	6.4270	8.190093	0.000419	4.190408	0.709874	0.008381
 645	3.2200e-01	6.4363	8.215323	0.000252	2.522797	0.427373	0.005046
 646	3.2250e-01	6.4478	8.253382	0.000381	3.805575	0.644682	0.007612
 647	3.2300e-01	6.4539	8.310256	0.000569	5.686982	0.963401	0.011375
 648	3.2350e-01	6.4661	8.340617	0.000304	3.035908	0.514297	0.006072
 649	3.2400e-01	6.4777	8.352163	0.000115	1.154500	0.195578	0.002309
 650	3.2450e-01	6.4851	8.403478	0.000513	5.131112	0.869234	0.010263
 651	3.2500e-01	6.4984	8.442392	0.000389	3.891093	0.659169	0.007783
 652	3.2550e-01	6.5071	8.482161	0.000398	3.976612	0.673656	0.007954
 653	3.2600e-01	6.5143	8.506963	0.000248	2.480037	0.420130	0.004960
 654	3.2650e-01	6.5271	8.550154	0.000432	4.318686	0.731605	0.008638
 655	3.2700e-01	6.5370	8.584364	0.000342	3.420741	0.579489	0.006842
 656	3.2750e-01	6.5479	8.607883	0.000235	2.351760	0.398399	0.004704
 657	3.2800e-01	6.5588	8.672027	0.000641	6.413890	1.086542	0.012829
 658	3.2850e-01	6.5668	8.685711	0.000137	1.368296	0.231796	0.002737
 659	3.2900e-01	6.5750	8.725052	0.000393	3.933852	0.666413	0.007868
 660	3.2950e-01	6.5866	8.768670	0.000436	4.361445	0.738849	0.008724
 661	3.3000e-01	6.5955	8.809722	0.000410	4.104889	0.695387	0.008210
 662	3.3050e-01	6.6083	8.832814	0.000231	2.309000	0.391155	0.004618
 663	3.3100e-01	6.6162	8.864886	0.000321	3.206945	0.543271	0.006414
 664	3.3150e-01	6.6267	8.914490	0.000496	4.960075	0.840259	0.009921
 665	3.3200e-01	6.6345	8.962812	0.000483	4.831797	0.818529	0.009664
 666	3.3250e-01	6.6467	8.980345	0.000175	1.753130	0.296988	0.003507
 667	3.3300e-01	6.6583	9.014982	0.000346	3.463500	0.586733	0.006928
 668	3.3350e-01	6.6663	9.067153	0.000522	5.216630	0.883721	0.010434
 669	3.3400e-01	6.6751	9.096231	0.000291	2.907630	0.492566	0.005816
 670	3.3450e-01	6.6858	9.126592	0.000304	3.035908	0.514297	0.006072
 671	3.3500e-01	6.6974	9.159947	0.000334	3.335223	0.565002	0.006671
 672	3.3550e-01	6.7065	9.206131	0.000462	4.618001	0.782310	0.009237
 673	3.3600e-01	6.7175	9.244189	0.000381	3.805575	0.644682	0.007612
 674	3.3650e-01	6.7249	9.275834	0.000316	3.164186	0.536028	0.006329
 675	3.3700e-01	6.7358	9.313892	0.000381	3.805575	0.644682	0.007612
 676	3.3750e-01	6.7462	9.348530	0.000346	3.463500	0.586733	0.006928
 677	3.3800e-01	6.7557	9.381029	0.000325	3.249704	0.550515	0.006500
 678	3.3850e-01	6.7664	9.415239	0.000342	3.420741	0.579489	0.006842
 679	3.3900e-01	6.7773	9.444746	0.000295	2.950389	0.499809	0.005901
 680	3.3950e-01	6.7850	9.491357	0.000466	4.660760	0.789554	0.009322
 681	3.4000e-01	6.7975	9.528560	0.000372	3.720056	0.630195	0.007441
 682	3.4050e-01	6.8066	9.557639	0.000291	2.907630	0.492566	0.005816
 683	3.4100e-01	6.8164	9.600401	0.000428	4.275927	0.724362	0.008553
 684	3.4150e-01	6.8243	9.627769	0.000274	2.736593	0.463591	0.005474
 685	3.4200e-01	6.8359	9.681650	0.000539	5.387667	0.912696	0.010776
 686	3.4250e-01	6.8439	9.709018	0.000274	2.736593	0.463591	0.005474
 687	3.4300e-01	6.8552	9.736814	0.000278	2.779352	0.470835	0.005559
 688	3.4350e-01	6.8665	9.777866	0.000410	4.104889	0.695387	0.008210
 689	3.4400e-01	6.8771	9.811648	0.000338	3.377982	0.572246	0.006756
 690	3.4450e-01	6.8878	9.835168	0.000235	2.351760	0.398399	0.004704
 691	3.4500e-01	6.8982	9.882206	0.000470	4.703519	0.796798	0.009408
 692	3.4550e-01	6.9077	9.918982	0.000368	3.677297	0.622951	0.007355
 693	3.4600e-01	6.9159	9.951909	0.000329	3.292463	0.557758	0.006585
 694	3.4650e-01	6.9244	9.997237	0.000453	4.532482	0.767823	0.009066
 695	3.4700e-01	6.9385	10.016908	0.000197	1.966926	0.333206	0.003934
 696	3.4750e-01	6.9464	10.064802	0.000479	4.789038	0.811285	0.009579
 697	3.4800e-01	6.9553	10.093453	0.000286	2.864871	0.485322	0.005730
 698	3.4850e-01	6.9659	10.125525	0.000321	3.206945	0.543271	0.006414
 699	3.4900e-01	6.9769	10.154604	0.000291	2.907630	0.492566	0.005816
 700	3.4950e-01	6.9867	10.213188	0.000586	5.858019	0.992375	0.011717
 701	3.5000e-01	6.9965	10.232431	0.000192	1.924167	0.325963	0.003849
 702	3.5050e-01	7.0053	10.266214	0.000338	3.377982	0.572246	0.006756
 703	3.5100e-01	7.0157	10.297430	0.000312	3.121426	0.528784	0.006243
 704	3.5150e-01	7.0242	10.342759	0.000453	4.532482	0.767823	0.009066
 705	3.5200e-01	7.0337	10.370554	0.000278	2.779352	0.470835	0.005559
 706	3.5250e-01	7.0483	10.417593	0.000470	4.703519	0.796798	0.009408
 707	3.5300e-01	7.0569	10.447955	0.000304	3.035908	0.514297	0.006072
 708	3.5350e-01	7.0648	10.482592	0.000346	3.463500	0.586733	0.006928
 709	3.5400e-01	7.0752	10.516802	0.000342	3.420741	0.579489	0.006842
 710	3.5450e-01	7.0868	10.557854	0.000410	4.104889	0.695387	0.008210
 711	3.5500e-01	7.0972	10.586077	0.000282	2.822112	0.478079	0.005645
 712	3.5550e-01	7.1075	10.631406	0.000453	4.532482	0.767823	0.009066
 713	3.5600e-01	7.1161	10.671603	0.000402	4.019371	0.680900	0.008039
 714	3.5650e-01	7.1240	10.691273	0.000197	1.966926	0.333206	0.003934
 715	3.5700e-01	7.1344	10.740450	0.000492	4.917315	0.833016	0.009835
 716	3.5750e-01	7.1436	10.775515	0.000351	3.506260	0.593976	0.007013
 717	3.5800e-01	7.1588	10.824692	0.000492	4.917315	0.833016	0.009835
 718	3.5850e-01	7.1661	10.841370	0.000167	1.667611	0.282501	0.003335
 719	3.5900e-01	7.1783	10.882422	0.000410	4.104889	0.695387	0.008210
 720	3.5950e-01	7.1857	10.904658	0.000222	2.223482	0.376668	0.004447
 721	3.6000e-01	7.1991	10.927750	0.000231	2.309000	0.391155	0.004618
 722	3.6050e-01	7.2076	10.960677	0.000329	3.292463	0.557758	0.006585
 723	3.6100e-01	7.2174	11.008999	0.000483	4.831797	0.818529	0.009664
 724	3.6150e-01	7.2253	11.035512	0.000265	2.651074	0.449104	0.005303
 725	3.6200e-01	7.2354	11.085544	0.000500	5.002834	0.847503	0.010006
 726	3.6250e-01	7.2450	11.103076	0.000175	1.753130	0.296988	0.003507
 727	3.6300e-01	7.2559	11.162944	0.000599	5.986297	1.014106	0.011974
 728	3.6350e-01	7.2662	11.195871	0.000329	3.292463	0.557758	0.006585
 729	3.6400e-01	7.2754	11.220673	0.000248	2.480037	0.420130	0.004960
 730	3.6450e-01	7.2876	11.266429	0.000458	4.575241	0.775067	0.009151
 731	3.6500e-01	7.2980	11.284817	0.000184	1.838648	0.311475	0.003678
 732	3.6550e-01	7.3053	11.329290	0.000445	4.446964	0.753336	0.008895
 733	3.6600e-01	7.3145	11.367776	0.000385	3.848334	0.651925	0.007697
 734	3.6650e-01	7.3279	11.391296	0.000235	2.351760	0.398399	0.004704
 735	3.6700e-01	7.3358	11.444321	0.000530	5.302149	0.898208	0.010605
 736	3.6750e-01	7.3477	11.461426	0.000171	1.710371	0.289745	0.003421
 737	3.6800e-01	7.3569	11.499485	0.000381	3.805575	0.644682	0.007612
 738	3.6850e-01	7.3688	11.528991	0.000295	2.950389	0.499809	0.005901
 739	3.6900e-01	7.3773	11.569616	0.000406	4.062130	0.688143	0.008125
 740	3.6950e-01	7.3840	11.618365	0.000487	4.874556	0.825772	0.009750
 741	3.7000e-01	7.3938	11.638891	0.000205	2.052445	0.347694	0.004105
 742	3.7050e-01	7.4074	11.660272	0.000214	2.137963	0.362181	0.004276
 743	3.7100e-01	7.4173	11.708594	0.000483	4.831797	0.818529	0.009664
 744	3.7150e-01	7.4274	11.742376	0.000338	3.377982	0.572246	0.006756
 745	3.7200e-01	7.4384	11.783001	0.000406	4.062130	0.688143	0.008125
 746	3.7250e-01	7.4451	11.818066	0.000351	3.506260	0.593976	0.007013
 747	3.7300e-01	7.4551	11.848855	0.000308	3.078667	0.521540	0.006158
 748	3.7350e-01	7.4652	11.880927	0.000321	3.206945	0.543271	0.006414
 749	3.7400e-01	7.4771	11.907440	0.000265	2.651074	0.449104	0.005303
 750	3.7450e-01	7.4872	11.951057	0.000436	4.361445	0.738849	0.008724
 751	3.7500e-01	7.4973	11.990399	0.000393	3.933852	0.666413	0.007868
 752	3.7550e-01	7.5055	12.029313	0.000389	3.891093	0.659169	0.007783
 753	3.7600e-01	7.5165	12.054543	0.000252	2.522797	0.427373	0.005046
 754	3.7650e-01	7.5262	12.090891	0.000363	3.634538	0.615707	0.007270
 755	3.7700e-01	7.5366	12.122535	0.000316	3.164186	0.536028	0.006329
 756	3.7750e-01	7.5470	12.164015	0.000415	4.147649	0.702631	0.008296
 757	3.7800e-01	7.5525	12.202501	0.000385	3.848334	0.651925	0.007697
 758	3.7850e-01	7.5693	12.234573	0.000321	3.206945	0.543271	0.006414
 759	3.7900e-01	7.5781	12.265362	0.000308	3.078667	0.521540	0.006158
 760	3.7950e-01	7.5861	12.300000	0.000346	3.463500	0.586733	0.006928
 761	3.8000e-01	7.5952	12.329506	0.000295	2.950389	0.499809	0.005901
 762	3.8050e-01	7.6057	12.367992	0.000385	3.848334	0.651925	0.007697
 763	3.8100e-01	7.6157	12.411610	0.000436	4.361445	0.738849	0.008724
 764	3.8150e-01	7.6254	12.449241	0.000376	3.762815	0.637438	0.007526
 765	3.8200e-01	7.6361	12.479602	0.000304	3.035908	0.514297	0.006072
 766	3.8250e-01	7.6486	12.503549	0.000239	2.394519	0.405642	0.004789
 767	3.8300e-01	7.6575	12.565127	0.000616	6.157334	1.043081	0.012316
 768	3.8350e-01	7.6660	12.579239	0.000141	1.411056	0.239039	0.002822
 769	3.8400e-01	7.6758	12.601903	0.000227	2.266241	0.383912	0.004533
 770	3.8450e-01	7.6862	12.659205	0.000573	5.729742	0.970644	0.011460
 771	3.8500e-01	7.6959	12.685718	0.000265	2.651074	0.449104	0.005303
 772	3.8550e-01	7.7051	12.705816	0.000201	2.009685	0.340450	0.004020
 773	3.8600e-01	7.7167	12.755421	0.000496	4.960075	0.840259	0.009921
 774	3.8650e-01	7.7264	12.793907	0.000385	3.848334	0.651925	0.007697
 775	3.8700e-01	7.7371	12.821275	0.000274	2.736593	0.463591	0.005474
 776	3.8750e-01	7.7448	12.849070	0.000278	2.779352	0.470835	0.005559
 777	3.8800e-01	7.7551	12.894399	0.000453	4.532482	0.767823	0.009066
 778	3.8850e-01	7.7661	12.923905	0.000295	2.950389	0.499809	0.005901
 779	3.8900e-01	7.7780	12.952128	0.000282	2.822112	0.478079	0.005645
 780	3.8950e-01	7.7850	12.986338	0.000342	3.420741	0.579489	0.006842
 781	3.9000e-01	7.7960	13.030811	0.000445	4.446964	0.753336	0.008895
 782	3.9050e-01	7.8030	13.065449	0.000346	3.463500	0.586733	0.006928
 783	3.9100e-01	7.8156	13.108211	0.000428	4.275927	0.724362	0.008553
 784	3.9150e-01	7.8262	13.133869	0.000257	2.565556	0.434617	0.005132
 785	3.9200e-01	7.8363	13.154395	0.000205	2.052445	0.347694	0.004105
 786	3.9250e-01	7.8473	13.200151	0.000458	4.575241	0.775067	0.009151
 787	3.9300e-01	7.8564	13.240775	0.000406	4.062130	0.688143	0.008125
 788	3.9350e-01	7.8687	13.270281	0.000295	2.950389	0.499809	0.005901
 789	3.9400e-01	7.8784	13.306202	0.000359	3.591778	0.608464	0.007184
 790	3.9450e-01	7.8845	13.344688	0.000385	3.848334	0.651925	0.007697
 791	3.9500e-01	7.8937	13.380609	0.000359	3.591778	0.608464	0.007184
 792	3.9550e-01	7.9053	13.409260	0.000286	2.864871	0.485322	0.005730
 793	3.9600e-01	7.9169	13.441331	0.000321	3.206945	0.543271	0.006414
 794	3.9650e-01	7.9269	13.477252	0.000359	3.591778	0.608464	0.007184
 795	3.9700e-01	7.9376	13.512745	0.000355	3.549019	0.601220	0.007099
 796	3.9750e-01	7.9477	13.561922	0.000492	4.917315	0.833016	0.009835
 797	3.9800e-01	7.9565	13.582448	0.000205	2.052445	0.347694	0.004105
 798	3.9850e-01	7.9663	13.610671	0.000282	2.822112	0.478079	0.005645
 799	3.9900e-01	7.9758	13.650868	0.000402	4.019371	0.680900	0.008039
 800	3.9950e-01	7.9865	13.688071	0.000372	3.720056	0.630195	0.007441
 801	4.0000e-01	7.9938	13.727840	0.000398	3.976612	0.673656	0.007954
 802	4.0050e-01	8.0064	13.745801	0.000180	1.795889	0.304232	0.003592
 803	4.0100e-01	8.0177	13.791129	0.000453	4.532482	0.767823	0.009066
 804	4.0150e-01	8.0280	13.828332	0.000372	3.720056	0.630195	0.007441
 805	4.0200e-01	8.0380	13.855273	0.000269	2.693834	0.456348	0.005388
 806	4.0250e-01	8.0450	13.901884	0.000466	4.660760	0.789554	0.009322
 807	4.0300e-01	8.0554	13.928397	0.000265	2.651074	0.449104	0.005303
 808	4.0350e-01	8.0658	13.957903	0.000295	2.950389	0.499809	0.005901
 809	4.0400e-01	8.0780	14.007507	0.000496	4.960075	0.840259	0.009921
 810	4.0450e-01	8.0841	14.025040	0.000175	1.753130	0.296988	0.003507
 811	4.0500e-01	8.0981	14.061388	0.000363	3.634538	0.615707	0.007270
 812	4.0550e-01	8.1073	14.100302	0.000389	3.891093	0.659169	0.007783
 813	4.0600e-01	8.1171	14.133229	0.000329	3.292463	0.557758	0.006585
 814	4.0650e-01	8.1268	14.181551	0.000483	4.831797	0.818529	0.009664
 815	4.0700e-01	8.1342	14.200794	0.000192	1.924167	0.325963	0.003849
 816	4.0750e-01	8.1451	14.252964	0.000522	5.216630	0.883721	0.010434
 817	4.0800e-01	8.1561	14.282470	0.000295	2.950389	0.499809	0.005901
 818	4.0850e-01	8.1647	14.312404	0.000299	2.993149	0.507053	0.005987
 819	4.0900e-01	8.1781	14.350035	0.000376	3.762815	0.637438	0.007526
 820	4.0950e-01	8.1854	14.382962	0.000329	3.292463	0.557758	0.006585
 821	4.1000e-01	8.1967	14.406482	0.000235	2.351760	0.398399	0.004704
 822	4.1050e-01	8.2062	14.453948	0.000475	4.746278	0.804041	0.009493
 823	4.1100e-01	8.2161	14.489869	0.000359	3.591778	0.608464	0.007184
 824	4.1150e-01	8.2245	14.515099	0.000252	2.522797	0.427373	0.005046
 825	4.1200e-01	8.2397	14.553157	0.000381	3.805575	0.644682	0.007612
 826	4.1250e-01	8.2489	14.586512	0.000334	3.335223	0.565002	0.006671
 827	4.1300e-01	8.2587	14.625426	0.000389	3.891093	0.659169	0.007783
 828	4.1350e-01	8.2678	14.659636	0.000342	3.420741	0.579489	0.006842
 829	4.1400e-01	8.2758	14.706675	0.000470	4.703519	0.796798	0.009408
 830	4.1450e-01	8.2892	14.719503	0.000128	1.282778	0.217308	0.002566
 831	4.1500e-01	8.2971	14.760983	0.000415	4.147649	0.702631	0.008296
 832	4.1550e-01	8.3057	14.792627	0.000316	3.164186	0.536028	0.006329
 833	4.1600e-01	8.3167	14.830258	0.000376	3.762815	0.637438	0.007526
 834	4.1650e-01	8.3252	14.877297	0.000470	4.703519	0.796798	0.009408
 835	4.1700e-01	8.3386	14.900817	0.000235	2.351760	0.398399	0.004704
 836	4.1750e-01	8.3481	14.938448	0.000376	3.762815	0.637438	0.007526
 837	4.1800e-01	8.3569	14.968809	0.000304	3.035908	0.514297	0.006072
 838	4.1850e-01	8.3655	14.993611	0.000248	2.480037	0.420130	0.004960
 839	4.1900e-01	8.3771	15.038939	0.000453	4.532482	0.767823	0.009066
 840	4.1950e-01	8.3862	15.074432	0.000355	3.549019	0.601220	0.007099
 841	4.2000e-01	8.3963	15.114629	0.000402	4.019371	0.680900	0.008039
 842	4.2050e-01	8.4058	15.151833	0.000372	3.720056	0.630195	0.007441
 843	4.2100e-01	8.4204	15.168938	0.000171	1.710371	0.289745	0.003421
 844	4.2150e-01	8.4253	15.218542	0.000496	4.960075	0.840259	0.009921
 845	4.2200e-01	8.4363	15.250614	0.000321	3.206945	0.543271	0.006414
 846	4.2250e-01	8.4467	15.298508	0.000479	4.789038	0.811285	0.009579
 847	4.2300e-01	8.4564	15.320745	0.000222	2.223482	0.376668	0.004447
 848	4.2350e-01	8.4680	15.361369	0.000406	4.062130	0.688143	0.008125
 849	4.2400e-01	8.4772	15.390447	0.000291	2.907630	0.492566	0.005816
 850	4.2450e-01	8.4863	15.440052	0.000496	4.960075	0.840259	0.009921
 851	4.2500e-01	8.4961	15.487946	0.000479	4.789038	0.811285	0.009579
 852	4.2550e-01	8.5043	15.508044	0.000201	2.009685	0.340450	0.004020
 853	4.2600e-01	8.5162	15.533702	0.000257	2.565556	0.434617	0.005132
 854	4.2650e-01	8.5266	15.573899	0.000402	4.019371	0.680900	0.008039
 855	4.2700e-01	8.5388	15.602122	0.000282	2.822112	0.478079	0.005645
 856	4.2750e-01	8.5474	15.637187	0.000351	3.506260	0.593976	0.007013
 857	4.2800e-01	8.5577	15.658141	0.000210	2.095204	0.354937	0.004191
 858	4.2850e-01	8.5663	15.709456	0.000513	5.131112	0.869234	0.010263
 859	4.2900e-01	8.5773	15.755639	0.000462	4.618001	0.782310	0.009237
 860	4.2950e-01	8.5870	15.778731	0.000231	2.309000	0.391155	0.004618
 861	4.3000e-01	8.5974	15.806954	0.000282	2.822112	0.478079	0.005645
 862	4.3050e-01	8.6053	15.851427	0.000445	4.446964	0.753336	0.008895
 863	4.3100e-01	8.6139	15.885210	0.000338	3.377982	0.572246	0.006756
 864	4.3150e-01	8.6310	15.915144	0.000299	2.993149	0.507053	0.005987
 865	4.3200e-01	8.6365	15.934387	0.000192	1.924167	0.325963	0.003849
 866	4.3250e-01	8.6444	15.984419	0.000500	5.002834	0.847503	0.010006
 867	4.3300e-01	8.6548	16.024188	0.000398	3.976612	0.673656	0.007954
 868	4.3350e-01	8.6682	16.062247	0.000381	3.805575	0.644682	0.007612
 869	4.3400e-01	8.6780	16.084483	0.000222	2.223482	0.376668	0.004447
 870	4.3450e-01	8.6871	16.129812	0.000453	4.532482	0.767823	0.009066
 871	4.3500e-01	8.6977	16.177706	0.000479	4.789038	0.811285	0.009579
 872	4.3550e-01	8.7054	16.202080	0.000244	2.437278	0.412886	0.004875
 873	4.3600e-01	8.7164	16.234580	0.000325	3.249704	0.550515	0.006500
 874	4.3650e-01	8.7262	16.265796	0.000312	3.121426	0.528784	0.006243
 875	4.3700e-01	8.7360	16.312835	0.000470	4.703519	0.796798	0.009408
 876	4.3750e-01	8.7506	16.342341	0.000295	2.950389	0.499809	0.005901
 877	4.3800e-01	8.7576	16.378262	0.000359	3.591778	0.608464	0.007184
 878	4.3850e-01	8.7671	16.425301	0.000470	4.703519	0.796798	0.009408
 879	4.3900e-01	8.7781	16.449675	0.000244	2.437278	0.412886	0.004875
 880	4.3950e-01	8.7878	16.487306	0.000376	3.762815	0.637438	0.007526
 881	4.4000e-01	8.8000	16.512109	0.000248	2.480037	0.420130	0.004960
 882	4.4050e-01	8.8055	16.562141	0.000500	5.002834	0.847503	0.010006
 883	4.4100e-01	8.8171	16.587371	0.000252	2.522797	0.427373	0.005046
 884	4.4150e-01	8.8287	16.620725	0.000334	3.335223	0.565002	0.006671
 885	4.4200e-01	8.8330	16.666481	0.000458	4.575241	0.775067	0.009151
 886	4.4250e-01	8.8458	16.703257	0.000368	3.677297	0.622951	0.007355
 887	4.4300e-01	8.8562	16.733618	0.000304	3.035908	0.514297	0.006072
 888	4.4350e-01	8.8660	16.772532	0.000389	3.891093	0.659169	0.007783
 889	4.4400e-01	8.8782	16.796479	0.000239	2.394519	0.405642	0.004789
 890	4.4450e-01	8.8849	16.841808	0.000453	4.532482	0.767823	0.009066
 891	4.4500e-01	8.8971	16.880294	0.000385	3.848334	0.651925	0.007697
 892	4.4550e-01	8.9075	16.917070	0.000368	3.677297	0.622951	0.007355
 893	4.4600e-01	8.9160	16.956411	0.000393	3.933852	0.666413	0.007868
 894	4.4650e-01	8.9252	16.978648	0.000222	2.223482	0.376668	0.004447
 895	4.4700e-01	8.9355	17.012002	0.000334	3.335223	0.565002	0.006671
 896	4.4750e-01	8.9453	17.062890	0.000509	5.088353	0.861990	0.010177
 897	4.4800e-01	8.9569	17.092824	0.000299	2.993149	0.507053	0.005987
 898	4.4850e-01	8.9648	17.135159	0.000423	4.233167	0.717118	0.008467
 899	4.4900e-01	8.9734	17.163809	0.000286	2.864871	0.485322	0.005730
 900	4.4950e-01	8.9874	17.202296	0.000385	3.848334	0.651925	0.007697
 901	4.5000e-01	8.9954	17.219401	0.000171	1.710371	0.289745	0.003421
 902	4.5050e-01	9.0063	17.262163	0.000428	4.275927	0.724362	0.008553
 903	4.5100e-01	9.0161	17.297656	0.000355	3.549019	0.601220	0.007099
 904	4.5150e-01	9.0253	17.329728	0.000321	3.206945	0.543271	0.006414
 905	4.5200e-01	9.0369	17.375912	0.000462	4.618001	0.782310	0.009237
 906	4.5250e-01	9.0475	17.399003	0.000231	2.309000	0.391155	0.004618
 907	4.5300e-01	9.0546	17.443476	0.000445	4.446964	0.753336	0.008895
 908	4.5350e-01	9.0668	17.486667	0.000432	4.318686	0.731605	0.008638
 909	4.5400e-01	9.0753	17.525153	0.000385	3.848334	0.651925	0.007697
 910	4.5450e-01	9.0869	17.554231	0.000291	2.907630	0.492566	0.005816
 911	4.5500e-01	9.0958	17.579461	0.000252	2.522797	0.427373	0.005046
 912	4.5550e-01	9.1054	17.644460	0.000650	6.499408	1.101030	0.013000
 913	4.5600e-01	9.1168	17.664131	0.000197	1.966926	0.333206	0.003934
 914	4.5650e-01	9.1260	17.711170	0.000470	4.703519	0.796798	0.009408
 915	4.5700e-01	9.1357	17.745807	0.000346	3.463500	0.586733	0.006928
 916	4.5750e-01	9.1437	17.763768	0.000180	1.795889	0.304232	0.003592
 917	4.5800e-01	9.1571	17.803109	0.000393	3.933852	0.666413	0.007868
 918	4.5850e-01	9.1670	17.850576	0.000475	4.746278	0.804041	0.009493
 919	4.5900e-01	9.1772	17.865115	0.000145	1.453815	0.246283	0.002908
 920	4.5950e-01	9.1864	17.905739	0.000406	4.062130	0.688143	0.008125
 921	4.6000e-01	9.1919	17.953633	0.000479	4.789038	0.811285	0.009579
 922	4.6050e-01	9.2090	17.993830	0.000402	4.019371	0.680900	0.008039
 923	4.6100e-01	9.2178	18.035310	0.000415	4.147649	0.702631	0.008296
 924	4.6150e-01	9.2279	18.072941	0.000376	3.762815	0.637438	0.007526
 925	4.6200e-01	9.2358	18.091756	0.000188	1.881408	0.318719	0.003763
 926	4.6250e-01	9.2459	18.123828	0.000321	3.206945	0.543271	0.006414
 927	4.6300e-01	9.2557	18.172577	0.000487	4.874556	0.825772	0.009750
 928	4.6350e-01	9.2645	18.205077	0.000325	3.249704	0.550515	0.006500
 929	4.6400e-01	9.2780	18.245274	0.000402	4.019371	0.680900	0.008039
 930	4.6450e-01	9.2868	18.287609	0.000423	4.233167	0.717118	0.008467
 931	4.6500e-01	9.2975	18.329088	0.000415	4.147649	0.702631	0.008296
 932	4.6550e-01	9.3066	18.356456	0.000274	2.736593	0.463591	0.005474
 933	4.6600e-01	9.3152	18.403495	0.000470	4.703519	0.796798	0.009408
 934	4.6650e-01	9.3246	18.437278	0.000338	3.377982	0.572246	0.006756
 935	4.6700e-01	9.3372	18.457804	0.000205	2.052445	0.347694	0.004105
 936	4.6750e-01	9.3469	18.516816	0.000590	5.900779	0.999619	0.011802
 937	4.6800e-01	9.3567	18.531355	0.000145	1.453815	0.246283	0.002908
 938	4.6850e-01	9.3671	18.580532	0.000492	4.917315	0.833016	0.009835
 939	4.6900e-01	9.3756	18.619446	0.000389	3.891093	0.659169	0.007783
 940	4.6950e-01	9.3860	18.654939	0.000355	3.549019	0.601220	0.007099
 941	4.7000e-01	9.3951	18.694280	0.000393	3.933852	0.666413	0.007868
 942	4.7050e-01	9.4058	18.719938	0.000257	2.565556	0.434617	0.005132
 943	4.7100e-01	9.4177	18.766977	0.000470	4.703519	0.796798	0.009408
 944	4.7150e-01	9.4250	18.806746	0.000398	3.976612	0.673656	0.007954
 945	4.7200e-01	9.4354	18.838390	0.000316	3.164186	0.536028	0.006329
 946	4.7250e-01	9.4467	18.868324	0.000299	2.993149	0.507053	0.005987
 947	4.7300e-01	9.4556	18.902534	0.000342	3.420741	0.579489	0.006842
 948	4.7350e-01	9.4669	18.957697	0.000552	5.515945	0.934426	0.011033
 949	4.7400e-01	9.4765	18.995329	0.000376	3.762815	0.637438	0.007526
 950	4.7450e-01	9.4839	19.033387	0.000381	3.805575	0.644682	0.007612
 951	4.7500e-01	9.4995	19.062466	0.000291	2.907630	0.492566	0.005816
 952	4.7550e-01	9.5062	19.094965	0.000325	3.249704	0.550515	0.006500
 953	4.7600e-01	9.5190	19.147563	0.000526	5.259390	0.890965	0.010520
 954	4.7650e-01	9.5258	19.180490	0.000329	3.292463	0.557758	0.006585
 955	4.7700e-01	9.5355	19.210424	0.000299	2.993149	0.507053	0.005987
 956	4.7750e-01	9.5447	19.256180	0.000458	4.575241	0.775067	0.009151
 957	4.7800e-01	9.5538	19.294239	0.000381	3.805575	0.644682	0.007612
 958	4.7850e-01	9.5673	19.316475	0.000222	2.223482	0.376668	0.004447
 959	4.7900e-01	9.5755	19.363086	0.000466	4.660760	0.789554	0.009322
 960	4.7950e-01	9.5856	19.388316	0.000252	2.522797	0.427373	0.005046
 961	4.8000e-01	9.5959	19.445618	0.000573	5.729742	0.970644	0.011460
 962	4.8050e-01	9.6069	19.474269	0.000286	2.864871	0.485322	0.005730
 963	4.8100e-01	9.6143	19.514893	0.000406	4.062130	0.688143	0.008125
 964	4.8150e-01	9.6259	19.555945	0.000410	4.104889	0.695387	0.008210
 965	4.8200e-01	9.6368	19.607260	0.000513	5.131112	0.869234	0.010263
 966	4.8250e-01	9.6454	19.617951	0.000107	1.068982	0.181090	0.002138
 967	4.8300e-01	9.6564	19.668838	0.000509	5.088353	0.861990	0.010177
 968	4.8350e-01	9.6664	19.712028	0.000432	4.318686	0.731605	0.008638
 969	4.8400e-01	9.6768	19.746238	0.000342	3.420741	0.579489	0.006842
 970	4.8450e-01	9.6881	19.782159	0.000359	3.591778	0.608464	0.007184
 971	4.8500e-01	9.6954	19.826204	0.000440	4.404204	0.746092	0.008809
 972	4.8550e-01	9.7058	19.856566	0.000304	3.035908	0.514297	0.006072
 973	4.8600e-01	9.7162	19.897190	0.000406	4.062130	0.688143	0.008125
 974	4.8650e-01	9.7266	19.942946	0.000458	4.575241	0.775067	0.009151
 975	4.8700e-01	9.7351	19.978867	0.000359	3.591778	0.608464	0.007184
 976	4.8750e-01	9.7461	20.020774	0.000419	4.190408	0.709874	0.008381
 977	4.8800e-01	9.7565	20.048997	0.000282	2.822112	0.478079	0.005645
 978	4.8850e-01	9.7662	20.089194	0.000402	4.019371	0.680900	0.008039
 979	4.8900e-01	9.7784	20.114424	0.000252	2.522797	0.427373	0.005046
 980	4.8950e-01	9.7815	20.175574	0.000611	6.114575	1.035837	0.012230
 981	4.9000e-01	9.7937	20.205080	0.000295	2.950389	0.499809	0.005901
 982	4.9050e-01	9.8071	20.234159	0.000291	2.907630	0.492566	0.005816
 983	4.9100e-01	9.8145	20.289323	0.000552	5.515945	0.934426	0.011033
 984	4.9150e-01	9.8273	20.323105	0.000338	3.377982	0.572246	0.006756
 985	4.9200e-01	9.8340	20.340638	0.000175	1.753130	0.296988	0.003507
 986	4.9250e-01	9.8486	20.398795	0.000582	5.815260	0.985132	0.011631
 987	4.9300e-01	9.8578	20.430867	0.000321	3.206945	0.543271	0.006414
 988	4.9350e-01	9.8645	20.480899	0.000500	5.002834	0.847503	0.010006
 989	4.9400e-01	9.8761	20.516819	0.000359	3.591778	0.608464	0.007184
 990	4.9450e-01	9.8859	20.560009	0.000432	4.318686	0.731605	0.008638
 991	4.9500e-01	9.8969	20.592937	0.000329	3.292463	0.557758	0.006585
 992	4.9550e-01	9.9048	20.636554	0.000436	4.361445	0.738849	0.008724
 993	4.9600e-01	9.9200	20.677179	0.000406	4.062130	0.688143	0.008125
 994	4.9650e-01	9.9255	20.704974	0.000278	2.779352	0.470835	0.005559
 995	4.9700e-01	9.9359	20.758855	0.000539	5.387667	0.912696	0.010776
 996	4.9750e-01	9.9445	20.792210	0.000334	3.335223	0.565002	0.006671
 997	4.9800e-01	9.9585	20.827703	0.000355	3.549019	0.601220	0.007099
 998	4.9850e-01	9.9652	20.875597	0.000479	4.789038	0.811285	0.009579
 999	4.9900e-01	9.9756	20.922636	0.000470	4.703519	0.796798	0.009408
1000	4.9950e-01	9.9847	20.946583	0.000239	2.394519	0.405642	0.004789
1001	5.0000e-01	9.9969	20.988490	0.000419	4.190408	0.709874	0.008381
1002	5.0050e-01	9.9849	20.947438	0.000410	4.104889	0.695387	-0.008210
1003	5.0100e-01	9.9762	20.946583	0.000009	0.085519	0.014487	-0.000171
1004	5.0150e-01	9.9683	20.942306	0.000043	0.427593	0.072436	-0.000855
1005	5.0200e-01	9.9548	20.914511	0.000278	2.779352	0.470835	-0.005559
1006	5.0250e-01	9.9451	20.906813	0.000077	0.769667	0.130385	-0.001539
1007	5.0300e-01	9.9365	20.885432	0.000214	2.137963	0.362181	-0.004276
1008	5.0350e-01	9.9255	20.874314	0.000111	1.111741	0.188334	-0.002224
1009	5.0400e-01	9.9164	20.860202	0.000141	1.411056	0.239039	-0.002822
1010	5.0450e-01	9.9030	20.847374	0.000128	1.282778	0.217308	-0.002566
1011	5.0500e-01	9.8962	20.825137	0.000222	2.223482	0.376668	-0.004447
1012	5.0550e-01	9.8840	20.826420	-0.000013	-0.128278	-0.021731	0.000257
1013	5.0600e-01	9.8758	20.795631	0.000308	3.078667	0.521540	-0.006158
1014	5.0650e-01	9.8676	20.787934	0.000077	0.769667	0.130385	-0.001539
1015	5.0700e-01	9.8560	20.755862	0.000321	3.206945	0.543271	-0.006414
1016	5.0750e-01	9.8468	20.753296	0.000026	0.256556	0.043462	-0.000513
1017	5.0800e-01	9.8358	20.738757	0.000145	1.453815	0.246283	-0.002908
1018	5.0850e-01	9.8248	20.711816	0.000269	2.693834	0.456348	-0.005388
1019	5.0900e-01	9.8181	20.694711	0.000171	1.710371	0.289745	-0.003421
1020	5.0950e-01	9.8077	20.680172	0.000145	1.453815	0.246283	-0.002908
1021	5.1000e-01	9.7992	20.658363	0.000218	2.180723	0.369424	-0.004362
1022	5.1050e-01	9.7864	20.633989	0.000244	2.437278	0.412886	-0.004875
1023	5.1100e-01	9.7766	20.605338	0.000286	2.864871	0.485322	-0.005730
1024	5.1150e-01	9.7656	20.618166	-0.000128	-1.282778	-0.217308	0.002566
1025	5.1200e-01	9.7571	20.591654	0.000265	2.651074	0.449104	-0.005303
1026	5.1250e-01	9.7455	20.557871	0.000338	3.377982	0.572246	-0.006756
1027	5.1300e-01	9.7357	20.544187	0.000137	1.368296	0.231796	-0.002737
1028	5.1350e-01	9.7235	20.527510	0.000167	1.667611	0.282501	-0.003335
1029	5.1400e-01	9.7162	20.500569	0.000269	2.693834	0.456348	-0.005388
1030	5.1450e-01	9.7058	20.487741	0.000128	1.282778	0.217308	-0.002566
1031	5.1500e-01	9.6942	20.480899	0.000068	0.684148	0.115898	-0.001368
1032	5.1550e-01	9.6857	20.438136	0.000428	4.275927	0.724362	-0.008553
1033	5.1600e-01	9.6791	20.423597	0.000145	1.453815	0.246283	-0.002908
1034	5.1650e-01	9.6649	20.406064	0.000175	1.753130	0.296988	-0.003507
1035	5.1700e-01	9.6558	20.378696	0.000274	2.736593	0.463591	-0.005474
1036	5.1750e-01	9.6432	20.372282	0.000064	0.641389	0.108654	-0.001283
1037	5.1800e-01	9.6344	20.337217	0.000351	3.506260	0.593976	-0.007013
1038	5.1850e-01	9.6268	20.327809	0.000094	0.940704	0.159360	-0.001882
1039	5.1900e-01	9.6149	20.297875	0.000299	2.993149	0.507053	-0.005987
1040	5.1950e-01	9.6046	20.278204	0.000197	1.966926	0.333206	-0.003934
1041	5.2000e-01	9.5959	20.277349	0.000009	0.085519	0.014487	-0.000171
1042	5.2050e-01	9.5874	20.235442	0.000419	4.190408	0.709874	-0.008381
1043	5.2100e-01	9.5758	20.211495	0.000239	2.394519	0.405642	-0.004789
1044	5.2150e-01	9.5654	20.196100	0.000154	1.539334	0.260770	-0.003079
1045	5.2200e-01	9.5569	20.183272	0.000128	1.282778	0.217308	-0.002566
1046	5.2250e-01	9.5477	20.134522	0.000487	4.874556	0.825772	-0.009750
1047	5.2300e-01	9.5386	20.127253	0.000073	0.726908	0.123141	-0.001454
1048	5.2350e-01	9.5276	20.085345	0.000419	4.190408	0.709874	-0.008381
1049	5.2400e-01	9.5178	20.084490	0.000009	0.085519	0.014487	-0.000171
1050	5.2450e-01	9.5056	20.043438	0.000410	4.104889	0.695387	-0.008210
1051	5.2500e-01	9.4946	20.038307	0.000051	0.513111	0.086923	-0.001026
1052	5.2550e-01	9.4843	19.998110	0.000402	4.019371	0.680900	-0.008039
1053	5.2600e-01	9.4763	19.990413	0.000077	0.769667	0.130385	-0.001539
1054	5.2650e-01	9.4666	19.968604	0.000218	2.180723	0.369424	-0.004362
1055	5.2700e-01	9.4531	19.942518	0.000261	2.608315	0.441861	-0.005217
1056	5.2750e-01	9.4458	19.923703	0.000188	1.881408	0.318719	-0.003763
1057	5.2800e-01	9.4348	19.899328	0.000244	2.437278	0.412886	-0.004875
1058	5.2850e-01	9.4226	19.887782	0.000115	1.154500	0.195578	-0.002309
1059	5.2900e-01	9.4147	19.863408	0.000244	2.437278	0.412886	-0.004875
1060	5.2950e-01	9.4073	19.818080	0.000453	4.532482	0.767823	-0.009066
1061	5.3000e-01	9.3964	19.800119	0.000180	1.795889	0.304232	-0.003592
1062	5.3050e-01	9.3851	19.779166	0.000210	2.095204	0.354937	-0.004191
1063	5.3100e-01	9.3768	19.769758	0.000094	0.940704	0.159360	-0.001882
1064	5.3150e-01	9.3658	19.727851	0.000419	4.190408	0.709874	-0.008381
1065	5.3200e-01	9.3555	19.712456	0.000154	1.539334	0.260770	-0.003079
1066	5.3250e-01	9.3463	19.687226	0.000252	2.522797	0.427373	-0.005046
1067	5.3300e-01	9.3356	19.650023	0.000372	3.720056	0.630195	-0.007441
1068	5.3350e-01	9.3237	19.636766	0.000133	1.325537	0.224552	-0.002651
1069	5.3400e-01	9.3146	19.609826	0.000269	2.693834	0.456348	-0.005388
1070	5.3450e-01	9.3073	19.579892	0.000299	2.993149	0.507053	-0.005987
1071	5.3500e-01	9.2969	19.565353	0.000145	1.453815	0.246283	-0.002908
1072	5.3550e-01	9.2847	19.539695	0.000257	2.565556	0.434617	-0.005132
1073	5.3600e-01	9.2757	19.529860	0.000098	0.983463	0.166603	-0.001967
1074	5.3650e-01	9.2645	19.485815	0.000440	4.404204	0.746092	-0.008809
1075	5.3700e-01	9.2566	19.476407	0.000094	0.940704	0.159360	-0.001882
1076	5.3750e-01	9.2471	19.445190	0.000312	3.121426	0.528784	-0.006243
1077	5.3800e-01	9.2365	19.426375	0.000188	1.881408	0.318719	-0.003763
1078	5.3850e-01	9.2267	19.407987	0.000184	1.838648	0.311475	-0.003678
1079	5.3900e-01	9.2139	19.371639	0.000363	3.634538	0.615707	-0.007270
1080	5.3950e-01	9.2059	19.351968	0.000197	1.966926	0.333206	-0.003934
1081	5.4000e-01	9.1962	19.313909	0.000381	3.805575	0.644682	-0.007612
1082	5.4050e-01	9.1879	19.289107	0.000248	2.480037	0.420130	-0.004960
1083	5.4100e-01	9.1760	19.258746	0.000304	3.035908	0.514297	-0.006072
1084	5.4150e-01	9.1644	19.248055	0.000107	1.068982	0.181090	-0.002138
1085	5.4200e-01	9.1556	19.224108	0.000239	2.394519	0.405642	-0.004789
1086	5.4250e-01	9.1461	19.192036	0.000321	3.206945	0.543271	-0.006414
1087	5.4300e-01	9.1367	19.165096	0.000269	2.693834	0.456348	-0.005388
1088	5.4350e-01	9.1257	19.145853	0.000192	1.924167	0.325963	-0.003849
1089	5.4400e-01	9.1183	19.117629	0.000282	2.822112	0.478079	-0.005645
1090	5.4450e-01	9.1064	19.092399	0.000252	2.522797	0.427373	-0.005046
1091	5.4500e-01	9.0973	19.064176	0.000282	2.822112	0.478079	-0.005645
1092	5.4550e-01	9.0872	19.037663	0.000265	2.651074	0.449104	-0.005303
1093	5.4600e-01	9.0771	19.010295	0.000274	2.736593	0.463591	-0.005474
1094	5.4650e-01	9.0662	18.991052	0.000192	1.924167	0.325963	-0.003849
1095	5.4700e-01	9.0558	18.964112	0.000269	2.693834	0.456348	-0.005388
1096	5.4750e-01	9.0479	18.954704	0.000094	0.940704	0.159360	-0.001882
1097	5.4800e-01	9.0363	18.924343	0.000304	3.035908	0.514297	-0.006072
1098	5.4850e-01	9.0259	18.893554	0.000308	3.078667	0.521540	-0.006158
1099	5.4900e-01	9.0161	18.857633	0.000359	3.591778	0.608464	-0.007184
1100	5.4950e-01	9.0070	18.837962	0.000197	1.966926	0.333206	-0.003934
1101	5.5000e-01	8.9951	18.811877	0.000261	2.608315	0.441861	-0.005217
1102	5.5050e-01	8.9850	18.788786	0.000231	2.309000	0.391155	-0.004618
1103	5.5100e-01	8.9735	18.774674	0.000141	1.411056	0.239039	-0.002822
1104	5.5150e-01	8.9636	18.739609	0.000351	3.506260	0.593976	-0.007013
1105	5.5200e-01	8.9545	18.716944	0.000227	2.266241	0.383912	-0.004533
1106	5.5250e-01	8.9441	18.695991	0.000210	2.095204	0.354937	-0.004191
1107	5.5300e-01	8.9362	18.657505	0.000385	3.848334	0.651925	-0.007697
1108	5.5350e-01	8.9270	18.632702	0.000248	2.480037	0.420130	-0.004960
1109	5.5400e-01	8.9166	18.608328	0.000244	2.437278	0.412886	-0.004875
1110	5.5450e-01	8.9026	18.589940	0.000184	1.838648	0.311475	-0.003678
1111	5.5500e-01	8.8934	18.552736	0.000372	3.720056	0.630195	-0.007441
1112	5.5550e-01	8.8837	18.545467	0.000073	0.726908	0.123141	-0.001454
1113	5.5600e-01	8.8757	18.512540	0.000329	3.292463	0.557758	-0.006585
1114	5.5650e-01	8.8660	18.472343	0.000402	4.019371	0.680900	-0.008039
1115	5.5700e-01	8.8550	18.443264	0.000291	2.907630	0.492566	-0.005816
1116	5.5750e-01	8.8464	18.429153	0.000141	1.411056	0.239039	-0.002822
1117	5.5800e-01	8.8367	18.390666	0.000385	3.848334	0.651925	-0.007697
1118	5.5850e-01	8.8263	18.350897	0.000398	3.976612	0.673656	-0.007954
1119	5.5900e-01	8.8153	18.353891	-0.000030	-0.299315	-0.050705	0.000599
1120	5.5950e-01	8.8065	18.327805	0.000261	2.608315	0.441861	-0.005217
1121	5.6000e-01	8.7964	18.279484	0.000483	4.831797	0.818529	-0.009664
1122	5.6050e-01	8.7836	18.271359	0.000081	0.812426	0.137629	-0.001625
1123	5.6100e-01	8.7762	18.232873	0.000385	3.848334	0.651925	-0.007697
1124	5.6150e-01	8.7671	18.219616	0.000133	1.325537	0.224552	-0.002651
1125	5.6200e-01	8.7555	18.185834	0.000338	3.377982	0.572246	-0.006756
1126	5.6250e-01	8.7463	18.144354	0.000415	4.147649	0.702631	-0.008296
1127	5.6300e-01	8.7357	18.122973	0.000214	2.137963	0.362181	-0.004276
1128	5.6350e-01	8.7268	18.108861	0.000141	1.411056	0.239039	-0.002822
1129	5.6400e-01	8.7158	18.079355	0.000295	2.950389	0.499809	-0.005901
1130	5.6450e-01	8.7042	18.053698	0.000257	2.565556	0.434617	-0.005132
1131	5.6500e-01	8.6963	18.028468	0.000252	2.522797	0.427373	-0.005046
1132	5.6550e-01	8.6844	18.008797	0.000197	1.966926	0.333206	-0.003934
1133	5.6600e-01	8.6792	17.967745	0.000410	4.104889	0.695387	-0.008210
1134	5.6650e-01	8.6646	17.943370	0.000244	2.437278	0.412886	-0.004875
1135	5.6700e-01	8.6542	17.921561	0.000218	2.180723	0.369424	-0.004362
1136	5.6750e-01	8.6450	17.891628	0.000299	2.993149	0.507053	-0.005987
1137	5.6800e-01	8.6359	17.864260	0.000274	2.736593	0.463591	-0.005474
1138	5.6850e-01	8.6249	17.827056	0.000372	3.720056	0.630195	-0.007441
1139	5.6900e-01	8.6145	17.804820	0.000222	2.223482	0.376668	-0.004447
1140	5.6950e-01	8.6072	17.784294	0.000205	2.052445	0.347694	-0.004105
1141	5.7000e-01	8.5953	17.759491	0.000248	2.480037	0.420130	-0.004960
1142	5.7050e-01	8.5852	17.717584	0.000419	4.190408	0.709874	-0.008381
1143	5.7100e-01	8.5773	17.707321	0.000103	1.026222	0.173847	-0.002053
1144	5.7150e-01	8.5658	17.658144	0.000492	4.917315	0.833016	-0.009835
1145	5.7200e-01	8.5567	17.637618	0.000205	2.052445	0.347694	-0.004105
1146	5.7250e-01	8.5440	17.609395	0.000282	2.822112	0.478079	-0.005645
1147	5.7300e-01	8.5358	17.595711	0.000137	1.368296	0.231796	-0.002737
1148	5.7350e-01	8.5260	17.553804	0.000419	4.190408	0.709874	-0.008381
1149	5.7400e-01	8.5187	17.536699	0.000171	1.710371	0.289745	-0.003421
1150	5.7450e-01	8.5065	17.504199	0.000325	3.249704	0.550515	-0.006500
1151	5.7500e-01	8.4973	17.481535	0.000227	2.266241	0.383912	-0.004533
1152	5.7550e-01	8.4875	17.454167	0.000274	2.736593	0.463591	-0.005474
1153	5.7600e-01	8.4729	17.427227	0.000269	2.693834	0.456348	-0.005388
1154	5.7650e-01	8.4644	17.388740	0.000385	3.848334	0.651925	-0.007697
1155	5.7700e-01	8.4583	17.367787	0.000210	2.095204	0.354937	-0.004191
1156	5.7750e-01	8.4460	17.341702	0.000261	2.608315	0.441861	-0.005217
1157	5.7800e-01	8.4369	17.308347	0.000334	3.335223	0.565002	-0.006671
1158	5.7850e-01	8.4259	17.291669	0.000167	1.667611	0.282501	-0.003335
1159	5.7900e-01	8.4161	17.253611	0.000381	3.805575	0.644682	-0.007612
1160	5.7950e-01	8.4070	17.225388	0.000282	2.822112	0.478079	-0.005645
1161	5.8000e-01	8.3984	17.201440	0.000239	2.394519	0.405642	-0.004789
1162	5.8050e-01	8.3832	17.177066	0.000244	2.437278	0.412886	-0.004875
1163	5.8100e-01	8.3771	17.154829	0.000222	2.223482	0.376668	-0.004447
1164	5.8150e-01	8.3667	17.114205	0.000406	4.062130	0.688143	-0.008125
1165	5.8200e-01	8.3563	17.079567	0.000346	3.463500	0.586733	-0.006928
1166	5.8250e-01	8.3443	17.065456	0.000141	1.411056	0.239039	-0.002822
1167	5.8300e-01	8.3350	17.033811	0.000316	3.164186	0.536028	-0.006329
1168	5.8350e-01	8.3252	17.007726	0.000261	2.608315	0.441861	-0.005217
1169	5.8400e-01	8.3136	16.966674	0.000410	4.104889	0.695387	-0.008210
1170	5.8450e-01	8.3063	16.952135	0.000145	1.453815	0.246283	-0.002908
1171	5.8500e-01	8.2954	16.914504	0.000376	3.762815	0.637438	-0.007526
1172	5.8550e-01	8.2874	16.891412	0.000231	2.309000	0.391155	-0.004618
1173	5.8600e-01	8.2742	16.867038	0.000244	2.437278	0.412886	-0.004875
1174	5.8650e-01	8.2672	16.831117	0.000359	3.591778	0.608464	-0.007184
1175	5.8700e-01	8.2568	16.809308	0.000218	2.180723	0.369424	-0.004362
1176	5.8750e-01	8.2446	16.778947	0.000304	3.035908	0.514297	-0.006072
1177	5.8800e-01	8.2379	16.746447	0.000325	3.249704	0.550515	-0.006500
1178	5.8850e-01	8.2257	16.711382	0.000351	3.506260	0.593976	-0.007013
1179	5.8900e-01	8.2147	16.701974	0.000094	0.940704	0.159360	-0.001882
1180	5.8950e-01	8.2045	16.667764	0.000342	3.420741	0.579489	-0.006842
1181	5.9000e-01	8.1964	16.636120	0.000316	3.164186	0.536028	-0.006329
1182	5.9050e-01	8.1860	16.610890	0.000252	2.522797	0.427373	-0.005046
1183	5.9100e-01	8.1781	16.566845	0.000440	4.404204	0.746092	-0.008809
1184	5.9150e-01	8.1677	16.552305	0.000145	1.453815	0.246283	-0.002908
1185	5.9200e-01	8.1573	16.512109	0.000402	4.019371	0.680900	-0.008039
1186	5.9250e-01	8.1470	16.486879	0.000252	2.522797	0.427373	-0.005046
1187	5.9300e-01	8.1348	16.458228	0.000286	2.864871	0.485322	-0.005730
1188	5.9350e-01	8.1256	16.435136	0.000231	2.309000	0.391155	-0.004618
1189	5.9400e-01	8.1192	16.393656	0.000415	4.147649	0.702631	-0.008296
1190	5.9450e-01	8.1061	16.380828	0.000128	1.282778	0.217308	-0.002566
1191	5.9500e-01	8.0963	16.341058	0.000398	3.976612	0.673656	-0.007954
1192	5.9550e-01	8.0853	16.324381	0.000167	1.667611	0.282501	-0.003335
1193	5.9600e-01	8.0740	16.290599	0.000338	3.377982	0.572246	-0.006756
1194	5.9650e-01	8.0676	16.265369	0.000252	2.522797	0.427373	-0.005046
1195	5.9700e-01	8.0548	16.217475	0.000479	4.789038	0.811285	-0.009579
1196	5.9750e-01	8.0450	16.203791	0.000137	1.368296	0.231796	-0.002737
1197	5.9800e-01	8.0365	16.166587	0.000372	3.720056	0.630195	-0.007441
1198	5.9850e-01	8.0240	16.140075	0.000265	2.651074	0.449104	-0.005303
1199	5.9900e-01	8.0139	16.116128	0.000239	2.394519	0.405642	-0.004789
1200	5.9950e-01	8.0078	16.098167	0.000180	1.795889	0.304232	-0.003592
1201	6.0000e-01	7.9963	16.062674	0.000355	3.549019	0.601220	-0.007099
1202	6.0050e-01	7.9874	16.028464	0.000342	3.420741	0.579489	-0.006842
1203	6.0100e-01	7.9736	15.996820	0.000316	3.164186	0.536028	-0.006329
1204	6.0150e-01	7.9660	15.962610	0.000342	3.420741	0.579489	-0.006842
1205	6.0200e-01	7.9565	15.932249	0.000304	3.035908	0.514297	-0.006072
1206	6.0250e-01	7.9486	15.908729	0.000235	2.351760	0.398399	-0.004704
1207	6.0300e-01	7.9364	15.886065	0.000227	2.266241	0.383912	-0.004533
1208	6.0350e-01	7.9260	15.843730	0.000423	4.233167	0.717118	-0.008467
1209	6.0400e-01	7.9178	15.821494	0.000222	2.223482	0.376668	-0.004447
1210	6.0450e-01	7.9041	15.788567	0.000329	3.292463	0.557758	-0.006585
1211	6.0500e-01	7.8952	15.778304	0.000103	1.026222	0.173847	-0.002053
1212	6.0550e-01	7.8857	15.752646	0.000257	2.565556	0.434617	-0.005132
1213	6.0600e-01	7.8769	15.698338	0.000543	5.430427	0.919939	-0.010862
1214	6.0650e-01	7.8665	15.675674	0.000227	2.266241	0.383912	-0.004533
1215	6.0700e-01	7.8552	15.656003	0.000197	1.966926	0.333206	-0.003934
1216	6.0750e-01	7.8419	15.607253	0.000487	4.874556	0.825772	-0.009750
1217	6.0800e-01	7.8369	15.580741	0.000265	2.651074	0.449104	-0.005303
1218	6.0850e-01	7.8235	15.551662	0.000291	2.907630	0.492566	-0.005816
1219	6.0900e-01	7.8180	15.520446	0.000312	3.121426	0.528784	-0.006243
1220	6.0950e-01	7.8067	15.494360	0.000261	2.608315	0.441861	-0.005217
1221	6.1000e-01	7.7979	15.472124	0.000222	2.223482	0.376668	-0.004447
1222	6.1050e-01	7.7844	15.444328	0.000278	2.779352	0.470835	-0.005559
1223	6.1100e-01	7.7728	15.423802	0.000205	2.052445	0.347694	-0.004105
1224	6.1150e-01	7.7661	15.385316	0.000385	3.848334	0.651925	-0.007697
1225	6.1200e-01	7.7551	15.351961	0.000334	3.335223	0.565002	-0.006671
1226	6.1250e-01	7.7454	15.307061	0.000449	4.489723	0.760580	-0.008980
1227	6.1300e-01	7.7368	15.309199	-0.000021	-0.213796	-0.036218	0.000428
1228	6.1350e-01	7.7246	15.276699	0.000325	3.249704	0.550515	-0.006500
1229	6.1400e-01	7.7151	15.239923	0.000368	3.677297	0.622951	-0.007355
1230	6.1450e-01	7.7106	15.198016	0.000419	4.190408	0.709874	-0.008381
1231	6.1500e-01	7.6978	15.183904	0.000141	1.411056	0.239039	-0.002822
1232	6.1550e-01	7.6874	15.141997	0.000419	4.190408	0.709874	-0.008381
1233	6.1600e-01	7.6764	15.109925	0.000321	3.206945	0.543271	-0.006414
1234	6.1650e-01	7.6666	15.091965	0.000180	1.795889	0.304232	-0.003592
1235	6.1700e-01	7.6556	15.053051	0.000389	3.891093	0.659169	-0.007783
1236	6.1750e-01	7.6477	15.032953	0.000201	2.009685	0.340450	-0.004020
1237	6.1800e-01	7.6367	15.006868	0.000261	2.608315	0.441861	-0.005217
1238	6.1850e-01	7.6306	14.959401	0.000475	4.746278	0.804041	-0.009493
1239	6.1900e-01	7.6172	14.937165	0.000222	2.223482	0.376668	-0.004447
1240	6.1950e-01	7.6080	14.899961	0.000372	3.720056	0.630195	-0.007441
1241	6.2000e-01	7.5964	14.878152	0.000218	2.180723	0.369424	-0.004362
1242	6.2050e-01	7.5870	14.849929	0.000282	2.822112	0.478079	-0.005645
1243	6.2100e-01	7.5757	14.807594	0.000423	4.233167	0.717118	-0.008467
1244	6.2150e-01	7.5661	14.781937	0.000257	2.565556	0.434617	-0.005132
1245	6.2200e-01	7.5549	14.752858	0.000291	2.907630	0.492566	-0.005816
1246	6.2250e-01	7.5439	14.728911	0.000239	2.394519	0.405642	-0.004789
1247	6.2300e-01	7.5357	14.700260	0.000286	2.864871	0.485322	-0.005730
1248	6.2350e-01	7.5275	14.660919	0.000393	3.933852	0.666413	-0.007868
1249	6.2400e-01	7.5146	14.636116	0.000248	2.480037	0.420130	-0.004960
1250	6.2450e-01	7.5061	14.591216	0.000449	4.489723	0.760580	-0.008980
1251	6.2500e-01	7.4976	14.589078	0.000021	0.213796	0.036218	-0.000428
1252	6.2550e-01	7.4835	14.553157	0.000359	3.591778	0.608464	-0.007184
1253	6.2600e-01	7.4744	14.512960	0.000402	4.019371	0.680900	-0.008039
1254	6.2650e-01	7.4670	14.490296	0.000227	2.266241	0.383912	-0.004533
1255	6.2700e-01	7.4557	14.464211	0.000261	2.608315	0.441861	-0.005217
1256	6.2750e-01	7.4463	14.435988	0.000282	2.822112	0.478079	-0.005645
1257	6.2800e-01	7.4353	14.388521	0.000475	4.746278	0.804041	-0.009493
1258	6.2850e-01	7.4261	14.360298	0.000282	2.822112	0.478079	-0.005645
1259	6.2900e-01	7.4155	14.338917	0.000214	2.137963	0.362181	-0.004276
1260	6.2950e-01	7.4084	14.284608	0.000543	5.430427	0.919939	-0.010862
1261	6.3000e-01	7.3993	14.287174	-0.000026	-0.256556	-0.043462	0.000513
1262	6.3050e-01	7.3877	14.239280	0.000479	4.789038	0.811285	-0.009579
1263	6.3100e-01	7.3761	14.214050	0.000252	2.522797	0.427373	-0.005046
1264	6.3150e-01	7.3660	14.181551	0.000325	3.249704	0.550515	-0.006500
1265	6.3200e-01	7.3578	14.151617	0.000299	2.993149	0.507053	-0.005987
1266	6.3250e-01	7.3444	14.125960	0.000257	2.565556	0.434617	-0.005132
1267	6.3300e-01	7.3352	14.092605	0.000334	3.335223	0.565002	-0.006671
1268	6.3350e-01	7.3279	14.058822	0.000338	3.377982	0.572246	-0.006756
1269	6.3400e-01	7.3169	14.023757	0.000351	3.506260	0.593976	-0.007013
1270	6.3450e-01	7.3071	13.990402	0.000334	3.335223	0.565002	-0.006671
1271	6.3500e-01	7.2943	13.975435	0.000150	1.496574	0.253527	-0.002993
1272	6.3550e-01	7.2867	13.925403	0.000500	5.002834	0.847503	-0.010006
1273	6.3600e-01	7.2729	13.896325	0.000291	2.907630	0.492566	-0.005816
1274	6.3650e-01	7.2644	13.883496	0.000128	1.282778	0.217308	-0.002566
1275	6.3700e-01	7.2571	13.840733	0.000428	4.275927	0.724362	-0.008553
1276	6.3750e-01	7.2473	13.800537	0.000402	4.019371	0.680900	-0.008039
1277	6.3800e-01	7.2363	13.770603	0.000299	2.993149	0.507053	-0.005987
1278	6.3850e-01	7.2266	13.749649	0.000210	2.095204	0.354937	-0.004191
1279	6.3900e-01	7.2162	13.726985	0.000227	2.266241	0.383912	-0.004533
1280	6.3950e-01	7.2040	13.686361	0.000406	4.062130	0.688143	-0.008125
1281	6.4000e-01	7.1967	13.651723	0.000346	3.463500	0.586733	-0.006928
1282	6.4050e-01	7.1869	13.623927	0.000278	2.779352	0.470835	-0.005559
1283	6.4100e-01	7.1742	13.591000	0.000329	3.292463	0.557758	-0.006585
1284	6.4150e-01	7.1625	13.564060	0.000269	2.693834	0.456348	-0.005388
1285	6.4200e-01	7.1570	13.528139	0.000359	3.591778	0.608464	-0.007184
1286	6.4250e-01	7.1448	13.504192	0.000239	2.394519	0.405642	-0.004789
1287	6.4300e-01	7.1365	13.473831	0.000304	3.035908	0.514297	-0.006072
1288	6.4350e-01	7.1234	13.428503	0.000453	4.532482	0.767823	-0.009066
1289	6.4400e-01	7.1155	13.398141	0.000304	3.035908	0.514297	-0.006072
1290	6.4450e-01	7.1063	13.383174	0.000150	1.496574	0.253527	-0.002993
1291	6.4500e-01	7.0966	13.341267	0.000419	4.190408	0.709874	-0.008381
1292	6.4550e-01	7.0856	13.318175	0.000231	2.309000	0.391155	-0.004618
1293	6.4600e-01	7.0764	13.283965	0.000342	3.420741	0.579489	-0.006842
1294	6.4650e-01	7.0661	13.252749	0.000312	3.121426	0.528784	-0.006243
1295	6.4700e-01	7.0590	13.215545	0.000372	3.720056	0.630195	-0.007441
1296	6.4750e-01	7.0490	13.189033	0.000265	2.651074	0.449104	-0.005303
1297	6.4800e-01	7.0364	13.150974	0.000381	3.805575	0.644682	-0.007612
1298	6.4850e-01	7.0242	13.120185	0.000308	3.078667	0.521540	-0.006158
1299	6.4900e-01	7.0154	13.101797	0.000184	1.838648	0.311475	-0.003678
1300	6.4950e-01	7.0062	13.058179	0.000436	4.361445	0.738849	-0.008724
1301	6.5000e-01	6.9958	13.028245	0.000299	2.993149	0.507053	-0.005987
1302	6.5050e-01	6.9861	13.000450	0.000278	2.779352	0.470835	-0.005559
1303	6.5100e-01	6.9730	12.976075	0.000244	2.437278	0.412886	-0.004875
1304	6.5150e-01	6.9659	12.939299	0.000368	3.677297	0.622951	-0.007355
1305	6.5200e-01	6.9537	12.905945	0.000334	3.335223	0.565002	-0.006671
1306	6.5250e-01	6.9447	12.868314	0.000376	3.762815	0.637438	-0.007526
1307	6.5300e-01	6.9354	12.839235	0.000291	2.907630	0.492566	-0.005816
1308	6.5350e-01	6.9269	12.816571	0.000227	2.266241	0.383912	-0.004533
1309	6.5400e-01	6.9177	12.778940	0.000376	3.762815	0.637438	-0.007526
1310	6.5450e-01	6.9098	12.750717	0.000282	2.822112	0.478079	-0.005645
1311	6.5500e-01	6.8970	12.712658	0.000381	3.805575	0.644682	-0.007612
1312	6.5550e-01	6.8866	12.687856	0.000248	2.480037	0.420130	-0.004960
1313	6.5600e-01	6.8768	12.663909	0.000239	2.394519	0.405642	-0.004789
1314	6.5650e-01	6.8677	12.608745	0.000552	5.515945	0.934426	-0.011033
1315	6.5700e-01	6.8573	12.582232	0.000265	2.651074	0.449104	-0.005303
1316	6.5750e-01	6.8497	12.559141	0.000231	2.309000	0.391155	-0.004618
1317	6.5800e-01	6.8355	12.524075	0.000351	3.506260	0.593976	-0.007013
1318	6.5850e-01	6.8256	12.483451	0.000406	4.062130	0.688143	-0.008125
1319	6.5900e-01	6.8158	12.462925	0.000205	2.052445	0.347694	-0.004105
1320	6.5950e-01	6.8060	12.429998	0.000329	3.292463	0.557758	-0.006585
1321	6.6000e-01	6.7975	12.393222	0.000368	3.677297	0.622951	-0.007355
1322	6.6050e-01	6.7834	12.364143	0.000291	2.907630	0.492566	-0.005816
1323	6.6100e-01	6.7737	12.344900	0.000192	1.924167	0.325963	-0.003849
1324	6.6150e-01	6.7657	12.304276	0.000406	4.062130	0.688143	-0.008125
1325	6.6200e-01	6.7548	12.261513	0.000428	4.275927	0.724362	-0.008553
1326	6.6250e-01	6.7474	12.240987	0.000205	2.052445	0.347694	-0.004105
1327	6.6300e-01	6.7365	12.205494	0.000355	3.549019	0.601220	-0.007099
1328	6.6350e-01	6.7255	12.174705	0.000308	3.078667	0.521540	-0.006158
1329	6.6400e-01	6.7154	12.142206	0.000325	3.249704	0.550515	-0.006500
1330	6.6450e-01	6.7059	12.111417	0.000308	3.078667	0.521540	-0.006158
1331	6.6500e-01	6.6974	12.086615	0.000248	2.480037	0.420130	-0.004960
1332	6.6550e-01	6.6852	12.048128	0.000385	3.848334	0.651925	-0.007697
1333	6.6600e-01	6.6760	12.003228	0.000449	4.489723	0.760580	-0.008980
1334	6.6650e-01	6.6650	12.001945	0.000013	0.128278	0.021731	-0.000257
1335	6.6700e-01	6.6541	11.951057	0.000509	5.088353	0.861990	-0.010177
1336	6.6750e-01	6.6470	11.913854	0.000372	3.720056	0.630195	-0.007441
1337	6.6800e-01	6.6351	11.878789	0.000351	3.506260	0.593976	-0.007013
1338	6.6850e-01	6.6252	11.841158	0.000376	3.762815	0.637438	-0.007526
1339	6.6900e-01	6.6147	11.809513	0.000316	3.164186	0.536028	-0.006329
1340	6.6950e-01	6.6061	11.789843	0.000197	1.966926	0.333206	-0.003934
1341	6.7000e-01	6.5952	11.753494	0.000363	3.634538	0.615707	-0.007270
1342	6.7050e-01	6.5845	11.700041	0.000534	5.344908	0.905452	-0.010691
1343	6.7100e-01	6.5738	11.677377	0.000227	2.266241	0.383912	-0.004533
1344	6.7150e-01	6.5656	11.656851	0.000205	2.052445	0.347694	-0.004105
1345	6.7200e-01	6.5549	11.620931	0.000359	3.591778	0.608464	-0.007184
1346	6.7250e-01	6.5485	11.597411	0.000235	2.351760	0.398399	-0.004704
1347	6.7300e-01	6.5341	11.552938	0.000445	4.446964	0.753336	-0.008895
1348	6.7350e-01	6.5259	11.521722	0.000312	3.121426	0.528784	-0.006243
1349	6.7400e-01	6.5182	11.477676	0.000440	4.404204	0.746092	-0.008809
1350	6.7450e-01	6.5057	11.471689	0.000060	0.598630	0.101411	-0.001197
1351	6.7500e-01	6.4954	11.426361	0.000453	4.532482	0.767823	-0.009066
1352	6.7550e-01	6.4862	11.393862	0.000325	3.249704	0.550515	-0.006500
1353	6.7600e-01	6.4740	11.362217	0.000316	3.164186	0.536028	-0.006329
1354	6.7650e-01	6.4630	11.334849	0.000274	2.736593	0.463591	-0.005474
1355	6.7700e-01	6.4548	11.300639	0.000342	3.420741	0.579489	-0.006842
1356	6.7750e-01	6.4465	11.265146	0.000355	3.549019	0.601220	-0.007099
1357	6.7800e-01	6.4359	11.225805	0.000393	3.933852	0.666413	-0.007868
1358	6.7850e-01	6.4252	11.195016	0.000308	3.078667	0.521540	-0.006158
1359	6.7900e-01	6.4178	11.160378	0.000346	3.463500	0.586733	-0.006928
1360	6.7950e-01	6.4056	11.126596	0.000338	3.377982	0.572246	-0.006756
1361	6.8000e-01	6.3947	11.095379	0.000312	3.121426	0.528784	-0.006243
1362	6.8050e-01	6.3824	11.062880	0.000325	3.249704	0.550515	-0.006500
1363	6.8100e-01	6.3757	11.025249	0.000376	3.762815	0.637438	-0.007526
1364	6.8150e-01	6.3651	11.009854	0.000154	1.539334	0.260770	-0.003079
1365	6.8200e-01	6.3565	10.947421	0.000624	6.242853	1.057568	-0.012487
1366	6.8250e-01	6.3464	10.928605	0.000188	1.881408	0.318719	-0.003763
1367	6.8300e-01	6.3361	10.895678	0.000329	3.292463	0.557758	-0.006585
1368	6.8350e-01	6.3251	10.865317	0.000304	3.035908	0.514297	-0.006072
1369	6.8400e-01	6.3141	10.812719	0.000526	5.259390	0.890965	-0.010520
1370	6.8450e-01	6.3062	10.802456	0.000103	1.026222	0.173847	-0.002053
1371	6.8500e-01	6.2943	10.780219	0.000222	2.223482	0.376668	-0.004447
1372	6.8550e-01	6.2881	10.731898	0.000483	4.831797	0.818529	-0.009664
1373	6.8600e-01	6.2781	10.694694	0.000372	3.720056	0.630195	-0.007441
1374	6.8650e-01	6.2640	10.675879	0.000188	1.881408	0.318719	-0.003763
1375	6.8700e-01	6.2555	10.627130	0.000487	4.874556	0.825772	-0.009750
1376	6.8750e-01	6.2457	10.602327	0.000248	2.480037	0.420130	-0.004960
1377	6.8800e-01	6.2347	10.579235	0.000231	2.309000	0.391155	-0.004618
1378	6.8850e-01	6.2268	10.534335	0.000449	4.489723	0.760580	-0.008980
1379	6.8900e-01	6.2177	10.496276	0.000381	3.805575	0.644682	-0.007612
1380	6.8950e-01	6.2051	10.465915	0.000304	3.035908	0.514297	-0.006072
1381	6.9000e-01	6.1978	10.425718	0.000402	4.019371	0.680900	-0.008039
1382	6.9050e-01	6.1853	10.382528	0.000432	4.318686	0.731605	-0.008638
1383	6.9100e-01	6.1768	10.365850	0.000167	1.667611	0.282501	-0.003335
1384	6.9150e-01	6.1682	10.324371	0.000415	4.147649	0.702631	-0.008296
1385	6.9200e-01	6.1560	10.286312	0.000381	3.805575	0.644682	-0.007612
1386	6.9250e-01	6.1487	10.247398	0.000389	3.891093	0.659169	-0.007783
1387	6.9300e-01	6.1356	10.229010	0.000184	1.838648	0.311475	-0.003678
1388	6.9350e-01	6.1237	10.194373	0.000346	3.463500	0.586733	-0.006928
1389	6.9400e-01	6.1163	10.161018	0.000334	3.335223	0.565002	-0.006671
1390	6.9450e-01	6.1096	10.132367	0.000286	2.864871	0.485322	-0.005730
1391	6.9500e-01	6.0956	10.087039	0.000453	4.532482	0.767823	-0.009066
1392	6.9550e-01	6.0840	10.050691	0.000363	3.634538	0.615707	-0.007270
1393	6.9600e-01	6.0754	10.020329	0.000304	3.035908	0.514297	-0.006072
1394	6.9650e-01	6.0669	9.990395	0.000299	2.993149	0.507053	-0.005987
1395	6.9700e-01	6.0565	9.962172	0.000282	2.822112	0.478079	-0.005645
1396	6.9750e-01	6.0483	9.931383	0.000308	3.078667	0.521540	-0.006158
1397	6.9800e-01	6.0370	9.895890	0.000355	3.549019	0.601220	-0.007099
1398	6.9850e-01	6.0249	9.859970	0.000359	3.591778	0.608464	-0.007184
1399	6.9900e-01	6.0162	9.824477	0.000355	3.549019	0.601220	-0.007099
1400	6.9950e-01	6.0063	9.785991	0.000385	3.848334	0.651925	-0.007697
1401	7.0000e-01	5.9979	9.753491	0.000325	3.249704	0.550515	-0.006500
1402	7.0050e-01	5.9857	9.712011	0.000415	4.147649	0.702631	-0.008296
1403	7.0100e-01	5.9766	9.688492	0.000235	2.351760	0.398399	-0.004704
1404	7.0150e-01	5.9637	9.665400	0.000231	2.309000	0.391155	-0.004618
1405	7.0200e-01	5.9564	9.606816	0.000586	5.858019	0.992375	-0.011717
1406	7.0250e-01	5.9457	9.583296	0.000235	2.351760	0.398399	-0.004704
1407	7.0300e-01	5.9381	9.547803	0.000355	3.549019	0.601220	-0.007099
1408	7.0350e-01	5.9265	9.508462	0.000393	3.933852	0.666413	-0.007868
1409	7.0400e-01	5.9169	9.474679	0.000338	3.377982	0.572246	-0.006756
1410	7.0450e-01	5.9036	9.435338	0.000393	3.933852	0.666413	-0.007868
1411	7.0500e-01	5.8949	9.408825	0.000265	2.651074	0.449104	-0.005303
1412	7.0550e-01	5.8856	9.379319	0.000295	2.950389	0.499809	-0.005901
1413	7.0600e-01	5.8807	9.344254	0.000351	3.506260	0.593976	-0.007013
1414	7.0650e-01	5.8661	9.314748	0.000295	2.950389	0.499809	-0.005901
1415	7.0700e-01	5.8563	9.282248	0.000325	3.249704	0.550515	-0.006500
1416	7.0750e-01	5.8459	9.267281	0.000150	1.496574	0.253527	-0.002993
1417	7.0800e-01	5.8359	9.208696	0.000586	5.858019	0.992375	-0.011717
1418	7.0850e-01	5.8255	9.168927	0.000398	3.976612	0.673656	-0.007954
1419	7.0900e-01	5.8145	9.143697	0.000252	2.522797	0.427373	-0.005046
1420	7.0950e-01	5.8063	9.106494	0.000372	3.720056	0.630195	-0.007441
1421	7.1000e-01	5.7960	9.071001	0.000355	3.549019	0.601220	-0.007099
1422	7.1050e-01	5.7855	9.030804	0.000402	4.019371	0.680900	-0.008039
1423	7.1100e-01	5.7770	8.994456	0.000363	3.634538	0.615707	-0.007270
1424	7.1150e-01	5.7657	8.971792	0.000227	2.266241	0.383912	-0.004533
1425	7.1200e-01	5.7556	8.926036	0.000458	4.575241	0.775067	-0.009151
1426	7.1250e-01	5.7471	8.888833	0.000372	3.720056	0.630195	-0.007441
1427	7.1300e-01	5.7352	8.860182	0.000286	2.864871	0.485322	-0.005730
1428	7.1350e-01	5.7251	8.825117	0.000351	3.506260	0.593976	-0.007013
1429	7.1400e-01	5.7181	8.800742	0.000244	2.437278	0.412886	-0.004875
1430	7.1450e-01	5.7063	8.741730	0.000590	5.900779	0.999619	-0.011802
1431	7.1500e-01	5.6966	8.706664	0.000351	3.506260	0.593976	-0.007013
1432	7.1550e-01	5.6848	8.669461	0.000372	3.720056	0.630195	-0.007441
1433	7.1600e-01	5.6757	8.658770	0.000107	1.068982	0.181090	-0.002138
1434	7.1650e-01	5.6645	8.613870	0.000449	4.489723	0.760580	-0.008980
1435	7.1700e-01	5.6563	8.574956	0.000389	3.891093	0.659169	-0.007783
1436	7.1750e-01	5.6476	8.540746	0.000342	3.420741	0.579489	-0.006842
1437	7.1800e-01	5.6360	8.503542	0.000372	3.720056	0.630195	-0.007441
1438	7.1850e-01	5.6268	8.465911	0.000376	3.762815	0.637438	-0.007526
1439	7.1900e-01	5.6152	8.442392	0.000235	2.351760	0.398399	-0.004704
1440	7.1950e-01	5.6049	8.426997	0.000154	1.539334	0.260770	-0.003079
1441	7.2000e-01	5.5946	8.367558	0.000594	5.943538	1.006863	-0.011888
1442	7.2050e-01	5.5859	8.317525	0.000500	5.002834	0.847503	-0.010006
1443	7.2100e-01	5.5768	8.303414	0.000141	1.411056	0.239039	-0.002822
1444	7.2150e-01	5.5670	8.260651	0.000428	4.275927	0.724362	-0.008553
1445	7.2200e-01	5.5573	8.229862	0.000308	3.078667	0.521540	-0.006158
1446	7.2250e-01	5.5423	8.205488	0.000244	2.437278	0.412886	-0.004875
1447	7.2300e-01	5.5353	8.159732	0.000458	4.575241	0.775067	-0.009151
1448	7.2350e-01	5.5267	8.120818	0.000389	3.891093	0.659169	-0.007783
1449	7.2400e-01	5.5154	8.096871	0.000239	2.394519	0.405642	-0.004789
1450	7.2450e-01	5.5063	8.058384	0.000385	3.848334	0.651925	-0.007697
1451	7.2500e-01	5.4956	8.014339	0.000440	4.404204	0.746092	-0.008809
1452	7.2550e-01	5.4868	7.980984	0.000334	3.335223	0.565002	-0.006671
1453	7.2600e-01	5.4767	7.951051	0.000299	2.993149	0.507053	-0.005987
1454	7.2650e-01	5.4646	7.901874	0.000492	4.917315	0.833016	-0.009835
1455	7.2700e-01	5.4573	7.852269	0.000496	4.960075	0.840259	-0.009921
1456	7.2750e-01	5.4453	7.830888	0.000214	2.137963	0.362181	-0.004276
1457	7.2800e-01	5.4358	7.796678	0.000342	3.420741	0.579489	-0.006842
1458	7.2850e-01	5.4257	7.766744	0.000299	2.993149	0.507053	-0.005987
1459	7.2900e-01	5.4169	7.726547	0.000402	4.019371	0.680900	-0.008039
1460	7.2950e-01	5.4077	7.693620	0.000329	3.292463	0.557758	-0.006585
1461	7.3000e-01	5.3979	7.657272	0.000363	3.634538	0.615707	-0.007270
1462	7.3050e-01	5.3851	7.626055	0.000312	3.121426	0.528784	-0.006243
1463	7.3100e-01	5.3778	7.592273	0.000338	3.377982	0.572246	-0.006756
1464	7.3150e-01	5.3665	7.549083	0.000432	4.318686	0.731605	-0.008638
1465	7.3200e-01	5.3571	7.511879	0.000372	3.720056	0.630195	-0.007441
1466	7.3250e-01	5.3465	7.468262	0.000436	4.361445	0.738849	-0.008724
1467	7.3300e-01	5.3375	7.433196	0.000351	3.506260	0.593976	-0.007013
1468	7.3350e-01	5.3244	7.413953	0.000192	1.924167	0.325963	-0.003849
1469	7.3400e-01	5.3143	7.366914	0.000470	4.703519	0.796798	-0.009408
1470	7.3450e-01	5.3064	7.340829	0.000261	2.608315	0.441861	-0.005217
1471	7.3500e-01	5.2948	7.294218	0.000466	4.660760	0.789554	-0.009322
1472	7.3550e-01	5.2869	7.256587	0.000376	3.762815	0.637438	-0.007526
1473	7.3600e-01	5.2744	7.212114	0.000445	4.446964	0.753336	-0.008895
1474	7.3650e-01	5.2643	7.188167	0.000239	2.394519	0.405642	-0.004789
1475	7.3700e-01	5.2576	7.140273	0.000479	4.789038	0.811285	-0.009579
1476	7.3750e-01	5.2472	7.118892	0.000214	2.137963	0.362181	-0.004276
1477	7.3800e-01	5.2368	7.069715	0.000492	4.917315	0.833016	-0.009835
1478	7.3850e-01	5.2271	7.059024	0.000107	1.068982	0.181090	-0.002138
1479	7.3900e-01	5.2164	7.001295	0.000577	5.772501	0.977888	-0.011546
1480	7.3950e-01	5.2075	6.968795	0.000325	3.249704	0.550515	-0.006500
1481	7.4000e-01	5.1990	6.949125	0.000197	1.966926	0.333206	-0.003934
1482	7.4050e-01	5.1851	6.896527	0.000526	5.259390	0.890965	-0.010520
1483	7.4100e-01	5.1740	6.868731	0.000278	2.779352	0.470835	-0.005559
1484	7.4150e-01	5.1657	6.823403	0.000453	4.532482	0.767823	-0.009066
1485	7.4200e-01	5.1584	6.799456	0.000239	2.394519	0.405642	-0.004789
1486	7.4250e-01	5.1453	6.758831	0.000406	4.062130	0.688143	-0.008125
1487	7.4300e-01	5.1364	6.724621	0.000342	3.420741	0.579489	-0.006842
1488	7.4350e-01	5.1276	6.675017	0.000496	4.960075	0.840259	-0.009921
1489	7.4400e-01	5.1141	6.636530	0.000385	3.848334	0.651925	-0.007697
1490	7.4450e-01	5.1068	6.613866	0.000227	2.266241	0.383912	-0.004533
1491	7.4500e-01	5.0946	6.571104	0.000428	4.275927	0.724362	-0.008553
1492	7.4550e-01	5.0864	6.525776	0.000453	4.532482	0.767823	-0.009066
1493	7.4600e-01	5.0772	6.492848	0.000329	3.292463	0.557758	-0.006585
1494	7.4650e-01	5.0647	6.471895	0.000210	2.095204	0.354937	-0.004191
1495	7.4700e-01	5.0568	6.424428	0.000475	4.746278	0.804041	-0.009493
1496	7.4750e-01	5.0484	6.387653	0.000368	3.677297	0.622951	-0.007355
1497	7.4800e-01	5.0342	6.350449	0.000372	3.720056	0.630195	-0.007441
1498	7.4850e-01	5.0293	6.315384	0.000351	3.506260	0.593976	-0.007013
1499	7.4900e-01	5.0146	6.283740	0.000316	3.164186	0.536028	-0.006329
1500	7.4950e-01	5.0037	6.227721	0.000560	5.601464	0.948914	-0.011204
1501	7.5000e-01	4.9969	6.201208	0.000265	2.651074	0.449104	-0.005303
1502	7.5050e-01	4.9861	6.156307	0.000449	4.489723	0.760580	-0.008980
1503	7.5100e-01	4.9771	6.138775	0.000175	1.753130	0.296988	-0.003507
1504	7.5150e-01	4.9652	6.096867	0.000419	4.190408	0.709874	-0.008381
1505	7.5200e-01	4.9561	6.056243	0.000406	4.062130	0.688143	-0.008125
1506	7.5250e-01	4.9438	6.008349	0.000479	4.789038	0.811285	-0.009579
1507	7.5300e-01	4.9377	5.984830	0.000235	2.351760	0.398399	-0.004704
1508	7.5350e-01	4.9260	5.945060	0.000398	3.976612	0.673656	-0.007954
1509	7.5400e-01	4.9139	5.907429	0.000376	3.762815	0.637438	-0.007526
1510	7.5450e-01	4.9069	5.882199	0.000252	2.522797	0.427373	-0.005046
1511	7.5500e-01	4.8932	5.842003	0.000402	4.019371	0.680900	-0.008039
1512	7.5550e-01	4.8862	5.779997	0.000620	6.200093	1.050324	-0.012401
1513	7.5600e-01	4.8773	5.747925	0.000321	3.206945	0.543271	-0.006414
1514	7.5650e-01	4.8660	5.716281	0.000316	3.164186	0.536028	-0.006329
1515	7.5700e-01	4.8557	5.690623	0.000257	2.565556	0.434617	-0.005132
1516	7.5750e-01	4.8506	5.646578	0.000440	4.404204	0.746092	-0.008809
1517	7.5800e-01	4.8352	5.591414	0.000552	5.515945	0.934426	-0.011033
1518	7.5850e-01	4.8257	5.570461	0.000210	2.095204	0.354937	-0.004191
1519	7.5900e-01	4.8170	5.534968	0.000355	3.549019	0.601220	-0.007099
1520	7.5950e-01	4.8050	5.488357	0.000466	4.660760	0.789554	-0.009322
1521	7.6000e-01	4.7961	5.449015	0.000393	3.933852	0.666413	-0.007868
1522	7.6050e-01	4.7845	5.411384	0.000376	3.762815	0.637438	-0.007526
1523	7.6100e-01	4.7748	5.383588	0.000278	2.779352	0.470835	-0.005559
1524	7.6150e-01	4.7668	5.336550	0.000470	4.703519	0.796798	-0.009408
1525	7.6200e-01	4.7568	5.295498	0.000410	4.104889	0.695387	-0.008210
1526	7.6250e-01	4.7470	5.265136	0.000304	3.035908	0.514297	-0.006072
1527	7.6300e-01	4.7351	5.235630	0.000295	2.950389	0.499809	-0.005901
1528	7.6350e-01	4.7247	5.202703	0.000329	3.292463	0.557758	-0.006585
1529	7.6400e-01	4.7171	5.158658	0.000440	4.404204	0.746092	-0.008809
1530	7.6450e-01	4.7084	5.110763	0.000479	4.789038	0.811285	-0.009579
1531	7.6500e-01	4.6960	5.071422	0.000393	3.933852	0.666413	-0.007868
1532	7.6550e-01	4.6857	5.036357	0.000351	3.506260	0.593976	-0.007013
1533	7.6600e-01	4.6765	4.999153	0.000372	3.720056	0.630195	-0.007441
1534	7.6650e-01	4.6674	4.978627	0.000205	2.052445	0.347694	-0.004105
1535	7.6700e-01	4.6573	4.942707	0.000359	3.591778	0.608464	-0.007184
1536	7.6750e-01	4.6474	4.895668	0.000470	4.703519	0.796798	-0.009408
1537	7.6800e-01	4.6356	4.844781	0.000509	5.088353	0.861990	-0.010177
1538	7.6850e-01	4.6240	4.824255	0.000205	2.052445	0.347694	-0.004105
1539	7.6900e-01	4.6149	4.766953	0.000573	5.729742	0.970644	-0.011460
1540	7.6950e-01	4.6045	4.757117	0.000098	0.983463	0.166603	-0.001967
1541	7.7000e-01	4.5956	4.692118	0.000650	6.499408	1.101030	-0.013000
1542	7.7050e-01	4.5866	4.653204	0.000389	3.891093	0.659169	-0.007783
1543	7.7100e-01	4.5746	4.620277	0.000329	3.292463	0.557758	-0.006585
1544	7.7150e-01	4.5651	4.581363	0.000389	3.891093	0.659169	-0.007783
1545	7.7200e-01	4.5587	4.549291	0.000321	3.206945	0.543271	-0.006414
1546	7.7250e-01	4.5457	4.513371	0.000359	3.591778	0.608464	-0.007184
1547	7.7300e-01	4.5355	4.468470	0.000449	4.489723	0.760580	-0.008980
1548	7.7350e-01	4.5251	4.422287	0.000462	4.618001	0.782310	-0.009237
1549	7.7400e-01	4.5172	4.392353	0.000299	2.993149	0.507053	-0.005987
1550	7.7450e-01	4.5062	4.357288	0.000351	3.506260	0.593976	-0.007013
1551	7.7500e-01	4.4958	4.298275	0.000590	5.900779	0.999619	-0.011802
1552	7.7550e-01	4.4849	4.278605	0.000197	1.966926	0.333206	-0.003934
1553	7.7600e-01	4.4763	4.231566	0.000470	4.703519	0.796798	-0.009408
1554	7.7650e-01	4.4666	4.181961	0.000496	4.960075	0.840259	-0.009921
1555	7.7700e-01	4.4556	4.159297	0.000227	2.266241	0.383912	-0.004533
1556	7.7750e-01	4.4458	4.125515	0.000338	3.377982	0.572246	-0.006756
1557	7.7800e-01	4.4379	4.068213	0.000573	5.729742	0.970644	-0.011460
1558	7.7850e-01	4.4238	4.044694	0.000235	2.351760	0.398399	-0.004704
1559	7.7900e-01	4.4173	3.996800	0.000479	4.789038	0.811285	-0.009579
1560	7.7950e-01	4.4075	3.963445	0.000334	3.335223	0.565002	-0.006671
1561	7.8000e-01	4.3967	3.920255	0.000432	4.318686	0.731605	-0.008638
1562	7.8050e-01	4.3860	3.887755	0.000325	3.249704	0.550515	-0.006500
1563	7.8100e-01	4.3744	3.853973	0.000338	3.377982	0.572246	-0.006756
1564	7.8150e-01	4.3665	3.798382	0.000556	5.558704	0.941670	-0.011118
1565	7.8200e-01	4.3598	3.772296	0.000261	2.608315	0.441861	-0.005217
1566	7.8250e-01	4.3466	3.722692	0.000496	4.960075	0.840259	-0.009921
1567	7.8300e-01	4.3372	3.674370	0.000483	4.831797	0.818529	-0.009664
1568	7.8350e-01	4.3268	3.656410	0.000180	1.795889	0.304232	-0.003592
1569	7.8400e-01	4.3153	3.607233	0.000492	4.917315	0.833016	-0.009835
1570	7.8450e-01	4.3048	3.571740	0.000355	3.549019	0.601220	-0.007099
1571	7.8500e-01	4.2963	3.541379	0.000304	3.035908	0.514297	-0.006072
1572	7.8550e-01	4.2856	3.489636	0.000517	5.173871	0.876477	-0.010349
1573	7.8600e-01	4.2755	3.454143	0.000355	3.549019	0.601220	-0.007099
1574	7.8650e-01	4.2647	3.421216	0.000329	3.292463	0.557758	-0.006585
1575	7.8700e-01	4.2538	3.373750	0.000475	4.746278	0.804041	-0.009493
1576	7.8750e-01	4.2459	3.331415	0.000423	4.233167	0.717118	-0.008467
1577	7.8800e-01	4.2360	3.301053	0.000304	3.035908	0.514297	-0.006072
1578	7.8850e-01	4.2242	3.265133	0.000359	3.591778	0.608464	-0.007184
1579	7.8900e-01	4.2186	3.212963	0.000522	5.216630	0.883721	-0.010434
1580	7.8950e-01	4.2074	3.174476	0.000385	3.848334	0.651925	-0.007697
1581	7.9000e-01	4.1968	3.132997	0.000415	4.147649	0.702631	-0.008296
1582	7.9050e-01	4.1858	3.091945	0.000410	4.104889	0.695387	-0.008210
1583	7.9100e-01	4.1776	3.056452	0.000355	3.549019	0.601220	-0.007099
1584	7.9150e-01	4.1663	3.015400	0.000410	4.104889	0.695387	-0.008210
1585	7.9200e-01	4.1541	2.979479	0.000359	3.591778	0.608464	-0.007184
1586	7.9250e-01	4.1447	2.926026	0.000534	5.344908	0.905452	-0.010691
1587	7.9300e-01	4.1376	2.904217	0.000218	2.180723	0.369424	-0.004362
1588	7.9350e-01	4.1272	2.844350	0.000599	5.986297	1.014106	-0.011974
1589	7.9400e-01	4.1174	2.815699	0.000286	2.864871	0.485322	-0.005730
1590	7.9450e-01	4.1058	2.775502	0.000402	4.019371	0.680900	-0.008039
1591	7.9500e-01	4.0961	2.754121	0.000214	2.137963	0.362181	-0.004276
1592	7.9550e-01	4.0857	2.695964	0.000582	5.815260	0.985132	-0.011631
1593	7.9600e-01	4.0775	2.648925	0.000470	4.703519	0.796798	-0.009408
1594	7.9650e-01	4.0671	2.629254	0.000197	1.966926	0.333206	-0.003934
1595	7.9700e-01	4.0564	2.574090	0.000552	5.515945	0.934426	-0.011033
1596	7.9750e-01	4.0442	2.524913	0.000492	4.917315	0.833016	-0.009835
1597	7.9800e-01	4.0370	2.486855	0.000381	3.805575	0.644682	-0.007612
1598	7.9850e-01	4.0253	2.443665	0.000432	4.318686	0.731605	-0.008638
1599	7.9900e-01	4.0174	2.409882	0.000338	3.377982	0.572246	-0.006756
1600	7.9950e-01	4.0036	2.373534	0.000363	3.634538	0.615707	-0.007270
1601	8.0000e-01	3.9966	2.338469	0.000351	3.506260	0.593976	-0.007013
1602	8.0050e-01	3.9844	2.301265	0.000372	3.720056	0.630195	-0.007441
1603	8.0100e-01	3.9763	2.255510	0.000458	4.575241	0.775067	-0.009151
1604	8.0150e-01	3.9696	2.216596	0.000389	3.891093	0.659169	-0.007783
1605	8.0200e-01	3.9572	2.176826	0.000398	3.976612	0.673656	-0.007954
1606	8.0250e-01	3.9450	2.125511	0.000513	5.131112	0.869234	-0.010263
1607	8.0300e-01	3.9352	2.103703	0.000218	2.180723	0.369424	-0.004362
1608	8.0350e-01	3.9270	2.042552	0.000611	6.114575	1.035837	-0.012230
1609	8.0400e-01	3.9151	2.022026	0.000205	2.052445	0.347694	-0.004105
1610	8.0450e-01	3.9053	1.954034	0.000680	6.798723	1.151735	-0.013598
1611	8.0500e-01	3.8937	1.919824	0.000342	3.420741	0.579489	-0.006842
1612	8.0550e-01	3.8898	1.898015	0.000218	2.180723	0.369424	-0.004362
1613	8.0600e-01	3.8736	1.848838	0.000492	4.917315	0.833016	-0.009835
1614	8.0650e-01	3.8626	1.776997	0.000718	7.183557	1.216927	-0.014368
1615	8.0700e-01	3.8513	1.768017	0.000090	0.897945	0.152116	-0.001796
1616	8.0750e-01	3.8428	1.736800	0.000312	3.121426	0.528784	-0.006243
1617	8.0800e-01	3.8331	1.682064	0.000547	5.473186	0.927183	-0.010947
1618	8.0850e-01	3.8269	1.638019	0.000440	4.404204	0.746092	-0.008809
1619	8.0900e-01	3.8165	1.608512	0.000295	2.950389	0.499809	-0.005901
1620	8.0950e-01	3.8043	1.562329	0.000462	4.618001	0.782310	-0.009237
1621	8.1000e-01	3.7967	1.525553	0.000368	3.677297	0.622951	-0.007355
1622	8.1050e-01	3.7857	1.475949	0.000496	4.960075	0.840259	-0.009921
1623	8.1100e-01	3.7740	1.449436	0.000265	2.651074	0.449104	-0.005303
1624	8.1150e-01	3.7655	1.401969	0.000475	4.746278	0.804041	-0.009493
1625	8.1200e-01	3.7556	1.357069	0.000449	4.489723	0.760580	-0.008980
1626	8.1250e-01	3.7500	1.312168	0.000449	4.489723	0.760580	-0.008980
1627	8.1300e-01	3.7361	1.278386	0.000338	3.377982	0.572246	-0.006756
1628	8.1350e-01	3.7289	1.248024	0.000304	3.035908	0.514297	-0.006072
1629	8.1400e-01	3.7180	1.194999	0.000530	5.302149	0.898208	-0.010605
1630	8.1450e-01	3.7056	1.171907	0.000231	2.309000	0.391155	-0.004618
1631	8.1500e-01	3.6939	1.115888	0.000560	5.601464	0.948914	-0.011204
1632	8.1550e-01	3.6850	1.068422	0.000475	4.746278	0.804041	-0.009493
1633	8.1600e-01	3.6780	1.032501	0.000359	3.591778	0.608464	-0.007184
1634	8.1650e-01	3.6652	0.979048	0.000534	5.344908	0.905452	-0.010691
1635	8.1700e-01	3.6555	0.947831	0.000312	3.121426	0.528784	-0.006243
1636	8.1750e-01	3.6444	0.906779	0.000410	4.104889	0.695387	-0.008210
1637	8.1800e-01	3.6346	0.862306	0.000445	4.446964	0.753336	-0.008895
1638	8.1850e-01	3.6249	0.819971	0.000423	4.233167	0.717118	-0.008467
1639	8.1900e-01	3.6176	0.781485	0.000385	3.848334	0.651925	-0.007697
1640	8.1950e-01	3.6115	0.722045	0.000594	5.943538	1.006863	-0.011888
1641	8.2000e-01	3.5929	0.690829	0.000312	3.121426	0.528784	-0.006243
1642	8.2050e-01	3.5864	0.656619	0.000342	3.420741	0.579489	-0.006842
1643	8.2100e-01	3.5760	0.625830	0.000308	3.078667	0.521540	-0.006158
1644	8.2150e-01	3.5677	0.565107	0.000607	6.071816	1.028593	-0.012145
1645	8.2200e-01	3.5561	0.521061	0.000440	4.404204	0.746092	-0.008809
1646	8.2250e-01	3.5464	0.485996	0.000351	3.506260	0.593976	-0.007013
1647	8.2300e-01	3.5348	0.435536	0.000505	5.045593	0.854747	-0.010092
1648	8.2350e-01	3.5298	0.395767	0.000398	3.976612	0.673656	-0.007954
1649	8.2400e-01	3.5150	0.364978	0.000308	3.078667	0.521540	-0.006158
1650	8.2450e-01	3.5065	0.314946	0.000500	5.002834	0.847503	-0.010006
1651	8.2500e-01	3.4973	0.283729	0.000312	3.121426	0.528784	-0.006243
1652	8.2550e-01	3.4869	0.230704	0.000530	5.302149	0.898208	-0.010605
1653	8.2600e-01	3.4788	0.180672	0.000500	5.002834	0.847503	-0.010006
1654	8.2650e-01	3.4656	0.144324	0.000363	3.634538	0.615707	-0.007270
1655	8.2700e-01	3.4576	0.112252	0.000321	3.206945	0.543271	-0.006414
1656	8.2750e-01	3.4460	0.045542	0.000667	6.670445	1.130004	-0.013342
1657	8.2800e-01	3.4383	0.004490	0.000410	4.104889	0.695387	-0.008210
1658	8.2850e-01	3.4271	-0.041266	0.000458	4.575241	0.775067	-0.009151
1659	8.2900e-01	3.4164	-0.073338	0.000321	3.206945	0.543271	-0.006414
1660	8.2950e-01	3.4064	-0.119094	0.000458	4.575241	0.775067	-0.009151
1661	8.3000e-01	3.3965	-0.159718	0.000406	4.062130	0.688143	-0.008125
1662	8.3050e-01	3.3863	-0.207184	0.000475	4.746278	0.804041	-0.009493
1663	8.3100e-01	3.3794	-0.230704	0.000235	2.351760	0.398399	-0.004704
1664	8.3150e-01	3.3652	-0.276887	0.000462	4.618001	0.782310	-0.009237
1665	8.3200e-01	3.3569	-0.324781	0.000479	4.789038	0.811285	-0.009579
1666	8.3250e-01	3.3449	-0.357281	0.000325	3.249704	0.550515	-0.006500
1667	8.3300e-01	3.3345	-0.406885	0.000496	4.960075	0.840259	-0.009921
1668	8.3350e-01	3.3246	-0.455207	0.000483	4.831797	0.818529	-0.009664
1669	8.3400e-01	3.3160	-0.494976	0.000398	3.976612	0.673656	-0.007954
1670	8.3450e-01	3.3051	-0.543726	0.000487	4.874556	0.825772	-0.009750
1671	8.3500e-01	3.2935	-0.580501	0.000368	3.677297	0.622951	-0.007355
1672	8.3550e-01	3.2870	-0.617277	0.000368	3.677297	0.622951	-0.007355
1673	8.3600e-01	3.2764	-0.669875	0.000526	5.259390	0.890965	-0.010520
1674	8.3650e-01	3.2657	-0.724611	0.000547	5.473186	0.927183	-0.010947
1675	8.3700e-01	3.2542	-0.741716	0.000171	1.710371	0.289745	-0.003421
1676	8.3750e-01	3.2468	-0.805005	0.000633	6.328371	1.072055	-0.012658
1677	8.3800e-01	3.2368	-0.852899	0.000479	4.789038	0.811285	-0.009579
1678	8.3850e-01	3.2242	-0.878984	0.000261	2.608315	0.441861	-0.005217
1679	8.3900e-01	3.2181	-0.934147	0.000552	5.515945	0.934426	-0.011033
1680	8.3950e-01	3.2063	-0.979476	0.000453	4.532482	0.767823	-0.009066
1681	8.4000e-01	3.1964	-1.008127	0.000286	2.864871	0.485322	-0.005730
1682	8.4050e-01	3.1836	-1.053882	0.000458	4.575241	0.775067	-0.009151
1683	8.4100e-01	3.1763	-1.095362	0.000415	4.147649	0.702631	-0.008296
1684	8.4150e-01	3.1662	-1.137697	0.000423	4.233167	0.717118	-0.008467
1685	8.4200e-01	3.1566	-1.184736	0.000470	4.703519	0.796798	-0.009408
1686	8.4250e-01	3.1443	-1.242038	0.000573	5.729742	0.970644	-0.011460
1687	8.4300e-01	3.1354	-1.280952	0.000389	3.891093	0.659169	-0.007783
1688	8.4350e-01	3.1287	-1.311741	0.000308	3.078667	0.521540	-0.006158
1689	8.4400e-01	3.1155	-1.357924	0.000462	4.618001	0.782310	-0.009237
1690	8.4450e-01	3.1090	-1.407956	0.000500	5.002834	0.847503	-0.010006
1691	8.4500e-01	3.0952	-1.445160	0.000372	3.720056	0.630195	-0.007441
1692	8.4550e-01	3.0854	-1.493054	0.000479	4.789038	0.811285	-0.009579
1693	8.4600e-01	3.0767	-1.542658	0.000496	4.960075	0.840259	-0.009921
1694	8.4650e-01	3.0643	-1.566605	0.000239	2.394519	0.405642	-0.004789
1695	8.4700e-01	3.0557	-1.622624	0.000560	5.601464	0.948914	-0.011204
1696	8.4750e-01	3.0438	-1.672229	0.000496	4.960075	0.840259	-0.009921
1697	8.4800e-01	3.0359	-1.707294	0.000351	3.506260	0.593976	-0.007013
1698	8.4850e-01	3.0273	-1.734662	0.000274	2.736593	0.463591	-0.005474
1699	8.4900e-01	3.0167	-1.807358	0.000727	7.269075	1.231415	-0.014539
1700	8.4950e-01	3.0038	-1.852259	0.000449	4.489723	0.760580	-0.008980
1701	8.5000e-01	2.9968	-1.893739	0.000415	4.147649	0.702631	-0.008296
1702	8.5050e-01	2.9865	-1.949330	0.000556	5.558704	0.941670	-0.011118
1703	8.5100e-01	2.9746	-1.971139	0.000218	2.180723	0.369424	-0.004362
1704	8.5150e-01	2.9678	-2.028868	0.000577	5.772501	0.977888	-0.011546
1705	8.5200e-01	2.9541	-2.065644	0.000368	3.677297	0.622951	-0.007355
1706	8.5250e-01	2.9449	-2.110117	0.000445	4.446964	0.753336	-0.008895
1707	8.5300e-01	2.9340	-2.147748	0.000376	3.762815	0.637438	-0.007526
1708	8.5350e-01	2.9227	-2.190938	0.000432	4.318686	0.731605	-0.008638
1709	8.5400e-01	2.9164	-2.240970	0.000500	5.002834	0.847503	-0.010006
1710	8.5450e-01	2.9077	-2.277746	0.000368	3.677297	0.622951	-0.007355
1711	8.5500e-01	2.8967	-2.323930	0.000462	4.618001	0.782310	-0.009237
1712	8.5550e-01	2.8847	-2.360705	0.000368	3.677297	0.622951	-0.007355
1713	8.5600e-01	2.8755	-2.427842	0.000671	6.713205	1.137248	-0.013427
1714	8.5650e-01	2.8676	-2.469750	0.000419	4.190408	0.709874	-0.008381
1715	8.5700e-01	2.8568	-2.515933	0.000462	4.618001	0.782310	-0.009237
1716	8.5750e-01	2.8448	-2.559979	0.000440	4.404204	0.746092	-0.008809
1717	8.5800e-01	2.8368	-2.608728	0.000487	4.874556	0.825772	-0.009750
1718	8.5850e-01	2.8244	-2.631820	0.000231	2.309000	0.391155	-0.004618
1719	8.5900e-01	2.8168	-2.694681	0.000629	6.285612	1.064811	-0.012572
1720	8.5950e-01	2.8035	-2.741292	0.000466	4.660760	0.789554	-0.009322
1721	8.6000e-01	2.7960	-2.778495	0.000372	3.720056	0.630195	-0.007441
1722	8.6050e-01	2.7847	-2.813560	0.000351	3.506260	0.593976	-0.007013
1723	8.6100e-01	2.7766	-2.869152	0.000556	5.558704	0.941670	-0.011118
1724	8.6150e-01	2.7667	-2.914052	0.000449	4.489723	0.760580	-0.008980
1725	8.6200e-01	2.7570	-2.948690	0.000346	3.463500	0.586733	-0.006928
1726	8.6250e-01	2.7457	-2.994018	0.000453	4.532482	0.767823	-0.009066
1727	8.6300e-01	2.7356	-3.035070	0.000410	4.104889	0.695387	-0.008210
1728	8.6350e-01	2.7290	-3.080399	0.000453	4.532482	0.767823	-0.009066
1729	8.6400e-01	2.7165	-3.155233	0.000748	7.482871	1.267633	-0.014967
1730	8.6450e-01	2.7061	-3.174904	0.000197	1.966926	0.333206	-0.003934
1731	8.6500e-01	2.6959	-3.232206	0.000573	5.729742	0.970644	-0.011460
1732	8.6550e-01	2.6837	-3.274968	0.000428	4.275927	0.724362	-0.008553
1733	8.6600e-01	2.6755	-3.321152	0.000462	4.618001	0.782310	-0.009237
1734	8.6650e-01	2.6646	-3.374605	0.000534	5.344908	0.905452	-0.010691
1735	8.6700e-01	2.6556	-3.422499	0.000479	4.789038	0.811285	-0.009579
1736	8.6750e-01	2.6465	-3.457137	0.000346	3.463500	0.586733	-0.006928
1737	8.6800e-01	2.6373	-3.514011	0.000569	5.686982	0.963401	-0.011375
1738	8.6850e-01	2.6245	-3.548221	0.000342	3.420741	0.579489	-0.006842
1739	8.6900e-01	2.6143	-3.606805	0.000586	5.858019	0.992375	-0.011717
1740	8.6950e-01	2.6081	-3.640588	0.000338	3.377982	0.572246	-0.006756
1741	8.7000e-01	2.5943	-3.688054	0.000475	4.746278	0.804041	-0.009493
1742	8.7050e-01	2.5845	-3.723547	0.000355	3.549019	0.601220	-0.007099
1743	8.7100e-01	2.5781	-3.785125	0.000616	6.157334	1.043081	-0.012316
1744	8.7150e-01	2.5665	-3.833019	0.000479	4.789038	0.811285	-0.009579
1745	8.7200e-01	2.5557	-3.877492	0.000445	4.446964	0.753336	-0.008895
1746	8.7250e-01	2.5455	-3.930090	0.000526	5.259390	0.890965	-0.010520
1747	8.7300e-01	2.5349	-3.945485	0.000154	1.539334	0.260770	-0.003079
1748	8.7350e-01	2.5244	-4.007063	0.000616	6.157334	1.043081	-0.012316
1749	8.7400e-01	2.5145	-4.049398	0.000423	4.233167	0.717118	-0.008467
1750	8.7450e-01	2.5056	-4.103278	0.000539	5.387667	0.912696	-0.010776
1751	8.7500e-01	2.4974	-4.155876	0.000526	5.259390	0.890965	-0.010520
1752	8.7550e-01	2.4863	-4.181106	0.000252	2.522797	0.427373	-0.005046
1753	8.7600e-01	2.4753	-4.244822	0.000637	6.371131	1.079299	-0.012743
1754	8.7650e-01	2.4689	-4.295710	0.000509	5.088353	0.861990	-0.010177
1755	8.7700e-01	2.4562	-4.329064	0.000334	3.335223	0.565002	-0.006671
1756	8.7750e-01	2.4445	-4.388077	0.000590	5.900779	0.999619	-0.011802
1757	8.7800e-01	2.4365	-4.430412	0.000423	4.233167	0.717118	-0.008467
1758	8.7850e-01	2.4240	-4.474457	0.000440	4.404204	0.746092	-0.008809
1759	8.7900e-01	2.4146	-4.522779	0.000483	4.831797	0.818529	-0.009664
1760	8.7950e-01	2.4036	-4.562120	0.000393	3.933852	0.666413	-0.007868
1761	8.8000e-01	2.3978	-4.627975	0.000658	6.584927	1.115517	-0.013171
1762	8.8050e-01	2.3840	-4.660474	0.000325	3.249704	0.550515	-0.006500
1763	8.8100e-01	2.3764	-4.712644	0.000522	5.216630	0.883721	-0.010434
1764	8.8150e-01	2.3662	-4.757973	0.000453	4.532482	0.767823	-0.009066
1765	8.8200e-01	2.3543	-4.801590	0.000436	4.361445	0.738849	-0.008724
1766	8.8250e-01	2.3430	-4.838794	0.000372	3.720056	0.630195	-0.007441
1767	8.8300e-01	2.3344	-4.897806	0.000590	5.900779	0.999619	-0.011802
1768	8.8350e-01	2.3260	-4.962805	0.000650	6.499408	1.101030	-0.013000
1769	8.8400e-01	2.3188	-4.988890	0.000261	2.608315	0.441861	-0.005217
1770	8.8450e-01	2.3058	-5.051751	0.000629	6.285612	1.064811	-0.012572
1771	8.8500e-01	2.2946	-5.101783	0.000500	5.002834	0.847503	-0.010006
1772	8.8550e-01	2.2864	-5.133855	0.000321	3.206945	0.543271	-0.006414
1773	8.8600e-01	2.2775	-5.184315	0.000505	5.045593	0.854747	-0.010092
1774	8.8650e-01	2.2655	-5.236913	0.000526	5.259390	0.890965	-0.010520
1775	8.8700e-01	2.2550	-5.281386	0.000445	4.446964	0.753336	-0.008895
1776	8.8750e-01	2.2464	-5.320727	0.000393	3.933852	0.666413	-0.007868
1777	8.8800e-01	2.2367	-5.375464	0.000547	5.473186	0.927183	-0.010947
1778	8.8850e-01	2.2247	-5.402832	0.000274	2.736593	0.463591	-0.005474
1779	8.8900e-01	2.2150	-5.455429	0.000526	5.259390	0.890965	-0.010520
1780	8.8950e-01	2.2063	-5.520001	0.000646	6.456649	1.093786	-0.012914
1781	8.9000e-01	2.1948	-5.550790	0.000308	3.078667	0.521540	-0.006158
1782	8.9050e-01	2.1864	-5.609375	0.000586	5.858019	0.992375	-0.011717
1783	8.9100e-01	2.1790	-5.647861	0.000385	3.848334	0.651925	-0.007697
1784	8.9150e-01	2.1681	-5.713287	0.000654	6.542168	1.108273	-0.013085
1785	8.9200e-01	2.1552	-5.754767	0.000415	4.147649	0.702631	-0.008296
1786	8.9250e-01	2.1440	-5.796674	0.000419	4.190408	0.709874	-0.008381
1787	8.9300e-01	2.1356	-5.843713	0.000470	4.703519	0.796798	-0.009408
1788	8.9350e-01	2.1269	-5.905291	0.000616	6.157334	1.043081	-0.012316
1789	8.9400e-01	2.1141	-5.941639	0.000363	3.634538	0.615707	-0.007270
1790	8.9450e-01	2.1066	-5.993382	0.000517	5.173871	0.876477	-0.010349
1791	8.9500e-01	2.0956	-6.042131	0.000487	4.874556	0.825772	-0.009750
1792	8.9550e-01	2.0857	-6.086604	0.000445	4.446964	0.753336	-0.008895
1793	8.9600e-01	2.0764	-6.124663	0.000381	3.805575	0.644682	-0.007612
1794	8.9650e-01	2.0642	-6.180682	0.000560	5.601464	0.948914	-0.011204
1795	8.9700e-01	2.0555	-6.226438	0.000458	4.575241	0.775067	-0.009151
1796	8.9750e-01	2.0435	-6.279463	0.000530	5.302149	0.898208	-0.010605
1797	8.9800e-01	2.0363	-6.331634	0.000522	5.216630	0.883721	-0.010434
1798	8.9850e-01	2.0233	-6.369265	0.000376	3.762815	0.637438	-0.007526
1799	8.9900e-01	2.0161	-6.427422	0.000582	5.815260	0.985132	-0.011631
1800	8.9950e-01	2.0044	-6.474460	0.000470	4.703519	0.796798	-0.009408
1801	9.0000e-01	1.9952	-6.512091	0.000376	3.762815	0.637438	-0.007526
1802	9.0050e-01	1.9849	-6.567255	0.000552	5.515945	0.934426	-0.011033
1803	9.0100e-01	1.9741	-6.601893	0.000346	3.463500	0.586733	-0.006928
1804	9.0150e-01	1.9637	-6.673306	0.000714	7.140797	1.209684	-0.014283
1805	9.0200e-01	1.9572	-6.710082	0.000368	3.677297	0.622951	-0.007355
1806	9.0250e-01	1.9473	-6.779357	0.000693	6.927001	1.173466	-0.013855
1807	9.0300e-01	1.9351	-6.817416	0.000381	3.805575	0.644682	-0.007612
1808	9.0350e-01	1.9252	-6.856330	0.000389	3.891093	0.659169	-0.007783
1809	9.0400e-01	1.9174	-6.893106	0.000368	3.677297	0.622951	-0.007355
1810	9.0450e-01	1.9055	-6.954256	0.000611	6.114575	1.035837	-0.012230
1811	9.0500e-01	1.8970	-7.003861	0.000496	4.960075	0.840259	-0.009921
1812	9.0550e-01	1.8849	-7.053465	0.000496	4.960075	0.840259	-0.009921
1813	9.0600e-01	1.8762	-7.101359	0.000479	4.789038	0.811285	-0.009579
1814	9.0650e-01	1.8634	-7.159944	0.000586	5.858019	0.992375	-0.011717
1815	9.0700e-01	1.8559	-7.212542	0.000526	5.259390	0.890965	-0.010520
1816	9.0750e-01	1.8465	-7.254021	0.000415	4.147649	0.702631	-0.008296
1817	9.0800e-01	1.8352	-7.301488	0.000475	4.746278	0.804041	-0.009493
1818	9.0850e-01	1.8279	-7.357079	0.000556	5.558704	0.941670	-0.011118
1819	9.0900e-01	1.8147	-7.402407	0.000453	4.532482	0.767823	-0.009066
1820	9.0950e-01	1.8076	-7.441321	0.000389	3.891093	0.659169	-0.007783
1821	9.1000e-01	1.7967	-7.501189	0.000599	5.986297	1.014106	-0.011974
1822	9.1050e-01	1.7850	-7.541386	0.000402	4.019371	0.680900	-0.008039
1823	9.1100e-01	1.7749	-7.592273	0.000509	5.088353	0.861990	-0.010177
1824	9.1150e-01	1.7645	-7.657700	0.000654	6.542168	1.108273	-0.013085
1825	9.1200e-01	1.7546	-7.698324	0.000406	4.062130	0.688143	-0.008125
1826	9.1250e-01	1.7456	-7.749211	0.000509	5.088353	0.861990	-0.010177
1827	9.1300e-01	1.7346	-7.804803	0.000556	5.558704	0.941670	-0.011118
1828	9.1350e-01	1.7239	-7.847138	0.000423	4.233167	0.717118	-0.008467
1829	9.1400e-01	1.7138	-7.898025	0.000509	5.088353	0.861990	-0.010177
1830	9.1450e-01	1.7053	-7.945064	0.000470	4.703519	0.796798	-0.009408
1831	9.1500e-01	1.6943	-7.987826	0.000428	4.275927	0.724362	-0.008553
1832	9.1550e-01	1.6852	-8.058812	0.000710	7.098038	1.202440	-0.014197
1833	9.1600e-01	1.6792	-8.093877	0.000351	3.506260	0.593976	-0.007013
1834	9.1650e-01	1.6672	-8.146475	0.000526	5.259390	0.890965	-0.010520
1835	9.1700e-01	1.6560	-8.194369	0.000479	4.789038	0.811285	-0.009579
1836	9.1750e-01	1.6464	-8.240553	0.000462	4.618001	0.782310	-0.009237
1837	9.1800e-01	1.6360	-8.299138	0.000586	5.858019	0.992375	-0.011717
1838	9.1850e-01	1.6235	-8.335486	0.000363	3.634538	0.615707	-0.007270
1839	9.1900e-01	1.6125	-8.388084	0.000526	5.259390	0.890965	-0.010520
1840	9.1950e-01	1.6049	-8.439826	0.000517	5.173871	0.876477	-0.010349
1841	9.2000e-01	1.5963	-8.484299	0.000445	4.446964	0.753336	-0.008895
1842	9.2050e-01	1.5842	-8.554002	0.000697	6.969760	1.180709	-0.013941
1843	9.2100e-01	1.5751	-8.601041	0.000470	4.703519	0.796798	-0.009408
1844	9.2150e-01	1.5634	-8.651073	0.000500	5.002834	0.847503	-0.010006
1845	9.2200e-01	1.5540	-8.697684	0.000466	4.660760	0.789554	-0.009322
1846	9.2250e-01	1.5439	-8.743440	0.000458	4.575241	0.775067	-0.009151
1847	9.2300e-01	1.5363	-8.794328	0.000509	5.088353	0.861990	-0.010177
1848	9.2350e-01	1.5283	-8.855478	0.000611	6.114575	1.035837	-0.012230
1849	9.2400e-01	1.5149	-8.919622	0.000641	6.413890	1.086542	-0.012829
1850	9.2450e-01	1.5069	-8.941003	0.000214	2.137963	0.362181	-0.004276
1851	9.2500e-01	1.4970	-9.009851	0.000688	6.884242	1.166222	-0.013770
1852	9.2550e-01	1.4841	-9.057745	0.000479	4.789038	0.811285	-0.009579
1853	9.2600e-01	1.4764	-9.112481	0.000547	5.473186	0.927183	-0.010947
1854	9.2650e-01	1.4637	-9.145836	0.000334	3.335223	0.565002	-0.006671
1855	9.2700e-01	1.4509	-9.211690	0.000658	6.584927	1.115517	-0.013171
1856	9.2750e-01	1.4478	-9.265998	0.000543	5.430427	0.919939	-0.010862
1857	9.2800e-01	1.4352	-9.319879	0.000539	5.387667	0.912696	-0.010776
1858	9.2850e-01	1.4241	-9.351523	0.000316	3.164186	0.536028	-0.006329
1859	9.2900e-01	1.4147	-9.418660	0.000671	6.713205	1.137248	-0.013427
1860	9.2950e-01	1.4049	-9.469548	0.000509	5.088353	0.861990	-0.010177
1861	9.3000e-01	1.3947	-9.510172	0.000406	4.062130	0.688143	-0.008125
1862	9.3050e-01	1.3846	-9.573461	0.000633	6.328371	1.072055	-0.012658
1863	9.3100e-01	1.3762	-9.611519	0.000381	3.805575	0.644682	-0.007612
1864	9.3150e-01	1.3654	-9.673098	0.000616	6.157334	1.043081	-0.012316
1865	9.3200e-01	1.3549	-9.709446	0.000363	3.634538	0.615707	-0.007270
1866	9.3250e-01	1.3450	-9.768030	0.000586	5.858019	0.992375	-0.011717
1867	9.3300e-01	1.3354	-9.822339	0.000543	5.430427	0.919939	-0.010862
1868	9.3350e-01	1.3229	-9.868095	0.000458	4.575241	0.775067	-0.009151
1869	9.3400e-01	1.3173	-9.922831	0.000547	5.473186	0.927183	-0.010947
1870	9.3450e-01	1.3036	-9.968159	0.000453	4.532482	0.767823	-0.009066
1871	9.3500e-01	1.2955	-10.025033	0.000569	5.686982	0.963401	-0.011375
1872	9.3550e-01	1.2845	-10.066085	0.000410	4.104889	0.695387	-0.008210
1873	9.3600e-01	1.2769	-10.135788	0.000697	6.969760	1.180709	-0.013941
1874	9.3650e-01	1.2686	-10.182827	0.000470	4.703519	0.796798	-0.009408
1875	9.3700e-01	1.2518	-10.222168	0.000393	3.933852	0.666413	-0.007868
1876	9.3750e-01	1.2453	-10.274339	0.000522	5.216630	0.883721	-0.010434
1877	9.3800e-01	1.2375	-10.335061	0.000607	6.071816	1.028593	-0.012145
1878	9.3850e-01	1.2251	-10.385521	0.000505	5.045593	0.854747	-0.010092
1879	9.3900e-01	1.2150	-10.441540	0.000560	5.601464	0.948914	-0.011204
1880	9.3950e-01	1.2054	-10.493710	0.000522	5.216630	0.883721	-0.010434
1881	9.4000e-01	1.1940	-10.538183	0.000445	4.446964	0.753336	-0.008895
1882	9.4050e-01	1.1865	-10.604038	0.000658	6.584927	1.115517	-0.013171
1883	9.4100e-01	1.1768	-10.642524	0.000385	3.848334	0.651925	-0.007697
1884	9.4150e-01	1.1664	-10.702392	0.000599	5.986297	1.014106	-0.011974
1885	9.4200e-01	1.1539	-10.747292	0.000449	4.489723	0.760580	-0.008980
1886	9.4250e-01	1.1475	-10.793476	0.000462	4.618001	0.782310	-0.009237
1887	9.4300e-01	1.1331	-10.861041	0.000676	6.755964	1.144491	-0.013513
1888	9.4350e-01	1.1269	-10.904658	0.000436	4.361445	0.738849	-0.008724
1889	9.4400e-01	1.1157	-10.966236	0.000616	6.157334	1.043081	-0.012316
1890	9.4450e-01	1.1071	-11.016269	0.000500	5.002834	0.847503	-0.010006
1891	9.4500e-01	1.0945	-11.040216	0.000239	2.394519	0.405642	-0.004789
1892	9.4550e-01	1.0871	-11.123175	0.000830	8.295297	1.405261	-0.016592
1893	9.4600e-01	1.0736	-11.158668	0.000355	3.549019	0.601220	-0.007099
1894	9.4650e-01	1.0634	-11.224094	0.000654	6.542168	1.108273	-0.013085
1895	9.4700e-01	1.0555	-11.279686	0.000556	5.558704	0.941670	-0.011118
1896	9.4750e-01	1.0448	-11.314323	0.000346	3.463500	0.586733	-0.006928
1897	9.4800e-01	1.0355	-11.372053	0.000577	5.772501	0.977888	-0.011546
1898	9.4850e-01	1.0251	-11.424223	0.000522	5.216630	0.883721	-0.010434
1899	9.4900e-01	1.0155	-11.484091	0.000599	5.986297	1.014106	-0.011974
1900	9.4950e-01	1.0050	-11.543103	0.000590	5.900779	0.999619	-0.011802
1901	9.5000e-01	0.9965	-11.602543	0.000594	5.943538	1.006863	-0.011888
1902	9.5050e-01	0.9892	-11.628200	0.000257	2.565556	0.434617	-0.005132
1903	9.5100e-01	0.9780	-11.700897	0.000727	7.269075	1.231415	-0.014539
1904	9.5150e-01	0.9663	-11.747508	0.000466	4.660760	0.789554	-0.009322
1905	9.5200e-01	0.9543	-11.804382	0.000569	5.686982	0.963401	-0.011375
1906	9.5250e-01	0.9467	-11.847572	0.000432	4.318686	0.731605	-0.008638
1907	9.5300e-01	0.9351	-11.912571	0.000650	6.499408	1.101030	-0.013000
1908	9.5350e-01	0.9269	-11.957472	0.000449	4.489723	0.760580	-0.008980
1909	9.5400e-01	0.9171	-12.029740	0.000723	7.226316	1.224171	-0.014454
1910	9.5450e-01	0.9063	-12.069510	0.000398	3.976612	0.673656	-0.007954
1911	9.5500e-01	0.8972	-12.128094	0.000586	5.858019	0.992375	-0.011717
1912	9.5550e-01	0.8868	-12.175133	0.000470	4.703519	0.796798	-0.009408
1913	9.5600e-01	0.8762	-12.228586	0.000534	5.344908	0.905452	-0.010691
1914	9.5650e-01	0.8652	-12.291875	0.000633	6.328371	1.072055	-0.012658
1915	9.5700e-01	0.8546	-12.342334	0.000505	5.045593	0.854747	-0.010092
1916	9.5750e-01	0.8447	-12.375689	0.000334	3.335223	0.565002	-0.006671
1917	9.5800e-01	0.8362	-12.444537	0.000688	6.884242	1.166222	-0.013770
1918	9.5850e-01	0.8247	-12.487727	0.000432	4.318686	0.731605	-0.008638
1919	9.5900e-01	0.8161	-12.555720	0.000680	6.798723	1.151735	-0.013598
1920	9.5950e-01	0.8047	-12.601048	0.000453	4.532482	0.767823	-0.009066
1921	9.6000e-01	0.7974	-12.646376	0.000453	4.532482	0.767823	-0.009066
1922	9.6050e-01	0.7855	-12.713941	0.000676	6.755964	1.144491	-0.013513
1923	9.6100e-01	0.7770	-12.766539	0.000526	5.259390	0.890965	-0.010520
1924	9.6150e-01	0.7693	-12.826406	0.000599	5.986297	1.014106	-0.011974
1925	9.6200e-01	0.7541	-12.862754	0.000363	3.634538	0.615707	-0.007270
1926	9.6250e-01	0.7463	-12.914497	0.000517	5.173871	0.876477	-0.010349
1927	9.6300e-01	0.7357	-12.976075	0.000616	6.157334	1.043081	-0.012316
1928	9.6350e-01	0.7252	-13.025680	0.000496	4.960075	0.840259	-0.009921
1929	9.6400e-01	0.7136	-13.084264	0.000586	5.858019	0.992375	-0.011717
1930	9.6450e-01	0.7045	-13.144560	0.000603	6.029056	1.021350	-0.012059
1931	9.6500e-01	0.6967	-13.182618	0.000381	3.805575	0.644682	-0.007612
1932	9.6550e-01	0.6860	-13.249328	0.000667	6.670445	1.130004	-0.013342
1933	9.6600e-01	0.6757	-13.297222	0.000479	4.789038	0.811285	-0.009579
1934	9.6650e-01	0.6646	-13.352385	0.000552	5.515945	0.934426	-0.011033
1935	9.6700e-01	0.6580	-13.407121	0.000547	5.473186	0.927183	-0.010947
1936	9.6750e-01	0.6451	-13.470838	0.000637	6.371131	1.079299	-0.012743
1937	9.6800e-01	0.6355	-13.519587	0.000487	4.874556	0.825772	-0.009750
1938	9.6850e-01	0.6270	-13.566198	0.000466	4.660760	0.789554	-0.009322
1939	9.6900e-01	0.6140	-13.643171	0.000770	7.696668	1.303851	-0.015395
1940	9.6950e-01	0.6078	-13.693203	0.000500	5.002834	0.847503	-0.010006
1941	9.7000e-01	0.5951	-13.740242	0.000470	4.703519	0.796798	-0.009408
1942	9.7050e-01	0.5859	-13.790701	0.000505	5.045593	0.854747	-0.010092
1943	9.7100e-01	0.5754	-13.837740	0.000470	4.703519	0.796798	-0.009408
1944	9.7150e-01	0.5631	-13.913857	0.000761	7.611149	1.289364	-0.015223
1945	9.7200e-01	0.5550	-13.960896	0.000470	4.703519	0.796798	-0.009408
1946	9.7250e-01	0.5466	-14.020764	0.000599	5.986297	1.014106	-0.011974
1947	9.7300e-01	0.5341	-14.063099	0.000423	4.233167	0.717118	-0.008467
1948	9.7350e-01	0.5247	-14.125532	0.000624	6.242853	1.057568	-0.012487
1949	9.7400e-01	0.5165	-14.168294	0.000428	4.275927	0.724362	-0.008553
1950	9.7450e-01	0.5072	-14.217899	0.000496	4.960075	0.840259	-0.009921
1951	9.7500e-01	0.4940	-14.295727	0.000778	7.782186	1.318338	-0.015566
1952	9.7550e-01	0.4842	-14.341483	0.000458	4.575241	0.775067	-0.009151
1953	9.7600e-01	0.4726	-14.391942	0.000505	5.045593	0.854747	-0.010092
1954	9.7650e-01	0.4636	-14.448389	0.000564	5.644223	0.956157	-0.011289
1955	9.7700e-01	0.4537	-14.506546	0.000582	5.815260	0.985132	-0.011631
1956	9.7750e-01	0.4424	-14.549309	0.000428	4.275927	0.724362	-0.008553
1957	9.7800e-01	0.4388	-14.616873	0.000676	6.755964	1.144491	-0.013513
1958	9.7850e-01	0.4261	-14.671609	0.000547	5.473186	0.927183	-0.010947
1959	9.7900e-01	0.4159	-14.729339	0.000577	5.772501	0.977888	-0.011546
1960	9.7950e-01	0.4047	-14.784075	0.000547	5.473186	0.927183	-0.010947
1961	9.8000e-01	0.3936	-14.852495	0.000684	6.841482	1.158978	-0.013684
1962	9.8050e-01	0.3828	-14.902527	0.000500	5.002834	0.847503	-0.010006
1963	9.8100e-01	0.3756	-14.947000	0.000445	4.446964	0.753336	-0.008895
1964	9.8150e-01	0.3680	-14.994894	0.000479	4.789038	0.811285	-0.009579
1965	9.8200e-01	0.3566	-15.047920	0.000530	5.302149	0.898208	-0.010605
1966	9.8250e-01	0.3436	-15.126175	0.000782	7.824946	1.325582	-0.015651
1967	9.8300e-01	0.3363	-15.164234	0.000381	3.805575	0.644682	-0.007612
1968	9.8350e-01	0.3243	-15.235647	0.000714	7.140797	1.209684	-0.014283
1969	9.8400e-01	0.3151	-15.277554	0.000419	4.190408	0.709874	-0.008381
1970	9.8450e-01	0.3062	-15.338277	0.000607	6.071816	1.028593	-0.012145
1971	9.8500e-01	0.2929	-15.382750	0.000445	4.446964	0.753336	-0.008895
1972	9.8550e-01	0.2874	-15.432355	0.000496	4.960075	0.840259	-0.009921
1973	9.8600e-01	0.2748	-15.490084	0.000577	5.772501	0.977888	-0.011546
1974	9.8650e-01	0.2666	-15.544820	0.000547	5.473186	0.927183	-0.010947
1975	9.8700e-01	0.2567	-15.620510	0.000757	7.568390	1.282120	-0.015138
1976	9.8750e-01	0.2436	-15.656430	0.000359	3.591778	0.608464	-0.007184
1977	9.8800e-01	0.2337	-15.722712	0.000663	6.627686	1.122760	-0.013256
1978	9.8850e-01	0.2258	-15.776593	0.000539	5.387667	0.912696	-0.010776
1979	9.8900e-01	0.2158	-15.849717	0.000731	7.311834	1.238658	-0.014625
1980	9.8950e-01	0.2038	-15.895473	0.000458	4.575241	0.775067	-0.009151
1981	9.9000e-01	0.1939	-15.949354	0.000539	5.387667	0.912696	-0.010776
1982	9.9050e-01	0.1839	-15.984419	0.000351	3.506260	0.593976	-0.007013
1983	9.9100e-01	0.1770	-16.066095	0.000817	8.167020	1.383531	-0.016335
1984	9.9150e-01	0.1647	-16.103726	0.000376	3.762815	0.637438	-0.007526
1985	9.9200e-01	0.1536	-16.169153	0.000654	6.542168	1.108273	-0.013085
1986	9.9250e-01	0.1464	-16.218758	0.000496	4.960075	0.840259	-0.009921
1987	9.9300e-01	0.1388	-16.281619	0.000629	6.285612	1.064811	-0.012572
1988	9.9350e-01	0.1254	-16.332506	0.000509	5.088353	0.861990	-0.010177
1989	9.9400e-01	0.1172	-16.387242	0.000547	5.473186	0.927183	-0.010947
1990	9.9450e-01	0.1054	-16.460366	0.000731	7.311834	1.238658	-0.014625
1991	9.9500e-01	0.0973	-16.506122	0.000458	4.575241	0.775067	-0.009151
1992	9.9550e-01	0.0851	-16.562996	0.000569	5.686982	0.963401	-0.011375
1993	9.9600e-01	0.0768	-16.627140	0.000641	6.413890	1.086542	-0.012829
1994	9.9650e-01	0.0678	-16.681876	0.000547	5.473186	0.927183	-0.010947
1995	9.9700e-01	0.0545	-16.723355	0.000415	4.147649	0.702631	-0.008296
1996	9.9750e-01	0.0475	-16.791775	0.000684	6.841482	1.158978	-0.013684
1997	9.9800e-01	0.0354	-16.846084	0.000543	5.430427	0.919939	-0.010862
1998	9.9850e-01	0.0234	-16.907662	0.000616	6.157334	1.043081	-0.012316
1999	9.9900e-01	0.0141	-16.961970	0.000543	5.430427	0.919939	-0.010862
2000	9.9950e-01	0.0056	-17.018844	0.000569	5.686982	0.963401	-0.011375
2001	1.0000e+00	-0.0034	-17.068449	0.000569	5.686982	0.963401	-0.009921

PMax (uC/cm2):	4.20e+01
Pr (uC/cm2):	3.93e+00
-Pr (uC/cm2):	0.00e+00
PLoss (uC/cm2):	0.00e+00
C (Max-Eff) (nF):	4.20e-01
K (Eff):	7.11e+02
Vert. (+/-Pr) Shift (uC/cm2):	1.96e+00
Offset (uC/cm2):	2.10e+01

A (Loop Area - uC/cm2·Volts):	-3.66e-02



Hysteresis Version: 5.48.1 - Radiant Technologies, Inc., 1999 - 9/12/24

