»»»»»»»»»»»»»»»»»»»»»»»»»»»»»»»»»»»» Hysteresis ««««««««««««««««««««««««««««««««««««
»»»  Executed Version:	5.48.1
»»»  Vision Version:	5.48.4 (R)
»»»  Vision Compiled:	9/18/24
»»»  Driver Version:	5.47.0
»»»  Windows Version:	Windows 8 or 8.1
»»»  Processor Information:	x86 (AMD or Intel) - 32 Processors
»»»  Tester Name:	PMF21124-494 (100V)
»»»  Tester S/N:	PMF21124-494
»»»  Internal Amp Type:	100V RevK 270k
»»»  Internal Amp S/N:	iAB2-596/K     
»»»  Execution Count:	1
»»»»»»»»»»»»»»»»»»»»»»»»»»»»»»»»»»»»»»»»»»««««««««««««««««««««««««««««««««««««««««««

Stored:	6/30/2025 - 17:5:28
Configured:	06/30/25 10:19:58 AM
Executed:	06/30/25 05:05:03 PM

»»»»»»»»»»»»»»»»»»»»»»»»»»»»»»»»»»» Sample Info ««««««««««««««««««««««««««««««««««««
Sample Name:	
Lot Name:	
Wafer Name:	
Die Row/Column:	0/0
Capacitor Number:	0
Sample Area (cm2):	1.00e-04
Sample Thickness (microns):	1.50e-01

Amplifier:	Internal

»»»»»»»»»»»»»»»»»»»»»»»»»»»»»»»»»»» Tester Info «««««««««««««««««««««««««««««««««««
Tester Name:	PMF21124-494 (100V)
Tester Serial Number:	PMF21124-494
Return Signal Amp. Level:	1.79 [Index: 2]

»»»»»»»»»»»»»»»»»»»»»»»»»»»»»»»» Hysteresis Info ««««««««««««««««««««««««««««««««««
Task Name:	Hyst-1804
Volts:	10.00
Field:	666.67 (kV/cm)
DCBias:	0.00
DCField:	0.00 (kV/cm)
Hysteresis Period (ms):	1.00e+00
Preset:	Enabled
Preset Delay (ms):	1.00e+03
Profile:	Standard Monopolar

»»»»»»»»»»»»»»»»»»»»»»»»»»»»»»»»»»»»»» Data «««««««««««««««««««««««««««««««««««««««
Points:	2001

Valid Data

Point	Time (ms)	Drive Voltage	Measured Polarization (uC/cm2)	Capacitance (uF)	Normalized Capacitance (uF/cm2)	Dielectric Constant	Instantaneous Current (mA)
   1	0.0000e+00	-0.0050	-20.109079	0.000573	5.729414	0.970589	0.011460
   2	5.0000e-04	0.0054	-20.051777	0.000573	5.729414	0.970589	0.011460
   3	1.0000e-03	0.0175	-20.023553	0.000282	2.821950	0.478051	0.005645
   4	1.5000e-03	0.0246	-19.974377	0.000492	4.917034	0.832968	0.009835
   5	2.0000e-03	0.0351	-19.909378	0.000650	6.499036	1.100967	0.013000
   6	2.5000e-03	0.0440	-19.858490	0.000509	5.088061	0.861941	0.010177
   7	3.0000e-03	0.0540	-19.807603	0.000509	5.088061	0.861941	0.010177
   8	3.5000e-03	0.0636	-19.772110	0.000355	3.548816	0.601186	0.007099
   9	4.0000e-03	0.0767	-19.719084	0.000530	5.301846	0.898157	0.010605
  10	4.5000e-03	0.0863	-19.670335	0.000487	4.874277	0.825725	0.009750
  11	5.0000e-03	0.0927	-19.612178	0.000581	5.814927	0.985075	0.011631
  12	5.5000e-03	0.1058	-19.559152	0.000530	5.301846	0.898157	0.010605
  13	6.0000e-03	0.1187	-19.524515	0.000346	3.463302	0.586699	0.006928
  14	6.5000e-03	0.1270	-19.468496	0.000560	5.601143	0.948859	0.011204
  15	7.0000e-03	0.1354	-19.413760	0.000547	5.472873	0.927130	0.010947
  16	7.5000e-03	0.1457	-19.365438	0.000483	4.831521	0.818482	0.009664
  17	8.0000e-03	0.1549	-19.319682	0.000457	4.574980	0.775023	0.009151
  18	8.5000e-03	0.1653	-19.258959	0.000607	6.071468	1.028535	0.012145
  19	9.0000e-03	0.1752	-19.213631	0.000453	4.532223	0.767779	0.009066
  20	9.5000e-03	0.1871	-19.175573	0.000381	3.805357	0.644645	0.007612
  21	1.0000e-02	0.1943	-19.114850	0.000607	6.071468	1.028535	0.012145
  22	1.0500e-02	0.2064	-19.069949	0.000449	4.489466	0.760536	0.008980
  23	1.1000e-02	0.2155	-19.026759	0.000432	4.318439	0.731563	0.008638
  24	1.1500e-02	0.2274	-18.967747	0.000590	5.900441	0.999562	0.011802
  25	1.2000e-02	0.2351	-18.946365	0.000214	2.137841	0.362160	0.004276
  26	1.2500e-02	0.2443	-18.881366	0.000650	6.499036	1.100967	0.013000
  27	1.3000e-02	0.2544	-18.814229	0.000671	6.712821	1.137183	0.013427
  28	1.3500e-02	0.2668	-18.769329	0.000449	4.489466	0.760536	0.008980
  29	1.4000e-02	0.2743	-18.716303	0.000530	5.301846	0.898157	0.010605
  30	1.4500e-02	0.2830	-18.661995	0.000543	5.430116	0.919887	0.010862
  31	1.5000e-02	0.2961	-18.625219	0.000368	3.677086	0.622915	0.007355
  32	1.5500e-02	0.3031	-18.563641	0.000616	6.156982	1.043021	0.012316
  33	1.6000e-02	0.3144	-18.512753	0.000509	5.088061	0.861941	0.010177
  34	1.6500e-02	0.3265	-18.475550	0.000372	3.719843	0.630159	0.007441
  35	1.7000e-02	0.3346	-18.433643	0.000419	4.190168	0.709834	0.008381
  36	1.7500e-02	0.3451	-18.368644	0.000650	6.499036	1.100967	0.013000
  37	1.8000e-02	0.3548	-18.297230	0.000714	7.140389	1.209615	0.014283
  38	1.8500e-02	0.3648	-18.273711	0.000235	2.351625	0.398376	0.004704
  39	1.9000e-02	0.3765	-18.226672	0.000470	4.703250	0.796752	0.009408
  40	1.9500e-02	0.3845	-18.167232	0.000594	5.943198	1.006805	0.011888
  41	2.0000e-02	0.3943	-18.103088	0.000641	6.413523	1.086480	0.012829
  42	2.0500e-02	0.4050	-18.080424	0.000227	2.266111	0.383890	0.004533
  43	2.1000e-02	0.4138	-18.014998	0.000654	6.541793	1.108210	0.013085
  44	2.1500e-02	0.4260	-17.981643	0.000334	3.335032	0.564970	0.006671
  45	2.2000e-02	0.4385	-17.925196	0.000564	5.643900	0.956103	0.011289
  46	2.2500e-02	0.4440	-17.874736	0.000505	5.045305	0.854698	0.010092
  47	2.3000e-02	0.4546	-17.816152	0.000586	5.857684	0.992319	0.011717
  48	2.3500e-02	0.4675	-17.780659	0.000355	3.548816	0.601186	0.007099
  49	2.4000e-02	0.4758	-17.713522	0.000671	6.712821	1.137183	0.013427
  50	2.4500e-02	0.4843	-17.684443	0.000291	2.907464	0.492538	0.005816
  51	2.5000e-02	0.4945	-17.621155	0.000633	6.328009	1.071994	0.012658
  52	2.5500e-02	0.5041	-17.562570	0.000586	5.857684	0.992319	0.011717
  53	2.6000e-02	0.5145	-17.529643	0.000329	3.292275	0.557726	0.006585
  54	2.6500e-02	0.5256	-17.474907	0.000547	5.472873	0.927130	0.010947
  55	2.7000e-02	0.5347	-17.442407	0.000325	3.249518	0.550483	0.006500
  56	2.7500e-02	0.5437	-17.396651	0.000457	4.574980	0.775023	0.009151
  57	2.8000e-02	0.5550	-17.341488	0.000552	5.515630	0.934373	0.011033
  58	2.8500e-02	0.5655	-17.278199	0.000633	6.328009	1.071994	0.012658
  59	2.9000e-02	0.5742	-17.249548	0.000286	2.864707	0.485294	0.005730
  60	2.9500e-02	0.5833	-17.195668	0.000539	5.387359	0.912643	0.010776
  61	3.0000e-02	0.5966	-17.137511	0.000581	5.814927	0.985075	0.011631
  62	3.0500e-02	0.6039	-17.075505	0.000620	6.199739	1.050264	0.012401
  63	3.1000e-02	0.6164	-17.049847	0.000257	2.565409	0.434592	0.005132
  64	3.1500e-02	0.6258	-16.972875	0.000770	7.696227	1.303776	0.015395
  65	3.2000e-02	0.6384	-16.941658	0.000312	3.121248	0.528754	0.006243
  66	3.2500e-02	0.6490	-16.881791	0.000599	5.985955	1.014048	0.011974
  67	3.3000e-02	0.6544	-16.845870	0.000359	3.591573	0.608429	0.007184
  68	3.3500e-02	0.6644	-16.781726	0.000641	6.413523	1.086480	0.012829
  69	3.4000e-02	0.6731	-16.737681	0.000440	4.403952	0.746050	0.008809
  70	3.4500e-02	0.6820	-16.686793	0.000509	5.088061	0.861941	0.010177
  71	3.5000e-02	0.6977	-16.638044	0.000487	4.874277	0.825725	0.009750
  72	3.5500e-02	0.7069	-16.604262	0.000338	3.377789	0.572213	0.006756
  73	3.6000e-02	0.7156	-16.539263	0.000650	6.499036	1.100967	0.013000
  74	3.6500e-02	0.7246	-16.485382	0.000539	5.387359	0.912643	0.010776
  75	3.7000e-02	0.7376	-16.458869	0.000265	2.650923	0.449078	0.005303
  76	3.7500e-02	0.7447	-16.404988	0.000539	5.387359	0.912643	0.010776
  77	3.8000e-02	0.7566	-16.355384	0.000496	4.959791	0.840211	0.009921
  78	3.8500e-02	0.7655	-16.301503	0.000539	5.387359	0.912643	0.010776
  79	3.9000e-02	0.7774	-16.257458	0.000440	4.403952	0.746050	0.008809
  80	3.9500e-02	0.7902	-16.202722	0.000547	5.472873	0.927130	0.010947
  81	4.0000e-02	0.7955	-16.152689	0.000500	5.002548	0.847455	0.010006
  82	4.0500e-02	0.8057	-16.104795	0.000479	4.788764	0.811239	0.009579
  83	4.1000e-02	0.8145	-16.058184	0.000466	4.660493	0.789509	0.009322
  84	4.1500e-02	0.8260	-16.001738	0.000564	5.643900	0.956103	0.011289
  85	4.2000e-02	0.8344	-15.971804	0.000299	2.992977	0.507024	0.005987
  86	4.2500e-02	0.8442	-15.911081	0.000607	6.071468	1.028535	0.012145
  87	4.3000e-02	0.8542	-15.846937	0.000641	6.413523	1.086480	0.012829
  88	4.3500e-02	0.8685	-15.808024	0.000389	3.890871	0.659131	0.007783
  89	4.4000e-02	0.8748	-15.766116	0.000419	4.190168	0.709834	0.008381
  90	4.4500e-02	0.8855	-15.716084	0.000500	5.002548	0.847455	0.010006
  91	4.5000e-02	0.8948	-15.666480	0.000496	4.959791	0.840211	0.009921
  92	4.5500e-02	0.9044	-15.605329	0.000611	6.114225	1.035778	0.012230
  93	4.6000e-02	0.9164	-15.558718	0.000466	4.660493	0.789509	0.009322
  94	4.6500e-02	0.9244	-15.526646	0.000321	3.206761	0.543240	0.006414
  95	4.7000e-02	0.9380	-15.461647	0.000650	6.499036	1.100967	0.013000
  96	4.7500e-02	0.9482	-15.428292	0.000334	3.335032	0.564970	0.006671
  97	4.8000e-02	0.9553	-15.374839	0.000534	5.344602	0.905400	0.010691
  98	4.8500e-02	0.9647	-15.326945	0.000479	4.788764	0.811239	0.009579
  99	4.9000e-02	0.9753	-15.271781	0.000552	5.515630	0.934373	0.011033
 100	4.9500e-02	0.9871	-15.233723	0.000381	3.805357	0.644645	0.007612
 101	5.0000e-02	0.9956	-15.179414	0.000543	5.430116	0.919887	0.010862
 102	5.0500e-02	1.0074	-15.124678	0.000547	5.472873	0.927130	0.010947
 103	5.1000e-02	1.0152	-15.073791	0.000509	5.088061	0.861941	0.010177
 104	5.1500e-02	1.0271	-15.037870	0.000359	3.591573	0.608429	0.007184
 105	5.2000e-02	1.0361	-14.991259	0.000466	4.660493	0.789509	0.009322
 106	5.2500e-02	1.0480	-14.934385	0.000569	5.686657	0.963346	0.011375
 107	5.3000e-02	1.0534	-14.880077	0.000543	5.430116	0.919887	0.010862
 108	5.3500e-02	1.0657	-14.851426	0.000286	2.864707	0.485294	0.005730
 109	5.4000e-02	1.0757	-14.785144	0.000663	6.627307	1.122696	0.013256
 110	5.4500e-02	1.0886	-14.738105	0.000470	4.703250	0.796752	0.009408
 111	5.5000e-02	1.0932	-14.699191	0.000389	3.890871	0.659131	0.007783
 112	5.5500e-02	1.1069	-14.625212	0.000740	7.396930	1.253074	0.014796
 113	5.6000e-02	1.1162	-14.598699	0.000265	2.650923	0.449078	0.005303
 114	5.6500e-02	1.1256	-14.559785	0.000389	3.890871	0.659131	0.007783
 115	5.7000e-02	1.1368	-14.502484	0.000573	5.729414	0.970589	0.011460
 116	5.7500e-02	1.1446	-14.454162	0.000483	4.831521	0.818482	0.009664
 117	5.8000e-02	1.1545	-14.396432	0.000577	5.772171	0.977832	0.011546
 118	5.8500e-02	1.1670	-14.365643	0.000308	3.078491	0.521510	0.006158
 119	5.9000e-02	1.1745	-14.319032	0.000466	4.660493	0.789509	0.009322
 120	5.9500e-02	1.1863	-14.265579	0.000534	5.344602	0.905400	0.010691
 121	6.0000e-02	1.1975	-14.219396	0.000462	4.617736	0.782266	0.009237
 122	6.0500e-02	1.2059	-14.162094	0.000573	5.729414	0.970589	0.011460
 123	6.1000e-02	1.2161	-14.109068	0.000530	5.301846	0.898157	0.010605
 124	6.1500e-02	1.2260	-14.072293	0.000368	3.677086	0.622915	0.007355
 125	6.2000e-02	1.2365	-14.023116	0.000492	4.917034	0.832968	0.009835
 126	6.2500e-02	1.2457	-13.981208	0.000419	4.190168	0.709834	0.008381
 127	6.3000e-02	1.2556	-13.925189	0.000560	5.601143	0.948859	0.011204
 128	6.3500e-02	1.2682	-13.873447	0.000517	5.173575	0.876427	0.010349
 129	6.4000e-02	1.2778	-13.827691	0.000457	4.574980	0.775023	0.009151
 130	6.4500e-02	1.2891	-13.796047	0.000316	3.164005	0.535997	0.006329
 131	6.5000e-02	1.2964	-13.734469	0.000616	6.156982	1.043021	0.012316
 132	6.5500e-02	1.3083	-13.702824	0.000316	3.164005	0.535997	0.006329
 133	6.6000e-02	1.3154	-13.640391	0.000624	6.242496	1.057507	0.012487
 134	6.6500e-02	1.3271	-13.588648	0.000517	5.173575	0.876427	0.010349
 135	6.7000e-02	1.3351	-13.551873	0.000368	3.677086	0.622915	0.007355
 136	6.7500e-02	1.3464	-13.496709	0.000552	5.515630	0.934373	0.011033
 137	6.8000e-02	1.3544	-13.442401	0.000543	5.430116	0.919887	0.010862
 138	6.8500e-02	1.3663	-13.407763	0.000346	3.463302	0.586699	0.006928
 139	6.9000e-02	1.3759	-13.355165	0.000526	5.259089	0.890914	0.010520
 140	6.9500e-02	1.3843	-13.315823	0.000393	3.933627	0.666375	0.007868
 141	7.0000e-02	1.3987	-13.267929	0.000479	4.788764	0.811239	0.009579
 142	7.0500e-02	1.4059	-13.207207	0.000607	6.071468	1.028535	0.012145
 143	7.1000e-02	1.4160	-13.169576	0.000376	3.762600	0.637402	0.007526
 144	7.1500e-02	1.4258	-13.087472	0.000821	8.209309	1.390695	0.016421
 145	7.2000e-02	1.4336	-13.071649	0.000158	1.582002	0.267998	0.003164
 146	7.2500e-02	1.4419	-13.029314	0.000423	4.232925	0.717077	0.008467
 147	7.3000e-02	1.4563	-12.972868	0.000564	5.643900	0.956103	0.011289
 148	7.3500e-02	1.4652	-12.924974	0.000479	4.788764	0.811239	0.009579
 149	7.4000e-02	1.4726	-12.874942	0.000500	5.002548	0.847455	0.010006
 150	7.4500e-02	1.4850	-12.833034	0.000419	4.190168	0.709834	0.008381
 151	7.5000e-02	1.5018	-12.782147	0.000509	5.088061	0.861941	0.010177
 152	7.5500e-02	1.5074	-12.745371	0.000368	3.677086	0.622915	0.007355
 153	7.6000e-02	1.5149	-12.693201	0.000522	5.216332	0.883671	0.010434
 154	7.6500e-02	1.5256	-12.648728	0.000445	4.446709	0.753293	0.008895
 155	7.7000e-02	1.5341	-12.593137	0.000556	5.558386	0.941616	0.011118
 156	7.7500e-02	1.5424	-12.553795	0.000393	3.933627	0.666375	0.007868
 157	7.8000e-02	1.5559	-12.505474	0.000483	4.831521	0.818482	0.009664
 158	7.8500e-02	1.5649	-12.465704	0.000398	3.976384	0.673618	0.007954
 159	7.9000e-02	1.5755	-12.396001	0.000697	6.969361	1.180642	0.013941
 160	7.9500e-02	1.5858	-12.361791	0.000342	3.420546	0.579456	0.006842
 161	8.0000e-02	1.5941	-12.316036	0.000457	4.574980	0.775023	0.009151
 162	8.0500e-02	1.6084	-12.269852	0.000462	4.617736	0.782266	0.009237
 163	8.1000e-02	1.6162	-12.217254	0.000526	5.259089	0.890914	0.010520
 164	8.1500e-02	1.6263	-12.168505	0.000487	4.874277	0.825725	0.009750
 165	8.2000e-02	1.6363	-12.120611	0.000479	4.788764	0.811239	0.009579
 166	8.2500e-02	1.6444	-12.078276	0.000423	4.232925	0.717077	0.008467
 167	8.3000e-02	1.6556	-12.024395	0.000539	5.387359	0.912643	0.010776
 168	8.3500e-02	1.6632	-11.986764	0.000376	3.762600	0.637402	0.007526
 169	8.4000e-02	1.6740	-11.937160	0.000496	4.959791	0.840211	0.009921
 170	8.4500e-02	1.6856	-11.891831	0.000453	4.532223	0.767779	0.009066
 171	8.5000e-02	1.6949	-11.846075	0.000457	4.574980	0.775023	0.009151
 172	8.5500e-02	1.7044	-11.798609	0.000475	4.746007	0.803995	0.009493
 173	8.6000e-02	1.7153	-11.749004	0.000496	4.959791	0.840211	0.009921
 174	8.6500e-02	1.7239	-11.698972	0.000500	5.002548	0.847455	0.010006
 175	8.7000e-02	1.7332	-11.652789	0.000462	4.617736	0.782266	0.009237
 176	8.7500e-02	1.7456	-11.606605	0.000462	4.617736	0.782266	0.009237
 177	8.8000e-02	1.7557	-11.558284	0.000483	4.831521	0.818482	0.009664
 178	8.8500e-02	1.7654	-11.507824	0.000505	5.045305	0.854698	0.010092
 179	8.9000e-02	1.7765	-11.474469	0.000334	3.335032	0.564970	0.006671
 180	8.9500e-02	1.7841	-11.418022	0.000564	5.643900	0.956103	0.011289
 181	9.0000e-02	1.7943	-11.372694	0.000453	4.532223	0.767779	0.009066
 182	9.0500e-02	1.8056	-11.339767	0.000329	3.292275	0.557726	0.006585
 183	9.1000e-02	1.8143	-11.288024	0.000517	5.173575	0.876427	0.010349
 184	9.1500e-02	1.8243	-11.227302	0.000607	6.071468	1.028535	0.012145
 185	9.2000e-02	1.8359	-11.185394	0.000419	4.190168	0.709834	0.008381
 186	9.2500e-02	1.8479	-11.150329	0.000351	3.506059	0.593942	0.007013
 187	9.3000e-02	1.8549	-11.100725	0.000496	4.959791	0.840211	0.009921
 188	9.3500e-02	1.8634	-11.055396	0.000453	4.532223	0.767779	0.009066
 189	9.4000e-02	1.8768	-10.995956	0.000594	5.943198	1.006805	0.011888
 190	9.4500e-02	1.8852	-10.967733	0.000282	2.821950	0.478051	0.005645
 191	9.5000e-02	1.8947	-10.918129	0.000496	4.959791	0.840211	0.009921
 192	9.5500e-02	1.9055	-10.859116	0.000590	5.900441	0.999562	0.011802
 193	9.6000e-02	1.9173	-10.817209	0.000419	4.190168	0.709834	0.008381
 194	9.6500e-02	1.9257	-10.767177	0.000500	5.002548	0.847455	0.010006
 195	9.7000e-02	1.9355	-10.723987	0.000432	4.318439	0.731563	0.008638
 196	9.7500e-02	1.9441	-10.664974	0.000590	5.900441	0.999562	0.011802
 197	9.8000e-02	1.9559	-10.626916	0.000381	3.805357	0.644645	0.007612
 198	9.8500e-02	1.9646	-10.585864	0.000410	4.104655	0.695347	0.008210
 199	9.9000e-02	1.9769	-10.537114	0.000487	4.874277	0.825725	0.009750
 200	9.9500e-02	1.9824	-10.484089	0.000530	5.301846	0.898157	0.010605
 201	1.0000e-01	1.9934	-10.447741	0.000363	3.634330	0.615672	0.007270
 202	1.0050e-01	2.0056	-10.396426	0.000513	5.130818	0.869184	0.010263
 203	1.0100e-01	2.0166	-10.356657	0.000398	3.976384	0.673618	0.007954
 204	1.0150e-01	2.0270	-10.305769	0.000509	5.088061	0.861941	0.010177
 205	1.0200e-01	2.0364	-10.247184	0.000586	5.857684	0.992319	0.011717
 206	1.0250e-01	2.0456	-10.217678	0.000295	2.950220	0.499781	0.005901
 207	1.0300e-01	2.0535	-10.151824	0.000658	6.584550	1.115453	0.013171
 208	1.0350e-01	2.0670	-10.112910	0.000389	3.890871	0.659131	0.007783
 209	1.0400e-01	2.0759	-10.076134	0.000368	3.677086	0.622915	0.007355
 210	1.0450e-01	2.0877	-10.029951	0.000462	4.617736	0.782266	0.009237
 211	1.0500e-01	2.0959	-9.988471	0.000415	4.147411	0.702591	0.008296
 212	1.0550e-01	2.1056	-9.933735	0.000547	5.472873	0.927130	0.010947
 213	1.0600e-01	2.1143	-9.894821	0.000389	3.890871	0.659131	0.007783
 214	1.0650e-01	2.1227	-9.849921	0.000449	4.489466	0.760536	0.008980
 215	1.0700e-01	2.1375	-9.804165	0.000457	4.574980	0.775023	0.009151
 216	1.0750e-01	2.1497	-9.771238	0.000329	3.292275	0.557726	0.006585
 217	1.0800e-01	2.1539	-9.718212	0.000530	5.301846	0.898157	0.010605
 218	1.0850e-01	2.1666	-9.660483	0.000577	5.772171	0.977832	0.011546
 219	1.0900e-01	2.1765	-9.616010	0.000445	4.446709	0.753293	0.008895
 220	1.0950e-01	2.1869	-9.588642	0.000274	2.736436	0.463565	0.005474
 221	1.1000e-01	2.1974	-9.527491	0.000611	6.114225	1.035778	0.012230
 222	1.1050e-01	2.2066	-9.483018	0.000445	4.446709	0.753293	0.008895
 223	1.1100e-01	2.2180	-9.438117	0.000449	4.489466	0.760536	0.008980
 224	1.1150e-01	2.2256	-9.386802	0.000513	5.130818	0.869184	0.010263
 225	1.1200e-01	2.2351	-9.355158	0.000316	3.164005	0.535997	0.006329
 226	1.1250e-01	2.2433	-9.311113	0.000440	4.403952	0.746050	0.008809
 227	1.1300e-01	2.2571	-9.258515	0.000526	5.259089	0.890914	0.010520
 228	1.1350e-01	2.2652	-9.214897	0.000436	4.361196	0.738807	0.008724
 229	1.1400e-01	2.2781	-9.178121	0.000368	3.677086	0.622915	0.007355
 230	1.1450e-01	2.2855	-9.120819	0.000573	5.729414	0.970589	0.011460
 231	1.1500e-01	2.2957	-9.086609	0.000342	3.420546	0.579456	0.006842
 232	1.1550e-01	2.3065	-9.031873	0.000547	5.472873	0.927130	0.010947
 233	1.1600e-01	2.3145	-8.980558	0.000513	5.130818	0.869184	0.010263
 234	1.1650e-01	2.3234	-8.925822	0.000547	5.472873	0.927130	0.010947
 235	1.1700e-01	2.3376	-8.904013	0.000218	2.180598	0.369403	0.004362
 236	1.1750e-01	2.3444	-8.839870	0.000641	6.413523	1.086480	0.012829
 237	1.1800e-01	2.3569	-8.794541	0.000453	4.532223	0.767779	0.009066
 238	1.1850e-01	2.3669	-8.758621	0.000359	3.591573	0.608429	0.007184
 239	1.1900e-01	2.3768	-8.709016	0.000496	4.959791	0.840211	0.009921
 240	1.1950e-01	2.3842	-8.660267	0.000487	4.874277	0.825725	0.009750
 241	1.2000e-01	2.3945	-8.618787	0.000415	4.147411	0.702591	0.008296
 242	1.2050e-01	2.4048	-8.583722	0.000351	3.506059	0.593942	0.007013
 243	1.2100e-01	2.4136	-8.543953	0.000398	3.976384	0.673618	0.007954
 244	1.2150e-01	2.4262	-8.497769	0.000462	4.617736	0.782266	0.009237
 245	1.2200e-01	2.4357	-8.441323	0.000564	5.643900	0.956103	0.011289
 246	1.2250e-01	2.4471	-8.389580	0.000517	5.173575	0.876427	0.010349
 247	1.2300e-01	2.4579	-8.365633	0.000239	2.394382	0.405619	0.004789
 248	1.2350e-01	2.4677	-8.321160	0.000445	4.446709	0.753293	0.008895
 249	1.2400e-01	2.4767	-8.267279	0.000539	5.387359	0.912643	0.010776
 250	1.2450e-01	2.4857	-8.221096	0.000462	4.617736	0.782266	0.009237
 251	1.2500e-01	2.4954	-8.174057	0.000470	4.703250	0.796752	0.009408
 252	1.2550e-01	2.5063	-8.121887	0.000522	5.216332	0.883671	0.010434
 253	1.2600e-01	2.5198	-8.087677	0.000342	3.420546	0.579456	0.006842
 254	1.2650e-01	2.5266	-8.042776	0.000449	4.489466	0.760536	0.008980
 255	1.2700e-01	2.5380	-8.012842	0.000299	2.992977	0.507024	0.005987
 256	1.2750e-01	2.5464	-7.954685	0.000581	5.814927	0.985075	0.011631
 257	1.2800e-01	2.5549	-7.913206	0.000415	4.147411	0.702591	0.008296
 258	1.2850e-01	2.5650	-7.867022	0.000462	4.617736	0.782266	0.009237
 259	1.2900e-01	2.5746	-7.823404	0.000436	4.361196	0.738807	0.008724
 260	1.2950e-01	2.5862	-7.768668	0.000547	5.472873	0.927130	0.010947
 261	1.3000e-01	2.5960	-7.741300	0.000274	2.736436	0.463565	0.005474
 262	1.3050e-01	2.6062	-7.679295	0.000620	6.199739	1.050264	0.012401
 263	1.3100e-01	2.6181	-7.644657	0.000346	3.463302	0.586699	0.006928
 264	1.3150e-01	2.6297	-7.611302	0.000334	3.335032	0.564970	0.006671
 265	1.3200e-01	2.6349	-7.559132	0.000522	5.216332	0.883671	0.010434
 266	1.3250e-01	2.6477	-7.513804	0.000453	4.532223	0.767779	0.009066
 267	1.3300e-01	2.6576	-7.474890	0.000389	3.890871	0.659131	0.007783
 268	1.3350e-01	2.6648	-7.417588	0.000573	5.729414	0.970589	0.011460
 269	1.3400e-01	2.6765	-7.389365	0.000282	2.821950	0.478051	0.005645
 270	1.3450e-01	2.6849	-7.336767	0.000526	5.259089	0.890914	0.010520
 271	1.3500e-01	2.6959	-7.288018	0.000487	4.874277	0.825725	0.009750
 272	1.3550e-01	2.7051	-7.257656	0.000304	3.035734	0.514267	0.006072
 273	1.3600e-01	2.7136	-7.213183	0.000445	4.446709	0.753293	0.008895
 274	1.3650e-01	2.7264	-7.152888	0.000603	6.028711	1.021291	0.012059
 275	1.3700e-01	2.7356	-7.111836	0.000410	4.104655	0.695347	0.008210
 276	1.3750e-01	2.7455	-7.068218	0.000436	4.361196	0.738807	0.008724
 277	1.3800e-01	2.7591	-7.024600	0.000436	4.361196	0.738807	0.008724
 278	1.3850e-01	2.7676	-6.996377	0.000282	2.821950	0.478051	0.005645
 279	1.3900e-01	2.7755	-6.939931	0.000564	5.643900	0.956103	0.011289
 280	1.3950e-01	2.7887	-6.906576	0.000334	3.335032	0.564970	0.006671
 281	1.4000e-01	2.7966	-6.863813	0.000428	4.275682	0.724320	0.008553
 282	1.4050e-01	2.8076	-6.828748	0.000351	3.506059	0.593942	0.007013
 283	1.4100e-01	2.8175	-6.762894	0.000658	6.584550	1.115453	0.013171
 284	1.4150e-01	2.8265	-6.719276	0.000436	4.361196	0.738807	0.008724
 285	1.4200e-01	2.8351	-6.675658	0.000436	4.361196	0.738807	0.008724
 286	1.4250e-01	2.8448	-6.640593	0.000351	3.506059	0.593942	0.007013
 287	1.4300e-01	2.8552	-6.588850	0.000517	5.173575	0.876427	0.010349
 288	1.4350e-01	2.8665	-6.543950	0.000449	4.489466	0.760536	0.008980
 289	1.4400e-01	2.8748	-6.499904	0.000440	4.403952	0.746050	0.008809
 290	1.4450e-01	2.8851	-6.455004	0.000449	4.489466	0.760536	0.008980
 291	1.4500e-01	2.8955	-6.420793	0.000342	3.420546	0.579456	0.006842
 292	1.4550e-01	2.9047	-6.363492	0.000573	5.729414	0.970589	0.011460
 293	1.4600e-01	2.9169	-6.329282	0.000342	3.420546	0.579456	0.006842
 294	1.4650e-01	2.9246	-6.289085	0.000402	4.019141	0.680861	0.008039
 295	1.4700e-01	2.9367	-6.249316	0.000398	3.976384	0.673618	0.007954
 296	1.4750e-01	2.9444	-6.195435	0.000539	5.387359	0.912643	0.010776
 297	1.4800e-01	2.9568	-6.147969	0.000475	4.746007	0.803995	0.009493
 298	1.4850e-01	2.9626	-6.103068	0.000449	4.489466	0.760536	0.008980
 299	1.4900e-01	2.9767	-6.059878	0.000432	4.318439	0.731563	0.008638
 300	1.4950e-01	2.9854	-6.021391	0.000385	3.848114	0.651888	0.007697
 301	1.5000e-01	2.9965	-5.988464	0.000329	3.292275	0.557726	0.006585
 302	1.5050e-01	3.0109	-5.943991	0.000445	4.446709	0.753293	0.008895
 303	1.5100e-01	3.0176	-5.902512	0.000415	4.147411	0.702591	0.008296
 304	1.5150e-01	3.0232	-5.838368	0.000641	6.413523	1.086480	0.012829
 305	1.5200e-01	3.0365	-5.805013	0.000334	3.335032	0.564970	0.006671
 306	1.5250e-01	3.0449	-5.773796	0.000312	3.121248	0.528754	0.006243
 307	1.5300e-01	3.0585	-5.718205	0.000556	5.558386	0.941616	0.011118
 308	1.5350e-01	3.0656	-5.678436	0.000398	3.976384	0.673618	0.007954
 309	1.5400e-01	3.0756	-5.642088	0.000363	3.634330	0.615672	0.007270
 310	1.5450e-01	3.0835	-5.593339	0.000487	4.874277	0.825725	0.009750
 311	1.5500e-01	3.0969	-5.551431	0.000419	4.190168	0.709834	0.008381
 312	1.5550e-01	3.1042	-5.499261	0.000522	5.216332	0.883671	0.010434
 313	1.5600e-01	3.1168	-5.471038	0.000282	2.821950	0.478051	0.005645
 314	1.5650e-01	3.1274	-5.425282	0.000457	4.574980	0.775023	0.009151
 315	1.5700e-01	3.1378	-5.375250	0.000500	5.002548	0.847455	0.010006
 316	1.5750e-01	3.1467	-5.331204	0.000440	4.403952	0.746050	0.008809
 317	1.5800e-01	3.1613	-5.308968	0.000222	2.223355	0.376646	0.004447
 318	1.5850e-01	3.1696	-5.251238	0.000577	5.772171	0.977832	0.011546
 319	1.5900e-01	3.1750	-5.218311	0.000329	3.292275	0.557726	0.006585
 320	1.5950e-01	3.1873	-5.164858	0.000534	5.344602	0.905400	0.010691
 321	1.6000e-01	3.1941	-5.109267	0.000556	5.558386	0.941616	0.011118
 322	1.6050e-01	3.2076	-5.078050	0.000312	3.121248	0.528754	0.006243
 323	1.6100e-01	3.2138	-5.050254	0.000278	2.779193	0.470808	0.005559
 324	1.6150e-01	3.2265	-4.995091	0.000552	5.515630	0.934373	0.011033
 325	1.6200e-01	3.2361	-4.955322	0.000398	3.976384	0.673618	0.007954
 326	1.6250e-01	3.2468	-4.924105	0.000312	3.121248	0.528754	0.006243
 327	1.6300e-01	3.2547	-4.872362	0.000517	5.173575	0.876427	0.010349
 328	1.6350e-01	3.2669	-4.828745	0.000436	4.361196	0.738807	0.008724
 329	1.6400e-01	3.2742	-4.793679	0.000351	3.506059	0.593942	0.007013
 330	1.6450e-01	3.2867	-4.740226	0.000534	5.344602	0.905400	0.010691
 331	1.6500e-01	3.2947	-4.701312	0.000389	3.890871	0.659131	0.007783
 332	1.6550e-01	3.3057	-4.664109	0.000372	3.719843	0.630159	0.007441
 333	1.6600e-01	3.3156	-4.609373	0.000547	5.472873	0.927130	0.010947
 334	1.6650e-01	3.3249	-4.569176	0.000402	4.019141	0.680861	0.008039
 335	1.6700e-01	3.3362	-4.533683	0.000355	3.548816	0.601186	0.007099
 336	1.6750e-01	3.3472	-4.490493	0.000432	4.318439	0.731563	0.008638
 337	1.6800e-01	3.3563	-4.449013	0.000415	4.147411	0.702591	0.008296
 338	1.6850e-01	3.3670	-4.406678	0.000423	4.232925	0.717077	0.008467
 339	1.6900e-01	3.3759	-4.370758	0.000359	3.591573	0.608429	0.007184
 340	1.6950e-01	3.3873	-4.335265	0.000355	3.548816	0.601186	0.007099
 341	1.7000e-01	3.3960	-4.272404	0.000629	6.285252	1.064751	0.012572
 342	1.7050e-01	3.4036	-4.244181	0.000282	2.821950	0.478051	0.005645
 343	1.7100e-01	3.4166	-4.200991	0.000432	4.318439	0.731563	0.008638
 344	1.7150e-01	3.4296	-4.147110	0.000539	5.387359	0.912643	0.010776
 345	1.7200e-01	3.4375	-4.125301	0.000218	2.180598	0.369403	0.004362
 346	1.7250e-01	3.4467	-4.085532	0.000398	3.976384	0.673618	0.007954
 347	1.7300e-01	3.4541	-4.023526	0.000620	6.199739	1.050264	0.012401
 348	1.7350e-01	3.4650	-3.982902	0.000406	4.061898	0.688104	0.008125
 349	1.7400e-01	3.4747	-3.938856	0.000440	4.403952	0.746050	0.008809
 350	1.7450e-01	3.4872	-3.903364	0.000355	3.548816	0.601186	0.007099
 351	1.7500e-01	3.4956	-3.869581	0.000338	3.377789	0.572213	0.006756
 352	1.7550e-01	3.5052	-3.818694	0.000509	5.088061	0.861941	0.010177
 353	1.7600e-01	3.5175	-3.788760	0.000299	2.992977	0.507024	0.005987
 354	1.7650e-01	3.5251	-3.744715	0.000440	4.403952	0.746050	0.008809
 355	1.7700e-01	3.5373	-3.686985	0.000577	5.772171	0.977832	0.011546
 356	1.7750e-01	3.5452	-3.661755	0.000252	2.522652	0.427349	0.005046
 357	1.7800e-01	3.5559	-3.608302	0.000534	5.344602	0.905400	0.010691
 358	1.7850e-01	3.5663	-3.571099	0.000372	3.719843	0.630159	0.007441
 359	1.7900e-01	3.5736	-3.524488	0.000466	4.660493	0.789509	0.009322
 360	1.7950e-01	3.5849	-3.477021	0.000475	4.746007	0.803995	0.009493
 361	1.8000e-01	3.5962	-3.446660	0.000304	3.035734	0.514267	0.006072
 362	1.8050e-01	3.6041	-3.397910	0.000487	4.874277	0.825725	0.009750
 363	1.8100e-01	3.6171	-3.375246	0.000227	2.266111	0.383890	0.004533
 364	1.8150e-01	3.6279	-3.326497	0.000487	4.874277	0.825725	0.009750
 365	1.8200e-01	3.6368	-3.284162	0.000423	4.232925	0.717077	0.008467
 366	1.8250e-01	3.6469	-3.243965	0.000402	4.019141	0.680861	0.008039
 367	1.8300e-01	3.6562	-3.206334	0.000376	3.762600	0.637402	0.007526
 368	1.8350e-01	3.6696	-3.158868	0.000475	4.746007	0.803995	0.009493
 369	1.8400e-01	3.6786	-3.115250	0.000436	4.361196	0.738807	0.008724
 370	1.8450e-01	3.6872	-3.084033	0.000312	3.121248	0.528754	0.006243
 371	1.8500e-01	3.6951	-3.039133	0.000449	4.489466	0.760536	0.008980
 372	1.8550e-01	3.7054	-3.001502	0.000376	3.762600	0.637402	0.007526
 373	1.8600e-01	3.7155	-2.944200	0.000573	5.729414	0.970589	0.011460
 374	1.8650e-01	3.7257	-2.906569	0.000376	3.762600	0.637402	0.007526
 375	1.8700e-01	3.7354	-2.873214	0.000334	3.335032	0.564970	0.006671
 376	1.8750e-01	3.7476	-2.826603	0.000466	4.660493	0.789509	0.009322
 377	1.8800e-01	3.7573	-2.795386	0.000312	3.121248	0.528754	0.006243
 378	1.8850e-01	3.7665	-2.757755	0.000376	3.762600	0.637402	0.007526
 379	1.8900e-01	3.7726	-2.707723	0.000500	5.002548	0.847455	0.010006
 380	1.8950e-01	3.7885	-2.669665	0.000381	3.805357	0.644645	0.007612
 381	1.9000e-01	3.7946	-2.629468	0.000402	4.019141	0.680861	0.008039
 382	1.9050e-01	3.8034	-2.586278	0.000432	4.318439	0.731563	0.008638
 383	1.9100e-01	3.8156	-2.543088	0.000432	4.318439	0.731563	0.008638
 384	1.9150e-01	3.8281	-2.508450	0.000346	3.463302	0.586699	0.006928
 385	1.9200e-01	3.8330	-2.467398	0.000410	4.104655	0.695347	0.008210
 386	1.9250e-01	3.8453	-2.420359	0.000470	4.703250	0.796752	0.009408
 387	1.9300e-01	3.8550	-2.385721	0.000346	3.463302	0.586699	0.006928
 388	1.9350e-01	3.8680	-2.340821	0.000449	4.489466	0.760536	0.008980
 389	1.9400e-01	3.8763	-2.293782	0.000470	4.703250	0.796752	0.009408
 390	1.9450e-01	3.8885	-2.265559	0.000282	2.821950	0.478051	0.005645
 391	1.9500e-01	3.8971	-2.221086	0.000445	4.446709	0.753293	0.008895
 392	1.9550e-01	3.9058	-2.182172	0.000389	3.890871	0.659131	0.007783
 393	1.9600e-01	3.9151	-2.140264	0.000419	4.190168	0.709834	0.008381
 394	1.9650e-01	3.9258	-2.106910	0.000334	3.335032	0.564970	0.006671
 395	1.9700e-01	3.9362	-2.061581	0.000453	4.532223	0.767779	0.009066
 396	1.9750e-01	3.9474	-2.023950	0.000376	3.762600	0.637402	0.007526
 397	1.9800e-01	3.9563	-1.985892	0.000381	3.805357	0.644645	0.007612
 398	1.9850e-01	3.9661	-1.937998	0.000479	4.788764	0.811239	0.009579
 399	1.9900e-01	3.9772	-1.911057	0.000269	2.693680	0.456322	0.005388
 400	1.9950e-01	3.9874	-1.858459	0.000526	5.259089	0.890914	0.010520
 401	2.0000e-01	3.9954	-1.813559	0.000449	4.489466	0.760536	0.008980
 402	2.0050e-01	4.0045	-1.785763	0.000278	2.779193	0.470808	0.005559
 403	2.0100e-01	4.0195	-1.729317	0.000564	5.643900	0.956103	0.011289
 404	2.0150e-01	4.0253	-1.713494	0.000158	1.582002	0.267998	0.003164
 405	2.0200e-01	4.0355	-1.654482	0.000590	5.900441	0.999562	0.011802
 406	2.0250e-01	4.0476	-1.622410	0.000321	3.206761	0.543240	0.006414
 407	2.0300e-01	4.0570	-1.592049	0.000304	3.035734	0.514267	0.006072
 408	2.0350e-01	4.0695	-1.532609	0.000594	5.943198	1.006805	0.011888
 409	2.0400e-01	4.0749	-1.505669	0.000269	2.693680	0.456322	0.005388
 410	2.0450e-01	4.0854	-1.458202	0.000475	4.746007	0.803995	0.009493
 411	2.0500e-01	4.0955	-1.411591	0.000466	4.660493	0.789509	0.009322
 412	2.0550e-01	4.1053	-1.371394	0.000402	4.019141	0.680861	0.008039
 413	2.0600e-01	4.1150	-1.343171	0.000282	2.821950	0.478051	0.005645
 414	2.0650e-01	4.1257	-1.300836	0.000423	4.232925	0.717077	0.008467
 415	2.0700e-01	4.1368	-1.272185	0.000286	2.864707	0.485294	0.005730
 416	2.0750e-01	4.1446	-1.223864	0.000483	4.831521	0.818482	0.009664
 417	2.0800e-01	4.1536	-1.187088	0.000368	3.677086	0.622915	0.007355
 418	2.0850e-01	4.1663	-1.139194	0.000479	4.788764	0.811239	0.009579
 419	2.0900e-01	4.1776	-1.101990	0.000372	3.719843	0.630159	0.007441
 420	2.0950e-01	4.1870	-1.049820	0.000522	5.216332	0.883671	0.010434
 421	2.1000e-01	4.1942	-1.009196	0.000406	4.061898	0.688104	0.008125
 422	2.1050e-01	4.2064	-0.974558	0.000346	3.463302	0.586699	0.006928
 423	2.1100e-01	4.2157	-0.936927	0.000376	3.762600	0.637402	0.007526
 424	2.1150e-01	4.2253	-0.896730	0.000402	4.019141	0.680861	0.008039
 425	2.1200e-01	4.2352	-0.866369	0.000304	3.035734	0.514267	0.006072
 426	2.1250e-01	4.2474	-0.834297	0.000321	3.206761	0.543240	0.006414
 427	2.1300e-01	4.2566	-0.773146	0.000611	6.114225	1.035778	0.012230
 428	2.1350e-01	4.2664	-0.747917	0.000252	2.522652	0.427349	0.005046
 429	2.1400e-01	4.2743	-0.701305	0.000466	4.660493	0.789509	0.009322
 430	2.1450e-01	4.2853	-0.664102	0.000372	3.719843	0.630159	0.007441
 431	2.1500e-01	4.2978	-0.617919	0.000462	4.617736	0.782266	0.009237
 432	2.1550e-01	4.3057	-0.596110	0.000218	2.180598	0.369403	0.004362
 433	2.1600e-01	4.3192	-0.546505	0.000496	4.959791	0.840211	0.009921
 434	2.1650e-01	4.3262	-0.502032	0.000445	4.446709	0.753293	0.008895
 435	2.1700e-01	4.3341	-0.470388	0.000316	3.164005	0.535997	0.006329
 436	2.1750e-01	4.3481	-0.433612	0.000368	3.677086	0.622915	0.007355
 437	2.1800e-01	4.3555	-0.385290	0.000483	4.831521	0.818482	0.009664
 438	2.1850e-01	4.3671	-0.354074	0.000312	3.121248	0.528754	0.006243
 439	2.1900e-01	4.3770	-0.319008	0.000351	3.506059	0.593942	0.007013
 440	2.1950e-01	4.3884	-0.279239	0.000398	3.976384	0.673618	0.007954
 441	2.2000e-01	4.3982	-0.251444	0.000278	2.779193	0.470808	0.005559
 442	2.2050e-01	4.4080	-0.211675	0.000398	3.976384	0.673618	0.007954
 443	2.2100e-01	4.4160	-0.160359	0.000513	5.130818	0.869184	0.010263
 444	2.2150e-01	4.4232	-0.120163	0.000402	4.019141	0.680861	0.008039
 445	2.2200e-01	4.4391	-0.087236	0.000329	3.292275	0.557726	0.006585
 446	2.2250e-01	4.4466	-0.031644	0.000556	5.558386	0.941616	0.011118
 447	2.2300e-01	4.4564	-0.007270	0.000244	2.437139	0.412862	0.004875
 448	2.2350e-01	4.4672	0.032500	0.000398	3.976384	0.673618	0.007954
 449	2.2400e-01	4.4775	0.074834	0.000423	4.232925	0.717077	0.008467
 450	2.2450e-01	4.4856	0.106479	0.000316	3.164005	0.535997	0.006329
 451	2.2500e-01	4.4952	0.145820	0.000393	3.933627	0.666375	0.007868
 452	2.2550e-01	4.5053	0.191148	0.000453	4.532223	0.767779	0.009066
 453	2.2600e-01	4.5154	0.220655	0.000295	2.950220	0.499781	0.005901
 454	2.2650e-01	4.5264	0.255720	0.000351	3.506059	0.593942	0.007013
 455	2.2700e-01	4.5365	0.316015	0.000603	6.028711	1.021291	0.012059
 456	2.2750e-01	4.5465	0.338252	0.000222	2.223355	0.376646	0.004447
 457	2.2800e-01	4.5581	0.378876	0.000406	4.061898	0.688104	0.008125
 458	2.2850e-01	4.5675	0.402395	0.000235	2.351625	0.398376	0.004704
 459	2.2900e-01	4.5767	0.452428	0.000500	5.002548	0.847455	0.010006
 460	2.2950e-01	4.5860	0.496473	0.000440	4.403952	0.746050	0.008809
 461	2.3000e-01	4.5996	0.535814	0.000393	3.933627	0.666375	0.007868
 462	2.3050e-01	4.6077	0.575156	0.000393	3.933627	0.666375	0.007868
 463	2.3100e-01	4.6155	0.597820	0.000227	2.266111	0.383890	0.004533
 464	2.3150e-01	4.6265	0.657688	0.000599	5.985955	1.014048	0.011974
 465	2.3200e-01	4.6387	0.695746	0.000381	3.805357	0.644645	0.007612
 466	2.3250e-01	4.6442	0.712424	0.000167	1.667516	0.282485	0.003335
 467	2.3300e-01	4.6536	0.778278	0.000658	6.584550	1.115453	0.013171
 468	2.3350e-01	4.6667	0.808212	0.000299	2.992977	0.507024	0.005987
 469	2.3400e-01	4.6761	0.841994	0.000338	3.377789	0.572213	0.006756
 470	2.3450e-01	4.6863	0.860810	0.000188	1.881300	0.318701	0.003763
 471	2.3500e-01	4.6967	0.908276	0.000475	4.746007	0.803995	0.009493
 472	2.3550e-01	4.7052	0.957453	0.000492	4.917034	0.832968	0.009835
 473	2.3600e-01	4.7141	1.001498	0.000440	4.403952	0.746050	0.008809
 474	2.3650e-01	4.7272	1.028439	0.000269	2.693680	0.456322	0.005388
 475	2.3700e-01	4.7353	1.074622	0.000462	4.617736	0.782266	0.009237
 476	2.3750e-01	4.7473	1.112681	0.000381	3.805357	0.644645	0.007612
 477	2.3800e-01	4.7585	1.150740	0.000381	3.805357	0.644645	0.007612
 478	2.3850e-01	4.7681	1.179391	0.000286	2.864707	0.485294	0.005730
 479	2.3900e-01	4.7778	1.219587	0.000402	4.019141	0.680861	0.008039
 480	2.3950e-01	4.7852	1.242679	0.000231	2.308868	0.391133	0.004618
 481	2.4000e-01	4.7952	1.295277	0.000526	5.259089	0.890914	0.010520
 482	2.4050e-01	4.8038	1.325211	0.000299	2.992977	0.507024	0.005987
 483	2.4100e-01	4.8158	1.367546	0.000423	4.232925	0.717077	0.008467
 484	2.4150e-01	4.8276	1.411591	0.000440	4.403952	0.746050	0.008809
 485	2.4200e-01	4.8328	1.452215	0.000406	4.061898	0.688104	0.008125
 486	2.4250e-01	4.8460	1.480011	0.000278	2.779193	0.470808	0.005559
 487	2.4300e-01	4.8584	1.513793	0.000338	3.377789	0.572213	0.006756
 488	2.4350e-01	4.8685	1.554845	0.000410	4.104655	0.695347	0.008210
 489	2.4400e-01	4.8749	1.595470	0.000406	4.061898	0.688104	0.008125
 490	2.4450e-01	4.8859	1.637377	0.000419	4.190168	0.709834	0.008381
 491	2.4500e-01	4.8969	1.670304	0.000329	3.292275	0.557726	0.006585
 492	2.4550e-01	4.9042	1.713494	0.000432	4.318439	0.731563	0.008638
 493	2.4600e-01	4.9188	1.753691	0.000402	4.019141	0.680861	0.008039
 494	2.4650e-01	4.9280	1.785336	0.000316	3.164005	0.535997	0.006329
 495	2.4700e-01	4.9371	1.831519	0.000462	4.617736	0.782266	0.009237
 496	2.4750e-01	4.9458	1.857177	0.000257	2.565409	0.434592	0.005132
 497	2.4800e-01	4.9579	1.889676	0.000325	3.249518	0.550483	0.006500
 498	2.4850e-01	4.9673	1.936715	0.000470	4.703250	0.796752	0.009408
 499	2.4900e-01	4.9756	1.986319	0.000496	4.959791	0.840211	0.009921
 500	2.4950e-01	4.9890	2.014115	0.000278	2.779193	0.470808	0.005559
 501	2.5000e-01	4.9957	2.042766	0.000286	2.864707	0.485294	0.005730
 502	2.5050e-01	5.0087	2.077831	0.000351	3.506059	0.593942	0.007013
 503	2.5100e-01	5.0171	2.123587	0.000457	4.574980	0.775023	0.009151
 504	2.5150e-01	5.0262	2.144113	0.000205	2.052327	0.347674	0.004105
 505	2.5200e-01	5.0351	2.202270	0.000581	5.814927	0.985075	0.011631
 506	2.5250e-01	5.0482	2.211678	0.000094	0.940650	0.159350	0.001882
 507	2.5300e-01	5.0577	2.268552	0.000569	5.686657	0.963346	0.011375
 508	2.5350e-01	5.0650	2.301479	0.000329	3.292275	0.557726	0.006585
 509	2.5400e-01	5.0739	2.328847	0.000274	2.736436	0.463565	0.005474
 510	2.5450e-01	5.0858	2.373748	0.000449	4.489466	0.760536	0.008980
 511	2.5500e-01	5.0972	2.396412	0.000227	2.266111	0.383890	0.004533
 512	2.5550e-01	5.1065	2.450293	0.000539	5.387359	0.912643	0.010776
 513	2.5600e-01	5.1154	2.491345	0.000410	4.104655	0.695347	0.008210
 514	2.5650e-01	5.1276	2.526838	0.000355	3.548816	0.601186	0.007099
 515	2.5700e-01	5.1337	2.557627	0.000308	3.078491	0.521510	0.006158
 516	2.5750e-01	5.1477	2.596968	0.000393	3.933627	0.666375	0.007868
 517	2.5800e-01	5.1556	2.635027	0.000381	3.805357	0.644645	0.007612
 518	2.5850e-01	5.1648	2.670520	0.000355	3.548816	0.601186	0.007099
 519	2.5900e-01	5.1752	2.713282	0.000428	4.275682	0.724320	0.008553
 520	2.5950e-01	5.1862	2.740223	0.000269	2.693680	0.456322	0.005388
 521	2.6000e-01	5.1990	2.777854	0.000376	3.762600	0.637402	0.007526
 522	2.6050e-01	5.2063	2.804367	0.000265	2.650923	0.449078	0.005303
 523	2.6100e-01	5.2182	2.855254	0.000509	5.088061	0.861941	0.010177
 524	2.6150e-01	5.2266	2.885615	0.000304	3.035734	0.514267	0.006072
 525	2.6200e-01	5.2368	2.914694	0.000291	2.907464	0.492538	0.005816
 526	2.6250e-01	5.2448	2.964726	0.000500	5.002548	0.847455	0.010006
 527	2.6300e-01	5.2563	3.001502	0.000368	3.677086	0.622915	0.007355
 528	2.6350e-01	5.2652	3.043409	0.000419	4.190168	0.709834	0.008381
 529	2.6400e-01	5.2762	3.063507	0.000201	2.009570	0.340430	0.004020
 530	2.6450e-01	5.2856	3.122520	0.000590	5.900441	0.999562	0.011802
 531	2.6500e-01	5.2960	3.145184	0.000227	2.266111	0.383890	0.004533
 532	2.6550e-01	5.3058	3.183670	0.000385	3.848114	0.651888	0.007697
 533	2.6600e-01	5.3162	3.203341	0.000197	1.966814	0.333187	0.003934
 534	2.6650e-01	5.3262	3.249097	0.000457	4.574980	0.775023	0.009151
 535	2.6700e-01	5.3363	3.294425	0.000453	4.532223	0.767779	0.009066
 536	2.6750e-01	5.3455	3.333339	0.000389	3.890871	0.659131	0.007783
 537	2.6800e-01	5.3558	3.364556	0.000312	3.121248	0.528754	0.006243
 538	2.6850e-01	5.3668	3.388075	0.000235	2.351625	0.398376	0.004704
 539	2.6900e-01	5.3781	3.439818	0.000517	5.173575	0.876427	0.010349
 540	2.6950e-01	5.3864	3.463337	0.000235	2.351625	0.398376	0.004704
 541	2.7000e-01	5.3967	3.516363	0.000530	5.301846	0.898157	0.010605
 542	2.7050e-01	5.4047	3.544586	0.000282	2.821950	0.478051	0.005645
 543	2.7100e-01	5.4163	3.589487	0.000449	4.489466	0.760536	0.008980
 544	2.7150e-01	5.4266	3.624124	0.000346	3.463302	0.586699	0.006928
 545	2.7200e-01	5.4358	3.650637	0.000265	2.650923	0.449078	0.005303
 546	2.7250e-01	5.4498	3.682281	0.000316	3.164005	0.535997	0.006329
 547	2.7300e-01	5.4572	3.722050	0.000398	3.976384	0.673618	0.007954
 548	2.7350e-01	5.4660	3.756688	0.000346	3.463302	0.586699	0.006928
 549	2.7400e-01	5.4767	3.797312	0.000406	4.061898	0.688104	0.008125
 550	2.7450e-01	5.4858	3.818266	0.000210	2.095084	0.354917	0.004191
 551	2.7500e-01	5.4970	3.865305	0.000470	4.703250	0.796752	0.009408
 552	2.7550e-01	5.5054	3.907212	0.000419	4.190168	0.709834	0.008381
 553	2.7600e-01	5.5170	3.947409	0.000402	4.019141	0.680861	0.008039
 554	2.7650e-01	5.5267	3.971356	0.000239	2.394382	0.405619	0.004789
 555	2.7700e-01	5.5377	4.005138	0.000338	3.377789	0.572213	0.006756
 556	2.7750e-01	5.5476	4.035500	0.000304	3.035734	0.514267	0.006072
 557	2.7800e-01	5.5573	4.072703	0.000372	3.719843	0.630159	0.007441
 558	2.7850e-01	5.5655	4.114610	0.000419	4.190168	0.709834	0.008381
 559	2.7900e-01	5.5737	4.162504	0.000479	4.788764	0.811239	0.009579
 560	2.7950e-01	5.5859	4.181748	0.000192	1.924057	0.325944	0.003849
 561	2.8000e-01	5.5966	4.215102	0.000334	3.335032	0.564970	0.006671
 562	2.8050e-01	5.6076	4.274542	0.000594	5.943198	1.006805	0.011888
 563	2.8100e-01	5.6161	4.312173	0.000376	3.762600	0.637402	0.007526
 564	2.8150e-01	5.6277	4.337831	0.000257	2.565409	0.434592	0.005132
 565	2.8200e-01	5.6378	4.372041	0.000342	3.420546	0.579456	0.006842
 566	2.8250e-01	5.6464	4.398126	0.000261	2.608166	0.441835	0.005217
 567	2.8300e-01	5.6546	4.449013	0.000509	5.088061	0.861941	0.010177
 568	2.8350e-01	5.6677	4.484506	0.000355	3.548816	0.601186	0.007099
 569	2.8400e-01	5.6770	4.515295	0.000308	3.078491	0.521510	0.006158
 570	2.8450e-01	5.6845	4.541808	0.000265	2.650923	0.449078	0.005303
 571	2.8500e-01	5.6970	4.581150	0.000393	3.933627	0.666375	0.007868
 572	2.8550e-01	5.7059	4.621774	0.000406	4.061898	0.688104	0.008125
 573	2.8600e-01	5.7162	4.649142	0.000274	2.736436	0.463565	0.005474
 574	2.8650e-01	5.7253	4.698747	0.000496	4.959791	0.840211	0.009921
 575	2.8700e-01	5.7355	4.722266	0.000235	2.351625	0.398376	0.004704
 576	2.8750e-01	5.7462	4.761180	0.000389	3.890871	0.659131	0.007783
 577	2.8800e-01	5.7544	4.794107	0.000329	3.292275	0.557726	0.006585
 578	2.8850e-01	5.7657	4.826179	0.000321	3.206761	0.543240	0.006414
 579	2.8900e-01	5.7785	4.850981	0.000248	2.479895	0.420106	0.004960
 580	2.8950e-01	5.7892	4.898020	0.000470	4.703250	0.796752	0.009408
 581	2.9000e-01	5.7962	4.947624	0.000496	4.959791	0.840211	0.009921
 582	2.9050e-01	5.8075	4.966868	0.000192	1.924057	0.325944	0.003849
 583	2.9100e-01	5.8160	5.003643	0.000368	3.677086	0.622915	0.007355
 584	2.9150e-01	5.8241	5.043412	0.000398	3.976384	0.673618	0.007954
 585	2.9200e-01	5.8380	5.060518	0.000171	1.710273	0.289728	0.003421
 586	2.9250e-01	5.8463	5.111405	0.000509	5.088061	0.861941	0.010177
 587	2.9300e-01	5.8563	5.129793	0.000184	1.838543	0.311458	0.003678
 588	2.9350e-01	5.8652	5.189660	0.000599	5.985955	1.014048	0.011974
 589	2.9400e-01	5.8789	5.203344	0.000137	1.368218	0.231782	0.002737
 590	2.9450e-01	5.8868	5.248245	0.000449	4.489466	0.760536	0.008980
 591	2.9500e-01	5.8972	5.275185	0.000269	2.693680	0.456322	0.005388
 592	2.9550e-01	5.9076	5.324790	0.000496	4.959791	0.840211	0.009921
 593	2.9600e-01	5.9164	5.361566	0.000368	3.677086	0.622915	0.007355
 594	2.9650e-01	5.9262	5.393210	0.000316	3.164005	0.535997	0.006329
 595	2.9700e-01	5.9357	5.426137	0.000329	3.292275	0.557726	0.006585
 596	2.9750e-01	5.9491	5.465051	0.000389	3.890871	0.659131	0.007783
 597	2.9800e-01	5.9567	5.500544	0.000355	3.548816	0.601186	0.007099
 598	2.9850e-01	5.9674	5.530905	0.000304	3.035734	0.514267	0.006072
 599	2.9900e-01	5.9772	5.560411	0.000295	2.950220	0.499781	0.005901
 600	2.9950e-01	5.9860	5.598042	0.000376	3.762600	0.637402	0.007526
 601	3.0000e-01	5.9967	5.637384	0.000393	3.933627	0.666375	0.007868
 602	3.0050e-01	6.0074	5.674160	0.000368	3.677086	0.622915	0.007355
 603	3.0100e-01	6.0162	5.703238	0.000291	2.907464	0.492538	0.005816
 604	3.0150e-01	6.0284	5.745146	0.000419	4.190168	0.709834	0.008381
 605	3.0200e-01	6.0364	5.777217	0.000321	3.206761	0.543240	0.006414
 606	3.0250e-01	6.0443	5.808434	0.000312	3.121248	0.528754	0.006243
 607	3.0300e-01	6.0556	5.841789	0.000334	3.335032	0.564970	0.006671
 608	3.0350e-01	6.0663	5.881130	0.000393	3.933627	0.666375	0.007868
 609	3.0400e-01	6.0776	5.904650	0.000235	2.351625	0.398376	0.004704
 610	3.0450e-01	6.0895	5.947412	0.000428	4.275682	0.724320	0.008553
 611	3.0500e-01	6.0957	5.983760	0.000363	3.634330	0.615672	0.007270
 612	3.0550e-01	6.1075	6.007280	0.000235	2.351625	0.398376	0.004704
 613	3.0600e-01	6.1169	6.050898	0.000436	4.361196	0.738807	0.008724
 614	3.0650e-01	6.1255	6.088956	0.000381	3.805357	0.644645	0.007612
 615	3.0700e-01	6.1374	6.118890	0.000299	2.992977	0.507024	0.005987
 616	3.0750e-01	6.1487	6.154811	0.000359	3.591573	0.608429	0.007184
 617	3.0800e-01	6.1554	6.190731	0.000359	3.591573	0.608429	0.007184
 618	3.0850e-01	6.1673	6.230500	0.000398	3.976384	0.673618	0.007954
 619	3.0900e-01	6.1780	6.262572	0.000321	3.206761	0.543240	0.006414
 620	3.0950e-01	6.1850	6.301058	0.000385	3.848114	0.651888	0.007697
 621	3.1000e-01	6.1969	6.336979	0.000359	3.591573	0.608429	0.007184
 622	3.1050e-01	6.2082	6.359643	0.000227	2.266111	0.383890	0.004533
 623	3.1100e-01	6.2164	6.394708	0.000351	3.506059	0.593942	0.007013
 624	3.1150e-01	6.2277	6.435760	0.000410	4.104655	0.695347	0.008210
 625	3.1200e-01	6.2366	6.461846	0.000261	2.608166	0.441835	0.005217
 626	3.1250e-01	6.2463	6.498621	0.000368	3.677086	0.622915	0.007355
 627	3.1300e-01	6.2561	6.537963	0.000393	3.933627	0.666375	0.007868
 628	3.1350e-01	6.2674	6.565331	0.000274	2.736436	0.463565	0.005474
 629	3.1400e-01	6.2770	6.606383	0.000410	4.104655	0.695347	0.008210
 630	3.1450e-01	6.2878	6.633751	0.000274	2.736436	0.463565	0.005474
 631	3.1500e-01	6.3025	6.667106	0.000334	3.335032	0.564970	0.006671
 632	3.1550e-01	6.3080	6.680790	0.000137	1.368218	0.231782	0.002737
 633	3.1600e-01	6.3156	6.738519	0.000577	5.772171	0.977832	0.011546
 634	3.1650e-01	6.3257	6.762038	0.000235	2.351625	0.398376	0.004704
 635	3.1700e-01	6.3351	6.805656	0.000436	4.361196	0.738807	0.008724
 636	3.1750e-01	6.3452	6.850557	0.000449	4.489466	0.760536	0.008980
 637	3.1800e-01	6.3550	6.865524	0.000150	1.496489	0.253512	0.002993
 638	3.1850e-01	6.3647	6.918977	0.000534	5.344602	0.905400	0.010691
 639	3.1900e-01	6.3724	6.957891	0.000389	3.890871	0.659131	0.007783
 640	3.1950e-01	6.3855	6.978844	0.000210	2.095084	0.354917	0.004191
 641	3.2000e-01	6.3940	7.021607	0.000428	4.275682	0.724320	0.008553
 642	3.2050e-01	6.4053	7.052824	0.000312	3.121248	0.528754	0.006243
 643	3.2100e-01	6.4154	7.075060	0.000222	2.223355	0.376646	0.004447
 644	3.2150e-01	6.4276	7.110125	0.000351	3.506059	0.593942	0.007013
 645	3.2200e-01	6.4346	7.145191	0.000351	3.506059	0.593942	0.007013
 646	3.2250e-01	6.4467	7.174697	0.000295	2.950220	0.499781	0.005901
 647	3.2300e-01	6.4575	7.203348	0.000286	2.864707	0.485294	0.005730
 648	3.2350e-01	6.4664	7.248248	0.000449	4.489466	0.760536	0.008980
 649	3.2400e-01	6.4764	7.283314	0.000351	3.506059	0.593942	0.007013
 650	3.2450e-01	6.4838	7.309399	0.000261	2.608166	0.441835	0.005217
 651	3.2500e-01	6.4969	7.342754	0.000334	3.335032	0.564970	0.006671
 652	3.2550e-01	6.5051	7.395351	0.000526	5.259089	0.890914	0.010520
 653	3.2600e-01	6.5155	7.411174	0.000158	1.582002	0.267998	0.003164
 654	3.2650e-01	6.5283	7.455219	0.000440	4.403952	0.746050	0.008809
 655	3.2700e-01	6.5350	7.479594	0.000244	2.437139	0.412862	0.004875
 656	3.2750e-01	6.5475	7.517652	0.000381	3.805357	0.644645	0.007612
 657	3.2800e-01	6.5573	7.544593	0.000269	2.693680	0.456322	0.005388
 658	3.2850e-01	6.5686	7.582224	0.000376	3.762600	0.637402	0.007526
 659	3.2900e-01	6.5784	7.620710	0.000385	3.848114	0.651888	0.007697
 660	3.2950e-01	6.5866	7.650644	0.000299	2.992977	0.507024	0.005987
 661	3.3000e-01	6.5939	7.700676	0.000500	5.002548	0.847455	0.010006
 662	3.3050e-01	6.6052	7.722485	0.000218	2.180598	0.369403	0.004362
 663	3.3100e-01	6.6171	7.756267	0.000338	3.377789	0.572213	0.006756
 664	3.3150e-01	6.6278	7.783208	0.000269	2.693680	0.456322	0.005388
 665	3.3200e-01	6.6354	7.812714	0.000295	2.950220	0.499781	0.005901
 666	3.3250e-01	6.6461	7.851628	0.000389	3.890871	0.659131	0.007783
 667	3.3300e-01	6.6544	7.881561	0.000299	2.992977	0.507024	0.005987
 668	3.3350e-01	6.6644	7.915771	0.000342	3.420546	0.579456	0.006842
 669	3.3400e-01	6.6754	7.955113	0.000393	3.933627	0.666375	0.007868
 670	3.3450e-01	6.6864	7.993599	0.000385	3.848114	0.651888	0.007697
 671	3.3500e-01	6.6968	8.031658	0.000381	3.805357	0.644645	0.007612
 672	3.3550e-01	6.7059	8.055177	0.000235	2.351625	0.398376	0.004704
 673	3.3600e-01	6.7166	8.094091	0.000389	3.890871	0.659131	0.007783
 674	3.3650e-01	6.7273	8.129584	0.000355	3.548816	0.601186	0.007099
 675	3.3700e-01	6.7355	8.145406	0.000158	1.582002	0.267998	0.003164
 676	3.3750e-01	6.7445	8.200998	0.000556	5.558386	0.941616	0.011118
 677	3.3800e-01	6.7560	8.231359	0.000304	3.035734	0.514267	0.006072
 678	3.3850e-01	6.7673	8.260865	0.000295	2.950220	0.499781	0.005901
 679	3.3900e-01	6.7767	8.299351	0.000385	3.848114	0.651888	0.007697
 680	3.3950e-01	6.7859	8.345107	0.000457	4.574980	0.775023	0.009151
 681	3.4000e-01	6.7941	8.365206	0.000201	2.009570	0.340430	0.004020
 682	3.4050e-01	6.8042	8.395995	0.000308	3.078491	0.521510	0.006158
 683	3.4100e-01	6.8182	8.423363	0.000274	2.736436	0.463565	0.005474
 684	3.4150e-01	6.8259	8.453296	0.000299	2.992977	0.507024	0.005987
 685	3.4200e-01	6.8399	8.484513	0.000312	3.121248	0.528754	0.006243
 686	3.4250e-01	6.8466	8.514874	0.000304	3.035734	0.514267	0.006072
 687	3.4300e-01	6.8539	8.563624	0.000487	4.874277	0.825725	0.009750
 688	3.4350e-01	6.8658	8.596551	0.000329	3.292275	0.557726	0.006585
 689	3.4400e-01	6.8756	8.629050	0.000325	3.249518	0.550483	0.006500
 690	3.4450e-01	6.8872	8.657701	0.000286	2.864707	0.485294	0.005730
 691	3.4500e-01	6.8964	8.697898	0.000402	4.019141	0.680861	0.008039
 692	3.4550e-01	6.9057	8.727832	0.000299	2.992977	0.507024	0.005987
 693	3.4600e-01	6.9165	8.771450	0.000436	4.361196	0.738807	0.008724
 694	3.4650e-01	6.9250	8.790693	0.000192	1.924057	0.325944	0.003849
 695	3.4700e-01	6.9374	8.830890	0.000402	4.019141	0.680861	0.008039
 696	3.4750e-01	6.9455	8.865527	0.000346	3.463302	0.586699	0.006928
 697	3.4800e-01	6.9562	8.905296	0.000398	3.976384	0.673618	0.007954
 698	3.4850e-01	6.9635	8.921546	0.000162	1.624759	0.275242	0.003250
 699	3.4900e-01	6.9781	8.975855	0.000543	5.430116	0.919887	0.010862
 700	3.4950e-01	6.9861	8.990394	0.000145	1.453732	0.246269	0.002908
 701	3.5000e-01	6.9962	9.034439	0.000440	4.403952	0.746050	0.008809
 702	3.5050e-01	7.0065	9.072925	0.000385	3.848114	0.651888	0.007697
 703	3.5100e-01	7.0169	9.092169	0.000192	1.924057	0.325944	0.003849
 704	3.5150e-01	7.0261	9.132793	0.000406	4.061898	0.688104	0.008125
 705	3.5200e-01	7.0354	9.157168	0.000244	2.437139	0.412862	0.004875
 706	3.5250e-01	7.0465	9.196082	0.000389	3.890871	0.659131	0.007783
 707	3.5300e-01	7.0551	9.232002	0.000359	3.591573	0.608429	0.007184
 708	3.5350e-01	7.0642	9.260225	0.000282	2.821950	0.478051	0.005645
 709	3.5400e-01	7.0764	9.298284	0.000381	3.805357	0.644645	0.007612
 710	3.5450e-01	7.0856	9.326935	0.000286	2.864707	0.485294	0.005730
 711	3.5500e-01	7.0950	9.369270	0.000423	4.232925	0.717077	0.008467
 712	3.5550e-01	7.1069	9.391934	0.000227	2.266111	0.383890	0.004533
 713	3.5600e-01	7.1155	9.427427	0.000355	3.548816	0.601186	0.007099
 714	3.5650e-01	7.1252	9.469334	0.000419	4.190168	0.709834	0.008381
 715	3.5700e-01	7.1365	9.502261	0.000329	3.292275	0.557726	0.006585
 716	3.5750e-01	7.1487	9.523642	0.000214	2.137841	0.362160	0.004276
 717	3.5800e-01	7.1582	9.565122	0.000415	4.147411	0.702591	0.008296
 718	3.5850e-01	7.1680	9.600187	0.000351	3.506059	0.593942	0.007013
 719	3.5900e-01	7.1756	9.625417	0.000252	2.522652	0.427349	0.005046
 720	3.5950e-01	7.1887	9.658772	0.000334	3.335032	0.564970	0.006671
 721	3.6000e-01	7.1970	9.692554	0.000338	3.377789	0.572213	0.006756
 722	3.6050e-01	7.2049	9.725909	0.000334	3.335032	0.564970	0.006671
 723	3.6100e-01	7.2174	9.764823	0.000389	3.890871	0.659131	0.007783
 724	3.6150e-01	7.2241	9.799033	0.000342	3.420546	0.579456	0.006842
 725	3.6200e-01	7.2351	9.816993	0.000180	1.795786	0.304214	0.003592
 726	3.6250e-01	7.2491	9.852059	0.000351	3.506059	0.593942	0.007013
 727	3.6300e-01	7.2559	9.905939	0.000539	5.387359	0.912643	0.010776
 728	3.6350e-01	7.2647	9.918768	0.000128	1.282705	0.217296	0.002566
 729	3.6400e-01	7.2757	9.960248	0.000415	4.147411	0.702591	0.008296
 730	3.6450e-01	7.2876	10.003866	0.000436	4.361196	0.738807	0.008724
 731	3.6500e-01	7.2937	10.021826	0.000180	1.795786	0.304214	0.003592
 732	3.6550e-01	7.3085	10.061595	0.000398	3.976384	0.673618	0.007954
 733	3.6600e-01	7.3157	10.096233	0.000346	3.463302	0.586699	0.006928
 734	3.6650e-01	7.3260	10.127022	0.000308	3.078491	0.521510	0.006158
 735	3.6700e-01	7.3358	10.151824	0.000248	2.479895	0.420106	0.004960
 736	3.6750e-01	7.3453	10.199718	0.000479	4.788764	0.811239	0.009579
 737	3.6800e-01	7.3560	10.224093	0.000244	2.437139	0.412862	0.004875
 738	3.6850e-01	7.3669	10.239060	0.000150	1.496489	0.253512	0.002993
 739	3.6900e-01	7.3773	10.301493	0.000624	6.242496	1.057507	0.012487
 740	3.6950e-01	7.3859	10.311328	0.000098	0.983407	0.166594	0.001967
 741	3.7000e-01	7.3984	10.348104	0.000368	3.677086	0.622915	0.007355
 742	3.7050e-01	7.4060	10.398991	0.000509	5.088061	0.861941	0.010177
 743	3.7100e-01	7.4164	10.431919	0.000329	3.292275	0.557726	0.006585
 744	3.7150e-01	7.4289	10.460997	0.000291	2.907464	0.492538	0.005816
 745	3.7200e-01	7.4368	10.496490	0.000355	3.548816	0.601186	0.007099
 746	3.7250e-01	7.4448	10.532411	0.000359	3.591573	0.608429	0.007184
 747	3.7300e-01	7.4567	10.561489	0.000291	2.907464	0.492538	0.005816
 748	3.7350e-01	7.4664	10.604252	0.000428	4.275682	0.724320	0.008553
 749	3.7400e-01	7.4774	10.635468	0.000312	3.121248	0.528754	0.006243
 750	3.7450e-01	7.4890	10.670961	0.000355	3.548816	0.601186	0.007099
 751	3.7500e-01	7.4957	10.696191	0.000252	2.522652	0.427349	0.005046
 752	3.7550e-01	7.5055	10.731256	0.000351	3.506059	0.593942	0.007013
 753	3.7600e-01	7.5182	10.755203	0.000239	2.394382	0.405619	0.004789
 754	3.7650e-01	7.5281	10.802242	0.000470	4.703250	0.796752	0.009408
 755	3.7700e-01	7.5354	10.842439	0.000402	4.019141	0.680861	0.008039
 756	3.7750e-01	7.5452	10.864675	0.000222	2.223355	0.376646	0.004447
 757	3.7800e-01	7.5543	10.893754	0.000291	2.907464	0.492538	0.005816
 758	3.7850e-01	7.5696	10.901024	0.000073	0.726866	0.123134	0.001454
 759	3.7900e-01	7.5757	10.977141	0.000761	7.610714	1.289290	0.015223
 760	3.7950e-01	7.5842	10.997239	0.000201	2.009570	0.340430	0.004020
 761	3.8000e-01	7.5980	11.033587	0.000363	3.634330	0.615672	0.007270
 762	3.8050e-01	7.6056	11.060528	0.000269	2.693680	0.456322	0.005388
 763	3.8100e-01	7.6160	11.091744	0.000312	3.121248	0.528754	0.006243
 764	3.8150e-01	7.6251	11.153322	0.000616	6.156982	1.043021	0.012316
 765	3.8200e-01	7.6370	11.164013	0.000107	1.068920	0.181080	0.002138
 766	3.8250e-01	7.6459	11.190098	0.000261	2.608166	0.441835	0.005217
 767	3.8300e-01	7.6556	11.226019	0.000359	3.591573	0.608429	0.007184
 768	3.8350e-01	7.6688	11.260229	0.000342	3.420546	0.579456	0.006842
 769	3.8400e-01	7.6764	11.280755	0.000205	2.052327	0.347674	0.004105
 770	3.8450e-01	7.6877	11.340622	0.000599	5.985955	1.014048	0.011974
 771	3.8500e-01	7.6987	11.355589	0.000150	1.496489	0.253512	0.002993
 772	3.8550e-01	7.7063	11.395358	0.000398	3.976384	0.673618	0.007954
 773	3.8600e-01	7.7161	11.422726	0.000274	2.736436	0.463565	0.005474
 774	3.8650e-01	7.7252	11.448384	0.000257	2.565409	0.434592	0.005132
 775	3.8700e-01	7.7368	11.492002	0.000436	4.361196	0.738807	0.008724
 776	3.8750e-01	7.7454	11.530488	0.000385	3.848114	0.651888	0.007697
 777	3.8800e-01	7.7582	11.541606	0.000111	1.111677	0.188323	0.002224
 778	3.8850e-01	7.7649	11.588217	0.000466	4.660493	0.789509	0.009322
 779	3.8900e-01	7.7783	11.622427	0.000342	3.420546	0.579456	0.006842
 780	3.8950e-01	7.7859	11.662196	0.000398	3.976384	0.673618	0.007954
 781	3.9000e-01	7.7954	11.705387	0.000432	4.318439	0.731563	0.008638
 782	3.9050e-01	7.8088	11.719498	0.000141	1.410975	0.239026	0.002822
 783	3.9100e-01	7.8165	11.763544	0.000440	4.403952	0.746050	0.008809
 784	3.9150e-01	7.8271	11.793477	0.000299	2.992977	0.507024	0.005987
 785	3.9200e-01	7.8357	11.835385	0.000419	4.190168	0.709834	0.008381
 786	3.9250e-01	7.8439	11.894397	0.000590	5.900441	0.999562	0.011802
 787	3.9300e-01	7.8552	11.906798	0.000124	1.239948	0.210053	0.002480
 788	3.9350e-01	7.8651	11.937587	0.000308	3.078491	0.521510	0.006158
 789	3.9400e-01	7.8735	11.973508	0.000359	3.591573	0.608429	0.007184
 790	3.9450e-01	7.8845	12.004724	0.000312	3.121248	0.528754	0.006243
 791	3.9500e-01	7.8951	12.040217	0.000355	3.548816	0.601186	0.007099
 792	3.9550e-01	7.9059	12.075710	0.000355	3.548816	0.601186	0.007099
 793	3.9600e-01	7.9169	12.107782	0.000321	3.206761	0.543240	0.006414
 794	3.9650e-01	7.9260	12.142847	0.000351	3.506059	0.593942	0.007013
 795	3.9700e-01	7.9333	12.174919	0.000321	3.206761	0.543240	0.006414
 796	3.9750e-01	7.9456	12.210412	0.000355	3.548816	0.601186	0.007099
 797	3.9800e-01	7.9553	12.244622	0.000342	3.420546	0.579456	0.006842
 798	3.9850e-01	7.9663	12.271135	0.000265	2.650923	0.449078	0.005303
 799	3.9900e-01	7.9767	12.304062	0.000329	3.292275	0.557726	0.006585
 800	3.9950e-01	7.9858	12.349818	0.000457	4.574980	0.775023	0.009151
 801	4.0000e-01	7.9971	12.378469	0.000286	2.864707	0.485294	0.005730
 802	4.0050e-01	8.0060	12.405837	0.000274	2.736436	0.463565	0.005474
 803	4.0100e-01	8.0142	12.431494	0.000257	2.565409	0.434592	0.005132
 804	4.0150e-01	8.0273	12.468698	0.000372	3.719843	0.630159	0.007441
 805	4.0200e-01	8.0383	12.513598	0.000449	4.489466	0.760536	0.008980
 806	4.0250e-01	8.0457	12.544387	0.000308	3.078491	0.521510	0.006158
 807	4.0300e-01	8.0548	12.578597	0.000342	3.420546	0.579456	0.006842
 808	4.0350e-01	8.0688	12.622215	0.000436	4.361196	0.738807	0.008724
 809	4.0400e-01	8.0756	12.644879	0.000227	2.266111	0.383890	0.004533
 810	4.0450e-01	8.0872	12.676096	0.000312	3.121248	0.528754	0.006243
 811	4.0500e-01	8.0946	12.720569	0.000445	4.446709	0.753293	0.008895
 812	4.0550e-01	8.1073	12.743233	0.000227	2.266111	0.383890	0.004533
 813	4.0600e-01	8.1177	12.784713	0.000415	4.147411	0.702591	0.008296
 814	4.0650e-01	8.1256	12.813364	0.000286	2.864707	0.485294	0.005730
 815	4.0700e-01	8.1372	12.859975	0.000466	4.660493	0.789509	0.009322
 816	4.0750e-01	8.1464	12.891192	0.000312	3.121248	0.528754	0.006243
 817	4.0800e-01	8.1567	12.922408	0.000312	3.121248	0.528754	0.006243
 818	4.0850e-01	8.1656	12.954052	0.000316	3.164005	0.535997	0.006329
 819	4.0900e-01	8.1781	12.986124	0.000321	3.206761	0.543240	0.006414
 820	4.0950e-01	8.1863	13.014348	0.000282	2.821950	0.478051	0.005645
 821	4.1000e-01	8.1970	13.058393	0.000440	4.403952	0.746050	0.008809
 822	4.1050e-01	8.2050	13.108853	0.000505	5.045305	0.854698	0.010092
 823	4.1100e-01	8.2162	13.122964	0.000141	1.410975	0.239026	0.002822
 824	4.1150e-01	8.2294	13.172569	0.000496	4.959791	0.840211	0.009921
 825	4.1200e-01	8.2355	13.194805	0.000222	2.223355	0.376646	0.004447
 826	4.1250e-01	8.2462	13.228588	0.000338	3.377789	0.572213	0.006756
 827	4.1300e-01	8.2550	13.255956	0.000274	2.736436	0.463565	0.005474
 828	4.1350e-01	8.2690	13.300001	0.000440	4.403952	0.746050	0.008809
 829	4.1400e-01	8.2782	13.323948	0.000239	2.394382	0.405619	0.004789
 830	4.1450e-01	8.2886	13.373125	0.000492	4.917034	0.832968	0.009835
 831	4.1500e-01	8.2941	13.412039	0.000389	3.890871	0.659131	0.007783
 832	4.1550e-01	8.3084	13.453091	0.000410	4.104655	0.695347	0.008210
 833	4.1600e-01	8.3167	13.483025	0.000299	2.992977	0.507024	0.005987
 834	4.1650e-01	8.3258	13.511676	0.000286	2.864707	0.485294	0.005730
 835	4.1700e-01	8.3356	13.547169	0.000355	3.548816	0.601186	0.007099
 836	4.1750e-01	8.3490	13.578385	0.000312	3.121248	0.528754	0.006243
 837	4.1800e-01	8.3575	13.613023	0.000346	3.463302	0.586699	0.006928
 838	4.1850e-01	8.3664	13.640819	0.000278	2.779193	0.470808	0.005559
 839	4.1900e-01	8.3759	13.681015	0.000402	4.019141	0.680861	0.008039
 840	4.1950e-01	8.3862	13.730620	0.000496	4.959791	0.840211	0.009921
 841	4.2000e-01	8.3960	13.751574	0.000210	2.095084	0.354917	0.004191
 842	4.2050e-01	8.4070	13.777231	0.000257	2.565409	0.434592	0.005132
 843	4.2100e-01	8.4167	13.825980	0.000487	4.874277	0.825725	0.009750
 844	4.2150e-01	8.4280	13.859335	0.000334	3.335032	0.564970	0.006671
 845	4.2200e-01	8.4363	13.902525	0.000432	4.318439	0.731563	0.008638
 846	4.2250e-01	8.4477	13.930321	0.000278	2.779193	0.470808	0.005559
 847	4.2300e-01	8.4540	13.956834	0.000265	2.650923	0.449078	0.005303
 848	4.2350e-01	8.4680	13.997886	0.000410	4.104655	0.695347	0.008210
 849	4.2400e-01	8.4818	14.037227	0.000393	3.933627	0.666375	0.007868
 850	4.2450e-01	8.4857	14.070154	0.000329	3.292275	0.557726	0.006585
 851	4.2500e-01	8.4991	14.105647	0.000355	3.548816	0.601186	0.007099
 852	4.2550e-01	8.5071	14.141995	0.000363	3.634330	0.615672	0.007270
 853	4.2600e-01	8.5181	14.178344	0.000363	3.634330	0.615672	0.007270
 854	4.2650e-01	8.5272	14.222817	0.000445	4.446709	0.753293	0.008895
 855	4.2700e-01	8.5376	14.257027	0.000342	3.420546	0.579456	0.006842
 856	4.2750e-01	8.5468	14.276270	0.000192	1.924057	0.325944	0.003849
 857	4.2800e-01	8.5571	14.316467	0.000402	4.019141	0.680861	0.008039
 858	4.2850e-01	8.5706	14.347256	0.000308	3.078491	0.521510	0.006158
 859	4.2900e-01	8.5779	14.383604	0.000363	3.634330	0.615672	0.007270
 860	4.2950e-01	8.5840	14.431498	0.000479	4.788764	0.811239	0.009579
 861	4.3000e-01	8.5983	14.450741	0.000192	1.924057	0.325944	0.003849
 862	4.3050e-01	8.6053	14.492648	0.000419	4.190168	0.709834	0.008381
 863	4.3100e-01	8.6151	14.533700	0.000410	4.104655	0.695347	0.008210
 864	4.3150e-01	8.6281	14.563634	0.000299	2.992977	0.507024	0.005987
 865	4.3200e-01	8.6377	14.600837	0.000372	3.719843	0.630159	0.007441
 866	4.3250e-01	8.6487	14.644028	0.000432	4.318439	0.731563	0.008638
 867	4.3300e-01	8.6575	14.678665	0.000346	3.463302	0.586699	0.006928
 868	4.3350e-01	8.6676	14.710737	0.000321	3.206761	0.543240	0.006414
 869	4.3400e-01	8.6743	14.756065	0.000453	4.532223	0.767779	0.009066
 870	4.3450e-01	8.6891	14.791131	0.000351	3.506059	0.593942	0.007013
 871	4.3500e-01	8.6981	14.815505	0.000244	2.437139	0.412862	0.004875
 872	4.3550e-01	8.7051	14.856557	0.000410	4.104655	0.695347	0.008210
 873	4.3600e-01	8.7180	14.892050	0.000355	3.548816	0.601186	0.007099
 874	4.3650e-01	8.7256	14.939517	0.000475	4.746007	0.803995	0.009493
 875	4.3700e-01	8.7354	14.963891	0.000244	2.437139	0.412862	0.004875
 876	4.3750e-01	8.7451	15.003233	0.000393	3.933627	0.666375	0.007868
 877	4.3800e-01	8.7567	15.040436	0.000372	3.719843	0.630159	0.007441
 878	4.3850e-01	8.7653	15.069942	0.000295	2.950220	0.499781	0.005901
 879	4.3900e-01	8.7769	15.112705	0.000428	4.275682	0.724320	0.008553
 880	4.3950e-01	8.7854	15.150336	0.000376	3.762600	0.637402	0.007526
 881	4.4000e-01	8.7982	15.185401	0.000351	3.506059	0.593942	0.007013
 882	4.4050e-01	8.8062	15.231157	0.000457	4.574980	0.775023	0.009151
 883	4.4100e-01	8.8159	15.266222	0.000351	3.506059	0.593942	0.007013
 884	4.4150e-01	8.8275	15.290597	0.000244	2.437139	0.412862	0.004875
 885	4.4200e-01	8.8361	15.323952	0.000334	3.335032	0.564970	0.006671
 886	4.4250e-01	8.8480	15.372273	0.000483	4.831521	0.818482	0.009664
 887	4.4300e-01	8.8562	15.406056	0.000338	3.377789	0.572213	0.006756
 888	4.4350e-01	8.8660	15.444970	0.000389	3.890871	0.659131	0.007783
 889	4.4400e-01	8.8770	15.481745	0.000368	3.677086	0.622915	0.007355
 890	4.4450e-01	8.8873	15.512962	0.000312	3.121248	0.528754	0.006243
 891	4.4500e-01	8.8989	15.559146	0.000462	4.617736	0.782266	0.009237
 892	4.4550e-01	8.9069	15.600625	0.000415	4.147411	0.702591	0.008296
 893	4.4600e-01	8.9160	15.633552	0.000329	3.292275	0.557726	0.006585
 894	4.4650e-01	8.9258	15.664769	0.000312	3.121248	0.528754	0.006243
 895	4.4700e-01	8.9362	15.704966	0.000402	4.019141	0.680861	0.008039
 896	4.4750e-01	8.9450	15.751577	0.000466	4.660493	0.789509	0.009322
 897	4.4800e-01	8.9539	15.783221	0.000316	3.164005	0.535997	0.006329
 898	4.4850e-01	8.9667	15.808879	0.000257	2.565409	0.434592	0.005132
 899	4.4900e-01	8.9767	15.857628	0.000487	4.874277	0.825725	0.009750
 900	4.4950e-01	8.9862	15.877299	0.000197	1.966814	0.333187	0.003934
 901	4.5000e-01	8.9944	15.941870	0.000646	6.456280	1.093723	0.012914
 902	4.5050e-01	9.0067	15.973942	0.000321	3.206761	0.543240	0.006414
 903	4.5100e-01	9.0170	16.007297	0.000334	3.335032	0.564970	0.006671
 904	4.5150e-01	9.0259	16.053480	0.000462	4.617736	0.782266	0.009237
 905	4.5200e-01	9.0356	16.094532	0.000410	4.104655	0.695347	0.008210
 906	4.5250e-01	9.0448	16.115914	0.000214	2.137841	0.362160	0.004276
 907	4.5300e-01	9.0588	16.156538	0.000406	4.061898	0.688104	0.008125
 908	4.5350e-01	9.0640	16.203577	0.000470	4.703250	0.796752	0.009408
 909	4.5400e-01	9.0759	16.233511	0.000299	2.992977	0.507024	0.005987
 910	4.5450e-01	9.0848	16.285681	0.000522	5.216332	0.883671	0.010434
 911	4.5500e-01	9.0961	16.313477	0.000278	2.779193	0.470808	0.005559
 912	4.5550e-01	9.1064	16.351963	0.000385	3.848114	0.651888	0.007697
 913	4.5600e-01	9.1168	16.389166	0.000372	3.719843	0.630159	0.007441
 914	4.5650e-01	9.1260	16.437060	0.000479	4.788764	0.811239	0.009579
 915	4.5700e-01	9.1376	16.459297	0.000222	2.223355	0.376646	0.004447
 916	4.5750e-01	9.1449	16.505053	0.000457	4.574980	0.775023	0.009151
 917	4.5800e-01	9.1565	16.539690	0.000346	3.463302	0.586699	0.006928
 918	4.5850e-01	9.1644	16.596137	0.000564	5.643900	0.956103	0.011289
 919	4.5900e-01	9.1754	16.618801	0.000227	2.266111	0.383890	0.004533
 920	4.5950e-01	9.1867	16.674820	0.000560	5.601143	0.948859	0.011204
 921	4.6000e-01	9.1956	16.709030	0.000342	3.420546	0.579456	0.006842
 922	4.6050e-01	9.2059	16.747516	0.000385	3.848114	0.651888	0.007697
 923	4.6100e-01	9.2133	16.788568	0.000410	4.104655	0.695347	0.008210
 924	4.6150e-01	9.2236	16.836890	0.000483	4.831521	0.818482	0.009664
 925	4.6200e-01	9.2365	16.873238	0.000363	3.634330	0.615672	0.007270
 926	4.6250e-01	9.2465	16.909159	0.000359	3.591573	0.608429	0.007184
 927	4.6300e-01	9.2560	16.940803	0.000316	3.164005	0.535997	0.006329
 928	4.6350e-01	9.2670	16.986131	0.000453	4.532223	0.767779	0.009066
 929	4.6400e-01	9.2786	17.019058	0.000329	3.292275	0.557726	0.006585
 930	4.6450e-01	9.2871	17.069518	0.000505	5.045305	0.854698	0.010092
 931	4.6500e-01	9.2969	17.086623	0.000171	1.710273	0.289728	0.003421
 932	4.6550e-01	9.3060	17.143070	0.000564	5.643900	0.956103	0.011289
 933	4.6600e-01	9.3135	17.194385	0.000513	5.130818	0.869184	0.010263
 934	4.6650e-01	9.3243	17.225174	0.000308	3.078491	0.521510	0.006158
 935	4.6700e-01	9.3362	17.264943	0.000398	3.976384	0.673618	0.007954
 936	4.6750e-01	9.3475	17.313692	0.000487	4.874277	0.825725	0.009750
 937	4.6800e-01	9.3567	17.353889	0.000402	4.019141	0.680861	0.008039
 938	4.6850e-01	9.3665	17.379974	0.000261	2.608166	0.441835	0.005217
 939	4.6900e-01	9.3768	17.438131	0.000581	5.814927	0.985075	0.011631
 940	4.6950e-01	9.3878	17.461650	0.000235	2.351625	0.398376	0.004704
 941	4.7000e-01	9.3951	17.515959	0.000543	5.430116	0.919887	0.010862
 942	4.7050e-01	9.4049	17.552307	0.000363	3.634330	0.615672	0.007270
 943	4.7100e-01	9.4159	17.592931	0.000406	4.061898	0.688104	0.008125
 944	4.7150e-01	9.4244	17.644246	0.000513	5.130818	0.869184	0.010263
 945	4.7200e-01	9.4360	17.679739	0.000355	3.548816	0.601186	0.007099
 946	4.7250e-01	9.4458	17.716088	0.000363	3.634330	0.615672	0.007270
 947	4.7300e-01	9.4562	17.750725	0.000346	3.463302	0.586699	0.006928
 948	4.7350e-01	9.4659	17.790922	0.000402	4.019141	0.680861	0.008039
 949	4.7400e-01	9.4727	17.833684	0.000428	4.275682	0.724320	0.008553
 950	4.7450e-01	9.4855	17.878157	0.000445	4.446709	0.753293	0.008895
 951	4.7500e-01	9.4934	17.920492	0.000423	4.232925	0.717077	0.008467
 952	4.7550e-01	9.5056	17.973518	0.000530	5.301846	0.898157	0.010605
 953	4.7600e-01	9.5135	18.025261	0.000517	5.173575	0.876427	0.010349
 954	4.7650e-01	9.5264	18.052201	0.000269	2.693680	0.456322	0.005388
 955	4.7700e-01	9.5316	18.092825	0.000406	4.061898	0.688104	0.008125
 956	4.7750e-01	9.5441	18.126608	0.000338	3.377789	0.572213	0.006756
 957	4.7800e-01	9.5569	18.169798	0.000432	4.318439	0.731563	0.008638
 958	4.7850e-01	9.5630	18.214699	0.000449	4.489466	0.760536	0.008980
 959	4.7900e-01	9.5758	18.263875	0.000492	4.917034	0.832968	0.009835
 960	4.7950e-01	9.5862	18.283119	0.000192	1.924057	0.325944	0.003849
 961	4.8000e-01	9.5941	18.344269	0.000611	6.114225	1.035778	0.012230
 962	4.8050e-01	9.6045	18.392591	0.000483	4.831521	0.818482	0.009664
 963	4.8100e-01	9.6155	18.420814	0.000282	2.821950	0.478051	0.005645
 964	4.8150e-01	9.6237	18.461866	0.000410	4.104655	0.695347	0.008210
 965	4.8200e-01	9.6350	18.523444	0.000616	6.156982	1.043021	0.012316
 966	4.8250e-01	9.6448	18.554661	0.000312	3.121248	0.528754	0.006243
 967	4.8300e-01	9.6552	18.608541	0.000539	5.387359	0.912643	0.010776
 968	4.8350e-01	9.6643	18.653870	0.000453	4.532223	0.767779	0.009066
 969	4.8400e-01	9.6771	18.686369	0.000325	3.249518	0.550483	0.006500
 970	4.8450e-01	9.6881	18.718869	0.000325	3.249518	0.550483	0.006500
 971	4.8500e-01	9.6954	18.766335	0.000475	4.746007	0.803995	0.009493
 972	4.8550e-01	9.7064	18.818505	0.000522	5.216332	0.883671	0.010434
 973	4.8600e-01	9.7171	18.870248	0.000517	5.173575	0.876427	0.010349
 974	4.8650e-01	9.7278	18.903175	0.000329	3.292275	0.557726	0.006585
 975	4.8700e-01	9.7351	18.948076	0.000449	4.489466	0.760536	0.008980
 976	4.8750e-01	9.7437	18.993832	0.000457	4.574980	0.775023	0.009151
 977	4.8800e-01	9.7565	19.044719	0.000509	5.088061	0.861941	0.010177
 978	4.8850e-01	9.7668	19.082778	0.000381	3.805357	0.644645	0.007612
 979	4.8900e-01	9.7766	19.113567	0.000308	3.078491	0.521510	0.006158
 980	4.8950e-01	9.7876	19.164882	0.000513	5.130818	0.869184	0.010263
 981	4.9000e-01	9.7943	19.218335	0.000534	5.344602	0.905400	0.010691
 982	4.9050e-01	9.8077	19.243993	0.000257	2.565409	0.434592	0.005132
 983	4.9100e-01	9.8163	19.297446	0.000534	5.344602	0.905400	0.010691
 984	4.9150e-01	9.8245	19.348333	0.000509	5.088061	0.861941	0.010177
 985	4.9200e-01	9.8358	19.394517	0.000462	4.617736	0.782266	0.009237
 986	4.9250e-01	9.8480	19.440700	0.000462	4.617736	0.782266	0.009237
 987	4.9300e-01	9.8557	19.485601	0.000449	4.489466	0.760536	0.008980
 988	4.9350e-01	9.8654	19.523660	0.000381	3.805357	0.644645	0.007612
 989	4.9400e-01	9.8749	19.563856	0.000402	4.019141	0.680861	0.008039
 990	4.9450e-01	9.8871	19.626717	0.000629	6.285252	1.064751	0.012572
 991	4.9500e-01	9.8969	19.644677	0.000180	1.795786	0.304214	0.003592
 992	4.9550e-01	9.9051	19.709677	0.000650	6.499036	1.100967	0.013000
 993	4.9600e-01	9.9133	19.760136	0.000505	5.045305	0.854698	0.010092
 994	4.9650e-01	9.9265	19.805892	0.000457	4.574980	0.775023	0.009151
 995	4.9700e-01	9.9353	19.844806	0.000389	3.890871	0.659131	0.007783
 996	4.9750e-01	9.9463	19.886286	0.000415	4.147411	0.702591	0.008296
 997	4.9800e-01	9.9565	19.941877	0.000556	5.558386	0.941616	0.011118
 998	4.9850e-01	9.9652	19.972238	0.000304	3.035734	0.514267	0.006072
 999	4.9900e-01	9.9756	20.025692	0.000534	5.344602	0.905400	0.010691
1000	4.9950e-01	9.9838	20.075724	0.000500	5.002548	0.847455	0.010006
1001	5.0000e-01	9.9976	20.099671	0.000239	2.394382	0.405619	0.004789
1002	5.0050e-01	9.9866	20.101809	-0.000021	-0.213784	-0.036216	0.000428
1003	5.0100e-01	9.9762	20.109079	-0.000073	-0.726866	-0.123134	0.001454
1004	5.0150e-01	9.9640	20.097105	0.000120	1.197191	0.202810	-0.002395
1005	5.0200e-01	9.9609	20.098816	-0.000017	-0.171027	-0.028973	0.000342
1006	5.0250e-01	9.9438	20.108223	-0.000094	-0.940650	-0.159350	0.001882
1007	5.0300e-01	9.9356	20.088553	0.000197	1.966814	0.333187	-0.003934
1008	5.0350e-01	9.9268	20.091118	-0.000026	-0.256541	-0.043459	0.000513
1009	5.0400e-01	9.9146	20.080428	0.000107	1.068920	0.181080	-0.002138
1010	5.0450e-01	9.9048	20.081283	-0.000009	-0.085514	-0.014486	0.000171
1011	5.0500e-01	9.8956	20.082993	-0.000017	-0.171027	-0.028973	0.000342
1012	5.0550e-01	9.8883	20.078290	0.000047	0.470325	0.079675	-0.000941
1013	5.0600e-01	9.8761	20.050066	0.000282	2.821950	0.478051	-0.005645
1014	5.0650e-01	9.8645	20.057764	-0.000077	-0.769623	-0.130378	0.001539
1015	5.0700e-01	9.8581	20.050922	0.000068	0.684109	0.115891	-0.001368
1016	5.0750e-01	9.8456	20.036382	0.000145	1.453732	0.246269	-0.002908
1017	5.0800e-01	9.8358	20.020560	0.000158	1.582002	0.267998	-0.003164
1018	5.0850e-01	9.8254	20.026547	-0.000060	-0.598595	-0.101405	0.001197
1019	5.0900e-01	9.8151	20.006876	0.000197	1.966814	0.333187	-0.003934
1020	5.0950e-01	9.8077	19.994475	0.000124	1.239948	0.210053	-0.002480
1021	5.1000e-01	9.7968	19.988488	0.000060	0.598595	0.101405	-0.001197
1022	5.1050e-01	9.7864	19.979508	0.000090	0.897893	0.152107	-0.001796
1023	5.1100e-01	9.7754	19.979508	-0.000000	-0.000000	-0.000000	0.000000
1024	5.1150e-01	9.7656	19.964541	0.000150	1.496489	0.253512	-0.002993
1025	5.1200e-01	9.7549	19.962831	0.000017	0.171027	0.028973	-0.000342
1026	5.1250e-01	9.7443	19.936746	0.000261	2.608166	0.441835	-0.005217
1027	5.1300e-01	9.7345	19.940594	-0.000038	-0.384811	-0.065189	0.000770
1028	5.1350e-01	9.7253	19.927765	0.000128	1.282705	0.217296	-0.002566
1029	5.1400e-01	9.7144	19.903818	0.000239	2.394382	0.405619	-0.004789
1030	5.1450e-01	9.7070	19.886286	0.000175	1.753030	0.296971	-0.003507
1031	5.1500e-01	9.6967	19.899115	-0.000128	-1.282705	-0.217296	0.002566
1032	5.1550e-01	9.6857	19.881582	0.000175	1.753030	0.296971	-0.003507
1033	5.1600e-01	9.6765	19.872602	0.000090	0.897893	0.152107	-0.001796
1034	5.1650e-01	9.6661	19.848655	0.000239	2.394382	0.405619	-0.004789
1035	5.1700e-01	9.6570	19.833260	0.000154	1.539245	0.260755	-0.003079
1036	5.1750e-01	9.6466	19.826846	0.000064	0.641352	0.108648	-0.001283
1037	5.1800e-01	9.6356	19.812307	0.000145	1.453732	0.246269	-0.002908
1038	5.1850e-01	9.6228	19.794346	0.000180	1.795786	0.304214	-0.003592
1039	5.1900e-01	9.6155	19.790498	0.000038	0.384811	0.065189	-0.000770
1040	5.1950e-01	9.6051	19.760992	0.000295	2.950220	0.499781	-0.005901
1041	5.2000e-01	9.5959	19.754150	0.000068	0.684109	0.115891	-0.001368
1042	5.2050e-01	9.5856	19.734479	0.000197	1.966814	0.333187	-0.003934
1043	5.2100e-01	9.5789	19.722505	0.000120	1.197191	0.202810	-0.002395
1044	5.2150e-01	9.5654	19.718657	0.000038	0.384811	0.065189	-0.000770
1045	5.2200e-01	9.5587	19.699414	0.000192	1.924057	0.325944	-0.003849
1046	5.2250e-01	9.5453	19.688723	0.000107	1.068920	0.181080	-0.002138
1047	5.2300e-01	9.5357	19.673756	0.000150	1.496489	0.253512	-0.002993
1048	5.2350e-01	9.5255	19.651092	0.000227	2.266111	0.383890	-0.004533
1049	5.2400e-01	9.5178	19.641256	0.000098	0.983407	0.166594	-0.001967
1050	5.2450e-01	9.5056	19.621586	0.000197	1.966814	0.333187	-0.003934
1051	5.2500e-01	9.4974	19.588659	0.000329	3.292275	0.557726	-0.006585
1052	5.2550e-01	9.4849	19.578823	0.000098	0.983407	0.166594	-0.001967
1053	5.2600e-01	9.4745	19.572836	0.000060	0.598595	0.101405	-0.001197
1054	5.2650e-01	9.4659	19.555731	0.000171	1.710273	0.289728	-0.003421
1055	5.2700e-01	9.4550	19.548889	0.000068	0.684109	0.115891	-0.001368
1056	5.2750e-01	9.4470	19.515962	0.000329	3.292275	0.557726	-0.006585
1057	5.2800e-01	9.4360	19.496292	0.000197	1.966814	0.333187	-0.003934
1058	5.2850e-01	9.4281	19.487739	0.000086	0.855136	0.144864	-0.001711
1059	5.2900e-01	9.4153	19.465503	0.000222	2.223355	0.376646	-0.004447
1060	5.2950e-01	9.4055	19.451391	0.000141	1.410975	0.239026	-0.002822
1061	5.3000e-01	9.3988	19.431720	0.000197	1.966814	0.333187	-0.003934
1062	5.3050e-01	9.3875	19.407773	0.000239	2.394382	0.405619	-0.004789
1063	5.3100e-01	9.3758	19.406063	0.000017	0.171027	0.028973	-0.000342
1064	5.3150e-01	9.3652	19.372280	0.000338	3.377789	0.572213	-0.006756
1065	5.3200e-01	9.3542	19.365866	0.000064	0.641352	0.108648	-0.001283
1066	5.3250e-01	9.3481	19.354320	0.000115	1.154434	0.195566	-0.002309
1067	5.3300e-01	9.3347	19.330801	0.000235	2.351625	0.398376	-0.004704
1068	5.3350e-01	9.3280	19.312413	0.000184	1.838543	0.311458	-0.003678
1069	5.3400e-01	9.3164	19.287183	0.000252	2.522652	0.427349	-0.005046
1070	5.3450e-01	9.3085	19.258959	0.000282	2.821950	0.478051	-0.005645
1071	5.3500e-01	9.2969	19.253828	0.000051	0.513082	0.086918	-0.001026
1072	5.3550e-01	9.2854	19.220046	0.000338	3.377789	0.572213	-0.006756
1073	5.3600e-01	9.2767	19.232447	-0.000124	-1.239948	-0.210053	0.002480
1074	5.3650e-01	9.2651	19.207644	0.000248	2.479895	0.420106	-0.004960
1075	5.3700e-01	9.2581	19.177711	0.000299	2.992977	0.507024	-0.005987
1076	5.3750e-01	9.2441	19.157612	0.000201	2.009570	0.340430	-0.004020
1077	5.3800e-01	9.2352	19.139652	0.000180	1.795786	0.304214	-0.003592
1078	5.3850e-01	9.2249	19.117843	0.000218	2.180598	0.369403	-0.004362
1079	5.3900e-01	9.2148	19.095179	0.000227	2.266111	0.383890	-0.004533
1080	5.3950e-01	9.2041	19.081495	0.000137	1.368218	0.231782	-0.002737
1081	5.4000e-01	9.1986	19.062252	0.000192	1.924057	0.325944	-0.003849
1082	5.4050e-01	9.1888	19.039160	0.000231	2.308868	0.391133	-0.004618
1083	5.4100e-01	9.1772	19.013075	0.000261	2.608166	0.441835	-0.005217
1084	5.4150e-01	9.1669	19.010509	0.000026	0.256541	0.043459	-0.000513
1085	5.4200e-01	9.1577	18.975016	0.000355	3.548816	0.601186	-0.007099
1086	5.4250e-01	9.1431	18.966464	0.000086	0.855136	0.144864	-0.001711
1087	5.4300e-01	9.1353	18.951925	0.000145	1.453732	0.246269	-0.002908
1088	5.4350e-01	9.1260	18.922418	0.000295	2.950220	0.499781	-0.005901
1089	5.4400e-01	9.1156	18.904886	0.000175	1.753030	0.296971	-0.003507
1090	5.4450e-01	9.1058	18.887781	0.000171	1.710273	0.289728	-0.003421
1091	5.4500e-01	9.0967	18.856136	0.000316	3.164005	0.535997	-0.006329
1092	5.4550e-01	9.0845	18.847156	0.000090	0.897893	0.152107	-0.001796
1093	5.4600e-01	9.0753	18.818505	0.000286	2.864707	0.485294	-0.005730
1094	5.4650e-01	9.0662	18.797552	0.000210	2.095084	0.354917	-0.004191
1095	5.4700e-01	9.0564	18.794558	0.000030	0.299298	0.050702	-0.000599
1096	5.4750e-01	9.0454	18.746664	0.000479	4.788764	0.811239	-0.009579
1097	5.4800e-01	9.0369	18.743243	0.000034	0.342055	0.057946	-0.000684
1098	5.4850e-01	9.0242	18.718441	0.000248	2.479895	0.420106	-0.004960
1099	5.4900e-01	9.0155	18.696205	0.000222	2.223355	0.376646	-0.004447
1100	5.4950e-01	9.0057	18.684231	0.000120	1.197191	0.202810	-0.002395
1101	5.5000e-01	8.9948	18.641469	0.000428	4.275682	0.724320	-0.008553
1102	5.5050e-01	8.9845	18.636765	0.000047	0.470325	0.079675	-0.000941
1103	5.5100e-01	8.9777	18.611535	0.000252	2.522652	0.427349	-0.005046
1104	5.5150e-01	8.9661	18.580746	0.000308	3.078491	0.521510	-0.006158
1105	5.5200e-01	8.9554	18.570483	0.000103	1.026164	0.173837	-0.002053
1106	5.5250e-01	8.9459	18.543115	0.000274	2.736436	0.463565	-0.005474
1107	5.5300e-01	8.9349	18.519595	0.000235	2.351625	0.398376	-0.004704
1108	5.5350e-01	8.9258	18.501208	0.000184	1.838543	0.311458	-0.003678
1109	5.5400e-01	8.9157	18.492227	0.000090	0.897893	0.152107	-0.001796
1110	5.5450e-01	8.9069	18.463149	0.000291	2.907464	0.492538	-0.005816
1111	5.5500e-01	8.8971	18.434498	0.000286	2.864707	0.485294	-0.005730
1112	5.5550e-01	8.8855	18.419103	0.000154	1.539245	0.260755	-0.003079
1113	5.5600e-01	8.8751	18.393018	0.000261	2.608166	0.441835	-0.005217
1114	5.5650e-01	8.8660	18.371637	0.000214	2.137841	0.362160	-0.004276
1115	5.5700e-01	8.8568	18.343841	0.000278	2.779193	0.470808	-0.005559
1116	5.5750e-01	8.8461	18.323743	0.000201	2.009570	0.340430	-0.004020
1117	5.5800e-01	8.8367	18.304500	0.000192	1.924057	0.325944	-0.003849
1118	5.5850e-01	8.8269	18.272428	0.000321	3.206761	0.543240	-0.006414
1119	5.5900e-01	8.8184	18.267724	0.000047	0.470325	0.079675	-0.000941
1120	5.5950e-01	8.8049	18.231804	0.000359	3.591573	0.608429	-0.007184
1121	5.6000e-01	8.7952	18.212988	0.000188	1.881300	0.318701	-0.003763
1122	5.6050e-01	8.7860	18.187758	0.000252	2.522652	0.427349	-0.005046
1123	5.6100e-01	8.7750	18.152265	0.000355	3.548816	0.601186	-0.007099
1124	5.6150e-01	8.7653	18.151410	0.000009	0.085514	0.014486	-0.000171
1125	5.6200e-01	8.7573	18.128318	0.000231	2.308868	0.391133	-0.004618
1126	5.6250e-01	8.7469	18.104371	0.000239	2.394382	0.405619	-0.004789
1127	5.6300e-01	8.7347	18.087694	0.000167	1.667516	0.282485	-0.003335
1128	5.6350e-01	8.7265	18.059898	0.000278	2.779193	0.470808	-0.005559
1129	5.6400e-01	8.7177	18.037234	0.000227	2.266111	0.383890	-0.004533
1130	5.6450e-01	8.7054	18.015853	0.000214	2.137841	0.362160	-0.004276
1131	5.6500e-01	8.6963	17.982498	0.000334	3.335032	0.564970	-0.006671
1132	5.6550e-01	8.6835	17.968814	0.000137	1.368218	0.231782	-0.002737
1133	5.6600e-01	8.6755	17.947860	0.000210	2.095084	0.354917	-0.004191
1134	5.6650e-01	8.6658	17.919637	0.000282	2.821950	0.478051	-0.005645
1135	5.6700e-01	8.6597	17.884999	0.000346	3.463302	0.586699	-0.006928
1136	5.6750e-01	8.6456	17.875164	0.000098	0.983407	0.166594	-0.001967
1137	5.6800e-01	8.6365	17.851645	0.000235	2.351625	0.398376	-0.004704
1138	5.6850e-01	8.6255	17.836250	0.000154	1.539245	0.260755	-0.003079
1139	5.6900e-01	8.6182	17.801185	0.000351	3.506059	0.593942	-0.007013
1140	5.6950e-01	8.6053	17.781514	0.000197	1.966814	0.333187	-0.003934
1141	5.7000e-01	8.5968	17.757995	0.000235	2.351625	0.398376	-0.004704
1142	5.7050e-01	8.5870	17.735758	0.000222	2.223355	0.376646	-0.004447
1143	5.7100e-01	8.5730	17.714805	0.000210	2.095084	0.354917	-0.004191
1144	5.7150e-01	8.5645	17.704114	0.000107	1.068920	0.181080	-0.002138
1145	5.7200e-01	8.5577	17.651088	0.000530	5.301846	0.898157	-0.010605
1146	5.7250e-01	8.5455	17.641253	0.000098	0.983407	0.166594	-0.001967
1147	5.7300e-01	8.5358	17.600629	0.000406	4.061898	0.688104	-0.008125
1148	5.7350e-01	8.5286	17.585662	0.000150	1.496489	0.253512	-0.002993
1149	5.7400e-01	8.5156	17.567274	0.000184	1.838543	0.311458	-0.003678
1150	5.7450e-01	8.5059	17.531781	0.000355	3.548816	0.601186	-0.007099
1151	5.7500e-01	8.4973	17.512110	0.000197	1.966814	0.333187	-0.003934
1152	5.7550e-01	8.4860	17.495005	0.000171	1.710273	0.289728	-0.003421
1153	5.7600e-01	8.4778	17.467210	0.000278	2.779193	0.470808	-0.005559
1154	5.7650e-01	8.4650	17.448394	0.000188	1.881300	0.318701	-0.003763
1155	5.7700e-01	8.4558	17.423592	0.000248	2.479895	0.420106	-0.004960
1156	5.7750e-01	8.4460	17.400500	0.000231	2.308868	0.391133	-0.004618
1157	5.7800e-01	8.4363	17.382112	0.000184	1.838543	0.311458	-0.003678
1158	5.7850e-01	8.4241	17.362014	0.000201	2.009570	0.340430	-0.004020
1159	5.7900e-01	8.4161	17.320534	0.000415	4.147411	0.702591	-0.008296
1160	5.7950e-01	8.4070	17.295732	0.000248	2.479895	0.420106	-0.004960
1161	5.8000e-01	8.3948	17.285041	0.000107	1.068920	0.181080	-0.002138
1162	5.8050e-01	8.3850	17.255107	0.000299	2.992977	0.507024	-0.005987
1163	5.8100e-01	8.3759	17.231160	0.000239	2.394382	0.405619	-0.004789
1164	5.8150e-01	8.3649	17.206786	0.000244	2.437139	0.412862	-0.004875
1165	5.8200e-01	8.3559	17.188826	0.000180	1.795786	0.304214	-0.003592
1166	5.8250e-01	8.3453	17.160175	0.000286	2.864707	0.485294	-0.005730
1167	5.8300e-01	8.3350	17.125965	0.000342	3.420546	0.579456	-0.006842
1168	5.8350e-01	8.3261	17.105439	0.000205	2.052327	0.347674	-0.004105
1169	5.8400e-01	8.3142	17.096886	0.000086	0.855136	0.144864	-0.001711
1170	5.8450e-01	8.3054	17.052413	0.000445	4.446709	0.753293	-0.008895
1171	5.8500e-01	8.2983	17.032315	0.000201	2.009570	0.340430	-0.004020
1172	5.8550e-01	8.2837	17.010933	0.000214	2.137841	0.362160	-0.004276
1173	5.8600e-01	8.2751	16.996822	0.000141	1.410975	0.239026	-0.002822
1174	5.8650e-01	8.2666	16.964322	0.000325	3.249518	0.550483	-0.006500
1175	5.8700e-01	8.2532	16.942513	0.000218	2.180598	0.369403	-0.004362
1176	5.8750e-01	8.2471	16.908303	0.000342	3.420546	0.579456	-0.006842
1177	5.8800e-01	8.2349	16.891198	0.000171	1.710273	0.289728	-0.003421
1178	5.8850e-01	8.2277	16.868534	0.000227	2.266111	0.383890	-0.004533
1179	5.8900e-01	8.2166	16.834324	0.000342	3.420546	0.579456	-0.006842
1180	5.8950e-01	8.2056	16.818502	0.000158	1.582002	0.267998	-0.003164
1181	5.9000e-01	8.1964	16.784720	0.000338	3.377789	0.572213	-0.006756
1182	5.9050e-01	8.1860	16.756069	0.000286	2.864707	0.485294	-0.005730
1183	5.9100e-01	8.1757	16.745378	0.000107	1.068920	0.181080	-0.002138
1184	5.9150e-01	8.1659	16.712451	0.000329	3.292275	0.557726	-0.006585
1185	5.9200e-01	8.1534	16.678241	0.000342	3.420546	0.579456	-0.006842
1186	5.9250e-01	8.1458	16.661136	0.000171	1.710273	0.289728	-0.003421
1187	5.9300e-01	8.1363	16.635051	0.000261	2.608166	0.441835	-0.005217
1188	5.9350e-01	8.1238	16.602551	0.000325	3.249518	0.550483	-0.006500
1189	5.9400e-01	8.1165	16.575183	0.000274	2.736436	0.463565	-0.005474
1190	5.9450e-01	8.1049	16.561499	0.000137	1.368218	0.231782	-0.002737
1191	5.9500e-01	8.0981	16.551664	0.000098	0.983407	0.166594	-0.001967
1192	5.9550e-01	8.0859	16.526006	0.000257	2.565409	0.434592	-0.005132
1193	5.9600e-01	8.0774	16.480678	0.000453	4.532223	0.767779	-0.009066
1194	5.9650e-01	8.0643	16.459297	0.000214	2.137841	0.362160	-0.004276
1195	5.9700e-01	8.0542	16.434067	0.000252	2.522652	0.427349	-0.005046
1196	5.9750e-01	8.0450	16.425514	0.000086	0.855136	0.144864	-0.001711
1197	5.9800e-01	8.0348	16.387028	0.000385	3.848114	0.651888	-0.007697
1198	5.9850e-01	8.0261	16.360515	0.000265	2.650923	0.449078	-0.005303
1199	5.9900e-01	8.0133	16.342555	0.000180	1.795786	0.304214	-0.003592
1200	5.9950e-01	8.0054	16.295944	0.000466	4.660493	0.789509	-0.009322
1201	6.0000e-01	7.9956	16.286536	0.000094	0.940650	0.159350	-0.001882
1202	6.0050e-01	7.9871	16.261306	0.000252	2.522652	0.427349	-0.005046
1203	6.0100e-01	7.9730	16.239925	0.000214	2.137841	0.362160	-0.004276
1204	6.0150e-01	7.9669	16.206143	0.000338	3.377789	0.572213	-0.006756
1205	6.0200e-01	7.9572	16.177919	0.000282	2.821950	0.478051	-0.005645
1206	6.0250e-01	7.9456	16.150979	0.000269	2.693680	0.456322	-0.005388
1207	6.0300e-01	7.9364	16.132591	0.000184	1.838543	0.311458	-0.003678
1208	6.0350e-01	7.9272	16.105651	0.000269	2.693680	0.456322	-0.005388
1209	6.0400e-01	7.9150	16.084269	0.000214	2.137841	0.362160	-0.004276
1210	6.0450e-01	7.9050	16.037658	0.000466	4.660493	0.789509	-0.009322
1211	6.0500e-01	7.8955	16.023119	0.000145	1.453732	0.246269	-0.002908
1212	6.0550e-01	7.8857	16.005586	0.000175	1.753030	0.296971	-0.003507
1213	6.0600e-01	7.8729	15.984633	0.000210	2.095084	0.354917	-0.004191
1214	6.0650e-01	7.8641	15.940587	0.000440	4.403952	0.746050	-0.008809
1215	6.0700e-01	7.8555	15.927759	0.000128	1.282705	0.217296	-0.002566
1216	6.0750e-01	7.8461	15.893976	0.000338	3.377789	0.572213	-0.006756
1217	6.0800e-01	7.8375	15.869602	0.000244	2.437139	0.412862	-0.004875
1218	6.0850e-01	7.8250	15.840523	0.000291	2.907464	0.492538	-0.005816
1219	6.0900e-01	7.8140	15.819142	0.000214	2.137841	0.362160	-0.004276
1220	6.0950e-01	7.8058	15.800326	0.000188	1.881300	0.318701	-0.003763
1221	6.1000e-01	7.7960	15.760985	0.000393	3.933627	0.666375	-0.007868
1222	6.1050e-01	7.7875	15.732761	0.000282	2.821950	0.478051	-0.005645
1223	6.1100e-01	7.7783	15.700262	0.000325	3.249518	0.550483	-0.006500
1224	6.1150e-01	7.7649	15.681874	0.000184	1.838543	0.311458	-0.003678
1225	6.1200e-01	7.7588	15.660920	0.000210	2.095084	0.354917	-0.004191
1226	6.1250e-01	7.7484	15.610461	0.000505	5.045305	0.854698	-0.010092
1227	6.1300e-01	7.7386	15.607040	0.000034	0.342055	0.057946	-0.000684
1228	6.1350e-01	7.7264	15.582237	0.000248	2.479895	0.420106	-0.004960
1229	6.1400e-01	7.7167	15.539902	0.000423	4.232925	0.717077	-0.008467
1230	6.1450e-01	7.7036	15.528784	0.000111	1.111677	0.188323	-0.002224
1231	6.1500e-01	7.6953	15.509113	0.000197	1.966814	0.333187	-0.003934
1232	6.1550e-01	7.6868	15.479607	0.000295	2.950220	0.499781	-0.005901
1233	6.1600e-01	7.6764	15.454805	0.000248	2.479895	0.420106	-0.004960
1234	6.1650e-01	7.6697	15.417174	0.000376	3.762600	0.637402	-0.007526
1235	6.1700e-01	7.6575	15.401780	0.000154	1.539245	0.260755	-0.003079
1236	6.1750e-01	7.6477	15.368852	0.000329	3.292275	0.557726	-0.006585
1237	6.1800e-01	7.6361	15.340629	0.000282	2.821950	0.478051	-0.005645
1238	6.1850e-01	7.6257	15.306847	0.000338	3.377789	0.572213	-0.006756
1239	6.1900e-01	7.6147	15.286321	0.000205	2.052327	0.347674	-0.004105
1240	6.1950e-01	7.6050	15.267505	0.000188	1.881300	0.318701	-0.003763
1241	6.2000e-01	7.5977	15.252111	0.000154	1.539245	0.260755	-0.003079
1242	6.2050e-01	7.5854	15.210203	0.000419	4.190168	0.709834	-0.008381
1243	6.2100e-01	7.5751	15.184974	0.000252	2.522652	0.427349	-0.005046
1244	6.2150e-01	7.5659	15.159316	0.000257	2.565409	0.434592	-0.005132
1245	6.2200e-01	7.5537	15.134086	0.000252	2.522652	0.427349	-0.005046
1246	6.2250e-01	7.5476	15.104152	0.000299	2.992977	0.507024	-0.005987
1247	6.2300e-01	7.5378	15.070798	0.000334	3.335032	0.564970	-0.006671
1248	6.2350e-01	7.5262	15.037443	0.000334	3.335032	0.564970	-0.006671
1249	6.2400e-01	7.5189	15.017344	0.000201	2.009570	0.340430	-0.004020
1250	6.2450e-01	7.5058	14.989121	0.000282	2.821950	0.478051	-0.005645
1251	6.2500e-01	7.4957	14.954911	0.000342	3.420546	0.579456	-0.006842
1252	6.2550e-01	7.4854	14.923694	0.000312	3.121248	0.528754	-0.006243
1253	6.2600e-01	7.4750	14.906589	0.000171	1.710273	0.289728	-0.003421
1254	6.2650e-01	7.4670	14.880932	0.000257	2.565409	0.434592	-0.005132
1255	6.2700e-01	7.4579	14.848860	0.000321	3.206761	0.543240	-0.006414
1256	6.2750e-01	7.4432	14.830900	0.000180	1.795786	0.304214	-0.003592
1257	6.2800e-01	7.4353	14.804387	0.000265	2.650923	0.449078	-0.005303
1258	6.2850e-01	7.4274	14.779585	0.000248	2.479895	0.420106	-0.004960
1259	6.2900e-01	7.4146	14.748796	0.000308	3.078491	0.521510	-0.006158
1260	6.2950e-01	7.4054	14.712875	0.000359	3.591573	0.608429	-0.007184
1261	6.3000e-01	7.3993	14.694487	0.000184	1.838543	0.311458	-0.003678
1262	6.3050e-01	7.3846	14.672251	0.000222	2.223355	0.376646	-0.004447
1263	6.3100e-01	7.3755	14.640179	0.000321	3.206761	0.543240	-0.006414
1264	6.3150e-01	7.3669	14.610673	0.000295	2.950220	0.499781	-0.005901
1265	6.3200e-01	7.3560	14.597844	0.000128	1.282705	0.217296	-0.002566
1266	6.3250e-01	7.3474	14.566627	0.000312	3.121248	0.528754	-0.006243
1267	6.3300e-01	7.3364	14.526431	0.000402	4.019141	0.680861	-0.008039
1268	6.3350e-01	7.3245	14.511464	0.000150	1.496489	0.253512	-0.002993
1269	6.3400e-01	7.3169	14.459721	0.000517	5.173575	0.876427	-0.010349
1270	6.3450e-01	7.3053	14.450741	0.000090	0.897893	0.152107	-0.001796
1271	6.3500e-01	7.2955	14.416103	0.000346	3.463302	0.586699	-0.006928
1272	6.3550e-01	7.2864	14.393867	0.000222	2.223355	0.376646	-0.004447
1273	6.3600e-01	7.2760	14.370347	0.000235	2.351625	0.398376	-0.004704
1274	6.3650e-01	7.2668	14.340841	0.000295	2.950220	0.499781	-0.005901
1275	6.3700e-01	7.2546	14.310480	0.000304	3.035734	0.514267	-0.006072
1276	6.3750e-01	7.2461	14.281401	0.000291	2.907464	0.492538	-0.005816
1277	6.3800e-01	7.2366	14.252323	0.000291	2.907464	0.492538	-0.005816
1278	6.3850e-01	7.2260	14.226238	0.000261	2.608166	0.441835	-0.005217
1279	6.3900e-01	7.2156	14.202291	0.000239	2.394382	0.405619	-0.004789
1280	6.3950e-01	7.2052	14.174495	0.000278	2.779193	0.470808	-0.005559
1281	6.4000e-01	7.1954	14.146699	0.000278	2.779193	0.470808	-0.005559
1282	6.4050e-01	7.1872	14.110779	0.000359	3.591573	0.608429	-0.007184
1283	6.4100e-01	7.1765	14.077424	0.000334	3.335032	0.564970	-0.006671
1284	6.4150e-01	7.1645	14.068444	0.000090	0.897893	0.152107	-0.001796
1285	6.4200e-01	7.1552	14.032523	0.000359	3.591573	0.608429	-0.007184
1286	6.4250e-01	7.1466	14.006866	0.000257	2.565409	0.434592	-0.005132
1287	6.4300e-01	7.1375	13.987195	0.000197	1.966814	0.333187	-0.003934
1288	6.4350e-01	7.1265	13.945288	0.000419	4.190168	0.709834	-0.008381
1289	6.4400e-01	7.1130	13.917065	0.000282	2.821950	0.478051	-0.005645
1290	6.4450e-01	7.1063	13.894828	0.000222	2.223355	0.376646	-0.004447
1291	6.4500e-01	7.0938	13.870881	0.000239	2.394382	0.405619	-0.004789
1292	6.4550e-01	7.0868	13.845224	0.000257	2.565409	0.434592	-0.005132
1293	6.4600e-01	7.0752	13.811441	0.000338	3.377789	0.572213	-0.006756
1294	6.4650e-01	7.0654	13.780224	0.000312	3.121248	0.528754	-0.006243
1295	6.4700e-01	7.0532	13.757133	0.000231	2.308868	0.391133	-0.004618
1296	6.4750e-01	7.0459	13.724633	0.000325	3.249518	0.550483	-0.006500
1297	6.4800e-01	7.0355	13.682298	0.000423	4.232925	0.717077	-0.008467
1298	6.4850e-01	7.0255	13.672463	0.000098	0.983407	0.166594	-0.001967
1299	6.4900e-01	7.0190	13.637825	0.000346	3.463302	0.586699	-0.006928
1300	6.4950e-01	7.0068	13.603188	0.000346	3.463302	0.586699	-0.006928
1301	6.5000e-01	6.9935	13.584372	0.000188	1.881300	0.318701	-0.003763
1302	6.5050e-01	6.9885	13.562136	0.000222	2.223355	0.376646	-0.004447
1303	6.5100e-01	6.9763	13.530064	0.000321	3.206761	0.543240	-0.006414
1304	6.5150e-01	6.9669	13.486874	0.000432	4.318439	0.731563	-0.008638
1305	6.5200e-01	6.9553	13.455229	0.000316	3.164005	0.535997	-0.006329
1306	6.5250e-01	6.9446	13.442401	0.000128	1.282705	0.217296	-0.002566
1307	6.5300e-01	6.9385	13.412467	0.000299	2.992977	0.507024	-0.005987
1308	6.5350e-01	6.9257	13.370987	0.000415	4.147411	0.702591	-0.008296
1309	6.5400e-01	6.9165	13.355593	0.000154	1.539245	0.260755	-0.003079
1310	6.5450e-01	6.9064	13.314113	0.000415	4.147411	0.702591	-0.008296
1311	6.5500e-01	6.8988	13.307699	0.000064	0.641352	0.108648	-0.001283
1312	6.5550e-01	6.8854	13.267074	0.000406	4.061898	0.688104	-0.008125
1313	6.5600e-01	6.8753	13.237996	0.000291	2.907464	0.492538	-0.005816
1314	6.5650e-01	6.8646	13.217897	0.000201	2.009570	0.340430	-0.004020
1315	6.5700e-01	6.8558	13.185825	0.000321	3.206761	0.543240	-0.006414
1316	6.5750e-01	6.8457	13.146484	0.000393	3.933627	0.666375	-0.007868
1317	6.5800e-01	6.8359	13.135366	0.000111	1.111677	0.188323	-0.002224
1318	6.5850e-01	6.8274	13.092603	0.000428	4.275682	0.724320	-0.008553
1319	6.5900e-01	6.8164	13.059676	0.000329	3.292275	0.557726	-0.006585
1320	6.5950e-01	6.8079	13.042571	0.000171	1.710273	0.289728	-0.003421
1321	6.6000e-01	6.7963	13.014775	0.000278	2.779193	0.470808	-0.005559
1322	6.6050e-01	6.7871	12.972013	0.000428	4.275682	0.724320	-0.008553
1323	6.6100e-01	6.7743	12.958329	0.000137	1.368218	0.231782	-0.002737
1324	6.6150e-01	6.7651	12.935665	0.000227	2.266111	0.383890	-0.004533
1325	6.6200e-01	6.7566	12.892474	0.000432	4.318439	0.731563	-0.008638
1326	6.6250e-01	6.7456	12.864679	0.000278	2.779193	0.470808	-0.005559
1327	6.6300e-01	6.7368	12.842442	0.000222	2.223355	0.376646	-0.004447
1328	6.6350e-01	6.7279	12.810370	0.000321	3.206761	0.543240	-0.006414
1329	6.6400e-01	6.7163	12.769746	0.000406	4.061898	0.688104	-0.008125
1330	6.6450e-01	6.7078	12.764614	0.000051	0.513082	0.086918	-0.001026
1331	6.6500e-01	6.6968	12.714582	0.000500	5.002548	0.847455	-0.010006
1332	6.6550e-01	6.6849	12.695339	0.000192	1.924057	0.325944	-0.003849
1333	6.6600e-01	6.6772	12.665405	0.000299	2.992977	0.507024	-0.005987
1334	6.6650e-01	6.6650	12.637610	0.000278	2.779193	0.470808	-0.005559
1335	6.6700e-01	6.6553	12.593564	0.000440	4.403952	0.746050	-0.008809
1336	6.6750e-01	6.6449	12.582874	0.000107	1.068920	0.181080	-0.002138
1337	6.6800e-01	6.6376	12.545670	0.000372	3.719843	0.630159	-0.007441
1338	6.6850e-01	6.6257	12.511460	0.000342	3.420546	0.579456	-0.006842
1339	6.6900e-01	6.6115	12.485803	0.000257	2.565409	0.434592	-0.005132
1340	6.6950e-01	6.6058	12.458435	0.000274	2.736436	0.463565	-0.005474
1341	6.7000e-01	6.5942	12.441330	0.000171	1.710273	0.289728	-0.003421
1342	6.7050e-01	6.5865	12.410968	0.000304	3.035734	0.514267	-0.006072
1343	6.7100e-01	6.5747	12.374620	0.000363	3.634330	0.615672	-0.007270
1344	6.7150e-01	6.5668	12.331002	0.000436	4.361196	0.738807	-0.008724
1345	6.7200e-01	6.5564	12.310476	0.000205	2.052327	0.347674	-0.004105
1346	6.7250e-01	6.5442	12.272845	0.000376	3.762600	0.637402	-0.007526
1347	6.7300e-01	6.5344	12.258734	0.000141	1.410975	0.239026	-0.002822
1348	6.7350e-01	6.5259	12.229655	0.000291	2.907464	0.492538	-0.005816
1349	6.7400e-01	6.5161	12.183899	0.000457	4.574980	0.775023	-0.009151
1350	6.7450e-01	6.5051	12.162518	0.000214	2.137841	0.362160	-0.004276
1351	6.7500e-01	6.4948	12.140709	0.000218	2.180598	0.369403	-0.004362
1352	6.7550e-01	6.4868	12.122749	0.000180	1.795786	0.304214	-0.003592
1353	6.7600e-01	6.4752	12.074855	0.000479	4.788764	0.811239	-0.009579
1354	6.7650e-01	6.4642	12.047487	0.000274	2.736436	0.463565	-0.005474
1355	6.7700e-01	6.4558	12.017553	0.000299	2.992977	0.507024	-0.005987
1356	6.7750e-01	6.4471	11.984198	0.000334	3.335032	0.564970	-0.006671
1357	6.7800e-01	6.4319	11.961962	0.000222	2.223355	0.376646	-0.004447
1358	6.7850e-01	6.4252	11.938442	0.000235	2.351625	0.398376	-0.004704
1359	6.7900e-01	6.4172	11.896108	0.000423	4.232925	0.717077	-0.008467
1360	6.7950e-01	6.4066	11.849924	0.000462	4.617736	0.782266	-0.009237
1361	6.8000e-01	6.3953	11.838806	0.000111	1.111677	0.188323	-0.002224
1362	6.8050e-01	6.3870	11.814003	0.000248	2.479895	0.420106	-0.004960
1363	6.8100e-01	6.3745	11.772524	0.000415	4.147411	0.702591	-0.008296
1364	6.8150e-01	6.3678	11.754991	0.000175	1.753030	0.296971	-0.003507
1365	6.8200e-01	6.3531	11.728478	0.000265	2.650923	0.449078	-0.005303
1366	6.8250e-01	6.3458	11.693841	0.000346	3.463302	0.586699	-0.006928
1367	6.8300e-01	6.3361	11.652789	0.000410	4.104655	0.695347	-0.008210
1368	6.8350e-01	6.3269	11.635256	0.000175	1.753030	0.296971	-0.003507
1369	6.8400e-01	6.3153	11.596342	0.000389	3.890871	0.659131	-0.007783
1370	6.8450e-01	6.3089	11.564698	0.000316	3.164005	0.535997	-0.006329
1371	6.8500e-01	6.2973	11.541179	0.000235	2.351625	0.398376	-0.004704
1372	6.8550e-01	6.2872	11.524929	0.000162	1.624759	0.275242	-0.003250
1373	6.8600e-01	6.2762	11.483877	0.000410	4.104655	0.695347	-0.008210
1374	6.8650e-01	6.2668	11.439404	0.000445	4.446709	0.753293	-0.008895
1375	6.8700e-01	6.2561	11.429996	0.000094	0.940650	0.159350	-0.001882
1376	6.8750e-01	6.2489	11.399207	0.000308	3.078491	0.521510	-0.006158
1377	6.8800e-01	6.2366	11.364142	0.000351	3.506059	0.593942	-0.007013
1378	6.8850e-01	6.2262	11.335918	0.000282	2.821950	0.478051	-0.005645
1379	6.8900e-01	6.2152	11.300853	0.000351	3.506059	0.593942	-0.007013
1380	6.8950e-01	6.2079	11.274340	0.000265	2.650923	0.449078	-0.005303
1381	6.9000e-01	6.1966	11.245689	0.000286	2.864707	0.485294	-0.005730
1382	6.9050e-01	6.1859	11.209341	0.000363	3.634330	0.615672	-0.007270
1383	6.9100e-01	6.1774	11.167434	0.000419	4.190168	0.709834	-0.008381
1384	6.9150e-01	6.1655	11.165724	0.000017	0.171027	0.028973	-0.000342
1385	6.9200e-01	6.1586	11.119968	0.000457	4.574980	0.775023	-0.009151
1386	6.9250e-01	6.1462	11.090461	0.000295	2.950220	0.499781	-0.005901
1387	6.9300e-01	6.1359	11.065659	0.000248	2.479895	0.420106	-0.004960
1388	6.9350e-01	6.1285	11.035298	0.000304	3.035734	0.514267	-0.006072
1389	6.9400e-01	6.1151	10.999377	0.000359	3.591573	0.608429	-0.007184
1390	6.9450e-01	6.1060	10.953621	0.000457	4.574980	0.775023	-0.009151
1391	6.9500e-01	6.0959	10.928819	0.000248	2.479895	0.420106	-0.004960
1392	6.9550e-01	6.0846	10.923688	0.000051	0.513082	0.086918	-0.001026
1393	6.9600e-01	6.0742	10.884774	0.000389	3.890871	0.659131	-0.007783
1394	6.9650e-01	6.0669	10.844149	0.000406	4.061898	0.688104	-0.008125
1395	6.9700e-01	6.0571	10.815498	0.000286	2.864707	0.485294	-0.005730
1396	6.9750e-01	6.0455	10.788130	0.000274	2.736436	0.463565	-0.005474
1397	6.9800e-01	6.0361	10.743657	0.000445	4.446709	0.753293	-0.008895
1398	6.9850e-01	6.0260	10.720138	0.000235	2.351625	0.398376	-0.004704
1399	6.9900e-01	6.0181	10.690204	0.000299	2.992977	0.507024	-0.005987
1400	6.9950e-01	6.0078	10.658560	0.000316	3.164005	0.535997	-0.006329
1401	7.0000e-01	5.9964	10.629481	0.000291	2.907464	0.492538	-0.005816
1402	7.0050e-01	5.9827	10.608100	0.000214	2.137841	0.362160	-0.004276
1403	7.0100e-01	5.9741	10.569186	0.000389	3.890871	0.659131	-0.007783
1404	7.0150e-01	5.9662	10.534549	0.000346	3.463302	0.586699	-0.006928
1405	7.0200e-01	5.9552	10.501621	0.000329	3.292275	0.557726	-0.006585
1406	7.0250e-01	5.9482	10.482378	0.000192	1.924057	0.325944	-0.003849
1407	7.0300e-01	5.9372	10.445175	0.000372	3.719843	0.630159	-0.007441
1408	7.0350e-01	5.9247	10.433629	0.000115	1.154434	0.195566	-0.002309
1409	7.0400e-01	5.9174	10.381886	0.000517	5.173575	0.876427	-0.010349
1410	7.0450e-01	5.9052	10.329716	0.000522	5.216332	0.883671	-0.010434
1411	7.0500e-01	5.8975	10.315605	0.000141	1.410975	0.239026	-0.002822
1412	7.0550e-01	5.8875	10.296789	0.000188	1.881300	0.318701	-0.003763
1413	7.0600e-01	5.8771	10.256165	0.000406	4.061898	0.688104	-0.008125
1414	7.0650e-01	5.8664	10.229224	0.000269	2.693680	0.456322	-0.005388
1415	7.0700e-01	5.8606	10.188600	0.000406	4.061898	0.688104	-0.008125
1416	7.0750e-01	5.8499	10.159094	0.000295	2.950220	0.499781	-0.005901
1417	7.0800e-01	5.8362	10.130870	0.000282	2.821950	0.478051	-0.005645
1418	7.0850e-01	5.8276	10.106923	0.000239	2.394382	0.405619	-0.004789
1419	7.0900e-01	5.8179	10.067582	0.000393	3.933627	0.666375	-0.007868
1420	7.0950e-01	5.8063	10.035938	0.000316	3.164005	0.535997	-0.006329
1421	7.1000e-01	5.7968	10.012846	0.000231	2.308868	0.391133	-0.004618
1422	7.1050e-01	5.7867	9.976070	0.000368	3.677086	0.622915	-0.007355
1423	7.1100e-01	5.7779	9.946564	0.000295	2.950220	0.499781	-0.005901
1424	7.1150e-01	5.7648	9.913209	0.000334	3.335032	0.564970	-0.006671
1425	7.1200e-01	5.7550	9.880710	0.000325	3.249518	0.550483	-0.006500
1426	7.1250e-01	5.7477	9.851203	0.000295	2.950220	0.499781	-0.005901
1427	7.1300e-01	5.7385	9.814855	0.000363	3.634330	0.615672	-0.007270
1428	7.1350e-01	5.7260	9.789625	0.000252	2.522652	0.427349	-0.005046
1429	7.1400e-01	5.7153	9.760975	0.000286	2.864707	0.485294	-0.005730
1430	7.1450e-01	5.7083	9.714791	0.000462	4.617736	0.782266	-0.009237
1431	7.1500e-01	5.6955	9.701962	0.000128	1.282705	0.217296	-0.002566
1432	7.1550e-01	5.6860	9.654923	0.000470	4.703250	0.796752	-0.009408
1433	7.1600e-01	5.6766	9.624134	0.000308	3.078491	0.521510	-0.006158
1434	7.1650e-01	5.6668	9.597194	0.000269	2.693680	0.456322	-0.005388
1435	7.1700e-01	5.6558	9.572819	0.000244	2.437139	0.412862	-0.004875
1436	7.1750e-01	5.6464	9.550583	0.000222	2.223355	0.376646	-0.004447
1437	7.1800e-01	5.6342	9.511241	0.000393	3.933627	0.666375	-0.007868
1438	7.1850e-01	5.6247	9.477459	0.000338	3.377789	0.572213	-0.006756
1439	7.1900e-01	5.6152	9.441538	0.000359	3.591573	0.608429	-0.007184
1440	7.1950e-01	5.6055	9.415453	0.000261	2.608166	0.441835	-0.005217
1441	7.2000e-01	5.5972	9.373974	0.000415	4.147411	0.702591	-0.008296
1442	7.2050e-01	5.5847	9.349599	0.000244	2.437139	0.412862	-0.004875
1443	7.2100e-01	5.5763	9.311113	0.000385	3.848114	0.651888	-0.007697
1444	7.2150e-01	5.5685	9.262791	0.000483	4.831521	0.818482	-0.009664
1445	7.2200e-01	5.5579	9.260653	0.000021	0.213784	0.036216	-0.000428
1446	7.2250e-01	5.5484	9.208910	0.000517	5.173575	0.876427	-0.010349
1447	7.2300e-01	5.5389	9.169569	0.000393	3.933627	0.666375	-0.007868
1448	7.2350e-01	5.5280	9.143911	0.000257	2.565409	0.434592	-0.005132
1449	7.2400e-01	5.5164	9.126806	0.000171	1.710273	0.289728	-0.003421
1450	7.2450e-01	5.5048	9.088748	0.000381	3.805357	0.644645	-0.007612
1451	7.2500e-01	5.4968	9.032301	0.000564	5.643900	0.956103	-0.011289
1452	7.2550e-01	5.4868	9.022893	0.000094	0.940650	0.159350	-0.001882
1453	7.2600e-01	5.4755	8.993387	0.000295	2.950220	0.499781	-0.005901
1454	7.2650e-01	5.4645	8.951480	0.000419	4.190168	0.709834	-0.008381
1455	7.2700e-01	5.4541	8.926250	0.000252	2.522652	0.427349	-0.005046
1456	7.2750e-01	5.4456	8.899737	0.000265	2.650923	0.449078	-0.005303
1457	7.2800e-01	5.4361	8.853126	0.000466	4.660493	0.789509	-0.009322
1458	7.2850e-01	5.4260	8.834311	0.000188	1.881300	0.318701	-0.003763
1459	7.2900e-01	5.4187	8.791548	0.000428	4.275682	0.724320	-0.008553
1460	7.2950e-01	5.4053	8.765891	0.000257	2.565409	0.434592	-0.005132
1461	7.3000e-01	5.3949	8.730825	0.000351	3.506059	0.593942	-0.007013
1462	7.3050e-01	5.3854	8.697470	0.000334	3.335032	0.564970	-0.006671
1463	7.3100e-01	5.3780	8.668392	0.000291	2.907464	0.492538	-0.005816
1464	7.3150e-01	5.3668	8.620926	0.000475	4.746007	0.803995	-0.009493
1465	7.3200e-01	5.3577	8.595696	0.000252	2.522652	0.427349	-0.005046
1466	7.3250e-01	5.3455	8.564479	0.000312	3.121248	0.528754	-0.006243
1467	7.3300e-01	5.3345	8.530697	0.000338	3.377789	0.572213	-0.006756
1468	7.3350e-01	5.3265	8.510171	0.000205	2.052327	0.347674	-0.004105
1469	7.3400e-01	5.3174	8.477243	0.000329	3.292275	0.557726	-0.006585
1470	7.3450e-01	5.3058	8.435764	0.000415	4.147411	0.702591	-0.008296
1471	7.3500e-01	5.2954	8.411817	0.000239	2.394382	0.405619	-0.004789
1472	7.3550e-01	5.2881	8.380173	0.000316	3.164005	0.535997	-0.006329
1473	7.3600e-01	5.2771	8.346390	0.000338	3.377789	0.572213	-0.006756
1474	7.3650e-01	5.2649	8.317739	0.000286	2.864707	0.485294	-0.005730
1475	7.3700e-01	5.2551	8.276687	0.000410	4.104655	0.695347	-0.008210
1476	7.3750e-01	5.2472	8.240339	0.000363	3.634330	0.615672	-0.007270
1477	7.3800e-01	5.2362	8.211688	0.000286	2.864707	0.485294	-0.005730
1478	7.3850e-01	5.2271	8.186886	0.000248	2.479895	0.420106	-0.004960
1479	7.3900e-01	5.2161	8.128301	0.000586	5.857684	0.992319	-0.011717
1480	7.3950e-01	5.2071	8.110769	0.000175	1.753030	0.296971	-0.003507
1481	7.4000e-01	5.1984	8.088960	0.000218	2.180598	0.369403	-0.004362
1482	7.4050e-01	5.1868	8.047908	0.000410	4.104655	0.695347	-0.008210
1483	7.4100e-01	5.1767	8.000014	0.000479	4.788764	0.811239	-0.009579
1484	7.4150e-01	5.1666	7.977777	0.000222	2.223355	0.376646	-0.004447
1485	7.4200e-01	5.1563	7.951264	0.000265	2.650923	0.449078	-0.005303
1486	7.4250e-01	5.1447	7.906364	0.000449	4.489466	0.760536	-0.008980
1487	7.4300e-01	5.1358	7.874292	0.000321	3.206761	0.543240	-0.006414
1488	7.4350e-01	5.1263	7.839227	0.000351	3.506059	0.593942	-0.007013
1489	7.4400e-01	5.1169	7.811859	0.000274	2.736436	0.463565	-0.005474
1490	7.4450e-01	5.1041	7.778076	0.000338	3.377789	0.572213	-0.006756
1491	7.4500e-01	5.0961	7.747287	0.000308	3.078491	0.521510	-0.006158
1492	7.4550e-01	5.0845	7.715215	0.000321	3.206761	0.543240	-0.006414
1493	7.4600e-01	5.0745	7.674591	0.000406	4.061898	0.688104	-0.008125
1494	7.4650e-01	5.0665	7.639953	0.000346	3.463302	0.586699	-0.006928
1495	7.4700e-01	5.0556	7.612585	0.000274	2.736436	0.463565	-0.005474
1496	7.4750e-01	5.0461	7.592487	0.000201	2.009570	0.340430	-0.004020
1497	7.4800e-01	5.0385	7.546731	0.000457	4.574980	0.775023	-0.009151
1498	7.4850e-01	5.0287	7.513376	0.000334	3.335032	0.564970	-0.006671
1499	7.4900e-01	5.0177	7.481304	0.000321	3.206761	0.543240	-0.006414
1500	7.4950e-01	5.0049	7.459068	0.000222	2.223355	0.376646	-0.004447
1501	7.5000e-01	4.9976	7.411174	0.000479	4.788764	0.811239	-0.009579
1502	7.5050e-01	4.9854	7.376964	0.000342	3.420546	0.579456	-0.006842
1503	7.5100e-01	4.9741	7.347885	0.000291	2.907464	0.492538	-0.005816
1504	7.5150e-01	4.9667	7.317096	0.000308	3.078491	0.521510	-0.006158
1505	7.5200e-01	4.9561	7.285452	0.000316	3.164005	0.535997	-0.006329
1506	7.5250e-01	4.9454	7.241834	0.000436	4.361196	0.738807	-0.008724
1507	7.5300e-01	4.9356	7.211900	0.000299	2.992977	0.507024	-0.005987
1508	7.5350e-01	4.9274	7.181111	0.000308	3.078491	0.521510	-0.006158
1509	7.5400e-01	4.9170	7.137493	0.000436	4.361196	0.738807	-0.008724
1510	7.5450e-01	4.9067	7.110125	0.000274	2.736436	0.463565	-0.005474
1511	7.5500e-01	4.8987	7.067363	0.000428	4.275682	0.724320	-0.008553
1512	7.5550e-01	4.8856	7.036574	0.000308	3.078491	0.521510	-0.006158
1513	7.5600e-01	4.8756	7.007068	0.000295	2.950220	0.499781	-0.005901
1514	7.5650e-01	4.8651	6.973713	0.000334	3.335032	0.564970	-0.006671
1515	7.5700e-01	4.8576	6.943779	0.000299	2.992977	0.507024	-0.005987
1516	7.5750e-01	4.8453	6.907003	0.000368	3.677086	0.622915	-0.007355
1517	7.5800e-01	4.8352	6.881346	0.000257	2.565409	0.434592	-0.005132
1518	7.5850e-01	4.8242	6.837301	0.000440	4.403952	0.746050	-0.008809
1519	7.5900e-01	4.8172	6.801808	0.000355	3.548816	0.601186	-0.007099
1520	7.5950e-01	4.8065	6.776150	0.000257	2.565409	0.434592	-0.005132
1521	7.6000e-01	4.7974	6.736809	0.000393	3.933627	0.666375	-0.007868
1522	7.6050e-01	4.7897	6.695757	0.000410	4.104655	0.695347	-0.008210
1523	7.6100e-01	4.7763	6.660264	0.000355	3.548816	0.601186	-0.007099
1524	7.6150e-01	4.7652	6.636744	0.000235	2.351625	0.398376	-0.004704
1525	7.6200e-01	4.7601	6.589278	0.000475	4.746007	0.803995	-0.009493
1526	7.6250e-01	4.7467	6.564476	0.000248	2.479895	0.420106	-0.004960
1527	7.6300e-01	4.7363	6.528983	0.000355	3.548816	0.601186	-0.007099
1528	7.6350e-01	4.7223	6.496911	0.000321	3.206761	0.543240	-0.006414
1529	7.6400e-01	4.7153	6.460563	0.000363	3.634330	0.615672	-0.007270
1530	7.6450e-01	4.7070	6.437471	0.000231	2.308868	0.391133	-0.004618
1531	7.6500e-01	4.6970	6.386156	0.000513	5.130818	0.869184	-0.010263
1532	7.6550e-01	4.6864	6.356222	0.000299	2.992977	0.507024	-0.005987
1533	7.6600e-01	4.6750	6.320729	0.000355	3.548816	0.601186	-0.007099
1534	7.6650e-01	4.6658	6.302769	0.000180	1.795786	0.304214	-0.003592
1535	7.6700e-01	4.6567	6.264283	0.000385	3.848114	0.651888	-0.007697
1536	7.6750e-01	4.6444	6.216389	0.000479	4.788764	0.811239	-0.009579
1537	7.6800e-01	4.6362	6.193297	0.000231	2.308868	0.391133	-0.004618
1538	7.6850e-01	4.6254	6.159514	0.000338	3.377789	0.572213	-0.006756
1539	7.6900e-01	4.6161	6.123166	0.000363	3.634330	0.615672	-0.007270
1540	7.6950e-01	4.6069	6.083825	0.000393	3.933627	0.666375	-0.007868
1541	7.7000e-01	4.5959	6.038924	0.000449	4.489466	0.760536	-0.008980
1542	7.7050e-01	4.5847	6.015832	0.000231	2.308868	0.391133	-0.004618
1543	7.7100e-01	4.5752	5.997444	0.000184	1.838543	0.311458	-0.003678
1544	7.7150e-01	4.5660	5.934156	0.000633	6.328009	1.071994	-0.012658
1545	7.7200e-01	4.5547	5.918761	0.000154	1.539245	0.260755	-0.003079
1546	7.7250e-01	4.5441	5.875144	0.000436	4.361196	0.738807	-0.008724
1547	7.7300e-01	4.5332	5.840078	0.000351	3.506059	0.593942	-0.007013
1548	7.7350e-01	4.5258	5.800737	0.000393	3.933627	0.666375	-0.007868
1549	7.7400e-01	4.5135	5.770803	0.000299	2.992977	0.507024	-0.005987
1550	7.7450e-01	4.5062	5.727185	0.000436	4.361196	0.738807	-0.008724
1551	7.7500e-01	4.4946	5.693403	0.000338	3.377789	0.572213	-0.006756
1552	7.7550e-01	4.4806	5.668173	0.000252	2.522652	0.427349	-0.005046
1553	7.7600e-01	4.4739	5.622845	0.000453	4.532223	0.767779	-0.009066
1554	7.7650e-01	4.4647	5.600181	0.000227	2.266111	0.383890	-0.004533
1555	7.7700e-01	4.4576	5.554425	0.000457	4.574980	0.775023	-0.009151
1556	7.7750e-01	4.4452	5.519359	0.000351	3.506059	0.593942	-0.007013
1557	7.7800e-01	4.4366	5.480873	0.000385	3.848114	0.651888	-0.007697
1558	7.7850e-01	4.4275	5.440249	0.000406	4.061898	0.688104	-0.008125
1559	7.7900e-01	4.4159	5.418440	0.000218	2.180598	0.369403	-0.004362
1560	7.7950e-01	4.4040	5.375677	0.000428	4.275682	0.724320	-0.008553
1561	7.8000e-01	4.3970	5.358572	0.000171	1.710273	0.289728	-0.003421
1562	7.8050e-01	4.3874	5.318803	0.000398	3.976384	0.673618	-0.007954
1563	7.8100e-01	4.3764	5.270909	0.000479	4.788764	0.811239	-0.009579
1564	7.8150e-01	4.3651	5.242258	0.000286	2.864707	0.485294	-0.005730
1565	7.8200e-01	4.3542	5.202061	0.000402	4.019141	0.680861	-0.008039
1566	7.8250e-01	4.3456	5.159299	0.000428	4.275682	0.724320	-0.008553
1567	7.8300e-01	4.3373	5.126799	0.000325	3.249518	0.550483	-0.006500
1568	7.8350e-01	4.3292	5.092162	0.000346	3.463302	0.586699	-0.006928
1569	7.8400e-01	4.3143	5.060945	0.000312	3.121248	0.528754	-0.006243
1570	7.8450e-01	4.3082	5.018183	0.000428	4.275682	0.724320	-0.008553
1571	7.8500e-01	4.2975	4.982690	0.000355	3.548816	0.601186	-0.007099
1572	7.8550e-01	4.2859	4.941638	0.000410	4.104655	0.695347	-0.008210
1573	7.8600e-01	4.2758	4.905717	0.000359	3.591573	0.608429	-0.007184
1574	7.8650e-01	4.2633	4.892033	0.000137	1.368218	0.231782	-0.002737
1575	7.8700e-01	4.2581	4.834304	0.000577	5.772171	0.977832	-0.011546
1576	7.8750e-01	4.2450	4.821475	0.000128	1.282705	0.217296	-0.002566
1577	7.8800e-01	4.2383	4.757759	0.000637	6.370766	1.079237	-0.012743
1578	7.8850e-01	4.2249	4.736378	0.000214	2.137841	0.362160	-0.004276
1579	7.8900e-01	4.2175	4.691905	0.000445	4.446709	0.753293	-0.008895
1580	7.8950e-01	4.2056	4.658122	0.000338	3.377789	0.572213	-0.006756
1581	7.9000e-01	4.1940	4.633320	0.000248	2.479895	0.420106	-0.004960
1582	7.9050e-01	4.1870	4.597827	0.000355	3.548816	0.601186	-0.007099
1583	7.9100e-01	4.1763	4.554637	0.000432	4.318439	0.731563	-0.008638
1584	7.9150e-01	4.1657	4.518716	0.000359	3.591573	0.608429	-0.007184
1585	7.9200e-01	4.1560	4.492204	0.000265	2.650923	0.449078	-0.005303
1586	7.9250e-01	4.1443	4.459276	0.000329	3.292275	0.557726	-0.006585
1587	7.9300e-01	4.1348	4.404540	0.000547	5.472873	0.927130	-0.010947
1588	7.9350e-01	4.1248	4.366482	0.000381	3.805357	0.644645	-0.007612
1589	7.9400e-01	4.1180	4.332699	0.000338	3.377789	0.572213	-0.006756
1590	7.9450e-01	4.1061	4.304476	0.000282	2.821950	0.478051	-0.005645
1591	7.9500e-01	4.0964	4.274115	0.000304	3.035734	0.514267	-0.006072
1592	7.9550e-01	4.0891	4.228359	0.000457	4.574980	0.775023	-0.009151
1593	7.9600e-01	4.0768	4.189872	0.000385	3.848114	0.651888	-0.007697
1594	7.9650e-01	4.0652	4.161649	0.000282	2.821950	0.478051	-0.005645
1595	7.9700e-01	4.0575	4.107341	0.000543	5.430116	0.919887	-0.010862
1596	7.9750e-01	4.0442	4.094512	0.000128	1.282705	0.217296	-0.002566
1597	7.9800e-01	4.0375	4.042342	0.000522	5.216332	0.883671	-0.010434
1598	7.9850e-01	4.0248	4.005566	0.000368	3.677086	0.622915	-0.007355
1599	7.9900e-01	4.0153	3.964086	0.000415	4.147411	0.702591	-0.008296
1600	7.9950e-01	4.0067	3.929449	0.000346	3.463302	0.586699	-0.006928
1601	8.0000e-01	3.9954	3.895239	0.000342	3.420546	0.579456	-0.006842
1602	8.0050e-01	3.9854	3.856325	0.000389	3.890871	0.659131	-0.007783
1603	8.0100e-01	3.9771	3.810569	0.000457	4.574980	0.775023	-0.009151
1604	8.0150e-01	3.9671	3.793464	0.000171	1.710273	0.289728	-0.003421
1605	8.0200e-01	3.9563	3.747280	0.000462	4.617736	0.782266	-0.009237
1606	8.0250e-01	3.9447	3.713926	0.000334	3.335032	0.564970	-0.006671
1607	8.0300e-01	3.9389	3.679288	0.000346	3.463302	0.586699	-0.006928
1608	8.0350e-01	3.9244	3.637381	0.000419	4.190168	0.709834	-0.008381
1609	8.0400e-01	3.9163	3.593763	0.000436	4.361196	0.738807	-0.008724
1610	8.0450e-01	3.9063	3.572809	0.000210	2.095084	0.354917	-0.004191
1611	8.0500e-01	3.8966	3.531330	0.000415	4.147411	0.702591	-0.008296
1612	8.0550e-01	3.8844	3.494981	0.000363	3.634330	0.615672	-0.007270
1613	8.0600e-01	3.8751	3.454357	0.000406	4.061898	0.688104	-0.008125
1614	8.0650e-01	3.8660	3.413305	0.000410	4.104655	0.695347	-0.008210
1615	8.0700e-01	3.8538	3.375246	0.000381	3.805357	0.644645	-0.007612
1616	8.0750e-01	3.8437	3.346595	0.000286	2.864707	0.485294	-0.005730
1617	8.0800e-01	3.8343	3.293142	0.000534	5.344602	0.905400	-0.010691
1618	8.0850e-01	3.8239	3.270906	0.000222	2.223355	0.376646	-0.004447
1619	8.0900e-01	3.8144	3.227288	0.000436	4.361196	0.738807	-0.008724
1620	8.0950e-01	3.8043	3.181960	0.000453	4.532223	0.767779	-0.009066
1621	8.1000e-01	3.7973	3.165710	0.000162	1.624759	0.275242	-0.003250
1622	8.1050e-01	3.7891	3.105842	0.000599	5.985955	1.014048	-0.011974
1623	8.1100e-01	3.7732	3.074626	0.000312	3.121248	0.528754	-0.006243
1624	8.1150e-01	3.7666	3.047685	0.000269	2.693680	0.456322	-0.005388
1625	8.1200e-01	3.7567	3.021600	0.000261	2.608166	0.441835	-0.005217
1626	8.1250e-01	3.7476	2.968575	0.000530	5.301846	0.898157	-0.010605
1627	8.1300e-01	3.7354	2.924529	0.000440	4.403952	0.746050	-0.008809
1628	8.1350e-01	3.7262	2.895451	0.000291	2.907464	0.492538	-0.005816
1629	8.1400e-01	3.7164	2.857820	0.000376	3.762600	0.637402	-0.007526
1630	8.1450e-01	3.7054	2.808643	0.000492	4.917034	0.832968	-0.009835
1631	8.1500e-01	3.6951	2.779564	0.000291	2.907464	0.492538	-0.005816
1632	8.1550e-01	3.6857	2.738085	0.000415	4.147411	0.702591	-0.008296
1633	8.1600e-01	3.6749	2.709861	0.000282	2.821950	0.478051	-0.005645
1634	8.1650e-01	3.6664	2.663678	0.000462	4.617736	0.782266	-0.009237
1635	8.1700e-01	3.6554	2.624764	0.000389	3.890871	0.659131	-0.007783
1636	8.1750e-01	3.6462	2.586278	0.000385	3.848114	0.651888	-0.007697
1637	8.1800e-01	3.6359	2.562331	0.000239	2.394382	0.405619	-0.004789
1638	8.1850e-01	3.6235	2.526838	0.000355	3.548816	0.601186	-0.007099
1639	8.1900e-01	3.6142	2.486641	0.000402	4.019141	0.680861	-0.008039
1640	8.1950e-01	3.6066	2.446444	0.000402	4.019141	0.680861	-0.008039
1641	8.2000e-01	3.5959	2.402826	0.000436	4.361196	0.738807	-0.008724
1642	8.2050e-01	3.5846	2.362630	0.000402	4.019141	0.680861	-0.008039
1643	8.2100e-01	3.5764	2.321578	0.000410	4.104655	0.695347	-0.008210
1644	8.2150e-01	3.5651	2.293782	0.000278	2.779193	0.470808	-0.005559
1645	8.2200e-01	3.5559	2.263421	0.000304	3.035734	0.514267	-0.006072
1646	8.2250e-01	3.5469	2.217665	0.000457	4.574980	0.775023	-0.009151
1647	8.2300e-01	3.5390	2.155659	0.000620	6.199739	1.050264	-0.012401
1648	8.2350e-01	3.5260	2.121021	0.000346	3.463302	0.586699	-0.006928
1649	8.2400e-01	3.5158	2.097502	0.000235	2.351625	0.398376	-0.004704
1650	8.2450e-01	3.5048	2.059016	0.000385	3.848114	0.651888	-0.007697
1651	8.2500e-01	3.4955	2.026944	0.000321	3.206761	0.543240	-0.006414
1652	8.2550e-01	3.4875	1.985037	0.000419	4.190168	0.709834	-0.008381
1653	8.2600e-01	3.4793	1.940136	0.000449	4.489466	0.760536	-0.008980
1654	8.2650e-01	3.4637	1.894380	0.000457	4.574980	0.775023	-0.009151
1655	8.2700e-01	3.4561	1.872571	0.000218	2.180598	0.369403	-0.004362
1656	8.2750e-01	3.4417	1.830236	0.000423	4.232925	0.717077	-0.008467
1657	8.2800e-01	3.4366	1.782342	0.000479	4.788764	0.811239	-0.009579
1658	8.2850e-01	3.4232	1.743001	0.000393	3.933627	0.666375	-0.007868
1659	8.2900e-01	3.4171	1.699383	0.000436	4.361196	0.738807	-0.008724
1660	8.2950e-01	3.4070	1.670732	0.000286	2.864707	0.485294	-0.005730
1661	8.3000e-01	3.3948	1.635667	0.000351	3.506059	0.593942	-0.007013
1662	8.3050e-01	3.3838	1.591194	0.000445	4.446709	0.753293	-0.008895
1663	8.3100e-01	3.3742	1.544155	0.000470	4.703250	0.796752	-0.009408
1664	8.3150e-01	3.3652	1.506524	0.000376	3.762600	0.637402	-0.007526
1665	8.3200e-01	3.3604	1.472314	0.000342	3.420546	0.579456	-0.006842
1666	8.3250e-01	3.3459	1.416723	0.000556	5.558386	0.941616	-0.011118
1667	8.3300e-01	3.3386	1.401328	0.000154	1.539245	0.260755	-0.003079
1668	8.3350e-01	3.3270	1.346592	0.000547	5.472873	0.927130	-0.010947
1669	8.3400e-01	3.3154	1.311954	0.000346	3.463302	0.586699	-0.006928
1670	8.3450e-01	3.3051	1.264060	0.000479	4.788764	0.811239	-0.009579
1671	8.3500e-01	3.2959	1.226429	0.000376	3.762600	0.637402	-0.007526
1672	8.3550e-01	3.2857	1.196496	0.000299	2.992977	0.507024	-0.005987
1673	8.3600e-01	3.2755	1.163996	0.000325	3.249518	0.550483	-0.006500
1674	8.3650e-01	3.2657	1.116530	0.000475	4.746007	0.803995	-0.009493
1675	8.3700e-01	3.2560	1.073767	0.000428	4.275682	0.724320	-0.008553
1676	8.3750e-01	3.2449	1.035281	0.000385	3.848114	0.651888	-0.007697
1677	8.3800e-01	3.2377	1.000216	0.000351	3.506059	0.593942	-0.007013
1678	8.3850e-01	3.2243	0.965150	0.000351	3.506059	0.593942	-0.007013
1679	8.3900e-01	3.2182	0.912980	0.000522	5.216332	0.883671	-0.010434
1680	8.3950e-01	3.2065	0.884757	0.000282	2.821950	0.478051	-0.005645
1681	8.4000e-01	3.1964	0.830876	0.000539	5.387359	0.912643	-0.010776
1682	8.4050e-01	3.1873	0.807357	0.000235	2.351625	0.398376	-0.004704
1683	8.4100e-01	3.1769	0.757324	0.000500	5.002548	0.847455	-0.010006
1684	8.4150e-01	3.1657	0.717555	0.000398	3.976384	0.673618	-0.007954
1685	8.4200e-01	3.1549	0.689760	0.000278	2.779193	0.470808	-0.005559
1686	8.4250e-01	3.1427	0.646569	0.000432	4.318439	0.731563	-0.008638
1687	8.4300e-01	3.1360	0.606800	0.000398	3.976384	0.673618	-0.007954
1688	8.4350e-01	3.1246	0.570452	0.000363	3.634330	0.615672	-0.007270
1689	8.4400e-01	3.1168	0.511440	0.000590	5.900441	0.999562	-0.011802
1690	8.4450e-01	3.1038	0.474664	0.000368	3.677086	0.622915	-0.007355
1691	8.4500e-01	3.0957	0.424632	0.000500	5.002548	0.847455	-0.010006
1692	8.4550e-01	3.0862	0.394271	0.000304	3.035734	0.514267	-0.006072
1693	8.4600e-01	3.0768	0.365620	0.000286	2.864707	0.485294	-0.005730
1694	8.4650e-01	3.0658	0.321147	0.000445	4.446709	0.753293	-0.008895
1695	8.4700e-01	3.0554	0.272397	0.000487	4.874277	0.825725	-0.009750
1696	8.4750e-01	3.0438	0.234766	0.000376	3.762600	0.637402	-0.007526
1697	8.4800e-01	3.0374	0.195425	0.000393	3.933627	0.666375	-0.007868
1698	8.4850e-01	3.0280	0.160359	0.000351	3.506059	0.593942	-0.007013
1699	8.4900e-01	3.0127	0.115031	0.000453	4.532223	0.767779	-0.009066
1700	8.4950e-01	3.0043	0.082959	0.000321	3.206761	0.543240	-0.006414
1701	8.5000e-01	2.9945	0.041480	0.000415	4.147411	0.702591	-0.008296
1702	8.5050e-01	2.9861	-0.021381	0.000629	6.285252	1.064751	-0.012572
1703	8.5100e-01	2.9776	-0.038486	0.000171	1.710273	0.289728	-0.003421
1704	8.5150e-01	2.9670	-0.084242	0.000457	4.574980	0.775023	-0.009151
1705	8.5200e-01	2.9553	-0.123584	0.000393	3.933627	0.666375	-0.007868
1706	8.5250e-01	2.9440	-0.161215	0.000376	3.762600	0.637402	-0.007526
1707	8.5300e-01	2.9347	-0.217234	0.000560	5.601143	0.948859	-0.011204
1708	8.5350e-01	2.9291	-0.255720	0.000385	3.848114	0.651888	-0.007697
1709	8.5400e-01	2.9156	-0.292068	0.000363	3.634330	0.615672	-0.007270
1710	8.5450e-01	2.9082	-0.334831	0.000428	4.275682	0.724320	-0.008553
1711	8.5500e-01	2.8952	-0.378021	0.000432	4.318439	0.731563	-0.008638
1712	8.5550e-01	2.8851	-0.418218	0.000402	4.019141	0.680861	-0.008039
1713	8.5600e-01	2.8767	-0.458842	0.000406	4.061898	0.688104	-0.008125
1714	8.5650e-01	2.8650	-0.493052	0.000342	3.420546	0.579456	-0.006842
1715	8.5700e-01	2.8548	-0.531111	0.000381	3.805357	0.644645	-0.007612
1716	8.5750e-01	2.8461	-0.581570	0.000505	5.045305	0.854698	-0.010092
1717	8.5800e-01	2.8375	-0.617063	0.000355	3.548816	0.601186	-0.007099
1718	8.5850e-01	2.8261	-0.664102	0.000470	4.703250	0.796752	-0.009408
1719	8.5900e-01	2.8198	-0.707292	0.000432	4.318439	0.731563	-0.008638
1720	8.5950e-01	2.8078	-0.748344	0.000410	4.104655	0.695347	-0.008210
1721	8.6000e-01	2.7980	-0.788969	0.000406	4.061898	0.688104	-0.008125
1722	8.6050e-01	2.7855	-0.819330	0.000304	3.035734	0.514267	-0.006072
1723	8.6100e-01	2.7734	-0.865086	0.000457	4.574980	0.775023	-0.009151
1724	8.6150e-01	2.7684	-0.903572	0.000385	3.848114	0.651888	-0.007697
1725	8.6200e-01	2.7576	-0.958308	0.000547	5.472873	0.927130	-0.010947
1726	8.6250e-01	2.7448	-1.004919	0.000466	4.660493	0.789509	-0.009322
1727	8.6300e-01	2.7374	-1.035708	0.000308	3.078491	0.521510	-0.006158
1728	8.6350e-01	2.7283	-1.079326	0.000436	4.361196	0.738807	-0.008724
1729	8.6400e-01	2.7130	-1.120378	0.000410	4.104655	0.695347	-0.008210
1730	8.6450e-01	2.7046	-1.149457	0.000291	2.907464	0.492538	-0.005816
1731	8.6500e-01	2.6959	-1.192647	0.000432	4.318439	0.731563	-0.008638
1732	8.6550e-01	2.6847	-1.234127	0.000415	4.147411	0.702591	-0.008296
1733	8.6600e-01	2.6746	-1.296987	0.000629	6.285252	1.064751	-0.012572
1734	8.6650e-01	2.6663	-1.336329	0.000393	3.933627	0.666375	-0.007868
1735	8.6700e-01	2.6563	-1.358565	0.000222	2.223355	0.376646	-0.004447
1736	8.6750e-01	2.6472	-1.406887	0.000483	4.831521	0.818482	-0.009664
1737	8.6800e-01	2.6372	-1.453071	0.000462	4.617736	0.782266	-0.009237
1738	8.6850e-01	2.6253	-1.494123	0.000410	4.104655	0.695347	-0.008210
1739	8.6900e-01	2.6154	-1.538168	0.000440	4.403952	0.746050	-0.008809
1740	8.6950e-01	2.6059	-1.591621	0.000534	5.344602	0.905400	-0.010691
1741	8.7000e-01	2.5943	-1.611292	0.000197	1.966814	0.333187	-0.003934
1742	8.7050e-01	2.5858	-1.663462	0.000522	5.216332	0.883671	-0.010434
1743	8.7100e-01	2.5758	-1.707935	0.000445	4.446709	0.753293	-0.008895
1744	8.7150e-01	2.5667	-1.742145	0.000342	3.420546	0.579456	-0.006842
1745	8.7200e-01	2.5552	-1.792605	0.000505	5.045305	0.854698	-0.010092
1746	8.7250e-01	2.5458	-1.825960	0.000334	3.335032	0.564970	-0.006671
1747	8.7300e-01	2.5342	-1.878985	0.000530	5.301846	0.898157	-0.010605
1748	8.7350e-01	2.5262	-1.914906	0.000359	3.591573	0.608429	-0.007184
1749	8.7400e-01	2.5134	-1.955530	0.000406	4.061898	0.688104	-0.008125
1750	8.7450e-01	2.5034	-1.986319	0.000308	3.078491	0.521510	-0.006158
1751	8.7500e-01	2.4988	-2.045332	0.000590	5.900441	0.999562	-0.011802
1752	8.7550e-01	2.4872	-2.091515	0.000462	4.617736	0.782266	-0.009237
1753	8.7600e-01	2.4762	-2.129574	0.000381	3.805357	0.644645	-0.007612
1754	8.7650e-01	2.4641	-2.176185	0.000466	4.660493	0.789509	-0.009322
1755	8.7700e-01	2.4542	-2.214671	0.000385	3.848114	0.651888	-0.007697
1756	8.7750e-01	2.4469	-2.267697	0.000530	5.301846	0.898157	-0.010605
1757	8.7800e-01	2.4371	-2.299341	0.000316	3.164005	0.535997	-0.006329
1758	8.7850e-01	2.4261	-2.345952	0.000466	4.660493	0.789509	-0.009322
1759	8.7900e-01	2.4143	-2.383583	0.000376	3.762600	0.637402	-0.007526
1760	8.7950e-01	2.4057	-2.429339	0.000457	4.574980	0.775023	-0.009151
1761	8.8000e-01	2.3969	-2.475523	0.000462	4.617736	0.782266	-0.009237
1762	8.8050e-01	2.3859	-2.513154	0.000376	3.762600	0.637402	-0.007526
1763	8.8100e-01	2.3738	-2.570028	0.000569	5.686657	0.963346	-0.011375
1764	8.8150e-01	2.3666	-2.610652	0.000406	4.061898	0.688104	-0.008125
1765	8.8200e-01	2.3544	-2.645718	0.000351	3.506059	0.593942	-0.007013
1766	8.8250e-01	2.3453	-2.691473	0.000457	4.574980	0.775023	-0.009151
1767	8.8300e-01	2.3338	-2.742789	0.000513	5.130818	0.869184	-0.010263
1768	8.8350e-01	2.3264	-2.768018	0.000252	2.522652	0.427349	-0.005046
1769	8.8400e-01	2.3151	-2.819761	0.000517	5.173575	0.876427	-0.010349
1770	8.8450e-01	2.3050	-2.880056	0.000603	6.028711	1.021291	-0.012059
1771	8.8500e-01	2.2990	-2.905286	0.000252	2.522652	0.427349	-0.005046
1772	8.8550e-01	2.2864	-2.958312	0.000530	5.301846	0.898157	-0.010605
1773	8.8600e-01	2.2759	-2.997226	0.000389	3.890871	0.659131	-0.007783
1774	8.8650e-01	2.2646	-3.031008	0.000338	3.377789	0.572213	-0.006756
1775	8.8700e-01	2.2551	-3.077191	0.000462	4.617736	0.782266	-0.009237
1776	8.8750e-01	2.2444	-3.134066	0.000569	5.686657	0.963346	-0.011375
1777	8.8800e-01	2.2351	-3.155875	0.000218	2.180598	0.369403	-0.004362
1778	8.8850e-01	2.2255	-3.225150	0.000693	6.926605	1.173399	-0.013855
1779	8.8900e-01	2.2144	-3.257222	0.000321	3.206761	0.543240	-0.006414
1780	8.8950e-01	2.2031	-3.295708	0.000385	3.848114	0.651888	-0.007697
1781	8.9000e-01	2.1952	-3.353010	0.000573	5.729414	0.970589	-0.011460
1782	8.9050e-01	2.1838	-3.396200	0.000432	4.318439	0.731563	-0.008638
1783	8.9100e-01	2.1761	-3.437252	0.000410	4.104655	0.695347	-0.008210
1784	8.9150e-01	2.1655	-3.470607	0.000334	3.335032	0.564970	-0.006671
1785	8.9200e-01	2.1561	-3.528336	0.000577	5.772171	0.977832	-0.011546
1786	8.9250e-01	2.1475	-3.569388	0.000410	4.104655	0.695347	-0.008210
1787	8.9300e-01	2.1339	-3.604881	0.000355	3.548816	0.601186	-0.007099
1788	8.9350e-01	2.1243	-3.656196	0.000513	5.130818	0.869184	-0.010263
1789	8.9400e-01	2.1135	-3.706228	0.000500	5.002548	0.847455	-0.010006
1790	8.9450e-01	2.1056	-3.751984	0.000457	4.574980	0.775023	-0.009151
1791	8.9500e-01	2.0933	-3.776359	0.000244	2.437139	0.412862	-0.004875
1792	8.9550e-01	2.0852	-3.836226	0.000599	5.985955	1.014048	-0.011974
1793	8.9600e-01	2.0718	-3.873002	0.000368	3.677086	0.622915	-0.007355
1794	8.9650e-01	2.0664	-3.924317	0.000513	5.130818	0.869184	-0.010263
1795	8.9700e-01	2.0573	-3.971356	0.000470	4.703250	0.796752	-0.009408
1796	8.9750e-01	2.0448	-4.016684	0.000453	4.532223	0.767779	-0.009066
1797	8.9800e-01	2.0351	-4.047473	0.000308	3.078491	0.521510	-0.006158
1798	8.9850e-01	2.0288	-4.105203	0.000577	5.772171	0.977832	-0.011546
1799	8.9900e-01	2.0158	-4.146682	0.000415	4.147411	0.702591	-0.008296
1800	8.9950e-01	2.0062	-4.209971	0.000633	6.328009	1.071994	-0.012658
1801	9.0000e-01	1.9935	-4.247602	0.000376	3.762600	0.637402	-0.007526
1802	9.0050e-01	1.9859	-4.286943	0.000393	3.933627	0.666375	-0.007868
1803	9.0100e-01	1.9768	-4.324574	0.000376	3.762600	0.637402	-0.007526
1804	9.0150e-01	1.9629	-4.372896	0.000483	4.831521	0.818482	-0.009664
1805	9.0200e-01	1.9562	-4.428915	0.000560	5.601143	0.948859	-0.011204
1806	9.0250e-01	1.9465	-4.454572	0.000257	2.565409	0.434592	-0.005132
1807	9.0300e-01	1.9356	-4.525558	0.000710	7.097632	1.202371	-0.014197
1808	9.0350e-01	1.9260	-4.556775	0.000312	3.121248	0.528754	-0.006243
1809	9.0400e-01	1.9141	-4.603814	0.000470	4.703250	0.796752	-0.009408
1810	9.0450e-01	1.9022	-4.646149	0.000423	4.232925	0.717077	-0.008467
1811	9.0500e-01	1.8948	-4.674800	0.000286	2.864707	0.485294	-0.005730
1812	9.0550e-01	1.8835	-4.726970	0.000522	5.216332	0.883671	-0.010434
1813	9.0600e-01	1.8755	-4.780423	0.000534	5.344602	0.905400	-0.010691
1814	9.0650e-01	1.8665	-4.816771	0.000363	3.634330	0.615672	-0.007270
1815	9.0700e-01	1.8561	-4.876639	0.000599	5.985955	1.014048	-0.011974
1816	9.0750e-01	1.8459	-4.909566	0.000329	3.292275	0.557726	-0.006585
1817	9.0800e-01	1.8362	-4.952328	0.000428	4.275682	0.724320	-0.008553
1818	9.0850e-01	1.8277	-5.012623	0.000603	6.028711	1.021291	-0.012059
1819	9.0900e-01	1.8155	-5.063939	0.000513	5.130818	0.869184	-0.010263
1820	9.0950e-01	1.8030	-5.096010	0.000321	3.206761	0.543240	-0.006414
1821	9.1000e-01	1.7962	-5.144332	0.000483	4.831521	0.818482	-0.009664
1822	9.1050e-01	1.7847	-5.196930	0.000526	5.259089	0.890914	-0.010520
1823	9.1100e-01	1.7722	-5.225581	0.000286	2.864707	0.485294	-0.005730
1824	9.1150e-01	1.7654	-5.287587	0.000620	6.199739	1.050264	-0.012401
1825	9.1200e-01	1.7540	-5.327356	0.000398	3.976384	0.673618	-0.007954
1826	9.1250e-01	1.7459	-5.370118	0.000428	4.275682	0.724320	-0.008553
1827	9.1300e-01	1.7358	-5.426565	0.000564	5.643900	0.956103	-0.011289
1828	9.1350e-01	1.7244	-5.464196	0.000376	3.762600	0.637402	-0.007526
1829	9.1400e-01	1.7151	-5.512090	0.000479	4.788764	0.811239	-0.009579
1830	9.1450e-01	1.7038	-5.552714	0.000406	4.061898	0.688104	-0.008125
1831	9.1500e-01	1.6961	-5.615147	0.000624	6.242496	1.057507	-0.012487
1832	9.1550e-01	1.6840	-5.652779	0.000376	3.762600	0.637402	-0.007526
1833	9.1600e-01	1.6734	-5.699390	0.000466	4.660493	0.789509	-0.009322
1834	9.1650e-01	1.6642	-5.737021	0.000376	3.762600	0.637402	-0.007526
1835	9.1700e-01	1.6541	-5.800737	0.000637	6.370766	1.079237	-0.012743
1836	9.1750e-01	1.6479	-5.834092	0.000334	3.335032	0.564970	-0.006671
1837	9.1800e-01	1.6367	-5.891393	0.000573	5.729414	0.970589	-0.011460
1838	9.1850e-01	1.6229	-5.928169	0.000368	3.677086	0.622915	-0.007355
1839	9.1900e-01	1.6152	-5.988037	0.000599	5.985955	1.014048	-0.011974
1840	9.1950e-01	1.6058	-6.026523	0.000385	3.848114	0.651888	-0.007697
1841	9.2000e-01	1.5989	-6.074417	0.000479	4.788764	0.811239	-0.009579
1842	9.2050e-01	1.5885	-6.129153	0.000547	5.472873	0.927130	-0.010947
1843	9.2100e-01	1.5760	-6.168067	0.000389	3.890871	0.659131	-0.007783
1844	9.2150e-01	1.5674	-6.215961	0.000479	4.788764	0.811239	-0.009579
1845	9.2200e-01	1.5558	-6.256158	0.000402	4.019141	0.680861	-0.008039
1846	9.2250e-01	1.5453	-6.313460	0.000573	5.729414	0.970589	-0.011460
1847	9.2300e-01	1.5346	-6.351946	0.000385	3.848114	0.651888	-0.007697
1848	9.2350e-01	1.5285	-6.408392	0.000564	5.643900	0.956103	-0.011289
1849	9.2400e-01	1.5166	-6.454148	0.000457	4.574980	0.775023	-0.009151
1850	9.2450e-01	1.5056	-6.505891	0.000517	5.173575	0.876427	-0.010349
1851	9.2500e-01	1.4960	-6.546515	0.000406	4.061898	0.688104	-0.008125
1852	9.2550e-01	1.4850	-6.591416	0.000449	4.489466	0.760536	-0.008980
1853	9.2600e-01	1.4743	-6.635034	0.000436	4.361196	0.738807	-0.008724
1854	9.2650e-01	1.4655	-6.688487	0.000534	5.344602	0.905400	-0.010691
1855	9.2700e-01	1.4557	-6.745789	0.000573	5.729414	0.970589	-0.011460
1856	9.2750e-01	1.4465	-6.787696	0.000419	4.190168	0.709834	-0.008381
1857	9.2800e-01	1.4362	-6.832597	0.000449	4.489466	0.760536	-0.008980
1858	9.2850e-01	1.4265	-6.875359	0.000428	4.275682	0.724320	-0.008553
1859	9.2900e-01	1.4159	-6.925819	0.000505	5.045305	0.854698	-0.010092
1860	9.2950e-01	1.4029	-6.982265	0.000564	5.643900	0.956103	-0.011289
1861	9.3000e-01	1.3968	-7.013055	0.000308	3.078491	0.521510	-0.006158
1862	9.3050e-01	1.3837	-7.073350	0.000603	6.028711	1.021291	-0.012059
1863	9.3100e-01	1.3740	-7.117395	0.000440	4.403952	0.746050	-0.008809
1864	9.3150e-01	1.3660	-7.181111	0.000637	6.370766	1.079237	-0.012743
1865	9.3200e-01	1.3528	-7.214466	0.000334	3.335032	0.564970	-0.006671
1866	9.3250e-01	1.3443	-7.266636	0.000522	5.216332	0.883671	-0.010434
1867	9.3300e-01	1.3345	-7.306405	0.000398	3.976384	0.673618	-0.007954
1868	9.3350e-01	1.3236	-7.359431	0.000530	5.301846	0.898157	-0.010605
1869	9.3400e-01	1.3132	-7.417588	0.000581	5.814927	0.985075	-0.011631
1870	9.3450e-01	1.3072	-7.461633	0.000440	4.403952	0.746050	-0.008809
1871	9.3500e-01	1.2939	-7.491995	0.000304	3.035734	0.514267	-0.006072
1872	9.3550e-01	1.2848	-7.550579	0.000586	5.857684	0.992319	-0.011717
1873	9.3600e-01	1.2752	-7.599756	0.000492	4.917034	0.832968	-0.009835
1874	9.3650e-01	1.2665	-7.650644	0.000509	5.088061	0.861941	-0.010177
1875	9.3700e-01	1.2545	-7.698965	0.000483	4.831521	0.818482	-0.009664
1876	9.3750e-01	1.2447	-7.740017	0.000410	4.104655	0.695347	-0.008210
1877	9.3800e-01	1.2346	-7.780642	0.000406	4.061898	0.688104	-0.008125
1878	9.3850e-01	1.2238	-7.841792	0.000611	6.114225	1.035778	-0.012230
1879	9.3900e-01	1.2148	-7.902087	0.000603	6.028711	1.021291	-0.012059
1880	9.3950e-01	1.2051	-7.932449	0.000304	3.035734	0.514267	-0.006072
1881	9.4000e-01	1.1970	-7.994882	0.000624	6.242496	1.057507	-0.012487
1882	9.4050e-01	1.1860	-8.037645	0.000428	4.275682	0.724320	-0.008553
1883	9.4100e-01	1.1745	-8.083828	0.000462	4.617736	0.782266	-0.009237
1884	9.4150e-01	1.1663	-8.122742	0.000389	3.890871	0.659131	-0.007783
1885	9.4200e-01	1.1586	-8.180899	0.000581	5.814927	0.985075	-0.011631
1886	9.4250e-01	1.1440	-8.245471	0.000646	6.456280	1.093723	-0.012914
1887	9.4300e-01	1.1362	-8.283957	0.000385	3.848114	0.651888	-0.007697
1888	9.4350e-01	1.1262	-8.322443	0.000385	3.848114	0.651888	-0.007697
1889	9.4400e-01	1.1158	-8.374613	0.000522	5.216332	0.883671	-0.010434
1890	9.4450e-01	1.1073	-8.421225	0.000466	4.660493	0.789509	-0.009322
1891	9.4500e-01	1.0948	-8.474250	0.000530	5.301846	0.898157	-0.010605
1892	9.4550e-01	1.0851	-8.516585	0.000423	4.232925	0.717077	-0.008467
1893	9.4600e-01	1.0794	-8.563196	0.000466	4.660493	0.789509	-0.009322
1894	9.4650e-01	1.0639	-8.620498	0.000573	5.729414	0.970589	-0.011460
1895	9.4700e-01	1.0555	-8.676517	0.000560	5.601143	0.948859	-0.011204
1896	9.4750e-01	1.0445	-8.717996	0.000415	4.147411	0.702591	-0.008296
1897	9.4800e-01	1.0344	-8.772733	0.000547	5.472873	0.927130	-0.010947
1898	9.4850e-01	1.0257	-8.827896	0.000552	5.515630	0.934373	-0.011033
1899	9.4900e-01	1.0181	-8.867665	0.000398	3.976384	0.673618	-0.007954
1900	9.4950e-01	1.0085	-8.934802	0.000671	6.712821	1.137183	-0.013427
1901	9.5000e-01	0.9931	-8.988256	0.000534	5.344602	0.905400	-0.010691
1902	9.5050e-01	0.9857	-9.012630	0.000244	2.437139	0.412862	-0.004875
1903	9.5100e-01	0.9756	-9.076774	0.000641	6.413523	1.086480	-0.012829
1904	9.5150e-01	0.9670	-9.114833	0.000381	3.805357	0.644645	-0.007612
1905	9.5200e-01	0.9555	-9.175556	0.000607	6.071468	1.028535	-0.012145
1906	9.5250e-01	0.9464	-9.226443	0.000509	5.088061	0.861941	-0.010177
1907	9.5300e-01	0.9348	-9.280751	0.000543	5.430116	0.919887	-0.010862
1908	9.5350e-01	0.9247	-9.335487	0.000547	5.472873	0.927130	-0.010947
1909	9.5400e-01	0.9155	-9.373974	0.000385	3.848114	0.651888	-0.007697
1910	9.5450e-01	0.9046	-9.427427	0.000534	5.344602	0.905400	-0.010691
1911	9.5500e-01	0.8979	-9.473183	0.000457	4.574980	0.775023	-0.009151
1912	9.5550e-01	0.8852	-9.521932	0.000487	4.874277	0.825725	-0.009750
1913	9.5600e-01	0.8765	-9.580944	0.000590	5.900441	0.999562	-0.011802
1914	9.5650e-01	0.8670	-9.637818	0.000569	5.686657	0.963346	-0.011375
1915	9.5700e-01	0.8545	-9.687423	0.000496	4.959791	0.840211	-0.009921
1916	9.5750e-01	0.8435	-9.721633	0.000342	3.420546	0.579456	-0.006842
1917	9.5800e-01	0.8408	-9.769099	0.000475	4.746007	0.803995	-0.009493
1918	9.5850e-01	0.8250	-9.839230	0.000701	7.012118	1.187885	-0.014026
1919	9.5900e-01	0.8160	-9.883275	0.000440	4.403952	0.746050	-0.008809
1920	9.5950e-01	0.8054	-9.929031	0.000457	4.574980	0.775023	-0.009151
1921	9.6000e-01	0.7929	-9.966662	0.000376	3.762600	0.637402	-0.007526
1922	9.6050e-01	0.7847	-10.025675	0.000590	5.900441	0.999562	-0.011802
1923	9.6100e-01	0.7751	-10.095805	0.000701	7.012118	1.187885	-0.014026
1924	9.6150e-01	0.7632	-10.125311	0.000295	2.950220	0.499781	-0.005901
1925	9.6200e-01	0.7562	-10.188600	0.000633	6.328009	1.071994	-0.012658
1926	9.6250e-01	0.7472	-10.235639	0.000470	4.703250	0.796752	-0.009408
1927	9.6300e-01	0.7364	-10.297217	0.000616	6.156982	1.043021	-0.012316
1928	9.6350e-01	0.7247	-10.350242	0.000530	5.301846	0.898157	-0.010605
1929	9.6400e-01	0.7166	-10.390011	0.000398	3.976384	0.673618	-0.007954
1930	9.6450e-01	0.7070	-10.450734	0.000607	6.071468	1.028535	-0.012145
1931	9.6500e-01	0.6936	-10.501621	0.000509	5.088061	0.861941	-0.010177
1932	9.6550e-01	0.6866	-10.550798	0.000492	4.917034	0.832968	-0.009835
1933	9.6600e-01	0.6747	-10.602541	0.000517	5.173575	0.876427	-0.010349
1934	9.6650e-01	0.6650	-10.650007	0.000475	4.746007	0.803995	-0.009493
1935	9.6700e-01	0.6581	-10.710730	0.000607	6.071468	1.028535	-0.012145
1936	9.6750e-01	0.6445	-10.750072	0.000393	3.933627	0.666375	-0.007868
1937	9.6800e-01	0.6364	-10.796255	0.000462	4.617736	0.782266	-0.009237
1938	9.6850e-01	0.6227	-10.855268	0.000590	5.900441	0.999562	-0.011802
1939	9.6900e-01	0.6183	-10.909148	0.000539	5.387359	0.912643	-0.010776
1940	9.6950e-01	0.6055	-10.956187	0.000470	4.703250	0.796752	-0.009408
1941	9.7000e-01	0.5968	-11.011351	0.000552	5.515630	0.934373	-0.011033
1942	9.7050e-01	0.5860	-11.067370	0.000560	5.601143	0.948859	-0.011204
1943	9.7100e-01	0.5761	-11.110560	0.000432	4.318439	0.731563	-0.008638
1944	9.7150e-01	0.5651	-11.160164	0.000496	4.959791	0.840211	-0.009921
1945	9.7200e-01	0.5566	-11.221742	0.000616	6.156982	1.043021	-0.012316
1946	9.7250e-01	0.5486	-11.266643	0.000449	4.489466	0.760536	-0.008980
1947	9.7300e-01	0.5360	-11.326083	0.000594	5.943198	1.006805	-0.011888
1948	9.7350e-01	0.5231	-11.385523	0.000594	5.943198	1.006805	-0.011888
1949	9.7400e-01	0.5121	-11.426575	0.000410	4.104655	0.695347	-0.008210
1950	9.7450e-01	0.5052	-11.476179	0.000496	4.959791	0.840211	-0.009921
1951	9.7500e-01	0.4974	-11.529205	0.000530	5.301846	0.898157	-0.010605
1952	9.7550e-01	0.4848	-11.580948	0.000517	5.173575	0.876427	-0.010349
1953	9.7600e-01	0.4754	-11.633546	0.000526	5.259089	0.890914	-0.010520
1954	9.7650e-01	0.4644	-11.678019	0.000445	4.446709	0.753293	-0.008895
1955	9.7700e-01	0.4559	-11.743445	0.000654	6.541793	1.108210	-0.013085
1956	9.7750e-01	0.4446	-11.795188	0.000517	5.173575	0.876427	-0.010349
1957	9.7800e-01	0.4370	-11.843937	0.000487	4.874277	0.825725	-0.009750
1958	9.7850e-01	0.4271	-11.899101	0.000552	5.515630	0.934373	-0.011033
1959	9.7900e-01	0.4143	-11.950416	0.000513	5.130818	0.869184	-0.010263
1960	9.7950e-01	0.4054	-12.007718	0.000573	5.729414	0.970589	-0.011460
1961	9.8000e-01	0.3980	-12.065875	0.000581	5.814927	0.985075	-0.011631
1962	9.8050e-01	0.3851	-12.106499	0.000406	4.061898	0.688104	-0.008125
1963	9.8100e-01	0.3778	-12.173209	0.000667	6.670064	1.129939	-0.013342
1964	9.8150e-01	0.3673	-12.220247	0.000470	4.703250	0.796752	-0.009408
1965	9.8200e-01	0.3547	-12.266859	0.000466	4.660493	0.789509	-0.009322
1966	9.8250e-01	0.3471	-12.328864	0.000620	6.199739	1.050264	-0.012401
1967	9.8300e-01	0.3348	-12.376758	0.000479	4.788764	0.811239	-0.009579
1968	9.8350e-01	0.3245	-12.429784	0.000530	5.301846	0.898157	-0.010605
1969	9.8400e-01	0.3165	-12.487513	0.000577	5.772171	0.977832	-0.011546
1970	9.8450e-01	0.3030	-12.533269	0.000457	4.574980	0.775023	-0.009151
1971	9.8500e-01	0.2970	-12.589288	0.000560	5.601143	0.948859	-0.011204
1972	9.8550e-01	0.2840	-12.646590	0.000573	5.729414	0.970589	-0.011460
1973	9.8600e-01	0.2764	-12.700471	0.000539	5.387359	0.912643	-0.010776
1974	9.8650e-01	0.2630	-12.748365	0.000479	4.788764	0.811239	-0.009579
1975	9.8700e-01	0.2572	-12.811226	0.000629	6.285252	1.064751	-0.012572
1976	9.8750e-01	0.2446	-12.856554	0.000453	4.532223	0.767779	-0.009066
1977	9.8800e-01	0.2357	-12.909152	0.000526	5.259089	0.890914	-0.010520
1978	9.8850e-01	0.2243	-12.979710	0.000705	7.054875	1.195128	-0.014112
1979	9.8900e-01	0.2132	-13.032308	0.000526	5.259089	0.890914	-0.010520
1980	9.8950e-01	0.2044	-13.061386	0.000291	2.907464	0.492538	-0.005816
1981	9.9000e-01	0.1969	-13.127241	0.000658	6.584550	1.115453	-0.013171
1982	9.9050e-01	0.1862	-13.183687	0.000564	5.643900	0.956103	-0.011289
1983	9.9100e-01	0.1762	-13.227733	0.000440	4.403952	0.746050	-0.008809
1984	9.9150e-01	0.1639	-13.281613	0.000539	5.387359	0.912643	-0.010776
1985	9.9200e-01	0.1551	-13.338488	0.000569	5.686657	0.963346	-0.011375
1986	9.9250e-01	0.1478	-13.396217	0.000577	5.772171	0.977832	-0.011546
1987	9.9300e-01	0.1345	-13.451381	0.000552	5.515630	0.934373	-0.011033
1988	9.9350e-01	0.1248	-13.523649	0.000723	7.225902	1.224101	-0.014454
1989	9.9400e-01	0.1167	-13.554438	0.000308	3.078491	0.521510	-0.006158
1990	9.9450e-01	0.1034	-13.612595	0.000581	5.814927	0.985075	-0.011631
1991	9.9500e-01	0.0943	-13.665621	0.000530	5.301846	0.898157	-0.010605
1992	9.9550e-01	0.0845	-13.727199	0.000616	6.156982	1.043021	-0.012316
1993	9.9600e-01	0.0740	-13.763975	0.000368	3.677086	0.622915	-0.007355
1994	9.9650e-01	0.0669	-13.838382	0.000744	7.439686	1.260317	-0.014881
1995	9.9700e-01	0.0543	-13.882855	0.000445	4.446709	0.753293	-0.008895
1996	9.9750e-01	0.0450	-13.934170	0.000513	5.130818	0.869184	-0.010263
1997	9.9800e-01	0.0360	-14.003872	0.000697	6.969361	1.180642	-0.013941
1998	9.9850e-01	0.0254	-14.049201	0.000453	4.532223	0.767779	-0.009066
1999	9.9900e-01	0.0166	-14.106075	0.000569	5.686657	0.963346	-0.011375
2000	9.9950e-01	0.0076	-14.159528	0.000534	5.344602	0.905400	-0.010691
2001	1.0000e+00	-0.0026	-14.218113	0.000534	5.344602	0.905400	-0.011717

PMax (uC/cm2):	4.02e+01
Pr (uC/cm2):	5.89e+00
-Pr (uC/cm2):	0.00e+00
PLoss (uC/cm2):	0.00e+00
C (Max-Eff) (nF):	4.02e-01
K (Eff):	6.81e+02
Vert. (+/-Pr) Shift (uC/cm2):	2.95e+00
Offset (uC/cm2):	2.01e+01

A (Loop Area - uC/cm2·Volts):	-5.79e-02



Hysteresis Version: 5.48.1 - Radiant Technologies, Inc., 1999 - 9/12/24

