»»»»»»»»»»»»»»»»»»»»»»»»»»»»»»»»»»»» Hysteresis ««««««««««««««««««««««««««««««««««««
»»»  Executed Version:	5.48.1
»»»  Vision Version:	5.48.4 (R)
»»»  Vision Compiled:	9/18/24
»»»  Driver Version:	5.47.0
»»»  Windows Version:	Windows 8 or 8.1
»»»  Processor Information:	x86 (AMD or Intel) - 32 Processors
»»»  Tester Name:	PMF21124-494 (100V)
»»»  Tester S/N:	PMF21124-494
»»»  Internal Amp Type:	100V RevK 270k
»»»  Internal Amp S/N:	iAB2-596/K     
»»»  Execution Count:	1
»»»»»»»»»»»»»»»»»»»»»»»»»»»»»»»»»»»»»»»»»»««««««««««««««««««««««««««««««««««««««««««

Stored:	6/30/2025 - 17:21:6
Configured:	06/30/25 10:19:58 AM
Executed:	06/30/25 05:19:28 PM

»»»»»»»»»»»»»»»»»»»»»»»»»»»»»»»»»»» Sample Info ««««««««««««««««««««««««««««««««««««
Sample Name:	
Lot Name:	
Wafer Name:	
Die Row/Column:	0/0
Capacitor Number:	0
Sample Area (cm2):	1.00e-04
Sample Thickness (microns):	1.50e-01

Amplifier:	Internal

»»»»»»»»»»»»»»»»»»»»»»»»»»»»»»»»»»» Tester Info «««««««««««««««««««««««««««««««««««
Tester Name:	PMF21124-494 (100V)
Tester Serial Number:	PMF21124-494
Return Signal Amp. Level:	1.79 [Index: 2]

»»»»»»»»»»»»»»»»»»»»»»»»»»»»»»»» Hysteresis Info ««««««««««««««««««««««««««««««««««
Task Name:	Hyst-1804
Volts:	10.00
Field:	666.67 (kV/cm)
DCBias:	0.00
DCField:	0.00 (kV/cm)
Hysteresis Period (ms):	1.00e+00
Preset:	Enabled
Preset Delay (ms):	1.00e+03
Profile:	Standard Monopolar

»»»»»»»»»»»»»»»»»»»»»»»»»»»»»»»»»»»»»» Data «««««««««««««««««««««««««««««««««««««««
Points:	2001

Valid Data

Point	Time (ms)	Drive Voltage	Measured Polarization (uC/cm2)	Capacitance (uF)	Normalized Capacitance (uF/cm2)	Dielectric Constant	Instantaneous Current (mA)
   1	0.0000e+00	-0.0052	-20.528151	0.000855	8.551331	1.448635	0.017105
   2	5.0000e-04	0.0036	-20.442626	0.000855	8.551331	1.448635	0.017105
   3	1.0000e-03	0.0168	-20.389601	0.000530	5.301825	0.898154	0.010605
   4	1.5000e-03	0.0262	-20.344272	0.000453	4.532206	0.767776	0.009066
   5	2.0000e-03	0.0366	-20.277991	0.000663	6.627282	1.122692	0.013256
   6	2.5000e-03	0.0457	-20.225393	0.000526	5.259069	0.890910	0.010520
   7	3.0000e-03	0.0559	-20.183913	0.000415	4.147396	0.702588	0.008296
   8	3.5000e-03	0.0661	-20.122335	0.000616	6.156958	1.043017	0.012316
   9	4.0000e-03	0.0757	-20.059902	0.000624	6.242472	1.057503	0.012487
  10	4.5000e-03	0.0875	-20.016284	0.000436	4.361179	0.738804	0.008724
  11	5.0000e-03	0.0967	-19.952140	0.000641	6.413498	1.086476	0.012829
  12	5.5000e-03	0.1080	-19.914937	0.000372	3.719829	0.630156	0.007441
  13	6.0000e-03	0.1154	-19.843096	0.000718	7.183118	1.216853	0.014368
  14	6.5000e-03	0.1240	-19.807175	0.000359	3.591559	0.608427	0.007184
  15	7.0000e-03	0.1371	-19.740466	0.000667	6.670038	1.129935	0.013342
  16	7.5000e-03	0.1479	-19.684019	0.000564	5.643879	0.956099	0.011289
  17	8.0000e-03	0.1556	-19.618165	0.000658	6.584525	1.115449	0.013171
  18	8.5000e-03	0.1648	-19.565139	0.000530	5.301825	0.898154	0.010605
  19	9.0000e-03	0.1771	-19.509120	0.000560	5.601122	0.948856	0.011204
  20	9.5000e-03	0.1867	-19.448825	0.000603	6.028688	1.021287	0.012059
  21	1.0000e-02	0.1971	-19.396655	0.000522	5.216312	0.883667	0.010434
  22	1.0500e-02	0.2041	-19.348333	0.000483	4.831502	0.818479	0.009664
  23	1.1000e-02	0.2160	-19.303860	0.000445	4.446692	0.753290	0.008895
  24	1.1500e-02	0.2262	-19.225177	0.000787	7.867225	1.332744	0.015737
  25	1.2000e-02	0.2370	-19.167448	0.000577	5.772149	0.977828	0.011546
  26	1.2500e-02	0.2444	-19.131955	0.000355	3.548802	0.601183	0.007099
  27	1.3000e-02	0.2548	-19.071660	0.000603	6.028688	1.021287	0.012059
  28	1.3500e-02	0.2666	-18.993832	0.000778	7.781711	1.318258	0.015566
  29	1.4000e-02	0.2763	-18.951925	0.000419	4.190152	0.709831	0.008381
  30	1.4500e-02	0.2884	-18.909590	0.000423	4.232909	0.717074	0.008467
  31	1.5000e-02	0.2943	-18.856564	0.000530	5.301825	0.898154	0.010605
  32	1.5500e-02	0.3056	-18.792420	0.000641	6.413498	1.086476	0.012829
  33	1.6000e-02	0.3171	-18.720152	0.000723	7.225875	1.224096	0.014454
  34	1.6500e-02	0.3287	-18.682948	0.000372	3.719829	0.630156	0.007441
  35	1.7000e-02	0.3357	-18.628212	0.000547	5.472852	0.927126	0.010947
  36	1.7500e-02	0.3473	-18.567917	0.000603	6.028688	1.021287	0.012059
  37	1.8000e-02	0.3545	-18.524727	0.000432	4.318422	0.731561	0.008638
  38	1.8500e-02	0.3690	-18.456734	0.000680	6.798308	1.151665	0.013598
  39	1.9000e-02	0.3764	-18.414827	0.000419	4.190152	0.709831	0.008381
  40	1.9500e-02	0.3860	-18.366506	0.000483	4.831502	0.818479	0.009664
  41	2.0000e-02	0.3996	-18.285684	0.000808	8.081008	1.368960	0.016164
  42	2.0500e-02	0.4069	-18.230093	0.000556	5.558365	0.941613	0.011118
  43	2.1000e-02	0.4169	-18.195883	0.000342	3.420532	0.579454	0.006842
  44	2.1500e-02	0.4234	-18.143713	0.000522	5.216312	0.883667	0.010434
  45	2.2000e-02	0.4358	-18.072299	0.000714	7.140362	1.209610	0.014283
  46	2.2500e-02	0.4462	-18.035951	0.000363	3.634316	0.615670	0.007270
  47	2.3000e-02	0.4566	-17.969669	0.000663	6.627282	1.122692	0.013256
  48	2.3500e-02	0.4667	-17.917927	0.000517	5.173555	0.876424	0.010349
  49	2.4000e-02	0.4779	-17.876447	0.000415	4.147396	0.702588	0.008296
  50	2.4500e-02	0.4875	-17.804178	0.000723	7.225875	1.224096	0.014454
  51	2.5000e-02	0.4961	-17.763554	0.000406	4.061882	0.688101	0.008125
  52	2.5500e-02	0.5042	-17.699410	0.000641	6.413498	1.086476	0.012829
  53	2.6000e-02	0.5173	-17.641253	0.000581	5.814905	0.985072	0.011631
  54	2.6500e-02	0.5260	-17.590793	0.000505	5.045285	0.854694	0.010092
  55	2.7000e-02	0.5368	-17.529215	0.000616	6.156958	1.043017	0.012316
  56	2.7500e-02	0.5463	-17.475762	0.000534	5.344582	0.905397	0.010691
  57	2.8000e-02	0.5550	-17.416322	0.000594	5.943175	1.006801	0.011888
  58	2.8500e-02	0.5647	-17.390665	0.000257	2.565399	0.434590	0.005132
  59	2.9000e-02	0.5754	-17.318824	0.000718	7.183118	1.216853	0.014368
  60	2.9500e-02	0.5869	-17.258528	0.000603	6.028688	1.021287	0.012059
  61	3.0000e-02	0.5995	-17.208069	0.000505	5.045285	0.854694	0.010092
  62	3.0500e-02	0.6026	-17.145208	0.000629	6.285228	1.064747	0.012572
  63	3.1000e-02	0.6161	-17.093465	0.000517	5.173555	0.876424	0.010349
  64	3.1500e-02	0.6271	-17.060538	0.000329	3.292262	0.557724	0.006585
  65	3.2000e-02	0.6350	-16.991263	0.000693	6.926578	1.173394	0.013855
  66	3.2500e-02	0.6464	-16.956625	0.000346	3.463289	0.586697	0.006928
  67	3.3000e-02	0.6581	-16.879225	0.000774	7.738955	1.311014	0.015480
  68	3.3500e-02	0.6670	-16.829620	0.000496	4.959772	0.840208	0.009921
  69	3.4000e-02	0.6750	-16.786430	0.000432	4.318422	0.731561	0.008638
  70	3.4500e-02	0.6846	-16.716727	0.000697	6.969335	1.180637	0.013941
  71	3.5000e-02	0.6935	-16.652156	0.000646	6.456255	1.093719	0.012914
  72	3.5500e-02	0.7099	-16.617518	0.000346	3.463289	0.586697	0.006928
  73	3.6000e-02	0.7166	-16.579032	0.000385	3.848099	0.651886	0.007697
  74	3.6500e-02	0.7253	-16.488803	0.000902	9.021654	1.528310	0.018046
  75	3.7000e-02	0.7345	-16.454593	0.000342	3.420532	0.579454	0.006842
  76	3.7500e-02	0.7496	-16.417390	0.000372	3.719829	0.630156	0.007441
  77	3.8000e-02	0.7558	-16.352391	0.000650	6.499012	1.100962	0.013000
  78	3.8500e-02	0.7668	-16.301931	0.000505	5.045285	0.854694	0.010092
  79	3.9000e-02	0.7762	-16.233083	0.000688	6.883822	1.166151	0.013770
  80	3.9500e-02	0.7859	-16.173643	0.000594	5.943175	1.006801	0.011888
  81	4.0000e-02	0.7958	-16.149268	0.000244	2.437129	0.412861	0.004875
  82	4.0500e-02	0.8075	-16.056901	0.000924	9.235438	1.564525	0.018473
  83	4.1000e-02	0.8205	-16.007725	0.000492	4.917015	0.832965	0.009835
  84	4.1500e-02	0.8246	-15.978218	0.000295	2.950209	0.499779	0.005901
  85	4.2000e-02	0.8369	-15.919634	0.000586	5.857662	0.992315	0.011717
  86	4.2500e-02	0.8455	-15.841378	0.000782	7.824468	1.325501	0.015651
  87	4.3000e-02	0.8562	-15.785787	0.000556	5.558365	0.941613	0.011118
  88	4.3500e-02	0.8659	-15.753715	0.000321	3.206749	0.543238	0.006414
  89	4.4000e-02	0.8779	-15.701117	0.000526	5.259069	0.890910	0.010520
  90	4.4500e-02	0.8881	-15.659210	0.000419	4.190152	0.709831	0.008381
  91	4.5000e-02	0.8957	-15.594639	0.000646	6.456255	1.093719	0.012914
  92	4.5500e-02	0.9064	-15.543751	0.000509	5.088042	0.861938	0.010177
  93	4.6000e-02	0.9169	-15.479607	0.000641	6.413498	1.086476	0.012829
  94	4.6500e-02	0.9264	-15.424016	0.000556	5.558365	0.941613	0.011118
  95	4.7000e-02	0.9379	-15.382536	0.000415	4.147396	0.702588	0.008296
  96	4.7500e-02	0.9451	-15.339774	0.000428	4.275666	0.724317	0.008553
  97	4.8000e-02	0.9529	-15.260663	0.000791	7.909981	1.339987	0.015822
  98	4.8500e-02	0.9650	-15.245269	0.000154	1.539240	0.260754	0.003079
  99	4.9000e-02	0.9752	-15.179414	0.000658	6.584525	1.115449	0.013171
 100	4.9500e-02	0.9869	-15.099021	0.000804	8.038251	1.361717	0.016079
 101	5.0000e-02	0.9951	-15.055831	0.000432	4.318422	0.731561	0.008638
 102	5.0500e-02	1.0071	-14.991687	0.000641	6.413498	1.086476	0.012829
 103	5.1000e-02	1.0185	-14.950207	0.000415	4.147396	0.702588	0.008296
 104	5.1500e-02	1.0281	-14.901886	0.000483	4.831502	0.818479	0.009664
 105	5.2000e-02	1.0365	-14.860406	0.000415	4.147396	0.702588	0.008296
 106	5.2500e-02	1.0474	-14.784716	0.000757	7.567928	1.282042	0.015138
 107	5.3000e-02	1.0571	-14.758631	0.000261	2.608156	0.441834	0.005217
 108	5.3500e-02	1.0654	-14.704750	0.000539	5.387339	0.912640	0.010776
 109	5.4000e-02	1.0763	-14.644883	0.000599	5.985932	1.014044	0.011974
 110	5.4500e-02	1.0860	-14.606824	0.000381	3.805342	0.644642	0.007612
 111	5.5000e-02	1.0988	-14.526003	0.000808	8.081008	1.368960	0.016164
 112	5.5500e-02	1.1067	-14.472977	0.000530	5.301825	0.898154	0.010605
 113	5.6000e-02	1.1176	-14.456728	0.000162	1.624753	0.275241	0.003250
 114	5.6500e-02	1.1243	-14.359229	0.000975	9.748518	1.651444	0.019500
 115	5.7000e-02	1.1352	-14.338703	0.000205	2.052319	0.347672	0.004105
 116	5.7500e-02	1.1456	-14.269855	0.000688	6.883822	1.166151	0.013770
 117	5.8000e-02	1.1581	-14.222817	0.000470	4.703232	0.796749	0.009408
 118	5.8500e-02	1.1678	-14.184330	0.000385	3.848099	0.651886	0.007697
 119	5.9000e-02	1.1755	-14.121042	0.000633	6.327985	1.071990	0.012658
 120	5.9500e-02	1.1853	-14.058181	0.000629	6.285228	1.064747	0.012572
 121	6.0000e-02	1.1962	-14.011997	0.000462	4.617719	0.782263	0.009237
 122	6.0500e-02	1.2048	-13.959399	0.000526	5.259069	0.890910	0.010520
 123	6.1000e-02	1.2143	-13.907657	0.000517	5.173555	0.876424	0.010349
 124	6.1500e-02	1.2277	-13.852066	0.000556	5.558365	0.941613	0.011118
 125	6.2000e-02	1.2376	-13.786639	0.000654	6.541768	1.108206	0.013085
 126	6.2500e-02	1.2460	-13.742593	0.000440	4.403936	0.746047	0.008809
 127	6.3000e-02	1.2581	-13.696838	0.000457	4.574962	0.775020	0.009151
 128	6.3500e-02	1.2675	-13.636115	0.000607	6.071445	1.028531	0.012145
 129	6.4000e-02	1.2756	-13.614733	0.000214	2.137833	0.362159	0.004276
 130	6.4500e-02	1.2851	-13.577958	0.000368	3.677072	0.622913	0.007355
 131	6.5000e-02	1.2967	-13.507400	0.000705	7.054848	1.195124	0.014112
 132	6.5500e-02	1.3043	-13.451381	0.000560	5.601122	0.948856	0.011204
 133	6.6000e-02	1.3178	-13.386809	0.000646	6.456255	1.093719	0.012914
 134	6.6500e-02	1.3255	-13.340198	0.000466	4.660475	0.789506	0.009322
 135	6.7000e-02	1.3348	-13.299574	0.000406	4.061882	0.688101	0.008125
 136	6.7500e-02	1.3487	-13.226877	0.000727	7.268631	1.231340	0.014539
 137	6.8000e-02	1.3589	-13.177700	0.000492	4.917015	0.832965	0.009835
 138	6.8500e-02	1.3669	-13.138787	0.000389	3.890856	0.659129	0.007783
 139	6.9000e-02	1.3765	-13.079347	0.000594	5.943175	1.006801	0.011888
 140	6.9500e-02	1.3858	-13.027176	0.000522	5.216312	0.883667	0.010434
 141	7.0000e-02	1.3947	-12.983131	0.000440	4.403936	0.746047	0.008809
 142	7.0500e-02	1.4082	-12.948066	0.000351	3.506046	0.593940	0.007013
 143	7.1000e-02	1.4169	-12.869810	0.000782	7.824468	1.325501	0.015651
 144	7.1500e-02	1.4261	-12.824482	0.000453	4.532206	0.767776	0.009066
 145	7.2000e-02	1.4343	-12.780864	0.000436	4.361179	0.738804	0.008724
 146	7.2500e-02	1.4442	-12.725701	0.000552	5.515609	0.934369	0.011033
 147	7.3000e-02	1.4570	-12.667971	0.000577	5.772149	0.977828	0.011546
 148	7.3500e-02	1.4679	-12.616656	0.000513	5.130799	0.869181	0.010263
 149	7.4000e-02	1.4760	-12.573466	0.000432	4.318422	0.731561	0.008638
 150	7.4500e-02	1.4850	-12.522579	0.000509	5.088042	0.861938	0.010177
 151	7.5000e-02	1.4972	-12.451165	0.000714	7.140362	1.209610	0.014283
 152	7.5500e-02	1.5064	-12.412679	0.000385	3.848099	0.651886	0.007697
 153	7.6000e-02	1.5129	-12.374193	0.000385	3.848099	0.651886	0.007697
 154	7.6500e-02	1.5256	-12.321595	0.000526	5.259069	0.890910	0.010520
 155	7.7000e-02	1.5378	-12.251464	0.000701	7.012092	1.187880	0.014026
 156	7.7500e-02	1.5446	-12.215971	0.000355	3.548802	0.601183	0.007099
 157	7.8000e-02	1.5564	-12.176630	0.000393	3.933612	0.666372	0.007868
 158	7.8500e-02	1.5654	-12.096664	0.000800	7.995495	1.354473	0.015993
 159	7.9000e-02	1.5766	-12.055612	0.000410	4.104639	0.695345	0.008210
 160	7.9500e-02	1.5857	-12.007718	0.000479	4.788745	0.811235	0.009579
 161	8.0000e-02	1.5961	-11.955120	0.000526	5.259069	0.890910	0.010520
 162	8.0500e-02	1.6077	-11.903377	0.000517	5.173555	0.876424	0.010349
 163	8.1000e-02	1.6129	-11.863180	0.000402	4.019126	0.680858	0.008039
 164	8.1500e-02	1.6272	-11.825122	0.000381	3.805342	0.644642	0.007612
 165	8.2000e-02	1.6365	-11.761833	0.000633	6.327985	1.071990	0.012658
 166	8.2500e-02	1.6446	-11.703676	0.000581	5.814905	0.985072	0.011631
 167	8.3000e-02	1.6557	-11.657920	0.000457	4.574962	0.775020	0.009151
 168	8.3500e-02	1.6654	-11.613020	0.000449	4.489449	0.760533	0.008980
 169	8.4000e-02	1.6750	-11.557001	0.000560	5.601122	0.948856	0.011204
 170	8.4500e-02	1.6838	-11.497133	0.000599	5.985932	1.014044	0.011974
 171	8.5000e-02	1.6954	-11.469337	0.000278	2.779183	0.470806	0.005559
 172	8.5500e-02	1.7027	-11.406049	0.000633	6.327985	1.071990	0.012658
 173	8.6000e-02	1.7157	-11.359438	0.000466	4.660475	0.789506	0.009322
 174	8.6500e-02	1.7252	-11.304702	0.000547	5.472852	0.927126	0.010947
 175	8.7000e-02	1.7368	-11.263222	0.000415	4.147396	0.702588	0.008296
 176	8.7500e-02	1.7451	-11.197368	0.000658	6.584525	1.115449	0.013171
 177	8.8000e-02	1.7557	-11.159737	0.000376	3.762586	0.637399	0.007526
 178	8.8500e-02	1.7679	-11.088751	0.000710	7.097605	1.202367	0.014197
 179	8.9000e-02	1.7776	-11.050692	0.000381	3.805342	0.644642	0.007612
 180	8.9500e-02	1.7847	-10.995101	0.000556	5.558365	0.941613	0.011118
 181	9.0000e-02	1.7958	-10.935234	0.000599	5.985932	1.014044	0.011974
 182	9.0500e-02	1.8048	-10.893326	0.000419	4.190152	0.709831	0.008381
 183	9.1000e-02	1.8185	-10.858261	0.000351	3.506046	0.593940	0.007013
 184	9.1500e-02	1.8292	-10.813788	0.000445	4.446692	0.753290	0.008895
 185	9.2000e-02	1.8341	-10.763756	0.000500	5.002529	0.847451	0.010006
 186	9.2500e-02	1.8440	-10.695763	0.000680	6.798308	1.151665	0.013598
 187	9.3000e-02	1.8577	-10.652146	0.000436	4.361179	0.738804	0.008724
 188	9.3500e-02	1.8658	-10.599548	0.000526	5.259069	0.890910	0.010520
 189	9.4000e-02	1.8750	-10.569614	0.000299	2.992966	0.507022	0.005987
 190	9.4500e-02	1.8858	-10.510602	0.000590	5.900418	0.999558	0.011802
 191	9.5000e-02	1.8980	-10.449879	0.000607	6.071445	1.028531	0.012145
 192	9.5500e-02	1.9116	-10.419090	0.000308	3.078479	0.521508	0.006158
 193	9.6000e-02	1.9168	-10.354946	0.000641	6.413498	1.086476	0.012829
 194	9.6500e-02	1.9269	-10.317315	0.000376	3.762586	0.637399	0.007526
 195	9.7000e-02	1.9379	-10.256165	0.000611	6.114202	1.035774	0.012230
 196	9.7500e-02	1.9440	-10.213830	0.000423	4.232909	0.717074	0.008467
 197	9.8000e-02	1.9565	-10.160804	0.000530	5.301825	0.898154	0.010605
 198	9.8500e-02	1.9659	-10.118897	0.000419	4.190152	0.709831	0.008381
 199	9.9000e-02	1.9757	-10.070148	0.000487	4.874259	0.825722	0.009750
 200	9.9500e-02	1.9865	-10.030806	0.000393	3.933612	0.666372	0.007868
 201	1.0000e-01	1.9957	-9.964097	0.000667	6.670038	1.129935	0.013342
 202	1.0050e-01	2.0071	-9.904229	0.000599	5.985932	1.014044	0.011974
 203	1.0100e-01	2.0172	-9.862322	0.000419	4.190152	0.709831	0.008381
 204	1.0150e-01	2.0250	-9.815711	0.000466	4.660475	0.789506	0.009322
 205	1.0200e-01	2.0371	-9.766961	0.000487	4.874259	0.825722	0.009750
 206	1.0250e-01	2.0464	-9.697686	0.000693	6.926578	1.173394	0.013855
 207	1.0300e-01	2.0569	-9.658344	0.000393	3.933612	0.666372	0.007868
 208	1.0350e-01	2.0656	-9.609595	0.000487	4.874259	0.825722	0.009750
 209	1.0400e-01	2.0734	-9.573675	0.000359	3.591559	0.608427	0.007184
 210	1.0450e-01	2.0892	-9.524070	0.000496	4.959772	0.840208	0.009921
 211	1.0500e-01	2.0950	-9.468906	0.000552	5.515609	0.934369	0.011033
 212	1.0550e-01	2.1088	-9.439400	0.000295	2.950209	0.499779	0.005901
 213	1.0600e-01	2.1164	-9.376539	0.000629	6.285228	1.064747	0.012572
 214	1.0650e-01	2.1281	-9.337198	0.000393	3.933612	0.666372	0.007868
 215	1.0700e-01	2.1375	-9.270488	0.000667	6.670038	1.129935	0.013342
 216	1.0750e-01	2.1442	-9.244831	0.000257	2.565399	0.434590	0.005132
 217	1.0800e-01	2.1558	-9.191805	0.000530	5.301825	0.898154	0.010605
 218	1.0850e-01	2.1669	-9.139207	0.000526	5.259069	0.890910	0.010520
 219	1.0900e-01	2.1741	-9.077202	0.000620	6.199715	1.050260	0.012401
 220	1.0950e-01	2.1849	-9.052827	0.000244	2.437129	0.412861	0.004875
 221	1.1000e-01	2.1959	-8.988256	0.000646	6.456255	1.093719	0.012914
 222	1.1050e-01	2.2063	-8.927533	0.000607	6.071445	1.028531	0.012145
 223	1.1100e-01	2.2179	-8.881349	0.000462	4.617719	0.782263	0.009237
 224	1.1150e-01	2.2281	-8.847567	0.000338	3.377776	0.572211	0.006756
 225	1.1200e-01	2.2363	-8.801811	0.000457	4.574962	0.775020	0.009151
 226	1.1250e-01	2.2455	-8.764180	0.000376	3.762586	0.637399	0.007526
 227	1.1300e-01	2.2540	-8.714575	0.000496	4.959772	0.840208	0.009921
 228	1.1350e-01	2.2662	-8.652142	0.000624	6.242472	1.057503	0.012487
 229	1.1400e-01	2.2780	-8.615366	0.000368	3.677072	0.622913	0.007355
 230	1.1450e-01	2.2849	-8.563196	0.000522	5.216312	0.883667	0.010434
 231	1.1500e-01	2.2960	-8.498625	0.000646	6.456255	1.093719	0.012914
 232	1.1550e-01	2.3067	-8.469974	0.000286	2.864696	0.485293	0.005730
 233	1.1600e-01	2.3157	-8.411389	0.000586	5.857662	0.992315	0.011717
 234	1.1650e-01	2.3276	-8.374613	0.000368	3.677072	0.622913	0.007355
 235	1.1700e-01	2.3376	-8.317312	0.000573	5.729392	0.970585	0.011460
 236	1.1750e-01	2.3438	-8.280108	0.000372	3.719829	0.630156	0.007441
 237	1.1800e-01	2.3573	-8.227083	0.000530	5.301825	0.898154	0.010605
 238	1.1850e-01	2.3669	-8.169781	0.000573	5.729392	0.970585	0.011460
 239	1.1900e-01	2.3773	-8.124453	0.000453	4.532206	0.767776	0.009066
 240	1.1950e-01	2.3883	-8.097940	0.000265	2.650913	0.449077	0.005303
 241	1.2000e-01	2.3965	-8.041066	0.000569	5.686635	0.963342	0.011375
 242	1.2050e-01	2.4088	-7.983764	0.000573	5.729392	0.970585	0.011460
 243	1.2100e-01	2.4200	-7.936725	0.000470	4.703232	0.796749	0.009408
 244	1.2150e-01	2.4252	-7.899949	0.000368	3.677072	0.622913	0.007355
 245	1.2200e-01	2.4316	-7.835806	0.000641	6.413498	1.086476	0.012829
 246	1.2250e-01	2.4467	-7.817845	0.000180	1.795780	0.304213	0.003592
 247	1.2300e-01	2.4568	-7.757122	0.000607	6.071445	1.028531	0.012145
 248	1.2350e-01	2.4686	-7.719064	0.000381	3.805342	0.644642	0.007612
 249	1.2400e-01	2.4756	-7.650644	0.000684	6.841065	1.158908	0.013684
 250	1.2450e-01	2.4875	-7.603605	0.000470	4.703232	0.796749	0.009408
 251	1.2500e-01	2.4974	-7.566829	0.000368	3.677072	0.622913	0.007355
 252	1.2550e-01	2.5075	-7.513804	0.000530	5.301825	0.898154	0.010605
 253	1.2600e-01	2.5174	-7.476600	0.000372	3.719829	0.630156	0.007441
 254	1.2650e-01	2.5285	-7.426996	0.000496	4.959772	0.840208	0.009921
 255	1.2700e-01	2.5368	-7.383806	0.000432	4.318422	0.731561	0.008638
 256	1.2750e-01	2.5443	-7.341043	0.000428	4.275666	0.724317	0.008553
 257	1.2800e-01	2.5526	-7.285024	0.000560	5.601122	0.948856	0.011204
 258	1.2850e-01	2.5662	-7.247821	0.000372	3.719829	0.630156	0.007441
 259	1.2900e-01	2.5760	-7.179828	0.000680	6.798308	1.151665	0.013598
 260	1.2950e-01	2.5880	-7.131079	0.000487	4.874259	0.825722	0.009750
 261	1.3000e-01	2.5966	-7.096014	0.000351	3.506046	0.593940	0.007013
 262	1.3050e-01	2.6068	-7.046409	0.000496	4.959772	0.840208	0.009921
 263	1.3100e-01	2.6154	-6.983976	0.000624	6.242472	1.057503	0.012487
 264	1.3150e-01	2.6271	-6.949766	0.000342	3.420532	0.579454	0.006842
 265	1.3200e-01	2.6364	-6.910852	0.000389	3.890856	0.659129	0.007783
 266	1.3250e-01	2.6457	-6.868090	0.000428	4.275666	0.724317	0.008553
 267	1.3300e-01	2.6544	-6.801380	0.000667	6.670038	1.129935	0.013342
 268	1.3350e-01	2.6682	-6.774012	0.000274	2.736426	0.463563	0.005474
 269	1.3400e-01	2.6766	-6.731249	0.000428	4.275666	0.724317	0.008553
 270	1.3450e-01	2.6826	-6.655987	0.000753	7.525171	1.274799	0.015052
 271	1.3500e-01	2.6947	-6.624343	0.000316	3.163993	0.535995	0.006329
 272	1.3550e-01	2.7074	-6.579015	0.000453	4.532206	0.767776	0.009066
 273	1.3600e-01	2.7164	-6.539673	0.000393	3.933612	0.666372	0.007868
 274	1.3650e-01	2.7267	-6.490069	0.000496	4.959772	0.840208	0.009921
 275	1.3700e-01	2.7342	-6.444741	0.000453	4.532206	0.767776	0.009066
 276	1.3750e-01	2.7467	-6.406254	0.000385	3.848099	0.651886	0.007697
 277	1.3800e-01	2.7557	-6.355367	0.000509	5.088042	0.861938	0.010177
 278	1.3850e-01	2.7657	-6.294644	0.000607	6.071445	1.028531	0.012145
 279	1.3900e-01	2.7760	-6.272835	0.000218	2.180589	0.369402	0.004362
 280	1.3950e-01	2.7876	-6.211257	0.000616	6.156958	1.043017	0.012316
 281	1.4000e-01	2.7977	-6.148396	0.000629	6.285228	1.064747	0.012572
 282	1.4050e-01	2.8053	-6.111620	0.000368	3.677072	0.622913	0.007355
 283	1.4100e-01	2.8214	-6.076555	0.000351	3.506046	0.593940	0.007013
 284	1.4150e-01	2.8275	-6.031654	0.000449	4.489449	0.760533	0.008980
 285	1.4200e-01	2.8381	-5.971359	0.000603	6.028688	1.021287	0.012059
 286	1.4250e-01	2.8468	-5.939287	0.000321	3.206749	0.543238	0.006414
 287	1.4300e-01	2.8571	-5.870012	0.000693	6.926578	1.173394	0.013855
 288	1.4350e-01	2.8658	-5.852052	0.000180	1.795780	0.304213	0.003592
 289	1.4400e-01	2.8745	-5.777645	0.000744	7.439658	1.260312	0.014881
 290	1.4450e-01	2.8864	-5.768665	0.000090	0.897890	0.152107	0.001796
 291	1.4500e-01	2.8963	-5.687844	0.000808	8.081008	1.368960	0.016164
 292	1.4550e-01	2.9068	-5.660476	0.000274	2.736426	0.463563	0.005474
 293	1.4600e-01	2.9168	-5.625838	0.000346	3.463289	0.586697	0.006928
 294	1.4650e-01	2.9271	-5.573668	0.000522	5.216312	0.883667	0.010434
 295	1.4700e-01	2.9395	-5.539030	0.000346	3.463289	0.586697	0.006928
 296	1.4750e-01	2.9443	-5.492847	0.000462	4.617719	0.782263	0.009237
 297	1.4800e-01	2.9569	-5.438538	0.000543	5.430095	0.919883	0.010862
 298	1.4850e-01	2.9669	-5.376105	0.000624	6.242472	1.057503	0.012487
 299	1.4900e-01	2.9773	-5.322652	0.000534	5.344582	0.905397	0.010691
 300	1.4950e-01	2.9883	-5.296567	0.000261	2.608156	0.441834	0.005217
 301	1.5000e-01	2.9974	-5.263640	0.000329	3.292262	0.557724	0.006585
 302	1.5050e-01	3.0061	-5.221305	0.000423	4.232909	0.717074	0.008467
 303	1.5100e-01	3.0172	-5.160582	0.000607	6.071445	1.028531	0.012145
 304	1.5150e-01	3.0267	-5.114826	0.000457	4.574962	0.775020	0.009151
 305	1.5200e-01	3.0383	-5.062228	0.000526	5.259069	0.890910	0.010520
 306	1.5250e-01	3.0463	-5.041702	0.000205	2.052319	0.347672	0.004105
 307	1.5300e-01	3.0576	-4.984400	0.000573	5.729392	0.970585	0.011460
 308	1.5350e-01	3.0658	-4.930519	0.000539	5.387339	0.912640	0.010776
 309	1.5400e-01	3.0780	-4.888612	0.000419	4.190152	0.709831	0.008381
 310	1.5450e-01	3.0875	-4.848843	0.000398	3.976369	0.673615	0.007954
 311	1.5500e-01	3.0951	-4.818482	0.000304	3.035723	0.514265	0.006072
 312	1.5550e-01	3.1070	-4.751344	0.000671	6.712795	1.137178	0.013427
 313	1.5600e-01	3.1158	-4.721411	0.000299	2.992966	0.507022	0.005987
 314	1.5650e-01	3.1242	-4.682497	0.000389	3.890856	0.659129	0.007783
 315	1.5700e-01	3.1356	-4.640589	0.000419	4.190152	0.709831	0.008381
 316	1.5750e-01	3.1477	-4.576018	0.000646	6.456255	1.093719	0.012914
 317	1.5800e-01	3.1592	-4.543946	0.000321	3.206749	0.543238	0.006414
 318	1.5850e-01	3.1679	-4.489638	0.000543	5.430095	0.919883	0.010862
 319	1.5900e-01	3.1775	-4.428060	0.000616	6.156958	1.043017	0.012316
 320	1.5950e-01	3.1866	-4.408389	0.000197	1.966806	0.333186	0.003934
 321	1.6000e-01	3.1979	-4.351515	0.000569	5.686635	0.963342	0.011375
 322	1.6050e-01	3.2056	-4.304048	0.000475	4.745989	0.803992	0.009493
 323	1.6100e-01	3.2167	-4.262569	0.000415	4.147396	0.702588	0.008296
 324	1.6150e-01	3.2245	-4.214247	0.000483	4.831502	0.818479	0.009664
 325	1.6200e-01	3.2355	-4.184741	0.000295	2.950209	0.499779	0.005901
 326	1.6250e-01	3.2459	-4.146255	0.000385	3.848099	0.651886	0.007697
 327	1.6300e-01	3.2574	-4.106058	0.000402	4.019126	0.680858	0.008039
 328	1.6350e-01	3.2680	-4.041914	0.000641	6.413498	1.086476	0.012829
 329	1.6400e-01	3.2773	-4.000434	0.000415	4.147396	0.702588	0.008296
 330	1.6450e-01	3.2867	-3.955534	0.000449	4.489449	0.760533	0.008980
 331	1.6500e-01	3.2983	-3.897377	0.000581	5.814905	0.985072	0.011631
 332	1.6550e-01	3.3072	-3.859318	0.000381	3.805342	0.644642	0.007612
 333	1.6600e-01	3.3157	-3.816556	0.000428	4.275666	0.724317	0.008553
 334	1.6650e-01	3.3296	-3.772083	0.000445	4.446692	0.753290	0.008895
 335	1.6700e-01	3.3365	-3.728037	0.000440	4.403936	0.746047	0.008809
 336	1.6750e-01	3.3444	-3.672873	0.000552	5.515609	0.934369	0.011033
 337	1.6800e-01	3.3560	-3.648926	0.000239	2.394373	0.405618	0.004789
 338	1.6850e-01	3.3679	-3.599322	0.000496	4.959772	0.840208	0.009921
 339	1.6900e-01	3.3741	-3.560836	0.000385	3.848099	0.651886	0.007697
 340	1.6950e-01	3.3881	-3.518928	0.000419	4.190152	0.709831	0.008381
 341	1.7000e-01	3.3984	-3.459488	0.000594	5.943175	1.006801	0.011888
 342	1.7050e-01	3.4081	-3.413733	0.000457	4.574962	0.775020	0.009151
 343	1.7100e-01	3.4169	-3.370970	0.000428	4.275666	0.724317	0.008553
 344	1.7150e-01	3.4262	-3.338043	0.000329	3.292262	0.557724	0.006585
 345	1.7200e-01	3.4381	-3.281596	0.000564	5.643879	0.956099	0.011289
 346	1.7250e-01	3.4454	-3.226860	0.000547	5.472852	0.927126	0.010947
 347	1.7300e-01	3.4546	-3.210183	0.000167	1.667510	0.282484	0.003335
 348	1.7350e-01	3.4680	-3.163572	0.000466	4.660475	0.789506	0.009322
 349	1.7400e-01	3.4769	-3.122092	0.000415	4.147396	0.702588	0.008296
 350	1.7450e-01	3.4879	-3.068211	0.000539	5.387339	0.912640	0.010776
 351	1.7500e-01	3.4949	-3.043409	0.000248	2.479886	0.420104	0.004960
 352	1.7550e-01	3.5056	-2.987390	0.000560	5.601122	0.948856	0.011204
 353	1.7600e-01	3.5184	-2.944628	0.000428	4.275666	0.724317	0.008553
 354	1.7650e-01	3.5268	-2.898016	0.000466	4.660475	0.789506	0.009322
 355	1.7700e-01	3.5352	-2.861668	0.000363	3.634316	0.615670	0.007270
 356	1.7750e-01	3.5468	-2.809070	0.000526	5.259069	0.890910	0.010520
 357	1.7800e-01	3.5559	-2.787689	0.000214	2.137833	0.362159	0.004276
 358	1.7850e-01	3.5659	-2.724828	0.000629	6.285228	1.064747	0.012572
 359	1.7900e-01	3.5755	-2.669665	0.000552	5.515609	0.934369	0.011033
 360	1.7950e-01	3.5880	-2.634599	0.000351	3.506046	0.593940	0.007013
 361	1.8000e-01	3.5980	-2.598251	0.000363	3.634316	0.615670	0.007270
 362	1.8050e-01	3.6089	-2.559337	0.000389	3.890856	0.659129	0.007783
 363	1.8100e-01	3.6172	-2.483648	0.000757	7.567928	1.282042	0.015138
 364	1.8150e-01	3.6273	-2.473385	0.000103	1.026160	0.173836	0.002053
 365	1.8200e-01	3.6371	-2.442168	0.000312	3.121236	0.528752	0.006243
 366	1.8250e-01	3.6475	-2.388715	0.000534	5.344582	0.905397	0.010691
 367	1.8300e-01	3.6586	-2.342104	0.000466	4.660475	0.789506	0.009322
 368	1.8350e-01	3.6673	-2.295920	0.000462	4.617719	0.782263	0.009237
 369	1.8400e-01	3.6768	-2.249737	0.000462	4.617719	0.782263	0.009237
 370	1.8450e-01	3.6880	-2.196711	0.000530	5.301825	0.898154	0.010605
 371	1.8500e-01	3.6963	-2.156514	0.000402	4.019126	0.680858	0.008039
 372	1.8550e-01	3.7042	-2.117600	0.000389	3.890856	0.659129	0.007783
 373	1.8600e-01	3.7195	-2.084246	0.000334	3.335019	0.564968	0.006671
 374	1.8650e-01	3.7247	-2.045759	0.000385	3.848099	0.651886	0.007697
 375	1.8700e-01	3.7378	-2.000003	0.000457	4.574962	0.775020	0.009151
 376	1.8750e-01	3.7477	-1.949116	0.000509	5.088042	0.861938	0.010177
 377	1.8800e-01	3.7579	-1.907636	0.000415	4.147396	0.702588	0.008296
 378	1.8850e-01	3.7679	-1.874282	0.000334	3.335019	0.564968	0.006671
 379	1.8900e-01	3.7762	-1.823822	0.000505	5.045285	0.854694	0.010092
 380	1.8950e-01	3.7875	-1.777638	0.000462	4.617719	0.782263	0.009237
 381	1.9000e-01	3.7952	-1.734448	0.000432	4.318422	0.731561	0.008638
 382	1.9050e-01	3.8037	-1.688692	0.000457	4.574962	0.775020	0.009151
 383	1.9100e-01	3.8165	-1.656193	0.000325	3.249506	0.550481	0.006500
 384	1.9150e-01	3.8287	-1.615141	0.000410	4.104639	0.695345	0.008210
 385	1.9200e-01	3.8356	-1.567247	0.000479	4.788745	0.811235	0.009579
 386	1.9250e-01	3.8464	-1.514221	0.000530	5.301825	0.898154	0.010605
 387	1.9300e-01	3.8580	-1.484715	0.000295	2.950209	0.499779	0.005901
 388	1.9350e-01	3.8684	-1.427841	0.000569	5.686635	0.963342	0.011375
 389	1.9400e-01	3.8725	-1.400045	0.000278	2.779183	0.470806	0.005559
 390	1.9450e-01	3.8837	-1.358565	0.000415	4.147396	0.702588	0.008296
 391	1.9500e-01	3.8959	-1.323928	0.000346	3.463289	0.586697	0.006928
 392	1.9550e-01	3.9046	-1.274323	0.000496	4.959772	0.840208	0.009921
 393	1.9600e-01	3.9148	-1.233699	0.000406	4.061882	0.688101	0.008125
 394	1.9650e-01	3.9270	-1.183667	0.000500	5.002529	0.847451	0.010006
 395	1.9700e-01	3.9345	-1.145180	0.000385	3.848099	0.651886	0.007697
 396	1.9750e-01	3.9476	-1.117385	0.000278	2.779183	0.470806	0.005559
 397	1.9800e-01	3.9578	-1.051958	0.000654	6.541768	1.108206	0.013085
 398	1.9850e-01	3.9632	-1.013044	0.000389	3.890856	0.659129	0.007783
 399	1.9900e-01	3.9752	-0.978834	0.000342	3.420532	0.579454	0.006842
 400	1.9950e-01	3.9880	-0.961302	0.000175	1.753023	0.296970	0.003507
 401	2.0000e-01	3.9951	-0.904000	0.000573	5.729392	0.970585	0.011460
 402	2.0050e-01	4.0024	-0.862948	0.000410	4.104639	0.695345	0.008210
 403	2.0100e-01	4.0158	-0.813771	0.000492	4.917015	0.832965	0.009835
 404	2.0150e-01	4.0248	-0.782982	0.000308	3.078479	0.521508	0.006158
 405	2.0200e-01	4.0358	-0.746206	0.000368	3.677072	0.622913	0.007355
 406	2.0250e-01	4.0448	-0.660253	0.000859	8.594088	1.455878	0.017191
 407	2.0300e-01	4.0578	-0.641866	0.000184	1.838536	0.311456	0.003678
 408	2.0350e-01	4.0683	-0.585847	0.000560	5.601122	0.948856	0.011204
 409	2.0400e-01	4.0775	-0.557196	0.000286	2.864696	0.485293	0.005730
 410	2.0450e-01	4.0860	-0.509729	0.000475	4.745989	0.803992	0.009493
 411	2.0500e-01	4.0973	-0.492624	0.000171	1.710266	0.289727	0.003421
 412	2.0550e-01	4.1074	-0.446868	0.000457	4.574962	0.775020	0.009151
 413	2.0600e-01	4.1135	-0.390850	0.000560	5.601122	0.948856	0.011204
 414	2.0650e-01	4.1257	-0.343811	0.000470	4.703232	0.796749	0.009408
 415	2.0700e-01	4.1376	-0.306607	0.000372	3.719829	0.630156	0.007441
 416	2.0750e-01	4.1479	-0.264700	0.000419	4.190152	0.709831	0.008381
 417	2.0800e-01	4.1560	-0.242464	0.000222	2.223346	0.376645	0.004447
 418	2.0850e-01	4.1646	-0.183451	0.000590	5.900418	0.999558	0.011802
 419	2.0900e-01	4.1730	-0.183451	0.000000	0.000000	0.000000	0.000000
 420	2.0950e-01	4.1873	-0.110755	0.000727	7.268631	1.231340	0.014539
 421	2.1000e-01	4.1969	-0.052598	0.000581	5.814905	0.985072	0.011631
 422	2.1050e-01	4.2056	-0.031644	0.000210	2.095076	0.354916	0.004191
 423	2.1100e-01	4.2169	0.034638	0.000663	6.627282	1.122692	0.013256
 424	2.1150e-01	4.2255	0.053453	0.000188	1.881293	0.318700	0.003763
 425	2.1200e-01	4.2355	0.091939	0.000385	3.848099	0.651886	0.007697
 426	2.1250e-01	4.2462	0.134702	0.000428	4.275666	0.724317	0.008553
 427	2.1300e-01	4.2578	0.149241	0.000145	1.453726	0.246268	0.002908
 428	2.1350e-01	4.2682	0.227497	0.000782	7.824468	1.325501	0.015651
 429	2.1400e-01	4.2754	0.265555	0.000381	3.805342	0.644642	0.007612
 430	2.1450e-01	4.2859	0.305752	0.000402	4.019126	0.680858	0.008039
 431	2.1500e-01	4.2949	0.347232	0.000415	4.147396	0.702588	0.008296
 432	2.1550e-01	4.3091	0.379304	0.000321	3.206749	0.543238	0.006414
 433	2.1600e-01	4.3161	0.438316	0.000590	5.900418	0.999558	0.011802
 434	2.1650e-01	4.3274	0.461408	0.000231	2.308859	0.391131	0.004618
 435	2.1700e-01	4.3372	0.502460	0.000410	4.104639	0.695345	0.008210
 436	2.1750e-01	4.3494	0.540518	0.000381	3.805342	0.644642	0.007612
 437	2.1800e-01	4.3587	0.563610	0.000231	2.308859	0.391131	0.004618
 438	2.1850e-01	4.3665	0.623905	0.000603	6.028688	1.021287	0.012059
 439	2.1900e-01	4.3747	0.653411	0.000295	2.950209	0.499779	0.005901
 440	2.1950e-01	4.3864	0.712851	0.000594	5.943175	1.006801	0.011888
 441	2.2000e-01	4.3970	0.745351	0.000325	3.249506	0.550481	0.006500
 442	2.2050e-01	4.4077	0.788113	0.000428	4.275666	0.724317	0.008553
 443	2.2100e-01	4.4177	0.843277	0.000552	5.515609	0.934369	0.011033
 444	2.2150e-01	4.4264	0.867224	0.000239	2.394373	0.405618	0.004789
 445	2.2200e-01	4.4406	0.905710	0.000385	3.848099	0.651886	0.007697
 446	2.2250e-01	4.4464	0.953604	0.000479	4.788745	0.811235	0.009579
 447	2.2300e-01	4.4556	0.985249	0.000316	3.163993	0.535995	0.006329
 448	2.2350e-01	4.4662	1.021169	0.000359	3.591559	0.608427	0.007184
 449	2.2400e-01	4.4775	1.060511	0.000393	3.933612	0.666372	0.007868
 450	2.2450e-01	4.4879	1.083175	0.000227	2.266103	0.383888	0.004533
 451	2.2500e-01	4.4958	1.149884	0.000667	6.670038	1.129935	0.013342
 452	2.2550e-01	4.5053	1.185805	0.000359	3.591559	0.608427	0.007184
 453	2.2600e-01	4.5168	1.231988	0.000462	4.617719	0.782263	0.009237
 454	2.2650e-01	4.5278	1.261495	0.000295	2.950209	0.499779	0.005901
 455	2.2700e-01	4.5364	1.305968	0.000445	4.446692	0.753290	0.008895
 456	2.2750e-01	4.5474	1.362414	0.000564	5.643879	0.956099	0.011289
 457	2.2800e-01	4.5575	1.388499	0.000261	2.608156	0.441834	0.005217
 458	2.2850e-01	4.5682	1.435538	0.000470	4.703232	0.796749	0.009408
 459	2.2900e-01	4.5764	1.491557	0.000560	5.601122	0.948856	0.011204
 460	2.2950e-01	4.5874	1.526195	0.000346	3.463289	0.586697	0.006928
 461	2.3000e-01	4.5972	1.556556	0.000304	3.035723	0.514265	0.006072
 462	2.3050e-01	4.6065	1.601029	0.000445	4.446692	0.753290	0.008895
 463	2.3100e-01	4.6188	1.623693	0.000227	2.266103	0.383888	0.004533
 464	2.3150e-01	4.6295	1.665600	0.000419	4.190152	0.709831	0.008381
 465	2.3200e-01	4.6370	1.718198	0.000526	5.259069	0.890910	0.010520
 466	2.3250e-01	4.6463	1.733165	0.000150	1.496483	0.253511	0.002993
 467	2.3300e-01	4.6570	1.802441	0.000693	6.926578	1.173394	0.013855
 468	2.3350e-01	4.6661	1.818263	0.000158	1.581996	0.267997	0.003164
 469	2.3400e-01	4.6774	1.872143	0.000539	5.387339	0.912640	0.010776
 470	2.3450e-01	4.6875	1.905926	0.000338	3.377776	0.572211	0.006756
 471	2.3500e-01	4.6960	1.935432	0.000295	2.950209	0.499779	0.005901
 472	2.3550e-01	4.7083	1.997010	0.000616	6.156958	1.043017	0.012316
 473	2.3600e-01	4.7198	2.019247	0.000222	2.223346	0.376645	0.004447
 474	2.3650e-01	4.7278	2.072700	0.000534	5.344582	0.905397	0.010691
 475	2.3700e-01	4.7375	2.104772	0.000321	3.206749	0.543238	0.006414
 476	2.3750e-01	4.7467	2.153949	0.000492	4.917015	0.832965	0.009835
 477	2.3800e-01	4.7601	2.187731	0.000338	3.377776	0.572211	0.006756
 478	2.3850e-01	4.7678	2.215527	0.000278	2.779183	0.470806	0.005559
 479	2.3900e-01	4.7784	2.242467	0.000269	2.693669	0.456320	0.005388
 480	2.3950e-01	4.7855	2.307894	0.000654	6.541768	1.108206	0.013085
 481	2.4000e-01	4.7955	2.352794	0.000449	4.489449	0.760533	0.008980
 482	2.4050e-01	4.8083	2.374176	0.000214	2.137833	0.362159	0.004276
 483	2.4100e-01	4.8157	2.410951	0.000368	3.677072	0.622913	0.007355
 484	2.4150e-01	4.8282	2.454141	0.000432	4.318422	0.731561	0.008638
 485	2.4200e-01	4.8353	2.491345	0.000372	3.719829	0.630156	0.007441
 486	2.4250e-01	4.8462	2.530686	0.000393	3.933612	0.666372	0.007868
 487	2.4300e-01	4.8572	2.573021	0.000423	4.232909	0.717074	0.008467
 488	2.4350e-01	4.8634	2.633744	0.000607	6.071445	1.028531	0.012145
 489	2.4400e-01	4.8764	2.647000	0.000133	1.325456	0.224538	0.002651
 490	2.4450e-01	4.8892	2.683349	0.000363	3.634316	0.615670	0.007270
 491	2.4500e-01	4.8993	2.739795	0.000564	5.643879	0.956099	0.011289
 492	2.4550e-01	4.9072	2.763315	0.000235	2.351616	0.398375	0.004704
 493	2.4600e-01	4.9207	2.797952	0.000346	3.463289	0.586697	0.006928
 494	2.4650e-01	4.9292	2.860813	0.000629	6.285228	1.064747	0.012572
 495	2.4700e-01	4.9371	2.873214	0.000124	1.239943	0.210052	0.002480
 496	2.4750e-01	4.9472	2.914266	0.000410	4.104639	0.695345	0.008210
 497	2.4800e-01	4.9601	2.974989	0.000607	6.071445	1.028531	0.012145
 498	2.4850e-01	4.9643	3.004495	0.000295	2.950209	0.499779	0.005901
 499	2.4900e-01	4.9780	3.050679	0.000462	4.617719	0.782263	0.009237
 500	2.4950e-01	4.9881	3.079757	0.000291	2.907453	0.492536	0.005816
 501	2.5000e-01	4.9976	3.122947	0.000432	4.318422	0.731561	0.008638
 502	2.5050e-01	5.0079	3.157585	0.000346	3.463289	0.586697	0.006928
 503	2.5100e-01	5.0186	3.194361	0.000368	3.677072	0.622913	0.007355
 504	2.5150e-01	5.0299	3.259787	0.000654	6.541768	1.108206	0.013085
 505	2.5200e-01	5.0366	3.255084	-0.000047	-0.470323	-0.079675	-0.000941
 506	2.5250e-01	5.0482	3.302978	0.000479	4.788745	0.811235	0.009579
 507	2.5300e-01	5.0557	3.347023	0.000440	4.403936	0.746047	0.008809
 508	2.5350e-01	5.0653	3.376102	0.000291	2.907453	0.492536	0.005816
 509	2.5400e-01	5.0781	3.434686	0.000586	5.857662	0.992315	0.011717
 510	2.5450e-01	5.0854	3.449225	0.000145	1.453726	0.246268	0.002908
 511	2.5500e-01	5.0977	3.514225	0.000650	6.499012	1.100962	0.013000
 512	2.5550e-01	5.1053	3.538172	0.000239	2.394373	0.405618	0.004789
 513	2.5600e-01	5.1160	3.555277	0.000171	1.710266	0.289727	0.003421
 514	2.5650e-01	5.1276	3.619420	0.000641	6.413498	1.086476	0.012829
 515	2.5700e-01	5.1337	3.649782	0.000304	3.035723	0.514265	0.006072
 516	2.5750e-01	5.1483	3.681426	0.000316	3.163993	0.535995	0.006329
 517	2.5800e-01	5.1552	3.724616	0.000432	4.318422	0.731561	0.008638
 518	2.5850e-01	5.1672	3.778497	0.000539	5.387339	0.912640	0.010776
 519	2.5900e-01	5.1770	3.810141	0.000316	3.163993	0.535995	0.006329
 520	2.5950e-01	5.1825	3.844779	0.000346	3.463289	0.586697	0.006928
 521	2.6000e-01	5.1993	3.879844	0.000351	3.506046	0.593940	0.007013
 522	2.6050e-01	5.2072	3.904219	0.000244	2.437129	0.412861	0.004875
 523	2.6100e-01	5.2136	3.948692	0.000445	4.446692	0.753290	0.008895
 524	2.6150e-01	5.2277	3.997441	0.000487	4.874259	0.825722	0.009750
 525	2.6200e-01	5.2374	4.023099	0.000257	2.565399	0.434590	0.005132
 526	2.6250e-01	5.2463	4.068427	0.000453	4.532206	0.767776	0.009066
 527	2.6300e-01	5.2589	4.088953	0.000205	2.052319	0.347672	0.004105
 528	2.6350e-01	5.2650	4.145399	0.000564	5.643879	0.956099	0.011289
 529	2.6400e-01	5.2765	4.197142	0.000517	5.173555	0.876424	0.010349
 530	2.6450e-01	5.2847	4.209116	0.000120	1.197186	0.202809	0.002395
 531	2.6500e-01	5.2961	4.254871	0.000457	4.574962	0.775020	0.009151
 532	2.6550e-01	5.3076	4.298062	0.000432	4.318422	0.731561	0.008638
 533	2.6600e-01	5.3152	4.344245	0.000462	4.617719	0.782263	0.009237
 534	2.6650e-01	5.3261	4.370330	0.000261	2.608156	0.441834	0.005217
 535	2.6700e-01	5.3363	4.424211	0.000539	5.387339	0.912640	0.010776
 536	2.6750e-01	5.3485	4.434474	0.000103	1.026160	0.173836	0.002053
 537	2.6800e-01	5.3580	4.481941	0.000475	4.745989	0.803992	0.009493
 538	2.6850e-01	5.3650	4.526841	0.000449	4.489449	0.760533	0.008980
 539	2.6900e-01	5.3772	4.561479	0.000346	3.463289	0.586697	0.006928
 540	2.6950e-01	5.3857	4.603814	0.000423	4.232909	0.717074	0.008467
 541	2.7000e-01	5.3940	4.646149	0.000423	4.232909	0.717074	0.008467
 542	2.7050e-01	5.4083	4.664964	0.000188	1.881293	0.318700	0.003763
 543	2.7100e-01	5.4163	4.689339	0.000244	2.437129	0.412861	0.004875
 544	2.7150e-01	5.4272	4.748779	0.000594	5.943175	1.006801	0.011888
 545	2.7200e-01	5.4370	4.781278	0.000325	3.249506	0.550481	0.006500
 546	2.7250e-01	5.4443	4.827889	0.000466	4.660475	0.789506	0.009322
 547	2.7300e-01	5.4590	4.841573	0.000137	1.368213	0.231782	0.002737
 548	2.7350e-01	5.4681	4.901013	0.000594	5.943175	1.006801	0.011888
 549	2.7400e-01	5.4779	4.950618	0.000496	4.959772	0.840208	0.009921
 550	2.7450e-01	5.4852	4.985683	0.000351	3.506046	0.593940	0.007013
 551	2.7500e-01	5.4974	5.008775	0.000231	2.308859	0.391131	0.004618
 552	2.7550e-01	5.5074	5.041702	0.000329	3.292262	0.557724	0.006585
 553	2.7600e-01	5.5185	5.072063	0.000304	3.035723	0.514265	0.006072
 554	2.7650e-01	5.5280	5.118675	0.000466	4.660475	0.789506	0.009322
 555	2.7700e-01	5.5360	5.152029	0.000334	3.335019	0.564968	0.006671
 556	2.7750e-01	5.5475	5.188377	0.000363	3.634316	0.615670	0.007270
 557	2.7800e-01	5.5550	5.233706	0.000453	4.532206	0.767776	0.009066
 558	2.7850e-01	5.5670	5.257225	0.000235	2.351616	0.398375	0.004704
 559	2.7900e-01	5.5780	5.296994	0.000398	3.976369	0.673615	0.007954
 560	2.7950e-01	5.5875	5.323935	0.000269	2.693669	0.456320	0.005388
 561	2.8000e-01	5.5969	5.376960	0.000530	5.301825	0.898154	0.010605
 562	2.8050e-01	5.6076	5.406466	0.000295	2.950209	0.499779	0.005901
 563	2.8100e-01	5.6149	5.455643	0.000492	4.917015	0.832965	0.009835
 564	2.8150e-01	5.6268	5.474031	0.000184	1.838536	0.311456	0.003678
 565	2.8200e-01	5.6372	5.515083	0.000410	4.104639	0.695345	0.008210
 566	2.8250e-01	5.6464	5.562977	0.000479	4.788745	0.811235	0.009579
 567	2.8300e-01	5.6586	5.576234	0.000133	1.325456	0.224538	0.002651
 568	2.8350e-01	5.6671	5.618568	0.000423	4.232909	0.717074	0.008467
 569	2.8400e-01	5.6787	5.657482	0.000389	3.890856	0.659129	0.007783
 570	2.8450e-01	5.6868	5.711791	0.000543	5.430095	0.919883	0.010862
 571	2.8500e-01	5.6961	5.745573	0.000338	3.377776	0.572211	0.006756
 572	2.8550e-01	5.7069	5.773369	0.000278	2.779183	0.470806	0.005559
 573	2.8600e-01	5.7166	5.811000	0.000376	3.762586	0.637399	0.007526
 574	2.8650e-01	5.7266	5.864453	0.000534	5.344582	0.905397	0.010691
 575	2.8700e-01	5.7375	5.899091	0.000346	3.463289	0.586697	0.006928
 576	2.8750e-01	5.7474	5.908071	0.000090	0.897890	0.152107	0.001796
 577	2.8800e-01	5.7593	5.961524	0.000534	5.344582	0.905397	0.010691
 578	2.8850e-01	5.7649	5.992741	0.000312	3.121236	0.528752	0.006243
 579	2.8900e-01	5.7739	6.022674	0.000299	2.992966	0.507022	0.005987
 580	2.8950e-01	5.7874	6.068430	0.000457	4.574962	0.775020	0.009151
 581	2.9000e-01	5.7986	6.109910	0.000415	4.147396	0.702588	0.008296
 582	2.9050e-01	5.8084	6.145403	0.000355	3.548802	0.601183	0.007099
 583	2.9100e-01	5.8174	6.159942	0.000145	1.453726	0.246268	0.002908
 584	2.9150e-01	5.8241	6.198856	0.000389	3.890856	0.659129	0.007783
 585	2.9200e-01	5.8350	6.254447	0.000556	5.558365	0.941613	0.011118
 586	2.9250e-01	5.8441	6.269842	0.000154	1.539240	0.260754	0.003079
 587	2.9300e-01	5.8575	6.313460	0.000436	4.361179	0.738804	0.008724
 588	2.9350e-01	5.8655	6.370334	0.000569	5.686635	0.963342	0.011375
 589	2.9400e-01	5.8783	6.390860	0.000205	2.052319	0.347672	0.004105
 590	2.9450e-01	5.8858	6.432339	0.000415	4.147396	0.702588	0.008296
 591	2.9500e-01	5.8937	6.449872	0.000175	1.753023	0.296970	0.003507
 592	2.9550e-01	5.9052	6.499477	0.000496	4.959772	0.840208	0.009921
 593	2.9600e-01	5.9160	6.536680	0.000372	3.719829	0.630156	0.007441
 594	2.9650e-01	5.9271	6.577732	0.000410	4.104639	0.695345	0.008210
 595	2.9700e-01	5.9344	6.611087	0.000334	3.335019	0.564968	0.006671
 596	2.9750e-01	5.9442	6.630330	0.000192	1.924050	0.325943	0.003849
 597	2.9800e-01	5.9589	6.682500	0.000522	5.216312	0.883667	0.010434
 598	2.9850e-01	5.9656	6.718848	0.000363	3.634316	0.615670	0.007270
 599	2.9900e-01	5.9753	6.750065	0.000312	3.121236	0.528752	0.006243
 600	2.9950e-01	5.9875	6.780426	0.000304	3.035723	0.514265	0.006072
 601	3.0000e-01	5.9979	6.818913	0.000385	3.848099	0.651886	0.007697
 602	3.0050e-01	6.0040	6.862958	0.000440	4.403936	0.746047	0.008809
 603	3.0100e-01	6.0175	6.898451	0.000355	3.548802	0.601183	0.007099
 604	3.0150e-01	6.0272	6.930950	0.000325	3.249506	0.550481	0.006500
 605	3.0200e-01	6.0370	6.979272	0.000483	4.831502	0.818479	0.009664
 606	3.0250e-01	6.0486	6.998515	0.000192	1.924050	0.325943	0.003849
 607	3.0300e-01	6.0596	7.041705	0.000432	4.318422	0.731561	0.008638
 608	3.0350e-01	6.0663	7.070784	0.000291	2.907453	0.492536	0.005816
 609	3.0400e-01	6.0773	7.111408	0.000406	4.061882	0.688101	0.008125
 610	3.0450e-01	6.0861	7.144763	0.000334	3.335019	0.564968	0.006671
 611	3.0500e-01	6.0980	7.184532	0.000398	3.976369	0.673615	0.007954
 612	3.0550e-01	6.1072	7.213611	0.000291	2.907453	0.492536	0.005816
 613	3.0600e-01	6.1166	7.232426	0.000188	1.881293	0.318700	0.003763
 614	3.0650e-01	6.1263	7.281176	0.000487	4.874259	0.825722	0.009750
 615	3.0700e-01	6.1346	7.313247	0.000321	3.206749	0.543238	0.006414
 616	3.0750e-01	6.1502	7.352161	0.000389	3.890856	0.659129	0.007783
 617	3.0800e-01	6.1580	7.389365	0.000372	3.719829	0.630156	0.007441
 618	3.0850e-01	6.1661	7.425285	0.000359	3.591559	0.608427	0.007184
 619	3.0900e-01	6.1761	7.479166	0.000539	5.387339	0.912640	0.010776
 620	3.0950e-01	6.1853	7.507389	0.000282	2.821939	0.478049	0.005645
 621	3.1000e-01	6.1957	7.514231	0.000068	0.684106	0.115891	0.001368
 622	3.1050e-01	6.2067	7.574954	0.000607	6.071445	1.028531	0.012145
 623	3.1100e-01	6.2161	7.601039	0.000261	2.608156	0.441834	0.005217
 624	3.1150e-01	6.2274	7.628407	0.000274	2.736426	0.463563	0.005474
 625	3.1200e-01	6.2390	7.660052	0.000316	3.163993	0.535995	0.006329
 626	3.1250e-01	6.2469	7.713932	0.000539	5.387339	0.912640	0.010776
 627	3.1300e-01	6.2598	7.758405	0.000445	4.446692	0.753290	0.008895
 628	3.1350e-01	6.2659	7.770806	0.000124	1.239943	0.210052	0.002480
 629	3.1400e-01	6.2769	7.803734	0.000329	3.292262	0.557724	0.006585
 630	3.1450e-01	6.2848	7.857187	0.000534	5.344582	0.905397	0.010691
 631	3.1500e-01	6.2952	7.881561	0.000244	2.437129	0.412861	0.004875
 632	3.1550e-01	6.3071	7.904226	0.000227	2.266103	0.383888	0.004533
 633	3.1600e-01	6.3147	7.956823	0.000526	5.259069	0.890910	0.010520
 634	3.1650e-01	6.3251	7.987185	0.000304	3.035723	0.514265	0.006072
 635	3.1700e-01	6.3345	8.032941	0.000457	4.574962	0.775020	0.009151
 636	3.1750e-01	6.3452	8.050046	0.000171	1.710266	0.289727	0.003421
 637	3.1800e-01	6.3570	8.087249	0.000372	3.719829	0.630156	0.007441
 638	3.1850e-01	6.3672	8.121459	0.000342	3.420532	0.579454	0.006842
 639	3.1900e-01	6.3763	8.162511	0.000410	4.104639	0.695345	0.008210
 640	3.1950e-01	6.3861	8.203136	0.000406	4.061882	0.688101	0.008125
 641	3.2000e-01	6.3980	8.224945	0.000218	2.180589	0.369402	0.004362
 642	3.2050e-01	6.4063	8.251885	0.000269	2.693669	0.456320	0.005388
 643	3.2100e-01	6.4154	8.313463	0.000616	6.156958	1.043017	0.012316
 644	3.2150e-01	6.4276	8.350239	0.000368	3.677072	0.622913	0.007355
 645	3.2200e-01	6.4368	8.369054	0.000188	1.881293	0.318700	0.003763
 646	3.2250e-01	6.4453	8.399416	0.000304	3.035723	0.514265	0.006072
 647	3.2300e-01	6.4581	8.441751	0.000423	4.232909	0.717074	0.008467
 648	3.2350e-01	6.4648	8.464842	0.000231	2.308859	0.391131	0.004618
 649	3.2400e-01	6.4752	8.509743	0.000449	4.489449	0.760533	0.008980
 650	3.2450e-01	6.4850	8.535828	0.000261	2.608156	0.441834	0.005217
 651	3.2500e-01	6.4978	8.562341	0.000265	2.650913	0.449077	0.005303
 652	3.2550e-01	6.5063	8.616649	0.000543	5.430095	0.919883	0.010862
 653	3.2600e-01	6.5149	8.644873	0.000282	2.821939	0.478049	0.005645
 654	3.2650e-01	6.5262	8.681221	0.000363	3.634316	0.615670	0.007270
 655	3.2700e-01	6.5359	8.689346	0.000081	0.812376	0.137620	0.001625
 656	3.2750e-01	6.5460	8.747075	0.000577	5.772149	0.977828	0.011546
 657	3.2800e-01	6.5558	8.773160	0.000261	2.608156	0.441834	0.005217
 658	3.2850e-01	6.5683	8.808653	0.000355	3.548802	0.601183	0.007099
 659	3.2900e-01	6.5767	8.839870	0.000312	3.121236	0.528752	0.006243
 660	3.2950e-01	6.5854	8.895461	0.000556	5.558365	0.941613	0.011118
 661	3.3000e-01	6.5952	8.925395	0.000299	2.992966	0.507022	0.005987
 662	3.3050e-01	6.6068	8.942500	0.000171	1.710266	0.289727	0.003421
 663	3.3100e-01	6.6156	8.988683	0.000462	4.617719	0.782263	0.009237
 664	3.3150e-01	6.6284	9.027597	0.000389	3.890856	0.659129	0.007783
 665	3.3200e-01	6.6370	9.058386	0.000308	3.078479	0.521508	0.006158
 666	3.3250e-01	6.6458	9.093879	0.000355	3.548802	0.601183	0.007099
 667	3.3300e-01	6.6571	9.126379	0.000325	3.249506	0.550481	0.006500
 668	3.3350e-01	6.6681	9.164437	0.000381	3.805342	0.644642	0.007612
 669	3.3400e-01	6.6785	9.200358	0.000359	3.591559	0.608427	0.007184
 670	3.3450e-01	6.6876	9.232002	0.000316	3.163993	0.535995	0.006329
 671	3.3500e-01	6.6946	9.266212	0.000342	3.420532	0.579454	0.006842
 672	3.3550e-01	6.7065	9.285028	0.000188	1.881293	0.318700	0.003763
 673	3.3600e-01	6.7155	9.333349	0.000483	4.831502	0.818479	0.009664
 674	3.3650e-01	6.7249	9.370553	0.000372	3.719829	0.630156	0.007441
 675	3.3700e-01	6.7358	9.385947	0.000154	1.539240	0.260754	0.003079
 676	3.3750e-01	6.7462	9.423578	0.000376	3.762586	0.637399	0.007526
 677	3.3800e-01	6.7572	9.477031	0.000534	5.344582	0.905397	0.010691
 678	3.3850e-01	6.7657	9.496702	0.000197	1.966806	0.333186	0.003934
 679	3.3900e-01	6.7755	9.523642	0.000269	2.693669	0.456320	0.005388
 680	3.3950e-01	6.7867	9.572819	0.000492	4.917015	0.832965	0.009835
 681	3.4000e-01	6.7972	9.594201	0.000214	2.137833	0.362159	0.004276
 682	3.4050e-01	6.8097	9.625417	0.000312	3.121236	0.528752	0.006243
 683	3.4100e-01	6.8170	9.678015	0.000526	5.259069	0.890910	0.010520
 684	3.4150e-01	6.8274	9.712653	0.000346	3.463289	0.586697	0.006928
 685	3.4200e-01	6.8353	9.718212	0.000056	0.555837	0.094161	0.001112
 686	3.4250e-01	6.8488	9.756698	0.000385	3.848099	0.651886	0.007697
 687	3.4300e-01	6.8561	9.805875	0.000492	4.917015	0.832965	0.009835
 688	3.4350e-01	6.8652	9.843506	0.000376	3.762586	0.637399	0.007526
 689	3.4400e-01	6.8805	9.863177	0.000197	1.966806	0.333186	0.003934
 690	3.4450e-01	6.8878	9.907650	0.000445	4.446692	0.753290	0.008895
 691	3.4500e-01	6.8982	9.936729	0.000291	2.907453	0.492536	0.005816
 692	3.4550e-01	6.9080	9.983340	0.000466	4.660475	0.789506	0.009322
 693	3.4600e-01	6.9159	9.999589	0.000162	1.624753	0.275241	0.003250
 694	3.4650e-01	6.9293	10.032089	0.000325	3.249506	0.550481	0.006500
 695	3.4700e-01	6.9379	10.058174	0.000261	2.608156	0.441834	0.005217
 696	3.4750e-01	6.9470	10.097943	0.000398	3.976369	0.673615	0.007954
 697	3.4800e-01	6.9586	10.146265	0.000483	4.831502	0.818479	0.009664
 698	3.4850e-01	6.9672	10.170212	0.000239	2.394373	0.405618	0.004789
 699	3.4900e-01	6.9763	10.191593	0.000214	2.137833	0.362159	0.004276
 700	3.4950e-01	6.9876	10.226658	0.000351	3.506046	0.593940	0.007013
 701	3.5000e-01	6.9971	10.248895	0.000222	2.223346	0.376645	0.004447
 702	3.5050e-01	7.0071	10.302776	0.000539	5.387339	0.912640	0.010776
 703	3.5100e-01	7.0172	10.351953	0.000492	4.917015	0.832965	0.009835
 704	3.5150e-01	7.0264	10.364781	0.000128	1.282700	0.217295	0.002566
 705	3.5200e-01	7.0364	10.405833	0.000410	4.104639	0.695345	0.008210
 706	3.5250e-01	7.0465	10.448168	0.000423	4.232909	0.717074	0.008467
 707	3.5300e-01	7.0599	10.484516	0.000363	3.634316	0.615670	0.007270
 708	3.5350e-01	7.0676	10.505042	0.000205	2.052319	0.347672	0.004105
 709	3.5400e-01	7.0789	10.537542	0.000325	3.249506	0.550481	0.006500
 710	3.5450e-01	7.0892	10.564055	0.000265	2.650913	0.449077	0.005303
 711	3.5500e-01	7.0984	10.613232	0.000492	4.917015	0.832965	0.009835
 712	3.5550e-01	7.1069	10.638889	0.000257	2.565399	0.434590	0.005132
 713	3.5600e-01	7.1173	10.677375	0.000385	3.848099	0.651886	0.007697
 714	3.5650e-01	7.1280	10.694908	0.000175	1.753023	0.296970	0.003507
 715	3.5700e-01	7.1375	10.753493	0.000586	5.857662	0.992315	0.011717
 716	3.5750e-01	7.1484	10.767604	0.000141	1.410970	0.239025	0.002822
 717	3.5800e-01	7.1555	10.803953	0.000363	3.634316	0.615670	0.007270
 718	3.5850e-01	7.1661	10.843722	0.000398	3.976369	0.673615	0.007954
 719	3.5900e-01	7.1785	10.873655	0.000299	2.992966	0.507022	0.005987
 720	3.5950e-01	7.1820	10.899741	0.000261	2.608156	0.441834	0.005217
 721	3.6000e-01	7.1960	10.940365	0.000406	4.061882	0.688101	0.008125
 722	3.6050e-01	7.2070	10.954904	0.000145	1.453726	0.246268	0.002908
 723	3.6100e-01	7.2183	11.018193	0.000633	6.327985	1.071990	0.012658
 724	3.6150e-01	7.2278	11.050692	0.000325	3.249506	0.550481	0.006500
 725	3.6200e-01	7.2363	11.069508	0.000188	1.881293	0.318700	0.003763
 726	3.6250e-01	7.2430	11.116547	0.000470	4.703232	0.796749	0.009408
 727	3.6300e-01	7.2577	11.130231	0.000137	1.368213	0.231782	0.002737
 728	3.6350e-01	7.2658	11.176842	0.000466	4.660475	0.789506	0.009322
 729	3.6400e-01	7.2794	11.221742	0.000449	4.489449	0.760533	0.008980
 730	3.6450e-01	7.2900	11.248255	0.000265	2.650913	0.449077	0.005303
 731	3.6500e-01	7.2955	11.277761	0.000295	2.950209	0.499779	0.005901
 732	3.6550e-01	7.3077	11.312399	0.000346	3.463289	0.586697	0.006928
 733	3.6600e-01	7.3157	11.328649	0.000162	1.624753	0.275241	0.003250
 734	3.6650e-01	7.3260	11.373549	0.000449	4.489449	0.760533	0.008980
 735	3.6700e-01	7.3364	11.397496	0.000239	2.394373	0.405618	0.004789
 736	3.6750e-01	7.3444	11.432989	0.000355	3.548802	0.601183	0.007099
 737	3.6800e-01	7.3587	11.487298	0.000543	5.430095	0.919883	0.010862
 738	3.6850e-01	7.3669	11.504403	0.000171	1.710266	0.289727	0.003421
 739	3.6900e-01	7.3773	11.539468	0.000351	3.506046	0.593940	0.007013
 740	3.6950e-01	7.3895	11.555290	0.000158	1.581996	0.267997	0.003164
 741	3.7000e-01	7.3956	11.607033	0.000517	5.173555	0.876424	0.010349
 742	3.7050e-01	7.4072	11.624565	0.000175	1.753023	0.296970	0.003507
 743	3.7100e-01	7.4152	11.687854	0.000633	6.327985	1.071990	0.012658
 744	3.7150e-01	7.4277	11.690420	0.000026	0.256540	0.043459	0.000513
 745	3.7200e-01	7.4356	11.728906	0.000385	3.848099	0.651886	0.007697
 746	3.7250e-01	7.4475	11.764827	0.000359	3.591559	0.608427	0.007184
 747	3.7300e-01	7.4533	11.797754	0.000329	3.292262	0.557724	0.006585
 748	3.7350e-01	7.4695	11.837523	0.000398	3.976369	0.673615	0.007954
 749	3.7400e-01	7.4774	11.873016	0.000355	3.548802	0.601183	0.007099
 750	3.7450e-01	7.4847	11.920482	0.000475	4.745989	0.803992	0.009493
 751	3.7500e-01	7.4988	11.938870	0.000184	1.838536	0.311456	0.003678
 752	3.7550e-01	7.5079	11.960251	0.000214	2.137833	0.362159	0.004276
 753	3.7600e-01	7.5140	12.032948	0.000727	7.268631	1.231340	0.014539
 754	3.7650e-01	7.5275	12.021829	-0.000111	-1.111673	-0.188323	-0.002224
 755	3.7700e-01	7.5372	12.057750	0.000359	3.591559	0.608427	0.007184
 756	3.7750e-01	7.5458	12.093243	0.000355	3.548802	0.601183	0.007099
 757	3.7800e-01	7.5574	12.119328	0.000261	2.608156	0.441834	0.005217
 758	3.7850e-01	7.5702	12.148834	0.000295	2.950209	0.499779	0.005901
 759	3.7900e-01	7.5766	12.200577	0.000517	5.173555	0.876424	0.010349
 760	3.7950e-01	7.5854	12.248043	0.000475	4.745989	0.803992	0.009493
 761	3.8000e-01	7.5977	12.277977	0.000299	2.992966	0.507022	0.005987
 762	3.8050e-01	7.6093	12.289523	0.000115	1.154430	0.195566	0.002309
 763	3.8100e-01	7.6131	12.349818	0.000603	6.028688	1.021287	0.012059
 764	3.8150e-01	7.6270	12.335279	-0.000145	-1.453726	-0.246268	-0.002908
 765	3.8200e-01	7.6379	12.392153	0.000569	5.686635	0.963342	0.011375
 766	3.8250e-01	7.6465	12.428501	0.000363	3.634316	0.615670	0.007270
 767	3.8300e-01	7.6569	12.451165	0.000227	2.266103	0.383888	0.004533
 768	3.8350e-01	7.6666	12.508895	0.000577	5.772149	0.977828	0.011546
 769	3.8400e-01	7.6752	12.524289	0.000154	1.539240	0.260754	0.003079
 770	3.8450e-01	7.6880	12.554223	0.000299	2.992966	0.507022	0.005987
 771	3.8500e-01	7.6968	12.599979	0.000457	4.574962	0.775020	0.009151
 772	3.8550e-01	7.7051	12.625209	0.000252	2.522643	0.427347	0.005046
 773	3.8600e-01	7.7161	12.661557	0.000363	3.634316	0.615670	0.007270
 774	3.8650e-01	7.7277	12.682938	0.000214	2.137833	0.362159	0.004276
 775	3.8700e-01	7.7356	12.721852	0.000389	3.890856	0.659129	0.007783
 776	3.8750e-01	7.7435	12.777016	0.000552	5.515609	0.934369	0.011033
 777	3.8800e-01	7.7570	12.791555	0.000145	1.453726	0.246268	0.002908
 778	3.8850e-01	7.7679	12.833462	0.000419	4.190152	0.709831	0.008381
 779	3.8900e-01	7.7771	12.840732	0.000073	0.726863	0.123134	0.001454
 780	3.8950e-01	7.7869	12.867245	0.000265	2.650913	0.449077	0.005303
 781	3.9000e-01	7.7966	12.940796	0.000735	7.354145	1.245826	0.014710
 782	3.9050e-01	7.8058	12.972013	0.000312	3.121236	0.528752	0.006243
 783	3.9100e-01	7.8189	13.002374	0.000304	3.035723	0.514265	0.006072
 784	3.9150e-01	7.8265	13.040860	0.000385	3.848099	0.651886	0.007697
 785	3.9200e-01	7.8357	13.065235	0.000244	2.437129	0.412861	0.004875
 786	3.9250e-01	7.8479	13.081912	0.000167	1.667510	0.282484	0.003335
 787	3.9300e-01	7.8577	13.129806	0.000479	4.788745	0.811235	0.009579
 788	3.9350e-01	7.8647	13.163589	0.000338	3.377776	0.572211	0.006756
 789	3.9400e-01	7.8763	13.180266	0.000167	1.667510	0.282484	0.003335
 790	3.9450e-01	7.8882	13.211055	0.000308	3.078479	0.521508	0.006158
 791	3.9500e-01	7.8937	13.232436	0.000214	2.137833	0.362159	0.004276
 792	3.9550e-01	7.9059	13.279475	0.000470	4.703232	0.796749	0.009408
 793	3.9600e-01	7.9169	13.309837	0.000304	3.035723	0.514265	0.006072
 794	3.9650e-01	7.9260	13.368421	0.000586	5.857662	0.992315	0.011717
 795	3.9700e-01	7.9385	13.371842	0.000034	0.342053	0.057945	0.000684
 796	3.9750e-01	7.9443	13.424868	0.000530	5.301825	0.898154	0.010605
 797	3.9800e-01	7.9565	13.437269	0.000124	1.239943	0.210052	0.002480
 798	3.9850e-01	7.9666	13.480032	0.000428	4.275666	0.724317	0.008553
 799	3.9900e-01	7.9767	13.503123	0.000231	2.308859	0.391131	0.004618
 800	3.9950e-01	7.9883	13.554011	0.000509	5.088042	0.861938	0.010177
 801	4.0000e-01	7.9965	13.589076	0.000351	3.506046	0.593940	0.007013
 802	4.0050e-01	8.0072	13.601905	0.000128	1.282700	0.217295	0.002566
 803	4.0100e-01	8.0154	13.657068	0.000552	5.515609	0.934369	0.011033
 804	4.0150e-01	8.0261	13.675884	0.000188	1.881293	0.318700	0.003763
 805	4.0200e-01	8.0371	13.710949	0.000351	3.506046	0.593940	0.007013
 806	4.0250e-01	8.0453	13.740028	0.000291	2.907453	0.492536	0.005816
 807	4.0300e-01	8.0563	13.781507	0.000415	4.147396	0.702588	0.008296
 808	4.0350e-01	8.0664	13.796902	0.000154	1.539240	0.260754	0.003079
 809	4.0400e-01	8.0743	13.837954	0.000410	4.104639	0.695345	0.008210
 810	4.0450e-01	8.0859	13.887131	0.000492	4.917015	0.832965	0.009835
 811	4.0500e-01	8.0960	13.916209	0.000291	2.907453	0.492536	0.005816
 812	4.0550e-01	8.1042	13.929466	0.000133	1.325456	0.224538	0.002651
 813	4.0600e-01	8.1137	13.970090	0.000406	4.061882	0.688101	0.008125
 814	4.0650e-01	8.1232	14.002162	0.000321	3.206749	0.543238	0.006414
 815	4.0700e-01	8.1384	14.024826	0.000227	2.266103	0.383888	0.004533
 816	4.0750e-01	8.1454	14.086832	0.000620	6.199715	1.050260	0.012401
 817	4.0800e-01	8.1549	14.094957	0.000081	0.812376	0.137620	0.001625
 818	4.0850e-01	8.1653	14.137292	0.000423	4.232909	0.717074	0.008467
 819	4.0900e-01	8.1760	14.173212	0.000359	3.591559	0.608427	0.007184
 820	4.0950e-01	8.1854	14.196304	0.000231	2.308859	0.391131	0.004618
 821	4.1000e-01	8.1976	14.240349	0.000440	4.403936	0.746047	0.008809
 822	4.1050e-01	8.2056	14.277125	0.000368	3.677072	0.622913	0.007355
 823	4.1100e-01	8.2156	14.308342	0.000312	3.121236	0.528752	0.006243
 824	4.1150e-01	8.2295	14.343835	0.000355	3.548802	0.601183	0.007099
 825	4.1200e-01	8.2364	14.379755	0.000359	3.591559	0.608427	0.007184
 826	4.1250e-01	8.2483	14.399426	0.000197	1.966806	0.333186	0.003934
 827	4.1300e-01	8.2541	14.417814	0.000184	1.838536	0.311456	0.003678
 828	4.1350e-01	8.2678	14.480247	0.000624	6.242472	1.057503	0.012487
 829	4.1400e-01	8.2776	14.508043	0.000278	2.779183	0.470806	0.005559
 830	4.1450e-01	8.2867	14.529424	0.000214	2.137833	0.362159	0.004276
 831	4.1500e-01	8.2950	14.562779	0.000334	3.335019	0.564968	0.006671
 832	4.1550e-01	8.3044	14.606397	0.000436	4.361179	0.738804	0.008724
 833	4.1600e-01	8.3173	14.627778	0.000214	2.137833	0.362159	0.004276
 834	4.1650e-01	8.3267	14.653435	0.000257	2.565399	0.434590	0.005132
 835	4.1700e-01	8.3359	14.701757	0.000483	4.831502	0.818479	0.009664
 836	4.1750e-01	8.3459	14.742381	0.000406	4.061882	0.688101	0.008125
 837	4.1800e-01	8.3560	14.762052	0.000197	1.966806	0.333186	0.003934
 838	4.1850e-01	8.3636	14.794979	0.000329	3.292262	0.557724	0.006585
 839	4.1900e-01	8.3752	14.834748	0.000398	3.976369	0.673615	0.007954
 840	4.1950e-01	8.3884	14.872807	0.000381	3.805342	0.644642	0.007612
 841	4.2000e-01	8.3954	14.898892	0.000261	2.608156	0.441834	0.005217
 842	4.2050e-01	8.4052	14.933957	0.000351	3.506046	0.593940	0.007013
 843	4.2100e-01	8.4177	14.958332	0.000244	2.437129	0.412861	0.004875
 844	4.2150e-01	8.4280	15.001950	0.000436	4.361179	0.738804	0.008724
 845	4.2200e-01	8.4363	15.013496	0.000115	1.154430	0.195566	0.002309
 846	4.2250e-01	8.4467	15.057114	0.000436	4.361179	0.738804	0.008724
 847	4.2300e-01	8.4583	15.083626	0.000265	2.650913	0.449077	0.005303
 848	4.2350e-01	8.4653	15.127244	0.000436	4.361179	0.738804	0.008724
 849	4.2400e-01	8.4781	15.137507	0.000103	1.026160	0.173836	0.002053
 850	4.2450e-01	8.4851	15.212342	0.000748	7.482415	1.267555	0.014967
 851	4.2500e-01	8.4967	15.214907	0.000026	0.256540	0.043459	0.000513
 852	4.2550e-01	8.5071	15.267933	0.000530	5.301825	0.898154	0.010605
 853	4.2600e-01	8.5150	15.301715	0.000338	3.377776	0.572211	0.006756
 854	4.2650e-01	8.5278	15.319675	0.000180	1.795780	0.304213	0.003592
 855	4.2700e-01	8.5376	15.362438	0.000428	4.275666	0.724317	0.008553
 856	4.2750e-01	8.5455	15.405201	0.000428	4.275666	0.724317	0.008553
 857	4.2800e-01	8.5583	15.442832	0.000376	3.762586	0.637399	0.007526
 858	4.2850e-01	8.5669	15.482601	0.000398	3.976369	0.673615	0.007954
 859	4.2900e-01	8.5767	15.486877	0.000043	0.427567	0.072432	0.000855
 860	4.2950e-01	8.5883	15.513817	0.000269	2.693669	0.456320	0.005388
 861	4.3000e-01	8.5971	15.557863	0.000440	4.403936	0.746047	0.008809
 862	4.3050e-01	8.6066	15.598487	0.000406	4.061882	0.688101	0.008125
 863	4.3100e-01	8.6176	15.649802	0.000513	5.130799	0.869181	0.010263
 864	4.3150e-01	8.6267	15.660065	0.000103	1.026160	0.173836	0.002053
 865	4.3200e-01	8.6365	15.694275	0.000342	3.420532	0.579454	0.006842
 866	4.3250e-01	8.6462	15.734900	0.000406	4.061882	0.688101	0.008125
 867	4.3300e-01	8.6575	15.747728	0.000128	1.282700	0.217295	0.002566
 868	4.3350e-01	8.6670	15.800754	0.000530	5.301825	0.898154	0.010605
 869	4.3400e-01	8.6768	15.848220	0.000475	4.745989	0.803992	0.009493
 870	4.3450e-01	8.6847	15.862760	0.000145	1.453726	0.246268	0.002908
 871	4.3500e-01	8.6993	15.897825	0.000351	3.506046	0.593940	0.007013
 872	4.3550e-01	8.7073	15.943581	0.000457	4.574962	0.775020	0.009151
 873	4.3600e-01	8.7158	15.969666	0.000261	2.608156	0.441834	0.005217
 874	4.3650e-01	8.7262	15.986771	0.000171	1.710266	0.289727	0.003421
 875	4.3700e-01	8.7363	16.020126	0.000334	3.335019	0.564968	0.006671
 876	4.3750e-01	8.7500	16.061605	0.000415	4.147396	0.702588	0.008296
 877	4.3800e-01	8.7579	16.105651	0.000440	4.403936	0.746047	0.008809
 878	4.3850e-01	8.7683	16.124039	0.000184	1.838536	0.311456	0.003678
 879	4.3900e-01	8.7775	16.176209	0.000522	5.216312	0.883667	0.010434
 880	4.3950e-01	8.7891	16.197590	0.000214	2.137833	0.362159	0.004276
 881	4.4000e-01	8.7988	16.217689	0.000201	2.009563	0.340429	0.004020
 882	4.4050e-01	8.8104	16.266010	0.000483	4.831502	0.818479	0.009664
 883	4.4100e-01	8.8153	16.294661	0.000286	2.864696	0.485293	0.005730
 884	4.4150e-01	8.8269	16.327588	0.000329	3.292262	0.557724	0.006585
 885	4.4200e-01	8.8367	16.363509	0.000359	3.591559	0.608427	0.007184
 886	4.4250e-01	8.8452	16.393870	0.000304	3.035723	0.514265	0.006072
 887	4.4300e-01	8.8596	16.440481	0.000466	4.660475	0.789506	0.009322
 888	4.4350e-01	8.8666	16.462718	0.000222	2.223346	0.376645	0.004447
 889	4.4400e-01	8.8782	16.500349	0.000376	3.762586	0.637399	0.007526
 890	4.4450e-01	8.8913	16.531565	0.000312	3.121236	0.528752	0.006243
 891	4.4500e-01	8.8959	16.573045	0.000415	4.147396	0.702588	0.008296
 892	4.4550e-01	8.9063	16.591433	0.000184	1.838536	0.311456	0.003678
 893	4.4600e-01	8.9185	16.623077	0.000316	3.163993	0.535995	0.006329
 894	4.4650e-01	8.9255	16.678669	0.000556	5.558365	0.941613	0.011118
 895	4.4700e-01	8.9362	16.720148	0.000415	4.147396	0.702588	0.008296
 896	4.4750e-01	8.9468	16.736398	0.000162	1.624753	0.275241	0.003250
 897	4.4800e-01	8.9566	16.793700	0.000573	5.729392	0.970585	0.011460
 898	4.4850e-01	8.9673	16.789851	-0.000038	-0.384810	-0.065189	-0.000770
 899	4.4900e-01	8.9771	16.842877	0.000530	5.301825	0.898154	0.010605
 900	4.4950e-01	8.9838	16.879225	0.000363	3.634316	0.615670	0.007270
 901	4.5000e-01	8.9941	16.904882	0.000257	2.565399	0.434590	0.005132
 902	4.5050e-01	9.0063	16.934389	0.000295	2.950209	0.499779	0.005901
 903	4.5100e-01	9.0149	16.951066	0.000167	1.667510	0.282484	0.003335
 904	4.5150e-01	9.0265	17.007512	0.000564	5.643879	0.956099	0.011289
 905	4.5200e-01	9.0399	17.046426	0.000389	3.890856	0.659129	0.007783
 906	4.5250e-01	9.0494	17.082347	0.000359	3.591559	0.608427	0.007184
 907	4.5300e-01	9.0564	17.108432	0.000261	2.608156	0.441834	0.005217
 908	4.5350e-01	9.0656	17.150339	0.000419	4.190152	0.709831	0.008381
 909	4.5400e-01	9.0787	17.190964	0.000406	4.061882	0.688101	0.008125
 910	4.5450e-01	9.0875	17.202937	0.000120	1.197186	0.202809	0.002395
 911	4.5500e-01	9.0982	17.256390	0.000534	5.344582	0.905397	0.010691
 912	4.5550e-01	9.1058	17.282903	0.000265	2.650913	0.449077	0.005303
 913	4.5600e-01	9.1132	17.312837	0.000299	2.992966	0.507022	0.005987
 914	4.5650e-01	9.1290	17.362441	0.000496	4.959772	0.840208	0.009921
 915	4.5700e-01	9.1360	17.375698	0.000133	1.325456	0.224538	0.002651
 916	4.5750e-01	9.1467	17.421454	0.000457	4.574962	0.775020	0.009151
 917	4.5800e-01	9.1583	17.448822	0.000274	2.736426	0.463563	0.005474
 918	4.5850e-01	9.1656	17.501420	0.000526	5.259069	0.890910	0.010520
 919	4.5900e-01	9.1748	17.519380	0.000180	1.795780	0.304213	0.003592
 920	4.5950e-01	9.1858	17.567702	0.000483	4.831502	0.818479	0.009664
 921	4.6000e-01	9.1974	17.606188	0.000385	3.848099	0.651886	0.007697
 922	4.6050e-01	9.2062	17.631845	0.000257	2.565399	0.434590	0.005132
 923	4.6100e-01	9.2160	17.663490	0.000316	3.163993	0.535995	0.006329
 924	4.6150e-01	9.2273	17.691713	0.000282	2.821939	0.478049	0.005645
 925	4.6200e-01	9.2377	17.732337	0.000406	4.061882	0.688101	0.008125
 926	4.6250e-01	9.2480	17.784935	0.000526	5.259069	0.890910	0.010520
 927	4.6300e-01	9.2572	17.828125	0.000432	4.318422	0.731561	0.008638
 928	4.6350e-01	9.2676	17.867894	0.000398	3.976369	0.673615	0.007954
 929	4.6400e-01	9.2780	17.892697	0.000248	2.479886	0.420104	0.004960
 930	4.6450e-01	9.2862	17.902532	0.000098	0.983403	0.166593	0.001967
 931	4.6500e-01	9.2944	17.978222	0.000757	7.567928	1.282042	0.015138
 932	4.6550e-01	9.3091	17.971380	-0.000068	-0.684106	-0.115891	-0.001368
 933	4.6600e-01	9.3182	18.014998	0.000436	4.361179	0.738804	0.008724
 934	4.6650e-01	9.3280	18.046214	0.000312	3.121236	0.528752	0.006243
 935	4.6700e-01	9.3384	18.089832	0.000436	4.361179	0.738804	0.008724
 936	4.6750e-01	9.3500	18.121476	0.000316	3.163993	0.535995	0.006329
 937	4.6800e-01	9.3579	18.163384	0.000419	4.190152	0.709831	0.008381
 938	4.6850e-01	9.3683	18.217264	0.000539	5.387339	0.912640	0.010776
 939	4.6900e-01	9.3768	18.238218	0.000210	2.095076	0.354916	0.004191
 940	4.6950e-01	9.3848	18.265586	0.000274	2.736426	0.463563	0.005474
 941	4.7000e-01	9.3976	18.286112	0.000205	2.052319	0.347672	0.004105
 942	4.7050e-01	9.4073	18.340420	0.000543	5.430095	0.919883	0.010862
 943	4.7100e-01	9.4165	18.399005	0.000586	5.857662	0.992315	0.011717
 944	4.7150e-01	9.4281	18.422524	0.000235	2.351616	0.398375	0.004704
 945	4.7200e-01	9.4345	18.455024	0.000325	3.249506	0.550481	0.006500
 946	4.7250e-01	9.4464	18.497359	0.000423	4.232909	0.717074	0.008467
 947	4.7300e-01	9.4562	18.529003	0.000316	3.163993	0.535995	0.006329
 948	4.7350e-01	9.4666	18.539694	0.000107	1.068916	0.181079	0.002138
 949	4.7400e-01	9.4781	18.596140	0.000564	5.643879	0.956099	0.011289
 950	4.7450e-01	9.4861	18.656863	0.000607	6.071445	1.028531	0.012145
 951	4.7500e-01	9.4958	18.674823	0.000180	1.795780	0.304213	0.003592
 952	4.7550e-01	9.5074	18.688080	0.000133	1.325456	0.224538	0.002651
 953	4.7600e-01	9.5166	18.732553	0.000445	4.446692	0.753290	0.008895
 954	4.7650e-01	9.5245	18.770611	0.000381	3.805342	0.644642	0.007612
 955	4.7700e-01	9.5367	18.816795	0.000462	4.617719	0.782263	0.009237
 956	4.7750e-01	9.5471	18.839887	0.000231	2.308859	0.391131	0.004618
 957	4.7800e-01	9.5557	18.855709	0.000158	1.581996	0.267997	0.003164
 958	4.7850e-01	9.5642	18.930543	0.000748	7.482415	1.267555	0.014967
 959	4.7900e-01	9.5746	18.953207	0.000227	2.266103	0.383888	0.004533
 960	4.7950e-01	9.5853	19.007943	0.000547	5.472852	0.927126	0.010947
 961	4.8000e-01	9.5972	19.038305	0.000304	3.035723	0.514265	0.006072
 962	4.8050e-01	9.6088	19.068239	0.000299	2.992966	0.507022	0.005987
 963	4.8100e-01	9.6188	19.113139	0.000449	4.489449	0.760533	0.008980
 964	4.8150e-01	9.6266	19.154191	0.000410	4.104639	0.695345	0.008210
 965	4.8200e-01	9.6368	19.178138	0.000239	2.394373	0.405618	0.004789
 966	4.8250e-01	9.6457	19.229453	0.000513	5.130799	0.869181	0.010263
 967	4.8300e-01	9.6570	19.239289	0.000098	0.983403	0.166593	0.001967
 968	4.8350e-01	9.6649	19.278203	0.000389	3.890856	0.659129	0.007783
 969	4.8400e-01	9.6747	19.319682	0.000415	4.147396	0.702588	0.008296
 970	4.8450e-01	9.6863	19.353037	0.000334	3.335019	0.564968	0.006671
 971	4.8500e-01	9.6960	19.393234	0.000402	4.019126	0.680858	0.008039
 972	4.8550e-01	9.7040	19.425733	0.000325	3.249506	0.550481	0.006500
 973	4.8600e-01	9.7156	19.475766	0.000500	5.002529	0.847451	0.010006
 974	4.8650e-01	9.7260	19.492443	0.000167	1.667510	0.282484	0.003335
 975	4.8700e-01	9.7330	19.544186	0.000517	5.173555	0.876424	0.010349
 976	4.8750e-01	9.7461	19.576257	0.000321	3.206749	0.543238	0.006414
 977	4.8800e-01	9.7571	19.615599	0.000393	3.933612	0.666372	0.007868
 978	4.8850e-01	9.7632	19.651519	0.000359	3.591559	0.608427	0.007184
 979	4.8900e-01	9.7784	19.684874	0.000334	3.335019	0.564968	0.006671
 980	4.8950e-01	9.7882	19.711815	0.000269	2.693669	0.456320	0.005388
 981	4.9000e-01	9.7974	19.778952	0.000671	6.712795	1.137178	0.013427
 982	4.9050e-01	9.8071	19.819576	0.000406	4.061882	0.688101	0.008125
 983	4.9100e-01	9.8145	19.828556	0.000090	0.897890	0.152107	0.001796
 984	4.9150e-01	9.8230	19.888852	0.000603	6.028688	1.021287	0.012059
 985	4.9200e-01	9.8346	19.900825	0.000120	1.197186	0.202809	0.002395
 986	4.9250e-01	9.8474	19.947009	0.000462	4.617719	0.782263	0.009237
 987	4.9300e-01	9.8566	19.995330	0.000483	4.831502	0.818479	0.009664
 988	4.9350e-01	9.8663	20.020988	0.000257	2.565399	0.434590	0.005132
 989	4.9400e-01	9.8767	20.067171	0.000462	4.617719	0.782263	0.009237
 990	4.9450e-01	9.8877	20.093684	0.000265	2.650913	0.449077	0.005303
 991	4.9500e-01	9.8978	20.127894	0.000342	3.420532	0.579454	0.006842
 992	4.9550e-01	9.9084	20.182630	0.000547	5.472852	0.927126	0.010947
 993	4.9600e-01	9.9152	20.224965	0.000423	4.232909	0.717074	0.008467
 994	4.9650e-01	9.9255	20.255326	0.000304	3.035723	0.514265	0.006072
 995	4.9700e-01	9.9347	20.282694	0.000274	2.736426	0.463563	0.005474
 996	4.9750e-01	9.9463	20.344700	0.000620	6.199715	1.050260	0.012401
 997	4.9800e-01	9.9561	20.375489	0.000308	3.078479	0.521508	0.006158
 998	4.9850e-01	9.9677	20.397726	0.000222	2.223346	0.376645	0.004447
 999	4.9900e-01	9.9750	20.443054	0.000453	4.532206	0.767776	0.009066
1000	4.9950e-01	9.9847	20.467429	0.000244	2.437129	0.412861	0.004875
1001	5.0000e-01	9.9951	20.528151	0.000607	6.071445	1.028531	0.012145
1002	5.0050e-01	9.9847	20.490520	0.000376	3.762586	0.637399	-0.007526
1003	5.0100e-01	9.9731	20.472560	0.000180	1.795780	0.304213	-0.003592
1004	5.0150e-01	9.9652	20.437922	0.000346	3.463289	0.586697	-0.006928
1005	5.0200e-01	9.9530	20.455883	-0.000180	-1.795780	-0.304213	0.003592
1006	5.0250e-01	9.9451	20.452889	0.000030	0.299297	0.050702	-0.000599
1007	5.0300e-01	9.9353	20.426804	0.000261	2.608156	0.441834	-0.005217
1008	5.0350e-01	9.9255	20.398153	0.000286	2.864696	0.485293	-0.005730
1009	5.0400e-01	9.9139	20.382759	0.000154	1.539240	0.260754	-0.003079
1010	5.0450e-01	9.9030	20.395587	-0.000128	-1.282700	-0.217295	0.002566
1011	5.0500e-01	9.8938	20.375489	0.000201	2.009563	0.340429	-0.004020
1012	5.0550e-01	9.8856	20.345983	0.000295	2.950209	0.499779	-0.005901
1013	5.0600e-01	9.8743	20.358384	-0.000124	-1.239943	-0.210052	0.002480
1014	5.0650e-01	9.8657	20.325885	0.000325	3.249506	0.550481	-0.006500
1015	5.0700e-01	9.8560	20.314339	0.000115	1.154430	0.195566	-0.002309
1016	5.0750e-01	9.8444	20.307069	0.000073	0.726863	0.123134	-0.001454
1017	5.0800e-01	9.8328	20.291675	0.000154	1.539240	0.260754	-0.003079
1018	5.0850e-01	9.8251	20.286115	0.000056	0.555837	0.094161	-0.001112
1019	5.0900e-01	9.8117	20.268155	0.000180	1.795780	0.304213	-0.003592
1020	5.0950e-01	9.8035	20.251905	0.000162	1.624753	0.275241	-0.003250
1021	5.1000e-01	9.7919	20.211709	0.000402	4.019126	0.680858	-0.008039
1022	5.1050e-01	9.7845	20.207005	0.000047	0.470323	0.079675	-0.000941
1023	5.1100e-01	9.7736	20.176216	0.000308	3.078479	0.521508	-0.006158
1024	5.1150e-01	9.7607	20.189472	-0.000133	-1.325456	-0.224538	0.002651
1025	5.1200e-01	9.7546	20.166380	0.000231	2.308859	0.391131	-0.004618
1026	5.1250e-01	9.7437	20.138157	0.000282	2.821939	0.478049	-0.005645
1027	5.1300e-01	9.7345	20.126184	0.000120	1.197186	0.202809	-0.002395
1028	5.1350e-01	9.7284	20.114638	0.000115	1.154430	0.195566	-0.002309
1029	5.1400e-01	9.7150	20.089408	0.000252	2.522643	0.427347	-0.005046
1030	5.1450e-01	9.7070	20.084276	0.000051	0.513080	0.086918	-0.001026
1031	5.1500e-01	9.6942	20.053060	0.000312	3.121236	0.528752	-0.006243
1032	5.1550e-01	9.6857	20.052632	0.000004	0.042757	0.007243	-0.000086
1033	5.1600e-01	9.6741	20.041086	0.000115	1.154430	0.195566	-0.002309
1034	5.1650e-01	9.6631	19.990199	0.000509	5.088042	0.861938	-0.010177
1035	5.1700e-01	9.6539	19.990626	-0.000004	-0.042757	-0.007243	0.000086
1036	5.1750e-01	9.6419	19.959837	0.000308	3.078479	0.521508	-0.006158
1037	5.1800e-01	9.6320	19.959410	0.000004	0.042757	0.007243	-0.000086
1038	5.1850e-01	9.6228	19.929048	0.000304	3.035723	0.514265	-0.006072
1039	5.1900e-01	9.6136	19.904674	0.000244	2.437129	0.412861	-0.004875
1040	5.1950e-01	9.6069	19.909378	-0.000047	-0.470323	-0.079675	0.000941
1041	5.2000e-01	9.5947	19.875595	0.000338	3.377776	0.572211	-0.006756
1042	5.2050e-01	9.5862	19.865332	0.000103	1.026160	0.173836	-0.002053
1043	5.2100e-01	9.5761	19.834543	0.000308	3.078479	0.521508	-0.006158
1044	5.2150e-01	9.5660	19.816583	0.000180	1.795780	0.304213	-0.003592
1045	5.2200e-01	9.5544	19.808458	0.000081	0.812376	0.137620	-0.001625
1046	5.2250e-01	9.5453	19.756715	0.000517	5.173555	0.876424	-0.010349
1047	5.2300e-01	9.5331	19.763985	-0.000073	-0.726863	-0.123134	0.001454
1048	5.2350e-01	9.5270	19.746452	0.000175	1.753023	0.296970	-0.003507
1049	5.2400e-01	9.5166	19.717374	0.000291	2.907453	0.492536	-0.005816
1050	5.2450e-01	9.5044	19.686585	0.000308	3.078479	0.521508	-0.006158
1051	5.2500e-01	9.4925	19.672901	0.000137	1.368213	0.231782	-0.002737
1052	5.2550e-01	9.4836	19.665204	0.000077	0.769620	0.130377	-0.001539
1053	5.2600e-01	9.4769	19.630566	0.000346	3.463289	0.586697	-0.006928
1054	5.2650e-01	9.4644	19.600632	0.000299	2.992966	0.507022	-0.005987
1055	5.2700e-01	9.4531	19.594218	0.000064	0.641350	0.108648	-0.001283
1056	5.2750e-01	9.4427	19.574547	0.000197	1.966806	0.333186	-0.003934
1057	5.2800e-01	9.4366	19.536061	0.000385	3.848099	0.651886	-0.007697
1058	5.2850e-01	9.4257	19.518956	0.000171	1.710266	0.289727	-0.003421
1059	5.2900e-01	9.4165	19.510403	0.000086	0.855133	0.144863	-0.001711
1060	5.2950e-01	9.4043	19.502278	0.000081	0.812376	0.137620	-0.001625
1061	5.3000e-01	9.3945	19.456095	0.000462	4.617719	0.782263	-0.009237
1062	5.3050e-01	9.3835	19.450536	0.000056	0.555837	0.094161	-0.001112
1063	5.3100e-01	9.3750	19.434713	0.000158	1.581996	0.267997	-0.003164
1064	5.3150e-01	9.3677	19.417181	0.000175	1.753023	0.296970	-0.003507
1065	5.3200e-01	9.3549	19.382543	0.000346	3.463289	0.586697	-0.006928
1066	5.3250e-01	9.3439	19.375701	0.000068	0.684106	0.115891	-0.001368
1067	5.3300e-01	9.3353	19.349188	0.000265	2.650913	0.449077	-0.005303
1068	5.3350e-01	9.3265	19.310275	0.000389	3.890856	0.659129	-0.007783
1069	5.3400e-01	9.3176	19.308992	0.000013	0.128270	0.021730	-0.000257
1070	5.3450e-01	9.3063	19.268367	0.000406	4.061882	0.688101	-0.008125
1071	5.3500e-01	9.2975	19.255538	0.000128	1.282700	0.217295	-0.002566
1072	5.3550e-01	9.2871	19.236295	0.000192	1.924050	0.325943	-0.003849
1073	5.3600e-01	9.2752	19.207644	0.000286	2.864696	0.485293	-0.005730
1074	5.3650e-01	9.2639	19.186691	0.000210	2.095076	0.354916	-0.004191
1075	5.3700e-01	9.2563	19.164454	0.000222	2.223346	0.376645	-0.004447
1076	5.3750e-01	9.2450	19.135803	0.000286	2.864696	0.485293	-0.005730
1077	5.3800e-01	9.2383	19.106725	0.000291	2.907453	0.492536	-0.005816
1078	5.3850e-01	9.2249	19.091758	0.000150	1.496483	0.253511	-0.002993
1079	5.3900e-01	9.2133	19.066956	0.000248	2.479886	0.420104	-0.004960
1080	5.3950e-01	9.2047	19.058831	0.000081	0.812376	0.137620	-0.001625
1081	5.4000e-01	9.1962	19.031463	0.000274	2.736426	0.463563	-0.005474
1082	5.4050e-01	9.1870	19.022483	0.000090	0.897890	0.152107	-0.001796
1083	5.4100e-01	9.1760	18.972878	0.000496	4.959772	0.840208	-0.009921
1084	5.4150e-01	9.1669	18.958767	0.000141	1.410970	0.239025	-0.002822
1085	5.4200e-01	9.1565	18.946365	0.000124	1.239943	0.210052	-0.002480
1086	5.4250e-01	9.1449	18.927550	0.000188	1.881293	0.318700	-0.003763
1087	5.4300e-01	9.1354	18.913438	0.000141	1.410970	0.239025	-0.002822
1088	5.4350e-01	9.1260	18.866827	0.000466	4.660475	0.789506	-0.009322
1089	5.4400e-01	9.1159	18.850150	0.000167	1.667510	0.282484	-0.003335
1090	5.4450e-01	9.1046	18.814657	0.000355	3.548802	0.601183	-0.007099
1091	5.4500e-01	9.0973	18.809525	0.000051	0.513080	0.086918	-0.001026
1092	5.4550e-01	9.0875	18.779592	0.000299	2.992966	0.507022	-0.005987
1093	5.4600e-01	9.0750	18.769329	0.000103	1.026160	0.173836	-0.002053
1094	5.4650e-01	9.0656	18.720579	0.000487	4.874259	0.825722	-0.009750
1095	5.4700e-01	9.0552	18.707323	0.000133	1.325456	0.224538	-0.002651
1096	5.4750e-01	9.0442	18.686369	0.000210	2.095076	0.354916	-0.004191
1097	5.4800e-01	9.0363	18.670547	0.000158	1.581996	0.267997	-0.003164
1098	5.4850e-01	9.0234	18.627785	0.000428	4.275666	0.724317	-0.008553
1099	5.4900e-01	9.0146	18.609397	0.000184	1.838536	0.311456	-0.003678
1100	5.4950e-01	9.0085	18.573904	0.000355	3.548802	0.601183	-0.007099
1101	5.5000e-01	8.9960	18.586305	-0.000124	-1.239943	-0.210052	0.002480
1102	5.5050e-01	8.9868	18.544398	0.000419	4.190152	0.709831	-0.008381
1103	5.5100e-01	8.9764	18.507622	0.000368	3.677072	0.622913	-0.007355
1104	5.5150e-01	8.9679	18.496504	0.000111	1.111673	0.188323	-0.002224
1105	5.5200e-01	8.9575	18.464004	0.000325	3.249506	0.550481	-0.006500
1106	5.5250e-01	8.9459	18.442623	0.000214	2.137833	0.362159	-0.004276
1107	5.5300e-01	8.9374	18.446044	-0.000034	-0.342053	-0.057945	0.000684
1108	5.5350e-01	8.9270	18.397722	0.000483	4.831502	0.818479	-0.009664
1109	5.5400e-01	8.9160	18.392163	0.000056	0.555837	0.094161	-0.001112
1110	5.5450e-01	8.9040	18.355387	0.000368	3.677072	0.622913	-0.007355
1111	5.5500e-01	8.8953	18.343841	0.000115	1.154430	0.195566	-0.002309
1112	5.5550e-01	8.8849	18.291671	0.000522	5.216312	0.883667	-0.010434
1113	5.5600e-01	8.8782	18.280125	0.000115	1.154430	0.195566	-0.002309
1114	5.5650e-01	8.8657	18.241639	0.000385	3.848099	0.651886	-0.007697
1115	5.5700e-01	8.8574	18.209995	0.000316	3.163993	0.535995	-0.006329
1116	5.5750e-01	8.8446	18.209139	0.000009	0.085513	0.014486	-0.000171
1117	5.5800e-01	8.8358	18.175785	0.000334	3.335019	0.564968	-0.006671
1118	5.5850e-01	8.8266	18.166805	0.000090	0.897890	0.152107	-0.001796
1119	5.5900e-01	8.8171	18.153548	0.000133	1.325456	0.224538	-0.002651
1120	5.5950e-01	8.8055	18.102661	0.000509	5.088042	0.861938	-0.010177
1121	5.6000e-01	8.7976	18.094108	0.000086	0.855133	0.144863	-0.001711
1122	5.6050e-01	8.7848	18.067595	0.000265	2.650913	0.449077	-0.005303
1123	5.6100e-01	8.7747	18.027399	0.000402	4.019126	0.680858	-0.008039
1124	5.6150e-01	8.7677	18.021840	0.000056	0.555837	0.094161	-0.001112
1125	5.6200e-01	8.7579	17.985491	0.000363	3.634316	0.615670	-0.007270
1126	5.6250e-01	8.7476	17.949143	0.000363	3.634316	0.615670	-0.007270
1127	5.6300e-01	8.7354	17.938453	0.000107	1.068916	0.181079	-0.002138
1128	5.6350e-01	8.7268	17.897401	0.000410	4.104639	0.695345	-0.008210
1129	5.6400e-01	8.7177	17.892697	0.000047	0.470323	0.079675	-0.000941
1130	5.6450e-01	8.7061	17.865756	0.000269	2.693669	0.456320	-0.005388
1131	5.6500e-01	8.6975	17.828981	0.000368	3.677072	0.622913	-0.007355
1132	5.6550e-01	8.6871	17.806316	0.000227	2.266103	0.383888	-0.004533
1133	5.6600e-01	8.6761	17.792632	0.000137	1.368213	0.231782	-0.002737
1134	5.6650e-01	8.6670	17.762271	0.000304	3.035723	0.514265	-0.006072
1135	5.6700e-01	8.6597	17.739179	0.000231	2.308859	0.391131	-0.004618
1136	5.6750e-01	8.6459	17.698982	0.000402	4.019126	0.680858	-0.008039
1137	5.6800e-01	8.6365	17.688292	0.000107	1.068916	0.181079	-0.002138
1138	5.6850e-01	8.6261	17.665628	0.000227	2.266103	0.383888	-0.004533
1139	5.6900e-01	8.6157	17.636549	0.000291	2.907453	0.492536	-0.005816
1140	5.6950e-01	8.6053	17.604050	0.000325	3.249506	0.550481	-0.006500
1141	5.7000e-01	8.5977	17.589083	0.000150	1.496483	0.253511	-0.002993
1142	5.7050e-01	8.5907	17.536913	0.000522	5.216312	0.883667	-0.010434
1143	5.7100e-01	8.5757	17.529643	0.000073	0.726863	0.123134	-0.001454
1144	5.7150e-01	8.5651	17.489446	0.000402	4.019126	0.680858	-0.008039
1145	5.7200e-01	8.5574	17.483459	0.000060	0.598593	0.101404	-0.001197
1146	5.7250e-01	8.5474	17.453953	0.000295	2.950209	0.499779	-0.005901
1147	5.7300e-01	8.5352	17.429151	0.000248	2.479886	0.420104	-0.004960
1148	5.7350e-01	8.5260	17.427868	0.000013	0.128270	0.021730	-0.000257
1149	5.7400e-01	8.5150	17.371849	0.000560	5.601122	0.948856	-0.011204
1150	5.7450e-01	8.5077	17.361159	0.000107	1.068916	0.181079	-0.002138
1151	5.7500e-01	8.4973	17.319679	0.000415	4.147396	0.702588	-0.008296
1152	5.7550e-01	8.4882	17.305567	0.000141	1.410970	0.239025	-0.002822
1153	5.7600e-01	8.4772	17.280337	0.000252	2.522643	0.427347	-0.005046
1154	5.7650e-01	8.4662	17.256390	0.000239	2.394373	0.405618	-0.004789
1155	5.7700e-01	8.4561	17.226029	0.000304	3.035723	0.514265	-0.006072
1156	5.7750e-01	8.4467	17.175569	0.000505	5.045285	0.854694	-0.010092
1157	5.7800e-01	8.4369	17.153760	0.000218	2.180589	0.369402	-0.004362
1158	5.7850e-01	8.4277	17.156754	-0.000030	-0.299297	-0.050702	0.000599
1159	5.7900e-01	8.4192	17.132807	0.000239	2.394373	0.405618	-0.004789
1160	5.7950e-01	8.4064	17.112281	0.000205	2.052319	0.347672	-0.004105
1161	5.8000e-01	8.3978	17.058400	0.000539	5.387339	0.912640	-0.010776
1162	5.8050e-01	8.3847	17.044716	0.000137	1.368213	0.231782	-0.002737
1163	5.8100e-01	8.3765	17.034453	0.000103	1.026160	0.173836	-0.002053
1164	5.8150e-01	8.3643	16.984848	0.000496	4.959772	0.840208	-0.009921
1165	5.8200e-01	8.3551	16.980572	0.000043	0.427567	0.072432	-0.000855
1166	5.8250e-01	8.3453	16.936954	0.000436	4.361179	0.738804	-0.008724
1167	5.8300e-01	8.3380	16.916428	0.000205	2.052319	0.347672	-0.004105
1168	5.8350e-01	8.3240	16.891626	0.000248	2.479886	0.420104	-0.004960
1169	5.8400e-01	8.3154	16.865541	0.000261	2.608156	0.441834	-0.005217
1170	5.8450e-01	8.3063	16.827910	0.000376	3.762586	0.637399	-0.007526
1171	5.8500e-01	8.2944	16.830903	-0.000030	-0.299297	-0.050702	0.000599
1172	5.8550e-01	8.2874	16.765049	0.000658	6.584525	1.115449	-0.013171
1173	5.8600e-01	8.2764	16.761628	0.000034	0.342053	0.057945	-0.000684
1174	5.8650e-01	8.2672	16.731266	0.000304	3.035723	0.514265	-0.006072
1175	5.8700e-01	8.2538	16.705609	0.000257	2.565399	0.434590	-0.005132
1176	5.8750e-01	8.2465	16.665840	0.000398	3.976369	0.673615	-0.007954
1177	5.8800e-01	8.2367	16.647452	0.000184	1.838536	0.311456	-0.003678
1178	5.8850e-01	8.2257	16.624788	0.000227	2.266103	0.383888	-0.004533
1179	5.8900e-01	8.2138	16.604689	0.000201	2.009563	0.340429	-0.004020
1180	5.8950e-01	8.2062	16.578177	0.000265	2.650913	0.449077	-0.005303
1181	5.9000e-01	8.1952	16.533704	0.000445	4.446692	0.753290	-0.008895
1182	5.9050e-01	8.1848	16.509757	0.000239	2.394373	0.405618	-0.004789
1183	5.9100e-01	8.1766	16.468705	0.000410	4.104639	0.695345	-0.008210
1184	5.9150e-01	8.1677	16.463145	0.000056	0.555837	0.094161	-0.001112
1185	5.9200e-01	8.1567	16.429791	0.000334	3.335019	0.564968	-0.006671
1186	5.9250e-01	8.1470	16.400712	0.000291	2.907453	0.492536	-0.005816
1187	5.9300e-01	8.1366	16.389594	0.000111	1.111673	0.188323	-0.002224
1188	5.9350e-01	8.1256	16.359660	0.000299	2.992966	0.507022	-0.005987
1189	5.9400e-01	8.1152	16.335713	0.000239	2.394373	0.405618	-0.004789
1190	5.9450e-01	8.1062	16.313049	0.000227	2.266103	0.383888	-0.004533
1191	5.9500e-01	8.0975	16.287819	0.000252	2.522643	0.427347	-0.005046
1192	5.9550e-01	8.0847	16.242491	0.000453	4.532206	0.767776	-0.009066
1193	5.9600e-01	8.0774	16.209991	0.000325	3.249506	0.550481	-0.006500
1194	5.9650e-01	8.0658	16.187755	0.000222	2.223346	0.376645	-0.004447
1195	5.9700e-01	8.0548	16.167229	0.000205	2.052319	0.347672	-0.004105
1196	5.9750e-01	8.0444	16.147130	0.000201	2.009563	0.340429	-0.004020
1197	5.9800e-01	8.0359	16.116341	0.000308	3.078479	0.521508	-0.006158
1198	5.9850e-01	8.0252	16.096671	0.000197	1.966806	0.333186	-0.003934
1199	5.9900e-01	8.0157	16.061178	0.000355	3.548802	0.601183	-0.007099
1200	5.9950e-01	8.0103	16.027823	0.000334	3.335019	0.564968	-0.006671
1201	6.0000e-01	7.9974	15.995323	0.000325	3.249506	0.550481	-0.006500
1202	6.0050e-01	7.9852	15.994896	0.000004	0.042757	0.007243	-0.000086
1203	6.0100e-01	7.9773	15.936739	0.000581	5.814905	0.985072	-0.011631
1204	6.0150e-01	7.9672	15.924765	0.000120	1.197186	0.202809	-0.002395
1205	6.0200e-01	7.9568	15.901246	0.000235	2.351616	0.398375	-0.004704
1206	6.0250e-01	7.9480	15.857628	0.000436	4.361179	0.738804	-0.008724
1207	6.0300e-01	7.9370	15.833681	0.000239	2.394373	0.405618	-0.004789
1208	6.0350e-01	7.9254	15.827267	0.000064	0.641350	0.108648	-0.001283
1209	6.0400e-01	7.9156	15.787925	0.000393	3.933612	0.666372	-0.007868
1210	6.0450e-01	7.9053	15.757991	0.000299	2.992966	0.507022	-0.005987
1211	6.0500e-01	7.8952	15.735755	0.000222	2.223346	0.376645	-0.004447
1212	6.0550e-01	7.8864	15.707104	0.000286	2.864696	0.485293	-0.005730
1213	6.0600e-01	7.8735	15.675887	0.000312	3.121236	0.528752	-0.006243
1214	6.0650e-01	7.8650	15.648519	0.000274	2.736426	0.463563	-0.005474
1215	6.0700e-01	7.8537	15.618586	0.000299	2.992966	0.507022	-0.005987
1216	6.0750e-01	7.8448	15.607040	0.000115	1.154430	0.195566	-0.002309
1217	6.0800e-01	7.8357	15.581810	0.000252	2.522643	0.427347	-0.005046
1218	6.0850e-01	7.8259	15.547600	0.000342	3.420532	0.579454	-0.006842
1219	6.0900e-01	7.8180	15.501844	0.000457	4.574962	0.775020	-0.009151
1220	6.0950e-01	7.8070	15.488160	0.000137	1.368213	0.231782	-0.002737
1221	6.1000e-01	7.7972	15.445397	0.000428	4.275666	0.724317	-0.008553
1222	6.1050e-01	7.7844	15.416319	0.000291	2.907453	0.492536	-0.005816
1223	6.1100e-01	7.7765	15.385957	0.000304	3.035723	0.514265	-0.006072
1224	6.1150e-01	7.7649	15.372701	0.000133	1.325456	0.224538	-0.002651
1225	6.1200e-01	7.7570	15.355596	0.000171	1.710266	0.289727	-0.003421
1226	6.1250e-01	7.7441	15.314544	0.000410	4.104639	0.695345	-0.008210
1227	6.1300e-01	7.7368	15.275202	0.000393	3.933612	0.666372	-0.007868
1228	6.1350e-01	7.7258	15.238427	0.000368	3.677072	0.622913	-0.007355
1229	6.1400e-01	7.7155	15.220466	0.000180	1.795780	0.304213	-0.003592
1230	6.1450e-01	7.7039	15.199940	0.000205	2.052319	0.347672	-0.004105
1231	6.1500e-01	7.6984	15.172145	0.000278	2.779183	0.470806	-0.005559
1232	6.1550e-01	7.6849	15.147770	0.000244	2.437129	0.412861	-0.004875
1233	6.1600e-01	7.6764	15.125106	0.000227	2.266103	0.383888	-0.004533
1234	6.1650e-01	7.6661	15.095600	0.000295	2.950209	0.499779	-0.005901
1235	6.1700e-01	7.6563	15.076784	0.000188	1.881293	0.318700	-0.003763
1236	6.1750e-01	7.6465	15.031884	0.000449	4.489449	0.760533	-0.008980
1237	6.1800e-01	7.6361	15.016062	0.000158	1.581996	0.267997	-0.003164
1238	6.1850e-01	7.6227	14.967312	0.000487	4.874259	0.825722	-0.009750
1239	6.1900e-01	7.6129	14.950207	0.000171	1.710266	0.289727	-0.003421
1240	6.1950e-01	7.6033	14.920701	0.000295	2.950209	0.499779	-0.005901
1241	6.2000e-01	7.5989	14.890340	0.000304	3.035723	0.514265	-0.006072
1242	6.2050e-01	7.5891	14.853564	0.000368	3.677072	0.622913	-0.007355
1243	6.2100e-01	7.5739	14.831755	0.000218	2.180589	0.369402	-0.004362
1244	6.2150e-01	7.5629	14.785144	0.000466	4.660475	0.789506	-0.009322
1245	6.2200e-01	7.5537	14.796690	-0.000115	-1.154430	-0.195566	0.002309
1246	6.2250e-01	7.5470	14.736822	0.000599	5.985932	1.014044	-0.011974
1247	6.2300e-01	7.5345	14.728270	0.000086	0.855133	0.144863	-0.001711
1248	6.2350e-01	7.5256	14.683369	0.000449	4.489449	0.760533	-0.008980
1249	6.2400e-01	7.5146	14.666264	0.000171	1.710266	0.289727	-0.003421
1250	6.2450e-01	7.5046	14.619225	0.000470	4.703232	0.796749	-0.009408
1251	6.2500e-01	7.4969	14.630771	-0.000115	-1.154430	-0.195566	0.002309
1252	6.2550e-01	7.4872	14.575180	0.000556	5.558365	0.941613	-0.011118
1253	6.2600e-01	7.4774	14.561496	0.000137	1.368213	0.231782	-0.002737
1254	6.2650e-01	7.4677	14.526003	0.000355	3.548802	0.601183	-0.007099
1255	6.2700e-01	7.4530	14.507615	0.000184	1.838536	0.311456	-0.003678
1256	6.2750e-01	7.4487	14.474688	0.000329	3.292262	0.557724	-0.006585
1257	6.2800e-01	7.4347	14.449458	0.000252	2.522643	0.427347	-0.005046
1258	6.2850e-01	7.4252	14.413538	0.000359	3.591559	0.608427	-0.007184
1259	6.2900e-01	7.4158	14.396005	0.000175	1.753023	0.296970	-0.003507
1260	6.2950e-01	7.4033	14.357519	0.000385	3.848099	0.651886	-0.007697
1261	6.3000e-01	7.3947	14.318177	0.000393	3.933612	0.666372	-0.007868
1262	6.3050e-01	7.3853	14.306204	0.000120	1.197186	0.202809	-0.002395
1263	6.3100e-01	7.3749	14.272849	0.000334	3.335019	0.564968	-0.006671
1264	6.3150e-01	7.3645	14.247619	0.000252	2.522643	0.427347	-0.005046
1265	6.3200e-01	7.3578	14.210416	0.000372	3.719829	0.630156	-0.007441
1266	6.3250e-01	7.3456	14.163804	0.000466	4.660475	0.789506	-0.009322
1267	6.3300e-01	7.3341	14.156107	0.000077	0.769620	0.130377	-0.001539
1268	6.3350e-01	7.3273	14.123608	0.000325	3.249506	0.550481	-0.006500
1269	6.3400e-01	7.3151	14.109924	0.000137	1.368213	0.231782	-0.002737
1270	6.3450e-01	7.3056	14.064595	0.000453	4.532206	0.767776	-0.009066
1271	6.3500e-01	7.2957	14.026964	0.000376	3.762586	0.637399	-0.007526
1272	6.3550e-01	7.2852	14.020122	0.000068	0.684106	0.115891	-0.001368
1273	6.3600e-01	7.2791	13.982064	0.000381	3.805342	0.644642	-0.007612
1274	6.3650e-01	7.2644	13.934170	0.000479	4.788745	0.811235	-0.009579
1275	6.3700e-01	7.2546	13.920486	0.000137	1.368213	0.231782	-0.002737
1276	6.3750e-01	7.2443	13.884137	0.000363	3.634316	0.615670	-0.007270
1277	6.3800e-01	7.2351	13.865322	0.000188	1.881293	0.318700	-0.003763
1278	6.3850e-01	7.2253	13.833678	0.000316	3.163993	0.535995	-0.006329
1279	6.3900e-01	7.2162	13.804599	0.000291	2.907453	0.492536	-0.005816
1280	6.3950e-01	7.2046	13.771672	0.000329	3.292262	0.557724	-0.006585
1281	6.4000e-01	7.1942	13.743876	0.000278	2.779183	0.470806	-0.005559
1282	6.4050e-01	7.1844	13.716081	0.000278	2.779183	0.470806	-0.005559
1283	6.4100e-01	7.1762	13.669042	0.000470	4.703232	0.796749	-0.009408
1284	6.4150e-01	7.1655	13.650226	0.000188	1.881293	0.318700	-0.003763
1285	6.4200e-01	7.1536	13.630556	0.000197	1.966806	0.333186	-0.003934
1286	6.4250e-01	7.1475	13.586510	0.000440	4.403936	0.746047	-0.008809
1287	6.4300e-01	7.1368	13.576675	0.000098	0.983403	0.166593	-0.001967
1288	6.4350e-01	7.1265	13.544175	0.000325	3.249506	0.550481	-0.006500
1289	6.4400e-01	7.1140	13.502696	0.000415	4.147396	0.702588	-0.008296
1290	6.4450e-01	7.1042	13.494571	0.000081	0.812376	0.137620	-0.001625
1291	6.4500e-01	7.0978	13.458223	0.000363	3.634316	0.615670	-0.007270
1292	6.4550e-01	7.0862	13.402631	0.000556	5.558365	0.941613	-0.011118
1293	6.4600e-01	7.0752	13.384243	0.000184	1.838536	0.311456	-0.003678
1294	6.4650e-01	7.0667	13.362007	0.000222	2.223346	0.376645	-0.004447
1295	6.4700e-01	7.0557	13.339343	0.000227	2.266103	0.383888	-0.004533
1296	6.4750e-01	7.0459	13.296580	0.000428	4.275666	0.724317	-0.008553
1297	6.4800e-01	7.0361	13.285462	0.000111	1.111673	0.188323	-0.002224
1298	6.4850e-01	7.0203	13.232009	0.000534	5.344582	0.905397	-0.010691
1299	6.4900e-01	7.0160	13.212766	0.000192	1.924050	0.325943	-0.003849
1300	6.4950e-01	7.0038	13.172569	0.000402	4.019126	0.680858	-0.008039
1301	6.5000e-01	6.9952	13.142635	0.000299	2.992966	0.507022	-0.005987
1302	6.5050e-01	6.9843	13.130234	0.000124	1.239943	0.210052	-0.002480
1303	6.5100e-01	6.9746	13.086189	0.000440	4.403936	0.746047	-0.008809
1304	6.5150e-01	6.9656	13.064380	0.000218	2.180589	0.369402	-0.004362
1305	6.5200e-01	6.9559	13.031453	0.000329	3.292262	0.557724	-0.006585
1306	6.5250e-01	6.9446	13.013920	0.000175	1.753023	0.296970	-0.003507
1307	6.5300e-01	6.9376	12.978855	0.000351	3.506046	0.593940	-0.007013
1308	6.5350e-01	6.9244	12.932244	0.000466	4.660475	0.789506	-0.009322
1309	6.5400e-01	6.9150	12.897178	0.000351	3.506046	0.593940	-0.007013
1310	6.5450e-01	6.9049	12.889909	0.000073	0.726863	0.123134	-0.001454
1311	6.5500e-01	6.8945	12.854843	0.000351	3.506046	0.593940	-0.007013
1312	6.5550e-01	6.8860	12.811226	0.000436	4.361179	0.738804	-0.008724
1313	6.5600e-01	6.8768	12.779581	0.000316	3.163993	0.535995	-0.006329
1314	6.5650e-01	6.8646	12.772739	0.000068	0.684106	0.115891	-0.001368
1315	6.5700e-01	6.8533	12.750930	0.000218	2.180589	0.369402	-0.004362
1316	6.5750e-01	6.8488	12.695767	0.000552	5.515609	0.934369	-0.011033
1317	6.5800e-01	6.8381	12.693629	0.000021	0.213783	0.036216	-0.000428
1318	6.5850e-01	6.8280	12.633761	0.000599	5.985932	1.014044	-0.011974
1319	6.5900e-01	6.8146	12.619222	0.000145	1.453726	0.246268	-0.002908
1320	6.5950e-01	6.8066	12.576032	0.000432	4.318422	0.731561	-0.008638
1321	6.6000e-01	6.7957	12.546526	0.000295	2.950209	0.499779	-0.005901
1322	6.6050e-01	6.7853	12.506756	0.000398	3.976369	0.673615	-0.007954
1323	6.6100e-01	6.7755	12.490507	0.000162	1.624753	0.275241	-0.003250
1324	6.6150e-01	6.7645	12.450737	0.000398	3.976369	0.673615	-0.007954
1325	6.6200e-01	6.7554	12.422087	0.000286	2.864696	0.485293	-0.005730
1326	6.6250e-01	6.7453	12.396429	0.000257	2.565399	0.434590	-0.005132
1327	6.6300e-01	6.7361	12.361791	0.000346	3.463289	0.586697	-0.006928
1328	6.6350e-01	6.7245	12.317746	0.000440	4.403936	0.746047	-0.008809
1329	6.6400e-01	6.7175	12.297220	0.000205	2.052319	0.347672	-0.004105
1330	6.6450e-01	6.7059	12.266431	0.000308	3.078479	0.521508	-0.006158
1331	6.6500e-01	6.6949	12.234787	0.000316	3.163993	0.535995	-0.006329
1332	6.6550e-01	6.6864	12.185610	0.000492	4.917015	0.832965	-0.009835
1333	6.6600e-01	6.6766	12.175774	0.000098	0.983403	0.166593	-0.001967
1334	6.6650e-01	6.6653	12.158242	0.000175	1.753023	0.296970	-0.003507
1335	6.6700e-01	6.6556	12.106072	0.000522	5.216312	0.883667	-0.010434
1336	6.6750e-01	6.6473	12.094526	0.000115	1.154430	0.195566	-0.002309
1337	6.6800e-01	6.6333	12.059460	0.000351	3.506046	0.593940	-0.007013
1338	6.6850e-01	6.6241	12.030809	0.000286	2.864696	0.485293	-0.005730
1339	6.6900e-01	6.6141	11.995317	0.000355	3.548802	0.601183	-0.007099
1340	6.6950e-01	6.6043	11.961534	0.000338	3.377776	0.572211	-0.006756
1341	6.7000e-01	6.5958	11.932883	0.000286	2.864696	0.485293	-0.005730
1342	6.7050e-01	6.5851	11.883279	0.000496	4.959772	0.840208	-0.009921
1343	6.7100e-01	6.5726	11.884989	-0.000017	-0.171027	-0.028973	0.000342
1344	6.7150e-01	6.5637	11.833674	0.000513	5.130799	0.869181	-0.010263
1345	6.7200e-01	6.5541	11.819135	0.000145	1.453726	0.246268	-0.002908
1346	6.7250e-01	6.5430	11.787063	0.000321	3.206749	0.543238	-0.006414
1347	6.7300e-01	6.5356	11.755419	0.000316	3.163993	0.535995	-0.006329
1348	6.7350e-01	6.5259	11.699828	0.000556	5.558365	0.941613	-0.011118
1349	6.7400e-01	6.5155	11.676736	0.000231	2.308859	0.391131	-0.004618
1350	6.7450e-01	6.5063	11.645091	0.000316	3.163993	0.535995	-0.006329
1351	6.7500e-01	6.4949	11.626704	0.000184	1.838536	0.311456	-0.003678
1352	6.7550e-01	6.4847	11.585224	0.000415	4.147396	0.702588	-0.008296
1353	6.7600e-01	6.4761	11.569402	0.000158	1.581996	0.267997	-0.003164
1354	6.7650e-01	6.4655	11.545027	0.000244	2.437129	0.412861	-0.004875
1355	6.7700e-01	6.4569	11.492002	0.000530	5.301825	0.898154	-0.010605
1356	6.7750e-01	6.4474	11.451805	0.000402	4.019126	0.680858	-0.008039
1357	6.7800e-01	6.4357	11.424864	0.000269	2.693669	0.456320	-0.005388
1358	6.7850e-01	6.4249	11.410753	0.000141	1.410970	0.239025	-0.002822
1359	6.7900e-01	6.4142	11.377398	0.000334	3.335019	0.564968	-0.006671
1360	6.7950e-01	6.4053	11.347037	0.000304	3.035723	0.514265	-0.006072
1361	6.8000e-01	6.3947	11.318813	0.000282	2.821939	0.478049	-0.005645
1362	6.8050e-01	6.3849	11.278617	0.000402	4.019126	0.680858	-0.008039
1363	6.8100e-01	6.3728	11.261512	0.000171	1.710266	0.289727	-0.003421
1364	6.8150e-01	6.3666	11.209769	0.000517	5.173555	0.876424	-0.010349
1365	6.8200e-01	6.3568	11.193947	0.000158	1.581996	0.267997	-0.003164
1366	6.8250e-01	6.3455	11.146908	0.000470	4.703232	0.796749	-0.009408
1367	6.8300e-01	6.3373	11.105428	0.000415	4.147396	0.702588	-0.008296
1368	6.8350e-01	6.3281	11.103718	0.000017	0.171027	0.028973	-0.000342
1369	6.8400e-01	6.3174	11.053258	0.000505	5.045285	0.854694	-0.010092
1370	6.8450e-01	6.3051	11.026745	0.000265	2.650913	0.449077	-0.005303
1371	6.8500e-01	6.2918	11.003226	0.000235	2.351616	0.398375	-0.004704
1372	6.8550e-01	6.2874	10.957042	0.000462	4.617719	0.782263	-0.009237
1373	6.8600e-01	6.2770	10.930102	0.000269	2.693669	0.456320	-0.005388
1374	6.8650e-01	6.2659	10.892471	0.000376	3.762586	0.637399	-0.007526
1375	6.8700e-01	6.2561	10.870662	0.000218	2.180589	0.369402	-0.004362
1376	6.8750e-01	6.2440	10.836880	0.000338	3.377776	0.572211	-0.006756
1377	6.8800e-01	6.2341	10.789413	0.000475	4.745989	0.803992	-0.009493
1378	6.8850e-01	6.2238	10.786420	0.000030	0.299297	0.050702	-0.000599
1379	6.8900e-01	6.2149	10.744513	0.000419	4.190152	0.709831	-0.008381
1380	6.8950e-01	6.2051	10.697901	0.000466	4.660475	0.789506	-0.009322
1381	6.9000e-01	6.1969	10.676520	0.000214	2.137833	0.362159	-0.004276
1382	6.9050e-01	6.1884	10.648297	0.000282	2.821939	0.478049	-0.005645
1383	6.9100e-01	6.1743	10.604252	0.000440	4.403936	0.746047	-0.008809
1384	6.9150e-01	6.1670	10.583298	0.000210	2.095076	0.354916	-0.004191
1385	6.9200e-01	6.1560	10.561061	0.000222	2.223346	0.376645	-0.004447
1386	6.9250e-01	6.1469	10.497773	0.000633	6.327985	1.071990	-0.012658
1387	6.9300e-01	6.1360	10.487510	0.000103	1.026160	0.173836	-0.002053
1388	6.9350e-01	6.1261	10.451162	0.000363	3.634316	0.615670	-0.007270
1389	6.9400e-01	6.1154	10.418235	0.000329	3.292262	0.557724	-0.006585
1390	6.9450e-01	6.1047	10.394715	0.000235	2.351616	0.398375	-0.004704
1391	6.9500e-01	6.0956	10.342973	0.000517	5.173555	0.876424	-0.010349
1392	6.9550e-01	6.0852	10.320736	0.000222	2.223346	0.376645	-0.004447
1393	6.9600e-01	6.0748	10.319026	0.000017	0.171027	0.028973	-0.000342
1394	6.9650e-01	6.0660	10.239487	0.000795	7.952738	1.347230	-0.015908
1395	6.9700e-01	6.0547	10.231790	0.000077	0.769620	0.130377	-0.001539
1396	6.9750e-01	6.0425	10.189455	0.000423	4.232909	0.717074	-0.008467
1397	6.9800e-01	6.0376	10.153962	0.000355	3.548802	0.601183	-0.007099
1398	6.9850e-01	6.0260	10.126167	0.000278	2.779183	0.470806	-0.005559
1399	6.9900e-01	6.0181	10.081266	0.000449	4.489449	0.760533	-0.008980
1400	6.9950e-01	6.0095	10.068009	0.000133	1.325456	0.224538	-0.002651
1401	7.0000e-01	5.9973	10.021398	0.000466	4.660475	0.789506	-0.009322
1402	7.0050e-01	5.9857	9.995741	0.000257	2.565399	0.434590	-0.005132
1403	7.0100e-01	5.9755	9.957255	0.000385	3.848099	0.651886	-0.007697
1404	7.0150e-01	5.9657	9.905939	0.000513	5.130799	0.869181	-0.010263
1405	7.0200e-01	5.9540	9.917485	-0.000115	-1.154430	-0.195566	0.002309
1406	7.0250e-01	5.9485	9.864887	0.000526	5.259069	0.890910	-0.010520
1407	7.0300e-01	5.9354	9.841796	0.000231	2.308859	0.391131	-0.004618
1408	7.0350e-01	5.9265	9.803309	0.000385	3.848099	0.651886	-0.007697
1409	7.0400e-01	5.9175	9.772093	0.000312	3.121236	0.528752	-0.006243
1410	7.0450e-01	5.9052	9.731468	0.000406	4.061882	0.688101	-0.008125
1411	7.0500e-01	5.8960	9.694265	0.000372	3.719829	0.630156	-0.007441
1412	7.0550e-01	5.8862	9.660910	0.000334	3.335019	0.564968	-0.006671
1413	7.0600e-01	5.8746	9.642522	0.000184	1.838536	0.311456	-0.003678
1414	7.0650e-01	5.8669	9.594201	0.000483	4.831502	0.818479	-0.009664
1415	7.0700e-01	5.8575	9.575385	0.000188	1.881293	0.318700	-0.003763
1416	7.0750e-01	5.8438	9.532623	0.000428	4.275666	0.724317	-0.008553
1417	7.0800e-01	5.8363	9.505255	0.000274	2.736426	0.463563	-0.005474
1418	7.0850e-01	5.8258	9.474466	0.000308	3.078479	0.521508	-0.006158
1419	7.0900e-01	5.8167	9.438545	0.000359	3.591559	0.608427	-0.007184
1420	7.0950e-01	5.8051	9.413743	0.000248	2.479886	0.420104	-0.004960
1421	7.1000e-01	5.7977	9.366276	0.000475	4.745989	0.803992	-0.009493
1422	7.1050e-01	5.7855	9.348744	0.000175	1.753023	0.296970	-0.003507
1423	7.1100e-01	5.7773	9.296146	0.000526	5.259069	0.890910	-0.010520
1424	7.1150e-01	5.7657	9.262791	0.000334	3.335019	0.564968	-0.006671
1425	7.1200e-01	5.7574	9.216180	0.000466	4.660475	0.789506	-0.009322
1426	7.1250e-01	5.7462	9.212331	0.000038	0.384810	0.065189	-0.000770
1427	7.1300e-01	5.7355	9.164437	0.000479	4.788745	0.811235	-0.009579
1428	7.1350e-01	5.7248	9.138780	0.000257	2.565399	0.434590	-0.005132
1429	7.1400e-01	5.7144	9.112695	0.000261	2.608156	0.441834	-0.005217
1430	7.1450e-01	5.7050	9.076346	0.000363	3.634316	0.615670	-0.007270
1431	7.1500e-01	5.6949	9.056248	0.000201	2.009563	0.340429	-0.004020
1432	7.1550e-01	5.6866	9.012203	0.000440	4.403936	0.746047	-0.008809
1433	7.1600e-01	5.6734	8.975427	0.000368	3.677072	0.622913	-0.007355
1434	7.1650e-01	5.6641	8.932664	0.000428	4.275666	0.724317	-0.008553
1435	7.1700e-01	5.6543	8.916842	0.000158	1.581996	0.267997	-0.003164
1436	7.1750e-01	5.6461	8.866382	0.000505	5.045285	0.854694	-0.010092
1437	7.1800e-01	5.6331	8.833455	0.000329	3.292262	0.557724	-0.006585
1438	7.1850e-01	5.6259	8.819771	0.000137	1.368213	0.231782	-0.002737
1439	7.1900e-01	5.6140	8.775298	0.000445	4.446692	0.753290	-0.008895
1440	7.1950e-01	5.6055	8.734674	0.000406	4.061882	0.688101	-0.008125
1441	7.2000e-01	5.5951	8.707306	0.000274	2.736426	0.463563	-0.005474
1442	7.2050e-01	5.5841	8.657701	0.000496	4.959772	0.840208	-0.009921
1443	7.2100e-01	5.5750	8.653853	0.000038	0.384810	0.065189	-0.000770
1444	7.2150e-01	5.5670	8.603393	0.000505	5.045285	0.854694	-0.010092
1445	7.2200e-01	5.5534	8.571749	0.000316	3.163993	0.535995	-0.006329
1446	7.2250e-01	5.5444	8.538821	0.000329	3.292262	0.557724	-0.006585
1447	7.2300e-01	5.5350	8.520861	0.000180	1.795780	0.304213	-0.003592
1448	7.2350e-01	5.5264	8.469546	0.000513	5.130799	0.869181	-0.010263
1449	7.2400e-01	5.5139	8.425928	0.000436	4.361179	0.738804	-0.008724
1450	7.2450e-01	5.5054	8.397705	0.000282	2.821939	0.478049	-0.005645
1451	7.2500e-01	5.4980	8.369910	0.000278	2.779183	0.470806	-0.005559
1452	7.2550e-01	5.4858	8.343824	0.000261	2.608156	0.441834	-0.005217
1453	7.2600e-01	5.4749	8.302772	0.000410	4.104639	0.695345	-0.008210
1454	7.2650e-01	5.4648	8.245043	0.000577	5.772149	0.977828	-0.011546
1455	7.2700e-01	5.4559	8.223662	0.000214	2.137833	0.362159	-0.004276
1456	7.2750e-01	5.4449	8.179616	0.000440	4.403936	0.746047	-0.008809
1457	7.2800e-01	5.4358	8.162084	0.000175	1.753023	0.296970	-0.003507
1458	7.2850e-01	5.4237	8.114617	0.000475	4.745989	0.803992	-0.009493
1459	7.2900e-01	5.4153	8.085111	0.000295	2.950209	0.499779	-0.005901
1460	7.2950e-01	5.4053	8.073993	0.000111	1.111673	0.188323	-0.002224
1461	7.3000e-01	5.3944	8.012842	0.000611	6.114202	1.035774	-0.012230
1462	7.3050e-01	5.3848	8.003007	0.000098	0.983403	0.166593	-0.001967
1463	7.3100e-01	5.3769	7.938008	0.000650	6.499012	1.100962	-0.013000
1464	7.3150e-01	5.3656	7.902087	0.000359	3.591559	0.608427	-0.007184
1465	7.3200e-01	5.3577	7.900377	0.000017	0.171027	0.028973	-0.000342
1466	7.3250e-01	5.3467	7.840509	0.000599	5.985932	1.014044	-0.011974
1467	7.3300e-01	5.3339	7.808865	0.000316	3.163993	0.535995	-0.006329
1468	7.3350e-01	5.3241	7.769096	0.000398	3.976369	0.673615	-0.007954
1469	7.3400e-01	5.3137	7.757122	0.000120	1.197186	0.202809	-0.002395
1470	7.3450e-01	5.3058	7.712649	0.000445	4.446692	0.753290	-0.008895
1471	7.3500e-01	5.2945	7.667321	0.000453	4.532206	0.767776	-0.009066
1472	7.3550e-01	5.2905	7.664755	0.000026	0.256540	0.043459	-0.000513
1473	7.3600e-01	5.2783	7.607454	0.000573	5.729392	0.970585	-0.011460
1474	7.3650e-01	5.2679	7.571533	0.000359	3.591559	0.608427	-0.007184
1475	7.3700e-01	5.2563	7.552718	0.000188	1.881293	0.318700	-0.003763
1476	7.3750e-01	5.2451	7.506962	0.000457	4.574962	0.775020	-0.009151
1477	7.3800e-01	5.2332	7.468903	0.000381	3.805342	0.644642	-0.007612
1478	7.3850e-01	5.2258	7.416305	0.000526	5.259069	0.890910	-0.010520
1479	7.3900e-01	5.2148	7.387227	0.000291	2.907453	0.492536	-0.005816
1480	7.3950e-01	5.2046	7.365845	0.000214	2.137833	0.362159	-0.004276
1481	7.4000e-01	5.1959	7.336767	0.000291	2.907453	0.492536	-0.005816
1482	7.4050e-01	5.1863	7.301702	0.000351	3.506046	0.593940	-0.007013
1483	7.4100e-01	5.1724	7.271340	0.000304	3.035723	0.514265	-0.006072
1484	7.4150e-01	5.1651	7.237558	0.000338	3.377776	0.572211	-0.006756
1485	7.4200e-01	5.1544	7.188808	0.000487	4.874259	0.825722	-0.009750
1486	7.4250e-01	5.1440	7.158875	0.000299	2.992966	0.507022	-0.005987
1487	7.4300e-01	5.1334	7.133645	0.000252	2.522643	0.427347	-0.005046
1488	7.4350e-01	5.1236	7.072067	0.000616	6.156958	1.043017	-0.012316
1489	7.4400e-01	5.1151	7.051968	0.000201	2.009563	0.340429	-0.004020
1490	7.4450e-01	5.1062	7.014765	0.000372	3.719829	0.630156	-0.007441
1491	7.4500e-01	5.0958	6.989535	0.000252	2.522643	0.427347	-0.005046
1492	7.4550e-01	5.0836	6.947628	0.000419	4.190152	0.709831	-0.008381
1493	7.4600e-01	5.0764	6.923681	0.000239	2.394373	0.405618	-0.004789
1494	7.4650e-01	5.0659	6.885622	0.000381	3.805342	0.644642	-0.007612
1495	7.4700e-01	5.0571	6.850985	0.000346	3.463289	0.586697	-0.006928
1496	7.4750e-01	5.0449	6.820196	0.000308	3.078479	0.521508	-0.006158
1497	7.4800e-01	5.0323	6.781282	0.000389	3.890856	0.659129	-0.007783
1498	7.4850e-01	5.0244	6.728684	0.000526	5.259069	0.890910	-0.010520
1499	7.4900e-01	5.0165	6.704309	0.000244	2.437129	0.412861	-0.004875
1500	7.4950e-01	5.0079	6.650856	0.000534	5.344582	0.905397	-0.010691
1501	7.5000e-01	4.9960	6.626481	0.000244	2.437129	0.412861	-0.004875
1502	7.5050e-01	4.9841	6.595692	0.000308	3.078479	0.521508	-0.006158
1503	7.5100e-01	4.9768	6.556351	0.000393	3.933612	0.666372	-0.007868
1504	7.5150e-01	4.9629	6.511450	0.000449	4.489449	0.760533	-0.008980
1505	7.5200e-01	4.9543	6.475957	0.000355	3.548802	0.601183	-0.007099
1506	7.5250e-01	4.9463	6.449444	0.000265	2.650913	0.449077	-0.005303
1507	7.5300e-01	4.9353	6.407109	0.000423	4.232909	0.717074	-0.008467
1508	7.5350e-01	4.9260	6.352373	0.000547	5.472852	0.927126	-0.010947
1509	7.5400e-01	4.9133	6.330137	0.000222	2.223346	0.376645	-0.004447
1510	7.5450e-01	4.9030	6.298493	0.000316	3.163993	0.535995	-0.006329
1511	7.5500e-01	4.8944	6.270697	0.000278	2.779183	0.470806	-0.005559
1512	7.5550e-01	4.8859	6.230500	0.000402	4.019126	0.680858	-0.008039
1513	7.5600e-01	4.8752	6.195435	0.000351	3.506046	0.593940	-0.007013
1514	7.5650e-01	4.8645	6.157804	0.000376	3.762586	0.637399	-0.007526
1515	7.5700e-01	4.8581	6.131291	0.000265	2.650913	0.449077	-0.005303
1516	7.5750e-01	4.8450	6.088956	0.000423	4.232909	0.717074	-0.008467
1517	7.5800e-01	4.8343	6.038497	0.000505	5.045285	0.854694	-0.010092
1518	7.5850e-01	4.8245	5.992313	0.000462	4.617719	0.782263	-0.009237
1519	7.5900e-01	4.8154	5.984616	0.000077	0.769620	0.130377	-0.001539
1520	7.5950e-01	4.8068	5.937577	0.000470	4.703232	0.796749	-0.009408
1521	7.6000e-01	4.7958	5.906360	0.000312	3.121236	0.528752	-0.006243
1522	7.6050e-01	4.7864	5.841789	0.000646	6.456255	1.093719	-0.012914
1523	7.6100e-01	4.7778	5.835802	0.000060	0.598593	0.101404	-0.001197
1524	7.6150e-01	4.7662	5.817414	0.000184	1.838536	0.311456	-0.003678
1525	7.6200e-01	4.7581	5.761823	0.000556	5.558365	0.941613	-0.011118
1526	7.6250e-01	4.7455	5.726330	0.000355	3.548802	0.601183	-0.007099
1527	7.6300e-01	4.7375	5.660048	0.000663	6.627282	1.122692	-0.013256
1528	7.6350e-01	4.7247	5.663042	-0.000030	-0.299297	-0.050702	0.000599
1529	7.6400e-01	4.7168	5.620279	0.000428	4.275666	0.724317	-0.008553
1530	7.6450e-01	4.7052	5.548438	0.000718	7.183118	1.216853	-0.014368
1531	7.6500e-01	4.6924	5.544589	0.000038	0.384810	0.065189	-0.000770
1532	7.6550e-01	4.6848	5.503110	0.000415	4.147396	0.702588	-0.008296
1533	7.6600e-01	4.6762	5.466334	0.000368	3.677072	0.622913	-0.007355
1534	7.6650e-01	4.6658	5.431696	0.000346	3.463289	0.586697	-0.006928
1535	7.6700e-01	4.6573	5.382947	0.000487	4.874259	0.825722	-0.009750
1536	7.6750e-01	4.6509	5.369691	0.000133	1.325456	0.224538	-0.002651
1537	7.6800e-01	4.6362	5.314099	0.000556	5.558365	0.941613	-0.011118
1538	7.6850e-01	4.6272	5.288442	0.000257	2.565399	0.434590	-0.005132
1539	7.6900e-01	4.6164	5.239265	0.000492	4.917015	0.832965	-0.009835
1540	7.6950e-01	4.6069	5.204627	0.000346	3.463289	0.586697	-0.006928
1541	7.7000e-01	4.5947	5.166996	0.000376	3.762586	0.637399	-0.007526
1542	7.7050e-01	4.5883	5.135780	0.000312	3.121236	0.528752	-0.006243
1543	7.7100e-01	4.5764	5.107984	0.000278	2.779183	0.470806	-0.005559
1544	7.7150e-01	4.5655	5.069925	0.000381	3.805342	0.644642	-0.007612
1545	7.7200e-01	4.5557	5.024597	0.000453	4.532206	0.767776	-0.009066
1546	7.7250e-01	4.5453	4.985683	0.000389	3.890856	0.659129	-0.007783
1547	7.7300e-01	4.5343	4.939072	0.000466	4.660475	0.789506	-0.009322
1548	7.7350e-01	4.5229	4.911276	0.000278	2.779183	0.470806	-0.005559
1549	7.7400e-01	4.5160	4.856113	0.000552	5.515609	0.934369	-0.011033
1550	7.7450e-01	4.5044	4.827462	0.000286	2.864696	0.485293	-0.005730
1551	7.7500e-01	4.4946	4.804370	0.000231	2.308859	0.391131	-0.004618
1552	7.7550e-01	4.4855	4.743647	0.000607	6.071445	1.028531	-0.012145
1553	7.7600e-01	4.4757	4.736378	0.000073	0.726863	0.123134	-0.001454
1554	7.7650e-01	4.4655	4.683780	0.000526	5.259069	0.890910	-0.010520
1555	7.7700e-01	4.4537	4.652991	0.000308	3.078479	0.521508	-0.006158
1556	7.7750e-01	4.4475	4.598255	0.000547	5.472852	0.927126	-0.010947
1557	7.7800e-01	4.4354	4.573025	0.000252	2.522643	0.427347	-0.005046
1558	7.7850e-01	4.4250	4.536677	0.000363	3.634316	0.615670	-0.007270
1559	7.7900e-01	4.4135	4.502039	0.000346	3.463289	0.586697	-0.006928
1560	7.7950e-01	4.4058	4.463553	0.000385	3.848099	0.651886	-0.007697
1561	7.8000e-01	4.3961	4.426777	0.000368	3.677072	0.622913	-0.007355
1562	7.8050e-01	4.3863	4.375462	0.000513	5.130799	0.869181	-0.010263
1563	7.8100e-01	4.3735	4.351515	0.000239	2.394373	0.405618	-0.004789
1564	7.8150e-01	4.3646	4.302338	0.000492	4.917015	0.832965	-0.009835
1565	7.8200e-01	4.3561	4.269838	0.000325	3.249506	0.550481	-0.006500
1566	7.8250e-01	4.3471	4.244608	0.000252	2.522643	0.427347	-0.005046
1567	7.8300e-01	4.3384	4.192011	0.000526	5.259069	0.890910	-0.010520
1568	7.8350e-01	4.3257	4.170629	0.000214	2.137833	0.362159	-0.004276
1569	7.8400e-01	4.3163	4.114610	0.000560	5.601122	0.948856	-0.011204
1570	7.8450e-01	4.3079	4.055598	0.000590	5.900418	0.999558	-0.011802
1571	7.8500e-01	4.2984	4.034644	0.000210	2.095076	0.354916	-0.004191
1572	7.8550e-01	4.2853	3.997869	0.000368	3.677072	0.622913	-0.007355
1573	7.8600e-01	4.2764	3.966224	0.000316	3.163993	0.535995	-0.006329
1574	7.8650e-01	4.2657	3.938001	0.000282	2.821939	0.478049	-0.005645
1575	7.8700e-01	4.2548	3.889252	0.000487	4.874259	0.825722	-0.009750
1576	7.8750e-01	4.2450	3.850338	0.000389	3.890856	0.659129	-0.007783
1577	7.8800e-01	4.2372	3.811852	0.000385	3.848099	0.651886	-0.007697
1578	7.8850e-01	4.2252	3.787049	0.000248	2.479886	0.420104	-0.004960
1579	7.8900e-01	4.2166	3.737873	0.000492	4.917015	0.832965	-0.009835
1580	7.8950e-01	4.2065	3.705373	0.000325	3.249506	0.550481	-0.006500
1581	7.9000e-01	4.1951	3.657051	0.000483	4.831502	0.818479	-0.009664
1582	7.9050e-01	4.1858	3.621986	0.000351	3.506046	0.593940	-0.007013
1583	7.9100e-01	4.1785	3.586493	0.000355	3.548802	0.601183	-0.007099
1584	7.9150e-01	4.1663	3.537744	0.000487	4.874259	0.825722	-0.009750
1585	7.9200e-01	4.1565	3.509093	0.000286	2.864696	0.485293	-0.005730
1586	7.9250e-01	4.1434	3.447943	0.000611	6.114202	1.035774	-0.012230
1587	7.9300e-01	4.1370	3.434686	0.000133	1.325456	0.224538	-0.002651
1588	7.9350e-01	4.1260	3.400904	0.000338	3.377776	0.572211	-0.006756
1589	7.9400e-01	4.1159	3.359424	0.000415	4.147396	0.702588	-0.008296
1590	7.9450e-01	4.1046	3.317945	0.000415	4.147396	0.702588	-0.008296
1591	7.9500e-01	4.0958	3.287583	0.000304	3.035723	0.514265	-0.006072
1592	7.9550e-01	4.0828	3.232847	0.000547	5.472852	0.927126	-0.010947
1593	7.9600e-01	4.0759	3.187091	0.000457	4.574962	0.775020	-0.009151
1594	7.9650e-01	4.0656	3.165282	0.000218	2.180589	0.369402	-0.004362
1595	7.9700e-01	4.0564	3.119526	0.000457	4.574962	0.775020	-0.009151
1596	7.9750e-01	4.0454	3.078047	0.000415	4.147396	0.702588	-0.008296
1597	7.9800e-01	4.0376	3.063507	0.000145	1.453726	0.246268	-0.002908
1598	7.9850e-01	4.0259	2.995515	0.000680	6.798308	1.151665	-0.013598
1599	7.9900e-01	4.0155	2.970285	0.000252	2.522643	0.427347	-0.005046
1600	7.9950e-01	4.0039	2.933937	0.000363	3.634316	0.615670	-0.007270
1601	8.0000e-01	3.9949	2.890747	0.000432	4.318422	0.731561	-0.008638
1602	8.0050e-01	3.9844	2.856109	0.000346	3.463289	0.586697	-0.006928
1603	8.0100e-01	3.9746	2.798807	0.000573	5.729392	0.970585	-0.011460
1604	8.0150e-01	3.9656	2.769301	0.000295	2.950209	0.499779	-0.005901
1605	8.0200e-01	3.9564	2.741506	0.000278	2.779183	0.470806	-0.005559
1606	8.0250e-01	3.9445	2.697460	0.000440	4.403936	0.746047	-0.008809
1607	8.0300e-01	3.9351	2.638020	0.000594	5.943175	1.006801	-0.011888
1608	8.0350e-01	3.9264	2.613646	0.000244	2.437129	0.412861	-0.004875
1609	8.0400e-01	3.9157	2.588843	0.000248	2.479886	0.420104	-0.004960
1610	8.0450e-01	3.9046	2.538384	0.000505	5.045285	0.854694	-0.010092
1611	8.0500e-01	3.8980	2.492200	0.000462	4.617719	0.782263	-0.009237
1612	8.0550e-01	3.8858	2.457562	0.000346	3.463289	0.586697	-0.006928
1613	8.0600e-01	3.8777	2.408813	0.000487	4.874259	0.825722	-0.009750
1614	8.0650e-01	3.8676	2.369472	0.000393	3.933612	0.666372	-0.007868
1615	8.0700e-01	3.8562	2.322005	0.000475	4.745989	0.803992	-0.009493
1616	8.0750e-01	3.8431	2.297631	0.000244	2.437129	0.412861	-0.004875
1617	8.0800e-01	3.8338	2.254440	0.000432	4.318422	0.731561	-0.008638
1618	8.0850e-01	3.8254	2.219375	0.000351	3.506046	0.593940	-0.007013
1619	8.0900e-01	3.8159	2.169343	0.000500	5.002529	0.847451	-0.010006
1620	8.0950e-01	3.8055	2.114607	0.000547	5.472852	0.927126	-0.010947
1621	8.1000e-01	3.7964	2.091515	0.000231	2.308859	0.391131	-0.004618
1622	8.1050e-01	3.7854	2.056450	0.000351	3.506046	0.593940	-0.007013
1623	8.1100e-01	3.7741	2.036779	0.000197	1.966806	0.333186	-0.003934
1624	8.1150e-01	3.7659	1.997865	0.000389	3.890856	0.659129	-0.007783
1625	8.1200e-01	3.7595	1.952109	0.000457	4.574962	0.775020	-0.009151
1626	8.1250e-01	3.7457	1.884117	0.000680	6.798308	1.151665	-0.013598
1627	8.1300e-01	3.7357	1.848196	0.000359	3.591559	0.608427	-0.007184
1628	8.1350e-01	3.7280	1.821256	0.000269	2.693669	0.456320	-0.005388
1629	8.1400e-01	3.7162	1.781487	0.000398	3.976369	0.673615	-0.007954
1630	8.1450e-01	3.7064	1.739152	0.000423	4.232909	0.717074	-0.008467
1631	8.1500e-01	3.6949	1.707508	0.000316	3.163993	0.535995	-0.006329
1632	8.1550e-01	3.6853	1.654055	0.000534	5.344582	0.905397	-0.010691
1633	8.1600e-01	3.6768	1.621555	0.000325	3.249506	0.550481	-0.006500
1634	8.1650e-01	3.6646	1.591621	0.000299	2.992966	0.507022	-0.005987
1635	8.1700e-01	3.6612	1.527905	0.000637	6.370742	1.079233	-0.012743
1636	8.1750e-01	3.6456	1.473597	0.000543	5.430095	0.919883	-0.010862
1637	8.1800e-01	3.6346	1.435538	0.000381	3.805342	0.644642	-0.007612
1638	8.1850e-01	3.6261	1.409453	0.000261	2.608156	0.441834	-0.005217
1639	8.1900e-01	3.6145	1.366263	0.000432	4.318422	0.731561	-0.008638
1640	8.1950e-01	3.6047	1.336329	0.000299	2.992966	0.507022	-0.005987
1641	8.2000e-01	3.5950	1.285442	0.000509	5.088042	0.861938	-0.010177
1642	8.2050e-01	3.5880	1.242679	0.000428	4.275666	0.724317	-0.008553
1643	8.2100e-01	3.5776	1.195213	0.000475	4.745989	0.803992	-0.009493
1644	8.2150e-01	3.5641	1.171266	0.000239	2.394373	0.405618	-0.004789
1645	8.2200e-01	3.5541	1.123799	0.000475	4.745989	0.803992	-0.009493
1646	8.2250e-01	3.5431	1.096431	0.000274	2.736426	0.463563	-0.005474
1647	8.2300e-01	3.5335	1.061366	0.000351	3.506046	0.593940	-0.007013
1648	8.2350e-01	3.5225	1.012617	0.000487	4.874259	0.825722	-0.009750
1649	8.2400e-01	3.5136	0.945907	0.000667	6.670038	1.129935	-0.013342
1650	8.2450e-01	3.5040	0.915118	0.000308	3.078479	0.521508	-0.006158
1651	8.2500e-01	3.4937	0.875349	0.000398	3.976369	0.673615	-0.007954
1652	8.2550e-01	3.4869	0.839001	0.000363	3.634316	0.615670	-0.007270
1653	8.2600e-01	3.4766	0.808639	0.000304	3.035723	0.514265	-0.006072
1654	8.2650e-01	3.4656	0.762028	0.000466	4.660475	0.789506	-0.009322
1655	8.2700e-01	3.4554	0.714562	0.000475	4.745989	0.803992	-0.009493
1656	8.2750e-01	3.4444	0.657260	0.000573	5.729392	0.970585	-0.011460
1657	8.2800e-01	3.4370	0.638445	0.000188	1.881293	0.318700	-0.003763
1658	8.2850e-01	3.4250	0.576439	0.000620	6.199715	1.050260	-0.012401
1659	8.2900e-01	3.4143	0.535387	0.000410	4.104639	0.695345	-0.008210
1660	8.2950e-01	3.4042	0.513150	0.000222	2.223346	0.376645	-0.004447
1661	8.3000e-01	3.3963	0.457987	0.000552	5.515609	0.934369	-0.011033
1662	8.3050e-01	3.3864	0.425915	0.000321	3.206749	0.543238	-0.006414
1663	8.3100e-01	3.3762	0.371179	0.000547	5.472852	0.927126	-0.010947
1664	8.3150e-01	3.3653	0.330982	0.000402	4.019126	0.680858	-0.008039
1665	8.3200e-01	3.3551	0.301476	0.000295	2.950209	0.499779	-0.005901
1666	8.3250e-01	3.3437	0.248023	0.000534	5.344582	0.905397	-0.010691
1667	8.3300e-01	3.3350	0.224076	0.000239	2.394373	0.405618	-0.004789
1668	8.3350e-01	3.3234	0.186872	0.000372	3.719829	0.630156	-0.007441
1669	8.3400e-01	3.3145	0.140689	0.000462	4.617719	0.782263	-0.009237
1670	8.3450e-01	3.3051	0.072269	0.000684	6.841065	1.158908	-0.013684
1671	8.3500e-01	3.2953	0.031644	0.000406	4.061882	0.688101	-0.008125
1672	8.3550e-01	3.2874	0.020954	0.000107	1.068916	0.181079	-0.002138
1673	8.3600e-01	3.2730	-0.025658	0.000466	4.660475	0.789506	-0.009322
1674	8.3650e-01	3.2657	-0.088518	0.000629	6.285228	1.064747	-0.012572
1675	8.3700e-01	3.2558	-0.135985	0.000475	4.745989	0.803992	-0.009493
1676	8.3750e-01	3.2465	-0.186872	0.000509	5.088042	0.861938	-0.010177
1677	8.3800e-01	3.2350	-0.222365	0.000355	3.548802	0.601183	-0.007099
1678	8.3850e-01	3.2233	-0.259569	0.000372	3.719829	0.630156	-0.007441
1679	8.3900e-01	3.2147	-0.289930	0.000304	3.035723	0.514265	-0.006072
1680	8.3950e-01	3.2031	-0.337396	0.000475	4.745989	0.803992	-0.009493
1681	8.4000e-01	3.1920	-0.371606	0.000342	3.420532	0.579454	-0.006842
1682	8.4050e-01	3.1849	-0.404534	0.000329	3.292262	0.557724	-0.006585
1683	8.4100e-01	3.1750	-0.467394	0.000629	6.285228	1.064747	-0.012572
1684	8.4150e-01	3.1656	-0.495190	0.000278	2.779183	0.470806	-0.005559
1685	8.4200e-01	3.1548	-0.557196	0.000620	6.199715	1.050260	-0.012401
1686	8.4250e-01	3.1448	-0.604235	0.000470	4.703232	0.796749	-0.009408
1687	8.4300e-01	3.1342	-0.626471	0.000222	2.223346	0.376645	-0.004447
1688	8.4350e-01	3.1281	-0.665385	0.000389	3.890856	0.659129	-0.007783
1689	8.4400e-01	3.1149	-0.712424	0.000470	4.703232	0.796749	-0.009408
1690	8.4450e-01	3.1049	-0.753048	0.000406	4.061882	0.688101	-0.008125
1691	8.4500e-01	3.0951	-0.785548	0.000325	3.249506	0.550481	-0.006500
1692	8.4550e-01	3.0841	-0.844560	0.000590	5.900418	0.999558	-0.011802
1693	8.4600e-01	3.0746	-0.889033	0.000445	4.446692	0.753290	-0.008895
1694	8.4650e-01	3.0695	-0.918539	0.000295	2.950209	0.499779	-0.005901
1695	8.4700e-01	3.0554	-0.969854	0.000513	5.130799	0.869181	-0.010263
1696	8.4750e-01	3.0457	-1.010479	0.000406	4.061882	0.688101	-0.008125
1697	8.4800e-01	3.0360	-1.050675	0.000402	4.019126	0.680858	-0.008039
1698	8.4850e-01	3.0261	-1.107977	0.000573	5.729392	0.970585	-0.011460
1699	8.4900e-01	3.0156	-1.147319	0.000393	3.933612	0.666372	-0.007868
1700	8.4950e-01	3.0078	-1.182812	0.000355	3.548802	0.601183	-0.007099
1701	8.5000e-01	2.9956	-1.246955	0.000641	6.413498	1.086476	-0.012829
1702	8.5050e-01	2.9834	-1.271330	0.000244	2.437129	0.412861	-0.004875
1703	8.5100e-01	2.9742	-1.332908	0.000616	6.156958	1.043017	-0.012316
1704	8.5150e-01	2.9660	-1.372677	0.000398	3.976369	0.673615	-0.007954
1705	8.5200e-01	2.9569	-1.403894	0.000312	3.121236	0.528752	-0.006243
1706	8.5250e-01	2.9431	-1.439814	0.000359	3.591559	0.608427	-0.007184
1707	8.5300e-01	2.9350	-1.495406	0.000556	5.558365	0.941613	-0.011118
1708	8.5350e-01	2.9272	-1.553135	0.000577	5.772149	0.977828	-0.011546
1709	8.5400e-01	2.9153	-1.612147	0.000590	5.900418	0.999558	-0.011802
1710	8.5450e-01	2.9044	-1.625404	0.000133	1.325456	0.224538	-0.002651
1711	8.5500e-01	2.8958	-1.670732	0.000453	4.532206	0.767776	-0.009066
1712	8.5550e-01	2.8838	-1.716060	0.000453	4.532206	0.767776	-0.009066
1713	8.5600e-01	2.8763	-1.760961	0.000449	4.489449	0.760533	-0.008980
1714	8.5650e-01	2.8648	-1.800302	0.000393	3.933612	0.666372	-0.007868
1715	8.5700e-01	2.8549	-1.852473	0.000522	5.216312	0.883667	-0.010434
1716	8.5750e-01	2.8445	-1.876420	0.000239	2.394373	0.405618	-0.004789
1717	8.5800e-01	2.8372	-1.910630	0.000342	3.420532	0.579454	-0.006842
1718	8.5850e-01	2.8233	-1.971780	0.000611	6.114202	1.035774	-0.012230
1719	8.5900e-01	2.8171	-2.025661	0.000539	5.387339	0.912640	-0.010776
1720	8.5950e-01	2.8036	-2.071417	0.000457	4.574962	0.775020	-0.009151
1721	8.6000e-01	2.7966	-2.137271	0.000658	6.584525	1.115449	-0.013171
1722	8.6050e-01	2.7875	-2.146251	0.000090	0.897890	0.152107	-0.001796
1723	8.6100e-01	2.7754	-2.183882	0.000376	3.762586	0.637399	-0.007526
1724	8.6150e-01	2.7670	-2.241184	0.000573	5.729392	0.970585	-0.011460
1725	8.6200e-01	2.7548	-2.305755	0.000646	6.456255	1.093719	-0.012914
1726	8.6250e-01	2.7451	-2.331413	0.000257	2.565399	0.434590	-0.005132
1727	8.6300e-01	2.7374	-2.366906	0.000355	3.548802	0.601183	-0.007099
1728	8.6350e-01	2.7241	-2.420787	0.000539	5.387339	0.912640	-0.010776
1729	8.6400e-01	2.7155	-2.465260	0.000445	4.446692	0.753290	-0.008895
1730	8.6450e-01	2.7029	-2.527693	0.000624	6.242472	1.057503	-0.012487
1731	8.6500e-01	2.6974	-2.560193	0.000325	3.249506	0.550481	-0.006500
1732	8.6550e-01	2.6831	-2.581146	0.000210	2.095076	0.354916	-0.004191
1733	8.6600e-01	2.6761	-2.654270	0.000731	7.311388	1.238583	-0.014625
1734	8.6650e-01	2.6655	-2.688052	0.000338	3.377776	0.572211	-0.006756
1735	8.6700e-01	2.6549	-2.726111	0.000381	3.805342	0.644642	-0.007612
1736	8.6750e-01	2.6437	-2.771867	0.000457	4.574962	0.775020	-0.009151
1737	8.6800e-01	2.6340	-2.824465	0.000526	5.259069	0.890910	-0.010520
1738	8.6850e-01	2.6252	-2.865517	0.000410	4.104639	0.695345	-0.008210
1739	8.6900e-01	2.6163	-2.909990	0.000445	4.446692	0.753290	-0.008895
1740	8.6950e-01	2.6038	-2.959167	0.000492	4.917015	0.832965	-0.009835
1741	8.7000e-01	2.5980	-3.018607	0.000594	5.943175	1.006801	-0.011888
1742	8.7050e-01	2.5848	-3.062652	0.000440	4.403936	0.746047	-0.008809
1743	8.7100e-01	2.5768	-3.087454	0.000248	2.479886	0.420104	-0.004960
1744	8.7150e-01	2.5632	-3.146894	0.000594	5.943175	1.006801	-0.011888
1745	8.7200e-01	2.5516	-3.173835	0.000269	2.693669	0.456320	-0.005388
1746	8.7250e-01	2.5455	-3.237979	0.000641	6.413498	1.086476	-0.012829
1747	8.7300e-01	2.5346	-3.275610	0.000376	3.762586	0.637399	-0.007526
1748	8.7350e-01	2.5259	-3.313241	0.000376	3.762586	0.637399	-0.007526
1749	8.7400e-01	2.5137	-3.387220	0.000740	7.396901	1.253069	-0.014796
1750	8.7450e-01	2.5047	-3.401759	0.000145	1.453726	0.246268	-0.002908
1751	8.7500e-01	2.4939	-3.471462	0.000697	6.969335	1.180637	-0.013941
1752	8.7550e-01	2.4830	-3.471462	-0.000000	-0.000000	-0.000000	0.000000
1753	8.7600e-01	2.4778	-3.532185	0.000607	6.071445	1.028531	-0.012145
1754	8.7650e-01	2.4646	-3.598039	0.000658	6.584525	1.115449	-0.013171
1755	8.7700e-01	2.4585	-3.636525	0.000385	3.848099	0.651886	-0.007697
1756	8.7750e-01	2.4463	-3.691261	0.000547	5.472852	0.927126	-0.010947
1757	8.7800e-01	2.4371	-3.717774	0.000265	2.650913	0.449077	-0.005303
1758	8.7850e-01	2.4232	-3.763102	0.000453	4.532206	0.767776	-0.009066
1759	8.7900e-01	2.4139	-3.822115	0.000590	5.900418	0.999558	-0.011802
1760	8.7950e-01	2.4078	-3.869581	0.000475	4.745989	0.803992	-0.009493
1761	8.8000e-01	2.3969	-3.920896	0.000513	5.130799	0.869181	-0.010263
1762	8.8050e-01	2.3861	-3.967507	0.000466	4.660475	0.789506	-0.009322
1763	8.8100e-01	2.3761	-4.031651	0.000641	6.413498	1.086476	-0.012829
1764	8.8150e-01	2.3638	-4.051749	0.000201	2.009563	0.340429	-0.004020
1765	8.8200e-01	2.3553	-4.092802	0.000410	4.104639	0.695345	-0.008210
1766	8.8250e-01	2.3465	-4.139840	0.000470	4.703232	0.796749	-0.009408
1767	8.8300e-01	2.3343	-4.195432	0.000556	5.558365	0.941613	-0.011118
1768	8.8350e-01	2.3261	-4.233490	0.000381	3.805342	0.644642	-0.007612
1769	8.8400e-01	2.3145	-4.280957	0.000475	4.745989	0.803992	-0.009493
1770	8.8450e-01	2.3053	-4.335265	0.000543	5.430095	0.919883	-0.010862
1771	8.8500e-01	2.2943	-4.388718	0.000534	5.344582	0.905397	-0.010691
1772	8.8550e-01	2.2849	-4.414376	0.000257	2.565399	0.434590	-0.005132
1773	8.8600e-01	2.2742	-4.460559	0.000462	4.617719	0.782263	-0.009237
1774	8.8650e-01	2.2662	-4.540953	0.000804	8.038251	1.361717	-0.016079
1775	8.8700e-01	2.2579	-4.569176	0.000282	2.821939	0.478049	-0.005645
1776	8.8750e-01	2.2461	-4.615360	0.000462	4.617719	0.782263	-0.009237
1777	8.8800e-01	2.2359	-4.652563	0.000372	3.719829	0.630156	-0.007441
1778	8.8850e-01	2.2241	-4.690194	0.000376	3.762586	0.637399	-0.007526
1779	8.8900e-01	2.2139	-4.757759	0.000676	6.755552	1.144421	-0.013513
1780	8.8950e-01	2.2073	-4.803087	0.000453	4.532206	0.767776	-0.009066
1781	8.9000e-01	2.1967	-4.860389	0.000573	5.729392	0.970585	-0.011460
1782	8.9050e-01	2.1861	-4.901441	0.000410	4.104639	0.695345	-0.008210
1783	8.9100e-01	2.1756	-4.948052	0.000466	4.660475	0.789506	-0.009322
1784	8.9150e-01	2.1656	-4.994236	0.000462	4.617719	0.782263	-0.009237
1785	8.9200e-01	2.1558	-5.031439	0.000372	3.719829	0.630156	-0.007441
1786	8.9250e-01	2.1457	-5.079333	0.000479	4.788745	0.811235	-0.009579
1787	8.9300e-01	2.1333	-5.145615	0.000663	6.627282	1.122692	-0.013256
1788	8.9350e-01	2.1243	-5.184956	0.000393	3.933612	0.666372	-0.007868
1789	8.9400e-01	2.1158	-5.240975	0.000560	5.601122	0.948856	-0.011204
1790	8.9450e-01	2.1043	-5.292290	0.000513	5.130799	0.869181	-0.010263
1791	8.9500e-01	2.0947	-5.319231	0.000269	2.693669	0.456320	-0.005388
1792	8.9550e-01	2.0854	-5.383375	0.000641	6.413498	1.086476	-0.012829
1793	8.9600e-01	2.0750	-5.409887	0.000265	2.650913	0.449077	-0.005303
1794	8.9650e-01	2.0661	-5.485149	0.000753	7.525171	1.274799	-0.015052
1795	8.9700e-01	2.0572	-5.526629	0.000415	4.147396	0.702588	-0.008296
1796	8.9750e-01	2.0441	-5.559984	0.000334	3.335019	0.564968	-0.006671
1797	8.9800e-01	2.0361	-5.596760	0.000368	3.677072	0.622913	-0.007355
1798	8.9850e-01	2.0242	-5.662186	0.000654	6.541768	1.108206	-0.013085
1799	8.9900e-01	2.0193	-5.698534	0.000363	3.634316	0.615670	-0.007270
1800	8.9950e-01	2.0041	-5.747711	0.000492	4.917015	0.832965	-0.009835
1801	9.0000e-01	1.9936	-5.792612	0.000449	4.489449	0.760533	-0.008980
1802	9.0050e-01	1.9852	-5.859749	0.000671	6.712795	1.137178	-0.013427
1803	9.0100e-01	1.9754	-5.892676	0.000329	3.292262	0.557724	-0.006585
1804	9.0150e-01	1.9684	-5.954682	0.000620	6.199715	1.050260	-0.012401
1805	9.0200e-01	1.9566	-5.997017	0.000423	4.232909	0.717074	-0.008467
1806	9.0250e-01	1.9440	-6.041490	0.000445	4.446692	0.753290	-0.008895
1807	9.0300e-01	1.9350	-6.102213	0.000607	6.071445	1.028531	-0.012145
1808	9.0350e-01	1.9238	-6.146686	0.000445	4.446692	0.753290	-0.008895
1809	9.0400e-01	1.9119	-6.188593	0.000419	4.190152	0.709831	-0.008381
1810	9.0450e-01	1.9060	-6.238625	0.000500	5.002529	0.847451	-0.010006
1811	9.0500e-01	1.8939	-6.289085	0.000505	5.045285	0.854694	-0.010092
1812	9.0550e-01	1.8826	-6.333130	0.000440	4.403936	0.746047	-0.008809
1813	9.0600e-01	1.8739	-6.366057	0.000329	3.292262	0.557724	-0.006585
1814	9.0650e-01	1.8635	-6.425925	0.000599	5.985932	1.014044	-0.011974
1815	9.0700e-01	1.8550	-6.494345	0.000684	6.841065	1.158908	-0.013684
1816	9.0750e-01	1.8457	-6.537535	0.000432	4.318422	0.731561	-0.008638
1817	9.0800e-01	1.8317	-6.601251	0.000637	6.370742	1.079233	-0.012743
1818	9.0850e-01	1.8250	-6.629475	0.000282	2.821939	0.478049	-0.005645
1819	9.0900e-01	1.8149	-6.678652	0.000492	4.917015	0.832965	-0.009835
1820	9.0950e-01	1.8065	-6.746644	0.000680	6.798308	1.151665	-0.013598
1821	9.1000e-01	1.7919	-6.797104	0.000505	5.045285	0.854694	-0.010092
1822	9.1050e-01	1.7865	-6.835162	0.000381	3.805342	0.644642	-0.007612
1823	9.1100e-01	1.7735	-6.873649	0.000385	3.848099	0.651886	-0.007697
1824	9.1150e-01	1.7675	-6.917266	0.000436	4.361179	0.738804	-0.008724
1825	9.1200e-01	1.7554	-6.996377	0.000791	7.909981	1.339987	-0.015822
1826	9.1250e-01	1.7456	-7.016048	0.000197	1.966806	0.333186	-0.003934
1827	9.1300e-01	1.7353	-7.067363	0.000513	5.130799	0.869181	-0.010263
1828	9.1350e-01	1.7229	-7.128086	0.000607	6.071445	1.028531	-0.012145
1829	9.1400e-01	1.7163	-7.176835	0.000487	4.874259	0.825722	-0.009750
1830	9.1450e-01	1.7066	-7.221308	0.000445	4.446692	0.753290	-0.008895
1831	9.1500e-01	1.6949	-7.267492	0.000462	4.617719	0.782263	-0.009237
1832	9.1550e-01	1.6859	-7.323510	0.000560	5.601122	0.948856	-0.011204
1833	9.1600e-01	1.6766	-7.387227	0.000637	6.370742	1.079233	-0.012743
1834	9.1650e-01	1.6626	-7.429989	0.000428	4.275666	0.724317	-0.008553
1835	9.1700e-01	1.6559	-7.486863	0.000569	5.686635	0.963342	-0.011375
1836	9.1750e-01	1.6449	-7.522356	0.000355	3.548802	0.601183	-0.007099
1837	9.1800e-01	1.6334	-7.568967	0.000466	4.660475	0.789506	-0.009322
1838	9.1850e-01	1.6225	-7.594197	0.000252	2.522643	0.427347	-0.005046
1839	9.1900e-01	1.6159	-7.675446	0.000812	8.123765	1.376203	-0.016250
1840	9.1950e-01	1.6026	-7.736169	0.000607	6.071445	1.028531	-0.012145
1841	9.2000e-01	1.5955	-7.749853	0.000137	1.368213	0.231782	-0.002737
1842	9.2050e-01	1.5847	-7.829819	0.000800	7.995495	1.354473	-0.015993
1843	9.2100e-01	1.5762	-7.898239	0.000684	6.841065	1.158908	-0.013684
1844	9.2150e-01	1.5643	-7.931166	0.000329	3.292262	0.557724	-0.006585
1845	9.2200e-01	1.5544	-7.977349	0.000462	4.617719	0.782263	-0.009237
1846	9.2250e-01	1.5445	-8.014553	0.000372	3.719829	0.630156	-0.007441
1847	9.2300e-01	1.5361	-8.073138	0.000586	5.857662	0.992315	-0.011717
1848	9.2350e-01	1.5268	-8.123170	0.000500	5.002529	0.847451	-0.010006
1849	9.2400e-01	1.5177	-8.184320	0.000611	6.114202	1.035774	-0.012230
1850	9.2450e-01	1.5055	-8.232642	0.000483	4.831502	0.818479	-0.009664
1851	9.2500e-01	1.4938	-8.271556	0.000389	3.890856	0.659129	-0.007783
1852	9.2550e-01	1.4845	-8.318594	0.000470	4.703232	0.796749	-0.009408
1853	9.2600e-01	1.4718	-8.369910	0.000513	5.130799	0.869181	-0.010263
1854	9.2650e-01	1.4661	-8.452441	0.000825	8.252035	1.397932	-0.016506
1855	9.2700e-01	1.4575	-8.472112	0.000197	1.966806	0.333186	-0.003934
1856	9.2750e-01	1.4436	-8.526848	0.000547	5.472852	0.927126	-0.010947
1857	9.2800e-01	1.4364	-8.587571	0.000607	6.071445	1.028531	-0.012145
1858	9.2850e-01	1.4265	-8.641879	0.000543	5.430095	0.919883	-0.010862
1859	9.2900e-01	1.4153	-8.680793	0.000389	3.890856	0.659129	-0.007783
1860	9.2950e-01	1.4050	-8.736384	0.000556	5.558365	0.941613	-0.011118
1861	9.3000e-01	1.3954	-8.828324	0.000919	9.192681	1.557282	-0.018388
1862	9.3050e-01	1.3843	-8.839442	0.000111	1.111673	0.188323	-0.002224
1863	9.3100e-01	1.3742	-8.891612	0.000522	5.216312	0.883667	-0.010434
1864	9.3150e-01	1.3651	-8.966874	0.000753	7.525171	1.274799	-0.015052
1865	9.3200e-01	1.3565	-9.002367	0.000355	3.548802	0.601183	-0.007099
1866	9.3250e-01	1.3448	-9.035722	0.000334	3.335019	0.564968	-0.006671
1867	9.3300e-01	1.3374	-9.099438	0.000637	6.370742	1.079233	-0.012743
1868	9.3350e-01	1.3246	-9.165720	0.000663	6.627282	1.122692	-0.013256
1869	9.3400e-01	1.3136	-9.188812	0.000231	2.308859	0.391131	-0.004618
1870	9.3450e-01	1.3063	-9.253811	0.000650	6.499012	1.100962	-0.013000
1871	9.3500e-01	1.2928	-9.318810	0.000650	6.499012	1.100962	-0.013000
1872	9.3550e-01	1.2852	-9.358579	0.000398	3.976369	0.673615	-0.007954
1873	9.3600e-01	1.2733	-9.416736	0.000581	5.814905	0.985072	-0.011631
1874	9.3650e-01	1.2627	-9.471045	0.000543	5.430095	0.919883	-0.010862
1875	9.3700e-01	1.2501	-9.506110	0.000351	3.506046	0.593940	-0.007013
1876	9.3750e-01	1.2459	-9.570254	0.000641	6.413498	1.086476	-0.012829
1877	9.3800e-01	1.2358	-9.617292	0.000470	4.703232	0.796749	-0.009408
1878	9.3850e-01	1.2234	-9.688706	0.000714	7.140362	1.209610	-0.014283
1879	9.3900e-01	1.2158	-9.720350	0.000316	3.163993	0.535995	-0.006329
1880	9.3950e-01	1.2045	-9.762257	0.000419	4.190152	0.709831	-0.008381
1881	9.4000e-01	1.1951	-9.818704	0.000564	5.643879	0.956099	-0.011289
1882	9.4050e-01	1.1866	-9.887552	0.000688	6.883822	1.166151	-0.013770
1883	9.4100e-01	1.1736	-9.946992	0.000594	5.943175	1.006801	-0.011888
1884	9.4150e-01	1.1640	-9.977781	0.000308	3.078479	0.521508	-0.006158
1885	9.4200e-01	1.1553	-10.040641	0.000629	6.285228	1.064747	-0.012572
1886	9.4250e-01	1.1473	-10.084259	0.000436	4.361179	0.738804	-0.008724
1887	9.4300e-01	1.1348	-10.150969	0.000667	6.670038	1.129935	-0.013342
1888	9.4350e-01	1.1256	-10.205277	0.000543	5.430095	0.919883	-0.010862
1889	9.4400e-01	1.1140	-10.243336	0.000381	3.805342	0.644642	-0.007612
1890	9.4450e-01	1.1076	-10.312611	0.000693	6.926578	1.173394	-0.013855
1891	9.4500e-01	1.0913	-10.357084	0.000445	4.446692	0.753290	-0.008895
1892	9.4550e-01	1.0857	-10.384452	0.000274	2.736426	0.463563	-0.005474
1893	9.4600e-01	1.0749	-10.482378	0.000979	9.791274	1.658687	-0.019585
1894	9.4650e-01	1.0612	-10.498200	0.000158	1.581996	0.267997	-0.003164
1895	9.4700e-01	1.0543	-10.581160	0.000829	8.294791	1.405176	-0.016592
1896	9.4750e-01	1.0505	-10.640600	0.000594	5.943175	1.006801	-0.011888
1897	9.4800e-01	1.0357	-10.679086	0.000385	3.848099	0.651886	-0.007697
1898	9.4850e-01	1.0262	-10.752638	0.000735	7.354145	1.245826	-0.014710
1899	9.4900e-01	1.0146	-10.787703	0.000351	3.506046	0.593940	-0.007013
1900	9.4950e-01	1.0028	-10.834314	0.000466	4.660475	0.789506	-0.009322
1901	9.5000e-01	0.9961	-10.901024	0.000667	6.670038	1.129935	-0.013342
1902	9.5050e-01	0.9864	-10.933523	0.000325	3.249506	0.550481	-0.006500
1903	9.5100e-01	0.9768	-11.014772	0.000812	8.123765	1.376203	-0.016250
1904	9.5150e-01	0.9636	-11.052403	0.000376	3.762586	0.637399	-0.007526
1905	9.5200e-01	0.9546	-11.102435	0.000500	5.002529	0.847451	-0.010006
1906	9.5250e-01	0.9457	-11.170427	0.000680	6.798308	1.151665	-0.013598
1907	9.5300e-01	0.9331	-11.231150	0.000607	6.071445	1.028531	-0.012145
1908	9.5350e-01	0.9274	-11.266215	0.000351	3.506046	0.593940	-0.007013
1909	9.5400e-01	0.9171	-11.323945	0.000577	5.772149	0.977828	-0.011546
1910	9.5450e-01	0.9052	-11.374832	0.000509	5.088042	0.861938	-0.010177
1911	9.5500e-01	0.8962	-11.438548	0.000637	6.370742	1.079233	-0.012743
1912	9.5550e-01	0.8841	-11.484732	0.000462	4.617719	0.782263	-0.009237
1913	9.5600e-01	0.8778	-11.548448	0.000637	6.370742	1.079233	-0.012743
1914	9.5650e-01	0.8658	-11.622000	0.000735	7.354145	1.245826	-0.014710
1915	9.5700e-01	0.8562	-11.662624	0.000406	4.061882	0.688101	-0.008125
1916	9.5750e-01	0.8452	-11.701538	0.000389	3.890856	0.659129	-0.007783
1917	9.5800e-01	0.8360	-11.759267	0.000577	5.772149	0.977828	-0.011546
1918	9.5850e-01	0.8235	-11.837950	0.000787	7.867225	1.332744	-0.015737
1919	9.5900e-01	0.8144	-11.869595	0.000316	3.163993	0.535995	-0.006329
1920	9.5950e-01	0.8046	-11.934166	0.000646	6.456255	1.093719	-0.012914
1921	9.6000e-01	0.7976	-11.975646	0.000415	4.147396	0.702588	-0.008296
1922	9.6050e-01	0.7844	-12.014987	0.000393	3.933612	0.666372	-0.007868
1923	9.6100e-01	0.7755	-12.108637	0.000936	9.363708	1.586255	-0.018730
1924	9.6150e-01	0.7661	-12.155248	0.000466	4.660475	0.789506	-0.009322
1925	9.6200e-01	0.7538	-12.194162	0.000389	3.890856	0.659129	-0.007783
1926	9.6250e-01	0.7453	-12.242056	0.000479	4.788745	0.811235	-0.009579
1927	9.6300e-01	0.7340	-12.324588	0.000825	8.252035	1.397932	-0.016506
1928	9.6350e-01	0.7253	-12.357943	0.000334	3.335019	0.564968	-0.006671
1929	9.6400e-01	0.7143	-12.425080	0.000671	6.712795	1.137178	-0.013427
1930	9.6450e-01	0.7073	-12.492645	0.000676	6.755552	1.144421	-0.013513
1931	9.6500e-01	0.6953	-12.502480	0.000098	0.983403	0.166593	-0.001967
1932	9.6550e-01	0.6800	-12.587578	0.000851	8.508574	1.441392	-0.017019
1933	9.6600e-01	0.6756	-12.638893	0.000513	5.130799	0.869181	-0.010263
1934	9.6650e-01	0.6676	-12.705175	0.000663	6.627282	1.122692	-0.013256
1935	9.6700e-01	0.6552	-12.777016	0.000718	7.183118	1.216853	-0.014368
1936	9.6750e-01	0.6429	-12.809515	0.000325	3.249506	0.550481	-0.006500
1937	9.6800e-01	0.6346	-12.867245	0.000577	5.772149	0.977828	-0.011546
1938	9.6850e-01	0.6247	-12.910007	0.000428	4.275666	0.724317	-0.008553
1939	9.6900e-01	0.6145	-12.972868	0.000629	6.285228	1.064747	-0.012572
1940	9.6950e-01	0.6073	-13.043426	0.000705	7.054848	1.195124	-0.014112
1941	9.7000e-01	0.5988	-13.087044	0.000436	4.361179	0.738804	-0.008724
1942	9.7050e-01	0.5865	-13.173424	0.000864	8.636844	1.463121	-0.017276
1943	9.7100e-01	0.5743	-13.214476	0.000410	4.104639	0.695345	-0.008210
1944	9.7150e-01	0.5634	-13.253390	0.000389	3.890856	0.659129	-0.007783
1945	9.7200e-01	0.5566	-13.314968	0.000616	6.156958	1.043017	-0.012316
1946	9.7250e-01	0.5486	-13.366283	0.000513	5.130799	0.869181	-0.010263
1947	9.7300e-01	0.5363	-13.442828	0.000765	7.653441	1.296528	-0.015309
1948	9.7350e-01	0.5286	-13.482170	0.000393	3.933612	0.666372	-0.007868
1949	9.7400e-01	0.5132	-13.543748	0.000616	6.156958	1.043017	-0.012316
1950	9.7450e-01	0.5028	-13.609602	0.000658	6.584525	1.115449	-0.013171
1951	9.7500e-01	0.4977	-13.641246	0.000316	3.163993	0.535995	-0.006329
1952	9.7550e-01	0.4872	-13.713515	0.000723	7.225875	1.224096	-0.014454
1953	9.7600e-01	0.4736	-13.777231	0.000637	6.370742	1.079233	-0.012743
1954	9.7650e-01	0.4652	-13.828974	0.000517	5.173555	0.876424	-0.010349
1955	9.7700e-01	0.4552	-13.885420	0.000564	5.643879	0.956099	-0.011289
1956	9.7750e-01	0.4436	-13.949564	0.000641	6.413498	1.086476	-0.012829
1957	9.7800e-01	0.4366	-14.013280	0.000637	6.370742	1.079233	-0.012743
1958	9.7850e-01	0.4235	-14.059464	0.000462	4.617719	0.782263	-0.009237
1959	9.7900e-01	0.4144	-14.114627	0.000552	5.515609	0.934369	-0.011033
1960	9.7950e-01	0.4061	-14.160811	0.000462	4.617719	0.782263	-0.009237
1961	9.8000e-01	0.3943	-14.212981	0.000522	5.216312	0.883667	-0.010434
1962	9.8050e-01	0.3864	-14.278408	0.000654	6.541768	1.108206	-0.013085
1963	9.8100e-01	0.3749	-14.334854	0.000564	5.643879	0.956099	-0.011289
1964	9.8150e-01	0.3650	-14.377189	0.000423	4.232909	0.717074	-0.008467
1965	9.8200e-01	0.3514	-14.427222	0.000500	5.002529	0.847451	-0.010006
1966	9.8250e-01	0.3449	-14.493503	0.000663	6.627282	1.122692	-0.013256
1967	9.8300e-01	0.3357	-14.575180	0.000817	8.166521	1.383446	-0.016335
1968	9.8350e-01	0.3256	-14.624357	0.000492	4.917015	0.832965	-0.009835
1969	9.8400e-01	0.3157	-14.684224	0.000599	5.985932	1.014044	-0.011974
1970	9.8450e-01	0.3064	-14.745802	0.000616	6.156958	1.043017	-0.012316
1971	9.8500e-01	0.2963	-14.803532	0.000577	5.772149	0.977828	-0.011546
1972	9.8550e-01	0.2842	-14.867676	0.000641	6.413498	1.086476	-0.012829
1973	9.8600e-01	0.2758	-14.904451	0.000368	3.677072	0.622913	-0.007355
1974	9.8650e-01	0.2621	-14.973299	0.000688	6.883822	1.166151	-0.013770
1975	9.8700e-01	0.2519	-15.025897	0.000526	5.259069	0.890910	-0.010520
1976	9.8750e-01	0.2465	-15.081061	0.000552	5.515609	0.934369	-0.011033
1977	9.8800e-01	0.2360	-15.141783	0.000607	6.071445	1.028531	-0.012145
1978	9.8850e-01	0.2264	-15.201651	0.000599	5.985932	1.014044	-0.011974
1979	9.8900e-01	0.2181	-15.255104	0.000534	5.344582	0.905397	-0.010691
1980	9.8950e-01	0.2056	-15.321814	0.000667	6.670038	1.129935	-0.013342
1981	9.9000e-01	0.1910	-15.361155	0.000393	3.933612	0.666372	-0.007868
1982	9.9050e-01	0.1858	-15.444970	0.000838	8.380305	1.419662	-0.016763
1983	9.9100e-01	0.1754	-15.495002	0.000500	5.002529	0.847451	-0.010006
1984	9.9150e-01	0.1637	-15.558290	0.000633	6.327985	1.071990	-0.012658
1985	9.9200e-01	0.1550	-15.616447	0.000581	5.814905	0.985072	-0.011631
1986	9.9250e-01	0.1440	-15.685295	0.000688	6.883822	1.166151	-0.013770
1987	9.9300e-01	0.1357	-15.743024	0.000577	5.772149	0.977828	-0.011546
1988	9.9350e-01	0.1225	-15.792201	0.000492	4.917015	0.832965	-0.009835
1989	9.9400e-01	0.1138	-15.866181	0.000740	7.396901	1.253069	-0.014796
1990	9.9450e-01	0.1050	-15.910226	0.000440	4.403936	0.746047	-0.008809
1991	9.9500e-01	0.0958	-15.956409	0.000462	4.617719	0.782263	-0.009237
1992	9.9550e-01	0.0836	-16.019698	0.000633	6.327985	1.071990	-0.012658
1993	9.9600e-01	0.0751	-16.079993	0.000603	6.028688	1.021287	-0.012059
1994	9.9650e-01	0.0655	-16.133874	0.000539	5.387339	0.912640	-0.010776
1995	9.9700e-01	0.0568	-16.197590	0.000637	6.370742	1.079233	-0.012743
1996	9.9750e-01	0.0450	-16.264300	0.000667	6.670038	1.129935	-0.013342
1997	9.9800e-01	0.0329	-16.318608	0.000543	5.430095	0.919883	-0.010862
1998	9.9850e-01	0.0243	-16.388739	0.000701	7.012092	1.187880	-0.014026
1999	9.9900e-01	0.0150	-16.469132	0.000804	8.038251	1.361717	-0.016079
2000	9.9950e-01	0.0054	-16.498638	0.000295	2.950209	0.499779	-0.005901
2001	1.0000e+00	-0.0073	-16.547388	0.000295	2.950209	0.499779	-0.009750

PMax (uC/cm2):	4.11e+01
Pr (uC/cm2):	3.98e+00
-Pr (uC/cm2):	0.00e+00
PLoss (uC/cm2):	0.00e+00
C (Max-Eff) (nF):	4.11e-01
K (Eff):	6.96e+02
Vert. (+/-Pr) Shift (uC/cm2):	1.99e+00
Offset (uC/cm2):	2.05e+01

A (Loop Area - uC/cm2·Volts):	-3.67e-02



Hysteresis Version: 5.48.1 - Radiant Technologies, Inc., 1999 - 9/12/24

