»»»»»»»»»»»»»»»»»»»»»»»»»»»»»»»»»»»» Hysteresis ««««««««««««««««««««««««««««««««««««
»»»  Executed Version:	5.48.1
»»»  Vision Version:	5.48.4 (R)
»»»  Vision Compiled:	9/18/24
»»»  Driver Version:	5.47.0
»»»  Windows Version:	Windows 8 or 8.1
»»»  Processor Information:	x86 (AMD or Intel) - 32 Processors
»»»  Tester Name:	PMF21124-494 (100V)
»»»  Tester S/N:	PMF21124-494
»»»  Internal Amp Type:	100V RevK 270k
»»»  Internal Amp S/N:	iAB2-596/K     
»»»  Execution Count:	1
»»»»»»»»»»»»»»»»»»»»»»»»»»»»»»»»»»»»»»»»»»««««««««««««««««««««««««««««««««««««««««««

Stored:	6/30/2025 - 18:3:19
Configured:	06/30/25 10:19:58 AM
Executed:	06/30/25 06:02:52 PM

»»»»»»»»»»»»»»»»»»»»»»»»»»»»»»»»»»» Sample Info ««««««««««««««««««««««««««««««««««««
Sample Name:	
Lot Name:	
Wafer Name:	
Die Row/Column:	0/0
Capacitor Number:	0
Sample Area (cm2):	1.00e-04
Sample Thickness (microns):	1.50e-01

Amplifier:	Internal

»»»»»»»»»»»»»»»»»»»»»»»»»»»»»»»»»»» Tester Info «««««««««««««««««««««««««««««««««««
Tester Name:	PMF21124-494 (100V)
Tester Serial Number:	PMF21124-494
Return Signal Amp. Level:	1.79 [Index: 2]

»»»»»»»»»»»»»»»»»»»»»»»»»»»»»»»» Hysteresis Info ««««««««««««««««««««««««««««««««««
Task Name:	Hyst-1804
Volts:	10.00
Field:	666.67 (kV/cm)
DCBias:	0.00
DCField:	0.00 (kV/cm)
Hysteresis Period (ms):	1.00e+00
Preset:	Enabled
Preset Delay (ms):	1.00e+03
Profile:	Standard Monopolar

»»»»»»»»»»»»»»»»»»»»»»»»»»»»»»»»»»»»»» Data «««««««««««««««««««««««««««««««««««««««
Points:	2001

Valid Data

Point	Time (ms)	Drive Voltage	Measured Polarization (uC/cm2)	Capacitance (uF)	Normalized Capacitance (uF/cm2)	Dielectric Constant	Instantaneous Current (mA)
   1	0.0000e+00	-0.0029	-20.612821	0.000599	5.986229	1.014095	0.011974
   2	5.0000e-04	0.0034	-20.552954	0.000599	5.986229	1.014095	0.011974
   3	1.0000e-03	0.0161	-20.513612	0.000393	3.933807	0.666405	0.007868
   4	1.5000e-03	0.0278	-20.437067	0.000765	7.653821	1.296592	0.015309
   5	2.0000e-03	0.0351	-20.408844	0.000282	2.822079	0.478073	0.005645
   6	2.5000e-03	0.0446	-20.357529	0.000513	5.131053	0.869224	0.010263
   7	3.0000e-03	0.0565	-20.332299	0.000252	2.522768	0.427368	0.005046
   8	3.5000e-03	0.0649	-20.245063	0.000872	8.722790	1.477681	0.017447
   9	4.0000e-03	0.0742	-20.198025	0.000470	4.703465	0.796789	0.009408
  10	4.5000e-03	0.0849	-20.147992	0.000500	5.002777	0.847493	0.010006
  11	5.0000e-03	0.0969	-20.095395	0.000526	5.259329	0.890955	0.010520
  12	5.5000e-03	0.1070	-20.050922	0.000445	4.446913	0.753327	0.008895
  13	6.0000e-03	0.1170	-19.983784	0.000671	6.713128	1.137235	0.013427
  14	6.5000e-03	0.1255	-19.952995	0.000308	3.078632	0.521534	0.006158
  15	7.0000e-03	0.1370	-19.896976	0.000560	5.601400	0.948903	0.011204
  16	7.5000e-03	0.1440	-19.837964	0.000590	5.900711	0.999608	0.011802
  17	8.0000e-03	0.1560	-19.774248	0.000637	6.371058	1.079286	0.012743
  18	8.5000e-03	0.1662	-19.735334	0.000389	3.891049	0.659161	0.007783
  19	9.0000e-03	0.1732	-19.678888	0.000564	5.644158	0.956146	0.011289
  20	9.5000e-03	0.1861	-19.636125	0.000428	4.275878	0.724353	0.008553
  21	1.0000e-02	0.1987	-19.571981	0.000641	6.413816	1.086530	0.012829
  22	1.0500e-02	0.2060	-19.539482	0.000325	3.249667	0.550508	0.006500
  23	1.1000e-02	0.2161	-19.465930	0.000735	7.354509	1.245888	0.014710
  24	1.1500e-02	0.2262	-19.404352	0.000616	6.157264	1.043069	0.012316
  25	1.2000e-02	0.2348	-19.376556	0.000278	2.779320	0.470830	0.005559
  26	1.2500e-02	0.2454	-19.327380	0.000492	4.917259	0.833006	0.009835
  27	1.3000e-02	0.2542	-19.281624	0.000458	4.575189	0.775058	0.009151
  28	1.3500e-02	0.2650	-19.220046	0.000616	6.157264	1.043069	0.012316
  29	1.4000e-02	0.2762	-19.171724	0.000483	4.831742	0.818519	0.009664
  30	1.4500e-02	0.2866	-19.114850	0.000569	5.686917	0.963390	0.011375
  31	1.5000e-02	0.2988	-19.051989	0.000629	6.285540	1.064799	0.012572
  32	1.5500e-02	0.3094	-19.007088	0.000449	4.489671	0.760571	0.008980
  33	1.6000e-02	0.3166	-18.942089	0.000650	6.499334	1.101017	0.013000
  34	1.6500e-02	0.3246	-18.910873	0.000312	3.121391	0.528778	0.006243
  35	1.7000e-02	0.3353	-18.858702	0.000522	5.216571	0.883711	0.010434
  36	1.7500e-02	0.3482	-18.778309	0.000804	8.038650	1.361784	0.016079
  37	1.8000e-02	0.3556	-18.768046	0.000103	1.026211	0.173845	0.002053
  38	1.8500e-02	0.3642	-18.680382	0.000877	8.765549	1.484924	0.017533
  39	1.9000e-02	0.3773	-18.643179	0.000372	3.720014	0.630187	0.007441
  40	1.9500e-02	0.3834	-18.583312	0.000599	5.986229	1.014095	0.011974
  41	2.0000e-02	0.3968	-18.523016	0.000603	6.028987	1.021338	0.012059
  42	2.0500e-02	0.4044	-18.478971	0.000440	4.404154	0.746084	0.008809
  43	2.1000e-02	0.4134	-18.428939	0.000500	5.002777	0.847493	0.010006
  44	2.1500e-02	0.4245	-18.371637	0.000573	5.729676	0.970633	0.011460
  45	2.2000e-02	0.4351	-18.331868	0.000398	3.976566	0.673649	0.007954
  46	2.2500e-02	0.4485	-18.283119	0.000487	4.874500	0.825763	0.009750
  47	2.3000e-02	0.4565	-18.225389	0.000577	5.772435	0.977877	0.011546
  48	2.3500e-02	0.4651	-18.160390	0.000650	6.499334	1.101017	0.013000
  49	2.4000e-02	0.4768	-18.124897	0.000355	3.548978	0.601213	0.007099
  50	2.4500e-02	0.4863	-18.070161	0.000547	5.473123	0.927172	0.010947
  51	2.5000e-02	0.4941	-18.050063	0.000201	2.009662	0.340446	0.004020
  52	2.5500e-02	0.5060	-17.967104	0.000830	8.295203	1.405245	0.016592
  53	2.6000e-02	0.5153	-17.923058	0.000440	4.404154	0.746084	0.008809
  54	2.6500e-02	0.5274	-17.882434	0.000406	4.062084	0.688136	0.008125
  55	2.7000e-02	0.5328	-17.835823	0.000466	4.660707	0.789545	0.009322
  56	2.7500e-02	0.5429	-17.772106	0.000637	6.371058	1.079286	0.012743
  57	2.8000e-02	0.5560	-17.704114	0.000680	6.798645	1.151722	0.013598
  58	2.8500e-02	0.5666	-17.660069	0.000440	4.404154	0.746084	0.008809
  59	2.9000e-02	0.5783	-17.610036	0.000500	5.002777	0.847493	0.010006
  60	2.9500e-02	0.5855	-17.554445	0.000556	5.558641	0.941659	0.011118
  61	3.0000e-02	0.5966	-17.509117	0.000453	4.532430	0.767814	0.009066
  62	3.0500e-02	0.6062	-17.456947	0.000522	5.216571	0.883711	0.010434
  63	3.1000e-02	0.6177	-17.426158	0.000308	3.078632	0.521534	0.006158
  64	3.1500e-02	0.6254	-17.379119	0.000470	4.703465	0.796789	0.009408
  65	3.2000e-02	0.6377	-17.285896	0.000932	9.321413	1.579090	0.018644
  66	3.2500e-02	0.6470	-17.263232	0.000227	2.266215	0.383907	0.004533
  67	3.3000e-02	0.6566	-17.199516	0.000637	6.371058	1.079286	0.012743
  68	3.3500e-02	0.6683	-17.142214	0.000573	5.729676	0.970633	0.011460
  69	3.4000e-02	0.6729	-17.093893	0.000483	4.831742	0.818519	0.009664
  70	3.4500e-02	0.6847	-17.040867	0.000530	5.302088	0.898198	0.010605
  71	3.5000e-02	0.6977	-16.999388	0.000415	4.147601	0.702623	0.008296
  72	3.5500e-02	0.7059	-16.942086	0.000573	5.729676	0.970633	0.011460
  73	3.6000e-02	0.7146	-16.888205	0.000539	5.387606	0.912685	0.010776
  74	3.6500e-02	0.7265	-16.830903	0.000573	5.729676	0.970633	0.011460
  75	3.7000e-02	0.7378	-16.783864	0.000470	4.703465	0.796789	0.009408
  76	3.7500e-02	0.7460	-16.745806	0.000381	3.805531	0.644674	0.007612
  77	3.8000e-02	0.7555	-16.679951	0.000658	6.584851	1.115504	0.013171
  78	3.8500e-02	0.7639	-16.628636	0.000513	5.131053	0.869224	0.010263
  79	3.9000e-02	0.7753	-16.605972	0.000227	2.266215	0.383907	0.004533
  80	3.9500e-02	0.7858	-16.496073	0.001099	10.989005	1.861588	0.021980
  81	4.0000e-02	0.7975	-16.471698	0.000244	2.437250	0.412881	0.004875
  82	4.0500e-02	0.8063	-16.437060	0.000346	3.463461	0.586726	0.006928
  83	4.1000e-02	0.8163	-16.369068	0.000680	6.798645	1.151722	0.013598
  84	4.1500e-02	0.8282	-16.318180	0.000509	5.088294	0.861980	0.010177
  85	4.2000e-02	0.8354	-16.284398	0.000338	3.377943	0.572239	0.006756
  86	4.2500e-02	0.8464	-16.237359	0.000470	4.703465	0.796789	0.009408
  87	4.3000e-02	0.8540	-16.174071	0.000633	6.328299	1.072043	0.012658
  88	4.3500e-02	0.8679	-16.133019	0.000410	4.104842	0.695379	0.008210
  89	4.4000e-02	0.8762	-16.070585	0.000624	6.242781	1.057556	0.012487
  90	4.4500e-02	0.8857	-16.013711	0.000569	5.686917	0.963390	0.011375
  91	4.5000e-02	0.8935	-15.953416	0.000603	6.028987	1.021338	0.012059
  92	4.5500e-02	0.9025	-15.900391	0.000530	5.302088	0.898198	0.010605
  93	4.6000e-02	0.9167	-15.864898	0.000355	3.548978	0.601213	0.007099
  94	4.6500e-02	0.9248	-15.808451	0.000564	5.644158	0.956146	0.011289
  95	4.7000e-02	0.9372	-15.770820	0.000376	3.762772	0.637431	0.007526
  96	4.7500e-02	0.9477	-15.705821	0.000650	6.499334	1.101017	0.013000
  97	4.8000e-02	0.9566	-15.656217	0.000496	4.960018	0.840250	0.009921
  98	4.8500e-02	0.9665	-15.609178	0.000470	4.703465	0.796789	0.009408
  99	4.9000e-02	0.9770	-15.548455	0.000607	6.071746	1.028582	0.012145
 100	4.9500e-02	0.9856	-15.500989	0.000475	4.746224	0.804032	0.009493
 101	5.0000e-02	0.9951	-15.447963	0.000530	5.302088	0.898198	0.010605
 102	5.0500e-02	1.0069	-15.408622	0.000393	3.933807	0.666405	0.007868
 103	5.1000e-02	1.0178	-15.370135	0.000385	3.848290	0.651918	0.007697
 104	5.1500e-02	1.0266	-15.315399	0.000547	5.473123	0.927172	0.010947
 105	5.2000e-02	1.0374	-15.255532	0.000599	5.986229	1.014095	0.011974
 106	5.2500e-02	1.0440	-15.207638	0.000479	4.788983	0.811276	0.009579
 107	5.3000e-02	1.0548	-15.161026	0.000466	4.660707	0.789545	0.009322
 108	5.3500e-02	1.0636	-15.124251	0.000368	3.677255	0.622944	0.007355
 109	5.4000e-02	1.0747	-15.068659	0.000556	5.558641	0.941659	0.011118
 110	5.4500e-02	1.0880	-15.031884	0.000368	3.677255	0.622944	0.007355
 111	5.5000e-02	1.0947	-14.950207	0.000817	8.166926	1.383515	0.016335
 112	5.5500e-02	1.1048	-14.903168	0.000470	4.703465	0.796789	0.009408
 113	5.6000e-02	1.1183	-14.867676	0.000355	3.548978	0.601213	0.007099
 114	5.6500e-02	1.1252	-14.799256	0.000684	6.841404	1.158965	0.013684
 115	5.7000e-02	1.1359	-14.753927	0.000453	4.532430	0.767814	0.009066
 116	5.7500e-02	1.1404	-14.700902	0.000530	5.302088	0.898198	0.010605
 117	5.8000e-02	1.1573	-14.635475	0.000654	6.542093	1.108261	0.013085
 118	5.8500e-02	1.1697	-14.617087	0.000184	1.838627	0.311472	0.003678
 119	5.9000e-02	1.1758	-14.572614	0.000445	4.446913	0.753327	0.008895
 120	5.9500e-02	1.1858	-14.507615	0.000650	6.499334	1.101017	0.013000
 121	6.0000e-02	1.1984	-14.451169	0.000564	5.644158	0.956146	0.011289
 122	6.0500e-02	1.2069	-14.386169	0.000650	6.499334	1.101017	0.013000
 123	6.1000e-02	1.2155	-14.352815	0.000334	3.335185	0.564996	0.006671
 124	6.1500e-02	1.2262	-14.305348	0.000475	4.746224	0.804032	0.009493
 125	6.2000e-02	1.2381	-14.263013	0.000423	4.233119	0.717110	0.008467
 126	6.2500e-02	1.2449	-14.200580	0.000624	6.242781	1.057556	0.012487
 127	6.3000e-02	1.2569	-14.136864	0.000637	6.371058	1.079286	0.012743
 128	6.3500e-02	1.2668	-14.088970	0.000479	4.788983	0.811276	0.009579
 129	6.4000e-02	1.2769	-14.054332	0.000346	3.463461	0.586726	0.006928
 130	6.4500e-02	1.2875	-14.000879	0.000534	5.344847	0.905442	0.010691
 131	6.5000e-02	1.2967	-13.944860	0.000560	5.601400	0.948903	0.011204
 132	6.5500e-02	1.3059	-13.923907	0.000210	2.095180	0.354933	0.004191
 133	6.6000e-02	1.3147	-13.846079	0.000778	7.782097	1.318323	0.015566
 134	6.6500e-02	1.3240	-13.806737	0.000393	3.933807	0.666405	0.007868
 135	6.7000e-02	1.3348	-13.725916	0.000808	8.081409	1.369028	0.016164
 136	6.7500e-02	1.3456	-13.709239	0.000167	1.667592	0.282498	0.003335
 137	6.8000e-02	1.3541	-13.657068	0.000522	5.216571	0.883711	0.010434
 138	6.8500e-02	1.3669	-13.628845	0.000282	2.822079	0.478073	0.005645
 139	6.9000e-02	1.3757	-13.554866	0.000740	7.397268	1.253131	0.014796
 140	6.9500e-02	1.3880	-13.517663	0.000372	3.720014	0.630187	0.007441
 141	7.0000e-02	1.3948	-13.473617	0.000440	4.404154	0.746084	0.008809
 142	7.0500e-02	1.4035	-13.408190	0.000654	6.542093	1.108261	0.013085
 143	7.1000e-02	1.4137	-13.343619	0.000646	6.456575	1.093773	0.012914
 144	7.1500e-02	1.4250	-13.317106	0.000265	2.651044	0.449099	0.005303
 145	7.2000e-02	1.4362	-13.287600	0.000295	2.950356	0.499804	0.005901
 146	7.2500e-02	1.4445	-13.222601	0.000650	6.499334	1.101017	0.013000
 147	7.3000e-02	1.4542	-13.158885	0.000637	6.371058	1.079286	0.012743
 148	7.3500e-02	1.4626	-13.107142	0.000517	5.173812	0.876467	0.010349
 149	7.4000e-02	1.4759	-13.043854	0.000633	6.328299	1.072043	0.012658
 150	7.4500e-02	1.4832	-13.018624	0.000252	2.522768	0.427368	0.005046
 151	7.5000e-02	1.4948	-12.971585	0.000470	4.703465	0.796789	0.009408
 152	7.5500e-02	1.5051	-12.924119	0.000475	4.746224	0.804032	0.009493
 153	7.6000e-02	1.5173	-12.866817	0.000573	5.729676	0.970633	0.011460
 154	7.6500e-02	1.5256	-12.815074	0.000517	5.173812	0.876467	0.010349
 155	7.7000e-02	1.5353	-12.772739	0.000423	4.233119	0.717110	0.008467
 156	7.7500e-02	1.5459	-12.740667	0.000321	3.206908	0.543265	0.006414
 157	7.8000e-02	1.5559	-12.654715	0.000859	8.594514	1.455950	0.017191
 158	7.8500e-02	1.5670	-12.631195	0.000235	2.351733	0.398394	0.004704
 159	7.9000e-02	1.5788	-12.553795	0.000774	7.739338	1.311079	0.015480
 160	7.9500e-02	1.5875	-12.520013	0.000338	3.377943	0.572239	0.006756
 161	8.0000e-02	1.5959	-12.464422	0.000556	5.558641	0.941659	0.011118
 162	8.0500e-02	1.6077	-12.421659	0.000428	4.275878	0.724353	0.008553
 163	8.1000e-02	1.6159	-12.389159	0.000325	3.249667	0.550508	0.006500
 164	8.1500e-02	1.6220	-12.313897	0.000753	7.525545	1.274862	0.015052
 165	8.2000e-02	1.6385	-12.285674	0.000282	2.822079	0.478073	0.005645
 166	8.2500e-02	1.6437	-12.229228	0.000564	5.644158	0.956146	0.011289
 167	8.3000e-02	1.6562	-12.174064	0.000552	5.515882	0.934416	0.011033
 168	8.3500e-02	1.6656	-12.141564	0.000325	3.249667	0.550508	0.006500
 169	8.4000e-02	1.6775	-12.091105	0.000505	5.045536	0.854737	0.010092
 170	8.4500e-02	1.6843	-12.038079	0.000530	5.302088	0.898198	0.010605
 171	8.5000e-02	1.6950	-11.989757	0.000483	4.831742	0.818519	0.009664
 172	8.5500e-02	1.7046	-11.937160	0.000526	5.259329	0.890955	0.010520
 173	8.6000e-02	1.7160	-11.891831	0.000453	4.532430	0.767814	0.009066
 174	8.6500e-02	1.7237	-11.837095	0.000547	5.473123	0.927172	0.010947
 175	8.7000e-02	1.7372	-11.784070	0.000530	5.302088	0.898198	0.010605
 176	8.7500e-02	1.7455	-11.740452	0.000436	4.361395	0.738840	0.008724
 177	8.8000e-02	1.7554	-11.691275	0.000492	4.917259	0.833006	0.009835
 178	8.8500e-02	1.7678	-11.648085	0.000432	4.318636	0.731597	0.008638
 179	8.9000e-02	1.7755	-11.590355	0.000577	5.772435	0.977877	0.011546
 180	8.9500e-02	1.7877	-11.552724	0.000376	3.762772	0.637431	0.007526
 181	9.0000e-02	1.7941	-11.496706	0.000560	5.601400	0.948903	0.011204
 182	9.0500e-02	1.8057	-11.421016	0.000757	7.568303	1.282105	0.015138
 183	9.1000e-02	1.8162	-11.409470	0.000115	1.154487	0.195575	0.002309
 184	9.1500e-02	1.8243	-11.365425	0.000440	4.404154	0.746084	0.008809
 185	9.2000e-02	1.8343	-11.318813	0.000466	4.660707	0.789545	0.009322
 186	9.2500e-02	1.8476	-11.270919	0.000479	4.788983	0.811276	0.009579
 187	9.3000e-02	1.8527	-11.201644	0.000693	6.926922	1.173452	0.013855
 188	9.3500e-02	1.8665	-11.185394	0.000162	1.624833	0.275254	0.003250
 189	9.4000e-02	1.8773	-11.107567	0.000778	7.782097	1.318323	0.015566
 190	9.4500e-02	1.8886	-11.087896	0.000197	1.966904	0.333203	0.003934
 191	9.5000e-02	1.9006	-10.999377	0.000885	8.851067	1.499411	0.017704
 192	9.5500e-02	1.9055	-10.989542	0.000098	0.983452	0.166601	0.001967
 193	9.6000e-02	1.9154	-10.924971	0.000646	6.456575	1.093773	0.012914
 194	9.6500e-02	1.9250	-10.867241	0.000577	5.772435	0.977877	0.011546
 195	9.7000e-02	1.9349	-10.850136	0.000171	1.710351	0.289741	0.003421
 196	9.7500e-02	1.9470	-10.784282	0.000658	6.584851	1.115504	0.013171
 197	9.8000e-02	1.9595	-10.737243	0.000470	4.703465	0.796789	0.009408
 198	9.8500e-02	1.9666	-10.687211	0.000500	5.002777	0.847493	0.010006
 199	9.9000e-02	1.9778	-10.634613	0.000526	5.259329	0.890955	0.010520
 200	9.9500e-02	1.9859	-10.603396	0.000312	3.121391	0.528778	0.006243
 201	1.0000e-01	1.9946	-10.540963	0.000624	6.242781	1.057556	0.012487
 202	1.0050e-01	2.0071	-10.493924	0.000470	4.703465	0.796789	0.009408
 203	1.0100e-01	2.0164	-10.474253	0.000197	1.966904	0.333203	0.003934
 204	1.0150e-01	2.0265	-10.405406	0.000688	6.884163	1.166209	0.013770
 205	1.0200e-01	2.0377	-10.366492	0.000389	3.891049	0.659161	0.007783
 206	1.0250e-01	2.0458	-10.308762	0.000577	5.772435	0.977877	0.011546
 207	1.0300e-01	2.0541	-10.251888	0.000569	5.686917	0.963390	0.011375
 208	1.0350e-01	2.0624	-10.209126	0.000428	4.275878	0.724353	0.008553
 209	1.0400e-01	2.0746	-10.147120	0.000620	6.200023	1.050312	0.012401
 210	1.0450e-01	2.0862	-10.117186	0.000299	2.993114	0.507047	0.005987
 211	1.0500e-01	2.0972	-10.054753	0.000624	6.242781	1.057556	0.012487
 212	1.0550e-01	2.1077	-10.010280	0.000445	4.446913	0.753327	0.008895
 213	1.0600e-01	2.1156	-9.969228	0.000410	4.104842	0.695379	0.008210
 214	1.0650e-01	2.1262	-9.937156	0.000321	3.206908	0.543265	0.006414
 215	1.0700e-01	2.1375	-9.896959	0.000402	4.019325	0.680892	0.008039
 216	1.0750e-01	2.1467	-9.842223	0.000547	5.473123	0.927172	0.010947
 217	1.0800e-01	2.1585	-9.793046	0.000492	4.917259	0.833006	0.009835
 218	1.0850e-01	2.1699	-9.715646	0.000774	7.739338	1.311079	0.015480
 219	1.0900e-01	2.1762	-9.686568	0.000291	2.907597	0.492560	0.005816
 220	1.0950e-01	2.1860	-9.642522	0.000440	4.404154	0.746084	0.008809
 221	1.1000e-01	2.1947	-9.593345	0.000492	4.917259	0.833006	0.009835
 222	1.1050e-01	2.2064	-9.546307	0.000470	4.703465	0.796789	0.009408
 223	1.1100e-01	2.2177	-9.489005	0.000573	5.729676	0.970633	0.011460
 224	1.1150e-01	2.2275	-9.461209	0.000278	2.779320	0.470830	0.005559
 225	1.1200e-01	2.2373	-9.410322	0.000509	5.088294	0.861980	0.010177
 226	1.1250e-01	2.2449	-9.376539	0.000338	3.377943	0.572239	0.006756
 227	1.1300e-01	2.2565	-9.331639	0.000449	4.489671	0.760571	0.008980
 228	1.1350e-01	2.2645	-9.254666	0.000770	7.696580	1.303836	0.015395
 229	1.1400e-01	2.2778	-9.220456	0.000342	3.420702	0.579483	0.006842
 230	1.1450e-01	2.2893	-9.182825	0.000376	3.762772	0.637431	0.007526
 231	1.1500e-01	2.2963	-9.128517	0.000543	5.430365	0.919929	0.010862
 232	1.1550e-01	2.3062	-9.098583	0.000299	2.993114	0.507047	0.005987
 233	1.1600e-01	2.3148	-9.027597	0.000710	7.097957	1.202426	0.014197
 234	1.1650e-01	2.3266	-9.005361	0.000222	2.223456	0.376664	0.004447
 235	1.1700e-01	2.3347	-8.935658	0.000697	6.969680	1.180696	0.013941
 236	1.1750e-01	2.3477	-8.883915	0.000517	5.173812	0.876467	0.010349
 237	1.1800e-01	2.3572	-8.860823	0.000231	2.308974	0.391151	0.004618
 238	1.1850e-01	2.3672	-8.810364	0.000505	5.045536	0.854737	0.010092
 239	1.1900e-01	2.3781	-8.771877	0.000385	3.848290	0.651918	0.007697
 240	1.1950e-01	2.3865	-8.718424	0.000534	5.344847	0.905442	0.010691
 241	1.2000e-01	2.3964	-8.679510	0.000389	3.891049	0.659161	0.007783
 242	1.2050e-01	2.4054	-8.603393	0.000761	7.611062	1.289349	0.015223
 243	1.2100e-01	2.4165	-8.554216	0.000492	4.917259	0.833006	0.009835
 244	1.2150e-01	2.4263	-8.521289	0.000329	3.292426	0.557752	0.006585
 245	1.2200e-01	2.4400	-8.485796	0.000355	3.548978	0.601213	0.007099
 246	1.2250e-01	2.4470	-8.448593	0.000372	3.720014	0.630187	0.007441
 247	1.2300e-01	2.4550	-8.383594	0.000650	6.499334	1.101017	0.013000
 248	1.2350e-01	2.4647	-8.325009	0.000586	5.857952	0.992364	0.011717
 249	1.2400e-01	2.4763	-8.303200	0.000218	2.180698	0.369420	0.004362
 250	1.2450e-01	2.4883	-8.259155	0.000440	4.404154	0.746084	0.008809
 251	1.2500e-01	2.4991	-8.198432	0.000607	6.071746	1.028582	0.012145
 252	1.2550e-01	2.5046	-8.164222	0.000342	3.420702	0.579483	0.006842
 253	1.2600e-01	2.5159	-8.126163	0.000381	3.805531	0.644674	0.007612
 254	1.2650e-01	2.5278	-8.071427	0.000547	5.473123	0.927172	0.010947
 255	1.2700e-01	2.5354	-8.032086	0.000393	3.933807	0.666405	0.007868
 256	1.2750e-01	2.5455	-7.969652	0.000624	6.242781	1.057556	0.012487
 257	1.2800e-01	2.5552	-7.933732	0.000359	3.591737	0.608457	0.007184
 258	1.2850e-01	2.5671	-7.892680	0.000410	4.104842	0.695379	0.008210
 259	1.2900e-01	2.5780	-7.860180	0.000325	3.249667	0.550508	0.006500
 260	1.2950e-01	2.5863	-7.781925	0.000782	7.824856	1.325566	0.015651
 261	1.3000e-01	2.5986	-7.744721	0.000372	3.720014	0.630187	0.007441
 262	1.3050e-01	2.6056	-7.707090	0.000376	3.762772	0.637431	0.007526
 263	1.3100e-01	2.6129	-7.644657	0.000624	6.242781	1.057556	0.012487
 264	1.3150e-01	2.6252	-7.618572	0.000261	2.608285	0.441855	0.005217
 265	1.3200e-01	2.6373	-7.556566	0.000620	6.200023	1.050312	0.012401
 266	1.3250e-01	2.6450	-7.502258	0.000543	5.430365	0.919929	0.010862
 267	1.3300e-01	2.6570	-7.460351	0.000419	4.190360	0.709866	0.008381
 268	1.3350e-01	2.6674	-7.423575	0.000368	3.677255	0.622944	0.007355
 269	1.3400e-01	2.6767	-7.378674	0.000449	4.489671	0.760571	0.008980
 270	1.3450e-01	2.6869	-7.330352	0.000483	4.831742	0.818519	0.009664
 271	1.3500e-01	2.6947	-7.310254	0.000201	2.009662	0.340446	0.004020
 272	1.3550e-01	2.7057	-7.251242	0.000590	5.900711	0.999608	0.011802
 273	1.3600e-01	2.7150	-7.216604	0.000346	3.463461	0.586726	0.006928
 274	1.3650e-01	2.7271	-7.169138	0.000475	4.746224	0.804032	0.009493
 275	1.3700e-01	2.7368	-7.111408	0.000577	5.772435	0.977877	0.011546
 276	1.3750e-01	2.7469	-7.058383	0.000530	5.302088	0.898198	0.010605
 277	1.3800e-01	2.7567	-7.017758	0.000406	4.062084	0.688136	0.008125
 278	1.3850e-01	2.7687	-6.993811	0.000239	2.394491	0.405638	0.004789
 279	1.3900e-01	2.7765	-6.942496	0.000513	5.131053	0.869224	0.010263
 280	1.3950e-01	2.7869	-6.887333	0.000552	5.515882	0.934416	0.011033
 281	1.4000e-01	2.7966	-6.845853	0.000415	4.147601	0.702623	0.008296
 282	1.4050e-01	2.8067	-6.797104	0.000487	4.874500	0.825763	0.009750
 283	1.4100e-01	2.8165	-6.745361	0.000517	5.173812	0.876467	0.010349
 284	1.4150e-01	2.8265	-6.691480	0.000539	5.387606	0.912685	0.010776
 285	1.4200e-01	2.8394	-6.668389	0.000231	2.308974	0.391151	0.004618
 286	1.4250e-01	2.8448	-6.607666	0.000607	6.071746	1.028582	0.012145
 287	1.4300e-01	2.8571	-6.583719	0.000239	2.394491	0.405638	0.004789
 288	1.4350e-01	2.8662	-6.523851	0.000599	5.986229	1.014095	0.011974
 289	1.4400e-01	2.8757	-6.484937	0.000389	3.891049	0.659161	0.007783
 290	1.4450e-01	2.8868	-6.440037	0.000449	4.489671	0.760571	0.008980
 291	1.4500e-01	2.8979	-6.400695	0.000393	3.933807	0.666405	0.007868
 292	1.4550e-01	2.9048	-6.342966	0.000577	5.772435	0.977877	0.011546
 293	1.4600e-01	2.9175	-6.310466	0.000325	3.249667	0.550508	0.006500
 294	1.4650e-01	2.9282	-6.263855	0.000466	4.660707	0.789545	0.009322
 295	1.4700e-01	2.9384	-6.221948	0.000419	4.190360	0.709866	0.008381
 296	1.4750e-01	2.9463	-6.173626	0.000483	4.831742	0.818519	0.009664
 297	1.4800e-01	2.9550	-6.105634	0.000680	6.798645	1.151722	0.013598
 298	1.4850e-01	2.9666	-6.081259	0.000244	2.437250	0.412881	0.004875
 299	1.4900e-01	2.9755	-6.018398	0.000629	6.285540	1.064799	0.012572
 300	1.4950e-01	2.9865	-5.974780	0.000436	4.361395	0.738840	0.008724
 301	1.5000e-01	2.9948	-5.958958	0.000158	1.582075	0.268011	0.003164
 302	1.5050e-01	3.0042	-5.911492	0.000475	4.746224	0.804032	0.009493
 303	1.5100e-01	3.0179	-5.870012	0.000415	4.147601	0.702623	0.008296
 304	1.5150e-01	3.0255	-5.808434	0.000616	6.157264	1.043069	0.012316
 305	1.5200e-01	3.0338	-5.756691	0.000517	5.173812	0.876467	0.010349
 306	1.5250e-01	3.0457	-5.725047	0.000316	3.164149	0.536021	0.006329
 307	1.5300e-01	3.0569	-5.694686	0.000304	3.035873	0.514291	0.006072
 308	1.5350e-01	3.0671	-5.645081	0.000496	4.960018	0.840250	0.009921
 309	1.5400e-01	3.0783	-5.594194	0.000509	5.088294	0.861980	0.010177
 310	1.5450e-01	3.0865	-5.564260	0.000299	2.993114	0.507047	0.005987
 311	1.5500e-01	3.0946	-5.500544	0.000637	6.371058	1.079286	0.012743
 312	1.5550e-01	3.1035	-5.429986	0.000706	7.055198	1.195183	0.014112
 313	1.5600e-01	3.1183	-5.417157	0.000128	1.282763	0.217306	0.002566
 314	1.5650e-01	3.1268	-5.365414	0.000517	5.173812	0.876467	0.010349
 315	1.5700e-01	3.1374	-5.332060	0.000334	3.335185	0.564996	0.006671
 316	1.5750e-01	3.1460	-5.291863	0.000402	4.019325	0.680892	0.008039
 317	1.5800e-01	3.1564	-5.235416	0.000564	5.644158	0.956146	0.011289
 318	1.5850e-01	3.1683	-5.198213	0.000372	3.720014	0.630187	0.007441
 319	1.5900e-01	3.1746	-5.148608	0.000496	4.960018	0.840250	0.009921
 320	1.5950e-01	3.1851	-5.113543	0.000351	3.506220	0.593970	0.007013
 321	1.6000e-01	3.1964	-5.067360	0.000462	4.617948	0.782302	0.009237
 322	1.6050e-01	3.2089	-5.034860	0.000325	3.249667	0.550508	0.006500
 323	1.6100e-01	3.2172	-4.990387	0.000445	4.446913	0.753327	0.008895
 324	1.6150e-01	3.2260	-4.930519	0.000599	5.986229	1.014095	0.011974
 325	1.6200e-01	3.2379	-4.903579	0.000269	2.693803	0.456343	0.005388
 326	1.6250e-01	3.2446	-4.838580	0.000650	6.499334	1.101017	0.013000
 327	1.6300e-01	3.2561	-4.798811	0.000398	3.976566	0.673649	0.007954
 328	1.6350e-01	3.2675	-4.774436	0.000244	2.437250	0.412881	0.004875
 329	1.6400e-01	3.2764	-4.715852	0.000586	5.857952	0.992364	0.011717
 330	1.6450e-01	3.2866	-4.682069	0.000338	3.377943	0.572239	0.006756
 331	1.6500e-01	3.2959	-4.624767	0.000573	5.729676	0.970633	0.011460
 332	1.6550e-01	3.3075	-4.600393	0.000244	2.437250	0.412881	0.004875
 333	1.6600e-01	3.3160	-4.534966	0.000654	6.542093	1.108261	0.013085
 334	1.6650e-01	3.3264	-4.518289	0.000167	1.667592	0.282498	0.003335
 335	1.6700e-01	3.3377	-4.463980	0.000543	5.430365	0.919929	0.010862
 336	1.6750e-01	3.3450	-4.412665	0.000513	5.131053	0.869224	0.010263
 337	1.6800e-01	3.3560	-4.385725	0.000269	2.693803	0.456343	0.005388
 338	1.6850e-01	3.3658	-4.331416	0.000543	5.430365	0.919929	0.010862
 339	1.6900e-01	3.3772	-4.265134	0.000663	6.627610	1.122748	0.013256
 340	1.6950e-01	3.3856	-4.244181	0.000210	2.095180	0.354933	0.004191
 341	1.7000e-01	3.3951	-4.212964	0.000312	3.121391	0.528778	0.006243
 342	1.7050e-01	3.4094	-4.151814	0.000611	6.114505	1.035825	0.012230
 343	1.7100e-01	3.4180	-4.128294	0.000235	2.351733	0.398394	0.004704
 344	1.7150e-01	3.4271	-4.090236	0.000381	3.805531	0.644674	0.007612
 345	1.7200e-01	3.4352	-4.038065	0.000522	5.216571	0.883711	0.010434
 346	1.7250e-01	3.4449	-3.976487	0.000616	6.157264	1.043069	0.012316
 347	1.7300e-01	3.4575	-3.914482	0.000620	6.200023	1.050312	0.012401
 348	1.7350e-01	3.4662	-3.899943	0.000145	1.453798	0.246280	0.002908
 349	1.7400e-01	3.4808	-3.855897	0.000440	4.404154	0.746084	0.008809
 350	1.7450e-01	3.4866	-3.810569	0.000453	4.532430	0.767814	0.009066
 351	1.7500e-01	3.4937	-3.778925	0.000316	3.164149	0.536021	0.006329
 352	1.7550e-01	3.5049	-3.736162	0.000428	4.275878	0.724353	0.008553
 353	1.7600e-01	3.5190	-3.694255	0.000419	4.190360	0.709866	0.008381
 354	1.7650e-01	3.5281	-3.633104	0.000611	6.114505	1.035825	0.012230
 355	1.7700e-01	3.5376	-3.596756	0.000363	3.634496	0.615700	0.007270
 356	1.7750e-01	3.5464	-3.556987	0.000398	3.976566	0.673649	0.007954
 357	1.7800e-01	3.5559	-3.517218	0.000398	3.976566	0.673649	0.007954
 358	1.7850e-01	3.5672	-3.466758	0.000505	5.045536	0.854737	0.010092
 359	1.7900e-01	3.5757	-3.432976	0.000338	3.377943	0.572239	0.006756
 360	1.7950e-01	3.5869	-3.367121	0.000658	6.584851	1.115504	0.013171
 361	1.8000e-01	3.5950	-3.339326	0.000278	2.779320	0.470830	0.005559
 362	1.8050e-01	3.6053	-3.292287	0.000470	4.703465	0.796789	0.009408
 363	1.8100e-01	3.6172	-3.227716	0.000646	6.456575	1.093773	0.012914
 364	1.8150e-01	3.6273	-3.211893	0.000158	1.582075	0.268011	0.003164
 365	1.8200e-01	3.6349	-3.166565	0.000453	4.532430	0.767814	0.009066
 366	1.8250e-01	3.6449	-3.146894	0.000197	1.966904	0.333203	0.003934
 367	1.8300e-01	3.6591	-3.093014	0.000539	5.387606	0.912685	0.010776
 368	1.8350e-01	3.6667	-3.046830	0.000462	4.617948	0.782302	0.009237
 369	1.8400e-01	3.6768	-3.002357	0.000445	4.446913	0.753327	0.008895
 370	1.8450e-01	3.6856	-2.955318	0.000470	4.703465	0.796789	0.009408
 371	1.8500e-01	3.6980	-2.920253	0.000351	3.506220	0.593970	0.007013
 372	1.8550e-01	3.7048	-2.886043	0.000342	3.420702	0.579483	0.006842
 373	1.8600e-01	3.7181	-2.821899	0.000641	6.413816	1.086530	0.012829
 374	1.8650e-01	3.7247	-2.803939	0.000180	1.795869	0.304228	0.003592
 375	1.8700e-01	3.7372	-2.757328	0.000466	4.660707	0.789545	0.009322
 376	1.8750e-01	3.7439	-2.706868	0.000505	5.045536	0.854737	0.010092
 377	1.8800e-01	3.7567	-2.668382	0.000385	3.848290	0.651918	0.007697
 378	1.8850e-01	3.7659	-2.646145	0.000222	2.223456	0.376664	0.004447
 379	1.8900e-01	3.7799	-2.585422	0.000607	6.071746	1.028582	0.012145
 380	1.8950e-01	3.7895	-2.563186	0.000222	2.223456	0.376664	0.004447
 381	1.9000e-01	3.7964	-2.528976	0.000342	3.420702	0.579483	0.006842
 382	1.9050e-01	3.8037	-2.470819	0.000582	5.815194	0.985120	0.011631
 383	1.9100e-01	3.8165	-2.428056	0.000428	4.275878	0.724353	0.008553
 384	1.9150e-01	3.8293	-2.390853	0.000372	3.720014	0.630187	0.007441
 385	1.9200e-01	3.8336	-2.337400	0.000534	5.344847	0.905442	0.010691
 386	1.9250e-01	3.8446	-2.314736	0.000227	2.266215	0.383907	0.004533
 387	1.9300e-01	3.8559	-2.258717	0.000560	5.601400	0.948903	0.011204
 388	1.9350e-01	3.8663	-2.224079	0.000346	3.463461	0.586726	0.006928
 389	1.9400e-01	3.8771	-2.165922	0.000582	5.815194	0.985120	0.011631
 390	1.9450e-01	3.8870	-2.115890	0.000500	5.002777	0.847493	0.010006
 391	1.9500e-01	3.8965	-2.082535	0.000334	3.335185	0.564996	0.006671
 392	1.9550e-01	3.9069	-2.049608	0.000329	3.292426	0.557752	0.006585
 393	1.9600e-01	3.9166	-2.015826	0.000338	3.377943	0.572239	0.006756
 394	1.9650e-01	3.9237	-1.985037	0.000308	3.078632	0.521534	0.006158
 395	1.9700e-01	3.9355	-1.927735	0.000573	5.729676	0.970633	0.011460
 396	1.9750e-01	3.9478	-1.893952	0.000338	3.377943	0.572239	0.006756
 397	1.9800e-01	3.9572	-1.861025	0.000329	3.292426	0.557752	0.006585
 398	1.9850e-01	3.9673	-1.811421	0.000496	4.960018	0.840250	0.009921
 399	1.9900e-01	3.9764	-1.753264	0.000582	5.815194	0.985120	0.011631
 400	1.9950e-01	3.9868	-1.716915	0.000363	3.634496	0.615700	0.007270
 401	2.0000e-01	3.9975	-1.678857	0.000381	3.805531	0.644674	0.007612
 402	2.0050e-01	4.0057	-1.637805	0.000410	4.104842	0.695379	0.008210
 403	2.0100e-01	4.0173	-1.599319	0.000385	3.848290	0.651918	0.007697
 404	2.0150e-01	4.0277	-1.553135	0.000462	4.617948	0.782302	0.009237
 405	2.0200e-01	4.0372	-1.503103	0.000500	5.002777	0.847493	0.010006
 406	2.0250e-01	4.0482	-1.488564	0.000145	1.453798	0.246280	0.002908
 407	2.0300e-01	4.0564	-1.446656	0.000419	4.190360	0.709866	0.008381
 408	2.0350e-01	4.0643	-1.399618	0.000470	4.703465	0.796789	0.009408
 409	2.0400e-01	4.0753	-1.349585	0.000500	5.002777	0.847493	0.010006
 410	2.0450e-01	4.0884	-1.323073	0.000265	2.651044	0.449099	0.005303
 411	2.0500e-01	4.0968	-1.265343	0.000577	5.772435	0.977877	0.011546
 412	2.0550e-01	4.1071	-1.226002	0.000393	3.933807	0.666405	0.007868
 413	2.0600e-01	4.1177	-1.174259	0.000517	5.173812	0.876467	0.010349
 414	2.0650e-01	4.1248	-1.130641	0.000436	4.361395	0.738840	0.008724
 415	2.0700e-01	4.1360	-1.103273	0.000274	2.736562	0.463586	0.005474
 416	2.0750e-01	4.1461	-1.059228	0.000440	4.404154	0.746084	0.008809
 417	2.0800e-01	4.1568	-1.015610	0.000436	4.361395	0.738840	0.008724
 418	2.0850e-01	4.1672	-0.982255	0.000334	3.335185	0.564996	0.006671
 419	2.0900e-01	4.1794	-0.954032	0.000282	2.822079	0.478073	0.005645
 420	2.0950e-01	4.1864	-0.924953	0.000291	2.907597	0.492560	0.005816
 421	2.1000e-01	4.1938	-0.866369	0.000586	5.857952	0.992364	0.011717
 422	2.1050e-01	4.2072	-0.827455	0.000389	3.891049	0.659161	0.007783
 423	2.1100e-01	4.2151	-0.788969	0.000385	3.848290	0.651918	0.007697
 424	2.1150e-01	4.2270	-0.723114	0.000658	6.584851	1.115504	0.013171
 425	2.1200e-01	4.2374	-0.707720	0.000154	1.539316	0.260767	0.003079
 426	2.1250e-01	4.2445	-0.665813	0.000419	4.190360	0.709866	0.008381
 427	2.1300e-01	4.2557	-0.634596	0.000312	3.121391	0.528778	0.006243
 428	2.1350e-01	4.2673	-0.590978	0.000436	4.361395	0.738840	0.008724
 429	2.1400e-01	4.2767	-0.553775	0.000372	3.720014	0.630187	0.007441
 430	2.1450e-01	4.2857	-0.519992	0.000338	3.377943	0.572239	0.006756
 431	2.1500e-01	4.2975	-0.463973	0.000560	5.601400	0.948903	0.011204
 432	2.1550e-01	4.3073	-0.440882	0.000231	2.308974	0.391151	0.004618
 433	2.1600e-01	4.3176	-0.378021	0.000629	6.285540	1.064799	0.012572
 434	2.1650e-01	4.3268	-0.358350	0.000197	1.966904	0.333203	0.003934
 435	2.1700e-01	4.3408	-0.306180	0.000522	5.216571	0.883711	0.010434
 436	2.1750e-01	4.3471	-0.259996	0.000462	4.617948	0.782302	0.009237
 437	2.1800e-01	4.3576	-0.234339	0.000257	2.565527	0.434612	0.005132
 438	2.1850e-01	4.3655	-0.186445	0.000479	4.788983	0.811276	0.009579
 439	2.1900e-01	4.3779	-0.129143	0.000573	5.729676	0.970633	0.011460
 440	2.1950e-01	4.3878	-0.104768	0.000244	2.437250	0.412881	0.004875
 441	2.2000e-01	4.3967	-0.067992	0.000368	3.677255	0.622944	0.007355
 442	2.2050e-01	4.4064	-0.039342	0.000286	2.864838	0.485317	0.005730
 443	2.2100e-01	4.4156	0.026085	0.000654	6.542093	1.108261	0.013085
 444	2.2150e-01	4.4257	0.039342	0.000133	1.325522	0.224550	0.002651
 445	2.2200e-01	4.4360	0.099209	0.000599	5.986229	1.014095	0.011974
 446	2.2250e-01	4.4485	0.153945	0.000547	5.473123	0.927172	0.010947
 447	2.2300e-01	4.4580	0.176182	0.000222	2.223456	0.376664	0.004447
 448	2.2350e-01	4.4678	0.212102	0.000359	3.591737	0.608457	0.007184
 449	2.2400e-01	4.4785	0.254009	0.000419	4.190360	0.709866	0.008381
 450	2.2450e-01	4.4867	0.287364	0.000334	3.335185	0.564996	0.006671
 451	2.2500e-01	4.4960	0.340817	0.000534	5.344847	0.905442	0.010691
 452	2.2550e-01	4.5044	0.365192	0.000244	2.437250	0.412881	0.004875
 453	2.2600e-01	4.5166	0.412231	0.000470	4.703465	0.796789	0.009408
 454	2.2650e-01	4.5276	0.437461	0.000252	2.522768	0.427368	0.005046
 455	2.2700e-01	4.5393	0.490914	0.000534	5.344847	0.905442	0.010691
 456	2.2750e-01	4.5503	0.508446	0.000175	1.753110	0.296985	0.003507
 457	2.2800e-01	4.5593	0.565748	0.000573	5.729676	0.970633	0.011460
 458	2.2850e-01	4.5654	0.616208	0.000505	5.045536	0.854737	0.010092
 459	2.2900e-01	4.5776	0.620484	0.000043	0.427588	0.072435	0.000855
 460	2.2950e-01	4.5889	0.688049	0.000676	6.755887	1.144478	0.013513
 461	2.3000e-01	4.5990	0.747489	0.000594	5.943470	1.006851	0.011888
 462	2.3050e-01	4.6057	0.775285	0.000278	2.779320	0.470830	0.005559
 463	2.3100e-01	4.6191	0.821896	0.000466	4.660707	0.789545	0.009322
 464	2.3150e-01	4.6295	0.855678	0.000338	3.377943	0.572239	0.006756
 465	2.3200e-01	4.6375	0.888605	0.000329	3.292426	0.557752	0.006585
 466	2.3250e-01	4.6484	0.901434	0.000128	1.282763	0.217306	0.002566
 467	2.3300e-01	4.6548	0.965578	0.000641	6.413816	1.086530	0.012829
 468	2.3350e-01	4.6661	0.990380	0.000248	2.480009	0.420125	0.004960
 469	2.3400e-01	4.6774	1.036564	0.000462	4.617948	0.782302	0.009237
 470	2.3450e-01	4.6852	1.079326	0.000428	4.275878	0.724353	0.008553
 471	2.3500e-01	4.6985	1.129358	0.000500	5.002777	0.847493	0.010006
 472	2.3550e-01	4.7064	1.172976	0.000436	4.361395	0.738840	0.008724
 473	2.3600e-01	4.7189	1.194785	0.000218	2.180698	0.369420	0.004362
 474	2.3650e-01	4.7293	1.231133	0.000363	3.634496	0.615700	0.007270
 475	2.3700e-01	4.7369	1.267909	0.000368	3.677255	0.622944	0.007355
 476	2.3750e-01	4.7461	1.317941	0.000500	5.002777	0.847493	0.010006
 477	2.3800e-01	4.7584	1.359848	0.000419	4.190360	0.709866	0.008381
 478	2.3850e-01	4.7699	1.385506	0.000257	2.565527	0.434612	0.005132
 479	2.3900e-01	4.7772	1.435538	0.000500	5.002777	0.847493	0.010006
 480	2.3950e-01	4.7894	1.462051	0.000265	2.651044	0.449099	0.005303
 481	2.4000e-01	4.7955	1.502675	0.000406	4.062084	0.688136	0.008125
 482	2.4050e-01	4.8077	1.539879	0.000372	3.720014	0.630187	0.007441
 483	2.4100e-01	4.8178	1.591621	0.000517	5.173812	0.876467	0.010349
 484	2.4150e-01	4.8291	1.613858	0.000222	2.223456	0.376664	0.004447
 485	2.4200e-01	4.8364	1.644219	0.000304	3.035873	0.514291	0.006072
 486	2.4250e-01	4.8468	1.710929	0.000667	6.670369	1.129991	0.013342
 487	2.4300e-01	4.8569	1.726323	0.000154	1.539316	0.260767	0.003079
 488	2.4350e-01	4.8669	1.762671	0.000363	3.634496	0.615700	0.007270
 489	2.4400e-01	4.8779	1.807572	0.000449	4.489671	0.760571	0.008980
 490	2.4450e-01	4.8880	1.846486	0.000389	3.891049	0.659161	0.007783
 491	2.4500e-01	4.8972	1.891387	0.000449	4.489671	0.760571	0.008980
 492	2.4550e-01	4.9097	1.942702	0.000513	5.131053	0.869224	0.010263
 493	2.4600e-01	4.9179	1.970497	0.000278	2.779320	0.470830	0.005559
 494	2.4650e-01	4.9286	1.998721	0.000282	2.822079	0.478073	0.005645
 495	2.4700e-01	4.9374	2.048753	0.000500	5.002777	0.847493	0.010006
 496	2.4750e-01	4.9487	2.072272	0.000235	2.351733	0.398394	0.004704
 497	2.4800e-01	4.9588	2.114179	0.000419	4.190360	0.709866	0.008381
 498	2.4850e-01	4.9664	2.156942	0.000428	4.275878	0.724353	0.008553
 499	2.4900e-01	4.9759	2.197139	0.000402	4.019325	0.680892	0.008039
 500	2.4950e-01	4.9866	2.220658	0.000235	2.351733	0.398394	0.004704
 501	2.5000e-01	4.9954	2.277532	0.000569	5.686917	0.963390	0.011375
 502	2.5050e-01	5.0058	2.303190	0.000257	2.565527	0.434612	0.005132
 503	2.5100e-01	5.0172	2.346380	0.000432	4.318636	0.731597	0.008638
 504	2.5150e-01	5.0272	2.381445	0.000351	3.506220	0.593970	0.007013
 505	2.5200e-01	5.0406	2.434898	0.000534	5.344847	0.905442	0.010691
 506	2.5250e-01	5.0493	2.446872	0.000120	1.197246	0.202819	0.002395
 507	2.5300e-01	5.0549	2.499897	0.000530	5.302088	0.898198	0.010605
 508	2.5350e-01	5.0661	2.520851	0.000210	2.095180	0.354933	0.004191
 509	2.5400e-01	5.0757	2.573877	0.000530	5.302088	0.898198	0.010605
 510	2.5450e-01	5.0864	2.628613	0.000547	5.473123	0.927172	0.010947
 511	2.5500e-01	5.0974	2.663678	0.000351	3.506220	0.593970	0.007013
 512	2.5550e-01	5.1083	2.672658	0.000090	0.897934	0.152114	0.001796
 513	2.5600e-01	5.1181	2.717559	0.000449	4.489671	0.760571	0.008980
 514	2.5650e-01	5.1254	2.763315	0.000458	4.575189	0.775058	0.009151
 515	2.5700e-01	5.1337	2.781702	0.000184	1.838627	0.311472	0.003678
 516	2.5750e-01	5.1471	2.835156	0.000534	5.344847	0.905442	0.010691
 517	2.5800e-01	5.1556	2.876635	0.000415	4.147601	0.702623	0.008296
 518	2.5850e-01	5.1660	2.891174	0.000145	1.453798	0.246280	0.002908
 519	2.5900e-01	5.1761	2.931799	0.000406	4.062084	0.688136	0.008125
 520	2.5950e-01	5.1855	2.995943	0.000641	6.413816	1.086530	0.012829
 521	2.6000e-01	5.1968	3.014758	0.000188	1.881386	0.318715	0.003763
 522	2.6050e-01	5.2097	3.049396	0.000346	3.463461	0.586726	0.006928
 523	2.6100e-01	5.2173	3.096862	0.000475	4.746224	0.804032	0.009493
 524	2.6150e-01	5.2255	3.126368	0.000295	2.950356	0.499804	0.005901
 525	2.6200e-01	5.2356	3.169986	0.000436	4.361395	0.738840	0.008724
 526	2.6250e-01	5.2466	3.207190	0.000372	3.720014	0.630187	0.007441
 527	2.6300e-01	5.2582	3.237123	0.000299	2.993114	0.507047	0.005987
 528	2.6350e-01	5.2673	3.272616	0.000355	3.548978	0.601213	0.007099
 529	2.6400e-01	5.2756	3.311530	0.000389	3.891049	0.659161	0.007783
 530	2.6450e-01	5.2869	3.344885	0.000334	3.335185	0.564996	0.006671
 531	2.6500e-01	5.2954	3.374819	0.000299	2.993114	0.507047	0.005987
 532	2.6550e-01	5.3078	3.439390	0.000646	6.456575	1.093773	0.012914
 533	2.6600e-01	5.3171	3.485574	0.000462	4.617948	0.782302	0.009237
 534	2.6650e-01	5.3241	3.500540	0.000150	1.496557	0.253524	0.002993
 535	2.6700e-01	5.3381	3.543303	0.000428	4.275878	0.724353	0.008553
 536	2.6750e-01	5.3458	3.583927	0.000406	4.062084	0.688136	0.008125
 537	2.6800e-01	5.3555	3.622414	0.000385	3.848290	0.651918	0.007697
 538	2.6850e-01	5.3671	3.666887	0.000445	4.446913	0.753327	0.008895
 539	2.6900e-01	5.3786	3.696393	0.000295	2.950356	0.499804	0.005901
 540	2.6950e-01	5.3873	3.722478	0.000261	2.608285	0.441855	0.005217
 541	2.7000e-01	5.3973	3.766096	0.000436	4.361395	0.738840	0.008724
 542	2.7050e-01	5.4081	3.810141	0.000440	4.404154	0.746084	0.008809
 543	2.7100e-01	5.4138	3.850766	0.000406	4.062084	0.688136	0.008125
 544	2.7150e-01	5.4263	3.859746	0.000090	0.897934	0.152114	0.001796
 545	2.7200e-01	5.4385	3.894383	0.000346	3.463461	0.586726	0.006928
 546	2.7250e-01	5.4462	3.941422	0.000470	4.703465	0.796789	0.009408
 547	2.7300e-01	5.4556	3.945271	0.000038	0.384829	0.065192	0.000770
 548	2.7350e-01	5.4657	4.023099	0.000778	7.782097	1.318323	0.015566
 549	2.7400e-01	5.4761	4.053888	0.000308	3.078632	0.521534	0.006158
 550	2.7450e-01	5.4865	4.086815	0.000329	3.292426	0.557752	0.006585
 551	2.7500e-01	5.4993	4.124018	0.000372	3.720014	0.630187	0.007441
 552	2.7550e-01	5.5049	4.153097	0.000291	2.907597	0.492560	0.005816
 553	2.7600e-01	5.5161	4.190300	0.000372	3.720014	0.630187	0.007441
 554	2.7650e-01	5.5243	4.222800	0.000325	3.249667	0.550508	0.006500
 555	2.7700e-01	5.5372	4.271976	0.000492	4.917259	0.833006	0.009835
 556	2.7750e-01	5.5469	4.316450	0.000445	4.446913	0.753327	0.008895
 557	2.7800e-01	5.5566	4.351942	0.000355	3.548978	0.601213	0.007099
 558	2.7850e-01	5.5682	4.404113	0.000522	5.216571	0.883711	0.010434
 559	2.7900e-01	5.5798	4.414376	0.000103	1.026211	0.173845	0.002053
 560	2.7950e-01	5.5872	4.446875	0.000325	3.249667	0.550508	0.006500
 561	2.8000e-01	5.5969	4.505032	0.000582	5.815194	0.985120	0.011631
 562	2.8050e-01	5.6052	4.517433	0.000124	1.240005	0.210062	0.002480
 563	2.8100e-01	5.6177	4.549933	0.000325	3.249667	0.550508	0.006500
 564	2.8150e-01	5.6256	4.593978	0.000440	4.404154	0.746084	0.008809
 565	2.8200e-01	5.6351	4.642728	0.000487	4.874500	0.825763	0.009750
 566	2.8250e-01	5.6470	4.676510	0.000338	3.377943	0.572239	0.006756
 567	2.8300e-01	5.6555	4.701740	0.000252	2.522768	0.427368	0.005046
 568	2.8350e-01	5.6653	4.730391	0.000286	2.864838	0.485317	0.005730
 569	2.8400e-01	5.6757	4.775291	0.000449	4.489671	0.760571	0.008980
 570	2.8450e-01	5.6854	4.800949	0.000257	2.565527	0.434612	0.005132
 571	2.8500e-01	5.6973	4.852264	0.000513	5.131053	0.869224	0.010263
 572	2.8550e-01	5.7037	4.873645	0.000214	2.137939	0.362177	0.004276
 573	2.8600e-01	5.7172	4.899730	0.000261	2.608285	0.441855	0.005217
 574	2.8650e-01	5.7269	4.979269	0.000795	7.953132	1.347297	0.015908
 575	2.8700e-01	5.7385	5.001078	0.000218	2.180698	0.369420	0.004362
 576	2.8750e-01	5.7455	5.045551	0.000445	4.446913	0.753327	0.008895
 577	2.8800e-01	5.7571	5.080616	0.000351	3.506220	0.593970	0.007013
 578	2.8850e-01	5.7645	5.107984	0.000274	2.736562	0.463586	0.005474
 579	2.8900e-01	5.7751	5.141766	0.000338	3.377943	0.572239	0.006756
 580	2.8950e-01	5.7870	5.187950	0.000462	4.617948	0.782302	0.009237
 581	2.9000e-01	5.7959	5.225581	0.000376	3.762772	0.637431	0.007526
 582	2.9050e-01	5.8069	5.239692	0.000141	1.411040	0.239037	0.002822
 583	2.9100e-01	5.8138	5.287587	0.000479	4.788983	0.811276	0.009579
 584	2.9150e-01	5.8252	5.306402	0.000188	1.881386	0.318715	0.003763
 585	2.9200e-01	5.8374	5.349592	0.000432	4.318636	0.731597	0.008638
 586	2.9250e-01	5.8467	5.395776	0.000462	4.617948	0.782302	0.009237
 587	2.9300e-01	5.8588	5.410743	0.000150	1.496557	0.253524	0.002993
 588	2.9350e-01	5.8655	5.467617	0.000569	5.686917	0.963390	0.011375
 589	2.9400e-01	5.8759	5.496695	0.000291	2.907597	0.492560	0.005816
 590	2.9450e-01	5.8850	5.546727	0.000500	5.002777	0.847493	0.010006
 591	2.9500e-01	5.8972	5.565971	0.000192	1.924145	0.325959	0.003849
 592	2.9550e-01	5.9079	5.602746	0.000368	3.677255	0.622944	0.007355
 593	2.9600e-01	5.9164	5.639522	0.000368	3.677255	0.622944	0.007355
 594	2.9650e-01	5.9268	5.692548	0.000530	5.302088	0.898198	0.010605
 595	2.9700e-01	5.9424	5.708370	0.000158	1.582075	0.268011	0.003164
 596	2.9750e-01	5.9462	5.748567	0.000402	4.019325	0.680892	0.008039
 597	2.9800e-01	5.9561	5.779783	0.000312	3.121391	0.528778	0.006243
 598	2.9850e-01	5.9680	5.809289	0.000295	2.950356	0.499804	0.005901
 599	2.9900e-01	5.9772	5.859749	0.000505	5.045536	0.854737	0.010092
 600	2.9950e-01	5.9875	5.884551	0.000248	2.480009	0.420125	0.004960
 601	3.0000e-01	5.9955	5.920472	0.000359	3.591737	0.608457	0.007184
 602	3.0050e-01	6.0071	5.961524	0.000410	4.104842	0.695379	0.008210
 603	3.0100e-01	6.0159	6.002148	0.000406	4.062084	0.688136	0.008125
 604	3.0150e-01	6.0257	6.022674	0.000205	2.052421	0.347690	0.004105
 605	3.0200e-01	6.0376	6.048760	0.000261	2.608285	0.441855	0.005217
 606	3.0250e-01	6.0486	6.114614	0.000658	6.584851	1.115504	0.013171
 607	3.0300e-01	6.0562	6.135140	0.000205	2.052421	0.347690	0.004105
 608	3.0350e-01	6.0681	6.174054	0.000389	3.891049	0.659161	0.007783
 609	3.0400e-01	6.0768	6.206126	0.000321	3.206908	0.543265	0.006414
 610	3.0450e-01	6.0880	6.248033	0.000419	4.190360	0.709866	0.008381
 611	3.0500e-01	6.0974	6.292934	0.000449	4.489671	0.760571	0.008980
 612	3.0550e-01	6.1043	6.318591	0.000257	2.565527	0.434612	0.005132
 613	3.0600e-01	6.1191	6.333130	0.000145	1.453798	0.246280	0.002908
 614	3.0650e-01	6.1273	6.394281	0.000611	6.114505	1.035825	0.012230
 615	3.0700e-01	6.1360	6.417372	0.000231	2.308974	0.391151	0.004618
 616	3.0750e-01	6.1475	6.461418	0.000440	4.404154	0.746084	0.008809
 617	3.0800e-01	6.1603	6.479378	0.000180	1.795869	0.304228	0.003592
 618	3.0850e-01	6.1691	6.514443	0.000351	3.506220	0.593970	0.007013
 619	3.0900e-01	6.1768	6.534969	0.000205	2.052421	0.347690	0.004105
 620	3.0950e-01	6.1887	6.580298	0.000453	4.532430	0.767814	0.009066
 621	3.1000e-01	6.1969	6.646580	0.000663	6.627610	1.122748	0.013256
 622	3.1050e-01	6.2061	6.665395	0.000188	1.881386	0.318715	0.003763
 623	3.1100e-01	6.2201	6.690197	0.000248	2.480009	0.420125	0.004960
 624	3.1150e-01	6.2274	6.728684	0.000385	3.848290	0.651918	0.007697
 625	3.1200e-01	6.2381	6.750493	0.000218	2.180698	0.369420	0.004362
 626	3.1250e-01	6.2482	6.808650	0.000582	5.815194	0.985120	0.011631
 627	3.1300e-01	6.2573	6.851412	0.000428	4.275878	0.724353	0.008553
 628	3.1350e-01	6.2659	6.874504	0.000231	2.308974	0.391151	0.004618
 629	3.1400e-01	6.2775	6.906148	0.000316	3.164149	0.536021	0.006329
 630	3.1450e-01	6.2866	6.952759	0.000466	4.660707	0.789545	0.009322
 631	3.1500e-01	6.2976	6.980983	0.000282	2.822079	0.478073	0.005645
 632	3.1550e-01	6.3080	6.965588	-0.000154	-1.539316	-0.260767	-0.003079
 633	3.1600e-01	6.3190	7.054534	0.000889	8.893825	1.506655	0.017789
 634	3.1650e-01	6.3275	7.072922	0.000184	1.838627	0.311472	0.003678
 635	3.1700e-01	6.3354	7.103283	0.000304	3.035873	0.514291	0.006072
 636	3.1750e-01	6.3452	7.151177	0.000479	4.788983	0.811276	0.009579
 637	3.1800e-01	6.3544	7.188381	0.000372	3.720014	0.630187	0.007441
 638	3.1850e-01	6.3660	7.211045	0.000227	2.266215	0.383907	0.004533
 639	3.1900e-01	6.3770	7.266209	0.000552	5.515882	0.934416	0.011033
 640	3.1950e-01	6.3846	7.285024	0.000188	1.881386	0.318715	0.003763
 641	3.2000e-01	6.3972	7.325221	0.000402	4.019325	0.680892	0.008039
 642	3.2050e-01	6.4070	7.345319	0.000201	2.009662	0.340446	0.004020
 643	3.2100e-01	6.4157	7.417588	0.000723	7.226233	1.224157	0.014454
 644	3.2150e-01	6.4240	7.432983	0.000154	1.539316	0.260767	0.003079
 645	3.2200e-01	6.4362	7.462489	0.000295	2.950356	0.499804	0.005901
 646	3.2250e-01	6.4468	7.495843	0.000334	3.335185	0.564996	0.006671
 647	3.2300e-01	6.4545	7.530053	0.000342	3.420702	0.579483	0.006842
 648	3.2350e-01	6.4667	7.571961	0.000419	4.190360	0.709866	0.008381
 649	3.2400e-01	6.4764	7.608309	0.000363	3.634496	0.615700	0.007270
 650	3.2450e-01	6.4853	7.626697	0.000184	1.838627	0.311472	0.003678
 651	3.2500e-01	6.4969	7.674591	0.000479	4.788983	0.811276	0.009579
 652	3.2550e-01	6.5088	7.706235	0.000316	3.164149	0.536021	0.006329
 653	3.2600e-01	6.5155	7.747715	0.000415	4.147601	0.702623	0.008296
 654	3.2650e-01	6.5289	7.755840	0.000081	0.812417	0.137627	0.001625
 655	3.2700e-01	6.5344	7.802023	0.000462	4.617948	0.782302	0.009237
 656	3.2750e-01	6.5466	7.833240	0.000312	3.121391	0.528778	0.006243
 657	3.2800e-01	6.5573	7.874292	0.000410	4.104842	0.695379	0.008210
 658	3.2850e-01	6.5663	7.895245	0.000210	2.095180	0.354933	0.004191
 659	3.2900e-01	6.5747	7.946560	0.000513	5.131053	0.869224	0.010263
 660	3.2950e-01	6.5858	7.981626	0.000351	3.506220	0.593970	0.007013
 661	3.3000e-01	6.5973	8.003435	0.000218	2.180698	0.369420	0.004362
 662	3.3050e-01	6.6077	8.027382	0.000239	2.394491	0.405638	0.004789
 663	3.3100e-01	6.6164	8.082973	0.000556	5.558641	0.941659	0.011118
 664	3.3150e-01	6.6266	8.116328	0.000334	3.335185	0.564996	0.006671
 665	3.3200e-01	6.6351	8.150965	0.000346	3.463461	0.586726	0.006928
 666	3.3250e-01	6.6461	8.196294	0.000453	4.532430	0.767814	0.009066
 667	3.3300e-01	6.6577	8.215537	0.000192	1.924145	0.325959	0.003849
 668	3.3350e-01	6.6675	8.252740	0.000372	3.720014	0.630187	0.007441
 669	3.3400e-01	6.6769	8.273694	0.000210	2.095180	0.354933	0.004191
 670	3.3450e-01	6.6864	8.301917	0.000282	2.822079	0.478073	0.005645
 671	3.3500e-01	6.6943	8.363495	0.000616	6.157264	1.043069	0.012316
 672	3.3550e-01	6.7072	8.401126	0.000376	3.762772	0.637431	0.007526
 673	3.3600e-01	6.7126	8.419514	0.000184	1.838627	0.311472	0.003678
 674	3.3650e-01	6.7268	8.460994	0.000415	4.147601	0.702623	0.008296
 675	3.3700e-01	6.7380	8.489645	0.000286	2.864838	0.485317	0.005730
 676	3.3750e-01	6.7487	8.526420	0.000368	3.677255	0.622944	0.007355
 677	3.3800e-01	6.7554	8.561913	0.000355	3.548978	0.601213	0.007099
 678	3.3850e-01	6.7679	8.575170	0.000133	1.325522	0.224550	0.002651
 679	3.3900e-01	6.7780	8.612801	0.000376	3.762772	0.637431	0.007526
 680	3.3950e-01	6.7883	8.664543	0.000517	5.173812	0.876467	0.010349
 681	3.4000e-01	6.7990	8.681648	0.000171	1.710351	0.289741	0.003421
 682	3.4050e-01	6.8077	8.733391	0.000517	5.173812	0.876467	0.010349
 683	3.4100e-01	6.8176	8.778292	0.000449	4.489671	0.760571	0.008980
 684	3.4150e-01	6.8246	8.801383	0.000231	2.308974	0.391151	0.004618
 685	3.4200e-01	6.8359	8.821909	0.000205	2.052421	0.347690	0.004105
 686	3.4250e-01	6.8488	8.877928	0.000560	5.601400	0.948903	0.011204
 687	3.4300e-01	6.8567	8.905296	0.000274	2.736562	0.463586	0.005474
 688	3.4350e-01	6.8658	8.916415	0.000111	1.111728	0.188332	0.002224
 689	3.4400e-01	6.8768	8.968157	0.000517	5.173812	0.876467	0.010349
 690	3.4450e-01	6.8884	8.986118	0.000180	1.795869	0.304228	0.003592
 691	3.4500e-01	6.8988	9.020328	0.000342	3.420702	0.579483	0.006842
 692	3.4550e-01	6.9049	9.076774	0.000564	5.644158	0.956146	0.011289
 693	3.4600e-01	6.9191	9.112267	0.000355	3.548978	0.601213	0.007099
 694	3.4650e-01	6.9244	9.146905	0.000346	3.463461	0.586726	0.006928
 695	3.4700e-01	6.9357	9.159306	0.000124	1.240005	0.210062	0.002480
 696	3.4750e-01	6.9458	9.196082	0.000368	3.677255	0.622944	0.007355
 697	3.4800e-01	6.9585	9.235851	0.000398	3.976566	0.673649	0.007954
 698	3.4850e-01	6.9687	9.291870	0.000560	5.601400	0.948903	0.011204
 699	3.4900e-01	6.9772	9.321376	0.000295	2.950356	0.499804	0.005901
 700	3.4950e-01	6.9861	9.330356	0.000090	0.897934	0.152114	0.001796
 701	3.5000e-01	6.9965	9.383381	0.000530	5.302088	0.898198	0.010605
 702	3.5050e-01	7.0102	9.427427	0.000440	4.404154	0.746084	0.008809
 703	3.5100e-01	7.0215	9.435552	0.000081	0.812417	0.137627	0.001625
 704	3.5150e-01	7.0227	9.487294	0.000517	5.173812	0.876467	0.010349
 705	3.5200e-01	7.0377	9.504827	0.000175	1.753110	0.296985	0.003507
 706	3.5250e-01	7.0502	9.539037	0.000342	3.420702	0.579483	0.006842
 707	3.5300e-01	7.0581	9.579661	0.000406	4.062084	0.688136	0.008125
 708	3.5350e-01	7.0670	9.607457	0.000278	2.779320	0.470830	0.005559
 709	3.5400e-01	7.0758	9.642950	0.000355	3.548978	0.601213	0.007099
 710	3.5450e-01	7.0886	9.670318	0.000274	2.736562	0.463586	0.005474
 711	3.5500e-01	7.0972	9.698114	0.000278	2.779320	0.470830	0.005559
 712	3.5550e-01	7.1060	9.740876	0.000428	4.275878	0.724353	0.008553
 713	3.5600e-01	7.1161	9.762257	0.000214	2.137939	0.362177	0.004276
 714	3.5650e-01	7.1248	9.816138	0.000539	5.387606	0.912685	0.010776
 715	3.5700e-01	7.1387	9.843079	0.000269	2.693803	0.456343	0.005388
 716	3.5750e-01	7.1498	9.873440	0.000304	3.035873	0.514291	0.006072
 717	3.5800e-01	7.1545	9.927748	0.000543	5.430365	0.919929	0.010862
 718	3.5850e-01	7.1667	9.939722	0.000120	1.197246	0.202819	0.002395
 719	3.5900e-01	7.1753	9.979491	0.000398	3.976566	0.673649	0.007954
 720	3.5950e-01	7.1860	10.015412	0.000359	3.591737	0.608457	0.007184
 721	3.6000e-01	7.1967	10.045345	0.000299	2.993114	0.507047	0.005987
 722	3.6050e-01	7.2076	10.074851	0.000295	2.950356	0.499804	0.005901
 723	3.6100e-01	7.2174	10.121890	0.000470	4.703465	0.796789	0.009408
 724	3.6150e-01	7.2260	10.157811	0.000359	3.591737	0.608457	0.007184
 725	3.6200e-01	7.2348	10.178764	0.000210	2.095180	0.354933	0.004191
 726	3.6250e-01	7.2443	10.225376	0.000466	4.660707	0.789545	0.009322
 727	3.6300e-01	7.2554	10.259158	0.000338	3.377943	0.572239	0.006756
 728	3.6350e-01	7.2678	10.292085	0.000329	3.292426	0.557752	0.006585
 729	3.6400e-01	7.2762	10.306197	0.000141	1.411040	0.239037	0.002822
 730	3.6450e-01	7.2870	10.357512	0.000513	5.131053	0.869224	0.010263
 731	3.6500e-01	7.2949	10.387018	0.000295	2.950356	0.499804	0.005901
 732	3.6550e-01	7.3065	10.402412	0.000154	1.539316	0.260767	0.003079
 733	3.6600e-01	7.3169	10.446885	0.000445	4.446913	0.753327	0.008895
 734	3.6650e-01	7.3274	10.482806	0.000359	3.591737	0.608457	0.007184
 735	3.6700e-01	7.3355	10.527707	0.000449	4.489671	0.760571	0.008980
 736	3.6750e-01	7.3465	10.537970	0.000103	1.026211	0.173845	0.002053
 737	3.6800e-01	7.3547	10.592278	0.000543	5.430365	0.919929	0.010862
 738	3.6850e-01	7.3660	10.623067	0.000308	3.078632	0.521534	0.006158
 739	3.6900e-01	7.3767	10.649152	0.000261	2.608285	0.441855	0.005217
 740	3.6950e-01	7.3868	10.699184	0.000500	5.002777	0.847493	0.010006
 741	3.7000e-01	7.3987	10.732539	0.000334	3.335185	0.564996	0.006671
 742	3.7050e-01	7.4078	10.769743	0.000372	3.720014	0.630187	0.007441
 743	3.7100e-01	7.4164	10.806518	0.000368	3.677255	0.622944	0.007355
 744	3.7150e-01	7.4274	10.823196	0.000167	1.667592	0.282498	0.003335
 745	3.7200e-01	7.4384	10.861682	0.000385	3.848290	0.651918	0.007697
 746	3.7250e-01	7.4451	10.885629	0.000239	2.394491	0.405638	0.004789
 747	3.7300e-01	7.4561	10.919411	0.000338	3.377943	0.572239	0.006756
 748	3.7350e-01	7.4670	10.957898	0.000385	3.848290	0.651918	0.007697
 749	3.7400e-01	7.4780	11.014772	0.000569	5.686917	0.963390	0.011375
 750	3.7450e-01	7.4872	11.035298	0.000205	2.052421	0.347690	0.004105
 751	3.7500e-01	7.4965	11.045988	0.000107	1.068969	0.181088	0.002138
 752	3.7550e-01	7.5067	11.113981	0.000680	6.798645	1.151722	0.013598
 753	3.7600e-01	7.5156	11.140066	0.000261	2.608285	0.441855	0.005217
 754	3.7650e-01	7.5259	11.181973	0.000419	4.190360	0.709866	0.008381
 755	3.7700e-01	7.5372	11.212335	0.000304	3.035873	0.514291	0.006072
 756	3.7750e-01	7.5467	11.218321	0.000060	0.598623	0.101409	0.001197
 757	3.7800e-01	7.5537	11.265788	0.000475	4.746224	0.804032	0.009493
 758	3.7850e-01	7.5677	11.312399	0.000466	4.660707	0.789545	0.009322
 759	3.7900e-01	7.5769	11.335491	0.000231	2.308974	0.391151	0.004618
 760	3.7950e-01	7.5854	11.368846	0.000334	3.335185	0.564996	0.006671
 761	3.8000e-01	7.5955	11.406049	0.000372	3.720014	0.630187	0.007441
 762	3.8050e-01	7.6065	11.426575	0.000205	2.052421	0.347690	0.004105
 763	3.8100e-01	7.6202	11.480883	0.000543	5.430365	0.919929	0.010862
 764	3.8150e-01	7.6266	11.497988	0.000171	1.710351	0.289741	0.003421
 765	3.8200e-01	7.6364	11.541179	0.000432	4.318636	0.731597	0.008638
 766	3.8250e-01	7.6434	11.583513	0.000423	4.233119	0.717110	0.008467
 767	3.8300e-01	7.6550	11.627131	0.000436	4.361395	0.738840	0.008724
 768	3.8350e-01	7.6643	11.649368	0.000222	2.223456	0.376664	0.004447
 769	3.8400e-01	7.6749	11.675880	0.000265	2.651044	0.449099	0.005303
 770	3.8450e-01	7.6855	11.694268	0.000184	1.838627	0.311472	0.003678
 771	3.8500e-01	7.6965	11.750715	0.000564	5.644158	0.956146	0.011289
 772	3.8550e-01	7.7069	11.791339	0.000406	4.062084	0.688136	0.008125
 773	3.8600e-01	7.7150	11.803313	0.000120	1.197246	0.202819	0.002395
 774	3.8650e-01	7.7264	11.838378	0.000351	3.506220	0.593970	0.007013
 775	3.8700e-01	7.7344	11.884562	0.000462	4.617948	0.782302	0.009237
 776	3.8750e-01	7.7466	11.922193	0.000376	3.762772	0.637431	0.007526
 777	3.8800e-01	7.7554	11.959396	0.000372	3.720014	0.630187	0.007441
 778	3.8850e-01	7.7652	11.990613	0.000312	3.121391	0.528778	0.006243
 779	3.8900e-01	7.7759	12.027388	0.000368	3.677255	0.622944	0.007355
 780	3.8950e-01	7.7869	12.051763	0.000244	2.437250	0.412881	0.004875
 781	3.9000e-01	7.7939	12.094098	0.000423	4.233119	0.717110	0.008467
 782	3.9050e-01	7.8058	12.121894	0.000278	2.779320	0.470830	0.005559
 783	3.9100e-01	7.8180	12.145413	0.000235	2.351733	0.398394	0.004704
 784	3.9150e-01	7.8238	12.188603	0.000432	4.318636	0.731597	0.008638
 785	3.9200e-01	7.8369	12.223668	0.000351	3.506220	0.593970	0.007013
 786	3.9250e-01	7.8448	12.261727	0.000381	3.805531	0.644674	0.007612
 787	3.9300e-01	7.8566	12.298503	0.000368	3.677255	0.622944	0.007355
 788	3.9350e-01	7.8668	12.326299	0.000278	2.779320	0.470830	0.005559
 789	3.9400e-01	7.8784	12.360081	0.000338	3.377943	0.572239	0.006756
 790	3.9450e-01	7.8885	12.387021	0.000269	2.693803	0.456343	0.005388
 791	3.9500e-01	7.8967	12.445606	0.000586	5.857952	0.992364	0.011717
 792	3.9550e-01	7.9071	12.452020	0.000064	0.641382	0.108653	0.001283
 793	3.9600e-01	7.9156	12.509322	0.000573	5.729676	0.970633	0.011460
 794	3.9650e-01	7.9272	12.528565	0.000192	1.924145	0.325959	0.003849
 795	3.9700e-01	7.9370	12.581163	0.000526	5.259329	0.890955	0.010520
 796	3.9750e-01	7.9462	12.625209	0.000440	4.404154	0.746084	0.008809
 797	3.9800e-01	7.9559	12.628202	0.000030	0.299311	0.050705	0.000599
 798	3.9850e-01	7.9654	12.682510	0.000543	5.430365	0.919929	0.010862
 799	3.9900e-01	7.9749	12.732543	0.000500	5.002777	0.847493	0.010006
 800	3.9950e-01	7.9865	12.747082	0.000145	1.453798	0.246280	0.002908
 801	4.0000e-01	7.9980	12.791127	0.000440	4.404154	0.746084	0.008809
 802	4.0050e-01	8.0078	12.811653	0.000205	2.052421	0.347690	0.004105
 803	4.0100e-01	8.0170	12.841159	0.000295	2.950356	0.499804	0.005901
 804	4.0150e-01	8.0280	12.906158	0.000650	6.499334	1.101017	0.013000
 805	4.0200e-01	8.0386	12.910435	0.000043	0.427588	0.072435	0.000855
 806	4.0250e-01	8.0481	12.954052	0.000436	4.361395	0.738840	0.008724
 807	4.0300e-01	8.0548	13.001091	0.000470	4.703465	0.796789	0.009408
 808	4.0350e-01	8.0658	13.019907	0.000188	1.881386	0.318715	0.003763
 809	4.0400e-01	8.0780	13.057965	0.000381	3.805531	0.644674	0.007612
 810	4.0450e-01	8.0865	13.093458	0.000355	3.548978	0.601213	0.007099
 811	4.0500e-01	8.0957	13.130662	0.000372	3.720014	0.630187	0.007441
 812	4.0550e-01	8.1061	13.154181	0.000235	2.351733	0.398394	0.004704
 813	4.0600e-01	8.1201	13.192667	0.000385	3.848290	0.651918	0.007697
 814	4.0650e-01	8.1256	13.258094	0.000654	6.542093	1.108261	0.013085
 815	4.0700e-01	8.1406	13.267929	0.000098	0.983452	0.166601	0.001967
 816	4.0750e-01	8.1458	13.304278	0.000363	3.634496	0.615700	0.007270
 817	4.0800e-01	8.1549	13.356020	0.000517	5.173812	0.876467	0.010349
 818	4.0850e-01	8.1662	13.390658	0.000346	3.463461	0.586726	0.006928
 819	4.0900e-01	8.1769	13.397927	0.000073	0.726899	0.123140	0.001454
 820	4.0950e-01	8.1854	13.441973	0.000440	4.404154	0.746084	0.008809
 821	4.1000e-01	8.1976	13.459078	0.000171	1.710351	0.289741	0.003421
 822	4.1050e-01	8.2043	13.515952	0.000569	5.686917	0.963390	0.011375
 823	4.1100e-01	8.2159	13.551873	0.000359	3.591737	0.608457	0.007184
 824	4.1150e-01	8.2257	13.585227	0.000334	3.335185	0.564996	0.006671
 825	4.1200e-01	8.2364	13.630556	0.000453	4.532430	0.767814	0.009066
 826	4.1250e-01	8.2471	13.671180	0.000406	4.062084	0.688136	0.008125
 827	4.1300e-01	8.2550	13.695555	0.000244	2.437250	0.412881	0.004875
 828	4.1350e-01	8.2648	13.736179	0.000406	4.062084	0.688136	0.008125
 829	4.1400e-01	8.2758	13.773810	0.000376	3.762772	0.637431	0.007526
 830	4.1450e-01	8.2843	13.807165	0.000334	3.335185	0.564996	0.006671
 831	4.1500e-01	8.2959	13.831540	0.000244	2.437250	0.412881	0.004875
 832	4.1550e-01	8.3069	13.868743	0.000372	3.720014	0.630187	0.007441
 833	4.1600e-01	8.3163	13.923479	0.000547	5.473123	0.927172	0.010947
 834	4.1650e-01	8.3258	13.942294	0.000188	1.881386	0.318715	0.003763
 835	4.1700e-01	8.3368	13.959399	0.000171	1.710351	0.289741	0.003421
 836	4.1750e-01	8.3472	14.024399	0.000650	6.499334	1.101017	0.013000
 837	4.1800e-01	8.3575	14.051339	0.000269	2.693803	0.456343	0.005388
 838	4.1850e-01	8.3661	14.082128	0.000308	3.078632	0.521534	0.006158
 839	4.1900e-01	8.3759	14.117193	0.000351	3.506220	0.593970	0.007013
 840	4.1950e-01	8.3868	14.153969	0.000368	3.677255	0.622944	0.007355
 841	4.2000e-01	8.3960	14.186896	0.000329	3.292426	0.557752	0.006585
 842	4.2050e-01	8.4082	14.209560	0.000227	2.266215	0.383907	0.004533
 843	4.2100e-01	8.4161	14.268145	0.000586	5.857952	0.992364	0.011717
 844	4.2150e-01	8.4271	14.298934	0.000308	3.078632	0.521534	0.006158
 845	4.2200e-01	8.4363	14.337848	0.000389	3.891049	0.659161	0.007783
 846	4.2250e-01	8.4494	14.378045	0.000402	4.019325	0.680892	0.008039
 847	4.2300e-01	8.4564	14.408406	0.000304	3.035873	0.514291	0.006072
 848	4.2350e-01	8.4644	14.447320	0.000389	3.891049	0.659161	0.007783
 849	4.2400e-01	8.4766	14.481530	0.000342	3.420702	0.579483	0.006842
 850	4.2450e-01	8.4857	14.522582	0.000410	4.104842	0.695379	0.008210
 851	4.2500e-01	8.4967	14.542253	0.000197	1.966904	0.333203	0.003934
 852	4.2550e-01	8.5077	14.602120	0.000599	5.986229	1.014095	0.011974
 853	4.2600e-01	8.5168	14.641889	0.000398	3.976566	0.673649	0.007954
 854	4.2650e-01	8.5272	14.667547	0.000257	2.565527	0.434612	0.005132
 855	4.2700e-01	8.5370	14.716296	0.000487	4.874500	0.825763	0.009750
 856	4.2750e-01	8.5474	14.733401	0.000171	1.710351	0.289741	0.003421
 857	4.2800e-01	8.5565	14.784716	0.000513	5.131053	0.869224	0.010263
 858	4.2850e-01	8.5675	14.817643	0.000329	3.292426	0.557752	0.006585
 859	4.2900e-01	8.5760	14.825768	0.000081	0.812417	0.137627	0.001625
 860	4.2950e-01	8.5864	14.880504	0.000547	5.473123	0.927172	0.010947
 861	4.3000e-01	8.5959	14.921556	0.000410	4.104842	0.695379	0.008210
 862	4.3050e-01	8.6060	14.954911	0.000334	3.335185	0.564996	0.006671
 863	4.3100e-01	8.6159	14.986983	0.000321	3.206908	0.543265	0.006414
 864	4.3150e-01	8.6298	15.050272	0.000633	6.328299	1.072043	0.012658
 865	4.3200e-01	8.6368	15.091751	0.000415	4.147601	0.702623	0.008296
 866	4.3250e-01	8.6472	15.122540	0.000308	3.078632	0.521534	0.006158
 867	4.3300e-01	8.6578	15.150763	0.000282	2.822079	0.478073	0.005645
 868	4.3350e-01	8.6679	15.191816	0.000410	4.104842	0.695379	0.008210
 869	4.3400e-01	8.6774	15.211486	0.000197	1.966904	0.333203	0.003934
 870	4.3450e-01	8.6871	15.261091	0.000496	4.960018	0.840250	0.009921
 871	4.3500e-01	8.6963	15.294873	0.000338	3.377943	0.572239	0.006756
 872	4.3550e-01	8.7054	15.324807	0.000299	2.993114	0.507047	0.005987
 873	4.3600e-01	8.7161	15.371846	0.000470	4.703465	0.796789	0.009408
 874	4.3650e-01	8.7286	15.410332	0.000385	3.848290	0.651918	0.007697
 875	4.3700e-01	8.7375	15.419740	0.000094	0.940693	0.159358	0.001882
 876	4.3750e-01	8.7482	15.480035	0.000603	6.028987	1.021338	0.012059
 877	4.3800e-01	8.7567	15.504837	0.000248	2.480009	0.420125	0.004960
 878	4.3850e-01	8.7659	15.557007	0.000522	5.216571	0.883711	0.010434
 879	4.3900e-01	8.7756	15.586941	0.000299	2.993114	0.507047	0.005987
 880	4.3950e-01	8.7860	15.633552	0.000466	4.660707	0.789545	0.009322
 881	4.4000e-01	8.7982	15.663486	0.000299	2.993114	0.507047	0.005987
 882	4.4050e-01	8.8062	15.687861	0.000244	2.437250	0.412881	0.004875
 883	4.4100e-01	8.8171	15.733617	0.000458	4.575189	0.775058	0.009151
 884	4.4150e-01	8.8251	15.737038	0.000034	0.342070	0.057948	0.000684
 885	4.4200e-01	8.8382	15.818714	0.000817	8.166926	1.383515	0.016335
 886	4.4250e-01	8.8458	15.842234	0.000235	2.351733	0.398394	0.004704
 887	4.4300e-01	8.8562	15.888417	0.000462	4.617948	0.782302	0.009237
 888	4.4350e-01	8.8669	15.927759	0.000393	3.933807	0.666405	0.007868
 889	4.4400e-01	8.8760	15.980784	0.000530	5.302088	0.898198	0.010605
 890	4.4450e-01	8.8837	16.019698	0.000389	3.891049	0.659161	0.007783
 891	4.4500e-01	8.8965	16.040224	0.000205	2.052421	0.347690	0.004105
 892	4.4550e-01	8.9063	16.073579	0.000334	3.335185	0.564996	0.006671
 893	4.4600e-01	8.9157	16.117197	0.000436	4.361395	0.738840	0.008724
 894	4.4650e-01	8.9270	16.146275	0.000291	2.907597	0.492560	0.005816
 895	4.4700e-01	8.9350	16.204860	0.000586	5.857952	0.992364	0.011717
 896	4.4750e-01	8.9447	16.218971	0.000141	1.411040	0.239037	0.002822
 897	4.4800e-01	8.9557	16.275846	0.000569	5.686917	0.963390	0.011375
 898	4.4850e-01	8.9636	16.317753	0.000419	4.190360	0.709866	0.008381
 899	4.4900e-01	8.9752	16.355812	0.000381	3.805531	0.644674	0.007612
 900	4.4950e-01	8.9880	16.391304	0.000355	3.548978	0.601213	0.007099
 901	4.5000e-01	8.9966	16.423804	0.000325	3.249667	0.550508	0.006500
 902	4.5050e-01	9.0051	16.460152	0.000363	3.634496	0.615700	0.007270
 903	4.5100e-01	9.0161	16.497355	0.000372	3.720014	0.630187	0.007441
 904	4.5150e-01	9.0271	16.546105	0.000487	4.874500	0.825763	0.009750
 905	4.5200e-01	9.0387	16.580315	0.000342	3.420702	0.579483	0.006842
 906	4.5250e-01	9.0474	16.596565	0.000162	1.624833	0.275254	0.003250
 907	4.5300e-01	9.0558	16.656432	0.000599	5.986229	1.014095	0.011974
 908	4.5350e-01	9.0662	16.691497	0.000351	3.506220	0.593970	0.007013
 909	4.5400e-01	9.0790	16.726990	0.000355	3.548978	0.601213	0.007099
 910	4.5450e-01	9.0848	16.769753	0.000428	4.275878	0.724353	0.008553
 911	4.5500e-01	9.0973	16.806101	0.000363	3.634496	0.615700	0.007270
 912	4.5550e-01	9.1077	16.838173	0.000321	3.206908	0.543265	0.006414
 913	4.5600e-01	9.1168	16.891198	0.000530	5.302088	0.898198	0.010605
 914	4.5650e-01	9.1260	16.940375	0.000492	4.917259	0.833006	0.009835
 915	4.5700e-01	9.1376	16.966460	0.000261	2.608285	0.441855	0.005217
 916	4.5750e-01	9.1476	16.995111	0.000286	2.864838	0.485317	0.005730
 917	4.5800e-01	9.1559	17.042150	0.000470	4.703465	0.796789	0.009408
 918	4.5850e-01	9.1681	17.079781	0.000376	3.762772	0.637431	0.007526
 919	4.5900e-01	9.1748	17.113136	0.000334	3.335185	0.564996	0.006671
 920	4.5950e-01	9.1864	17.157609	0.000445	4.446913	0.753327	0.008895
 921	4.6000e-01	9.1974	17.205931	0.000483	4.831742	0.818519	0.009664
 922	4.6050e-01	9.2090	17.243989	0.000381	3.805531	0.644674	0.007612
 923	4.6100e-01	9.2169	17.275633	0.000316	3.164149	0.536021	0.006329
 924	4.6150e-01	9.2273	17.326949	0.000513	5.131053	0.869224	0.010263
 925	4.6200e-01	9.2352	17.374843	0.000479	4.788983	0.811276	0.009579
 926	4.6250e-01	9.2474	17.409053	0.000342	3.420702	0.579483	0.006842
 927	4.6300e-01	9.2535	17.463361	0.000543	5.430365	0.919929	0.010862
 928	4.6350e-01	9.2651	17.480466	0.000171	1.710351	0.289741	0.003421
 929	4.6400e-01	9.2798	17.512110	0.000316	3.164149	0.536021	0.006329
 930	4.6450e-01	9.2871	17.557866	0.000458	4.575189	0.775058	0.009151
 931	4.6500e-01	9.2950	17.613030	0.000552	5.515882	0.934416	0.011033
 932	4.6550e-01	9.3066	17.656648	0.000436	4.361395	0.738840	0.008724
 933	4.6600e-01	9.3146	17.686154	0.000295	2.950356	0.499804	0.005901
 934	4.6650e-01	9.3256	17.725068	0.000389	3.891049	0.659161	0.007783
 935	4.6700e-01	9.3365	17.771679	0.000466	4.660707	0.789545	0.009322
 936	4.6750e-01	9.3475	17.810593	0.000389	3.891049	0.659161	0.007783
 937	4.6800e-01	9.3561	17.856776	0.000462	4.617948	0.782302	0.009237
 938	4.6850e-01	9.3658	17.890986	0.000342	3.420702	0.579483	0.006842
 939	4.6900e-01	9.3759	17.932038	0.000410	4.104842	0.695379	0.008210
 940	4.6950e-01	9.3875	17.972235	0.000402	4.019325	0.680892	0.008039
 941	4.7000e-01	9.3935	18.018419	0.000462	4.617948	0.782302	0.009237
 942	4.7050e-01	9.4058	18.077858	0.000594	5.943470	1.006851	0.011888
 943	4.7100e-01	9.4153	18.084273	0.000064	0.641382	0.108653	0.001283
 944	4.7150e-01	9.4272	18.126180	0.000419	4.190360	0.709866	0.008381
 945	4.7200e-01	9.4385	18.177495	0.000513	5.131053	0.869224	0.010263
 946	4.7250e-01	9.4495	18.217692	0.000402	4.019325	0.680892	0.008039
 947	4.7300e-01	9.4604	18.248481	0.000308	3.078632	0.521534	0.006158
 948	4.7350e-01	9.4684	18.299368	0.000509	5.088294	0.861980	0.010177
 949	4.7400e-01	9.4757	18.366078	0.000667	6.670369	1.129991	0.013342
 950	4.7450e-01	9.4888	18.385749	0.000197	1.966904	0.333203	0.003934
 951	4.7500e-01	9.4971	18.409696	0.000239	2.394491	0.405638	0.004789
 952	4.7550e-01	9.5050	18.473839	0.000641	6.413816	1.086530	0.012829
 953	4.7600e-01	9.5172	18.502490	0.000286	2.864838	0.485317	0.005730
 954	4.7650e-01	9.5251	18.572193	0.000697	6.969680	1.180696	0.013941
 955	4.7700e-01	9.5392	18.596568	0.000244	2.437250	0.412881	0.004875
 956	4.7750e-01	9.5465	18.608114	0.000115	1.154487	0.195575	0.002309
 957	4.7800e-01	9.5532	18.684231	0.000761	7.611062	1.289349	0.015223
 958	4.7850e-01	9.5650	18.735974	0.000517	5.173812	0.876467	0.010349
 959	4.7900e-01	9.5758	18.784295	0.000483	4.831742	0.818519	0.009664
 960	4.7950e-01	9.5862	18.819788	0.000355	3.548978	0.601213	0.007099
 961	4.8000e-01	9.5941	18.859557	0.000398	3.976566	0.673649	0.007954
 962	4.8050e-01	9.6045	18.922418	0.000629	6.285540	1.064799	0.012572
 963	4.8100e-01	9.6167	18.947648	0.000252	2.522768	0.427368	0.005046
 964	4.8150e-01	9.6271	18.974589	0.000269	2.693803	0.456343	0.005388
 965	4.8200e-01	9.6405	19.025048	0.000505	5.045536	0.854737	0.010092
 966	4.8250e-01	9.6472	19.066956	0.000419	4.190360	0.709866	0.008381
 967	4.8300e-01	9.6533	19.106725	0.000398	3.976566	0.673649	0.007954
 968	4.8350e-01	9.6661	19.154619	0.000479	4.788983	0.811276	0.009579
 969	4.8400e-01	9.6753	19.205934	0.000513	5.131053	0.869224	0.010263
 970	4.8450e-01	9.6854	19.241854	0.000359	3.591737	0.608457	0.007184
 971	4.8500e-01	9.6960	19.283762	0.000419	4.190360	0.709866	0.008381
 972	4.8550e-01	9.7046	19.316261	0.000325	3.249667	0.550508	0.006500
 973	4.8600e-01	9.7156	19.363728	0.000475	4.746224	0.804032	0.009493
 974	4.8650e-01	9.7260	19.388958	0.000252	2.522768	0.427368	0.005046
 975	4.8700e-01	9.7363	19.475338	0.000864	8.637273	1.463194	0.017276
 976	4.8750e-01	9.7473	19.511258	0.000359	3.591737	0.608457	0.007184
 977	4.8800e-01	9.7577	19.548889	0.000376	3.762772	0.637431	0.007526
 978	4.8850e-01	9.7650	19.599349	0.000505	5.045536	0.854737	0.010092
 979	4.8900e-01	9.7751	19.638691	0.000393	3.933807	0.666405	0.007868
 980	4.8950e-01	9.7855	19.667769	0.000291	2.907597	0.492560	0.005816
 981	4.9000e-01	9.7943	19.707538	0.000398	3.976566	0.673649	0.007954
 982	4.9050e-01	9.8047	19.755860	0.000483	4.831742	0.818519	0.009664
 983	4.9100e-01	9.8157	19.791781	0.000359	3.591737	0.608457	0.007184
 984	4.9150e-01	9.8242	19.853786	0.000620	6.200023	1.050312	0.012401
 985	4.9200e-01	9.8343	19.881582	0.000278	2.779320	0.470830	0.005559
 986	4.9250e-01	9.8468	19.953423	0.000718	7.183474	1.216913	0.014368
 987	4.9300e-01	9.8560	19.987633	0.000342	3.420702	0.579483	0.006842
 988	4.9350e-01	9.8636	20.024836	0.000372	3.720014	0.630187	0.007441
 989	4.9400e-01	9.8755	20.086414	0.000616	6.157264	1.043069	0.012316
 990	4.9450e-01	9.8834	20.130032	0.000436	4.361395	0.738840	0.008724
 991	4.9500e-01	9.8962	20.168518	0.000385	3.848290	0.651918	0.007697
 992	4.9550e-01	9.9036	20.218978	0.000505	5.045536	0.854737	0.010092
 993	4.9600e-01	9.9139	20.256609	0.000376	3.762772	0.637431	0.007526
 994	4.9650e-01	9.9280	20.323319	0.000667	6.670369	1.129991	0.013342
 995	4.9700e-01	9.9359	20.357956	0.000346	3.463461	0.586726	0.006928
 996	4.9750e-01	9.9469	20.406706	0.000487	4.874500	0.825763	0.009750
 997	4.9800e-01	9.9564	20.451179	0.000445	4.446913	0.753327	0.008895
 998	4.9850e-01	9.9658	20.461442	0.000103	1.026211	0.173845	0.002053
 999	4.9900e-01	9.9744	20.530289	0.000688	6.884163	1.166209	0.013770
1000	4.9950e-01	9.9835	20.563217	0.000329	3.292426	0.557752	0.006585
1001	5.0000e-01	9.9966	20.612821	0.000496	4.960018	0.840250	0.009921
1002	5.0050e-01	9.9847	20.600420	0.000124	1.240005	0.210062	-0.002480
1003	5.0100e-01	9.9744	20.591012	0.000094	0.940693	0.159358	-0.001882
1004	5.0150e-01	9.9658	20.606834	-0.000158	-1.582075	-0.268011	0.003164
1005	5.0200e-01	9.9536	20.596144	0.000107	1.068969	0.181088	-0.002138
1006	5.0250e-01	9.9451	20.563217	0.000329	3.292426	0.557752	-0.006585
1007	5.0300e-01	9.9316	20.590585	-0.000274	-2.736562	-0.463586	0.005474
1008	5.0350e-01	9.9258	20.588019	0.000026	0.256553	0.043461	-0.000513
1009	5.0400e-01	9.9146	20.565782	0.000222	2.223456	0.376664	-0.004447
1010	5.0450e-01	9.9051	20.579466	-0.000137	-1.368281	-0.231793	0.002737
1011	5.0500e-01	9.8944	20.561934	0.000175	1.753110	0.296985	-0.003507
1012	5.0550e-01	9.8822	20.563644	-0.000017	-0.171035	-0.028974	0.000342
1013	5.0600e-01	9.8735	20.555092	0.000086	0.855176	0.144871	-0.001711
1014	5.0650e-01	9.8651	20.550815	0.000043	0.427588	0.072435	-0.000855
1015	5.0700e-01	9.8566	20.533710	0.000171	1.710351	0.289741	-0.003421
1016	5.0750e-01	9.8444	20.529862	0.000038	0.384829	0.065192	-0.000770
1017	5.0800e-01	9.8352	20.496935	0.000329	3.292426	0.557752	-0.006585
1018	5.0850e-01	9.8224	20.521737	-0.000248	-2.480009	-0.420125	0.004960
1019	5.0900e-01	9.8169	20.511474	0.000103	1.026211	0.173845	-0.002053
1020	5.0950e-01	9.8035	20.500356	0.000111	1.111728	0.188332	-0.002224
1021	5.1000e-01	9.7946	20.487527	0.000128	1.282763	0.217306	-0.002566
1022	5.1050e-01	9.7830	20.463152	0.000244	2.437250	0.412881	-0.004875
1023	5.1100e-01	9.7760	20.465290	-0.000021	-0.213794	-0.036218	0.000428
1024	5.1150e-01	9.7644	20.443909	0.000214	2.137939	0.362177	-0.004276
1025	5.1200e-01	9.7540	20.438350	0.000056	0.555864	0.094166	-0.001112
1026	5.1250e-01	9.7450	20.437067	0.000013	0.128276	0.021731	-0.000257
1027	5.1300e-01	9.7339	20.416113	0.000210	2.095180	0.354933	-0.004191
1028	5.1350e-01	9.7247	20.403285	0.000128	1.282763	0.217306	-0.002566
1029	5.1400e-01	9.7144	20.372068	0.000312	3.121391	0.528778	-0.006243
1030	5.1450e-01	9.7015	20.375061	-0.000030	-0.299311	-0.050705	0.000599
1031	5.1500e-01	9.6924	20.377200	-0.000021	-0.213794	-0.036218	0.000428
1032	5.1550e-01	9.6838	20.349832	0.000274	2.736562	0.463586	-0.005474
1033	5.1600e-01	9.6747	20.339996	0.000098	0.983452	0.166601	-0.001967
1034	5.1650e-01	9.6661	20.312628	0.000274	2.736562	0.463586	-0.005474
1035	5.1700e-01	9.6539	20.336575	-0.000239	-2.394491	-0.405638	0.004789
1036	5.1750e-01	9.6454	20.298089	0.000385	3.848290	0.651918	-0.007697
1037	5.1800e-01	9.6338	20.285260	0.000128	1.282763	0.217306	-0.002566
1038	5.1850e-01	9.6234	20.274142	0.000111	1.111728	0.188332	-0.002224
1039	5.1900e-01	9.6161	20.237366	0.000368	3.677255	0.622944	-0.007355
1040	5.1950e-01	9.6048	20.237794	-0.000004	-0.042759	-0.007244	0.000086
1041	5.2000e-01	9.5955	20.224537	0.000133	1.325522	0.224550	-0.002651
1042	5.2050e-01	9.5850	20.208288	0.000162	1.624833	0.275254	-0.003250
1043	5.2100e-01	9.5734	20.186051	0.000222	2.223456	0.376664	-0.004447
1044	5.2150e-01	9.5667	20.171939	0.000141	1.411040	0.239037	-0.002822
1045	5.2200e-01	9.5569	20.144999	0.000269	2.693803	0.456343	-0.005388
1046	5.2250e-01	9.5432	20.132170	0.000128	1.282763	0.217306	-0.002566
1047	5.2300e-01	9.5343	20.107796	0.000244	2.437250	0.412881	-0.004875
1048	5.2350e-01	9.5251	20.118486	-0.000107	-1.068969	-0.181088	0.002138
1049	5.2400e-01	9.5154	20.080855	0.000376	3.762772	0.637431	-0.007526
1050	5.2450e-01	9.5038	20.062040	0.000188	1.881386	0.318715	-0.003763
1051	5.2500e-01	9.4946	20.064606	-0.000026	-0.256553	-0.043461	0.000513
1052	5.2550e-01	9.4861	20.047501	0.000171	1.710351	0.289741	-0.003421
1053	5.2600e-01	9.4769	20.043652	0.000038	0.384829	0.065192	-0.000770
1054	5.2650e-01	9.4653	20.005593	0.000381	3.805531	0.644674	-0.007612
1055	5.2700e-01	9.4550	20.023126	-0.000175	-1.753110	-0.296985	0.003507
1056	5.2750e-01	9.4458	19.967535	0.000556	5.558641	0.941659	-0.011118
1057	5.2800e-01	9.4379	19.952995	0.000145	1.453798	0.246280	-0.002908
1058	5.2850e-01	9.4241	19.940167	0.000128	1.282763	0.217306	-0.002566
1059	5.2900e-01	9.4147	19.926483	0.000137	1.368281	0.231793	-0.002737
1060	5.2950e-01	9.4046	19.907667	0.000188	1.881386	0.318715	-0.003763
1061	5.3000e-01	9.3958	19.896121	0.000115	1.154487	0.195575	-0.002309
1062	5.3050e-01	9.3860	19.841385	0.000547	5.473123	0.927172	-0.010947
1063	5.3100e-01	9.3750	19.835826	0.000056	0.555864	0.094166	-0.001112
1064	5.3150e-01	9.3640	19.827701	0.000081	0.812417	0.137627	-0.001625
1065	5.3200e-01	9.3561	19.814872	0.000128	1.282763	0.217306	-0.002566
1066	5.3250e-01	9.3463	19.767834	0.000470	4.703465	0.796789	-0.009408
1067	5.3300e-01	9.3353	19.804609	-0.000368	-3.677255	-0.622944	0.007355
1068	5.3350e-01	9.3268	19.745597	0.000590	5.900711	0.999608	-0.011802
1069	5.3400e-01	9.3140	19.743031	0.000026	0.256553	0.043461	-0.000513
1070	5.3450e-01	9.3054	19.725926	0.000171	1.710351	0.289741	-0.003421
1071	5.3500e-01	9.2957	19.707111	0.000188	1.881386	0.318715	-0.003763
1072	5.3550e-01	9.2853	19.684019	0.000231	2.308974	0.391151	-0.004618
1073	5.3600e-01	9.2767	19.668625	0.000154	1.539316	0.260767	-0.003079
1074	5.3650e-01	9.2642	19.660500	0.000081	0.812417	0.137627	-0.001625
1075	5.3700e-01	9.2532	19.639974	0.000205	2.052421	0.347690	-0.004105
1076	5.3750e-01	9.2462	19.614744	0.000252	2.522768	0.427368	-0.005046
1077	5.3800e-01	9.2334	19.593790	0.000210	2.095180	0.354933	-0.004191
1078	5.3850e-01	9.2273	19.595073	-0.000013	-0.128276	-0.021731	0.000257
1079	5.3900e-01	9.2151	19.549745	0.000453	4.532430	0.767814	-0.009066
1080	5.3950e-01	9.2065	19.541620	0.000081	0.812417	0.137627	-0.001625
1081	5.4000e-01	9.1980	19.500140	0.000415	4.147601	0.702623	-0.008296
1082	5.4050e-01	9.1870	19.497147	0.000030	0.299311	0.050705	-0.000599
1083	5.4100e-01	9.1754	19.463364	0.000338	3.377943	0.572239	-0.006756
1084	5.4150e-01	9.1675	19.454384	0.000090	0.897934	0.152114	-0.001796
1085	5.4200e-01	9.1559	19.440700	0.000137	1.368281	0.231793	-0.002737
1086	5.4250e-01	9.1432	19.409056	0.000316	3.164149	0.536021	-0.006329
1087	5.4300e-01	9.1364	19.395372	0.000137	1.368281	0.231793	-0.002737
1088	5.4350e-01	9.1241	19.362445	0.000329	3.292426	0.557752	-0.006585
1089	5.4400e-01	9.1150	19.348761	0.000137	1.368281	0.231793	-0.002737
1090	5.4450e-01	9.1077	19.333794	0.000150	1.496557	0.253524	-0.002993
1091	5.4500e-01	9.0942	19.309419	0.000244	2.437250	0.412881	-0.004875
1092	5.4550e-01	9.0860	19.264091	0.000453	4.532430	0.767814	-0.009066
1093	5.4600e-01	9.0778	19.287183	-0.000231	-2.308974	-0.391151	0.004618
1094	5.4650e-01	9.0668	19.254683	0.000325	3.249667	0.550508	-0.006500
1095	5.4700e-01	9.0552	19.212776	0.000419	4.190360	0.709866	-0.008381
1096	5.4750e-01	9.0454	19.198664	0.000141	1.411040	0.239037	-0.002822
1097	5.4800e-01	9.0356	19.193533	0.000051	0.513105	0.086922	-0.001026
1098	5.4850e-01	9.0247	19.166592	0.000269	2.693803	0.456343	-0.005388
1099	5.4900e-01	9.0155	19.136231	0.000304	3.035873	0.514291	-0.006072
1100	5.4950e-01	9.0057	19.117416	0.000188	1.881386	0.318715	-0.003763
1101	5.5000e-01	8.9987	19.101593	0.000158	1.582075	0.268011	-0.003164
1102	5.5050e-01	8.9871	19.084916	0.000167	1.667592	0.282498	-0.003335
1103	5.5100e-01	8.9761	19.052416	0.000325	3.249667	0.550508	-0.006500
1104	5.5150e-01	8.9691	19.036167	0.000162	1.624833	0.275254	-0.003250
1105	5.5200e-01	8.9557	19.020772	0.000154	1.539316	0.260767	-0.003079
1106	5.5250e-01	8.9478	18.981858	0.000389	3.891049	0.659161	-0.007783
1107	5.5300e-01	8.9349	18.971595	0.000103	1.026211	0.173845	-0.002053
1108	5.5350e-01	8.9249	18.955773	0.000158	1.582075	0.268011	-0.003164
1109	5.5400e-01	8.9154	18.918142	0.000376	3.762772	0.637431	-0.007526
1110	5.5450e-01	8.9038	18.907024	0.000111	1.111728	0.188332	-0.002224
1111	5.5500e-01	8.8959	18.877090	0.000299	2.993114	0.507047	-0.005987
1112	5.5550e-01	8.8855	18.856564	0.000205	2.052421	0.347690	-0.004105
1113	5.5600e-01	8.8745	18.844163	0.000124	1.240005	0.210062	-0.002480
1114	5.5650e-01	8.8672	18.831762	0.000124	1.240005	0.210062	-0.002480
1115	5.5700e-01	8.8574	18.791137	0.000406	4.062084	0.688136	-0.008125
1116	5.5750e-01	8.8458	18.773177	0.000180	1.795869	0.304228	-0.003592
1117	5.5800e-01	8.8348	18.754362	0.000188	1.881386	0.318715	-0.003763
1118	5.5850e-01	8.8239	18.713737	0.000406	4.062084	0.688136	-0.008125
1119	5.5900e-01	8.8165	18.714165	-0.000004	-0.042759	-0.007244	0.000086
1120	5.5950e-01	8.8052	18.691501	0.000227	2.266215	0.383907	-0.004533
1121	5.6000e-01	8.7941	18.665843	0.000257	2.565527	0.434612	-0.005132
1122	5.6050e-01	8.7872	18.637192	0.000286	2.864838	0.485317	-0.005730
1123	5.6100e-01	8.7762	18.620515	0.000167	1.667592	0.282498	-0.003335
1124	5.6150e-01	8.7665	18.578608	0.000419	4.190360	0.709866	-0.008381
1125	5.6200e-01	8.7576	18.578608	-0.000000	-0.000000	-0.000000	0.000000
1126	5.6250e-01	8.7469	18.536273	0.000423	4.233119	0.717110	-0.008467
1127	5.6300e-01	8.7335	18.505484	0.000308	3.078632	0.521534	-0.006158
1128	5.6350e-01	8.7268	18.490945	0.000145	1.453798	0.246280	-0.002908
1129	5.6400e-01	8.7164	18.479826	0.000111	1.111728	0.188332	-0.002224
1130	5.6450e-01	8.7036	18.454596	0.000252	2.522768	0.427368	-0.005046
1131	5.6500e-01	8.6975	18.422524	0.000321	3.206908	0.543265	-0.006414
1132	5.6550e-01	8.6862	18.419531	0.000030	0.299311	0.050705	-0.000599
1133	5.6600e-01	8.6758	18.391308	0.000282	2.822079	0.478073	-0.005645
1134	5.6650e-01	8.6664	18.372065	0.000192	1.924145	0.325959	-0.003849
1135	5.6700e-01	8.6578	18.340420	0.000316	3.164149	0.536021	-0.006329
1136	5.6750e-01	8.6444	18.322033	0.000184	1.838627	0.311472	-0.003678
1137	5.6800e-01	8.6340	18.301934	0.000201	2.009662	0.340446	-0.004020
1138	5.6850e-01	8.6267	18.273711	0.000282	2.822079	0.478073	-0.005645
1139	5.6900e-01	8.6160	18.250619	0.000231	2.308974	0.391151	-0.004618
1140	5.6950e-01	8.6035	18.231376	0.000192	1.924145	0.325959	-0.003849
1141	5.7000e-01	8.5956	18.206574	0.000248	2.480009	0.420125	-0.004960
1142	5.7050e-01	8.5846	18.189469	0.000171	1.710351	0.289741	-0.003421
1143	5.7100e-01	8.5754	18.140292	0.000492	4.917259	0.833006	-0.009835
1144	5.7150e-01	8.5663	18.133877	0.000064	0.641382	0.108653	-0.001283
1145	5.7200e-01	8.5614	18.117628	0.000162	1.624833	0.275254	-0.003250
1146	5.7250e-01	8.5481	18.104371	0.000133	1.325522	0.224550	-0.002651
1147	5.7300e-01	8.5379	18.068451	0.000359	3.591737	0.608457	-0.007184
1148	5.7350e-01	8.5254	18.032530	0.000359	3.591737	0.608457	-0.007184
1149	5.7400e-01	8.5176	18.004735	0.000278	2.779320	0.470830	-0.005559
1150	5.7450e-01	8.5071	17.970952	0.000338	3.377943	0.572239	-0.006756
1151	5.7500e-01	8.4943	17.946578	0.000244	2.437250	0.412881	-0.004875
1152	5.7550e-01	8.4851	17.921775	0.000248	2.480009	0.420125	-0.004960
1153	5.7600e-01	8.4729	17.899966	0.000218	2.180698	0.369420	-0.004362
1154	5.7650e-01	8.4631	17.886710	0.000133	1.325522	0.224550	-0.002651
1155	5.7700e-01	8.4546	17.865329	0.000214	2.137939	0.362177	-0.004276
1156	5.7750e-01	8.4454	17.838816	0.000265	2.651044	0.449099	-0.005303
1157	5.7800e-01	8.4357	17.811876	0.000269	2.693803	0.456343	-0.005388
1158	5.7850e-01	8.4268	17.772962	0.000389	3.891049	0.659161	-0.007783
1159	5.7900e-01	8.4143	17.771679	0.000013	0.128276	0.021731	-0.000257
1160	5.7950e-01	8.4039	17.733620	0.000381	3.805531	0.644674	-0.007612
1161	5.8000e-01	8.3972	17.721219	0.000124	1.240005	0.210062	-0.002480
1162	5.8050e-01	8.3868	17.694706	0.000265	2.651044	0.449099	-0.005303
1163	5.8100e-01	8.3765	17.667766	0.000269	2.693803	0.456343	-0.005388
1164	5.8150e-01	8.3667	17.649806	0.000180	1.795869	0.304228	-0.003592
1165	5.8200e-01	8.3577	17.630990	0.000188	1.881386	0.318715	-0.003763
1166	5.8250e-01	8.3459	17.593359	0.000376	3.762772	0.637431	-0.007526
1167	5.8300e-01	8.3374	17.571550	0.000218	2.180698	0.369420	-0.004362
1168	5.8350e-01	8.3240	17.555300	0.000162	1.624833	0.275254	-0.003250
1169	5.8400e-01	8.3121	17.513821	0.000415	4.147601	0.702623	-0.008296
1170	5.8450e-01	8.3038	17.485597	0.000282	2.822079	0.478073	-0.005645
1171	5.8500e-01	8.2941	17.462506	0.000231	2.308974	0.391151	-0.004618
1172	5.8550e-01	8.2874	17.445401	0.000171	1.710351	0.289741	-0.003421
1173	5.8600e-01	8.2764	17.424019	0.000214	2.137939	0.362177	-0.004276
1174	5.8650e-01	8.2654	17.409053	0.000150	1.496557	0.253524	-0.002993
1175	5.8700e-01	8.2550	17.385961	0.000231	2.308974	0.391151	-0.004618
1176	5.8750e-01	8.2455	17.366290	0.000197	1.966904	0.333203	-0.003934
1177	5.8800e-01	8.2346	17.326949	0.000393	3.933807	0.666405	-0.007868
1178	5.8850e-01	8.2227	17.289745	0.000372	3.720014	0.630187	-0.007441
1179	5.8900e-01	8.2159	17.268791	0.000210	2.095180	0.354933	-0.004191
1180	5.8950e-01	8.2043	17.239713	0.000291	2.907597	0.492560	-0.005816
1181	5.9000e-01	8.1946	17.226457	0.000133	1.325522	0.224550	-0.002651
1182	5.9050e-01	8.1866	17.188398	0.000381	3.805531	0.644674	-0.007612
1183	5.9100e-01	8.1776	17.157609	0.000308	3.078632	0.521534	-0.006158
1184	5.9150e-01	8.1665	17.149912	0.000077	0.769658	0.130384	-0.001539
1185	5.9200e-01	8.1561	17.118267	0.000316	3.164149	0.536021	-0.006329
1186	5.9250e-01	8.1451	17.083630	0.000346	3.463461	0.586726	-0.006928
1187	5.9300e-01	8.1354	17.057972	0.000257	2.565527	0.434612	-0.005132
1188	5.9350e-01	8.1253	17.024190	0.000338	3.377943	0.572239	-0.006756
1189	5.9400e-01	8.1183	17.033170	-0.000090	-0.897934	-0.152114	0.001796
1190	5.9450e-01	8.1055	16.977151	0.000560	5.601400	0.948903	-0.011204
1191	5.9500e-01	8.0951	16.954059	0.000231	2.308974	0.391151	-0.004618
1192	5.9550e-01	8.0859	16.956197	-0.000021	-0.213794	-0.036218	0.000428
1193	5.9600e-01	8.0743	16.921987	0.000342	3.420702	0.579483	-0.006842
1194	5.9650e-01	8.0649	16.888633	0.000334	3.335185	0.564996	-0.006671
1195	5.9700e-01	8.0554	16.861692	0.000269	2.693803	0.456343	-0.005388
1196	5.9750e-01	8.0469	16.836462	0.000252	2.522768	0.427368	-0.005046
1197	5.9800e-01	8.0347	16.808667	0.000278	2.779320	0.470830	-0.005559
1198	5.9850e-01	8.0219	16.801825	0.000068	0.684140	0.115897	-0.001368
1199	5.9900e-01	8.0154	16.763338	0.000385	3.848290	0.651918	-0.007697
1200	5.9950e-01	8.0048	16.737253	0.000261	2.608285	0.441855	-0.005217
1201	6.0000e-01	7.9953	16.712023	0.000252	2.522768	0.427368	-0.005046
1202	6.0050e-01	7.9865	16.700905	0.000111	1.111728	0.188332	-0.002224
1203	6.0100e-01	7.9758	16.669688	0.000312	3.121391	0.528778	-0.006243
1204	6.0150e-01	7.9660	16.644886	0.000248	2.480009	0.420125	-0.004960
1205	6.0200e-01	7.9535	16.628209	0.000167	1.667592	0.282498	-0.003335
1206	6.0250e-01	7.9425	16.582025	0.000462	4.617948	0.782302	-0.009237
1207	6.0300e-01	7.9346	16.565776	0.000162	1.624833	0.275254	-0.003250
1208	6.0350e-01	7.9260	16.538407	0.000274	2.736562	0.463586	-0.005474
1209	6.0400e-01	7.9163	16.510612	0.000278	2.779320	0.470830	-0.005559
1210	6.0450e-01	7.9041	16.478112	0.000325	3.249667	0.550508	-0.006500
1211	6.0500e-01	7.8940	16.473836	0.000043	0.427588	0.072435	-0.000855
1212	6.0550e-01	7.8848	16.417817	0.000560	5.601400	0.948903	-0.011204
1213	6.0600e-01	7.8766	16.396436	0.000214	2.137939	0.362177	-0.004276
1214	6.0650e-01	7.8677	16.378048	0.000184	1.838627	0.311472	-0.003678
1215	6.0700e-01	7.8546	16.348542	0.000295	2.950356	0.499804	-0.005901
1216	6.0750e-01	7.8448	16.318608	0.000299	2.993114	0.507047	-0.005987
1217	6.0800e-01	7.8345	16.280977	0.000376	3.762772	0.637431	-0.007526
1218	6.0850e-01	7.8265	16.272425	0.000086	0.855176	0.144871	-0.001711
1219	6.0900e-01	7.8168	16.247622	0.000248	2.480009	0.420125	-0.004960
1220	6.0950e-01	7.8046	16.221965	0.000257	2.565527	0.434612	-0.005132
1221	6.1000e-01	7.7957	16.194597	0.000274	2.736562	0.463586	-0.005474
1222	6.1050e-01	7.7856	16.170650	0.000239	2.394491	0.405638	-0.004789
1223	6.1100e-01	7.7740	16.136012	0.000346	3.463461	0.586726	-0.006928
1224	6.1150e-01	7.7655	16.123183	0.000128	1.282763	0.217306	-0.002566
1225	6.1200e-01	7.7548	16.070158	0.000530	5.302088	0.898198	-0.010605
1226	6.1250e-01	7.7478	16.073151	-0.000030	-0.299311	-0.050705	0.000599
1227	6.1300e-01	7.7390	16.035948	0.000372	3.720014	0.630187	-0.007441
1228	6.1350e-01	7.7243	16.019698	0.000162	1.624833	0.275254	-0.003250
1229	6.1400e-01	7.7179	15.953416	0.000663	6.627610	1.122748	-0.013256
1230	6.1450e-01	7.7057	15.961113	-0.000077	-0.769658	-0.130384	0.001539
1231	6.1500e-01	7.6965	15.905094	0.000560	5.601400	0.948903	-0.011204
1232	6.1550e-01	7.6855	15.873450	0.000316	3.164149	0.536021	-0.006329
1233	6.1600e-01	7.6746	15.890555	-0.000171	-1.710351	-0.289741	0.003421
1234	6.1650e-01	7.6642	15.853779	0.000368	3.677255	0.622944	-0.007355
1235	6.1700e-01	7.6556	15.821280	0.000325	3.249667	0.550508	-0.006500
1236	6.1750e-01	7.6471	15.813155	0.000081	0.812417	0.137627	-0.001625
1237	6.1800e-01	7.6349	15.764833	0.000483	4.831742	0.818519	-0.009664
1238	6.1850e-01	7.6266	15.743880	0.000210	2.095180	0.354933	-0.004191
1239	6.1900e-01	7.6143	15.726347	0.000175	1.753110	0.296985	-0.003507
1240	6.1950e-01	7.6076	15.689144	0.000372	3.720014	0.630187	-0.007441
1241	6.2000e-01	7.5940	15.660065	0.000291	2.907597	0.492560	-0.005816
1242	6.2050e-01	7.5848	15.616875	0.000432	4.318636	0.731597	-0.008638
1243	6.2100e-01	7.5775	15.617730	-0.000009	-0.085518	-0.014487	0.000171
1244	6.2150e-01	7.5690	15.570264	0.000475	4.746224	0.804032	-0.009493
1245	6.2200e-01	7.5592	15.593783	-0.000235	-2.351733	-0.398394	0.004704
1246	6.2250e-01	7.5476	15.536481	0.000573	5.729676	0.970633	-0.011460
1247	6.2300e-01	7.5359	15.486877	0.000496	4.960018	0.840250	-0.009921
1248	6.2350e-01	7.5262	15.477469	0.000094	0.940693	0.159358	-0.001882
1249	6.2400e-01	7.5146	15.441976	0.000355	3.548978	0.601213	-0.007099
1250	6.2450e-01	7.5043	15.419312	0.000227	2.266215	0.383907	-0.004533
1251	6.2500e-01	7.4936	15.391944	0.000274	2.736562	0.463586	-0.005474
1252	6.2550e-01	7.4908	15.346188	0.000458	4.575189	0.775058	-0.009151
1253	6.2600e-01	7.4748	15.341912	0.000043	0.427588	0.072435	-0.000855
1254	6.2650e-01	7.4649	15.297867	0.000440	4.404154	0.746084	-0.008809
1255	6.2700e-01	7.4580	15.284610	0.000133	1.325522	0.224550	-0.002651
1256	6.2750e-01	7.4438	15.270499	0.000141	1.411040	0.239037	-0.002822
1257	6.2800e-01	7.4353	15.218328	0.000522	5.216571	0.883711	-0.010434
1258	6.2850e-01	7.4234	15.181125	0.000372	3.720014	0.630187	-0.007441
1259	6.2900e-01	7.4182	15.168296	0.000128	1.282763	0.217306	-0.002566
1260	6.2950e-01	7.4060	15.143494	0.000248	2.480009	0.420125	-0.004960
1261	6.3000e-01	7.3987	15.116553	0.000269	2.693803	0.456343	-0.005388
1262	6.3050e-01	7.3883	15.088758	0.000278	2.779320	0.470830	-0.005559
1263	6.3100e-01	7.3758	15.080633	0.000081	0.812417	0.137627	-0.001625
1264	6.3150e-01	7.3633	15.020338	0.000603	6.028987	1.021338	-0.012059
1265	6.3200e-01	7.3572	15.013496	0.000068	0.684140	0.115897	-0.001368
1266	6.3250e-01	7.3438	14.980141	0.000334	3.335185	0.564996	-0.006671
1267	6.3300e-01	7.3349	14.940372	0.000398	3.976566	0.673649	-0.007954
1268	6.3350e-01	7.3254	14.923267	0.000171	1.710351	0.289741	-0.003421
1269	6.3400e-01	7.3149	14.898892	0.000244	2.437250	0.412881	-0.004875
1270	6.3450e-01	7.3074	14.848432	0.000505	5.045536	0.854737	-0.010092
1271	6.3500e-01	7.2952	14.834321	0.000141	1.411040	0.239037	-0.002822
1272	6.3550e-01	7.2827	14.805670	0.000286	2.864838	0.485317	-0.005730
1273	6.3600e-01	7.2739	14.785144	0.000205	2.052421	0.347690	-0.004105
1274	6.3650e-01	7.2644	14.765901	0.000192	1.924145	0.325959	-0.003849
1275	6.3700e-01	7.2571	14.734684	0.000312	3.121391	0.528778	-0.006243
1276	6.3750e-01	7.2443	14.697481	0.000372	3.720014	0.630187	-0.007441
1277	6.3800e-01	7.2354	14.688501	0.000090	0.897934	0.152114	-0.001796
1278	6.3850e-01	7.2255	14.651725	0.000368	3.677255	0.622944	-0.007355
1279	6.3900e-01	7.2131	14.637613	0.000141	1.411040	0.239037	-0.002822
1280	6.3950e-01	7.2089	14.575607	0.000620	6.200023	1.050312	-0.012401
1281	6.4000e-01	7.1950	14.534555	0.000410	4.104842	0.695379	-0.008210
1282	6.4050e-01	7.1887	14.519589	0.000150	1.496557	0.253524	-0.002993
1283	6.4100e-01	7.1756	14.487089	0.000325	3.249667	0.550508	-0.006500
1284	6.4150e-01	7.1613	14.488372	-0.000013	-0.128276	-0.021731	0.000257
1285	6.4200e-01	7.1539	14.443044	0.000453	4.532430	0.767814	-0.009066
1286	6.4250e-01	7.1460	14.428504	0.000145	1.453798	0.246280	-0.002908
1287	6.4300e-01	7.1378	14.394722	0.000338	3.377943	0.572239	-0.006756
1288	6.4350e-01	7.1259	14.363505	0.000312	3.121391	0.528778	-0.006243
1289	6.4400e-01	7.1146	14.331006	0.000325	3.249667	0.550508	-0.006500
1290	6.4450e-01	7.1094	14.304493	0.000265	2.651044	0.449099	-0.005303
1291	6.4500e-01	7.0972	14.286533	0.000180	1.795869	0.304228	-0.003592
1292	6.4550e-01	7.0844	14.271138	0.000154	1.539316	0.260767	-0.003079
1293	6.4600e-01	7.0746	14.207850	0.000633	6.328299	1.072043	-0.012658
1294	6.4650e-01	7.0642	14.188179	0.000197	1.966904	0.333203	-0.003934
1295	6.4700e-01	7.0557	14.152686	0.000355	3.548978	0.601213	-0.007099
1296	6.4750e-01	7.0471	14.141995	0.000107	1.068969	0.181088	-0.002138
1297	6.4800e-01	7.0370	14.124890	0.000171	1.710351	0.289741	-0.003421
1298	6.4850e-01	7.0270	14.068872	0.000560	5.601400	0.948903	-0.011204
1299	6.4900e-01	7.0178	14.043214	0.000257	2.565527	0.434612	-0.005132
1300	6.4950e-01	7.0074	14.002590	0.000406	4.062084	0.688136	-0.008125
1301	6.5000e-01	6.9968	13.989761	0.000128	1.282763	0.217306	-0.002566
1302	6.5050e-01	6.9846	13.956406	0.000334	3.335185	0.564996	-0.006671
1303	6.5100e-01	6.9781	13.939729	0.000167	1.667592	0.282498	-0.003335
1304	6.5150e-01	6.9672	13.895683	0.000440	4.404154	0.746084	-0.008809
1305	6.5200e-01	6.9574	13.889697	0.000060	0.598623	0.101409	-0.001197
1306	6.5250e-01	6.9464	13.835388	0.000543	5.430365	0.919929	-0.010862
1307	6.5300e-01	6.9354	13.811441	0.000239	2.394491	0.405638	-0.004789
1308	6.5350e-01	6.9244	13.793908	0.000175	1.753110	0.296985	-0.003507
1309	6.5400e-01	6.9141	13.762264	0.000316	3.164149	0.536021	-0.006329
1310	6.5450e-01	6.9057	13.721212	0.000410	4.104842	0.695379	-0.008210
1311	6.5500e-01	6.8951	13.698120	0.000231	2.308974	0.391151	-0.004618
1312	6.5550e-01	6.8867	13.687857	0.000103	1.026211	0.173845	-0.002053
1313	6.5600e-01	6.8750	13.651082	0.000368	3.677255	0.622944	-0.007355
1314	6.5650e-01	6.8674	13.615161	0.000359	3.591737	0.608457	-0.007184
1315	6.5700e-01	6.8567	13.572826	0.000423	4.233119	0.717110	-0.008467
1316	6.5750e-01	6.8457	13.529636	0.000432	4.318636	0.731597	-0.008638
1317	6.5800e-01	6.8378	13.553583	-0.000239	-2.394491	-0.405638	0.004789
1318	6.5850e-01	6.8250	13.504406	0.000492	4.917259	0.833006	-0.009835
1319	6.5900e-01	6.8127	13.457795	0.000466	4.660707	0.789545	-0.009322
1320	6.5950e-01	6.8054	13.455229	0.000026	0.256553	0.043461	-0.000513
1321	6.6000e-01	6.7957	13.432138	0.000231	2.308974	0.391151	-0.004618
1322	6.6050e-01	6.7850	13.393224	0.000389	3.891049	0.659161	-0.007783
1323	6.6100e-01	6.7749	13.368849	0.000244	2.437250	0.412881	-0.004875
1324	6.6150e-01	6.7667	13.316679	0.000522	5.216571	0.883711	-0.010434
1325	6.6200e-01	6.7581	13.287173	0.000295	2.950356	0.499804	-0.005901
1326	6.6250e-01	6.7456	13.268785	0.000184	1.838627	0.311472	-0.003678
1327	6.6300e-01	6.7340	13.238423	0.000304	3.035873	0.514291	-0.006072
1328	6.6350e-01	6.7261	13.202503	0.000359	3.591737	0.608457	-0.007184
1329	6.6400e-01	6.7151	13.167865	0.000346	3.463461	0.586726	-0.006928
1330	6.6450e-01	6.7041	13.150760	0.000171	1.710351	0.289741	-0.003421
1331	6.6500e-01	6.6953	13.120399	0.000304	3.035873	0.514291	-0.006072
1332	6.6550e-01	6.6852	13.086616	0.000338	3.377943	0.572239	-0.006756
1333	6.6600e-01	6.6785	13.060104	0.000265	2.651044	0.449099	-0.005303
1334	6.6650e-01	6.6658	13.036156	0.000239	2.394491	0.405638	-0.004789
1335	6.6700e-01	6.6547	13.004085	0.000321	3.206908	0.543265	-0.006414
1336	6.6750e-01	6.6461	12.972440	0.000316	3.164149	0.536021	-0.006329
1337	6.6800e-01	6.6345	12.932671	0.000398	3.976566	0.673649	-0.007954
1338	6.6850e-01	6.6263	12.899744	0.000329	3.292426	0.557752	-0.006585
1339	6.6900e-01	6.6125	12.888198	0.000115	1.154487	0.195575	-0.002309
1340	6.6950e-01	6.6010	12.873231	0.000150	1.496557	0.253524	-0.002993
1341	6.7000e-01	6.5961	12.816357	0.000569	5.686917	0.963390	-0.011375
1342	6.7050e-01	6.5845	12.799252	0.000171	1.710351	0.289741	-0.003421
1343	6.7100e-01	6.5753	12.761621	0.000376	3.762772	0.637431	-0.007526
1344	6.7150e-01	6.5649	12.723562	0.000381	3.805531	0.644674	-0.007612
1345	6.7200e-01	6.5558	12.689780	0.000338	3.377943	0.572239	-0.006756
1346	6.7250e-01	6.5454	12.677807	0.000120	1.197246	0.202819	-0.002395
1347	6.7300e-01	6.5353	12.635899	0.000419	4.190360	0.709866	-0.008381
1348	6.7350e-01	6.5271	12.623926	0.000120	1.197246	0.202819	-0.002395
1349	6.7400e-01	6.5143	12.596130	0.000278	2.779320	0.470830	-0.005559
1350	6.7450e-01	6.5094	12.543532	0.000526	5.259329	0.890955	-0.010520
1351	6.7500e-01	6.4961	12.526000	0.000175	1.753110	0.296985	-0.003507
1352	6.7550e-01	6.4825	12.517447	0.000086	0.855176	0.144871	-0.001711
1353	6.7600e-01	6.4760	12.462283	0.000552	5.515882	0.934416	-0.011033
1354	6.7650e-01	6.4658	12.438336	0.000239	2.394491	0.405638	-0.004789
1355	6.7700e-01	6.4554	12.417810	0.000205	2.052421	0.347690	-0.004105
1356	6.7750e-01	6.4429	12.378469	0.000393	3.933807	0.666405	-0.007868
1357	6.7800e-01	6.4371	12.354949	0.000235	2.351733	0.398394	-0.004704
1358	6.7850e-01	6.4272	12.324588	0.000304	3.035873	0.514291	-0.006072
1359	6.7900e-01	6.4148	12.287385	0.000372	3.720014	0.630187	-0.007441
1360	6.7950e-01	6.4056	12.240346	0.000470	4.703465	0.796789	-0.009408
1361	6.8000e-01	6.3950	12.236925	0.000034	0.342070	0.057948	-0.000684
1362	6.8050e-01	6.3840	12.194590	0.000423	4.233119	0.717110	-0.008467
1363	6.8100e-01	6.3733	12.158242	0.000363	3.634496	0.615700	-0.007270
1364	6.8150e-01	6.3647	12.129163	0.000291	2.907597	0.492560	-0.005816
1365	6.8200e-01	6.3550	12.108637	0.000205	2.052421	0.347690	-0.004105
1366	6.8250e-01	6.3446	12.065019	0.000436	4.361395	0.738840	-0.008724
1367	6.8300e-01	6.3348	12.048342	0.000167	1.667592	0.282498	-0.003335
1368	6.8350e-01	6.3248	12.010283	0.000381	3.805531	0.644674	-0.007612
1369	6.8400e-01	6.3144	11.963245	0.000470	4.703465	0.796789	-0.009408
1370	6.8450e-01	6.3043	11.927324	0.000359	3.591737	0.608457	-0.007184
1371	6.8500e-01	6.2955	11.929890	-0.000026	-0.256553	-0.043461	0.000513
1372	6.8550e-01	6.2875	11.901239	0.000286	2.864838	0.485317	-0.005730
1373	6.8600e-01	6.2718	11.858476	0.000428	4.275878	0.724353	-0.008553
1374	6.8650e-01	6.2631	11.820845	0.000376	3.762772	0.637431	-0.007526
1375	6.8700e-01	6.2555	11.790484	0.000304	3.035873	0.514291	-0.006072
1376	6.8750e-01	6.2454	11.787491	0.000030	0.299311	0.050705	-0.000599
1377	6.8800e-01	6.2383	11.741307	0.000462	4.617948	0.782302	-0.009237
1378	6.8850e-01	6.2274	11.717788	0.000235	2.351733	0.398394	-0.004704
1379	6.8900e-01	6.2158	11.686999	0.000308	3.078632	0.521534	-0.006158
1380	6.8950e-01	6.2073	11.665190	0.000218	2.180698	0.369420	-0.004362
1381	6.9000e-01	6.1945	11.609599	0.000556	5.558641	0.941659	-0.011118
1382	6.9050e-01	6.1826	11.586079	0.000235	2.351733	0.398394	-0.004704
1383	6.9100e-01	6.1774	11.547165	0.000389	3.891049	0.659161	-0.007783
1384	6.9150e-01	6.1642	11.532198	0.000150	1.496557	0.253524	-0.002993
1385	6.9200e-01	6.1560	11.495423	0.000368	3.677255	0.622944	-0.007355
1386	6.9250e-01	6.1444	11.450950	0.000445	4.446913	0.753327	-0.008895
1387	6.9300e-01	6.1356	11.431706	0.000192	1.924145	0.325959	-0.003849
1388	6.9350e-01	6.1237	11.386378	0.000453	4.532430	0.767814	-0.009066
1389	6.9400e-01	6.1168	11.362004	0.000244	2.437250	0.412881	-0.004875
1390	6.9450e-01	6.1047	11.332497	0.000295	2.950356	0.499804	-0.005901
1391	6.9500e-01	6.0956	11.303419	0.000291	2.907597	0.492560	-0.005816
1392	6.9550e-01	6.0876	11.269636	0.000338	3.377943	0.572239	-0.006756
1393	6.9600e-01	6.0770	11.238847	0.000308	3.078632	0.521534	-0.006158
1394	6.9650e-01	6.0663	11.226874	0.000120	1.197246	0.202819	-0.002395
1395	6.9700e-01	6.0577	11.187532	0.000393	3.933807	0.666405	-0.007868
1396	6.9750e-01	6.0461	11.140921	0.000466	4.660707	0.789545	-0.009322
1397	6.9800e-01	6.0355	11.116119	0.000248	2.480009	0.420125	-0.004960
1398	6.9850e-01	6.0255	11.085758	0.000304	3.035873	0.514291	-0.006072
1399	6.9900e-01	6.0132	11.051120	0.000346	3.463461	0.586726	-0.006928
1400	6.9950e-01	6.0052	11.031022	0.000201	2.009662	0.340446	-0.004020
1401	7.0000e-01	5.9952	11.013061	0.000180	1.795869	0.304228	-0.003592
1402	7.0050e-01	5.9891	10.980989	0.000321	3.206908	0.543265	-0.006414
1403	7.0100e-01	5.9760	10.936516	0.000445	4.446913	0.753327	-0.008895
1404	7.0150e-01	5.9657	10.910859	0.000257	2.565527	0.434612	-0.005132
1405	7.0200e-01	5.9537	10.855268	0.000556	5.558641	0.941659	-0.011118
1406	7.0250e-01	5.9442	10.841156	0.000141	1.411040	0.239037	-0.002822
1407	7.0300e-01	5.9363	10.791551	0.000496	4.960018	0.840250	-0.009921
1408	7.0350e-01	5.9244	10.762901	0.000286	2.864838	0.485317	-0.005730
1409	7.0400e-01	5.9137	10.750927	0.000120	1.197246	0.202819	-0.002395
1410	7.0450e-01	5.9052	10.703888	0.000470	4.703465	0.796789	-0.009408
1411	7.0500e-01	5.8957	10.659415	0.000445	4.446913	0.753327	-0.008895
1412	7.0550e-01	5.8850	10.651718	0.000077	0.769658	0.130384	-0.001539
1413	7.0600e-01	5.8759	10.622639	0.000291	2.907597	0.492560	-0.005816
1414	7.0650e-01	5.8664	10.585436	0.000372	3.720014	0.630187	-0.007441
1415	7.0700e-01	5.8545	10.559779	0.000257	2.565527	0.434612	-0.005132
1416	7.0750e-01	5.8438	10.530700	0.000291	2.907597	0.492560	-0.005816
1417	7.0800e-01	5.8363	10.496918	0.000338	3.377943	0.572239	-0.006756
1418	7.0850e-01	5.8255	10.452872	0.000440	4.404154	0.746084	-0.008809
1419	7.0900e-01	5.8154	10.415241	0.000376	3.762772	0.637431	-0.007526
1420	7.0950e-01	5.8044	10.386163	0.000291	2.907597	0.492560	-0.005816
1421	7.1000e-01	5.7959	10.357084	0.000291	2.907597	0.492560	-0.005816
1422	7.1050e-01	5.7840	10.333137	0.000239	2.394491	0.405638	-0.004789
1423	7.1100e-01	5.7745	10.289092	0.000440	4.404154	0.746084	-0.008809
1424	7.1150e-01	5.7657	10.264717	0.000244	2.437250	0.412881	-0.004875
1425	7.1200e-01	5.7513	10.250178	0.000145	1.453798	0.246280	-0.002908
1426	7.1250e-01	5.7440	10.207415	0.000428	4.275878	0.724353	-0.008553
1427	7.1300e-01	5.7346	10.178764	0.000286	2.864838	0.485317	-0.005730
1428	7.1350e-01	5.7271	10.136002	0.000428	4.275878	0.724353	-0.008553
1429	7.1400e-01	5.7172	10.103075	0.000329	3.292426	0.557752	-0.006585
1430	7.1450e-01	5.7043	10.079555	0.000235	2.351733	0.398394	-0.004704
1431	7.1500e-01	5.6952	10.050049	0.000295	2.950356	0.499804	-0.005901
1432	7.1550e-01	5.6848	10.011135	0.000389	3.891049	0.659161	-0.007783
1433	7.1600e-01	5.6775	9.981629	0.000295	2.950356	0.499804	-0.005901
1434	7.1650e-01	5.6656	9.952978	0.000286	2.864838	0.485317	-0.005730
1435	7.1700e-01	5.6561	9.921762	0.000312	3.121391	0.528778	-0.006243
1436	7.1750e-01	5.6470	9.899097	0.000227	2.266215	0.383907	-0.004533
1437	7.1800e-01	5.6351	9.852059	0.000470	4.703465	0.796789	-0.009408
1438	7.1850e-01	5.6265	9.818704	0.000334	3.335185	0.564996	-0.006671
1439	7.1900e-01	5.6146	9.781073	0.000376	3.762772	0.637431	-0.007526
1440	7.1950e-01	5.6049	9.769955	0.000111	1.111728	0.188332	-0.002224
1441	7.2000e-01	5.5957	9.722916	0.000470	4.703465	0.796789	-0.009408
1442	7.2050e-01	5.5841	9.687851	0.000351	3.506220	0.593970	-0.007013
1443	7.2100e-01	5.5768	9.654068	0.000338	3.377943	0.572239	-0.006756
1444	7.2150e-01	5.5688	9.602326	0.000517	5.173812	0.876467	-0.010349
1445	7.2200e-01	5.5560	9.595056	0.000073	0.726899	0.123140	-0.001454
1446	7.2250e-01	5.5457	9.562556	0.000325	3.249667	0.550508	-0.006500
1447	7.2300e-01	5.5374	9.500123	0.000624	6.242781	1.057556	-0.012487
1448	7.2350e-01	5.5237	9.485584	0.000145	1.453798	0.246280	-0.002908
1449	7.2400e-01	5.5159	9.459499	0.000261	2.608285	0.441855	-0.005217
1450	7.2450e-01	5.5072	9.415881	0.000436	4.361395	0.738840	-0.008724
1451	7.2500e-01	5.4959	9.397065	0.000188	1.881386	0.318715	-0.003763
1452	7.2550e-01	5.4849	9.366276	0.000308	3.078632	0.521534	-0.006158
1453	7.2600e-01	5.4755	9.322659	0.000436	4.361395	0.738840	-0.008724
1454	7.2650e-01	5.4660	9.285028	0.000376	3.762772	0.637431	-0.007526
1455	7.2700e-01	5.4547	9.271344	0.000137	1.368281	0.231793	-0.002737
1456	7.2750e-01	5.4437	9.225160	0.000462	4.617948	0.782302	-0.009237
1457	7.2800e-01	5.4340	9.196937	0.000282	2.822079	0.478073	-0.005645
1458	7.2850e-01	5.4239	9.153319	0.000436	4.361395	0.738840	-0.008724
1459	7.2900e-01	5.4138	9.123813	0.000295	2.950356	0.499804	-0.005901
1460	7.2950e-01	5.4041	9.092169	0.000316	3.164149	0.536021	-0.006329
1461	7.3000e-01	5.3958	9.063518	0.000286	2.864838	0.485317	-0.005730
1462	7.3050e-01	5.3851	9.038715	0.000248	2.480009	0.420125	-0.004960
1463	7.3100e-01	5.3735	9.001084	0.000376	3.762772	0.637431	-0.007526
1464	7.3150e-01	5.3687	8.958322	0.000428	4.275878	0.724353	-0.008553
1465	7.3200e-01	5.3555	8.945493	0.000128	1.282763	0.217306	-0.002566
1466	7.3250e-01	5.3442	8.915132	0.000304	3.035873	0.514291	-0.006072
1467	7.3300e-01	5.3339	8.855692	0.000594	5.943470	1.006851	-0.011888
1468	7.3350e-01	5.3256	8.836449	0.000192	1.924145	0.325959	-0.003849
1469	7.3400e-01	5.3140	8.777864	0.000586	5.857952	0.992364	-0.011717
1470	7.3450e-01	5.3058	8.762042	0.000158	1.582075	0.268011	-0.003164
1471	7.3500e-01	5.2936	8.740233	0.000218	2.180698	0.369420	-0.004362
1472	7.3550e-01	5.2863	8.714148	0.000261	2.608285	0.441855	-0.005217
1473	7.3600e-01	5.2765	8.663260	0.000509	5.088294	0.861980	-0.010177
1474	7.3650e-01	5.2650	8.630761	0.000325	3.249667	0.550508	-0.006500
1475	7.3700e-01	5.2570	8.604248	0.000265	2.651044	0.449099	-0.005303
1476	7.3750e-01	5.2444	8.562768	0.000415	4.147601	0.702623	-0.008296
1477	7.3800e-01	5.2345	8.531124	0.000316	3.164149	0.536021	-0.006329
1478	7.3850e-01	5.2277	8.497769	0.000334	3.335185	0.564996	-0.006671
1479	7.3900e-01	5.2142	8.445599	0.000522	5.216571	0.883711	-0.010434
1480	7.3950e-01	5.2069	8.414810	0.000308	3.078632	0.521534	-0.006158
1481	7.4000e-01	5.1956	8.385304	0.000295	2.950356	0.499804	-0.005901
1482	7.4050e-01	5.1877	8.367344	0.000180	1.795869	0.304228	-0.003592
1483	7.4100e-01	5.1776	8.340831	0.000265	2.651044	0.449099	-0.005303
1484	7.4150e-01	5.1672	8.287378	0.000534	5.344847	0.905442	-0.010691
1485	7.4200e-01	5.1567	8.258299	0.000291	2.907597	0.492560	-0.005816
1486	7.4250e-01	5.1436	8.230931	0.000274	2.736562	0.463586	-0.005474
1487	7.4300e-01	5.1357	8.226655	0.000043	0.427588	0.072435	-0.000855
1488	7.4350e-01	5.1273	8.163794	0.000629	6.285540	1.064799	-0.012572
1489	7.4400e-01	5.1141	8.136426	0.000274	2.736562	0.463586	-0.005474
1490	7.4450e-01	5.1062	8.079124	0.000573	5.729676	0.970633	-0.011460
1491	7.4500e-01	5.0977	8.074420	0.000047	0.470347	0.079679	-0.000941
1492	7.4550e-01	5.0867	8.014553	0.000599	5.986229	1.014095	-0.011974
1493	7.4600e-01	5.0745	7.993172	0.000214	2.137939	0.362177	-0.004276
1494	7.4650e-01	5.0668	7.956823	0.000363	3.634496	0.615700	-0.007270
1495	7.4700e-01	5.0568	7.923469	0.000334	3.335185	0.564996	-0.006671
1496	7.4750e-01	5.0439	7.887548	0.000359	3.591737	0.608457	-0.007184
1497	7.4800e-01	5.0333	7.858042	0.000295	2.950356	0.499804	-0.005901
1498	7.4850e-01	5.0272	7.833667	0.000244	2.437250	0.412881	-0.004875
1499	7.4900e-01	5.0139	7.814424	0.000192	1.924145	0.325959	-0.003849
1500	7.4950e-01	5.0040	7.758833	0.000556	5.558641	0.941659	-0.011118
1501	7.5000e-01	4.9945	7.729754	0.000291	2.907597	0.492560	-0.005816
1502	7.5050e-01	4.9863	7.679722	0.000500	5.002777	0.847493	-0.010006
1503	7.5100e-01	4.9763	7.635249	0.000445	4.446913	0.753327	-0.008895
1504	7.5150e-01	4.9689	7.617289	0.000180	1.795869	0.304228	-0.003592
1505	7.5200e-01	4.9550	7.574954	0.000423	4.233119	0.717110	-0.008467
1506	7.5250e-01	4.9434	7.538606	0.000363	3.634496	0.615700	-0.007270
1507	7.5300e-01	4.9377	7.517652	0.000210	2.095180	0.354933	-0.004191
1508	7.5350e-01	4.9261	7.493705	0.000239	2.394491	0.405638	-0.004789
1509	7.5400e-01	4.9139	7.431700	0.000620	6.200023	1.050312	-0.012401
1510	7.5450e-01	4.9048	7.381240	0.000505	5.045536	0.854737	-0.010092
1511	7.5500e-01	4.8965	7.396207	-0.000150	-1.496557	-0.253524	0.002993
1512	7.5550e-01	4.8856	7.323938	0.000723	7.226233	1.224157	-0.014454
1513	7.5600e-01	4.8752	7.301274	0.000227	2.266215	0.383907	-0.004533
1514	7.5650e-01	4.8639	7.269630	0.000316	3.164149	0.536021	-0.006329
1515	7.5700e-01	4.8547	7.219170	0.000505	5.045536	0.854737	-0.010092
1516	7.5750e-01	4.8434	7.198644	0.000205	2.052421	0.347690	-0.004105
1517	7.5800e-01	4.8340	7.166144	0.000325	3.249667	0.550508	-0.006500
1518	7.5850e-01	4.8260	7.137066	0.000291	2.907597	0.492560	-0.005816
1519	7.5900e-01	4.8145	7.093876	0.000432	4.318636	0.731597	-0.008638
1520	7.5950e-01	4.8050	7.048547	0.000453	4.532430	0.767814	-0.009066
1521	7.6000e-01	4.7964	7.011344	0.000372	3.720014	0.630187	-0.007441
1522	7.6050e-01	4.7833	7.003219	0.000081	0.812417	0.137627	-0.001625
1523	7.6100e-01	4.7754	6.969864	0.000334	3.335185	0.564996	-0.006671
1524	7.6150e-01	4.7668	6.918549	0.000513	5.131053	0.869224	-0.010263
1525	7.6200e-01	4.7537	6.886477	0.000321	3.206908	0.543265	-0.006414
1526	7.6250e-01	4.7461	6.862530	0.000239	2.394491	0.405638	-0.004789
1527	7.6300e-01	4.7364	6.823189	0.000393	3.933807	0.666405	-0.007868
1528	7.6350e-01	4.7269	6.789406	0.000338	3.377943	0.572239	-0.006756
1529	7.6400e-01	4.7150	6.733815	0.000556	5.558641	0.941659	-0.011118
1530	7.6450e-01	4.7046	6.719704	0.000141	1.411040	0.239037	-0.002822
1531	7.6500e-01	4.6948	6.659836	0.000599	5.986229	1.014095	-0.011974
1532	7.6550e-01	4.6857	6.638882	0.000210	2.095180	0.354933	-0.004191
1533	7.6600e-01	4.6753	6.614935	0.000239	2.394491	0.405638	-0.004789
1534	7.6650e-01	4.6649	6.569607	0.000453	4.532430	0.767814	-0.009066
1535	7.6700e-01	4.6564	6.537108	0.000325	3.249667	0.550508	-0.006500
1536	7.6750e-01	4.6474	6.521285	0.000158	1.582075	0.268011	-0.003164
1537	7.6800e-01	4.6359	6.462273	0.000590	5.900711	0.999608	-0.011802
1538	7.6850e-01	4.6243	6.426780	0.000355	3.548978	0.601213	-0.007099
1539	7.6900e-01	4.6147	6.384873	0.000419	4.190360	0.709866	-0.008381
1540	7.6950e-01	4.6069	6.353229	0.000316	3.164149	0.536021	-0.006329
1541	7.7000e-01	4.5959	6.321157	0.000321	3.206908	0.543265	-0.006414
1542	7.7050e-01	4.5856	6.288230	0.000329	3.292426	0.557752	-0.006585
1543	7.7100e-01	4.5758	6.262145	0.000261	2.608285	0.441855	-0.005217
1544	7.7150e-01	4.5648	6.180468	0.000817	8.166926	1.383515	-0.016335
1545	7.7200e-01	4.5566	6.164218	0.000162	1.624833	0.275254	-0.003250
1546	7.7250e-01	4.5466	6.144975	0.000192	1.924145	0.325959	-0.003849
1547	7.7300e-01	4.5370	6.085963	0.000590	5.900711	0.999608	-0.011802
1548	7.7350e-01	4.5245	6.070141	0.000158	1.582075	0.268011	-0.003164
1549	7.7400e-01	4.5160	6.030799	0.000393	3.933807	0.666405	-0.007868
1550	7.7450e-01	4.5053	5.993596	0.000372	3.720014	0.630187	-0.007441
1551	7.7500e-01	4.4949	5.960241	0.000334	3.335185	0.564996	-0.006671
1552	7.7550e-01	4.4853	5.937149	0.000231	2.308974	0.391151	-0.004618
1553	7.7600e-01	4.4751	5.888828	0.000483	4.831742	0.818519	-0.009664
1554	7.7650e-01	4.4632	5.853335	0.000355	3.548978	0.601213	-0.007099
1555	7.7700e-01	4.4556	5.808862	0.000445	4.446913	0.753327	-0.008895
1556	7.7750e-01	4.4437	5.781494	0.000274	2.736562	0.463586	-0.005474
1557	7.7800e-01	4.4360	5.748994	0.000325	3.249667	0.550508	-0.006500
1558	7.7850e-01	4.4240	5.696824	0.000522	5.216571	0.883711	-0.010434
1559	7.7900e-01	4.4180	5.676726	0.000201	2.009662	0.340446	-0.004020
1560	7.7950e-01	4.4049	5.638239	0.000385	3.848290	0.651918	-0.007697
1561	7.8000e-01	4.3964	5.585214	0.000530	5.302088	0.898198	-0.010605
1562	7.8050e-01	4.3838	5.587352	-0.000021	-0.213794	-0.036218	0.000428
1563	7.8100e-01	4.3750	5.529622	0.000577	5.772435	0.977877	-0.011546
1564	7.8150e-01	4.3625	5.507814	0.000218	2.180698	0.369420	-0.004362
1565	7.8200e-01	4.3557	5.451367	0.000564	5.644158	0.956146	-0.011289
1566	7.8250e-01	4.3427	5.418440	0.000329	3.292426	0.557752	-0.006585
1567	7.8300e-01	4.3350	5.367552	0.000509	5.088294	0.861980	-0.010177
1568	7.8350e-01	4.3280	5.335908	0.000316	3.164149	0.536021	-0.006329
1569	7.8400e-01	4.3155	5.312816	0.000231	2.308974	0.391151	-0.004618
1570	7.8450e-01	4.3057	5.287587	0.000252	2.522768	0.427368	-0.005046
1571	7.8500e-01	4.2957	5.249955	0.000376	3.762772	0.637431	-0.007526
1572	7.8550e-01	4.2847	5.195647	0.000543	5.430365	0.919929	-0.010862
1573	7.8600e-01	4.2786	5.166141	0.000295	2.950356	0.499804	-0.005901
1574	7.8650e-01	4.2657	5.128510	0.000376	3.762772	0.637431	-0.007526
1575	7.8700e-01	4.2560	5.114398	0.000141	1.411040	0.239037	-0.002822
1576	7.8750e-01	4.2438	5.064794	0.000496	4.960018	0.840250	-0.009921
1577	7.8800e-01	4.2355	5.013051	0.000517	5.173812	0.876467	-0.010349
1578	7.8850e-01	4.2249	4.955322	0.000577	5.772435	0.977877	-0.011546
1579	7.8900e-01	4.2142	4.935651	0.000197	1.966904	0.333203	-0.003934
1580	7.8950e-01	4.2059	4.905290	0.000304	3.035873	0.514291	-0.006072
1581	7.9000e-01	4.1943	4.856968	0.000483	4.831742	0.818519	-0.009664
1582	7.9050e-01	4.1870	4.819764	0.000372	3.720014	0.630187	-0.007441
1583	7.9100e-01	4.1786	4.799238	0.000205	2.052421	0.347690	-0.004105
1584	7.9150e-01	4.1615	4.778285	0.000210	2.095180	0.354933	-0.004191
1585	7.9200e-01	4.1565	4.719700	0.000586	5.857952	0.992364	-0.011717
1586	7.9250e-01	4.1452	4.676510	0.000432	4.318636	0.731597	-0.008638
1587	7.9300e-01	4.1341	4.650425	0.000261	2.608285	0.441855	-0.005217
1588	7.9350e-01	4.1263	4.608945	0.000415	4.147601	0.702623	-0.008296
1589	7.9400e-01	4.1144	4.573452	0.000355	3.548978	0.601213	-0.007099
1590	7.9450e-01	4.1028	4.518289	0.000552	5.515882	0.934416	-0.011033
1591	7.9500e-01	4.0942	4.486217	0.000321	3.206908	0.543265	-0.006414
1592	7.9550e-01	4.0837	4.466118	0.000201	2.009662	0.340446	-0.004020
1593	7.9600e-01	4.0766	4.443027	0.000231	2.308974	0.391151	-0.004618
1594	7.9650e-01	4.0664	4.376317	0.000667	6.670369	1.129991	-0.013342
1595	7.9700e-01	4.0555	4.349377	0.000269	2.693803	0.456343	-0.005388
1596	7.9750e-01	4.0444	4.313029	0.000363	3.634496	0.615700	-0.007270
1597	7.9800e-01	4.0378	4.283095	0.000299	2.993114	0.507047	-0.005987
1598	7.9850e-01	4.0274	4.218096	0.000650	6.499334	1.101017	-0.013000
1599	7.9900e-01	4.0140	4.211681	0.000064	0.641382	0.108653	-0.001283
1600	7.9950e-01	4.0057	4.149248	0.000624	6.242781	1.057556	-0.012487
1601	8.0000e-01	3.9935	4.114183	0.000351	3.506220	0.593970	-0.007013
1602	8.0050e-01	3.9870	4.074841	0.000393	3.933807	0.666405	-0.007868
1603	8.0100e-01	3.9758	4.039348	0.000355	3.548978	0.601213	-0.007099
1604	8.0150e-01	3.9655	4.016257	0.000231	2.308974	0.391151	-0.004618
1605	8.0200e-01	3.9551	3.969218	0.000470	4.703465	0.796789	-0.009408
1606	8.0250e-01	3.9436	3.916620	0.000526	5.259329	0.890955	-0.010520
1607	8.0300e-01	3.9368	3.892245	0.000244	2.437250	0.412881	-0.004875
1608	8.0350e-01	3.9264	3.866160	0.000261	2.608285	0.441855	-0.005217
1609	8.0400e-01	3.9152	3.823398	0.000428	4.275878	0.724353	-0.008553
1610	8.0450e-01	3.9063	3.773365	0.000500	5.002777	0.847493	-0.010006
1611	8.0500e-01	3.8965	3.731886	0.000415	4.147601	0.702623	-0.008296
1612	8.0550e-01	3.8861	3.722050	0.000098	0.983452	0.166601	-0.001967
1613	8.0600e-01	3.8733	3.650637	0.000714	7.140716	1.209670	-0.014283
1614	8.0650e-01	3.8647	3.633104	0.000175	1.753110	0.296985	-0.003507
1615	8.0700e-01	3.8565	3.580079	0.000530	5.302088	0.898198	-0.010605
1616	8.0750e-01	3.8449	3.544158	0.000359	3.591737	0.608457	-0.007184
1617	8.0800e-01	3.8342	3.512086	0.000321	3.206908	0.543265	-0.006414
1618	8.0850e-01	3.8226	3.463337	0.000487	4.874500	0.825763	-0.009750
1619	8.0900e-01	3.8156	3.426134	0.000372	3.720014	0.630187	-0.007441
1620	8.0950e-01	3.8052	3.400904	0.000252	2.522768	0.427368	-0.005046
1621	8.1000e-01	3.7958	3.372681	0.000282	2.822079	0.478073	-0.005645
1622	8.1050e-01	3.7848	3.310247	0.000624	6.242781	1.057556	-0.012487
1623	8.1100e-01	3.7747	3.282879	0.000274	2.736562	0.463586	-0.005474
1624	8.1150e-01	3.7648	3.239689	0.000432	4.318636	0.731597	-0.008638
1625	8.1200e-01	3.7567	3.199065	0.000406	4.062084	0.688136	-0.008125
1626	8.1250e-01	3.7491	3.152454	0.000466	4.660707	0.789545	-0.009322
1627	8.1300e-01	3.7347	3.127224	0.000252	2.522768	0.427368	-0.005046
1628	8.1350e-01	3.7234	3.083606	0.000436	4.361395	0.738840	-0.008724
1629	8.1400e-01	3.7160	3.039133	0.000445	4.446913	0.753327	-0.008895
1630	8.1450e-01	3.7044	3.017324	0.000218	2.180698	0.369420	-0.004362
1631	8.1500e-01	3.6957	2.980976	0.000363	3.634496	0.615700	-0.007270
1632	8.1550e-01	3.6871	2.925812	0.000552	5.515882	0.934416	-0.011033
1633	8.1600e-01	3.6723	2.891602	0.000342	3.420702	0.579483	-0.006842
1634	8.1650e-01	3.6661	2.832590	0.000590	5.900711	0.999608	-0.011802
1635	8.1700e-01	3.6573	2.813347	0.000192	1.924145	0.325959	-0.003849
1636	8.1750e-01	3.6456	2.779564	0.000338	3.377943	0.572239	-0.006756
1637	8.1800e-01	3.6337	2.723973	0.000556	5.558641	0.941659	-0.011118
1638	8.1850e-01	3.6274	2.700881	0.000231	2.308974	0.391151	-0.004618
1639	8.1900e-01	3.6154	2.650421	0.000505	5.045536	0.854737	-0.010092
1640	8.1950e-01	3.6063	2.628185	0.000222	2.223456	0.376664	-0.004447
1641	8.2000e-01	3.5968	2.578153	0.000500	5.002777	0.847493	-0.010006
1642	8.2050e-01	3.5860	2.557199	0.000210	2.095180	0.354933	-0.004191
1643	8.2100e-01	3.5748	2.487496	0.000697	6.969680	1.180696	-0.013941
1644	8.2150e-01	3.5645	2.452003	0.000355	3.548978	0.601213	-0.007099
1645	8.2200e-01	3.5554	2.430622	0.000214	2.137939	0.362177	-0.004276
1646	8.2250e-01	3.5451	2.376741	0.000539	5.387606	0.912685	-0.010776
1647	8.2300e-01	3.5360	2.348946	0.000278	2.779320	0.470830	-0.005559
1648	8.2350e-01	3.5236	2.300624	0.000483	4.831742	0.818519	-0.009664
1649	8.2400e-01	3.5144	2.249309	0.000513	5.131053	0.869224	-0.010263
1650	8.2450e-01	3.5046	2.219803	0.000295	2.950356	0.499804	-0.005901
1651	8.2500e-01	3.4976	2.172336	0.000475	4.746224	0.804032	-0.009493
1652	8.2550e-01	3.4868	2.145824	0.000265	2.651044	0.449099	-0.005303
1653	8.2600e-01	3.4741	2.109903	0.000359	3.591737	0.608457	-0.007184
1654	8.2650e-01	3.4641	2.067141	0.000428	4.275878	0.724353	-0.008553
1655	8.2700e-01	3.4547	2.023523	0.000436	4.361395	0.738840	-0.008724
1656	8.2750e-01	3.4448	1.968787	0.000547	5.473123	0.927172	-0.010947
1657	8.2800e-01	3.4357	1.948688	0.000201	2.009662	0.340446	-0.004020
1658	8.2850e-01	3.4232	1.915761	0.000329	3.292426	0.557752	-0.006585
1659	8.2900e-01	3.4139	1.867012	0.000487	4.874500	0.825763	-0.009750
1660	8.2950e-01	3.4055	1.807572	0.000594	5.943470	1.006851	-0.011888
1661	8.3000e-01	3.3957	1.777638	0.000299	2.993114	0.507047	-0.005987
1662	8.3050e-01	3.3868	1.754119	0.000235	2.351733	0.398394	-0.004704
1663	8.3100e-01	3.3759	1.704087	0.000500	5.002777	0.847493	-0.010006
1664	8.3150e-01	3.3643	1.662179	0.000419	4.190360	0.709866	-0.008381
1665	8.3200e-01	3.3548	1.630963	0.000312	3.121391	0.528778	-0.006243
1666	8.3250e-01	3.3453	1.567247	0.000637	6.371058	1.079286	-0.012743
1667	8.3300e-01	3.3345	1.545865	0.000214	2.137939	0.362177	-0.004276
1668	8.3350e-01	3.3231	1.509517	0.000363	3.634496	0.615700	-0.007270
1669	8.3400e-01	3.3144	1.463334	0.000462	4.617948	0.782302	-0.009237
1670	8.3450e-01	3.3075	1.434683	0.000286	2.864838	0.485317	-0.005730
1671	8.3500e-01	3.2959	1.382085	0.000526	5.259329	0.890955	-0.010520
1672	8.3550e-01	3.2855	1.331197	0.000509	5.088294	0.861980	-0.010177
1673	8.3600e-01	3.2779	1.301264	0.000299	2.993114	0.507047	-0.005987
1674	8.3650e-01	3.2662	1.261067	0.000402	4.019325	0.680892	-0.008039
1675	8.3700e-01	3.2515	1.214883	0.000462	4.617948	0.782302	-0.009237
1676	8.3750e-01	3.2434	1.169555	0.000453	4.532430	0.767814	-0.009066
1677	8.3800e-01	3.2332	1.138766	0.000308	3.078632	0.521534	-0.006158
1678	8.3850e-01	3.2263	1.075478	0.000633	6.328299	1.072043	-0.012658
1679	8.3900e-01	3.2143	1.066925	0.000086	0.855176	0.144871	-0.001711
1680	8.3950e-01	3.2074	1.019886	0.000470	4.703465	0.796789	-0.009408
1681	8.4000e-01	3.1967	0.974986	0.000449	4.489671	0.760571	-0.008980
1682	8.4050e-01	3.1828	0.912552	0.000624	6.242781	1.057556	-0.012487
1683	8.4100e-01	3.1738	0.889888	0.000227	2.266215	0.383907	-0.004533
1684	8.4150e-01	3.1644	0.861665	0.000282	2.822079	0.478073	-0.005645
1685	8.4200e-01	3.1558	0.820613	0.000410	4.104842	0.695379	-0.008210
1686	8.4250e-01	3.1447	0.764594	0.000560	5.601400	0.948903	-0.011204
1687	8.4300e-01	3.1369	0.717555	0.000470	4.703465	0.796789	-0.009408
1688	8.4350e-01	3.1235	0.678641	0.000389	3.891049	0.659161	-0.007783
1689	8.4400e-01	3.1158	0.650418	0.000282	2.822079	0.478073	-0.005645
1690	8.4450e-01	3.1064	0.608511	0.000419	4.190360	0.709866	-0.008381
1691	8.4500e-01	3.0934	0.570880	0.000376	3.762772	0.637431	-0.007526
1692	8.4550e-01	3.0853	0.528972	0.000419	4.190360	0.709866	-0.008381
1693	8.4600e-01	3.0751	0.487065	0.000419	4.190360	0.709866	-0.008381
1694	8.4650e-01	3.0658	0.432329	0.000547	5.473123	0.927172	-0.010947
1695	8.4700e-01	3.0544	0.395126	0.000372	3.720014	0.630187	-0.007441
1696	8.4750e-01	3.0432	0.356212	0.000389	3.891049	0.659161	-0.007783
1697	8.4800e-01	3.0344	0.305752	0.000505	5.045536	0.854737	-0.010092
1698	8.4850e-01	3.0254	0.271542	0.000342	3.420702	0.579483	-0.006842
1699	8.4900e-01	3.0151	0.220227	0.000513	5.131053	0.869224	-0.010263
1700	8.4950e-01	3.0017	0.191576	0.000286	2.864838	0.485317	-0.005730
1701	8.5000e-01	2.9965	0.144965	0.000466	4.660707	0.789545	-0.009322
1702	8.5050e-01	2.9878	0.113748	0.000312	3.121391	0.528778	-0.006243
1703	8.5100e-01	2.9727	0.075690	0.000381	3.805531	0.644674	-0.007612
1704	8.5150e-01	2.9671	0.026940	0.000487	4.874500	0.825763	-0.009750
1705	8.5200e-01	2.9541	-0.014967	0.000419	4.190360	0.709866	-0.008381
1706	8.5250e-01	2.9453	-0.064999	0.000500	5.002777	0.847493	-0.010006
1707	8.5300e-01	2.9340	-0.101775	0.000368	3.677255	0.622944	-0.007355
1708	8.5350e-01	2.9233	-0.156511	0.000547	5.473123	0.927172	-0.010947
1709	8.5400e-01	2.9151	-0.209109	0.000526	5.259329	0.890955	-0.010520
1710	8.5450e-01	2.9053	-0.244602	0.000355	3.548978	0.601213	-0.007099
1711	8.5500e-01	2.8922	-0.285654	0.000410	4.104842	0.695379	-0.008210
1712	8.5550e-01	2.8835	-0.312594	0.000269	2.693803	0.456343	-0.005388
1713	8.5600e-01	2.8735	-0.357922	0.000453	4.532430	0.767814	-0.009066
1714	8.5650e-01	2.8625	-0.417362	0.000594	5.943470	1.006851	-0.011888
1715	8.5700e-01	2.8522	-0.449007	0.000316	3.164149	0.536021	-0.006329
1716	8.5750e-01	2.8477	-0.490059	0.000410	4.104842	0.695379	-0.008210
1717	8.5800e-01	2.8360	-0.511440	0.000214	2.137939	0.362177	-0.004276
1718	8.5850e-01	2.8261	-0.565321	0.000539	5.387606	0.912685	-0.010776
1719	8.5900e-01	2.8162	-0.599103	0.000338	3.377943	0.572239	-0.006756
1720	8.5950e-01	2.8053	-0.648280	0.000492	4.917259	0.833006	-0.009835
1721	8.6000e-01	2.7979	-0.694891	0.000466	4.660707	0.789545	-0.009322
1722	8.6050e-01	2.7845	-0.754331	0.000594	5.943470	1.006851	-0.011888
1723	8.6100e-01	2.7772	-0.774002	0.000197	1.966904	0.333203	-0.003934
1724	8.6150e-01	2.7661	-0.826600	0.000526	5.259329	0.890955	-0.010520
1725	8.6200e-01	2.7559	-0.876204	0.000496	4.960018	0.840250	-0.009921
1726	8.6250e-01	2.7443	-0.900151	0.000239	2.394491	0.405638	-0.004789
1727	8.6300e-01	2.7359	-0.950611	0.000505	5.045536	0.854737	-0.010092
1728	8.6350e-01	2.7255	-1.004492	0.000539	5.387606	0.912685	-0.010776
1729	8.6400e-01	2.7127	-1.060511	0.000560	5.601400	0.948903	-0.011204
1730	8.6450e-01	2.7094	-1.076333	0.000158	1.582075	0.268011	-0.003164
1731	8.6500e-01	2.6956	-1.137483	0.000611	6.114505	1.035825	-0.012230
1732	8.6550e-01	2.6871	-1.169128	0.000316	3.164149	0.536021	-0.006329
1733	8.6600e-01	2.6740	-1.220870	0.000517	5.173812	0.876467	-0.010349
1734	8.6650e-01	2.6648	-1.251232	0.000304	3.035873	0.514291	-0.006072
1735	8.6700e-01	2.6558	-1.306395	0.000552	5.515882	0.934416	-0.011033
1736	8.6750e-01	2.6478	-1.338039	0.000316	3.164149	0.536021	-0.006329
1737	8.6800e-01	2.6347	-1.381657	0.000436	4.361395	0.738840	-0.008724
1738	8.6850e-01	2.6266	-1.426558	0.000449	4.489671	0.760571	-0.008980
1739	8.6900e-01	2.6138	-1.468038	0.000415	4.147601	0.702623	-0.008296
1740	8.6950e-01	2.6038	-1.512938	0.000449	4.489671	0.760571	-0.008980
1741	8.7000e-01	2.5964	-1.556984	0.000440	4.404154	0.746084	-0.008809
1742	8.7050e-01	2.5814	-1.613858	0.000569	5.686917	0.963390	-0.011375
1743	8.7100e-01	2.5761	-1.657476	0.000436	4.361395	0.738840	-0.008724
1744	8.7150e-01	2.5642	-1.705370	0.000479	4.788983	0.811276	-0.009579
1745	8.7200e-01	2.5558	-1.719909	0.000145	1.453798	0.246280	-0.002908
1746	8.7250e-01	2.5465	-1.790039	0.000701	7.012439	1.187939	-0.014026
1747	8.7300e-01	2.5348	-1.826388	0.000363	3.634496	0.615700	-0.007270
1748	8.7350e-01	2.5285	-1.871716	0.000453	4.532430	0.767814	-0.009066
1749	8.7400e-01	2.5146	-1.912768	0.000410	4.104842	0.695379	-0.008210
1750	8.7450e-01	2.5055	-1.964938	0.000522	5.216571	0.883711	-0.010434
1751	8.7500e-01	2.4933	-1.999576	0.000346	3.463461	0.586726	-0.006928
1752	8.7550e-01	2.4860	-2.023950	0.000244	2.437250	0.412881	-0.004875
1753	8.7600e-01	2.4729	-2.083390	0.000594	5.943470	1.006851	-0.011888
1754	8.7650e-01	2.4652	-2.139837	0.000564	5.644158	0.956146	-0.011289
1755	8.7700e-01	2.4545	-2.177468	0.000376	3.762772	0.637431	-0.007526
1756	8.7750e-01	2.4454	-2.222369	0.000449	4.489671	0.760571	-0.008980
1757	8.7800e-01	2.4356	-2.254868	0.000325	3.249667	0.550508	-0.006500
1758	8.7850e-01	2.4243	-2.296348	0.000415	4.147601	0.702623	-0.008296
1759	8.7900e-01	2.4131	-2.355788	0.000594	5.943470	1.006851	-0.011888
1760	8.7950e-01	2.4042	-2.390853	0.000351	3.506220	0.593970	-0.007013
1761	8.8000e-01	2.3946	-2.427629	0.000368	3.677255	0.622944	-0.007355
1762	8.8050e-01	2.3859	-2.486641	0.000590	5.900711	0.999608	-0.011802
1763	8.8100e-01	2.3767	-2.552923	0.000663	6.627610	1.122748	-0.013256
1764	8.8150e-01	2.3682	-2.572594	0.000197	1.966904	0.333203	-0.003934
1765	8.8200e-01	2.3566	-2.616639	0.000440	4.404154	0.746084	-0.008809
1766	8.8250e-01	2.3489	-2.664961	0.000483	4.831742	0.818519	-0.009664
1767	8.8300e-01	2.3370	-2.707723	0.000428	4.275878	0.724353	-0.008553
1768	8.8350e-01	2.3242	-2.745354	0.000376	3.762772	0.637431	-0.007526
1769	8.8400e-01	2.3141	-2.801373	0.000560	5.601400	0.948903	-0.011204
1770	8.8450e-01	2.3038	-2.842425	0.000410	4.104842	0.695379	-0.008210
1771	8.8500e-01	2.2949	-2.894595	0.000522	5.216571	0.883711	-0.010434
1772	8.8550e-01	2.2859	-2.944628	0.000500	5.002777	0.847493	-0.010006
1773	8.8600e-01	2.2752	-2.981831	0.000372	3.720014	0.630187	-0.007441
1774	8.8650e-01	2.2651	-3.033574	0.000517	5.173812	0.876467	-0.010349
1775	8.8700e-01	2.2571	-3.080612	0.000470	4.703465	0.796789	-0.009408
1776	8.8750e-01	2.2440	-3.123375	0.000428	4.275878	0.724353	-0.008553
1777	8.8800e-01	2.2351	-3.174690	0.000513	5.131053	0.869224	-0.010263
1778	8.8850e-01	2.2266	-3.210183	0.000355	3.548978	0.601213	-0.007099
1779	8.8900e-01	2.2147	-3.229426	0.000192	1.924145	0.325959	-0.003849
1780	8.8950e-01	2.2054	-3.303833	0.000744	7.440027	1.260375	-0.014881
1781	8.9000e-01	2.1957	-3.347023	0.000432	4.318636	0.731597	-0.008638
1782	8.9050e-01	2.1866	-3.385082	0.000381	3.805531	0.644674	-0.007612
1783	8.9100e-01	2.1738	-3.442383	0.000573	5.729676	0.970633	-0.011460
1784	8.9150e-01	2.1670	-3.486429	0.000440	4.404154	0.746084	-0.008809
1785	8.9200e-01	2.1579	-3.530902	0.000445	4.446913	0.753327	-0.008895
1786	8.9250e-01	2.1473	-3.569816	0.000389	3.891049	0.659161	-0.007783
1787	8.9300e-01	2.1368	-3.612578	0.000428	4.275878	0.724353	-0.008553
1788	8.9350e-01	2.1271	-3.669880	0.000573	5.729676	0.970633	-0.011460
1789	8.9400e-01	2.1127	-3.704090	0.000342	3.420702	0.579483	-0.006842
1790	8.9450e-01	2.1088	-3.754978	0.000509	5.088294	0.861980	-0.010177
1791	8.9500e-01	2.0950	-3.812279	0.000573	5.729676	0.970633	-0.011460
1792	8.9550e-01	2.0840	-3.840503	0.000282	2.822079	0.478073	-0.005645
1793	8.9600e-01	2.0764	-3.895666	0.000552	5.515882	0.934416	-0.011033
1794	8.9650e-01	2.0668	-3.935008	0.000393	3.933807	0.666405	-0.007868
1795	8.9700e-01	2.0554	-3.991882	0.000569	5.686917	0.963390	-0.011375
1796	8.9750e-01	2.0462	-4.041059	0.000492	4.917259	0.833006	-0.009835
1797	8.9800e-01	2.0338	-4.077407	0.000363	3.634496	0.615700	-0.007270
1798	8.9850e-01	2.0253	-4.117604	0.000402	4.019325	0.680892	-0.008039
1799	8.9900e-01	2.0143	-4.182175	0.000646	6.456575	1.093773	-0.012914
1800	8.9950e-01	2.0038	-4.239477	0.000573	5.729676	0.970633	-0.011460
1801	9.0000e-01	1.9954	-4.254444	0.000150	1.496557	0.253524	-0.002993
1802	9.0050e-01	1.9852	-4.298062	0.000436	4.361395	0.738840	-0.008724
1803	9.0100e-01	1.9742	-4.367337	0.000693	6.926922	1.173452	-0.013855
1804	9.0150e-01	1.9675	-4.390001	0.000227	2.266215	0.383907	-0.004533
1805	9.0200e-01	1.9553	-4.440888	0.000509	5.088294	0.861980	-0.010177
1806	9.0250e-01	1.9440	-4.489210	0.000483	4.831742	0.818519	-0.009664
1807	9.0300e-01	1.9331	-4.531973	0.000428	4.275878	0.724353	-0.008553
1808	9.0350e-01	1.9241	-4.603814	0.000718	7.183474	1.216913	-0.014368
1809	9.0400e-01	1.9162	-4.639307	0.000355	3.548978	0.601213	-0.007099
1810	9.0450e-01	1.9040	-4.697464	0.000582	5.815194	0.985120	-0.011631
1811	9.0500e-01	1.8960	-4.726115	0.000286	2.864838	0.485317	-0.005730
1812	9.0550e-01	1.8825	-4.785982	0.000599	5.986229	1.014095	-0.011974
1813	9.0600e-01	1.8765	-4.817199	0.000312	3.121391	0.528778	-0.006243
1814	9.0650e-01	1.8655	-4.862955	0.000458	4.575189	0.775058	-0.009151
1815	9.0700e-01	1.8530	-4.916835	0.000539	5.387606	0.912685	-0.010776
1816	9.0750e-01	1.8463	-4.960453	0.000436	4.361395	0.738840	-0.008724
1817	9.0800e-01	1.8347	-5.018610	0.000582	5.815194	0.985120	-0.011631
1818	9.0850e-01	1.8243	-5.041274	0.000227	2.266215	0.383907	-0.004533
1819	9.0900e-01	1.8154	-5.096866	0.000556	5.558641	0.941659	-0.011118
1820	9.0950e-01	1.8068	-5.159727	0.000629	6.285540	1.064799	-0.012572
1821	9.1000e-01	1.7945	-5.215318	0.000556	5.558641	0.941659	-0.011118
1822	9.1050e-01	1.7836	-5.256798	0.000415	4.147601	0.702623	-0.008296
1823	9.1100e-01	1.7764	-5.291008	0.000342	3.420702	0.579483	-0.006842
1824	9.1150e-01	1.7636	-5.350447	0.000594	5.943470	1.006851	-0.011888
1825	9.1200e-01	1.7531	-5.392355	0.000419	4.190360	0.709866	-0.008381
1826	9.1250e-01	1.7442	-5.437255	0.000449	4.489671	0.760571	-0.008980
1827	9.1300e-01	1.7343	-5.492419	0.000552	5.515882	0.934416	-0.011033
1828	9.1350e-01	1.7238	-5.526201	0.000338	3.377943	0.572239	-0.006756
1829	9.1400e-01	1.7151	-5.600608	0.000744	7.440027	1.260375	-0.014881
1830	9.1450e-01	1.7039	-5.645081	0.000445	4.446913	0.753327	-0.008895
1831	9.1500e-01	1.6945	-5.668601	0.000235	2.351733	0.398394	-0.004704
1832	9.1550e-01	1.6837	-5.739159	0.000706	7.055198	1.195183	-0.014112
1833	9.1600e-01	1.6745	-5.779783	0.000406	4.062084	0.688136	-0.008125
1834	9.1650e-01	1.6659	-5.840506	0.000607	6.071746	1.028582	-0.012145
1835	9.1700e-01	1.6531	-5.871295	0.000308	3.078632	0.521534	-0.006158
1836	9.1750e-01	1.6428	-5.935011	0.000637	6.371058	1.079286	-0.012743
1837	9.1800e-01	1.6355	-5.977774	0.000428	4.275878	0.724353	-0.008553
1838	9.1850e-01	1.6247	-6.016688	0.000389	3.891049	0.659161	-0.007783
1839	9.1900e-01	1.6156	-6.064154	0.000475	4.746224	0.804032	-0.009493
1840	9.1950e-01	1.6028	-6.107772	0.000436	4.361395	0.738840	-0.008724
1841	9.2000e-01	1.5955	-6.179613	0.000718	7.183474	1.216913	-0.014368
1842	9.2050e-01	1.5867	-6.218099	0.000385	3.848290	0.651918	-0.007697
1843	9.2100e-01	1.5725	-6.265566	0.000475	4.746224	0.804032	-0.009493
1844	9.2150e-01	1.5649	-6.319019	0.000534	5.344847	0.905442	-0.010691
1845	9.2200e-01	1.5573	-6.348952	0.000299	2.993114	0.507047	-0.005987
1846	9.2250e-01	1.5440	-6.407537	0.000586	5.857952	0.992364	-0.011717
1847	9.2300e-01	1.5353	-6.481944	0.000744	7.440027	1.260375	-0.014881
1848	9.2350e-01	1.5263	-6.505891	0.000239	2.394491	0.405638	-0.004789
1849	9.2400e-01	1.5150	-6.537535	0.000316	3.164149	0.536021	-0.006329
1850	9.2450e-01	1.5054	-6.594837	0.000573	5.729676	0.970633	-0.011460
1851	9.2500e-01	1.4957	-6.632896	0.000381	3.805531	0.644674	-0.007612
1852	9.2550e-01	1.4839	-6.707730	0.000748	7.482786	1.267618	-0.014967
1853	9.2600e-01	1.4743	-6.755624	0.000479	4.788983	0.811276	-0.009579
1854	9.2650e-01	1.4656	-6.791117	0.000355	3.548978	0.601213	-0.007099
1855	9.2700e-01	1.4553	-6.840294	0.000492	4.917259	0.833006	-0.009835
1856	9.2750e-01	1.4439	-6.911707	0.000714	7.140716	1.209670	-0.014283
1857	9.2800e-01	1.4362	-6.943779	0.000321	3.206908	0.543265	-0.006414
1858	9.2850e-01	1.4243	-6.974568	0.000308	3.078632	0.521534	-0.006158
1859	9.2900e-01	1.4160	-7.052824	0.000782	7.824856	1.325566	-0.015651
1860	9.2950e-01	1.4021	-7.098580	0.000458	4.575189	0.775058	-0.009151
1861	9.3000e-01	1.3956	-7.144763	0.000462	4.617948	0.782302	-0.009237
1862	9.3050e-01	1.3853	-7.205914	0.000611	6.114505	1.035825	-0.012230
1863	9.3100e-01	1.3706	-7.243545	0.000376	3.762772	0.637431	-0.007526
1864	9.3150e-01	1.3647	-7.281176	0.000376	3.762772	0.637431	-0.007526
1865	9.3200e-01	1.3520	-7.336767	0.000556	5.558641	0.941659	-0.011118
1866	9.3250e-01	1.3458	-7.406042	0.000693	6.926922	1.173452	-0.013855
1867	9.3300e-01	1.3364	-7.433410	0.000274	2.736562	0.463586	-0.005474
1868	9.3350e-01	1.3241	-7.481732	0.000483	4.831742	0.818519	-0.009664
1869	9.3400e-01	1.3132	-7.536895	0.000552	5.515882	0.934416	-0.011033
1870	9.3450e-01	1.3044	-7.589921	0.000530	5.302088	0.898198	-0.010605
1871	9.3500e-01	1.2939	-7.632256	0.000423	4.233119	0.717110	-0.008467
1872	9.3550e-01	1.2852	-7.697683	0.000654	6.542093	1.108261	-0.013085
1873	9.3600e-01	1.2726	-7.738307	0.000406	4.062084	0.688136	-0.008125
1874	9.3650e-01	1.2634	-7.798175	0.000599	5.986229	1.014095	-0.011974
1875	9.3700e-01	1.2534	-7.857187	0.000590	5.900711	0.999608	-0.011802
1876	9.3750e-01	1.2473	-7.888831	0.000316	3.164149	0.536021	-0.006329
1877	9.3800e-01	1.2366	-7.930311	0.000415	4.147601	0.702623	-0.008296
1878	9.3850e-01	1.2248	-8.000869	0.000706	7.055198	1.195183	-0.014112
1879	9.3900e-01	1.2164	-8.045770	0.000449	4.489671	0.760571	-0.008980
1880	9.3950e-01	1.2058	-8.074848	0.000291	2.907597	0.492560	-0.005816
1881	9.4000e-01	1.1938	-8.156524	0.000817	8.166926	1.383515	-0.016335
1882	9.4050e-01	1.1841	-8.206557	0.000500	5.002777	0.847493	-0.010006
1883	9.4100e-01	1.1739	-8.258299	0.000517	5.173812	0.876467	-0.010349
1884	9.4150e-01	1.1642	-8.304483	0.000462	4.617948	0.782302	-0.009237
1885	9.4200e-01	1.1576	-8.350666	0.000462	4.617948	0.782302	-0.009237
1886	9.4250e-01	1.1446	-8.394284	0.000436	4.361395	0.738840	-0.008724
1887	9.4300e-01	1.1356	-8.445172	0.000509	5.088294	0.861980	-0.010177
1888	9.4350e-01	1.1240	-8.496914	0.000517	5.173812	0.876467	-0.010349
1889	9.4400e-01	1.1150	-8.547802	0.000509	5.088294	0.861980	-0.010177
1890	9.4450e-01	1.1072	-8.602110	0.000543	5.430365	0.919929	-0.010862
1891	9.4500e-01	1.0938	-8.660695	0.000586	5.857952	0.992364	-0.011717
1892	9.4550e-01	1.0862	-8.702602	0.000419	4.190360	0.709866	-0.008381
1893	9.4600e-01	1.0753	-8.744937	0.000423	4.233119	0.717110	-0.008467
1894	9.4650e-01	1.0666	-8.804804	0.000599	5.986229	1.014095	-0.011974
1895	9.4700e-01	1.0544	-8.849277	0.000445	4.446913	0.753327	-0.008895
1896	9.4750e-01	1.0487	-8.922401	0.000731	7.311751	1.238644	-0.014625
1897	9.4800e-01	1.0362	-8.960888	0.000385	3.848290	0.651918	-0.007697
1898	9.4850e-01	1.0257	-9.021183	0.000603	6.028987	1.021338	-0.012059
1899	9.4900e-01	1.0150	-9.074208	0.000530	5.302088	0.898198	-0.010605
1900	9.4950e-01	1.0050	-9.132793	0.000586	5.857952	0.992364	-0.011717
1901	9.5000e-01	0.9988	-9.171707	0.000389	3.891049	0.659161	-0.007783
1902	9.5050e-01	0.9857	-9.234140	0.000624	6.242781	1.057556	-0.012487
1903	9.5100e-01	0.9772	-9.285883	0.000517	5.173812	0.876467	-0.010349
1904	9.5150e-01	0.9646	-9.313251	0.000274	2.736562	0.463586	-0.005474
1905	9.5200e-01	0.9579	-9.376539	0.000633	6.328299	1.072043	-0.012658
1906	9.5250e-01	0.9476	-9.443677	0.000671	6.713128	1.137235	-0.013427
1907	9.5300e-01	0.9351	-9.478314	0.000346	3.463461	0.586726	-0.006928
1908	9.5350e-01	0.9247	-9.536899	0.000586	5.857952	0.992364	-0.011717
1909	9.5400e-01	0.9162	-9.589924	0.000530	5.302088	0.898198	-0.010605
1910	9.5450e-01	0.9062	-9.646799	0.000569	5.686917	0.963390	-0.011375
1911	9.5500e-01	0.8916	-9.688706	0.000419	4.190360	0.709866	-0.008381
1912	9.5550e-01	0.8862	-9.743442	0.000547	5.473123	0.927172	-0.010947
1913	9.5600e-01	0.8783	-9.798606	0.000552	5.515882	0.934416	-0.011033
1914	9.5650e-01	0.8680	-9.830677	0.000321	3.206908	0.543265	-0.006414
1915	9.5700e-01	0.8553	-9.874295	0.000436	4.361395	0.738840	-0.008724
1916	9.5750e-01	0.8467	-9.945709	0.000714	7.140716	1.209670	-0.014283
1917	9.5800e-01	0.8345	-9.992747	0.000470	4.703465	0.796789	-0.009408
1918	9.5850e-01	0.8257	-10.054753	0.000620	6.200023	1.050312	-0.012401
1919	9.5900e-01	0.8170	-10.100509	0.000458	4.575189	0.775058	-0.009151
1920	9.5950e-01	0.8046	-10.181330	0.000808	8.081409	1.369028	-0.016164
1921	9.6000e-01	0.7953	-10.209981	0.000286	2.864838	0.485317	-0.005730
1922	9.6050e-01	0.7819	-10.271987	0.000620	6.200023	1.050312	-0.012401
1923	9.6100e-01	0.7771	-10.325868	0.000539	5.387606	0.912685	-0.010776
1924	9.6150e-01	0.7663	-10.387018	0.000611	6.114505	1.035825	-0.012230
1925	9.6200e-01	0.7578	-10.453300	0.000663	6.627610	1.122748	-0.013256
1926	9.6250e-01	0.7456	-10.481951	0.000286	2.864838	0.485317	-0.005730
1927	9.6300e-01	0.7344	-10.552081	0.000701	7.012439	1.187939	-0.014026
1928	9.6350e-01	0.7233	-10.591850	0.000398	3.976566	0.673649	-0.007954
1929	9.6400e-01	0.7135	-10.631620	0.000398	3.976566	0.673649	-0.007954
1930	9.6450e-01	0.7063	-10.694908	0.000633	6.328299	1.072043	-0.012658
1931	9.6500e-01	0.6950	-10.744940	0.000500	5.002777	0.847493	-0.010006
1932	9.6550e-01	0.6870	-10.808656	0.000637	6.371058	1.079286	-0.012743
1933	9.6600e-01	0.6757	-10.843294	0.000346	3.463461	0.586726	-0.006928
1934	9.6650e-01	0.6656	-10.919411	0.000761	7.611062	1.289349	-0.015223
1935	9.6700e-01	0.6546	-10.959181	0.000398	3.976566	0.673649	-0.007954
1936	9.6750e-01	0.6442	-11.019903	0.000607	6.071746	1.028582	-0.012145
1937	9.6800e-01	0.6351	-11.060528	0.000406	4.062084	0.688136	-0.008125
1938	9.6850e-01	0.6247	-11.117402	0.000569	5.686917	0.963390	-0.011375
1939	9.6900e-01	0.6136	-11.193519	0.000761	7.611062	1.289349	-0.015223
1940	9.6950e-01	0.6085	-11.226019	0.000325	3.249667	0.550508	-0.006500
1941	9.7000e-01	0.5963	-11.288024	0.000620	6.200023	1.050312	-0.012401
1942	9.7050e-01	0.5866	-11.355162	0.000671	6.713128	1.137235	-0.013427
1943	9.7100e-01	0.5759	-11.402628	0.000475	4.746224	0.804032	-0.009493
1944	9.7150e-01	0.5650	-11.448384	0.000458	4.575189	0.775058	-0.009151
1945	9.7200e-01	0.5578	-11.497133	0.000487	4.874500	0.825763	-0.009750
1946	9.7250e-01	0.5463	-11.553580	0.000564	5.644158	0.956146	-0.011289
1947	9.7300e-01	0.5376	-11.603184	0.000496	4.960018	0.840250	-0.009921
1948	9.7350e-01	0.5251	-11.667756	0.000646	6.456575	1.093773	-0.012914
1949	9.7400e-01	0.5179	-11.721209	0.000534	5.344847	0.905442	-0.010691
1950	9.7450e-01	0.5049	-11.777655	0.000564	5.644158	0.956146	-0.011289
1951	9.7500e-01	0.4946	-11.832819	0.000552	5.515882	0.934416	-0.011033
1952	9.7550e-01	0.4874	-11.848641	0.000158	1.582075	0.268011	-0.003164
1953	9.7600e-01	0.4771	-11.929035	0.000804	8.038650	1.361784	-0.016079
1954	9.7650e-01	0.4663	-11.985909	0.000569	5.686917	0.963390	-0.011375
1955	9.7700e-01	0.4539	-12.030382	0.000445	4.446913	0.753327	-0.008895
1956	9.7750e-01	0.4452	-12.101368	0.000710	7.097957	1.202426	-0.014197
1957	9.7800e-01	0.4376	-12.151400	0.000500	5.002777	0.847493	-0.010006
1958	9.7850e-01	0.4245	-12.205708	0.000543	5.430365	0.919929	-0.010862
1959	9.7900e-01	0.4129	-12.256596	0.000509	5.088294	0.861980	-0.010177
1960	9.7950e-01	0.4054	-12.296365	0.000398	3.976566	0.673649	-0.007954
1961	9.8000e-01	0.3974	-12.375903	0.000795	7.953132	1.347297	-0.015908
1962	9.8050e-01	0.3860	-12.410968	0.000351	3.506220	0.593970	-0.007013
1963	9.8100e-01	0.3769	-12.489651	0.000787	7.867615	1.332810	-0.015737
1964	9.8150e-01	0.3662	-12.528138	0.000385	3.848290	0.651918	-0.007697
1965	9.8200e-01	0.3548	-12.594847	0.000667	6.670369	1.129991	-0.013342
1966	9.8250e-01	0.3464	-12.646590	0.000517	5.173812	0.876467	-0.010349
1967	9.8300e-01	0.3354	-12.694484	0.000479	4.788983	0.811276	-0.009579
1968	9.8350e-01	0.3259	-12.743661	0.000492	4.917259	0.833006	-0.009835
1969	9.8400e-01	0.3151	-12.803956	0.000603	6.028987	1.021338	-0.012059
1970	9.8450e-01	0.3037	-12.862968	0.000590	5.900711	0.999608	-0.011802
1971	9.8500e-01	0.2982	-12.930961	0.000680	6.798645	1.151722	-0.013598
1972	9.8550e-01	0.2814	-12.952770	0.000218	2.180698	0.369420	-0.004362
1973	9.8600e-01	0.2725	-13.032735	0.000800	7.995891	1.354541	-0.015993
1974	9.8650e-01	0.2684	-13.083195	0.000505	5.045536	0.854737	-0.010092
1975	9.8700e-01	0.2533	-13.135366	0.000522	5.216571	0.883711	-0.010434
1976	9.8750e-01	0.2425	-13.184970	0.000496	4.960018	0.840250	-0.009921
1977	9.8800e-01	0.2355	-13.253818	0.000688	6.884163	1.166209	-0.013770
1978	9.8850e-01	0.2250	-13.317534	0.000637	6.371058	1.079286	-0.012743
1979	9.8900e-01	0.2164	-13.349606	0.000321	3.206908	0.543265	-0.006414
1980	9.8950e-01	0.2043	-13.424868	0.000753	7.525545	1.274862	-0.015052
1981	9.9000e-01	0.1974	-13.466775	0.000419	4.190360	0.709866	-0.008381
1982	9.9050e-01	0.1853	-13.526643	0.000599	5.986229	1.014095	-0.011974
1983	9.9100e-01	0.1735	-13.593352	0.000667	6.670369	1.129991	-0.013342
1984	9.9150e-01	0.1655	-13.639963	0.000466	4.660707	0.789545	-0.009322
1985	9.9200e-01	0.1547	-13.694272	0.000543	5.430365	0.919929	-0.010862
1986	9.9250e-01	0.1444	-13.759271	0.000650	6.499334	1.101017	-0.013000
1987	9.9300e-01	0.1346	-13.832395	0.000731	7.311751	1.238644	-0.014625
1988	9.9350e-01	0.1270	-13.870026	0.000376	3.762772	0.637431	-0.007526
1989	9.9400e-01	0.1183	-13.922196	0.000522	5.216571	0.883711	-0.010434
1990	9.9450e-01	0.1041	-13.985912	0.000637	6.371058	1.079286	-0.012743
1991	9.9500e-01	0.0919	-14.033806	0.000479	4.788983	0.811276	-0.009579
1992	9.9550e-01	0.0842	-14.097950	0.000641	6.413816	1.086530	-0.012829
1993	9.9600e-01	0.0761	-14.128311	0.000304	3.035873	0.514291	-0.006072
1994	9.9650e-01	0.0665	-14.218968	0.000906	9.064860	1.535629	-0.018131
1995	9.9700e-01	0.0544	-14.269000	0.000500	5.002777	0.847493	-0.010006
1996	9.9750e-01	0.0439	-14.310052	0.000410	4.104842	0.695379	-0.008210
1997	9.9800e-01	0.0380	-14.378900	0.000688	6.884163	1.166209	-0.013770
1998	9.9850e-01	0.0253	-14.449458	0.000706	7.055198	1.195183	-0.014112
1999	9.9900e-01	0.0163	-14.477254	0.000278	2.779320	0.470830	-0.005559
2000	9.9950e-01	0.0056	-14.552516	0.000753	7.525545	1.274862	-0.015052
2001	1.0000e+00	-0.0056	-14.611100	0.000753	7.525545	1.274862	-0.011717

PMax (uC/cm2):	4.12e+01
Pr (uC/cm2):	6.02e+00
-Pr (uC/cm2):	0.00e+00
PLoss (uC/cm2):	0.00e+00
C (Max-Eff) (nF):	4.13e-01
K (Eff):	6.99e+02
Vert. (+/-Pr) Shift (uC/cm2):	3.01e+00
Offset (uC/cm2):	2.06e+01

A (Loop Area - uC/cm2·Volts):	-5.15e-02



Hysteresis Version: 5.48.1 - Radiant Technologies, Inc., 1999 - 9/12/24

