»»»»»»»»»»»»»»»»»»»»»»»»»»»»»»»»»»»» Hysteresis ««««««««««««««««««««««««««««««««««««
»»»  Executed Version:	5.48.1
»»»  Vision Version:	5.48.4 (R)
»»»  Vision Compiled:	9/18/24
»»»  Driver Version:	5.47.0
»»»  Windows Version:	Windows 8 or 8.1
»»»  Processor Information:	x86 (AMD or Intel) - 32 Processors
»»»  Tester Name:	PMF21124-494 (100V)
»»»  Tester S/N:	PMF21124-494
»»»  Internal Amp Type:	100V RevK 270k
»»»  Internal Amp S/N:	iAB2-596/K     
»»»  Execution Count:	1
»»»»»»»»»»»»»»»»»»»»»»»»»»»»»»»»»»»»»»»»»»««««««««««««««««««««««««««««««««««««««««««

Stored:	6/30/2025 - 18:7:16
Configured:	06/30/25 10:19:58 AM
Executed:	06/30/25 06:06:22 PM

»»»»»»»»»»»»»»»»»»»»»»»»»»»»»»»»»»» Sample Info ««««««««««««««««««««««««««««««««««««
Sample Name:	
Lot Name:	
Wafer Name:	
Die Row/Column:	0/0
Capacitor Number:	0
Sample Area (cm2):	1.00e-04
Sample Thickness (microns):	1.50e-01

Amplifier:	Internal

»»»»»»»»»»»»»»»»»»»»»»»»»»»»»»»»»»» Tester Info «««««««««««««««««««««««««««««««««««
Tester Name:	PMF21124-494 (100V)
Tester Serial Number:	PMF21124-494
Return Signal Amp. Level:	1.79 [Index: 2]

»»»»»»»»»»»»»»»»»»»»»»»»»»»»»»»» Hysteresis Info ««««««««««««««««««««««««««««««««««
Task Name:	Hyst-1804
Volts:	10.00
Field:	666.67 (kV/cm)
DCBias:	0.00
DCField:	0.00 (kV/cm)
Hysteresis Period (ms):	1.00e+00
Preset:	Enabled
Preset Delay (ms):	1.00e+03
Profile:	Standard Monopolar

»»»»»»»»»»»»»»»»»»»»»»»»»»»»»»»»»»»»»» Data «««««««««««««««««««««««««««««««««««««««
Points:	2001

Valid Data

Point	Time (ms)	Drive Voltage	Measured Polarization (uC/cm2)	Capacitance (uF)	Normalized Capacitance (uF/cm2)	Dielectric Constant	Instantaneous Current (mA)
   1	0.0000e+00	-0.0033	-22.183703	0.000569	5.685963	0.963228	0.011375
   2	5.0000e-04	0.0061	-22.126828	0.000569	5.685963	0.963228	0.011375
   3	1.0000e-03	0.0160	-22.084493	0.000423	4.232408	0.716989	0.008467
   4	1.5000e-03	0.0231	-22.033178	0.000513	5.130192	0.869078	0.010263
   5	2.0000e-03	0.0372	-21.955351	0.000778	7.780791	1.318102	0.015566
   6	2.5000e-03	0.0459	-21.927555	0.000278	2.778854	0.470751	0.005559
   7	3.0000e-03	0.0555	-21.868970	0.000586	5.856969	0.992197	0.011717
   8	3.5000e-03	0.0636	-21.821504	0.000475	4.745428	0.803897	0.009493
   9	4.0000e-03	0.0756	-21.745387	0.000761	7.609785	1.289132	0.015223
  10	4.5000e-03	0.0880	-21.701341	0.000440	4.403415	0.745959	0.008809
  11	5.0000e-03	0.0960	-21.659434	0.000419	4.189657	0.709747	0.008381
  12	5.5000e-03	0.1048	-21.590159	0.000693	6.925759	1.173255	0.013855
  13	6.0000e-03	0.1151	-21.556376	0.000338	3.377376	0.572143	0.006756
  14	6.5000e-03	0.1269	-21.481969	0.000744	7.438779	1.260163	0.014881
  15	7.0000e-03	0.1329	-21.434503	0.000475	4.745428	0.803897	0.009493
  16	7.5000e-03	0.1449	-21.390458	0.000440	4.403415	0.745959	0.008809
  17	8.0000e-03	0.1575	-21.307926	0.000825	8.251059	1.397767	0.016506
  18	8.5000e-03	0.1643	-21.265591	0.000423	4.232408	0.716989	0.008467
  19	9.0000e-03	0.1756	-21.220263	0.000453	4.531670	0.767686	0.009066
  20	9.5000e-03	0.1843	-21.170231	0.000500	5.001937	0.847351	0.010006
  21	1.0000e-02	0.1954	-21.090265	0.000799	7.994549	1.354313	0.015993
  22	1.0500e-02	0.2075	-21.054772	0.000355	3.548383	0.601112	0.007099
  23	1.1000e-02	0.2148	-21.015430	0.000393	3.933147	0.666293	0.007868
  24	1.1500e-02	0.2251	-20.927767	0.000876	8.764078	1.484675	0.017533
  25	1.2000e-02	0.2382	-20.891847	0.000359	3.591134	0.608355	0.007184
  26	1.2500e-02	0.2441	-20.840959	0.000509	5.087440	0.861836	0.010177
  27	1.3000e-02	0.2576	-20.786223	0.000547	5.472205	0.927017	0.010947
  28	1.3500e-02	0.2634	-20.721652	0.000646	6.455492	1.093590	0.012914
  29	1.4000e-02	0.2734	-20.668199	0.000534	5.343950	0.905290	0.010691
  30	1.4500e-02	0.2856	-20.632278	0.000359	3.591134	0.608355	0.007184
  31	1.5000e-02	0.2982	-20.585667	0.000466	4.659924	0.789413	0.009322
  32	1.5500e-02	0.3049	-20.524089	0.000616	6.156231	1.042894	0.012316
  33	1.6000e-02	0.3167	-20.472346	0.000517	5.172944	0.876320	0.010349
  34	1.6500e-02	0.3246	-20.397084	0.000752	7.524282	1.274648	0.015052
  35	1.7000e-02	0.3350	-20.354749	0.000423	4.232408	0.716989	0.008467
  36	1.7500e-02	0.3444	-20.297020	0.000577	5.771466	0.977713	0.011546
  37	1.8000e-02	0.3560	-20.230738	0.000663	6.626498	1.122559	0.013256
  38	1.8500e-02	0.3626	-20.177712	0.000530	5.301199	0.898047	0.010605
  39	1.9000e-02	0.3771	-20.124687	0.000530	5.301199	0.898047	0.010605
  40	1.9500e-02	0.3873	-20.079786	0.000449	4.488918	0.760443	0.008980
  41	2.0000e-02	0.3962	-20.020774	0.000590	5.899721	0.999440	0.011802
  42	2.0500e-02	0.4045	-19.966466	0.000543	5.429453	0.919774	0.010862
  43	2.1000e-02	0.4138	-19.918999	0.000475	4.745428	0.803897	0.009493
  44	2.1500e-02	0.4267	-19.871533	0.000475	4.745428	0.803897	0.009493
  45	2.2000e-02	0.4359	-19.812520	0.000590	5.899721	0.999440	0.011802
  46	2.2500e-02	0.4462	-19.765054	0.000475	4.745428	0.803897	0.009493
  47	2.3000e-02	0.4537	-19.729133	0.000359	3.591134	0.608355	0.007184
  48	2.3500e-02	0.4684	-19.654299	0.000748	7.481530	1.267406	0.014967
  49	2.4000e-02	0.4751	-19.615813	0.000385	3.847644	0.651809	0.007697
  50	2.4500e-02	0.4861	-19.541834	0.000740	7.396027	1.252921	0.014796
  51	2.5000e-02	0.4969	-19.499071	0.000428	4.275160	0.724232	0.008553
  52	2.5500e-02	0.5061	-19.428513	0.000705	7.054014	1.194982	0.014112
  53	2.6000e-02	0.5199	-19.407987	0.000205	2.052077	0.347631	0.004105
  54	2.6500e-02	0.5237	-19.316903	0.000911	9.106091	1.542614	0.018217
  55	2.7000e-02	0.5372	-19.268581	0.000483	4.830931	0.818382	0.009664
  56	2.7500e-02	0.5460	-19.210424	0.000581	5.814218	0.984955	0.011631
  57	2.8000e-02	0.5562	-19.176642	0.000338	3.377376	0.572143	0.006756
  58	2.8500e-02	0.5645	-19.105656	0.000710	7.096766	1.202225	0.014197
  59	2.9000e-02	0.5764	-19.045361	0.000603	6.027976	1.021167	0.012059
  60	2.9500e-02	0.5849	-19.009013	0.000363	3.633886	0.615597	0.007270
  61	3.0000e-02	0.5977	-18.956842	0.000522	5.215695	0.883563	0.010434
  62	3.0500e-02	0.6058	-18.896119	0.000607	6.070727	1.028409	0.012145
  63	3.1000e-02	0.6214	-18.855495	0.000406	4.061402	0.688020	0.008125
  64	3.1500e-02	0.6252	-18.813160	0.000423	4.232408	0.716989	0.008467
  65	3.2000e-02	0.6360	-18.729346	0.000838	8.379314	1.419494	0.016763
  66	3.2500e-02	0.6451	-18.672044	0.000573	5.728715	0.970471	0.011460
  67	3.3000e-02	0.6567	-18.642538	0.000295	2.949860	0.499720	0.005901
  68	3.3500e-02	0.6660	-18.571979	0.000705	7.054014	1.194982	0.014112
  69	3.4000e-02	0.6757	-18.505698	0.000663	6.626498	1.122559	0.013256
  70	3.4500e-02	0.6849	-18.476619	0.000291	2.907109	0.492478	0.005816
  71	3.5000e-02	0.6949	-18.406489	0.000701	7.011263	1.187740	0.014026
  72	3.5500e-02	0.7071	-18.359450	0.000470	4.702676	0.796655	0.009408
  73	3.6000e-02	0.7113	-18.314121	0.000453	4.531670	0.767686	0.009066
  74	3.6500e-02	0.7251	-18.249122	0.000650	6.498243	1.100832	0.013000
  75	3.7000e-02	0.7349	-18.185834	0.000633	6.327237	1.071863	0.012658
  76	3.7500e-02	0.7489	-18.158466	0.000274	2.736102	0.463508	0.005474
  77	3.8000e-02	0.7572	-18.091756	0.000667	6.669250	1.129801	0.013342
  78	3.8500e-02	0.7660	-18.048994	0.000428	4.275160	0.724232	0.008553
  79	3.9000e-02	0.7794	-17.999389	0.000496	4.959186	0.840109	0.009921
  80	3.9500e-02	0.7861	-17.932680	0.000667	6.669250	1.129801	0.013342
  81	4.0000e-02	0.7979	-17.889062	0.000436	4.360663	0.738716	0.008724
  82	4.0500e-02	0.8063	-17.837319	0.000517	5.172944	0.876320	0.010349
  83	4.1000e-02	0.8148	-17.789853	0.000475	4.745428	0.803897	0.009493
  84	4.1500e-02	0.8260	-17.724854	0.000650	6.498243	1.100832	0.013000
  85	4.2000e-02	0.8358	-17.681664	0.000432	4.317912	0.731474	0.008638
  86	4.2500e-02	0.8481	-17.629066	0.000526	5.258447	0.890805	0.010520
  87	4.3000e-02	0.8552	-17.560646	0.000684	6.840256	1.158771	0.013684
  88	4.3500e-02	0.8652	-17.525580	0.000351	3.505631	0.593870	0.007013
  89	4.4000e-02	0.8767	-17.452029	0.000735	7.353275	1.245679	0.014710
  90	4.4500e-02	0.8865	-17.402852	0.000492	4.916434	0.832866	0.009835
  91	4.5000e-02	0.8960	-17.345978	0.000569	5.685963	0.963228	0.011375
  92	4.5500e-02	0.9058	-17.301077	0.000449	4.488918	0.760443	0.008980
  93	4.6000e-02	0.9127	-17.265157	0.000359	3.591134	0.608355	0.007184
  94	4.6500e-02	0.9278	-17.202296	0.000628	6.284485	1.064621	0.012572
  95	4.7000e-02	0.9367	-17.133448	0.000688	6.883008	1.166013	0.013770
  96	4.7500e-02	0.9462	-17.086837	0.000466	4.659924	0.789413	0.009322
  97	4.8000e-02	0.9568	-17.042792	0.000440	4.403415	0.745959	0.008809
  98	4.8500e-02	0.9653	-16.993187	0.000496	4.959186	0.840109	0.009921
  99	4.9000e-02	0.9758	-16.933319	0.000599	5.985224	1.013924	0.011974
 100	4.9500e-02	0.9846	-16.869603	0.000637	6.369989	1.079105	0.012743
 101	5.0000e-02	0.9967	-16.817861	0.000517	5.172944	0.876320	0.010349
 102	5.0500e-02	1.0072	-16.751151	0.000667	6.669250	1.129801	0.013342
 103	5.1000e-02	1.0154	-16.719934	0.000312	3.120867	0.528689	0.006243
 104	5.1500e-02	1.0239	-16.658784	0.000611	6.113479	1.035651	0.012230
 105	5.2000e-02	1.0371	-16.622008	0.000368	3.676638	0.622839	0.007355
 106	5.2500e-02	1.0502	-16.564706	0.000573	5.728715	0.970471	0.011460
 107	5.3000e-02	1.0549	-16.505694	0.000590	5.899721	0.999440	0.011802
 108	5.3500e-02	1.0660	-16.452241	0.000534	5.343950	0.905290	0.010691
 109	5.4000e-02	1.0764	-16.394084	0.000581	5.814218	0.984955	0.011631
 110	5.4500e-02	1.0861	-16.327802	0.000663	6.626498	1.122559	0.013256
 111	5.5000e-02	1.0969	-16.286322	0.000415	4.146905	0.702505	0.008296
 112	5.5500e-02	1.1089	-16.240994	0.000453	4.531670	0.767686	0.009066
 113	5.6000e-02	1.1161	-16.195238	0.000457	4.574421	0.774928	0.009151
 114	5.6500e-02	1.1251	-16.110996	0.000842	8.422065	1.426736	0.016848
 115	5.7000e-02	1.1374	-16.075503	0.000355	3.548383	0.601112	0.007099
 116	5.7500e-02	1.1456	-16.028464	0.000470	4.702676	0.796655	0.009408
 117	5.8000e-02	1.1543	-15.966031	0.000624	6.241734	1.057378	0.012487
 118	5.8500e-02	1.1677	-15.943795	0.000222	2.223083	0.376600	0.004447
 119	5.9000e-02	1.1765	-15.863829	0.000799	7.994549	1.354313	0.015993
 120	5.9500e-02	1.1879	-15.830901	0.000329	3.291873	0.557658	0.006585
 121	6.0000e-02	1.1972	-15.750508	0.000804	8.037301	1.361556	0.016079
 122	6.0500e-02	1.2066	-15.721857	0.000286	2.864357	0.485235	0.005730
 123	6.1000e-02	1.2180	-15.665410	0.000564	5.643211	0.955986	0.011289
 124	6.1500e-02	1.2244	-15.576464	0.000889	8.892333	1.506402	0.017789
 125	6.2000e-02	1.2356	-15.544393	0.000321	3.206370	0.543174	0.006414
 126	6.2500e-02	1.2478	-15.511465	0.000329	3.291873	0.557658	0.006585
 127	6.3000e-02	1.2558	-15.440907	0.000705	7.054014	1.194982	0.014112
 128	6.3500e-02	1.2686	-15.378046	0.000628	6.284485	1.064621	0.012572
 129	6.4000e-02	1.2744	-15.333573	0.000445	4.446166	0.753201	0.008895
 130	6.4500e-02	1.2846	-15.292949	0.000406	4.061402	0.688020	0.008125
 131	6.5000e-02	1.2964	-15.235647	0.000573	5.728715	0.970471	0.011460
 132	6.5500e-02	1.3058	-15.214693	0.000209	2.094828	0.354874	0.004191
 133	6.6000e-02	1.3178	-15.136866	0.000778	7.780791	1.318102	0.015566
 134	6.6500e-02	1.3255	-15.085978	0.000509	5.087440	0.861836	0.010177
 135	6.7000e-02	1.3387	-15.026966	0.000590	5.899721	0.999440	0.011802
 136	6.7500e-02	1.3453	-14.989763	0.000372	3.719389	0.630082	0.007441
 137	6.8000e-02	1.3553	-14.941441	0.000483	4.830931	0.818382	0.009664
 138	6.8500e-02	1.3676	-14.863613	0.000778	7.780791	1.318102	0.015566
 139	6.9000e-02	1.3789	-14.825982	0.000376	3.762141	0.637324	0.007526
 140	6.9500e-02	1.3869	-14.762266	0.000637	6.369989	1.079105	0.012743
 141	7.0000e-02	1.3936	-14.702826	0.000594	5.942473	1.006682	0.011888
 142	7.0500e-02	1.4056	-14.657925	0.000449	4.488918	0.760443	0.008980
 143	7.1000e-02	1.4137	-14.608748	0.000492	4.916434	0.832866	0.009835
 144	7.1500e-02	1.4286	-14.556578	0.000522	5.215695	0.883563	0.010434
 145	7.2000e-02	1.4372	-14.508684	0.000479	4.788179	0.811140	0.009579
 146	7.2500e-02	1.4450	-14.448817	0.000599	5.985224	1.013924	0.011974
 147	7.3000e-02	1.4552	-14.419738	0.000291	2.907109	0.492478	0.005816
 148	7.3500e-02	1.4691	-14.345331	0.000744	7.438779	1.260163	0.014881
 149	7.4000e-02	1.4749	-14.299148	0.000462	4.617173	0.782170	0.009237
 150	7.4500e-02	1.4847	-14.245267	0.000539	5.386702	0.912532	0.010776
 151	7.5000e-02	1.4949	-14.168294	0.000770	7.695288	1.303617	0.015395
 152	7.5500e-02	1.5063	-14.143065	0.000252	2.522344	0.427297	0.005046
 153	7.6000e-02	1.5174	-14.088328	0.000547	5.472205	0.927017	0.010947
 154	7.6500e-02	1.5273	-14.047276	0.000410	4.104154	0.695262	0.008210
 155	7.7000e-02	1.5361	-13.991258	0.000560	5.600460	0.948744	0.011204
 156	7.7500e-02	1.5451	-13.941653	0.000496	4.959186	0.840109	0.009921
 157	7.8000e-02	1.5592	-13.896325	0.000453	4.531670	0.767686	0.009066
 158	7.8500e-02	1.5656	-13.817214	0.000791	7.909046	1.339829	0.015822
 159	7.9000e-02	1.5755	-13.785997	0.000312	3.120867	0.528689	0.006243
 160	7.9500e-02	1.5829	-13.720571	0.000654	6.540995	1.108075	0.013085
 161	8.0000e-02	1.5955	-13.664124	0.000564	5.643211	0.955986	0.011289
 162	8.0500e-02	1.6058	-13.620506	0.000436	4.360663	0.738716	0.008724
 163	8.1000e-02	1.6159	-13.554652	0.000658	6.583747	1.115317	0.013171
 164	8.1500e-02	1.6260	-13.517449	0.000372	3.719389	0.630082	0.007441
 165	8.2000e-02	1.6369	-13.446891	0.000705	7.054014	1.194982	0.014112
 166	8.2500e-02	1.6452	-13.419950	0.000269	2.693351	0.456266	0.005388
 167	8.3000e-02	1.6600	-13.380609	0.000393	3.933147	0.666293	0.007868
 168	8.3500e-02	1.6656	-13.313044	0.000675	6.754753	1.144286	0.013513
 169	8.4000e-02	1.6756	-13.265150	0.000479	4.788179	0.811140	0.009579
 170	8.4500e-02	1.6875	-13.206138	0.000590	5.899721	0.999440	0.011802
 171	8.5000e-02	1.6959	-13.149263	0.000569	5.685963	0.963228	0.011375
 172	8.5500e-02	1.7073	-13.119330	0.000299	2.992612	0.506962	0.005987
 173	8.6000e-02	1.7139	-13.056896	0.000624	6.241734	1.057378	0.012487
 174	8.6500e-02	1.7252	-13.007719	0.000492	4.916434	0.832866	0.009835
 175	8.7000e-02	1.7358	-12.967095	0.000406	4.061402	0.688020	0.008125
 176	8.7500e-02	1.7463	-12.915352	0.000517	5.172944	0.876320	0.010349
 177	8.8000e-02	1.7552	-12.858478	0.000569	5.685963	0.963228	0.011375
 178	8.8500e-02	1.7667	-12.793052	0.000654	6.540995	1.108075	0.013085
 179	8.9000e-02	1.7772	-12.760980	0.000321	3.206370	0.543174	0.006414
 180	8.9500e-02	1.7868	-12.695125	0.000658	6.583747	1.115317	0.013171
 181	9.0000e-02	1.7990	-12.652790	0.000423	4.232408	0.716989	0.008467
 182	9.0500e-02	1.8039	-12.577956	0.000748	7.481530	1.267406	0.014967
 183	9.1000e-02	1.8172	-12.536049	0.000419	4.189657	0.709747	0.008381
 184	9.1500e-02	1.8268	-12.511674	0.000244	2.436841	0.412812	0.004875
 185	9.2000e-02	1.8374	-12.444965	0.000667	6.669250	1.129801	0.013342
 186	9.2500e-02	1.8436	-12.399636	0.000453	4.531670	0.767686	0.009066
 187	9.3000e-02	1.8556	-12.336775	0.000628	6.284485	1.064621	0.012572
 188	9.3500e-02	1.8668	-12.292730	0.000440	4.403415	0.745959	0.008809
 189	9.4000e-02	1.8756	-12.234573	0.000581	5.814218	0.984955	0.011631
 190	9.4500e-02	1.8867	-12.188817	0.000457	4.574421	0.774928	0.009151
 191	9.5000e-02	1.8985	-12.150331	0.000385	3.847644	0.651809	0.007697
 192	9.5500e-02	1.9068	-12.075496	0.000748	7.481530	1.267406	0.014967
 193	9.6000e-02	1.9137	-12.023326	0.000522	5.215695	0.883563	0.010434
 194	9.6500e-02	1.9269	-11.987833	0.000355	3.548383	0.601112	0.007099
 195	9.7000e-02	1.9345	-11.936090	0.000517	5.172944	0.876320	0.010349
 196	9.7500e-02	1.9452	-11.888624	0.000475	4.745428	0.803897	0.009493
 197	9.8000e-02	1.9545	-11.826191	0.000624	6.241734	1.057378	0.012487
 198	9.8500e-02	1.9647	-11.800106	0.000261	2.607848	0.441781	0.005217
 199	9.9000e-02	1.9745	-11.733396	0.000667	6.669250	1.129801	0.013342
 200	9.9500e-02	1.9858	-11.660700	0.000727	7.267772	1.231194	0.014539
 201	1.0000e-01	1.9958	-11.636325	0.000244	2.436841	0.412812	0.004875
 202	1.0050e-01	2.0076	-11.581589	0.000547	5.472205	0.927017	0.010947
 203	1.0100e-01	2.0154	-11.534123	0.000475	4.745428	0.803897	0.009493
 204	1.0150e-01	2.0271	-11.476393	0.000577	5.771466	0.977713	0.011546
 205	1.0200e-01	2.0360	-11.410967	0.000654	6.540995	1.108075	0.013085
 206	1.0250e-01	2.0473	-11.371625	0.000393	3.933147	0.666293	0.007868
 207	1.0300e-01	2.0564	-11.328435	0.000432	4.317912	0.731474	0.008638
 208	1.0350e-01	2.0660	-11.290376	0.000380	3.804892	0.644566	0.007612
 209	1.0400e-01	2.0746	-11.238206	0.000522	5.215695	0.883563	0.010434
 210	1.0450e-01	2.0880	-11.183042	0.000551	5.514957	0.934259	0.011033
 211	1.0500e-01	2.0972	-11.130017	0.000530	5.301199	0.898047	0.010605
 212	1.0550e-01	2.1074	-11.075708	0.000543	5.429453	0.919774	0.010862
 213	1.0600e-01	2.1170	-11.048768	0.000269	2.693351	0.456266	0.005388
 214	1.0650e-01	2.1255	-10.967947	0.000808	8.080053	1.368798	0.016164
 215	1.0700e-01	2.1390	-10.900382	0.000675	6.754753	1.144286	0.013513
 216	1.0750e-01	2.1450	-10.889264	0.000111	1.111542	0.188300	0.002224
 217	1.0800e-01	2.1561	-10.845218	0.000440	4.403415	0.745959	0.008809
 218	1.0850e-01	2.1649	-10.773377	0.000718	7.182269	1.216709	0.014368
 219	1.0900e-01	2.1765	-10.723773	0.000496	4.959186	0.840109	0.009921
 220	1.0950e-01	2.1847	-10.674596	0.000492	4.916434	0.832866	0.009835
 221	1.1000e-01	2.1954	-10.608742	0.000658	6.583747	1.115317	0.013171
 222	1.1050e-01	2.2091	-10.563413	0.000453	4.531670	0.767686	0.009066
 223	1.1100e-01	2.2153	-10.544170	0.000192	1.923822	0.325904	0.003849
 224	1.1150e-01	2.2266	-10.471902	0.000723	7.225021	1.223952	0.014454
 225	1.1200e-01	2.2336	-10.421442	0.000504	5.044689	0.854593	0.010092
 226	1.1250e-01	2.2444	-10.377396	0.000440	4.403415	0.745959	0.008809
 227	1.1300e-01	2.2559	-10.314108	0.000633	6.327237	1.071863	0.012658
 228	1.1350e-01	2.2687	-10.285885	0.000282	2.821606	0.477993	0.005645
 229	1.1400e-01	2.2780	-10.234997	0.000509	5.087440	0.861836	0.010177
 230	1.1450e-01	2.2845	-10.175130	0.000599	5.985224	1.013924	0.011974
 231	1.1500e-01	2.2971	-10.122104	0.000530	5.301199	0.898047	0.010605
 232	1.1550e-01	2.3051	-10.077203	0.000449	4.488918	0.760443	0.008980
 233	1.1600e-01	2.3180	-10.032730	0.000445	4.446166	0.753201	0.008895
 234	1.1650e-01	2.3250	-9.970297	0.000624	6.241734	1.057378	0.012487
 235	1.1700e-01	2.3364	-9.927962	0.000423	4.232408	0.716989	0.008467
 236	1.1750e-01	2.3485	-9.881351	0.000466	4.659924	0.789413	0.009322
 237	1.1800e-01	2.3548	-9.836023	0.000453	4.531670	0.767686	0.009066
 238	1.1850e-01	2.3683	-9.776155	0.000599	5.985224	1.013924	0.011974
 239	1.1900e-01	2.3783	-9.710729	0.000654	6.540995	1.108075	0.013085
 240	1.1950e-01	2.3847	-9.667966	0.000428	4.275160	0.724232	0.008553
 241	1.2000e-01	2.3961	-9.644874	0.000231	2.308586	0.391085	0.004618
 242	1.2050e-01	2.4069	-9.602967	0.000419	4.189657	0.709747	0.008381
 243	1.2100e-01	2.4174	-9.534547	0.000684	6.840256	1.158771	0.013684
 244	1.2150e-01	2.4283	-9.480239	0.000543	5.429453	0.919774	0.010862
 245	1.2200e-01	2.4388	-9.455009	0.000252	2.522344	0.427297	0.005046
 246	1.2250e-01	2.4461	-9.381457	0.000735	7.353275	1.245679	0.014710
 247	1.2300e-01	2.4567	-9.332708	0.000487	4.873682	0.825624	0.009750
 248	1.2350e-01	2.4637	-9.293794	0.000389	3.890396	0.659051	0.007783
 249	1.2400e-01	2.4747	-9.234782	0.000590	5.899721	0.999440	0.011802
 250	1.2450e-01	2.4843	-9.188598	0.000462	4.617173	0.782170	0.009237
 251	1.2500e-01	2.4951	-9.157809	0.000308	3.078115	0.521447	0.006158
 252	1.2550e-01	2.5077	-9.088534	0.000693	6.925759	1.173255	0.013855
 253	1.2600e-01	2.5147	-9.046626	0.000419	4.189657	0.709747	0.008381
 254	1.2650e-01	2.5269	-8.996167	0.000504	5.044689	0.854593	0.010092
 255	1.2700e-01	2.5355	-8.950838	0.000453	4.531670	0.767686	0.009066
 256	1.2750e-01	2.5435	-8.898668	0.000522	5.215695	0.883563	0.010434
 257	1.2800e-01	2.5555	-8.851629	0.000470	4.702676	0.796655	0.009408
 258	1.2850e-01	2.5676	-8.794328	0.000573	5.728715	0.970471	0.011460
 259	1.2900e-01	2.5758	-8.723769	0.000705	7.054014	1.194982	0.014112
 260	1.2950e-01	2.5844	-8.684428	0.000393	3.933147	0.666293	0.007868
 261	1.3000e-01	2.5983	-8.637389	0.000470	4.702676	0.796655	0.009408
 262	1.3050e-01	2.6045	-8.598475	0.000389	3.890396	0.659051	0.007783
 263	1.3100e-01	2.6187	-8.556140	0.000423	4.232408	0.716989	0.008467
 264	1.3150e-01	2.6247	-8.503115	0.000530	5.301199	0.898047	0.010605
 265	1.3200e-01	2.6373	-8.460780	0.000423	4.232408	0.716989	0.008467
 266	1.3250e-01	2.6465	-8.405616	0.000551	5.514957	0.934259	0.011033
 267	1.3300e-01	2.6610	-8.373972	0.000316	3.163618	0.535931	0.006329
 268	1.3350e-01	2.6669	-8.307262	0.000667	6.669250	1.129801	0.013342
 269	1.3400e-01	2.6759	-8.248250	0.000590	5.899721	0.999440	0.011802
 270	1.3450e-01	2.6862	-8.213612	0.000346	3.462880	0.586628	0.006928
 271	1.3500e-01	2.6973	-8.172133	0.000415	4.146905	0.702505	0.008296
 272	1.3550e-01	2.7029	-8.116542	0.000556	5.557708	0.941501	0.011118
 273	1.3600e-01	2.7133	-8.074634	0.000419	4.189657	0.709747	0.008381
 274	1.3650e-01	2.7278	-8.015194	0.000594	5.942473	1.006682	0.011888
 275	1.3700e-01	2.7338	-7.979274	0.000359	3.591134	0.608355	0.007184
 276	1.3750e-01	2.7496	-7.937367	0.000419	4.189657	0.709747	0.008381
 277	1.3800e-01	2.7573	-7.884769	0.000526	5.258447	0.890805	0.010520
 278	1.3850e-01	2.7665	-7.838585	0.000462	4.617173	0.782170	0.009237
 279	1.3900e-01	2.7765	-7.786415	0.000522	5.215695	0.883563	0.010434
 280	1.3950e-01	2.7863	-7.735100	0.000513	5.130192	0.869078	0.010263
 281	1.4000e-01	2.7969	-7.687206	0.000479	4.788179	0.811140	0.009579
 282	1.4050e-01	2.8046	-7.632042	0.000551	5.514957	0.934259	0.011033
 283	1.4100e-01	2.8174	-7.592701	0.000393	3.933147	0.666293	0.007868
 284	1.4150e-01	2.8255	-7.543096	0.000496	4.959186	0.840109	0.009921
 285	1.4200e-01	2.8362	-7.500761	0.000423	4.232408	0.716989	0.008467
 286	1.4250e-01	2.8470	-7.443459	0.000573	5.728715	0.970471	0.011460
 287	1.4300e-01	2.8564	-7.411387	0.000321	3.206370	0.543174	0.006414
 288	1.4350e-01	2.8662	-7.358362	0.000530	5.301199	0.898047	0.010605
 289	1.4400e-01	2.8773	-7.309185	0.000492	4.916434	0.832866	0.009835
 290	1.4450e-01	2.8867	-7.251456	0.000577	5.771466	0.977713	0.011546
 291	1.4500e-01	2.8973	-7.193299	0.000581	5.814218	0.984955	0.011631
 292	1.4550e-01	2.9077	-7.168496	0.000248	2.479593	0.420054	0.004960
 293	1.4600e-01	2.9163	-7.125734	0.000428	4.275160	0.724232	0.008553
 294	1.4650e-01	2.9266	-7.069287	0.000564	5.643211	0.955986	0.011289
 295	1.4700e-01	2.9370	-7.043630	0.000257	2.565096	0.434539	0.005132
 296	1.4750e-01	2.9486	-6.981624	0.000620	6.198982	1.050136	0.012401
 297	1.4800e-01	2.9565	-6.918763	0.000628	6.284485	1.064621	0.012572
 298	1.4850e-01	2.9651	-6.886264	0.000325	3.249122	0.550416	0.006500
 299	1.4900e-01	2.9752	-6.839652	0.000466	4.659924	0.789413	0.009322
 300	1.4950e-01	2.9871	-6.777647	0.000620	6.198982	1.050136	0.012401
 301	1.5000e-01	2.9982	-6.744720	0.000329	3.291873	0.557658	0.006585
 302	1.5050e-01	3.0051	-6.693832	0.000509	5.087440	0.861836	0.010177
 303	1.5100e-01	3.0147	-6.632254	0.000616	6.156231	1.042894	0.012316
 304	1.5150e-01	3.0280	-6.600610	0.000316	3.163618	0.535931	0.006329
 305	1.5200e-01	3.0380	-6.570676	0.000299	2.992612	0.506962	0.005987
 306	1.5250e-01	3.0476	-6.503111	0.000675	6.754753	1.144286	0.013513
 307	1.5300e-01	3.0576	-6.440678	0.000624	6.241734	1.057378	0.012487
 308	1.5350e-01	3.0655	-6.418014	0.000227	2.265835	0.383843	0.004533
 309	1.5400e-01	3.0742	-6.361995	0.000560	5.600460	0.948744	0.011204
 310	1.5450e-01	3.0872	-6.317950	0.000440	4.403415	0.745959	0.008809
 311	1.5500e-01	3.0978	-6.264069	0.000539	5.386702	0.912532	0.010776
 312	1.5550e-01	3.1028	-6.183675	0.000804	8.037301	1.361556	0.016079
 313	1.5600e-01	3.1152	-6.170419	0.000133	1.325300	0.224512	0.002651
 314	1.5650e-01	3.1262	-6.123808	0.000466	4.659924	0.789413	0.009322
 315	1.5700e-01	3.1385	-6.070355	0.000534	5.343950	0.905290	0.010691
 316	1.5750e-01	3.1470	-6.025882	0.000445	4.446166	0.753201	0.008895
 317	1.5800e-01	3.1561	-5.979698	0.000462	4.617173	0.782170	0.009237
 318	1.5850e-01	3.1645	-5.947626	0.000321	3.206370	0.543174	0.006414
 319	1.5900e-01	3.1757	-5.885620	0.000620	6.198982	1.050136	0.012401
 320	1.5950e-01	3.1845	-5.846707	0.000389	3.890396	0.659051	0.007783
 321	1.6000e-01	3.1952	-5.783846	0.000628	6.284485	1.064621	0.012572
 322	1.6050e-01	3.2074	-5.744932	0.000389	3.890396	0.659051	0.007783
 323	1.6100e-01	3.2158	-5.723550	0.000214	2.137580	0.362116	0.004276
 324	1.6150e-01	3.2285	-5.670953	0.000526	5.258447	0.890805	0.010520
 325	1.6200e-01	3.2367	-5.615789	0.000551	5.514957	0.934259	0.011033
 326	1.6250e-01	3.2486	-5.583289	0.000325	3.249122	0.550416	0.006500
 327	1.6300e-01	3.2578	-5.514869	0.000684	6.840256	1.158771	0.013684
 328	1.6350e-01	3.2662	-5.478949	0.000359	3.591134	0.608355	0.007184
 329	1.6400e-01	3.2758	-5.428489	0.000504	5.044689	0.854593	0.010092
 330	1.6450e-01	3.2875	-5.389148	0.000393	3.933147	0.666293	0.007868
 331	1.6500e-01	3.2977	-5.322866	0.000663	6.626498	1.122559	0.013256
 332	1.6550e-01	3.3070	-5.313030	0.000098	0.983287	0.166573	0.001967
 333	1.6600e-01	3.3154	-5.250597	0.000624	6.241734	1.057378	0.012487
 334	1.6650e-01	3.3257	-5.194150	0.000564	5.643211	0.955986	0.011289
 335	1.6700e-01	3.3374	-5.142408	0.000517	5.172944	0.876320	0.010349
 336	1.6750e-01	3.3459	-5.099645	0.000428	4.275160	0.724232	0.008553
 337	1.6800e-01	3.3557	-5.067146	0.000325	3.249122	0.550416	0.006500
 338	1.6850e-01	3.3653	-5.026521	0.000406	4.061402	0.688020	0.008125
 339	1.6900e-01	3.3772	-4.974351	0.000522	5.215695	0.883563	0.010434
 340	1.6950e-01	3.3856	-4.933299	0.000410	4.104154	0.695262	0.008210
 341	1.7000e-01	3.3925	-4.855471	0.000778	7.780791	1.318102	0.015566
 342	1.7050e-01	3.4073	-4.826393	0.000291	2.907109	0.492478	0.005816
 343	1.7100e-01	3.4161	-4.774650	0.000517	5.172944	0.876320	0.010349
 344	1.7150e-01	3.4270	-4.739585	0.000351	3.505631	0.593870	0.007013
 345	1.7200e-01	3.4399	-4.683566	0.000560	5.600460	0.948744	0.011204
 346	1.7250e-01	3.4470	-4.625409	0.000581	5.814218	0.984955	0.011631
 347	1.7300e-01	3.4572	-4.590344	0.000351	3.505631	0.593870	0.007013
 348	1.7350e-01	3.4662	-4.552285	0.000380	3.804892	0.644566	0.007612
 349	1.7400e-01	3.4769	-4.519785	0.000325	3.249122	0.550416	0.006500
 350	1.7450e-01	3.4875	-4.469326	0.000504	5.044689	0.854593	0.010092
 351	1.7500e-01	3.4924	-4.428701	0.000406	4.061402	0.688020	0.008125
 352	1.7550e-01	3.5080	-4.374393	0.000543	5.429453	0.919774	0.010862
 353	1.7600e-01	3.5156	-4.330775	0.000436	4.360663	0.738716	0.008724
 354	1.7650e-01	3.5255	-4.300841	0.000299	2.992612	0.506962	0.005987
 355	1.7700e-01	3.5342	-4.248671	0.000522	5.215695	0.883563	0.010434
 356	1.7750e-01	3.5484	-4.174264	0.000744	7.438779	1.260163	0.014881
 357	1.7800e-01	3.5541	-4.145186	0.000291	2.907109	0.492478	0.005816
 358	1.7850e-01	3.5623	-4.081042	0.000641	6.412740	1.086348	0.012829
 359	1.7900e-01	3.5754	-4.056240	0.000248	2.479593	0.420054	0.004960
 360	1.7950e-01	3.5828	-4.010911	0.000453	4.531670	0.767686	0.009066
 361	1.8000e-01	3.5994	-3.972853	0.000380	3.804892	0.644566	0.007612
 362	1.8050e-01	3.6072	-3.919399	0.000534	5.343950	0.905290	0.010691
 363	1.8100e-01	3.6176	-3.874071	0.000453	4.531670	0.767686	0.009066
 364	1.8150e-01	3.6252	-3.820190	0.000539	5.386702	0.912532	0.010776
 365	1.8200e-01	3.6353	-3.767165	0.000530	5.301199	0.898047	0.010605
 366	1.8250e-01	3.6459	-3.750915	0.000162	1.624561	0.275208	0.003250
 367	1.8300e-01	3.6581	-3.700455	0.000504	5.044689	0.854593	0.010092
 368	1.8350e-01	3.6699	-3.644009	0.000564	5.643211	0.955986	0.011289
 369	1.8400e-01	3.6771	-3.596970	0.000470	4.702676	0.796655	0.009408
 370	1.8450e-01	3.6866	-3.562760	0.000342	3.420128	0.579385	0.006842
 371	1.8500e-01	3.6963	-3.502892	0.000599	5.985224	1.013924	0.011974
 372	1.8550e-01	3.7056	-3.479373	0.000235	2.351338	0.398327	0.004704
 373	1.8600e-01	3.7158	-3.413946	0.000654	6.540995	1.108075	0.013085
 374	1.8650e-01	3.7282	-3.372467	0.000415	4.146905	0.702505	0.008296
 375	1.8700e-01	3.7382	-3.345526	0.000269	2.693351	0.456266	0.005388
 376	1.8750e-01	3.7460	-3.272402	0.000731	7.310524	1.238436	0.014625
 377	1.8800e-01	3.7567	-3.254870	0.000175	1.752816	0.296935	0.003507
 378	1.8850e-01	3.7665	-3.191581	0.000633	6.327237	1.071863	0.012658
 379	1.8900e-01	3.7784	-3.133852	0.000577	5.771466	0.977713	0.011546
 380	1.8950e-01	3.7897	-3.092800	0.000410	4.104154	0.695262	0.008210
 381	1.9000e-01	3.7971	-3.069280	0.000235	2.351338	0.398327	0.004704
 382	1.9050e-01	3.8068	-3.037636	0.000316	3.163618	0.535931	0.006329
 383	1.9100e-01	3.8171	-2.979907	0.000577	5.771466	0.977713	0.011546
 384	1.9150e-01	3.8242	-2.926454	0.000534	5.343950	0.905290	0.010691
 385	1.9200e-01	3.8361	-2.885402	0.000410	4.104154	0.695262	0.008210
 386	1.9250e-01	3.8457	-2.850764	0.000346	3.462880	0.586628	0.006928
 387	1.9300e-01	3.8559	-2.802442	0.000483	4.830931	0.818382	0.009664
 388	1.9350e-01	3.8649	-2.748989	0.000534	5.343950	0.905290	0.010691
 389	1.9400e-01	3.8763	-2.692970	0.000560	5.600460	0.948744	0.011204
 390	1.9450e-01	3.8858	-2.647642	0.000453	4.531670	0.767686	0.009066
 391	1.9500e-01	3.8956	-2.624978	0.000227	2.265835	0.383843	0.004533
 392	1.9550e-01	3.9072	-2.571952	0.000530	5.301199	0.898047	0.010605
 393	1.9600e-01	3.9172	-2.536032	0.000359	3.591134	0.608355	0.007184
 394	1.9650e-01	3.9265	-2.480440	0.000556	5.557708	0.941501	0.011118
 395	1.9700e-01	3.9371	-2.434685	0.000457	4.574421	0.774928	0.009151
 396	1.9750e-01	3.9441	-2.398336	0.000363	3.633886	0.615597	0.007270
 397	1.9800e-01	3.9539	-2.355574	0.000428	4.275160	0.724232	0.008553
 398	1.9850e-01	3.9649	-2.317088	0.000385	3.847644	0.651809	0.007697
 399	1.9900e-01	3.9738	-2.287154	0.000299	2.992612	0.506962	0.005987
 400	1.9950e-01	3.9874	-2.223865	0.000633	6.327237	1.071863	0.012658
 401	2.0000e-01	3.9975	-2.189228	0.000346	3.462880	0.586628	0.006928
 402	2.0050e-01	4.0073	-2.128077	0.000611	6.113479	1.035651	0.012230
 403	2.0100e-01	4.0167	-2.081466	0.000466	4.659924	0.789413	0.009322
 404	2.0150e-01	4.0265	-2.021171	0.000603	6.027976	1.021167	0.012059
 405	2.0200e-01	4.0363	-1.994230	0.000269	2.693351	0.456266	0.005388
 406	2.0250e-01	4.0479	-1.971139	0.000231	2.308586	0.391085	0.004618
 407	2.0300e-01	4.0540	-1.894594	0.000765	7.652537	1.296375	0.015309
 408	2.0350e-01	4.0704	-1.863377	0.000312	3.120867	0.528689	0.006243
 409	2.0400e-01	4.0771	-1.829595	0.000338	3.377376	0.572143	0.006756
 410	2.0450e-01	4.0871	-1.789398	0.000402	4.018650	0.680778	0.008039
 411	2.0500e-01	4.0967	-1.747063	0.000423	4.232408	0.716989	0.008467
 412	2.0550e-01	4.1051	-1.687623	0.000594	5.942473	1.006682	0.011888
 413	2.0600e-01	4.1151	-1.661110	0.000265	2.650599	0.449024	0.005303
 414	2.0650e-01	4.1290	-1.614499	0.000466	4.659924	0.789413	0.009322
 415	2.0700e-01	4.1359	-1.556342	0.000581	5.814218	0.984955	0.011631
 416	2.0750e-01	4.1440	-1.525126	0.000312	3.120867	0.528689	0.006243
 417	2.0800e-01	4.1580	-1.480225	0.000449	4.488918	0.760443	0.008980
 418	2.0850e-01	4.1656	-1.447298	0.000329	3.291873	0.557658	0.006585
 419	2.0900e-01	4.1776	-1.397693	0.000496	4.959186	0.840109	0.009921
 420	2.0950e-01	4.1852	-1.360490	0.000372	3.719389	0.630082	0.007441
 421	2.1000e-01	4.1974	-1.282234	0.000782	7.823543	1.325344	0.015651
 422	2.1050e-01	4.2073	-1.268123	0.000141	1.410803	0.238996	0.002822
 423	2.1100e-01	4.2145	-1.213814	0.000543	5.429453	0.919774	0.010862
 424	2.1150e-01	4.2242	-1.164637	0.000492	4.916434	0.832866	0.009835
 425	2.1200e-01	4.2374	-1.130427	0.000342	3.420128	0.579385	0.006842
 426	2.1250e-01	4.2433	-1.091086	0.000393	3.933147	0.666293	0.007868
 427	2.1300e-01	4.2554	-1.046185	0.000449	4.488918	0.760443	0.008980
 428	2.1350e-01	4.2697	-1.013686	0.000325	3.249122	0.550416	0.006500
 429	2.1400e-01	4.2750	-0.956384	0.000573	5.728715	0.970471	0.011460
 430	2.1450e-01	4.2865	-0.938424	0.000180	1.795567	0.304177	0.003592
 431	2.1500e-01	4.2978	-0.890102	0.000483	4.830931	0.818382	0.009664
 432	2.1550e-01	4.3042	-0.843063	0.000470	4.702676	0.796655	0.009408
 433	2.1600e-01	4.3178	-0.788755	0.000543	5.429453	0.919774	0.010862
 434	2.1650e-01	4.3268	-0.749841	0.000389	3.890396	0.659051	0.007783
 435	2.1700e-01	4.3387	-0.695960	0.000539	5.386702	0.912532	0.010776
 436	2.1750e-01	4.3469	-0.668592	0.000274	2.736102	0.463508	0.005474
 437	2.1800e-01	4.3575	-0.635237	0.000333	3.334625	0.564901	0.006671
 438	2.1850e-01	4.3684	-0.585205	0.000500	5.001937	0.847351	0.010006
 439	2.1900e-01	4.3781	-0.524910	0.000603	6.027976	1.021167	0.012059
 440	2.1950e-01	4.3855	-0.486851	0.000380	3.804892	0.644566	0.007612
 441	2.2000e-01	4.3985	-0.465042	0.000218	2.180332	0.369358	0.004362
 442	2.2050e-01	4.4072	-0.405175	0.000599	5.985224	1.013924	0.011974
 443	2.2100e-01	4.4168	-0.375669	0.000295	2.949860	0.499720	0.005901
 444	2.2150e-01	4.4263	-0.322216	0.000534	5.343950	0.905290	0.010691
 445	2.2200e-01	4.4379	-0.276887	0.000453	4.531670	0.767686	0.009066
 446	2.2250e-01	4.4479	-0.217875	0.000590	5.899721	0.999440	0.011802
 447	2.2300e-01	4.4569	-0.189652	0.000282	2.821606	0.477993	0.005645
 448	2.2350e-01	4.4650	-0.165705	0.000239	2.394090	0.405570	0.004789
 449	2.2400e-01	4.4763	-0.103699	0.000620	6.198982	1.050136	0.012401
 450	2.2450e-01	4.4843	-0.073765	0.000299	2.992612	0.506962	0.005987
 451	2.2500e-01	4.4960	-0.031430	0.000423	4.232408	0.716989	0.008467
 452	2.2550e-01	4.5058	0.021167	0.000526	5.258447	0.890805	0.010520
 453	2.2600e-01	4.5166	0.088732	0.000675	6.754753	1.144286	0.013513
 454	2.2650e-01	4.5242	0.103272	0.000145	1.453554	0.246239	0.002908
 455	2.2700e-01	4.5350	0.146034	0.000428	4.275160	0.724232	0.008553
 456	2.2750e-01	4.5453	0.194356	0.000483	4.830931	0.818382	0.009664
 457	2.2800e-01	4.5557	0.226855	0.000325	3.249122	0.550416	0.006500
 458	2.2850e-01	4.5667	0.285867	0.000590	5.899721	0.999440	0.011802
 459	2.2900e-01	4.5786	0.318795	0.000329	3.291873	0.557658	0.006585
 460	2.2950e-01	4.5871	0.350867	0.000321	3.206370	0.543174	0.006414
 461	2.3000e-01	4.5947	0.402609	0.000517	5.172944	0.876320	0.010349
 462	2.3050e-01	4.6085	0.444944	0.000423	4.232408	0.716989	0.008467
 463	2.3100e-01	4.6182	0.485996	0.000410	4.104154	0.695262	0.008210
 464	2.3150e-01	4.6259	0.524482	0.000385	3.847644	0.651809	0.007697
 465	2.3200e-01	4.6388	0.553989	0.000295	2.949860	0.499720	0.005901
 466	2.3250e-01	4.6480	0.614711	0.000607	6.070727	1.028409	0.012145
 467	2.3300e-01	4.6573	0.633527	0.000188	1.881070	0.318662	0.003763
 468	2.3350e-01	4.6667	0.677572	0.000440	4.403415	0.745959	0.008809
 469	2.3400e-01	4.6771	0.731025	0.000534	5.343950	0.905290	0.010691
 470	2.3450e-01	4.6857	0.776781	0.000457	4.574421	0.774928	0.009151
 471	2.3500e-01	4.6954	0.810991	0.000342	3.420128	0.579385	0.006842
 472	2.3550e-01	4.7070	0.846912	0.000359	3.591134	0.608355	0.007184
 473	2.3600e-01	4.7174	0.902076	0.000551	5.514957	0.934259	0.011033
 474	2.3650e-01	4.7272	0.960660	0.000586	5.856969	0.992197	0.011717
 475	2.3700e-01	4.7369	0.985890	0.000252	2.522344	0.427297	0.005046
 476	2.3750e-01	4.7481	1.026514	0.000406	4.061402	0.688020	0.008125
 477	2.3800e-01	4.7571	1.056021	0.000295	2.949860	0.499720	0.005901
 478	2.3850e-01	4.7672	1.097073	0.000410	4.104154	0.695262	0.008210
 479	2.3900e-01	4.7775	1.132138	0.000351	3.505631	0.593870	0.007013
 480	2.3950e-01	4.7876	1.195426	0.000633	6.327237	1.071863	0.012658
 481	2.4000e-01	4.7974	1.217663	0.000222	2.223083	0.376600	0.004447
 482	2.4050e-01	4.8088	1.268978	0.000513	5.130192	0.869078	0.010263
 483	2.4100e-01	4.8163	1.298912	0.000299	2.992612	0.506962	0.005987
 484	2.4150e-01	4.8267	1.354503	0.000556	5.557708	0.941501	0.011118
 485	2.4200e-01	4.8370	1.384864	0.000304	3.035364	0.514205	0.006072
 486	2.4250e-01	4.8480	1.410094	0.000252	2.522344	0.427297	0.005046
 487	2.4300e-01	4.8566	1.480653	0.000705	7.054014	1.194982	0.014112
 488	2.4350e-01	4.8665	1.490916	0.000103	1.026038	0.173816	0.002053
 489	2.4400e-01	4.8769	1.562329	0.000714	7.139517	1.209467	0.014283
 490	2.4450e-01	4.8871	1.605091	0.000428	4.275160	0.724232	0.008553
 491	2.4500e-01	4.8962	1.626045	0.000209	2.094828	0.354874	0.004191
 492	2.4550e-01	4.9078	1.672656	0.000466	4.659924	0.789413	0.009322
 493	2.4600e-01	4.9182	1.720550	0.000479	4.788179	0.811140	0.009579
 494	2.4650e-01	4.9263	1.772293	0.000517	5.172944	0.876320	0.010349
 495	2.4700e-01	4.9362	1.800516	0.000282	2.821606	0.477993	0.005645
 496	2.4750e-01	4.9458	1.844134	0.000436	4.360663	0.738716	0.008724
 497	2.4800e-01	4.9561	1.871074	0.000269	2.693351	0.456266	0.005388
 498	2.4850e-01	4.9689	1.906567	0.000355	3.548383	0.601112	0.007099
 499	2.4900e-01	4.9780	1.948902	0.000423	4.232408	0.716989	0.008467
 500	2.4950e-01	4.9896	1.992520	0.000436	4.360663	0.738716	0.008724
 501	2.5000e-01	4.9969	2.035710	0.000432	4.317912	0.731474	0.008638
 502	2.5050e-01	5.0092	2.062651	0.000269	2.693351	0.456266	0.005388
 503	2.5100e-01	5.0171	2.128077	0.000654	6.540995	1.108075	0.013085
 504	2.5150e-01	5.0269	2.139623	0.000115	1.154293	0.195543	0.002309
 505	2.5200e-01	5.0378	2.190938	0.000513	5.130192	0.869078	0.010263
 506	2.5250e-01	5.0482	2.248240	0.000573	5.728715	0.970471	0.011460
 507	2.5300e-01	5.0583	2.288009	0.000398	3.975899	0.673536	0.007954
 508	2.5350e-01	5.0685	2.322219	0.000342	3.420128	0.579385	0.006842
 509	2.5400e-01	5.0757	2.372679	0.000504	5.044689	0.854593	0.010092
 510	2.5450e-01	5.0873	2.409882	0.000372	3.719389	0.630082	0.007441
 511	2.5500e-01	5.0998	2.450934	0.000410	4.104154	0.695262	0.008210
 512	2.5550e-01	5.1071	2.480013	0.000291	2.907109	0.492478	0.005816
 513	2.5600e-01	5.1183	2.514650	0.000346	3.462880	0.586628	0.006928
 514	2.5650e-01	5.1257	2.555702	0.000410	4.104154	0.695262	0.008210
 515	2.5700e-01	5.1349	2.605307	0.000496	4.959186	0.840109	0.009921
 516	2.5750e-01	5.1477	2.632247	0.000269	2.693351	0.456266	0.005388
 517	2.5800e-01	5.1544	2.685701	0.000534	5.343950	0.905290	0.010691
 518	2.5850e-01	5.1669	2.713496	0.000278	2.778854	0.470751	0.005559
 519	2.5900e-01	5.1758	2.775074	0.000616	6.156231	1.042894	0.012316
 520	2.5950e-01	5.1895	2.794317	0.000192	1.923822	0.325904	0.003849
 521	2.6000e-01	5.1959	2.857606	0.000633	6.327237	1.071863	0.012658
 522	2.6050e-01	5.2065	2.896520	0.000389	3.890396	0.659051	0.007783
 523	2.6100e-01	5.2179	2.902079	0.000056	0.555771	0.094150	0.001112
 524	2.6150e-01	5.2272	2.985893	0.000838	8.379314	1.419494	0.016763
 525	2.6200e-01	5.2365	3.023097	0.000372	3.719389	0.630082	0.007441
 526	2.6250e-01	5.2451	3.043623	0.000205	2.052077	0.347631	0.004105
 527	2.6300e-01	5.2563	3.078688	0.000351	3.505631	0.593870	0.007013
 528	2.6350e-01	5.2649	3.124872	0.000462	4.617173	0.782170	0.009237
 529	2.6400e-01	5.2756	3.168062	0.000432	4.317912	0.731474	0.008638
 530	2.6450e-01	5.2844	3.202272	0.000342	3.420128	0.579385	0.006842
 531	2.6500e-01	5.2927	3.245890	0.000436	4.360663	0.738716	0.008724
 532	2.6550e-01	5.3088	3.292073	0.000462	4.617173	0.782170	0.009237
 533	2.6600e-01	5.3162	3.326711	0.000346	3.462880	0.586628	0.006928
 534	2.6650e-01	5.3247	3.375032	0.000483	4.830931	0.818382	0.009664
 535	2.6700e-01	5.3375	3.398124	0.000231	2.308586	0.391085	0.004618
 536	2.6750e-01	5.3461	3.455854	0.000577	5.771466	0.977713	0.011546
 537	2.6800e-01	5.3564	3.478090	0.000222	2.223083	0.376600	0.004447
 538	2.6850e-01	5.3687	3.512300	0.000342	3.420128	0.579385	0.006842
 539	2.6900e-01	5.3745	3.550786	0.000385	3.847644	0.651809	0.007697
 540	2.6950e-01	5.3845	3.613647	0.000628	6.284485	1.064621	0.012572
 541	2.7000e-01	5.3961	3.639733	0.000261	2.607848	0.441781	0.005217
 542	2.7050e-01	5.4080	3.681640	0.000419	4.189657	0.709747	0.008381
 543	2.7100e-01	5.4156	3.695324	0.000137	1.368051	0.231754	0.002737
 544	2.7150e-01	5.4248	3.732100	0.000368	3.676638	0.622839	0.007355
 545	2.7200e-01	5.4355	3.762889	0.000308	3.078115	0.521447	0.006158
 546	2.7250e-01	5.4449	3.839861	0.000770	7.695288	1.303617	0.015395
 547	2.7300e-01	5.4559	3.869367	0.000295	2.949860	0.499720	0.005901
 548	2.7350e-01	5.4666	3.916834	0.000475	4.745428	0.803897	0.009493
 549	2.7400e-01	5.4794	3.935649	0.000188	1.881070	0.318662	0.003763
 550	2.7450e-01	5.4852	3.976274	0.000406	4.061402	0.688020	0.008125
 551	2.7500e-01	5.4987	4.024595	0.000483	4.830931	0.818382	0.009664
 552	2.7550e-01	5.5069	4.068641	0.000440	4.403415	0.745959	0.008809
 553	2.7600e-01	5.5164	4.104134	0.000355	3.548383	0.601112	0.007099
 554	2.7650e-01	5.5286	4.151600	0.000475	4.745428	0.803897	0.009493
 555	2.7700e-01	5.5383	4.190514	0.000389	3.890396	0.659051	0.007783
 556	2.7750e-01	5.5469	4.228573	0.000380	3.804892	0.644566	0.007612
 557	2.7800e-01	5.5585	4.264065	0.000355	3.548383	0.601112	0.007099
 558	2.7850e-01	5.5667	4.292716	0.000286	2.864357	0.485235	0.005730
 559	2.7900e-01	5.5775	4.337617	0.000449	4.488918	0.760443	0.008980
 560	2.7950e-01	5.5869	4.383373	0.000457	4.574421	0.774928	0.009151
 561	2.8000e-01	5.5957	4.429984	0.000466	4.659924	0.789413	0.009322
 562	2.8050e-01	5.6064	4.438537	0.000086	0.855032	0.144846	0.001711
 563	2.8100e-01	5.6131	4.504818	0.000663	6.626498	1.122559	0.013256
 564	2.8150e-01	5.6244	4.550574	0.000457	4.574421	0.774928	0.009151
 565	2.8200e-01	5.6354	4.590771	0.000402	4.018650	0.680778	0.008039
 566	2.8250e-01	5.6458	4.622415	0.000316	3.163618	0.535931	0.006329
 567	2.8300e-01	5.6561	4.633534	0.000111	1.111542	0.188300	0.002224
 568	2.8350e-01	5.6688	4.695967	0.000624	6.241734	1.057378	0.012487
 569	2.8400e-01	5.6804	4.708368	0.000124	1.239796	0.210027	0.002480
 570	2.8450e-01	5.6866	4.755834	0.000475	4.745428	0.803897	0.009493
 571	2.8500e-01	5.6973	4.804584	0.000487	4.873682	0.825624	0.009750
 572	2.8550e-01	5.7080	4.853333	0.000487	4.873682	0.825624	0.009750
 573	2.8600e-01	5.7162	4.888826	0.000355	3.548383	0.601112	0.007099
 574	2.8650e-01	5.7269	4.909352	0.000205	2.052077	0.347631	0.004105
 575	2.8700e-01	5.7370	4.977344	0.000680	6.797505	1.151528	0.013598
 576	2.8750e-01	5.7458	4.988463	0.000111	1.111542	0.188300	0.002224
 577	2.8800e-01	5.7556	5.032080	0.000436	4.360663	0.738716	0.008724
 578	2.8850e-01	5.7651	5.078264	0.000462	4.617173	0.782170	0.009237
 579	2.8900e-01	5.7751	5.103066	0.000248	2.479593	0.420054	0.004960
 580	2.8950e-01	5.7838	5.140270	0.000372	3.719389	0.630082	0.007441
 581	2.9000e-01	5.7983	5.186881	0.000466	4.659924	0.789413	0.009322
 582	2.9050e-01	5.8063	5.227505	0.000406	4.061402	0.688020	0.008125
 583	2.9100e-01	5.8160	5.285662	0.000581	5.814218	0.984955	0.011631
 584	2.9150e-01	5.8249	5.305761	0.000201	2.009325	0.340389	0.004020
 585	2.9200e-01	5.8359	5.354510	0.000487	4.873682	0.825624	0.009750
 586	2.9250e-01	5.8463	5.384871	0.000304	3.035364	0.514205	0.006072
 587	2.9300e-01	5.8557	5.416088	0.000312	3.120867	0.528689	0.006243
 588	2.9350e-01	5.8655	5.440035	0.000239	2.394090	0.405570	0.004789
 589	2.9400e-01	5.8746	5.471252	0.000312	3.120867	0.528689	0.006243
 590	2.9450e-01	5.8862	5.544375	0.000731	7.310524	1.238436	0.014625
 591	2.9500e-01	5.8966	5.579013	0.000346	3.462880	0.586628	0.006928
 592	2.9550e-01	5.9070	5.605954	0.000269	2.693351	0.456266	0.005388
 593	2.9600e-01	5.9187	5.641446	0.000355	3.548383	0.601112	0.007099
 594	2.9650e-01	5.9265	5.679933	0.000385	3.847644	0.651809	0.007697
 595	2.9700e-01	5.9363	5.703880	0.000239	2.394090	0.405570	0.004789
 596	2.9750e-01	5.9467	5.767168	0.000633	6.327237	1.071863	0.012658
 597	2.9800e-01	5.9570	5.804372	0.000372	3.719389	0.630082	0.007441
 598	2.9850e-01	5.9631	5.842003	0.000376	3.762141	0.637324	0.007526
 599	2.9900e-01	5.9760	5.876213	0.000342	3.420128	0.579385	0.006842
 600	2.9950e-01	5.9865	5.914699	0.000385	3.847644	0.651809	0.007697
 601	3.0000e-01	5.9973	5.938646	0.000239	2.394090	0.405570	0.004789
 602	3.0050e-01	6.0059	5.978843	0.000402	4.018650	0.680778	0.008039
 603	3.0100e-01	6.0159	6.026737	0.000479	4.788179	0.811140	0.009579
 604	3.0150e-01	6.0263	6.069927	0.000432	4.317912	0.731474	0.008638
 605	3.0200e-01	6.0333	6.117393	0.000475	4.745428	0.803897	0.009493
 606	3.0250e-01	6.0451	6.151603	0.000342	3.420128	0.579385	0.006842
 607	3.0300e-01	6.0574	6.184958	0.000333	3.334625	0.564901	0.006671
 608	3.0350e-01	6.0687	6.213181	0.000282	2.821606	0.477993	0.005645
 609	3.0400e-01	6.0779	6.247391	0.000342	3.420128	0.579385	0.006842
 610	3.0450e-01	6.0883	6.299562	0.000522	5.215695	0.883563	0.010434
 611	3.0500e-01	6.0956	6.342324	0.000428	4.275160	0.724232	0.008553
 612	3.0550e-01	6.1066	6.384232	0.000419	4.189657	0.709747	0.008381
 613	3.0600e-01	6.1163	6.401764	0.000175	1.752816	0.296935	0.003507
 614	3.0650e-01	6.1276	6.450513	0.000487	4.873682	0.825624	0.009750
 615	3.0700e-01	6.1365	6.480020	0.000295	2.949860	0.499720	0.005901
 616	3.0750e-01	6.1456	6.498835	0.000188	1.881070	0.318662	0.003763
 617	3.0800e-01	6.1575	6.564262	0.000654	6.540995	1.108075	0.013085
 618	3.0850e-01	6.1652	6.592057	0.000278	2.778854	0.470751	0.005559
 619	3.0900e-01	6.1752	6.630116	0.000380	3.804892	0.644566	0.007612
 620	3.0950e-01	6.1890	6.657912	0.000278	2.778854	0.470751	0.005559
 621	3.1000e-01	6.1978	6.719062	0.000611	6.113479	1.035651	0.012230
 622	3.1050e-01	6.2079	6.743009	0.000239	2.394090	0.405570	0.004789
 623	3.1100e-01	6.2140	6.798173	0.000551	5.514957	0.934259	0.011033
 624	3.1150e-01	6.2262	6.817844	0.000197	1.966574	0.333147	0.003934
 625	3.1200e-01	6.2363	6.837942	0.000201	2.009325	0.340389	0.004020
 626	3.1250e-01	6.2476	6.878566	0.000406	4.061402	0.688020	0.008125
 627	3.1300e-01	6.2575	6.932447	0.000539	5.386702	0.912532	0.010776
 628	3.1350e-01	6.2653	6.976065	0.000436	4.360663	0.738716	0.008724
 629	3.1400e-01	6.2776	7.002578	0.000265	2.650599	0.449024	0.005303
 630	3.1450e-01	6.2869	7.046195	0.000436	4.360663	0.738716	0.008724
 631	3.1500e-01	6.2970	7.062445	0.000162	1.624561	0.275208	0.003250
 632	3.1550e-01	6.3074	7.089386	0.000269	2.693351	0.456266	0.005388
 633	3.1600e-01	6.3150	7.149681	0.000603	6.027976	1.021167	0.012059
 634	3.1650e-01	6.3281	7.178332	0.000286	2.864357	0.485235	0.005730
 635	3.1700e-01	6.3379	7.213825	0.000355	3.548383	0.601112	0.007099
 636	3.1750e-01	6.3464	7.265567	0.000517	5.172944	0.876320	0.010349
 637	3.1800e-01	6.3577	7.296356	0.000308	3.078115	0.521447	0.006158
 638	3.1850e-01	6.3672	7.343395	0.000470	4.702676	0.796655	0.009408
 639	3.1900e-01	6.3763	7.366914	0.000235	2.351338	0.398327	0.004704
 640	3.1950e-01	6.3879	7.423789	0.000569	5.685963	0.963228	0.011375
 641	3.2000e-01	6.3980	7.447308	0.000235	2.351338	0.398327	0.004704
 642	3.2050e-01	6.4076	7.501189	0.000539	5.386702	0.912532	0.010776
 643	3.2100e-01	6.4166	7.552076	0.000509	5.087440	0.861836	0.010177
 644	3.2150e-01	6.4261	7.568326	0.000162	1.624561	0.275208	0.003250
 645	3.2200e-01	6.4355	7.591418	0.000231	2.308586	0.391085	0.004618
 646	3.2250e-01	6.4459	7.617075	0.000257	2.565096	0.434539	0.005132
 647	3.2300e-01	6.4587	7.670528	0.000534	5.343950	0.905290	0.010691
 648	3.2350e-01	6.4673	7.716284	0.000457	4.574421	0.774928	0.009151
 649	3.2400e-01	6.4771	7.736383	0.000201	2.009325	0.340389	0.004020
 650	3.2450e-01	6.4874	7.786415	0.000500	5.001937	0.847351	0.010006
 651	3.2500e-01	6.4975	7.811645	0.000252	2.522344	0.427297	0.005046
 652	3.2550e-01	6.5070	7.835592	0.000239	2.394090	0.405570	0.004789
 653	3.2600e-01	6.5179	7.902301	0.000667	6.669250	1.129801	0.013342
 654	3.2650e-01	6.5286	7.926248	0.000239	2.394090	0.405570	0.004789
 655	3.2700e-01	6.5375	7.957893	0.000316	3.163618	0.535931	0.006329
 656	3.2750e-01	6.5491	8.006214	0.000483	4.830931	0.818382	0.009664
 657	3.2800e-01	6.5594	8.025885	0.000197	1.966574	0.333147	0.003934
 658	3.2850e-01	6.5665	8.078483	0.000526	5.258447	0.890805	0.010520
 659	3.2900e-01	6.5753	8.116542	0.000380	3.804892	0.644566	0.007612
 660	3.2950e-01	6.5869	8.132364	0.000158	1.581809	0.267966	0.003164
 661	3.3000e-01	6.5955	8.194797	0.000624	6.241734	1.057378	0.012487
 662	3.3050e-01	6.6077	8.226869	0.000321	3.206370	0.543174	0.006414
 663	3.3100e-01	6.6159	8.265783	0.000389	3.890396	0.659051	0.007783
 664	3.3150e-01	6.6290	8.289730	0.000239	2.394090	0.405570	0.004789
 665	3.3200e-01	6.6388	8.337196	0.000475	4.745428	0.803897	0.009493
 666	3.3250e-01	6.6470	8.376110	0.000389	3.890396	0.659051	0.007783
 667	3.3300e-01	6.6565	8.417590	0.000415	4.146905	0.702505	0.008296
 668	3.3350e-01	6.6653	8.447096	0.000295	2.949860	0.499720	0.005901
 669	3.3400e-01	6.6754	8.484727	0.000376	3.762141	0.637324	0.007526
 670	3.3450e-01	6.6876	8.518509	0.000338	3.377376	0.572143	0.006756
 671	3.3500e-01	6.7004	8.558706	0.000402	4.018650	0.680778	0.008039
 672	3.3550e-01	6.7029	8.617291	0.000586	5.856969	0.992197	0.011717
 673	3.3600e-01	6.7188	8.619429	0.000021	0.213758	0.036212	0.000428
 674	3.3650e-01	6.7279	8.668178	0.000487	4.873682	0.825624	0.009750
 675	3.3700e-01	6.7371	8.686138	0.000180	1.795567	0.304177	0.003592
 676	3.3750e-01	6.7480	8.734460	0.000483	4.830931	0.818382	0.009664
 677	3.3800e-01	6.7584	8.769525	0.000351	3.505631	0.593870	0.007013
 678	3.3850e-01	6.7673	8.811005	0.000415	4.146905	0.702505	0.008296
 679	3.3900e-01	6.7773	8.844360	0.000333	3.334625	0.564901	0.006671
 680	3.3950e-01	6.7860	8.884557	0.000402	4.018650	0.680778	0.008039
 681	3.4000e-01	6.8030	8.920049	0.000355	3.548383	0.601112	0.007099
 682	3.4050e-01	6.8073	8.964522	0.000445	4.446166	0.753201	0.008895
 683	3.4100e-01	6.8152	9.003864	0.000393	3.933147	0.666293	0.007868
 684	3.4150e-01	6.8298	9.031232	0.000274	2.736102	0.463508	0.005474
 685	3.4200e-01	6.8378	9.071001	0.000398	3.975899	0.673536	0.007954
 686	3.4250e-01	6.8475	9.096231	0.000252	2.522344	0.427297	0.005046
 687	3.4300e-01	6.8564	9.130013	0.000338	3.377376	0.572143	0.006756
 688	3.4350e-01	6.8677	9.171065	0.000410	4.104154	0.695262	0.008210
 689	3.4400e-01	6.8758	9.203137	0.000321	3.206370	0.543174	0.006414
 690	3.4450e-01	6.8854	9.254452	0.000513	5.130192	0.869078	0.010263
 691	3.4500e-01	6.8982	9.277544	0.000231	2.308586	0.391085	0.004618
 692	3.4550e-01	6.9055	9.307478	0.000299	2.992612	0.506962	0.005987
 693	3.4600e-01	6.9165	9.368201	0.000607	6.070727	1.028409	0.012145
 694	3.4650e-01	6.9275	9.384450	0.000162	1.624561	0.275208	0.003250
 695	3.4700e-01	6.9385	9.426785	0.000423	4.232408	0.716989	0.008467
 696	3.4750e-01	6.9463	9.453726	0.000269	2.693351	0.456266	0.005388
 697	3.4800e-01	6.9583	9.505896	0.000522	5.215695	0.883563	0.010434
 698	3.4850e-01	6.9659	9.546520	0.000406	4.061402	0.688020	0.008125
 699	3.4900e-01	6.9795	9.574744	0.000282	2.821606	0.477993	0.005645
 700	3.4950e-01	6.9855	9.598263	0.000235	2.351338	0.398327	0.004704
 701	3.5000e-01	6.9952	9.626914	0.000286	2.864357	0.485235	0.005730
 702	3.5050e-01	7.0081	9.704314	0.000774	7.738040	1.310859	0.015480
 703	3.5100e-01	7.0187	9.741945	0.000376	3.762141	0.637324	0.007526
 704	3.5150e-01	7.0282	9.777866	0.000359	3.591134	0.608355	0.007184
 705	3.5200e-01	7.0392	9.790267	0.000124	1.239796	0.210027	0.002480
 706	3.5250e-01	7.0468	9.825332	0.000351	3.505631	0.593870	0.007013
 707	3.5300e-01	7.0575	9.869378	0.000440	4.403415	0.745959	0.008809
 708	3.5350e-01	7.0685	9.905298	0.000359	3.591134	0.608355	0.007184
 709	3.5400e-01	7.0764	9.945067	0.000398	3.975899	0.673536	0.007954
 710	3.5450e-01	7.0868	9.963883	0.000188	1.881070	0.318662	0.003763
 711	3.5500e-01	7.0969	10.008356	0.000445	4.446166	0.753201	0.008895
 712	3.5550e-01	7.1069	10.042138	0.000338	3.377376	0.572143	0.006756
 713	3.5600e-01	7.1170	10.088322	0.000462	4.617173	0.782170	0.009237
 714	3.5650e-01	7.1283	10.127663	0.000393	3.933147	0.666293	0.007868
 715	3.5700e-01	7.1365	10.169998	0.000423	4.232408	0.716989	0.008467
 716	3.5750e-01	7.1466	10.193090	0.000231	2.308586	0.391085	0.004618
 717	3.5800e-01	7.1582	10.231576	0.000385	3.847644	0.651809	0.007697
 718	3.5850e-01	7.1674	10.293582	0.000620	6.198982	1.050136	0.012401
 719	3.5900e-01	7.1768	10.326081	0.000325	3.249122	0.550416	0.006500
 720	3.5950e-01	7.1832	10.353877	0.000278	2.778854	0.470751	0.005559
 721	3.6000e-01	7.1960	10.369271	0.000154	1.539058	0.260723	0.003079
 722	3.6050e-01	7.2058	10.415883	0.000466	4.659924	0.789413	0.009322
 723	3.6100e-01	7.2180	10.428284	0.000124	1.239796	0.210027	0.002480
 724	3.6150e-01	7.2263	10.495421	0.000671	6.712001	1.137044	0.013427
 725	3.6200e-01	7.2375	10.526210	0.000308	3.078115	0.521447	0.006158
 726	3.6250e-01	7.2495	10.565551	0.000393	3.933147	0.666293	0.007868
 727	3.6300e-01	7.2577	10.598479	0.000329	3.291873	0.557658	0.006585
 728	3.6350e-01	7.2650	10.656208	0.000577	5.771466	0.977713	0.011546
 729	3.6400e-01	7.2754	10.683576	0.000274	2.736102	0.463508	0.005474
 730	3.6450e-01	7.2845	10.707523	0.000239	2.394090	0.405570	0.004789
 731	3.6500e-01	7.2964	10.753707	0.000462	4.617173	0.782170	0.009237
 732	3.6550e-01	7.3111	10.777654	0.000239	2.394090	0.405570	0.004789
 733	3.6600e-01	7.3181	10.839232	0.000616	6.156231	1.042894	0.012316
 734	3.6650e-01	7.3279	10.863606	0.000244	2.436841	0.412812	0.004875
 735	3.6700e-01	7.3398	10.886270	0.000227	2.265835	0.383843	0.004533
 736	3.6750e-01	7.3450	10.936303	0.000500	5.001937	0.847351	0.010006
 737	3.6800e-01	7.3544	10.969230	0.000329	3.291873	0.557658	0.006585
 738	3.6850e-01	7.3666	10.991039	0.000218	2.180332	0.369358	0.004362
 739	3.6900e-01	7.3764	11.059031	0.000680	6.797505	1.151528	0.013598
 740	3.6950e-01	7.3853	11.087254	0.000282	2.821606	0.477993	0.005645
 741	3.7000e-01	7.3981	11.122320	0.000351	3.505631	0.593870	0.007013
 742	3.7050e-01	7.4060	11.161661	0.000393	3.933147	0.666293	0.007868
 743	3.7100e-01	7.4161	11.188601	0.000269	2.693351	0.456266	0.005388
 744	3.7150e-01	7.4255	11.212549	0.000239	2.394090	0.405570	0.004789
 745	3.7200e-01	7.4365	11.251462	0.000389	3.890396	0.659051	0.007783
 746	3.7250e-01	7.4454	11.308337	0.000569	5.685963	0.963228	0.011375
 747	3.7300e-01	7.4603	11.322021	0.000137	1.368051	0.231754	0.002737
 748	3.7350e-01	7.4649	11.361362	0.000393	3.933147	0.666293	0.007868
 749	3.7400e-01	7.4823	11.425078	0.000637	6.369989	1.079105	0.012743
 750	3.7450e-01	7.4860	11.450308	0.000252	2.522344	0.427297	0.005046
 751	3.7500e-01	7.4963	11.481525	0.000312	3.120867	0.528689	0.006243
 752	3.7550e-01	7.5079	11.523432	0.000419	4.189657	0.709747	0.008381
 753	3.7600e-01	7.5153	11.556787	0.000333	3.334625	0.564901	0.006671
 754	3.7650e-01	7.5269	11.589714	0.000329	3.291873	0.557658	0.006585
 755	3.7700e-01	7.5372	11.626917	0.000372	3.719389	0.630082	0.007441
 756	3.7750e-01	7.5482	11.677377	0.000504	5.044689	0.854593	0.010092
 757	3.7800e-01	7.5569	11.713298	0.000359	3.591134	0.608355	0.007184
 758	3.7850e-01	7.5714	11.716291	0.000030	0.299261	0.050696	0.000599
 759	3.7900e-01	7.5751	11.781290	0.000650	6.498243	1.100832	0.013000
 760	3.7950e-01	7.5833	11.812507	0.000312	3.120867	0.528689	0.006243
 761	3.8000e-01	7.5940	11.856980	0.000445	4.446166	0.753201	0.008895
 762	3.8050e-01	7.6089	11.873230	0.000162	1.624561	0.275208	0.003250
 763	3.8100e-01	7.6147	11.948492	0.000752	7.524282	1.274648	0.015052
 764	3.8150e-01	7.6247	11.955334	0.000068	0.684026	0.115877	0.001368
 765	3.8200e-01	7.6379	11.996386	0.000410	4.104154	0.695262	0.008210
 766	3.8250e-01	7.6459	12.056253	0.000599	5.985224	1.013924	0.011974
 767	3.8300e-01	7.6559	12.061385	0.000051	0.513019	0.086908	0.001026
 768	3.8350e-01	7.6663	12.123390	0.000620	6.198982	1.050136	0.012401
 769	3.8400e-01	7.6764	12.149048	0.000257	2.565096	0.434539	0.005132
 770	3.8450e-01	7.6880	12.202929	0.000539	5.386702	0.912532	0.010776
 771	3.8500e-01	7.6984	12.229014	0.000261	2.607848	0.441781	0.005217
 772	3.8550e-01	7.7051	12.242270	0.000133	1.325300	0.224512	0.002651
 773	3.8600e-01	7.7167	12.302993	0.000607	6.070727	1.028409	0.012145
 774	3.8650e-01	7.7271	12.333782	0.000308	3.078115	0.521447	0.006158
 775	3.8700e-01	7.7350	12.370558	0.000368	3.676638	0.622839	0.007355
 776	3.8750e-01	7.7472	12.401347	0.000308	3.078115	0.521447	0.006158
 777	3.8800e-01	7.7563	12.438123	0.000368	3.676638	0.622839	0.007355
 778	3.8850e-01	7.7649	12.483023	0.000449	4.488918	0.760443	0.008980
 779	3.8900e-01	7.7762	12.518516	0.000355	3.548383	0.601112	0.007099
 780	3.8950e-01	7.7844	12.580094	0.000616	6.156231	1.042894	0.012316
 781	3.9000e-01	7.7972	12.597199	0.000171	1.710064	0.289693	0.003421
 782	3.9050e-01	7.8082	12.633120	0.000359	3.591134	0.608355	0.007184
 783	3.9100e-01	7.8156	12.665192	0.000321	3.206370	0.543174	0.006414
 784	3.9150e-01	7.8265	12.707526	0.000423	4.232408	0.716989	0.008467
 785	3.9200e-01	7.8369	12.743875	0.000363	3.633886	0.615597	0.007270
 786	3.9250e-01	7.8491	12.792624	0.000487	4.873682	0.825624	0.009750
 787	3.9300e-01	7.8558	12.821275	0.000286	2.864357	0.485235	0.005730
 788	3.9350e-01	7.8668	12.859761	0.000385	3.847644	0.651809	0.007697
 789	3.9400e-01	7.8754	12.896109	0.000363	3.633886	0.615597	0.007270
 790	3.9450e-01	7.8864	12.956404	0.000603	6.027976	1.021167	0.012059
 791	3.9500e-01	7.8961	12.965385	0.000090	0.897784	0.152089	0.001796
 792	3.9550e-01	7.9077	13.009858	0.000445	4.446166	0.753201	0.008895
 793	3.9600e-01	7.9163	13.068442	0.000586	5.856969	0.992197	0.011717
 794	3.9650e-01	7.9266	13.081271	0.000128	1.282548	0.217270	0.002566
 795	3.9700e-01	7.9330	13.153967	0.000727	7.267772	1.231194	0.014539
 796	3.9750e-01	7.9462	13.157816	0.000038	0.384764	0.065181	0.000770
 797	3.9800e-01	7.9553	13.196730	0.000389	3.890396	0.659051	0.007783
 798	3.9850e-01	7.9688	13.239920	0.000432	4.317912	0.731474	0.008638
 799	3.9900e-01	7.9742	13.276696	0.000368	3.676638	0.622839	0.007355
 800	3.9950e-01	7.9889	13.321169	0.000445	4.446166	0.753201	0.008895
 801	4.0000e-01	7.9944	13.353241	0.000321	3.206370	0.543174	0.006414
 802	4.0050e-01	8.0054	13.391299	0.000380	3.804892	0.644566	0.007612
 803	4.0100e-01	8.0164	13.412681	0.000214	2.137580	0.362116	0.004276
 804	4.0150e-01	8.0273	13.462713	0.000500	5.001937	0.847351	0.010006
 805	4.0200e-01	8.0377	13.507613	0.000449	4.488918	0.760443	0.008980
 806	4.0250e-01	8.0481	13.556363	0.000487	4.873682	0.825624	0.009750
 807	4.0300e-01	8.0542	13.584586	0.000282	2.821606	0.477993	0.005645
 808	4.0350e-01	8.0688	13.621789	0.000372	3.719389	0.630082	0.007441
 809	4.0400e-01	8.0750	13.673960	0.000522	5.215695	0.883563	0.010434
 810	4.0450e-01	8.0878	13.693203	0.000192	1.923822	0.325904	0.003849
 811	4.0500e-01	8.0939	13.730406	0.000372	3.719389	0.630082	0.007441
 812	4.0550e-01	8.1061	13.786425	0.000560	5.600460	0.948744	0.011204
 813	4.0600e-01	8.1158	13.830043	0.000436	4.360663	0.738716	0.008724
 814	4.0650e-01	8.1250	13.854417	0.000244	2.436841	0.412812	0.004875
 815	4.0700e-01	8.1360	13.921555	0.000671	6.712001	1.137044	0.013427
 816	4.0750e-01	8.1488	13.941225	0.000197	1.966574	0.333147	0.003934
 817	4.0800e-01	8.1570	13.978429	0.000372	3.719389	0.630082	0.007441
 818	4.0850e-01	8.1635	14.012639	0.000342	3.420128	0.579385	0.006842
 819	4.0900e-01	8.1763	14.055829	0.000432	4.317912	0.731474	0.008638
 820	4.0950e-01	8.1873	14.102012	0.000462	4.617173	0.782170	0.009237
 821	4.1000e-01	8.1970	14.129381	0.000274	2.736102	0.463508	0.005474
 822	4.1050e-01	8.2062	14.170860	0.000415	4.146905	0.702505	0.008296
 823	4.1100e-01	8.2175	14.213623	0.000428	4.275160	0.724232	0.008553
 824	4.1150e-01	8.2263	14.240991	0.000274	2.736102	0.463508	0.005474
 825	4.1200e-01	8.2367	14.283326	0.000423	4.232408	0.716989	0.008467
 826	4.1250e-01	8.2471	14.333785	0.000504	5.044689	0.854593	0.010092
 827	4.1300e-01	8.2532	14.359015	0.000252	2.522344	0.427297	0.005046
 828	4.1350e-01	8.2642	14.400923	0.000419	4.189657	0.709747	0.008381
 829	4.1400e-01	8.2745	14.441547	0.000406	4.061402	0.688020	0.008125
 830	4.1450e-01	8.2886	14.492862	0.000513	5.130192	0.869078	0.010263
 831	4.1500e-01	8.2977	14.533486	0.000406	4.061402	0.688020	0.008125
 832	4.1550e-01	8.3075	14.557861	0.000244	2.436841	0.412812	0.004875
 833	4.1600e-01	8.3167	14.604472	0.000466	4.659924	0.789413	0.009322
 834	4.1650e-01	8.3237	14.654932	0.000504	5.044689	0.854593	0.010092
 835	4.1700e-01	8.3386	14.670754	0.000158	1.581809	0.267966	0.003164
 836	4.1750e-01	8.3447	14.712234	0.000415	4.146905	0.702505	0.008296
 837	4.1800e-01	8.3575	14.750720	0.000385	3.847644	0.651809	0.007697
 838	4.1850e-01	8.3655	14.796048	0.000453	4.531670	0.767686	0.009066
 839	4.1900e-01	8.3771	14.850357	0.000543	5.429453	0.919774	0.010862
 840	4.1950e-01	8.3875	14.884567	0.000342	3.420128	0.579385	0.006842
 841	4.2000e-01	8.4009	14.913218	0.000286	2.864357	0.485235	0.005730
 842	4.2050e-01	8.4100	14.958974	0.000457	4.574421	0.774928	0.009151
 843	4.2100e-01	8.4180	15.000026	0.000410	4.104154	0.695262	0.008210
 844	4.2150e-01	8.4293	15.022262	0.000222	2.223083	0.376600	0.004447
 845	4.2200e-01	8.4375	15.069728	0.000475	4.745428	0.803897	0.009493
 846	4.2250e-01	8.4451	15.120616	0.000509	5.087440	0.861836	0.010177
 847	4.2300e-01	8.4595	15.142852	0.000222	2.223083	0.376600	0.004447
 848	4.2350e-01	8.4702	15.204858	0.000620	6.198982	1.050136	0.012401
 849	4.2400e-01	8.4760	15.266864	0.000620	6.198982	1.050136	0.012401
 850	4.2450e-01	8.4882	15.274133	0.000073	0.726777	0.123119	0.001454
 851	4.2500e-01	8.4985	15.317324	0.000432	4.317912	0.731474	0.008638
 852	4.2550e-01	8.5089	15.355810	0.000385	3.847644	0.651809	0.007697
 853	4.2600e-01	8.5185	15.416960	0.000611	6.113479	1.035651	0.012230
 854	4.2650e-01	8.5297	15.441762	0.000248	2.479593	0.420054	0.004960
 855	4.2700e-01	8.5370	15.484097	0.000423	4.232408	0.716989	0.008467
 856	4.2750e-01	8.5464	15.529426	0.000453	4.531670	0.767686	0.009066
 857	4.2800e-01	8.5571	15.572188	0.000428	4.275160	0.724232	0.008553
 858	4.2850e-01	8.5681	15.613668	0.000415	4.146905	0.702505	0.008296
 859	4.2900e-01	8.5773	15.655575	0.000419	4.189657	0.709747	0.008381
 860	4.2950e-01	8.5883	15.692351	0.000368	3.676638	0.622839	0.007355
 861	4.3000e-01	8.5962	15.719719	0.000274	2.736102	0.463508	0.005474
 862	4.3050e-01	8.6066	15.752218	0.000325	3.249122	0.550416	0.006500
 863	4.3100e-01	8.6176	15.812086	0.000599	5.985224	1.013924	0.011974
 864	4.3150e-01	8.6288	15.864256	0.000522	5.215695	0.883563	0.010434
 865	4.3200e-01	8.6365	15.882644	0.000184	1.838319	0.311420	0.003678
 866	4.3250e-01	8.6487	15.924979	0.000423	4.232408	0.716989	0.008467
 867	4.3300e-01	8.6584	15.984847	0.000599	5.985224	1.013924	0.011974
 868	4.3350e-01	8.6676	16.000241	0.000154	1.539058	0.260723	0.003079
 869	4.3400e-01	8.6786	16.027609	0.000274	2.736102	0.463508	0.005474
 870	4.3450e-01	8.6890	16.092181	0.000646	6.455492	1.093590	0.012914
 871	4.3500e-01	8.6981	16.141785	0.000496	4.959186	0.840109	0.009921
 872	4.3550e-01	8.7079	16.183265	0.000415	4.146905	0.702505	0.008296
 873	4.3600e-01	8.7204	16.225600	0.000423	4.232408	0.716989	0.008467
 874	4.3650e-01	8.7280	16.260665	0.000351	3.505631	0.593870	0.007013
 875	4.3700e-01	8.7360	16.307276	0.000466	4.659924	0.789413	0.009322
 876	4.3750e-01	8.7466	16.339348	0.000321	3.206370	0.543174	0.006414
 877	4.3800e-01	8.7576	16.387670	0.000483	4.830931	0.818382	0.009664
 878	4.3850e-01	8.7665	16.442406	0.000547	5.472205	0.927017	0.010947
 879	4.3900e-01	8.7781	16.465925	0.000235	2.351338	0.398327	0.004704
 880	4.3950e-01	8.7848	16.527931	0.000620	6.198982	1.050136	0.012401
 881	4.4000e-01	8.7964	16.549740	0.000218	2.180332	0.369358	0.004362
 882	4.4050e-01	8.8062	16.604476	0.000547	5.472205	0.927017	0.010947
 883	4.4100e-01	8.8208	16.641679	0.000372	3.719389	0.630082	0.007441
 884	4.4150e-01	8.8300	16.669902	0.000282	2.821606	0.477993	0.005645
 885	4.4200e-01	8.8379	16.732763	0.000628	6.284485	1.064621	0.012572
 886	4.4250e-01	8.8464	16.782795	0.000500	5.001937	0.847351	0.010006
 887	4.4300e-01	8.8574	16.822137	0.000393	3.933147	0.666293	0.007868
 888	4.4350e-01	8.8635	16.836676	0.000145	1.453554	0.246239	0.002908
 889	4.4400e-01	8.8776	16.879866	0.000432	4.317912	0.731474	0.008638
 890	4.4450e-01	8.8864	16.930754	0.000509	5.087440	0.861836	0.010177
 891	4.4500e-01	8.8971	16.961115	0.000304	3.035364	0.514205	0.006072
 892	4.4550e-01	8.9069	17.033384	0.000723	7.225021	1.223952	0.014454
 893	4.4600e-01	8.9154	17.074008	0.000406	4.061402	0.688020	0.008125
 894	4.4650e-01	8.9294	17.111639	0.000376	3.762141	0.637324	0.007526
 895	4.4700e-01	8.9395	17.159106	0.000475	4.745428	0.803897	0.009493
 896	4.4750e-01	8.9478	17.179204	0.000201	2.009325	0.340389	0.004020
 897	4.4800e-01	8.9575	17.243348	0.000641	6.412740	1.086348	0.012829
 898	4.4850e-01	8.9667	17.280979	0.000376	3.762141	0.637324	0.007526
 899	4.4900e-01	8.9764	17.305353	0.000244	2.436841	0.412812	0.004875
 900	4.4950e-01	8.9874	17.357524	0.000522	5.215695	0.883563	0.010434
 901	4.5000e-01	8.9966	17.404562	0.000470	4.702676	0.796655	0.009408
 902	4.5050e-01	9.0039	17.460154	0.000556	5.557708	0.941501	0.011118
 903	4.5100e-01	9.0167	17.513179	0.000530	5.301199	0.898047	0.010605
 904	4.5150e-01	9.0265	17.553804	0.000406	4.061402	0.688020	0.008125
 905	4.5200e-01	9.0375	17.581599	0.000278	2.778854	0.470751	0.005559
 906	4.5250e-01	9.0479	17.640184	0.000586	5.856969	0.992197	0.011717
 907	4.5300e-01	9.0552	17.675249	0.000351	3.505631	0.593870	0.007013
 908	4.5350e-01	9.0698	17.697913	0.000227	2.265835	0.383843	0.004533
 909	4.5400e-01	9.0735	17.757781	0.000599	5.985224	1.013924	0.011974
 910	4.5450e-01	9.0848	17.810379	0.000526	5.258447	0.890805	0.010520
 911	4.5500e-01	9.0939	17.861694	0.000513	5.130192	0.869078	0.010263
 912	4.5550e-01	9.1064	17.879654	0.000180	1.795567	0.304177	0.003592
 913	4.5600e-01	9.1119	17.945081	0.000654	6.540995	1.108075	0.013085
 914	4.5650e-01	9.1275	17.973732	0.000286	2.864357	0.485235	0.005730
 915	4.5700e-01	9.1382	18.037020	0.000633	6.327237	1.071863	0.012658
 916	4.5750e-01	9.1467	18.055836	0.000188	1.881070	0.318662	0.003763
 917	4.5800e-01	9.1553	18.121262	0.000654	6.540995	1.108075	0.013085
 918	4.5850e-01	9.1681	18.162742	0.000415	4.146905	0.702505	0.008296
 919	4.5900e-01	9.1766	18.222182	0.000594	5.942473	1.006682	0.011888
 920	4.5950e-01	9.1852	18.250405	0.000282	2.821606	0.477993	0.005645
 921	4.6000e-01	9.1986	18.298299	0.000479	4.788179	0.811140	0.009579
 922	4.6050e-01	9.2081	18.350042	0.000517	5.172944	0.876320	0.010349
 923	4.6100e-01	9.2175	18.387673	0.000376	3.762141	0.637324	0.007526
 924	4.6150e-01	9.2212	18.425732	0.000380	3.804892	0.644566	0.007612
 925	4.6200e-01	9.2365	18.466784	0.000410	4.104154	0.695262	0.008210
 926	4.6250e-01	9.2474	18.511684	0.000449	4.488918	0.760443	0.008980
 927	4.6300e-01	9.2566	18.557440	0.000457	4.574421	0.774928	0.009151
 928	4.6350e-01	9.2642	18.604051	0.000466	4.659924	0.789413	0.009322
 929	4.6400e-01	9.2755	18.648097	0.000440	4.403415	0.745959	0.008809
 930	4.6450e-01	9.2859	18.701550	0.000534	5.343950	0.905290	0.010691
 931	4.6500e-01	9.2969	18.759279	0.000577	5.771466	0.977713	0.011546
 932	4.6550e-01	9.3079	18.792207	0.000329	3.291873	0.557658	0.006585
 933	4.6600e-01	9.3164	18.835397	0.000432	4.317912	0.731474	0.008638
 934	4.6650e-01	9.3250	18.903389	0.000680	6.797505	1.151528	0.013598
 935	4.6700e-01	9.3384	18.926481	0.000231	2.308586	0.391085	0.004618
 936	4.6750e-01	9.3469	18.979079	0.000526	5.258447	0.890805	0.010520
 937	4.6800e-01	9.3567	19.027400	0.000483	4.830931	0.818382	0.009664
 938	4.6850e-01	9.3646	19.065031	0.000376	3.762141	0.637324	0.007526
 939	4.6900e-01	9.3768	19.117202	0.000522	5.215695	0.883563	0.010434
 940	4.6950e-01	9.3854	19.165096	0.000479	4.788179	0.811140	0.009579
 941	4.7000e-01	9.3985	19.215556	0.000504	5.044689	0.854593	0.010092
 942	4.7050e-01	9.4049	19.261311	0.000457	4.574421	0.774928	0.009151
 943	4.7100e-01	9.4159	19.318613	0.000573	5.728715	0.970471	0.011460
 944	4.7150e-01	9.4252	19.349830	0.000312	3.120867	0.528689	0.006243
 945	4.7200e-01	9.4348	19.384468	0.000346	3.462880	0.586628	0.006928
 946	4.7250e-01	9.4446	19.465716	0.000812	8.122804	1.376040	0.016250
 947	4.7300e-01	9.4568	19.489236	0.000235	2.351338	0.398327	0.004704
 948	4.7350e-01	9.4666	19.538840	0.000496	4.959186	0.840109	0.009921
 949	4.7400e-01	9.4763	19.592293	0.000534	5.343950	0.905290	0.010691
 950	4.7450e-01	9.4861	19.636339	0.000440	4.403415	0.745959	0.008809
 951	4.7500e-01	9.4946	19.690647	0.000543	5.429453	0.919774	0.010862
 952	4.7550e-01	9.5044	19.726140	0.000355	3.548383	0.601112	0.007099
 953	4.7600e-01	9.5190	19.770186	0.000440	4.403415	0.745959	0.008809
 954	4.7650e-01	9.5258	19.819790	0.000496	4.959186	0.840109	0.009921
 955	4.7700e-01	9.5355	19.889921	0.000701	7.011263	1.187740	0.014026
 956	4.7750e-01	9.5453	19.914295	0.000244	2.436841	0.412812	0.004875
 957	4.7800e-01	9.5560	19.972880	0.000586	5.856969	0.992197	0.011717
 958	4.7850e-01	9.5621	20.019063	0.000462	4.617173	0.782170	0.009237
 959	4.7900e-01	9.5764	20.075082	0.000560	5.600460	0.948744	0.011204
 960	4.7950e-01	9.5868	20.099029	0.000239	2.394090	0.405570	0.004789
 961	4.8000e-01	9.5956	20.167022	0.000680	6.797505	1.151528	0.013598
 962	4.8050e-01	9.6063	20.215343	0.000483	4.830931	0.818382	0.009664
 963	4.8100e-01	9.6149	20.244422	0.000291	2.907109	0.492478	0.005816
 964	4.8150e-01	9.6240	20.294026	0.000496	4.959186	0.840109	0.009921
 965	4.8200e-01	9.6347	20.375703	0.000817	8.165556	1.383283	0.016335
 966	4.8250e-01	9.6454	20.404781	0.000291	2.907109	0.492478	0.005816
 967	4.8300e-01	9.6564	20.445406	0.000406	4.061402	0.688020	0.008125
 968	4.8350e-01	9.6646	20.514681	0.000693	6.925759	1.173255	0.013855
 969	4.8400e-01	9.6741	20.557871	0.000432	4.317912	0.731474	0.008638
 970	4.8450e-01	9.6875	20.611324	0.000534	5.343950	0.905290	0.010691
 971	4.8500e-01	9.6954	20.652804	0.000415	4.146905	0.702505	0.008296
 972	4.8550e-01	9.7052	20.707112	0.000543	5.429453	0.919774	0.010862
 973	4.8600e-01	9.7174	20.771684	0.000646	6.455492	1.093590	0.012914
 974	4.8650e-01	9.7266	20.792638	0.000209	2.094828	0.354874	0.004191
 975	4.8700e-01	9.7375	20.866189	0.000735	7.353275	1.245679	0.014710
 976	4.8750e-01	9.7449	20.896978	0.000308	3.078115	0.521447	0.006158
 977	4.8800e-01	9.7540	20.964543	0.000675	6.754753	1.144286	0.013513
 978	4.8850e-01	9.7650	21.016713	0.000522	5.215695	0.883563	0.010434
 979	4.8900e-01	9.7748	21.032963	0.000162	1.624561	0.275208	0.003250
 980	4.8950e-01	9.7830	21.090692	0.000577	5.771466	0.977713	0.011546
 981	4.9000e-01	9.7931	21.152698	0.000620	6.198982	1.050136	0.012401
 982	4.9050e-01	9.8059	21.209145	0.000564	5.643211	0.955986	0.011289
 983	4.9100e-01	9.8145	21.251907	0.000428	4.275160	0.724232	0.008553
 984	4.9150e-01	9.8242	21.322893	0.000710	7.096766	1.202225	0.014197
 985	4.9200e-01	9.8364	21.370787	0.000479	4.788179	0.811140	0.009579
 986	4.9250e-01	9.8444	21.407990	0.000372	3.719389	0.630082	0.007441
 987	4.9300e-01	9.8560	21.449898	0.000419	4.189657	0.709747	0.008381
 988	4.9350e-01	9.8672	21.503778	0.000539	5.386702	0.912532	0.010776
 989	4.9400e-01	9.8767	21.560653	0.000569	5.685963	0.963228	0.011375
 990	4.9450e-01	9.8871	21.616244	0.000556	5.557708	0.941501	0.011118
 991	4.9500e-01	9.8962	21.668414	0.000522	5.215695	0.883563	0.010434
 992	4.9550e-01	9.9023	21.732558	0.000641	6.412740	1.086348	0.012829
 993	4.9600e-01	9.9153	21.746242	0.000137	1.368051	0.231754	0.002737
 994	4.9650e-01	9.9255	21.820221	0.000740	7.396027	1.252921	0.014796
 995	4.9700e-01	9.9353	21.892490	0.000723	7.225021	1.223952	0.014454
 996	4.9750e-01	9.9457	21.938673	0.000462	4.617173	0.782170	0.009237
 997	4.9800e-01	9.9554	21.985284	0.000466	4.659924	0.789413	0.009322
 998	4.9850e-01	9.9643	22.028475	0.000432	4.317912	0.731474	0.008638
 999	4.9900e-01	9.9744	22.080645	0.000522	5.215695	0.883563	0.010434
1000	4.9950e-01	9.9835	22.140085	0.000594	5.942473	1.006682	0.011888
1001	5.0000e-01	9.9976	22.183703	0.000436	4.360663	0.738716	0.008724
1002	5.0050e-01	9.9835	22.161466	0.000222	2.223083	0.376600	-0.004447
1003	5.0100e-01	9.9719	22.146927	0.000145	1.453554	0.246239	-0.002908
1004	5.0150e-01	9.9652	22.173440	-0.000265	-2.650599	-0.449024	0.005303
1005	5.0200e-01	9.9542	22.162321	0.000111	1.111542	0.188300	-0.002224
1006	5.0250e-01	9.9432	22.168736	-0.000064	-0.641274	-0.108635	0.001283
1007	5.0300e-01	9.9359	22.173867	-0.000051	-0.513019	-0.086908	0.001026
1008	5.0350e-01	9.9249	22.162749	0.000111	1.111542	0.188300	-0.002224
1009	5.0400e-01	9.9152	22.166598	-0.000038	-0.384764	-0.065181	0.000770
1010	5.0450e-01	9.9075	22.141795	0.000248	2.479593	0.420054	-0.004960
1011	5.0500e-01	9.8944	22.148637	-0.000068	-0.684026	-0.115877	0.001368
1012	5.0550e-01	9.8831	22.163604	-0.000150	-1.496306	-0.253481	0.002993
1013	5.0600e-01	9.8746	22.140512	0.000231	2.308586	0.391085	-0.004618
1014	5.0650e-01	9.8630	22.125546	0.000150	1.496306	0.253481	-0.002993
1015	5.0700e-01	9.8547	22.127256	-0.000017	-0.171006	-0.028969	0.000342
1016	5.0750e-01	9.8447	22.102026	0.000252	2.522344	0.427297	-0.005046
1017	5.0800e-01	9.8376	22.111434	-0.000094	-0.940535	-0.159331	0.001882
1018	5.0850e-01	9.8254	22.113572	-0.000021	-0.213758	-0.036212	0.000428
1019	5.0900e-01	9.8132	22.103737	0.000098	0.983287	0.166573	-0.001967
1020	5.0950e-01	9.8035	22.086204	0.000175	1.752816	0.296935	-0.003507
1021	5.1000e-01	9.7943	22.082355	0.000038	0.384764	0.065181	-0.000770
1022	5.1050e-01	9.7833	22.070809	0.000115	1.154293	0.195543	-0.002309
1023	5.1100e-01	9.7748	22.066961	0.000038	0.384764	0.065181	-0.000770
1024	5.1150e-01	9.7662	22.051139	0.000158	1.581809	0.267966	-0.003164
1025	5.1200e-01	9.7546	22.025481	0.000257	2.565096	0.434539	-0.005132
1026	5.1250e-01	9.7464	22.015218	0.000103	1.026038	0.173816	-0.002053
1027	5.1300e-01	9.7357	22.004100	0.000111	1.111542	0.188300	-0.002224
1028	5.1350e-01	9.7241	22.016073	-0.000120	-1.197045	-0.202785	0.002395
1029	5.1400e-01	9.7137	21.981008	0.000351	3.505631	0.593870	-0.007013
1030	5.1450e-01	9.7031	21.987423	-0.000064	-0.641274	-0.108635	0.001283
1031	5.1500e-01	9.6997	21.944660	0.000428	4.275160	0.724232	-0.008553
1032	5.1550e-01	9.6857	21.954068	-0.000094	-0.940535	-0.159331	0.001882
1033	5.1600e-01	9.6732	21.931404	0.000227	2.265835	0.383843	-0.004533
1034	5.1650e-01	9.6661	21.917292	0.000141	1.410803	0.238996	-0.002822
1035	5.1700e-01	9.6539	21.901042	0.000162	1.624561	0.275208	-0.003250
1036	5.1750e-01	9.6436	21.888213	0.000128	1.282548	0.217270	-0.002566
1037	5.1800e-01	9.6332	21.886075	0.000021	0.213758	0.036212	-0.000428
1038	5.1850e-01	9.6252	21.860418	0.000257	2.565096	0.434539	-0.005132
1039	5.1900e-01	9.6155	21.862556	-0.000021	-0.213758	-0.036212	0.000428
1040	5.1950e-01	9.6057	21.830484	0.000321	3.206370	0.543174	-0.006414
1041	5.2000e-01	9.5947	21.830484	-0.000000	-0.000000	-0.000000	0.000000
1042	5.2050e-01	9.5850	21.807392	0.000231	2.308586	0.391085	-0.004618
1043	5.2100e-01	9.5728	21.793281	0.000141	1.410803	0.238996	-0.002822
1044	5.2150e-01	9.5648	21.781307	0.000120	1.197045	0.202785	-0.002395
1045	5.2200e-01	9.5563	21.758643	0.000227	2.265835	0.383843	-0.004533
1046	5.2250e-01	9.5462	21.734696	0.000239	2.394090	0.405570	-0.004789
1047	5.2300e-01	9.5355	21.721867	0.000128	1.282548	0.217270	-0.002566
1048	5.2350e-01	9.5264	21.686802	0.000351	3.505631	0.593870	-0.007013
1049	5.2400e-01	9.5175	21.712032	-0.000252	-2.522344	-0.427297	0.005046
1050	5.2450e-01	9.5056	21.678677	0.000333	3.334625	0.564901	-0.006671
1051	5.2500e-01	9.4974	21.644467	0.000342	3.420128	0.579385	-0.006842
1052	5.2550e-01	9.4818	21.643612	0.000009	0.085503	0.014485	-0.000171
1053	5.2600e-01	9.4772	21.613250	0.000304	3.035364	0.514205	-0.006072
1054	5.2650e-01	9.4653	21.611540	0.000017	0.171006	0.028969	-0.000342
1055	5.2700e-01	9.4550	21.579468	0.000321	3.206370	0.543174	-0.006414
1056	5.2750e-01	9.4476	21.552100	0.000274	2.736102	0.463508	-0.005474
1057	5.2800e-01	9.4373	21.540982	0.000111	1.111542	0.188300	-0.002224
1058	5.2850e-01	9.4266	21.526015	0.000150	1.496306	0.253481	-0.002993
1059	5.2900e-01	9.4156	21.502923	0.000231	2.308586	0.391085	-0.004618
1060	5.2950e-01	9.4064	21.476410	0.000265	2.650599	0.449024	-0.005303
1061	5.3000e-01	9.3961	21.467003	0.000094	0.940535	0.159331	-0.001882
1062	5.3050e-01	9.3848	21.442200	0.000248	2.479593	0.420054	-0.004960
1063	5.3100e-01	9.3756	21.421674	0.000205	2.052077	0.347631	-0.004105
1064	5.3150e-01	9.3642	21.406707	0.000150	1.496306	0.253481	-0.002993
1065	5.3200e-01	9.3567	21.390030	0.000167	1.667312	0.282450	-0.003335
1066	5.3250e-01	9.3451	21.368649	0.000214	2.137580	0.362116	-0.004276
1067	5.3300e-01	9.3359	21.344274	0.000244	2.436841	0.412812	-0.004875
1068	5.3350e-01	9.3243	21.333584	0.000107	1.068790	0.181058	-0.002138
1069	5.3400e-01	9.3158	21.309209	0.000244	2.436841	0.412812	-0.004875
1070	5.3450e-01	9.3051	21.307926	0.000013	0.128255	0.021727	-0.000257
1071	5.3500e-01	9.2935	21.260887	0.000470	4.702676	0.796655	-0.009408
1072	5.3550e-01	9.2859	21.239078	0.000218	2.180332	0.369358	-0.004362
1073	5.3600e-01	9.2773	21.230098	0.000090	0.897784	0.152089	-0.001796
1074	5.3650e-01	9.2627	21.195888	0.000342	3.420128	0.579385	-0.006842
1075	5.3700e-01	9.2584	21.160823	0.000351	3.505631	0.593870	-0.007013
1076	5.3750e-01	9.2456	21.172369	-0.000115	-1.154293	-0.195543	0.002309
1077	5.3800e-01	9.2377	21.144146	0.000282	2.821606	0.477993	-0.005645
1078	5.3850e-01	9.2276	21.119771	0.000244	2.436841	0.412812	-0.004875
1079	5.3900e-01	9.2175	21.105659	0.000141	1.410803	0.238996	-0.002822
1080	5.3950e-01	9.2084	21.073587	0.000321	3.206370	0.543174	-0.006414
1081	5.4000e-01	9.1974	21.042371	0.000312	3.120867	0.528689	-0.006243
1082	5.4050e-01	9.1858	21.038950	0.000034	0.342013	0.057939	-0.000684
1083	5.4100e-01	9.1760	21.004312	0.000346	3.462880	0.586628	-0.006928
1084	5.4150e-01	9.1669	21.001319	0.000030	0.299261	0.050696	-0.000599
1085	5.4200e-01	9.1562	20.944872	0.000564	5.643211	0.955986	-0.011289
1086	5.4250e-01	9.1473	20.950431	-0.000056	-0.555771	-0.094150	0.001112
1087	5.4300e-01	9.1364	20.899544	0.000509	5.087440	0.861836	-0.010177
1088	5.4350e-01	9.1260	20.897406	0.000021	0.213758	0.036212	-0.000428
1089	5.4400e-01	9.1159	20.878163	0.000192	1.923822	0.325904	-0.003849
1090	5.4450e-01	9.1058	20.870038	0.000081	0.812280	0.137604	-0.001625
1091	5.4500e-01	9.0948	20.833262	0.000368	3.676638	0.622839	-0.007355
1092	5.4550e-01	9.0863	20.817440	0.000158	1.581809	0.267966	-0.003164
1093	5.4600e-01	9.0753	20.792638	0.000248	2.479593	0.420054	-0.004960
1094	5.4650e-01	9.0656	20.755862	0.000368	3.676638	0.622839	-0.007355
1095	5.4700e-01	9.0555	20.752013	0.000038	0.384764	0.065181	-0.000770
1096	5.4750e-01	9.0466	20.733198	0.000188	1.881070	0.318662	-0.003763
1097	5.4800e-01	9.0381	20.707540	0.000257	2.565096	0.434539	-0.005132
1098	5.4850e-01	9.0247	20.675468	0.000321	3.206370	0.543174	-0.006414
1099	5.4900e-01	9.0161	20.649811	0.000257	2.565096	0.434539	-0.005132
1100	5.4950e-01	9.0063	20.650666	-0.000009	-0.085503	-0.014485	0.000171
1101	5.5000e-01	8.9954	20.611752	0.000389	3.890396	0.659051	-0.007783
1102	5.5050e-01	8.9862	20.576687	0.000351	3.505631	0.593870	-0.007013
1103	5.5100e-01	8.9771	20.562148	0.000145	1.453554	0.246239	-0.002908
1104	5.5150e-01	8.9676	20.544187	0.000180	1.795567	0.304177	-0.003592
1105	5.5200e-01	8.9545	20.522806	0.000214	2.137580	0.362116	-0.004276
1106	5.5250e-01	8.9453	20.503563	0.000192	1.923822	0.325904	-0.003849
1107	5.5300e-01	8.9368	20.467642	0.000359	3.591134	0.608355	-0.007184
1108	5.5350e-01	8.9258	20.460800	0.000068	0.684026	0.115877	-0.001368
1109	5.5400e-01	8.9185	20.438991	0.000218	2.180332	0.369358	-0.004362
1110	5.5450e-01	8.9078	20.384255	0.000547	5.472205	0.927017	-0.010947
1111	5.5500e-01	8.8947	20.376131	0.000081	0.812280	0.137604	-0.001625
1112	5.5550e-01	8.8843	20.365868	0.000103	1.026038	0.173816	-0.002053
1113	5.5600e-01	8.8766	20.326526	0.000393	3.933147	0.666293	-0.007868
1114	5.5650e-01	8.8647	20.313697	0.000128	1.282548	0.217270	-0.002566
1115	5.5700e-01	8.8565	20.273928	0.000398	3.975899	0.673536	-0.007954
1116	5.5750e-01	8.8446	20.241001	0.000329	3.291873	0.557658	-0.006585
1117	5.5800e-01	8.8354	20.231593	0.000094	0.940535	0.159331	-0.001882
1118	5.5850e-01	8.8269	20.197811	0.000338	3.377376	0.572143	-0.006756
1119	5.5900e-01	8.8153	20.214916	-0.000171	-1.710064	-0.289693	0.003421
1120	5.5950e-01	8.8065	20.170015	0.000449	4.488918	0.760443	-0.008980
1121	5.6000e-01	8.7973	20.136660	0.000333	3.334625	0.564901	-0.006671
1122	5.6050e-01	8.7837	20.115279	0.000214	2.137580	0.362116	-0.004276
1123	5.6100e-01	8.7796	20.073799	0.000415	4.146905	0.702505	-0.008296
1124	5.6150e-01	8.7677	20.063109	0.000107	1.068790	0.181058	-0.002138
1125	5.6200e-01	8.7555	20.039162	0.000239	2.394090	0.405570	-0.004789
1126	5.6250e-01	8.7469	20.013504	0.000257	2.565096	0.434539	-0.005132
1127	5.6300e-01	8.7375	19.998537	0.000150	1.496306	0.253481	-0.002993
1128	5.6350e-01	8.7268	19.967321	0.000312	3.120867	0.528689	-0.006243
1129	5.6400e-01	8.7146	19.951926	0.000154	1.539058	0.260723	-0.003079
1130	5.6450e-01	8.7042	19.922420	0.000295	2.949860	0.499720	-0.005901
1131	5.6500e-01	8.6957	19.899756	0.000227	2.265835	0.383843	-0.004533
1132	5.6550e-01	8.6859	19.857849	0.000419	4.189657	0.709747	-0.008381
1133	5.6600e-01	8.6755	19.827487	0.000304	3.035364	0.514205	-0.006072
1134	5.6650e-01	8.6646	19.827487	-0.000000	-0.000000	-0.000000	0.000000
1135	5.6700e-01	8.6572	19.788146	0.000393	3.933147	0.666293	-0.007868
1136	5.6750e-01	8.6453	19.759495	0.000286	2.864357	0.485235	-0.005730
1137	5.6800e-01	8.6377	19.743245	0.000162	1.624561	0.275208	-0.003250
1138	5.6850e-01	8.6246	19.716732	0.000265	2.650599	0.449024	-0.005303
1139	5.6900e-01	8.6157	19.694068	0.000227	2.265835	0.383843	-0.004533
1140	5.6950e-01	8.6078	19.669266	0.000248	2.479593	0.420054	-0.004960
1141	5.7000e-01	8.5980	19.668411	0.000009	0.085503	0.014485	-0.000171
1142	5.7050e-01	8.5852	19.617523	0.000509	5.087440	0.861836	-0.010177
1143	5.7100e-01	8.5779	19.603839	0.000137	1.368051	0.231754	-0.002737
1144	5.7150e-01	8.5663	19.564925	0.000389	3.890396	0.659051	-0.007783
1145	5.7200e-01	8.5568	19.529432	0.000355	3.548383	0.601112	-0.007099
1146	5.7250e-01	8.5461	19.514038	0.000154	1.539058	0.260723	-0.003079
1147	5.7300e-01	8.5345	19.498643	0.000154	1.539058	0.260723	-0.003079
1148	5.7350e-01	8.5263	19.454598	0.000440	4.403415	0.745959	-0.008809
1149	5.7400e-01	8.5150	19.437065	0.000175	1.752816	0.296935	-0.003507
1150	5.7450e-01	8.5028	19.422954	0.000141	1.410803	0.238996	-0.002822
1151	5.7500e-01	8.4973	19.374632	0.000483	4.830931	0.818382	-0.009664
1152	5.7550e-01	8.4885	19.344271	0.000304	3.035364	0.514205	-0.006072
1153	5.7600e-01	8.4744	19.345981	-0.000017	-0.171006	-0.028969	0.000342
1154	5.7650e-01	8.4644	19.308778	0.000372	3.719389	0.630082	-0.007441
1155	5.7700e-01	8.4583	19.283976	0.000248	2.479593	0.420054	-0.004960
1156	5.7750e-01	8.4454	19.254897	0.000291	2.907109	0.492478	-0.005816
1157	5.7800e-01	8.4351	19.217266	0.000376	3.762141	0.637324	-0.007526
1158	5.7850e-01	8.4235	19.207003	0.000103	1.026038	0.173816	-0.002053
1159	5.7900e-01	8.4137	19.190326	0.000167	1.667312	0.282450	-0.003335
1160	5.7950e-01	8.4052	19.152695	0.000376	3.762141	0.637324	-0.007526
1161	5.8000e-01	8.3948	19.125327	0.000274	2.736102	0.463508	-0.005474
1162	5.8050e-01	8.3838	19.094538	0.000308	3.078115	0.521447	-0.006158
1163	5.8100e-01	8.3768	19.077005	0.000175	1.752816	0.296935	-0.003507
1164	5.8150e-01	8.3667	19.034670	0.000423	4.232408	0.716989	-0.008467
1165	5.8200e-01	8.3563	19.008585	0.000261	2.607848	0.441781	-0.005217
1166	5.8250e-01	8.3466	18.990625	0.000180	1.795567	0.304177	-0.003592
1167	5.8300e-01	8.3347	18.965395	0.000252	2.522344	0.427297	-0.005046
1168	5.8350e-01	8.3240	18.970954	-0.000056	-0.555771	-0.094150	0.001112
1169	5.8400e-01	8.3173	18.915363	0.000556	5.557708	0.941501	-0.011118
1170	5.8450e-01	8.3054	18.891416	0.000239	2.394090	0.405570	-0.004789
1171	5.8500e-01	8.2922	18.860199	0.000312	3.120867	0.528689	-0.006243
1172	5.8550e-01	8.2849	18.817009	0.000432	4.317912	0.731474	-0.008638
1173	5.8600e-01	8.2739	18.805035	0.000120	1.197045	0.202785	-0.002395
1174	5.8650e-01	8.2648	18.788358	0.000167	1.667312	0.282450	-0.003335
1175	5.8700e-01	8.2556	18.736188	0.000522	5.215695	0.883563	-0.010434
1176	5.8750e-01	8.2446	18.726352	0.000098	0.983287	0.166573	-0.001967
1177	5.8800e-01	8.2336	18.683590	0.000428	4.275160	0.724232	-0.008553
1178	5.8850e-01	8.2257	18.684445	-0.000009	-0.085503	-0.014485	0.000171
1179	5.8900e-01	8.2153	18.633130	0.000513	5.130192	0.869078	-0.010263
1180	5.8950e-01	8.2043	18.614742	0.000184	1.838319	0.311420	-0.003678
1181	5.9000e-01	8.1927	18.586946	0.000278	2.778854	0.470751	-0.005559
1182	5.9050e-01	8.1845	18.575400	0.000115	1.154293	0.195543	-0.002309
1183	5.9100e-01	8.1775	18.548460	0.000269	2.693351	0.456266	-0.005388
1184	5.9150e-01	8.1659	18.495862	0.000526	5.258447	0.890805	-0.010520
1185	5.9200e-01	8.1543	18.469777	0.000261	2.607848	0.441781	-0.005217
1186	5.9250e-01	8.1458	18.438988	0.000308	3.078115	0.521447	-0.006158
1187	5.9300e-01	8.1351	18.424876	0.000141	1.410803	0.238996	-0.002822
1188	5.9350e-01	8.1250	18.400074	0.000248	2.479593	0.420054	-0.004960
1189	5.9400e-01	8.1137	18.368857	0.000312	3.120867	0.528689	-0.006243
1190	5.9450e-01	8.1067	18.365009	0.000038	0.384764	0.065181	-0.000770
1191	5.9500e-01	8.0957	18.316687	0.000483	4.830931	0.818382	-0.009664
1192	5.9550e-01	8.0817	18.275208	0.000415	4.146905	0.702505	-0.008296
1193	5.9600e-01	8.0762	18.259385	0.000158	1.581809	0.267966	-0.003164
1194	5.9650e-01	8.0670	18.241425	0.000180	1.795567	0.304177	-0.003592
1195	5.9700e-01	8.0566	18.206788	0.000346	3.462880	0.586628	-0.006928
1196	5.9750e-01	8.0441	18.158893	0.000479	4.788179	0.811140	-0.009579
1197	5.9800e-01	8.0341	18.165735	-0.000068	-0.684026	-0.115877	0.001368
1198	5.9850e-01	8.0228	18.113565	0.000522	5.215695	0.883563	-0.010434
1199	5.9900e-01	8.0151	18.082776	0.000308	3.078115	0.521447	-0.006158
1200	5.9950e-01	8.0042	18.091756	-0.000090	-0.897784	-0.152089	0.001796
1201	6.0000e-01	7.9964	18.031889	0.000599	5.985224	1.013924	-0.011974
1202	6.0050e-01	7.9865	18.030178	0.000017	0.171006	0.028969	-0.000342
1203	6.0100e-01	7.9736	17.996823	0.000333	3.334625	0.564901	-0.006671
1204	6.0150e-01	7.9660	17.946364	0.000504	5.044689	0.854593	-0.010092
1205	6.0200e-01	7.9562	17.915575	0.000308	3.078115	0.521447	-0.006158
1206	6.0250e-01	7.9462	17.915575	-0.000000	-0.000000	-0.000000	0.000000
1207	6.0300e-01	7.9341	17.882648	0.000329	3.291873	0.557658	-0.006585
1208	6.0350e-01	7.9239	17.853997	0.000286	2.864357	0.485235	-0.005730
1209	6.0400e-01	7.9147	17.814655	0.000393	3.933147	0.666293	-0.007868
1210	6.0450e-01	7.9036	17.789425	0.000252	2.522344	0.427297	-0.005046
1211	6.0500e-01	7.8976	17.744097	0.000453	4.531670	0.767686	-0.009066
1212	6.0550e-01	7.8870	17.754788	-0.000107	-1.068790	-0.181058	0.002138
1213	6.0600e-01	7.8748	17.708604	0.000462	4.617173	0.782170	-0.009237
1214	6.0650e-01	7.8659	17.673111	0.000355	3.548383	0.601112	-0.007099
1215	6.0700e-01	7.8552	17.634625	0.000385	3.847644	0.651809	-0.007697
1216	6.0750e-01	7.8474	17.635908	-0.000013	-0.128255	-0.021727	0.000257
1217	6.0800e-01	7.8375	17.588441	0.000475	4.745428	0.803897	-0.009493
1218	6.0850e-01	7.8253	17.560218	0.000282	2.821606	0.477993	-0.005645
1219	6.0900e-01	7.8156	17.529429	0.000308	3.078115	0.521447	-0.006158
1220	6.0950e-01	7.8046	17.494791	0.000346	3.462880	0.586628	-0.006928
1221	6.1000e-01	7.7960	17.463147	0.000316	3.163618	0.535931	-0.006329
1222	6.1050e-01	7.7815	17.462292	0.000009	0.085503	0.014485	-0.000171
1223	6.1100e-01	7.7753	17.413543	0.000487	4.873682	0.825624	-0.009750
1224	6.1150e-01	7.7664	17.404562	0.000090	0.897784	0.152089	-0.001796
1225	6.1200e-01	7.7548	17.367359	0.000372	3.719389	0.630082	-0.007441
1226	6.1250e-01	7.7457	17.343412	0.000239	2.394090	0.405570	-0.004789
1227	6.1300e-01	7.7368	17.294235	0.000492	4.916434	0.832866	-0.009835
1228	6.1350e-01	7.7252	17.275420	0.000188	1.881070	0.318662	-0.003763
1229	6.1400e-01	7.7173	17.222822	0.000526	5.258447	0.890805	-0.010520
1230	6.1450e-01	7.7034	17.210421	0.000124	1.239796	0.210027	-0.002480
1231	6.1500e-01	7.6953	17.195026	0.000154	1.539058	0.260723	-0.003079
1232	6.1550e-01	7.6843	17.184763	0.000103	1.026038	0.173816	-0.002053
1233	6.1600e-01	7.6746	17.136014	0.000487	4.873682	0.825624	-0.009750
1234	6.1650e-01	7.6666	17.129172	0.000068	0.684026	0.115877	-0.001368
1235	6.1700e-01	7.6584	17.102231	0.000269	2.693351	0.456266	-0.005388
1236	6.1750e-01	7.6465	17.048778	0.000534	5.343950	0.905290	-0.010691
1237	6.1800e-01	7.6349	17.033384	0.000154	1.539058	0.260723	-0.003079
1238	6.1850e-01	7.6251	17.006016	0.000274	2.736102	0.463508	-0.005474
1239	6.1900e-01	7.6166	16.955556	0.000504	5.044689	0.854593	-0.010092
1240	6.1950e-01	7.6068	16.955984	-0.000004	-0.042752	-0.007242	0.000086
1241	6.2000e-01	7.5970	16.929898	0.000261	2.607848	0.441781	-0.005217
1242	6.2050e-01	7.5861	16.863617	0.000663	6.626498	1.122559	-0.013256
1243	6.2100e-01	7.5763	16.863189	0.000004	0.042752	0.007242	-0.000086
1244	6.2150e-01	7.5665	16.820426	0.000428	4.275160	0.724232	-0.008553
1245	6.2200e-01	7.5549	16.813157	0.000073	0.726777	0.123119	-0.001454
1246	6.2250e-01	7.5452	16.778091	0.000351	3.505631	0.593870	-0.007013
1247	6.2300e-01	7.5336	16.724638	0.000534	5.343950	0.905290	-0.010691
1248	6.2350e-01	7.5256	16.696843	0.000278	2.778854	0.470751	-0.005559
1249	6.2400e-01	7.5159	16.693422	0.000034	0.342013	0.057939	-0.000684
1250	6.2450e-01	7.5067	16.629278	0.000641	6.412740	1.086348	-0.012829
1251	6.2500e-01	7.4963	16.624574	0.000047	0.470268	0.079665	-0.000941
1252	6.2550e-01	7.4869	16.582239	0.000423	4.232408	0.716989	-0.008467
1253	6.2600e-01	7.4762	16.571121	0.000111	1.111542	0.188300	-0.002224
1254	6.2650e-01	7.4643	16.533490	0.000376	3.762141	0.637324	-0.007526
1255	6.2700e-01	7.4561	16.511681	0.000218	2.180332	0.369358	-0.004362
1256	6.2750e-01	7.4445	16.474905	0.000368	3.676638	0.622839	-0.007355
1257	6.2800e-01	7.4365	16.445399	0.000295	2.949860	0.499720	-0.005901
1258	6.2850e-01	7.4271	16.424873	0.000205	2.052077	0.347631	-0.004105
1259	6.2900e-01	7.4165	16.386387	0.000385	3.847644	0.651809	-0.007697
1260	6.2950e-01	7.4048	16.360729	0.000257	2.565096	0.434539	-0.005132
1261	6.3000e-01	7.3929	16.332506	0.000282	2.821606	0.477993	-0.005645
1262	6.3050e-01	7.3886	16.302572	0.000299	2.992612	0.506962	-0.005987
1263	6.3100e-01	7.3758	16.263231	0.000393	3.933147	0.666293	-0.007868
1264	6.3150e-01	7.3645	16.248264	0.000150	1.496306	0.253481	-0.002993
1265	6.3200e-01	7.3547	16.217902	0.000304	3.035364	0.514205	-0.006072
1266	6.3250e-01	7.3450	16.181554	0.000363	3.633886	0.615597	-0.007270
1267	6.3300e-01	7.3334	16.155469	0.000261	2.607848	0.441781	-0.005217
1268	6.3350e-01	7.3225	16.127246	0.000282	2.821606	0.477993	-0.005645
1269	6.3400e-01	7.3157	16.081062	0.000462	4.617173	0.782170	-0.009237
1270	6.3450e-01	7.3035	16.057115	0.000239	2.394090	0.405570	-0.004789
1271	6.3500e-01	7.2957	16.038300	0.000188	1.881070	0.318662	-0.003763
1272	6.3550e-01	7.2858	16.002807	0.000355	3.548383	0.601112	-0.007099
1273	6.3600e-01	7.2754	15.975866	0.000269	2.693351	0.456266	-0.005388
1274	6.3650e-01	7.2638	15.949354	0.000265	2.650599	0.449024	-0.005303
1275	6.3700e-01	7.2565	15.917709	0.000316	3.163618	0.535931	-0.006329
1276	6.3750e-01	7.2440	15.893762	0.000239	2.394090	0.405570	-0.004789
1277	6.3800e-01	7.2351	15.849717	0.000440	4.403415	0.745959	-0.008809
1278	6.3850e-01	7.2247	15.807382	0.000423	4.232408	0.716989	-0.008467
1279	6.3900e-01	7.2156	15.788139	0.000192	1.923822	0.325904	-0.003849
1280	6.3950e-01	7.2083	15.752646	0.000355	3.548383	0.601112	-0.007099
1281	6.4000e-01	7.1982	15.724423	0.000282	2.821606	0.477993	-0.005645
1282	6.4050e-01	7.1857	15.692779	0.000316	3.163618	0.535931	-0.006329
1283	6.4100e-01	7.1753	15.664555	0.000282	2.821606	0.477993	-0.005645
1284	6.4150e-01	7.1646	15.659851	0.000047	0.470268	0.079665	-0.000941
1285	6.4200e-01	7.1552	15.615806	0.000440	4.403415	0.745959	-0.008809
1286	6.4250e-01	7.1478	15.595708	0.000201	2.009325	0.340389	-0.004020
1287	6.4300e-01	7.1356	15.563636	0.000321	3.206370	0.543174	-0.006414
1288	6.4350e-01	7.1240	15.509755	0.000539	5.386702	0.912532	-0.010776
1289	6.4400e-01	7.1173	15.494788	0.000150	1.496306	0.253481	-0.002993
1290	6.4450e-01	7.1069	15.461861	0.000329	3.291873	0.557658	-0.006585
1291	6.4500e-01	7.0972	15.434493	0.000274	2.736102	0.463508	-0.005474
1292	6.4550e-01	7.0856	15.399428	0.000351	3.505631	0.593870	-0.007013
1293	6.4600e-01	7.0743	15.377619	0.000218	2.180332	0.369358	-0.004362
1294	6.4650e-01	7.0642	15.339560	0.000380	3.804892	0.644566	-0.007612
1295	6.4700e-01	7.0551	15.301929	0.000376	3.762141	0.637324	-0.007526
1296	6.4750e-01	7.0461	15.278837	0.000231	2.308586	0.391085	-0.004618
1297	6.4800e-01	7.0370	15.260877	0.000180	1.795567	0.304177	-0.003592
1298	6.4850e-01	7.0258	15.226667	0.000342	3.420128	0.579385	-0.006842
1299	6.4900e-01	7.0148	15.195450	0.000312	3.120867	0.528689	-0.006243
1300	6.4950e-01	7.0044	15.163378	0.000321	3.206370	0.543174	-0.006414
1301	6.5000e-01	6.9952	15.121044	0.000423	4.232408	0.716989	-0.008467
1302	6.5050e-01	6.9836	15.092820	0.000282	2.821606	0.477993	-0.005645
1303	6.5100e-01	6.9757	15.063314	0.000295	2.949860	0.499720	-0.005901
1304	6.5150e-01	6.9666	15.026111	0.000372	3.719389	0.630082	-0.007441
1305	6.5200e-01	6.9543	15.001308	0.000248	2.479593	0.420054	-0.004960
1306	6.5250e-01	6.9476	14.955980	0.000453	4.531670	0.767686	-0.009066
1307	6.5300e-01	6.9391	14.929467	0.000265	2.650599	0.449024	-0.005303
1308	6.5350e-01	6.9250	14.921770	0.000077	0.769529	0.130362	-0.001539
1309	6.5400e-01	6.9153	14.895685	0.000261	2.607848	0.441781	-0.005217
1310	6.5450e-01	6.9063	14.839666	0.000560	5.600460	0.948744	-0.011204
1311	6.5500e-01	6.8942	14.828548	0.000111	1.111542	0.188300	-0.002224
1312	6.5550e-01	6.8872	14.789634	0.000389	3.890396	0.659051	-0.007783
1313	6.5600e-01	6.8781	14.752431	0.000372	3.719389	0.630082	-0.007441
1314	6.5650e-01	6.8677	14.732760	0.000197	1.966574	0.333147	-0.003934
1315	6.5700e-01	6.8552	14.711379	0.000214	2.137580	0.362116	-0.004276
1316	6.5750e-01	6.8494	14.647662	0.000637	6.369989	1.079105	-0.012743
1317	6.5800e-01	6.8359	14.642531	0.000051	0.513019	0.086908	-0.001026
1318	6.5850e-01	6.8274	14.605755	0.000368	3.676638	0.622839	-0.007355
1319	6.5900e-01	6.8170	14.577959	0.000278	2.778854	0.470751	-0.005559
1320	6.5950e-01	6.8060	14.542467	0.000355	3.548383	0.601112	-0.007099
1321	6.6000e-01	6.7963	14.508257	0.000342	3.420128	0.579385	-0.006842
1322	6.6050e-01	6.7865	14.471481	0.000368	3.676638	0.622839	-0.007355
1323	6.6100e-01	6.7764	14.447961	0.000235	2.351338	0.398327	-0.004704
1324	6.6150e-01	6.7657	14.413324	0.000346	3.462880	0.586628	-0.006928
1325	6.6200e-01	6.7580	14.397074	0.000162	1.624561	0.275208	-0.003250
1326	6.6250e-01	6.7453	14.350890	0.000462	4.617173	0.782170	-0.009237
1327	6.6300e-01	6.7352	14.315398	0.000355	3.548383	0.601112	-0.007099
1328	6.6350e-01	6.7261	14.293161	0.000222	2.223083	0.376600	-0.004447
1329	6.6400e-01	6.7184	14.253392	0.000398	3.975899	0.673536	-0.007954
1330	6.6450e-01	6.7065	14.236287	0.000171	1.710064	0.289693	-0.003421
1331	6.6500e-01	6.6957	14.201649	0.000346	3.462880	0.586628	-0.006928
1332	6.6550e-01	6.6850	14.150762	0.000509	5.087440	0.861836	-0.010177
1333	6.6600e-01	6.6754	14.118262	0.000325	3.249122	0.550416	-0.006500
1334	6.6650e-01	6.6634	14.120400	-0.000021	-0.213758	-0.036212	0.000428
1335	6.6700e-01	6.6541	14.059678	0.000607	6.070727	1.028409	-0.012145
1336	6.6750e-01	6.6437	14.048132	0.000115	1.154293	0.195543	-0.002309
1337	6.6800e-01	6.6353	14.008363	0.000398	3.975899	0.673536	-0.007954
1338	6.6850e-01	6.6266	13.991258	0.000171	1.710064	0.289693	-0.003421
1339	6.6900e-01	6.6132	13.954482	0.000368	3.676638	0.622839	-0.007355
1340	6.6950e-01	6.6058	13.902739	0.000517	5.172944	0.876320	-0.010349
1341	6.7000e-01	6.5973	13.901884	0.000009	0.085503	0.014485	-0.000171
1342	6.7050e-01	6.5833	13.841161	0.000607	6.070727	1.028409	-0.012145
1343	6.7100e-01	6.5771	13.803958	0.000372	3.719389	0.630082	-0.007441
1344	6.7150e-01	6.5640	13.783859	0.000201	2.009325	0.340389	-0.004020
1345	6.7200e-01	6.5552	13.763333	0.000205	2.052077	0.347631	-0.004105
1346	6.7250e-01	6.5460	13.734682	0.000286	2.864357	0.485235	-0.005730
1347	6.7300e-01	6.5363	13.694486	0.000402	4.018650	0.680778	-0.008039
1348	6.7350e-01	6.5247	13.659420	0.000351	3.505631	0.593870	-0.007013
1349	6.7400e-01	6.5155	13.638894	0.000205	2.052077	0.347631	-0.004105
1350	6.7450e-01	6.5051	13.574323	0.000646	6.455492	1.093590	-0.012914
1351	6.7500e-01	6.4961	13.573895	0.000004	0.042752	0.007242	-0.000086
1352	6.7550e-01	6.4841	13.543534	0.000304	3.035364	0.514205	-0.006072
1353	6.7600e-01	6.4771	13.497778	0.000457	4.574421	0.774928	-0.009151
1354	6.7650e-01	6.4655	13.444752	0.000530	5.301199	0.898047	-0.010605
1355	6.7700e-01	6.4539	13.435345	0.000094	0.940535	0.159331	-0.001882
1356	6.7750e-01	6.4454	13.417812	0.000175	1.752816	0.296935	-0.003507
1357	6.7800e-01	6.4331	13.360510	0.000573	5.728715	0.970471	-0.011460
1358	6.7850e-01	6.4252	13.338701	0.000218	2.180332	0.369358	-0.004362
1359	6.7900e-01	6.4166	13.318603	0.000201	2.009325	0.340389	-0.004020
1360	6.7950e-01	6.4050	13.266005	0.000526	5.258447	0.890805	-0.010520
1361	6.8000e-01	6.3965	13.252321	0.000137	1.368051	0.231754	-0.002737
1362	6.8050e-01	6.3858	13.218539	0.000338	3.377376	0.572143	-0.006756
1363	6.8100e-01	6.3748	13.183046	0.000355	3.548383	0.601112	-0.007099
1364	6.8150e-01	6.3643	13.151829	0.000312	3.120867	0.528689	-0.006243
1365	6.8200e-01	6.3562	13.109494	0.000423	4.232408	0.716989	-0.008467
1366	6.8250e-01	6.3464	13.088541	0.000209	2.094828	0.354874	-0.004191
1367	6.8300e-01	6.3373	13.033377	0.000551	5.514957	0.934259	-0.011033
1368	6.8350e-01	6.3251	13.005154	0.000282	2.821606	0.477993	-0.005645
1369	6.8400e-01	6.3165	12.971799	0.000333	3.334625	0.564901	-0.006671
1370	6.8450e-01	6.3049	12.951701	0.000201	2.009325	0.340389	-0.004020
1371	6.8500e-01	6.2955	12.932030	0.000197	1.966574	0.333147	-0.003934
1372	6.8550e-01	6.2872	12.888840	0.000432	4.317912	0.731474	-0.008638
1373	6.8600e-01	6.2769	12.839663	0.000492	4.916434	0.832866	-0.009835
1374	6.8650e-01	6.2634	12.804170	0.000355	3.548383	0.601112	-0.007099
1375	6.8700e-01	6.2543	12.791769	0.000124	1.239796	0.210027	-0.002480
1376	6.8750e-01	6.2442	12.753710	0.000380	3.804892	0.644566	-0.007612
1377	6.8800e-01	6.2372	12.715651	0.000380	3.804892	0.644566	-0.007612
1378	6.8850e-01	6.2250	12.691277	0.000244	2.436841	0.412812	-0.004875
1379	6.8900e-01	6.2158	12.650652	0.000406	4.061402	0.688020	-0.008125
1380	6.8950e-01	6.2054	12.621574	0.000291	2.907109	0.492478	-0.005816
1381	6.9000e-01	6.1926	12.576246	0.000453	4.531670	0.767686	-0.009066
1382	6.9050e-01	6.1873	12.529207	0.000470	4.702676	0.796655	-0.009408
1383	6.9100e-01	6.1749	12.539470	-0.000103	-1.026038	-0.173816	0.002053
1384	6.9150e-01	6.1668	12.502266	0.000372	3.719389	0.630082	-0.007441
1385	6.9200e-01	6.1572	12.456510	0.000457	4.574421	0.774928	-0.009151
1386	6.9250e-01	6.1441	12.418879	0.000376	3.762141	0.637324	-0.007526
1387	6.9300e-01	6.1353	12.392367	0.000265	2.650599	0.449024	-0.005303
1388	6.9350e-01	6.1273	12.372696	0.000197	1.966574	0.333147	-0.003934
1389	6.9400e-01	6.1169	12.341052	0.000316	3.163618	0.535931	-0.006329
1390	6.9450e-01	6.1035	12.306414	0.000346	3.462880	0.586628	-0.006928
1391	6.9500e-01	6.0950	12.266645	0.000398	3.975899	0.673536	-0.007954
1392	6.9550e-01	6.0857	12.223027	0.000436	4.360663	0.738716	-0.008724
1393	6.9600e-01	6.0791	12.191810	0.000312	3.120867	0.528689	-0.006243
1394	6.9650e-01	6.0646	12.157600	0.000342	3.420128	0.579385	-0.006842
1395	6.9700e-01	6.0559	12.124673	0.000329	3.291873	0.557658	-0.006585
1396	6.9750e-01	6.0461	12.101581	0.000231	2.308586	0.391085	-0.004618
1397	6.9800e-01	6.0352	12.058819	0.000428	4.275160	0.724232	-0.008553
1398	6.9850e-01	6.0242	12.033161	0.000257	2.565096	0.434539	-0.005132
1399	6.9900e-01	6.0168	11.991254	0.000419	4.189657	0.709747	-0.008381
1400	6.9950e-01	6.0025	11.916420	0.000748	7.481530	1.267406	-0.014967
1401	7.0000e-01	5.9930	11.918985	-0.000026	-0.256510	-0.043454	0.000513
1402	7.0050e-01	5.9845	11.899742	0.000192	1.923822	0.325904	-0.003849
1403	7.0100e-01	5.9766	11.840730	0.000590	5.899721	0.999440	-0.011802
1404	7.0150e-01	5.9677	11.815500	0.000252	2.522344	0.427297	-0.005046
1405	7.0200e-01	5.9576	11.780007	0.000355	3.548383	0.601112	-0.007099
1406	7.0250e-01	5.9460	11.767606	0.000124	1.239796	0.210027	-0.002480
1407	7.0300e-01	5.9338	11.732113	0.000355	3.548383	0.601112	-0.007099
1408	7.0350e-01	5.9265	11.702607	0.000295	2.949860	0.499720	-0.005901
1409	7.0400e-01	5.9137	11.674811	0.000278	2.778854	0.470751	-0.005559
1410	7.0450e-01	5.9058	11.631621	0.000432	4.317912	0.731474	-0.008638
1411	7.0500e-01	5.8966	11.570898	0.000607	6.070727	1.028409	-0.012145
1412	7.0550e-01	5.8850	11.556787	0.000141	1.410803	0.238996	-0.002822
1413	7.0600e-01	5.8771	11.517445	0.000393	3.933147	0.666293	-0.007868
1414	7.0650e-01	5.8636	11.481952	0.000355	3.548383	0.601112	-0.007099
1415	7.0700e-01	5.8545	11.458005	0.000239	2.394090	0.405570	-0.004789
1416	7.0750e-01	5.8444	11.425934	0.000321	3.206370	0.543174	-0.006414
1417	7.0800e-01	5.8368	11.389585	0.000363	3.633886	0.615597	-0.007270
1418	7.0850e-01	5.8231	11.343829	0.000457	4.574421	0.774928	-0.009151
1419	7.0900e-01	5.8154	11.311330	0.000325	3.249122	0.550416	-0.006500
1420	7.0950e-01	5.8032	11.274554	0.000368	3.676638	0.622839	-0.007355
1421	7.1000e-01	5.7959	11.251462	0.000231	2.308586	0.391085	-0.004618
1422	7.1050e-01	5.7861	11.219818	0.000316	3.163618	0.535931	-0.006329
1423	7.1100e-01	5.7784	11.184325	0.000355	3.548383	0.601112	-0.007099
1424	7.1150e-01	5.7654	11.164654	0.000197	1.966574	0.333147	-0.003934
1425	7.1200e-01	5.7571	11.107780	0.000569	5.685963	0.963228	-0.011375
1426	7.1250e-01	5.7458	11.069722	0.000380	3.804892	0.644566	-0.007612
1427	7.1300e-01	5.7352	11.053044	0.000167	1.667312	0.282450	-0.003335
1428	7.1350e-01	5.7251	11.023966	0.000291	2.907109	0.492478	-0.005816
1429	7.1400e-01	5.7141	10.982058	0.000419	4.189657	0.709747	-0.008381
1430	7.1450e-01	5.7047	10.926895	0.000551	5.514957	0.934259	-0.011033
1431	7.1500e-01	5.6964	10.912356	0.000145	1.453554	0.246239	-0.002908
1432	7.1550e-01	5.6842	10.886698	0.000257	2.565096	0.434539	-0.005132
1433	7.1600e-01	5.6760	10.839232	0.000475	4.745428	0.803897	-0.009493
1434	7.1650e-01	5.6632	10.809726	0.000295	2.949860	0.499720	-0.005901
1435	7.1700e-01	5.6531	10.778936	0.000308	3.078115	0.521447	-0.006158
1436	7.1750e-01	5.6460	10.734036	0.000449	4.488918	0.760443	-0.008980
1437	7.1800e-01	5.6363	10.722918	0.000111	1.111542	0.188300	-0.002224
1438	7.1850e-01	5.6256	10.668182	0.000547	5.472205	0.927017	-0.010947
1439	7.1900e-01	5.6152	10.637820	0.000304	3.035364	0.514205	-0.006072
1440	7.1950e-01	5.6042	10.610880	0.000269	2.693351	0.456266	-0.005388
1441	7.2000e-01	5.5957	10.556571	0.000543	5.429453	0.919774	-0.010862
1442	7.2050e-01	5.5829	10.530486	0.000261	2.607848	0.441781	-0.005217
1443	7.2100e-01	5.5737	10.492428	0.000380	3.804892	0.644566	-0.007612
1444	7.2150e-01	5.5688	10.453514	0.000389	3.890396	0.659051	-0.007783
1445	7.2200e-01	5.5554	10.424008	0.000295	2.949860	0.499720	-0.005901
1446	7.2250e-01	5.5507	10.407330	0.000167	1.667312	0.282450	-0.003335
1447	7.2300e-01	5.5380	10.373548	0.000338	3.377376	0.572143	-0.006756
1448	7.2350e-01	5.5290	10.318812	0.000547	5.472205	0.927017	-0.010947
1449	7.2400e-01	5.5164	10.277332	0.000415	4.146905	0.702505	-0.008296
1450	7.2450e-01	5.5032	10.228155	0.000492	4.916434	0.832866	-0.009835
1451	7.2500e-01	5.4938	10.208484	0.000197	1.966574	0.333147	-0.003934
1452	7.2550e-01	5.4880	10.173419	0.000351	3.505631	0.593870	-0.007013
1453	7.2600e-01	5.4761	10.133650	0.000398	3.975899	0.673536	-0.007954
1454	7.2650e-01	5.4688	10.119111	0.000145	1.453554	0.246239	-0.002908
1455	7.2700e-01	5.4535	10.088322	0.000308	3.078115	0.521447	-0.006158
1456	7.2750e-01	5.4456	10.027171	0.000611	6.113479	1.035651	-0.012230
1457	7.2800e-01	5.4346	10.005790	0.000214	2.137580	0.362116	-0.004276
1458	7.2850e-01	5.4260	9.970725	0.000351	3.505631	0.593870	-0.007013
1459	7.2900e-01	5.4150	9.954903	0.000158	1.581809	0.267966	-0.003164
1460	7.2950e-01	5.4128	9.897601	0.000573	5.728715	0.970471	-0.011460
1461	7.3000e-01	5.3961	9.863391	0.000342	3.420128	0.579385	-0.006842
1462	7.3050e-01	5.3851	9.834312	0.000291	2.907109	0.492478	-0.005816
1463	7.3100e-01	5.3778	9.796681	0.000376	3.762141	0.637324	-0.007526
1464	7.3150e-01	5.3647	9.761616	0.000351	3.505631	0.593870	-0.007013
1465	7.3200e-01	5.3592	9.722702	0.000389	3.890396	0.659051	-0.007783
1466	7.3250e-01	5.3430	9.676519	0.000462	4.617173	0.782170	-0.009237
1467	7.3300e-01	5.3387	9.665828	0.000107	1.068790	0.181058	-0.002138
1468	7.3350e-01	5.3300	9.628197	0.000376	3.762141	0.637324	-0.007526
1469	7.3400e-01	5.3149	9.568757	0.000594	5.942473	1.006682	-0.011888
1470	7.3450e-01	5.3070	9.546948	0.000218	2.180332	0.369358	-0.004362
1471	7.3500e-01	5.2966	9.517014	0.000299	2.992612	0.506962	-0.005987
1472	7.3550e-01	5.2863	9.466982	0.000500	5.001937	0.847351	-0.010006
1473	7.3600e-01	5.2757	9.430206	0.000368	3.676638	0.622839	-0.007355
1474	7.3650e-01	5.2649	9.399417	0.000308	3.078115	0.521447	-0.006158
1475	7.3700e-01	5.2563	9.364780	0.000346	3.462880	0.586628	-0.006928
1476	7.3750e-01	5.2434	9.327576	0.000372	3.719389	0.630082	-0.007441
1477	7.3800e-01	5.2359	9.296360	0.000312	3.120867	0.528689	-0.006243
1478	7.3850e-01	5.2240	9.265571	0.000308	3.078115	0.521447	-0.006158
1479	7.3900e-01	5.2130	9.229222	0.000363	3.633886	0.615597	-0.007270
1480	7.3950e-01	5.2042	9.183467	0.000457	4.574421	0.774928	-0.009151
1481	7.4000e-01	5.1935	9.168072	0.000154	1.539058	0.260723	-0.003079
1482	7.4050e-01	5.1849	9.128731	0.000393	3.933147	0.666293	-0.007868
1483	7.4100e-01	5.1764	9.087251	0.000415	4.146905	0.702505	-0.008296
1484	7.4150e-01	5.1672	9.052613	0.000346	3.462880	0.586628	-0.006928
1485	7.4200e-01	5.1546	9.020541	0.000321	3.206370	0.543174	-0.006414
1486	7.4250e-01	5.1448	8.973075	0.000475	4.745428	0.803897	-0.009493
1487	7.4300e-01	5.1361	8.943996	0.000291	2.907109	0.492478	-0.005816
1488	7.4350e-01	5.1270	8.899523	0.000445	4.446166	0.753201	-0.008895
1489	7.4400e-01	5.1169	8.860182	0.000393	3.933147	0.666293	-0.007868
1490	7.4450e-01	5.1071	8.828965	0.000312	3.120867	0.528689	-0.006243
1491	7.4500e-01	5.0958	8.809722	0.000192	1.923822	0.325904	-0.003849
1492	7.4550e-01	5.0861	8.747289	0.000624	6.241734	1.057378	-0.012487
1493	7.4600e-01	5.0734	8.710513	0.000368	3.676638	0.622839	-0.007355
1494	7.4650e-01	5.0659	8.682717	0.000278	2.778854	0.470751	-0.005559
1495	7.4700e-01	5.0549	8.647224	0.000355	3.548383	0.601112	-0.007099
1496	7.4750e-01	5.0441	8.608738	0.000385	3.847644	0.651809	-0.007697
1497	7.4800e-01	5.0320	8.580087	0.000286	2.864357	0.485235	-0.005730
1498	7.4850e-01	5.0275	8.522786	0.000573	5.728715	0.970471	-0.011460
1499	7.4900e-01	5.0159	8.490286	0.000325	3.249122	0.550416	-0.006500
1500	7.4950e-01	5.0050	8.462063	0.000282	2.821606	0.477993	-0.005645
1501	7.5000e-01	4.9942	8.409037	0.000530	5.301199	0.898047	-0.010605
1502	7.5050e-01	4.9881	8.408610	0.000004	0.042752	0.007242	-0.000086
1503	7.5100e-01	4.9774	8.375255	0.000333	3.334625	0.564901	-0.006671
1504	7.5150e-01	4.9680	8.327788	0.000475	4.745428	0.803897	-0.009493
1505	7.5200e-01	4.9548	8.292723	0.000351	3.505631	0.593870	-0.007013
1506	7.5250e-01	4.9466	8.242263	0.000504	5.044689	0.854593	-0.010092
1507	7.5300e-01	4.9377	8.224731	0.000175	1.752816	0.296935	-0.003507
1508	7.5350e-01	4.9268	8.176409	0.000483	4.830931	0.818382	-0.009664
1509	7.5400e-01	4.9170	8.131508	0.000449	4.488918	0.760443	-0.008980
1510	7.5450e-01	4.9072	8.085753	0.000457	4.574421	0.774928	-0.009151
1511	7.5500e-01	4.8962	8.062661	0.000231	2.308586	0.391085	-0.004618
1512	7.5550e-01	4.8859	8.025457	0.000372	3.719389	0.630082	-0.007441
1513	7.5600e-01	4.8773	7.971577	0.000539	5.386702	0.912532	-0.010776
1514	7.5650e-01	4.8654	7.940788	0.000308	3.078115	0.521447	-0.006158
1515	7.5700e-01	4.8553	7.913847	0.000269	2.693351	0.456266	-0.005388
1516	7.5750e-01	4.8474	7.889900	0.000239	2.394090	0.405570	-0.004789
1517	7.5800e-01	4.8358	7.831315	0.000586	5.856969	0.992197	-0.011717
1518	7.5850e-01	4.8248	7.787698	0.000436	4.360663	0.738716	-0.008724
1519	7.5900e-01	4.8175	7.775297	0.000124	1.239796	0.210027	-0.002480
1520	7.5950e-01	4.8059	7.724837	0.000504	5.044689	0.854593	-0.010092
1521	7.6000e-01	4.7974	7.688489	0.000363	3.633886	0.615597	-0.007270
1522	7.6050e-01	4.7852	7.644016	0.000445	4.446166	0.753201	-0.008895
1523	7.6100e-01	4.7791	7.606385	0.000376	3.762141	0.637324	-0.007526
1524	7.6150e-01	4.7668	7.591418	0.000150	1.496306	0.253481	-0.002993
1525	7.6200e-01	4.7546	7.545662	0.000457	4.574421	0.774928	-0.009151
1526	7.6250e-01	4.7446	7.499478	0.000462	4.617173	0.782170	-0.009237
1527	7.6300e-01	4.7382	7.451157	0.000483	4.830931	0.818382	-0.009664
1528	7.6350e-01	4.7256	7.423361	0.000278	2.778854	0.470751	-0.005559
1529	7.6400e-01	4.7156	7.380171	0.000432	4.317912	0.731474	-0.008638
1530	7.6450e-01	4.7070	7.360072	0.000201	2.009325	0.340389	-0.004020
1531	7.6500e-01	4.6942	7.330566	0.000295	2.949860	0.499720	-0.005901
1532	7.6550e-01	4.6863	7.277968	0.000526	5.258447	0.890805	-0.010520
1533	7.6600e-01	4.6741	7.225798	0.000522	5.215695	0.883563	-0.010434
1534	7.6650e-01	4.6643	7.212114	0.000137	1.368051	0.231754	-0.002737
1535	7.6700e-01	4.6548	7.155668	0.000564	5.643211	0.955986	-0.011289
1536	7.6750e-01	4.6474	7.122313	0.000333	3.334625	0.564901	-0.006671
1537	7.6800e-01	4.6381	7.091524	0.000308	3.078115	0.521447	-0.006158
1538	7.6850e-01	4.6246	7.042774	0.000487	4.873682	0.825624	-0.009750
1539	7.6900e-01	4.6150	7.012413	0.000304	3.035364	0.514205	-0.006072
1540	7.6950e-01	4.6061	6.966230	0.000462	4.617173	0.782170	-0.009237
1541	7.7000e-01	4.5950	6.964947	0.000013	0.128255	0.021727	-0.000257
1542	7.7050e-01	4.5845	6.914059	0.000509	5.087440	0.861836	-0.010177
1543	7.7100e-01	4.5743	6.868303	0.000457	4.574421	0.774928	-0.009151
1544	7.7150e-01	4.5667	6.822547	0.000457	4.574421	0.774928	-0.009151
1545	7.7200e-01	4.5563	6.773798	0.000487	4.873682	0.825624	-0.009750
1546	7.7250e-01	4.5478	6.764390	0.000094	0.940535	0.159331	-0.001882
1547	7.7300e-01	4.5377	6.703668	0.000607	6.070727	1.028409	-0.012145
1548	7.7350e-01	4.5236	6.673734	0.000299	2.992612	0.506962	-0.005987
1549	7.7400e-01	4.5154	6.645083	0.000286	2.864357	0.485235	-0.005730
1550	7.7450e-01	4.5062	6.579229	0.000658	6.583747	1.115317	-0.013171
1551	7.7500e-01	4.4962	6.547157	0.000321	3.206370	0.543174	-0.006414
1552	7.7550e-01	4.4830	6.503539	0.000436	4.360663	0.738716	-0.008724
1553	7.7600e-01	4.4745	6.471467	0.000321	3.206370	0.543174	-0.006414
1554	7.7650e-01	4.4659	6.438112	0.000333	3.334625	0.564901	-0.006671
1555	7.7700e-01	4.4559	6.404330	0.000338	3.377376	0.572143	-0.006756
1556	7.7750e-01	4.4464	6.366699	0.000376	3.762141	0.637324	-0.007526
1557	7.7800e-01	4.4345	6.325219	0.000415	4.146905	0.702505	-0.008296
1558	7.7850e-01	4.4258	6.288016	0.000372	3.719389	0.630082	-0.007441
1559	7.7900e-01	4.4150	6.255944	0.000321	3.206370	0.543174	-0.006414
1560	7.7950e-01	4.4046	6.222162	0.000338	3.377376	0.572143	-0.006756
1561	7.8000e-01	4.3973	6.170419	0.000517	5.172944	0.876320	-0.010349
1562	7.8050e-01	4.3857	6.124235	0.000462	4.617173	0.782170	-0.009237
1563	7.8100e-01	4.3750	6.099861	0.000244	2.436841	0.412812	-0.004875
1564	7.8150e-01	4.3654	6.043842	0.000560	5.600460	0.948744	-0.011204
1565	7.8200e-01	4.3552	6.027592	0.000162	1.624561	0.275208	-0.003250
1566	7.8250e-01	4.3427	5.980981	0.000466	4.659924	0.789413	-0.009322
1567	7.8300e-01	4.3390	5.936508	0.000445	4.446166	0.753201	-0.008895
1568	7.8350e-01	4.3268	5.901443	0.000351	3.505631	0.593870	-0.007013
1569	7.8400e-01	4.3164	5.857397	0.000440	4.403415	0.745959	-0.008809
1570	7.8450e-01	4.3091	5.836016	0.000214	2.137580	0.362116	-0.004276
1571	7.8500e-01	4.2969	5.762464	0.000735	7.353275	1.245679	-0.014710
1572	7.8550e-01	4.2853	5.733813	0.000286	2.864357	0.485235	-0.005730
1573	7.8600e-01	4.2734	5.681643	0.000522	5.215695	0.883563	-0.010434
1574	7.8650e-01	4.2628	5.652137	0.000295	2.949860	0.499720	-0.005901
1575	7.8700e-01	4.2551	5.610657	0.000415	4.146905	0.702505	-0.008296
1576	7.8750e-01	4.2429	5.567040	0.000436	4.360663	0.738716	-0.008724
1577	7.8800e-01	4.2343	5.550362	0.000167	1.667312	0.282450	-0.003335
1578	7.8850e-01	4.2261	5.512731	0.000376	3.762141	0.637324	-0.007526
1579	7.8900e-01	4.2188	5.475100	0.000376	3.762141	0.637324	-0.007526
1580	7.8950e-01	4.2041	5.449443	0.000257	2.565096	0.434539	-0.005132
1581	7.9000e-01	4.1956	5.403259	0.000462	4.617173	0.782170	-0.009237
1582	7.9050e-01	4.1852	5.348951	0.000543	5.429453	0.919774	-0.010862
1583	7.9100e-01	4.1754	5.322438	0.000265	2.650599	0.449024	-0.005303
1584	7.9150e-01	4.1663	5.261715	0.000607	6.070727	1.028409	-0.012145
1585	7.9200e-01	4.1553	5.238196	0.000235	2.351338	0.398327	-0.004704
1586	7.9250e-01	4.1446	5.190302	0.000479	4.788179	0.811140	-0.009579
1587	7.9300e-01	4.1351	5.145829	0.000445	4.446166	0.753201	-0.008895
1588	7.9350e-01	4.1278	5.104777	0.000410	4.104154	0.695262	-0.008210
1589	7.9400e-01	4.1135	5.042343	0.000624	6.241734	1.057378	-0.012487
1590	7.9450e-01	4.1066	5.036357	0.000060	0.598522	0.101392	-0.001197
1591	7.9500e-01	4.0942	4.994022	0.000423	4.232408	0.716989	-0.008467
1592	7.9550e-01	4.0854	4.935865	0.000581	5.814218	0.984955	-0.011631
1593	7.9600e-01	4.0754	4.903365	0.000325	3.249122	0.550416	-0.006500
1594	7.9650e-01	4.0625	4.878991	0.000244	2.436841	0.412812	-0.004875
1595	7.9700e-01	4.0570	4.826820	0.000522	5.215695	0.883563	-0.010434
1596	7.9750e-01	4.0448	4.766525	0.000603	6.027976	1.021167	-0.012059
1597	7.9800e-01	4.0364	4.773795	-0.000073	-0.726777	-0.123119	0.001454
1598	7.9850e-01	4.0228	4.716065	0.000577	5.771466	0.977713	-0.011546
1599	7.9900e-01	4.0163	4.668171	0.000479	4.788179	0.811140	-0.009579
1600	7.9950e-01	4.0021	4.644224	0.000239	2.394090	0.405570	-0.004789
1601	8.0000e-01	3.9961	4.592909	0.000513	5.130192	0.869078	-0.010263
1602	8.0050e-01	3.9832	4.549719	0.000432	4.317912	0.731474	-0.008638
1603	8.0100e-01	3.9774	4.504818	0.000449	4.488918	0.760443	-0.008980
1604	8.0150e-01	3.9661	4.468470	0.000363	3.633886	0.615597	-0.007270
1605	8.0200e-01	3.9533	4.444951	0.000235	2.351338	0.398327	-0.004704
1606	8.0250e-01	3.9441	4.390215	0.000547	5.472205	0.927017	-0.010947
1607	8.0300e-01	3.9349	4.349163	0.000410	4.104154	0.695262	-0.008210
1608	8.0350e-01	3.9246	4.322222	0.000269	2.693351	0.456266	-0.005388
1609	8.0400e-01	3.9169	4.268342	0.000539	5.386702	0.912532	-0.010776
1610	8.0450e-01	3.9030	4.233276	0.000351	3.505631	0.593870	-0.007013
1611	8.0500e-01	3.8983	4.181961	0.000513	5.130192	0.869078	-0.010263
1612	8.0550e-01	3.8895	4.174692	0.000073	0.726777	0.123119	-0.001454
1613	8.0600e-01	3.8761	4.085746	0.000889	8.892333	1.506402	-0.017789
1614	8.0650e-01	3.8635	4.065647	0.000201	2.009325	0.340389	-0.004020
1615	8.0700e-01	3.8544	4.027589	0.000380	3.804892	0.644566	-0.007612
1616	8.0750e-01	3.8440	3.985681	0.000419	4.189657	0.709747	-0.008381
1617	8.0800e-01	3.8356	3.939925	0.000457	4.574421	0.774928	-0.009151
1618	8.0850e-01	3.8257	3.908281	0.000316	3.163618	0.535931	-0.006329
1619	8.0900e-01	3.8150	3.861242	0.000470	4.702676	0.796655	-0.009408
1620	8.0950e-01	3.8046	3.822756	0.000385	3.847644	0.651809	-0.007697
1621	8.1000e-01	3.7955	3.776573	0.000462	4.617173	0.782170	-0.009237
1622	8.1050e-01	3.7856	3.750487	0.000261	2.607848	0.441781	-0.005217
1623	8.1100e-01	3.7772	3.703876	0.000466	4.659924	0.789413	-0.009322
1624	8.1150e-01	3.7654	3.661114	0.000428	4.275160	0.724232	-0.008553
1625	8.1200e-01	3.7558	3.604240	0.000569	5.685963	0.963228	-0.011375
1626	8.1250e-01	3.7476	3.573878	0.000304	3.035364	0.514205	-0.006072
1627	8.1300e-01	3.7347	3.519997	0.000539	5.386702	0.912532	-0.010776
1628	8.1350e-01	3.7263	3.484077	0.000359	3.591134	0.608355	-0.007184
1629	8.1400e-01	3.7140	3.451577	0.000325	3.249122	0.550416	-0.006500
1630	8.1450e-01	3.7042	3.396841	0.000547	5.472205	0.927017	-0.010947
1631	8.1500e-01	3.6963	3.373750	0.000231	2.308586	0.391085	-0.004618
1632	8.1550e-01	3.6844	3.323290	0.000504	5.044689	0.854593	-0.010092
1633	8.1600e-01	3.6746	3.276679	0.000466	4.659924	0.789413	-0.009322
1634	8.1650e-01	3.6641	3.241613	0.000351	3.505631	0.593870	-0.007013
1635	8.1700e-01	3.6569	3.201844	0.000398	3.975899	0.673536	-0.007954
1636	8.1750e-01	3.6459	3.153095	0.000487	4.873682	0.825624	-0.009750
1637	8.1800e-01	3.6340	3.137273	0.000158	1.581809	0.267966	-0.003164
1638	8.1850e-01	3.6249	3.090662	0.000466	4.659924	0.789413	-0.009322
1639	8.1900e-01	3.6157	3.026946	0.000637	6.369989	1.079105	-0.012743
1640	8.1950e-01	3.6092	2.986321	0.000406	4.061402	0.688020	-0.008125
1641	8.2000e-01	3.5957	2.955532	0.000308	3.078115	0.521447	-0.006158
1642	8.2050e-01	3.5880	2.898230	0.000573	5.728715	0.970471	-0.011460
1643	8.2100e-01	3.5742	2.875566	0.000227	2.265835	0.383843	-0.004533
1644	8.2150e-01	3.5670	2.808857	0.000667	6.669250	1.129801	-0.013342
1645	8.2200e-01	3.5522	2.786192	0.000227	2.265835	0.383843	-0.004533
1646	8.2250e-01	3.5460	2.728035	0.000581	5.814218	0.984955	-0.011631
1647	8.2300e-01	3.5327	2.692115	0.000359	3.591134	0.608355	-0.007184
1648	8.2350e-01	3.5269	2.669451	0.000227	2.265835	0.383843	-0.004533
1649	8.2400e-01	3.5161	2.598893	0.000705	7.054014	1.194982	-0.014112
1650	8.2450e-01	3.5072	2.570242	0.000286	2.864357	0.485235	-0.005730
1651	8.2500e-01	3.4952	2.522348	0.000479	4.788179	0.811140	-0.009579
1652	8.2550e-01	3.4839	2.510802	0.000115	1.154293	0.195543	-0.002309
1653	8.2600e-01	3.4758	2.441099	0.000697	6.968511	1.180498	-0.013941
1654	8.2650e-01	3.4654	2.404323	0.000368	3.676638	0.622839	-0.007355
1655	8.2700e-01	3.4558	2.368403	0.000359	3.591134	0.608355	-0.007184
1656	8.2750e-01	3.4454	2.325640	0.000428	4.275160	0.724232	-0.008553
1657	8.2800e-01	3.4365	2.244819	0.000808	8.080053	1.368798	-0.016164
1658	8.2850e-01	3.4265	2.228569	0.000162	1.624561	0.275208	-0.003250
1659	8.2900e-01	3.4177	2.203767	0.000248	2.479593	0.420054	-0.004960
1660	8.2950e-01	3.4023	2.153307	0.000504	5.044689	0.854593	-0.010092
1661	8.3000e-01	3.3970	2.110545	0.000428	4.275160	0.724232	-0.008553
1662	8.3050e-01	3.3856	2.059657	0.000509	5.087440	0.861836	-0.010177
1663	8.3100e-01	3.3771	2.031861	0.000278	2.778854	0.470751	-0.005559
1664	8.3150e-01	3.3646	1.982685	0.000492	4.916434	0.832866	-0.009835
1665	8.3200e-01	3.3551	1.934363	0.000483	4.830931	0.818382	-0.009664
1666	8.3250e-01	3.3461	1.905284	0.000291	2.907109	0.492478	-0.005816
1667	8.3300e-01	3.3337	1.851831	0.000534	5.343950	0.905290	-0.010691
1668	8.3350e-01	3.3250	1.808641	0.000432	4.317912	0.731474	-0.008638
1669	8.3400e-01	3.3151	1.762885	0.000457	4.574421	0.774928	-0.009151
1670	8.3450e-01	3.3051	1.714136	0.000487	4.873682	0.825624	-0.009750
1671	8.3500e-01	3.2935	1.681209	0.000329	3.291873	0.557658	-0.006585
1672	8.3550e-01	3.2831	1.634598	0.000466	4.659924	0.789413	-0.009322
1673	8.3600e-01	3.2751	1.596967	0.000376	3.762141	0.637324	-0.007526
1674	8.3650e-01	3.2661	1.546507	0.000504	5.044689	0.854593	-0.010092
1675	8.3700e-01	3.2538	1.493054	0.000534	5.343950	0.905290	-0.010691
1676	8.3750e-01	3.2465	1.450291	0.000428	4.275160	0.724232	-0.008553
1677	8.3800e-01	3.2368	1.410094	0.000402	4.018650	0.680778	-0.008039
1678	8.3850e-01	3.2257	1.370325	0.000398	3.975899	0.673536	-0.007954
1679	8.3900e-01	3.2149	1.321576	0.000487	4.873682	0.825624	-0.009750
1680	8.3950e-01	3.2077	1.274110	0.000475	4.745428	0.803897	-0.009493
1681	8.4000e-01	3.1955	1.245031	0.000291	2.907109	0.492478	-0.005816
1682	8.4050e-01	3.1845	1.178749	0.000663	6.626498	1.122559	-0.013256
1683	8.4100e-01	3.1735	1.155657	0.000231	2.308586	0.391085	-0.004618
1684	8.4150e-01	3.1631	1.117171	0.000385	3.847644	0.651809	-0.007697
1685	8.4200e-01	3.1564	1.058586	0.000586	5.856969	0.992197	-0.011717
1686	8.4250e-01	3.1430	1.017107	0.000415	4.146905	0.702505	-0.008296
1687	8.4300e-01	3.1361	0.974344	0.000428	4.275160	0.724232	-0.008553
1688	8.4350e-01	3.1257	0.936713	0.000376	3.762141	0.637324	-0.007526
1689	8.4400e-01	3.1146	0.883688	0.000530	5.301199	0.898047	-0.010605
1690	8.4450e-01	3.1033	0.865727	0.000180	1.795567	0.304177	-0.003592
1691	8.4500e-01	3.0942	0.807143	0.000586	5.856969	0.992197	-0.011717
1692	8.4550e-01	3.0835	0.736585	0.000705	7.054014	1.194982	-0.014112
1693	8.4600e-01	3.0737	0.715631	0.000209	2.094828	0.354874	-0.004191
1694	8.4650e-01	3.0645	0.663461	0.000522	5.215695	0.883563	-0.010434
1695	8.4700e-01	3.0566	0.629678	0.000338	3.377376	0.572143	-0.006756
1696	8.4750e-01	3.0460	0.582212	0.000475	4.745428	0.803897	-0.009493
1697	8.4800e-01	3.0365	0.543298	0.000389	3.890396	0.659051	-0.007783
1698	8.4850e-01	3.0267	0.491983	0.000513	5.130192	0.869078	-0.010263
1699	8.4900e-01	3.0142	0.468036	0.000239	2.394090	0.405570	-0.004789
1700	8.4950e-01	3.0033	0.407741	0.000603	6.027976	1.021167	-0.012059
1701	8.5000e-01	2.9945	0.371820	0.000359	3.591134	0.608355	-0.007184
1702	8.5050e-01	2.9857	0.307676	0.000641	6.412740	1.086348	-0.012829
1703	8.5100e-01	2.9749	0.274749	0.000329	3.291873	0.557658	-0.006585
1704	8.5150e-01	2.9629	0.217447	0.000573	5.728715	0.970471	-0.011460
1705	8.5200e-01	2.9567	0.196494	0.000209	2.094828	0.354874	-0.004191
1706	8.5250e-01	2.9456	0.157580	0.000389	3.890396	0.659051	-0.007783
1707	8.5300e-01	2.9361	0.098140	0.000594	5.942473	1.006682	-0.011888
1708	8.5350e-01	2.9224	0.036134	0.000620	6.198982	1.050136	-0.012401
1709	8.5400e-01	2.9156	0.001497	0.000346	3.462880	0.586628	-0.006928
1710	8.5450e-01	2.9070	-0.030575	0.000321	3.206370	0.543174	-0.006414
1711	8.5500e-01	2.8943	-0.083173	0.000526	5.258447	0.890805	-0.010520
1712	8.5550e-01	2.8864	-0.145606	0.000624	6.241734	1.057378	-0.012487
1713	8.5600e-01	2.8758	-0.168271	0.000227	2.265835	0.383843	-0.004533
1714	8.5650e-01	2.8680	-0.206329	0.000380	3.804892	0.644566	-0.007612
1715	8.5700e-01	2.8558	-0.276887	0.000705	7.054014	1.194982	-0.014112
1716	8.5750e-01	2.8436	-0.308959	0.000321	3.206370	0.543174	-0.006414
1717	8.5800e-01	2.8354	-0.360702	0.000517	5.172944	0.876320	-0.010349
1718	8.5850e-01	2.8262	-0.394057	0.000333	3.334625	0.564901	-0.006671
1719	8.5900e-01	2.8156	-0.436392	0.000423	4.232408	0.716989	-0.008467
1720	8.5950e-01	2.8051	-0.490272	0.000539	5.386702	0.912532	-0.010776
1721	8.6000e-01	2.7991	-0.536884	0.000466	4.659924	0.789413	-0.009322
1722	8.6050e-01	2.7852	-0.595468	0.000586	5.856969	0.992197	-0.011717
1723	8.6100e-01	2.7735	-0.628395	0.000329	3.291873	0.557658	-0.006585
1724	8.6150e-01	2.7637	-0.664316	0.000359	3.591134	0.608355	-0.007184
1725	8.6200e-01	2.7548	-0.725039	0.000607	6.070727	1.028409	-0.012145
1726	8.6250e-01	2.7435	-0.763953	0.000389	3.890396	0.659051	-0.007783
1727	8.6300e-01	2.7352	-0.800728	0.000368	3.676638	0.622839	-0.007355
1728	8.6350e-01	2.7216	-0.851188	0.000504	5.044689	0.854593	-0.010092
1729	8.6400e-01	2.7142	-0.908918	0.000577	5.771466	0.977713	-0.011546
1730	8.6450e-01	2.7058	-0.950825	0.000419	4.189657	0.709747	-0.008381
1731	8.6500e-01	2.6984	-0.993160	0.000423	4.232408	0.716989	-0.008467
1732	8.6550e-01	2.6895	-1.037633	0.000445	4.446166	0.753201	-0.008895
1733	8.6600e-01	2.6752	-1.080395	0.000428	4.275160	0.724232	-0.008553
1734	8.6650e-01	2.6654	-1.132566	0.000522	5.215695	0.883563	-0.010434
1735	8.6700e-01	2.6544	-1.186446	0.000539	5.386702	0.912532	-0.010776
1736	8.6750e-01	2.6460	-1.211676	0.000252	2.522344	0.427297	-0.005046
1737	8.6800e-01	2.6353	-1.264274	0.000526	5.258447	0.890805	-0.010520
1738	8.6850e-01	2.6260	-1.328846	0.000646	6.455492	1.093590	-0.012914
1739	8.6900e-01	2.6175	-1.357069	0.000282	2.821606	0.477993	-0.005645
1740	8.6950e-01	2.6057	-1.411805	0.000547	5.472205	0.927017	-0.010947
1741	8.7000e-01	2.5940	-1.461409	0.000496	4.959186	0.840109	-0.009921
1742	8.7050e-01	2.5827	-1.516573	0.000551	5.514957	0.934259	-0.011033
1743	8.7100e-01	2.5770	-1.540948	0.000244	2.436841	0.412812	-0.004875
1744	8.7150e-01	2.5650	-1.581572	0.000406	4.061402	0.688020	-0.008125
1745	8.7200e-01	2.5549	-1.638446	0.000569	5.685963	0.963228	-0.011375
1746	8.7250e-01	2.5446	-1.676505	0.000380	3.804892	0.644566	-0.007612
1747	8.7300e-01	2.5333	-1.752622	0.000761	7.609785	1.289132	-0.015223
1748	8.7350e-01	2.5255	-1.782556	0.000299	2.992612	0.506962	-0.005987
1749	8.7400e-01	2.5122	-1.831305	0.000487	4.873682	0.825624	-0.009750
1750	8.7450e-01	2.5037	-1.864232	0.000329	3.291873	0.557658	-0.006585
1751	8.7500e-01	2.4954	-1.917686	0.000534	5.343950	0.905290	-0.010691
1752	8.7550e-01	2.4878	-1.977125	0.000594	5.942473	1.006682	-0.011888
1753	8.7600e-01	2.4750	-1.999790	0.000227	2.265835	0.383843	-0.004533
1754	8.7650e-01	2.4677	-2.066499	0.000667	6.669250	1.129801	-0.013342
1755	8.7700e-01	2.4554	-2.094722	0.000282	2.821606	0.477993	-0.005645
1756	8.7750e-01	2.4445	-2.169557	0.000748	7.481530	1.267406	-0.014967
1757	8.7800e-01	2.4350	-2.206333	0.000368	3.676638	0.622839	-0.007355
1758	8.7850e-01	2.4258	-2.234983	0.000286	2.864357	0.485235	-0.005730
1759	8.7900e-01	2.4142	-2.289720	0.000547	5.472205	0.927017	-0.010947
1760	8.7950e-01	2.4046	-2.335475	0.000457	4.574421	0.774928	-0.009151
1761	8.8000e-01	2.3969	-2.380804	0.000453	4.531670	0.767686	-0.009066
1762	8.8050e-01	2.3851	-2.452645	0.000718	7.182269	1.216709	-0.014368
1763	8.8100e-01	2.3746	-2.490276	0.000376	3.762141	0.637324	-0.007526
1764	8.8150e-01	2.3653	-2.546722	0.000564	5.643211	0.955986	-0.011289
1765	8.8200e-01	2.3572	-2.570242	0.000235	2.351338	0.398327	-0.004704
1766	8.8250e-01	2.3462	-2.630537	0.000603	6.027976	1.021167	-0.012059
1767	8.8300e-01	2.3346	-2.683990	0.000534	5.343950	0.905290	-0.010691
1768	8.8350e-01	2.3227	-2.713069	0.000291	2.907109	0.492478	-0.005816
1769	8.8400e-01	2.3148	-2.793034	0.000799	7.994549	1.354313	-0.015993
1770	8.8450e-01	2.3065	-2.813133	0.000201	2.009325	0.340389	-0.004020
1771	8.8500e-01	2.2961	-2.876421	0.000633	6.327237	1.071863	-0.012658
1772	8.8550e-01	2.2867	-2.910631	0.000342	3.420128	0.579385	-0.006842
1773	8.8600e-01	2.2763	-2.956387	0.000457	4.574421	0.774928	-0.009151
1774	8.8650e-01	2.2647	-2.992735	0.000363	3.633886	0.615597	-0.007270
1775	8.8700e-01	2.2552	-3.045333	0.000526	5.258447	0.890805	-0.010520
1776	8.8750e-01	2.2431	-3.106484	0.000611	6.113479	1.035651	-0.012230
1777	8.8800e-01	2.2367	-3.152240	0.000457	4.574421	0.774928	-0.009151
1778	8.8850e-01	2.2229	-3.206976	0.000547	5.472205	0.927017	-0.010947
1779	8.8900e-01	2.2150	-3.260857	0.000539	5.386702	0.912532	-0.010776
1780	8.8950e-01	2.2062	-3.284804	0.000239	2.394090	0.405570	-0.004789
1781	8.9000e-01	2.1944	-3.342105	0.000573	5.728715	0.970471	-0.011460
1782	8.9050e-01	2.1865	-3.394703	0.000526	5.258447	0.890805	-0.010520
1783	8.9100e-01	2.1739	-3.428486	0.000338	3.377376	0.572143	-0.006756
1784	8.9150e-01	2.1608	-3.486643	0.000581	5.814218	0.984955	-0.011631
1785	8.9200e-01	2.1545	-3.538813	0.000522	5.215695	0.883563	-0.010434
1786	8.9250e-01	2.1451	-3.587562	0.000487	4.873682	0.825624	-0.009750
1787	8.9300e-01	2.1347	-3.620917	0.000333	3.334625	0.564901	-0.006671
1788	8.9350e-01	2.1246	-3.683778	0.000628	6.284485	1.064621	-0.012572
1789	8.9400e-01	2.1150	-3.736803	0.000530	5.301199	0.898047	-0.010605
1790	8.9450e-01	2.1019	-3.797099	0.000603	6.027976	1.021167	-0.012059
1791	8.9500e-01	2.0934	-3.837295	0.000402	4.018650	0.680778	-0.008039
1792	8.9550e-01	2.0825	-3.859960	0.000227	2.265835	0.383843	-0.004533
1793	8.9600e-01	2.0761	-3.921538	0.000616	6.156231	1.042894	-0.012316
1794	8.9650e-01	2.0631	-3.950616	0.000291	2.907109	0.492478	-0.005816
1795	8.9700e-01	2.0542	-4.022457	0.000718	7.182269	1.216709	-0.014368
1796	8.9750e-01	2.0429	-4.068641	0.000462	4.617173	0.782170	-0.009237
1797	8.9800e-01	2.0367	-4.143903	0.000752	7.524282	1.274648	-0.015052
1798	8.9850e-01	2.0270	-4.183244	0.000393	3.933147	0.666293	-0.007868
1799	8.9900e-01	2.0142	-4.202060	0.000188	1.881070	0.318662	-0.003763
1800	8.9950e-01	2.0053	-4.267914	0.000658	6.583747	1.115317	-0.013171
1801	9.0000e-01	1.9934	-4.323505	0.000556	5.557708	0.941501	-0.011118
1802	9.0050e-01	1.9876	-4.381662	0.000581	5.814218	0.984955	-0.011631
1803	9.0100e-01	1.9757	-4.410313	0.000286	2.864357	0.485235	-0.005730
1804	9.0150e-01	1.9630	-4.466332	0.000560	5.600460	0.948744	-0.011204
1805	9.0200e-01	1.9537	-4.521068	0.000547	5.472205	0.927017	-0.010947
1806	9.0250e-01	1.9447	-4.566824	0.000457	4.574421	0.774928	-0.009151
1807	9.0300e-01	1.9353	-4.629257	0.000624	6.241734	1.057378	-0.012487
1808	9.0350e-01	1.9257	-4.666888	0.000376	3.762141	0.637324	-0.007526
1809	9.0400e-01	1.9154	-4.725473	0.000586	5.856969	0.992197	-0.011717
1810	9.0450e-01	1.9050	-4.747282	0.000218	2.180332	0.369358	-0.004362
1811	9.0500e-01	1.8964	-4.816130	0.000688	6.883008	1.166013	-0.013770
1812	9.0550e-01	1.8839	-4.873859	0.000577	5.771466	0.977713	-0.011546
1813	9.0600e-01	1.8750	-4.918760	0.000449	4.488918	0.760443	-0.008980
1814	9.0650e-01	1.8645	-4.982048	0.000633	6.327237	1.071863	-0.012658
1815	9.0700e-01	1.8534	-4.995732	0.000137	1.368051	0.231754	-0.002737
1816	9.0750e-01	1.8464	-5.087244	0.000915	9.148843	1.549856	-0.018302
1817	9.0800e-01	1.8333	-5.104349	0.000171	1.710064	0.289693	-0.003421
1818	9.0850e-01	1.8286	-5.161223	0.000569	5.685963	0.963228	-0.011375
1819	9.0900e-01	1.8166	-5.204841	0.000436	4.360663	0.738716	-0.008724
1820	9.0950e-01	1.8060	-5.283096	0.000782	7.823543	1.325344	-0.015651
1821	9.1000e-01	1.7944	-5.301484	0.000184	1.838319	0.311420	-0.003678
1822	9.1050e-01	1.7834	-5.368622	0.000671	6.712001	1.137044	-0.013427
1823	9.1100e-01	1.7749	-5.428917	0.000603	6.027976	1.021167	-0.012059
1824	9.1150e-01	1.7651	-5.447732	0.000188	1.881070	0.318662	-0.003763
1825	9.1200e-01	1.7548	-5.523422	0.000757	7.567033	1.281890	-0.015138
1826	9.1250e-01	1.7461	-5.572171	0.000487	4.873682	0.825624	-0.009750
1827	9.1300e-01	1.7348	-5.613223	0.000410	4.104154	0.695262	-0.008210
1828	9.1350e-01	1.7266	-5.673091	0.000599	5.985224	1.013924	-0.011974
1829	9.1400e-01	1.7139	-5.714998	0.000419	4.189657	0.709747	-0.008381
1830	9.1450e-01	1.7033	-5.777859	0.000628	6.284485	1.064621	-0.012572
1831	9.1500e-01	1.6959	-5.824898	0.000470	4.702676	0.796655	-0.009408
1832	9.1550e-01	1.6858	-5.870654	0.000457	4.574421	0.774928	-0.009151
1833	9.1600e-01	1.6774	-5.931376	0.000607	6.070727	1.028409	-0.012145
1834	9.1650e-01	1.6695	-5.982691	0.000513	5.130192	0.869078	-0.010263
1835	9.1700e-01	1.6561	-6.028875	0.000462	4.617173	0.782170	-0.009237
1836	9.1750e-01	1.6438	-6.084894	0.000560	5.600460	0.948744	-0.011204
1837	9.1800e-01	1.6338	-6.107558	0.000227	2.265835	0.383843	-0.004533
1838	9.1850e-01	1.6251	-6.181965	0.000744	7.438779	1.260163	-0.014881
1839	9.1900e-01	1.6136	-6.225583	0.000436	4.360663	0.738716	-0.008724
1840	9.1950e-01	1.6028	-6.291864	0.000663	6.626498	1.122559	-0.013256
1841	9.2000e-01	1.5962	-6.329496	0.000376	3.762141	0.637324	-0.007526
1842	9.2050e-01	1.5854	-6.386797	0.000573	5.728715	0.970471	-0.011460
1843	9.2100e-01	1.5749	-6.435119	0.000483	4.830931	0.818382	-0.009664
1844	9.2150e-01	1.5639	-6.488572	0.000534	5.343950	0.905290	-0.010691
1845	9.2200e-01	1.5533	-6.529197	0.000406	4.061402	0.688020	-0.008125
1846	9.2250e-01	1.5470	-6.589919	0.000607	6.070727	1.028409	-0.012145
1847	9.2300e-01	1.5347	-6.654063	0.000641	6.412740	1.086348	-0.012829
1848	9.2350e-01	1.5224	-6.707516	0.000534	5.343950	0.905290	-0.010691
1849	9.2400e-01	1.5175	-6.730608	0.000231	2.308586	0.391085	-0.004618
1850	9.2450e-01	1.5051	-6.800311	0.000697	6.968511	1.180498	-0.013941
1851	9.2500e-01	1.4928	-6.860178	0.000599	5.985224	1.013924	-0.011974
1852	9.2550e-01	1.4867	-6.896099	0.000359	3.591134	0.608355	-0.007184
1853	9.2600e-01	1.4754	-6.955539	0.000594	5.942473	1.006682	-0.011888
1854	9.2650e-01	1.4651	-7.005143	0.000496	4.959186	0.840109	-0.009921
1855	9.2700e-01	1.4544	-7.060735	0.000556	5.557708	0.941501	-0.011118
1856	9.2750e-01	1.4450	-7.106918	0.000462	4.617173	0.782170	-0.009237
1857	9.2800e-01	1.4359	-7.159089	0.000522	5.215695	0.883563	-0.010434
1858	9.2850e-01	1.4244	-7.222805	0.000637	6.369989	1.079105	-0.012743
1859	9.2900e-01	1.4140	-7.264712	0.000419	4.189657	0.709747	-0.008381
1860	9.2950e-01	1.4028	-7.330566	0.000658	6.583747	1.115317	-0.013171
1861	9.3000e-01	1.3950	-7.370763	0.000402	4.018650	0.680778	-0.008039
1862	9.3050e-01	1.3862	-7.407111	0.000363	3.633886	0.615597	-0.007270
1863	9.3100e-01	1.3746	-7.473821	0.000667	6.669250	1.129801	-0.013342
1864	9.3150e-01	1.3675	-7.519149	0.000453	4.531670	0.767686	-0.009066
1865	9.3200e-01	1.3562	-7.563194	0.000440	4.403415	0.745959	-0.008809
1866	9.3250e-01	1.3462	-7.636318	0.000731	7.310524	1.238436	-0.014625
1867	9.3300e-01	1.3347	-7.711153	0.000748	7.481530	1.267406	-0.014967
1868	9.3350e-01	1.3258	-7.734245	0.000231	2.308586	0.391085	-0.004618
1869	9.3400e-01	1.3141	-7.765889	0.000316	3.163618	0.535931	-0.006329
1870	9.3450e-01	1.3063	-7.840296	0.000744	7.438779	1.260163	-0.014881
1871	9.3500e-01	1.2962	-7.883913	0.000436	4.360663	0.738716	-0.008724
1872	9.3550e-01	1.2870	-7.928814	0.000449	4.488918	0.760443	-0.008980
1873	9.3600e-01	1.2735	-7.987399	0.000586	5.856969	0.992197	-0.011717
1874	9.3650e-01	1.2651	-8.057957	0.000705	7.054014	1.194982	-0.014112
1875	9.3700e-01	1.2527	-8.079338	0.000214	2.137580	0.362116	-0.004276
1876	9.3750e-01	1.2501	-8.169995	0.000906	9.063339	1.535371	-0.018131
1877	9.3800e-01	1.2350	-8.193086	0.000231	2.308586	0.391085	-0.004618
1878	9.3850e-01	1.2280	-8.273052	0.000799	7.994549	1.354313	-0.015993
1879	9.3900e-01	1.2155	-8.290157	0.000171	1.710064	0.289693	-0.003421
1880	9.3950e-01	1.2061	-8.355156	0.000650	6.498243	1.100832	-0.013000
1881	9.4000e-01	1.1938	-8.400485	0.000453	4.531670	0.767686	-0.009066
1882	9.4050e-01	1.1835	-8.477457	0.000770	7.695288	1.303617	-0.015395
1883	9.4100e-01	1.1743	-8.536897	0.000594	5.942473	1.006682	-0.011888
1884	9.4150e-01	1.1623	-8.572390	0.000355	3.548383	0.601112	-0.007099
1885	9.4200e-01	1.1555	-8.637817	0.000654	6.540995	1.108075	-0.013085
1886	9.4250e-01	1.1458	-8.699822	0.000620	6.198982	1.050136	-0.012401
1887	9.4300e-01	1.1342	-8.729329	0.000295	2.949860	0.499720	-0.005901
1888	9.4350e-01	1.1257	-8.784492	0.000551	5.514957	0.934259	-0.011033
1889	9.4400e-01	1.1169	-8.840939	0.000564	5.643211	0.955986	-0.011289
1890	9.4450e-01	1.1079	-8.894392	0.000534	5.343950	0.905290	-0.010691
1891	9.4500e-01	1.0962	-8.951266	0.000569	5.685963	0.963228	-0.011375
1892	9.4550e-01	1.0842	-8.997022	0.000457	4.574421	0.774928	-0.009151
1893	9.4600e-01	1.0727	-9.054751	0.000577	5.771466	0.977713	-0.011546
1894	9.4650e-01	1.0615	-9.118040	0.000633	6.327237	1.071863	-0.012658
1895	9.4700e-01	1.0564	-9.170638	0.000526	5.258447	0.890805	-0.010520
1896	9.4750e-01	1.0443	-9.192447	0.000218	2.180332	0.369358	-0.004362
1897	9.4800e-01	1.0334	-9.257018	0.000646	6.455492	1.093590	-0.012914
1898	9.4850e-01	1.0251	-9.345537	0.000885	8.849581	1.499160	-0.017704
1899	9.4900e-01	1.0140	-9.388727	0.000432	4.317912	0.731474	-0.008638
1900	9.4950e-01	1.0059	-9.438759	0.000500	5.001937	0.847351	-0.010006
1901	9.5000e-01	0.9989	-9.503330	0.000646	6.455492	1.093590	-0.012914
1902	9.5050e-01	0.9844	-9.557639	0.000543	5.429453	0.919774	-0.010862
1903	9.5100e-01	0.9743	-9.601684	0.000440	4.403415	0.745959	-0.008809
1904	9.5150e-01	0.9650	-9.636749	0.000351	3.505631	0.593870	-0.007013
1905	9.5200e-01	0.9561	-9.699183	0.000624	6.241734	1.057378	-0.012487
1906	9.5250e-01	0.9467	-9.753063	0.000539	5.386702	0.912532	-0.010776
1907	9.5300e-01	0.9351	-9.820628	0.000675	6.754753	1.144286	-0.013513
1908	9.5350e-01	0.9270	-9.890331	0.000697	6.968511	1.180498	-0.013941
1909	9.5400e-01	0.9155	-9.928817	0.000385	3.847644	0.651809	-0.007697
1910	9.5450e-01	0.9058	-9.989968	0.000611	6.113479	1.035651	-0.012230
1911	9.5500e-01	0.8954	-10.036579	0.000466	4.659924	0.789413	-0.009322
1912	9.5550e-01	0.8845	-10.094308	0.000577	5.771466	0.977713	-0.011546
1913	9.5600e-01	0.8737	-10.132795	0.000385	3.847644	0.651809	-0.007697
1914	9.5650e-01	0.8649	-10.203780	0.000710	7.096766	1.202225	-0.014197
1915	9.5700e-01	0.8563	-10.274766	0.000710	7.096766	1.202225	-0.014197
1916	9.5750e-01	0.8443	-10.326937	0.000522	5.215695	0.883563	-0.010434
1917	9.5800e-01	0.8350	-10.365423	0.000385	3.847644	0.651809	-0.007697
1918	9.5850e-01	0.8260	-10.419304	0.000539	5.386702	0.912532	-0.010776
1919	9.5900e-01	0.8168	-10.463777	0.000445	4.446166	0.753201	-0.008895
1920	9.5950e-01	0.8071	-10.527493	0.000637	6.369989	1.079105	-0.012743
1921	9.6000e-01	0.7965	-10.573249	0.000457	4.574421	0.774928	-0.009151
1922	9.6050e-01	0.7851	-10.654070	0.000808	8.080053	1.368798	-0.016164
1923	9.6100e-01	0.7752	-10.712655	0.000586	5.856969	0.992197	-0.011717
1924	9.6150e-01	0.7667	-10.745582	0.000329	3.291873	0.557658	-0.006585
1925	9.6200e-01	0.7553	-10.821271	0.000757	7.567033	1.281890	-0.015138
1926	9.6250e-01	0.7450	-10.883277	0.000620	6.198982	1.050136	-0.012401
1927	9.6300e-01	0.7371	-10.909790	0.000265	2.650599	0.449024	-0.005303
1928	9.6350e-01	0.7233	-10.981203	0.000714	7.139517	1.209467	-0.014283
1929	9.6400e-01	0.7153	-11.025676	0.000445	4.446166	0.753201	-0.008895
1930	9.6450e-01	0.7044	-11.103504	0.000778	7.780791	1.318102	-0.015566
1931	9.6500e-01	0.6953	-11.144556	0.000410	4.104154	0.695262	-0.008210
1932	9.6550e-01	0.6841	-11.211693	0.000671	6.712001	1.137044	-0.013427
1933	9.6600e-01	0.6742	-11.257877	0.000462	4.617173	0.782170	-0.009237
1934	9.6650e-01	0.6628	-11.301922	0.000440	4.403415	0.745959	-0.008809
1935	9.6700e-01	0.6549	-11.372908	0.000710	7.096766	1.202225	-0.014197
1936	9.6750e-01	0.6433	-11.398993	0.000261	2.607848	0.441781	-0.005217
1937	9.6800e-01	0.6345	-11.479387	0.000804	8.037301	1.361556	-0.016079
1938	9.6850e-01	0.6254	-11.541392	0.000620	6.198982	1.050136	-0.012401
1939	9.6900e-01	0.6165	-11.605964	0.000646	6.455492	1.093590	-0.012914
1940	9.6950e-01	0.6049	-11.653003	0.000470	4.702676	0.796655	-0.009408
1941	9.7000e-01	0.5988	-11.708594	0.000556	5.557708	0.941501	-0.011118
1942	9.7050e-01	0.5858	-11.757771	0.000492	4.916434	0.832866	-0.009835
1943	9.7100e-01	0.5769	-11.803527	0.000457	4.574421	0.774928	-0.009151
1944	9.7150e-01	0.5667	-11.869381	0.000658	6.583747	1.115317	-0.013171
1945	9.7200e-01	0.5563	-11.931387	0.000620	6.198982	1.050136	-0.012401
1946	9.7250e-01	0.5442	-11.994248	0.000628	6.284485	1.064621	-0.012572
1947	9.7300e-01	0.5360	-12.044280	0.000500	5.001937	0.847351	-0.010006
1948	9.7350e-01	0.5252	-12.123390	0.000791	7.909046	1.339829	-0.015822
1949	9.7400e-01	0.5157	-12.145627	0.000222	2.223083	0.376600	-0.004447
1950	9.7450e-01	0.5048	-12.216613	0.000710	7.096766	1.202225	-0.014197
1951	9.7500e-01	0.4947	-12.274342	0.000577	5.771466	0.977713	-0.011546
1952	9.7550e-01	0.4845	-12.326940	0.000526	5.258447	0.890805	-0.010520
1953	9.7600e-01	0.4757	-12.373979	0.000470	4.702676	0.796655	-0.009408
1954	9.7650e-01	0.4676	-12.443682	0.000697	6.968511	1.180498	-0.013941
1955	9.7700e-01	0.4578	-12.500556	0.000569	5.685963	0.963228	-0.011375
1956	9.7750e-01	0.4421	-12.565983	0.000654	6.540995	1.108075	-0.013085
1957	9.7800e-01	0.4357	-12.616870	0.000509	5.087440	0.861836	-0.010177
1958	9.7850e-01	0.4242	-12.658350	0.000415	4.146905	0.702505	-0.008296
1959	9.7900e-01	0.4154	-12.722066	0.000637	6.369989	1.079105	-0.012743
1960	9.7950e-01	0.4024	-12.776374	0.000543	5.429453	0.919774	-0.010862
1961	9.8000e-01	0.3962	-12.835814	0.000594	5.942473	1.006682	-0.011888
1962	9.8050e-01	0.3841	-12.894399	0.000586	5.856969	0.992197	-0.011717
1963	9.8100e-01	0.3773	-12.952128	0.000577	5.771466	0.977713	-0.011546
1964	9.8150e-01	0.3678	-13.030384	0.000782	7.823543	1.325344	-0.015651
1965	9.8200e-01	0.3551	-13.067587	0.000372	3.719389	0.630082	-0.007441
1966	9.8250e-01	0.3432	-13.129165	0.000616	6.156231	1.042894	-0.012316
1967	9.8300e-01	0.3358	-13.178342	0.000492	4.916434	0.832866	-0.009835
1968	9.8350e-01	0.3263	-13.241630	0.000633	6.327237	1.071863	-0.012658
1969	9.8400e-01	0.3162	-13.299360	0.000577	5.771466	0.977713	-0.011546
1970	9.8450e-01	0.3036	-13.375477	0.000761	7.609785	1.289132	-0.015223
1971	9.8500e-01	0.2941	-13.401562	0.000261	2.607848	0.441781	-0.005217
1972	9.8550e-01	0.2856	-13.466134	0.000646	6.455492	1.093590	-0.012914
1973	9.8600e-01	0.2768	-13.519587	0.000534	5.343950	0.905290	-0.010691
1974	9.8650e-01	0.2649	-13.582875	0.000633	6.327237	1.071863	-0.012658
1975	9.8700e-01	0.2538	-13.635473	0.000526	5.258447	0.890805	-0.010520
1976	9.8750e-01	0.2455	-13.702610	0.000671	6.712001	1.137044	-0.013427
1977	9.8800e-01	0.2361	-13.762478	0.000599	5.985224	1.013924	-0.011974
1978	9.8850e-01	0.2229	-13.829188	0.000667	6.669250	1.129801	-0.013342
1979	9.8900e-01	0.2145	-13.886917	0.000577	5.771466	0.977713	-0.011546
1980	9.8950e-01	0.2067	-13.937377	0.000504	5.044689	0.854593	-0.010092
1981	9.9000e-01	0.1949	-14.000665	0.000633	6.327237	1.071863	-0.012658
1982	9.9050e-01	0.1839	-14.044711	0.000440	4.403415	0.745959	-0.008809
1983	9.9100e-01	0.1742	-14.110993	0.000663	6.626498	1.122559	-0.013256
1984	9.9150e-01	0.1653	-14.160170	0.000492	4.916434	0.832866	-0.009835
1985	9.9200e-01	0.1567	-14.227734	0.000675	6.754753	1.144286	-0.013513
1986	9.9250e-01	0.1472	-14.302141	0.000744	7.438779	1.260163	-0.014881
1987	9.9300e-01	0.1360	-14.341910	0.000398	3.975899	0.673536	-0.007954
1988	9.9350e-01	0.1241	-14.390232	0.000483	4.830931	0.818382	-0.009664
1989	9.9400e-01	0.1160	-14.447106	0.000569	5.685963	0.963228	-0.011375
1990	9.9450e-01	0.1066	-14.510395	0.000633	6.327237	1.071863	-0.012658
1991	9.9500e-01	0.0918	-14.583519	0.000731	7.310524	1.238436	-0.014625
1992	9.9550e-01	0.0841	-14.642531	0.000590	5.899721	0.999440	-0.011802
1993	9.9600e-01	0.0753	-14.690852	0.000483	4.830931	0.818382	-0.009664
1994	9.9650e-01	0.0626	-14.758417	0.000675	6.754753	1.144286	-0.013513
1995	9.9700e-01	0.0577	-14.817430	0.000590	5.899721	0.999440	-0.011802
1996	9.9750e-01	0.0470	-14.867034	0.000496	4.959186	0.840109	-0.009921
1997	9.9800e-01	0.0385	-14.926474	0.000594	5.942473	1.006682	-0.011888
1998	9.9850e-01	0.0233	-14.992756	0.000663	6.626498	1.122559	-0.013256
1999	9.9900e-01	0.0130	-15.058610	0.000658	6.583747	1.115317	-0.013171
2000	9.9950e-01	0.0040	-15.104366	0.000457	4.574421	0.774928	-0.009151
2001	1.0000e+00	-0.0067	-15.171076	0.000457	4.574421	0.774928	-0.013342

PMax (uC/cm2):	4.44e+01
Pr (uC/cm2):	7.04e+00
-Pr (uC/cm2):	0.00e+00
PLoss (uC/cm2):	0.00e+00
C (Max-Eff) (nF):	4.44e-01
K (Eff):	7.52e+02
Vert. (+/-Pr) Shift (uC/cm2):	3.52e+00
Offset (uC/cm2):	2.22e+01

A (Loop Area - uC/cm2·Volts):	-6.34e-02



Hysteresis Version: 5.48.1 - Radiant Technologies, Inc., 1999 - 9/12/24

