»»»»»»»»»»»»»»»»»»»»»»»»»»»»»»»»»»»» Hysteresis ««««««««««««««««««««««««««««««««««««
»»»  Executed Version:	5.48.1
»»»  Vision Version:	5.48.4 (R)
»»»  Vision Compiled:	9/18/24
»»»  Driver Version:	5.47.0
»»»  Windows Version:	Windows 8 or 8.1
»»»  Processor Information:	x86 (AMD or Intel) - 32 Processors
»»»  Tester Name:	PMF21124-494 (100V)
»»»  Tester S/N:	PMF21124-494
»»»  Internal Amp Type:	100V RevK 270k
»»»  Internal Amp S/N:	iAB2-596/K     
»»»  Execution Count:	1
»»»»»»»»»»»»»»»»»»»»»»»»»»»»»»»»»»»»»»»»»»««««««««««««««««««««««««««««««««««««««««««

Stored:	6/30/2025 - 17:48:19
Configured:	06/30/25 10:19:58 AM
Executed:	06/30/25 05:47:56 PM

»»»»»»»»»»»»»»»»»»»»»»»»»»»»»»»»»»» Sample Info ««««««««««««««««««««««««««««««««««««
Sample Name:	
Lot Name:	
Wafer Name:	
Die Row/Column:	0/0
Capacitor Number:	0
Sample Area (cm2):	1.00e-04
Sample Thickness (microns):	1.50e-01

Amplifier:	Internal

»»»»»»»»»»»»»»»»»»»»»»»»»»»»»»»»»»» Tester Info «««««««««««««««««««««««««««««««««««
Tester Name:	PMF21124-494 (100V)
Tester Serial Number:	PMF21124-494
Return Signal Amp. Level:	1.79 [Index: 2]

»»»»»»»»»»»»»»»»»»»»»»»»»»»»»»»» Hysteresis Info ««««««««««««««««««««««««««««««««««
Task Name:	Hyst-1804
Volts:	10.00
Field:	666.67 (kV/cm)
DCBias:	0.00
DCField:	0.00 (kV/cm)
Hysteresis Period (ms):	1.00e+00
Preset:	Enabled
Preset Delay (ms):	1.00e+03
Profile:	Standard Monopolar

»»»»»»»»»»»»»»»»»»»»»»»»»»»»»»»»»»»»»» Data «««««««««««««««««««««««««««««««««««««««
Points:	2001

Valid Data

Point	Time (ms)	Drive Voltage	Measured Polarization (uC/cm2)	Capacitance (uF)	Normalized Capacitance (uF/cm2)	Dielectric Constant	Instantaneous Current (mA)
   1	0.0000e+00	-0.0072	-21.527084	0.000876	8.764346	1.484720	0.017533
   2	5.0000e-04	0.0060	-21.439421	0.000876	8.764346	1.484720	0.017533
   3	1.0000e-03	0.0150	-21.391954	0.000475	4.745572	0.803922	0.009493
   4	1.5000e-03	0.0276	-21.333370	0.000586	5.857148	0.992228	0.011717
   5	2.0000e-03	0.0346	-21.262812	0.000705	7.054229	1.195019	0.014112
   6	2.5000e-03	0.0445	-21.215345	0.000475	4.745572	0.803922	0.009493
   7	3.0000e-03	0.0533	-21.158043	0.000573	5.728889	0.970500	0.011460
   8	3.5000e-03	0.0661	-21.105018	0.000530	5.301360	0.898075	0.010605
   9	4.0000e-03	0.0781	-21.069953	0.000351	3.505738	0.593888	0.007013
  10	4.5000e-03	0.0879	-20.995118	0.000748	7.481758	1.267444	0.014967
  11	5.0000e-03	0.0966	-20.942948	0.000522	5.215854	0.883590	0.010434
  12	5.5000e-03	0.1061	-20.890778	0.000522	5.215854	0.883590	0.010434
  13	6.0000e-03	0.1144	-20.839463	0.000513	5.130349	0.869105	0.010263
  14	6.5000e-03	0.1263	-20.771470	0.000680	6.797712	1.151564	0.013598
  15	7.0000e-03	0.1369	-20.718017	0.000534	5.344113	0.905317	0.010691
  16	7.5000e-03	0.1469	-20.660715	0.000573	5.728889	0.970500	0.011460
  17	8.0000e-03	0.1534	-20.605979	0.000547	5.472372	0.927045	0.010947
  18	8.5000e-03	0.1656	-20.567920	0.000381	3.805009	0.644586	0.007612
  19	9.0000e-03	0.1742	-20.492658	0.000752	7.524511	1.274687	0.015052
  20	9.5000e-03	0.1881	-20.465290	0.000274	2.736186	0.463522	0.005474
  21	1.0000e-02	0.1958	-20.374634	0.000906	9.063616	1.535418	0.018131
  22	1.0500e-02	0.2067	-20.344700	0.000299	2.992703	0.506978	0.005987
  23	1.1000e-02	0.2154	-20.295096	0.000496	4.959337	0.840134	0.009921
  24	1.1500e-02	0.2276	-20.215985	0.000791	7.909287	1.339870	0.015822
  25	1.2000e-02	0.2350	-20.168091	0.000479	4.788325	0.811164	0.009579
  26	1.2500e-02	0.2448	-20.100954	0.000671	6.712206	1.137078	0.013427
  27	1.3000e-02	0.2569	-20.051349	0.000496	4.959337	0.840134	0.009921
  28	1.3500e-02	0.2670	-19.995330	0.000560	5.600631	0.948773	0.011204
  29	1.4000e-02	0.2766	-19.961975	0.000333	3.334727	0.564918	0.006671
  30	1.4500e-02	0.2840	-19.896121	0.000658	6.583947	1.115351	0.013171
  31	1.5000e-02	0.2954	-19.843523	0.000526	5.258607	0.890832	0.010520
  32	1.5500e-02	0.3074	-19.787077	0.000564	5.643383	0.956015	0.011289
  33	1.6000e-02	0.3175	-19.725926	0.000611	6.113665	1.035683	0.012230
  34	1.6500e-02	0.3254	-19.688723	0.000372	3.719503	0.630101	0.007441
  35	1.7000e-02	0.3357	-19.627572	0.000611	6.113665	1.035683	0.012230
  36	1.7500e-02	0.3442	-19.584810	0.000428	4.275291	0.724254	0.008553
  37	1.8000e-02	0.3561	-19.522377	0.000624	6.241924	1.057411	0.012487
  38	1.8500e-02	0.3650	-19.464220	0.000581	5.814395	0.984985	0.011631
  39	1.9000e-02	0.3749	-19.397938	0.000663	6.626700	1.122593	0.013256
  40	1.9500e-02	0.3837	-19.339781	0.000581	5.814395	0.984985	0.011631
  41	2.0000e-02	0.3957	-19.293597	0.000462	4.617314	0.782194	0.009237
  42	2.0500e-02	0.4057	-19.265801	0.000278	2.778939	0.470765	0.005559
  43	2.1000e-02	0.4160	-19.158895	0.001069	10.688226	1.810635	0.021381
  44	2.1500e-02	0.4288	-19.115277	0.000436	4.360796	0.738739	0.008724
  45	2.2000e-02	0.4347	-19.081923	0.000333	3.334727	0.564918	0.006671
  46	2.2500e-02	0.4447	-19.012220	0.000697	6.968724	1.180534	0.013941
  47	2.3000e-02	0.4568	-18.962615	0.000496	4.959337	0.840134	0.009921
  48	2.3500e-02	0.4653	-18.916432	0.000462	4.617314	0.782194	0.009237
  49	2.4000e-02	0.4769	-18.845018	0.000714	7.139735	1.209504	0.014283
  50	2.4500e-02	0.4849	-18.798835	0.000462	4.617314	0.782194	0.009237
  51	2.5000e-02	0.4941	-18.759066	0.000398	3.976020	0.673556	0.007954
  52	2.5500e-02	0.5067	-18.693211	0.000658	6.583947	1.115351	0.013171
  53	2.6000e-02	0.5157	-18.649166	0.000440	4.403549	0.745981	0.008809
  54	2.6500e-02	0.5259	-18.590581	0.000586	5.857148	0.992228	0.011717
  55	2.7000e-02	0.5375	-18.520878	0.000697	6.968724	1.180534	0.013941
  56	2.7500e-02	0.5489	-18.486668	0.000342	3.420232	0.579403	0.006842
  57	2.8000e-02	0.5561	-18.422952	0.000637	6.370183	1.079138	0.012743
  58	2.8500e-02	0.5647	-18.345980	0.000770	7.695523	1.303657	0.015395
  59	2.9000e-02	0.5743	-18.304928	0.000410	4.104279	0.695284	0.008210
  60	2.9500e-02	0.5857	-18.264731	0.000402	4.018773	0.680799	0.008039
  61	3.0000e-02	0.5933	-18.198021	0.000667	6.669453	1.129836	0.013342
  62	3.0500e-02	0.6047	-18.152265	0.000457	4.574561	0.774952	0.009151
  63	3.1000e-02	0.6139	-18.080852	0.000714	7.139735	1.209504	0.014283
  64	3.1500e-02	0.6270	-18.035096	0.000457	4.574561	0.774952	0.009151
  65	3.2000e-02	0.6369	-17.960689	0.000744	7.439006	1.260202	0.014881
  66	3.2500e-02	0.6462	-17.909802	0.000509	5.087596	0.861862	0.010177
  67	3.3000e-02	0.6548	-17.873026	0.000368	3.676750	0.622858	0.007355
  68	3.3500e-02	0.6659	-17.804606	0.000684	6.840465	1.158806	0.013684
  69	3.4000e-02	0.6738	-17.757567	0.000470	4.702820	0.796679	0.009408
  70	3.4500e-02	0.6847	-17.710528	0.000470	4.702820	0.796679	0.009408
  71	3.5000e-02	0.6977	-17.646812	0.000637	6.370183	1.079138	0.012743
  72	3.5500e-02	0.7071	-17.590793	0.000560	5.600631	0.948773	0.011204
  73	3.6000e-02	0.7201	-17.537340	0.000534	5.344113	0.905317	0.010691
  74	3.6500e-02	0.7246	-17.480894	0.000564	5.643383	0.956015	0.011289
  75	3.7000e-02	0.7370	-17.420598	0.000603	6.028160	1.021198	0.012059
  76	3.7500e-02	0.7478	-17.387244	0.000333	3.334727	0.564918	0.006671
  77	3.8000e-02	0.7568	-17.326521	0.000607	6.070913	1.028440	0.012145
  78	3.8500e-02	0.7659	-17.261094	0.000654	6.541194	1.108108	0.013085
  79	3.9000e-02	0.7750	-17.222608	0.000385	3.847761	0.651828	0.007697
  80	3.9500e-02	0.7867	-17.183694	0.000389	3.890514	0.659071	0.007783
  81	4.0000e-02	0.7962	-17.118267	0.000654	6.541194	1.108108	0.013085
  82	4.0500e-02	0.8058	-17.060538	0.000577	5.771642	0.977743	0.011546
  83	4.1000e-02	0.8161	-17.011789	0.000487	4.873831	0.825649	0.009750
  84	4.1500e-02	0.8238	-16.967743	0.000440	4.403549	0.745981	0.008809
  85	4.2000e-02	0.8345	-16.889060	0.000787	7.866535	1.332627	0.015737
  86	4.2500e-02	0.8421	-16.833469	0.000556	5.557878	0.941530	0.011118
  87	4.3000e-02	0.8556	-16.791989	0.000415	4.147032	0.702526	0.008296
  88	4.3500e-02	0.8662	-16.739819	0.000522	5.215854	0.883590	0.010434
  89	4.4000e-02	0.8753	-16.671399	0.000684	6.840465	1.158806	0.013684
  90	4.4500e-02	0.8864	-16.622222	0.000492	4.916584	0.832892	0.009835
  91	4.5000e-02	0.8966	-16.579032	0.000432	4.318043	0.731496	0.008638
  92	4.5500e-02	0.9065	-16.526862	0.000522	5.215854	0.883590	0.010434
  93	4.6000e-02	0.9164	-16.461863	0.000650	6.498442	1.100866	0.013000
  94	4.6500e-02	0.9244	-16.399857	0.000620	6.199171	1.050168	0.012401
  95	4.7000e-02	0.9399	-16.365647	0.000342	3.420232	0.579403	0.006842
  96	4.7500e-02	0.9465	-16.331864	0.000338	3.377480	0.572161	0.006756
  97	4.8000e-02	0.9543	-16.263872	0.000680	6.797712	1.151564	0.013598
  98	4.8500e-02	0.9664	-16.198018	0.000658	6.583947	1.115351	0.013171
  99	4.9000e-02	0.9737	-16.133874	0.000641	6.412936	1.086381	0.012829
 100	4.9500e-02	0.9865	-16.074862	0.000590	5.899901	0.999470	0.011802
 101	5.0000e-02	0.9960	-16.045783	0.000291	2.907198	0.492493	0.005816
 102	5.0500e-02	1.0043	-15.975225	0.000705	7.054229	1.195019	0.014112
 103	5.1000e-02	1.0158	-15.943153	0.000321	3.206468	0.543190	0.006414
 104	5.1500e-02	1.0242	-15.885424	0.000577	5.771642	0.977743	0.011546
 105	5.2000e-02	1.0335	-15.813583	0.000718	7.182488	1.216746	0.014368
 106	5.2500e-02	1.0444	-15.783649	0.000299	2.992703	0.506978	0.005987
 107	5.3000e-02	1.0549	-15.708814	0.000748	7.481758	1.267444	0.014967
 108	5.3500e-02	1.0638	-15.659210	0.000496	4.959337	0.840134	0.009921
 109	5.4000e-02	1.0767	-15.601908	0.000573	5.728889	0.970500	0.011460
 110	5.4500e-02	1.0883	-15.549310	0.000526	5.258607	0.890832	0.010520
 111	5.5000e-02	1.0960	-15.505265	0.000440	4.403549	0.745981	0.008809
 112	5.5500e-02	1.1023	-15.425727	0.000795	7.952040	1.347112	0.015908
 113	5.6000e-02	1.1200	-15.391944	0.000338	3.377480	0.572161	0.006756
 114	5.6500e-02	1.1257	-15.326945	0.000650	6.498442	1.100866	0.013000
 115	5.7000e-02	1.1357	-15.288459	0.000385	3.847761	0.651828	0.007697
 116	5.7500e-02	1.1443	-15.235861	0.000526	5.258607	0.890832	0.010520
 117	5.8000e-02	1.1566	-15.151191	0.000847	8.465075	1.434023	0.016934
 118	5.8500e-02	1.1649	-15.125534	0.000257	2.565174	0.434552	0.005132
 119	5.9000e-02	1.1793	-15.094745	0.000308	3.078209	0.521463	0.006158
 120	5.9500e-02	1.1855	-15.035732	0.000590	5.899901	0.999470	0.011802
 121	6.0000e-02	1.1928	-14.983134	0.000526	5.258607	0.890832	0.010520
 122	6.0500e-02	1.2050	-14.918135	0.000650	6.498442	1.100866	0.013000
 123	6.1000e-02	1.2170	-14.847577	0.000705	7.054229	1.195019	0.014112
 124	6.1500e-02	1.2244	-14.787710	0.000599	5.985407	1.013955	0.011974
 125	6.2000e-02	1.2357	-14.759486	0.000282	2.821692	0.478008	0.005645
 126	6.2500e-02	1.2444	-14.709454	0.000500	5.002090	0.847377	0.010006
 127	6.3000e-02	1.2592	-14.635047	0.000744	7.439006	1.260202	0.014881
 128	6.3500e-02	1.2684	-14.605541	0.000295	2.949950	0.499735	0.005901
 129	6.4000e-02	1.2758	-14.552943	0.000526	5.258607	0.890832	0.010520
 130	6.4500e-02	1.2869	-14.501201	0.000517	5.173102	0.876347	0.010349
 131	6.5000e-02	1.2930	-14.421235	0.000799	7.994793	1.354355	0.015993
 132	6.5500e-02	1.3057	-14.396005	0.000252	2.522421	0.427310	0.005046
 133	6.6000e-02	1.3139	-14.352815	0.000432	4.318043	0.731496	0.008638
 134	6.6500e-02	1.3263	-14.257454	0.000953	9.533898	1.615086	0.019072
 135	6.7000e-02	1.3342	-14.232224	0.000252	2.522421	0.427310	0.005046
 136	6.7500e-02	1.3458	-14.164660	0.000675	6.754959	1.144321	0.013513
 137	6.8000e-02	1.3528	-14.129167	0.000355	3.548491	0.601131	0.007099
 138	6.8500e-02	1.3654	-14.062885	0.000663	6.626700	1.122593	0.013256
 139	6.9000e-02	1.3777	-14.010287	0.000526	5.258607	0.890832	0.010520
 140	6.9500e-02	1.3855	-13.962820	0.000475	4.745572	0.803922	0.009493
 141	7.0000e-02	1.3959	-13.916209	0.000466	4.660067	0.789437	0.009322
 142	7.0500e-02	1.4046	-13.886276	0.000299	2.992703	0.506978	0.005987
 143	7.1000e-02	1.4182	-13.806737	0.000795	7.952040	1.347112	0.015908
 144	7.1500e-02	1.4271	-13.771244	0.000355	3.548491	0.601131	0.007099
 145	7.2000e-02	1.4350	-13.715653	0.000556	5.557878	0.941530	0.011118
 146	7.2500e-02	1.4435	-13.646805	0.000688	6.883218	1.166049	0.013770
 147	7.3000e-02	1.4547	-13.597201	0.000496	4.959337	0.840134	0.009921
 148	7.3500e-02	1.4648	-13.535623	0.000616	6.156418	1.042926	0.012316
 149	7.4000e-02	1.4773	-13.495426	0.000402	4.018773	0.680799	0.008039
 150	7.4500e-02	1.4896	-13.453946	0.000415	4.147032	0.702526	0.008296
 151	7.5000e-02	1.4951	-13.370132	0.000838	8.379569	1.419537	0.016763
 152	7.5500e-02	1.5049	-13.343191	0.000269	2.693433	0.456280	0.005388
 153	7.6000e-02	1.5156	-13.281186	0.000620	6.199171	1.050168	0.012401
 154	7.6500e-02	1.5263	-13.243982	0.000372	3.719503	0.630101	0.007441
 155	7.7000e-02	1.5343	-13.196944	0.000470	4.702820	0.796679	0.009408
 156	7.7500e-02	1.5446	-13.138787	0.000581	5.814395	0.984985	0.011631
 157	7.8000e-02	1.5543	-13.071649	0.000671	6.712206	1.137078	0.013427
 158	7.8500e-02	1.5631	-13.024183	0.000475	4.745572	0.803922	0.009493
 159	7.9000e-02	1.5742	-12.979710	0.000445	4.446302	0.753224	0.008895
 160	7.9500e-02	1.5860	-12.926684	0.000530	5.301360	0.898075	0.010605
 161	8.0000e-02	1.5951	-12.861258	0.000654	6.541194	1.108108	0.013085
 162	8.0500e-02	1.6061	-12.833462	0.000278	2.778939	0.470765	0.005559
 163	8.1000e-02	1.6182	-12.775305	0.000581	5.814395	0.984985	0.011631
 164	8.1500e-02	1.6258	-12.710734	0.000646	6.455689	1.093623	0.012914
 165	8.2000e-02	1.6336	-12.649583	0.000611	6.113665	1.035683	0.012230
 166	8.2500e-02	1.6454	-12.611097	0.000385	3.847761	0.651828	0.007697
 167	8.3000e-02	1.6541	-12.561492	0.000496	4.959337	0.840134	0.009921
 168	8.3500e-02	1.6673	-12.511033	0.000504	5.044843	0.854620	0.010092
 169	8.4000e-02	1.6758	-12.469981	0.000410	4.104279	0.695284	0.008210
 170	8.4500e-02	1.6839	-12.407975	0.000620	6.199171	1.050168	0.012401
 171	8.5000e-02	1.6970	-12.366923	0.000410	4.104279	0.695284	0.008210
 172	8.5500e-02	1.7068	-12.311332	0.000556	5.557878	0.941530	0.011118
 173	8.6000e-02	1.7178	-12.261300	0.000500	5.002090	0.847377	0.010006
 174	8.6500e-02	1.7255	-12.218965	0.000423	4.232538	0.717011	0.008467
 175	8.7000e-02	1.7341	-12.170215	0.000487	4.873831	0.825649	0.009750
 176	8.7500e-02	1.7442	-12.105216	0.000650	6.498442	1.100866	0.013000
 177	8.8000e-02	1.7574	-12.050908	0.000543	5.429619	0.919802	0.010862
 178	8.8500e-02	1.7640	-12.006007	0.000449	4.489055	0.760467	0.008980
 179	8.9000e-02	1.7758	-11.955120	0.000509	5.087596	0.861862	0.010177
 180	8.9500e-02	1.7892	-11.872588	0.000825	8.251311	1.397810	0.016506
 181	9.0000e-02	1.7956	-11.816997	0.000556	5.557878	0.941530	0.011118
 182	9.0500e-02	1.8042	-11.808444	0.000086	0.855058	0.144851	0.001711
 183	9.1000e-02	1.8134	-11.749860	0.000586	5.857148	0.992228	0.011717
 184	9.1500e-02	1.8256	-11.703249	0.000466	4.660067	0.789437	0.009322
 185	9.2000e-02	1.8365	-11.636111	0.000671	6.712206	1.137078	0.013427
 186	9.2500e-02	1.8472	-11.591211	0.000449	4.489055	0.760467	0.008980
 187	9.3000e-02	1.8569	-11.528350	0.000628	6.284677	1.064653	0.012572
 188	9.3500e-02	1.8658	-11.485160	0.000432	4.318043	0.731496	0.008638
 189	9.4000e-02	1.8744	-11.455226	0.000299	2.992703	0.506978	0.005987
 190	9.4500e-02	1.8898	-11.367135	0.000881	8.807098	1.491963	0.017618
 191	9.5000e-02	1.8977	-11.320952	0.000462	4.617314	0.782194	0.009237
 192	9.5500e-02	1.9070	-11.289307	0.000316	3.163715	0.535948	0.006329
 193	9.6000e-02	1.9145	-11.229012	0.000603	6.028160	1.021198	0.012059
 194	9.6500e-02	1.9283	-11.204637	0.000244	2.436916	0.412825	0.004875
 195	9.7000e-02	1.9357	-11.125527	0.000791	7.909287	1.339870	0.015822
 196	9.7500e-02	1.9476	-11.087896	0.000376	3.762256	0.637343	0.007526
 197	9.8000e-02	1.9550	-11.044278	0.000436	4.360796	0.738739	0.008724
 198	9.8500e-02	1.9687	-10.999805	0.000445	4.446302	0.753224	0.008895
 199	9.9000e-02	1.9753	-10.927964	0.000718	7.182488	1.216746	0.014368
 200	9.9500e-02	1.9889	-10.880497	0.000475	4.745572	0.803922	0.009493
 201	1.0000e-01	1.9949	-10.851419	0.000291	2.907198	0.492493	0.005816
 202	1.0050e-01	2.0067	-10.791979	0.000594	5.942654	1.006713	0.011888
 203	1.0100e-01	2.0151	-10.719283	0.000727	7.267994	1.231231	0.014539
 204	1.0150e-01	2.0239	-10.664547	0.000547	5.472372	0.927045	0.010947
 205	1.0200e-01	2.0358	-10.617508	0.000470	4.702820	0.796679	0.009408
 206	1.0250e-01	2.0454	-10.584581	0.000329	3.291974	0.557675	0.006585
 207	1.0300e-01	2.0564	-10.523003	0.000616	6.156418	1.042926	0.012316
 208	1.0350e-01	2.0649	-10.472543	0.000504	5.044843	0.854620	0.010092
 209	1.0400e-01	2.0782	-10.443892	0.000286	2.864445	0.485250	0.005730
 210	1.0450e-01	2.0874	-10.365637	0.000782	7.823782	1.325384	0.015651
 211	1.0500e-01	2.0968	-10.324157	0.000415	4.147032	0.702526	0.008296
 212	1.0550e-01	2.1073	-10.274552	0.000496	4.959337	0.840134	0.009921
 213	1.0600e-01	2.1150	-10.235211	0.000393	3.933267	0.666314	0.007868
 214	1.0650e-01	2.1255	-10.190310	0.000449	4.489055	0.760467	0.008980
 215	1.0700e-01	2.1348	-10.115903	0.000744	7.439006	1.260202	0.014881
 216	1.0750e-01	2.1469	-10.086397	0.000295	2.949950	0.499735	0.005901
 217	1.0800e-01	2.1558	-10.029096	0.000573	5.728889	0.970500	0.011460
 218	1.0850e-01	2.1661	-9.976070	0.000530	5.301360	0.898075	0.010605
 219	1.0900e-01	2.1767	-9.918768	0.000573	5.728889	0.970500	0.011460
 220	1.0950e-01	2.1864	-9.882420	0.000363	3.633997	0.615616	0.007270
 221	1.1000e-01	2.1967	-9.822125	0.000603	6.028160	1.021198	0.012059
 222	1.1050e-01	2.2076	-9.775514	0.000466	4.660067	0.789437	0.009322
 223	1.1100e-01	2.2133	-9.709232	0.000663	6.626700	1.122593	0.013256
 224	1.1150e-01	2.2272	-9.674594	0.000346	3.462985	0.586646	0.006928
 225	1.1200e-01	2.2364	-9.606174	0.000684	6.840465	1.158806	0.013684
 226	1.1250e-01	2.2479	-9.569826	0.000363	3.633997	0.615616	0.007270
 227	1.1300e-01	2.2563	-9.535616	0.000342	3.420232	0.579403	0.006842
 228	1.1350e-01	2.2668	-9.486011	0.000496	4.959337	0.840134	0.009921
 229	1.1400e-01	2.2763	-9.432558	0.000534	5.344113	0.905317	0.010691
 230	1.1450e-01	2.2879	-9.370125	0.000624	6.241924	1.057411	0.012487
 231	1.1500e-01	2.2965	-9.318382	0.000517	5.173102	0.876347	0.010349
 232	1.1550e-01	2.3055	-9.274337	0.000440	4.403549	0.745981	0.008809
 233	1.1600e-01	2.3181	-9.218318	0.000560	5.600631	0.948773	0.011204
 234	1.1650e-01	2.3242	-9.175556	0.000428	4.275291	0.724254	0.008553
 235	1.1700e-01	2.3389	-9.151609	0.000239	2.394163	0.405582	0.004789
 236	1.1750e-01	2.3450	-9.089175	0.000624	6.241924	1.057411	0.012487
 237	1.1800e-01	2.3563	-9.014768	0.000744	7.439006	1.260202	0.014881
 238	1.1850e-01	2.3669	-8.972434	0.000423	4.232538	0.717011	0.008467
 239	1.1900e-01	2.3758	-8.928816	0.000436	4.360796	0.738739	0.008724
 240	1.1950e-01	2.3895	-8.890757	0.000381	3.805009	0.644586	0.007612
 241	1.2000e-01	2.3994	-8.832172	0.000586	5.857148	0.992228	0.011717
 242	1.2050e-01	2.4048	-8.768029	0.000641	6.412936	1.086381	0.012829
 243	1.2100e-01	2.4183	-8.741088	0.000269	2.693433	0.456280	0.005388
 244	1.2150e-01	2.4287	-8.684214	0.000569	5.686136	0.963258	0.011375
 245	1.2200e-01	2.4393	-8.640596	0.000436	4.360796	0.738739	0.008724
 246	1.2250e-01	2.4454	-8.597834	0.000428	4.275291	0.724254	0.008553
 247	1.2300e-01	2.4584	-8.541815	0.000560	5.600631	0.948773	0.011204
 248	1.2350e-01	2.4669	-8.487934	0.000539	5.386866	0.912560	0.010776
 249	1.2400e-01	2.4792	-8.436619	0.000513	5.130349	0.869105	0.010263
 250	1.2450e-01	2.4895	-8.385732	0.000509	5.087596	0.861862	0.010177
 251	1.2500e-01	2.4956	-8.358791	0.000269	2.693433	0.456280	0.005388
 252	1.2550e-01	2.5045	-8.300634	0.000581	5.814395	0.984985	0.011631
 253	1.2600e-01	2.5155	-8.247181	0.000534	5.344113	0.905317	0.010691
 254	1.2650e-01	2.5297	-8.187314	0.000599	5.985407	1.013955	0.011974
 255	1.2700e-01	2.5351	-8.140275	0.000470	4.702820	0.796679	0.009408
 256	1.2750e-01	2.5468	-8.102644	0.000376	3.762256	0.637343	0.007526
 257	1.2800e-01	2.5555	-8.061592	0.000410	4.104279	0.695284	0.008210
 258	1.2850e-01	2.5658	-8.006000	0.000556	5.557878	0.941530	0.011118
 259	1.2900e-01	2.5771	-7.941429	0.000646	6.455689	1.093623	0.012914
 260	1.2950e-01	2.5870	-7.905081	0.000363	3.633997	0.615616	0.007270
 261	1.3000e-01	2.5946	-7.858042	0.000470	4.702820	0.796679	0.009408
 262	1.3050e-01	2.6062	-7.805872	0.000522	5.215854	0.883590	0.010434
 263	1.3100e-01	2.6156	-7.759688	0.000462	4.617314	0.782194	0.009237
 264	1.3150e-01	2.6241	-7.712222	0.000475	4.745572	0.803922	0.009493
 265	1.3200e-01	2.6373	-7.663473	0.000487	4.873831	0.825649	0.009750
 266	1.3250e-01	2.6443	-7.598901	0.000646	6.455689	1.093623	0.012914
 267	1.3300e-01	2.6563	-7.573244	0.000257	2.565174	0.434552	0.005132
 268	1.3350e-01	2.6657	-7.528343	0.000449	4.489055	0.760467	0.008980
 269	1.3400e-01	2.6749	-7.465482	0.000628	6.284677	1.064653	0.012572
 270	1.3450e-01	2.6852	-7.430844	0.000346	3.462985	0.586646	0.006928
 271	1.3500e-01	2.6951	-7.367556	0.000633	6.327430	1.071896	0.012658
 272	1.3550e-01	2.7069	-7.344464	0.000231	2.308657	0.391097	0.004618
 273	1.3600e-01	2.7173	-7.267064	0.000774	7.738276	1.310899	0.015480
 274	1.3650e-01	2.7249	-7.214894	0.000522	5.215854	0.883590	0.010434
 275	1.3700e-01	2.7362	-7.174697	0.000402	4.018773	0.680799	0.008039
 276	1.3750e-01	2.7493	-7.143480	0.000312	3.120962	0.528705	0.006243
 277	1.3800e-01	2.7585	-7.084040	0.000594	5.942654	1.006713	0.011888
 278	1.3850e-01	2.7674	-7.042133	0.000419	4.189785	0.709769	0.008381
 279	1.3900e-01	2.7771	-7.003647	0.000385	3.847761	0.651828	0.007697
 280	1.3950e-01	2.7887	-6.934799	0.000688	6.883218	1.166049	0.013770
 281	1.4000e-01	2.7971	-6.885195	0.000496	4.959337	0.840134	0.009921
 282	1.4050e-01	2.8076	-6.859965	0.000252	2.522421	0.427310	0.005046
 283	1.4100e-01	2.8165	-6.788551	0.000714	7.139735	1.209504	0.014283
 284	1.4150e-01	2.8278	-6.738947	0.000496	4.959337	0.840134	0.009921
 285	1.4200e-01	2.8366	-6.712434	0.000265	2.650680	0.449037	0.005303
 286	1.4250e-01	2.8488	-6.657698	0.000547	5.472372	0.927045	0.010947
 287	1.4300e-01	2.8551	-6.587995	0.000697	6.968724	1.180534	0.013941
 288	1.4350e-01	2.8647	-6.564048	0.000239	2.394163	0.405582	0.004789
 289	1.4400e-01	2.8753	-6.504608	0.000594	5.942654	1.006713	0.011888
 290	1.4450e-01	2.8844	-6.463556	0.000410	4.104279	0.695284	0.008210
 291	1.4500e-01	2.8969	-6.421649	0.000419	4.189785	0.709769	0.008381
 292	1.4550e-01	2.9054	-6.370334	0.000513	5.130349	0.869105	0.010263
 293	1.4600e-01	2.9193	-6.313032	0.000573	5.728889	0.970500	0.011460
 294	1.4650e-01	2.9274	-6.269842	0.000432	4.318043	0.731496	0.008638
 295	1.4700e-01	2.9364	-6.238625	0.000312	3.120962	0.528705	0.006243
 296	1.4750e-01	2.9469	-6.170205	0.000684	6.840465	1.158806	0.013684
 297	1.4800e-01	2.9547	-6.122311	0.000479	4.788325	0.811164	0.009579
 298	1.4850e-01	2.9642	-6.092377	0.000299	2.992703	0.506978	0.005987
 299	1.4900e-01	2.9741	-6.044483	0.000479	4.788325	0.811164	0.009579
 300	1.4950e-01	2.9891	-5.983333	0.000611	6.113665	1.035683	0.012230
 301	1.5000e-01	2.9974	-5.945702	0.000376	3.762256	0.637343	0.007526
 302	1.5050e-01	3.0060	-5.899946	0.000457	4.574561	0.774952	0.009151
 303	1.5100e-01	3.0164	-5.847348	0.000526	5.258607	0.890832	0.010520
 304	1.5150e-01	3.0237	-5.803303	0.000440	4.403549	0.745981	0.008809
 305	1.5200e-01	3.0378	-5.740869	0.000624	6.241924	1.057411	0.012487
 306	1.5250e-01	3.0458	-5.703238	0.000376	3.762256	0.637343	0.007526
 307	1.5300e-01	3.0574	-5.678436	0.000248	2.479669	0.420067	0.004960
 308	1.5350e-01	3.0664	-5.611299	0.000671	6.712206	1.137078	0.013427
 309	1.5400e-01	3.0786	-5.564260	0.000470	4.702820	0.796679	0.009408
 310	1.5450e-01	3.0881	-5.527912	0.000363	3.633997	0.615616	0.007270
 311	1.5500e-01	3.0963	-5.484294	0.000436	4.360796	0.738739	0.008724
 312	1.5550e-01	3.1075	-5.431269	0.000530	5.301360	0.898075	0.010605
 313	1.5600e-01	3.1152	-5.379526	0.000517	5.173102	0.876347	0.010349
 314	1.5650e-01	3.1278	-5.316665	0.000628	6.284677	1.064653	0.012572
 315	1.5700e-01	3.1375	-5.268771	0.000479	4.788325	0.811164	0.009579
 316	1.5750e-01	3.1485	-5.239265	0.000295	2.949950	0.499735	0.005901
 317	1.5800e-01	3.1589	-5.172983	0.000663	6.626700	1.122593	0.013256
 318	1.5850e-01	3.1683	-5.128082	0.000449	4.489055	0.760467	0.008980
 319	1.5900e-01	3.1775	-5.084892	0.000432	4.318043	0.731496	0.008638
 320	1.5950e-01	3.1833	-5.052393	0.000325	3.249221	0.550433	0.006500
 321	1.6000e-01	3.1958	-5.004071	0.000483	4.831078	0.818407	0.009664
 322	1.6050e-01	3.2068	-4.958743	0.000453	4.531808	0.767709	0.009066
 323	1.6100e-01	3.2159	-4.913414	0.000453	4.531808	0.767709	0.009066
 324	1.6150e-01	3.2254	-4.867659	0.000457	4.574561	0.774952	0.009151
 325	1.6200e-01	3.2356	-4.819337	0.000483	4.831078	0.818407	0.009664
 326	1.6250e-01	3.2448	-4.772298	0.000470	4.702820	0.796679	0.009408
 327	1.6300e-01	3.2571	-4.729963	0.000423	4.232538	0.717011	0.008467
 328	1.6350e-01	3.2642	-4.696181	0.000338	3.377480	0.572161	0.006756
 329	1.6400e-01	3.2744	-4.628616	0.000675	6.754959	1.144321	0.013513
 330	1.6450e-01	3.2877	-4.577301	0.000513	5.130349	0.869105	0.010263
 331	1.6500e-01	3.2947	-4.549078	0.000282	2.821692	0.478008	0.005645
 332	1.6550e-01	3.3026	-4.508453	0.000406	4.061526	0.688041	0.008125
 333	1.6600e-01	3.3163	-4.460987	0.000475	4.745572	0.803922	0.009493
 334	1.6650e-01	3.3242	-4.394277	0.000667	6.669453	1.129836	0.013342
 335	1.6700e-01	3.3374	-4.360067	0.000342	3.420232	0.579403	0.006842
 336	1.6750e-01	3.3450	-4.306187	0.000539	5.386866	0.912560	0.010776
 337	1.6800e-01	3.3551	-4.266417	0.000398	3.976020	0.673556	0.007954
 338	1.6850e-01	3.3673	-4.220661	0.000457	4.574561	0.774952	0.009151
 339	1.6900e-01	3.3743	-4.172767	0.000479	4.788325	0.811164	0.009579
 340	1.6950e-01	3.3864	-4.146682	0.000261	2.607927	0.441795	0.005217
 341	1.7000e-01	3.3975	-4.086387	0.000603	6.028160	1.021198	0.012059
 342	1.7050e-01	3.4070	-4.035072	0.000513	5.130349	0.869105	0.010263
 343	1.7100e-01	3.4171	-4.000434	0.000346	3.462985	0.586646	0.006928
 344	1.7150e-01	3.4265	-3.946554	0.000539	5.386866	0.912560	0.010776
 345	1.7200e-01	3.4381	-3.906357	0.000402	4.018773	0.680799	0.008039
 346	1.7250e-01	3.4486	-3.852476	0.000539	5.386866	0.912560	0.010776
 347	1.7300e-01	3.4543	-3.818266	0.000342	3.420232	0.579403	0.006842
 348	1.7350e-01	3.4680	-3.778925	0.000393	3.933267	0.666314	0.007868
 349	1.7400e-01	3.4772	-3.734879	0.000440	4.403549	0.745981	0.008809
 350	1.7450e-01	3.4848	-3.680998	0.000539	5.386866	0.912560	0.010776
 351	1.7500e-01	3.4958	-3.640374	0.000406	4.061526	0.688041	0.008125
 352	1.7550e-01	3.5046	-3.578368	0.000620	6.199171	1.050168	0.012401
 353	1.7600e-01	3.5162	-3.548435	0.000299	2.992703	0.506978	0.005987
 354	1.7650e-01	3.5268	-3.495409	0.000530	5.301360	0.898075	0.010605
 355	1.7700e-01	3.5359	-3.441101	0.000543	5.429619	0.919802	0.010862
 356	1.7750e-01	3.5480	-3.411594	0.000295	2.949950	0.499735	0.005901
 357	1.7800e-01	3.5563	-3.362418	0.000492	4.916584	0.832892	0.009835
 358	1.7850e-01	3.5674	-3.308109	0.000543	5.429619	0.919802	0.010862
 359	1.7900e-01	3.5754	-3.265774	0.000423	4.232538	0.717011	0.008467
 360	1.7950e-01	3.5866	-3.227288	0.000385	3.847761	0.651828	0.007697
 361	1.8000e-01	3.5968	-3.163144	0.000641	6.412936	1.086381	0.012829
 362	1.8050e-01	3.6084	-3.127224	0.000359	3.591244	0.608373	0.007184
 363	1.8100e-01	3.6147	-3.078474	0.000487	4.873831	0.825649	0.009750
 364	1.8150e-01	3.6249	-3.039560	0.000389	3.890514	0.659071	0.007783
 365	1.8200e-01	3.6374	-3.007061	0.000325	3.249221	0.550433	0.006500
 366	1.8250e-01	3.6462	-2.967719	0.000393	3.933267	0.666314	0.007868
 367	1.8300e-01	3.6572	-2.916404	0.000513	5.130349	0.869105	0.010263
 368	1.8350e-01	3.6678	-2.862096	0.000543	5.429619	0.919802	0.010862
 369	1.8400e-01	3.6768	-2.824893	0.000372	3.719503	0.630101	0.007441
 370	1.8450e-01	3.6862	-2.780420	0.000445	4.446302	0.753224	0.008895
 371	1.8500e-01	3.6963	-2.728249	0.000522	5.215854	0.883590	0.010434
 372	1.8550e-01	3.7070	-2.673941	0.000543	5.429619	0.919802	0.010862
 373	1.8600e-01	3.7170	-2.623053	0.000509	5.087596	0.861862	0.010177
 374	1.8650e-01	3.7262	-2.598251	0.000248	2.479669	0.420067	0.004960
 375	1.8700e-01	3.7363	-2.552923	0.000453	4.531808	0.767709	0.009066
 376	1.8750e-01	3.7463	-2.512726	0.000402	4.018773	0.680799	0.008039
 377	1.8800e-01	3.7561	-2.437036	0.000757	7.567264	1.281929	0.015138
 378	1.8850e-01	3.7663	-2.413517	0.000235	2.351410	0.398340	0.004704
 379	1.8900e-01	3.7778	-2.368616	0.000449	4.489055	0.760467	0.008980
 380	1.8950e-01	3.7904	-2.330130	0.000385	3.847761	0.651828	0.007697
 381	1.9000e-01	3.7949	-2.285657	0.000445	4.446302	0.753224	0.008895
 382	1.9050e-01	3.8083	-2.250164	0.000355	3.548491	0.601131	0.007099
 383	1.9100e-01	3.8180	-2.190297	0.000599	5.985407	1.013955	0.011974
 384	1.9150e-01	3.8275	-2.151810	0.000385	3.847761	0.651828	0.007697
 385	1.9200e-01	3.8361	-2.127436	0.000244	2.436916	0.412825	0.004875
 386	1.9250e-01	3.8513	-2.074410	0.000530	5.301360	0.898075	0.010605
 387	1.9300e-01	3.8568	-2.024378	0.000500	5.002090	0.847377	0.010006
 388	1.9350e-01	3.8696	-1.969214	0.000552	5.515125	0.934287	0.011033
 389	1.9400e-01	3.8794	-1.943557	0.000257	2.565174	0.434552	0.005132
 390	1.9450e-01	3.8869	-1.881551	0.000620	6.199171	1.050168	0.012401
 391	1.9500e-01	3.8965	-1.857604	0.000239	2.394163	0.405582	0.004789
 392	1.9550e-01	3.9064	-1.787046	0.000705	7.054229	1.195019	0.014112
 393	1.9600e-01	3.9169	-1.747277	0.000398	3.976020	0.673556	0.007954
 394	1.9650e-01	3.9266	-1.696817	0.000504	5.044843	0.854620	0.010092
 395	1.9700e-01	3.9383	-1.669449	0.000274	2.736186	0.463522	0.005474
 396	1.9750e-01	3.9456	-1.602740	0.000667	6.669453	1.129836	0.013342
 397	1.9800e-01	3.9559	-1.578793	0.000239	2.394163	0.405582	0.004789
 398	1.9850e-01	3.9658	-1.535602	0.000432	4.318043	0.731496	0.008638
 399	1.9900e-01	3.9743	-1.489419	0.000462	4.617314	0.782194	0.009237
 400	1.9950e-01	3.9871	-1.430834	0.000586	5.857148	0.992228	0.011717
 401	2.0000e-01	3.9984	-1.400045	0.000308	3.078209	0.521463	0.006158
 402	2.0050e-01	4.0076	-1.340178	0.000599	5.985407	1.013955	0.011974
 403	2.0100e-01	4.0186	-1.318796	0.000214	2.137645	0.362127	0.004276
 404	2.0150e-01	4.0271	-1.261922	0.000569	5.686136	0.963258	0.011375
 405	2.0200e-01	4.0363	-1.211035	0.000509	5.087596	0.861862	0.010177
 406	2.0250e-01	4.0480	-1.187088	0.000239	2.394163	0.405582	0.004789
 407	2.0300e-01	4.0558	-1.144753	0.000423	4.232538	0.717011	0.008467
 408	2.0350e-01	4.0635	-1.097714	0.000470	4.702820	0.796679	0.009408
 409	2.0400e-01	4.0749	-1.055379	0.000423	4.232538	0.717011	0.008467
 410	2.0450e-01	4.0865	-1.017321	0.000381	3.805009	0.644586	0.007612
 411	2.0500e-01	4.0958	-0.964723	0.000526	5.258607	0.890832	0.010520
 412	2.0550e-01	4.1064	-0.919822	0.000449	4.489055	0.760467	0.008980
 413	2.0600e-01	4.1153	-0.885184	0.000346	3.462985	0.586646	0.006928
 414	2.0650e-01	4.1266	-0.843277	0.000419	4.189785	0.709769	0.008381
 415	2.0700e-01	4.1354	-0.788969	0.000543	5.429619	0.919802	0.010862
 416	2.0750e-01	4.1467	-0.749627	0.000393	3.933267	0.666314	0.007868
 417	2.0800e-01	4.1545	-0.704726	0.000449	4.489055	0.760467	0.008980
 418	2.0850e-01	4.1660	-0.657688	0.000470	4.702820	0.796679	0.009408
 419	2.0900e-01	4.1769	-0.621767	0.000359	3.591244	0.608373	0.007184
 420	2.0950e-01	4.1876	-0.579005	0.000428	4.275291	0.724254	0.008553
 421	2.1000e-01	4.1994	-0.539235	0.000398	3.976020	0.673556	0.007954
 422	2.1050e-01	4.2043	-0.479368	0.000599	5.985407	1.013955	0.011974
 423	2.1100e-01	4.2180	-0.462691	0.000167	1.667363	0.282459	0.003335
 424	2.1150e-01	4.2274	-0.397692	0.000650	6.498442	1.100866	0.013000
 425	2.1200e-01	4.2349	-0.372889	0.000248	2.479669	0.420067	0.004960
 426	2.1250e-01	4.2480	-0.328416	0.000445	4.446302	0.753224	0.008895
 427	2.1300e-01	4.2548	-0.272825	0.000556	5.557878	0.941530	0.011118
 428	2.1350e-01	4.2670	-0.223648	0.000492	4.916584	0.832892	0.009835
 429	2.1400e-01	4.2761	-0.171905	0.000517	5.173102	0.876347	0.010349
 430	2.1450e-01	4.2877	-0.146675	0.000252	2.522421	0.427310	0.005046
 431	2.1500e-01	4.2989	-0.111610	0.000351	3.505738	0.593888	0.007013
 432	2.1550e-01	4.3079	-0.058157	0.000534	5.344113	0.905317	0.010691
 433	2.1600e-01	4.3172	-0.023947	0.000342	3.420232	0.579403	0.006842
 434	2.1650e-01	4.3256	0.016677	0.000406	4.061526	0.688041	0.008125
 435	2.1700e-01	4.3372	0.070131	0.000534	5.344113	0.905317	0.010691
 436	2.1750e-01	4.3466	0.109900	0.000398	3.976020	0.673556	0.007954
 437	2.1800e-01	4.3581	0.133419	0.000235	2.351410	0.398340	0.004704
 438	2.1850e-01	4.3689	0.182168	0.000487	4.873831	0.825649	0.009750
 439	2.1900e-01	4.3781	0.239898	0.000577	5.771642	0.977743	0.011546
 440	2.1950e-01	4.3854	0.265128	0.000252	2.522421	0.427310	0.005046
 441	2.2000e-01	4.3970	0.312594	0.000475	4.745572	0.803922	0.009493
 442	2.2050e-01	4.4083	0.366047	0.000534	5.344113	0.905317	0.010691
 443	2.2100e-01	4.4189	0.397692	0.000316	3.163715	0.535948	0.006329
 444	2.2150e-01	4.4283	0.452000	0.000543	5.429619	0.919802	0.010862
 445	2.2200e-01	4.4382	0.499466	0.000475	4.745572	0.803922	0.009493
 446	2.2250e-01	4.4461	0.517854	0.000184	1.838375	0.311429	0.003678
 447	2.2300e-01	4.4553	0.567031	0.000492	4.916584	0.832892	0.009835
 448	2.2350e-01	4.4651	0.621767	0.000547	5.472372	0.927045	0.010947
 449	2.2400e-01	4.4759	0.663674	0.000419	4.189785	0.709769	0.008381
 450	2.2450e-01	4.4882	0.701733	0.000381	3.805009	0.644586	0.007612
 451	2.2500e-01	4.4957	0.748344	0.000466	4.660067	0.789437	0.009322
 452	2.2550e-01	4.5062	0.794100	0.000457	4.574561	0.774952	0.009151
 453	2.2600e-01	4.5161	0.827883	0.000338	3.377480	0.572161	0.006756
 454	2.2650e-01	4.5259	0.866369	0.000385	3.847761	0.651828	0.007697
 455	2.2700e-01	4.5364	0.899296	0.000329	3.291974	0.557675	0.006585
 456	2.2750e-01	4.5473	0.962584	0.000633	6.327430	1.071896	0.012658
 457	2.2800e-01	4.5584	0.986532	0.000239	2.394163	0.405582	0.004789
 458	2.2850e-01	4.5685	1.041695	0.000552	5.515125	0.934287	0.011033
 459	2.2900e-01	4.5789	1.077616	0.000359	3.591244	0.608373	0.007184
 460	2.2950e-01	4.5874	1.110970	0.000333	3.334727	0.564918	0.006671
 461	2.3000e-01	4.5999	1.160575	0.000496	4.959337	0.840134	0.009921
 462	2.3050e-01	4.6066	1.214456	0.000539	5.386866	0.912560	0.010776
 463	2.3100e-01	4.6182	1.247811	0.000333	3.334727	0.564918	0.006671
 464	2.3150e-01	4.6265	1.272613	0.000248	2.479669	0.420067	0.004960
 465	2.3200e-01	4.6361	1.329059	0.000564	5.643383	0.956015	0.011289
 466	2.3250e-01	4.6475	1.361559	0.000325	3.249221	0.550433	0.006500
 467	2.3300e-01	4.6596	1.396197	0.000346	3.462985	0.586646	0.006928
 468	2.3350e-01	4.6716	1.459485	0.000633	6.327430	1.071896	0.012658
 469	2.3400e-01	4.6771	1.478728	0.000192	1.923881	0.325914	0.003849
 470	2.3450e-01	4.6864	1.536458	0.000577	5.771642	0.977743	0.011546
 471	2.3500e-01	4.6973	1.578793	0.000423	4.232538	0.717011	0.008467
 472	2.3550e-01	4.7055	1.609582	0.000308	3.078209	0.521463	0.006158
 473	2.3600e-01	4.7162	1.657476	0.000479	4.788325	0.811164	0.009579
 474	2.3650e-01	4.7290	1.700666	0.000432	4.318043	0.731496	0.008638
 475	2.3700e-01	4.7375	1.734876	0.000342	3.420232	0.579403	0.006842
 476	2.3750e-01	4.7462	1.793460	0.000586	5.857148	0.992228	0.011717
 477	2.3800e-01	4.7578	1.836651	0.000432	4.318043	0.731496	0.008638
 478	2.3850e-01	4.7665	1.871716	0.000351	3.505738	0.593888	0.007013
 479	2.3900e-01	4.7784	1.899084	0.000274	2.736186	0.463522	0.005474
 480	2.3950e-01	4.7870	1.939708	0.000406	4.061526	0.688041	0.008125
 481	2.4000e-01	4.7980	1.989740	0.000500	5.002090	0.847377	0.010006
 482	2.4050e-01	4.8062	2.028227	0.000385	3.847761	0.651828	0.007697
 483	2.4100e-01	4.8187	2.057733	0.000295	2.949950	0.499735	0.005901
 484	2.4150e-01	4.8260	2.104772	0.000470	4.702820	0.796679	0.009408
 485	2.4200e-01	4.8341	2.150100	0.000453	4.531808	0.767709	0.009066
 486	2.4250e-01	4.8459	2.189441	0.000393	3.933267	0.666314	0.007868
 487	2.4300e-01	4.8584	2.227072	0.000376	3.762256	0.637343	0.007526
 488	2.4350e-01	4.8685	2.260000	0.000329	3.291974	0.557675	0.006585
 489	2.4400e-01	4.8773	2.307894	0.000479	4.788325	0.811164	0.009579
 490	2.4450e-01	4.8853	2.371610	0.000637	6.370183	1.079138	0.012743
 491	2.4500e-01	4.8955	2.401544	0.000299	2.992703	0.506978	0.005987
 492	2.4550e-01	4.9045	2.440030	0.000385	3.847761	0.651828	0.007697
 493	2.4600e-01	4.9202	2.463122	0.000231	2.308657	0.391097	0.004618
 494	2.4650e-01	4.9257	2.522989	0.000599	5.985407	1.013955	0.011974
 495	2.4700e-01	4.9367	2.568745	0.000457	4.574561	0.774952	0.009151
 496	2.4750e-01	4.9481	2.597824	0.000291	2.907198	0.492493	0.005816
 497	2.4800e-01	4.9561	2.633316	0.000355	3.548491	0.601131	0.007099
 498	2.4850e-01	4.9664	2.650849	0.000175	1.752869	0.296944	0.003507
 499	2.4900e-01	4.9750	2.713282	0.000624	6.241924	1.057411	0.012487
 500	2.4950e-01	4.9872	2.747920	0.000346	3.462985	0.586646	0.006928
 501	2.5000e-01	4.9948	2.783841	0.000359	3.591244	0.608373	0.007184
 502	2.5050e-01	5.0073	2.838149	0.000543	5.429619	0.919802	0.010862
 503	2.5100e-01	5.0146	2.861241	0.000231	2.308657	0.391097	0.004618
 504	2.5150e-01	5.0281	2.920681	0.000594	5.942654	1.006713	0.011888
 505	2.5200e-01	5.0366	2.975844	0.000552	5.515125	0.934287	0.011033
 506	2.5250e-01	5.0458	2.975844	0.000000	0.000000	0.000000	0.000000
 507	2.5300e-01	5.0595	3.042981	0.000671	6.712206	1.137078	0.013427
 508	2.5350e-01	5.0662	3.072915	0.000299	2.992703	0.506978	0.005987
 509	2.5400e-01	5.0772	3.127224	0.000543	5.429619	0.919802	0.010862
 510	2.5450e-01	5.0868	3.162717	0.000355	3.548491	0.601131	0.007099
 511	2.5500e-01	5.0967	3.185381	0.000227	2.265904	0.383855	0.004533
 512	2.5550e-01	5.1068	3.249952	0.000646	6.455689	1.093623	0.012914
 513	2.5600e-01	5.1166	3.264919	0.000150	1.496352	0.253489	0.002993
 514	2.5650e-01	5.1276	3.322221	0.000573	5.728889	0.970500	0.011460
 515	2.5700e-01	5.1334	3.346595	0.000244	2.436916	0.412825	0.004875
 516	2.5750e-01	5.1472	3.418436	0.000718	7.182488	1.216746	0.014368
 517	2.5800e-01	5.1596	3.447943	0.000295	2.949950	0.499735	0.005901
 518	2.5850e-01	5.1675	3.472317	0.000244	2.436916	0.412825	0.004875
 519	2.5900e-01	5.1748	3.539027	0.000667	6.669453	1.129836	0.013342
 520	2.5950e-01	5.1883	3.539027	0.000000	0.000000	0.000000	0.000000
 521	2.6000e-01	5.1961	3.592908	0.000539	5.386866	0.912560	0.010776
 522	2.6050e-01	5.2052	3.632677	0.000398	3.976020	0.673556	0.007954
 523	2.6100e-01	5.2170	3.661755	0.000291	2.907198	0.492493	0.005816
 524	2.6150e-01	5.2267	3.725044	0.000633	6.327430	1.071896	0.012658
 525	2.6200e-01	5.2376	3.744287	0.000192	1.923881	0.325914	0.003849
 526	2.6250e-01	5.2469	3.796030	0.000517	5.173102	0.876347	0.010349
 527	2.6300e-01	5.2585	3.826391	0.000304	3.035456	0.514220	0.006072
 528	2.6350e-01	5.2669	3.880272	0.000539	5.386866	0.912560	0.010776
 529	2.6400e-01	5.2792	3.917475	0.000372	3.719503	0.630101	0.007441
 530	2.6450e-01	5.2893	3.947837	0.000304	3.035456	0.514220	0.006072
 531	2.6500e-01	5.2966	4.002573	0.000547	5.472372	0.927045	0.010947
 532	2.6550e-01	5.3058	4.040204	0.000376	3.762256	0.637343	0.007526
 533	2.6600e-01	5.3180	4.064151	0.000239	2.394163	0.405582	0.004789
 534	2.6650e-01	5.3271	4.126584	0.000624	6.241924	1.057411	0.012487
 535	2.6700e-01	5.3360	4.143261	0.000167	1.667363	0.282459	0.003335
 536	2.6750e-01	5.3442	4.189445	0.000462	4.617314	0.782194	0.009237
 537	2.6800e-01	5.3574	4.239905	0.000504	5.044843	0.854620	0.010092
 538	2.6850e-01	5.3670	4.276680	0.000368	3.676750	0.622858	0.007355
 539	2.6900e-01	5.3763	4.299345	0.000227	2.265904	0.383855	0.004533
 540	2.6950e-01	5.3888	4.333127	0.000338	3.377480	0.572161	0.006756
 541	2.7000e-01	5.3961	4.381449	0.000483	4.831078	0.818407	0.009664
 542	2.7050e-01	5.4083	4.427632	0.000462	4.617314	0.782194	0.009237
 543	2.7100e-01	5.4170	4.459704	0.000321	3.206468	0.543190	0.006414
 544	2.7150e-01	5.4248	4.495197	0.000355	3.548491	0.601131	0.007099
 545	2.7200e-01	5.4364	4.534538	0.000393	3.933267	0.666314	0.007868
 546	2.7250e-01	5.4454	4.584143	0.000496	4.959337	0.840134	0.009921
 547	2.7300e-01	5.4559	4.612366	0.000282	2.821692	0.478008	0.005645
 548	2.7350e-01	5.4672	4.642300	0.000299	2.992703	0.506978	0.005987
 549	2.7400e-01	5.4791	4.683352	0.000410	4.104279	0.695284	0.008210
 550	2.7450e-01	5.4852	4.719273	0.000359	3.591244	0.608373	0.007184
 551	2.7500e-01	5.4974	4.769305	0.000500	5.002090	0.847377	0.010006
 552	2.7550e-01	5.5072	4.817626	0.000483	4.831078	0.818407	0.009664
 553	2.7600e-01	5.5164	4.849271	0.000316	3.163715	0.535948	0.006329
 554	2.7650e-01	5.5267	4.877494	0.000282	2.821692	0.478008	0.005645
 555	2.7700e-01	5.5371	4.943348	0.000658	6.583947	1.115351	0.013171
 556	2.7750e-01	5.5457	4.973282	0.000299	2.992703	0.506978	0.005987
 557	2.7800e-01	5.5579	4.998084	0.000248	2.479669	0.420067	0.004960
 558	2.7850e-01	5.5658	5.065649	0.000675	6.754959	1.144321	0.013513
 559	2.7900e-01	5.5765	5.087458	0.000218	2.180398	0.369369	0.004362
 560	2.7950e-01	5.5875	5.125944	0.000385	3.847761	0.651828	0.007697
 561	2.8000e-01	5.6015	5.162720	0.000368	3.676750	0.622858	0.007355
 562	2.8050e-01	5.6094	5.197358	0.000346	3.462985	0.586646	0.006928
 563	2.8100e-01	5.6195	5.232850	0.000355	3.548491	0.601131	0.007099
 564	2.8150e-01	5.6262	5.258080	0.000252	2.522421	0.427310	0.005046
 565	2.8200e-01	5.6342	5.314955	0.000569	5.686136	0.963258	0.011375
 566	2.8250e-01	5.6458	5.344888	0.000299	2.992703	0.506978	0.005987
 567	2.8300e-01	5.6567	5.379526	0.000346	3.462985	0.586646	0.006928
 568	2.8350e-01	5.6663	5.448801	0.000693	6.925971	1.173291	0.013855
 569	2.8400e-01	5.6784	5.466334	0.000175	1.752869	0.296944	0.003507
 570	2.8450e-01	5.6848	5.497123	0.000308	3.078209	0.521463	0.006158
 571	2.8500e-01	5.6970	5.565115	0.000680	6.797712	1.151564	0.013598
 572	2.8550e-01	5.7062	5.589490	0.000244	2.436916	0.412825	0.004875
 573	2.8600e-01	5.7159	5.626693	0.000372	3.719503	0.630101	0.007441
 574	2.8650e-01	5.7278	5.664752	0.000381	3.805009	0.644586	0.007612
 575	2.8700e-01	5.7361	5.698534	0.000338	3.377480	0.572161	0.006756
 576	2.8750e-01	5.7462	5.732744	0.000342	3.420232	0.579403	0.006842
 577	2.8800e-01	5.7574	5.764389	0.000316	3.163715	0.535948	0.006329
 578	2.8850e-01	5.7648	5.804585	0.000402	4.018773	0.680799	0.008039
 579	2.8900e-01	5.7782	5.843927	0.000393	3.933267	0.666314	0.007868
 580	2.8950e-01	5.7858	5.886262	0.000423	4.232538	0.717011	0.008467
 581	2.9000e-01	5.7986	5.938005	0.000517	5.173102	0.876347	0.010349
 582	2.9050e-01	5.8054	5.972642	0.000346	3.462985	0.586646	0.006928
 583	2.9100e-01	5.8148	5.982478	0.000098	0.983317	0.166578	0.001967
 584	2.9150e-01	5.8252	6.032510	0.000500	5.002090	0.847377	0.010006
 585	2.9200e-01	5.8368	6.072279	0.000398	3.976020	0.673556	0.007954
 586	2.9250e-01	5.8508	6.109055	0.000368	3.676750	0.622858	0.007355
 587	2.9300e-01	5.8565	6.168495	0.000594	5.942654	1.006713	0.011888
 588	2.9350e-01	5.8667	6.191586	0.000231	2.308657	0.391097	0.004618
 589	2.9400e-01	5.8772	6.220237	0.000286	2.864445	0.485250	0.005730
 590	2.9450e-01	5.8856	6.280960	0.000607	6.070913	1.028440	0.012145
 591	2.9500e-01	5.8949	6.302341	0.000214	2.137645	0.362127	0.004276
 592	2.9550e-01	5.9070	6.333986	0.000316	3.163715	0.535948	0.006329
 593	2.9600e-01	5.9180	6.380597	0.000466	4.660067	0.789437	0.009322
 594	2.9650e-01	5.9242	6.404544	0.000239	2.394163	0.405582	0.004789
 595	2.9700e-01	5.9354	6.457997	0.000534	5.344113	0.905317	0.010691
 596	2.9750e-01	5.9448	6.493062	0.000351	3.505738	0.593888	0.007013
 597	2.9800e-01	5.9555	6.519147	0.000261	2.607927	0.441795	0.005217
 598	2.9850e-01	5.9645	6.565331	0.000462	4.617314	0.782194	0.009237
 599	2.9900e-01	5.9769	6.598258	0.000329	3.291974	0.557675	0.006585
 600	2.9950e-01	5.9857	6.651711	0.000534	5.344113	0.905317	0.010691
 601	3.0000e-01	5.9991	6.667106	0.000154	1.539105	0.260731	0.003079
 602	3.0050e-01	6.0057	6.713717	0.000466	4.660067	0.789437	0.009322
 603	3.0100e-01	6.0181	6.753914	0.000402	4.018773	0.680799	0.008039
 604	3.0150e-01	6.0272	6.782564	0.000286	2.864445	0.485250	0.005730
 605	3.0200e-01	6.0364	6.822761	0.000402	4.018773	0.680799	0.008039
 606	3.0250e-01	6.0452	6.868090	0.000453	4.531808	0.767709	0.009066
 607	3.0300e-01	6.0568	6.895458	0.000274	2.736186	0.463522	0.005474
 608	3.0350e-01	6.0675	6.938648	0.000432	4.318043	0.731496	0.008638
 609	3.0400e-01	6.0768	6.974996	0.000363	3.633997	0.615616	0.007270
 610	3.0450e-01	6.0867	7.037002	0.000620	6.199171	1.050168	0.012401
 611	3.0500e-01	6.0965	7.030160	-0.000068	-0.684046	-0.115881	-0.001368
 612	3.0550e-01	6.1103	7.087889	0.000577	5.771642	0.977743	0.011546
 613	3.0600e-01	6.1165	7.143480	0.000556	5.557878	0.941530	0.011118
 614	3.0650e-01	6.1279	7.149467	0.000060	0.598541	0.101396	0.001197
 615	3.0700e-01	6.1371	7.200782	0.000513	5.130349	0.869105	0.010263
 616	3.0750e-01	6.1450	7.247821	0.000470	4.702820	0.796679	0.009408
 617	3.0800e-01	6.1574	7.265781	0.000180	1.795622	0.304187	0.003592
 618	3.0850e-01	6.1664	7.305978	0.000402	4.018773	0.680799	0.008039
 619	3.0900e-01	6.1755	7.351306	0.000453	4.531808	0.767709	0.009066
 620	3.0950e-01	6.1853	7.390220	0.000389	3.890514	0.659071	0.007783
 621	3.1000e-01	6.1987	7.424430	0.000342	3.420232	0.579403	0.006842
 622	3.1050e-01	6.2054	7.438114	0.000137	1.368093	0.231761	0.002737
 623	3.1100e-01	6.2146	7.477883	0.000398	3.976020	0.673556	0.007954
 624	3.1150e-01	6.2300	7.528771	0.000509	5.087596	0.861862	0.010177
 625	3.1200e-01	6.2367	7.564691	0.000359	3.591244	0.608373	0.007184
 626	3.1250e-01	6.2463	7.606171	0.000415	4.147032	0.702526	0.008296
 627	3.1300e-01	6.2567	7.643802	0.000376	3.762256	0.637343	0.007526
 628	3.1350e-01	6.2659	7.675446	0.000316	3.163715	0.535948	0.006329
 629	3.1400e-01	6.2769	7.722912	0.000475	4.745572	0.803922	0.009493
 630	3.1450e-01	6.2866	7.754129	0.000312	3.120962	0.528705	0.006243
 631	3.1500e-01	6.2964	7.793043	0.000389	3.890514	0.659071	0.007783
 632	3.1550e-01	6.3049	7.834095	0.000410	4.104279	0.695284	0.008210
 633	3.1600e-01	6.3159	7.840509	0.000064	0.641294	0.108638	0.001283
 634	3.1650e-01	6.3275	7.920903	0.000804	8.037546	1.361597	0.016079
 635	3.1700e-01	6.3354	7.933304	0.000124	1.239834	0.210034	0.002480
 636	3.1750e-01	6.3452	7.973928	0.000406	4.061526	0.688041	0.008125
 637	3.1800e-01	6.3541	7.997020	0.000231	2.308657	0.391097	0.004618
 638	3.1850e-01	6.3654	8.034224	0.000372	3.719503	0.630101	0.007441
 639	3.1900e-01	6.3754	8.071427	0.000372	3.719503	0.630101	0.007441
 640	3.1950e-01	6.3867	8.112479	0.000410	4.104279	0.695284	0.008210
 641	3.2000e-01	6.3977	8.157380	0.000449	4.489055	0.760467	0.008980
 642	3.2050e-01	6.4063	8.189879	0.000325	3.249221	0.550433	0.006500
 643	3.2100e-01	6.4197	8.224089	0.000342	3.420232	0.579403	0.006842
 644	3.2150e-01	6.4270	8.256589	0.000325	3.249221	0.550433	0.006500
 645	3.2200e-01	6.4380	8.277970	0.000214	2.137645	0.362127	0.004276
 646	3.2250e-01	6.4453	8.340831	0.000628	6.284677	1.064653	0.012572
 647	3.2300e-01	6.4584	8.372475	0.000316	3.163715	0.535948	0.006329
 648	3.2350e-01	6.4661	8.400699	0.000282	2.821692	0.478008	0.005645
 649	3.2400e-01	6.4758	8.459283	0.000586	5.857148	0.992228	0.011717
 650	3.2450e-01	6.4862	8.481947	0.000227	2.265904	0.383855	0.004533
 651	3.2500e-01	6.4978	8.519151	0.000372	3.719503	0.630101	0.007441
 652	3.2550e-01	6.5063	8.557209	0.000381	3.805009	0.644586	0.007612
 653	3.2600e-01	6.5155	8.584150	0.000269	2.693433	0.456280	0.005388
 654	3.2650e-01	6.5259	8.623491	0.000393	3.933267	0.666314	0.007868
 655	3.2700e-01	6.5369	8.673523	0.000500	5.002090	0.847377	0.010006
 656	3.2750e-01	6.5454	8.696615	0.000231	2.308657	0.391097	0.004618
 657	3.2800e-01	6.5588	8.723983	0.000274	2.736186	0.463522	0.005474
 658	3.2850e-01	6.5643	8.769312	0.000453	4.531808	0.767709	0.009066
 659	3.2900e-01	6.5784	8.797107	0.000278	2.778939	0.470765	0.005559
 660	3.2950e-01	6.5866	8.833455	0.000363	3.633997	0.615616	0.007270
 661	3.3000e-01	6.5970	8.856547	0.000231	2.308657	0.391097	0.004618
 662	3.3050e-01	6.6064	8.906152	0.000496	4.959337	0.840134	0.009921
 663	3.3100e-01	6.6150	8.946776	0.000406	4.061526	0.688041	0.008125
 664	3.3150e-01	6.6302	8.985690	0.000389	3.890514	0.659071	0.007783
 665	3.3200e-01	6.6370	9.037005	0.000513	5.130349	0.869105	0.010263
 666	3.3250e-01	6.6449	9.061380	0.000244	2.436916	0.412825	0.004875
 667	3.3300e-01	6.6599	9.082333	0.000209	2.094892	0.354884	0.004191
 668	3.3350e-01	6.6675	9.121247	0.000389	3.890514	0.659071	0.007783
 669	3.3400e-01	6.6766	9.140918	0.000197	1.966634	0.333157	0.003934
 670	3.3450e-01	6.6864	9.180687	0.000398	3.976020	0.673556	0.007954
 671	3.3500e-01	6.6949	9.244831	0.000641	6.412936	1.086381	0.012829
 672	3.3550e-01	6.7062	9.258942	0.000141	1.410846	0.239004	0.002822
 673	3.3600e-01	6.7172	9.290587	0.000316	3.163715	0.535948	0.006329
 674	3.3650e-01	6.7264	9.352592	0.000620	6.199171	1.050168	0.012401
 675	3.3700e-01	6.7383	9.398348	0.000457	4.574561	0.774952	0.009151
 676	3.3750e-01	6.7474	9.421868	0.000235	2.351410	0.398340	0.004704
 677	3.3800e-01	6.7578	9.453940	0.000321	3.206468	0.543190	0.006414
 678	3.3850e-01	6.7676	9.484301	0.000304	3.035456	0.514220	0.006072
 679	3.3900e-01	6.7789	9.519794	0.000355	3.548491	0.601131	0.007099
 680	3.3950e-01	6.7877	9.559563	0.000398	3.976020	0.673556	0.007954
 681	3.4000e-01	6.7975	9.600187	0.000406	4.061526	0.688041	0.008125
 682	3.4050e-01	6.8079	9.627983	0.000278	2.778939	0.470765	0.005559
 683	3.4100e-01	6.8164	9.669035	0.000410	4.104279	0.695284	0.008210
 684	3.4150e-01	6.8256	9.703673	0.000346	3.462985	0.586646	0.006928
 685	3.4200e-01	6.8372	9.748146	0.000445	4.446302	0.753224	0.008895
 686	3.4250e-01	6.8469	9.757981	0.000098	0.983317	0.166578	0.001967
 687	3.4300e-01	6.8575	9.786632	0.000286	2.864445	0.485250	0.005730
 688	3.4350e-01	6.8698	9.846500	0.000599	5.985407	1.013955	0.011974
 689	3.4400e-01	6.8799	9.895249	0.000487	4.873831	0.825649	0.009750
 690	3.4450e-01	6.8878	9.914064	0.000188	1.881128	0.318672	0.003763
 691	3.4500e-01	6.8973	9.920051	0.000060	0.598541	0.101396	0.001197
 692	3.4550e-01	6.9055	9.977781	0.000577	5.771642	0.977743	0.011546
 693	3.4600e-01	6.9159	10.016694	0.000389	3.890514	0.659071	0.007783
 694	3.4650e-01	6.9263	10.048339	0.000316	3.163715	0.535948	0.006329
 695	3.4700e-01	6.9373	10.072286	0.000239	2.394163	0.405582	0.004789
 696	3.4750e-01	6.9458	10.146693	0.000744	7.439006	1.260202	0.014881
 697	3.4800e-01	6.9601	10.154390	0.000077	0.769552	0.130366	0.001539
 698	3.4850e-01	6.9690	10.188600	0.000342	3.420232	0.579403	0.006842
 699	3.4900e-01	6.9742	10.214257	0.000257	2.565174	0.434552	0.005132
 700	3.4950e-01	6.9870	10.278401	0.000641	6.412936	1.086381	0.012829
 701	3.5000e-01	6.9989	10.301065	0.000227	2.265904	0.383855	0.004533
 702	3.5050e-01	7.0096	10.339979	0.000389	3.890514	0.659071	0.007783
 703	3.5100e-01	7.0175	10.372479	0.000325	3.249221	0.550433	0.006500
 704	3.5150e-01	7.0276	10.407544	0.000351	3.505738	0.593888	0.007013
 705	3.5200e-01	7.0398	10.445175	0.000376	3.762256	0.637343	0.007526
 706	3.5250e-01	7.0480	10.469977	0.000248	2.479669	0.420067	0.004960
 707	3.5300e-01	7.0560	10.496490	0.000265	2.650680	0.449037	0.005303
 708	3.5350e-01	7.0648	10.563627	0.000671	6.712206	1.137078	0.013427
 709	3.5400e-01	7.0779	10.587147	0.000235	2.351410	0.398340	0.004704
 710	3.5450e-01	7.0865	10.611521	0.000244	2.436916	0.412825	0.004875
 711	3.5500e-01	7.0984	10.636323	0.000248	2.479669	0.420067	0.004960
 712	3.5550e-01	7.1045	10.706882	0.000705	7.054229	1.195019	0.014112
 713	3.5600e-01	7.1185	10.704316	-0.000026	-0.256517	-0.043455	-0.000513
 714	3.5650e-01	7.1260	10.777440	0.000731	7.310747	1.238474	0.014625
 715	3.5700e-01	7.1375	10.806518	0.000291	2.907198	0.492493	0.005816
 716	3.5750e-01	7.1454	10.826617	0.000201	2.009387	0.340399	0.004020
 717	3.5800e-01	7.1573	10.860827	0.000342	3.420232	0.579403	0.006842
 718	3.5850e-01	7.1671	10.890333	0.000295	2.949950	0.499735	0.005901
 719	3.5900e-01	7.1753	10.939510	0.000492	4.916584	0.832892	0.009835
 720	3.5950e-01	7.1887	10.953621	0.000141	1.410846	0.239004	0.002822
 721	3.6000e-01	7.1973	11.016055	0.000624	6.241924	1.057411	0.012487
 722	3.6050e-01	7.2046	11.051548	0.000355	3.548491	0.601131	0.007099
 723	3.6100e-01	7.2182	11.075067	0.000235	2.351410	0.398340	0.004704
 724	3.6150e-01	7.2250	11.109277	0.000342	3.420232	0.579403	0.006842
 725	3.6200e-01	7.2333	11.139211	0.000299	2.992703	0.506978	0.005987
 726	3.6250e-01	7.2467	11.177269	0.000381	3.805009	0.644586	0.007612
 727	3.6300e-01	7.2562	11.221742	0.000445	4.446302	0.753224	0.008895
 728	3.6350e-01	7.2668	11.239275	0.000175	1.752869	0.296944	0.003507
 729	3.6400e-01	7.2754	11.295294	0.000560	5.600631	0.948773	0.011204
 730	3.6450e-01	7.2876	11.319241	0.000239	2.394163	0.405582	0.004789
 731	3.6500e-01	7.2958	11.372694	0.000534	5.344113	0.905317	0.010691
 732	3.6550e-01	7.3059	11.382102	0.000094	0.940564	0.159336	0.001882
 733	3.6600e-01	7.3178	11.408615	0.000265	2.650680	0.449037	0.005303
 734	3.6650e-01	7.3285	11.465061	0.000564	5.643383	0.956015	0.011289
 735	3.6700e-01	7.3370	11.492857	0.000278	2.778939	0.470765	0.005559
 736	3.6750e-01	7.3492	11.545027	0.000522	5.215854	0.883590	0.010434
 737	3.6800e-01	7.3578	11.575816	0.000308	3.078209	0.521463	0.006158
 738	3.6850e-01	7.3663	11.607888	0.000321	3.206468	0.543190	0.006414
 739	3.6900e-01	7.3764	11.639960	0.000321	3.206468	0.543190	0.006414
 740	3.6950e-01	7.3868	11.680157	0.000402	4.018773	0.680799	0.008039
 741	3.7000e-01	7.3962	11.719926	0.000398	3.976020	0.673556	0.007954
 742	3.7050e-01	7.4066	11.737031	0.000171	1.710116	0.289702	0.003421
 743	3.7100e-01	7.4194	11.784925	0.000479	4.788325	0.811164	0.009579
 744	3.7150e-01	7.4271	11.801175	0.000162	1.624610	0.275216	0.003250
 745	3.7200e-01	7.4368	11.854628	0.000534	5.344113	0.905317	0.010691
 746	3.7250e-01	7.4472	11.885845	0.000312	3.120962	0.528705	0.006243
 747	3.7300e-01	7.4551	11.915351	0.000295	2.949950	0.499735	0.005901
 748	3.7350e-01	7.4658	11.950416	0.000351	3.505738	0.593888	0.007013
 749	3.7400e-01	7.4780	11.982915	0.000325	3.249221	0.550433	0.006500
 750	3.7450e-01	7.4847	12.018408	0.000355	3.548491	0.601131	0.007099
 751	3.7500e-01	7.4976	12.085546	0.000671	6.712206	1.137078	0.013427
 752	3.7550e-01	7.5061	12.095381	0.000098	0.983317	0.166578	0.001967
 753	3.7600e-01	7.5165	12.136005	0.000406	4.061526	0.688041	0.008125
 754	3.7650e-01	7.5269	12.152255	0.000162	1.624610	0.275216	0.003250
 755	3.7700e-01	7.5354	12.188603	0.000363	3.633997	0.615616	0.007270
 756	3.7750e-01	7.5439	12.224096	0.000355	3.548491	0.601131	0.007099
 757	3.7800e-01	7.5558	12.260444	0.000363	3.633997	0.615616	0.007270
 758	3.7850e-01	7.5687	12.286957	0.000265	2.650680	0.449037	0.005303
 759	3.7900e-01	7.5781	12.330575	0.000436	4.360796	0.738739	0.008724
 760	3.7950e-01	7.5879	12.355805	0.000252	2.522421	0.427310	0.005046
 761	3.8000e-01	7.5958	12.422087	0.000663	6.626700	1.122593	0.013256
 762	3.8050e-01	7.6013	12.432777	0.000107	1.068823	0.181063	0.002138
 763	3.8100e-01	7.6166	12.476395	0.000436	4.360796	0.738739	0.008724
 764	3.8150e-01	7.6263	12.520440	0.000440	4.403549	0.745981	0.008809
 765	3.8200e-01	7.6367	12.554650	0.000342	3.420232	0.579403	0.006842
 766	3.8250e-01	7.6462	12.573894	0.000192	1.923881	0.325914	0.003849
 767	3.8300e-01	7.6550	12.603827	0.000299	2.992703	0.506978	0.005987
 768	3.8350e-01	7.6668	12.644879	0.000410	4.104279	0.695284	0.008210
 769	3.8400e-01	7.6758	12.673958	0.000291	2.907198	0.492493	0.005816
 770	3.8450e-01	7.6874	12.722707	0.000487	4.873831	0.825649	0.009750
 771	3.8500e-01	7.6959	12.753924	0.000312	3.120962	0.528705	0.006243
 772	3.8550e-01	7.7089	12.789844	0.000359	3.591244	0.608373	0.007184
 773	3.8600e-01	7.7170	12.836028	0.000462	4.617314	0.782194	0.009237
 774	3.8650e-01	7.7274	12.852278	0.000162	1.624610	0.275216	0.003250
 775	3.8700e-01	7.7368	12.895895	0.000436	4.360796	0.738739	0.008724
 776	3.8750e-01	7.7448	12.937803	0.000419	4.189785	0.709769	0.008381
 777	3.8800e-01	7.7579	12.960894	0.000231	2.308657	0.391097	0.004618
 778	3.8850e-01	7.7673	13.021617	0.000607	6.070913	1.028440	0.012145
 779	3.8900e-01	7.7753	13.024611	0.000030	0.299270	0.050698	0.000599
 780	3.8950e-01	7.7844	13.071222	0.000466	4.660067	0.789437	0.009322
 781	3.9000e-01	7.7917	13.109708	0.000385	3.847761	0.651828	0.007697
 782	3.9050e-01	7.8040	13.149477	0.000398	3.976020	0.673556	0.007954
 783	3.9100e-01	7.8168	13.174707	0.000252	2.522421	0.427310	0.005046
 784	3.9150e-01	7.8265	13.208489	0.000338	3.377480	0.572161	0.006756
 785	3.9200e-01	7.8363	13.243982	0.000355	3.548491	0.601131	0.007099
 786	3.9250e-01	7.8452	13.274771	0.000308	3.078209	0.521463	0.006158
 787	3.9300e-01	7.8561	13.304278	0.000295	2.949950	0.499735	0.005901
 788	3.9350e-01	7.8653	13.341053	0.000368	3.676750	0.622858	0.007355
 789	3.9400e-01	7.8780	13.382533	0.000415	4.147032	0.702526	0.008296
 790	3.9450e-01	7.8857	13.410329	0.000278	2.778939	0.470765	0.005559
 791	3.9500e-01	7.8973	13.457367	0.000470	4.702820	0.796679	0.009408
 792	3.9550e-01	7.9091	13.487301	0.000299	2.992703	0.506978	0.005987
 793	3.9600e-01	7.9175	13.538189	0.000509	5.087596	0.861862	0.010177
 794	3.9650e-01	7.9263	13.567695	0.000295	2.949950	0.499735	0.005901
 795	3.9700e-01	7.9349	13.592497	0.000248	2.479669	0.420067	0.004960
 796	3.9750e-01	7.9456	13.615589	0.000231	2.308657	0.391097	0.004618
 797	3.9800e-01	7.9578	13.675456	0.000599	5.985407	1.013955	0.011974
 798	3.9850e-01	7.9678	13.703680	0.000282	2.821692	0.478008	0.005645
 799	3.9900e-01	7.9797	13.756277	0.000526	5.258607	0.890832	0.010520
 800	3.9950e-01	7.9877	13.754995	-0.000013	-0.128259	-0.021728	-0.000257
 801	4.0000e-01	7.9974	13.789205	0.000342	3.420232	0.579403	0.006842
 802	4.0050e-01	8.0090	13.840947	0.000517	5.173102	0.876347	0.010349
 803	4.0100e-01	8.0182	13.879006	0.000381	3.805009	0.644586	0.007612
 804	4.0150e-01	8.0273	13.891407	0.000124	1.239834	0.210034	0.002480
 805	4.0200e-01	8.0371	13.944433	0.000530	5.301360	0.898075	0.010605
 806	4.0250e-01	8.0446	13.969662	0.000252	2.522421	0.427310	0.005046
 807	4.0300e-01	8.0554	14.022260	0.000526	5.258607	0.890832	0.010520
 808	4.0350e-01	8.0676	14.069727	0.000475	4.745572	0.803922	0.009493
 809	4.0400e-01	8.0762	14.088542	0.000188	1.881128	0.318672	0.003763
 810	4.0450e-01	8.0893	14.115055	0.000265	2.650680	0.449037	0.005303
 811	4.0500e-01	8.0963	14.153969	0.000389	3.890514	0.659071	0.007783
 812	4.0550e-01	8.1055	14.189034	0.000351	3.505738	0.593888	0.007013
 813	4.0600e-01	8.1165	14.237356	0.000483	4.831078	0.818407	0.009664
 814	4.0650e-01	8.1262	14.268573	0.000312	3.120962	0.528705	0.006243
 815	4.0700e-01	8.1372	14.309625	0.000410	4.104279	0.695284	0.008210
 816	4.0750e-01	8.1451	14.328012	0.000184	1.838375	0.311429	0.003678
 817	4.0800e-01	8.1573	14.375051	0.000470	4.702820	0.796679	0.009408
 818	4.0850e-01	8.1656	14.413538	0.000385	3.847761	0.651828	0.007697
 819	4.0900e-01	8.1750	14.449458	0.000359	3.591244	0.608373	0.007184
 820	4.0950e-01	8.1866	14.474688	0.000252	2.522421	0.427310	0.005046
 821	4.1000e-01	8.1985	14.503766	0.000291	2.907198	0.492493	0.005816
 822	4.1050e-01	8.2068	14.549950	0.000462	4.617314	0.782194	0.009237
 823	4.1100e-01	8.2190	14.581167	0.000312	3.120962	0.528705	0.006243
 824	4.1150e-01	8.2257	14.617087	0.000359	3.591244	0.608373	0.007184
 825	4.1200e-01	8.2367	14.651725	0.000346	3.462985	0.586646	0.006928
 826	4.1250e-01	8.2477	14.679520	0.000278	2.778939	0.470765	0.005559
 827	4.1300e-01	8.2587	14.726559	0.000470	4.702820	0.796679	0.009408
 828	4.1350e-01	8.2690	14.758631	0.000321	3.206468	0.543190	0.006414
 829	4.1400e-01	8.2758	14.805242	0.000466	4.660067	0.789437	0.009322
 830	4.1450e-01	8.2855	14.845439	0.000402	4.018773	0.680799	0.008039
 831	4.1500e-01	8.2977	14.876656	0.000312	3.120962	0.528705	0.006243
 832	4.1550e-01	8.3057	14.903596	0.000269	2.693433	0.456280	0.005388
 833	4.1600e-01	8.3179	14.951490	0.000479	4.788325	0.811164	0.009579
 834	4.1650e-01	8.3261	14.966029	0.000145	1.453599	0.246246	0.002908
 835	4.1700e-01	8.3380	15.027607	0.000616	6.156418	1.042926	0.012316
 836	4.1750e-01	8.3466	15.066949	0.000393	3.933267	0.666314	0.007868
 837	4.1800e-01	8.3606	15.083626	0.000167	1.667363	0.282459	0.003335
 838	4.1850e-01	8.3679	15.113988	0.000304	3.035456	0.514220	0.006072
 839	4.1900e-01	8.3777	15.156750	0.000428	4.275291	0.724254	0.008553
 840	4.1950e-01	8.3850	15.202079	0.000453	4.531808	0.767709	0.009066
 841	4.2000e-01	8.3966	15.236289	0.000342	3.420232	0.579403	0.006842
 842	4.2050e-01	8.4058	15.252111	0.000158	1.581857	0.267974	0.003164
 843	4.2100e-01	8.4161	15.315827	0.000637	6.370183	1.079138	0.012743
 844	4.2150e-01	8.4299	15.333787	0.000180	1.795622	0.304187	0.003592
 845	4.2200e-01	8.4387	15.385102	0.000513	5.130349	0.869105	0.010263
 846	4.2250e-01	8.4460	15.418029	0.000329	3.291974	0.557675	0.006585
 847	4.2300e-01	8.4583	15.443259	0.000252	2.522421	0.427310	0.005046
 848	4.2350e-01	8.4682	15.490726	0.000475	4.745572	0.803922	0.009493
 849	4.2400e-01	8.4772	15.528357	0.000376	3.762256	0.637343	0.007526
 850	4.2450e-01	8.4866	15.565560	0.000372	3.719503	0.630101	0.007441
 851	4.2500e-01	8.4961	15.601481	0.000359	3.591244	0.608373	0.007184
 852	4.2550e-01	8.5059	15.643388	0.000419	4.189785	0.709769	0.008381
 853	4.2600e-01	8.5162	15.670328	0.000269	2.693433	0.456280	0.005388
 854	4.2650e-01	8.5260	15.689144	0.000188	1.881128	0.318672	0.003763
 855	4.2700e-01	8.5364	15.766544	0.000774	7.738276	1.310899	0.015480
 856	4.2750e-01	8.5480	15.793912	0.000274	2.736186	0.463522	0.005474
 857	4.2800e-01	8.5571	15.810162	0.000162	1.624610	0.275216	0.003250
 858	4.2850e-01	8.5669	15.851641	0.000415	4.147032	0.702526	0.008296
 859	4.2900e-01	8.5754	15.899963	0.000483	4.831078	0.818407	0.009664
 860	4.2950e-01	8.5858	15.915785	0.000158	1.581857	0.267974	0.003164
 861	4.3000e-01	8.5956	15.968811	0.000530	5.301360	0.898075	0.010605
 862	4.3050e-01	8.6072	15.993185	0.000244	2.436916	0.412825	0.004875
 863	4.3100e-01	8.6157	16.032099	0.000389	3.890514	0.659071	0.007783
 864	4.3150e-01	8.6243	16.065026	0.000329	3.291974	0.557675	0.006585
 865	4.3200e-01	8.6349	16.126177	0.000611	6.113665	1.035683	0.012230
 866	4.3250e-01	8.6450	16.145847	0.000197	1.966634	0.333157	0.003934
 867	4.3300e-01	8.6572	16.177064	0.000312	3.120962	0.528705	0.006243
 868	4.3350e-01	8.6658	16.214695	0.000376	3.762256	0.637343	0.007526
 869	4.3400e-01	8.6774	16.239497	0.000248	2.479669	0.420067	0.004960
 870	4.3450e-01	8.6865	16.305352	0.000658	6.583947	1.115351	0.013171
 871	4.3500e-01	8.6993	16.319036	0.000137	1.368093	0.231761	0.002737
 872	4.3550e-01	8.7067	16.375482	0.000564	5.643383	0.956015	0.011289
 873	4.3600e-01	8.7164	16.406699	0.000312	3.120962	0.528705	0.006243
 874	4.3650e-01	8.7270	16.444758	0.000381	3.805009	0.644586	0.007612
 875	4.3700e-01	8.7347	16.479823	0.000351	3.505738	0.593888	0.007013
 876	4.3750e-01	8.7457	16.520020	0.000402	4.018773	0.680799	0.008039
 877	4.3800e-01	8.7564	16.553374	0.000333	3.334727	0.564918	0.006671
 878	4.3850e-01	8.7671	16.602979	0.000496	4.959337	0.840134	0.009921
 879	4.3900e-01	8.7744	16.631630	0.000286	2.864445	0.485250	0.005730
 880	4.3950e-01	8.7872	16.664985	0.000333	3.334727	0.564918	0.006671
 881	4.4000e-01	8.7970	16.676103	0.000111	1.111576	0.188306	0.002224
 882	4.4050e-01	8.8055	16.732549	0.000564	5.643383	0.956015	0.011289
 883	4.4100e-01	8.8171	16.765049	0.000325	3.249221	0.550433	0.006500
 884	4.4150e-01	8.8300	16.794983	0.000299	2.992703	0.506978	0.005987
 885	4.4200e-01	8.8348	16.839883	0.000449	4.489055	0.760467	0.008980
 886	4.4250e-01	8.8440	16.877087	0.000372	3.719503	0.630101	0.007441
 887	4.4300e-01	8.8580	16.923270	0.000462	4.617314	0.782194	0.009237
 888	4.4350e-01	8.8687	16.939948	0.000167	1.667363	0.282459	0.003335
 889	4.4400e-01	8.8745	17.006230	0.000663	6.626700	1.122593	0.013256
 890	4.4450e-01	8.8861	17.031459	0.000252	2.522421	0.427310	0.005046
 891	4.4500e-01	8.8956	17.056262	0.000248	2.479669	0.420067	0.004960
 892	4.4550e-01	8.9075	17.105866	0.000496	4.959337	0.840134	0.009921
 893	4.4600e-01	8.9154	17.151622	0.000457	4.574561	0.774952	0.009151
 894	4.4650e-01	8.9258	17.179418	0.000278	2.778939	0.470765	0.005559
 895	4.4700e-01	8.9368	17.231160	0.000517	5.173102	0.876347	0.010349
 896	4.4750e-01	8.9490	17.269219	0.000381	3.805009	0.644586	0.007612
 897	4.4800e-01	8.9569	17.294877	0.000257	2.565174	0.434552	0.005132
 898	4.4850e-01	8.9673	17.328231	0.000333	3.334727	0.564918	0.006671
 899	4.4900e-01	8.9749	17.385533	0.000573	5.728889	0.970500	0.011460
 900	4.4950e-01	8.9874	17.425730	0.000402	4.018773	0.680799	0.008039
 901	4.5000e-01	8.9935	17.450532	0.000248	2.479669	0.420067	0.004960
 902	4.5050e-01	9.0079	17.484742	0.000342	3.420232	0.579403	0.006842
 903	4.5100e-01	9.0149	17.524939	0.000402	4.018773	0.680799	0.008039
 904	4.5150e-01	9.0283	17.575826	0.000509	5.087596	0.861862	0.010177
 905	4.5200e-01	9.0381	17.602767	0.000269	2.693433	0.456280	0.005388
 906	4.5250e-01	9.0460	17.633128	0.000304	3.035456	0.514220	0.006072
 907	4.5300e-01	9.0570	17.688719	0.000556	5.557878	0.941530	0.011118
 908	4.5350e-01	9.0674	17.722074	0.000333	3.334727	0.564918	0.006671
 909	4.5400e-01	9.0753	17.755001	0.000329	3.291974	0.557675	0.006585
 910	4.5450e-01	9.0833	17.796481	0.000415	4.147032	0.702526	0.008296
 911	4.5500e-01	9.0976	17.827270	0.000308	3.078209	0.521463	0.006158
 912	4.5550e-01	9.1052	17.882006	0.000547	5.472372	0.927045	0.010947
 913	4.5600e-01	9.1174	17.884572	0.000026	0.256517	0.043455	0.000513
 914	4.5650e-01	9.1266	17.954702	0.000701	7.011476	1.187776	0.014026
 915	4.5700e-01	9.1364	18.004307	0.000496	4.959337	0.840134	0.009921
 916	4.5750e-01	9.1492	18.014570	0.000103	1.026070	0.173821	0.002053
 917	4.5800e-01	9.1559	18.059898	0.000453	4.531808	0.767709	0.009066
 918	4.5850e-01	9.1644	18.101378	0.000415	4.147032	0.702526	0.008296
 919	4.5900e-01	9.1762	18.148844	0.000475	4.745572	0.803922	0.009493
 920	4.5950e-01	9.1888	18.153548	0.000047	0.470282	0.079668	0.000941
 921	4.6000e-01	9.1943	18.235652	0.000821	8.208558	1.390567	0.016421
 922	4.6050e-01	9.2081	18.267724	0.000321	3.206468	0.543190	0.006414
 923	4.6100e-01	9.2163	18.296375	0.000286	2.864445	0.485250	0.005730
 924	4.6150e-01	9.2249	18.345980	0.000496	4.959337	0.840134	0.009921
 925	4.6200e-01	9.2371	18.379334	0.000333	3.334727	0.564918	0.006671
 926	4.6250e-01	9.2487	18.413972	0.000346	3.462985	0.586646	0.006928
 927	4.6300e-01	9.2554	18.457162	0.000432	4.318043	0.731496	0.008638
 928	4.6350e-01	9.2633	18.481109	0.000239	2.394163	0.405582	0.004789
 929	4.6400e-01	9.2775	18.532852	0.000517	5.173102	0.876347	0.010349
 930	4.6450e-01	9.2862	18.576470	0.000436	4.360796	0.738739	0.008724
 931	4.6500e-01	9.2969	18.634199	0.000577	5.771642	0.977743	0.011546
 932	4.6550e-01	9.3079	18.653014	0.000188	1.881128	0.318672	0.003763
 933	4.6600e-01	9.3176	18.697488	0.000445	4.446302	0.753224	0.008895
 934	4.6650e-01	9.3256	18.729132	0.000316	3.163715	0.535948	0.006329
 935	4.6700e-01	9.3365	18.777026	0.000479	4.788325	0.811164	0.009579
 936	4.6750e-01	9.3503	18.816795	0.000398	3.976020	0.673556	0.007954
 937	4.6800e-01	9.3567	18.831762	0.000150	1.496352	0.253489	0.002993
 938	4.6850e-01	9.3652	18.879228	0.000475	4.745572	0.803922	0.009493
 939	4.6900e-01	9.3753	18.950214	0.000710	7.096982	1.202261	0.014197
 940	4.6950e-01	9.3848	18.974161	0.000239	2.394163	0.405582	0.004789
 941	4.7000e-01	9.3967	19.027187	0.000530	5.301360	0.898075	0.010605
 942	4.7050e-01	9.4049	19.064390	0.000372	3.719503	0.630101	0.007441
 943	4.7100e-01	9.4159	19.095179	0.000308	3.078209	0.521463	0.006158
 944	4.7150e-01	9.4289	19.145639	0.000504	5.044843	0.854620	0.010092
 945	4.7200e-01	9.4380	19.164882	0.000192	1.923881	0.325914	0.003849
 946	4.7250e-01	9.4482	19.212776	0.000479	4.788325	0.811164	0.009579
 947	4.7300e-01	9.4537	19.247414	0.000346	3.462985	0.586646	0.006928
 948	4.7350e-01	9.4678	19.298301	0.000509	5.087596	0.861862	0.010177
 949	4.7400e-01	9.4760	19.337215	0.000389	3.890514	0.659071	0.007783
 950	4.7450e-01	9.4879	19.359879	0.000227	2.265904	0.383855	0.004533
 951	4.7500e-01	9.4958	19.421885	0.000620	6.199171	1.050168	0.012401
 952	4.7550e-01	9.5044	19.453957	0.000321	3.206468	0.543190	0.006414
 953	4.7600e-01	9.5160	19.508693	0.000547	5.472372	0.927045	0.010947
 954	4.7650e-01	9.5251	19.535205	0.000265	2.650680	0.449037	0.005303
 955	4.7700e-01	9.5367	19.565994	0.000308	3.078209	0.521463	0.006158
 956	4.7750e-01	9.5483	19.628855	0.000628	6.284677	1.064653	0.012572
 957	4.7800e-01	9.5551	19.633132	0.000043	0.427529	0.072425	0.000855
 958	4.7850e-01	9.5648	19.692572	0.000594	5.942654	1.006713	0.011888
 959	4.7900e-01	9.5770	19.730630	0.000381	3.805009	0.644586	0.007612
 960	4.7950e-01	9.5865	19.777241	0.000466	4.660067	0.789437	0.009322
 961	4.8000e-01	9.5963	19.832833	0.000556	5.557878	0.941530	0.011118
 962	4.8050e-01	9.6051	19.871319	0.000385	3.847761	0.651828	0.007697
 963	4.8100e-01	9.6179	19.919641	0.000483	4.831078	0.818407	0.009664
 964	4.8150e-01	9.6277	19.971811	0.000522	5.215854	0.883590	0.010434
 965	4.8200e-01	9.6364	19.983357	0.000115	1.154328	0.195549	0.002309
 966	4.8250e-01	9.6460	20.035527	0.000522	5.215854	0.883590	0.010434
 967	4.8300e-01	9.6533	20.084704	0.000492	4.916584	0.832892	0.009835
 968	4.8350e-01	9.6649	20.121480	0.000368	3.676750	0.622858	0.007355
 969	4.8400e-01	9.6790	20.142433	0.000209	2.094892	0.354884	0.004191
 970	4.8450e-01	9.6860	20.183485	0.000410	4.104279	0.695284	0.008210
 971	4.8500e-01	9.6982	20.250195	0.000667	6.669453	1.129836	0.013342
 972	4.8550e-01	9.7064	20.270293	0.000201	2.009387	0.340399	0.004020
 973	4.8600e-01	9.7162	20.317332	0.000470	4.702820	0.796679	0.009408
 974	4.8650e-01	9.7266	20.369075	0.000517	5.173102	0.876347	0.010349
 975	4.8700e-01	9.7360	20.396870	0.000278	2.778939	0.470765	0.005559
 976	4.8750e-01	9.7501	20.459304	0.000624	6.241924	1.057411	0.012487
 977	4.8800e-01	9.7577	20.496935	0.000376	3.762256	0.637343	0.007526
 978	4.8850e-01	9.7650	20.517461	0.000205	2.052139	0.347642	0.004105
 979	4.8900e-01	9.7769	20.580322	0.000628	6.284677	1.064653	0.012572
 980	4.8950e-01	9.7864	20.617953	0.000376	3.762256	0.637343	0.007526
 981	4.9000e-01	9.7952	20.666702	0.000487	4.873831	0.825649	0.009750
 982	4.9050e-01	9.8041	20.687228	0.000205	2.052139	0.347642	0.004105
 983	4.9100e-01	9.8148	20.752655	0.000654	6.541194	1.108108	0.013085
 984	4.9150e-01	9.8270	20.803970	0.000513	5.130349	0.869105	0.010263
 985	4.9200e-01	9.8352	20.839890	0.000359	3.591244	0.608373	0.007184
 986	4.9250e-01	9.8477	20.887357	0.000475	4.745572	0.803922	0.009493
 987	4.9300e-01	9.8553	20.926698	0.000393	3.933267	0.666314	0.007868
 988	4.9350e-01	9.8657	20.965612	0.000389	3.890514	0.659071	0.007783
 989	4.9400e-01	9.8755	20.995546	0.000299	2.992703	0.506978	0.005987
 990	4.9450e-01	9.8874	21.055841	0.000603	6.028160	1.021198	0.012059
 991	4.9500e-01	9.8969	21.091334	0.000355	3.548491	0.601131	0.007099
 992	4.9550e-01	9.9057	21.112715	0.000214	2.137645	0.362127	0.004276
 993	4.9600e-01	9.9152	21.191826	0.000791	7.909287	1.339870	0.015822
 994	4.9650e-01	9.9268	21.214490	0.000227	2.265904	0.383855	0.004533
 995	4.9700e-01	9.9362	21.250410	0.000359	3.591244	0.608373	0.007184
 996	4.9750e-01	9.9451	21.326100	0.000757	7.567264	1.281929	0.015138
 997	4.9800e-01	9.9548	21.357744	0.000316	3.163715	0.535948	0.006329
 998	4.9850e-01	9.9661	21.403500	0.000457	4.574561	0.774952	0.009151
 999	4.9900e-01	9.9719	21.443269	0.000398	3.976020	0.673556	0.007954
1000	4.9950e-01	9.9835	21.499716	0.000564	5.643383	0.956015	0.011289
1001	5.0000e-01	9.9951	21.527084	0.000274	2.736186	0.463522	0.005474
1002	5.0050e-01	9.9860	21.486032	0.000410	4.104279	0.695284	-0.008210
1003	5.0100e-01	9.9780	21.494584	-0.000086	-0.855058	-0.144851	0.001711
1004	5.0150e-01	9.9673	21.471920	0.000227	2.265904	0.383855	-0.004533
1005	5.0200e-01	9.9567	21.469782	0.000021	0.213765	0.036213	-0.000428
1006	5.0250e-01	9.9442	21.468927	0.000009	0.085506	0.014485	-0.000171
1007	5.0300e-01	9.9341	21.459092	0.000098	0.983317	0.166578	-0.001967
1008	5.0350e-01	9.9243	21.458664	0.000004	0.042753	0.007243	-0.000086
1009	5.0400e-01	9.9146	21.418467	0.000402	4.018773	0.680799	-0.008039
1010	5.0450e-01	9.9030	21.428730	-0.000103	-1.026070	-0.173821	0.002053
1011	5.0500e-01	9.8950	21.406066	0.000227	2.265904	0.383855	-0.004533
1012	5.0550e-01	9.8840	21.409487	-0.000034	-0.342023	-0.057940	0.000684
1013	5.0600e-01	9.8767	21.385112	0.000244	2.436916	0.412825	-0.004875
1014	5.0650e-01	9.8639	21.377843	0.000073	0.726799	0.123123	-0.001454
1015	5.0700e-01	9.8566	21.383829	-0.000060	-0.598541	-0.101396	0.001197
1016	5.0750e-01	9.8444	21.368863	0.000150	1.496352	0.253489	-0.002993
1017	5.0800e-01	9.8358	21.351758	0.000171	1.710116	0.289702	-0.003421
1018	5.0850e-01	9.8251	21.336791	0.000150	1.496352	0.253489	-0.002993
1019	5.0900e-01	9.8163	21.317975	0.000188	1.881128	0.318672	-0.003763
1020	5.0950e-01	9.8053	21.318403	-0.000004	-0.042753	-0.007243	0.000086
1021	5.1000e-01	9.7968	21.287614	0.000308	3.078209	0.521463	-0.006158
1022	5.1050e-01	9.7858	21.260246	0.000274	2.736186	0.463522	-0.005474
1023	5.1100e-01	9.7760	21.249128	0.000111	1.111576	0.188306	-0.002224
1024	5.1150e-01	9.7650	21.243141	0.000060	0.598541	0.101396	-0.001197
1025	5.1200e-01	9.7534	21.235444	0.000077	0.769552	0.130366	-0.001539
1026	5.1250e-01	9.7443	21.229884	0.000056	0.555788	0.094153	-0.001112
1027	5.1300e-01	9.7351	21.221332	0.000086	0.855058	0.144851	-0.001711
1028	5.1350e-01	9.7275	21.189260	0.000321	3.206468	0.543190	-0.006414
1029	5.1400e-01	9.7168	21.162320	0.000269	2.693433	0.456280	-0.005388
1030	5.1450e-01	9.7052	21.152057	0.000103	1.026070	0.173821	-0.002053
1031	5.1500e-01	9.6948	21.145215	0.000068	0.684046	0.115881	-0.001368
1032	5.1550e-01	9.6844	21.119985	0.000252	2.522421	0.427310	-0.005046
1033	5.1600e-01	9.6777	21.121268	-0.000013	-0.128259	-0.021728	0.000257
1034	5.1650e-01	9.6674	21.097748	0.000235	2.351410	0.398340	-0.004704
1035	5.1700e-01	9.6545	21.089623	0.000081	0.812305	0.137608	-0.001625
1036	5.1750e-01	9.6445	21.063111	0.000265	2.650680	0.449037	-0.005303
1037	5.1800e-01	9.6344	21.038308	0.000248	2.479669	0.420067	-0.004960
1038	5.1850e-01	9.6243	21.019493	0.000188	1.881128	0.318672	-0.003763
1039	5.1900e-01	9.6149	21.008374	0.000111	1.111576	0.188306	-0.002224
1040	5.1950e-01	9.6033	20.983145	0.000252	2.522421	0.427310	-0.005046
1041	5.2000e-01	9.5963	20.964757	0.000184	1.838375	0.311429	-0.003678
1042	5.2050e-01	9.5874	20.954066	0.000107	1.068823	0.181063	-0.002138
1043	5.2100e-01	9.5758	20.937389	0.000167	1.667363	0.282459	-0.003335
1044	5.2150e-01	9.5654	20.914297	0.000231	2.308657	0.391097	-0.004618
1045	5.2200e-01	9.5572	20.903606	0.000107	1.068823	0.181063	-0.002138
1046	5.2250e-01	9.5471	20.889922	0.000137	1.368093	0.231761	-0.002737
1047	5.2300e-01	9.5361	20.847587	0.000423	4.232538	0.717011	-0.008467
1048	5.2350e-01	9.5245	20.823640	0.000239	2.394163	0.405582	-0.004789
1049	5.2400e-01	9.5187	20.821502	0.000021	0.213765	0.036213	-0.000428
1050	5.2450e-01	9.5087	20.799693	0.000218	2.180398	0.369369	-0.004362
1051	5.2500e-01	9.4952	20.787292	0.000124	1.239834	0.210034	-0.002480
1052	5.2550e-01	9.4836	20.772325	0.000150	1.496352	0.253489	-0.002993
1053	5.2600e-01	9.4775	20.744530	0.000278	2.778939	0.470765	-0.005559
1054	5.2650e-01	9.4659	20.716306	0.000282	2.821692	0.478008	-0.005645
1055	5.2700e-01	9.4540	20.696636	0.000197	1.966634	0.333157	-0.003934
1056	5.2750e-01	9.4485	20.673972	0.000227	2.265904	0.383855	-0.004533
1057	5.2800e-01	9.4366	20.641044	0.000329	3.291974	0.557675	-0.006585
1058	5.2850e-01	9.4263	20.631637	0.000094	0.940564	0.159336	-0.001882
1059	5.2900e-01	9.4208	20.614532	0.000171	1.710116	0.289702	-0.003421
1060	5.2950e-01	9.4061	20.599137	0.000154	1.539105	0.260731	-0.003079
1061	5.3000e-01	9.3942	20.585025	0.000141	1.410846	0.239004	-0.002822
1062	5.3050e-01	9.3854	20.560651	0.000244	2.436916	0.412825	-0.004875
1063	5.3100e-01	9.3750	20.512757	0.000479	4.788325	0.811164	-0.009579
1064	5.3150e-01	9.3671	20.500356	0.000124	1.239834	0.210034	-0.002480
1065	5.3200e-01	9.3537	20.493086	0.000073	0.726799	0.123123	-0.001454
1066	5.3250e-01	9.3457	20.468711	0.000244	2.436916	0.412825	-0.004875
1067	5.3300e-01	9.3359	20.442626	0.000261	2.607927	0.441795	-0.005217
1068	5.3350e-01	9.3243	20.402857	0.000398	3.976020	0.673556	-0.007954
1069	5.3400e-01	9.3158	20.376344	0.000265	2.650680	0.449037	-0.005303
1070	5.3450e-01	9.3036	20.386180	-0.000098	-0.983317	-0.166578	0.001967
1071	5.3500e-01	9.2952	20.354108	0.000321	3.206468	0.543190	-0.006414
1072	5.3550e-01	9.2859	20.325457	0.000286	2.864445	0.485250	-0.005730
1073	5.3600e-01	9.2749	20.320753	0.000047	0.470282	0.079668	-0.000941
1074	5.3650e-01	9.2661	20.283550	0.000372	3.719503	0.630101	-0.007441
1075	5.3700e-01	9.2554	20.278846	0.000047	0.470282	0.079668	-0.000941
1076	5.3750e-01	9.2438	20.248912	0.000299	2.992703	0.506978	-0.005987
1077	5.3800e-01	9.2358	20.213847	0.000351	3.505738	0.593888	-0.007013
1078	5.3850e-01	9.2273	20.206149	0.000077	0.769552	0.130366	-0.001539
1079	5.3900e-01	9.2166	20.198025	0.000081	0.812305	0.137608	-0.001625
1080	5.3950e-01	9.2047	20.154834	0.000432	4.318043	0.731496	-0.008638
1081	5.4000e-01	9.1945	20.125328	0.000295	2.949950	0.499735	-0.005901
1082	5.4050e-01	9.1843	20.117203	0.000081	0.812305	0.137608	-0.001625
1083	5.4100e-01	9.1772	20.095395	0.000218	2.180398	0.369369	-0.004362
1084	5.4150e-01	9.1650	20.074869	0.000205	2.052139	0.347642	-0.004105
1085	5.4200e-01	9.1574	20.046645	0.000282	2.821692	0.478008	-0.005645
1086	5.4250e-01	9.1457	20.034672	0.000120	1.197081	0.202791	-0.002395
1087	5.4300e-01	9.1351	20.015429	0.000192	1.923881	0.325914	-0.003849
1088	5.4350e-01	9.1248	19.973949	0.000415	4.147032	0.702526	-0.008296
1089	5.4400e-01	9.1144	19.961548	0.000124	1.239834	0.210034	-0.002480
1090	5.4450e-01	9.1046	19.926910	0.000346	3.462985	0.586646	-0.006928
1091	5.4500e-01	9.0961	19.906812	0.000201	2.009387	0.340399	-0.004020
1092	5.4550e-01	9.0857	19.897404	0.000094	0.940564	0.159336	-0.001882
1093	5.4600e-01	9.0753	19.864905	0.000325	3.249221	0.550433	-0.006500
1094	5.4650e-01	9.0662	19.828129	0.000368	3.676750	0.622858	-0.007355
1095	5.4700e-01	9.0564	19.835826	-0.000077	-0.769552	-0.130366	0.001539
1096	5.4750e-01	9.0436	19.793063	0.000428	4.275291	0.724254	-0.008553
1097	5.4800e-01	9.0350	19.773393	0.000197	1.966634	0.333157	-0.003934
1098	5.4850e-01	9.0240	19.726782	0.000466	4.660067	0.789437	-0.009322
1099	5.4900e-01	9.0186	19.701124	0.000257	2.565174	0.434552	-0.005132
1100	5.4950e-01	9.0045	19.689578	0.000115	1.154328	0.195549	-0.002309
1101	5.5000e-01	8.9960	19.672901	0.000167	1.667363	0.282459	-0.003335
1102	5.5050e-01	8.9844	19.654513	0.000184	1.838375	0.311429	-0.003678
1103	5.5100e-01	8.9746	19.618165	0.000363	3.633997	0.615616	-0.007270
1104	5.5150e-01	8.9630	19.586948	0.000312	3.120962	0.528705	-0.006243
1105	5.5200e-01	8.9539	19.577113	0.000098	0.983317	0.166578	-0.001967
1106	5.5250e-01	8.9435	19.551028	0.000261	2.607927	0.441795	-0.005217
1107	5.5300e-01	8.9343	19.534778	0.000162	1.624610	0.275216	-0.003250
1108	5.5350e-01	8.9264	19.503989	0.000308	3.078209	0.521463	-0.006158
1109	5.5400e-01	8.9142	19.498857	0.000051	0.513035	0.086910	-0.001026
1110	5.5450e-01	8.9038	19.450536	0.000483	4.831078	0.818407	-0.009664
1111	5.5500e-01	8.8953	19.433431	0.000171	1.710116	0.289702	-0.003421
1112	5.5550e-01	8.8849	19.419747	0.000137	1.368093	0.231761	-0.002737
1113	5.5600e-01	8.8776	19.391523	0.000282	2.821692	0.478008	-0.005645
1114	5.5650e-01	8.8660	19.356458	0.000351	3.505738	0.593888	-0.007013
1115	5.5700e-01	8.8544	19.339781	0.000167	1.667363	0.282459	-0.003335
1116	5.5750e-01	8.8446	19.294452	0.000453	4.531808	0.767709	-0.009066
1117	5.5800e-01	8.8361	19.283334	0.000111	1.111576	0.188306	-0.002224
1118	5.5850e-01	8.8251	19.256394	0.000269	2.693433	0.456280	-0.005388
1119	5.5900e-01	8.8141	19.253400	0.000030	0.299270	0.050698	-0.000599
1120	5.5950e-01	8.8063	19.196526	0.000569	5.686136	0.963258	-0.011375
1121	5.6000e-01	8.7958	19.190967	0.000056	0.555788	0.094153	-0.001112
1122	5.6050e-01	8.7854	19.156329	0.000346	3.462985	0.586646	-0.006928
1123	5.6100e-01	8.7762	19.137942	0.000184	1.838375	0.311429	-0.003678
1124	5.6150e-01	8.7671	19.120837	0.000171	1.710116	0.289702	-0.003421
1125	5.6200e-01	8.7543	19.078929	0.000419	4.189785	0.709769	-0.008381
1126	5.6250e-01	8.7457	19.052416	0.000265	2.650680	0.449037	-0.005303
1127	5.6300e-01	8.7354	19.032746	0.000197	1.966634	0.333157	-0.003934
1128	5.6350e-01	8.7256	18.982714	0.000500	5.002090	0.847377	-0.010006
1129	5.6400e-01	8.7146	18.987417	-0.000047	-0.470282	-0.079668	0.000941
1130	5.6450e-01	8.7054	18.966036	0.000214	2.137645	0.362127	-0.004276
1131	5.6500e-01	8.6966	18.949786	0.000162	1.624610	0.275216	-0.003250
1132	5.6550e-01	8.6844	18.916432	0.000333	3.334727	0.564918	-0.006671
1133	5.6600e-01	8.6749	18.883932	0.000325	3.249221	0.550433	-0.006500
1134	5.6650e-01	8.6676	18.863834	0.000201	2.009387	0.340399	-0.004020
1135	5.6700e-01	8.6566	18.833472	0.000304	3.035456	0.514220	-0.006072
1136	5.6750e-01	8.6440	18.810381	0.000231	2.308657	0.391097	-0.004618
1137	5.6800e-01	8.6353	18.781730	0.000286	2.864445	0.485250	-0.005730
1138	5.6850e-01	8.6258	18.761631	0.000201	2.009387	0.340399	-0.004020
1139	5.6900e-01	8.6151	18.743671	0.000180	1.795622	0.304187	-0.003592
1140	5.6950e-01	8.6053	18.708178	0.000355	3.548491	0.601131	-0.007099
1141	5.7000e-01	8.5962	18.672685	0.000355	3.548491	0.601131	-0.007099
1142	5.7050e-01	8.5852	18.651732	0.000209	2.094892	0.354884	-0.004191
1143	5.7100e-01	8.5742	18.619660	0.000321	3.206468	0.543190	-0.006414
1144	5.7150e-01	8.5651	18.614101	0.000056	0.555788	0.094153	-0.001112
1145	5.7200e-01	8.5571	18.569200	0.000449	4.489055	0.760467	-0.008980
1146	5.7250e-01	8.5474	18.544398	0.000248	2.479669	0.420067	-0.004960
1147	5.7300e-01	8.5358	18.527720	0.000167	1.667363	0.282459	-0.003335
1148	5.7350e-01	8.5278	18.511471	0.000162	1.624610	0.275216	-0.003250
1149	5.7400e-01	8.5175	18.457162	0.000543	5.429619	0.919802	-0.010862
1150	5.7450e-01	8.5046	18.440912	0.000162	1.624610	0.275216	-0.003250
1151	5.7500e-01	8.4949	18.419531	0.000214	2.137645	0.362127	-0.004276
1152	5.7550e-01	8.4860	18.397295	0.000222	2.223151	0.376612	-0.004447
1153	5.7600e-01	8.4766	18.366506	0.000308	3.078209	0.521463	-0.006158
1154	5.7650e-01	8.4656	18.337427	0.000291	2.907198	0.492493	-0.005816
1155	5.7700e-01	8.4595	18.311770	0.000257	2.565174	0.434552	-0.005132
1156	5.7750e-01	8.4497	18.296375	0.000154	1.539105	0.260731	-0.003079
1157	5.7800e-01	8.4351	18.243349	0.000530	5.301360	0.898075	-0.010605
1158	5.7850e-01	8.4195	18.222823	0.000205	2.052139	0.347642	-0.004105
1159	5.7900e-01	8.4149	18.218547	0.000043	0.427529	0.072425	-0.000855
1160	5.7950e-01	8.4045	18.183910	0.000346	3.462985	0.586646	-0.006928
1161	5.8000e-01	8.3954	18.180916	0.000030	0.299270	0.050698	-0.000599
1162	5.8050e-01	8.3850	18.111641	0.000693	6.925971	1.173291	-0.013855
1163	5.8100e-01	8.3752	18.120621	-0.000090	-0.897811	-0.152093	0.001796
1164	5.8150e-01	8.3664	18.069734	0.000509	5.087596	0.861862	-0.010177
1165	5.8200e-01	8.3575	18.049208	0.000205	2.052139	0.347642	-0.004105
1166	5.8250e-01	8.3447	18.029964	0.000192	1.923881	0.325914	-0.003849
1167	5.8300e-01	8.3344	17.987202	0.000428	4.275291	0.724254	-0.008553
1168	5.8350e-01	8.3270	17.981215	0.000060	0.598541	0.101396	-0.001197
1169	5.8400e-01	8.3142	17.957696	0.000235	2.351410	0.398340	-0.004704
1170	5.8450e-01	8.3060	17.914078	0.000436	4.360796	0.738739	-0.008724
1171	5.8500e-01	8.2965	17.914506	-0.000004	-0.042753	-0.007243	0.000086
1172	5.8550e-01	8.2867	17.870888	0.000436	4.360796	0.738739	-0.008724
1173	5.8600e-01	8.2758	17.836250	0.000346	3.462985	0.586646	-0.006928
1174	5.8650e-01	8.2617	17.814441	0.000218	2.180398	0.369369	-0.004362
1175	5.8700e-01	8.2538	17.780659	0.000338	3.377480	0.572161	-0.006756
1176	5.8750e-01	8.2474	17.758422	0.000222	2.223151	0.376612	-0.004447
1177	5.8800e-01	8.2336	17.731910	0.000265	2.650680	0.449037	-0.005303
1178	5.8850e-01	8.2254	17.704969	0.000269	2.693433	0.456280	-0.005388
1179	5.8900e-01	8.2162	17.686154	0.000188	1.881128	0.318672	-0.003763
1180	5.8950e-01	8.2068	17.642536	0.000436	4.360796	0.738739	-0.008724
1181	5.9000e-01	8.1976	17.617734	0.000248	2.479669	0.420067	-0.004960
1182	5.9050e-01	8.1842	17.606615	0.000111	1.111576	0.188306	-0.002224
1183	5.9100e-01	8.1769	17.572405	0.000342	3.420232	0.579403	-0.006842
1184	5.9150e-01	8.1662	17.536913	0.000355	3.548491	0.601131	-0.007099
1185	5.9200e-01	8.1573	17.485597	0.000513	5.130349	0.869105	-0.010263
1186	5.9250e-01	8.1470	17.485597	-0.000000	-0.000000	-0.000000	0.000000
1187	5.9300e-01	8.1375	17.456947	0.000286	2.864445	0.485250	-0.005730
1188	5.9350e-01	8.1262	17.446256	0.000107	1.068823	0.181063	-0.002138
1189	5.9400e-01	8.1165	17.392803	0.000534	5.344113	0.905317	-0.010691
1190	5.9450e-01	8.1055	17.385961	0.000068	0.684046	0.115881	-0.001368
1191	5.9500e-01	8.0969	17.353889	0.000321	3.206468	0.543190	-0.006414
1192	5.9550e-01	8.0847	17.323955	0.000299	2.992703	0.506978	-0.005987
1193	5.9600e-01	8.0771	17.298725	0.000252	2.522421	0.427310	-0.005046
1194	5.9650e-01	8.0640	17.258101	0.000406	4.061526	0.688041	-0.008125
1195	5.9700e-01	8.0548	17.235009	0.000231	2.308657	0.391097	-0.004618
1196	5.9750e-01	8.0463	17.232443	0.000026	0.256517	0.043455	-0.000513
1197	5.9800e-01	8.0371	17.180701	0.000517	5.173102	0.876347	-0.010349
1198	5.9850e-01	8.0280	17.153760	0.000269	2.693433	0.456280	-0.005388
1199	5.9900e-01	8.0151	17.134090	0.000197	1.966634	0.333157	-0.003934
1200	5.9950e-01	8.0051	17.097741	0.000363	3.633997	0.615616	-0.007270
1201	6.0000e-01	7.9956	17.067380	0.000304	3.035456	0.514220	-0.006072
1202	6.0050e-01	7.9848	17.061393	0.000060	0.598541	0.101396	-0.001197
1203	6.0100e-01	7.9755	17.026328	0.000351	3.505738	0.593888	-0.007013
1204	6.0150e-01	7.9651	16.995111	0.000312	3.120962	0.528705	-0.006243
1205	6.0200e-01	7.9532	16.966033	0.000291	2.907198	0.492493	-0.005816
1206	6.0250e-01	7.9456	16.943369	0.000227	2.265904	0.383855	-0.004533
1207	6.0300e-01	7.9324	16.898896	0.000445	4.446302	0.753224	-0.008895
1208	6.0350e-01	7.9269	16.892909	0.000060	0.598541	0.101396	-0.001197
1209	6.0400e-01	7.9175	16.848863	0.000440	4.403549	0.745981	-0.008809
1210	6.0450e-01	7.9053	16.822778	0.000261	2.607927	0.441795	-0.005217
1211	6.0500e-01	7.8979	16.793700	0.000291	2.907198	0.492493	-0.005816
1212	6.0550e-01	7.8857	16.769325	0.000244	2.436916	0.412825	-0.004875
1213	6.0600e-01	7.8799	16.744095	0.000252	2.522421	0.427310	-0.005046
1214	6.0650e-01	7.8668	16.718010	0.000261	2.607927	0.441795	-0.005217
1215	6.0700e-01	7.8552	16.692780	0.000252	2.522421	0.427310	-0.005046
1216	6.0750e-01	7.8461	16.654294	0.000385	3.847761	0.651828	-0.007697
1217	6.0800e-01	7.8363	16.612387	0.000419	4.189785	0.709769	-0.008381
1218	6.0850e-01	7.8259	16.599986	0.000124	1.239834	0.210034	-0.002480
1219	6.0900e-01	7.8168	16.567058	0.000329	3.291974	0.557675	-0.006585
1220	6.0950e-01	7.8058	16.533276	0.000338	3.377480	0.572161	-0.006756
1221	6.1000e-01	7.7960	16.503342	0.000299	2.992703	0.506978	-0.005987
1222	6.1050e-01	7.7844	16.498211	0.000051	0.513035	0.086910	-0.001026
1223	6.1100e-01	7.7759	16.474691	0.000235	2.351410	0.398340	-0.004704
1224	6.1150e-01	7.7661	16.434495	0.000402	4.018773	0.680799	-0.008039
1225	6.1200e-01	7.7545	16.408837	0.000257	2.565174	0.434552	-0.005132
1226	6.1250e-01	7.7448	16.372917	0.000359	3.591244	0.608373	-0.007184
1227	6.1300e-01	7.7390	16.343838	0.000291	2.907198	0.492493	-0.005816
1228	6.1350e-01	7.7258	16.322457	0.000214	2.137645	0.362127	-0.004276
1229	6.1400e-01	7.7170	16.269431	0.000530	5.301360	0.898075	-0.010605
1230	6.1450e-01	7.7045	16.257885	0.000115	1.154328	0.195549	-0.002309
1231	6.1500e-01	7.6968	16.225386	0.000325	3.249221	0.550433	-0.006500
1232	6.1550e-01	7.6852	16.208708	0.000167	1.667363	0.282459	-0.003335
1233	6.1600e-01	7.6758	16.179630	0.000291	2.907198	0.492493	-0.005816
1234	6.1650e-01	7.6636	16.138578	0.000410	4.104279	0.695284	-0.008210
1235	6.1700e-01	7.6544	16.130025	0.000086	0.855058	0.144851	-0.001711
1236	6.1750e-01	7.6453	16.081276	0.000487	4.873831	0.825649	-0.009750
1237	6.1800e-01	7.6355	16.068875	0.000124	1.239834	0.210034	-0.002480
1238	6.1850e-01	7.6227	16.033382	0.000355	3.548491	0.601131	-0.007099
1239	6.1900e-01	7.6196	16.009435	0.000239	2.394163	0.405582	-0.004789
1240	6.1950e-01	7.6031	15.972232	0.000372	3.719503	0.630101	-0.007441
1241	6.2000e-01	7.5961	15.934173	0.000381	3.805009	0.644586	-0.007612
1242	6.2050e-01	7.5818	15.896542	0.000376	3.762256	0.637343	-0.007526
1243	6.2100e-01	7.5763	15.891410	0.000051	0.513035	0.086910	-0.001026
1244	6.2150e-01	7.5681	15.845655	0.000457	4.574561	0.774952	-0.009151
1245	6.2200e-01	7.5555	15.817431	0.000282	2.821692	0.478008	-0.005645
1246	6.2250e-01	7.5452	15.773814	0.000436	4.360796	0.738739	-0.008724
1247	6.2300e-01	7.5385	15.764406	0.000094	0.940564	0.159336	-0.001882
1248	6.2350e-01	7.5252	15.715656	0.000487	4.873831	0.825649	-0.009750
1249	6.2400e-01	7.5153	15.716512	-0.000009	-0.085506	-0.014485	0.000171
1250	6.2450e-01	7.5061	15.684867	0.000316	3.163715	0.535948	-0.006329
1251	6.2500e-01	7.4969	15.661348	0.000235	2.351410	0.398340	-0.004704
1252	6.2550e-01	7.4869	15.636118	0.000252	2.522421	0.427310	-0.005046
1253	6.2600e-01	7.4789	15.585658	0.000504	5.044843	0.854620	-0.010092
1254	6.2650e-01	7.4652	15.563849	0.000218	2.180398	0.369369	-0.004362
1255	6.2700e-01	7.4567	15.545462	0.000184	1.838375	0.311429	-0.003678
1256	6.2750e-01	7.4432	15.515100	0.000304	3.035456	0.514220	-0.006072
1257	6.2800e-01	7.4371	15.481318	0.000338	3.377480	0.572161	-0.006756
1258	6.2850e-01	7.4255	15.465496	0.000158	1.581857	0.267974	-0.003164
1259	6.2900e-01	7.4173	15.417602	0.000479	4.788325	0.811164	-0.009579
1260	6.2950e-01	7.4072	15.391089	0.000265	2.650680	0.449037	-0.005303
1261	6.3000e-01	7.3956	15.357306	0.000338	3.377480	0.572161	-0.006756
1262	6.3050e-01	7.3859	15.320103	0.000372	3.719503	0.630101	-0.007441
1263	6.3100e-01	7.3764	15.290169	0.000299	2.992703	0.506978	-0.005987
1264	6.3150e-01	7.3663	15.283327	0.000068	0.684046	0.115881	-0.001368
1265	6.3200e-01	7.3560	15.251683	0.000316	3.163715	0.535948	-0.006329
1266	6.3250e-01	7.3453	15.209776	0.000419	4.189785	0.709769	-0.008381
1267	6.3300e-01	7.3364	15.184118	0.000257	2.565174	0.434552	-0.005132
1268	6.3350e-01	7.3250	15.168724	0.000154	1.539105	0.260731	-0.003079
1269	6.3400e-01	7.3160	15.113132	0.000556	5.557878	0.941530	-0.011118
1270	6.3450e-01	7.3077	15.094745	0.000184	1.838375	0.311429	-0.003678
1271	6.3500e-01	7.2931	15.059679	0.000351	3.505738	0.593888	-0.007013
1272	6.3550e-01	7.2845	15.049844	0.000098	0.983317	0.166578	-0.001967
1273	6.3600e-01	7.2775	15.002805	0.000470	4.702820	0.796679	-0.009408
1274	6.3650e-01	7.2638	14.990832	0.000120	1.197081	0.202791	-0.002395
1275	6.3700e-01	7.2528	14.964746	0.000261	2.607927	0.441795	-0.005217
1276	6.3750e-01	7.2455	14.911721	0.000530	5.301360	0.898075	-0.010605
1277	6.3800e-01	7.2348	14.887346	0.000244	2.436916	0.412825	-0.004875
1278	6.3850e-01	7.2253	14.850998	0.000363	3.633997	0.615616	-0.007270
1279	6.3900e-01	7.2156	14.797973	0.000530	5.301360	0.898075	-0.010605
1280	6.3950e-01	7.2073	14.802249	-0.000043	-0.427529	-0.072425	0.000855
1281	6.4000e-01	7.1976	14.771032	0.000312	3.120962	0.528705	-0.006243
1282	6.4050e-01	7.1851	14.745375	0.000257	2.565174	0.434552	-0.005132
1283	6.4100e-01	7.1759	14.715013	0.000304	3.035456	0.514220	-0.006072
1284	6.4150e-01	7.1655	14.661988	0.000530	5.301360	0.898075	-0.010605
1285	6.4200e-01	7.1570	14.636330	0.000257	2.565174	0.434552	-0.005132
1286	6.4250e-01	7.1466	14.609390	0.000269	2.693433	0.456280	-0.005388
1287	6.4300e-01	7.1356	14.585870	0.000235	2.351410	0.398340	-0.004704
1288	6.4350e-01	7.1271	14.544818	0.000410	4.104279	0.695284	-0.008210
1289	6.4400e-01	7.1130	14.535838	0.000090	0.897811	0.152093	-0.001796
1290	6.4450e-01	7.1069	14.499918	0.000359	3.591244	0.608373	-0.007184
1291	6.4500e-01	7.0954	14.467846	0.000321	3.206468	0.543190	-0.006414
1292	6.4550e-01	7.0850	14.434491	0.000333	3.334727	0.564918	-0.006671
1293	6.4600e-01	7.0746	14.412255	0.000222	2.223151	0.376612	-0.004447
1294	6.4650e-01	7.0654	14.372485	0.000398	3.976020	0.673556	-0.007954
1295	6.4700e-01	7.0545	14.339558	0.000329	3.291974	0.557675	-0.006585
1296	6.4750e-01	7.0462	14.340841	-0.000013	-0.128259	-0.021728	0.000257
1297	6.4800e-01	7.0374	14.269000	0.000718	7.182488	1.216746	-0.014368
1298	6.4850e-01	7.0251	14.257882	0.000111	1.111576	0.188306	-0.002224
1299	6.4900e-01	7.0169	14.229659	0.000282	2.821692	0.478008	-0.005645
1300	6.4950e-01	7.0041	14.199297	0.000304	3.035456	0.514220	-0.006072
1301	6.5000e-01	6.9958	14.156535	0.000428	4.275291	0.724254	-0.008553
1302	6.5050e-01	6.9849	14.147982	0.000086	0.855058	0.144851	-0.001711
1303	6.5100e-01	6.9748	14.095384	0.000526	5.258607	0.890832	-0.010520
1304	6.5150e-01	6.9644	14.085549	0.000098	0.983317	0.166578	-0.001967
1305	6.5200e-01	6.9571	14.046635	0.000389	3.890514	0.659071	-0.007783
1306	6.5250e-01	6.9440	14.030813	0.000158	1.581857	0.267974	-0.003164
1307	6.5300e-01	6.9354	13.994465	0.000363	3.633997	0.615616	-0.007270
1308	6.5350e-01	6.9250	13.947854	0.000466	4.660067	0.789437	-0.009322
1309	6.5400e-01	6.9156	13.931176	0.000167	1.667363	0.282459	-0.003335
1310	6.5450e-01	6.9043	13.870026	0.000611	6.113665	1.035683	-0.012230
1311	6.5500e-01	6.8970	13.870026	-0.000000	-0.000000	-0.000000	0.000000
1312	6.5550e-01	6.8829	13.846934	0.000231	2.308657	0.391097	-0.004618
1313	6.5600e-01	6.8756	13.800750	0.000462	4.617314	0.782194	-0.009237
1314	6.5650e-01	6.8646	13.774665	0.000261	2.607927	0.441795	-0.005217
1315	6.5700e-01	6.8585	13.747725	0.000269	2.693433	0.456280	-0.005388
1316	6.5750e-01	6.8457	13.705390	0.000423	4.232538	0.717011	-0.008467
1317	6.5800e-01	6.8353	13.695555	0.000098	0.983317	0.166578	-0.001967
1318	6.5850e-01	6.8250	13.638253	0.000573	5.728889	0.970500	-0.011460
1319	6.5900e-01	6.8134	13.635260	0.000030	0.299270	0.050698	-0.000599
1320	6.5950e-01	6.8024	13.576247	0.000590	5.899901	0.999470	-0.011802
1321	6.6000e-01	6.7938	13.565129	0.000111	1.111576	0.188306	-0.002224
1322	6.6050e-01	6.7856	13.520228	0.000449	4.489055	0.760467	-0.008980
1323	6.6100e-01	6.7758	13.468486	0.000517	5.173102	0.876347	-0.010349
1324	6.6150e-01	6.7664	13.471479	-0.000030	-0.299270	-0.050698	0.000599
1325	6.6200e-01	6.7535	13.446677	0.000248	2.479669	0.420067	-0.004960
1326	6.6250e-01	6.7432	13.398355	0.000483	4.831078	0.818407	-0.009664
1327	6.6300e-01	6.7346	13.376546	0.000218	2.180398	0.369369	-0.004362
1328	6.6350e-01	6.7236	13.317534	0.000590	5.899901	0.999470	-0.011802
1329	6.6400e-01	6.7163	13.303422	0.000141	1.410846	0.239004	-0.002822
1330	6.6450e-01	6.7055	13.266647	0.000368	3.676750	0.622858	-0.007355
1331	6.6500e-01	6.6956	13.243555	0.000231	2.308657	0.391097	-0.004618
1332	6.6550e-01	6.6846	13.216187	0.000274	2.736186	0.463522	-0.005474
1333	6.6600e-01	6.6760	13.173424	0.000428	4.275291	0.724254	-0.008553
1334	6.6650e-01	6.6656	13.147767	0.000257	2.565174	0.434552	-0.005132
1335	6.6700e-01	6.6550	13.104577	0.000432	4.318043	0.731496	-0.008638
1336	6.6750e-01	6.6461	13.081057	0.000235	2.351410	0.398340	-0.004704
1337	6.6800e-01	6.6348	13.051551	0.000295	2.949950	0.499735	-0.005901
1338	6.6850e-01	6.6251	13.018624	0.000329	3.291974	0.557675	-0.006585
1339	6.6900e-01	6.6132	12.989545	0.000291	2.907198	0.492493	-0.005816
1340	6.6950e-01	6.6064	12.951059	0.000385	3.847761	0.651828	-0.007697
1341	6.7000e-01	6.5930	12.938658	0.000124	1.239834	0.210034	-0.002480
1342	6.7050e-01	6.5871	12.899744	0.000389	3.890514	0.659071	-0.007783
1343	6.7100e-01	6.5753	12.858264	0.000415	4.147032	0.702526	-0.008296
1344	6.7150e-01	6.5625	12.844153	0.000141	1.410846	0.239004	-0.002822
1345	6.7200e-01	6.5546	12.792838	0.000513	5.130349	0.869105	-0.010263
1346	6.7250e-01	6.5442	12.774877	0.000180	1.795622	0.304187	-0.003592
1347	6.7300e-01	6.5338	12.739385	0.000355	3.548491	0.601131	-0.007099
1348	6.7350e-01	6.5277	12.707740	0.000316	3.163715	0.535948	-0.006329
1349	6.7400e-01	6.5155	12.688497	0.000192	1.923881	0.325914	-0.003849
1350	6.7450e-01	6.5045	12.627347	0.000611	6.113665	1.035683	-0.012230
1351	6.7500e-01	6.4951	12.612807	0.000145	1.453599	0.246246	-0.002908
1352	6.7550e-01	6.4856	12.566624	0.000462	4.617314	0.782194	-0.009237
1353	6.7600e-01	6.4752	12.552940	0.000137	1.368093	0.231761	-0.002737
1354	6.7650e-01	6.4648	12.529848	0.000231	2.308657	0.391097	-0.004618
1355	6.7700e-01	6.4542	12.483237	0.000466	4.660067	0.789437	-0.009322
1356	6.7750e-01	6.4429	12.461001	0.000222	2.223151	0.376612	-0.004447
1357	6.7800e-01	6.4340	12.432777	0.000282	2.821692	0.478008	-0.005645
1358	6.7850e-01	6.4267	12.402416	0.000304	3.035456	0.514220	-0.006072
1359	6.7900e-01	6.4154	12.360936	0.000415	4.147032	0.702526	-0.008296
1360	6.7950e-01	6.4044	12.309621	0.000513	5.130349	0.869105	-0.010263
1361	6.8000e-01	6.3928	12.293799	0.000158	1.581857	0.267974	-0.003164
1362	6.8050e-01	6.3837	12.268997	0.000248	2.479669	0.420067	-0.004960
1363	6.8100e-01	6.3782	12.234359	0.000346	3.462985	0.586646	-0.006928
1364	6.8150e-01	6.3666	12.214688	0.000197	1.966634	0.333157	-0.003934
1365	6.8200e-01	6.3538	12.150545	0.000641	6.412936	1.086381	-0.012829
1366	6.8250e-01	6.3458	12.144985	0.000056	0.555788	0.094153	-0.001112
1367	6.8300e-01	6.3344	12.091105	0.000539	5.386866	0.912560	-0.010776
1368	6.8350e-01	6.3245	12.083835	0.000073	0.726799	0.123123	-0.001454
1369	6.8400e-01	6.3165	12.036796	0.000470	4.702820	0.796679	-0.009408
1370	6.8450e-01	6.3025	11.995317	0.000415	4.147032	0.702526	-0.008296
1371	6.8500e-01	6.2953	11.984626	0.000107	1.068823	0.181063	-0.002138
1372	6.8550e-01	6.2897	11.935449	0.000492	4.916584	0.832892	-0.009835
1373	6.8600e-01	6.2772	11.912785	0.000227	2.265904	0.383855	-0.004533
1374	6.8650e-01	6.2659	11.875154	0.000376	3.762256	0.637343	-0.007526
1375	6.8700e-01	6.2564	11.853773	0.000214	2.137645	0.362127	-0.004276
1376	6.8750e-01	6.2439	11.824694	0.000291	2.907198	0.492493	-0.005816
1377	6.8800e-01	6.2354	11.751570	0.000731	7.310747	1.238474	-0.014625
1378	6.8850e-01	6.2250	11.756702	-0.000051	-0.513035	-0.086910	0.001026
1379	6.8900e-01	6.2152	11.712229	0.000445	4.446302	0.753224	-0.008895
1380	6.8950e-01	6.2079	11.684433	0.000278	2.778939	0.470765	-0.005559
1381	6.9000e-01	6.1945	11.650651	0.000338	3.377480	0.572161	-0.006756
1382	6.9050e-01	6.1841	11.610026	0.000406	4.061526	0.688041	-0.008125
1383	6.9100e-01	6.1737	11.569402	0.000406	4.061526	0.688041	-0.008125
1384	6.9150e-01	6.1652	11.542461	0.000269	2.693433	0.456280	-0.005388
1385	6.9200e-01	6.1566	11.515521	0.000269	2.693433	0.456280	-0.005388
1386	6.9250e-01	6.1444	11.491146	0.000244	2.436916	0.412825	-0.004875
1387	6.9300e-01	6.1359	11.459930	0.000312	3.120962	0.528705	-0.006243
1388	6.9350e-01	6.1281	11.431279	0.000286	2.864445	0.485250	-0.005730
1389	6.9400e-01	6.1157	11.383385	0.000479	4.788325	0.811164	-0.009579
1390	6.9450e-01	6.1060	11.353023	0.000304	3.035456	0.514220	-0.006072
1391	6.9500e-01	6.0974	11.307268	0.000457	4.574561	0.774952	-0.009151
1392	6.9550e-01	6.0867	11.280755	0.000265	2.650680	0.449037	-0.005303
1393	6.9600e-01	6.0754	11.250393	0.000304	3.035456	0.514220	-0.006072
1394	6.9650e-01	6.0677	11.219177	0.000312	3.120962	0.528705	-0.006243
1395	6.9700e-01	6.0571	11.205065	0.000141	1.410846	0.239004	-0.002822
1396	6.9750e-01	6.0474	11.160592	0.000445	4.446302	0.753224	-0.008895
1397	6.9800e-01	6.0358	11.128520	0.000321	3.206468	0.543190	-0.006414
1398	6.9850e-01	6.0257	11.092172	0.000363	3.633997	0.615616	-0.007270
1399	6.9900e-01	6.0168	11.042995	0.000492	4.916584	0.832892	-0.009835
1400	6.9950e-01	6.0059	11.026745	0.000162	1.624610	0.275216	-0.003250
1401	7.0000e-01	5.9988	10.984410	0.000423	4.232538	0.717011	-0.008467
1402	7.0050e-01	5.9840	10.968588	0.000158	1.581857	0.267974	-0.003164
1403	7.0100e-01	5.9772	10.919839	0.000487	4.873831	0.825649	-0.009750
1404	7.0150e-01	5.9668	10.888622	0.000312	3.120962	0.528705	-0.006243
1405	7.0200e-01	5.9558	10.859971	0.000286	2.864445	0.485250	-0.005730
1406	7.0250e-01	5.9460	10.820202	0.000398	3.976020	0.673556	-0.007954
1407	7.0300e-01	5.9338	10.793262	0.000269	2.693433	0.456280	-0.005388
1408	7.0350e-01	5.9235	10.758197	0.000351	3.505738	0.593888	-0.007013
1409	7.0400e-01	5.9131	10.724414	0.000338	3.377480	0.572161	-0.006756
1410	7.0450e-01	5.9052	10.681224	0.000432	4.318043	0.731496	-0.008638
1411	7.0500e-01	5.8984	10.657277	0.000239	2.394163	0.405582	-0.004789
1412	7.0550e-01	5.8841	10.607245	0.000500	5.002090	0.847377	-0.010006
1413	7.0600e-01	5.8756	10.599548	0.000077	0.769552	0.130366	-0.001539
1414	7.0650e-01	5.8661	10.553792	0.000457	4.574561	0.774952	-0.009151
1415	7.0700e-01	5.8572	10.533266	0.000205	2.052139	0.347642	-0.004105
1416	7.0750e-01	5.8459	10.487510	0.000457	4.574561	0.774952	-0.009151
1417	7.0800e-01	5.8362	10.449879	0.000376	3.762256	0.637343	-0.007526
1418	7.0850e-01	5.8261	10.440471	0.000094	0.940564	0.159336	-0.001882
1419	7.0900e-01	5.8148	10.386590	0.000539	5.386866	0.912560	-0.010776
1420	7.0950e-01	5.8057	10.363071	0.000235	2.351410	0.398340	-0.004704
1421	7.1000e-01	5.7961	10.318170	0.000449	4.489055	0.760467	-0.008980
1422	7.1050e-01	5.7864	10.295506	0.000227	2.265904	0.383855	-0.004533
1423	7.1100e-01	5.7751	10.260013	0.000355	3.548491	0.601131	-0.007099
1424	7.1150e-01	5.7648	10.220672	0.000393	3.933267	0.666314	-0.007868
1425	7.1200e-01	5.7556	10.182613	0.000381	3.805009	0.644586	-0.007612
1426	7.1250e-01	5.7436	10.153535	0.000291	2.907198	0.492493	-0.005816
1427	7.1300e-01	5.7350	10.122746	0.000308	3.078209	0.521463	-0.006158
1428	7.1350e-01	5.7263	10.060740	0.000620	6.199171	1.050168	-0.012401
1429	7.1400e-01	5.7159	10.042352	0.000184	1.838375	0.311429	-0.003678
1430	7.1450e-01	5.7057	10.022681	0.000197	1.966634	0.333157	-0.003934
1431	7.1500e-01	5.6953	9.960248	0.000624	6.241924	1.057411	-0.012487
1432	7.1550e-01	5.6848	9.923900	0.000363	3.633997	0.615616	-0.007270
1433	7.1600e-01	5.6744	9.915347	0.000086	0.855058	0.144851	-0.001711
1434	7.1650e-01	5.6647	9.887979	0.000274	2.736186	0.463522	-0.005474
1435	7.1700e-01	5.6552	9.848638	0.000393	3.933267	0.666314	-0.007868
1436	7.1750e-01	5.6442	9.816993	0.000316	3.163715	0.535948	-0.006329
1437	7.1800e-01	5.6381	9.782356	0.000346	3.462985	0.586646	-0.006928
1438	7.1850e-01	5.6256	9.751139	0.000312	3.120962	0.528705	-0.006243
1439	7.1900e-01	5.6171	9.741304	0.000098	0.983317	0.166578	-0.001967
1440	7.1950e-01	5.6067	9.676732	0.000646	6.455689	1.093623	-0.012914
1441	7.2000e-01	5.5989	9.620286	0.000564	5.643383	0.956015	-0.011289
1442	7.2050e-01	5.5850	9.597622	0.000227	2.265904	0.383855	-0.004533
1443	7.2100e-01	5.5762	9.574530	0.000231	2.308657	0.391097	-0.004618
1444	7.2150e-01	5.5646	9.535616	0.000389	3.890514	0.659071	-0.007783
1445	7.2200e-01	5.5560	9.509958	0.000257	2.565174	0.434552	-0.005132
1446	7.2250e-01	5.5463	9.471045	0.000389	3.890514	0.659071	-0.007783
1447	7.2300e-01	5.5356	9.436407	0.000346	3.462985	0.586646	-0.006928
1448	7.2350e-01	5.5255	9.378678	0.000577	5.771642	0.977743	-0.011546
1449	7.2400e-01	5.5151	9.353020	0.000257	2.565174	0.434552	-0.005132
1450	7.2450e-01	5.5035	9.335060	0.000180	1.795622	0.304187	-0.003592
1451	7.2500e-01	5.4968	9.295718	0.000393	3.933267	0.666314	-0.007868
1452	7.2550e-01	5.4858	9.248679	0.000470	4.702820	0.796679	-0.009408
1453	7.2600e-01	5.4749	9.201213	0.000475	4.745572	0.803922	-0.009493
1454	7.2650e-01	5.4636	9.181542	0.000197	1.966634	0.333157	-0.003934
1455	7.2700e-01	5.4553	9.152891	0.000286	2.864445	0.485250	-0.005730
1456	7.2750e-01	5.4462	9.120392	0.000325	3.249221	0.550433	-0.006500
1457	7.2800e-01	5.4370	9.065228	0.000552	5.515125	0.934287	-0.011033
1458	7.2850e-01	5.4272	9.051117	0.000141	1.410846	0.239004	-0.002822
1459	7.2900e-01	5.4156	9.014768	0.000363	3.633997	0.615616	-0.007270
1460	7.2950e-01	5.4065	8.981414	0.000333	3.334727	0.564918	-0.006671
1461	7.3000e-01	5.3961	8.933092	0.000483	4.831078	0.818407	-0.009664
1462	7.3050e-01	5.3864	8.915132	0.000180	1.795622	0.304187	-0.003592
1463	7.3100e-01	5.3745	8.871514	0.000436	4.360796	0.738739	-0.008724
1464	7.3150e-01	5.3642	8.844146	0.000274	2.736186	0.463522	-0.005474
1465	7.3200e-01	5.3554	8.812502	0.000316	3.163715	0.535948	-0.006329
1466	7.3250e-01	5.3473	8.768884	0.000436	4.360796	0.738739	-0.008724
1467	7.3300e-01	5.3363	8.729542	0.000393	3.933267	0.666314	-0.007868
1468	7.3350e-01	5.3265	8.697898	0.000316	3.163715	0.535948	-0.006329
1469	7.3400e-01	5.3137	8.647011	0.000509	5.087596	0.861862	-0.010177
1470	7.3450e-01	5.3052	8.615366	0.000316	3.163715	0.535948	-0.006329
1471	7.3500e-01	5.2954	8.595268	0.000201	2.009387	0.340399	-0.004020
1472	7.3550e-01	5.2856	8.545663	0.000496	4.959337	0.840134	-0.009921
1473	7.3600e-01	5.2762	8.519151	0.000265	2.650680	0.449037	-0.005303
1474	7.3650e-01	5.2646	8.495631	0.000235	2.351410	0.398340	-0.004704
1475	7.3700e-01	5.2548	8.460566	0.000351	3.505738	0.593888	-0.007013
1476	7.3750e-01	5.2448	8.415665	0.000449	4.489055	0.760467	-0.008980
1477	7.3800e-01	5.2362	8.390436	0.000252	2.522421	0.427310	-0.005046
1478	7.3850e-01	5.2295	8.349811	0.000406	4.061526	0.688041	-0.008125
1479	7.3900e-01	5.2139	8.314318	0.000355	3.548491	0.601131	-0.007099
1480	7.3950e-01	5.2048	8.255306	0.000590	5.899901	0.999470	-0.011802
1481	7.4000e-01	5.1971	8.224089	0.000312	3.120962	0.528705	-0.006243
1482	7.4050e-01	5.1827	8.209122	0.000150	1.496352	0.253489	-0.002993
1483	7.4100e-01	5.1764	8.169353	0.000398	3.976020	0.673556	-0.007954
1484	7.4150e-01	5.1624	8.142413	0.000269	2.693433	0.456280	-0.005388
1485	7.4200e-01	5.1576	8.082545	0.000599	5.985407	1.013955	-0.011974
1486	7.4250e-01	5.1450	8.077841	0.000047	0.470282	0.079668	-0.000941
1487	7.4300e-01	5.1361	8.028237	0.000496	4.959337	0.840134	-0.009921
1488	7.4350e-01	5.1247	7.987185	0.000410	4.104279	0.695284	-0.008210
1489	7.4400e-01	5.1141	7.949981	0.000372	3.719503	0.630101	-0.007441
1490	7.4450e-01	5.1071	7.908929	0.000410	4.104279	0.695284	-0.008210
1491	7.4500e-01	5.0937	7.883700	0.000252	2.522421	0.427310	-0.005046
1492	7.4550e-01	5.0861	7.843503	0.000402	4.018773	0.680799	-0.008039
1493	7.4600e-01	5.0751	7.798602	0.000449	4.489055	0.760467	-0.008980
1494	7.4650e-01	5.0662	7.767813	0.000308	3.078209	0.521463	-0.006158
1495	7.4700e-01	5.0568	7.737452	0.000304	3.035456	0.514220	-0.006072
1496	7.4750e-01	5.0473	7.703242	0.000342	3.420232	0.579403	-0.006842
1497	7.4800e-01	5.0339	7.680150	0.000231	2.308657	0.391097	-0.004618
1498	7.4850e-01	5.0240	7.625414	0.000547	5.472372	0.927045	-0.010947
1499	7.4900e-01	5.0159	7.600612	0.000248	2.479669	0.420067	-0.004960
1500	7.4950e-01	5.0076	7.561270	0.000393	3.933267	0.666314	-0.007868
1501	7.5000e-01	4.9976	7.513376	0.000479	4.788325	0.811164	-0.009579
1502	7.5050e-01	4.9854	7.502685	0.000107	1.068823	0.181063	-0.002138
1503	7.5100e-01	4.9748	7.447949	0.000547	5.472372	0.927045	-0.010947
1504	7.5150e-01	4.9672	7.415022	0.000329	3.291974	0.557675	-0.006585
1505	7.5200e-01	4.9579	7.388082	0.000269	2.693433	0.456280	-0.005388
1506	7.5250e-01	4.9454	7.332918	0.000552	5.515125	0.934287	-0.011033
1507	7.5300e-01	4.9348	7.290156	0.000428	4.275291	0.724254	-0.008553
1508	7.5350e-01	4.9234	7.250387	0.000398	3.976020	0.673556	-0.007954
1509	7.5400e-01	4.9121	7.239268	0.000111	1.111576	0.188306	-0.002224
1510	7.5450e-01	4.9038	7.170848	0.000684	6.840465	1.158806	-0.013684
1511	7.5500e-01	4.8953	7.139632	0.000312	3.120962	0.528705	-0.006243
1512	7.5550e-01	4.8859	7.143053	-0.000034	-0.342023	-0.057940	0.000684
1513	7.5600e-01	4.8752	7.071639	0.000714	7.139735	1.209504	-0.014283
1514	7.5650e-01	4.8645	7.054107	0.000175	1.752869	0.296944	-0.003507
1515	7.5700e-01	4.8541	7.017331	0.000368	3.676750	0.622858	-0.007355
1516	7.5750e-01	4.8471	6.970720	0.000466	4.660067	0.789437	-0.009322
1517	7.5800e-01	4.8340	6.897596	0.000731	7.310747	1.238474	-0.014625
1518	7.5850e-01	4.8260	6.900161	-0.000026	-0.256517	-0.043455	0.000513
1519	7.5900e-01	4.8181	6.862103	0.000381	3.805009	0.644586	-0.007612
1520	7.5950e-01	4.8056	6.824899	0.000372	3.719503	0.630101	-0.007441
1521	7.6000e-01	4.7945	6.812071	0.000128	1.282587	0.217276	-0.002566
1522	7.6050e-01	4.7852	6.761611	0.000504	5.044843	0.854620	-0.010092
1523	7.6100e-01	4.7760	6.707302	0.000543	5.429619	0.919802	-0.010862
1524	7.6150e-01	4.7662	6.676941	0.000304	3.035456	0.514220	-0.006072
1525	7.6200e-01	4.7562	6.626909	0.000500	5.002090	0.847377	-0.010006
1526	7.6250e-01	4.7444	6.590561	0.000363	3.633997	0.615616	-0.007270
1527	7.6300e-01	4.7369	6.573456	0.000171	1.710116	0.289702	-0.003421
1528	7.6350e-01	4.7272	6.518720	0.000547	5.472372	0.927045	-0.010947
1529	7.6400e-01	4.7156	6.487503	0.000312	3.120962	0.528705	-0.006243
1530	7.6450e-01	4.7050	6.444313	0.000432	4.318043	0.731496	-0.008638
1531	7.6500e-01	4.6930	6.427208	0.000171	1.710116	0.289702	-0.003421
1532	7.6550e-01	4.6857	6.376320	0.000509	5.087596	0.861862	-0.010177
1533	7.6600e-01	4.6766	6.343821	0.000325	3.249221	0.550433	-0.006500
1534	7.6650e-01	4.6655	6.295927	0.000479	4.788325	0.811164	-0.009579
1535	7.6700e-01	4.6564	6.240763	0.000552	5.515125	0.934287	-0.011033
1536	7.6750e-01	4.6448	6.216816	0.000239	2.394163	0.405582	-0.004789
1537	7.6800e-01	4.6387	6.195435	0.000214	2.137645	0.362127	-0.004276
1538	7.6850e-01	4.6237	6.155666	0.000398	3.976020	0.673556	-0.007954
1539	7.6900e-01	4.6149	6.112048	0.000436	4.360796	0.738739	-0.008724
1540	7.6950e-01	4.6051	6.086391	0.000257	2.565174	0.434552	-0.005132
1541	7.7000e-01	4.5966	6.049187	0.000372	3.719503	0.630101	-0.007441
1542	7.7050e-01	4.5882	5.994879	0.000543	5.429619	0.919802	-0.010862
1543	7.7100e-01	4.5746	5.956820	0.000381	3.805009	0.644586	-0.007612
1544	7.7150e-01	4.5642	5.910209	0.000466	4.660067	0.789437	-0.009322
1545	7.7200e-01	4.5557	5.884551	0.000257	2.565174	0.434552	-0.005132
1546	7.7250e-01	4.5457	5.852052	0.000325	3.249221	0.550433	-0.006500
1547	7.7300e-01	4.5374	5.801592	0.000504	5.044843	0.854620	-0.010092
1548	7.7350e-01	4.5242	5.779783	0.000218	2.180398	0.369369	-0.004362
1549	7.7400e-01	4.5148	5.764389	0.000154	1.539105	0.260731	-0.003079
1550	7.7450e-01	4.5047	5.709225	0.000552	5.515125	0.934287	-0.011033
1551	7.7500e-01	4.4965	5.689127	0.000201	2.009387	0.340399	-0.004020
1552	7.7550e-01	4.4870	5.628831	0.000603	6.028160	1.021198	-0.012059
1553	7.7600e-01	4.4751	5.575378	0.000534	5.344113	0.905317	-0.010691
1554	7.7650e-01	4.4666	5.549721	0.000257	2.565174	0.434552	-0.005132
1555	7.7700e-01	4.4540	5.507814	0.000419	4.189785	0.709769	-0.008381
1556	7.7750e-01	4.4453	5.484294	0.000235	2.351410	0.398340	-0.004704
1557	7.7800e-01	4.4357	5.413736	0.000705	7.054229	1.195019	-0.014112
1558	7.7850e-01	4.4244	5.395348	0.000184	1.838375	0.311429	-0.003678
1559	7.7900e-01	4.4150	5.369691	0.000257	2.565174	0.434552	-0.005132
1560	7.7950e-01	4.4049	5.314099	0.000556	5.557878	0.941530	-0.011118
1561	7.8000e-01	4.3970	5.276896	0.000372	3.719503	0.630101	-0.007441
1562	7.8050e-01	4.3843	5.233706	0.000432	4.318043	0.731496	-0.008638
1563	7.8100e-01	4.3723	5.223443	0.000103	1.026070	0.173821	-0.002053
1564	7.8150e-01	4.3648	5.155023	0.000684	6.840465	1.158806	-0.013684
1565	7.8200e-01	4.3567	5.138345	0.000167	1.667363	0.282459	-0.003335
1566	7.8250e-01	4.3446	5.097293	0.000410	4.104279	0.695284	-0.008210
1567	7.8300e-01	4.3356	5.039991	0.000573	5.728889	0.970500	-0.011460
1568	7.8350e-01	4.3259	5.005781	0.000342	3.420232	0.579403	-0.006842
1569	7.8400e-01	4.3164	4.943348	0.000624	6.241924	1.057411	-0.012487
1570	7.8450e-01	4.3045	4.943348	-0.000000	-0.000000	-0.000000	0.000000
1571	7.8500e-01	4.2957	4.893744	0.000496	4.959337	0.840134	-0.009921
1572	7.8550e-01	4.2847	4.846277	0.000475	4.745572	0.803922	-0.009493
1573	7.8600e-01	4.2737	4.807791	0.000385	3.847761	0.651828	-0.007697
1574	7.8650e-01	4.2682	4.786410	0.000214	2.137645	0.362127	-0.004276
1575	7.8700e-01	4.2535	4.753910	0.000325	3.249221	0.550433	-0.006500
1576	7.8750e-01	4.2456	4.688484	0.000654	6.541194	1.108108	-0.013085
1577	7.8800e-01	4.2366	4.650852	0.000376	3.762256	0.637343	-0.007526
1578	7.8850e-01	4.2261	4.627333	0.000235	2.351410	0.398340	-0.004704
1579	7.8900e-01	4.2151	4.582005	0.000453	4.531808	0.767709	-0.009066
1580	7.8950e-01	4.2065	4.536249	0.000457	4.574561	0.774952	-0.009151
1581	7.9000e-01	4.1954	4.507598	0.000286	2.864445	0.485250	-0.005730
1582	7.9050e-01	4.1843	4.460987	0.000466	4.660067	0.789437	-0.009322
1583	7.9100e-01	4.1777	4.431481	0.000295	2.949950	0.499735	-0.005901
1584	7.9150e-01	4.1656	4.381876	0.000496	4.959337	0.840134	-0.009921
1585	7.9200e-01	4.1582	4.350232	0.000316	3.163715	0.535948	-0.006329
1586	7.9250e-01	4.1461	4.313456	0.000368	3.676750	0.622858	-0.007355
1587	7.9300e-01	4.1408	4.259575	0.000539	5.386866	0.912560	-0.010776
1588	7.9350e-01	4.1235	4.242898	0.000167	1.667363	0.282459	-0.003335
1589	7.9400e-01	4.1171	4.181748	0.000611	6.113665	1.035683	-0.012230
1590	7.9450e-01	4.1083	4.141551	0.000402	4.018773	0.680799	-0.008039
1591	7.9500e-01	4.0973	4.097933	0.000436	4.360796	0.738739	-0.008724
1592	7.9550e-01	4.0881	4.062868	0.000351	3.505738	0.593888	-0.007013
1593	7.9600e-01	4.0771	4.028658	0.000342	3.420232	0.579403	-0.006842
1594	7.9650e-01	4.0654	4.005138	0.000235	2.351410	0.398340	-0.004704
1595	7.9700e-01	4.0561	3.950830	0.000543	5.429619	0.919802	-0.010862
1596	7.9750e-01	4.0469	3.893956	0.000569	5.686136	0.963258	-0.011375
1597	7.9800e-01	4.0379	3.877278	0.000167	1.667363	0.282459	-0.003335
1598	7.9850e-01	4.0228	3.832378	0.000449	4.489055	0.760467	-0.008980
1599	7.9900e-01	4.0182	3.797312	0.000351	3.505738	0.593888	-0.007013
1600	7.9950e-01	4.0042	3.745997	0.000513	5.130349	0.869105	-0.010263
1601	8.0000e-01	3.9990	3.712215	0.000338	3.377480	0.572161	-0.006756
1602	8.0050e-01	3.9862	3.675012	0.000372	3.719503	0.630101	-0.007441
1603	8.0100e-01	3.9754	3.630966	0.000440	4.403549	0.745981	-0.008809
1604	8.0150e-01	3.9676	3.574947	0.000560	5.600631	0.948773	-0.011204
1605	8.0200e-01	3.9557	3.566822	0.000081	0.812305	0.137608	-0.001625
1606	8.0250e-01	3.9447	3.500540	0.000663	6.626700	1.122593	-0.013256
1607	8.0300e-01	3.9345	3.503106	-0.000026	-0.256517	-0.043455	0.000513
1608	8.0350e-01	3.9233	3.446232	0.000569	5.686136	0.963258	-0.011375
1609	8.0400e-01	3.9145	3.382516	0.000637	6.370183	1.079138	-0.012743
1610	8.0450e-01	3.9047	3.358997	0.000235	2.351410	0.398340	-0.004704
1611	8.0500e-01	3.8977	3.310675	0.000483	4.831078	0.818407	-0.009664
1612	8.0550e-01	3.8849	3.270050	0.000406	4.061526	0.688041	-0.008125
1613	8.0600e-01	3.8746	3.237123	0.000329	3.291974	0.557675	-0.006585
1614	8.0650e-01	3.8638	3.188802	0.000483	4.831078	0.818407	-0.009664
1615	8.0700e-01	3.8538	3.153736	0.000351	3.505738	0.593888	-0.007013
1616	8.0750e-01	3.8452	3.116533	0.000372	3.719503	0.630101	-0.007441
1617	8.0800e-01	3.8350	3.066073	0.000504	5.044843	0.854620	-0.010092
1618	8.0850e-01	3.8251	3.022028	0.000440	4.403549	0.745981	-0.008809
1619	8.0900e-01	3.8147	2.990811	0.000312	3.120962	0.528705	-0.006243
1620	8.0950e-01	3.8035	2.945055	0.000457	4.574561	0.774952	-0.009151
1621	8.1000e-01	3.7967	2.905714	0.000393	3.933267	0.666314	-0.007868
1622	8.1050e-01	3.7872	2.862951	0.000428	4.275291	0.724254	-0.008553
1623	8.1100e-01	3.7720	2.845419	0.000175	1.752869	0.296944	-0.003507
1624	8.1150e-01	3.7659	2.788117	0.000573	5.728889	0.970500	-0.011460
1625	8.1200e-01	3.7558	2.743644	0.000445	4.446302	0.753224	-0.008895
1626	8.1250e-01	3.7462	2.697888	0.000457	4.574561	0.774952	-0.009151
1627	8.1300e-01	3.7340	2.667954	0.000299	2.992703	0.506978	-0.005987
1628	8.1350e-01	3.7256	2.632461	0.000355	3.548491	0.601131	-0.007099
1629	8.1400e-01	3.7161	2.571738	0.000607	6.070913	1.028440	-0.012145
1630	8.1450e-01	3.7043	2.543088	0.000286	2.864445	0.485250	-0.005730
1631	8.1500e-01	3.6956	2.491345	0.000517	5.173102	0.876347	-0.010349
1632	8.1550e-01	3.6866	2.439175	0.000522	5.215854	0.883590	-0.010434
1633	8.1600e-01	3.6777	2.416510	0.000227	2.265904	0.383855	-0.004533
1634	8.1650e-01	3.6667	2.373320	0.000432	4.318043	0.731496	-0.008638
1635	8.1700e-01	3.6566	2.342104	0.000312	3.120962	0.528705	-0.006243
1636	8.1750e-01	3.6469	2.284374	0.000577	5.771642	0.977743	-0.011546
1637	8.1800e-01	3.6365	2.260427	0.000239	2.394163	0.405582	-0.004789
1638	8.1850e-01	3.6243	2.224934	0.000355	3.548491	0.601131	-0.007099
1639	8.1900e-01	3.6134	2.161218	0.000637	6.370183	1.079138	-0.012743
1640	8.1950e-01	3.6069	2.122732	0.000385	3.847761	0.651828	-0.007697
1641	8.2000e-01	3.5950	2.086811	0.000359	3.591244	0.608373	-0.007184
1642	8.2050e-01	3.5876	2.038062	0.000487	4.873831	0.825649	-0.009750
1643	8.2100e-01	3.5739	2.003852	0.000342	3.420232	0.579403	-0.006842
1644	8.2150e-01	3.5663	1.948688	0.000552	5.515125	0.934287	-0.011033
1645	8.2200e-01	3.5556	1.915761	0.000329	3.291974	0.557675	-0.006585
1646	8.2250e-01	3.5471	1.876420	0.000393	3.933267	0.666314	-0.007868
1647	8.2300e-01	3.5370	1.826815	0.000496	4.959337	0.840134	-0.009921
1648	8.2350e-01	3.5245	1.771224	0.000556	5.557878	0.941530	-0.011118
1649	8.2400e-01	3.5196	1.753264	0.000180	1.795622	0.304187	-0.003592
1650	8.2450e-01	3.5052	1.720336	0.000329	3.291974	0.557675	-0.006585
1651	8.2500e-01	3.4949	1.669449	0.000509	5.087596	0.861862	-0.010177
1652	8.2550e-01	3.4833	1.620700	0.000487	4.873831	0.825649	-0.009750
1653	8.2600e-01	3.4779	1.577510	0.000432	4.318043	0.731496	-0.008638
1654	8.2650e-01	3.4641	1.533037	0.000445	4.446302	0.753224	-0.008895
1655	8.2700e-01	3.4543	1.500537	0.000325	3.249221	0.550433	-0.006500
1656	8.2750e-01	3.4468	1.446656	0.000539	5.386866	0.912560	-0.010776
1657	8.2800e-01	3.4378	1.400473	0.000462	4.617314	0.782194	-0.009237
1658	8.2850e-01	3.4236	1.384223	0.000162	1.624610	0.275216	-0.003250
1659	8.2900e-01	3.4162	1.323073	0.000611	6.113665	1.035683	-0.012230
1660	8.2950e-01	3.4045	1.280738	0.000423	4.232538	0.717011	-0.008467
1661	8.3000e-01	3.3948	1.255935	0.000248	2.479669	0.420067	-0.004960
1662	8.3050e-01	3.3845	1.208469	0.000475	4.745572	0.803922	-0.009493
1663	8.3100e-01	3.3760	1.170838	0.000376	3.762256	0.637343	-0.007526
1664	8.3150e-01	3.3655	1.104556	0.000663	6.626700	1.122593	-0.013256
1665	8.3200e-01	3.3549	1.078471	0.000261	2.607927	0.441795	-0.005217
1666	8.3250e-01	3.3469	1.014755	0.000637	6.370183	1.079138	-0.012743
1667	8.3300e-01	3.3371	0.985676	0.000291	2.907198	0.492493	-0.005816
1668	8.3350e-01	3.3237	0.951466	0.000342	3.420232	0.579403	-0.006842
1669	8.3400e-01	3.3145	0.906993	0.000445	4.446302	0.753224	-0.008895
1670	8.3450e-01	3.3054	0.883046	0.000239	2.394163	0.405582	-0.004789
1671	8.3500e-01	3.2973	0.821468	0.000616	6.156418	1.042926	-0.012316
1672	8.3550e-01	3.2855	0.753903	0.000675	6.754959	1.144321	-0.013513
1673	8.3600e-01	3.2761	0.714989	0.000389	3.890514	0.659071	-0.007783
1674	8.3650e-01	3.2642	0.691042	0.000239	2.394163	0.405582	-0.004789
1675	8.3700e-01	3.2541	0.632030	0.000590	5.899901	0.999470	-0.011802
1676	8.3750e-01	3.2456	0.592261	0.000398	3.976020	0.673556	-0.007954
1677	8.3800e-01	3.2347	0.568742	0.000235	2.351410	0.398340	-0.004704
1678	8.3850e-01	3.2258	0.497756	0.000710	7.096982	1.202261	-0.014197
1679	8.3900e-01	3.2137	0.489203	0.000086	0.855058	0.144851	-0.001711
1680	8.3950e-01	3.2059	0.437033	0.000522	5.215854	0.883590	-0.010434
1681	8.4000e-01	3.1955	0.381869	0.000552	5.515125	0.934287	-0.011033
1682	8.4050e-01	3.1859	0.356639	0.000252	2.522421	0.427310	-0.005046
1683	8.4100e-01	3.1747	0.310028	0.000466	4.660067	0.789437	-0.009322
1684	8.4150e-01	3.1648	0.251871	0.000581	5.814395	0.984985	-0.011631
1685	8.4200e-01	3.1528	0.214668	0.000372	3.719503	0.630101	-0.007441
1686	8.4250e-01	3.1439	0.159932	0.000547	5.472372	0.927045	-0.010947
1687	8.4300e-01	3.1348	0.144537	0.000154	1.539105	0.260731	-0.003079
1688	8.4350e-01	3.1233	0.076117	0.000684	6.840465	1.158806	-0.013684
1689	8.4400e-01	3.1134	0.029079	0.000470	4.702820	0.796679	-0.009408
1690	8.4450e-01	3.1030	-0.005132	0.000342	3.420232	0.579403	-0.006842
1691	8.4500e-01	3.0969	-0.038059	0.000329	3.291974	0.557675	-0.006585
1692	8.4550e-01	3.0836	-0.077400	0.000393	3.933267	0.666314	-0.007868
1693	8.4600e-01	3.0768	-0.156938	0.000795	7.952040	1.347112	-0.015908
1694	8.4650e-01	3.0646	-0.178320	0.000214	2.137645	0.362127	-0.004276
1695	8.4700e-01	3.0542	-0.217661	0.000393	3.933267	0.666314	-0.007868
1696	8.4750e-01	3.0437	-0.269404	0.000517	5.173102	0.876347	-0.010349
1697	8.4800e-01	3.0396	-0.277956	0.000086	0.855058	0.144851	-0.001711
1698	8.4850e-01	3.0254	-0.375883	0.000979	9.790415	1.658541	-0.019585
1699	8.4900e-01	3.0191	-0.398974	0.000231	2.308657	0.391097	-0.004618
1700	8.4950e-01	3.0048	-0.446013	0.000470	4.702820	0.796679	-0.009408
1701	8.5000e-01	2.9976	-0.506308	0.000603	6.028160	1.021198	-0.012059
1702	8.5050e-01	2.9851	-0.531538	0.000252	2.522421	0.427310	-0.005046
1703	8.5100e-01	2.9773	-0.580287	0.000487	4.873831	0.825649	-0.009750
1704	8.5150e-01	2.9645	-0.622622	0.000423	4.232538	0.717011	-0.008467
1705	8.5200e-01	2.9550	-0.677786	0.000552	5.515125	0.934287	-0.011033
1706	8.5250e-01	2.9449	-0.703016	0.000252	2.522421	0.427310	-0.005046
1707	8.5300e-01	2.9349	-0.754331	0.000513	5.130349	0.869105	-0.010263
1708	8.5350e-01	2.9286	-0.795383	0.000410	4.104279	0.695284	-0.008210
1709	8.5400e-01	2.9175	-0.800087	0.000047	0.470282	0.079668	-0.000941
1710	8.5450e-01	2.9053	-0.884757	0.000847	8.465075	1.434023	-0.016934
1711	8.5500e-01	2.8938	-0.937782	0.000530	5.301360	0.898075	-0.010605
1712	8.5550e-01	2.8851	-0.975841	0.000381	3.805009	0.644586	-0.007612
1713	8.5600e-01	2.8745	-1.010479	0.000346	3.462985	0.586646	-0.006928
1714	8.5650e-01	2.8662	-1.053669	0.000432	4.318043	0.731496	-0.008638
1715	8.5700e-01	2.8552	-1.086168	0.000325	3.249221	0.550433	-0.006500
1716	8.5750e-01	2.8436	-1.158009	0.000718	7.182488	1.216746	-0.014368
1717	8.5800e-01	2.8341	-1.202910	0.000449	4.489055	0.760467	-0.008980
1718	8.5850e-01	2.8270	-1.240113	0.000372	3.719503	0.630101	-0.007441
1719	8.5900e-01	2.8138	-1.305112	0.000650	6.498442	1.100866	-0.013000
1720	8.5950e-01	2.8046	-1.343599	0.000385	3.847761	0.651828	-0.007697
1721	8.6000e-01	2.7966	-1.380374	0.000368	3.676750	0.622858	-0.007355
1722	8.6050e-01	2.7856	-1.420999	0.000406	4.061526	0.688041	-0.008125
1723	8.6100e-01	2.7763	-1.456492	0.000355	3.548491	0.601131	-0.007099
1724	8.6150e-01	2.7638	-1.516359	0.000599	5.985407	1.013955	-0.011974
1725	8.6200e-01	2.7554	-1.553135	0.000368	3.676750	0.622858	-0.007355
1726	8.6250e-01	2.7454	-1.605733	0.000526	5.258607	0.890832	-0.010520
1727	8.6300e-01	2.7368	-1.652772	0.000470	4.702820	0.796679	-0.009408
1728	8.6350e-01	2.7231	-1.697245	0.000445	4.446302	0.753224	-0.008895
1729	8.6400e-01	2.7167	-1.743428	0.000462	4.617314	0.782194	-0.009237
1730	8.6450e-01	2.7060	-1.787901	0.000445	4.446302	0.753224	-0.008895
1731	8.6500e-01	2.6969	-1.822967	0.000351	3.505738	0.593888	-0.007013
1732	8.6550e-01	2.6855	-1.879413	0.000564	5.643383	0.956015	-0.011289
1733	8.6600e-01	2.6781	-1.924314	0.000449	4.489055	0.760467	-0.008980
1734	8.6650e-01	2.6639	-1.969214	0.000449	4.489055	0.760467	-0.008980
1735	8.6700e-01	2.6550	-2.026089	0.000569	5.686136	0.963258	-0.011375
1736	8.6750e-01	2.6450	-2.067996	0.000419	4.189785	0.709769	-0.008381
1737	8.6800e-01	2.6346	-2.124015	0.000560	5.600631	0.948773	-0.011204
1738	8.6850e-01	2.6252	-2.152238	0.000282	2.821692	0.478008	-0.005645
1739	8.6900e-01	2.6164	-2.221086	0.000688	6.883218	1.166049	-0.013770
1740	8.6950e-01	2.6065	-2.257861	0.000368	3.676750	0.622858	-0.007355
1741	8.7000e-01	2.5940	-2.296775	0.000389	3.890514	0.659071	-0.007783
1742	8.7050e-01	2.5864	-2.351084	0.000543	5.429619	0.919802	-0.010862
1743	8.7100e-01	2.5758	-2.392136	0.000410	4.104279	0.695284	-0.008210
1744	8.7150e-01	2.5652	-2.458418	0.000663	6.626700	1.122593	-0.013256
1745	8.7200e-01	2.5549	-2.492200	0.000338	3.377480	0.572161	-0.006756
1746	8.7250e-01	2.5465	-2.523417	0.000312	3.120962	0.528705	-0.006243
1747	8.7300e-01	2.5386	-2.585422	0.000620	6.199171	1.050168	-0.012401
1748	8.7350e-01	2.5246	-2.619632	0.000342	3.420232	0.579403	-0.006842
1749	8.7400e-01	2.5138	-2.645718	0.000261	2.607927	0.441795	-0.005217
1750	8.7450e-01	2.5055	-2.702164	0.000564	5.643383	0.956015	-0.011289
1751	8.7500e-01	2.4939	-2.757328	0.000552	5.515125	0.934287	-0.011033
1752	8.7550e-01	2.4844	-2.814202	0.000569	5.686136	0.963258	-0.011375
1753	8.7600e-01	2.4751	-2.841142	0.000269	2.693433	0.456280	-0.005388
1754	8.7650e-01	2.4631	-2.905714	0.000646	6.455689	1.093623	-0.012914
1755	8.7700e-01	2.4561	-2.942917	0.000372	3.719503	0.630101	-0.007441
1756	8.7750e-01	2.4451	-2.982259	0.000393	3.933267	0.666314	-0.007868
1757	8.7800e-01	2.4338	-3.051106	0.000688	6.883218	1.166049	-0.013770
1758	8.7850e-01	2.4243	-3.075053	0.000239	2.394163	0.405582	-0.004789
1759	8.7900e-01	2.4178	-3.128507	0.000534	5.344113	0.905317	-0.010691
1760	8.7950e-01	2.4064	-3.202913	0.000744	7.439006	1.260202	-0.014881
1761	8.8000e-01	2.3945	-3.227716	0.000248	2.479669	0.420067	-0.004960
1762	8.8050e-01	2.3821	-3.285017	0.000573	5.728889	0.970500	-0.011460
1763	8.8100e-01	2.3729	-3.314524	0.000295	2.949950	0.499735	-0.005901
1764	8.8150e-01	2.3682	-3.383371	0.000688	6.883218	1.166049	-0.013770
1765	8.8200e-01	2.3560	-3.412022	0.000286	2.864445	0.485250	-0.005730
1766	8.8250e-01	2.3472	-3.465903	0.000539	5.386866	0.912560	-0.010776
1767	8.8300e-01	2.3380	-3.534751	0.000688	6.883218	1.166049	-0.013770
1768	8.8350e-01	2.3254	-3.542020	0.000073	0.726799	0.123123	-0.001454
1769	8.8400e-01	2.3151	-3.595901	0.000539	5.386866	0.912560	-0.010776
1770	8.8450e-01	2.3026	-3.653630	0.000577	5.771642	0.977743	-0.011546
1771	8.8500e-01	2.2988	-3.704945	0.000513	5.130349	0.869105	-0.010263
1772	8.8550e-01	2.2809	-3.760109	0.000552	5.515125	0.934287	-0.011033
1773	8.8600e-01	2.2743	-3.787905	0.000278	2.778939	0.470765	-0.005559
1774	8.8650e-01	2.2649	-3.847772	0.000599	5.985407	1.013955	-0.011974
1775	8.8700e-01	2.2537	-3.865732	0.000180	1.795622	0.304187	-0.003592
1776	8.8750e-01	2.2443	-3.933725	0.000680	6.797712	1.151564	-0.013598
1777	8.8800e-01	2.2339	-3.988461	0.000547	5.472372	0.927045	-0.010947
1778	8.8850e-01	2.2269	-4.038065	0.000496	4.959337	0.840134	-0.009921
1779	8.8900e-01	2.2166	-4.085532	0.000475	4.745572	0.803922	-0.009493
1780	8.8950e-01	2.2070	-4.149248	0.000637	6.370183	1.079138	-0.012743
1781	8.9000e-01	2.1963	-4.182603	0.000333	3.334727	0.564918	-0.006671
1782	8.9050e-01	2.1857	-4.230069	0.000475	4.745572	0.803922	-0.009493
1783	8.9100e-01	2.1751	-4.290792	0.000607	6.070913	1.028440	-0.012145
1784	8.9150e-01	2.1637	-4.324574	0.000338	3.377480	0.572161	-0.006756
1785	8.9200e-01	2.1552	-4.379310	0.000547	5.472372	0.927045	-0.010947
1786	8.9250e-01	2.1469	-4.431481	0.000522	5.215854	0.883590	-0.010434
1787	8.9300e-01	2.1353	-4.462697	0.000312	3.120962	0.528705	-0.006243
1788	8.9350e-01	2.1280	-4.524275	0.000616	6.156418	1.042926	-0.012316
1789	8.9400e-01	2.1172	-4.596116	0.000718	7.182488	1.216746	-0.014368
1790	8.9450e-01	2.1039	-4.629471	0.000333	3.334727	0.564918	-0.006671
1791	8.9500e-01	2.0947	-4.679931	0.000504	5.044843	0.854620	-0.010092
1792	8.9550e-01	2.0871	-4.718417	0.000385	3.847761	0.651828	-0.007697
1793	8.9600e-01	2.0755	-4.750917	0.000325	3.249221	0.550433	-0.006500
1794	8.9650e-01	2.0663	-4.815488	0.000646	6.455689	1.093623	-0.012914
1795	8.9700e-01	2.0536	-4.868941	0.000534	5.344113	0.905317	-0.010691
1796	8.9750e-01	2.0488	-4.903579	0.000346	3.462985	0.586646	-0.006928
1797	8.9800e-01	2.0337	-4.943348	0.000398	3.976020	0.673556	-0.007954
1798	8.9850e-01	2.0238	-5.017755	0.000744	7.439006	1.260202	-0.014881
1799	8.9900e-01	2.0145	-5.063939	0.000462	4.617314	0.782194	-0.009237
1800	8.9950e-01	2.0056	-5.088741	0.000248	2.479669	0.420067	-0.004960
1801	9.0000e-01	1.9958	-5.149891	0.000611	6.113665	1.035683	-0.012230
1802	9.0050e-01	1.9836	-5.209759	0.000599	5.985407	1.013955	-0.011974
1803	9.0100e-01	1.9751	-5.249528	0.000398	3.976020	0.673556	-0.007954
1804	9.0150e-01	1.9672	-5.299132	0.000496	4.959337	0.840134	-0.009921
1805	9.0200e-01	1.9545	-5.338474	0.000393	3.933267	0.666314	-0.007868
1806	9.0250e-01	1.9453	-5.410315	0.000718	7.182488	1.216746	-0.014368
1807	9.0300e-01	1.9360	-5.445380	0.000351	3.505738	0.593888	-0.007013
1808	9.0350e-01	1.9278	-5.493274	0.000479	4.788325	0.811164	-0.009579
1809	9.0400e-01	1.9122	-5.554425	0.000611	6.113665	1.035683	-0.012230
1810	9.0450e-01	1.9034	-5.582648	0.000282	2.821692	0.478008	-0.005645
1811	9.0500e-01	1.8942	-5.656200	0.000735	7.353500	1.245717	-0.014710
1812	9.0550e-01	1.8832	-5.711363	0.000552	5.515125	0.934287	-0.011033
1813	9.0600e-01	1.8758	-5.766099	0.000547	5.472372	0.927045	-0.010947
1814	9.0650e-01	1.8639	-5.820408	0.000543	5.429619	0.919802	-0.010862
1815	9.0700e-01	1.8551	-5.821690	0.000013	0.128259	0.021728	-0.000257
1816	9.0750e-01	1.8445	-5.901229	0.000795	7.952040	1.347112	-0.015908
1817	9.0800e-01	1.8367	-5.952116	0.000509	5.087596	0.861862	-0.010177
1818	9.0850e-01	1.8230	-6.008135	0.000560	5.600631	0.948773	-0.011204
1819	9.0900e-01	1.8153	-6.062444	0.000543	5.429619	0.919802	-0.010862
1820	9.0950e-01	1.8047	-6.099219	0.000368	3.676750	0.622858	-0.007355
1821	9.1000e-01	1.7947	-6.148396	0.000492	4.916584	0.832892	-0.009835
1822	9.1050e-01	1.7845	-6.196290	0.000479	4.788325	0.811164	-0.009579
1823	9.1100e-01	1.7740	-6.252737	0.000564	5.643383	0.956015	-0.011289
1824	9.1150e-01	1.7654	-6.283526	0.000308	3.078209	0.521463	-0.006158
1825	9.1200e-01	1.7551	-6.357933	0.000744	7.439006	1.260202	-0.014881
1826	9.1250e-01	1.7461	-6.429346	0.000714	7.139735	1.209504	-0.014283
1827	9.1300e-01	1.7335	-6.448589	0.000192	1.923881	0.325914	-0.003849
1828	9.1350e-01	1.7262	-6.520858	0.000723	7.225241	1.223989	-0.014454
1829	9.1400e-01	1.7166	-6.560627	0.000398	3.976020	0.673556	-0.007954
1830	9.1450e-01	1.7023	-6.583719	0.000231	2.308657	0.391097	-0.004618
1831	9.1500e-01	1.6946	-6.672665	0.000889	8.892604	1.506448	-0.017789
1832	9.1550e-01	1.6861	-6.711151	0.000385	3.847761	0.651828	-0.007697
1833	9.1600e-01	1.6756	-6.766315	0.000552	5.515125	0.934287	-0.011033
1834	9.1650e-01	1.6653	-6.813354	0.000470	4.702820	0.796679	-0.009408
1835	9.1700e-01	1.6528	-6.864241	0.000509	5.087596	0.861862	-0.010177
1836	9.1750e-01	1.6454	-6.926247	0.000620	6.199171	1.050168	-0.012401
1837	9.1800e-01	1.6348	-6.965588	0.000393	3.933267	0.666314	-0.007868
1838	9.1850e-01	1.6255	-7.034436	0.000688	6.883218	1.166049	-0.013770
1839	9.1900e-01	1.6165	-7.081902	0.000475	4.745572	0.803922	-0.009493
1840	9.1950e-01	1.6019	-7.112264	0.000304	3.035456	0.514220	-0.006072
1841	9.2000e-01	1.5959	-7.188381	0.000761	7.610017	1.289172	-0.015223
1842	9.2050e-01	1.5846	-7.238841	0.000504	5.044843	0.854620	-0.010092
1843	9.2100e-01	1.5739	-7.275189	0.000363	3.633997	0.615616	-0.007270
1844	9.2150e-01	1.5630	-7.324366	0.000492	4.916584	0.832892	-0.009835
1845	9.2200e-01	1.5536	-7.373970	0.000496	4.959337	0.840134	-0.009921
1846	9.2250e-01	1.5428	-7.424858	0.000509	5.087596	0.861862	-0.010177
1847	9.2300e-01	1.5345	-7.476600	0.000517	5.173102	0.876347	-0.010349
1848	9.2350e-01	1.5221	-7.547586	0.000710	7.096982	1.202261	-0.014197
1849	9.2400e-01	1.5128	-7.584789	0.000372	3.719503	0.630101	-0.007441
1850	9.2450e-01	1.5045	-7.638670	0.000539	5.386866	0.912560	-0.010776
1851	9.2500e-01	1.4944	-7.679295	0.000406	4.061526	0.688041	-0.008125
1852	9.2550e-01	1.4850	-7.749853	0.000705	7.054229	1.195019	-0.014112
1853	9.2600e-01	1.4775	-7.805872	0.000560	5.600631	0.948773	-0.011204
1854	9.2650e-01	1.4656	-7.840937	0.000351	3.505738	0.593888	-0.007013
1855	9.2700e-01	1.4518	-7.897384	0.000564	5.643383	0.956015	-0.011289
1856	9.2750e-01	1.4444	-7.969652	0.000723	7.225241	1.223989	-0.014454
1857	9.2800e-01	1.4348	-8.003007	0.000333	3.334727	0.564918	-0.006671
1858	9.2850e-01	1.4257	-8.058598	0.000556	5.557878	0.941530	-0.011118
1859	9.2900e-01	1.4178	-8.120176	0.000616	6.156418	1.042926	-0.012316
1860	9.2950e-01	1.4029	-8.169353	0.000492	4.916584	0.832892	-0.009835
1861	9.3000e-01	1.3956	-8.214254	0.000449	4.489055	0.760467	-0.008980
1862	9.3050e-01	1.3863	-8.270273	0.000560	5.600631	0.948773	-0.011204
1863	9.3100e-01	1.3734	-8.337410	0.000671	6.712206	1.137078	-0.013427
1864	9.3150e-01	1.3640	-8.382311	0.000449	4.489055	0.760467	-0.008980
1865	9.3200e-01	1.3549	-8.427639	0.000453	4.531808	0.767709	-0.009066
1866	9.3250e-01	1.3445	-8.488789	0.000611	6.113665	1.035683	-0.012230
1867	9.3300e-01	1.3351	-8.528558	0.000398	3.976020	0.673556	-0.007954
1868	9.3350e-01	1.3239	-8.592702	0.000641	6.412936	1.086381	-0.012829
1869	9.3400e-01	1.3177	-8.650432	0.000577	5.771642	0.977743	-0.011546
1870	9.3450e-01	1.3070	-8.685497	0.000351	3.505738	0.593888	-0.007013
1871	9.3500e-01	1.2982	-8.725694	0.000402	4.018773	0.680799	-0.008039
1872	9.3550e-01	1.2820	-8.803949	0.000782	7.823782	1.325384	-0.015651
1873	9.3600e-01	1.2744	-8.859540	0.000556	5.557878	0.941530	-0.011118
1874	9.3650e-01	1.2640	-8.914276	0.000547	5.472372	0.927045	-0.010947
1875	9.3700e-01	1.2569	-8.958322	0.000440	4.403549	0.745981	-0.008809
1876	9.3750e-01	1.2486	-9.019472	0.000611	6.113665	1.035683	-0.012230
1877	9.3800e-01	1.2369	-9.048551	0.000291	2.907198	0.492493	-0.005816
1878	9.3850e-01	1.2247	-9.134076	0.000855	8.550581	1.448508	-0.017105
1879	9.3900e-01	1.2152	-9.172562	0.000385	3.847761	0.651828	-0.007697
1880	9.3950e-01	1.2047	-9.217890	0.000453	4.531808	0.767709	-0.009066
1881	9.4000e-01	1.1992	-9.285455	0.000675	6.754959	1.144321	-0.013513
1882	9.4050e-01	1.1835	-9.310257	0.000248	2.479669	0.420067	-0.004960
1883	9.4100e-01	1.1765	-9.381243	0.000710	7.096982	1.202261	-0.014197
1884	9.4150e-01	1.1652	-9.429565	0.000483	4.831078	0.818407	-0.009664
1885	9.4200e-01	1.1552	-9.503116	0.000735	7.353500	1.245717	-0.014710
1886	9.4250e-01	1.1440	-9.554432	0.000513	5.130349	0.869105	-0.010263
1887	9.4300e-01	1.1359	-9.601470	0.000470	4.702820	0.796679	-0.009408
1888	9.4350e-01	1.1243	-9.646371	0.000449	4.489055	0.760467	-0.008980
1889	9.4400e-01	1.1147	-9.706238	0.000599	5.985407	1.013955	-0.011974
1890	9.4450e-01	1.1057	-9.765678	0.000594	5.942654	1.006713	-0.011888
1891	9.4500e-01	1.0953	-9.843506	0.000778	7.781029	1.318142	-0.015566
1892	9.4550e-01	1.0862	-9.879427	0.000359	3.591244	0.608373	-0.007184
1893	9.4600e-01	1.0751	-9.926466	0.000470	4.702820	0.796679	-0.009408
1894	9.4650e-01	1.0636	-9.997024	0.000705	7.054229	1.195019	-0.014112
1895	9.4700e-01	1.0550	-10.052187	0.000552	5.515125	0.934287	-0.011033
1896	9.4750e-01	1.0468	-10.075279	0.000231	2.308657	0.391097	-0.004618
1897	9.4800e-01	1.0361	-10.148831	0.000735	7.353500	1.245717	-0.014710
1898	9.4850e-01	1.0244	-10.226658	0.000778	7.781029	1.318142	-0.015566
1899	9.4900e-01	1.0123	-10.241198	0.000145	1.453599	0.246246	-0.002908
1900	9.4950e-01	1.0057	-10.316887	0.000757	7.567264	1.281929	-0.015138
1901	9.5000e-01	0.9961	-10.379321	0.000624	6.241924	1.057411	-0.012487
1902	9.5050e-01	0.9863	-10.424221	0.000449	4.489055	0.760467	-0.008980
1903	9.5100e-01	0.9765	-10.472543	0.000483	4.831078	0.818407	-0.009664
1904	9.5150e-01	0.9656	-10.540963	0.000684	6.840465	1.158806	-0.013684
1905	9.5200e-01	0.9566	-10.602969	0.000620	6.199171	1.050168	-0.012401
1906	9.5250e-01	0.9454	-10.655994	0.000530	5.301360	0.898075	-0.010605
1907	9.5300e-01	0.9342	-10.712868	0.000569	5.686136	0.963258	-0.011375
1908	9.5350e-01	0.9259	-10.759052	0.000462	4.617314	0.782194	-0.009237
1909	9.5400e-01	0.9155	-10.812077	0.000530	5.301360	0.898075	-0.010605
1910	9.5450e-01	0.9038	-10.880070	0.000680	6.797712	1.151564	-0.013598
1911	9.5500e-01	0.8955	-10.932668	0.000526	5.258607	0.890832	-0.010520
1912	9.5550e-01	0.8852	-10.974147	0.000415	4.147032	0.702526	-0.008296
1913	9.5600e-01	0.8762	-11.049409	0.000752	7.524511	1.274687	-0.015052
1914	9.5650e-01	0.8633	-11.094310	0.000449	4.489055	0.760467	-0.008980
1915	9.5700e-01	0.8583	-11.148619	0.000543	5.429619	0.919802	-0.010862
1916	9.5750e-01	0.8458	-11.204637	0.000560	5.600631	0.948773	-0.011204
1917	9.5800e-01	0.8349	-11.269636	0.000650	6.498442	1.100866	-0.013000
1918	9.5850e-01	0.8260	-11.304702	0.000351	3.505738	0.593888	-0.007013
1919	9.5900e-01	0.8143	-11.389372	0.000847	8.465075	1.434023	-0.016934
1920	9.5950e-01	0.8054	-11.428285	0.000389	3.890514	0.659071	-0.007783
1921	9.6000e-01	0.7947	-11.488153	0.000599	5.985407	1.013955	-0.011974
1922	9.6050e-01	0.7878	-11.562560	0.000744	7.439006	1.260202	-0.014881
1923	9.6100e-01	0.7758	-11.621144	0.000586	5.857148	0.992228	-0.011717
1924	9.6150e-01	0.7644	-11.659203	0.000381	3.805009	0.644586	-0.007612
1925	9.6200e-01	0.7566	-11.725057	0.000658	6.583947	1.115351	-0.013171
1926	9.6250e-01	0.7462	-11.764827	0.000398	3.976020	0.673556	-0.007954
1927	9.6300e-01	0.7334	-11.821701	0.000569	5.686136	0.963258	-0.011375
1928	9.6350e-01	0.7272	-11.875154	0.000534	5.344113	0.905317	-0.010691
1929	9.6400e-01	0.7158	-11.941008	0.000658	6.583947	1.115351	-0.013171
1930	9.6450e-01	0.7072	-11.986764	0.000457	4.574561	0.774952	-0.009151
1931	9.6500e-01	0.6967	-12.054329	0.000675	6.754959	1.144321	-0.013513
1932	9.6550e-01	0.6867	-12.127025	0.000727	7.267994	1.231231	-0.014539
1933	9.6600e-01	0.6760	-12.178768	0.000517	5.173102	0.876347	-0.010349
1934	9.6650e-01	0.6658	-12.231366	0.000526	5.258607	0.890832	-0.010520
1935	9.6700e-01	0.6541	-12.292516	0.000611	6.113665	1.035683	-0.012230
1936	9.6750e-01	0.6464	-12.339127	0.000466	4.660067	0.789437	-0.009322
1937	9.6800e-01	0.6335	-12.398140	0.000590	5.899901	0.999470	-0.011802
1938	9.6850e-01	0.6223	-12.455441	0.000573	5.728889	0.970500	-0.011460
1939	9.6900e-01	0.6153	-12.527710	0.000723	7.225241	1.223989	-0.014454
1940	9.6950e-01	0.6071	-12.585867	0.000581	5.814395	0.984985	-0.011631
1941	9.7000e-01	0.5971	-12.637182	0.000513	5.130349	0.869105	-0.010263
1942	9.7050e-01	0.5836	-12.686787	0.000496	4.959337	0.840134	-0.009921
1943	9.7100e-01	0.5758	-12.757345	0.000705	7.054229	1.195019	-0.014112
1944	9.7150e-01	0.5629	-12.788134	0.000308	3.078209	0.521463	-0.006158
1945	9.7200e-01	0.5554	-12.889053	0.001009	10.089686	1.709239	-0.020184
1946	9.7250e-01	0.5457	-12.909152	0.000201	2.009387	0.340399	-0.004020
1947	9.7300e-01	0.5369	-12.969447	0.000603	6.028160	1.021198	-0.012059
1948	9.7350e-01	0.5261	-13.025466	0.000560	5.600631	0.948773	-0.011204
1949	9.7400e-01	0.5167	-13.092603	0.000671	6.712206	1.137078	-0.013427
1950	9.7450e-01	0.5022	-13.154609	0.000620	6.199171	1.050168	-0.012401
1951	9.7500e-01	0.4944	-13.197799	0.000432	4.318043	0.731496	-0.008638
1952	9.7550e-01	0.4836	-13.280331	0.000825	8.251311	1.397810	-0.016506
1953	9.7600e-01	0.4753	-13.306843	0.000265	2.650680	0.449037	-0.005303
1954	9.7650e-01	0.4655	-13.400921	0.000941	9.405639	1.593358	-0.018816
1955	9.7700e-01	0.4527	-13.444539	0.000436	4.360796	0.738739	-0.008724
1956	9.7750e-01	0.4458	-13.495426	0.000509	5.087596	0.861862	-0.010177
1957	9.7800e-01	0.4350	-13.575820	0.000804	8.037546	1.361597	-0.016079
1958	9.7850e-01	0.4262	-13.628418	0.000526	5.258607	0.890832	-0.010520
1959	9.7900e-01	0.4140	-13.679305	0.000509	5.087596	0.861862	-0.010177
1960	9.7950e-01	0.4056	-13.741311	0.000620	6.199171	1.050168	-0.012401
1961	9.8000e-01	0.3956	-13.799895	0.000586	5.857148	0.992228	-0.011717
1962	9.8050e-01	0.3870	-13.853348	0.000534	5.344113	0.905317	-0.010691
1963	9.8100e-01	0.3728	-13.924762	0.000714	7.139735	1.209504	-0.014283
1964	9.8150e-01	0.3637	-13.991471	0.000667	6.669453	1.129836	-0.013342
1965	9.8200e-01	0.3560	-14.028675	0.000372	3.719503	0.630101	-0.007441
1966	9.8250e-01	0.3459	-14.098378	0.000697	6.968724	1.180534	-0.013941
1967	9.8300e-01	0.3367	-14.183475	0.000851	8.507828	1.441265	-0.017019
1968	9.8350e-01	0.3251	-14.180054	-0.000034	-0.342023	-0.057940	0.000684
1969	9.8400e-01	0.3122	-14.252750	0.000727	7.267994	1.231231	-0.014539
1970	9.8450e-01	0.3046	-14.341269	0.000885	8.849851	1.499205	-0.017704
1971	9.8500e-01	0.2953	-14.405413	0.000641	6.412936	1.086381	-0.012829
1972	9.8550e-01	0.2851	-14.448175	0.000428	4.275291	0.724254	-0.008553
1973	9.8600e-01	0.2783	-14.511891	0.000637	6.370183	1.079138	-0.012743
1974	9.8650e-01	0.2665	-14.560213	0.000483	4.831078	0.818407	-0.009664
1975	9.8700e-01	0.2563	-14.626923	0.000667	6.669453	1.129836	-0.013342
1976	9.8750e-01	0.2456	-14.694060	0.000671	6.712206	1.137078	-0.013427
1977	9.8800e-01	0.2361	-14.748368	0.000543	5.429619	0.919802	-0.010862
1978	9.8850e-01	0.2248	-14.816788	0.000684	6.840465	1.158806	-0.013684
1979	9.8900e-01	0.2129	-14.888202	0.000714	7.139735	1.209504	-0.014283
1980	9.8950e-01	0.2056	-14.932675	0.000445	4.446302	0.753224	-0.008895
1981	9.9000e-01	0.1978	-14.989121	0.000564	5.643383	0.956015	-0.011289
1982	9.9050e-01	0.1849	-15.052837	0.000637	6.370183	1.079138	-0.012743
1983	9.9100e-01	0.1736	-15.107146	0.000543	5.429619	0.919802	-0.010862
1984	9.9150e-01	0.1643	-15.156750	0.000496	4.959337	0.840134	-0.009921
1985	9.9200e-01	0.1571	-15.229019	0.000723	7.225241	1.223989	-0.014454
1986	9.9250e-01	0.1440	-15.291452	0.000624	6.241924	1.057411	-0.012487
1987	9.9300e-01	0.1361	-15.339346	0.000479	4.788325	0.811164	-0.009579
1988	9.9350e-01	0.1241	-15.416746	0.000774	7.738276	1.310899	-0.015480
1989	9.9400e-01	0.1139	-15.458226	0.000415	4.147032	0.702526	-0.008296
1990	9.9450e-01	0.1047	-15.532633	0.000744	7.439006	1.260202	-0.014881
1991	9.9500e-01	0.0932	-15.602336	0.000697	6.968724	1.180534	-0.013941
1992	9.9550e-01	0.0864	-15.655361	0.000530	5.301360	0.898075	-0.010605
1993	9.9600e-01	0.0729	-15.691709	0.000363	3.633997	0.615616	-0.007270
1994	9.9650e-01	0.0644	-15.778945	0.000872	8.721593	1.477478	-0.017447
1995	9.9700e-01	0.0536	-15.819997	0.000410	4.104279	0.695284	-0.008210
1996	9.9750e-01	0.0436	-15.897825	0.000778	7.781029	1.318142	-0.015566
1997	9.9800e-01	0.0361	-15.956409	0.000586	5.857148	0.992228	-0.011717
1998	9.9850e-01	0.0247	-16.000883	0.000445	4.446302	0.753224	-0.008895
1999	9.9900e-01	0.0166	-16.076145	0.000752	7.524511	1.274687	-0.015052
2000	9.9950e-01	0.0058	-16.133874	0.000577	5.771642	0.977743	-0.011546
2001	1.0000e+00	-0.0070	-16.204860	0.000577	5.771642	0.977743	-0.014197

PMax (uC/cm2):	4.30e+01
Pr (uC/cm2):	5.30e+00
-Pr (uC/cm2):	0.00e+00
PLoss (uC/cm2):	0.00e+00
C (Max-Eff) (nF):	4.31e-01
K (Eff):	7.29e+02
Vert. (+/-Pr) Shift (uC/cm2):	2.65e+00
Offset (uC/cm2):	2.15e+01

A (Loop Area - uC/cm2·Volts):	-5.20e-02



Hysteresis Version: 5.48.1 - Radiant Technologies, Inc., 1999 - 9/12/24

