»»»»»»»»»»»»»»»»»»»»»»»»»»»»»»»»»»»» Hysteresis ««««««««««««««««««««««««««««««««««««
»»»  Executed Version:	5.48.1
»»»  Vision Version:	5.48.4 (R)
»»»  Vision Compiled:	9/18/24
»»»  Driver Version:	5.47.0
»»»  Windows Version:	Windows 8 or 8.1
»»»  Processor Information:	x86 (AMD or Intel) - 32 Processors
»»»  Tester Name:	PMF21124-494 (100V)
»»»  Tester S/N:	PMF21124-494
»»»  Internal Amp Type:	100V RevK 270k
»»»  Internal Amp S/N:	iAB2-596/K     
»»»  Execution Count:	1
»»»»»»»»»»»»»»»»»»»»»»»»»»»»»»»»»»»»»»»»»»««««««««««««««««««««««««««««««««««««««««««

Stored:	6/30/2025 - 17:52:51
Configured:	06/30/25 10:19:58 AM
Executed:	06/30/25 05:52:27 PM

»»»»»»»»»»»»»»»»»»»»»»»»»»»»»»»»»»» Sample Info ««««««««««««««««««««««««««««««««««««
Sample Name:	
Lot Name:	
Wafer Name:	
Die Row/Column:	0/0
Capacitor Number:	0
Sample Area (cm2):	1.00e-04
Sample Thickness (microns):	1.50e-01

Amplifier:	Internal

»»»»»»»»»»»»»»»»»»»»»»»»»»»»»»»»»»» Tester Info «««««««««««««««««««««««««««««««««««
Tester Name:	PMF21124-494 (100V)
Tester Serial Number:	PMF21124-494
Return Signal Amp. Level:	1.79 [Index: 2]

»»»»»»»»»»»»»»»»»»»»»»»»»»»»»»»» Hysteresis Info ««««««««««««««««««««««««««««««««««
Task Name:	Hyst-1804
Volts:	10.00
Field:	666.67 (kV/cm)
DCBias:	0.00
DCField:	0.00 (kV/cm)
Hysteresis Period (ms):	1.00e+00
Preset:	Enabled
Preset Delay (ms):	1.00e+03
Profile:	Standard Monopolar

»»»»»»»»»»»»»»»»»»»»»»»»»»»»»»»»»»»»»» Data «««««««««««««««««««««««««««««««««««««««
Points:	2001

Valid Data

Point	Time (ms)	Drive Voltage	Measured Polarization (uC/cm2)	Capacitance (uF)	Normalized Capacitance (uF/cm2)	Dielectric Constant	Instantaneous Current (mA)
   1	0.0000e+00	-0.0062	-21.404142	0.000778	7.783671	1.318590	0.015566
   2	5.0000e-04	0.0066	-21.326314	0.000778	7.783671	1.318590	0.015566
   3	1.0000e-03	0.0148	-21.274999	0.000513	5.132091	0.869400	0.010263
   4	1.5000e-03	0.0274	-21.233947	0.000411	4.105672	0.695520	0.008210
   5	2.0000e-03	0.0368	-21.160823	0.000731	7.313229	1.238895	0.014625
   6	2.5000e-03	0.0465	-21.102238	0.000586	5.859137	0.992565	0.011717
   7	3.0000e-03	0.0567	-21.071022	0.000312	3.122022	0.528885	0.006243
   8	3.5000e-03	0.0662	-21.008588	0.000624	6.244044	1.057770	0.012487
   9	4.0000e-03	0.0773	-20.956418	0.000522	5.217625	0.883890	0.010434
  10	4.5000e-03	0.0845	-20.893985	0.000624	6.244044	1.057770	0.012487
  11	5.0000e-03	0.0956	-20.832407	0.000616	6.158509	1.043280	0.012316
  12	5.5000e-03	0.1041	-20.782375	0.000500	5.003788	0.847665	0.010006
  13	6.0000e-03	0.1169	-20.734908	0.000475	4.747184	0.804195	0.009493
  14	6.5000e-03	0.1263	-20.660501	0.000744	7.441531	1.260630	0.014881
  15	7.0000e-03	0.1347	-20.631423	0.000291	2.908185	0.492660	0.005816
  16	7.5000e-03	0.1457	-20.591654	0.000398	3.977370	0.673785	0.007954
  17	8.0000e-03	0.1574	-20.503135	0.000885	8.852856	1.499714	0.017704
  18	8.5000e-03	0.1663	-20.445833	0.000573	5.730835	0.970830	0.011460
  19	9.0000e-03	0.1755	-20.406492	0.000393	3.934603	0.666540	0.007868
  20	9.5000e-03	0.1865	-20.347480	0.000590	5.901904	0.999810	0.011802
  21	1.0000e-02	0.1945	-20.282481	0.000650	6.500648	1.101240	0.013000
  22	1.0500e-02	0.2076	-20.223468	0.000590	5.901904	0.999810	0.011802
  23	1.1000e-02	0.2165	-20.187120	0.000364	3.635231	0.615825	0.007270
  24	1.1500e-02	0.2249	-20.127680	0.000594	5.944672	1.007055	0.011888
  25	1.2000e-02	0.2355	-20.066530	0.000612	6.115741	1.036035	0.012230
  26	1.2500e-02	0.2457	-20.037879	0.000287	2.865417	0.485415	0.005730
  27	1.3000e-02	0.2577	-19.972880	0.000650	6.500648	1.101240	0.013000
  28	1.3500e-02	0.2668	-19.920710	0.000522	5.217625	0.883890	0.010434
  29	1.4000e-02	0.2765	-19.840316	0.000804	8.040275	1.362060	0.016079
  30	1.4500e-02	0.2847	-19.783870	0.000565	5.645300	0.956340	0.011289
  31	1.5000e-02	0.2966	-19.752653	0.000312	3.122022	0.528885	0.006243
  32	1.5500e-02	0.3049	-19.706042	0.000466	4.661649	0.789705	0.009322
  33	1.6000e-02	0.3176	-19.625221	0.000808	8.083043	1.369305	0.016164
  34	1.6500e-02	0.3255	-19.568346	0.000569	5.688067	0.963585	0.011375
  35	1.7000e-02	0.3397	-19.519169	0.000492	4.918254	0.833175	0.009835
  36	1.7500e-02	0.3455	-19.475979	0.000432	4.319510	0.731745	0.008638
  37	1.8000e-02	0.3574	-19.420388	0.000556	5.559765	0.941850	0.011118
  38	1.8500e-02	0.3690	-19.367790	0.000526	5.260393	0.891135	0.010520
  39	1.9000e-02	0.3751	-19.305357	0.000624	6.244044	1.057770	0.012487
  40	1.9500e-02	0.3841	-19.257463	0.000479	4.789951	0.811440	0.009579
  41	2.0000e-02	0.3963	-19.202727	0.000547	5.474230	0.927360	0.010947
  42	2.0500e-02	0.4060	-19.136872	0.000659	6.586183	1.115730	0.013171
  43	2.1000e-02	0.4160	-19.102235	0.000346	3.464161	0.586845	0.006928
  44	2.1500e-02	0.4227	-19.014999	0.000872	8.724554	1.477979	0.017447
  45	2.2000e-02	0.4358	-18.975230	0.000398	3.977370	0.673785	0.007954
  46	2.2500e-02	0.4446	-18.926908	0.000483	4.832719	0.818685	0.009664
  47	2.3000e-02	0.4579	-18.854212	0.000727	7.270462	1.231650	0.014539
  48	2.3500e-02	0.4649	-18.822140	0.000321	3.207557	0.543375	0.006414
  49	2.4000e-02	0.4745	-18.767832	0.000543	5.431463	0.920115	0.010862
  50	2.4500e-02	0.4855	-18.706254	0.000616	6.158509	1.043280	0.012316
  51	2.5000e-02	0.4962	-18.652373	0.000539	5.388695	0.912870	0.010776
  52	2.5500e-02	0.5063	-18.586946	0.000654	6.543416	1.108485	0.013085
  53	2.6000e-02	0.5145	-18.542901	0.000441	4.405044	0.746235	0.008809
  54	2.6500e-02	0.5270	-18.473198	0.000697	6.971090	1.180935	0.013941
  55	2.7000e-02	0.5360	-18.427870	0.000453	4.533347	0.767970	0.009066
  56	2.7500e-02	0.5418	-18.387673	0.000402	4.020138	0.681030	0.008039
  57	2.8000e-02	0.5544	-18.317115	0.000706	7.056625	1.195425	0.014112
  58	2.8500e-02	0.5663	-18.284615	0.000325	3.250324	0.550620	0.006500
  59	2.9000e-02	0.5756	-18.220899	0.000637	6.372346	1.079505	0.012743
  60	2.9500e-02	0.5865	-18.166591	0.000543	5.431463	0.920115	0.010862
  61	3.0000e-02	0.5956	-18.112282	0.000543	5.431463	0.920115	0.010862
  62	3.0500e-02	0.6033	-18.050704	0.000616	6.158509	1.043280	0.012316
  63	3.1000e-02	0.6174	-17.994258	0.000565	5.645300	0.956340	0.011289
  64	3.1500e-02	0.6252	-17.952350	0.000419	4.191207	0.710010	0.008381
  65	3.2000e-02	0.6372	-17.870674	0.000817	8.168578	1.383794	0.016335
  66	3.2500e-02	0.6456	-17.838602	0.000321	3.207557	0.543375	0.006414
  67	3.3000e-02	0.6538	-17.780445	0.000582	5.816369	0.985320	0.011631
  68	3.3500e-02	0.6652	-17.725281	0.000552	5.516997	0.934605	0.011033
  69	3.4000e-02	0.6763	-17.670118	0.000552	5.516997	0.934605	0.011033
  70	3.4500e-02	0.6859	-17.631632	0.000385	3.849068	0.652050	0.007697
  71	3.5000e-02	0.6943	-17.554659	0.000770	7.698136	1.304100	0.015395
  72	3.5500e-02	0.7075	-17.516600	0.000381	3.806301	0.644805	0.007612
  73	3.6000e-02	0.7164	-17.473410	0.000432	4.319510	0.731745	0.008638
  74	3.6500e-02	0.7267	-17.403280	0.000701	7.013857	1.188180	0.014026
  75	3.7000e-02	0.7358	-17.355386	0.000479	4.789951	0.811440	0.009579
  76	3.7500e-02	0.7479	-17.291242	0.000642	6.415113	1.086750	0.012829
  77	3.8000e-02	0.7560	-17.236933	0.000543	5.431463	0.920115	0.010862
  78	3.8500e-02	0.7665	-17.183053	0.000539	5.388695	0.912870	0.010776
  79	3.9000e-02	0.7758	-17.129599	0.000535	5.345928	0.905625	0.010691
  80	3.9500e-02	0.7858	-17.092824	0.000368	3.677998	0.623070	0.007355
  81	4.0000e-02	0.7964	-17.036805	0.000560	5.602532	0.949095	0.011204
  82	4.0500e-02	0.8028	-16.968385	0.000684	6.842787	1.159200	0.013684
  83	4.1000e-02	0.8153	-16.906807	0.000616	6.158509	1.043280	0.012316
  84	4.1500e-02	0.8247	-16.856347	0.000505	5.046556	0.854910	0.010092
  85	4.2000e-02	0.8352	-16.803321	0.000530	5.303160	0.898380	0.010605
  86	4.2500e-02	0.8443	-16.767828	0.000355	3.549696	0.601335	0.007099
  87	4.3000e-02	0.8547	-16.720362	0.000475	4.747184	0.804195	0.009493
  88	4.3500e-02	0.8652	-16.634837	0.000855	8.553484	1.448999	0.017105
  89	4.4000e-02	0.8759	-16.586088	0.000488	4.875486	0.825930	0.009750
  90	4.4500e-02	0.8858	-16.531779	0.000543	5.431463	0.920115	0.010862
  91	4.5000e-02	0.8943	-16.495859	0.000359	3.592463	0.608580	0.007184
  92	4.5500e-02	0.9081	-16.427439	0.000684	6.842787	1.159200	0.013684
  93	4.6000e-02	0.9159	-16.378689	0.000488	4.875486	0.825930	0.009750
  94	4.6500e-02	0.9268	-16.334644	0.000441	4.405044	0.746235	0.008809
  95	4.7000e-02	0.9349	-16.274777	0.000599	5.987439	1.014300	0.011974
  96	4.7500e-02	0.9470	-16.217047	0.000577	5.773602	0.978075	0.011546
  97	4.8000e-02	0.9550	-16.151620	0.000654	6.543416	1.108485	0.013085
  98	4.8500e-02	0.9647	-16.114417	0.000372	3.720766	0.630315	0.007441
  99	4.9000e-02	0.9778	-16.065240	0.000492	4.918254	0.833175	0.009835
 100	4.9500e-02	0.9863	-15.988695	0.000766	7.655369	1.296855	0.015309
 101	5.0000e-02	0.9954	-15.953630	0.000351	3.506929	0.594090	0.007013
 102	5.0500e-02	1.0094	-15.898039	0.000556	5.559765	0.941850	0.011118
 103	5.1000e-02	1.0150	-15.842447	0.000556	5.559765	0.941850	0.011118
 104	5.1500e-02	1.0248	-15.808665	0.000338	3.378626	0.572355	0.006756
 105	5.2000e-02	1.0370	-15.740673	0.000680	6.800020	1.151955	0.013598
 106	5.2500e-02	1.0456	-15.692779	0.000479	4.789951	0.811440	0.009579
 107	5.3000e-02	1.0565	-15.633766	0.000590	5.901904	0.999810	0.011802
 108	5.3500e-02	1.0651	-15.597418	0.000364	3.635231	0.615825	0.007270
 109	5.4000e-02	1.0774	-15.533702	0.000637	6.372346	1.079505	0.012743
 110	5.4500e-02	1.0849	-15.481959	0.000517	5.174858	0.876645	0.010349
 111	5.5000e-02	1.0962	-15.440907	0.000411	4.105672	0.695520	0.008210
 112	5.5500e-02	1.1079	-15.380612	0.000603	6.030206	1.021545	0.012059
 113	5.6000e-02	1.1163	-15.310482	0.000701	7.013857	1.188180	0.014026
 114	5.6500e-02	1.1245	-15.257456	0.000530	5.303160	0.898380	0.010605
 115	5.7000e-02	1.1356	-15.217687	0.000398	3.977370	0.673785	0.007954
 116	5.7500e-02	1.1472	-15.159102	0.000586	5.859137	0.992565	0.011717
 117	5.8000e-02	1.1585	-15.095386	0.000637	6.372346	1.079505	0.012743
 118	5.8500e-02	1.1684	-15.051341	0.000441	4.405044	0.746235	0.008809
 119	5.9000e-02	1.1766	-15.002591	0.000488	4.875486	0.825930	0.009750
 120	5.9500e-02	1.1896	-14.957691	0.000449	4.490579	0.760725	0.008980
 121	6.0000e-02	1.1965	-14.887988	0.000697	6.971090	1.180935	0.013941
 122	6.0500e-02	1.2042	-14.842659	0.000453	4.533347	0.767970	0.009066
 123	6.1000e-02	1.2180	-14.799042	0.000436	4.362277	0.738990	0.008724
 124	6.1500e-02	1.2258	-14.734470	0.000646	6.457881	1.093995	0.012914
 125	6.2000e-02	1.2338	-14.683155	0.000513	5.132091	0.869400	0.010263
 126	6.2500e-02	1.2443	-14.644241	0.000389	3.891835	0.659295	0.007783
 127	6.3000e-02	1.2567	-14.580525	0.000637	6.372346	1.079505	0.012743
 128	6.3500e-02	1.2677	-14.535625	0.000449	4.490579	0.760725	0.008980
 129	6.4000e-02	1.2740	-14.478323	0.000573	5.730835	0.970830	0.011460
 130	6.4500e-02	1.2878	-14.436843	0.000415	4.148440	0.702765	0.008296
 131	6.5000e-02	1.2965	-14.363292	0.000736	7.355997	1.246140	0.014710
 132	6.5500e-02	1.3063	-14.326943	0.000364	3.635231	0.615825	0.007270
 133	6.6000e-02	1.3170	-14.281615	0.000453	4.533347	0.767970	0.009066
 134	6.6500e-02	1.3259	-14.187538	0.000941	9.408833	1.593899	0.018816
 135	6.7000e-02	1.3353	-14.177275	0.000103	1.026418	0.173880	0.002053
 136	6.7500e-02	1.3456	-14.113131	0.000642	6.415113	1.086750	0.012829
 137	6.8000e-02	1.3566	-14.068230	0.000449	4.490579	0.760725	0.008980
 138	6.8500e-02	1.3660	-14.021619	0.000466	4.661649	0.789705	0.009322
 139	6.9000e-02	1.3770	-13.954482	0.000671	6.714485	1.137465	0.013427
 140	6.9500e-02	1.3861	-13.902739	0.000517	5.174858	0.876645	0.010349
 141	7.0000e-02	1.3943	-13.848431	0.000543	5.431463	0.920115	0.010862
 142	7.0500e-02	1.4063	-13.795833	0.000526	5.260393	0.891135	0.010520
 143	7.1000e-02	1.4162	-13.728268	0.000676	6.757253	1.144710	0.013513
 144	7.1500e-02	1.4282	-13.688071	0.000402	4.020138	0.681030	0.008039
 145	7.2000e-02	1.4362	-13.654289	0.000338	3.378626	0.572355	0.006756
 146	7.2500e-02	1.4467	-13.576461	0.000778	7.783671	1.318590	0.015566
 147	7.3000e-02	1.4546	-13.544389	0.000321	3.207557	0.543375	0.006414
 148	7.3500e-02	1.4664	-13.482383	0.000620	6.201276	1.050525	0.012401
 149	7.4000e-02	1.4754	-13.410970	0.000714	7.142159	1.209915	0.014283
 150	7.4500e-02	1.4859	-13.381892	0.000291	2.908185	0.492660	0.005816
 151	7.5000e-02	1.4944	-13.332715	0.000492	4.918254	0.833175	0.009835
 152	7.5500e-02	1.5088	-13.266433	0.000663	6.628950	1.122975	0.013256
 153	7.6000e-02	1.5158	-13.226236	0.000402	4.020138	0.681030	0.008039
 154	7.6500e-02	1.5279	-13.162092	0.000642	6.415113	1.086750	0.012829
 155	7.7000e-02	1.5363	-13.113343	0.000488	4.875486	0.825930	0.009750
 156	7.7500e-02	1.5445	-13.059890	0.000535	5.345928	0.905625	0.010691
 157	7.8000e-02	1.5555	-13.023542	0.000364	3.635231	0.615825	0.007270
 158	7.8500e-02	1.5652	-12.977358	0.000462	4.618882	0.782460	0.009237
 159	7.9000e-02	1.5738	-12.933740	0.000436	4.362277	0.738990	0.008724
 160	7.9500e-02	1.5852	-12.864037	0.000697	6.971090	1.180935	0.013941
 161	8.0000e-02	1.5958	-12.805880	0.000582	5.816369	0.985320	0.011631
 162	8.0500e-02	1.6074	-12.772953	0.000329	3.293091	0.557865	0.006585
 163	8.1000e-02	1.6156	-12.711803	0.000612	6.115741	1.036035	0.012230
 164	8.1500e-02	1.6257	-12.661343	0.000505	5.046556	0.854910	0.010092
 165	8.2000e-02	1.6365	-12.607035	0.000543	5.431463	0.920115	0.010862
 166	8.2500e-02	1.6449	-12.557430	0.000496	4.961021	0.840420	0.009921
 167	8.3000e-02	1.6568	-12.499273	0.000582	5.816369	0.985320	0.011631
 168	8.3500e-02	1.6644	-12.434702	0.000646	6.457881	1.093995	0.012914
 169	8.4000e-02	1.6774	-12.407334	0.000274	2.737115	0.463680	0.005474
 170	8.4500e-02	1.6882	-12.354736	0.000526	5.260393	0.891135	0.010520
 171	8.5000e-02	1.6969	-12.299144	0.000556	5.559765	0.941850	0.011118
 172	8.5500e-02	1.7053	-12.255954	0.000432	4.319510	0.731745	0.008638
 173	8.6000e-02	1.7188	-12.194376	0.000616	6.158509	1.043280	0.012316
 174	8.6500e-02	1.7242	-12.150758	0.000436	4.362277	0.738990	0.008724
 175	8.7000e-02	1.7340	-12.093884	0.000569	5.688067	0.963585	0.011375
 176	8.7500e-02	1.7463	-12.046418	0.000475	4.747184	0.804195	0.009493
 177	8.8000e-02	1.7554	-12.003655	0.000428	4.276742	0.724500	0.008553
 178	8.8500e-02	1.7649	-11.954478	0.000492	4.918254	0.833175	0.009835
 179	8.9000e-02	1.7725	-11.908722	0.000458	4.576114	0.775215	0.009151
 180	8.9500e-02	1.7871	-11.822342	0.000864	8.639019	1.463489	0.017276
 181	9.0000e-02	1.7961	-11.796685	0.000257	2.566045	0.434700	0.005132
 182	9.0500e-02	1.8066	-11.749218	0.000475	4.747184	0.804195	0.009493
 183	9.1000e-02	1.8167	-11.697048	0.000522	5.217625	0.883890	0.010434
 184	9.1500e-02	1.8244	-11.636753	0.000603	6.030206	1.021545	0.012059
 185	9.2000e-02	1.8362	-11.593563	0.000432	4.319510	0.731745	0.008638
 186	9.2500e-02	1.8479	-11.538399	0.000552	5.516997	0.934605	0.011033
 187	9.3000e-02	1.8567	-11.487939	0.000505	5.046556	0.854910	0.010092
 188	9.3500e-02	1.8640	-11.442611	0.000453	4.533347	0.767970	0.009066
 189	9.4000e-02	1.8769	-11.384026	0.000586	5.859137	0.992565	0.011717
 190	9.4500e-02	1.8884	-11.342547	0.000415	4.148440	0.702765	0.008296
 191	9.5000e-02	1.8967	-11.287383	0.000552	5.516997	0.934605	0.011033
 192	9.5500e-02	1.9048	-11.230509	0.000569	5.688067	0.963585	0.011375
 193	9.6000e-02	1.9160	-11.192450	0.000381	3.806301	0.644805	0.007612
 194	9.6500e-02	1.9278	-11.148405	0.000441	4.405044	0.746235	0.008809
 195	9.7000e-02	1.9394	-11.092813	0.000556	5.559765	0.941850	0.011118
 196	9.7500e-02	1.9450	-11.041498	0.000513	5.132091	0.869400	0.010263
 197	9.8000e-02	1.9571	-10.974789	0.000667	6.671718	1.130220	0.013342
 198	9.8500e-02	1.9630	-10.941434	0.000334	3.335859	0.565110	0.006671
 199	9.9000e-02	1.9765	-10.882422	0.000590	5.901904	0.999810	0.011802
 200	9.9500e-02	1.9838	-10.843080	0.000393	3.934603	0.666540	0.007868
 201	1.0000e-01	1.9971	-10.793903	0.000492	4.918254	0.833175	0.009835
 202	1.0050e-01	2.0058	-10.734036	0.000599	5.987439	1.014300	0.011974
 203	1.0100e-01	2.0172	-10.689563	0.000445	4.447812	0.753480	0.008895
 204	1.0150e-01	2.0245	-10.636110	0.000535	5.345928	0.905625	0.010691
 205	1.0200e-01	2.0369	-10.599334	0.000368	3.677998	0.623070	0.007355
 206	1.0250e-01	2.0460	-10.537756	0.000616	6.158509	1.043280	0.012316
 207	1.0300e-01	2.0544	-10.494993	0.000428	4.276742	0.724500	0.008553
 208	1.0350e-01	2.0652	-10.427429	0.000676	6.757253	1.144710	0.013513
 209	1.0400e-01	2.0769	-10.381673	0.000458	4.576114	0.775215	0.009151
 210	1.0450e-01	2.0876	-10.335917	0.000458	4.576114	0.775215	0.009151
 211	1.0500e-01	2.0978	-10.287595	0.000483	4.832719	0.818685	0.009664
 212	1.0550e-01	2.1060	-10.239273	0.000483	4.832719	0.818685	0.009664
 213	1.0600e-01	2.1163	-10.181972	0.000573	5.730835	0.970830	0.011460
 214	1.0650e-01	2.1248	-10.122104	0.000599	5.987439	1.014300	0.011974
 215	1.0700e-01	2.1373	-10.103289	0.000188	1.881767	0.318780	0.003763
 216	1.0750e-01	2.1460	-10.039145	0.000642	6.415113	1.086750	0.012829
 217	1.0800e-01	2.1536	-9.999803	0.000393	3.934603	0.666540	0.007868
 218	1.0850e-01	2.1650	-9.955758	0.000441	4.405044	0.746235	0.008809
 219	1.0900e-01	2.1790	-9.903160	0.000526	5.260393	0.891135	0.010520
 220	1.0950e-01	2.1867	-9.841154	0.000620	6.201276	1.050525	0.012401
 221	1.1000e-01	2.1954	-9.781287	0.000599	5.987439	1.014300	0.011974
 222	1.1050e-01	2.2077	-9.752636	0.000287	2.865417	0.485415	0.005730
 223	1.1100e-01	2.2180	-9.693196	0.000594	5.944672	1.007055	0.011888
 224	1.1150e-01	2.2275	-9.645302	0.000479	4.789951	0.811440	0.009579
 225	1.1200e-01	2.2375	-9.606388	0.000389	3.891835	0.659295	0.007783
 226	1.1250e-01	2.2462	-9.550797	0.000556	5.559765	0.941850	0.011118
 227	1.1300e-01	2.2565	-9.481094	0.000697	6.971090	1.180935	0.013941
 228	1.1350e-01	2.2653	-9.445601	0.000355	3.549696	0.601335	0.007099
 229	1.1400e-01	2.2766	-9.402411	0.000432	4.319510	0.731745	0.008638
 230	1.1450e-01	2.2849	-9.342116	0.000603	6.030206	1.021545	0.012059
 231	1.1500e-01	2.2957	-9.304912	0.000372	3.720766	0.630315	0.007441
 232	1.1550e-01	2.3061	-9.247610	0.000573	5.730835	0.970830	0.011460
 233	1.1600e-01	2.3170	-9.216821	0.000308	3.079254	0.521640	0.006158
 234	1.1650e-01	2.3270	-9.142415	0.000744	7.441531	1.260630	0.014881
 235	1.1700e-01	2.3372	-9.107777	0.000346	3.464161	0.586845	0.006928
 236	1.1750e-01	2.3475	-9.048337	0.000594	5.944672	1.007055	0.011888
 237	1.1800e-01	2.3548	-9.015837	0.000325	3.250324	0.550620	0.006500
 238	1.1850e-01	2.3663	-8.964522	0.000513	5.132091	0.869400	0.010263
 239	1.1900e-01	2.3792	-8.936299	0.000282	2.822650	0.478170	0.005645
 240	1.1950e-01	2.3866	-8.855478	0.000808	8.083043	1.369305	0.016164
 241	1.2000e-01	2.3976	-8.810150	0.000453	4.533347	0.767970	0.009066
 242	1.2050e-01	2.4066	-8.761828	0.000483	4.832719	0.818685	0.009664
 243	1.2100e-01	2.4178	-8.719066	0.000428	4.276742	0.724500	0.008553
 244	1.2150e-01	2.4242	-8.663474	0.000556	5.559765	0.941850	0.011118
 245	1.2200e-01	2.4340	-8.629264	0.000342	3.421394	0.579600	0.006842
 246	1.2250e-01	2.4485	-8.574528	0.000547	5.474230	0.927360	0.010947
 247	1.2300e-01	2.4532	-8.527062	0.000475	4.747184	0.804195	0.009493
 248	1.2350e-01	2.4670	-8.478740	0.000483	4.832719	0.818685	0.009664
 249	1.2400e-01	2.4767	-8.404761	0.000740	7.398764	1.253385	0.014796
 250	1.2450e-01	2.4861	-8.363281	0.000415	4.148440	0.702765	0.008296
 251	1.2500e-01	2.4977	-8.348742	0.000145	1.454092	0.246330	0.002908
 252	1.2550e-01	2.5063	-8.283315	0.000654	6.543416	1.108485	0.013085
 253	1.2600e-01	2.5150	-8.217889	0.000654	6.543416	1.108485	0.013085
 254	1.2650e-01	2.5296	-8.184106	0.000338	3.378626	0.572355	0.006756
 255	1.2700e-01	2.5356	-8.146048	0.000381	3.806301	0.644805	0.007612
 256	1.2750e-01	2.5449	-8.075062	0.000710	7.099392	1.202670	0.014197
 257	1.2800e-01	2.5555	-8.038286	0.000368	3.677998	0.623070	0.007355
 258	1.2850e-01	2.5665	-8.002366	0.000359	3.592463	0.608580	0.007184
 259	1.2900e-01	2.5784	-7.963879	0.000385	3.849068	0.652050	0.007697
 260	1.2950e-01	2.5873	-7.910854	0.000530	5.303160	0.898380	0.010605
 261	1.3000e-01	2.5980	-7.851841	0.000590	5.901904	0.999810	0.011802
 262	1.3050e-01	2.6067	-7.782994	0.000689	6.885555	1.166445	0.013770
 263	1.3100e-01	2.6144	-7.759902	0.000231	2.309441	0.391230	0.004618
 264	1.3150e-01	2.6252	-7.705166	0.000547	5.474230	0.927360	0.010947
 265	1.3200e-01	2.6389	-7.672239	0.000329	3.293091	0.557865	0.006585
 266	1.3250e-01	2.6459	-7.596977	0.000753	7.527066	1.275120	0.015052
 267	1.3300e-01	2.6572	-7.552076	0.000449	4.490579	0.760725	0.008980
 268	1.3350e-01	2.6685	-7.497340	0.000547	5.474230	0.927360	0.010947
 269	1.3400e-01	2.6748	-7.494774	0.000026	0.256605	0.043470	0.000513
 270	1.3450e-01	2.6846	-7.393427	0.001014	10.135879	1.717064	0.020269
 271	1.3500e-01	2.6941	-7.367770	0.000257	2.566045	0.434700	0.005132
 272	1.3550e-01	2.7039	-7.351520	0.000163	1.625162	0.275310	0.003250
 273	1.3600e-01	2.7145	-7.281817	0.000697	6.971090	1.180935	0.013941
 274	1.3650e-01	2.7252	-7.236916	0.000449	4.490579	0.760725	0.008980
 275	1.3700e-01	2.7344	-7.180897	0.000560	5.602532	0.949095	0.011204
 276	1.3750e-01	2.7480	-7.142411	0.000385	3.849068	0.652050	0.007697
 277	1.3800e-01	2.7563	-7.091524	0.000509	5.089323	0.862155	0.010177
 278	1.3850e-01	2.7673	-7.036788	0.000547	5.474230	0.927360	0.010947
 279	1.3900e-01	2.7760	-7.008992	0.000278	2.779882	0.470925	0.005559
 280	1.3950e-01	2.7872	-6.943993	0.000650	6.500648	1.101240	0.013000
 281	1.4000e-01	2.7982	-6.907645	0.000364	3.635231	0.615825	0.007270
 282	1.4050e-01	2.8049	-6.836659	0.000710	7.099392	1.202670	0.014197
 283	1.4100e-01	2.8174	-6.802021	0.000346	3.464161	0.586845	0.006928
 284	1.4150e-01	2.8259	-6.766956	0.000351	3.506929	0.594090	0.007013
 285	1.4200e-01	2.8375	-6.706233	0.000607	6.072974	1.028790	0.012145
 286	1.4250e-01	2.8465	-6.677155	0.000291	2.908185	0.492660	0.005816
 287	1.4300e-01	2.8558	-6.616860	0.000603	6.030206	1.021545	0.012059
 288	1.4350e-01	2.8670	-6.576235	0.000406	4.062905	0.688275	0.008125
 289	1.4400e-01	2.8769	-6.528341	0.000479	4.789951	0.811440	0.009579
 290	1.4450e-01	2.8860	-6.489000	0.000393	3.934603	0.666540	0.007868
 291	1.4500e-01	2.8960	-6.427849	0.000612	6.115741	1.036035	0.012230
 292	1.4550e-01	2.9071	-6.400909	0.000269	2.694348	0.456435	0.005388
 293	1.4600e-01	2.9169	-6.331634	0.000693	6.928322	1.173690	0.013855
 294	1.4650e-01	2.9224	-6.280319	0.000513	5.132091	0.869400	0.010263
 295	1.4700e-01	2.9364	-6.236701	0.000436	4.362277	0.738990	0.008724
 296	1.4750e-01	2.9480	-6.201636	0.000351	3.506929	0.594090	0.007013
 297	1.4800e-01	2.9575	-6.134071	0.000676	6.757253	1.144710	0.013513
 298	1.4850e-01	2.9688	-6.105420	0.000287	2.865417	0.485415	0.005730
 299	1.4900e-01	2.9787	-6.042559	0.000629	6.286811	1.065015	0.012572
 300	1.4950e-01	2.9856	-6.002790	0.000398	3.977370	0.673785	0.007954
 301	1.5000e-01	2.9980	-5.969435	0.000334	3.335859	0.565110	0.006671
 302	1.5050e-01	3.0054	-5.927955	0.000415	4.148440	0.702765	0.008296
 303	1.5100e-01	3.0154	-5.872792	0.000552	5.516997	0.934605	0.011033
 304	1.5150e-01	3.0268	-5.815490	0.000573	5.730835	0.970830	0.011460
 305	1.5200e-01	3.0360	-5.779997	0.000355	3.549696	0.601335	0.007099
 306	1.5250e-01	3.0469	-5.724406	0.000556	5.559765	0.941850	0.011118
 307	1.5300e-01	3.0553	-5.694472	0.000299	2.993720	0.507150	0.005987
 308	1.5350e-01	3.0670	-5.623486	0.000710	7.099392	1.202670	0.014197
 309	1.5400e-01	3.0771	-5.599539	0.000239	2.394976	0.405720	0.004789
 310	1.5450e-01	3.0884	-5.540099	0.000594	5.944672	1.007055	0.011888
 311	1.5500e-01	3.0948	-5.499475	0.000406	4.062905	0.688275	0.008125
 312	1.5550e-01	3.1059	-5.467831	0.000316	3.164789	0.536130	0.006329
 313	1.5600e-01	3.1177	-5.403259	0.000646	6.457881	1.093995	0.012914
 314	1.5650e-01	3.1265	-5.355793	0.000475	4.747184	0.804195	0.009493
 315	1.5700e-01	3.1370	-5.319445	0.000364	3.635231	0.615825	0.007270
 316	1.5750e-01	3.1476	-5.266847	0.000526	5.260393	0.891135	0.010520
 317	1.5800e-01	3.1570	-5.211683	0.000552	5.516997	0.934605	0.011033
 318	1.5850e-01	3.1665	-5.195861	0.000158	1.582395	0.268065	0.003164
 319	1.5900e-01	3.1747	-5.134710	0.000612	6.115741	1.036035	0.012230
 320	1.5950e-01	3.1844	-5.085961	0.000488	4.875486	0.825930	0.009750
 321	1.6000e-01	3.1982	-5.039778	0.000462	4.618882	0.782460	0.009237
 322	1.6050e-01	3.2076	-5.000009	0.000398	3.977370	0.673785	0.007954
 323	1.6100e-01	3.2137	-4.962377	0.000376	3.763533	0.637560	0.007526
 324	1.6150e-01	3.2272	-4.905931	0.000565	5.645300	0.956340	0.011289
 325	1.6200e-01	3.2358	-4.882839	0.000231	2.309441	0.391230	0.004618
 326	1.6250e-01	3.2452	-4.813564	0.000693	6.928322	1.173690	0.013855
 327	1.6300e-01	3.2568	-4.777643	0.000359	3.592463	0.608580	0.007184
 328	1.6350e-01	3.2679	-4.720769	0.000569	5.688067	0.963585	0.011375
 329	1.6400e-01	3.2739	-4.680145	0.000406	4.062905	0.688275	0.008125
 330	1.6450e-01	3.2886	-4.633961	0.000462	4.618882	0.782460	0.009237
 331	1.6500e-01	3.2966	-4.567252	0.000667	6.671718	1.130220	0.013342
 332	1.6550e-01	3.3078	-4.527910	0.000393	3.934603	0.666540	0.007868
 333	1.6600e-01	3.3186	-4.483437	0.000445	4.447812	0.753480	0.008895
 334	1.6650e-01	3.3246	-4.438964	0.000445	4.447812	0.753480	0.008895
 335	1.6700e-01	3.3365	-4.405609	0.000334	3.335859	0.565110	0.006671
 336	1.6750e-01	3.3451	-4.341038	0.000646	6.457881	1.093995	0.012914
 337	1.6800e-01	3.3542	-4.316663	0.000244	2.437743	0.412965	0.004875
 338	1.6850e-01	3.3649	-4.276039	0.000406	4.062905	0.688275	0.008125
 339	1.6900e-01	3.3763	-4.219592	0.000565	5.645300	0.956340	0.011289
 340	1.6950e-01	3.3868	-4.182389	0.000372	3.720766	0.630315	0.007441
 341	1.7000e-01	3.3972	-4.137061	0.000453	4.533347	0.767970	0.009066
 342	1.7050e-01	3.4070	-4.078476	0.000586	5.859137	0.992565	0.011717
 343	1.7100e-01	3.4160	-4.036996	0.000415	4.148440	0.702765	0.008296
 344	1.7150e-01	3.4283	-4.003214	0.000338	3.378626	0.572355	0.006756
 345	1.7200e-01	3.4344	-3.946340	0.000569	5.688067	0.963585	0.011375
 346	1.7250e-01	3.4454	-3.901867	0.000445	4.447812	0.753480	0.008895
 347	1.7300e-01	3.4576	-3.868512	0.000334	3.335859	0.565110	0.006671
 348	1.7350e-01	3.4680	-3.828743	0.000398	3.977370	0.673785	0.007954
 349	1.7400e-01	3.4763	-3.768448	0.000603	6.030206	1.021545	0.012059
 350	1.7450e-01	3.4889	-3.739797	0.000287	2.865417	0.485415	0.005730
 351	1.7500e-01	3.4959	-3.670522	0.000693	6.928322	1.173690	0.013855
 352	1.7550e-01	3.5065	-3.629042	0.000415	4.148440	0.702765	0.008296
 353	1.7600e-01	3.5187	-3.587990	0.000411	4.105672	0.695520	0.008210
 354	1.7650e-01	3.5262	-3.557201	0.000308	3.079254	0.521640	0.006158
 355	1.7700e-01	3.5354	-3.504175	0.000530	5.303160	0.898380	0.010605
 356	1.7750e-01	3.5463	-3.465689	0.000385	3.849068	0.652050	0.007697
 357	1.7800e-01	3.5553	-3.419078	0.000466	4.661649	0.789705	0.009322
 358	1.7850e-01	3.5647	-3.360921	0.000582	5.816369	0.985320	0.011631
 359	1.7900e-01	3.5767	-3.326711	0.000342	3.421394	0.579600	0.006842
 360	1.7950e-01	3.5861	-3.288225	0.000385	3.849068	0.652050	0.007697
 361	1.8000e-01	3.5999	-3.234344	0.000539	5.388695	0.912870	0.010776
 362	1.8050e-01	3.6057	-3.211680	0.000227	2.266673	0.383985	0.004533
 363	1.8100e-01	3.6154	-3.154378	0.000573	5.730835	0.970830	0.011460
 364	1.8150e-01	3.6252	-3.092372	0.000620	6.201276	1.050525	0.012401
 365	1.8200e-01	3.6378	-3.072274	0.000201	2.010069	0.340515	0.004020
 366	1.8250e-01	3.6456	-3.010268	0.000620	6.201276	1.050525	0.012401
 367	1.8300e-01	3.6563	-2.977769	0.000325	3.250324	0.550620	0.006500
 368	1.8350e-01	3.6642	-2.935861	0.000419	4.191207	0.710010	0.008381
 369	1.8400e-01	3.6778	-2.887967	0.000479	4.789951	0.811440	0.009579
 370	1.8450e-01	3.6883	-2.828955	0.000590	5.901904	0.999810	0.011802
 371	1.8500e-01	3.6963	-2.784482	0.000445	4.447812	0.753480	0.008895
 372	1.8550e-01	3.7067	-2.745568	0.000389	3.891835	0.659295	0.007783
 373	1.8600e-01	3.7172	-2.699385	0.000462	4.618882	0.782460	0.009237
 374	1.8650e-01	3.7250	-2.679714	0.000197	1.967301	0.333270	0.003934
 375	1.8700e-01	3.7357	-2.626688	0.000530	5.303160	0.898380	0.010605
 376	1.8750e-01	3.7488	-2.571952	0.000547	5.474230	0.927360	0.010947
 377	1.8800e-01	3.7567	-2.535176	0.000368	3.677998	0.623070	0.007355
 378	1.8850e-01	3.7671	-2.480868	0.000543	5.431463	0.920115	0.010862
 379	1.8900e-01	3.7755	-2.452645	0.000282	2.822650	0.478170	0.005645
 380	1.8950e-01	3.7872	-2.405606	0.000470	4.704416	0.796950	0.009408
 381	1.9000e-01	3.7959	-2.372679	0.000329	3.293091	0.557865	0.006585
 382	1.9050e-01	3.8063	-2.339752	0.000329	3.293091	0.557865	0.006585
 383	1.9100e-01	3.8159	-2.258931	0.000808	8.083043	1.369305	0.016164
 384	1.9150e-01	3.8278	-2.226431	0.000325	3.250324	0.550620	0.006500
 385	1.9200e-01	3.8339	-2.167846	0.000586	5.859137	0.992565	0.011717
 386	1.9250e-01	3.8470	-2.143472	0.000244	2.437743	0.412965	0.004875
 387	1.9300e-01	3.8577	-2.087453	0.000560	5.602532	0.949095	0.011204
 388	1.9350e-01	3.8661	-2.045973	0.000415	4.148440	0.702765	0.008296
 389	1.9400e-01	3.8773	-2.007487	0.000385	3.849068	0.652050	0.007697
 390	1.9450e-01	3.8867	-1.955744	0.000517	5.174858	0.876645	0.010349
 391	1.9500e-01	3.8969	-1.922817	0.000329	3.293091	0.557865	0.006585
 392	1.9550e-01	3.9053	-1.868509	0.000543	5.431463	0.920115	0.010862
 393	1.9600e-01	3.9139	-1.824463	0.000441	4.405044	0.746235	0.008809
 394	1.9650e-01	3.9270	-1.788543	0.000359	3.592463	0.608580	0.007184
 395	1.9700e-01	3.9371	-1.734234	0.000543	5.431463	0.920115	0.010862
 396	1.9750e-01	3.9465	-1.700024	0.000342	3.421394	0.579600	0.006842
 397	1.9800e-01	3.9560	-1.664104	0.000359	3.592463	0.608580	0.007184
 398	1.9850e-01	3.9655	-1.617065	0.000470	4.704416	0.796950	0.009408
 399	1.9900e-01	3.9749	-1.567460	0.000496	4.961021	0.840420	0.009921
 400	1.9950e-01	3.9883	-1.547790	0.000197	1.967301	0.333270	0.003934
 401	2.0000e-01	3.9969	-1.489205	0.000586	5.859137	0.992565	0.011717
 402	2.0050e-01	4.0088	-1.448581	0.000406	4.062905	0.688275	0.008125
 403	2.0100e-01	4.0186	-1.395555	0.000530	5.303160	0.898380	0.010605
 404	2.0150e-01	4.0265	-1.358352	0.000372	3.720766	0.630315	0.007441
 405	2.0200e-01	4.0344	-1.323286	0.000351	3.506929	0.594090	0.007013
 406	2.0250e-01	4.0466	-1.274965	0.000483	4.832719	0.818685	0.009664
 407	2.0300e-01	4.0559	-1.225788	0.000492	4.918254	0.833175	0.009835
 408	2.0350e-01	4.0692	-1.200558	0.000252	2.523278	0.427455	0.005046
 409	2.0400e-01	4.0800	-1.155230	0.000453	4.533347	0.767970	0.009066
 410	2.0450e-01	4.0871	-1.107336	0.000479	4.789951	0.811440	0.009579
 411	2.0500e-01	4.0961	-1.073553	0.000338	3.378626	0.572355	0.006756
 412	2.0550e-01	4.1089	-1.005133	0.000684	6.842787	1.159200	0.013684
 413	2.0600e-01	4.1162	-0.976482	0.000287	2.865417	0.485415	0.005730
 414	2.0650e-01	4.1280	-0.927733	0.000488	4.875486	0.825930	0.009750
 415	2.0700e-01	4.1376	-0.888819	0.000389	3.891835	0.659295	0.007783
 416	2.0750e-01	4.1457	-0.867865	0.000210	2.095604	0.355005	0.004191
 417	2.0800e-01	4.1577	-0.803722	0.000642	6.415113	1.086750	0.012829
 418	2.0850e-01	4.1647	-0.762242	0.000415	4.148440	0.702765	0.008296
 419	2.0900e-01	4.1754	-0.721190	0.000411	4.105672	0.695520	0.008210
 420	2.0950e-01	4.1858	-0.678000	0.000432	4.319510	0.731745	0.008638
 421	2.1000e-01	4.1949	-0.631816	0.000462	4.618882	0.782460	0.009237
 422	2.1050e-01	4.2026	-0.571521	0.000603	6.030206	1.021545	0.012059
 423	2.1100e-01	4.2172	-0.551850	0.000197	1.967301	0.333270	0.003934
 424	2.1150e-01	4.2270	-0.515075	0.000368	3.677998	0.623070	0.007355
 425	2.1200e-01	4.2384	-0.471029	0.000441	4.405044	0.746235	0.008809
 426	2.1250e-01	4.2462	-0.446655	0.000244	2.437743	0.412965	0.004875
 427	2.1300e-01	4.2564	-0.379945	0.000667	6.671718	1.130220	0.013342
 428	2.1350e-01	4.2673	-0.335900	0.000441	4.405044	0.746235	0.008809
 429	2.1400e-01	4.2798	-0.292282	0.000436	4.362277	0.738990	0.008724
 430	2.1450e-01	4.2843	-0.249947	0.000423	4.233975	0.717255	0.008467
 431	2.1500e-01	4.3018	-0.206329	0.000436	4.362277	0.738990	0.008724
 432	2.1550e-01	4.3068	-0.180672	0.000257	2.566045	0.434700	0.005132
 433	2.1600e-01	4.3143	-0.135771	0.000449	4.490579	0.760725	0.008980
 434	2.1650e-01	4.3237	-0.072910	0.000629	6.286811	1.065015	0.012572
 435	2.1700e-01	4.3369	-0.054095	0.000188	1.881767	0.318780	0.003763
 436	2.1750e-01	4.3469	0.016464	0.000706	7.056625	1.195425	0.014112
 437	2.1800e-01	4.3588	0.043404	0.000269	2.694348	0.456435	0.005388
 438	2.1850e-01	4.3701	0.087449	0.000441	4.405044	0.746235	0.008809
 439	2.1900e-01	4.3768	0.145606	0.000582	5.816369	0.985320	0.011631
 440	2.1950e-01	4.3861	0.149455	0.000038	0.384907	0.065205	0.000770
 441	2.2000e-01	4.3988	0.215309	0.000659	6.586183	1.115730	0.013171
 442	2.2050e-01	4.4063	0.246526	0.000312	3.122022	0.528885	0.006243
 443	2.2100e-01	4.4153	0.301690	0.000552	5.516997	0.934605	0.011033
 444	2.2150e-01	4.4267	0.331623	0.000299	2.993720	0.507150	0.005987
 445	2.2200e-01	4.4361	0.377379	0.000458	4.576114	0.775215	0.009151
 446	2.2250e-01	4.4462	0.425273	0.000479	4.789951	0.811440	0.009579
 447	2.2300e-01	4.4556	0.445799	0.000205	2.052836	0.347760	0.004105
 448	2.2350e-01	4.4681	0.492411	0.000466	4.661649	0.789705	0.009322
 449	2.2400e-01	4.4769	0.546291	0.000539	5.388695	0.912870	0.010776
 450	2.2450e-01	4.4870	0.577508	0.000312	3.122022	0.528885	0.006243
 451	2.2500e-01	4.4958	0.627968	0.000505	5.046556	0.854910	0.010092
 452	2.2550e-01	4.5056	0.675434	0.000475	4.747184	0.804195	0.009493
 453	2.2600e-01	4.5163	0.715631	0.000402	4.020138	0.681030	0.008039
 454	2.2650e-01	4.5282	0.735302	0.000197	1.967301	0.333270	0.003934
 455	2.2700e-01	4.5407	0.779775	0.000445	4.447812	0.753480	0.008895
 456	2.2750e-01	4.5462	0.844774	0.000650	6.500648	1.101240	0.013000
 457	2.2800e-01	4.5581	0.858885	0.000141	1.411325	0.239085	0.002822
 458	2.2850e-01	4.5668	0.915332	0.000565	5.645300	0.956340	0.011289
 459	2.2900e-01	4.5770	0.953818	0.000385	3.849068	0.652050	0.007697
 460	2.2950e-01	4.5886	0.995298	0.000415	4.148440	0.702765	0.008296
 461	2.3000e-01	4.5995	1.046185	0.000509	5.089323	0.862155	0.010177
 462	2.3050e-01	4.6069	1.069705	0.000235	2.352208	0.398475	0.004704
 463	2.3100e-01	4.6170	1.126151	0.000565	5.645300	0.956340	0.011289
 464	2.3150e-01	4.6274	1.144111	0.000180	1.796232	0.304290	0.003592
 465	2.3200e-01	4.6368	1.228781	0.000847	8.467950	1.434509	0.016934
 466	2.3250e-01	4.6497	1.233057	0.000043	0.427674	0.072450	0.000855
 467	2.3300e-01	4.6591	1.277958	0.000449	4.490579	0.760725	0.008980
 468	2.3350e-01	4.6645	1.316444	0.000385	3.849068	0.652050	0.007697
 469	2.3400e-01	4.6799	1.348089	0.000316	3.164789	0.536130	0.006329
 470	2.3450e-01	4.6851	1.405818	0.000577	5.773602	0.978075	0.011546
 471	2.3500e-01	4.6976	1.443021	0.000372	3.720766	0.630315	0.007441
 472	2.3550e-01	4.7086	1.476376	0.000334	3.335859	0.565110	0.006671
 473	2.3600e-01	4.7156	1.527691	0.000513	5.132091	0.869400	0.010263
 474	2.3650e-01	4.7272	1.572164	0.000445	4.447812	0.753480	0.008895
 475	2.3700e-01	4.7375	1.593546	0.000214	2.138371	0.362250	0.004276
 476	2.3750e-01	4.7479	1.658545	0.000650	6.500648	1.101240	0.013000
 477	2.3800e-01	4.7595	1.689334	0.000308	3.079254	0.521640	0.006158
 478	2.3850e-01	4.7662	1.735517	0.000462	4.618882	0.782460	0.009237
 479	2.3900e-01	4.7804	1.765023	0.000295	2.950952	0.499905	0.005901
 480	2.3950e-01	4.7887	1.806931	0.000419	4.191207	0.710010	0.008381
 481	2.4000e-01	4.7955	1.839858	0.000329	3.293091	0.557865	0.006585
 482	2.4050e-01	4.8071	1.875778	0.000359	3.592463	0.608580	0.007184
 483	2.4100e-01	4.8138	1.951896	0.000761	7.612601	1.289610	0.015223
 484	2.4150e-01	4.8270	1.966007	0.000141	1.411325	0.239085	0.002822
 485	2.4200e-01	4.8380	2.001500	0.000355	3.549696	0.601335	0.007099
 486	2.4250e-01	4.8499	2.048967	0.000475	4.747184	0.804195	0.009493
 487	2.4300e-01	4.8572	2.119097	0.000701	7.013857	1.188180	0.014026
 488	2.4350e-01	4.8688	2.138768	0.000197	1.967301	0.333270	0.003934
 489	2.4400e-01	4.8769	2.185807	0.000470	4.704416	0.796950	0.009408
 490	2.4450e-01	4.8883	2.209326	0.000235	2.352208	0.398475	0.004704
 491	2.4500e-01	4.8975	2.234983	0.000257	2.566045	0.434700	0.005132
 492	2.4550e-01	4.9084	2.310673	0.000757	7.569834	1.282365	0.015138
 493	2.4600e-01	4.9194	2.330344	0.000197	1.967301	0.333270	0.003934
 494	2.4650e-01	4.9268	2.379093	0.000488	4.875486	0.825930	0.009750
 495	2.4700e-01	4.9377	2.413731	0.000346	3.464161	0.586845	0.006928
 496	2.4750e-01	4.9471	2.443237	0.000295	2.950952	0.499905	0.005901
 497	2.4800e-01	4.9588	2.483861	0.000406	4.062905	0.688275	0.008125
 498	2.4850e-01	4.9646	2.525769	0.000419	4.191207	0.710010	0.008381
 499	2.4900e-01	4.9774	2.587347	0.000616	6.158509	1.043280	0.012316
 500	2.4950e-01	4.9860	2.599320	0.000120	1.197488	0.202860	0.002395
 501	2.5000e-01	4.9957	2.662609	0.000633	6.329578	1.072260	0.012658
 502	2.5050e-01	5.0046	2.682280	0.000197	1.967301	0.333270	0.003934
 503	2.5100e-01	5.0139	2.740009	0.000577	5.773602	0.978075	0.011546
 504	2.5150e-01	5.0287	2.772508	0.000325	3.250324	0.550620	0.006500
 505	2.5200e-01	5.0362	2.790041	0.000175	1.753464	0.297045	0.003507
 506	2.5250e-01	5.0504	2.845205	0.000552	5.516997	0.934605	0.011033
 507	2.5300e-01	5.0537	2.902507	0.000573	5.730835	0.970830	0.011460
 508	2.5350e-01	5.0680	2.917473	0.000150	1.496860	0.253575	0.002993
 509	2.5400e-01	5.0800	2.953394	0.000359	3.592463	0.608580	0.007184
 510	2.5450e-01	5.0867	2.986321	0.000329	3.293091	0.557865	0.006585
 511	2.5500e-01	5.0956	3.047899	0.000616	6.158509	1.043280	0.012316
 512	2.5550e-01	5.1050	3.083820	0.000359	3.592463	0.608580	0.007184
 513	2.5600e-01	5.1172	3.137700	0.000539	5.388695	0.912870	0.010776
 514	2.5650e-01	5.1263	3.162930	0.000252	2.523278	0.427455	0.005046
 515	2.5700e-01	5.1368	3.209969	0.000470	4.704416	0.796950	0.009408
 516	2.5750e-01	5.1480	3.245890	0.000359	3.592463	0.608580	0.007184
 517	2.5800e-01	5.1538	3.280100	0.000342	3.421394	0.579600	0.006842
 518	2.5850e-01	5.1675	3.320296	0.000402	4.020138	0.681030	0.008039
 519	2.5900e-01	5.1755	3.369473	0.000492	4.918254	0.833175	0.009835
 520	2.5950e-01	5.1855	3.404966	0.000355	3.549696	0.601335	0.007099
 521	2.6000e-01	5.1978	3.437038	0.000321	3.207557	0.543375	0.006414
 522	2.6050e-01	5.2075	3.484932	0.000479	4.789951	0.811440	0.009579
 523	2.6100e-01	5.2155	3.514866	0.000299	2.993720	0.507150	0.005987
 524	2.6150e-01	5.2283	3.562760	0.000479	4.789951	0.811440	0.009579
 525	2.6200e-01	5.2362	3.576444	0.000137	1.368557	0.231840	0.002737
 526	2.6250e-01	5.2463	3.618351	0.000419	4.191207	0.710010	0.008381
 527	2.6300e-01	5.2560	3.665390	0.000470	4.704416	0.796950	0.009408
 528	2.6350e-01	5.2673	3.707725	0.000423	4.233975	0.717255	0.008467
 529	2.6400e-01	5.2756	3.749205	0.000415	4.148440	0.702765	0.008296
 530	2.6450e-01	5.2856	3.782559	0.000334	3.335859	0.565110	0.006671
 531	2.6500e-01	5.2957	3.811638	0.000291	2.908185	0.492660	0.005816
 532	2.6550e-01	5.3088	3.856111	0.000445	4.447812	0.753480	0.008895
 533	2.6600e-01	5.3174	3.914268	0.000582	5.816369	0.985320	0.011631
 534	2.6650e-01	5.3270	3.955320	0.000411	4.105672	0.695520	0.008210
 535	2.6700e-01	5.3375	3.969004	0.000137	1.368557	0.231840	0.002737
 536	2.6750e-01	5.3479	4.028872	0.000599	5.987439	1.014300	0.011974
 537	2.6800e-01	5.3571	4.063937	0.000351	3.506929	0.594090	0.007013
 538	2.6850e-01	5.3665	4.092588	0.000287	2.865417	0.485415	0.005730
 539	2.6900e-01	5.3732	4.150317	0.000577	5.773602	0.978075	0.011546
 540	2.6950e-01	5.3876	4.178540	0.000282	2.822650	0.478170	0.005645
 541	2.7000e-01	5.3986	4.217882	0.000393	3.934603	0.666540	0.007868
 542	2.7050e-01	5.4050	4.252520	0.000346	3.464161	0.586845	0.006928
 543	2.7100e-01	5.4160	4.306400	0.000539	5.388695	0.912870	0.010776
 544	2.7150e-01	5.4240	4.339755	0.000334	3.335859	0.565110	0.006671
 545	2.7200e-01	5.4391	4.367978	0.000282	2.822650	0.478170	0.005645
 546	2.7250e-01	5.4492	4.415872	0.000479	4.789951	0.811440	0.009579
 547	2.7300e-01	5.4584	4.436398	0.000205	2.052836	0.347760	0.004105
 548	2.7350e-01	5.4684	4.483010	0.000466	4.661649	0.789705	0.009322
 549	2.7400e-01	5.4788	4.524489	0.000415	4.148440	0.702765	0.008296
 550	2.7450e-01	5.4886	4.539456	0.000150	1.496860	0.253575	0.002993
 551	2.7500e-01	5.4971	4.605310	0.000659	6.586183	1.115730	0.013171
 552	2.7550e-01	5.5075	4.637382	0.000321	3.207557	0.543375	0.006414
 553	2.7600e-01	5.5154	4.666033	0.000287	2.865417	0.485415	0.005730
 554	2.7650e-01	5.5231	4.710079	0.000441	4.405044	0.746235	0.008809
 555	2.7700e-01	5.5377	4.756262	0.000462	4.618882	0.782460	0.009237
 556	2.7750e-01	5.5457	4.765242	0.000090	0.898116	0.152145	0.001796
 557	2.7800e-01	5.5569	4.808005	0.000428	4.276742	0.724500	0.008553
 558	2.7850e-01	5.5676	4.865734	0.000577	5.773602	0.978075	0.011546
 559	2.7900e-01	5.5768	4.915339	0.000496	4.961021	0.840420	0.009921
 560	2.7950e-01	5.5872	4.907641	-0.000077	-0.769814	-0.130410	-0.001539
 561	2.8000e-01	5.5960	4.991884	0.000843	8.425182	1.427264	0.016848
 562	2.8050e-01	5.6067	5.017541	0.000257	2.566045	0.434700	0.005132
 563	2.8100e-01	5.6171	5.059448	0.000419	4.191207	0.710010	0.008381
 564	2.8150e-01	5.6265	5.110336	0.000509	5.089323	0.862155	0.010177
 565	2.8200e-01	5.6366	5.129151	0.000188	1.881767	0.318780	0.003763
 566	2.8250e-01	5.6439	5.176618	0.000475	4.747184	0.804195	0.009493
 567	2.8300e-01	5.6558	5.206979	0.000304	3.036487	0.514395	0.006072
 568	2.8350e-01	5.6656	5.259149	0.000522	5.217625	0.883890	0.010434
 569	2.8400e-01	5.6781	5.268557	0.000094	0.940883	0.159390	0.001882
 570	2.8450e-01	5.6867	5.307899	0.000393	3.934603	0.666540	0.007868
 571	2.8500e-01	5.6964	5.358359	0.000505	5.046556	0.854910	0.010092
 572	2.8550e-01	5.7062	5.392996	0.000346	3.464161	0.586845	0.006928
 573	2.8600e-01	5.7169	5.425496	0.000325	3.250324	0.550620	0.006500
 574	2.8650e-01	5.7254	5.469113	0.000436	4.362277	0.738990	0.008724
 575	2.8700e-01	5.7382	5.522139	0.000530	5.303160	0.898380	0.010605
 576	2.8750e-01	5.7478	5.543093	0.000210	2.095604	0.355005	0.004191
 577	2.8800e-01	5.7623	5.587138	0.000441	4.405044	0.746235	0.008809
 578	2.8850e-01	5.7654	5.622631	0.000355	3.549696	0.601335	0.007099
 579	2.8900e-01	5.7758	5.647006	0.000244	2.437743	0.412965	0.004875
 580	2.8950e-01	5.7880	5.705163	0.000582	5.816369	0.985320	0.011631
 581	2.9000e-01	5.7947	5.751346	0.000462	4.618882	0.782460	0.009237
 582	2.9050e-01	5.8066	5.757761	0.000064	0.641511	0.108675	0.001283
 583	2.9100e-01	5.8167	5.821477	0.000637	6.372346	1.079505	0.012743
 584	2.9150e-01	5.8286	5.828746	0.000073	0.727046	0.123165	0.001454
 585	2.9200e-01	5.8374	5.870226	0.000415	4.148440	0.702765	0.008296
 586	2.9250e-01	5.8472	5.924962	0.000547	5.474230	0.927360	0.010947
 587	2.9300e-01	5.8569	5.973284	0.000483	4.832719	0.818685	0.009664
 588	2.9350e-01	5.8661	5.995093	0.000218	2.181139	0.369495	0.004362
 589	2.9400e-01	5.8774	6.027164	0.000321	3.207557	0.543375	0.006414
 590	2.9450e-01	5.8868	6.057098	0.000299	2.993720	0.507150	0.005987
 591	2.9500e-01	5.8960	6.102854	0.000458	4.576114	0.775215	0.009151
 592	2.9550e-01	5.9058	6.172557	0.000697	6.971090	1.180935	0.013941
 593	2.9600e-01	5.9204	6.183248	0.000107	1.069186	0.181125	0.002138
 594	2.9650e-01	5.9265	6.209760	0.000265	2.651580	0.449190	0.005303
 595	2.9700e-01	5.9375	6.268345	0.000586	5.859137	0.992565	0.011717
 596	2.9750e-01	5.9464	6.296996	0.000287	2.865417	0.485415	0.005730
 597	2.9800e-01	5.9583	6.351732	0.000547	5.474230	0.927360	0.010947
 598	2.9850e-01	5.9656	6.355581	0.000038	0.384907	0.065205	0.000770
 599	2.9900e-01	5.9753	6.402192	0.000466	4.661649	0.789705	0.009322
 600	2.9950e-01	5.9863	6.441106	0.000389	3.891835	0.659295	0.007783
 601	3.0000e-01	5.9979	6.480020	0.000389	3.891835	0.659295	0.007783
 602	3.0050e-01	6.0059	6.516795	0.000368	3.677998	0.623070	0.007355
 603	3.0100e-01	6.0132	6.544163	0.000274	2.737115	0.463680	0.005474
 604	3.0150e-01	6.0284	6.571104	0.000269	2.694348	0.456435	0.005388
 605	3.0200e-01	6.0361	6.620281	0.000492	4.918254	0.833175	0.009835
 606	3.0250e-01	6.0468	6.650214	0.000299	2.993720	0.507150	0.005987
 607	3.0300e-01	6.0565	6.702385	0.000522	5.217625	0.883890	0.010434
 608	3.0350e-01	6.0683	6.748996	0.000466	4.661649	0.789705	0.009322
 609	3.0400e-01	6.0818	6.765673	0.000167	1.667929	0.282555	0.003335
 610	3.0450e-01	6.0880	6.820409	0.000547	5.474230	0.927360	0.010947
 611	3.0500e-01	6.0962	6.837087	0.000167	1.667929	0.282555	0.003335
 612	3.0550e-01	6.1066	6.885836	0.000488	4.875486	0.825930	0.009750
 613	3.0600e-01	6.1188	6.905507	0.000197	1.967301	0.333270	0.003934
 614	3.0650e-01	6.1243	6.962381	0.000569	5.688067	0.963585	0.011375
 615	3.0700e-01	6.1356	6.991459	0.000291	2.908185	0.492660	0.005816
 616	3.0750e-01	6.1496	7.015834	0.000244	2.437743	0.412965	0.004875
 617	3.0800e-01	6.1584	7.077840	0.000620	6.201276	1.050525	0.012401
 618	3.0850e-01	6.1652	7.089386	0.000115	1.154720	0.195615	0.002309
 619	3.0900e-01	6.1758	7.135142	0.000458	4.576114	0.775215	0.009151
 620	3.0950e-01	6.1871	7.166786	0.000316	3.164789	0.536130	0.006329
 621	3.1000e-01	6.1963	7.224515	0.000577	5.773602	0.978075	0.011546
 622	3.1050e-01	6.2085	7.237772	0.000133	1.325790	0.224595	0.002651
 623	3.1100e-01	6.2160	7.291225	0.000535	5.345928	0.905625	0.010691
 624	3.1150e-01	6.2292	7.310468	0.000192	1.924534	0.326025	0.003849
 625	3.1200e-01	6.2378	7.351948	0.000415	4.148440	0.702765	0.008296
 626	3.1250e-01	6.2463	7.410532	0.000586	5.859137	0.992565	0.011717
 627	3.1300e-01	6.2576	7.431058	0.000205	2.052836	0.347760	0.004105
 628	3.1350e-01	6.2677	7.451157	0.000201	2.010069	0.340515	0.004020
 629	3.1400e-01	6.2763	7.495630	0.000445	4.447812	0.753480	0.008895
 630	3.1450e-01	6.2885	7.531550	0.000359	3.592463	0.608580	0.007184
 631	3.1500e-01	6.2958	7.559773	0.000282	2.822650	0.478170	0.005645
 632	3.1550e-01	6.3074	7.596122	0.000364	3.635231	0.615825	0.007270
 633	3.1600e-01	6.3162	7.644016	0.000479	4.789951	0.811440	0.009579
 634	3.1650e-01	6.3263	7.677798	0.000338	3.378626	0.572355	0.006756
 635	3.1700e-01	6.3379	7.715857	0.000381	3.806301	0.644805	0.007612
 636	3.1750e-01	6.3458	7.759047	0.000432	4.319510	0.731745	0.008638
 637	3.1800e-01	6.3562	7.767172	0.000081	0.812581	0.137655	0.001625
 638	3.1850e-01	6.3660	7.818487	0.000513	5.132091	0.869400	0.010263
 639	3.1900e-01	6.3763	7.863387	0.000449	4.490579	0.760725	0.008980
 640	3.1950e-01	6.3843	7.907860	0.000445	4.447812	0.753480	0.008895
 641	3.2000e-01	6.3971	7.926676	0.000188	1.881767	0.318780	0.003763
 642	3.2050e-01	6.4056	7.982267	0.000556	5.559765	0.941850	0.011118
 643	3.2100e-01	6.4169	7.999800	0.000175	1.753464	0.297045	0.003507
 644	3.2150e-01	6.4267	8.061805	0.000620	6.201276	1.050525	0.012401
 645	3.2200e-01	6.4368	8.083187	0.000214	2.138371	0.362250	0.004276
 646	3.2250e-01	6.4465	8.119107	0.000359	3.592463	0.608580	0.007184
 647	3.2300e-01	6.4557	8.150752	0.000316	3.164789	0.536130	0.006329
 648	3.2350e-01	6.4670	8.180258	0.000295	2.950952	0.499905	0.005901
 649	3.2400e-01	6.4783	8.221737	0.000415	4.148440	0.702765	0.008296
 650	3.2450e-01	6.4874	8.239698	0.000180	1.796232	0.304290	0.003592
 651	3.2500e-01	6.4954	8.291440	0.000517	5.174858	0.876645	0.010349
 652	3.2550e-01	6.5088	8.320519	0.000291	2.908185	0.492660	0.005816
 653	3.2600e-01	6.5167	8.352591	0.000321	3.207557	0.543375	0.006414
 654	3.2650e-01	6.5259	8.399629	0.000470	4.704416	0.796950	0.009408
 655	3.2700e-01	6.5356	8.447096	0.000475	4.747184	0.804195	0.009493
 656	3.2750e-01	6.5451	8.445385	-0.000017	-0.171070	-0.028980	-0.000342
 657	3.2800e-01	6.5546	8.494990	0.000496	4.961021	0.840420	0.009921
 658	3.2850e-01	6.5680	8.527489	0.000325	3.250324	0.550620	0.006500
 659	3.2900e-01	6.5771	8.589067	0.000616	6.158509	1.043280	0.012316
 660	3.2950e-01	6.5881	8.612159	0.000231	2.309441	0.391230	0.004618
 661	3.3000e-01	6.5991	8.659626	0.000475	4.747184	0.804195	0.009493
 662	3.3050e-01	6.6071	8.674593	0.000150	1.496860	0.253575	0.002993
 663	3.3100e-01	6.6132	8.721631	0.000470	4.704416	0.796950	0.009408
 664	3.3150e-01	6.6241	8.771236	0.000496	4.961021	0.840420	0.009921
 665	3.3200e-01	6.6354	8.794755	0.000235	2.352208	0.398475	0.004704
 666	3.3250e-01	6.6461	8.819130	0.000244	2.437743	0.412965	0.004875
 667	3.3300e-01	6.6565	8.854195	0.000351	3.506929	0.594090	0.007013
 668	3.3350e-01	6.6656	8.910214	0.000560	5.602532	0.949095	0.011204
 669	3.3400e-01	6.6776	8.926036	0.000158	1.582395	0.268065	0.003164
 670	3.3450e-01	6.6888	8.955542	0.000295	2.950952	0.499905	0.005901
 671	3.3500e-01	6.6953	9.025673	0.000701	7.013857	1.188180	0.014026
 672	3.3550e-01	6.7087	9.034653	0.000090	0.898116	0.152145	0.001796
 673	3.3600e-01	6.7169	9.081692	0.000470	4.704416	0.796950	0.009408
 674	3.3650e-01	6.7252	9.110343	0.000287	2.865417	0.485415	0.005730
 675	3.3700e-01	6.7358	9.139421	0.000291	2.908185	0.492660	0.005816
 676	3.3750e-01	6.7474	9.185605	0.000462	4.618882	0.782460	0.009237
 677	3.3800e-01	6.7584	9.227512	0.000419	4.191207	0.710010	0.008381
 678	3.3850e-01	6.7694	9.248893	0.000214	2.138371	0.362250	0.004276
 679	3.3900e-01	6.7758	9.298925	0.000500	5.003788	0.847665	0.010006
 680	3.3950e-01	6.7871	9.322017	0.000231	2.309441	0.391230	0.004618
 681	3.4000e-01	6.7932	9.378891	0.000569	5.688067	0.963585	0.011375
 682	3.4050e-01	6.8060	9.381457	0.000026	0.256605	0.043470	0.000513
 683	3.4100e-01	6.8167	9.429351	0.000479	4.789951	0.811440	0.009579
 684	3.4150e-01	6.8269	9.466982	0.000376	3.763533	0.637560	0.007526
 685	3.4200e-01	6.8372	9.496061	0.000291	2.908185	0.492660	0.005816
 686	3.4250e-01	6.8463	9.537113	0.000411	4.105672	0.695520	0.008210
 687	3.4300e-01	6.8561	9.562343	0.000252	2.523278	0.427455	0.005046
 688	3.4350e-01	6.8707	9.606816	0.000445	4.447812	0.753480	0.008895
 689	3.4400e-01	6.8768	9.649151	0.000423	4.233975	0.717255	0.008467
 690	3.4450e-01	6.8872	9.676519	0.000274	2.737115	0.463680	0.005474
 691	3.4500e-01	6.8948	9.698755	0.000222	2.223906	0.376740	0.004447
 692	3.4550e-01	6.9061	9.753063	0.000543	5.431463	0.920115	0.010862
 693	3.4600e-01	6.9153	9.803951	0.000509	5.089323	0.862155	0.010177
 694	3.4650e-01	6.9263	9.836450	0.000325	3.250324	0.550620	0.006500
 695	3.4700e-01	6.9360	9.853983	0.000175	1.753464	0.297045	0.003507
 696	3.4750e-01	6.9495	9.892897	0.000389	3.891835	0.659295	0.007783
 697	3.4800e-01	6.9582	9.922403	0.000295	2.950952	0.499905	0.005901
 698	3.4850e-01	6.9690	9.951482	0.000291	2.908185	0.492660	0.005816
 699	3.4900e-01	6.9763	10.000231	0.000488	4.875486	0.825930	0.009750
 700	3.4950e-01	6.9855	10.036579	0.000364	3.635231	0.615825	0.007270
 701	3.5000e-01	6.9977	10.066085	0.000295	2.950952	0.499905	0.005901
 702	3.5050e-01	7.0078	10.108848	0.000428	4.276742	0.724500	0.008553
 703	3.5100e-01	7.0154	10.127663	0.000188	1.881767	0.318780	0.003763
 704	3.5150e-01	7.0264	10.147334	0.000197	1.967301	0.333270	0.003934
 705	3.5200e-01	7.0370	10.214471	0.000671	6.714485	1.137465	0.013427
 706	3.5250e-01	7.0471	10.232859	0.000184	1.838999	0.311535	0.003678
 707	3.5300e-01	7.0544	10.268780	0.000359	3.592463	0.608580	0.007184
 708	3.5350e-01	7.0624	10.292727	0.000239	2.394976	0.405720	0.004789
 709	3.5400e-01	7.0764	10.337200	0.000445	4.447812	0.753480	0.008895
 710	3.5450e-01	7.0886	10.384666	0.000475	4.747184	0.804195	0.009493
 711	3.5500e-01	7.0972	10.441968	0.000573	5.730835	0.970830	0.011460
 712	3.5550e-01	7.1069	10.448382	0.000064	0.641511	0.108675	0.001283
 713	3.5600e-01	7.1179	10.481737	0.000334	3.335859	0.565110	0.006671
 714	3.5650e-01	7.1262	10.524499	0.000428	4.276742	0.724500	0.008553
 715	3.5700e-01	7.1368	10.571966	0.000475	4.747184	0.804195	0.009493
 716	3.5750e-01	7.1478	10.588643	0.000167	1.667929	0.282555	0.003335
 717	3.5800e-01	7.1558	10.641669	0.000530	5.303160	0.898380	0.010605
 718	3.5850e-01	7.1655	10.654925	0.000133	1.325790	0.224595	0.002651
 719	3.5900e-01	7.1759	10.718214	0.000633	6.329578	1.072260	0.012658
 720	3.5950e-01	7.1863	10.730615	0.000124	1.240255	0.210105	0.002480
 721	3.6000e-01	7.1942	10.776798	0.000462	4.618882	0.782460	0.009237
 722	3.6050e-01	7.2040	10.789199	0.000124	1.240255	0.210105	0.002480
 723	3.6100e-01	7.2162	10.844791	0.000556	5.559765	0.941850	0.011118
 724	3.6150e-01	7.2290	10.869165	0.000244	2.437743	0.412965	0.004875
 725	3.6200e-01	7.2366	10.902948	0.000338	3.378626	0.572355	0.006756
 726	3.6250e-01	7.2473	10.926467	0.000235	2.352208	0.398475	0.004704
 727	3.6300e-01	7.2577	10.978210	0.000517	5.174858	0.876645	0.010349
 728	3.6350e-01	7.2662	11.025676	0.000475	4.747184	0.804195	0.009493
 729	3.6400e-01	7.2778	11.039360	0.000137	1.368557	0.231840	0.002737
 730	3.6450e-01	7.2879	11.074426	0.000351	3.506929	0.594090	0.007013
 731	3.6500e-01	7.2955	11.112912	0.000385	3.849068	0.652050	0.007697
 732	3.6550e-01	7.3096	11.149688	0.000368	3.677998	0.623070	0.007355
 733	3.6600e-01	7.3169	11.171069	0.000214	2.138371	0.362250	0.004276
 734	3.6650e-01	7.3257	11.208700	0.000376	3.763533	0.637560	0.007526
 735	3.6700e-01	7.3376	11.244620	0.000359	3.592463	0.608580	0.007184
 736	3.6750e-01	7.3480	11.282251	0.000376	3.763533	0.637560	0.007526
 737	3.6800e-01	7.3553	11.310475	0.000282	2.822650	0.478170	0.005645
 738	3.6850e-01	7.3663	11.365638	0.000552	5.516997	0.934605	0.011033
 739	3.6900e-01	7.3769	11.371197	0.000056	0.555976	0.094185	0.001112
 740	3.6950e-01	7.3859	11.437052	0.000659	6.586183	1.115730	0.013171
 741	3.7000e-01	7.3993	11.456723	0.000197	1.967301	0.333270	0.003934
 742	3.7050e-01	7.4060	11.490933	0.000342	3.421394	0.579600	0.006842
 743	3.7100e-01	7.4170	11.528136	0.000372	3.720766	0.630315	0.007441
 744	3.7150e-01	7.4268	11.560208	0.000321	3.207557	0.543375	0.006414
 745	3.7200e-01	7.4371	11.584583	0.000244	2.437743	0.412965	0.004875
 746	3.7250e-01	7.4426	11.644450	0.000599	5.987439	1.014300	0.011974
 747	3.7300e-01	7.4567	11.686357	0.000419	4.191207	0.710010	0.008381
 748	3.7350e-01	7.4664	11.711587	0.000252	2.523278	0.427455	0.005046
 749	3.7400e-01	7.4750	11.743659	0.000321	3.207557	0.543375	0.006414
 750	3.7450e-01	7.4878	11.776159	0.000325	3.250324	0.550620	0.006500
 751	3.7500e-01	7.4988	11.840730	0.000646	6.457881	1.093995	0.012914
 752	3.7550e-01	7.5064	11.847144	0.000064	0.641511	0.108675	0.001283
 753	3.7600e-01	7.5165	11.877933	0.000308	3.079254	0.521640	0.006158
 754	3.7650e-01	7.5275	11.915137	0.000372	3.720766	0.630315	0.007441
 755	3.7700e-01	7.5354	11.969018	0.000539	5.388695	0.912870	0.010776
 756	3.7750e-01	7.5430	11.990399	0.000214	2.138371	0.362250	0.004276
 757	3.7800e-01	7.5592	12.035300	0.000449	4.490579	0.760725	0.008980
 758	3.7850e-01	7.5696	12.056681	0.000214	2.138371	0.362250	0.004276
 759	3.7900e-01	7.5751	12.085759	0.000291	2.908185	0.492660	0.005816
 760	3.7950e-01	7.5867	12.121252	0.000355	3.549696	0.601335	0.007099
 761	3.8000e-01	7.5983	12.161877	0.000406	4.062905	0.688275	0.008125
 762	3.8050e-01	7.6065	12.193949	0.000321	3.207557	0.543375	0.006414
 763	3.8100e-01	7.6157	12.223455	0.000295	2.950952	0.499905	0.005901
 764	3.8150e-01	7.6257	12.265790	0.000423	4.233975	0.717255	0.008467
 765	3.8200e-01	7.6364	12.306842	0.000411	4.105672	0.695520	0.008210
 766	3.8250e-01	7.6443	12.345328	0.000385	3.849068	0.652050	0.007697
 767	3.8300e-01	7.6566	12.377400	0.000321	3.207557	0.543375	0.006414
 768	3.8350e-01	7.6648	12.417169	0.000398	3.977370	0.673785	0.007954
 769	3.8400e-01	7.6764	12.441544	0.000244	2.437743	0.412965	0.004875
 770	3.8450e-01	7.6855	12.484306	0.000428	4.276742	0.724500	0.008553
 771	3.8500e-01	7.6957	12.487727	0.000034	0.342139	0.057960	0.000684
 772	3.8550e-01	7.7057	12.553154	0.000654	6.543416	1.108485	0.013085
 773	3.8600e-01	7.7142	12.590785	0.000376	3.763533	0.637560	0.007526
 774	3.8650e-01	7.7258	12.597627	0.000068	0.684279	0.115920	0.001368
 775	3.8700e-01	7.7371	12.674172	0.000766	7.655369	1.296855	0.015309
 776	3.8750e-01	7.7429	12.688283	0.000141	1.411325	0.239085	0.002822
 777	3.8800e-01	7.7560	12.718645	0.000304	3.036487	0.514395	0.006072
 778	3.8850e-01	7.7658	12.749006	0.000304	3.036487	0.514395	0.006072
 779	3.8900e-01	7.7753	12.790913	0.000419	4.191207	0.710010	0.008381
 780	3.8950e-01	7.7881	12.841373	0.000505	5.046556	0.854910	0.010092
 781	3.9000e-01	7.7979	12.862327	0.000210	2.095604	0.355005	0.004191
 782	3.9050e-01	7.8079	12.890978	0.000287	2.865417	0.485415	0.005730
 783	3.9100e-01	7.8168	12.947424	0.000565	5.645300	0.956340	0.011289
 784	3.9150e-01	7.8278	12.979496	0.000321	3.207557	0.543375	0.006414
 785	3.9200e-01	7.8354	13.016272	0.000368	3.677998	0.623070	0.007355
 786	3.9250e-01	7.8449	13.044068	0.000278	2.779882	0.470925	0.005559
 787	3.9300e-01	7.8546	13.067587	0.000235	2.352208	0.398475	0.004704
 788	3.9350e-01	7.8641	13.115909	0.000483	4.832719	0.818685	0.009664
 789	3.9400e-01	7.8772	13.148408	0.000325	3.250324	0.550620	0.006500
 790	3.9450e-01	7.8876	13.188605	0.000402	4.020138	0.681030	0.008039
 791	3.9500e-01	7.8943	13.206565	0.000180	1.796232	0.304290	0.003592
 792	3.9550e-01	7.9077	13.242058	0.000355	3.549696	0.601335	0.007099
 793	3.9600e-01	7.9169	13.300643	0.000586	5.859137	0.992565	0.011717
 794	3.9650e-01	7.9266	13.303208	0.000026	0.256605	0.043470	0.000513
 795	3.9700e-01	7.9352	13.372911	0.000697	6.971090	1.180935	0.013941
 796	3.9750e-01	7.9456	13.392155	0.000192	1.924534	0.326025	0.003849
 797	3.9800e-01	7.9541	13.445180	0.000530	5.303160	0.898380	0.010605
 798	3.9850e-01	7.9666	13.472120	0.000269	2.694348	0.456435	0.005388
 799	3.9900e-01	7.9767	13.507186	0.000351	3.506929	0.594090	0.007013
 800	3.9950e-01	7.9883	13.532416	0.000252	2.523278	0.427455	0.005046
 801	4.0000e-01	7.9968	13.588435	0.000560	5.602532	0.949095	0.011204
 802	4.0050e-01	8.0054	13.619224	0.000308	3.079254	0.521640	0.006158
 803	4.0100e-01	8.0176	13.641032	0.000218	2.181139	0.369495	0.004362
 804	4.0150e-01	8.0267	13.666262	0.000252	2.523278	0.427455	0.005046
 805	4.0200e-01	8.0383	13.704321	0.000381	3.806301	0.644805	0.007612
 806	4.0250e-01	8.0481	13.745373	0.000411	4.105672	0.695520	0.008210
 807	4.0300e-01	8.0573	13.777873	0.000325	3.250324	0.550620	0.006500
 808	4.0350e-01	8.0658	13.830898	0.000530	5.303160	0.898380	0.010605
 809	4.0400e-01	8.0765	13.849286	0.000184	1.838999	0.311535	0.003678
 810	4.0450e-01	8.0859	13.902739	0.000535	5.345928	0.905625	0.010691
 811	4.0500e-01	8.0972	13.913430	0.000107	1.069186	0.181125	0.002138
 812	4.0550e-01	8.1049	13.959186	0.000458	4.576114	0.775215	0.009151
 813	4.0600e-01	8.1187	14.001521	0.000423	4.233975	0.717255	0.008467
 814	4.0650e-01	8.1274	14.026750	0.000252	2.523278	0.427455	0.005046
 815	4.0700e-01	8.1354	14.067375	0.000406	4.062905	0.688275	0.008125
 816	4.0750e-01	8.1476	14.101585	0.000342	3.421394	0.579600	0.006842
 817	4.0800e-01	8.1561	14.135367	0.000338	3.378626	0.572355	0.006756
 818	4.0850e-01	8.1653	14.187965	0.000526	5.260393	0.891135	0.010520
 819	4.0900e-01	8.1757	14.218754	0.000308	3.079254	0.521640	0.006158
 820	4.0950e-01	8.1866	14.252109	0.000334	3.335859	0.565110	0.006671
 821	4.1000e-01	8.1973	14.283753	0.000316	3.164789	0.536130	0.006329
 822	4.1050e-01	8.2086	14.338917	0.000552	5.516997	0.934605	0.011033
 823	4.1100e-01	8.2153	14.366713	0.000278	2.779882	0.470925	0.005559
 824	4.1150e-01	8.2245	14.406482	0.000398	3.977370	0.673785	0.007954
 825	4.1200e-01	8.2381	14.431284	0.000248	2.480510	0.420210	0.004960
 826	4.1250e-01	8.2443	14.459935	0.000287	2.865417	0.485415	0.005730
 827	4.1300e-01	8.2593	14.486448	0.000265	2.651580	0.449190	0.005303
 828	4.1350e-01	8.2648	14.547598	0.000612	6.115741	1.036035	0.012230
 829	4.1400e-01	8.2782	14.575394	0.000278	2.779882	0.470925	0.005559
 830	4.1450e-01	8.2867	14.613452	0.000381	3.806301	0.644805	0.007612
 831	4.1500e-01	8.2986	14.651939	0.000385	3.849068	0.652050	0.007697
 832	4.1550e-01	8.3072	14.694274	0.000423	4.233975	0.717255	0.008467
 833	4.1600e-01	8.3163	14.703254	0.000090	0.898116	0.152145	0.001796
 834	4.1650e-01	8.3240	14.764404	0.000612	6.115741	1.036035	0.012230
 835	4.1700e-01	8.3362	14.803746	0.000393	3.934603	0.666540	0.007868
 836	4.1750e-01	8.3466	14.824699	0.000210	2.095604	0.355005	0.004191
 837	4.1800e-01	8.3545	14.855916	0.000312	3.122022	0.528885	0.006243
 838	4.1850e-01	8.3661	14.886705	0.000308	3.079254	0.521640	0.006158
 839	4.1900e-01	8.3740	14.934171	0.000475	4.747184	0.804195	0.009493
 840	4.1950e-01	8.3862	14.978644	0.000445	4.447812	0.753480	0.008895
 841	4.2000e-01	8.3960	15.015848	0.000372	3.720766	0.630315	0.007441
 842	4.2050e-01	8.4076	15.051341	0.000355	3.549696	0.601335	0.007099
 843	4.2100e-01	8.4161	15.083413	0.000321	3.207557	0.543375	0.006414
 844	4.2150e-01	8.4259	15.100945	0.000175	1.753464	0.297045	0.003507
 845	4.2200e-01	8.4387	15.131307	0.000304	3.036487	0.514395	0.006072
 846	4.2250e-01	8.4454	15.187753	0.000565	5.645300	0.956340	0.011289
 847	4.2300e-01	8.4570	15.232226	0.000445	4.447812	0.753480	0.008895
 848	4.2350e-01	8.4668	15.251042	0.000188	1.881767	0.318780	0.003763
 849	4.2400e-01	8.4772	15.292094	0.000411	4.105672	0.695520	0.008210
 850	4.2450e-01	8.4857	15.343836	0.000517	5.174858	0.876645	0.010349
 851	4.2500e-01	8.4991	15.358376	0.000145	1.454092	0.246330	0.002908
 852	4.2550e-01	8.5071	15.410118	0.000517	5.174858	0.876645	0.010349
 853	4.2600e-01	8.5162	15.406697	-0.000034	-0.342139	-0.057960	-0.000684
 854	4.2650e-01	8.5286	15.471269	0.000646	6.457881	1.093995	0.012914
 855	4.2700e-01	8.5355	15.508900	0.000376	3.763533	0.637560	0.007526
 856	4.2750e-01	8.5449	15.559359	0.000505	5.046556	0.854910	0.010092
 857	4.2800e-01	8.5565	15.591004	0.000316	3.164789	0.536130	0.006329
 858	4.2850e-01	8.5693	15.642319	0.000513	5.132091	0.869400	0.010263
 859	4.2900e-01	8.5834	15.670970	0.000287	2.865417	0.485415	0.005730
 860	4.2950e-01	8.5855	15.703469	0.000325	3.250324	0.550620	0.006500
 861	4.3000e-01	8.5986	15.728699	0.000252	2.523278	0.427455	0.005046
 862	4.3050e-01	8.6063	15.785146	0.000565	5.645300	0.956340	0.011289
 863	4.3100e-01	8.6191	15.812941	0.000278	2.779882	0.470925	0.005559
 864	4.3150e-01	8.6279	15.840737	0.000278	2.779882	0.470925	0.005559
 865	4.3200e-01	8.6383	15.903598	0.000629	6.286811	1.065015	0.012572
 866	4.3250e-01	8.6450	15.929255	0.000257	2.566045	0.434700	0.005132
 867	4.3300e-01	8.6578	15.982708	0.000535	5.345928	0.905625	0.010691
 868	4.3350e-01	8.6673	15.991689	0.000090	0.898116	0.152145	0.001796
 869	4.3400e-01	8.6777	16.032741	0.000411	4.105672	0.695520	0.008210
 870	4.3450e-01	8.6865	16.054549	0.000218	2.181139	0.369495	0.004362
 871	4.3500e-01	8.6951	16.104582	0.000500	5.003788	0.847665	0.010006
 872	4.3550e-01	8.7103	16.132805	0.000282	2.822650	0.478170	0.005645
 873	4.3600e-01	8.7164	16.186258	0.000535	5.345928	0.905625	0.010691
 874	4.3650e-01	8.7271	16.225600	0.000393	3.934603	0.666540	0.007868
 875	4.3700e-01	8.7378	16.248264	0.000227	2.266673	0.383985	0.004533
 876	4.3750e-01	8.7469	16.285040	0.000368	3.677998	0.623070	0.007355
 877	4.3800e-01	8.7585	16.340203	0.000552	5.516997	0.934605	0.011033
 878	4.3850e-01	8.7677	16.370992	0.000308	3.079254	0.521640	0.006158
 879	4.3900e-01	8.7769	16.394512	0.000235	2.352208	0.398475	0.004704
 880	4.3950e-01	8.7842	16.447110	0.000526	5.260393	0.891135	0.010520
 881	4.4000e-01	8.7988	16.471912	0.000248	2.480510	0.420210	0.004960
 882	4.4050e-01	8.8092	16.525365	0.000535	5.345928	0.905625	0.010691
 883	4.4100e-01	8.8148	16.566845	0.000415	4.148440	0.702765	0.008296
 884	4.4150e-01	8.8275	16.577535	0.000107	1.069186	0.181125	0.002138
 885	4.4200e-01	8.8368	16.630133	0.000526	5.260393	0.891135	0.010520
 886	4.4250e-01	8.8483	16.675461	0.000453	4.533347	0.767970	0.009066
 887	4.4300e-01	8.8565	16.706678	0.000312	3.122022	0.528885	0.006243
 888	4.4350e-01	8.8675	16.743881	0.000372	3.720766	0.630315	0.007441
 889	4.4400e-01	8.8776	16.796052	0.000522	5.217625	0.883890	0.010434
 890	4.4450e-01	8.8879	16.830262	0.000342	3.421394	0.579600	0.006842
 891	4.4500e-01	8.8992	16.855492	0.000252	2.523278	0.427455	0.005046
 892	4.4550e-01	8.9075	16.902103	0.000466	4.661649	0.789705	0.009322
 893	4.4600e-01	8.9166	16.961970	0.000599	5.987439	1.014300	0.011974
 894	4.4650e-01	8.9264	16.977365	0.000154	1.539627	0.260820	0.003079
 895	4.4700e-01	8.9362	17.034239	0.000569	5.688067	0.963585	0.011375
 896	4.4750e-01	8.9459	17.044074	0.000098	0.983651	0.166635	0.001967
 897	4.4800e-01	8.9569	17.098383	0.000543	5.431463	0.920115	0.010862
 898	4.4850e-01	8.9655	17.123185	0.000248	2.480510	0.420210	0.004960
 899	4.4900e-01	8.9746	17.168513	0.000453	4.533347	0.767970	0.009066
 900	4.4950e-01	8.9874	17.190750	0.000222	2.223906	0.376740	0.004447
 901	4.5000e-01	8.9966	17.245486	0.000547	5.474230	0.927360	0.010947
 902	4.5050e-01	9.0106	17.301077	0.000556	5.559765	0.941850	0.011118
 903	4.5100e-01	9.0161	17.320320	0.000192	1.924534	0.326025	0.003849
 904	4.5150e-01	9.0283	17.353247	0.000329	3.293091	0.557865	0.006585
 905	4.5200e-01	9.0356	17.399003	0.000458	4.576114	0.775215	0.009151
 906	4.5250e-01	9.0466	17.427654	0.000287	2.865417	0.485415	0.005730
 907	4.5300e-01	9.0559	17.478114	0.000505	5.046556	0.854910	0.010092
 908	4.5350e-01	9.0668	17.513607	0.000355	3.549696	0.601335	0.007099
 909	4.5400e-01	9.0748	17.579461	0.000659	6.586183	1.115730	0.013171
 910	4.5450e-01	9.0839	17.599560	0.000201	2.010069	0.340515	0.004020
 911	4.5500e-01	9.0955	17.636335	0.000368	3.677998	0.623070	0.007355
 912	4.5550e-01	9.1055	17.682947	0.000466	4.661649	0.789705	0.009322
 913	4.5600e-01	9.1138	17.703045	0.000201	2.010069	0.340515	0.004020
 914	4.5650e-01	9.1272	17.751367	0.000483	4.832719	0.818685	0.009664
 915	4.5700e-01	9.1351	17.784721	0.000334	3.335859	0.565110	0.006671
 916	4.5750e-01	9.1486	17.824491	0.000398	3.977370	0.673785	0.007954
 917	4.5800e-01	9.1559	17.875378	0.000509	5.089323	0.862155	0.010177
 918	4.5850e-01	9.1663	17.901035	0.000257	2.566045	0.434700	0.005132
 919	4.5900e-01	9.1774	17.948502	0.000475	4.747184	0.804195	0.009493
 920	4.5950e-01	9.1849	17.986988	0.000385	3.849068	0.652050	0.007697
 921	4.6000e-01	9.1946	18.038303	0.000513	5.132091	0.869400	0.010263
 922	4.6050e-01	9.2078	18.078500	0.000402	4.020138	0.681030	0.008039
 923	4.6100e-01	9.2157	18.109717	0.000312	3.122022	0.528885	0.006243
 924	4.6150e-01	9.2255	18.135802	0.000261	2.608813	0.441945	0.005217
 925	4.6200e-01	9.2352	18.170439	0.000346	3.464161	0.586845	0.006928
 926	4.6250e-01	9.2450	18.231590	0.000612	6.115741	1.036035	0.012230
 927	4.6300e-01	9.2590	18.247840	0.000163	1.625162	0.275310	0.003250
 928	4.6350e-01	9.2657	18.297016	0.000492	4.918254	0.833175	0.009835
 929	4.6400e-01	9.2773	18.338924	0.000419	4.191207	0.710010	0.008381
 930	4.6450e-01	9.2859	18.373989	0.000351	3.506929	0.594090	0.007013
 931	4.6500e-01	9.2981	18.422738	0.000488	4.875486	0.825930	0.009750
 932	4.6550e-01	9.3085	18.470632	0.000479	4.789951	0.811440	0.009579
 933	4.6600e-01	9.3190	18.520664	0.000500	5.003788	0.847665	0.010006
 934	4.6650e-01	9.3243	18.575828	0.000552	5.516997	0.934605	0.011033
 935	4.6700e-01	9.3353	18.586091	0.000103	1.026418	0.173880	0.002053
 936	4.6750e-01	9.3460	18.639544	0.000535	5.345928	0.905625	0.010691
 937	4.6800e-01	9.3555	18.663064	0.000235	2.352208	0.398475	0.004704
 938	4.6850e-01	9.3665	18.723359	0.000603	6.030206	1.021545	0.012059
 939	4.6900e-01	9.3762	18.766549	0.000432	4.319510	0.731745	0.008638
 940	4.6950e-01	9.3860	18.790924	0.000244	2.437743	0.412965	0.004875
 941	4.7000e-01	9.3958	18.846087	0.000552	5.516997	0.934605	0.011033
 942	4.7050e-01	9.4061	18.873455	0.000274	2.737115	0.463680	0.005474
 943	4.7100e-01	9.4159	18.911514	0.000381	3.806301	0.644805	0.007612
 944	4.7150e-01	9.4275	18.937171	0.000257	2.566045	0.434700	0.005132
 945	4.7200e-01	9.4366	19.000460	0.000633	6.329578	1.072260	0.012658
 946	4.7250e-01	9.4446	19.044933	0.000445	4.447812	0.753480	0.008895
 947	4.7300e-01	9.4562	19.093255	0.000483	4.832719	0.818685	0.009664
 948	4.7350e-01	9.4678	19.108222	0.000150	1.496860	0.253575	0.002993
 949	4.7400e-01	9.4766	19.168089	0.000599	5.987439	1.014300	0.011974
 950	4.7450e-01	9.4858	19.219404	0.000513	5.132091	0.869400	0.010263
 951	4.7500e-01	9.4983	19.258318	0.000389	3.891835	0.659295	0.007783
 952	4.7550e-01	9.5050	19.290818	0.000325	3.250324	0.550620	0.006500
 953	4.7600e-01	9.5160	19.336573	0.000458	4.576114	0.775215	0.009151
 954	4.7650e-01	9.5239	19.375487	0.000389	3.891835	0.659295	0.007783
 955	4.7700e-01	9.5358	19.411408	0.000359	3.592463	0.608580	0.007184
 956	4.7750e-01	9.5471	19.452888	0.000415	4.148440	0.702765	0.008296
 957	4.7800e-01	9.5569	19.491801	0.000389	3.891835	0.659295	0.007783
 958	4.7850e-01	9.5654	19.537557	0.000458	4.576114	0.775215	0.009151
 959	4.7900e-01	9.5746	19.584596	0.000470	4.704416	0.796950	0.009408
 960	4.7950e-01	9.5850	19.617523	0.000329	3.293091	0.557865	0.006585
 961	4.8000e-01	9.5963	19.672687	0.000552	5.516997	0.934605	0.011033
 962	4.8050e-01	9.6057	19.721009	0.000483	4.832719	0.818685	0.009664
 963	4.8100e-01	9.6149	19.765909	0.000449	4.490579	0.760725	0.008980
 964	4.8150e-01	9.6265	19.785152	0.000192	1.924534	0.326025	0.003849
 965	4.8200e-01	9.6368	19.844165	0.000590	5.901904	0.999810	0.011802
 966	4.8250e-01	9.6442	19.873243	0.000291	2.908185	0.492660	0.005816
 967	4.8300e-01	9.6576	19.932683	0.000594	5.944672	1.007055	0.011888
 968	4.8350e-01	9.6637	19.959624	0.000269	2.694348	0.456435	0.005388
 969	4.8400e-01	9.6771	20.007518	0.000479	4.789951	0.811440	0.009579
 970	4.8450e-01	9.6863	20.044293	0.000368	3.677998	0.623070	0.007355
 971	4.8500e-01	9.6942	20.109292	0.000650	6.500648	1.101240	0.013000
 972	4.8550e-01	9.7067	20.142219	0.000329	3.293091	0.557865	0.006585
 973	4.8600e-01	9.7168	20.181989	0.000398	3.977370	0.673785	0.007954
 974	4.8650e-01	9.7253	20.205508	0.000235	2.352208	0.398475	0.004704
 975	4.8700e-01	9.7357	20.267941	0.000624	6.244044	1.057770	0.012487
 976	4.8750e-01	9.7458	20.311987	0.000441	4.405044	0.746235	0.008809
 977	4.8800e-01	9.7546	20.337217	0.000252	2.523278	0.427455	0.005046
 978	4.8850e-01	9.7650	20.403926	0.000667	6.671718	1.130220	0.013342
 979	4.8900e-01	9.7778	20.406492	0.000026	0.256605	0.043470	0.000513
 980	4.8950e-01	9.7870	20.475340	0.000689	6.885555	1.166445	0.013770
 981	4.9000e-01	9.7943	20.528365	0.000530	5.303160	0.898380	0.010605
 982	4.9050e-01	9.8047	20.572411	0.000441	4.405044	0.746235	0.008809
 983	4.9100e-01	9.8169	20.606621	0.000342	3.421394	0.579600	0.006842
 984	4.9150e-01	9.8248	20.662639	0.000560	5.602532	0.949095	0.011204
 985	4.9200e-01	9.8340	20.686586	0.000239	2.394976	0.405720	0.004789
 986	4.9250e-01	9.8450	20.750730	0.000642	6.415113	1.086750	0.012829
 987	4.9300e-01	9.8553	20.787506	0.000368	3.677998	0.623070	0.007355
 988	4.9350e-01	9.8634	20.836683	0.000492	4.918254	0.833175	0.009835
 989	4.9400e-01	9.8761	20.867472	0.000308	3.079254	0.521640	0.006158
 990	4.9450e-01	9.8865	20.917504	0.000500	5.003788	0.847665	0.010006
 991	4.9500e-01	9.8953	20.969674	0.000522	5.217625	0.883890	0.010434
 992	4.9550e-01	9.9078	21.014575	0.000449	4.490579	0.760725	0.008980
 993	4.9600e-01	9.9152	21.049213	0.000346	3.464161	0.586845	0.006928
 994	4.9650e-01	9.9255	21.082140	0.000329	3.293091	0.557865	0.006585
 995	4.9700e-01	9.9377	21.157830	0.000757	7.569834	1.282365	0.015138
 996	4.9750e-01	9.9475	21.181777	0.000239	2.394976	0.405720	0.004789
 997	4.9800e-01	9.9585	21.218552	0.000368	3.677998	0.623070	0.007355
 998	4.9850e-01	9.9652	21.282268	0.000637	6.372346	1.079505	0.012743
 999	4.9900e-01	9.9744	21.312630	0.000304	3.036487	0.514395	0.006072
1000	4.9950e-01	9.9884	21.378912	0.000663	6.628950	1.122975	0.013256
1001	5.0000e-01	9.9951	21.404142	0.000252	2.523278	0.427455	0.005046
1002	5.0050e-01	9.9854	21.398583	0.000056	0.555976	0.094185	-0.001112
1003	5.0100e-01	9.9750	21.383188	0.000154	1.539627	0.260820	-0.003079
1004	5.0150e-01	9.9634	21.382333	0.000009	0.085535	0.014490	-0.000171
1005	5.0200e-01	9.9548	21.387892	-0.000056	-0.555976	-0.094185	0.001112
1006	5.0250e-01	9.9445	21.363090	0.000248	2.480510	0.420210	-0.004960
1007	5.0300e-01	9.9344	21.365228	-0.000021	-0.213837	-0.036225	0.000428
1008	5.0350e-01	9.9225	21.347268	0.000180	1.796232	0.304290	-0.003592
1009	5.0400e-01	9.9121	21.343419	0.000038	0.384907	0.065205	-0.000770
1010	5.0450e-01	9.9051	21.331873	0.000115	1.154720	0.195615	-0.002309
1011	5.0500e-01	9.8962	21.334439	-0.000026	-0.256605	-0.043470	0.000513
1012	5.0550e-01	9.8883	21.320327	0.000141	1.411325	0.239085	-0.002822
1013	5.0600e-01	9.8743	21.315196	0.000051	0.513209	0.086940	-0.001026
1014	5.0650e-01	9.8645	21.304077	0.000111	1.111953	0.188370	-0.002224
1015	5.0700e-01	9.8560	21.301939	0.000021	0.213837	0.036225	-0.000428
1016	5.0750e-01	9.8456	21.281841	0.000201	2.010069	0.340515	-0.004020
1017	5.0800e-01	9.8352	21.292959	-0.000111	-1.111953	-0.188370	0.002224
1018	5.0850e-01	9.8254	21.273288	0.000197	1.967301	0.333270	-0.003934
1019	5.0900e-01	9.8157	21.259604	0.000137	1.368557	0.231840	-0.002737
1020	5.0950e-01	9.8059	21.237368	0.000222	2.223906	0.376740	-0.004447
1021	5.1000e-01	9.7968	21.215131	0.000222	2.223906	0.376740	-0.004447
1022	5.1050e-01	9.7827	21.211283	0.000038	0.384907	0.065205	-0.000770
1023	5.1100e-01	9.7723	21.218980	-0.000077	-0.769814	-0.130410	0.001539
1024	5.1150e-01	9.7650	21.210000	0.000090	0.898116	0.152145	-0.001796
1025	5.1200e-01	9.7540	21.174507	0.000355	3.549696	0.601335	-0.007099
1026	5.1250e-01	9.7430	21.145856	0.000287	2.865417	0.485415	-0.005730
1027	5.1300e-01	9.7366	21.145001	0.000009	0.085535	0.014490	-0.000171
1028	5.1350e-01	9.7241	21.121054	0.000239	2.394976	0.405720	-0.004789
1029	5.1400e-01	9.7150	21.124047	-0.000030	-0.299372	-0.050715	0.000599
1030	5.1450e-01	9.7058	21.129606	-0.000056	-0.555976	-0.094185	0.001112
1031	5.1500e-01	9.6967	21.106087	0.000235	2.352208	0.398475	-0.004704
1032	5.1550e-01	9.6875	21.085133	0.000210	2.095604	0.355005	-0.004191
1033	5.1600e-01	9.6756	21.068883	0.000163	1.625162	0.275310	-0.003250
1034	5.1650e-01	9.6667	21.043654	0.000252	2.523278	0.427455	-0.005046
1035	5.1700e-01	9.6558	21.049213	-0.000056	-0.555976	-0.094185	0.001112
1036	5.1750e-01	9.6484	21.020562	0.000287	2.865417	0.485415	-0.005730
1037	5.1800e-01	9.6362	20.999181	0.000214	2.138371	0.362250	-0.004276
1038	5.1850e-01	9.6246	20.991911	0.000073	0.727046	0.123165	-0.001454
1039	5.1900e-01	9.6143	20.985497	0.000064	0.641511	0.108675	-0.001283
1040	5.1950e-01	9.6051	20.951714	0.000338	3.378626	0.572355	-0.006756
1041	5.2000e-01	9.5966	20.950859	0.000009	0.085535	0.014490	-0.000171
1042	5.2050e-01	9.5844	20.926484	0.000244	2.437743	0.412965	-0.004875
1043	5.2100e-01	9.5758	20.913228	0.000133	1.325790	0.224595	-0.002651
1044	5.2150e-01	9.5654	20.898261	0.000150	1.496860	0.253575	-0.002993
1045	5.2200e-01	9.5532	20.874742	0.000235	2.352208	0.398475	-0.004704
1046	5.2250e-01	9.5447	20.872603	0.000021	0.213837	0.036225	-0.000428
1047	5.2300e-01	9.5343	20.853788	0.000188	1.881767	0.318780	-0.003763
1048	5.2350e-01	9.5245	20.816157	0.000376	3.763533	0.637560	-0.007526
1049	5.2400e-01	9.5166	20.819150	-0.000030	-0.299372	-0.050715	0.000599
1050	5.2450e-01	9.5056	20.804611	0.000145	1.454092	0.246330	-0.002908
1051	5.2500e-01	9.4955	20.769546	0.000351	3.506929	0.594090	-0.007013
1052	5.2550e-01	9.4861	20.759283	0.000103	1.026418	0.173880	-0.002053
1053	5.2600e-01	9.4745	20.727639	0.000316	3.164789	0.536130	-0.006329
1054	5.2650e-01	9.4659	20.713527	0.000141	1.411325	0.239085	-0.002822
1055	5.2700e-01	9.4537	20.707112	0.000064	0.641511	0.108675	-0.001283
1056	5.2750e-01	9.4452	20.675896	0.000312	3.122022	0.528885	-0.006243
1057	5.2800e-01	9.4354	20.662639	0.000133	1.325790	0.224595	-0.002651
1058	5.2850e-01	9.4250	20.635271	0.000274	2.737115	0.463680	-0.005474
1059	5.2900e-01	9.4165	20.644252	-0.000090	-0.898116	-0.152145	0.001796
1060	5.2950e-01	9.4049	20.582246	0.000620	6.201276	1.050525	-0.012401
1061	5.3000e-01	9.3951	20.600206	-0.000180	-1.796232	-0.304290	0.003592
1062	5.3050e-01	9.3848	20.573693	0.000265	2.651580	0.449190	-0.005303
1063	5.3100e-01	9.3750	20.548036	0.000257	2.566045	0.434700	-0.005132
1064	5.3150e-01	9.3622	20.539911	0.000081	0.812581	0.137655	-0.001625
1065	5.3200e-01	9.3536	20.513398	0.000265	2.651580	0.449190	-0.005303
1066	5.3250e-01	9.3469	20.493300	0.000201	2.010069	0.340515	-0.004020
1067	5.3300e-01	9.3365	20.471491	0.000218	2.181139	0.369495	-0.004362
1068	5.3350e-01	9.3262	20.440274	0.000312	3.122022	0.528885	-0.006243
1069	5.3400e-01	9.3152	20.429156	0.000111	1.111953	0.188370	-0.002224
1070	5.3450e-01	9.3045	20.427018	0.000021	0.213837	0.036225	-0.000428
1071	5.3500e-01	9.2957	20.403499	0.000235	2.352208	0.398475	-0.004704
1072	5.3550e-01	9.2862	20.372710	0.000308	3.079254	0.521640	-0.006158
1073	5.3600e-01	9.2755	20.350045	0.000227	2.266673	0.383985	-0.004533
1074	5.3650e-01	9.2639	20.312414	0.000376	3.763533	0.637560	-0.007526
1075	5.3700e-01	9.2548	20.295737	0.000167	1.667929	0.282555	-0.003335
1076	5.3750e-01	9.2444	20.274783	0.000210	2.095604	0.355005	-0.004191
1077	5.3800e-01	9.2358	20.246560	0.000282	2.822650	0.478170	-0.005645
1078	5.3850e-01	9.2242	20.236725	0.000098	0.983651	0.166635	-0.001967
1079	5.3900e-01	9.2120	20.229883	0.000068	0.684279	0.115920	-0.001368
1080	5.3950e-01	9.2029	20.212778	0.000171	1.710697	0.289800	-0.003421
1081	5.4000e-01	9.1962	20.163601	0.000492	4.918254	0.833175	-0.009835
1082	5.4050e-01	9.1833	20.169588	-0.000060	-0.598744	-0.101430	0.001197
1083	5.4100e-01	9.1730	20.125542	0.000441	4.405044	0.746235	-0.008809
1084	5.4150e-01	9.1663	20.106299	0.000192	1.924534	0.326025	-0.003849
1085	5.4200e-01	9.1559	20.085345	0.000210	2.095604	0.355005	-0.004191
1086	5.4250e-01	9.1467	20.057977	0.000274	2.737115	0.463680	-0.005474
1087	5.4300e-01	9.1345	20.070378	-0.000124	-1.240255	-0.210105	0.002480
1088	5.4350e-01	9.1260	20.031892	0.000385	3.849068	0.652050	-0.007697
1089	5.4400e-01	9.1156	19.985709	0.000462	4.618882	0.782460	-0.009237
1090	5.4450e-01	9.1071	20.011366	-0.000257	-2.566045	-0.434700	0.005132
1091	5.4500e-01	9.0961	19.960479	0.000509	5.089323	0.862155	-0.010177
1092	5.4550e-01	9.0881	19.923703	0.000368	3.677998	0.623070	-0.007355
1093	5.4600e-01	9.0762	19.908308	0.000154	1.539627	0.260820	-0.003079
1094	5.4650e-01	9.0668	19.908736	-0.000004	-0.042767	-0.007245	0.000086
1095	5.4700e-01	9.0558	19.853145	0.000556	5.559765	0.941850	-0.011118
1096	5.4750e-01	9.0491	19.842882	0.000103	1.026418	0.173880	-0.002053
1097	5.4800e-01	9.0369	19.837750	0.000051	0.513209	0.086940	-0.001026
1098	5.4850e-01	9.0259	19.803540	0.000342	3.421394	0.579600	-0.006842
1099	5.4900e-01	9.0161	19.786008	0.000175	1.753464	0.297045	-0.003507
1100	5.4950e-01	9.0082	19.756502	0.000295	2.950952	0.499905	-0.005901
1101	5.5000e-01	8.9948	19.750087	0.000064	0.641511	0.108675	-0.001283
1102	5.5050e-01	8.9850	19.700910	0.000492	4.918254	0.833175	-0.009835
1103	5.5100e-01	8.9758	19.696206	0.000047	0.470442	0.079695	-0.000941
1104	5.5150e-01	8.9648	19.673115	0.000231	2.309441	0.391230	-0.004618
1105	5.5200e-01	8.9563	19.641043	0.000321	3.207557	0.543375	-0.006414
1106	5.5250e-01	8.9474	19.608116	0.000329	3.293091	0.557865	-0.006585
1107	5.5300e-01	8.9380	19.596570	0.000115	1.154720	0.195615	-0.002309
1108	5.5350e-01	8.9288	19.578609	0.000180	1.796232	0.304290	-0.003592
1109	5.5400e-01	8.9178	19.551241	0.000274	2.737115	0.463680	-0.005474
1110	5.5450e-01	8.9063	19.542261	0.000090	0.898116	0.152145	-0.001796
1111	5.5500e-01	8.8953	19.492229	0.000500	5.003788	0.847665	-0.010006
1112	5.5550e-01	8.8892	19.480683	0.000115	1.154720	0.195615	-0.002309
1113	5.5600e-01	8.8763	19.425947	0.000547	5.474230	0.927360	-0.010947
1114	5.5650e-01	8.8647	19.449894	-0.000239	-2.394976	-0.405720	0.004789
1115	5.5700e-01	8.8550	19.403283	0.000466	4.661649	0.789705	-0.009322
1116	5.5750e-01	8.8477	19.384040	0.000192	1.924534	0.326025	-0.003849
1117	5.5800e-01	8.8342	19.372066	0.000120	1.197488	0.202860	-0.002395
1118	5.5850e-01	8.8257	19.343843	0.000282	2.822650	0.478170	-0.005645
1119	5.5900e-01	8.8144	19.351113	-0.000073	-0.727046	-0.123165	0.001454
1120	5.5950e-01	8.8080	19.286114	0.000650	6.500648	1.101240	-0.013000
1121	5.6000e-01	8.7991	19.272857	0.000133	1.325790	0.224595	-0.002651
1122	5.6050e-01	8.7860	19.239075	0.000338	3.378626	0.572355	-0.006756
1123	5.6100e-01	8.7775	19.236937	0.000021	0.213837	0.036225	-0.000428
1124	5.6150e-01	8.7701	19.193747	0.000432	4.319510	0.731745	-0.008638
1125	5.6200e-01	8.7550	19.170227	0.000235	2.352208	0.398475	-0.004704
1126	5.6250e-01	8.7471	19.152695	0.000175	1.753464	0.297045	-0.003507
1127	5.6300e-01	8.7347	19.133451	0.000192	1.924534	0.326025	-0.003849
1128	5.6350e-01	8.7256	19.096248	0.000372	3.720766	0.630315	-0.007441
1129	5.6400e-01	8.7158	19.089834	0.000064	0.641511	0.108675	-0.001283
1130	5.6450e-01	8.7073	19.053913	0.000359	3.592463	0.608580	-0.007184
1131	5.6500e-01	8.6957	19.008157	0.000458	4.576114	0.775215	-0.009151
1132	5.6550e-01	8.6856	18.997894	0.000103	1.026418	0.173880	-0.002053
1133	5.6600e-01	8.6761	18.982927	0.000150	1.496860	0.253575	-0.002993
1134	5.6650e-01	8.6649	18.961118	0.000218	2.181139	0.369495	-0.004362
1135	5.6700e-01	8.6548	18.917928	0.000432	4.319510	0.731745	-0.008638
1136	5.6750e-01	8.6444	18.903389	0.000145	1.454092	0.246330	-0.002908
1137	5.6800e-01	8.6334	18.891416	0.000120	1.197488	0.202860	-0.002395
1138	5.6850e-01	8.6279	18.849081	0.000423	4.233975	0.717255	-0.008467
1139	5.6900e-01	8.6169	18.832831	0.000163	1.625162	0.275310	-0.003250
1140	5.6950e-01	8.6053	18.805035	0.000278	2.779882	0.470925	-0.005559
1141	5.7000e-01	8.5999	18.796483	0.000086	0.855348	0.144900	-0.001711
1142	5.7050e-01	8.5883	18.766121	0.000304	3.036487	0.514395	-0.006072
1143	5.7100e-01	8.5773	18.743885	0.000222	2.223906	0.376740	-0.004447
1144	5.7150e-01	8.5681	18.694280	0.000496	4.961021	0.840420	-0.009921
1145	5.7200e-01	8.5553	18.684873	0.000094	0.940883	0.159390	-0.001882
1146	5.7250e-01	8.5480	18.670333	0.000145	1.454092	0.246330	-0.002908
1147	5.7300e-01	8.5394	18.615597	0.000547	5.474230	0.927360	-0.010947
1148	5.7350e-01	8.5257	18.625433	-0.000098	-0.983651	-0.166635	0.001967
1149	5.7400e-01	8.5150	18.583953	0.000415	4.148440	0.702765	-0.008296
1150	5.7450e-01	8.5040	18.528789	0.000552	5.516997	0.934605	-0.011033
1151	5.7500e-01	8.4961	18.530072	-0.000013	-0.128302	-0.021735	0.000257
1152	5.7550e-01	8.4851	18.497145	0.000329	3.293091	0.557865	-0.006585
1153	5.7600e-01	8.4772	18.491158	0.000060	0.598744	0.101430	-0.001197
1154	5.7650e-01	8.4686	18.454810	0.000364	3.635231	0.615825	-0.007270
1155	5.7700e-01	8.4570	18.436850	0.000180	1.796232	0.304290	-0.003592
1156	5.7750e-01	8.4454	18.379120	0.000577	5.773602	0.978075	-0.011546
1157	5.7800e-01	8.4363	18.367575	0.000115	1.154720	0.195615	-0.002309
1158	5.7850e-01	8.4256	18.353891	0.000137	1.368557	0.231840	-0.002737
1159	5.7900e-01	8.4180	18.323957	0.000299	2.993720	0.507150	-0.005987
1160	5.7950e-01	8.4073	18.316260	0.000077	0.769814	0.130410	-0.001539
1161	5.8000e-01	8.3954	18.269648	0.000466	4.661649	0.789705	-0.009322
1162	5.8050e-01	8.3850	18.232017	0.000376	3.763533	0.637560	-0.007526
1163	5.8100e-01	8.3742	18.226458	0.000056	0.555976	0.094185	-0.001112
1164	5.8150e-01	8.3667	18.189255	0.000372	3.720766	0.630315	-0.007441
1165	5.8200e-01	8.3575	18.157611	0.000316	3.164789	0.536130	-0.006329
1166	5.8250e-01	8.3447	18.152907	0.000047	0.470442	0.079695	-0.000941
1167	5.8300e-01	8.3362	18.119124	0.000338	3.378626	0.572355	-0.006756
1168	5.8350e-01	8.3246	18.094322	0.000248	2.480510	0.420210	-0.004960
1169	5.8400e-01	8.3154	18.069520	0.000248	2.480510	0.420210	-0.004960
1170	5.8450e-01	8.3038	18.037020	0.000325	3.250324	0.550620	-0.006500
1171	5.8500e-01	8.2928	18.025902	0.000111	1.111953	0.188370	-0.002224
1172	5.8550e-01	8.2849	17.989126	0.000368	3.677998	0.623070	-0.007355
1173	5.8600e-01	8.2751	17.956199	0.000329	3.293091	0.557865	-0.006585
1174	5.8650e-01	8.2684	17.945936	0.000103	1.026418	0.173880	-0.002053
1175	5.8700e-01	8.2538	17.910016	0.000359	3.592463	0.608580	-0.007184
1176	5.8750e-01	8.2472	17.881365	0.000287	2.865417	0.485415	-0.005730
1177	5.8800e-01	8.2367	17.862549	0.000188	1.881767	0.318780	-0.003763
1178	5.8850e-01	8.2245	17.815510	0.000470	4.704416	0.796950	-0.009408
1179	5.8900e-01	8.2135	17.800543	0.000150	1.496860	0.253575	-0.002993
1180	5.8950e-01	8.2074	17.786004	0.000145	1.454092	0.246330	-0.002908
1181	5.9000e-01	8.1952	17.759064	0.000269	2.694348	0.456435	-0.005388
1182	5.9050e-01	8.1830	17.721005	0.000381	3.806301	0.644805	-0.007612
1183	5.9100e-01	8.1744	17.716729	0.000043	0.427674	0.072450	-0.000855
1184	5.9150e-01	8.1653	17.660710	0.000560	5.602532	0.949095	-0.011204
1185	5.9200e-01	8.1567	17.644033	0.000167	1.667929	0.282555	-0.003335
1186	5.9250e-01	8.1429	17.626072	0.000180	1.796232	0.304290	-0.003592
1187	5.9300e-01	8.1360	17.587586	0.000385	3.849068	0.652050	-0.007697
1188	5.9350e-01	8.1277	17.568771	0.000188	1.881767	0.318780	-0.003763
1189	5.9400e-01	8.1149	17.547389	0.000214	2.138371	0.362250	-0.004276
1190	5.9450e-01	8.1055	17.518311	0.000291	2.908185	0.492660	-0.005816
1191	5.9500e-01	8.0951	17.477259	0.000411	4.105672	0.695520	-0.008210
1192	5.9550e-01	8.0841	17.440911	0.000364	3.635231	0.615825	-0.007270
1193	5.9600e-01	8.0762	17.440055	0.000009	0.085535	0.014490	-0.000171
1194	5.9650e-01	8.0658	17.411832	0.000282	2.822650	0.478170	-0.005645
1195	5.9700e-01	8.0566	17.387885	0.000239	2.394976	0.405720	-0.004789
1196	5.9750e-01	8.0460	17.362228	0.000257	2.566045	0.434700	-0.005132
1197	5.9800e-01	8.0359	17.333149	0.000291	2.908185	0.492660	-0.005816
1198	5.9850e-01	8.0249	17.310057	0.000231	2.309441	0.391230	-0.004618
1199	5.9900e-01	8.0157	17.270288	0.000398	3.977370	0.673785	-0.007954
1200	5.9950e-01	8.0049	17.248907	0.000214	2.138371	0.362250	-0.004276
1201	6.0000e-01	7.9962	17.220684	0.000282	2.822650	0.478170	-0.005645
1202	6.0050e-01	7.9855	17.192888	0.000278	2.779882	0.470925	-0.005559
1203	6.0100e-01	7.9749	17.175355	0.000175	1.753464	0.297045	-0.003507
1204	6.0150e-01	7.9639	17.121902	0.000535	5.345928	0.905625	-0.010691
1205	6.0200e-01	7.9559	17.102659	0.000192	1.924534	0.326025	-0.003849
1206	6.0250e-01	7.9431	17.094534	0.000081	0.812581	0.137655	-0.001625
1207	6.0300e-01	7.9352	17.051772	0.000428	4.276742	0.724500	-0.008553
1208	6.0350e-01	7.9285	17.020555	0.000312	3.122022	0.528885	-0.006243
1209	6.0400e-01	7.9163	17.005588	0.000150	1.496860	0.253575	-0.002993
1210	6.0450e-01	7.9010	16.995753	0.000098	0.983651	0.166635	-0.001967
1211	6.0500e-01	7.8961	16.947003	0.000488	4.875486	0.825930	-0.009750
1212	6.0550e-01	7.8839	16.938879	0.000081	0.812581	0.137655	-0.001625
1213	6.0600e-01	7.8754	16.908090	0.000308	3.079254	0.521640	-0.006158
1214	6.0650e-01	7.8659	16.882004	0.000261	2.608813	0.441945	-0.005217
1215	6.0700e-01	7.8568	16.839242	0.000428	4.276742	0.724500	-0.008553
1216	6.0750e-01	7.8467	16.813157	0.000261	2.608813	0.441945	-0.005217
1217	6.0800e-01	7.8363	16.799473	0.000137	1.368557	0.231840	-0.002737
1218	6.0850e-01	7.8247	16.761842	0.000376	3.763533	0.637560	-0.007526
1219	6.0900e-01	7.8174	16.728915	0.000329	3.293091	0.557865	-0.006585
1220	6.0950e-01	7.8040	16.701119	0.000278	2.779882	0.470925	-0.005559
1221	6.1000e-01	7.7951	16.662633	0.000385	3.849068	0.652050	-0.007697
1222	6.1050e-01	7.7850	16.653653	0.000090	0.898116	0.152145	-0.001796
1223	6.1100e-01	7.7734	16.610035	0.000436	4.362277	0.738990	-0.008724
1224	6.1150e-01	7.7661	16.597634	0.000124	1.240255	0.210105	-0.002480
1225	6.1200e-01	7.7533	16.557437	0.000402	4.020138	0.681030	-0.008039
1226	6.1250e-01	7.7490	16.537338	0.000201	2.010069	0.340515	-0.004020
1227	6.1300e-01	7.7364	16.509115	0.000282	2.822650	0.478170	-0.005645
1228	6.1350e-01	7.7246	16.485168	0.000239	2.394976	0.405720	-0.004789
1229	6.1400e-01	7.7179	16.448392	0.000368	3.677998	0.623070	-0.007355
1230	6.1450e-01	7.7029	16.438985	0.000094	0.940883	0.159390	-0.001882
1231	6.1500e-01	7.6961	16.375268	0.000637	6.372346	1.079505	-0.012743
1232	6.1550e-01	7.6874	16.375268	-0.000000	-0.000000	-0.000000	0.000000
1233	6.1600e-01	7.6770	16.344479	0.000308	3.079254	0.521640	-0.006158
1234	6.1650e-01	7.6672	16.316256	0.000282	2.822650	0.478170	-0.005645
1235	6.1700e-01	7.6599	16.290599	0.000257	2.566045	0.434700	-0.005132
1236	6.1750e-01	7.6471	16.246981	0.000436	4.362277	0.738990	-0.008724
1237	6.1800e-01	7.6349	16.243987	0.000030	0.299372	0.050715	-0.000599
1238	6.1850e-01	7.6245	16.214054	0.000299	2.993720	0.507150	-0.005987
1239	6.1900e-01	7.6149	16.173002	0.000411	4.105672	0.695520	-0.008210
1240	6.1950e-01	7.6056	16.152476	0.000205	2.052836	0.347760	-0.004105
1241	6.2000e-01	7.5946	16.126818	0.000257	2.566045	0.434700	-0.005132
1242	6.2050e-01	7.5824	16.066095	0.000607	6.072974	1.028790	-0.012145
1243	6.2100e-01	7.5775	16.062674	0.000034	0.342139	0.057960	-0.000684
1244	6.2150e-01	7.5641	16.036589	0.000261	2.608813	0.441945	-0.005217
1245	6.2200e-01	7.5543	16.008366	0.000282	2.822650	0.478170	-0.005645
1246	6.2250e-01	7.5439	15.957906	0.000505	5.046556	0.854910	-0.010092
1247	6.2300e-01	7.5374	15.936525	0.000214	2.138371	0.362250	-0.004276
1248	6.2350e-01	7.5244	15.926690	0.000098	0.983651	0.166635	-0.001967
1249	6.2400e-01	7.5153	15.904881	0.000218	2.181139	0.369495	-0.004362
1250	6.2450e-01	7.5031	15.863401	0.000415	4.148440	0.702765	-0.008296
1251	6.2500e-01	7.4957	15.834750	0.000287	2.865417	0.485415	-0.005730
1252	6.2550e-01	7.4860	15.826625	0.000081	0.812581	0.137655	-0.001625
1253	6.2600e-01	7.4747	15.784290	0.000423	4.233975	0.717255	-0.008467
1254	6.2650e-01	7.4646	15.743238	0.000411	4.105672	0.695520	-0.008210
1255	6.2700e-01	7.4561	15.727416	0.000158	1.582395	0.268065	-0.003164
1256	6.2750e-01	7.4451	15.686364	0.000411	4.105672	0.695520	-0.008210
1257	6.2800e-01	7.4347	15.663272	0.000231	2.309441	0.391230	-0.004618
1258	6.2850e-01	7.4237	15.619655	0.000436	4.362277	0.738990	-0.008724
1259	6.2900e-01	7.4170	15.602122	0.000175	1.753464	0.297045	-0.003507
1260	6.2950e-01	7.4063	15.557649	0.000445	4.447812	0.753480	-0.008895
1261	6.3000e-01	7.3962	15.547386	0.000103	1.026418	0.173880	-0.002053
1262	6.3050e-01	7.3871	15.534130	0.000133	1.325790	0.224595	-0.002651
1263	6.3100e-01	7.3761	15.497354	0.000368	3.677998	0.623070	-0.007355
1264	6.3150e-01	7.3654	15.461006	0.000364	3.635231	0.615825	-0.007270
1265	6.3200e-01	7.3566	15.428934	0.000321	3.207557	0.543375	-0.006414
1266	6.3250e-01	7.3456	15.390020	0.000389	3.891835	0.659295	-0.007783
1267	6.3300e-01	7.3346	15.359658	0.000304	3.036487	0.514395	-0.006072
1268	6.3350e-01	7.3273	15.349395	0.000103	1.026418	0.173880	-0.002053
1269	6.3400e-01	7.3172	15.334429	0.000150	1.496860	0.253575	-0.002993
1270	6.3450e-01	7.3077	15.278837	0.000556	5.559765	0.941850	-0.011118
1271	6.3500e-01	7.2961	15.258739	0.000201	2.010069	0.340515	-0.004020
1272	6.3550e-01	7.2878	15.227522	0.000312	3.122022	0.528885	-0.006243
1273	6.3600e-01	7.2763	15.199727	0.000278	2.779882	0.470925	-0.005559
1274	6.3650e-01	7.2662	15.159102	0.000406	4.062905	0.688275	-0.008125
1275	6.3700e-01	7.2577	15.140714	0.000184	1.838999	0.311535	-0.003678
1276	6.3750e-01	7.2449	15.097097	0.000436	4.362277	0.738990	-0.008724
1277	6.3800e-01	7.2380	15.073577	0.000235	2.352208	0.398475	-0.004704
1278	6.3850e-01	7.2263	15.041078	0.000325	3.250324	0.550620	-0.006500
1279	6.3900e-01	7.2156	15.016275	0.000248	2.480510	0.420210	-0.004960
1280	6.3950e-01	7.2058	15.008578	0.000077	0.769814	0.130410	-0.001539
1281	6.4000e-01	7.1957	14.973085	0.000355	3.549696	0.601335	-0.007099
1282	6.4050e-01	7.1866	14.940158	0.000329	3.293091	0.557865	-0.006585
1283	6.4100e-01	7.1802	14.915783	0.000244	2.437743	0.412965	-0.004875
1284	6.4150e-01	7.1667	14.870883	0.000449	4.490579	0.760725	-0.008980
1285	6.4200e-01	7.1545	14.846080	0.000248	2.480510	0.420210	-0.004960
1286	6.4250e-01	7.1460	14.829831	0.000163	1.625162	0.275310	-0.003250
1287	6.4300e-01	7.1358	14.822133	0.000077	0.769814	0.130410	-0.001539
1288	6.4350e-01	7.1265	14.750292	0.000718	7.184927	1.217160	-0.014368
1289	6.4400e-01	7.1167	14.737891	0.000124	1.240255	0.210105	-0.002480
1290	6.4450e-01	7.1054	14.695556	0.000423	4.233975	0.717255	-0.008467
1291	6.4500e-01	7.0978	14.669899	0.000257	2.566045	0.434700	-0.005132
1292	6.4550e-01	7.0856	14.642103	0.000278	2.779882	0.470925	-0.005559
1293	6.4600e-01	7.0776	14.582663	0.000594	5.944672	1.007055	-0.011888
1294	6.4650e-01	7.0648	14.584374	-0.000017	-0.171070	-0.028980	0.000342
1295	6.4700e-01	7.0532	14.554012	0.000304	3.036487	0.514395	-0.006072
1296	6.4750e-01	7.0465	14.517237	0.000368	3.677998	0.623070	-0.007355
1297	6.4800e-01	7.0386	14.492862	0.000244	2.437743	0.412965	-0.004875
1298	6.4850e-01	7.0239	14.462928	0.000299	2.993720	0.507150	-0.005987
1299	6.4900e-01	7.0178	14.410758	0.000522	5.217625	0.883890	-0.010434
1300	6.4950e-01	7.0062	14.423587	-0.000128	-1.283023	-0.217350	0.002566
1301	6.5000e-01	6.9958	14.365857	0.000577	5.773602	0.978075	-0.011546
1302	6.5050e-01	6.9861	14.337206	0.000287	2.865417	0.485415	-0.005730
1303	6.5100e-01	6.9751	14.324378	0.000128	1.283023	0.217350	-0.002566
1304	6.5150e-01	6.9666	14.277339	0.000470	4.704416	0.796950	-0.009408
1305	6.5200e-01	6.9574	14.243556	0.000338	3.378626	0.572355	-0.006756
1306	6.5250e-01	6.9440	14.220892	0.000227	2.266673	0.383985	-0.004533
1307	6.5300e-01	6.9342	14.193952	0.000269	2.694348	0.456435	-0.005388
1308	6.5350e-01	6.9275	14.170860	0.000231	2.309441	0.391230	-0.004618
1309	6.5400e-01	6.9171	14.140071	0.000308	3.079254	0.521640	-0.006158
1310	6.5450e-01	6.9043	14.101157	0.000389	3.891835	0.659295	-0.007783
1311	6.5500e-01	6.8927	14.084052	0.000171	1.710697	0.289800	-0.003421
1312	6.5550e-01	6.8839	14.047704	0.000364	3.635231	0.615825	-0.007270
1313	6.5600e-01	6.8750	14.021619	0.000261	2.608813	0.441945	-0.005217
1314	6.5650e-01	6.8649	13.979284	0.000423	4.233975	0.717255	-0.008467
1315	6.5700e-01	6.8567	13.935666	0.000436	4.362277	0.738990	-0.008724
1316	6.5750e-01	6.8445	13.912574	0.000231	2.309441	0.391230	-0.004618
1317	6.5800e-01	6.8359	13.885206	0.000274	2.737115	0.463680	-0.005474
1318	6.5850e-01	6.8265	13.853562	0.000316	3.164789	0.536130	-0.006329
1319	6.5900e-01	6.8140	13.845865	0.000077	0.769814	0.130410	-0.001539
1320	6.5950e-01	6.8048	13.794978	0.000509	5.089323	0.862155	-0.010177
1321	6.6000e-01	6.7946	13.785142	0.000098	0.983651	0.166635	-0.001967
1322	6.6050e-01	6.7859	13.738531	0.000466	4.661649	0.789705	-0.009322
1323	6.6100e-01	6.7767	13.715012	0.000235	2.352208	0.398475	-0.004704
1324	6.6150e-01	6.7664	13.670111	0.000449	4.490579	0.760725	-0.008980
1325	6.6200e-01	6.7538	13.632480	0.000376	3.763533	0.637560	-0.007526
1326	6.6250e-01	6.7456	13.602119	0.000304	3.036487	0.514395	-0.006072
1327	6.6300e-01	6.7371	13.593994	0.000081	0.812581	0.137655	-0.001625
1328	6.6350e-01	6.7264	13.538402	0.000556	5.559765	0.941850	-0.011118
1329	6.6400e-01	6.7151	13.529850	0.000086	0.855348	0.144900	-0.001711
1330	6.6450e-01	6.7056	13.484949	0.000449	4.490579	0.760725	-0.008980
1331	6.6500e-01	6.6943	13.467844	0.000171	1.710697	0.289800	-0.003421
1332	6.6550e-01	6.6879	13.427647	0.000402	4.020138	0.681030	-0.008039
1333	6.6600e-01	6.6791	13.406694	0.000210	2.095604	0.355005	-0.004191
1334	6.6650e-01	6.6666	13.372484	0.000342	3.421394	0.579600	-0.006842
1335	6.6700e-01	6.6571	13.327155	0.000453	4.533347	0.767970	-0.009066
1336	6.6750e-01	6.6467	13.286103	0.000411	4.105672	0.695520	-0.008210
1337	6.6800e-01	6.6382	13.266433	0.000197	1.967301	0.333270	-0.003934
1338	6.6850e-01	6.6238	13.237782	0.000287	2.865417	0.485415	-0.005730
1339	6.6900e-01	6.6150	13.213407	0.000244	2.437743	0.412965	-0.004875
1340	6.6950e-01	6.6055	13.182191	0.000312	3.122022	0.528885	-0.006243
1341	6.7000e-01	6.5955	13.152684	0.000295	2.950952	0.499905	-0.005901
1342	6.7050e-01	6.5845	13.116764	0.000359	3.592463	0.608580	-0.007184
1343	6.7100e-01	6.5759	13.101797	0.000150	1.496860	0.253575	-0.002993
1344	6.7150e-01	6.5649	13.066732	0.000351	3.506929	0.594090	-0.007013
1345	6.7200e-01	6.5543	13.029956	0.000368	3.677998	0.623070	-0.007355
1346	6.7250e-01	6.5448	13.011568	0.000184	1.838999	0.311535	-0.003678
1347	6.7300e-01	6.5370	12.981634	0.000299	2.993720	0.507150	-0.005987
1348	6.7350e-01	6.5256	12.926043	0.000556	5.559765	0.941850	-0.011118
1349	6.7400e-01	6.5158	12.903806	0.000222	2.223906	0.376740	-0.004447
1350	6.7450e-01	6.5051	12.867031	0.000368	3.677998	0.623070	-0.007355
1351	6.7500e-01	6.4966	12.840090	0.000269	2.694348	0.456435	-0.005388
1352	6.7550e-01	6.4841	12.820420	0.000197	1.967301	0.333270	-0.003934
1353	6.7600e-01	6.4743	12.792196	0.000282	2.822650	0.478170	-0.005645
1354	6.7650e-01	6.4673	12.757559	0.000346	3.464161	0.586845	-0.006928
1355	6.7700e-01	6.4551	12.719928	0.000376	3.763533	0.637560	-0.007526
1356	6.7750e-01	6.4468	12.669895	0.000500	5.003788	0.847665	-0.010006
1357	6.7800e-01	6.4365	12.641672	0.000282	2.822650	0.478170	-0.005645
1358	6.7850e-01	6.4252	12.618153	0.000235	2.352208	0.398475	-0.004704
1359	6.7900e-01	6.4148	12.605324	0.000128	1.283023	0.217350	-0.002566
1360	6.7950e-01	6.4056	12.566838	0.000385	3.849068	0.652050	-0.007697
1361	6.8000e-01	6.3959	12.518944	0.000479	4.789951	0.811440	-0.009579
1362	6.8050e-01	6.3867	12.494569	0.000244	2.437743	0.412965	-0.004875
1363	6.8100e-01	6.3748	12.459504	0.000351	3.506929	0.594090	-0.007013
1364	6.8150e-01	6.3644	12.435984	0.000235	2.352208	0.398475	-0.004704
1365	6.8200e-01	6.3556	12.420162	0.000158	1.582395	0.268065	-0.003164
1366	6.8250e-01	6.3458	12.360722	0.000594	5.944672	1.007055	-0.011888
1367	6.8300e-01	6.3333	12.339341	0.000214	2.138371	0.362250	-0.004276
1368	6.8350e-01	6.3260	12.308552	0.000308	3.079254	0.521640	-0.006158
1369	6.8400e-01	6.3165	12.264934	0.000436	4.362277	0.738990	-0.008724
1370	6.8450e-01	6.3052	12.265790	-0.000009	-0.085535	-0.014490	0.000171
1371	6.8500e-01	6.2923	12.246974	0.000188	1.881767	0.318780	-0.003763
1372	6.8550e-01	6.2836	12.183258	0.000637	6.372346	1.079505	-0.012743
1373	6.8600e-01	6.2756	12.161449	0.000218	2.181139	0.369495	-0.004362
1374	6.8650e-01	6.2662	12.110134	0.000513	5.132091	0.869400	-0.010263
1375	6.8700e-01	6.2570	12.084476	0.000257	2.566045	0.434700	-0.005132
1376	6.8750e-01	6.2457	12.049411	0.000351	3.506929	0.594090	-0.007013
1377	6.8800e-01	6.2381	12.016484	0.000329	3.293091	0.557865	-0.006585
1378	6.8850e-01	6.2234	12.001090	0.000154	1.539627	0.260820	-0.003079
1379	6.8900e-01	6.2161	11.950630	0.000505	5.046556	0.854910	-0.010092
1380	6.8950e-01	6.2091	11.922834	0.000278	2.779882	0.470925	-0.005559
1381	6.9000e-01	6.1969	11.874512	0.000483	4.832719	0.818685	-0.009664
1382	6.9050e-01	6.1859	11.867670	0.000068	0.684279	0.115920	-0.001368
1383	6.9100e-01	6.1761	11.824053	0.000436	4.362277	0.738990	-0.008724
1384	6.9150e-01	6.1688	11.830039	-0.000060	-0.598744	-0.101430	0.001197
1385	6.9200e-01	6.1575	11.750501	0.000795	7.954740	1.347570	-0.015908
1386	6.9250e-01	6.1450	11.723133	0.000274	2.737115	0.463680	-0.005474
1387	6.9300e-01	6.1340	11.716719	0.000064	0.641511	0.108675	-0.001283
1388	6.9350e-01	6.1261	11.682936	0.000338	3.378626	0.572355	-0.006756
1389	6.9400e-01	6.1163	11.638463	0.000445	4.447812	0.753480	-0.008895
1390	6.9450e-01	6.1060	11.602115	0.000364	3.635231	0.615825	-0.007270
1391	6.9500e-01	6.0934	11.557214	0.000449	4.490579	0.760725	-0.008980
1392	6.9550e-01	6.0852	11.539682	0.000175	1.753464	0.297045	-0.003507
1393	6.9600e-01	6.0760	11.489650	0.000500	5.003788	0.847665	-0.010006
1394	6.9650e-01	6.0657	11.475538	0.000141	1.411325	0.239085	-0.002822
1395	6.9700e-01	6.0536	11.425506	0.000500	5.003788	0.847665	-0.010006
1396	6.9750e-01	6.0462	11.409256	0.000163	1.625162	0.275310	-0.003250
1397	6.9800e-01	6.0352	11.384881	0.000244	2.437743	0.412965	-0.004875
1398	6.9850e-01	6.0236	11.332711	0.000522	5.217625	0.883890	-0.010434
1399	6.9900e-01	6.0168	11.292514	0.000402	4.020138	0.681030	-0.008039
1400	6.9950e-01	6.0031	11.276265	0.000163	1.625162	0.275310	-0.003250
1401	7.0000e-01	5.9961	11.239061	0.000372	3.720766	0.630315	-0.007441
1402	7.0050e-01	5.9836	11.214687	0.000244	2.437743	0.412965	-0.004875
1403	7.0100e-01	5.9760	11.173207	0.000415	4.148440	0.702765	-0.008296
1404	7.0150e-01	5.9644	11.153536	0.000197	1.967301	0.333270	-0.003934
1405	7.0200e-01	5.9549	11.131727	0.000218	2.181139	0.369495	-0.004362
1406	7.0250e-01	5.9433	11.074426	0.000573	5.730835	0.970830	-0.011460
1407	7.0300e-01	5.9329	11.053900	0.000205	2.052836	0.347760	-0.004105
1408	7.0350e-01	5.9253	11.017124	0.000368	3.677998	0.623070	-0.007355
1409	7.0400e-01	5.9146	10.984624	0.000325	3.250324	0.550620	-0.006500
1410	7.0450e-01	5.9064	10.961532	0.000231	2.309441	0.391230	-0.004618
1411	7.0500e-01	5.8960	10.928178	0.000334	3.335859	0.565110	-0.006671
1412	7.0550e-01	5.8838	10.879856	0.000483	4.832719	0.818685	-0.009664
1413	7.0600e-01	5.8759	10.857192	0.000227	2.266673	0.383985	-0.004533
1414	7.0650e-01	5.8664	10.832817	0.000244	2.437743	0.412965	-0.004875
1415	7.0700e-01	5.8557	10.780647	0.000522	5.217625	0.883890	-0.010434
1416	7.0750e-01	5.8459	10.747720	0.000329	3.293091	0.557865	-0.006585
1417	7.0800e-01	5.8365	10.727621	0.000201	2.010069	0.340515	-0.004020
1418	7.0850e-01	5.8258	10.712655	0.000150	1.496860	0.253575	-0.002993
1419	7.0900e-01	5.8176	10.644235	0.000684	6.842787	1.159200	-0.013684
1420	7.0950e-01	5.8051	10.619005	0.000252	2.523278	0.427455	-0.005046
1421	7.1000e-01	5.7971	10.577953	0.000411	4.105672	0.695520	-0.008210
1422	7.1050e-01	5.7874	10.551867	0.000261	2.608813	0.441945	-0.005217
1423	7.1100e-01	5.7741	10.517657	0.000342	3.421394	0.579600	-0.006842
1424	7.1150e-01	5.7651	10.484730	0.000329	3.293091	0.557865	-0.006585
1425	7.1200e-01	5.7565	10.442823	0.000419	4.191207	0.710010	-0.008381
1426	7.1250e-01	5.7468	10.415883	0.000269	2.694348	0.456435	-0.005388
1427	7.1300e-01	5.7367	10.395357	0.000205	2.052836	0.347760	-0.004105
1428	7.1350e-01	5.7263	10.347890	0.000475	4.747184	0.804195	-0.009493
1429	7.1400e-01	5.7154	10.300851	0.000470	4.704416	0.796950	-0.009408
1430	7.1450e-01	5.7068	10.273483	0.000274	2.737115	0.463680	-0.005474
1431	7.1500e-01	5.6949	10.241412	0.000321	3.207557	0.543375	-0.006414
1432	7.1550e-01	5.6842	10.217892	0.000235	2.352208	0.398475	-0.004704
1433	7.1600e-01	5.6781	10.181544	0.000364	3.635231	0.615825	-0.007270
1434	7.1650e-01	5.6638	10.158025	0.000235	2.352208	0.398475	-0.004704
1435	7.1700e-01	5.6570	10.112696	0.000453	4.533347	0.767970	-0.009066
1436	7.1750e-01	5.6428	10.086611	0.000261	2.608813	0.441945	-0.005217
1437	7.1800e-01	5.6364	10.045987	0.000406	4.062905	0.688275	-0.008125
1438	7.1850e-01	5.6271	9.985264	0.000607	6.072974	1.028790	-0.012145
1439	7.1900e-01	5.6161	9.986119	-0.000009	-0.085535	-0.014490	0.000171
1440	7.1950e-01	5.6061	9.942501	0.000436	4.362277	0.738990	-0.008724
1441	7.2000e-01	5.5927	9.908291	0.000342	3.421394	0.579600	-0.006842
1442	7.2050e-01	5.5835	9.867667	0.000406	4.062905	0.688275	-0.008125
1443	7.2100e-01	5.5762	9.833029	0.000346	3.464161	0.586845	-0.006928
1444	7.2150e-01	5.5658	9.809510	0.000235	2.352208	0.398475	-0.004704
1445	7.2200e-01	5.5566	9.769741	0.000398	3.977370	0.673785	-0.007954
1446	7.2250e-01	5.5481	9.742800	0.000269	2.694348	0.456435	-0.005388
1447	7.2300e-01	5.5359	9.721419	0.000214	2.138371	0.362250	-0.004276
1448	7.2350e-01	5.5228	9.674808	0.000466	4.661649	0.789705	-0.009322
1449	7.2400e-01	5.5147	9.647440	0.000274	2.737115	0.463680	-0.005474
1450	7.2450e-01	5.5042	9.589711	0.000577	5.773602	0.978075	-0.011546
1451	7.2500e-01	5.4965	9.584579	0.000051	0.513209	0.086940	-0.001026
1452	7.2550e-01	5.4852	9.547803	0.000368	3.677998	0.623070	-0.007355
1453	7.2600e-01	5.4758	9.508034	0.000398	3.977370	0.673785	-0.007954
1454	7.2650e-01	5.4636	9.487936	0.000201	2.010069	0.340515	-0.004020
1455	7.2700e-01	5.4567	9.434910	0.000530	5.303160	0.898380	-0.010605
1456	7.2750e-01	5.4456	9.382312	0.000526	5.260393	0.891135	-0.010520
1457	7.2800e-01	5.4358	9.376326	0.000060	0.598744	0.101430	-0.001197
1458	7.2850e-01	5.4248	9.339977	0.000364	3.635231	0.615825	-0.007270
1459	7.2900e-01	5.4166	9.277117	0.000629	6.286811	1.065015	-0.012572
1460	7.2950e-01	5.4062	9.247610	0.000295	2.950952	0.499905	-0.005901
1461	7.3000e-01	5.3961	9.225801	0.000218	2.181139	0.369495	-0.004362
1462	7.3050e-01	5.3860	9.187315	0.000385	3.849068	0.652050	-0.007697
1463	7.3100e-01	5.3769	9.158664	0.000287	2.865417	0.485415	-0.005730
1464	7.3150e-01	5.3665	9.122744	0.000359	3.592463	0.608580	-0.007184
1465	7.3200e-01	5.3546	9.077843	0.000449	4.490579	0.760725	-0.008980
1466	7.3250e-01	5.3491	9.056890	0.000210	2.095604	0.355005	-0.004191
1467	7.3300e-01	5.3363	9.029094	0.000278	2.779882	0.470925	-0.005559
1468	7.3350e-01	5.3232	8.994029	0.000351	3.506929	0.594090	-0.007013
1469	7.3400e-01	5.3139	8.947845	0.000462	4.618882	0.782460	-0.009237
1470	7.3450e-01	5.3069	8.902517	0.000453	4.533347	0.767970	-0.009066
1471	7.3500e-01	5.2975	8.875149	0.000274	2.737115	0.463680	-0.005474
1472	7.3550e-01	5.2850	8.839656	0.000355	3.549696	0.601335	-0.007099
1473	7.3600e-01	5.2740	8.814854	0.000248	2.480510	0.420210	-0.004960
1474	7.3650e-01	5.2649	8.768670	0.000462	4.618882	0.782460	-0.009237
1475	7.3700e-01	5.2541	8.732750	0.000359	3.592463	0.608580	-0.007184
1476	7.3750e-01	5.2463	8.696829	0.000359	3.592463	0.608580	-0.007184
1477	7.3800e-01	5.2365	8.670316	0.000265	2.651580	0.449190	-0.005303
1478	7.3850e-01	5.2246	8.627981	0.000423	4.233975	0.717255	-0.008467
1479	7.3900e-01	5.2171	8.589495	0.000385	3.849068	0.652050	-0.007697
1480	7.3950e-01	5.2045	8.586929	0.000026	0.256605	0.043470	-0.000513
1481	7.4000e-01	5.1965	8.524068	0.000629	6.286811	1.065015	-0.012572
1482	7.4050e-01	5.1849	8.509529	0.000145	1.454092	0.246330	-0.002908
1483	7.4100e-01	5.1764	8.461207	0.000483	4.832719	0.818685	-0.009664
1484	7.4150e-01	5.1643	8.427853	0.000334	3.335859	0.565110	-0.006671
1485	7.4200e-01	5.1572	8.376965	0.000509	5.089323	0.862155	-0.010177
1486	7.4250e-01	5.1437	8.343183	0.000338	3.378626	0.572355	-0.006756
1487	7.4300e-01	5.1357	8.319664	0.000235	2.352208	0.398475	-0.004704
1488	7.4350e-01	5.1233	8.291440	0.000282	2.822650	0.478170	-0.005645
1489	7.4400e-01	5.1155	8.239698	0.000517	5.174858	0.876645	-0.010349
1490	7.4450e-01	5.1063	8.205488	0.000342	3.421394	0.579600	-0.006842
1491	7.4500e-01	5.0958	8.180258	0.000252	2.523278	0.427455	-0.005046
1492	7.4550e-01	5.0867	8.146048	0.000342	3.421394	0.579600	-0.006842
1493	7.4600e-01	5.0726	8.107134	0.000389	3.891835	0.659295	-0.007783
1494	7.4650e-01	5.0641	8.072924	0.000342	3.421394	0.579600	-0.006842
1495	7.4700e-01	5.0562	8.027595	0.000453	4.533347	0.767970	-0.009066
1496	7.4750e-01	5.0418	7.999372	0.000282	2.822650	0.478170	-0.005645
1497	7.4800e-01	5.0339	7.959175	0.000402	4.020138	0.681030	-0.008039
1498	7.4850e-01	5.0287	7.922400	0.000368	3.677998	0.623070	-0.007355
1499	7.4900e-01	5.0165	7.892038	0.000304	3.036487	0.514395	-0.006072
1500	7.4950e-01	5.0056	7.837302	0.000547	5.474230	0.927360	-0.010947
1501	7.5000e-01	4.9954	7.821480	0.000158	1.582395	0.268065	-0.003164
1502	7.5050e-01	4.9868	7.776579	0.000449	4.490579	0.760725	-0.008980
1503	7.5100e-01	4.9777	7.738093	0.000385	3.849068	0.652050	-0.007697
1504	7.5150e-01	4.9670	7.718850	0.000192	1.924534	0.326025	-0.003849
1505	7.5200e-01	4.9545	7.700035	0.000188	1.881767	0.318780	-0.003763
1506	7.5250e-01	4.9483	7.646581	0.000535	5.345928	0.905625	-0.010691
1507	7.5300e-01	4.9359	7.610661	0.000359	3.592463	0.608580	-0.007184
1508	7.5350e-01	4.9249	7.572602	0.000381	3.806301	0.644805	-0.007612
1509	7.5400e-01	4.9146	7.540958	0.000316	3.164789	0.536130	-0.006329
1510	7.5450e-01	4.9054	7.490070	0.000509	5.089323	0.862155	-0.010177
1511	7.5500e-01	4.8947	7.459709	0.000304	3.036487	0.514395	-0.006072
1512	7.5550e-01	4.8860	7.433196	0.000265	2.651580	0.449190	-0.005303
1513	7.5600e-01	4.8755	7.398131	0.000351	3.506929	0.594090	-0.007013
1514	7.5650e-01	4.8669	7.343395	0.000547	5.474230	0.927360	-0.010947
1515	7.5700e-01	4.8566	7.320731	0.000227	2.266673	0.383985	-0.004533
1516	7.5750e-01	4.8477	7.285666	0.000351	3.506929	0.594090	-0.007013
1517	7.5800e-01	4.8361	7.230930	0.000547	5.474230	0.927360	-0.010947
1518	7.5850e-01	4.8264	7.210404	0.000205	2.052836	0.347760	-0.004105
1519	7.5900e-01	4.8145	7.165075	0.000453	4.533347	0.767970	-0.009066
1520	7.5950e-01	4.8074	7.138563	0.000265	2.651580	0.449190	-0.005303
1521	7.6000e-01	4.7955	7.085109	0.000535	5.345928	0.905625	-0.010691
1522	7.6050e-01	4.7859	7.062018	0.000231	2.309441	0.391230	-0.004618
1523	7.6100e-01	4.7754	7.029946	0.000321	3.207557	0.543375	-0.006414
1524	7.6150e-01	4.7644	7.004288	0.000257	2.566045	0.434700	-0.005132
1525	7.6200e-01	4.7566	6.961953	0.000423	4.233975	0.717255	-0.008467
1526	7.6250e-01	4.7479	6.920901	0.000411	4.105672	0.695520	-0.008210
1527	7.6300e-01	4.7353	6.870869	0.000500	5.003788	0.847665	-0.010006
1528	7.6350e-01	4.7236	6.843073	0.000278	2.779882	0.470925	-0.005559
1529	7.6400e-01	4.7165	6.793897	0.000492	4.918254	0.833175	-0.009835
1530	7.6450e-01	4.7052	6.755410	0.000385	3.849068	0.652050	-0.007697
1531	7.6500e-01	4.6970	6.716496	0.000389	3.891835	0.659295	-0.007783
1532	7.6550e-01	4.6837	6.686135	0.000304	3.036487	0.514395	-0.006072
1533	7.6600e-01	4.6777	6.657912	0.000282	2.822650	0.478170	-0.005645
1534	7.6650e-01	4.6646	6.609590	0.000483	4.832719	0.818685	-0.009664
1535	7.6700e-01	4.6579	6.576663	0.000329	3.293091	0.557865	-0.006585
1536	7.6750e-01	4.6466	6.542881	0.000338	3.378626	0.572355	-0.006756
1537	7.6800e-01	4.6350	6.497980	0.000449	4.490579	0.760725	-0.008980
1538	7.6850e-01	4.6257	6.466336	0.000316	3.164789	0.536130	-0.006329
1539	7.6900e-01	4.6152	6.431270	0.000351	3.506929	0.594090	-0.007013
1540	7.6950e-01	4.6057	6.385942	0.000453	4.533347	0.767970	-0.009066
1541	7.7000e-01	4.5966	6.351304	0.000346	3.464161	0.586845	-0.006928
1542	7.7050e-01	4.5869	6.314529	0.000368	3.677998	0.623070	-0.007355
1543	7.7100e-01	4.5738	6.297424	0.000171	1.710697	0.289800	-0.003421
1544	7.7150e-01	4.5642	6.256799	0.000406	4.062905	0.688275	-0.008125
1545	7.7200e-01	4.5532	6.197359	0.000594	5.944672	1.007055	-0.011888
1546	7.7250e-01	4.5444	6.174268	0.000231	2.309441	0.391230	-0.004618
1547	7.7300e-01	4.5345	6.123808	0.000505	5.046556	0.854910	-0.010092
1548	7.7350e-01	4.5236	6.084039	0.000398	3.977370	0.673785	-0.007954
1549	7.7400e-01	4.5145	6.079762	0.000043	0.427674	0.072450	-0.000855
1550	7.7450e-01	4.5038	6.021605	0.000582	5.816369	0.985320	-0.011631
1551	7.7500e-01	4.4943	5.983119	0.000385	3.849068	0.652050	-0.007697
1552	7.7550e-01	4.4855	5.941212	0.000419	4.191207	0.710010	-0.008381
1553	7.7600e-01	4.4748	5.925390	0.000158	1.582395	0.268065	-0.003164
1554	7.7650e-01	4.4664	5.871936	0.000535	5.345928	0.905625	-0.010691
1555	7.7700e-01	4.4554	5.843713	0.000282	2.822650	0.478170	-0.005645
1556	7.7750e-01	4.4452	5.791971	0.000517	5.174858	0.876645	-0.010349
1557	7.7800e-01	4.4373	5.752201	0.000398	3.977370	0.673785	-0.007954
1558	7.7850e-01	4.4272	5.724833	0.000274	2.737115	0.463680	-0.005474
1559	7.7900e-01	4.4174	5.682498	0.000423	4.233975	0.717255	-0.008467
1560	7.7950e-01	4.4043	5.634604	0.000479	4.789951	0.811440	-0.009579
1561	7.8000e-01	4.3948	5.607236	0.000274	2.737115	0.463680	-0.005474
1562	7.8050e-01	4.3848	5.553356	0.000539	5.388695	0.912870	-0.010776
1563	7.8100e-01	4.3744	5.527270	0.000261	2.608813	0.441945	-0.005217
1564	7.8150e-01	4.3631	5.506317	0.000210	2.095604	0.355005	-0.004191
1565	7.8200e-01	4.3555	5.470824	0.000355	3.549696	0.601335	-0.007099
1566	7.8250e-01	4.3451	5.411384	0.000594	5.944672	1.007055	-0.011888
1567	7.8300e-01	4.3341	5.377174	0.000342	3.421394	0.579600	-0.006842
1568	7.8350e-01	4.3250	5.325431	0.000517	5.174858	0.876645	-0.010349
1569	7.8400e-01	4.3146	5.301484	0.000239	2.394976	0.405720	-0.004789
1570	7.8450e-01	4.3054	5.268985	0.000325	3.250324	0.550620	-0.006500
1571	7.8500e-01	4.2934	5.205696	0.000633	6.329578	1.072260	-0.012658
1572	7.8550e-01	4.2845	5.201848	0.000038	0.384907	0.065205	-0.000770
1573	7.8600e-01	4.2728	5.154809	0.000470	4.704416	0.796950	-0.009408
1574	7.8650e-01	4.2665	5.098362	0.000565	5.645300	0.956340	-0.011289
1575	7.8700e-01	4.2548	5.084251	0.000141	1.411325	0.239085	-0.002822
1576	7.8750e-01	4.2432	5.047047	0.000372	3.720766	0.630315	-0.007441
1577	7.8800e-01	4.2319	4.996160	0.000509	5.089323	0.862155	-0.010177
1578	7.8850e-01	4.2261	4.944845	0.000513	5.132091	0.869400	-0.010263
1579	7.8900e-01	4.2151	4.899089	0.000458	4.576114	0.775215	-0.009151
1580	7.8950e-01	4.2068	4.882412	0.000167	1.667929	0.282555	-0.003335
1581	7.9000e-01	4.2007	4.837939	0.000445	4.447812	0.753480	-0.008895
1582	7.9050e-01	4.1837	4.812709	0.000252	2.523278	0.427455	-0.005046
1583	7.9100e-01	4.1737	4.728466	0.000843	8.425182	1.427264	-0.016848
1584	7.9150e-01	4.1652	4.714355	0.000141	1.411325	0.239085	-0.002822
1585	7.9200e-01	4.1559	4.699388	0.000150	1.496860	0.253575	-0.002993
1586	7.9250e-01	4.1446	4.648073	0.000513	5.132091	0.869400	-0.010263
1587	7.9300e-01	4.1353	4.608304	0.000398	3.977370	0.673785	-0.007954
1588	7.9350e-01	4.1255	4.547581	0.000607	6.072974	1.028790	-0.012145
1589	7.9400e-01	4.1159	4.509522	0.000381	3.806301	0.644805	-0.007612
1590	7.9450e-01	4.1042	4.484720	0.000248	2.480510	0.420210	-0.004960
1591	7.9500e-01	4.0948	4.443240	0.000415	4.148440	0.702765	-0.008296
1592	7.9550e-01	4.0842	4.395346	0.000479	4.789951	0.811440	-0.009579
1593	7.9600e-01	4.0746	4.370116	0.000252	2.523278	0.427455	-0.005046
1594	7.9650e-01	4.0641	4.337189	0.000329	3.293091	0.557865	-0.006585
1595	7.9700e-01	4.0552	4.309821	0.000274	2.737115	0.463680	-0.005474
1596	7.9750e-01	4.0456	4.259789	0.000500	5.003788	0.847665	-0.010006
1597	7.9800e-01	4.0344	4.212323	0.000475	4.747184	0.804195	-0.009493
1598	7.9850e-01	4.0247	4.171271	0.000411	4.105672	0.695520	-0.008210
1599	7.9900e-01	4.0155	4.140482	0.000308	3.079254	0.521640	-0.006158
1600	7.9950e-01	4.0045	4.091305	0.000492	4.918254	0.833175	-0.009835
1601	8.0000e-01	3.9972	4.050253	0.000411	4.105672	0.695520	-0.008210
1602	8.0050e-01	3.9877	4.020747	0.000295	2.950952	0.499905	-0.005901
1603	8.0100e-01	3.9749	3.980977	0.000398	3.977370	0.673785	-0.007954
1604	8.0150e-01	3.9627	3.962162	0.000188	1.881767	0.318780	-0.003763
1605	8.0200e-01	3.9554	3.898446	0.000637	6.372346	1.079505	-0.012743
1606	8.0250e-01	3.9466	3.849697	0.000488	4.875486	0.825930	-0.009750
1607	8.0300e-01	3.9340	3.825322	0.000244	2.437743	0.412965	-0.004875
1608	8.0350e-01	3.9240	3.787691	0.000376	3.763533	0.637560	-0.007526
1609	8.0400e-01	3.9185	3.746211	0.000415	4.148440	0.702765	-0.008296
1610	8.0450e-01	3.9056	3.708580	0.000376	3.763533	0.637560	-0.007526
1611	8.0500e-01	3.8911	3.648285	0.000603	6.030206	1.021545	-0.012059
1612	8.0550e-01	3.8843	3.618779	0.000295	2.950952	0.499905	-0.005901
1613	8.0600e-01	3.8785	3.567464	0.000513	5.132091	0.869400	-0.010263
1614	8.0650e-01	3.8661	3.541806	0.000257	2.566045	0.434700	-0.005132
1615	8.0700e-01	3.8541	3.504603	0.000372	3.720766	0.630315	-0.007441
1616	8.0750e-01	3.8440	3.462268	0.000423	4.233975	0.717255	-0.008467
1617	8.0800e-01	3.8335	3.413946	0.000483	4.832719	0.818685	-0.009664
1618	8.0850e-01	3.8263	3.365625	0.000483	4.832719	0.818685	-0.009664
1619	8.0900e-01	3.8159	3.320296	0.000453	4.533347	0.767970	-0.009066
1620	8.0950e-01	3.8062	3.307468	0.000128	1.283023	0.217350	-0.002566
1621	8.1000e-01	3.7952	3.270264	0.000372	3.720766	0.630315	-0.007441
1622	8.1050e-01	3.7831	3.229640	0.000406	4.062905	0.688275	-0.008125
1623	8.1100e-01	3.7720	3.180891	0.000488	4.875486	0.825930	-0.009750
1624	8.1150e-01	3.7650	3.133852	0.000470	4.704416	0.796950	-0.009408
1625	8.1200e-01	3.7561	3.097504	0.000364	3.635231	0.615825	-0.007270
1626	8.1250e-01	3.7460	3.062011	0.000355	3.549696	0.601335	-0.007099
1627	8.1300e-01	3.7357	3.013261	0.000488	4.875486	0.825930	-0.009750
1628	8.1350e-01	3.7253	2.976913	0.000364	3.635231	0.615825	-0.007270
1629	8.1400e-01	3.7183	2.942703	0.000342	3.421394	0.579600	-0.006842
1630	8.1450e-01	3.7041	2.878987	0.000637	6.372346	1.079505	-0.012743
1631	8.1500e-01	3.6995	2.852902	0.000261	2.608813	0.441945	-0.005217
1632	8.1550e-01	3.6852	2.810567	0.000423	4.233975	0.717255	-0.008467
1633	8.1600e-01	3.6771	2.783199	0.000274	2.737115	0.463680	-0.005474
1634	8.1650e-01	3.6646	2.726753	0.000565	5.645300	0.956340	-0.011289
1635	8.1700e-01	3.6554	2.686556	0.000402	4.020138	0.681030	-0.008039
1636	8.1750e-01	3.6464	2.654912	0.000316	3.164789	0.536130	-0.006329
1637	8.1800e-01	3.6353	2.616425	0.000385	3.849068	0.652050	-0.007697
1638	8.1850e-01	3.6243	2.571525	0.000449	4.490579	0.760725	-0.008980
1639	8.1900e-01	3.6139	2.536459	0.000351	3.506929	0.594090	-0.007013
1640	8.1950e-01	3.6063	2.473171	0.000633	6.329578	1.072260	-0.012658
1641	8.2000e-01	3.5948	2.435967	0.000372	3.720766	0.630315	-0.007441
1642	8.2050e-01	3.5864	2.404323	0.000316	3.164789	0.536130	-0.006329
1643	8.2100e-01	3.5771	2.358140	0.000462	4.618882	0.782460	-0.009237
1644	8.2150e-01	3.5632	2.340179	0.000180	1.796232	0.304290	-0.003592
1645	8.2200e-01	3.5593	2.293141	0.000470	4.704416	0.796950	-0.009408
1646	8.2250e-01	3.5455	2.257648	0.000355	3.549696	0.601335	-0.007099
1647	8.2300e-01	3.5342	2.197352	0.000603	6.030206	1.021545	-0.012059
1648	8.2350e-01	3.5226	2.167419	0.000299	2.993720	0.507150	-0.005987
1649	8.2400e-01	3.5156	2.110117	0.000573	5.730835	0.970830	-0.011460
1650	8.2450e-01	3.5060	2.078045	0.000321	3.207557	0.543375	-0.006414
1651	8.2500e-01	3.4950	2.025875	0.000522	5.217625	0.883890	-0.010434
1652	8.2550e-01	3.4867	1.994658	0.000312	3.122022	0.528885	-0.006243
1653	8.2600e-01	3.4747	1.932225	0.000624	6.244044	1.057770	-0.012487
1654	8.2650e-01	3.4680	1.910416	0.000218	2.181139	0.369495	-0.004362
1655	8.2700e-01	3.4574	1.862522	0.000479	4.789951	0.811440	-0.009579
1656	8.2750e-01	3.4457	1.818904	0.000436	4.362277	0.738990	-0.008724
1657	8.2800e-01	3.4314	1.780845	0.000381	3.806301	0.644805	-0.007612
1658	8.2850e-01	3.4259	1.728248	0.000526	5.260393	0.891135	-0.010520
1659	8.2900e-01	3.4183	1.694038	0.000342	3.421394	0.579600	-0.006842
1660	8.2950e-01	3.4071	1.659400	0.000346	3.464161	0.586845	-0.006928
1661	8.3000e-01	3.3939	1.614499	0.000449	4.490579	0.760725	-0.008980
1662	8.3050e-01	3.3833	1.564039	0.000505	5.046556	0.854910	-0.010092
1663	8.3100e-01	3.3759	1.539237	0.000248	2.480510	0.420210	-0.004960
1664	8.3150e-01	3.3673	1.484074	0.000552	5.516997	0.934605	-0.011033
1665	8.3200e-01	3.3563	1.438318	0.000458	4.576114	0.775215	-0.009151
1666	8.3250e-01	3.3447	1.404963	0.000334	3.335859	0.565110	-0.006671
1667	8.3300e-01	3.3397	1.360490	0.000445	4.447812	0.753480	-0.008895
1668	8.3350e-01	3.3255	1.324997	0.000355	3.549696	0.601335	-0.007099
1669	8.3400e-01	3.3142	1.288649	0.000364	3.635231	0.615825	-0.007270
1670	8.3450e-01	3.3060	1.247169	0.000415	4.148440	0.702765	-0.008296
1671	8.3500e-01	3.2921	1.191578	0.000556	5.559765	0.941850	-0.011118
1672	8.3550e-01	3.2858	1.161644	0.000299	2.993720	0.507150	-0.005987
1673	8.3600e-01	3.2764	1.104342	0.000573	5.730835	0.970830	-0.011460
1674	8.3650e-01	3.2672	1.067566	0.000368	3.677998	0.623070	-0.007355
1675	8.3700e-01	3.2584	1.017107	0.000505	5.046556	0.854910	-0.010092
1676	8.3750e-01	3.2443	0.976482	0.000406	4.062905	0.688275	-0.008125
1677	8.3800e-01	3.2350	0.929871	0.000466	4.661649	0.789705	-0.009322
1678	8.3850e-01	3.2274	0.890102	0.000398	3.977370	0.673785	-0.007954
1679	8.3900e-01	3.2139	0.835794	0.000543	5.431463	0.920115	-0.010862
1680	8.3950e-01	3.2043	0.810136	0.000257	2.566045	0.434700	-0.005132
1681	8.4000e-01	3.1979	0.769512	0.000406	4.062905	0.688275	-0.008125
1682	8.4050e-01	3.1860	0.722473	0.000470	4.704416	0.796950	-0.009408
1683	8.4100e-01	3.1769	0.666882	0.000556	5.559765	0.941850	-0.011118
1684	8.4150e-01	3.1657	0.627540	0.000393	3.934603	0.666540	-0.007868
1685	8.4200e-01	3.1568	0.588626	0.000389	3.891835	0.659295	-0.007783
1686	8.4250e-01	3.1445	0.545008	0.000436	4.362277	0.738990	-0.008724
1687	8.4300e-01	3.1343	0.503529	0.000415	4.148440	0.702765	-0.008296
1688	8.4350e-01	3.1253	0.478299	0.000252	2.523278	0.427455	-0.005046
1689	8.4400e-01	3.1184	0.429550	0.000488	4.875486	0.825930	-0.009750
1690	8.4450e-01	3.1076	0.371820	0.000577	5.773602	0.978075	-0.011546
1691	8.4500e-01	3.0948	0.333334	0.000385	3.849068	0.652050	-0.007697
1692	8.4550e-01	3.0849	0.296558	0.000368	3.677998	0.623070	-0.007355
1693	8.4600e-01	3.0762	0.250802	0.000458	4.576114	0.775215	-0.009151
1694	8.4650e-01	3.0652	0.200770	0.000500	5.003788	0.847665	-0.010006
1695	8.4700e-01	3.0548	0.157152	0.000436	4.362277	0.738990	-0.008724
1696	8.4750e-01	3.0458	0.122087	0.000351	3.506929	0.594090	-0.007013
1697	8.4800e-01	3.0362	0.075903	0.000462	4.618882	0.782460	-0.009237
1698	8.4850e-01	3.0255	0.043404	0.000325	3.250324	0.550620	-0.006500
1699	8.4900e-01	3.0157	-0.028437	0.000718	7.184927	1.217160	-0.014368
1700	8.4950e-01	3.0082	-0.048535	0.000201	2.010069	0.340515	-0.004020
1701	8.5000e-01	2.9984	-0.098995	0.000505	5.046556	0.854910	-0.010092
1702	8.5050e-01	2.9858	-0.140047	0.000411	4.105672	0.695520	-0.008210
1703	8.5100e-01	2.9753	-0.185803	0.000458	4.576114	0.775215	-0.009151
1704	8.5150e-01	2.9645	-0.223434	0.000376	3.763533	0.637560	-0.007526
1705	8.5200e-01	2.9532	-0.264486	0.000411	4.105672	0.695520	-0.008210
1706	8.5250e-01	2.9462	-0.316657	0.000522	5.217625	0.883890	-0.010434
1707	8.5300e-01	2.9340	-0.370965	0.000543	5.431463	0.920115	-0.010862
1708	8.5350e-01	2.9263	-0.415010	0.000441	4.405044	0.746235	-0.008809
1709	8.5400e-01	2.9156	-0.441523	0.000265	2.651580	0.449190	-0.005303
1710	8.5450e-01	2.9079	-0.500108	0.000586	5.859137	0.992565	-0.011717
1711	8.5500e-01	2.8957	-0.545864	0.000458	4.576114	0.775215	-0.009151
1712	8.5550e-01	2.8839	-0.575797	0.000299	2.993720	0.507150	-0.005987
1713	8.5600e-01	2.8761	-0.635665	0.000599	5.987439	1.014300	-0.011974
1714	8.5650e-01	2.8677	-0.665599	0.000299	2.993720	0.507150	-0.005987
1715	8.5700e-01	2.8543	-0.729743	0.000642	6.415113	1.086750	-0.012829
1716	8.5750e-01	2.8470	-0.784051	0.000543	5.431463	0.920115	-0.010862
1717	8.5800e-01	2.8398	-0.805005	0.000210	2.095604	0.355005	-0.004191
1718	8.5850e-01	2.8256	-0.867438	0.000624	6.244044	1.057770	-0.012487
1719	8.5900e-01	2.8174	-0.907207	0.000398	3.977370	0.673785	-0.007954
1720	8.5950e-01	2.8031	-0.947404	0.000402	4.020138	0.681030	-0.008039
1721	8.6000e-01	2.7938	-0.971351	0.000239	2.394976	0.405720	-0.004789
1722	8.6050e-01	2.7841	-1.024376	0.000530	5.303160	0.898380	-0.010605
1723	8.6100e-01	2.7731	-1.055165	0.000308	3.079254	0.521640	-0.006158
1724	8.6150e-01	2.7664	-1.112895	0.000577	5.773602	0.978075	-0.011546
1725	8.6200e-01	2.7551	-1.155657	0.000428	4.276742	0.724500	-0.008553
1726	8.6250e-01	2.7457	-1.210393	0.000547	5.474230	0.927360	-0.010947
1727	8.6300e-01	2.7335	-1.247169	0.000368	3.677998	0.623070	-0.007355
1728	8.6350e-01	2.7252	-1.301050	0.000539	5.388695	0.912870	-0.010776
1729	8.6400e-01	2.7155	-1.346806	0.000458	4.576114	0.775215	-0.009151
1730	8.6450e-01	2.7045	-1.398548	0.000517	5.174858	0.876645	-0.010349
1731	8.6500e-01	2.6941	-1.431903	0.000334	3.335859	0.565110	-0.006671
1732	8.6550e-01	2.6880	-1.487922	0.000560	5.602532	0.949095	-0.011204
1733	8.6600e-01	2.6747	-1.531112	0.000432	4.319510	0.731745	-0.008638
1734	8.6650e-01	2.6648	-1.567033	0.000359	3.592463	0.608580	-0.007184
1735	8.6700e-01	2.6547	-1.651703	0.000847	8.467950	1.434509	-0.016934
1736	8.6750e-01	2.6440	-1.671373	0.000197	1.967301	0.333270	-0.003934
1737	8.6800e-01	2.6328	-1.706011	0.000346	3.464161	0.586845	-0.006928
1738	8.6850e-01	2.6260	-1.754333	0.000483	4.832719	0.818685	-0.009664
1739	8.6900e-01	2.6121	-1.803937	0.000496	4.961021	0.840420	-0.009921
1740	8.6950e-01	2.6056	-1.848410	0.000445	4.447812	0.753480	-0.008895
1741	8.7000e-01	2.5974	-1.885614	0.000372	3.720766	0.630315	-0.007441
1742	8.7050e-01	2.5854	-1.947619	0.000620	6.201276	1.050525	-0.012401
1743	8.7100e-01	2.5761	-1.972849	0.000252	2.523278	0.427455	-0.005046
1744	8.7150e-01	2.5660	-2.025875	0.000530	5.303160	0.898380	-0.010605
1745	8.7200e-01	2.5537	-2.086170	0.000603	6.030206	1.021545	-0.012059
1746	8.7250e-01	2.5436	-2.121663	0.000355	3.549696	0.601335	-0.007099
1747	8.7300e-01	2.5354	-2.167846	0.000462	4.618882	0.782460	-0.009237
1748	8.7350e-01	2.5247	-2.228997	0.000612	6.115741	1.036035	-0.012230
1749	8.7400e-01	2.5121	-2.257220	0.000282	2.822650	0.478170	-0.005645
1750	8.7450e-01	2.5047	-2.308107	0.000509	5.089323	0.862155	-0.010177
1751	8.7500e-01	2.4957	-2.323930	0.000158	1.582395	0.268065	-0.003164
1752	8.7550e-01	2.4878	-2.388073	0.000642	6.415113	1.086750	-0.012829
1753	8.7600e-01	2.4753	-2.442809	0.000547	5.474230	0.927360	-0.010947
1754	8.7650e-01	2.4649	-2.491559	0.000488	4.875486	0.825930	-0.009750
1755	8.7700e-01	2.4557	-2.538170	0.000466	4.661649	0.789705	-0.009322
1756	8.7750e-01	2.4458	-2.589057	0.000509	5.089323	0.862155	-0.010177
1757	8.7800e-01	2.4359	-2.631820	0.000428	4.276742	0.724500	-0.008553
1758	8.7850e-01	2.4280	-2.676293	0.000445	4.447812	0.753480	-0.008895
1759	8.7900e-01	2.4145	-2.721621	0.000453	4.533347	0.767970	-0.009066
1760	8.7950e-01	2.4052	-2.771653	0.000500	5.003788	0.847665	-0.010006
1761	8.8000e-01	2.3953	-2.786620	0.000150	1.496860	0.253575	-0.002993
1762	8.8050e-01	2.3834	-2.869579	0.000830	8.296880	1.405529	-0.016592
1763	8.8100e-01	2.3743	-2.906783	0.000372	3.720766	0.630315	-0.007441
1764	8.8150e-01	2.3649	-2.953822	0.000470	4.704416	0.796950	-0.009408
1765	8.8200e-01	2.3536	-2.990597	0.000368	3.677998	0.623070	-0.007355
1766	8.8250e-01	2.3447	-3.052603	0.000620	6.201276	1.050525	-0.012401
1767	8.8300e-01	2.3336	-3.100925	0.000483	4.832719	0.818685	-0.009664
1768	8.8350e-01	2.3274	-3.135990	0.000351	3.506929	0.594090	-0.007013
1769	8.8400e-01	2.3132	-3.211680	0.000757	7.569834	1.282365	-0.015138
1770	8.8450e-01	2.3057	-3.233061	0.000214	2.138371	0.362250	-0.004276
1771	8.8500e-01	2.2954	-3.284376	0.000513	5.132091	0.869400	-0.010263
1772	8.8550e-01	2.2865	-3.333980	0.000496	4.961021	0.840420	-0.009921
1773	8.8600e-01	2.2754	-3.377171	0.000432	4.319510	0.731745	-0.008638
1774	8.8650e-01	2.2655	-3.433190	0.000560	5.602532	0.949095	-0.011204
1775	8.8700e-01	2.2543	-3.468682	0.000355	3.549696	0.601335	-0.007099
1776	8.8750e-01	2.2455	-3.506313	0.000376	3.763533	0.637560	-0.007526
1777	8.8800e-01	2.2344	-3.589700	0.000834	8.339647	1.412774	-0.016677
1778	8.8850e-01	2.2260	-3.605523	0.000158	1.582395	0.268065	-0.003164
1779	8.8900e-01	2.2153	-3.672660	0.000671	6.714485	1.137465	-0.013427
1780	8.8950e-01	2.2066	-3.712429	0.000398	3.977370	0.673785	-0.007954
1781	8.9000e-01	2.1944	-3.758185	0.000458	4.576114	0.775215	-0.009151
1782	8.9050e-01	2.1848	-3.814631	0.000565	5.645300	0.956340	-0.011289
1783	8.9100e-01	2.1765	-3.853973	0.000393	3.934603	0.666540	-0.007868
1784	8.9150e-01	2.1632	-3.898018	0.000441	4.405044	0.746235	-0.008809
1785	8.9200e-01	2.1552	-3.949761	0.000517	5.174858	0.876645	-0.010349
1786	8.9250e-01	2.1468	-4.007063	0.000573	5.730835	0.970830	-0.011460
1787	8.9300e-01	2.1370	-4.049825	0.000428	4.276742	0.724500	-0.008553
1788	8.9350e-01	2.1259	-4.094726	0.000449	4.490579	0.760725	-0.008980
1789	8.9400e-01	2.1152	-4.135350	0.000406	4.062905	0.688275	-0.008125
1790	8.9450e-01	2.1085	-4.185810	0.000505	5.046556	0.854910	-0.010092
1791	8.9500e-01	2.0945	-4.252520	0.000667	6.671718	1.130220	-0.013342
1792	8.9550e-01	2.0860	-4.290151	0.000376	3.763533	0.637560	-0.007526
1793	8.9600e-01	2.0768	-4.341466	0.000513	5.132091	0.869400	-0.010263
1794	8.9650e-01	2.0688	-4.391070	0.000496	4.961021	0.840420	-0.009921
1795	8.9700e-01	2.0562	-4.421004	0.000299	2.993720	0.507150	-0.005987
1796	8.9750e-01	2.0477	-4.495838	0.000748	7.484299	1.267875	-0.014967
1797	8.9800e-01	2.0348	-4.531331	0.000355	3.549696	0.601335	-0.007099
1798	8.9850e-01	2.0251	-4.578798	0.000475	4.747184	0.804195	-0.009493
1799	8.9900e-01	2.0151	-4.620705	0.000419	4.191207	0.710010	-0.008381
1800	8.9950e-01	2.0050	-4.659619	0.000389	3.891835	0.659295	-0.007783
1801	9.0000e-01	1.9957	-4.726328	0.000667	6.671718	1.130220	-0.013342
1802	9.0050e-01	1.9849	-4.768663	0.000423	4.233975	0.717255	-0.008467
1803	9.0100e-01	1.9751	-4.816130	0.000475	4.747184	0.804195	-0.009493
1804	9.0150e-01	1.9659	-4.854616	0.000385	3.849068	0.652050	-0.007697
1805	9.0200e-01	1.9531	-4.916194	0.000616	6.158509	1.043280	-0.012316
1806	9.0250e-01	1.9448	-4.968364	0.000522	5.217625	0.883890	-0.010434
1807	9.0300e-01	1.9360	-5.000436	0.000321	3.207557	0.543375	-0.006414
1808	9.0350e-01	1.9257	-5.044909	0.000445	4.447812	0.753480	-0.008895
1809	9.0400e-01	1.9159	-5.122309	0.000774	7.740903	1.311345	-0.015480
1810	9.0450e-01	1.9059	-5.170631	0.000483	4.832719	0.818685	-0.009664
1811	9.0500e-01	1.8958	-5.215104	0.000445	4.447812	0.753480	-0.008895
1812	9.0550e-01	1.8863	-5.271978	0.000569	5.688067	0.963585	-0.011375
1813	9.0600e-01	1.8756	-5.313030	0.000411	4.105672	0.695520	-0.008210
1814	9.0650e-01	1.8634	-5.356220	0.000432	4.319510	0.731745	-0.008638
1815	9.0700e-01	1.8539	-5.395562	0.000393	3.934603	0.666540	-0.007868
1816	9.0750e-01	1.8455	-5.475528	0.000800	7.997508	1.354815	-0.015993
1817	9.0800e-01	1.8370	-5.508027	0.000325	3.250324	0.550620	-0.006500
1818	9.0850e-01	1.8262	-5.554639	0.000466	4.661649	0.789705	-0.009322
1819	9.0900e-01	1.8153	-5.625624	0.000710	7.099392	1.202670	-0.014197
1820	9.0950e-01	1.8057	-5.653420	0.000278	2.779882	0.470925	-0.005559
1821	9.1000e-01	1.7940	-5.687630	0.000342	3.421394	0.579600	-0.006842
1822	9.1050e-01	1.7849	-5.770162	0.000825	8.254112	1.398284	-0.016506
1823	9.1100e-01	1.7738	-5.818056	0.000479	4.789951	0.811440	-0.009579
1824	9.1150e-01	1.7624	-5.860391	0.000423	4.233975	0.717255	-0.008467
1825	9.1200e-01	1.7540	-5.900587	0.000402	4.020138	0.681030	-0.008039
1826	9.1250e-01	1.7442	-5.974139	0.000736	7.355997	1.246140	-0.014710
1827	9.1300e-01	1.7340	-6.000224	0.000261	2.608813	0.441945	-0.005217
1828	9.1350e-01	1.7233	-6.072493	0.000723	7.227694	1.224405	-0.014454
1829	9.1400e-01	1.7160	-6.116110	0.000436	4.362277	0.738990	-0.008724
1830	9.1450e-01	1.7054	-6.150321	0.000342	3.421394	0.579600	-0.006842
1831	9.1500e-01	1.6965	-6.240122	0.000898	8.981159	1.521449	-0.017960
1832	9.1550e-01	1.6856	-6.260220	0.000201	2.010069	0.340515	-0.004020
1833	9.1600e-01	1.6750	-6.309397	0.000492	4.918254	0.833175	-0.009835
1834	9.1650e-01	1.6637	-6.362423	0.000530	5.303160	0.898380	-0.010605
1835	9.1700e-01	1.6541	-6.428705	0.000663	6.628950	1.122975	-0.013256
1836	9.1750e-01	1.6437	-6.481302	0.000526	5.260393	0.891135	-0.010520
1837	9.1800e-01	1.6341	-6.528341	0.000470	4.704416	0.796950	-0.009408
1838	9.1850e-01	1.6235	-6.571104	0.000428	4.276742	0.724500	-0.008553
1839	9.1900e-01	1.6159	-6.621136	0.000500	5.003788	0.847665	-0.010006
1840	9.1950e-01	1.6045	-6.678865	0.000577	5.773602	0.978075	-0.011546
1841	9.2000e-01	1.5939	-6.726759	0.000479	4.789951	0.811440	-0.009579
1842	9.2050e-01	1.5830	-6.763535	0.000368	3.677998	0.623070	-0.007355
1843	9.2100e-01	1.5755	-6.817844	0.000543	5.431463	0.920115	-0.010862
1844	9.2150e-01	1.5630	-6.868303	0.000505	5.046556	0.854910	-0.010092
1845	9.2200e-01	1.5555	-6.943993	0.000757	7.569834	1.282365	-0.015138
1846	9.2250e-01	1.5456	-6.958532	0.000145	1.454092	0.246330	-0.002908
1847	9.2300e-01	1.5370	-7.011985	0.000535	5.345928	0.905625	-0.010691
1848	9.2350e-01	1.5253	-7.093234	0.000813	8.125810	1.376550	-0.016250
1849	9.2400e-01	1.5137	-7.124023	0.000308	3.079254	0.521640	-0.006158
1850	9.2450e-01	1.5041	-7.165503	0.000415	4.148440	0.702765	-0.008296
1851	9.2500e-01	1.4960	-7.236916	0.000714	7.142159	1.209915	-0.014283
1852	9.2550e-01	1.4872	-7.268133	0.000312	3.122022	0.528885	-0.006243
1853	9.2600e-01	1.4758	-7.346388	0.000783	7.826438	1.325835	-0.015651
1854	9.2650e-01	1.4650	-7.394282	0.000479	4.789951	0.811440	-0.009579
1855	9.2700e-01	1.4551	-7.444742	0.000505	5.046556	0.854910	-0.010092
1856	9.2750e-01	1.4436	-7.481090	0.000364	3.635231	0.615825	-0.007270
1857	9.2800e-01	1.4357	-7.528984	0.000479	4.789951	0.811440	-0.009579
1858	9.2850e-01	1.4246	-7.593128	0.000642	6.415113	1.086750	-0.012829
1859	9.2900e-01	1.4156	-7.650858	0.000577	5.773602	0.978075	-0.011546
1860	9.2950e-01	1.4046	-7.707732	0.000569	5.688067	0.963585	-0.011375
1861	9.3000e-01	1.3971	-7.761185	0.000535	5.345928	0.905625	-0.010691
1862	9.3050e-01	1.3861	-7.806086	0.000449	4.490579	0.760725	-0.008980
1863	9.3100e-01	1.3718	-7.853980	0.000479	4.789951	0.811440	-0.009579
1864	9.3150e-01	1.3641	-7.918123	0.000642	6.415113	1.086750	-0.012829
1865	9.3200e-01	1.3538	-7.958748	0.000406	4.062905	0.688275	-0.008125
1866	9.3250e-01	1.3435	-8.028878	0.000701	7.013857	1.188180	-0.014026
1867	9.3300e-01	1.3358	-8.075917	0.000470	4.704416	0.796950	-0.009408
1868	9.3350e-01	1.3267	-8.122528	0.000466	4.661649	0.789705	-0.009322
1869	9.3400e-01	1.3137	-8.185389	0.000629	6.286811	1.065015	-0.012572
1870	9.3450e-01	1.3017	-8.194797	0.000094	0.940883	0.159390	-0.001882
1871	9.3500e-01	1.2939	-8.268348	0.000736	7.355997	1.246140	-0.014710
1872	9.3550e-01	1.2869	-8.335913	0.000676	6.757253	1.144710	-0.013513
1873	9.3600e-01	1.2756	-8.378676	0.000428	4.276742	0.724500	-0.008553
1874	9.3650e-01	1.2637	-8.426142	0.000475	4.747184	0.804195	-0.009493
1875	9.3700e-01	1.2551	-8.509529	0.000834	8.339647	1.412774	-0.016677
1876	9.3750e-01	1.2437	-8.543312	0.000338	3.378626	0.572355	-0.006756
1877	9.3800e-01	1.2363	-8.609593	0.000663	6.628950	1.122975	-0.013256
1878	9.3850e-01	1.2268	-8.657060	0.000475	4.747184	0.804195	-0.009493
1879	9.3900e-01	1.2153	-8.711796	0.000547	5.474230	0.927360	-0.010947
1880	9.3950e-01	1.2064	-8.745151	0.000334	3.335859	0.565110	-0.006671
1881	9.4000e-01	1.1971	-8.827255	0.000821	8.211345	1.391039	-0.016421
1882	9.4050e-01	1.1856	-8.874721	0.000475	4.747184	0.804195	-0.009493
1883	9.4100e-01	1.1760	-8.912352	0.000376	3.763533	0.637560	-0.007526
1884	9.4150e-01	1.1655	-8.961957	0.000496	4.961021	0.840420	-0.009921
1885	9.4200e-01	1.1536	-9.022252	0.000603	6.030206	1.021545	-0.012059
1886	9.4250e-01	1.1457	-9.084258	0.000620	6.201276	1.050525	-0.012401
1887	9.4300e-01	1.1365	-9.126165	0.000419	4.191207	0.710010	-0.008381
1888	9.4350e-01	1.1248	-9.204420	0.000783	7.826438	1.325835	-0.015651
1889	9.4400e-01	1.1144	-9.236920	0.000325	3.250324	0.550620	-0.006500
1890	9.4450e-01	1.1024	-9.285669	0.000488	4.875486	0.825930	-0.009750
1891	9.4500e-01	1.0974	-9.361359	0.000757	7.569834	1.282365	-0.015138
1892	9.4550e-01	1.0876	-9.390865	0.000295	2.950952	0.499905	-0.005901
1893	9.4600e-01	1.0760	-9.450305	0.000594	5.944672	1.007055	-0.011888
1894	9.4650e-01	1.0652	-9.503330	0.000530	5.303160	0.898380	-0.010605
1895	9.4700e-01	1.0539	-9.547376	0.000441	4.405044	0.746235	-0.008809
1896	9.4750e-01	1.0455	-9.612802	0.000654	6.543416	1.108485	-0.013085
1897	9.4800e-01	1.0362	-9.679940	0.000671	6.714485	1.137465	-0.013427
1898	9.4850e-01	1.0254	-9.723130	0.000432	4.319510	0.731745	-0.008638
1899	9.4900e-01	1.0154	-9.783852	0.000607	6.072974	1.028790	-0.012145
1900	9.4950e-01	1.0037	-9.830036	0.000462	4.618882	0.782460	-0.009237
1901	9.5000e-01	0.9958	-9.896318	0.000663	6.628950	1.122975	-0.013256
1902	9.5050e-01	0.9827	-9.943784	0.000475	4.747184	0.804195	-0.009493
1903	9.5100e-01	0.9731	-10.010066	0.000663	6.628950	1.122975	-0.013256
1904	9.5150e-01	0.9669	-10.045987	0.000359	3.592463	0.608580	-0.007184
1905	9.5200e-01	0.9547	-10.098585	0.000526	5.260393	0.891135	-0.010520
1906	9.5250e-01	0.9479	-10.164011	0.000654	6.543416	1.108485	-0.013085
1907	9.5300e-01	0.9332	-10.224734	0.000607	6.072974	1.028790	-0.012145
1908	9.5350e-01	0.9241	-10.295292	0.000706	7.056625	1.195425	-0.014112
1909	9.5400e-01	0.9154	-10.331640	0.000364	3.635231	0.615825	-0.007270
1910	9.5450e-01	0.9053	-10.389370	0.000577	5.773602	0.978075	-0.011546
1911	9.5500e-01	0.8968	-10.432560	0.000432	4.319510	0.731745	-0.008638
1912	9.5550e-01	0.8875	-10.500980	0.000684	6.842787	1.159200	-0.013684
1913	9.5600e-01	0.8768	-10.561275	0.000603	6.030206	1.021545	-0.012059
1914	9.5650e-01	0.8625	-10.598479	0.000372	3.720766	0.630315	-0.007441
1915	9.5700e-01	0.8562	-10.663050	0.000646	6.457881	1.093995	-0.012914
1916	9.5750e-01	0.8438	-10.704102	0.000411	4.105672	0.695520	-0.008210
1917	9.5800e-01	0.8353	-10.762687	0.000586	5.859137	0.992565	-0.011717
1918	9.5850e-01	0.8240	-10.843936	0.000813	8.125810	1.376550	-0.016250
1919	9.5900e-01	0.8146	-10.863606	0.000197	1.967301	0.333270	-0.003934
1920	9.5950e-01	0.8039	-10.940151	0.000766	7.655369	1.296855	-0.015309
1921	9.6000e-01	0.7946	-10.989756	0.000496	4.961021	0.840420	-0.009921
1922	9.6050e-01	0.7870	-11.049196	0.000594	5.944672	1.007055	-0.011888
1923	9.6100e-01	0.7773	-11.109918	0.000607	6.072974	1.028790	-0.012145
1924	9.6150e-01	0.7643	-11.167220	0.000573	5.730835	0.970830	-0.011460
1925	9.6200e-01	0.7556	-11.210410	0.000432	4.319510	0.731745	-0.008638
1926	9.6250e-01	0.7449	-11.269423	0.000590	5.901904	0.999810	-0.011802
1927	9.6300e-01	0.7357	-11.313040	0.000436	4.362277	0.738990	-0.008724
1928	9.6350e-01	0.7236	-11.390013	0.000770	7.698136	1.304100	-0.015395
1929	9.6400e-01	0.7144	-11.455867	0.000659	6.586183	1.115730	-0.013171
1930	9.6450e-01	0.7031	-11.488367	0.000325	3.250324	0.550620	-0.006500
1931	9.6500e-01	0.6942	-11.553366	0.000650	6.500648	1.101240	-0.013000
1932	9.6550e-01	0.6851	-11.606391	0.000530	5.303160	0.898380	-0.010605
1933	9.6600e-01	0.6746	-11.656424	0.000500	5.003788	0.847665	-0.010006
1934	9.6650e-01	0.6630	-11.722278	0.000659	6.586183	1.115730	-0.013171
1935	9.6700e-01	0.6557	-11.797968	0.000757	7.569834	1.282365	-0.015138
1936	9.6750e-01	0.6454	-11.833888	0.000359	3.592463	0.608580	-0.007184
1937	9.6800e-01	0.6349	-11.911716	0.000778	7.783671	1.318590	-0.015566
1938	9.6850e-01	0.6248	-11.963458	0.000517	5.174858	0.876645	-0.010349
1939	9.6900e-01	0.6164	-12.010925	0.000475	4.747184	0.804195	-0.009493
1940	9.6950e-01	0.6052	-12.066944	0.000560	5.602532	0.949095	-0.011204
1941	9.7000e-01	0.5976	-12.120825	0.000539	5.388695	0.912870	-0.010776
1942	9.7050e-01	0.5863	-12.178554	0.000577	5.773602	0.978075	-0.011546
1943	9.7100e-01	0.5769	-12.218323	0.000398	3.977370	0.673785	-0.007954
1944	9.7150e-01	0.5691	-12.280756	0.000624	6.244044	1.057770	-0.012487
1945	9.7200e-01	0.5574	-12.354736	0.000740	7.398764	1.253385	-0.014796
1946	9.7250e-01	0.5464	-12.411182	0.000565	5.645300	0.956340	-0.011289
1947	9.7300e-01	0.5370	-12.459504	0.000483	4.832719	0.818685	-0.009664
1948	9.7350e-01	0.5245	-12.519799	0.000603	6.030206	1.021545	-0.012059
1949	9.7400e-01	0.5157	-12.583088	0.000633	6.329578	1.072260	-0.012658
1950	9.7450e-01	0.5060	-12.645948	0.000629	6.286811	1.065015	-0.012572
1951	9.7500e-01	0.4967	-12.692987	0.000470	4.704416	0.796950	-0.009408
1952	9.7550e-01	0.4874	-12.749434	0.000565	5.645300	0.956340	-0.011289
1953	9.7600e-01	0.4765	-12.814860	0.000654	6.543416	1.108485	-0.013085
1954	9.7650e-01	0.4681	-12.866603	0.000517	5.174858	0.876645	-0.010349
1955	9.7700e-01	0.4603	-12.935451	0.000689	6.885555	1.166445	-0.013770
1956	9.7750e-01	0.4440	-12.981207	0.000458	4.576114	0.775215	-0.009151
1957	9.7800e-01	0.4352	-13.057324	0.000761	7.612601	1.289610	-0.015223
1958	9.7850e-01	0.4216	-13.099231	0.000419	4.191207	0.710010	-0.008381
1959	9.7900e-01	0.4150	-13.183046	0.000838	8.382415	1.420019	-0.016763
1960	9.7950e-01	0.4051	-13.219822	0.000368	3.677998	0.623070	-0.007355
1961	9.8000e-01	0.3931	-13.263867	0.000441	4.405044	0.746235	-0.008809
1962	9.8050e-01	0.3832	-13.335280	0.000714	7.142159	1.209915	-0.014283
1963	9.8100e-01	0.3740	-13.395576	0.000603	6.030206	1.021545	-0.012059
1964	9.8150e-01	0.3654	-13.450739	0.000552	5.516997	0.934605	-0.011033
1965	9.8200e-01	0.3551	-13.507186	0.000565	5.645300	0.956340	-0.011289
1966	9.8250e-01	0.3453	-13.574323	0.000671	6.714485	1.137465	-0.013427
1967	9.8300e-01	0.3341	-13.620079	0.000458	4.576114	0.775215	-0.009151
1968	9.8350e-01	0.3257	-13.678236	0.000582	5.816369	0.985320	-0.011631
1969	9.8400e-01	0.3159	-13.752215	0.000740	7.398764	1.253385	-0.014796
1970	9.8450e-01	0.3069	-13.816786	0.000646	6.457881	1.093995	-0.012914
1971	9.8500e-01	0.2939	-13.864680	0.000479	4.789951	0.811440	-0.009579
1972	9.8550e-01	0.2837	-13.917706	0.000530	5.303160	0.898380	-0.010605
1973	9.8600e-01	0.2753	-13.972870	0.000552	5.516997	0.934605	-0.011033
1974	9.8650e-01	0.2677	-14.024185	0.000513	5.132091	0.869400	-0.010263
1975	9.8700e-01	0.2534	-14.076783	0.000526	5.260393	0.891135	-0.010520
1976	9.8750e-01	0.2444	-14.143492	0.000667	6.671718	1.130220	-0.013342
1977	9.8800e-01	0.2357	-14.205070	0.000616	6.158509	1.043280	-0.012316
1978	9.8850e-01	0.2233	-14.275201	0.000701	7.013857	1.188180	-0.014026
1979	9.8900e-01	0.2151	-14.328654	0.000535	5.345928	0.905625	-0.010691
1980	9.8950e-01	0.2065	-14.387666	0.000590	5.901904	0.999810	-0.011802
1981	9.9000e-01	0.1931	-14.439409	0.000517	5.174858	0.876645	-0.010349
1982	9.9050e-01	0.1856	-14.519375	0.000800	7.997508	1.354815	-0.015993
1983	9.9100e-01	0.1759	-14.556151	0.000368	3.677998	0.623070	-0.007355
1984	9.9150e-01	0.1638	-14.639110	0.000830	8.296880	1.405529	-0.016592
1985	9.9200e-01	0.1553	-14.692135	0.000530	5.303160	0.898380	-0.010605
1986	9.9250e-01	0.1450	-14.740885	0.000488	4.875486	0.825930	-0.009750
1987	9.9300e-01	0.1342	-14.790489	0.000496	4.961021	0.840420	-0.009921
1988	9.9350e-01	0.1246	-14.871310	0.000808	8.083043	1.369305	-0.016164
1989	9.9400e-01	0.1133	-14.929040	0.000577	5.773602	0.978075	-0.011546
1990	9.9450e-01	0.1067	-14.980782	0.000517	5.174858	0.876645	-0.010349
1991	9.9500e-01	0.0948	-15.047492	0.000667	6.671718	1.130220	-0.013342
1992	9.9550e-01	0.0832	-15.099235	0.000517	5.174858	0.876645	-0.010349
1993	9.9600e-01	0.0735	-15.163806	0.000646	6.457881	1.093995	-0.012914
1994	9.9650e-01	0.0648	-15.230943	0.000671	6.714485	1.137465	-0.013427
1995	9.9700e-01	0.0547	-15.272423	0.000415	4.148440	0.702765	-0.008296
1996	9.9750e-01	0.0465	-15.347257	0.000748	7.484299	1.267875	-0.014967
1997	9.9800e-01	0.0384	-15.416960	0.000697	6.971090	1.180935	-0.013941
1998	9.9850e-01	0.0262	-15.466992	0.000500	5.003788	0.847665	-0.010006
1999	9.9900e-01	0.0156	-15.505051	0.000381	3.806301	0.644805	-0.007612
2000	9.9950e-01	0.0054	-15.588438	0.000834	8.339647	1.412774	-0.016677
2001	1.0000e+00	-0.0013	-15.661134	0.000834	8.339647	1.412774	-0.014539

PMax (uC/cm2):	4.28e+01
Pr (uC/cm2):	5.74e+00
-Pr (uC/cm2):	0.00e+00
PLoss (uC/cm2):	0.00e+00
C (Max-Eff) (nF):	4.28e-01
K (Eff):	7.25e+02
Vert. (+/-Pr) Shift (uC/cm2):	2.87e+00
Offset (uC/cm2):	2.14e+01

A (Loop Area - uC/cm2·Volts):	-5.31e-02



Hysteresis Version: 5.48.1 - Radiant Technologies, Inc., 1999 - 9/12/24

