»»»»»»»»»»»»»»»»»»»»»»»»»»»»»»»»»»»» Hysteresis ««««««««««««««««««««««««««««««««««««
»»»  Executed Version:	5.48.1
»»»  Vision Version:	5.48.4 (R)
»»»  Vision Compiled:	9/18/24
»»»  Driver Version:	5.47.0
»»»  Windows Version:	Windows 8 or 8.1
»»»  Processor Information:	x86 (AMD or Intel) - 32 Processors
»»»  Tester Name:	PMF21124-494 (100V)
»»»  Tester S/N:	PMF21124-494
»»»  Internal Amp Type:	100V RevK 270k
»»»  Internal Amp S/N:	iAB2-596/K     
»»»  Execution Count:	1
»»»»»»»»»»»»»»»»»»»»»»»»»»»»»»»»»»»»»»»»»»««««««««««««««««««««««««««««««««««««««««««

Stored:	6/12/2025 - 17:34:2
Configured:	06/12/25 03:03:03 PM
Executed:	06/12/25 05:33:04 PM

»»»»»»»»»»»»»»»»»»»»»»»»»»»»»»»»»»» Sample Info ««««««««««««««««««««««««««««««««««««
Sample Name:	
Lot Name:	
Wafer Name:	
Die Row/Column:	0/0
Capacitor Number:	0
Sample Area (cm2):	1.00e-04
Sample Thickness (microns):	3.00e-01

Amplifier:	Internal

»»»»»»»»»»»»»»»»»»»»»»»»»»»»»»»»»»» Tester Info «««««««««««««««««««««««««««««««««««
Tester Name:	PMF21124-494 (100V)
Tester Serial Number:	PMF21124-494
Return Signal Amp. Level:	0.19 [Index: 3]

»»»»»»»»»»»»»»»»»»»»»»»»»»»»»»»» Hysteresis Info ««««««««««««««««««««««««««««««««««
Task Name:	Hyst-1570
Volts:	20.00
Field:	666.67 (kV/cm)
DCBias:	0.00
DCField:	0.00 (kV/cm)
Hysteresis Period (ms):	2.00e+02
Preset:	Enabled
Preset Delay (ms):	1.00e+03
Profile:	Standard Bipolar

»»»»»»»»»»»»»»»»»»»»»»»»»»»»»»»»»»»»»» Data «««««««««««««««««««««««««««««««««««««««
Points:	2009

Valid Data

Point	Time (ms)	Drive Voltage	Measured Polarization (uC/cm2)	Capacitance (uF)	Normalized Capacitance (uF/cm2)	Dielectric Constant	Instantaneous Current (mA)
   1	0.0000e+00	0.0016	49.713289	0.000142	1.418908	0.480739	0.000057
   2	9.9500e-02	0.0385	49.769809	0.000142	1.418908	0.480739	0.000057
   3	1.9900e-01	0.0786	49.931295	0.000405	4.054022	1.373540	0.000162
   4	2.9850e-01	0.1155	50.076632	0.000365	3.648620	1.236186	0.000146
   5	3.9800e-01	0.1428	50.274451	0.000497	4.966177	1.682586	0.000199
   6	4.9750e-01	0.1861	50.456122	0.000456	4.560775	1.545232	0.000183
   7	5.9700e-01	0.2278	50.629719	0.000436	4.358074	1.476555	0.000174
   8	6.9650e-01	0.2791	50.787168	0.000395	3.952671	1.339201	0.000158
   9	7.9600e-01	0.3144	50.976913	0.000476	4.763476	1.613909	0.000191
  10	8.9550e-01	0.3561	51.122250	0.000365	3.648620	1.236186	0.000146
  11	9.9500e-01	0.3866	51.311995	0.000476	4.763476	1.613909	0.000191
  12	1.0945e+00	0.4347	51.396775	0.000213	2.128362	0.721108	0.000085
  13	1.1940e+00	0.4652	51.643040	0.000618	6.182384	2.094648	0.000248
  14	1.2935e+00	0.5134	51.784340	0.000355	3.547269	1.201847	0.000142
  15	1.3930e+00	0.5503	51.925640	0.000355	3.547269	1.201847	0.000142
  16	1.4925e+00	0.5968	52.066940	0.000355	3.547269	1.201847	0.000142
  17	1.5920e+00	0.6337	52.204202	0.000345	3.445919	1.167509	0.000138
  18	1.6915e+00	0.6802	52.381836	0.000446	4.459424	1.510894	0.000179
  19	1.7910e+00	0.7123	52.587730	0.000517	5.168878	1.751263	0.000207
  20	1.8905e+00	0.7508	52.745178	0.000395	3.952671	1.339201	0.000158
  21	1.9900e+00	0.7941	52.914738	0.000426	4.256723	1.442217	0.000170
  22	2.0895e+00	0.8326	53.112558	0.000497	4.966177	1.682586	0.000199
  23	2.1890e+00	0.8775	53.265969	0.000385	3.851321	1.304863	0.000154
  24	2.2885e+00	0.9080	53.407269	0.000355	3.547269	1.201847	0.000142
  25	2.3880e+00	0.9513	53.617200	0.000527	5.270229	1.785602	0.000211
  26	2.4875e+00	0.9882	53.831168	0.000537	5.371579	1.819940	0.000215
  27	2.5870e+00	1.0283	54.004765	0.000436	4.358074	1.476555	0.000174
  28	2.6865e+00	1.0780	54.166250	0.000405	4.054022	1.373540	0.000162
  29	2.7860e+00	1.1149	54.368107	0.000507	5.067527	1.716925	0.000203
  30	2.8855e+00	1.1502	54.529592	0.000405	4.054022	1.373540	0.000162
  31	2.9850e+00	1.1919	54.691078	0.000405	4.054022	1.373540	0.000162
  32	3.0845e+00	1.2321	54.856600	0.000416	4.155373	1.407878	0.000166
  33	3.1840e+00	1.2657	54.989826	0.000334	3.344568	1.133170	0.000134
  34	3.2835e+00	1.3058	55.135163	0.000365	3.648620	1.236186	0.000146
  35	3.3830e+00	1.3524	55.320871	0.000466	4.662125	1.579571	0.000187
  36	3.4825e+00	1.3925	55.502542	0.000456	4.560775	1.545232	0.000183
  37	3.5820e+00	1.4358	55.643842	0.000355	3.547269	1.201847	0.000142
  38	3.6815e+00	1.4631	55.809364	0.000416	4.155373	1.407878	0.000166
  39	3.7810e+00	1.5080	56.027370	0.000547	5.472930	1.854279	0.000219
  40	3.8805e+00	1.5545	56.164632	0.000345	3.445919	1.167509	0.000138
  41	3.9800e+00	1.5962	56.410898	0.000618	6.182384	2.094648	0.000248
  42	4.0795e+00	1.6363	56.544123	0.000334	3.344568	1.133170	0.000134
  43	4.1790e+00	1.6716	56.770203	0.000568	5.675631	1.922956	0.000227
  44	4.2785e+00	1.7101	56.972060	0.000507	5.067527	1.716925	0.000203
  45	4.3780e+00	1.7454	57.141619	0.000426	4.256723	1.442217	0.000170
  46	4.4775e+00	1.7855	57.266770	0.000314	3.141867	1.064493	0.000126
  47	4.5770e+00	1.8208	57.480739	0.000537	5.371579	1.819940	0.000215
  48	4.6765e+00	1.8673	57.658373	0.000446	4.459424	1.510894	0.000179
  49	4.7760e+00	1.9074	57.836007	0.000446	4.459424	1.510894	0.000179
  50	4.8755e+00	1.9507	57.973269	0.000345	3.445919	1.167509	0.000138
  51	4.9750e+00	1.9892	58.106495	0.000334	3.344568	1.133170	0.000134
  52	5.0745e+00	2.0294	58.308351	0.000507	5.067527	1.716925	0.000203
  53	5.1740e+00	2.0646	58.469837	0.000405	4.054022	1.373540	0.000162
  54	5.2735e+00	2.1096	58.639397	0.000426	4.256723	1.442217	0.000170
  55	5.3730e+00	2.1481	58.821068	0.000456	4.560775	1.545232	0.000183
  56	5.4725e+00	2.1898	59.035036	0.000537	5.371579	1.819940	0.000215
  57	5.5720e+00	2.2219	59.184410	0.000375	3.749970	1.270524	0.000150
  58	5.6715e+00	2.2604	59.366081	0.000456	4.560775	1.545232	0.000183
  59	5.7710e+00	2.3053	59.531604	0.000416	4.155373	1.407878	0.000166
  60	5.8705e+00	2.3342	59.713275	0.000456	4.560775	1.545232	0.000183
  61	5.9700e+00	2.3887	59.963577	0.000628	6.283734	2.128987	0.000252
  62	6.0695e+00	2.4240	60.145248	0.000456	4.560775	1.545232	0.000183
  63	6.1690e+00	2.4641	60.290585	0.000365	3.648620	1.236186	0.000146
  64	6.2685e+00	2.5106	60.512628	0.000557	5.574280	1.888617	0.000223
  65	6.3680e+00	2.5443	60.637779	0.000314	3.141867	1.064493	0.000126
  66	6.4675e+00	2.5748	60.851747	0.000537	5.371579	1.819940	0.000215
  67	6.5670e+00	2.6261	61.045529	0.000486	4.864826	1.648248	0.000195
  68	6.6665e+00	2.6518	61.198941	0.000385	3.851321	1.304863	0.000154
  69	6.7660e+00	2.6999	61.348315	0.000375	3.749970	1.270524	0.000150
  70	6.8655e+00	2.7416	61.534023	0.000466	4.662125	1.579571	0.000187
  71	6.9650e+00	2.7817	61.675323	0.000355	3.547269	1.201847	0.000142
  72	7.0645e+00	2.8283	61.844882	0.000426	4.256723	1.442217	0.000170
  73	7.1640e+00	2.8539	62.054813	0.000527	5.270229	1.785602	0.000211
  74	7.2635e+00	2.9069	62.192076	0.000345	3.445919	1.167509	0.000138
  75	7.3630e+00	2.9454	62.393933	0.000507	5.067527	1.716925	0.000203
  76	7.4625e+00	2.9823	62.559455	0.000416	4.155373	1.407878	0.000166
  77	7.5620e+00	3.0304	62.781498	0.000557	5.574280	1.888617	0.000223
  78	7.6615e+00	3.0593	62.947020	0.000416	4.155373	1.407878	0.000166
  79	7.7610e+00	3.1026	63.165026	0.000547	5.472930	1.854279	0.000219
  80	7.8605e+00	3.1363	63.362845	0.000497	4.966177	1.682586	0.000199
  81	7.9600e+00	3.1860	63.540479	0.000446	4.459424	1.510894	0.000179
  82	8.0595e+00	3.2261	63.722150	0.000456	4.560775	1.545232	0.000183
  83	8.1590e+00	3.2566	63.895747	0.000436	4.358074	1.476555	0.000174
  84	8.2585e+00	3.3063	64.041084	0.000365	3.648620	1.236186	0.000146
  85	8.3580e+00	3.3304	64.259090	0.000547	5.472930	1.854279	0.000219
  86	8.4575e+00	3.3801	64.412501	0.000385	3.851321	1.304863	0.000154
  87	8.5570e+00	3.4218	64.569949	0.000395	3.952671	1.339201	0.000158
  88	8.6565e+00	3.4651	64.755657	0.000466	4.662125	1.579571	0.000187
  89	8.7560e+00	3.5020	64.909068	0.000385	3.851321	1.304863	0.000154
  90	8.8555e+00	3.5421	65.102851	0.000486	4.864826	1.648248	0.000195
  91	8.9550e+00	3.5806	65.296633	0.000486	4.864826	1.648248	0.000195
  92	9.0545e+00	3.6240	65.454082	0.000395	3.952671	1.339201	0.000158
  93	9.1540e+00	3.6577	65.627679	0.000436	4.358074	1.476555	0.000174
  94	9.2535e+00	3.7058	65.817424	0.000476	4.763476	1.613909	0.000191
  95	9.3530e+00	3.7379	66.011206	0.000486	4.864826	1.648248	0.000195
  96	9.4525e+00	3.7764	66.225175	0.000537	5.371579	1.819940	0.000215
  97	9.5520e+00	3.8197	66.386660	0.000405	4.054022	1.373540	0.000162
  98	9.6515e+00	3.8566	66.596591	0.000527	5.270229	1.785602	0.000211
  99	9.7510e+00	3.8967	66.762114	0.000416	4.155373	1.407878	0.000166
 100	9.8505e+00	3.9320	66.947822	0.000466	4.662125	1.579571	0.000187
 101	9.9500e+00	3.9753	67.125456	0.000446	4.459424	1.510894	0.000179
 102	1.0050e+01	4.0202	67.307127	0.000456	4.560775	1.545232	0.000183
 103	1.0149e+01	4.0587	67.452464	0.000365	3.648620	1.236186	0.000146
 104	1.0248e+01	4.1004	67.605875	0.000385	3.851321	1.304863	0.000154
 105	1.0348e+01	4.1373	67.759286	0.000385	3.851321	1.304863	0.000154
 106	1.0447e+01	4.1694	67.940957	0.000456	4.560775	1.545232	0.000183
 107	1.0547e+01	4.2191	68.074183	0.000334	3.344568	1.133170	0.000134
 108	1.0646e+01	4.2608	68.280077	0.000517	5.168878	1.751263	0.000207
 109	1.0746e+01	4.2993	68.473859	0.000486	4.864826	1.648248	0.000195
 110	1.0845e+01	4.3314	68.663605	0.000476	4.763476	1.613909	0.000191
 111	1.0945e+01	4.3828	68.821053	0.000395	3.952671	1.339201	0.000158
 112	1.1044e+01	4.4197	69.022910	0.000507	5.067527	1.716925	0.000203
 113	1.1144e+01	4.4566	69.244952	0.000557	5.574280	1.888617	0.000223
 114	1.1243e+01	4.4919	69.426623	0.000456	4.560775	1.545232	0.000183
 115	1.1343e+01	4.5336	69.575997	0.000375	3.749970	1.270524	0.000150
 116	1.1443e+01	4.5769	69.741520	0.000416	4.155373	1.407878	0.000166
 117	1.1542e+01	4.6154	69.967599	0.000568	5.675631	1.922956	0.000227
 118	1.1642e+01	4.6603	70.088714	0.000304	3.040516	1.030155	0.000122
 119	1.1741e+01	4.7004	70.282496	0.000486	4.864826	1.648248	0.000195
 120	1.1841e+01	4.7421	70.456093	0.000436	4.358074	1.476555	0.000174
 121	1.1940e+01	4.7774	70.621615	0.000416	4.155373	1.407878	0.000166
 122	1.2040e+01	4.8303	70.787138	0.000416	4.155373	1.407878	0.000166
 123	1.2139e+01	4.8528	70.940549	0.000385	3.851321	1.304863	0.000154
 124	1.2239e+01	4.8961	71.122220	0.000456	4.560775	1.545232	0.000183
 125	1.2338e+01	4.9410	71.267557	0.000365	3.648620	1.236186	0.000146
 126	1.2438e+01	4.9795	71.461340	0.000486	4.864826	1.648248	0.000195
 127	1.2537e+01	5.0196	71.614751	0.000385	3.851321	1.304863	0.000154
 128	1.2636e+01	5.0549	71.832756	0.000547	5.472930	1.854279	0.000219
 129	1.2736e+01	5.0934	71.933685	0.000253	2.533764	0.858462	0.000101
 130	1.2835e+01	5.1319	72.159764	0.000568	5.675631	1.922956	0.000227
 131	1.2935e+01	5.1753	72.361621	0.000507	5.067527	1.716925	0.000203
 132	1.3034e+01	5.2089	72.547329	0.000466	4.662125	1.579571	0.000187
 133	1.3134e+01	5.2490	72.724963	0.000446	4.459424	1.510894	0.000179
 134	1.3233e+01	5.2956	72.878374	0.000385	3.851321	1.304863	0.000154
 135	1.3333e+01	5.3293	73.076194	0.000497	4.966177	1.682586	0.000199
 136	1.3432e+01	5.3742	73.282088	0.000517	5.168878	1.751263	0.000207
 137	1.3532e+01	5.4127	73.407239	0.000314	3.141867	1.064493	0.000126
 138	1.3632e+01	5.4576	73.609096	0.000507	5.067527	1.716925	0.000203
 139	1.3731e+01	5.5009	73.770581	0.000405	4.054022	1.373540	0.000162
 140	1.3831e+01	5.5362	73.911881	0.000355	3.547269	1.201847	0.000142
 141	1.3930e+01	5.5763	74.057218	0.000365	3.648620	1.236186	0.000146
 142	1.4030e+01	5.6036	74.222741	0.000416	4.155373	1.407878	0.000166
 143	1.4129e+01	5.6485	74.368077	0.000365	3.648620	1.236186	0.000146
 144	1.4229e+01	5.6902	74.598194	0.000578	5.776981	1.957294	0.000231
 145	1.4328e+01	5.7448	74.751605	0.000385	3.851321	1.304863	0.000154
 146	1.4428e+01	5.7801	74.900979	0.000375	3.749970	1.270524	0.000150
 147	1.4527e+01	5.8105	75.062465	0.000405	4.054022	1.373540	0.000162
 148	1.4627e+01	5.8490	75.264322	0.000507	5.067527	1.716925	0.000203
 149	1.4726e+01	5.8940	75.522698	0.000649	6.486435	2.197664	0.000260
 150	1.4825e+01	5.9325	75.651887	0.000324	3.243218	1.098832	0.000130
 151	1.4925e+01	5.9758	75.821446	0.000426	4.256723	1.442217	0.000170
 152	1.5024e+01	6.0111	76.007155	0.000466	4.662125	1.579571	0.000187
 153	1.5124e+01	6.0528	76.196900	0.000476	4.763476	1.613909	0.000191
 154	1.5223e+01	6.0929	76.346274	0.000375	3.749970	1.270524	0.000150
 155	1.5323e+01	6.1394	76.479499	0.000334	3.344568	1.133170	0.000134
 156	1.5422e+01	6.1699	76.636948	0.000395	3.952671	1.339201	0.000158
 157	1.5522e+01	6.2100	76.854953	0.000547	5.472930	1.854279	0.000219
 158	1.5621e+01	6.2517	77.012401	0.000395	3.952671	1.339201	0.000158
 159	1.5721e+01	6.2886	77.181961	0.000426	4.256723	1.442217	0.000170
 160	1.5820e+01	6.3239	77.307112	0.000314	3.141867	1.064493	0.000126
 161	1.5920e+01	6.3704	77.476672	0.000426	4.256723	1.442217	0.000170
 162	1.6020e+01	6.4073	77.678529	0.000507	5.067527	1.716925	0.000203
 163	1.6119e+01	6.4522	77.803680	0.000314	3.141867	1.064493	0.000126
 164	1.6218e+01	6.4907	77.985351	0.000456	4.560775	1.545232	0.000183
 165	1.6318e+01	6.5356	78.158948	0.000436	4.358074	1.476555	0.000174
 166	1.6418e+01	6.5709	78.348693	0.000476	4.763476	1.613909	0.000191
 167	1.6517e+01	6.6110	78.550550	0.000507	5.067527	1.716925	0.000203
 168	1.6616e+01	6.6463	78.703961	0.000385	3.851321	1.304863	0.000154
 169	1.6716e+01	6.6880	78.857372	0.000385	3.851321	1.304863	0.000154
 170	1.6816e+01	6.7298	79.035006	0.000446	4.459424	1.510894	0.000179
 171	1.6915e+01	6.7667	79.192455	0.000395	3.952671	1.339201	0.000158
 172	1.7015e+01	6.8164	79.374126	0.000456	4.560775	1.545232	0.000183
 173	1.7114e+01	6.8388	79.503314	0.000324	3.243218	1.098832	0.000130
 174	1.7213e+01	6.8886	79.676911	0.000436	4.358074	1.476555	0.000174
 175	1.7313e+01	6.9287	79.842433	0.000416	4.155373	1.407878	0.000166
 176	1.7413e+01	6.9720	79.979696	0.000345	3.445919	1.167509	0.000138
 177	1.7512e+01	7.0137	80.137144	0.000395	3.952671	1.339201	0.000158
 178	1.7611e+01	7.0506	80.294593	0.000395	3.952671	1.339201	0.000158
 179	1.7711e+01	7.0827	80.460115	0.000416	4.155373	1.407878	0.000166
 180	1.7811e+01	7.1308	80.625638	0.000416	4.155373	1.407878	0.000166
 181	1.7910e+01	7.1661	80.795198	0.000426	4.256723	1.442217	0.000170
 182	1.8009e+01	7.2062	80.952646	0.000395	3.952671	1.339201	0.000158
 183	1.8109e+01	7.2415	81.154503	0.000507	5.067527	1.716925	0.000203
 184	1.8209e+01	7.2912	81.360397	0.000517	5.168878	1.751263	0.000207
 185	1.8308e+01	7.3313	81.513808	0.000385	3.851321	1.304863	0.000154
 186	1.8407e+01	7.3618	81.695479	0.000456	4.560775	1.545232	0.000183
 187	1.8507e+01	7.3939	81.869076	0.000436	4.358074	1.476555	0.000174
 188	1.8607e+01	7.4340	82.022487	0.000385	3.851321	1.304863	0.000154
 189	1.8706e+01	7.4886	82.188009	0.000416	4.155373	1.407878	0.000166
 190	1.8805e+01	7.5239	82.365643	0.000446	4.459424	1.510894	0.000179
 191	1.8905e+01	7.5688	82.547314	0.000456	4.560775	1.545232	0.000183
 192	1.9005e+01	7.6025	82.668429	0.000304	3.040516	1.030155	0.000122
 193	1.9104e+01	7.6442	82.813765	0.000365	3.648620	1.236186	0.000146
 194	1.9203e+01	7.6875	83.011585	0.000497	4.966177	1.682586	0.000199
 195	1.9303e+01	7.7148	83.132699	0.000304	3.040516	1.030155	0.000122
 196	1.9402e+01	7.7597	83.298222	0.000416	4.155373	1.407878	0.000166
 197	1.9502e+01	7.7982	83.423373	0.000314	3.141867	1.064493	0.000126
 198	1.9602e+01	7.8383	83.601007	0.000446	4.459424	1.510894	0.000179
 199	1.9701e+01	7.8864	83.794789	0.000486	4.864826	1.648248	0.000195
 200	1.9800e+01	7.9233	83.923978	0.000324	3.243218	1.098832	0.000130
 201	1.9900e+01	7.9634	84.154094	0.000578	5.776981	1.957294	0.000231
 202	2.0000e+01	8.0099	84.343840	0.000476	4.763476	1.613909	0.000191
 203	2.0099e+01	8.0356	84.513400	0.000426	4.256723	1.442217	0.000170
 204	2.0198e+01	8.0789	84.654699	0.000355	3.547269	1.201847	0.000142
 205	2.0298e+01	8.1286	84.783888	0.000324	3.243218	1.098832	0.000130
 206	2.0398e+01	8.1639	84.973633	0.000476	4.763476	1.613909	0.000191
 207	2.0497e+01	8.2073	85.147230	0.000436	4.358074	1.476555	0.000174
 208	2.0596e+01	8.2409	85.272381	0.000314	3.141867	1.064493	0.000126
 209	2.0696e+01	8.2730	85.498461	0.000568	5.675631	1.922956	0.000227
 210	2.0796e+01	8.3292	85.591315	0.000233	2.331063	0.789785	0.000093
 211	2.0895e+01	8.3597	85.720503	0.000324	3.243218	1.098832	0.000130
 212	2.0994e+01	8.4014	85.898137	0.000446	4.459424	1.510894	0.000179
 213	2.1094e+01	8.4431	86.035400	0.000345	3.445919	1.167509	0.000138
 214	2.1194e+01	8.4752	86.217071	0.000456	4.560775	1.545232	0.000183
 215	2.1293e+01	8.5217	86.382593	0.000416	4.155373	1.407878	0.000166
 216	2.1392e+01	8.5666	86.511782	0.000324	3.243218	1.098832	0.000130
 217	2.1492e+01	8.5971	86.673267	0.000405	4.054022	1.373540	0.000162
 218	2.1591e+01	8.6532	86.867050	0.000486	4.864826	1.648248	0.000195
 219	2.1691e+01	8.6821	87.012387	0.000365	3.648620	1.236186	0.000146
 220	2.1791e+01	8.7254	87.202132	0.000476	4.763476	1.613909	0.000191
 221	2.1890e+01	8.7671	87.395914	0.000486	4.864826	1.648248	0.000195
 222	2.1989e+01	8.7960	87.569511	0.000436	4.358074	1.476555	0.000174
 223	2.2089e+01	8.8361	87.694663	0.000314	3.141867	1.064493	0.000126
 224	2.2189e+01	8.8842	87.872296	0.000446	4.459424	1.510894	0.000179
 225	2.2288e+01	8.9227	88.029745	0.000395	3.952671	1.339201	0.000158
 226	2.2387e+01	8.9548	88.175082	0.000365	3.648620	1.236186	0.000146
 227	2.2487e+01	8.9981	88.308307	0.000334	3.344568	1.133170	0.000134
 228	2.2587e+01	9.0447	88.445570	0.000345	3.445919	1.167509	0.000138
 229	2.2686e+01	9.0767	88.611092	0.000416	4.155373	1.407878	0.000166
 230	2.2785e+01	9.1265	88.744318	0.000334	3.344568	1.133170	0.000134
 231	2.2885e+01	9.1554	88.905803	0.000405	4.054022	1.373540	0.000162
 232	2.2985e+01	9.1987	89.022880	0.000294	2.939166	0.995816	0.000118
 233	2.3084e+01	9.2340	89.220700	0.000497	4.966177	1.682586	0.000199
 234	2.3183e+01	9.2837	89.366037	0.000365	3.648620	1.236186	0.000146
 235	2.3283e+01	9.3174	89.511374	0.000365	3.648620	1.236186	0.000146
 236	2.3383e+01	9.3543	89.676896	0.000416	4.155373	1.407878	0.000166
 237	2.3482e+01	9.3928	89.854530	0.000446	4.459424	1.510894	0.000179
 238	2.3581e+01	9.4441	90.048313	0.000486	4.864826	1.648248	0.000195
 239	2.3681e+01	9.4794	90.205761	0.000395	3.952671	1.339201	0.000158
 240	2.3780e+01	9.5163	90.343024	0.000345	3.445919	1.167509	0.000138
 241	2.3880e+01	9.5548	90.500472	0.000395	3.952671	1.339201	0.000158
 242	2.3980e+01	9.5933	90.633697	0.000334	3.344568	1.133170	0.000134
 243	2.4079e+01	9.6430	90.795183	0.000405	4.054022	1.373540	0.000162
 244	2.4178e+01	9.6799	90.948594	0.000385	3.851321	1.304863	0.000154
 245	2.4278e+01	9.7249	91.106042	0.000395	3.952671	1.339201	0.000158
 246	2.4378e+01	9.7521	91.251379	0.000365	3.648620	1.236186	0.000146
 247	2.4477e+01	9.7938	91.380567	0.000324	3.243218	1.098832	0.000130
 248	2.4576e+01	9.8259	91.538016	0.000395	3.952671	1.339201	0.000158
 249	2.4676e+01	9.8708	91.667204	0.000324	3.243218	1.098832	0.000130
 250	2.4776e+01	9.9222	91.848875	0.000456	4.560775	1.545232	0.000183
 251	2.4875e+01	9.9607	92.014398	0.000416	4.155373	1.407878	0.000166
 252	2.4974e+01	9.9912	92.139549	0.000314	3.141867	1.064493	0.000126
 253	2.5074e+01	10.0377	92.292960	0.000385	3.851321	1.304863	0.000154
 254	2.5174e+01	10.0778	92.450408	0.000395	3.952671	1.339201	0.000158
 255	2.5273e+01	10.1227	92.648228	0.000497	4.966177	1.682586	0.000199
 256	2.5372e+01	10.1628	92.793565	0.000365	3.648620	1.236186	0.000146
 257	2.5472e+01	10.1805	92.959088	0.000416	4.155373	1.407878	0.000166
 258	2.5572e+01	10.2254	93.128647	0.000426	4.256723	1.442217	0.000170
 259	2.5671e+01	10.2687	93.253798	0.000314	3.141867	1.064493	0.000126
 260	2.5770e+01	10.3184	93.459692	0.000517	5.168878	1.751263	0.000207
 261	2.5870e+01	10.3601	93.596955	0.000345	3.445919	1.167509	0.000138
 262	2.5970e+01	10.3970	93.726143	0.000324	3.243218	1.098832	0.000130
 263	2.6069e+01	10.4323	93.855332	0.000324	3.243218	1.098832	0.000130
 264	2.6169e+01	10.4772	93.976446	0.000304	3.040516	1.030155	0.000122
 265	2.6268e+01	10.5190	94.133894	0.000395	3.952671	1.339201	0.000158
 266	2.6367e+01	10.5526	94.283268	0.000375	3.749970	1.270524	0.000150
 267	2.6467e+01	10.5879	94.428605	0.000365	3.648620	1.236186	0.000146
 268	2.6567e+01	10.6345	94.533570	0.000264	2.635114	0.892801	0.000105
 269	2.6666e+01	10.6698	94.723316	0.000476	4.763476	1.613909	0.000191
 270	2.6765e+01	10.7066	94.872690	0.000375	3.749970	1.270524	0.000150
 271	2.6865e+01	10.7580	94.977655	0.000264	2.635114	0.892801	0.000105
 272	2.6965e+01	10.7837	95.187586	0.000527	5.270229	1.785602	0.000211
 273	2.7064e+01	10.8334	95.353109	0.000416	4.155373	1.407878	0.000166
 274	2.7163e+01	10.8607	95.466149	0.000284	2.837815	0.961478	0.000114
 275	2.7263e+01	10.9120	95.635708	0.000426	4.256723	1.442217	0.000170
 276	2.7363e+01	10.9585	95.793157	0.000395	3.952671	1.339201	0.000158
 277	2.7462e+01	10.9906	95.930419	0.000345	3.445919	1.167509	0.000138
 278	2.7561e+01	11.0275	96.132276	0.000507	5.067527	1.716925	0.000203
 279	2.7661e+01	11.0756	96.221093	0.000223	2.229712	0.755447	0.000089
 280	2.7761e+01	11.1141	96.366430	0.000365	3.648620	1.236186	0.000146
 281	2.7860e+01	11.1526	96.491581	0.000314	3.141867	1.064493	0.000126
 282	2.7959e+01	11.1943	96.665178	0.000436	4.358074	1.476555	0.000174
 283	2.8059e+01	11.2360	96.774181	0.000274	2.736465	0.927139	0.000110
 284	2.8159e+01	11.2713	96.891258	0.000294	2.939166	0.995816	0.000118
 285	2.8258e+01	11.3066	97.044669	0.000385	3.851321	1.304863	0.000154
 286	2.8358e+01	11.3387	97.194043	0.000375	3.749970	1.270524	0.000150
 287	2.8457e+01	11.3965	97.335343	0.000355	3.547269	1.201847	0.000142
 288	2.8556e+01	11.4286	97.472605	0.000345	3.445919	1.167509	0.000138
 289	2.8656e+01	11.4783	97.601794	0.000324	3.243218	1.098832	0.000130
 290	2.8756e+01	11.5168	97.803650	0.000507	5.067527	1.716925	0.000203
 291	2.8855e+01	11.5537	97.969173	0.000416	4.155373	1.407878	0.000166
 292	2.8954e+01	11.5906	98.142770	0.000436	4.358074	1.476555	0.000174
 293	2.9054e+01	11.6323	98.284070	0.000355	3.547269	1.201847	0.000142
 294	2.9154e+01	11.6676	98.380961	0.000243	2.432413	0.824124	0.000097
 295	2.9253e+01	11.7173	98.582818	0.000507	5.067527	1.716925	0.000203
 296	2.9352e+01	11.7414	98.707969	0.000314	3.141867	1.064493	0.000126
 297	2.9452e+01	11.7927	98.829083	0.000304	3.040516	1.030155	0.000122
 298	2.9552e+01	11.8232	98.958271	0.000324	3.243218	1.098832	0.000130
 299	2.9651e+01	11.8713	99.172239	0.000537	5.371579	1.819940	0.000215
 300	2.9750e+01	11.9130	99.265094	0.000233	2.331063	0.789785	0.000093
 301	2.9850e+01	11.9467	99.382170	0.000294	2.939166	0.995816	0.000118
 302	2.9950e+01	11.9932	99.458876	0.000193	1.925660	0.652431	0.000077
 303	3.0049e+01	12.0285	99.652659	0.000486	4.864826	1.648248	0.000195
 304	3.0148e+01	12.0654	99.781847	0.000324	3.243218	1.098832	0.000130
 305	3.0248e+01	12.1071	99.894887	0.000284	2.837815	0.961478	0.000114
 306	3.0348e+01	12.1424	100.080595	0.000466	4.662125	1.579571	0.000187
 307	3.0447e+01	12.1858	100.197672	0.000294	2.939166	0.995816	0.000118
 308	3.0547e+01	12.2291	100.399529	0.000507	5.067527	1.716925	0.000203
 309	3.0646e+01	12.2612	100.581200	0.000456	4.560775	1.545232	0.000183
 310	3.0745e+01	12.3077	100.726537	0.000365	3.648620	1.236186	0.000146
 311	3.0845e+01	12.3446	100.871874	0.000365	3.648620	1.236186	0.000146
 312	3.0945e+01	12.3863	100.992988	0.000304	3.040516	1.030155	0.000122
 313	3.1044e+01	12.4232	101.126213	0.000334	3.344568	1.133170	0.000134
 314	3.1143e+01	12.4633	101.291736	0.000416	4.155373	1.407878	0.000166
 315	3.1243e+01	12.4938	101.416887	0.000314	3.141867	1.064493	0.000126
 316	3.1343e+01	12.5483	101.546075	0.000324	3.243218	1.098832	0.000130
 317	3.1442e+01	12.5868	101.707561	0.000405	4.054022	1.373540	0.000162
 318	3.1541e+01	12.6333	101.836749	0.000324	3.243218	1.098832	0.000130
 319	3.1641e+01	12.6734	101.957863	0.000304	3.040516	1.030155	0.000122
 320	3.1741e+01	12.7007	102.099163	0.000355	3.547269	1.201847	0.000142
 321	3.1840e+01	12.7488	102.256611	0.000395	3.952671	1.339201	0.000158
 322	3.1939e+01	12.7825	102.349465	0.000233	2.331063	0.789785	0.000093
 323	3.2039e+01	12.8355	102.474616	0.000314	3.141867	1.064493	0.000126
 324	3.2139e+01	12.8676	102.656288	0.000456	4.560775	1.545232	0.000183
 325	3.2238e+01	12.9093	102.797587	0.000355	3.547269	1.201847	0.000142
 326	3.2337e+01	12.9397	102.910627	0.000284	2.837815	0.961478	0.000114
 327	3.2437e+01	12.9863	103.092298	0.000456	4.560775	1.545232	0.000183
 328	3.2536e+01	13.0216	103.229561	0.000345	3.445919	1.167509	0.000138
 329	3.2636e+01	13.0649	103.391046	0.000405	4.054022	1.373540	0.000162
 330	3.2736e+01	13.1098	103.536383	0.000365	3.648620	1.236186	0.000146
 331	3.2835e+01	13.1355	103.649423	0.000284	2.837815	0.961478	0.000114
 332	3.2934e+01	13.1804	103.835131	0.000466	4.662125	1.579571	0.000187
 333	3.3034e+01	13.2141	103.952208	0.000294	2.939166	0.995816	0.000118
 334	3.3133e+01	13.2574	104.073322	0.000304	3.040516	1.030155	0.000122
 335	3.3233e+01	13.3007	104.190399	0.000294	2.939166	0.995816	0.000118
 336	3.3333e+01	13.3408	104.315550	0.000314	3.141867	1.064493	0.000126
 337	3.3432e+01	13.3825	104.436664	0.000304	3.040516	1.030155	0.000122
 338	3.3532e+01	13.4178	104.573927	0.000345	3.445919	1.167509	0.000138
 339	3.3631e+01	13.4595	104.703115	0.000324	3.243218	1.098832	0.000130
 340	3.3730e+01	13.4980	104.844415	0.000355	3.547269	1.201847	0.000142
 341	3.3830e+01	13.5365	104.989752	0.000365	3.648620	1.236186	0.000146
 342	3.3929e+01	13.5782	105.106829	0.000294	2.939166	0.995816	0.000118
 343	3.4029e+01	13.6231	105.252166	0.000365	3.648620	1.236186	0.000146
 344	3.4129e+01	13.6616	105.433837	0.000456	4.560775	1.545232	0.000183
 345	3.4228e+01	13.6969	105.587248	0.000385	3.851321	1.304863	0.000154
 346	3.4328e+01	13.7306	105.712399	0.000314	3.141867	1.064493	0.000126
 347	3.4427e+01	13.7772	105.833513	0.000304	3.040516	1.030155	0.000122
 348	3.4526e+01	13.8173	105.994999	0.000405	4.054022	1.373540	0.000162
 349	3.4626e+01	13.8670	106.112076	0.000294	2.939166	0.995816	0.000118
 350	3.4725e+01	13.8991	106.237227	0.000314	3.141867	1.064493	0.000126
 351	3.4825e+01	13.9344	106.390638	0.000385	3.851321	1.304863	0.000154
 352	3.4925e+01	13.9809	106.527901	0.000345	3.445919	1.167509	0.000138
 353	3.5024e+01	14.0210	106.657089	0.000324	3.243218	1.098832	0.000130
 354	3.5123e+01	14.0787	106.753980	0.000243	2.432413	0.824124	0.000097
 355	3.5223e+01	14.0980	106.879132	0.000314	3.141867	1.064493	0.000126
 356	3.5322e+01	14.1413	107.044654	0.000416	4.155373	1.407878	0.000166
 357	3.5422e+01	14.1846	107.169805	0.000314	3.141867	1.064493	0.000126
 358	3.5522e+01	14.2151	107.270734	0.000253	2.533764	0.858462	0.000101
 359	3.5621e+01	14.2520	107.480665	0.000527	5.270229	1.785602	0.000211
 360	3.5721e+01	14.2921	107.617927	0.000345	3.445919	1.167509	0.000138
 361	3.5820e+01	14.3306	107.763264	0.000365	3.648620	1.236186	0.000146
 362	3.5919e+01	14.3739	107.928787	0.000416	4.155373	1.407878	0.000166
 363	3.6019e+01	14.4124	108.062012	0.000334	3.344568	1.133170	0.000134
 364	3.6118e+01	14.4606	108.203312	0.000355	3.547269	1.201847	0.000142
 365	3.6218e+01	14.5023	108.356723	0.000385	3.851321	1.304863	0.000154
 366	3.6318e+01	14.5327	108.498023	0.000355	3.547269	1.201847	0.000142
 367	3.6417e+01	14.5729	108.627211	0.000324	3.243218	1.098832	0.000130
 368	3.6517e+01	14.6065	108.744288	0.000294	2.939166	0.995816	0.000118
 369	3.6616e+01	14.6515	108.869439	0.000314	3.141867	1.064493	0.000126
 370	3.6715e+01	14.6964	109.030925	0.000405	4.054022	1.373540	0.000162
 371	3.6815e+01	14.7365	109.111668	0.000203	2.027011	0.686770	0.000081
 372	3.6914e+01	14.7718	109.216633	0.000264	2.635114	0.892801	0.000105
 373	3.7014e+01	14.8135	109.361970	0.000365	3.648620	1.236186	0.000146
 374	3.7114e+01	14.8584	109.454824	0.000233	2.331063	0.789785	0.000093
 375	3.7213e+01	14.8953	109.624384	0.000426	4.256723	1.442217	0.000170
 376	3.7313e+01	14.9290	109.745498	0.000304	3.040516	1.030155	0.000122
 377	3.7412e+01	14.9755	109.854501	0.000274	2.736465	0.927139	0.000110
 378	3.7511e+01	15.0156	110.015986	0.000405	4.054022	1.373540	0.000162
 379	3.7611e+01	15.0525	110.193620	0.000446	4.459424	1.510894	0.000179
 380	3.7711e+01	15.0926	110.342994	0.000375	3.749970	1.270524	0.000150
 381	3.7810e+01	15.1359	110.472182	0.000324	3.243218	1.098832	0.000130
 382	3.7910e+01	15.1776	110.601371	0.000324	3.243218	1.098832	0.000130
 383	3.8009e+01	15.2161	110.742670	0.000355	3.547269	1.201847	0.000142
 384	3.8108e+01	15.2514	110.888007	0.000365	3.648620	1.236186	0.000146
 385	3.8208e+01	15.2899	111.021233	0.000334	3.344568	1.133170	0.000134
 386	3.8307e+01	15.3220	111.138310	0.000294	2.939166	0.995816	0.000118
 387	3.8407e+01	15.3734	111.267498	0.000324	3.243218	1.098832	0.000130
 388	3.8507e+01	15.4247	111.368426	0.000253	2.533764	0.858462	0.000101
 389	3.8606e+01	15.4552	111.501652	0.000334	3.344568	1.133170	0.000134
 390	3.8706e+01	15.4905	111.622766	0.000304	3.040516	1.030155	0.000122
 391	3.8805e+01	15.5354	111.747917	0.000314	3.141867	1.064493	0.000126
 392	3.8904e+01	15.5755	111.860957	0.000284	2.837815	0.961478	0.000114
 393	3.9004e+01	15.6172	112.002257	0.000355	3.547269	1.201847	0.000142
 394	3.9103e+01	15.6493	112.151631	0.000375	3.749970	1.270524	0.000150
 395	3.9203e+01	15.6942	112.272745	0.000304	3.040516	1.030155	0.000122
 396	3.9303e+01	15.7327	112.405970	0.000334	3.344568	1.133170	0.000134
 397	3.9402e+01	15.7712	112.551307	0.000365	3.648620	1.236186	0.000146
 398	3.9502e+01	15.8097	112.696644	0.000365	3.648620	1.236186	0.000146
 399	3.9601e+01	15.8562	112.846018	0.000375	3.749970	1.270524	0.000150
 400	3.9700e+01	15.8867	112.955021	0.000274	2.736465	0.927139	0.000110
 401	3.9800e+01	15.9300	113.096321	0.000355	3.547269	1.201847	0.000142
 402	3.9900e+01	15.9717	113.197249	0.000253	2.533764	0.858462	0.000101
 403	3.9999e+01	16.0054	113.370846	0.000436	4.358074	1.476555	0.000174
 404	4.0099e+01	16.0455	113.495997	0.000314	3.141867	1.064493	0.000126
 405	4.0198e+01	16.0953	113.625185	0.000324	3.243218	1.098832	0.000130
 406	4.0297e+01	16.1322	113.722077	0.000243	2.432413	0.824124	0.000097
 407	4.0397e+01	16.1642	113.818968	0.000243	2.432413	0.824124	0.000097
 408	4.0496e+01	16.2172	113.940082	0.000304	3.040516	1.030155	0.000122
 409	4.0596e+01	16.2493	114.089456	0.000375	3.749970	1.270524	0.000150
 410	4.0696e+01	16.2942	114.162124	0.000182	1.824310	0.618093	0.000073
 411	4.0795e+01	16.3247	114.307461	0.000365	3.648620	1.236186	0.000146
 412	4.0895e+01	16.3616	114.452798	0.000365	3.648620	1.236186	0.000146
 413	4.0994e+01	16.3969	114.618321	0.000416	4.155373	1.407878	0.000166
 414	4.1093e+01	16.4482	114.759620	0.000355	3.547269	1.201847	0.000142
 415	4.1193e+01	16.4851	114.908995	0.000375	3.749970	1.270524	0.000150
 416	4.1292e+01	16.5300	115.030109	0.000304	3.040516	1.030155	0.000122
 417	4.1392e+01	16.5605	115.175445	0.000365	3.648620	1.236186	0.000146
 418	4.1492e+01	16.6118	115.292522	0.000294	2.939166	0.995816	0.000118
 419	4.1591e+01	16.6407	115.421711	0.000324	3.243218	1.098832	0.000130
 420	4.1691e+01	16.6904	115.538788	0.000294	2.939166	0.995816	0.000118
 421	4.1790e+01	16.7225	115.651827	0.000284	2.837815	0.961478	0.000114
 422	4.1889e+01	16.7723	115.789090	0.000345	3.445919	1.167509	0.000138
 423	4.1989e+01	16.8027	115.918278	0.000324	3.243218	1.098832	0.000130
 424	4.2089e+01	16.8444	116.023244	0.000264	2.635114	0.892801	0.000105
 425	4.2188e+01	16.8894	116.108024	0.000213	2.128362	0.721108	0.000085
 426	4.2288e+01	16.9214	116.261435	0.000385	3.851321	1.304863	0.000154
 427	4.2387e+01	16.9712	116.374475	0.000284	2.837815	0.961478	0.000114
 428	4.2486e+01	17.0017	116.507700	0.000334	3.344568	1.133170	0.000134
 429	4.2586e+01	17.0514	116.644963	0.000345	3.445919	1.167509	0.000138
 430	4.2685e+01	17.0819	116.774151	0.000324	3.243218	1.098832	0.000130
 431	4.2785e+01	17.1188	116.927562	0.000385	3.851321	1.304863	0.000154
 432	4.2885e+01	17.1653	117.076936	0.000375	3.749970	1.270524	0.000150
 433	4.2984e+01	17.2038	117.202088	0.000314	3.141867	1.064493	0.000126
 434	4.3084e+01	17.2487	117.335313	0.000334	3.344568	1.133170	0.000134
 435	4.3183e+01	17.2824	117.436241	0.000253	2.533764	0.858462	0.000101
 436	4.3282e+01	17.3289	117.601764	0.000416	4.155373	1.407878	0.000166
 437	4.3382e+01	17.3642	117.714804	0.000284	2.837815	0.961478	0.000114
 438	4.3481e+01	17.3931	117.803621	0.000223	2.229712	0.755447	0.000089
 439	4.3581e+01	17.4444	117.948958	0.000365	3.648620	1.236186	0.000146
 440	4.3681e+01	17.4829	118.053923	0.000264	2.635114	0.892801	0.000105
 441	4.3780e+01	17.5311	118.171000	0.000294	2.939166	0.995816	0.000118
 442	4.3880e+01	17.5696	118.304226	0.000334	3.344568	1.133170	0.000134
 443	4.3979e+01	17.6049	118.401117	0.000243	2.432413	0.824124	0.000097
 444	4.4078e+01	17.6434	118.493971	0.000233	2.331063	0.789785	0.000093
 445	4.4178e+01	17.6867	118.594899	0.000253	2.533764	0.858462	0.000101
 446	4.4278e+01	17.7300	118.711976	0.000294	2.939166	0.995816	0.000118
 447	4.4377e+01	17.7605	118.841165	0.000324	3.243218	1.098832	0.000130
 448	4.4477e+01	17.8006	118.998613	0.000395	3.952671	1.339201	0.000158
 449	4.4576e+01	17.8391	119.139913	0.000355	3.547269	1.201847	0.000142
 450	4.4675e+01	17.8808	119.313510	0.000436	4.358074	1.476555	0.000174
 451	4.4775e+01	17.9145	119.398289	0.000213	2.128362	0.721108	0.000085
 452	4.4874e+01	17.9626	119.527478	0.000324	3.243218	1.098832	0.000130
 453	4.4974e+01	17.9995	119.652629	0.000314	3.141867	1.064493	0.000126
 454	4.5074e+01	18.0396	119.769706	0.000294	2.939166	0.995816	0.000118
 455	4.5173e+01	18.0829	119.882746	0.000284	2.837815	0.961478	0.000114
 456	4.5273e+01	18.1198	120.020008	0.000345	3.445919	1.167509	0.000138
 457	4.5372e+01	18.1615	120.133048	0.000284	2.837815	0.961478	0.000114
 458	4.5471e+01	18.1968	120.270311	0.000345	3.445919	1.167509	0.000138
 459	4.5571e+01	18.2369	120.395462	0.000314	3.141867	1.064493	0.000126
 460	4.5670e+01	18.2770	120.492353	0.000243	2.432413	0.824124	0.000097
 461	4.5770e+01	18.3252	120.601356	0.000274	2.736465	0.927139	0.000110
 462	4.5870e+01	18.3653	120.690173	0.000223	2.229712	0.755447	0.000089
 463	4.5969e+01	18.4054	120.827436	0.000345	3.445919	1.167509	0.000138
 464	4.6069e+01	18.4407	120.940475	0.000284	2.837815	0.961478	0.000114
 465	4.6168e+01	18.4808	121.053515	0.000284	2.837815	0.961478	0.000114
 466	4.6267e+01	18.5337	121.235186	0.000456	4.560775	1.545232	0.000183
 467	4.6367e+01	18.5594	121.336115	0.000253	2.533764	0.858462	0.000101
 468	4.6467e+01	18.6059	121.428969	0.000233	2.331063	0.789785	0.000093
 469	4.6566e+01	18.6412	121.598528	0.000426	4.256723	1.442217	0.000170
 470	4.6666e+01	18.6749	121.659085	0.000152	1.520258	0.515077	0.000061
 471	4.6765e+01	18.7246	121.840757	0.000456	4.560775	1.545232	0.000183
 472	4.6864e+01	18.7647	121.917462	0.000193	1.925660	0.652431	0.000077
 473	4.6964e+01	18.7984	122.058762	0.000355	3.547269	1.201847	0.000142
 474	4.7063e+01	18.8465	122.179876	0.000304	3.040516	1.030155	0.000122
 475	4.7163e+01	18.8818	122.305027	0.000314	3.141867	1.064493	0.000126
 476	4.7263e+01	18.9171	122.405956	0.000253	2.533764	0.858462	0.000101
 477	4.7362e+01	18.9492	122.527070	0.000304	3.040516	1.030155	0.000122
 478	4.7462e+01	19.0005	122.688555	0.000405	4.054022	1.373540	0.000162
 479	4.7561e+01	19.0422	122.753149	0.000162	1.621609	0.549416	0.000065
 480	4.7660e+01	19.0823	122.902523	0.000375	3.749970	1.270524	0.000150
 481	4.7760e+01	19.1257	123.003452	0.000253	2.533764	0.858462	0.000101
 482	4.7859e+01	19.1610	123.128603	0.000314	3.141867	1.064493	0.000126
 483	4.7959e+01	19.2011	123.229531	0.000253	2.533764	0.858462	0.000101
 484	4.8059e+01	19.2380	123.362757	0.000334	3.344568	1.133170	0.000134
 485	4.8158e+01	19.2797	123.459648	0.000243	2.432413	0.824124	0.000097
 486	4.8258e+01	19.3310	123.572688	0.000284	2.837815	0.961478	0.000114
 487	4.8357e+01	19.3599	123.746285	0.000436	4.358074	1.476555	0.000174
 488	4.8456e+01	19.3968	123.831064	0.000213	2.128362	0.721108	0.000085
 489	4.8556e+01	19.4417	123.956216	0.000314	3.141867	1.064493	0.000126
 490	4.8656e+01	19.4770	124.081367	0.000314	3.141867	1.064493	0.000126
 491	4.8755e+01	19.5219	124.214592	0.000334	3.344568	1.133170	0.000134
 492	4.8855e+01	19.5428	124.311484	0.000243	2.432413	0.824124	0.000097
 493	4.8954e+01	19.5925	124.420486	0.000274	2.736465	0.927139	0.000110
 494	4.9053e+01	19.6374	124.525452	0.000264	2.635114	0.892801	0.000105
 495	4.9153e+01	19.6759	124.695012	0.000426	4.256723	1.442217	0.000170
 496	4.9252e+01	19.7160	124.808051	0.000284	2.837815	0.961478	0.000114
 497	4.9352e+01	19.7577	124.945314	0.000345	3.445919	1.167509	0.000138
 498	4.9452e+01	19.7866	125.038168	0.000233	2.331063	0.789785	0.000093
 499	4.9551e+01	19.8363	125.203691	0.000416	4.155373	1.407878	0.000166
 500	4.9651e+01	19.8845	125.280396	0.000193	1.925660	0.652431	0.000077
 501	4.9750e+01	19.9149	125.361139	0.000203	2.027011	0.686770	0.000081
 502	4.9849e+01	19.9551	125.474179	0.000284	2.837815	0.961478	0.000114
 503	4.9949e+01	19.9936	125.587219	0.000284	2.837815	0.961478	0.000114
 504	5.0048e+01	19.9534	125.498402	0.000223	2.229712	0.755447	-0.000089
 505	5.0148e+01	19.9166	125.401510	0.000243	2.432413	0.824124	-0.000097
 506	5.0248e+01	19.8684	125.308656	0.000233	2.331063	0.789785	-0.000093
 507	5.0347e+01	19.8428	125.248099	0.000152	1.520258	0.515077	-0.000061
 508	5.0447e+01	19.7914	125.179468	0.000172	1.722959	0.583754	-0.000069
 509	5.0546e+01	19.7625	125.042205	0.000345	3.445919	1.167509	-0.000138
 510	5.0645e+01	19.7128	125.005871	0.000091	0.912155	0.309046	-0.000037
 511	5.0745e+01	19.6759	124.933203	0.000182	1.824310	0.618093	-0.000073
 512	5.0844e+01	19.6374	124.751531	0.000456	4.560775	1.545232	-0.000183
 513	5.0944e+01	19.6037	124.707123	0.000111	1.114856	0.377723	-0.000045
 514	5.1044e+01	19.5540	124.678863	0.000071	0.709454	0.240369	-0.000028
 515	5.1143e+01	19.5139	124.549675	0.000324	3.243218	1.098832	-0.000130
 516	5.1242e+01	19.4898	124.513340	0.000091	0.912155	0.309046	-0.000037
 517	5.1342e+01	19.4321	124.400301	0.000284	2.837815	0.961478	-0.000114
 518	5.1441e+01	19.4032	124.283224	0.000294	2.939166	0.995816	-0.000118
 519	5.1541e+01	19.3615	124.166147	0.000294	2.939166	0.995816	-0.000118
 520	5.1641e+01	19.3166	124.061181	0.000264	2.635114	0.892801	-0.000105
 521	5.1740e+01	19.2700	123.964290	0.000243	2.432413	0.824124	-0.000097
 522	5.1840e+01	19.2283	123.919881	0.000111	1.114856	0.377723	-0.000045
 523	5.1939e+01	19.2011	123.774545	0.000365	3.648620	1.236186	-0.000146
 524	5.2038e+01	19.1561	123.677653	0.000243	2.432413	0.824124	-0.000097
 525	5.2138e+01	19.1112	123.584799	0.000233	2.331063	0.789785	-0.000093
 526	5.2237e+01	19.0791	123.483871	0.000253	2.533764	0.858462	-0.000101
 527	5.2337e+01	19.0390	123.407165	0.000193	1.925660	0.652431	-0.000077
 528	5.2437e+01	19.0005	123.334497	0.000182	1.824310	0.618093	-0.000073
 529	5.2536e+01	18.9540	123.229531	0.000264	2.635114	0.892801	-0.000105
 530	5.2636e+01	18.9251	123.132640	0.000243	2.432413	0.824124	-0.000097
 531	5.2735e+01	18.8850	123.019600	0.000284	2.837815	0.961478	-0.000114
 532	5.2834e+01	18.8449	122.955006	0.000162	1.621609	0.549416	-0.000065
 533	5.2934e+01	18.8048	122.874263	0.000203	2.027011	0.686770	-0.000081
 534	5.3033e+01	18.7599	122.757186	0.000294	2.939166	0.995816	-0.000118
 535	5.3133e+01	18.7134	122.704704	0.000132	1.317557	0.446400	-0.000053
 536	5.3233e+01	18.6797	122.575515	0.000324	3.243218	1.098832	-0.000130
 537	5.3332e+01	18.6412	122.430178	0.000365	3.648620	1.236186	-0.000146
 538	5.3431e+01	18.6027	122.288879	0.000355	3.547269	1.201847	-0.000142
 539	5.3531e+01	18.5562	122.196025	0.000233	2.331063	0.789785	-0.000093
 540	5.3630e+01	18.5257	122.131430	0.000162	1.621609	0.549416	-0.000065
 541	5.3730e+01	18.4743	121.994168	0.000345	3.445919	1.167509	-0.000138
 542	5.3830e+01	18.4519	121.885165	0.000274	2.736465	0.927139	-0.000110
 543	5.3929e+01	18.4006	121.796348	0.000223	2.229712	0.755447	-0.000089
 544	5.4029e+01	18.3572	121.687345	0.000274	2.736465	0.927139	-0.000110
 545	5.4128e+01	18.3123	121.610640	0.000193	1.925660	0.652431	-0.000077
 546	5.4227e+01	18.2834	121.469340	0.000355	3.547269	1.201847	-0.000142
 547	5.4327e+01	18.2481	121.416857	0.000132	1.317557	0.446400	-0.000053
 548	5.4426e+01	18.2016	121.324003	0.000233	2.331063	0.789785	-0.000093
 549	5.4526e+01	18.1647	121.215001	0.000274	2.736465	0.927139	-0.000110
 550	5.4626e+01	18.1198	121.126184	0.000223	2.229712	0.755447	-0.000089
 551	5.4725e+01	18.0861	121.041404	0.000213	2.128362	0.721108	-0.000085
 552	5.4825e+01	18.0396	120.940475	0.000253	2.533764	0.858462	-0.000101
 553	5.4924e+01	18.0091	120.843584	0.000243	2.432413	0.824124	-0.000097
 554	5.5023e+01	17.9626	120.738619	0.000264	2.635114	0.892801	-0.000105
 555	5.5123e+01	17.9113	120.621542	0.000294	2.939166	0.995816	-0.000118
 556	5.5222e+01	17.8888	120.476205	0.000365	3.648620	1.236186	-0.000146
 557	5.5322e+01	17.8455	120.379313	0.000243	2.432413	0.824124	-0.000097
 558	5.5422e+01	17.8070	120.286459	0.000233	2.331063	0.789785	-0.000093
 559	5.5521e+01	17.7589	120.185531	0.000253	2.533764	0.858462	-0.000101
 560	5.5620e+01	17.7316	120.028083	0.000395	3.952671	1.339201	-0.000158
 561	5.5720e+01	17.6835	119.955414	0.000182	1.824310	0.618093	-0.000073
 562	5.5819e+01	17.6401	119.854486	0.000253	2.533764	0.858462	-0.000101
 563	5.5919e+01	17.6097	119.741446	0.000284	2.837815	0.961478	-0.000114
 564	5.6019e+01	17.5615	119.600146	0.000355	3.547269	1.201847	-0.000142
 565	5.6118e+01	17.5214	119.543626	0.000142	1.418908	0.480739	-0.000057
 566	5.6218e+01	17.4861	119.426549	0.000294	2.939166	0.995816	-0.000118
 567	5.6317e+01	17.4460	119.321584	0.000264	2.635114	0.892801	-0.000105
 568	5.6416e+01	17.4043	119.220655	0.000253	2.533764	0.858462	-0.000101
 569	5.6516e+01	17.3626	119.180284	0.000101	1.013505	0.343385	-0.000041
 570	5.6615e+01	17.3193	119.067244	0.000284	2.837815	0.961478	-0.000114
 571	5.6715e+01	17.2824	118.921907	0.000365	3.648620	1.236186	-0.000146
 572	5.6815e+01	17.2503	118.841165	0.000203	2.027011	0.686770	-0.000081
 573	5.6914e+01	17.2102	118.679679	0.000405	4.054022	1.373540	-0.000162
 574	5.7014e+01	17.1653	118.570677	0.000274	2.736465	0.927139	-0.000110
 575	5.7113e+01	17.1204	118.433414	0.000345	3.445919	1.167509	-0.000138
 576	5.7212e+01	17.0851	118.364783	0.000172	1.722959	0.583754	-0.000069
 577	5.7312e+01	17.0466	118.215409	0.000375	3.749970	1.270524	-0.000150
 578	5.7411e+01	17.0081	118.110443	0.000264	2.635114	0.892801	-0.000105
 579	5.7511e+01	16.9696	118.005478	0.000264	2.635114	0.892801	-0.000105
 580	5.7611e+01	16.9375	117.904549	0.000253	2.533764	0.858462	-0.000101
 581	5.7710e+01	16.8846	117.823807	0.000203	2.027011	0.686770	-0.000081
 582	5.7809e+01	16.8477	117.702692	0.000304	3.040516	1.030155	-0.000122
 583	5.7909e+01	16.8027	117.589653	0.000284	2.837815	0.961478	-0.000114
 584	5.8008e+01	16.7610	117.492761	0.000243	2.432413	0.824124	-0.000097
 585	5.8108e+01	16.7305	117.383759	0.000274	2.736465	0.927139	-0.000110
 586	5.8208e+01	16.6872	117.282830	0.000253	2.533764	0.858462	-0.000101
 587	5.8307e+01	16.6471	117.185939	0.000243	2.432413	0.824124	-0.000097
 588	5.8407e+01	16.6038	117.113271	0.000182	1.824310	0.618093	-0.000073
 589	5.8506e+01	16.5749	117.000231	0.000284	2.837815	0.961478	-0.000114
 590	5.8605e+01	16.5284	116.923525	0.000193	1.925660	0.652431	-0.000077
 591	5.8705e+01	16.4851	116.774151	0.000375	3.749970	1.270524	-0.000150
 592	5.8804e+01	16.4514	116.644963	0.000324	3.243218	1.098832	-0.000130
 593	5.8904e+01	16.4065	116.503663	0.000355	3.547269	1.201847	-0.000142
 594	5.9004e+01	16.3680	116.386586	0.000294	2.939166	0.995816	-0.000118
 595	5.9103e+01	16.3407	116.261435	0.000314	3.141867	1.064493	-0.000126
 596	5.9203e+01	16.2830	116.168581	0.000233	2.331063	0.789785	-0.000093
 597	5.9302e+01	16.2509	116.055541	0.000284	2.837815	0.961478	-0.000114
 598	5.9401e+01	16.2060	115.958650	0.000243	2.432413	0.824124	-0.000097
 599	5.9501e+01	16.1755	115.845610	0.000284	2.837815	0.961478	-0.000114
 600	5.9600e+01	16.1257	115.744682	0.000253	2.533764	0.858462	-0.000101
 601	5.9700e+01	16.0921	115.603382	0.000355	3.547269	1.201847	-0.000142
 602	5.9800e+01	16.0439	115.502453	0.000253	2.533764	0.858462	-0.000101
 603	5.9899e+01	16.0086	115.401525	0.000253	2.533764	0.858462	-0.000101
 604	5.9998e+01	15.9717	115.284448	0.000294	2.939166	0.995816	-0.000118
 605	6.0098e+01	15.9332	115.195631	0.000223	2.229712	0.755447	-0.000089
 606	6.0197e+01	15.8787	115.094703	0.000253	2.533764	0.858462	-0.000101
 607	6.0297e+01	15.8514	114.985700	0.000274	2.736465	0.927139	-0.000110
 608	6.0397e+01	15.8129	114.925143	0.000152	1.520258	0.515077	-0.000061
 609	6.0496e+01	15.7760	114.755583	0.000426	4.256723	1.442217	-0.000170
 610	6.0596e+01	15.7407	114.618321	0.000345	3.445919	1.167509	-0.000138
 611	6.0695e+01	15.6974	114.472984	0.000365	3.648620	1.236186	-0.000146
 612	6.0794e+01	15.6461	114.335721	0.000345	3.445919	1.167509	-0.000138
 613	6.0894e+01	15.6124	114.254979	0.000203	2.027011	0.686770	-0.000081
 614	6.0993e+01	15.5691	114.093493	0.000405	4.054022	1.373540	-0.000162
 615	6.1093e+01	15.5386	113.988528	0.000264	2.635114	0.892801	-0.000105
 616	6.1193e+01	15.4969	113.818968	0.000426	4.256723	1.442217	-0.000170
 617	6.1292e+01	15.4520	113.742262	0.000193	1.925660	0.652431	-0.000077
 618	6.1392e+01	15.4103	113.641334	0.000253	2.533764	0.858462	-0.000101
 619	6.1491e+01	15.3702	113.528294	0.000284	2.837815	0.961478	-0.000114
 620	6.1590e+01	15.3349	113.431403	0.000243	2.432413	0.824124	-0.000097
 621	6.1690e+01	15.2851	113.306252	0.000314	3.141867	1.064493	-0.000126
 622	6.1789e+01	15.2563	113.217435	0.000223	2.229712	0.755447	-0.000089
 623	6.1889e+01	15.2145	113.104395	0.000284	2.837815	0.961478	-0.000114
 624	6.1989e+01	15.1776	112.979244	0.000314	3.141867	1.064493	-0.000126
 625	6.2088e+01	15.1295	112.894464	0.000213	2.128362	0.721108	-0.000085
 626	6.2188e+01	15.0894	112.757201	0.000345	3.445919	1.167509	-0.000138
 627	6.2287e+01	15.0541	112.611864	0.000365	3.648620	1.236186	-0.000146
 628	6.2386e+01	15.0076	112.547270	0.000162	1.621609	0.549416	-0.000065
 629	6.2486e+01	14.9771	112.381748	0.000416	4.155373	1.407878	-0.000166
 630	6.2586e+01	14.9306	112.244485	0.000345	3.445919	1.167509	-0.000138
 631	6.2685e+01	14.8953	112.107222	0.000345	3.445919	1.167509	-0.000138
 632	6.2785e+01	14.8568	112.014368	0.000233	2.331063	0.789785	-0.000093
 633	6.2884e+01	14.8103	111.856920	0.000395	3.952671	1.339201	-0.000158
 634	6.2983e+01	14.7734	111.731769	0.000314	3.141867	1.064493	-0.000126
 635	6.3083e+01	14.7301	111.634877	0.000243	2.432413	0.824124	-0.000097
 636	6.3182e+01	14.6884	111.533949	0.000253	2.533764	0.858462	-0.000101
 637	6.3282e+01	14.6563	111.392649	0.000355	3.547269	1.201847	-0.000142
 638	6.3382e+01	14.6210	111.287684	0.000264	2.635114	0.892801	-0.000105
 639	6.3481e+01	14.5793	111.186755	0.000253	2.533764	0.858462	-0.000101
 640	6.3581e+01	14.5424	111.077753	0.000274	2.736465	0.927139	-0.000110
 641	6.3680e+01	14.4991	110.960676	0.000294	2.939166	0.995816	-0.000118
 642	6.3779e+01	14.4573	110.859747	0.000253	2.533764	0.858462	-0.000101
 643	6.3879e+01	14.4060	110.787079	0.000182	1.824310	0.618093	-0.000073
 644	6.3978e+01	14.3739	110.617519	0.000426	4.256723	1.442217	-0.000170
 645	6.4078e+01	14.3354	110.556962	0.000152	1.520258	0.515077	-0.000061
 646	6.4177e+01	14.2953	110.379328	0.000446	4.459424	1.510894	-0.000179
 647	6.4277e+01	14.2536	110.225917	0.000385	3.851321	1.304863	-0.000154
 648	6.4376e+01	14.2151	110.120952	0.000264	2.635114	0.892801	-0.000105
 649	6.4476e+01	14.1782	109.999837	0.000304	3.040516	1.030155	-0.000122
 650	6.4576e+01	14.1381	109.882761	0.000294	2.939166	0.995816	-0.000118
 651	6.4675e+01	14.0996	109.701089	0.000456	4.560775	1.545232	-0.000183
 652	6.4775e+01	14.0579	109.620347	0.000203	2.027011	0.686770	-0.000081
 653	6.4874e+01	14.0194	109.499233	0.000304	3.040516	1.030155	-0.000122
 654	6.4974e+01	13.9729	109.394267	0.000264	2.635114	0.892801	-0.000105
 655	6.5073e+01	13.9408	109.248930	0.000365	3.648620	1.236186	-0.000146
 656	6.5172e+01	13.8991	109.143965	0.000264	2.635114	0.892801	-0.000105
 657	6.5272e+01	13.8590	109.026888	0.000294	2.939166	0.995816	-0.000118
 658	6.5371e+01	13.8124	108.929996	0.000243	2.432413	0.824124	-0.000097
 659	6.5471e+01	13.7820	108.816957	0.000284	2.837815	0.961478	-0.000114
 660	6.5570e+01	13.7467	108.728140	0.000223	2.229712	0.755447	-0.000089
 661	6.5670e+01	13.7018	108.619137	0.000274	2.736465	0.927139	-0.000110
 662	6.5769e+01	13.6568	108.469763	0.000375	3.749970	1.270524	-0.000150
 663	6.5869e+01	13.6264	108.328463	0.000355	3.547269	1.201847	-0.000142
 664	6.5969e+01	13.5814	108.187164	0.000355	3.547269	1.201847	-0.000142
 665	6.6068e+01	13.5365	108.049901	0.000345	3.445919	1.167509	-0.000138
 666	6.6168e+01	13.5060	107.936861	0.000284	2.837815	0.961478	-0.000114
 667	6.6267e+01	13.4611	107.783450	0.000385	3.851321	1.304863	-0.000154
 668	6.6367e+01	13.4258	107.666373	0.000294	2.939166	0.995816	-0.000118
 669	6.6466e+01	13.3761	107.516999	0.000375	3.749970	1.270524	-0.000150
 670	6.6566e+01	13.3408	107.416071	0.000253	2.533764	0.858462	-0.000101
 671	6.6665e+01	13.2991	107.311105	0.000264	2.635114	0.892801	-0.000105
 672	6.6764e+01	13.2606	107.194028	0.000294	2.939166	0.995816	-0.000118
 673	6.6864e+01	13.2173	107.016394	0.000446	4.459424	1.510894	-0.000179
 674	6.6963e+01	13.1852	106.903354	0.000284	2.837815	0.961478	-0.000114
 675	6.7063e+01	13.1483	106.810500	0.000233	2.331063	0.789785	-0.000093
 676	6.7162e+01	13.1002	106.681312	0.000324	3.243218	1.098832	-0.000130
 677	6.7262e+01	13.0569	106.531938	0.000375	3.749970	1.270524	-0.000150
 678	6.7362e+01	13.0200	106.467344	0.000162	1.621609	0.549416	-0.000065
 679	6.7461e+01	12.9766	106.354304	0.000284	2.837815	0.961478	-0.000114
 680	6.7561e+01	12.9430	106.233190	0.000304	3.040516	1.030155	-0.000122
 681	6.7660e+01	12.9061	106.067667	0.000416	4.155373	1.407878	-0.000166
 682	6.7760e+01	12.8643	105.974813	0.000233	2.331063	0.789785	-0.000093
 683	6.7859e+01	12.8258	105.797179	0.000446	4.459424	1.510894	-0.000179
 684	6.7959e+01	12.7889	105.692214	0.000264	2.635114	0.892801	-0.000105
 685	6.8058e+01	12.7392	105.554951	0.000345	3.445919	1.167509	-0.000138
 686	6.8157e+01	12.7151	105.429800	0.000314	3.141867	1.064493	-0.000126
 687	6.8257e+01	12.6622	105.292537	0.000345	3.445919	1.167509	-0.000138
 688	6.8356e+01	12.6317	105.211794	0.000203	2.027011	0.686770	-0.000081
 689	6.8456e+01	12.5852	105.054346	0.000395	3.952671	1.339201	-0.000158
 690	6.8555e+01	12.5467	104.929195	0.000314	3.141867	1.064493	-0.000126
 691	6.8655e+01	12.4986	104.775784	0.000385	3.851321	1.304863	-0.000154
 692	6.8754e+01	12.4681	104.678893	0.000243	2.432413	0.824124	-0.000097
 693	6.8854e+01	12.4232	104.569890	0.000274	2.736465	0.927139	-0.000110
 694	6.8954e+01	12.3927	104.440702	0.000324	3.243218	1.098832	-0.000130
 695	6.9053e+01	12.3462	104.327662	0.000284	2.837815	0.961478	-0.000114
 696	6.9153e+01	12.3013	104.198473	0.000324	3.243218	1.098832	-0.000130
 697	6.9252e+01	12.2756	104.121768	0.000193	1.925660	0.652431	-0.000077
 698	6.9352e+01	12.2371	103.992579	0.000324	3.243218	1.098832	-0.000130
 699	6.9451e+01	12.1874	103.863391	0.000324	3.243218	1.098832	-0.000130
 700	6.9550e+01	12.1440	103.709980	0.000385	3.851321	1.304863	-0.000154
 701	6.9650e+01	12.1055	103.572717	0.000345	3.445919	1.167509	-0.000138
 702	6.9749e+01	12.0719	103.427380	0.000365	3.648620	1.236186	-0.000146
 703	6.9849e+01	12.0285	103.269932	0.000395	3.952671	1.339201	-0.000158
 704	6.9948e+01	11.9836	103.136707	0.000334	3.344568	1.133170	-0.000134
 705	7.0048e+01	11.9467	103.039815	0.000243	2.432413	0.824124	-0.000097
 706	7.0147e+01	11.9066	102.886404	0.000385	3.851321	1.304863	-0.000154
 707	7.0247e+01	11.8633	102.757216	0.000324	3.243218	1.098832	-0.000130
 708	7.0347e+01	11.8200	102.648213	0.000274	2.736465	0.927139	-0.000110
 709	7.0446e+01	11.7927	102.502876	0.000365	3.648620	1.236186	-0.000146
 710	7.0546e+01	11.7526	102.389837	0.000284	2.837815	0.961478	-0.000114
 711	7.0645e+01	11.7061	102.264685	0.000314	3.141867	1.064493	-0.000126
 712	7.0745e+01	11.6724	102.151646	0.000284	2.837815	0.961478	-0.000114
 713	7.0844e+01	11.6307	102.030532	0.000304	3.040516	1.030155	-0.000122
 714	7.0944e+01	11.5874	101.877120	0.000385	3.851321	1.304863	-0.000154
 715	7.1043e+01	11.5457	101.776192	0.000253	2.533764	0.858462	-0.000101
 716	7.1142e+01	11.5040	101.687375	0.000223	2.229712	0.755447	-0.000089
 717	7.1242e+01	11.4703	101.546075	0.000355	3.547269	1.201847	-0.000142
 718	7.1341e+01	11.4270	101.380553	0.000416	4.155373	1.407878	-0.000166
 719	7.1441e+01	11.4013	101.279624	0.000253	2.533764	0.858462	-0.000101
 720	7.1540e+01	11.3612	101.101990	0.000446	4.459424	1.510894	-0.000179
 721	7.1640e+01	11.3130	100.968765	0.000334	3.344568	1.133170	-0.000134
 722	7.1740e+01	11.2553	100.827465	0.000355	3.547269	1.201847	-0.000142
 723	7.1839e+01	11.2216	100.649831	0.000446	4.459424	1.510894	-0.000179
 724	7.1939e+01	11.1895	100.548903	0.000253	2.533764	0.858462	-0.000101
 725	7.2038e+01	11.1462	100.411640	0.000345	3.445919	1.167509	-0.000138
 726	7.2138e+01	11.1061	100.270340	0.000355	3.547269	1.201847	-0.000142
 727	7.2237e+01	11.0772	100.137115	0.000334	3.344568	1.133170	-0.000134
 728	7.2337e+01	11.0323	100.020038	0.000294	2.939166	0.995816	-0.000118
 729	7.2436e+01	10.9906	99.870664	0.000375	3.749970	1.270524	-0.000150
 730	7.2535e+01	10.9521	99.741476	0.000324	3.243218	1.098832	-0.000130
 731	7.2635e+01	10.9136	99.620361	0.000304	3.040516	1.030155	-0.000122
 732	7.2734e+01	10.8655	99.515396	0.000264	2.635114	0.892801	-0.000105
 733	7.2834e+01	10.8334	99.402356	0.000284	2.837815	0.961478	-0.000114
 734	7.2933e+01	10.7933	99.269131	0.000334	3.344568	1.133170	-0.000134
 735	7.3033e+01	10.7500	99.148017	0.000304	3.040516	1.030155	-0.000122
 736	7.3132e+01	10.7163	99.014791	0.000334	3.344568	1.133170	-0.000134
 737	7.3232e+01	10.6810	98.865417	0.000375	3.749970	1.270524	-0.000150
 738	7.3332e+01	10.6280	98.647412	0.000547	5.472930	1.854279	-0.000219
 739	7.3431e+01	10.5911	98.526298	0.000304	3.040516	1.030155	-0.000122
 740	7.3531e+01	10.5623	98.384998	0.000355	3.547269	1.201847	-0.000142
 741	7.3630e+01	10.5141	98.284070	0.000253	2.533764	0.858462	-0.000101
 742	7.3730e+01	10.4660	98.110473	0.000436	4.358074	1.476555	-0.000174
 743	7.3829e+01	10.4403	98.005507	0.000264	2.635114	0.892801	-0.000105
 744	7.3928e+01	10.3986	97.823836	0.000456	4.560775	1.545232	-0.000183
 745	7.4028e+01	10.3521	97.710796	0.000284	2.837815	0.961478	-0.000114
 746	7.4127e+01	10.3168	97.577571	0.000334	3.344568	1.133170	-0.000134
 747	7.4227e+01	10.2783	97.500865	0.000193	1.925660	0.652431	-0.000077
 748	7.4326e+01	10.2350	97.335343	0.000416	4.155373	1.407878	-0.000166
 749	7.4426e+01	10.1949	97.161746	0.000436	4.358074	1.476555	-0.000174
 750	7.4525e+01	10.1484	97.085040	0.000193	1.925660	0.652431	-0.000077
 751	7.4625e+01	10.1115	96.976038	0.000274	2.736465	0.927139	-0.000110
 752	7.4725e+01	10.0778	96.794366	0.000456	4.560775	1.545232	-0.000183
 753	7.4824e+01	10.0377	96.705549	0.000223	2.229712	0.755447	-0.000089
 754	7.4924e+01	9.9863	96.544064	0.000405	4.054022	1.373540	-0.000162
 755	7.5023e+01	9.9575	96.382579	0.000405	4.054022	1.373540	-0.000162
 756	7.5123e+01	9.9126	96.229167	0.000385	3.851321	1.304863	-0.000154
 757	7.5222e+01	9.8741	96.067682	0.000405	4.054022	1.373540	-0.000162
 758	7.5322e+01	9.8404	95.934457	0.000334	3.344568	1.133170	-0.000134
 759	7.5421e+01	9.8051	95.849677	0.000213	2.128362	0.721108	-0.000085
 760	7.5520e+01	9.7585	95.672043	0.000446	4.459424	1.510894	-0.000179
 761	7.5620e+01	9.7104	95.563040	0.000274	2.736465	0.927139	-0.000110
 762	7.5719e+01	9.6687	95.373295	0.000476	4.763476	1.613909	-0.000191
 763	7.5819e+01	9.6270	95.284478	0.000223	2.229712	0.755447	-0.000089
 764	7.5918e+01	9.5997	95.151252	0.000334	3.344568	1.133170	-0.000134
 765	7.6018e+01	9.5516	94.989767	0.000405	4.054022	1.373540	-0.000162
 766	7.6118e+01	9.5211	94.828281	0.000405	4.054022	1.373540	-0.000162
 767	7.6217e+01	9.4810	94.731390	0.000243	2.432413	0.824124	-0.000097
 768	7.6317e+01	9.4345	94.602202	0.000324	3.243218	1.098832	-0.000130
 769	7.6416e+01	9.3992	94.468976	0.000334	3.344568	1.133170	-0.000134
 770	7.6516e+01	9.3575	94.339788	0.000324	3.243218	1.098832	-0.000130
 771	7.6615e+01	9.3206	94.210600	0.000324	3.243218	1.098832	-0.000130
 772	7.6715e+01	9.2773	94.008743	0.000507	5.067527	1.716925	-0.000203
 773	7.6814e+01	9.2500	93.863406	0.000365	3.648620	1.236186	-0.000146
 774	7.6913e+01	9.1971	93.746329	0.000294	2.939166	0.995816	-0.000118
 775	7.7013e+01	9.1570	93.560621	0.000466	4.662125	1.579571	-0.000187
 776	7.7112e+01	9.1185	93.387024	0.000436	4.358074	1.476555	-0.000174
 777	7.7212e+01	9.0864	93.261873	0.000314	3.141867	1.064493	-0.000126
 778	7.7311e+01	9.0415	93.132684	0.000324	3.243218	1.098832	-0.000130
 779	7.7411e+01	9.0046	92.995422	0.000345	3.445919	1.167509	-0.000138
 780	7.7510e+01	8.9548	92.837973	0.000395	3.952671	1.339201	-0.000158
 781	7.7610e+01	8.9163	92.696674	0.000355	3.547269	1.201847	-0.000142
 782	7.7710e+01	8.8746	92.575560	0.000304	3.040516	1.030155	-0.000122
 783	7.7809e+01	8.8441	92.385814	0.000476	4.763476	1.613909	-0.000191
 784	7.7909e+01	8.8040	92.248552	0.000345	3.445919	1.167509	-0.000138
 785	7.8008e+01	8.7687	92.111289	0.000345	3.445919	1.167509	-0.000138
 786	7.8108e+01	8.7158	91.978064	0.000334	3.344568	1.133170	-0.000134
 787	7.8207e+01	8.6837	91.865024	0.000284	2.837815	0.961478	-0.000114
 788	7.8306e+01	8.6468	91.723724	0.000355	3.547269	1.201847	-0.000142
 789	7.8406e+01	8.5987	91.574350	0.000375	3.749970	1.270524	-0.000150
 790	7.8505e+01	8.5586	91.433050	0.000355	3.547269	1.201847	-0.000142
 791	7.8605e+01	8.5217	91.215045	0.000547	5.472930	1.854279	-0.000219
 792	7.8704e+01	8.4896	91.073745	0.000355	3.547269	1.201847	-0.000142
 793	7.8804e+01	8.4431	90.988965	0.000213	2.128362	0.721108	-0.000085
 794	7.8903e+01	8.4014	90.770960	0.000547	5.472930	1.854279	-0.000219
 795	7.9003e+01	8.3548	90.641772	0.000324	3.243218	1.098832	-0.000130
 796	7.9103e+01	8.3292	90.508546	0.000334	3.344568	1.133170	-0.000134
 797	7.9202e+01	8.2794	90.351098	0.000395	3.952671	1.339201	-0.000158
 798	7.9302e+01	8.2377	90.197687	0.000385	3.851321	1.304863	-0.000154
 799	7.9401e+01	8.1992	90.064461	0.000334	3.344568	1.133170	-0.000134
 800	7.9501e+01	8.1623	89.919124	0.000365	3.648620	1.236186	-0.000146
 801	7.9600e+01	8.1286	89.802047	0.000294	2.939166	0.995816	-0.000118
 802	7.9700e+01	8.0789	89.632488	0.000426	4.256723	1.442217	-0.000170
 803	7.9799e+01	8.0388	89.503299	0.000324	3.243218	1.098832	-0.000130
 804	7.9898e+01	8.0083	89.325665	0.000446	4.459424	1.510894	-0.000179
 805	7.9998e+01	7.9634	89.212626	0.000284	2.837815	0.961478	-0.000114
 806	8.0097e+01	7.9153	89.043066	0.000426	4.256723	1.442217	-0.000170
 807	8.0197e+01	7.8864	88.934063	0.000274	2.736465	0.927139	-0.000110
 808	8.0296e+01	7.8479	88.772578	0.000405	4.054022	1.373540	-0.000162
 809	8.0396e+01	7.8190	88.603018	0.000426	4.256723	1.442217	-0.000170
 810	8.0496e+01	7.7693	88.433458	0.000426	4.256723	1.442217	-0.000170
 811	8.0595e+01	7.7244	88.267936	0.000416	4.155373	1.407878	-0.000166
 812	8.0695e+01	7.6843	88.094339	0.000436	4.358074	1.476555	-0.000174
 813	8.0794e+01	7.6410	87.981299	0.000284	2.837815	0.961478	-0.000114
 814	8.0894e+01	7.6057	87.844037	0.000345	3.445919	1.167509	-0.000138
 815	8.0993e+01	7.5559	87.638143	0.000517	5.168878	1.751263	-0.000207
 816	8.1093e+01	7.5255	87.549326	0.000223	2.229712	0.755447	-0.000089
 817	8.1192e+01	7.4805	87.416100	0.000334	3.344568	1.133170	-0.000134
 818	8.1291e+01	7.4468	87.230392	0.000466	4.662125	1.579571	-0.000187
 819	8.1391e+01	7.4019	87.056795	0.000436	4.358074	1.476555	-0.000174
 820	8.1490e+01	7.3698	86.923570	0.000334	3.344568	1.133170	-0.000134
 821	8.1590e+01	7.3297	86.762084	0.000405	4.054022	1.373540	-0.000162
 822	8.1689e+01	7.2880	86.661156	0.000253	2.533764	0.858462	-0.000101
 823	8.1789e+01	7.2511	86.495633	0.000416	4.155373	1.407878	-0.000166
 824	8.1888e+01	7.2110	86.342222	0.000385	3.851321	1.304863	-0.000154
 825	8.1988e+01	7.1613	86.196885	0.000365	3.648620	1.236186	-0.000146
 826	8.2088e+01	7.1276	86.043474	0.000385	3.851321	1.304863	-0.000154
 827	8.2187e+01	7.0843	85.869877	0.000436	4.358074	1.476555	-0.000174
 828	8.2287e+01	7.0554	85.716466	0.000385	3.851321	1.304863	-0.000154
 829	8.2386e+01	7.0073	85.563055	0.000385	3.851321	1.304863	-0.000154
 830	8.2486e+01	6.9752	85.393495	0.000426	4.256723	1.442217	-0.000170
 831	8.2585e+01	6.9335	85.232010	0.000405	4.054022	1.373540	-0.000162
 832	8.2684e+01	6.8902	85.078599	0.000385	3.851321	1.304863	-0.000154
 833	8.2784e+01	6.8485	84.945373	0.000334	3.344568	1.133170	-0.000134
 834	8.2883e+01	6.8148	84.779850	0.000416	4.155373	1.407878	-0.000166
 835	8.2983e+01	6.7667	84.602217	0.000446	4.459424	1.510894	-0.000179
 836	8.3082e+01	6.7314	84.481102	0.000304	3.040516	1.030155	-0.000122
 837	8.3182e+01	6.6897	84.295394	0.000466	4.662125	1.579571	-0.000187
 838	8.3281e+01	6.6495	84.154094	0.000355	3.547269	1.201847	-0.000142
 839	8.3381e+01	6.6046	83.976460	0.000446	4.459424	1.510894	-0.000179
 840	8.3481e+01	6.5758	83.867458	0.000274	2.736465	0.927139	-0.000110
 841	8.3580e+01	6.5212	83.734232	0.000334	3.344568	1.133170	-0.000134
 842	8.3680e+01	6.4875	83.592933	0.000355	3.547269	1.201847	-0.000142
 843	8.3779e+01	6.4490	83.447596	0.000365	3.648620	1.236186	-0.000146
 844	8.3879e+01	6.4201	83.294185	0.000385	3.851321	1.304863	-0.000154
 845	8.3978e+01	6.3656	83.084253	0.000527	5.270229	1.785602	-0.000211
 846	8.4078e+01	6.3351	82.878360	0.000517	5.168878	1.751263	-0.000207
 847	8.4177e+01	6.2918	82.745134	0.000334	3.344568	1.133170	-0.000134
 848	8.4276e+01	6.2421	82.579612	0.000416	4.155373	1.407878	-0.000166
 849	8.4376e+01	6.2068	82.414089	0.000416	4.155373	1.407878	-0.000166
 850	8.4475e+01	6.1731	82.256641	0.000395	3.952671	1.339201	-0.000158
 851	8.4575e+01	6.1314	82.099192	0.000395	3.952671	1.339201	-0.000158
 852	8.4674e+01	6.0945	81.933670	0.000416	4.155373	1.407878	-0.000166
 853	8.4774e+01	6.0576	81.796407	0.000345	3.445919	1.167509	-0.000138
 854	8.4874e+01	6.0111	81.626847	0.000426	4.256723	1.442217	-0.000170
 855	8.4973e+01	5.9710	81.513808	0.000284	2.837815	0.961478	-0.000114
 856	8.5073e+01	5.9389	81.299839	0.000537	5.371579	1.819940	-0.000215
 857	8.5172e+01	5.9004	81.170651	0.000324	3.243218	1.098832	-0.000130
 858	8.5272e+01	5.8426	81.061648	0.000274	2.736465	0.927139	-0.000110
 859	8.5371e+01	5.8105	80.871903	0.000476	4.763476	1.613909	-0.000191
 860	8.5471e+01	5.7688	80.754826	0.000294	2.939166	0.995816	-0.000118
 861	8.5570e+01	5.7287	80.613526	0.000355	3.547269	1.201847	-0.000142
 862	8.5669e+01	5.6934	80.415707	0.000497	4.966177	1.682586	-0.000199
 863	8.5769e+01	5.6581	80.274407	0.000355	3.547269	1.201847	-0.000142
 864	8.5868e+01	5.6164	80.060439	0.000537	5.371579	1.819940	-0.000215
 865	8.5968e+01	5.5699	79.890879	0.000426	4.256723	1.442217	-0.000170
 866	8.6067e+01	5.5394	79.737468	0.000385	3.851321	1.304863	-0.000154
 867	8.6167e+01	5.5009	79.600205	0.000345	3.445919	1.167509	-0.000138
 868	8.6266e+01	5.4560	79.434683	0.000416	4.155373	1.407878	-0.000166
 869	8.6366e+01	5.4143	79.281272	0.000385	3.851321	1.304863	-0.000154
 870	8.6466e+01	5.3790	79.123823	0.000395	3.952671	1.339201	-0.000158
 871	8.6565e+01	5.3309	78.942152	0.000456	4.560775	1.545232	-0.000183
 872	8.6665e+01	5.2908	78.800852	0.000355	3.547269	1.201847	-0.000142
 873	8.6764e+01	5.2619	78.623218	0.000446	4.459424	1.510894	-0.000179
 874	8.6864e+01	5.2122	78.441547	0.000456	4.560775	1.545232	-0.000183
 875	8.6963e+01	5.1769	78.312359	0.000324	3.243218	1.098832	-0.000130
 876	8.7063e+01	5.1335	78.138762	0.000436	4.358074	1.476555	-0.000174
 877	8.7162e+01	5.0950	78.009574	0.000324	3.243218	1.098832	-0.000130
 878	8.7261e+01	5.0565	77.840014	0.000426	4.256723	1.442217	-0.000170
 879	8.7361e+01	5.0148	77.674492	0.000416	4.155373	1.407878	-0.000166
 880	8.7460e+01	4.9683	77.521080	0.000385	3.851321	1.304863	-0.000154
 881	8.7560e+01	4.9346	77.367669	0.000385	3.851321	1.304863	-0.000154
 882	8.7659e+01	4.9106	77.157738	0.000527	5.270229	1.785602	-0.000211
 883	8.7759e+01	4.8544	77.012401	0.000365	3.648620	1.236186	-0.000146
 884	8.7859e+01	4.8143	76.834767	0.000446	4.459424	1.510894	-0.000179
 885	8.7958e+01	4.7838	76.657133	0.000446	4.459424	1.510894	-0.000179
 886	8.8058e+01	4.7341	76.491611	0.000416	4.155373	1.407878	-0.000166
 887	8.8157e+01	4.6988	76.322051	0.000426	4.256723	1.442217	-0.000170
 888	8.8257e+01	4.6587	76.148454	0.000436	4.358074	1.476555	-0.000174
 889	8.8356e+01	4.6058	75.954672	0.000486	4.864826	1.648248	-0.000195
 890	8.8456e+01	4.5737	75.817409	0.000345	3.445919	1.167509	-0.000138
 891	8.8555e+01	4.5384	75.643812	0.000436	4.358074	1.476555	-0.000174
 892	8.8654e+01	4.4935	75.506550	0.000345	3.445919	1.167509	-0.000138
 893	8.8754e+01	4.4614	75.353139	0.000385	3.851321	1.304863	-0.000154
 894	8.8853e+01	4.4165	75.219913	0.000334	3.344568	1.133170	-0.000134
 895	8.8953e+01	4.3828	75.034205	0.000466	4.662125	1.579571	-0.000187
 896	8.9052e+01	4.3346	74.860608	0.000436	4.358074	1.476555	-0.000174
 897	8.9152e+01	4.2993	74.695085	0.000416	4.155373	1.407878	-0.000166
 898	8.9251e+01	4.2624	74.545711	0.000375	3.749970	1.270524	-0.000150
 899	8.9351e+01	4.2143	74.372115	0.000436	4.358074	1.476555	-0.000174
 900	8.9451e+01	4.1854	74.186406	0.000466	4.662125	1.579571	-0.000187
 901	8.9550e+01	4.1373	74.020884	0.000416	4.155373	1.407878	-0.000166
 902	8.9650e+01	4.1036	73.823064	0.000497	4.966177	1.682586	-0.000199
 903	8.9749e+01	4.0619	73.641393	0.000456	4.560775	1.545232	-0.000183
 904	8.9849e+01	4.0250	73.483945	0.000395	3.952671	1.339201	-0.000158
 905	8.9948e+01	3.9817	73.326496	0.000395	3.952671	1.339201	-0.000158
 906	9.0047e+01	3.9448	73.080231	0.000618	6.182384	2.094648	-0.000248
 907	9.0147e+01	3.8999	72.926820	0.000385	3.851321	1.304863	-0.000154
 908	9.0246e+01	3.8630	72.761297	0.000416	4.155373	1.407878	-0.000166
 909	9.0346e+01	3.8197	72.615961	0.000365	3.648620	1.236186	-0.000146
 910	9.0445e+01	3.7764	72.478698	0.000345	3.445919	1.167509	-0.000138
 911	9.0545e+01	3.7411	72.333361	0.000365	3.648620	1.236186	-0.000146
 912	9.0644e+01	3.6962	72.135541	0.000497	4.966177	1.682586	-0.000199
 913	9.0744e+01	3.6673	71.982130	0.000385	3.851321	1.304863	-0.000154
 914	9.0844e+01	3.6175	71.812571	0.000426	4.256723	1.442217	-0.000170
 915	9.0943e+01	3.5806	71.671271	0.000355	3.547269	1.201847	-0.000142
 916	9.1043e+01	3.5341	71.453265	0.000547	5.472930	1.854279	-0.000219
 917	9.1142e+01	3.4988	71.311966	0.000355	3.547269	1.201847	-0.000142
 918	9.1242e+01	3.4684	71.126257	0.000466	4.662125	1.579571	-0.000187
 919	9.1341e+01	3.4218	70.932475	0.000486	4.864826	1.648248	-0.000195
 920	9.1441e+01	3.3753	70.714470	0.000547	5.472930	1.854279	-0.000219
 921	9.1540e+01	3.3448	70.536836	0.000446	4.459424	1.510894	-0.000179
 922	9.1639e+01	3.3047	70.399573	0.000345	3.445919	1.167509	-0.000138
 923	9.1739e+01	3.2582	70.213865	0.000466	4.662125	1.579571	-0.000187
 924	9.1838e+01	3.2277	70.003934	0.000527	5.270229	1.785602	-0.000211
 925	9.1938e+01	3.1828	69.870708	0.000334	3.344568	1.133170	-0.000134
 926	9.2037e+01	3.1459	69.676926	0.000486	4.864826	1.648248	-0.000195
 927	9.2137e+01	3.1106	69.527552	0.000375	3.749970	1.270524	-0.000150
 928	9.2237e+01	3.0609	69.325695	0.000507	5.067527	1.716925	-0.000203
 929	9.2336e+01	3.0240	69.220729	0.000264	2.635114	0.892801	-0.000105
 930	9.2436e+01	2.9919	69.051170	0.000426	4.256723	1.442217	-0.000170
 931	9.2535e+01	2.9454	68.845276	0.000517	5.168878	1.751263	-0.000207
 932	9.2635e+01	2.9069	68.679753	0.000416	4.155373	1.407878	-0.000166
 933	9.2734e+01	2.8636	68.502119	0.000446	4.459424	1.510894	-0.000179
 934	9.2834e+01	2.8315	68.352745	0.000375	3.749970	1.270524	-0.000150
 935	9.2933e+01	2.7769	68.175111	0.000446	4.459424	1.510894	-0.000179
 936	9.3032e+01	2.7416	67.973254	0.000507	5.067527	1.716925	-0.000203
 937	9.3132e+01	2.7015	67.791583	0.000456	4.560775	1.545232	-0.000183
 938	9.3231e+01	2.6743	67.557429	0.000588	5.878332	1.991633	-0.000235
 939	9.3331e+01	2.6213	67.404018	0.000385	3.851321	1.304863	-0.000154
 940	9.3430e+01	2.5844	67.218310	0.000466	4.662125	1.579571	-0.000187
 941	9.3530e+01	2.5459	67.040676	0.000446	4.459424	1.510894	-0.000179
 942	9.3629e+01	2.5074	66.830745	0.000527	5.270229	1.785602	-0.000211
 943	9.3729e+01	2.4625	66.681371	0.000375	3.749970	1.270524	-0.000150
 944	9.3829e+01	2.4240	66.527960	0.000385	3.851321	1.304863	-0.000154
 945	9.3928e+01	2.3839	66.305917	0.000557	5.574280	1.888617	-0.000223
 946	9.4028e+01	2.3422	66.168655	0.000345	3.445919	1.167509	-0.000138
 947	9.4127e+01	2.3085	65.950649	0.000547	5.472930	1.854279	-0.000219
 948	9.4227e+01	2.2652	65.805313	0.000365	3.648620	1.236186	-0.000146
 949	9.4326e+01	2.2283	65.651901	0.000385	3.851321	1.304863	-0.000154
 950	9.4425e+01	2.1769	65.466193	0.000466	4.662125	1.579571	-0.000187
 951	9.4525e+01	2.1465	65.244151	0.000557	5.574280	1.888617	-0.000223
 952	9.4624e+01	2.1176	65.046331	0.000497	4.966177	1.682586	-0.000199
 953	9.4724e+01	2.0566	64.921180	0.000314	3.141867	1.064493	-0.000126
 954	9.4823e+01	2.0181	64.711249	0.000527	5.270229	1.785602	-0.000211
 955	9.4923e+01	1.9892	64.525541	0.000466	4.662125	1.579571	-0.000187
 956	9.5022e+01	1.9507	64.339832	0.000466	4.662125	1.579571	-0.000187
 957	9.5122e+01	1.9122	64.109716	0.000578	5.776981	1.957294	-0.000231
 958	9.5222e+01	1.8657	63.960341	0.000375	3.749970	1.270524	-0.000150
 959	9.5321e+01	1.8256	63.750410	0.000527	5.270229	1.785602	-0.000211
 960	9.5421e+01	1.7855	63.560665	0.000476	4.763476	1.613909	-0.000191
 961	9.5520e+01	1.7502	63.374957	0.000466	4.662125	1.579571	-0.000187
 962	9.5620e+01	1.7037	63.213471	0.000405	4.054022	1.373540	-0.000162
 963	9.5719e+01	1.6684	63.047949	0.000416	4.155373	1.407878	-0.000166
 964	9.5819e+01	1.6331	62.846092	0.000507	5.067527	1.716925	-0.000203
 965	9.5918e+01	1.5946	62.704792	0.000355	3.547269	1.201847	-0.000142
 966	9.6017e+01	1.5545	62.527158	0.000446	4.459424	1.510894	-0.000179
 967	9.6117e+01	1.5064	62.353561	0.000436	4.358074	1.476555	-0.000174
 968	9.6216e+01	1.4727	62.147668	0.000517	5.168878	1.751263	-0.000207
 969	9.6316e+01	1.4310	61.953885	0.000486	4.864826	1.648248	-0.000195
 970	9.6415e+01	1.3780	61.772214	0.000456	4.560775	1.545232	-0.000183
 971	9.6515e+01	1.3508	61.582469	0.000476	4.763476	1.613909	-0.000191
 972	9.6615e+01	1.3074	61.396760	0.000466	4.662125	1.579571	-0.000187
 973	9.6714e+01	1.2673	61.231238	0.000416	4.155373	1.407878	-0.000166
 974	9.6814e+01	1.2304	60.956713	0.000689	6.891837	2.335018	-0.000276
 975	9.6913e+01	1.1935	60.803301	0.000385	3.851321	1.304863	-0.000154
 976	9.7013e+01	1.1518	60.589333	0.000537	5.371579	1.819940	-0.000215
 977	9.7112e+01	1.1085	60.411699	0.000446	4.459424	1.510894	-0.000179
 978	9.7212e+01	1.0684	60.250214	0.000405	4.054022	1.373540	-0.000162
 979	9.7311e+01	1.0299	60.036246	0.000537	5.371579	1.819940	-0.000215
 980	9.7410e+01	0.9882	59.858612	0.000446	4.459424	1.510894	-0.000179
 981	9.7510e+01	0.9481	59.721349	0.000345	3.445919	1.167509	-0.000138
 982	9.7609e+01	0.9128	59.503344	0.000547	5.472930	1.854279	-0.000219
 983	9.7709e+01	0.8711	59.370118	0.000334	3.344568	1.133170	-0.000134
 984	9.7808e+01	0.8262	59.176336	0.000486	4.864826	1.648248	-0.000195
 985	9.7908e+01	0.7813	58.970442	0.000517	5.168878	1.751263	-0.000207
 986	9.8007e+01	0.7460	58.776659	0.000486	4.864826	1.648248	-0.000195
 987	9.8107e+01	0.7107	58.603062	0.000436	4.358074	1.476555	-0.000174
 988	9.8207e+01	0.6786	58.401206	0.000507	5.067527	1.716925	-0.000203
 989	9.8306e+01	0.6337	58.215497	0.000466	4.662125	1.579571	-0.000187
 990	9.8406e+01	0.5855	58.037863	0.000446	4.459424	1.510894	-0.000179
 991	9.8505e+01	0.5503	57.856192	0.000456	4.560775	1.545232	-0.000183
 992	9.8605e+01	0.5150	57.613964	0.000608	6.081033	2.060310	-0.000243
 993	9.8704e+01	0.4668	57.436330	0.000446	4.459424	1.510894	-0.000179
 994	9.8803e+01	0.4364	57.214288	0.000557	5.574280	1.888617	-0.000223
 995	9.8903e+01	0.3882	57.028579	0.000466	4.662125	1.579571	-0.000187
 996	9.9002e+01	0.3481	56.863057	0.000416	4.155373	1.407878	-0.000166
 997	9.9102e+01	0.3112	56.661200	0.000507	5.067527	1.716925	-0.000203
 998	9.9201e+01	0.2663	56.495678	0.000416	4.155373	1.407878	-0.000166
 999	9.9301e+01	0.2326	56.305932	0.000476	4.763476	1.613909	-0.000191
1000	9.9400e+01	0.1925	56.108112	0.000497	4.966177	1.682586	-0.000199
1001	9.9500e+01	0.1492	55.922404	0.000466	4.662125	1.579571	-0.000187
1002	9.9600e+01	0.1107	55.736696	0.000466	4.662125	1.579571	-0.000187
1003	9.9699e+01	0.0786	55.555025	0.000456	4.560775	1.545232	-0.000183
1004	9.9799e+01	0.0353	55.369317	0.000466	4.662125	1.579571	-0.000187
1005	9.9898e+01	0.0032	55.191683	0.000446	4.459424	1.510894	-0.000179
1006	9.9998e+01	-0.0337	55.014049	0.000446	4.459424	1.510894	-0.000179
1007	1.0010e+02	-0.0754	54.848526	0.000416	4.155373	1.407878	-0.000166
1008	1.0020e+02	-0.1203	54.622447	0.000568	5.675631	1.922956	-0.000227
1009	1.0030e+02	-0.1508	54.424627	0.000497	4.966177	1.682586	-0.000199
1010	1.0040e+02	-0.2021	54.222770	0.000507	5.067527	1.716925	-0.000203
1011	1.0050e+02	-0.2294	54.049173	0.000436	4.358074	1.476555	-0.000174
1012	1.0059e+02	-0.2775	53.798871	0.000628	6.283734	2.128987	-0.000252
1013	1.0069e+02	-0.3208	53.629311	0.000426	4.256723	1.442217	-0.000170
1014	1.0079e+02	-0.3577	53.415343	0.000537	5.371579	1.819940	-0.000215
1015	1.0089e+02	-0.3962	53.221560	0.000486	4.864826	1.648248	-0.000195
1016	1.0099e+02	-0.4331	53.047964	0.000436	4.358074	1.476555	-0.000174
1017	1.0109e+02	-0.4797	52.870330	0.000446	4.459424	1.510894	-0.000179
1018	1.0119e+02	-0.5134	52.680584	0.000476	4.763476	1.613909	-0.000191
1019	1.0129e+02	-0.5631	52.531210	0.000375	3.749970	1.270524	-0.000150
1020	1.0139e+02	-0.5984	52.333391	0.000497	4.966177	1.682586	-0.000199
1021	1.0149e+02	-0.6401	52.135571	0.000497	4.966177	1.682586	-0.000199
1022	1.0159e+02	-0.6770	51.949863	0.000466	4.662125	1.579571	-0.000187
1023	1.0169e+02	-0.7059	51.731857	0.000547	5.472930	1.854279	-0.000219
1024	1.0179e+02	-0.7508	51.542112	0.000476	4.763476	1.613909	-0.000191
1025	1.0189e+02	-0.7973	51.376589	0.000416	4.155373	1.407878	-0.000166
1026	1.0199e+02	-0.8422	51.186844	0.000476	4.763476	1.613909	-0.000191
1027	1.0209e+02	-0.8759	50.993062	0.000486	4.864826	1.648248	-0.000195
1028	1.0219e+02	-0.9128	50.771019	0.000557	5.574280	1.888617	-0.000223
1029	1.0229e+02	-0.9545	50.540902	0.000578	5.776981	1.957294	-0.000231
1030	1.0239e+02	-0.9962	50.347120	0.000486	4.864826	1.648248	-0.000195
1031	1.0248e+02	-1.0347	50.185634	0.000405	4.054022	1.373540	-0.000162
1032	1.0258e+02	-1.0732	49.971666	0.000537	5.371579	1.819940	-0.000215
1033	1.0268e+02	-1.1149	49.789995	0.000456	4.560775	1.545232	-0.000183
1034	1.0278e+02	-1.1647	49.563915	0.000568	5.675631	1.922956	-0.000227
1035	1.0288e+02	-1.1935	49.406467	0.000395	3.952671	1.339201	-0.000158
1036	1.0298e+02	-1.2321	49.216722	0.000476	4.763476	1.613909	-0.000191
1037	1.0308e+02	-1.2657	49.083496	0.000334	3.344568	1.133170	-0.000134
1038	1.0318e+02	-1.3171	48.877602	0.000517	5.168878	1.751263	-0.000207
1039	1.0328e+02	-1.3492	48.683820	0.000486	4.864826	1.648248	-0.000195
1040	1.0338e+02	-1.3925	48.477926	0.000517	5.168878	1.751263	-0.000207
1041	1.0348e+02	-1.4310	48.304329	0.000436	4.358074	1.476555	-0.000174
1042	1.0358e+02	-1.4695	48.102472	0.000507	5.067527	1.716925	-0.000203
1043	1.0368e+02	-1.5112	47.912727	0.000476	4.763476	1.613909	-0.000191
1044	1.0378e+02	-1.5545	47.718944	0.000486	4.864826	1.648248	-0.000195
1045	1.0388e+02	-1.5962	47.525162	0.000486	4.864826	1.648248	-0.000195
1046	1.0398e+02	-1.6299	47.303119	0.000557	5.574280	1.888617	-0.000223
1047	1.0408e+02	-1.6748	47.077040	0.000568	5.675631	1.922956	-0.000227
1048	1.0418e+02	-1.7117	46.899406	0.000446	4.459424	1.510894	-0.000179
1049	1.0428e+02	-1.7550	46.713698	0.000466	4.662125	1.579571	-0.000187
1050	1.0438e+02	-1.7919	46.511841	0.000507	5.067527	1.716925	-0.000203
1051	1.0447e+02	-1.8385	46.285761	0.000568	5.675631	1.922956	-0.000227
1052	1.0457e+02	-1.8689	46.124276	0.000405	4.054022	1.373540	-0.000162
1053	1.0467e+02	-1.9122	45.962790	0.000405	4.054022	1.373540	-0.000162
1054	1.0477e+02	-1.9572	45.712488	0.000628	6.283734	2.128987	-0.000252
1055	1.0487e+02	-1.9892	45.579262	0.000334	3.344568	1.133170	-0.000134
1056	1.0497e+02	-2.0342	45.369331	0.000527	5.270229	1.785602	-0.000211
1057	1.0507e+02	-2.0727	45.236106	0.000334	3.344568	1.133170	-0.000134
1058	1.0517e+02	-2.1128	44.997915	0.000598	5.979682	2.025971	-0.000239
1059	1.0527e+02	-2.1481	44.804132	0.000486	4.864826	1.648248	-0.000195
1060	1.0537e+02	-2.1866	44.650721	0.000385	3.851321	1.304863	-0.000154
1061	1.0547e+02	-2.2299	44.432716	0.000547	5.472930	1.854279	-0.000219
1062	1.0557e+02	-2.2716	44.214711	0.000547	5.472930	1.854279	-0.000219
1063	1.0567e+02	-2.3117	44.033039	0.000456	4.560775	1.545232	-0.000183
1064	1.0577e+02	-2.3470	43.810997	0.000557	5.574280	1.888617	-0.000223
1065	1.0587e+02	-2.3919	43.601066	0.000527	5.270229	1.785602	-0.000211
1066	1.0597e+02	-2.4272	43.387098	0.000537	5.371579	1.819940	-0.000215
1067	1.0607e+02	-2.4689	43.213501	0.000436	4.358074	1.476555	-0.000174
1068	1.0617e+02	-2.5122	42.971273	0.000608	6.081033	2.060310	-0.000243
1069	1.0627e+02	-2.5491	42.850159	0.000304	3.040516	1.030155	-0.000122
1070	1.0637e+02	-2.5973	42.599856	0.000628	6.283734	2.128987	-0.000252
1071	1.0647e+02	-2.6293	42.474705	0.000314	3.141867	1.064493	-0.000126
1072	1.0656e+02	-2.6646	42.248625	0.000568	5.675631	1.922956	-0.000227
1073	1.0666e+02	-2.7144	42.107326	0.000355	3.547269	1.201847	-0.000142
1074	1.0676e+02	-2.7497	41.901432	0.000517	5.168878	1.751263	-0.000207
1075	1.0686e+02	-2.7866	41.711686	0.000476	4.763476	1.613909	-0.000191
1076	1.0696e+02	-2.8395	41.530015	0.000456	4.560775	1.545232	-0.000183
1077	1.0706e+02	-2.8684	41.336233	0.000486	4.864826	1.648248	-0.000195
1078	1.0716e+02	-2.9085	41.154562	0.000456	4.560775	1.545232	-0.000183
1079	1.0726e+02	-2.9470	40.972891	0.000456	4.560775	1.545232	-0.000183
1080	1.0736e+02	-2.9855	40.758922	0.000537	5.371579	1.819940	-0.000215
1081	1.0746e+02	-3.0320	40.516694	0.000608	6.081033	2.060310	-0.000243
1082	1.0756e+02	-3.0753	40.335023	0.000456	4.560775	1.545232	-0.000183
1083	1.0766e+02	-3.1042	40.125092	0.000527	5.270229	1.785602	-0.000211
1084	1.0776e+02	-3.1491	39.947458	0.000446	4.459424	1.510894	-0.000179
1085	1.0786e+02	-3.1876	39.745601	0.000507	5.067527	1.716925	-0.000203
1086	1.0796e+02	-3.2261	39.523559	0.000557	5.574280	1.888617	-0.000223
1087	1.0806e+02	-3.2694	39.386296	0.000345	3.445919	1.167509	-0.000138
1088	1.0816e+02	-3.3047	39.196551	0.000476	4.763476	1.613909	-0.000191
1089	1.0826e+02	-3.3512	39.022954	0.000436	4.358074	1.476555	-0.000174
1090	1.0836e+02	-3.3865	38.861469	0.000405	4.054022	1.373540	-0.000162
1091	1.0845e+02	-3.4250	38.663649	0.000497	4.966177	1.682586	-0.000199
1092	1.0855e+02	-3.4667	38.486015	0.000446	4.459424	1.510894	-0.000179
1093	1.0865e+02	-3.5085	38.296270	0.000476	4.763476	1.613909	-0.000191
1094	1.0875e+02	-3.5518	38.114599	0.000456	4.560775	1.545232	-0.000183
1095	1.0885e+02	-3.5887	37.904667	0.000527	5.270229	1.785602	-0.000211
1096	1.0895e+02	-3.6256	37.743182	0.000405	4.054022	1.373540	-0.000162
1097	1.0905e+02	-3.6689	37.529214	0.000537	5.371579	1.819940	-0.000215
1098	1.0915e+02	-3.6978	37.323320	0.000517	5.168878	1.751263	-0.000207
1099	1.0925e+02	-3.7427	37.109352	0.000537	5.371579	1.819940	-0.000215
1100	1.0935e+02	-3.7780	36.911532	0.000497	4.966177	1.682586	-0.000199
1101	1.0945e+02	-3.8213	36.750047	0.000405	4.054022	1.373540	-0.000162
1102	1.0955e+02	-3.8630	36.552227	0.000497	4.966177	1.682586	-0.000199
1103	1.0965e+02	-3.9015	36.334222	0.000547	5.472930	1.854279	-0.000219
1104	1.0975e+02	-3.9400	36.144476	0.000476	4.763476	1.613909	-0.000191
1105	1.0985e+02	-3.9897	35.978954	0.000416	4.155373	1.407878	-0.000166
1106	1.0995e+02	-4.0186	35.773060	0.000517	5.168878	1.751263	-0.000207
1107	1.1005e+02	-4.0571	35.639834	0.000334	3.344568	1.133170	-0.000134
1108	1.1015e+02	-4.1020	35.437978	0.000507	5.067527	1.716925	-0.000203
1109	1.1025e+02	-4.1373	35.272455	0.000416	4.155373	1.407878	-0.000166
1110	1.1035e+02	-4.1887	35.078672	0.000486	4.864826	1.648248	-0.000195
1111	1.1044e+02	-4.2239	34.892964	0.000466	4.662125	1.579571	-0.000187
1112	1.1054e+02	-4.2624	34.707256	0.000466	4.662125	1.579571	-0.000187
1113	1.1064e+02	-4.3026	34.493288	0.000537	5.371579	1.819940	-0.000215
1114	1.1074e+02	-4.3362	34.335839	0.000395	3.952671	1.339201	-0.000158
1115	1.1084e+02	-4.3828	34.133983	0.000507	5.067527	1.716925	-0.000203
1116	1.1094e+02	-4.4309	33.972497	0.000405	4.054022	1.373540	-0.000162
1117	1.1104e+02	-4.4485	33.758529	0.000537	5.371579	1.819940	-0.000215
1118	1.1114e+02	-4.5047	33.528412	0.000578	5.776981	1.957294	-0.000231
1119	1.1124e+02	-4.5400	33.322518	0.000517	5.168878	1.751263	-0.000207
1120	1.1134e+02	-4.5753	33.185256	0.000345	3.445919	1.167509	-0.000138
1121	1.1144e+02	-4.6218	32.930916	0.000639	6.385085	2.163325	-0.000256
1122	1.1154e+02	-4.6667	32.777505	0.000385	3.851321	1.304863	-0.000154
1123	1.1164e+02	-4.7084	32.563537	0.000537	5.371579	1.819940	-0.000215
1124	1.1174e+02	-4.7405	32.446460	0.000294	2.939166	0.995816	-0.000118
1125	1.1184e+02	-4.7790	32.276900	0.000426	4.256723	1.442217	-0.000170
1126	1.1194e+02	-4.8303	32.087155	0.000476	4.763476	1.613909	-0.000191
1127	1.1204e+02	-4.8640	31.909521	0.000446	4.459424	1.510894	-0.000179
1128	1.1214e+02	-4.9057	31.776295	0.000334	3.344568	1.133170	-0.000134
1129	1.1224e+02	-4.9362	31.562327	0.000537	5.371579	1.819940	-0.000215
1130	1.1234e+02	-4.9811	31.400842	0.000405	4.054022	1.373540	-0.000162
1131	1.1244e+02	-5.0229	31.190911	0.000527	5.270229	1.785602	-0.000211
1132	1.1253e+02	-5.0614	30.989054	0.000507	5.067527	1.716925	-0.000203
1133	1.1263e+02	-5.1047	30.811420	0.000446	4.459424	1.510894	-0.000179
1134	1.1273e+02	-5.1303	30.625712	0.000466	4.662125	1.579571	-0.000187
1135	1.1283e+02	-5.1817	30.444041	0.000456	4.560775	1.545232	-0.000183
1136	1.1293e+02	-5.2138	30.246221	0.000497	4.966177	1.682586	-0.000199
1137	1.1303e+02	-5.2539	30.044364	0.000507	5.067527	1.716925	-0.000203
1138	1.1313e+02	-5.2988	29.842507	0.000507	5.067527	1.716925	-0.000203
1139	1.1323e+02	-5.3373	29.693133	0.000375	3.749970	1.270524	-0.000150
1140	1.1333e+02	-5.3854	29.507425	0.000466	4.662125	1.579571	-0.000187
1141	1.1343e+02	-5.4047	29.354014	0.000385	3.851321	1.304863	-0.000154
1142	1.1353e+02	-5.4512	29.196566	0.000395	3.952671	1.339201	-0.000158
1143	1.1363e+02	-5.4945	29.031043	0.000416	4.155373	1.407878	-0.000166
1144	1.1373e+02	-5.5394	28.853409	0.000446	4.459424	1.510894	-0.000179
1145	1.1383e+02	-5.5843	28.659627	0.000486	4.864826	1.648248	-0.000195
1146	1.1393e+02	-5.6148	28.498141	0.000405	4.054022	1.373540	-0.000162
1147	1.1403e+02	-5.6662	28.288210	0.000527	5.270229	1.785602	-0.000211
1148	1.1413e+02	-5.7014	28.106539	0.000456	4.560775	1.545232	-0.000183
1149	1.1423e+02	-5.7415	27.949091	0.000395	3.952671	1.339201	-0.000158
1150	1.1433e+02	-5.7768	27.727048	0.000557	5.574280	1.888617	-0.000223
1151	1.1442e+02	-5.8153	27.589786	0.000345	3.445919	1.167509	-0.000138
1152	1.1452e+02	-5.8522	27.383892	0.000517	5.168878	1.751263	-0.000207
1153	1.1462e+02	-5.9052	27.190109	0.000486	4.864826	1.648248	-0.000195
1154	1.1472e+02	-5.9421	27.004401	0.000466	4.662125	1.579571	-0.000187
1155	1.1482e+02	-5.9742	26.814656	0.000476	4.763476	1.613909	-0.000191
1156	1.1492e+02	-6.0143	26.669319	0.000365	3.648620	1.236186	-0.000146
1157	1.1502e+02	-6.0496	26.471499	0.000497	4.966177	1.682586	-0.000199
1158	1.1512e+02	-6.0993	26.322125	0.000375	3.749970	1.270524	-0.000150
1159	1.1522e+02	-6.1394	26.184862	0.000345	3.445919	1.167509	-0.000138
1160	1.1532e+02	-6.1779	26.019340	0.000416	4.155373	1.407878	-0.000166
1161	1.1542e+02	-6.2132	25.841706	0.000446	4.459424	1.510894	-0.000179
1162	1.1552e+02	-6.2517	25.668109	0.000436	4.358074	1.476555	-0.000174
1163	1.1562e+02	-6.2982	25.522772	0.000365	3.648620	1.236186	-0.000146
1164	1.1572e+02	-6.3303	25.304767	0.000547	5.472930	1.854279	-0.000219
1165	1.1582e+02	-6.3784	25.131170	0.000436	4.358074	1.476555	-0.000174
1166	1.1592e+02	-6.4185	24.945462	0.000466	4.662125	1.579571	-0.000187
1167	1.1602e+02	-6.4538	24.812236	0.000334	3.344568	1.133170	-0.000134
1168	1.1612e+02	-6.4971	24.622491	0.000476	4.763476	1.613909	-0.000191
1169	1.1622e+02	-6.5212	24.424671	0.000497	4.966177	1.682586	-0.000199
1170	1.1632e+02	-6.5645	24.222814	0.000507	5.067527	1.716925	-0.000203
1171	1.1642e+02	-6.6078	24.053255	0.000426	4.256723	1.442217	-0.000170
1172	1.1651e+02	-6.6415	23.847361	0.000517	5.168878	1.751263	-0.000207
1173	1.1661e+02	-6.6848	23.706061	0.000355	3.547269	1.201847	-0.000142
1174	1.1671e+02	-6.7233	23.508241	0.000497	4.966177	1.682586	-0.000199
1175	1.1681e+02	-6.7586	23.318496	0.000476	4.763476	1.613909	-0.000191
1176	1.1691e+02	-6.8100	23.173159	0.000365	3.648620	1.236186	-0.000146
1177	1.1701e+02	-6.8517	23.080305	0.000233	2.331063	0.789785	-0.000093
1178	1.1711e+02	-6.8806	22.890560	0.000476	4.763476	1.613909	-0.000191
1179	1.1721e+02	-6.9319	22.725037	0.000416	4.155373	1.407878	-0.000166
1180	1.1731e+02	-6.9704	22.547403	0.000446	4.459424	1.510894	-0.000179
1181	1.1741e+02	-7.0073	22.385918	0.000405	4.054022	1.373540	-0.000162
1182	1.1751e+02	-7.0570	22.228469	0.000395	3.952671	1.339201	-0.000158
1183	1.1761e+02	-7.0939	22.034687	0.000486	4.864826	1.648248	-0.000195
1184	1.1771e+02	-7.1404	21.881276	0.000385	3.851321	1.304863	-0.000154
1185	1.1781e+02	-7.1773	21.679419	0.000507	5.067527	1.716925	-0.000203
1186	1.1791e+02	-7.2174	21.509859	0.000426	4.256723	1.442217	-0.000170
1187	1.1801e+02	-7.2431	21.364522	0.000365	3.648620	1.236186	-0.000146
1188	1.1811e+02	-7.2784	21.134406	0.000578	5.776981	1.957294	-0.000231
1189	1.1821e+02	-7.3249	20.956772	0.000446	4.459424	1.510894	-0.000179
1190	1.1831e+02	-7.3666	20.795286	0.000405	4.054022	1.373540	-0.000162
1191	1.1841e+02	-7.4035	20.621689	0.000436	4.358074	1.476555	-0.000174
1192	1.1850e+02	-7.4452	20.464241	0.000395	3.952671	1.339201	-0.000158
1193	1.1860e+02	-7.4854	20.294681	0.000426	4.256723	1.442217	-0.000170
1194	1.1870e+02	-7.5367	20.149344	0.000365	3.648620	1.236186	-0.000146
1195	1.1880e+02	-7.5720	19.991896	0.000395	3.952671	1.339201	-0.000158
1196	1.1890e+02	-7.6057	19.882894	0.000274	2.736465	0.927139	-0.000110
1197	1.1900e+02	-7.6458	19.713334	0.000426	4.256723	1.442217	-0.000170
1198	1.1910e+02	-7.6955	19.527626	0.000466	4.662125	1.579571	-0.000187
1199	1.1920e+02	-7.7276	19.358066	0.000426	4.256723	1.442217	-0.000170
1200	1.1930e+02	-7.7709	19.204655	0.000385	3.851321	1.304863	-0.000154
1201	1.1940e+02	-7.8158	19.039132	0.000416	4.155373	1.407878	-0.000166
1202	1.1950e+02	-7.8511	18.889758	0.000375	3.749970	1.270524	-0.000150
1203	1.1960e+02	-7.8832	18.748458	0.000355	3.547269	1.201847	-0.000142
1204	1.1970e+02	-7.9185	18.566787	0.000456	4.560775	1.545232	-0.000183
1205	1.1980e+02	-7.9586	18.336671	0.000578	5.776981	1.957294	-0.000231
1206	1.1990e+02	-8.0099	18.207482	0.000324	3.243218	1.098832	-0.000130
1207	1.2000e+02	-8.0436	18.017737	0.000476	4.763476	1.613909	-0.000191
1208	1.2010e+02	-8.0934	17.840103	0.000446	4.459424	1.510894	-0.000179
1209	1.2020e+02	-8.1286	17.662469	0.000446	4.459424	1.510894	-0.000179
1210	1.2030e+02	-8.1543	17.500983	0.000405	4.054022	1.373540	-0.000162
1211	1.2039e+02	-8.2057	17.335461	0.000416	4.155373	1.407878	-0.000166
1212	1.2049e+02	-8.2522	17.182050	0.000385	3.851321	1.304863	-0.000154
1213	1.2059e+02	-8.2843	17.016527	0.000416	4.155373	1.407878	-0.000166
1214	1.2069e+02	-8.3244	16.859079	0.000395	3.952671	1.339201	-0.000158
1215	1.2079e+02	-8.3645	16.737965	0.000304	3.040516	1.030155	-0.000122
1216	1.2089e+02	-8.4014	16.592628	0.000365	3.648620	1.236186	-0.000146
1217	1.2099e+02	-8.4431	16.447291	0.000365	3.648620	1.236186	-0.000146
1218	1.2109e+02	-8.4880	16.281768	0.000416	4.155373	1.407878	-0.000166
1219	1.2119e+02	-8.5169	16.092023	0.000476	4.763476	1.613909	-0.000191
1220	1.2129e+02	-8.5554	15.966872	0.000314	3.141867	1.064493	-0.000126
1221	1.2139e+02	-8.6003	15.789238	0.000446	4.459424	1.510894	-0.000179
1222	1.2149e+02	-8.6436	15.615641	0.000436	4.358074	1.476555	-0.000174
1223	1.2159e+02	-8.6901	15.458193	0.000395	3.952671	1.339201	-0.000158
1224	1.2169e+02	-8.7238	15.292670	0.000416	4.155373	1.407878	-0.000166
1225	1.2179e+02	-8.7575	15.119073	0.000436	4.358074	1.476555	-0.000174
1226	1.2189e+02	-8.7960	14.921254	0.000497	4.966177	1.682586	-0.000199
1227	1.2199e+02	-8.8377	14.759768	0.000405	4.054022	1.373540	-0.000162
1228	1.2209e+02	-8.8826	14.594246	0.000416	4.155373	1.407878	-0.000166
1229	1.2219e+02	-8.9243	14.452946	0.000355	3.547269	1.201847	-0.000142
1230	1.2229e+02	-8.9661	14.311646	0.000355	3.547269	1.201847	-0.000142
1231	1.2239e+02	-8.9981	14.154198	0.000395	3.952671	1.339201	-0.000158
1232	1.2248e+02	-9.0527	13.964453	0.000476	4.763476	1.613909	-0.000191
1233	1.2258e+02	-9.0896	13.819116	0.000365	3.648620	1.236186	-0.000146
1234	1.2268e+02	-9.1249	13.698002	0.000304	3.040516	1.030155	-0.000122
1235	1.2278e+02	-9.1634	13.560739	0.000345	3.445919	1.167509	-0.000138
1236	1.2288e+02	-9.2051	13.387142	0.000436	4.358074	1.476555	-0.000174
1237	1.2298e+02	-9.2500	13.209508	0.000446	4.459424	1.510894	-0.000179
1238	1.2308e+02	-9.2853	13.043986	0.000416	4.155373	1.407878	-0.000166
1239	1.2318e+02	-9.3286	12.902686	0.000355	3.547269	1.201847	-0.000142
1240	1.2328e+02	-9.3575	12.729089	0.000436	4.358074	1.476555	-0.000174
1241	1.2338e+02	-9.3976	12.555492	0.000436	4.358074	1.476555	-0.000174
1242	1.2348e+02	-9.4345	12.381895	0.000436	4.358074	1.476555	-0.000174
1243	1.2358e+02	-9.4730	12.240596	0.000355	3.547269	1.201847	-0.000142
1244	1.2368e+02	-9.5259	12.079110	0.000405	4.054022	1.373540	-0.000162
1245	1.2378e+02	-9.5564	11.913588	0.000416	4.155373	1.407878	-0.000166
1246	1.2388e+02	-9.6013	11.764214	0.000375	3.749970	1.270524	-0.000150
1247	1.2398e+02	-9.6430	11.635025	0.000324	3.243218	1.098832	-0.000130
1248	1.2408e+02	-9.6767	11.457391	0.000446	4.459424	1.510894	-0.000179
1249	1.2418e+02	-9.7297	11.303980	0.000385	3.851321	1.304863	-0.000154
1250	1.2428e+02	-9.7569	11.114235	0.000476	4.763476	1.613909	-0.000191
1251	1.2438e+02	-9.8051	10.985046	0.000324	3.243218	1.098832	-0.000130
1252	1.2447e+02	-9.8388	10.892192	0.000233	2.331063	0.789785	-0.000093
1253	1.2457e+02	-9.8773	10.734744	0.000395	3.952671	1.339201	-0.000158
1254	1.2467e+02	-9.9222	10.581333	0.000385	3.851321	1.304863	-0.000154
1255	1.2477e+02	-9.9591	10.399662	0.000456	4.560775	1.545232	-0.000183
1256	1.2487e+02	-9.9944	10.286622	0.000284	2.837815	0.961478	-0.000114
1257	1.2497e+02	-10.0329	10.080728	0.000517	5.168878	1.751263	-0.000207
1258	1.2507e+02	-10.0778	9.923280	0.000395	3.952671	1.339201	-0.000158
1259	1.2517e+02	-10.1067	9.745646	0.000446	4.459424	1.510894	-0.000179
1260	1.2527e+02	-10.1484	9.604346	0.000355	3.547269	1.201847	-0.000142
1261	1.2537e+02	-10.1917	9.459009	0.000365	3.648620	1.236186	-0.000146
1262	1.2547e+02	-10.2398	9.313672	0.000365	3.648620	1.236186	-0.000146
1263	1.2557e+02	-10.2719	9.123927	0.000476	4.763476	1.613909	-0.000191
1264	1.2567e+02	-10.3232	8.978590	0.000365	3.648620	1.236186	-0.000146
1265	1.2577e+02	-10.3601	8.804993	0.000436	4.358074	1.476555	-0.000174
1266	1.2587e+02	-10.4018	8.675805	0.000324	3.243218	1.098832	-0.000130
1267	1.2597e+02	-10.4436	8.518356	0.000395	3.952671	1.339201	-0.000158
1268	1.2607e+02	-10.4644	8.364945	0.000385	3.851321	1.304863	-0.000154
1269	1.2617e+02	-10.5093	8.215571	0.000375	3.749970	1.270524	-0.000150
1270	1.2627e+02	-10.5591	8.078309	0.000345	3.445919	1.167509	-0.000138
1271	1.2636e+02	-10.5992	7.924897	0.000385	3.851321	1.304863	-0.000154
1272	1.2646e+02	-10.6377	7.755338	0.000426	4.256723	1.442217	-0.000170
1273	1.2656e+02	-10.6665	7.630187	0.000314	3.141867	1.064493	-0.000126
1274	1.2666e+02	-10.7179	7.408144	0.000557	5.574280	1.888617	-0.000223
1275	1.2676e+02	-10.7500	7.242622	0.000416	4.155373	1.407878	-0.000166
1276	1.2686e+02	-10.7901	7.101322	0.000355	3.547269	1.201847	-0.000142
1277	1.2696e+02	-10.8350	6.899465	0.000507	5.067527	1.716925	-0.000203
1278	1.2706e+02	-10.8735	6.709720	0.000476	4.763476	1.613909	-0.000191
1279	1.2716e+02	-10.9088	6.548234	0.000405	4.054022	1.373540	-0.000162
1280	1.2726e+02	-10.9537	6.394823	0.000385	3.851321	1.304863	-0.000154
1281	1.2736e+02	-10.9970	6.245449	0.000375	3.749970	1.270524	-0.000150
1282	1.2746e+02	-11.0371	6.055704	0.000476	4.763476	1.613909	-0.000191
1283	1.2756e+02	-11.0772	5.882107	0.000436	4.358074	1.476555	-0.000174
1284	1.2766e+02	-11.1141	5.720621	0.000405	4.054022	1.373540	-0.000162
1285	1.2776e+02	-11.1558	5.591433	0.000324	3.243218	1.098832	-0.000130
1286	1.2786e+02	-11.1991	5.389576	0.000507	5.067527	1.716925	-0.000203
1287	1.2796e+02	-11.2264	5.232128	0.000395	3.952671	1.339201	-0.000158
1288	1.2806e+02	-11.2697	5.054494	0.000446	4.459424	1.510894	-0.000179
1289	1.2816e+02	-11.3147	4.897046	0.000395	3.952671	1.339201	-0.000158
1290	1.2826e+02	-11.3516	4.711337	0.000466	4.662125	1.579571	-0.000187
1291	1.2835e+02	-11.3901	4.505443	0.000517	5.168878	1.751263	-0.000207
1292	1.2845e+02	-11.4334	4.327810	0.000446	4.459424	1.510894	-0.000179
1293	1.2855e+02	-11.4783	4.129990	0.000497	4.966177	1.682586	-0.000199
1294	1.2865e+02	-11.5152	3.956393	0.000436	4.358074	1.476555	-0.000174
1295	1.2875e+02	-11.5537	3.754536	0.000507	5.067527	1.716925	-0.000203
1296	1.2885e+02	-11.5858	3.568828	0.000466	4.662125	1.579571	-0.000187
1297	1.2895e+02	-11.6275	3.354860	0.000537	5.371579	1.819940	-0.000215
1298	1.2905e+02	-11.6676	3.169152	0.000466	4.662125	1.579571	-0.000187
1299	1.2915e+02	-11.7157	2.934998	0.000588	5.878332	1.991633	-0.000235
1300	1.2925e+02	-11.7542	2.789661	0.000365	3.648620	1.236186	-0.000146
1301	1.2935e+02	-11.7959	2.579730	0.000527	5.270229	1.785602	-0.000211
1302	1.2945e+02	-11.8232	2.402096	0.000446	4.459424	1.510894	-0.000179
1303	1.2955e+02	-11.8761	2.188128	0.000537	5.371579	1.819940	-0.000215
1304	1.2965e+02	-11.9194	1.970122	0.000547	5.472930	1.854279	-0.000219
1305	1.2975e+02	-11.9499	1.796525	0.000436	4.358074	1.476555	-0.000174
1306	1.2985e+02	-11.9868	1.618891	0.000446	4.459424	1.510894	-0.000179
1307	1.2995e+02	-12.0253	1.372626	0.000618	6.182384	2.094648	-0.000248
1308	1.3005e+02	-12.0751	1.130398	0.000608	6.081033	2.060310	-0.000243
1309	1.3015e+02	-12.0927	0.956801	0.000436	4.358074	1.476555	-0.000174
1310	1.3025e+02	-12.1489	0.730722	0.000568	5.675631	1.922956	-0.000227
1311	1.3034e+02	-12.1874	0.492531	0.000598	5.979682	2.025971	-0.000239
1312	1.3044e+02	-12.2307	0.246265	0.000618	6.182384	2.094648	-0.000248
1313	1.3054e+02	-12.2644	0.032297	0.000537	5.371579	1.819940	-0.000215
1314	1.3064e+02	-12.3093	-0.177634	0.000527	5.270229	1.785602	-0.000211
1315	1.3074e+02	-12.3430	-0.387565	0.000527	5.270229	1.785602	-0.000211
1316	1.3084e+02	-12.3895	-0.629793	0.000608	6.081033	2.060310	-0.000243
1317	1.3094e+02	-12.4280	-0.867984	0.000598	5.979682	2.025971	-0.000239
1318	1.3104e+02	-12.4697	-1.085990	0.000547	5.472930	1.854279	-0.000219
1319	1.3114e+02	-12.5098	-1.267661	0.000456	4.560775	1.545232	-0.000183
1320	1.3124e+02	-12.5499	-1.509889	0.000608	6.081033	2.060310	-0.000243
1321	1.3134e+02	-12.5916	-1.756154	0.000618	6.182384	2.094648	-0.000248
1322	1.3144e+02	-12.6301	-1.966085	0.000527	5.270229	1.785602	-0.000211
1323	1.3154e+02	-12.6670	-2.167942	0.000507	5.067527	1.716925	-0.000203
1324	1.3164e+02	-12.7055	-2.426319	0.000649	6.486435	2.197664	-0.000260
1325	1.3174e+02	-12.7360	-2.684695	0.000649	6.486435	2.197664	-0.000260
1326	1.3184e+02	-12.7857	-2.922886	0.000598	5.979682	2.025971	-0.000239
1327	1.3194e+02	-12.8162	-3.161077	0.000598	5.979682	2.025971	-0.000239
1328	1.3204e+02	-12.8595	-3.431565	0.000679	6.790487	2.300679	-0.000272
1329	1.3214e+02	-12.9012	-3.689942	0.000649	6.486435	2.197664	-0.000260
1330	1.3224e+02	-12.9365	-3.928133	0.000598	5.979682	2.025971	-0.000239
1331	1.3234e+02	-12.9847	-4.162287	0.000588	5.878332	1.991633	-0.000235
1332	1.3243e+02	-13.0296	-4.432775	0.000679	6.790487	2.300679	-0.000272
1333	1.3253e+02	-13.0649	-4.707300	0.000689	6.891837	2.335018	-0.000276
1334	1.3263e+02	-13.1066	-4.893009	0.000466	4.662125	1.579571	-0.000187
1335	1.3273e+02	-13.1403	-5.159459	0.000669	6.689136	2.266341	-0.000268
1336	1.3283e+02	-13.1836	-5.417836	0.000649	6.486435	2.197664	-0.000260
1337	1.3293e+02	-13.2301	-5.680250	0.000659	6.587786	2.232002	-0.000264
1338	1.3303e+02	-13.2638	-5.954775	0.000689	6.891837	2.335018	-0.000276
1339	1.3313e+02	-13.3071	-6.217189	0.000659	6.587786	2.232002	-0.000264
1340	1.3323e+02	-13.3472	-6.415009	0.000497	4.966177	1.682586	-0.000199
1341	1.3333e+02	-13.3873	-6.717794	0.000760	7.601291	2.575387	-0.000304
1342	1.3343e+02	-13.4322	-6.960022	0.000608	6.081033	2.060310	-0.000243
1343	1.3353e+02	-13.4643	-7.295104	0.000841	8.412096	2.850095	-0.000337
1344	1.3363e+02	-13.4932	-7.573667	0.000699	6.993188	2.369356	-0.000280
1345	1.3373e+02	-13.5397	-7.852229	0.000699	6.993188	2.369356	-0.000280
1346	1.3383e+02	-13.5846	-8.118680	0.000669	6.689136	2.266341	-0.000268
1347	1.3393e+02	-13.6215	-8.417428	0.000750	7.499941	2.541049	-0.000300
1348	1.3403e+02	-13.6616	-8.667730	0.000628	6.283734	2.128987	-0.000252
1349	1.3413e+02	-13.7098	-8.950330	0.000709	7.094538	2.403695	-0.000284
1350	1.3423e+02	-13.7467	-9.277338	0.000821	8.209395	2.781418	-0.000329
1351	1.3432e+02	-13.7820	-9.527640	0.000628	6.283734	2.128987	-0.000252
1352	1.3442e+02	-13.8333	-9.810240	0.000709	7.094538	2.403695	-0.000284
1353	1.3452e+02	-13.8654	-10.100914	0.000730	7.297240	2.472372	-0.000292
1354	1.3462e+02	-13.9103	-10.383513	0.000709	7.094538	2.403695	-0.000284
1355	1.3472e+02	-13.9456	-10.670150	0.000720	7.195889	2.438033	-0.000288
1356	1.3482e+02	-13.9841	-10.904304	0.000588	5.878332	1.991633	-0.000235
1357	1.3492e+02	-14.0258	-11.219200	0.000791	7.905343	2.678403	-0.000316
1358	1.3502e+02	-14.0563	-11.530060	0.000780	7.803992	2.644064	-0.000312
1359	1.3512e+02	-14.1044	-11.808622	0.000699	6.993188	2.369356	-0.000280
1360	1.3522e+02	-14.1397	-12.151779	0.000861	8.614797	2.918772	-0.000345
1361	1.3532e+02	-14.1702	-12.462638	0.000780	7.803992	2.644064	-0.000312
1362	1.3542e+02	-14.2183	-12.745238	0.000709	7.094538	2.403695	-0.000284
1363	1.3552e+02	-14.2648	-13.072246	0.000821	8.209395	2.781418	-0.000329
1364	1.3562e+02	-14.2953	-13.415402	0.000861	8.614797	2.918772	-0.000345
1365	1.3572e+02	-14.3338	-13.681853	0.000669	6.689136	2.266341	-0.000268
1366	1.3582e+02	-14.3755	-14.020972	0.000851	8.513446	2.884434	-0.000341
1367	1.3592e+02	-14.4172	-14.331832	0.000780	7.803992	2.644064	-0.000312
1368	1.3602e+02	-14.4670	-14.699211	0.000922	9.222900	3.124803	-0.000369
1369	1.3612e+02	-14.4942	-14.981811	0.000709	7.094538	2.403695	-0.000284
1370	1.3622e+02	-14.5440	-15.300744	0.000801	8.006693	2.712741	-0.000321
1371	1.3631e+02	-14.5777	-15.631790	0.000831	8.310745	2.815757	-0.000333
1372	1.3641e+02	-14.6242	-15.978983	0.000872	8.716147	2.953111	-0.000349
1373	1.3651e+02	-14.6563	-16.257546	0.000699	6.993188	2.369356	-0.000280
1374	1.3661e+02	-14.7028	-16.604739	0.000872	8.716147	2.953111	-0.000349
1375	1.3671e+02	-14.7397	-16.976156	0.000932	9.324251	3.159142	-0.000373
1376	1.3681e+02	-14.7766	-17.278941	0.000760	7.601291	2.575387	-0.000304
1377	1.3691e+02	-14.8183	-17.654395	0.000943	9.425601	3.193480	-0.000377
1378	1.3701e+02	-14.8552	-18.029848	0.000943	9.425601	3.193480	-0.000377
1379	1.3711e+02	-14.8937	-18.316485	0.000720	7.195889	2.438033	-0.000288
1380	1.3721e+02	-14.9322	-18.736347	0.001054	10.540457	3.571204	-0.000422
1381	1.3731e+02	-14.9803	-19.095652	0.000902	9.020199	3.056126	-0.000361
1382	1.3741e+02	-15.0108	-19.454957	0.000902	9.020199	3.056126	-0.000361
1383	1.3751e+02	-15.0621	-19.806188	0.000882	8.817498	2.987449	-0.000353
1384	1.3761e+02	-15.1006	-20.173567	0.000922	9.222900	3.124803	-0.000369
1385	1.3771e+02	-15.1456	-20.553058	0.000953	9.526952	3.227819	-0.000381
1386	1.3781e+02	-15.1744	-20.924475	0.000932	9.324251	3.159142	-0.000373
1387	1.3791e+02	-15.2226	-21.263594	0.000851	8.513446	2.884434	-0.000341
1388	1.3801e+02	-15.2498	-21.639048	0.000943	9.425601	3.193480	-0.000377
1389	1.3811e+02	-15.3060	-22.046798	0.001024	10.236406	3.468188	-0.000410
1390	1.3821e+02	-15.3413	-22.434363	0.000973	9.729653	3.296496	-0.000390
1391	1.3831e+02	-15.3782	-22.789631	0.000892	8.918848	3.021788	-0.000357
1392	1.3840e+02	-15.4215	-23.169122	0.000953	9.526952	3.227819	-0.000381
1393	1.3850e+02	-15.4520	-23.532464	0.000912	9.121549	3.090465	-0.000365
1394	1.3860e+02	-15.4841	-23.948289	0.001044	10.439107	3.536865	-0.000418
1395	1.3870e+02	-15.5322	-24.360077	0.001034	10.337756	3.502527	-0.000414
1396	1.3880e+02	-15.5819	-24.812236	0.001135	11.351262	3.845912	-0.000454
1397	1.3890e+02	-15.6092	-25.215950	0.001014	10.135055	3.433850	-0.000406
1398	1.3900e+02	-15.6557	-25.643886	0.001074	10.743158	3.639881	-0.000430
1399	1.3910e+02	-15.6974	-25.999154	0.000892	8.918848	3.021788	-0.000357
1400	1.3920e+02	-15.7407	-26.447276	0.001125	11.249911	3.811573	-0.000450
1401	1.3930e+02	-15.7792	-26.903473	0.001145	11.452612	3.880250	-0.000458
1402	1.3940e+02	-15.8129	-27.335446	0.001084	10.844509	3.674219	-0.000434
1403	1.3950e+02	-15.8562	-27.714937	0.000953	9.526952	3.227819	-0.000381
1404	1.3960e+02	-15.8996	-28.130762	0.001044	10.439107	3.536865	-0.000418
1405	1.3970e+02	-15.9316	-28.623292	0.001236	12.364767	4.189296	-0.000495
1406	1.3980e+02	-15.9766	-29.039117	0.001044	10.439107	3.536865	-0.000418
1407	1.3990e+02	-16.0151	-29.523574	0.001216	12.162066	4.120619	-0.000487
1408	1.4000e+02	-16.0520	-29.911139	0.000973	9.729653	3.296496	-0.000390
1409	1.4010e+02	-16.0937	-30.347149	0.001095	10.945859	3.708558	-0.000438
1410	1.4020e+02	-16.1209	-30.827568	0.001206	12.060715	4.086281	-0.000483
1411	1.4029e+02	-16.1659	-31.295876	0.001176	11.756664	3.983266	-0.000471
1412	1.4039e+02	-16.2108	-31.800518	0.001267	12.668819	4.292312	-0.000507
1413	1.4049e+02	-16.2509	-32.244603	0.001115	11.148560	3.777235	-0.000446
1414	1.4059e+02	-16.2958	-32.777505	0.001338	13.378273	4.532681	-0.000536
1415	1.4069e+02	-16.3279	-33.217553	0.001105	11.047210	3.742896	-0.000442
1416	1.4079e+02	-16.3744	-33.714121	0.001247	12.466118	4.223635	-0.000499
1417	1.4089e+02	-16.4129	-34.198577	0.001216	12.162066	4.120619	-0.000487
1418	1.4099e+02	-16.4466	-34.666885	0.001176	11.756664	3.983266	-0.000471
1419	1.4109e+02	-16.4995	-35.167489	0.001257	12.567468	4.257973	-0.000503
1420	1.4119e+02	-16.5300	-35.700391	0.001338	13.378273	4.532681	-0.000536
1421	1.4129e+02	-16.5717	-36.213108	0.001287	12.871520	4.360989	-0.000515
1422	1.4139e+02	-16.6150	-36.705638	0.001236	12.364767	4.189296	-0.000495
1423	1.4149e+02	-16.6551	-37.246614	0.001358	13.580974	4.601358	-0.000544
1424	1.4159e+02	-16.6904	-37.755293	0.001277	12.770169	4.326650	-0.000511
1425	1.4169e+02	-16.7305	-38.259935	0.001267	12.668819	4.292312	-0.000507
1426	1.4179e+02	-16.7674	-38.756503	0.001247	12.466118	4.223635	-0.000499
1427	1.4189e+02	-16.8075	-39.313628	0.001399	13.986376	4.738712	-0.000560
1428	1.4199e+02	-16.8493	-39.894975	0.001459	14.594479	4.944743	-0.000584
1429	1.4209e+02	-16.8862	-40.452100	0.001399	13.986376	4.738712	-0.000560
1430	1.4219e+02	-16.9231	-40.985002	0.001338	13.378273	4.532681	-0.000536
1431	1.4228e+02	-16.9664	-41.610758	0.001571	15.709335	5.322467	-0.000629
1432	1.4238e+02	-17.0097	-42.159809	0.001378	13.783675	4.670035	-0.000552
1433	1.4248e+02	-17.0530	-42.716933	0.001399	13.986376	4.738712	-0.000560
1434	1.4258e+02	-17.0835	-43.249835	0.001338	13.378273	4.532681	-0.000536
1435	1.4268e+02	-17.1220	-43.859443	0.001530	15.303933	5.185113	-0.000613
1436	1.4278e+02	-17.1653	-44.485199	0.001571	15.709335	5.322467	-0.000629
1437	1.4288e+02	-17.2102	-45.034249	0.001378	13.783675	4.670035	-0.000552
1438	1.4298e+02	-17.2503	-45.696339	0.001662	16.621490	5.631513	-0.000665
1439	1.4308e+02	-17.2904	-46.273650	0.001449	14.493129	4.910405	-0.000580
1440	1.4318e+02	-17.3321	-46.911517	0.001601	16.013387	5.425482	-0.000641
1441	1.4328e+02	-17.3658	-47.521125	0.001530	15.303933	5.185113	-0.000613
1442	1.4338e+02	-17.4059	-48.146881	0.001571	15.709335	5.322467	-0.000629
1443	1.4348e+02	-17.4412	-48.728228	0.001459	14.594479	4.944743	-0.000584
1444	1.4358e+02	-17.4926	-49.398393	0.001682	16.824191	5.700190	-0.000674
1445	1.4368e+02	-17.5214	-50.080669	0.001713	17.128243	5.803206	-0.000686
1446	1.4378e+02	-17.5712	-50.746796	0.001672	16.722841	5.665852	-0.000669
1447	1.4388e+02	-17.6113	-51.408886	0.001662	16.621490	5.631513	-0.000665
1448	1.4398e+02	-17.6417	-52.107311	0.001753	17.533645	5.940560	-0.000702
1449	1.4408e+02	-17.6883	-52.793624	0.001723	17.229593	5.837544	-0.000690
1450	1.4418e+02	-17.7236	-53.516271	0.001814	18.141748	6.146591	-0.000726
1451	1.4428e+02	-17.7685	-54.162213	0.001622	16.216088	5.494159	-0.000649
1452	1.4437e+02	-17.7958	-54.868712	0.001774	17.736346	6.009237	-0.000710
1453	1.4447e+02	-17.8535	-55.575211	0.001774	17.736346	6.009237	-0.000710
1454	1.4457e+02	-17.8840	-56.330155	0.001895	18.952553	6.421299	-0.000759
1455	1.4467e+02	-17.9305	-57.052802	0.001814	18.141748	6.146591	-0.000726
1456	1.4477e+02	-17.9626	-57.775450	0.001814	18.141748	6.146591	-0.000726
1457	1.4487e+02	-18.0091	-58.510208	0.001845	18.445800	6.249606	-0.000738
1458	1.4497e+02	-18.0444	-59.253041	0.001865	18.648501	6.318283	-0.000747
1459	1.4507e+02	-18.0765	-59.999911	0.001875	18.749852	6.352622	-0.000751
1460	1.4517e+02	-18.1230	-60.750819	0.001885	18.851202	6.386960	-0.000755
1461	1.4527e+02	-18.1744	-61.521912	0.001936	19.357955	6.558653	-0.000775
1462	1.4537e+02	-18.2129	-62.276856	0.001895	18.952553	6.421299	-0.000759
1463	1.4547e+02	-18.2433	-63.088320	0.002037	20.371460	6.902038	-0.000816
1464	1.4557e+02	-18.2770	-63.928044	0.002108	21.080914	7.142407	-0.000844
1465	1.4567e+02	-18.3203	-64.759694	0.002088	20.878213	7.073730	-0.000836
1466	1.4577e+02	-18.3701	-65.571159	0.002037	20.371460	6.902038	-0.000816
1467	1.4587e+02	-18.4022	-66.394734	0.002068	20.675512	7.005053	-0.000828
1468	1.4597e+02	-18.4391	-67.234459	0.002108	21.080914	7.142407	-0.000844
1469	1.4607e+02	-18.4824	-68.082257	0.002128	21.283615	7.211084	-0.000852
1470	1.4617e+02	-18.5193	-68.917944	0.002098	20.979564	7.108069	-0.000840
1471	1.4626e+02	-18.5690	-69.798040	0.002209	22.094420	7.485792	-0.000885
1472	1.4636e+02	-18.6043	-70.678135	0.002209	22.094420	7.485792	-0.000885
1473	1.4646e+02	-18.6444	-71.578417	0.002260	22.601173	7.657485	-0.000905
1474	1.4656e+02	-18.6861	-72.466586	0.002230	22.297121	7.554469	-0.000893
1475	1.4666e+02	-18.7166	-73.395128	0.002331	23.310626	7.897854	-0.000933
1476	1.4676e+02	-18.7615	-74.275223	0.002209	22.094420	7.485792	-0.000885
1477	1.4686e+02	-18.8016	-75.175505	0.002260	22.601173	7.657485	-0.000905
1478	1.4696e+02	-18.8513	-76.087897	0.002291	22.905224	7.760500	-0.000917
1479	1.4706e+02	-18.8786	-77.036624	0.002382	23.817379	8.069547	-0.000953
1480	1.4716e+02	-18.9332	-78.033797	0.002503	25.033586	8.481608	-0.001002
1481	1.4726e+02	-18.9572	-78.998672	0.002422	24.222781	8.206900	-0.000970
1482	1.4736e+02	-18.9989	-79.983733	0.002473	24.729534	8.378593	-0.000990
1483	1.4746e+02	-19.0406	-80.993017	0.002534	25.337637	8.584624	-0.001014
1484	1.4756e+02	-19.0888	-82.002301	0.002534	25.337637	8.584624	-0.001014
1485	1.4766e+02	-19.1273	-83.043882	0.002615	26.148442	8.859332	-0.001047
1486	1.4776e+02	-19.1626	-84.016832	0.002443	24.425482	8.275577	-0.000978
1487	1.4786e+02	-19.2011	-85.090710	0.002696	26.959246	9.134040	-0.001079
1488	1.4796e+02	-19.2315	-86.132291	0.002615	26.148442	8.859332	-0.001047
1489	1.4806e+02	-19.2749	-87.173872	0.002615	26.148442	8.859332	-0.001047
1490	1.4816e+02	-19.3198	-88.292159	0.002807	28.074102	9.511763	-0.001124
1491	1.4825e+02	-19.3743	-89.321628	0.002584	25.844390	8.756316	-0.001035
1492	1.4835e+02	-19.4032	-90.484323	0.002919	29.188958	9.889487	-0.001169
1493	1.4845e+02	-19.4465	-91.586461	0.002767	27.668700	9.374409	-0.001108
1494	1.4855e+02	-19.4770	-92.668414	0.002716	27.161947	9.202717	-0.001087
1495	1.4865e+02	-19.5171	-93.823035	0.002899	28.986257	9.820810	-0.001160
1496	1.4875e+02	-19.5636	-94.953433	0.002838	28.378154	9.614779	-0.001136
1497	1.4885e+02	-19.5925	-96.140350	0.002980	29.797062	10.095518	-0.001193
1498	1.4895e+02	-19.6358	-97.303046	0.002919	29.188958	9.889487	-0.001169
1499	1.4905e+02	-19.6823	-98.550521	0.003132	31.317320	10.610595	-0.001254
1500	1.4915e+02	-19.7160	-99.733401	0.002970	29.695711	10.061179	-0.001189
1501	1.4925e+02	-19.7545	-100.988950	0.003152	31.520021	10.679272	-0.001262
1502	1.4935e+02	-19.7914	-102.224314	0.003101	31.013268	10.507580	-0.001242
1503	1.4945e+02	-19.8315	-103.467752	0.003122	31.215969	10.576257	-0.001250
1504	1.4955e+02	-19.8684	-104.743487	0.003203	32.026774	10.850965	-0.001282
1505	1.4965e+02	-19.9230	-105.994999	0.003142	31.418670	10.644934	-0.001258
1506	1.4975e+02	-19.9631	-107.335328	0.003365	33.648382	11.400381	-0.001347
1507	1.4985e+02	-19.9984	-108.639323	0.003274	32.736228	11.091334	-0.001311
1508	1.4995e+02	-19.9631	-109.632458	-0.002493	-24.932235	-8.447270	-0.000998
1509	1.5005e+02	-19.9198	-110.597334	-0.002422	-24.222781	-8.206900	-0.000970
1510	1.5015e+02	-19.8732	-111.485503	-0.002230	-22.297121	-7.554469	-0.000893
1511	1.5025e+02	-19.8428	-112.256596	-0.001936	-19.357955	-6.558653	-0.000775
1512	1.5034e+02	-19.7930	-113.088246	-0.002088	-20.878213	-7.073730	-0.000836
1513	1.5044e+02	-19.7722	-113.722077	-0.001591	-15.912036	-5.391144	-0.000637
1514	1.5054e+02	-19.7256	-114.464910	-0.001865	-18.648501	-6.318283	-0.000747
1515	1.5064e+02	-19.6679	-115.110851	-0.001622	-16.216088	-5.494159	-0.000649
1516	1.5074e+02	-19.6342	-115.712385	-0.001510	-15.101232	-5.116436	-0.000605
1517	1.5084e+02	-19.6005	-116.301806	-0.001480	-14.797180	-5.013420	-0.000592
1518	1.5094e+02	-19.5524	-116.862968	-0.001409	-14.087726	-4.773051	-0.000564
1519	1.5104e+02	-19.5219	-117.379722	-0.001297	-12.972870	-4.395327	-0.000519
1520	1.5114e+02	-19.4834	-117.827844	-0.001125	-11.249911	-3.811573	-0.000450
1521	1.5124e+02	-19.4449	-118.348634	-0.001307	-13.074221	-4.429666	-0.000523
1522	1.5134e+02	-19.3968	-118.841165	-0.001236	-12.364767	-4.189296	-0.000495
1523	1.5144e+02	-19.3647	-119.236804	-0.000993	-9.932354	-3.365173	-0.000398
1524	1.5154e+02	-19.3230	-119.612258	-0.000943	-9.425601	-3.193480	-0.000377
1525	1.5164e+02	-19.2797	-120.036157	-0.001064	-10.641808	-3.605542	-0.000426
1526	1.5174e+02	-19.2460	-120.395462	-0.000902	-9.020199	-3.056126	-0.000361
1527	1.5184e+02	-19.2027	-120.770916	-0.000943	-9.425601	-3.193480	-0.000377
1528	1.5194e+02	-19.1690	-121.057552	-0.000720	-7.195889	-2.438033	-0.000288
1529	1.5204e+02	-19.1144	-121.360337	-0.000760	-7.601291	-2.575387	-0.000304
1530	1.5214e+02	-19.0711	-121.651011	-0.000730	-7.297240	-2.472372	-0.000292
1531	1.5224e+02	-19.0422	-121.949759	-0.000750	-7.499941	-2.541049	-0.000300
1532	1.5233e+02	-18.9973	-122.224284	-0.000689	-6.891837	-2.335018	-0.000276
1533	1.5243e+02	-18.9604	-122.458438	-0.000588	-5.878332	-1.991633	-0.000235
1534	1.5253e+02	-18.9235	-122.692592	-0.000588	-5.878332	-1.991633	-0.000235
1535	1.5263e+02	-18.8802	-122.906560	-0.000537	-5.371579	-1.819940	-0.000215
1536	1.5273e+02	-18.8465	-123.120529	-0.000537	-5.371579	-1.819940	-0.000215
1537	1.5283e+02	-18.8128	-123.334497	-0.000537	-5.371579	-1.819940	-0.000215
1538	1.5293e+02	-18.7631	-123.504056	-0.000426	-4.256723	-1.442217	-0.000170
1539	1.5303e+02	-18.7278	-123.693802	-0.000476	-4.763476	-1.613909	-0.000191
1540	1.5313e+02	-18.6861	-123.867399	-0.000436	-4.358074	-1.476555	-0.000174
1541	1.5323e+02	-18.6428	-124.012736	-0.000365	-3.648620	-1.236186	-0.000146
1542	1.5333e+02	-18.6043	-124.162110	-0.000375	-3.749970	-1.270524	-0.000150
1543	1.5343e+02	-18.5658	-124.254964	-0.000233	-2.331063	-0.789785	-0.000093
1544	1.5353e+02	-18.5257	-124.456821	-0.000507	-5.067527	-1.716925	-0.000203
1545	1.5363e+02	-18.4872	-124.557749	-0.000253	-2.533764	-0.858462	-0.000101
1546	1.5373e+02	-18.4439	-124.670789	-0.000284	-2.837815	-0.961478	-0.000114
1547	1.5383e+02	-18.4118	-124.799977	-0.000324	-3.243218	-1.098832	-0.000130
1548	1.5393e+02	-18.3637	-124.892831	-0.000233	-2.331063	-0.789785	-0.000093
1549	1.5403e+02	-18.3219	-124.945314	-0.000132	-1.317557	-0.446400	-0.000053
1550	1.5413e+02	-18.2770	-125.078539	-0.000334	-3.344568	-1.133170	-0.000134
1551	1.5422e+02	-18.2449	-125.118911	-0.000101	-1.013505	-0.343385	-0.000041
1552	1.5432e+02	-18.2048	-125.199654	-0.000203	-2.027011	-0.686770	-0.000081
1553	1.5442e+02	-18.1583	-125.227913	-0.000071	-0.709454	-0.240369	-0.000028
1554	1.5452e+02	-18.1246	-125.308656	-0.000203	-2.027011	-0.686770	-0.000081
1555	1.5462e+02	-18.0893	-125.340953	-0.000081	-0.810804	-0.274708	-0.000032
1556	1.5472e+02	-18.0364	-125.361139	-0.000051	-0.506753	-0.171692	-0.000020
1557	1.5482e+02	-18.0043	-125.433807	-0.000182	-1.824310	-0.618093	-0.000073
1558	1.5492e+02	-17.9690	-125.470142	-0.000091	-0.912155	-0.309046	-0.000037
1559	1.5502e+02	-17.9241	-125.510513	-0.000101	-1.013505	-0.343385	-0.000041
1560	1.5512e+02	-17.8904	-125.506476	0.000010	0.101351	0.034338	0.000004
1561	1.5522e+02	-17.8535	-125.502439	0.000010	0.101351	0.034338	0.000004
1562	1.5532e+02	-17.8022	-125.575107	-0.000182	-1.824310	-0.618093	-0.000073
1563	1.5542e+02	-17.7621	-125.550884	0.000061	0.608103	0.206031	0.000024
1564	1.5552e+02	-17.7316	-125.575107	-0.000061	-0.608103	-0.206031	-0.000024
1565	1.5562e+02	-17.6738	-125.583181	-0.000020	-0.202701	-0.068677	-0.000008
1566	1.5572e+02	-17.6417	-125.587219	-0.000010	-0.101351	-0.034338	-0.000004
1567	1.5582e+02	-17.6049	-125.550884	0.000091	0.912155	0.309046	0.000037
1568	1.5592e+02	-17.5680	-125.538773	0.000030	0.304052	0.103015	0.000012
1569	1.5602e+02	-17.5166	-125.526662	0.000030	0.304052	0.103015	0.000012
1570	1.5612e+02	-17.4893	-125.538773	-0.000030	-0.304052	-0.103015	-0.000012
1571	1.5622e+02	-17.4444	-125.494364	0.000111	1.114856	0.377723	0.000045
1572	1.5631e+02	-17.4043	-125.466104	0.000071	0.709454	0.240369	0.000028
1573	1.5641e+02	-17.3738	-125.458030	0.000020	0.202701	0.068677	0.000008
1574	1.5651e+02	-17.3369	-125.462067	-0.000010	-0.101351	-0.034338	-0.000004
1575	1.5661e+02	-17.2888	-125.393436	0.000172	1.722959	0.583754	0.000069
1576	1.5671e+02	-17.2455	-125.361139	0.000081	0.810804	0.274708	0.000032
1577	1.5681e+02	-17.2086	-125.349028	0.000030	0.304052	0.103015	0.000012
1578	1.5691e+02	-17.1701	-125.284433	0.000162	1.621609	0.549416	0.000065
1579	1.5701e+02	-17.1348	-125.199654	0.000213	2.128362	0.721108	0.000085
1580	1.5711e+02	-17.0931	-125.171394	0.000071	0.709454	0.240369	0.000028
1581	1.5721e+02	-17.0530	-125.147171	0.000061	0.608103	0.206031	0.000024
1582	1.5731e+02	-17.0033	-125.086614	0.000152	1.520258	0.515077	0.000061
1583	1.5741e+02	-16.9632	-125.030094	0.000142	1.418908	0.480739	0.000057
1584	1.5751e+02	-16.9359	-125.005871	0.000061	0.608103	0.206031	0.000024
1585	1.5761e+02	-16.8942	-124.965500	0.000101	1.013505	0.343385	0.000041
1586	1.5771e+02	-16.8541	-124.913017	0.000132	1.317557	0.446400	0.000053
1587	1.5781e+02	-16.8092	-124.804014	0.000274	2.736465	0.927139	0.000110
1588	1.5791e+02	-16.7642	-124.747494	0.000142	1.418908	0.480739	0.000057
1589	1.5801e+02	-16.7193	-124.715197	0.000081	0.810804	0.274708	0.000032
1590	1.5811e+02	-16.6936	-124.654640	0.000152	1.520258	0.515077	0.000061
1591	1.5821e+02	-16.6455	-124.594083	0.000152	1.520258	0.515077	0.000061
1592	1.5830e+02	-16.6182	-124.549675	0.000111	1.114856	0.377723	0.000045
1593	1.5840e+02	-16.5797	-124.432598	0.000294	2.939166	0.995816	0.000118
1594	1.5850e+02	-16.5316	-124.396263	0.000091	0.912155	0.309046	0.000037
1595	1.5860e+02	-16.4963	-124.319558	0.000193	1.925660	0.652431	0.000077
1596	1.5870e+02	-16.4530	-124.234778	0.000213	2.128362	0.721108	0.000085
1597	1.5880e+02	-16.4081	-124.154035	0.000203	2.027011	0.686770	0.000081
1598	1.5890e+02	-16.3728	-124.089441	0.000162	1.621609	0.549416	0.000065
1599	1.5900e+02	-16.3455	-123.964290	0.000314	3.141867	1.064493	0.000126
1600	1.5910e+02	-16.2990	-123.911807	0.000132	1.317557	0.446400	0.000053
1601	1.5920e+02	-16.2589	-123.847213	0.000162	1.621609	0.549416	0.000065
1602	1.5930e+02	-16.2140	-123.794730	0.000132	1.317557	0.446400	0.000053
1603	1.5940e+02	-16.1659	-123.709950	0.000213	2.128362	0.721108	0.000085
1604	1.5950e+02	-16.1338	-123.625171	0.000213	2.128362	0.721108	0.000085
1605	1.5960e+02	-16.0953	-123.556539	0.000172	1.722959	0.583754	0.000069
1606	1.5970e+02	-16.0536	-123.483871	0.000182	1.824310	0.618093	0.000073
1607	1.5980e+02	-16.0102	-123.427351	0.000142	1.418908	0.480739	0.000057
1608	1.5990e+02	-15.9621	-123.362757	0.000162	1.621609	0.549416	0.000065
1609	1.6000e+02	-15.9429	-123.253754	0.000274	2.736465	0.927139	0.000110
1610	1.6010e+02	-15.8915	-123.164937	0.000223	2.229712	0.755447	0.000089
1611	1.6019e+02	-15.8578	-123.084194	0.000203	2.027011	0.686770	0.000081
1612	1.6029e+02	-15.8129	-123.023637	0.000152	1.520258	0.515077	0.000061
1613	1.6039e+02	-15.7744	-122.934820	0.000223	2.229712	0.755447	0.000089
1614	1.6049e+02	-15.7439	-122.850041	0.000213	2.128362	0.721108	0.000085
1615	1.6059e+02	-15.6910	-122.720852	0.000324	3.243218	1.098832	0.000130
1616	1.6069e+02	-15.6589	-122.676444	0.000111	1.114856	0.377723	0.000045
1617	1.6079e+02	-15.6172	-122.535144	0.000355	3.547269	1.201847	0.000142
1618	1.6089e+02	-15.5819	-122.409993	0.000314	3.141867	1.064493	0.000126
1619	1.6099e+02	-15.5434	-122.405956	0.000010	0.101351	0.034338	0.000004
1620	1.6109e+02	-15.5033	-122.333287	0.000182	1.824310	0.618093	0.000073
1621	1.6119e+02	-15.4568	-122.224284	0.000274	2.736465	0.927139	0.000110
1622	1.6129e+02	-15.4231	-122.143542	0.000203	2.027011	0.686770	0.000081
1623	1.6139e+02	-15.3782	-122.038576	0.000264	2.635114	0.892801	0.000105
1624	1.6149e+02	-15.3381	-121.941685	0.000243	2.432413	0.824124	0.000097
1625	1.6159e+02	-15.3044	-121.889202	0.000132	1.317557	0.446400	0.000053
1626	1.6169e+02	-15.2611	-121.735791	0.000385	3.851321	1.304863	0.000154
1627	1.6179e+02	-15.2194	-121.711568	0.000061	0.608103	0.206031	0.000024
1628	1.6189e+02	-15.1744	-121.574306	0.000345	3.445919	1.167509	0.000138
1629	1.6199e+02	-15.1359	-121.497600	0.000193	1.925660	0.652431	0.000077
1630	1.6209e+02	-15.0942	-121.380523	0.000294	2.939166	0.995816	0.000118
1631	1.6219e+02	-15.0541	-121.255372	0.000314	3.141867	1.064493	0.000126
1632	1.6228e+02	-15.0188	-121.166555	0.000223	2.229712	0.755447	0.000089
1633	1.6238e+02	-14.9739	-121.077738	0.000223	2.229712	0.755447	0.000089
1634	1.6248e+02	-14.9386	-120.944512	0.000334	3.344568	1.133170	0.000134
1635	1.6258e+02	-14.8937	-120.867807	0.000193	1.925660	0.652431	0.000077
1636	1.6268e+02	-14.8536	-120.762841	0.000264	2.635114	0.892801	0.000105
1637	1.6278e+02	-14.8247	-120.678061	0.000213	2.128362	0.721108	0.000085
1638	1.6288e+02	-14.7750	-120.613467	0.000162	1.621609	0.549416	0.000065
1639	1.6298e+02	-14.7413	-120.508502	0.000264	2.635114	0.892801	0.000105
1640	1.6308e+02	-14.6932	-120.423722	0.000213	2.128362	0.721108	0.000085
1641	1.6318e+02	-14.6547	-120.306645	0.000294	2.939166	0.995816	0.000118
1642	1.6328e+02	-14.6178	-120.205717	0.000253	2.533764	0.858462	0.000101
1643	1.6338e+02	-14.5745	-120.116900	0.000223	2.229712	0.755447	0.000089
1644	1.6348e+02	-14.5408	-120.011934	0.000264	2.635114	0.892801	0.000105
1645	1.6358e+02	-14.4975	-119.878709	0.000334	3.344568	1.133170	0.000134
1646	1.6368e+02	-14.4654	-119.797966	0.000203	2.027011	0.686770	0.000081
1647	1.6378e+02	-14.4221	-119.693000	0.000264	2.635114	0.892801	0.000105
1648	1.6388e+02	-14.3787	-119.596109	0.000243	2.432413	0.824124	0.000097
1649	1.6398e+02	-14.3338	-119.503255	0.000233	2.331063	0.789785	0.000093
1650	1.6408e+02	-14.3065	-119.390215	0.000284	2.837815	0.961478	0.000114
1651	1.6418e+02	-14.2664	-119.277175	0.000284	2.837815	0.961478	0.000114
1652	1.6427e+02	-14.2311	-119.115690	0.000405	4.054022	1.373540	0.000162
1653	1.6437e+02	-14.1830	-119.014762	0.000253	2.533764	0.858462	0.000101
1654	1.6447e+02	-14.1381	-118.925945	0.000223	2.229712	0.755447	0.000089
1655	1.6457e+02	-14.0964	-118.869425	0.000142	1.418908	0.480739	0.000057
1656	1.6467e+02	-14.0579	-118.772533	0.000243	2.432413	0.824124	0.000097
1657	1.6477e+02	-14.0258	-118.651419	0.000304	3.040516	1.030155	0.000122
1658	1.6487e+02	-13.9793	-118.566639	0.000213	2.128362	0.721108	0.000085
1659	1.6497e+02	-13.9376	-118.437451	0.000324	3.243218	1.098832	0.000130
1660	1.6507e+02	-13.9007	-118.312300	0.000314	3.141867	1.064493	0.000126
1661	1.6517e+02	-13.8702	-118.207334	0.000264	2.635114	0.892801	0.000105
1662	1.6527e+02	-13.8205	-118.154852	0.000132	1.317557	0.446400	0.000053
1663	1.6537e+02	-13.7852	-118.025663	0.000324	3.243218	1.098832	0.000130
1664	1.6547e+02	-13.7403	-117.924735	0.000253	2.533764	0.858462	0.000101
1665	1.6557e+02	-13.7066	-117.815732	0.000274	2.736465	0.927139	0.000110
1666	1.6567e+02	-13.6649	-117.747101	0.000172	1.722959	0.583754	0.000069
1667	1.6577e+02	-13.6247	-117.577541	0.000426	4.256723	1.442217	0.000170
1668	1.6587e+02	-13.5798	-117.448353	0.000324	3.243218	1.098832	0.000130
1669	1.6597e+02	-13.5542	-117.371647	0.000193	1.925660	0.652431	0.000077
1670	1.6607e+02	-13.5028	-117.238422	0.000334	3.344568	1.133170	0.000134
1671	1.6616e+02	-13.4627	-117.101159	0.000345	3.445919	1.167509	0.000138
1672	1.6626e+02	-13.4274	-117.012342	0.000223	2.229712	0.755447	0.000089
1673	1.6636e+02	-13.3809	-116.927562	0.000213	2.128362	0.721108	0.000085
1674	1.6646e+02	-13.3344	-116.846820	0.000203	2.027011	0.686770	0.000081
1675	1.6656e+02	-13.3087	-116.725706	0.000304	3.040516	1.030155	0.000122
1676	1.6666e+02	-13.2686	-116.596517	0.000324	3.243218	1.098832	0.000130
1677	1.6676e+02	-13.2301	-116.515775	0.000203	2.027011	0.686770	0.000081
1678	1.6686e+02	-13.1756	-116.370438	0.000365	3.648620	1.236186	0.000146
1679	1.6696e+02	-13.1467	-116.277584	0.000233	2.331063	0.789785	0.000093
1680	1.6706e+02	-13.1050	-116.164544	0.000284	2.837815	0.961478	0.000114
1681	1.6716e+02	-13.0633	-116.043430	0.000304	3.040516	1.030155	0.000122
1682	1.6726e+02	-13.0328	-115.950576	0.000233	2.331063	0.789785	0.000093
1683	1.6736e+02	-12.9959	-115.861759	0.000223	2.229712	0.755447	0.000089
1684	1.6746e+02	-12.9542	-115.740644	0.000304	3.040516	1.030155	0.000122
1685	1.6756e+02	-12.9061	-115.667976	0.000182	1.824310	0.618093	0.000073
1686	1.6766e+02	-12.8692	-115.486305	0.000456	4.560775	1.545232	0.000183
1687	1.6776e+02	-12.8290	-115.373265	0.000284	2.837815	0.961478	0.000114
1688	1.6786e+02	-12.7873	-115.248114	0.000314	3.141867	1.064493	0.000126
1689	1.6796e+02	-12.7408	-115.155260	0.000233	2.331063	0.789785	0.000093
1690	1.6806e+02	-12.7055	-115.066443	0.000223	2.229712	0.755447	0.000089
1691	1.6816e+02	-12.6574	-114.913032	0.000385	3.851321	1.304863	0.000154
1692	1.6825e+02	-12.6173	-114.799992	0.000284	2.837815	0.961478	0.000114
1693	1.6835e+02	-12.5900	-114.690989	0.000274	2.736465	0.927139	0.000110
1694	1.6845e+02	-12.5467	-114.586024	0.000264	2.635114	0.892801	0.000105
1695	1.6855e+02	-12.5178	-114.464910	0.000304	3.040516	1.030155	0.000122
1696	1.6865e+02	-12.4729	-114.335721	0.000324	3.243218	1.098832	0.000130
1697	1.6875e+02	-12.4328	-114.238830	0.000243	2.432413	0.824124	0.000097
1698	1.6885e+02	-12.3847	-114.109642	0.000324	3.243218	1.098832	0.000130
1699	1.6895e+02	-12.3494	-113.980453	0.000324	3.243218	1.098832	0.000130
1700	1.6905e+02	-12.3125	-113.855302	0.000314	3.141867	1.064493	0.000126
1701	1.6915e+02	-12.2628	-113.730151	0.000314	3.141867	1.064493	0.000126
1702	1.6925e+02	-12.2355	-113.617111	0.000284	2.837815	0.961478	0.000114
1703	1.6935e+02	-12.1922	-113.504071	0.000284	2.837815	0.961478	0.000114
1704	1.6945e+02	-12.1553	-113.338549	0.000416	4.155373	1.407878	0.000166
1705	1.6955e+02	-12.1055	-113.213398	0.000314	3.141867	1.064493	0.000126
1706	1.6965e+02	-12.0638	-113.108432	0.000264	2.635114	0.892801	0.000105
1707	1.6975e+02	-12.0285	-112.999429	0.000274	2.736465	0.927139	0.000110
1708	1.6985e+02	-11.9884	-112.914649	0.000213	2.128362	0.721108	0.000085
1709	1.6995e+02	-11.9467	-112.805647	0.000274	2.736465	0.927139	0.000110
1710	1.7005e+02	-11.9146	-112.640124	0.000416	4.155373	1.407878	0.000166
1711	1.7015e+02	-11.8665	-112.571493	0.000172	1.722959	0.583754	0.000069
1712	1.7024e+02	-11.8312	-112.385785	0.000466	4.662125	1.579571	0.000187
1713	1.7034e+02	-11.7975	-112.248522	0.000345	3.445919	1.167509	0.000138
1714	1.7044e+02	-11.7494	-112.175854	0.000182	1.824310	0.618093	0.000073
1715	1.7054e+02	-11.7093	-112.070888	0.000264	2.635114	0.892801	0.000105
1716	1.7064e+02	-11.6708	-111.937663	0.000334	3.344568	1.133170	0.000134
1717	1.7074e+02	-11.6275	-111.820586	0.000294	2.939166	0.995816	0.000118
1718	1.7084e+02	-11.5906	-111.655063	0.000416	4.155373	1.407878	0.000166
1719	1.7094e+02	-11.5489	-111.558172	0.000243	2.432413	0.824124	0.000097
1720	1.7104e+02	-11.5168	-111.465318	0.000233	2.331063	0.789785	0.000093
1721	1.7114e+02	-11.4655	-111.287684	0.000446	4.459424	1.510894	0.000179
1722	1.7124e+02	-11.4398	-111.174644	0.000284	2.837815	0.961478	0.000114
1723	1.7134e+02	-11.3917	-111.045456	0.000324	3.243218	1.098832	0.000130
1724	1.7144e+02	-11.3419	-110.952601	0.000233	2.331063	0.789785	0.000093
1725	1.7154e+02	-11.3179	-110.823413	0.000324	3.243218	1.098832	0.000130
1726	1.7164e+02	-11.2713	-110.702299	0.000304	3.040516	1.030155	0.000122
1727	1.7174e+02	-11.2280	-110.577148	0.000314	3.141867	1.064493	0.000126
1728	1.7184e+02	-11.1879	-110.468145	0.000274	2.736465	0.927139	0.000110
1729	1.7194e+02	-11.1430	-110.310697	0.000395	3.952671	1.339201	0.000158
1730	1.7204e+02	-11.1157	-110.149211	0.000405	4.054022	1.373540	0.000162
1731	1.7213e+02	-11.0772	-110.096729	0.000132	1.317557	0.446400	0.000053
1732	1.7223e+02	-11.0355	-109.923132	0.000436	4.358074	1.476555	0.000174
1733	1.7233e+02	-10.9906	-109.814129	0.000274	2.736465	0.927139	0.000110
1734	1.7243e+02	-10.9521	-109.688978	0.000314	3.141867	1.064493	0.000126
1735	1.7253e+02	-10.9200	-109.571901	0.000294	2.939166	0.995816	0.000118
1736	1.7263e+02	-10.8751	-109.414453	0.000395	3.952671	1.339201	0.000158
1737	1.7273e+02	-10.8318	-109.321599	0.000233	2.331063	0.789785	0.000093
1738	1.7283e+02	-10.7885	-109.224707	0.000243	2.432413	0.824124	0.000097
1739	1.7293e+02	-10.7564	-109.030925	0.000486	4.864826	1.648248	0.000195
1740	1.7303e+02	-10.7115	-108.929996	0.000253	2.533764	0.858462	0.000101
1741	1.7313e+02	-10.6633	-108.804845	0.000314	3.141867	1.064493	0.000126
1742	1.7323e+02	-10.6329	-108.699880	0.000264	2.635114	0.892801	0.000105
1743	1.7333e+02	-10.5879	-108.566654	0.000334	3.344568	1.133170	0.000134
1744	1.7343e+02	-10.5494	-108.421317	0.000365	3.648620	1.236186	0.000146
1745	1.7353e+02	-10.5157	-108.292129	0.000324	3.243218	1.098832	0.000130
1746	1.7363e+02	-10.4788	-108.158904	0.000334	3.344568	1.133170	0.000134
1747	1.7373e+02	-10.4484	-108.001455	0.000395	3.952671	1.339201	0.000158
1748	1.7383e+02	-10.4034	-107.904564	0.000243	2.432413	0.824124	0.000097
1749	1.7393e+02	-10.3569	-107.759227	0.000365	3.648620	1.236186	0.000146
1750	1.7403e+02	-10.3200	-107.658299	0.000253	2.533764	0.858462	0.000101
1751	1.7413e+02	-10.2799	-107.569482	0.000223	2.229712	0.755447	0.000089
1752	1.7422e+02	-10.2382	-107.387811	0.000456	4.560775	1.545232	0.000183
1753	1.7432e+02	-10.1965	-107.270734	0.000294	2.939166	0.995816	0.000118
1754	1.7442e+02	-10.1564	-107.137508	0.000334	3.344568	1.133170	0.000134
1755	1.7452e+02	-10.1243	-106.980060	0.000395	3.952671	1.339201	0.000158
1756	1.7462e+02	-10.0762	-106.875094	0.000264	2.635114	0.892801	0.000105
1757	1.7472e+02	-10.0297	-106.745906	0.000324	3.243218	1.098832	0.000130
1758	1.7482e+02	-9.9815	-106.608643	0.000345	3.445919	1.167509	0.000138
1759	1.7492e+02	-9.9655	-106.548086	0.000152	1.520258	0.515077	0.000061
1760	1.7502e+02	-9.9158	-106.374490	0.000436	4.358074	1.476555	0.000174
1761	1.7512e+02	-9.8741	-106.208967	0.000416	4.155373	1.407878	0.000166
1762	1.7522e+02	-9.8356	-106.055556	0.000385	3.851321	1.304863	0.000154
1763	1.7532e+02	-9.7954	-105.950590	0.000264	2.635114	0.892801	0.000105
1764	1.7542e+02	-9.7618	-105.825439	0.000314	3.141867	1.064493	0.000126
1765	1.7552e+02	-9.7104	-105.667991	0.000395	3.952671	1.339201	0.000158
1766	1.7562e+02	-9.6783	-105.498431	0.000426	4.256723	1.442217	0.000170
1767	1.7572e+02	-9.6398	-105.401540	0.000243	2.432413	0.824124	0.000097
1768	1.7582e+02	-9.6061	-105.223906	0.000446	4.459424	1.510894	0.000179
1769	1.7592e+02	-9.5628	-105.127015	0.000243	2.432413	0.824124	0.000097
1770	1.7602e+02	-9.5227	-105.001863	0.000314	3.141867	1.064493	0.000126
1771	1.7612e+02	-9.4826	-104.876712	0.000314	3.141867	1.064493	0.000126
1772	1.7621e+02	-9.4393	-104.767710	0.000274	2.736465	0.927139	0.000110
1773	1.7631e+02	-9.4072	-104.565853	0.000507	5.067527	1.716925	0.000203
1774	1.7641e+02	-9.3639	-104.452813	0.000284	2.837815	0.961478	0.000114
1775	1.7651e+02	-9.3174	-104.331699	0.000304	3.040516	1.030155	0.000122
1776	1.7661e+02	-9.2885	-104.218659	0.000284	2.837815	0.961478	0.000114
1777	1.7671e+02	-9.2356	-104.089471	0.000324	3.243218	1.098832	0.000130
1778	1.7681e+02	-9.2035	-103.944134	0.000365	3.648620	1.236186	0.000146
1779	1.7691e+02	-9.1634	-103.790723	0.000385	3.851321	1.304863	0.000154
1780	1.7701e+02	-9.1217	-103.641349	0.000375	3.749970	1.270524	0.000150
1781	1.7711e+02	-9.0880	-103.516197	0.000314	3.141867	1.064493	0.000126
1782	1.7721e+02	-9.0350	-103.403158	0.000284	2.837815	0.961478	0.000114
1783	1.7731e+02	-9.0078	-103.269932	0.000334	3.344568	1.133170	0.000134
1784	1.7741e+02	-8.9645	-103.112484	0.000395	3.952671	1.339201	0.000158
1785	1.7751e+02	-8.9211	-102.971184	0.000355	3.547269	1.201847	0.000142
1786	1.7761e+02	-8.8874	-102.858144	0.000284	2.837815	0.961478	0.000114
1787	1.7771e+02	-8.8409	-102.696659	0.000405	4.054022	1.373540	0.000162
1788	1.7781e+02	-8.7976	-102.563433	0.000334	3.344568	1.133170	0.000134
1789	1.7791e+02	-8.7527	-102.458468	0.000264	2.635114	0.892801	0.000105
1790	1.7801e+02	-8.7286	-102.333317	0.000314	3.141867	1.064493	0.000126
1791	1.7810e+02	-8.6853	-102.192017	0.000355	3.547269	1.201847	0.000142
1792	1.7820e+02	-8.6468	-102.042643	0.000375	3.749970	1.270524	0.000150
1793	1.7830e+02	-8.6003	-101.877120	0.000416	4.155373	1.407878	0.000166
1794	1.7840e+02	-8.5618	-101.804452	0.000182	1.824310	0.618093	0.000073
1795	1.7850e+02	-8.5233	-101.683338	0.000304	3.040516	1.030155	0.000122
1796	1.7860e+02	-8.4880	-101.533964	0.000375	3.749970	1.270524	0.000150
1797	1.7870e+02	-8.4399	-101.372478	0.000405	4.054022	1.373540	0.000162
1798	1.7880e+02	-8.4014	-101.186770	0.000466	4.662125	1.579571	0.000187
1799	1.7890e+02	-8.3564	-101.081805	0.000264	2.635114	0.892801	0.000105
1800	1.7900e+02	-8.3244	-100.904171	0.000446	4.459424	1.510894	0.000179
1801	1.7910e+02	-8.2859	-100.770945	0.000334	3.344568	1.133170	0.000134
1802	1.7920e+02	-8.2425	-100.645794	0.000314	3.141867	1.064493	0.000126
1803	1.7930e+02	-8.2089	-100.476234	0.000426	4.256723	1.442217	0.000170
1804	1.7940e+02	-8.1688	-100.363194	0.000284	2.837815	0.961478	0.000114
1805	1.7950e+02	-8.1254	-100.205746	0.000395	3.952671	1.339201	0.000158
1806	1.7960e+02	-8.0885	-100.076558	0.000324	3.243218	1.098832	0.000130
1807	1.7970e+02	-8.0645	-99.939295	0.000345	3.445919	1.167509	0.000138
1808	1.7980e+02	-8.0083	-99.793958	0.000365	3.648620	1.236186	0.000146
1809	1.7990e+02	-7.9682	-99.684956	0.000274	2.736465	0.927139	0.000110
1810	1.8000e+02	-7.9265	-99.503285	0.000456	4.560775	1.545232	0.000183
1811	1.8009e+02	-7.8832	-99.361985	0.000355	3.547269	1.201847	0.000142
1812	1.8019e+02	-7.8463	-99.321613	0.000101	1.013505	0.343385	0.000041
1813	1.8029e+02	-7.8030	-99.123794	0.000497	4.966177	1.682586	0.000199
1814	1.8039e+02	-7.7629	-98.994605	0.000324	3.243218	1.098832	0.000130
1815	1.8049e+02	-7.7196	-98.861380	0.000334	3.344568	1.133170	0.000134
1816	1.8059e+02	-7.6891	-98.627226	0.000588	5.878332	1.991633	0.000235
1817	1.8069e+02	-7.6522	-98.494001	0.000334	3.344568	1.133170	0.000134
1818	1.8079e+02	-7.6041	-98.348664	0.000365	3.648620	1.236186	0.000146
1819	1.8089e+02	-7.5688	-98.199290	0.000375	3.749970	1.270524	0.000150
1820	1.8099e+02	-7.5319	-98.066064	0.000334	3.344568	1.133170	0.000134
1821	1.8109e+02	-7.4902	-97.932839	0.000334	3.344568	1.133170	0.000134
1822	1.8119e+02	-7.4517	-97.827873	0.000264	2.635114	0.892801	0.000105
1823	1.8129e+02	-7.4035	-97.605831	0.000557	5.574280	1.888617	0.000223
1824	1.8139e+02	-7.3698	-97.464531	0.000355	3.547269	1.201847	0.000142
1825	1.8149e+02	-7.3281	-97.343417	0.000304	3.040516	1.030155	0.000122
1826	1.8159e+02	-7.2880	-97.194043	0.000375	3.749970	1.270524	0.000150
1827	1.8169e+02	-7.2447	-97.040632	0.000385	3.851321	1.304863	0.000154
1828	1.8179e+02	-7.1998	-96.951815	0.000223	2.229712	0.755447	0.000089
1829	1.8189e+02	-7.1709	-96.774181	0.000446	4.459424	1.510894	0.000179
1830	1.8199e+02	-7.1292	-96.661141	0.000284	2.837815	0.961478	0.000114
1831	1.8209e+02	-7.0939	-96.511767	0.000375	3.749970	1.270524	0.000150
1832	1.8218e+02	-7.0522	-96.322022	0.000476	4.763476	1.613909	0.000191
1833	1.8228e+02	-7.0169	-96.204945	0.000294	2.939166	0.995816	0.000118
1834	1.8238e+02	-6.9736	-96.051533	0.000385	3.851321	1.304863	0.000154
1835	1.8248e+02	-6.9271	-95.873900	0.000446	4.459424	1.510894	0.000179
1836	1.8258e+02	-6.8902	-95.732600	0.000355	3.547269	1.201847	0.000142
1837	1.8268e+02	-6.8453	-95.575151	0.000395	3.952671	1.339201	0.000158
1838	1.8278e+02	-6.8132	-95.429815	0.000365	3.648620	1.236186	0.000146
1839	1.8288e+02	-6.7602	-95.312738	0.000294	2.939166	0.995816	0.000118
1840	1.8298e+02	-6.7330	-95.118955	0.000486	4.864826	1.648248	0.000195
1841	1.8308e+02	-6.6929	-94.965544	0.000385	3.851321	1.304863	0.000154
1842	1.8318e+02	-6.6544	-94.840393	0.000314	3.141867	1.064493	0.000126
1843	1.8328e+02	-6.6143	-94.699093	0.000355	3.547269	1.201847	0.000142
1844	1.8338e+02	-6.5661	-94.533570	0.000416	4.155373	1.407878	0.000166
1845	1.8348e+02	-6.5292	-94.343825	0.000476	4.763476	1.613909	0.000191
1846	1.8358e+02	-6.4891	-94.267119	0.000193	1.925660	0.652431	0.000077
1847	1.8368e+02	-6.4474	-94.105634	0.000405	4.054022	1.373540	0.000162
1848	1.8378e+02	-6.4105	-93.996631	0.000274	2.736465	0.927139	0.000110
1849	1.8388e+02	-6.3752	-93.879554	0.000294	2.939166	0.995816	0.000118
1850	1.8398e+02	-6.3351	-93.657512	0.000557	5.574280	1.888617	0.000223
1851	1.8407e+02	-6.2982	-93.576769	0.000203	2.027011	0.686770	0.000081
1852	1.8417e+02	-6.2565	-93.318393	0.000649	6.486435	2.197664	0.000260
1853	1.8427e+02	-6.2084	-93.185167	0.000334	3.344568	1.133170	0.000134
1854	1.8437e+02	-6.1699	-93.039830	0.000365	3.648620	1.236186	0.000146
1855	1.8447e+02	-6.1378	-92.813751	0.000568	5.675631	1.922956	0.000227
1856	1.8457e+02	-6.0897	-92.737045	0.000193	1.925660	0.652431	0.000077
1857	1.8467e+02	-6.0528	-92.535188	0.000507	5.067527	1.716925	0.000203
1858	1.8477e+02	-6.0191	-92.397926	0.000345	3.445919	1.167509	0.000138
1859	1.8487e+02	-5.9790	-92.236440	0.000405	4.054022	1.373540	0.000162
1860	1.8497e+02	-5.9292	-92.066881	0.000426	4.256723	1.442217	0.000170
1861	1.8507e+02	-5.8972	-91.929618	0.000345	3.445919	1.167509	0.000138
1862	1.8517e+02	-5.8522	-91.788318	0.000355	3.547269	1.201847	0.000142
1863	1.8527e+02	-5.8153	-91.610684	0.000446	4.459424	1.510894	0.000179
1864	1.8537e+02	-5.7801	-91.469384	0.000355	3.547269	1.201847	0.000142
1865	1.8547e+02	-5.7383	-91.368456	0.000253	2.533764	0.858462	0.000101
1866	1.8557e+02	-5.6918	-91.182748	0.000466	4.662125	1.579571	0.000187
1867	1.8567e+02	-5.6517	-91.045485	0.000345	3.445919	1.167509	0.000138
1868	1.8577e+02	-5.6084	-90.875925	0.000426	4.256723	1.442217	0.000170
1869	1.8587e+02	-5.5715	-90.722514	0.000385	3.851321	1.304863	0.000154
1870	1.8597e+02	-5.5426	-90.548917	0.000436	4.358074	1.476555	0.000174
1871	1.8606e+02	-5.4929	-90.351098	0.000497	4.966177	1.682586	0.000199
1872	1.8616e+02	-5.4544	-90.129055	0.000557	5.574280	1.888617	0.000223
1873	1.8626e+02	-5.4191	-90.016016	0.000284	2.837815	0.961478	0.000114
1874	1.8636e+02	-5.3822	-89.882790	0.000334	3.344568	1.133170	0.000134
1875	1.8646e+02	-5.3389	-89.725342	0.000395	3.952671	1.339201	0.000158
1876	1.8656e+02	-5.2988	-89.567893	0.000395	3.952671	1.339201	0.000158
1877	1.8666e+02	-5.2571	-89.390260	0.000446	4.459424	1.510894	0.000179
1878	1.8676e+02	-5.2170	-89.257034	0.000334	3.344568	1.133170	0.000134
1879	1.8686e+02	-5.1865	-89.034992	0.000557	5.574280	1.888617	0.000223
1880	1.8696e+02	-5.1351	-88.885618	0.000375	3.749970	1.270524	0.000150
1881	1.8706e+02	-5.1015	-88.744318	0.000355	3.547269	1.201847	0.000142
1882	1.8716e+02	-5.0581	-88.627241	0.000294	2.939166	0.995816	0.000118
1883	1.8726e+02	-5.0261	-88.453644	0.000436	4.358074	1.476555	0.000174
1884	1.8736e+02	-4.9731	-88.296196	0.000395	3.952671	1.339201	0.000158
1885	1.8746e+02	-4.9362	-88.158933	0.000345	3.445919	1.167509	0.000138
1886	1.8756e+02	-4.8977	-87.985336	0.000436	4.358074	1.476555	0.000174
1887	1.8766e+02	-4.8560	-87.807702	0.000446	4.459424	1.510894	0.000179
1888	1.8776e+02	-4.8207	-87.630068	0.000446	4.459424	1.510894	0.000179
1889	1.8786e+02	-4.7854	-87.395914	0.000588	5.878332	1.991633	0.000235
1890	1.8796e+02	-4.7357	-87.258652	0.000345	3.445919	1.167509	0.000138
1891	1.8806e+02	-4.7068	-87.109278	0.000375	3.749970	1.270524	0.000150
1892	1.8815e+02	-4.6651	-86.951830	0.000395	3.952671	1.339201	0.000158
1893	1.8825e+02	-4.6170	-86.794381	0.000395	3.952671	1.339201	0.000158
1894	1.8835e+02	-4.5865	-86.640970	0.000385	3.851321	1.304863	0.000154
1895	1.8845e+02	-4.5336	-86.467373	0.000436	4.358074	1.476555	0.000174
1896	1.8855e+02	-4.5015	-86.301851	0.000416	4.155373	1.407878	0.000166
1897	1.8865e+02	-4.4550	-86.116142	0.000466	4.662125	1.579571	0.000187
1898	1.8875e+02	-4.4148	-85.986954	0.000324	3.243218	1.098832	0.000130
1899	1.8885e+02	-4.3747	-85.817394	0.000426	4.256723	1.442217	0.000170
1900	1.8895e+02	-4.3523	-85.700317	0.000294	2.939166	0.995816	0.000118
1901	1.8905e+02	-4.2977	-85.554981	0.000365	3.648620	1.236186	0.000146
1902	1.8915e+02	-4.2689	-85.361198	0.000486	4.864826	1.648248	0.000195
1903	1.8925e+02	-4.2159	-85.187601	0.000436	4.358074	1.476555	0.000174
1904	1.8935e+02	-4.1726	-85.042264	0.000365	3.648620	1.236186	0.000146
1905	1.8945e+02	-4.1485	-84.876742	0.000416	4.155373	1.407878	0.000166
1906	1.8955e+02	-4.1004	-84.658736	0.000547	5.472930	1.854279	0.000219
1907	1.8965e+02	-4.0619	-84.481102	0.000446	4.459424	1.510894	0.000179
1908	1.8975e+02	-4.0266	-84.327691	0.000385	3.851321	1.304863	0.000154
1909	1.8985e+02	-3.9865	-84.117760	0.000527	5.270229	1.785602	0.000211
1910	1.8995e+02	-3.9512	-83.940126	0.000446	4.459424	1.510894	0.000179
1911	1.9004e+02	-3.8983	-83.798827	0.000355	3.547269	1.201847	0.000142
1912	1.9014e+02	-3.8710	-83.596970	0.000507	5.067527	1.716925	0.000203
1913	1.9024e+02	-3.8165	-83.443559	0.000385	3.851321	1.304863	0.000154
1914	1.9034e+02	-3.7844	-83.290147	0.000385	3.851321	1.304863	0.000154
1915	1.9044e+02	-3.7443	-83.124625	0.000416	4.155373	1.407878	0.000166
1916	1.9054e+02	-3.7042	-82.934879	0.000476	4.763476	1.613909	0.000191
1917	1.9064e+02	-3.6577	-82.833951	0.000253	2.533764	0.858462	0.000101
1918	1.9074e+02	-3.6272	-82.652280	0.000456	4.560775	1.545232	0.000183
1919	1.9084e+02	-3.5935	-82.506943	0.000365	3.648620	1.236186	0.000146
1920	1.9094e+02	-3.5405	-82.301049	0.000517	5.168878	1.751263	0.000207
1921	1.9104e+02	-3.5036	-82.159749	0.000355	3.547269	1.201847	0.000142
1922	1.9114e+02	-3.4667	-81.982115	0.000446	4.459424	1.510894	0.000179
1923	1.9124e+02	-3.4186	-81.816593	0.000416	4.155373	1.407878	0.000166
1924	1.9134e+02	-3.3769	-81.550142	0.000669	6.689136	2.266341	0.000268
1925	1.9144e+02	-3.3416	-81.384619	0.000416	4.155373	1.407878	0.000166
1926	1.9154e+02	-3.3095	-81.259468	0.000314	3.141867	1.064493	0.000126
1927	1.9164e+02	-3.2742	-81.049537	0.000527	5.270229	1.785602	0.000211
1928	1.9174e+02	-3.2277	-80.863829	0.000466	4.662125	1.579571	0.000187
1929	1.9184e+02	-3.1924	-80.690232	0.000436	4.358074	1.476555	0.000174
1930	1.9194e+02	-3.1507	-80.504524	0.000466	4.662125	1.579571	0.000187
1931	1.9203e+02	-3.1186	-80.330927	0.000436	4.358074	1.476555	0.000174
1932	1.9213e+02	-3.0577	-80.161367	0.000426	4.256723	1.442217	0.000170
1933	1.9223e+02	-3.0384	-79.995845	0.000416	4.155373	1.407878	0.000166
1934	1.9233e+02	-2.9935	-79.834359	0.000405	4.054022	1.373540	0.000162
1935	1.9243e+02	-2.9470	-79.717282	0.000294	2.939166	0.995816	0.000118
1936	1.9253e+02	-2.9101	-79.515425	0.000507	5.067527	1.716925	0.000203
1937	1.9263e+02	-2.8636	-79.305494	0.000527	5.270229	1.785602	0.000211
1938	1.9273e+02	-2.8202	-79.172269	0.000334	3.344568	1.133170	0.000134
1939	1.9283e+02	-2.7817	-79.043081	0.000324	3.243218	1.098832	0.000130
1940	1.9293e+02	-2.7481	-78.788741	0.000639	6.385085	2.163325	0.000256
1941	1.9303e+02	-2.7063	-78.607070	0.000456	4.560775	1.545232	0.000183
1942	1.9313e+02	-2.6694	-78.433473	0.000436	4.358074	1.476555	0.000174
1943	1.9323e+02	-2.6358	-78.247765	0.000466	4.662125	1.579571	0.000187
1944	1.9333e+02	-2.5892	-78.066094	0.000456	4.560775	1.545232	0.000183
1945	1.9343e+02	-2.5523	-77.856163	0.000527	5.270229	1.785602	0.000211
1946	1.9353e+02	-2.5122	-77.674492	0.000456	4.560775	1.545232	0.000183
1947	1.9363e+02	-2.4721	-77.504932	0.000426	4.256723	1.442217	0.000170
1948	1.9373e+02	-2.4288	-77.367669	0.000345	3.445919	1.167509	0.000138
1949	1.9383e+02	-2.3967	-77.222332	0.000365	3.648620	1.236186	0.000146
1950	1.9393e+02	-2.3470	-77.012401	0.000527	5.270229	1.785602	0.000211
1951	1.9403e+02	-2.3085	-76.826693	0.000466	4.662125	1.579571	0.000187
1952	1.9412e+02	-2.2748	-76.705579	0.000304	3.040516	1.030155	0.000122
1953	1.9422e+02	-2.2251	-76.540056	0.000416	4.155373	1.407878	0.000166
1954	1.9432e+02	-2.1882	-76.334163	0.000517	5.168878	1.751263	0.000207
1955	1.9442e+02	-2.1529	-76.196900	0.000345	3.445919	1.167509	0.000138
1956	1.9452e+02	-2.1192	-75.991006	0.000517	5.168878	1.751263	0.000207
1957	1.9462e+02	-2.0743	-75.793186	0.000497	4.966177	1.682586	0.000199
1958	1.9472e+02	-2.0261	-75.663998	0.000324	3.243218	1.098832	0.000130
1959	1.9482e+02	-1.9876	-75.445993	0.000547	5.472930	1.854279	0.000219
1960	1.9492e+02	-1.9540	-75.191653	0.000639	6.385085	2.163325	0.000256
1961	1.9502e+02	-1.9187	-75.030168	0.000405	4.054022	1.373540	0.000162
1962	1.9512e+02	-1.8737	-74.840422	0.000476	4.763476	1.613909	0.000191
1963	1.9522e+02	-1.8417	-74.618380	0.000557	5.574280	1.888617	0.000223
1964	1.9532e+02	-1.7887	-74.428634	0.000476	4.763476	1.613909	0.000191
1965	1.9542e+02	-1.7486	-74.339817	0.000223	2.229712	0.755447	0.000089
1966	1.9552e+02	-1.7133	-74.129886	0.000527	5.270229	1.785602	0.000211
1967	1.9562e+02	-1.6764	-73.948215	0.000456	4.560775	1.545232	0.000183
1968	1.9572e+02	-1.6363	-73.770581	0.000446	4.459424	1.510894	0.000179
1969	1.9582e+02	-1.5914	-73.584873	0.000466	4.662125	1.579571	0.000187
1970	1.9592e+02	-1.5513	-73.443573	0.000355	3.547269	1.201847	0.000142
1971	1.9601e+02	-1.5144	-73.274014	0.000426	4.256723	1.442217	0.000170
1972	1.9611e+02	-1.4695	-73.084268	0.000476	4.763476	1.613909	0.000191
1973	1.9621e+02	-1.4246	-72.918746	0.000416	4.155373	1.407878	0.000166
1974	1.9631e+02	-1.3909	-72.680555	0.000598	5.979682	2.025971	0.000239
1975	1.9641e+02	-1.3524	-72.494846	0.000466	4.662125	1.579571	0.000187
1976	1.9651e+02	-1.3107	-72.305101	0.000476	4.763476	1.613909	0.000191
1977	1.9661e+02	-1.2673	-72.163801	0.000355	3.547269	1.201847	0.000142
1978	1.9671e+02	-1.2369	-71.929647	0.000588	5.878332	1.991633	0.000235
1979	1.9681e+02	-1.1968	-71.739902	0.000476	4.763476	1.613909	0.000191
1980	1.9691e+02	-1.1567	-71.529971	0.000527	5.270229	1.785602	0.000211
1981	1.9701e+02	-1.1182	-71.372523	0.000395	3.952671	1.339201	0.000158
1982	1.9711e+02	-1.0732	-71.154517	0.000547	5.472930	1.854279	0.000219
1983	1.9721e+02	-1.0411	-70.920364	0.000588	5.878332	1.991633	0.000235
1984	1.9731e+02	-0.9946	-70.815398	0.000264	2.635114	0.892801	0.000105
1985	1.9741e+02	-0.9561	-70.605467	0.000527	5.270229	1.785602	0.000211
1986	1.9751e+02	-0.9048	-70.439944	0.000416	4.155373	1.407878	0.000166
1987	1.9761e+02	-0.8759	-70.286533	0.000385	3.851321	1.304863	0.000154
1988	1.9771e+02	-0.8390	-70.116973	0.000426	4.256723	1.442217	0.000170
1989	1.9781e+02	-0.7941	-69.870708	0.000618	6.182384	2.094648	0.000248
1990	1.9791e+02	-0.7524	-69.749594	0.000304	3.040516	1.030155	0.000122
1991	1.9800e+02	-0.7203	-69.539663	0.000527	5.270229	1.785602	0.000211
1992	1.9810e+02	-0.6738	-69.341843	0.000497	4.966177	1.682586	0.000199
1993	1.9820e+02	-0.6369	-69.152098	0.000476	4.763476	1.613909	0.000191
1994	1.9830e+02	-0.5984	-68.982538	0.000426	4.256723	1.442217	0.000170
1995	1.9840e+02	-0.5503	-68.764533	0.000547	5.472930	1.854279	0.000219
1996	1.9850e+02	-0.5214	-68.574788	0.000476	4.763476	1.613909	0.000191
1997	1.9860e+02	-0.4813	-68.352745	0.000557	5.574280	1.888617	0.000223
1998	1.9870e+02	-0.4412	-68.167037	0.000466	4.662125	1.579571	0.000187
1999	1.9880e+02	-0.3914	-67.953069	0.000537	5.371579	1.819940	0.000215
2000	1.9890e+02	-0.3658	-67.771398	0.000456	4.560775	1.545232	0.000183
2001	1.9900e+02	-0.3257	-67.561467	0.000527	5.270229	1.785602	0.000211
2002	1.9910e+02	-0.2695	-67.412093	0.000375	3.749970	1.270524	0.000150
2003	1.9920e+02	-0.2390	-67.238496	0.000436	4.358074	1.476555	0.000174
2004	1.9930e+02	-0.1957	-67.060862	0.000446	4.459424	1.510894	0.000179
2005	1.9940e+02	-0.1540	-66.871116	0.000476	4.763476	1.613909	0.000191
2006	1.9950e+02	-0.1107	-66.701557	0.000426	4.256723	1.442217	0.000170
2007	1.9960e+02	-0.0786	-66.515848	0.000466	4.662125	1.579571	0.000187
2008	1.9970e+02	-0.0385	-66.297843	0.000547	5.472930	1.854279	0.000219
2009	1.9980e+02	0.0032	-66.112135	0.000547	5.472930	1.854279	0.000187

Center data before PMax,+/-Pr and +/-Vc Calc.

PMax (uC/cm2):	1.26e+02
Pr (uC/cm2):	5.52e+01
-Pr (uC/cm2):	-6.61e+01
PLoss (uC/cm2):	-1.16e+02
-Vc:	-1.23e+01
C (Max-Eff) (nF):	6.28e-01
K (Eff):	2.13e+03
Vert. (+/-Pr) Shift (uC/cm2):	-5.47e+00
Offset (uC/cm2):	-4.97e+01

A (Loop Area - uC/cm2·Volts):	-8.26e-01



Hysteresis Version: 5.48.1 - Radiant Technologies, Inc., 1999 - 9/12/24

