»»»»»»»»»»»»»»»»»»»»»»»»»»»»»»»»»»»» Hysteresis ««««««««««««««««««««««««««««««««««««
»»»  Executed Version:	5.48.1
»»»  Vision Version:	5.48.4 (R)
»»»  Vision Compiled:	9/18/24
»»»  Driver Version:	5.47.0
»»»  Windows Version:	Windows 8 or 8.1
»»»  Processor Information:	x86 (AMD or Intel) - 32 Processors
»»»  Tester Name:	PMF21124-494 (100V)
»»»  Tester S/N:	PMF21124-494
»»»  Internal Amp Type:	100V RevK 270k
»»»  Internal Amp S/N:	iAB2-596/K     
»»»  Execution Count:	1
»»»»»»»»»»»»»»»»»»»»»»»»»»»»»»»»»»»»»»»»»»««««««««««««««««««««««««««««««««««««««««««

Stored:	6/13/2025 - 10:20:25
Configured:	06/13/25 10:12:58 AM
Executed:	06/13/25 10:19:49 AM

»»»»»»»»»»»»»»»»»»»»»»»»»»»»»»»»»»» Sample Info ««««««««««««««««««««««««««««««««««««
Sample Name:	
Lot Name:	
Wafer Name:	
Die Row/Column:	0/0
Capacitor Number:	0
Sample Area (cm2):	1.00e-04
Sample Thickness (microns):	3.00e-01

Amplifier:	Internal

»»»»»»»»»»»»»»»»»»»»»»»»»»»»»»»»»»» Tester Info «««««««««««««««««««««««««««««««««««
Tester Name:	PMF21124-494 (100V)
Tester Serial Number:	PMF21124-494
Return Signal Amp. Level:	0.19 [Index: 3]

»»»»»»»»»»»»»»»»»»»»»»»»»»»»»»»» Hysteresis Info ««««««««««««««««««««««««««««««««««
Task Name:	Hyst-1704
Volts:	20.00
Field:	666.67 (kV/cm)
DCBias:	0.00
DCField:	0.00 (kV/cm)
Hysteresis Period (ms):	2.00e+02
Preset:	Enabled
Preset Delay (ms):	1.00e+03
Profile:	Standard Bipolar

»»»»»»»»»»»»»»»»»»»»»»»»»»»»»»»»»»»»»» Data «««««««««««««««««««««««««««««««««««««««
Points:	2009

Valid Data

Point	Time (ms)	Drive Voltage	Measured Polarization (uC/cm2)	Capacitance (uF)	Normalized Capacitance (uF/cm2)	Dielectric Constant	Instantaneous Current (mA)
   1	0.0000e+00	-0.0209	0.268470	0.000324	3.241982	1.098413	0.000130
   2	9.9500e-02	0.0096	0.397658	0.000324	3.241982	1.098413	0.000130
   3	1.9900e-01	0.0594	0.547032	0.000375	3.748542	1.270040	0.000150
   4	2.9850e-01	0.0898	0.700443	0.000385	3.849854	1.304366	0.000154
   5	3.9800e-01	0.1364	0.853854	0.000385	3.849854	1.304366	0.000154
   6	4.9750e-01	0.1765	1.019377	0.000415	4.153790	1.407342	0.000166
   7	5.9700e-01	0.2150	1.148565	0.000324	3.241982	1.098413	0.000130
   8	6.9650e-01	0.2519	1.342348	0.000486	4.862973	1.647620	0.000195
   9	7.9600e-01	0.2888	1.499796	0.000395	3.951166	1.338691	0.000158
  10	8.9550e-01	0.3305	1.677430	0.000446	4.457725	1.510318	0.000179
  11	9.9500e-01	0.3642	1.810655	0.000334	3.343294	1.132739	0.000134
  12	1.0945e+00	0.4091	2.016549	0.000517	5.166909	1.750596	0.000207
  13	1.1940e+00	0.4556	2.141701	0.000314	3.140670	1.064088	0.000126
  14	1.2935e+00	0.4925	2.351632	0.000527	5.268221	1.784922	0.000211
  15	1.3930e+00	0.5278	2.472746	0.000304	3.039358	1.029762	0.000122
  16	1.4925e+00	0.5663	2.646342	0.000436	4.356414	1.475993	0.000174
  17	1.5920e+00	0.6144	2.807828	0.000405	4.052478	1.373017	0.000162
  18	1.6915e+00	0.6417	3.037945	0.000577	5.774781	1.956549	0.000231
  19	1.7910e+00	0.6978	3.163096	0.000314	3.140670	1.064088	0.000126
  20	1.8905e+00	0.7267	3.336693	0.000436	4.356414	1.475993	0.000174
  21	1.9900e+00	0.7668	3.506252	0.000426	4.255102	1.441667	0.000170
  22	2.0895e+00	0.8085	3.675812	0.000426	4.255102	1.441667	0.000170
  23	2.1890e+00	0.8470	3.845372	0.000426	4.255102	1.441667	0.000170
  24	2.2885e+00	0.8855	3.946300	0.000253	2.532799	0.858135	0.000101
  25	2.3880e+00	0.9224	4.156231	0.000527	5.268221	1.784922	0.000211
  26	2.4875e+00	0.9674	4.337902	0.000456	4.559037	1.544644	0.000183
  27	2.5870e+00	1.0042	4.539759	0.000507	5.065597	1.716271	0.000203
  28	2.6865e+00	1.0411	4.672985	0.000334	3.343294	1.132739	0.000134
  29	2.7860e+00	1.0909	4.838507	0.000415	4.153790	1.407342	0.000166
  30	2.8855e+00	1.1278	5.044401	0.000517	5.166909	1.750596	0.000207
  31	2.9850e+00	1.1647	5.230109	0.000466	4.660349	1.578969	0.000187
  32	3.0845e+00	1.2016	5.379483	0.000375	3.748542	1.270040	0.000150
  33	3.1840e+00	1.2561	5.565192	0.000466	4.660349	1.578969	0.000187
  34	3.2835e+00	1.2786	5.706491	0.000355	3.545918	1.201390	0.000142
  35	3.3830e+00	1.3187	5.892200	0.000466	4.660349	1.578969	0.000187
  36	3.4825e+00	1.3700	6.061759	0.000426	4.255102	1.441667	0.000170
  37	3.5820e+00	1.4149	6.239393	0.000446	4.457725	1.510318	0.000179
  38	3.6815e+00	1.4470	6.445287	0.000517	5.166909	1.750596	0.000207
  39	3.7810e+00	1.4935	6.590624	0.000365	3.647230	1.235715	0.000146
  40	3.8805e+00	1.5256	6.764221	0.000436	4.356414	1.475993	0.000174
  41	3.9800e+00	1.5705	6.933781	0.000426	4.255102	1.441667	0.000170
  42	4.0795e+00	1.6042	7.139675	0.000517	5.166909	1.750596	0.000207
  43	4.1790e+00	1.6540	7.285011	0.000365	3.647230	1.235715	0.000146
  44	4.2785e+00	1.6828	7.438423	0.000385	3.849854	1.304366	0.000154
  45	4.3780e+00	1.7181	7.628168	0.000476	4.761661	1.613295	0.000191
  46	4.4775e+00	1.7679	7.793691	0.000415	4.153790	1.407342	0.000166
  47	4.5770e+00	1.8096	7.967287	0.000436	4.356414	1.475993	0.000174
  48	4.6765e+00	1.8417	8.169144	0.000507	5.065597	1.716271	0.000203
  49	4.7760e+00	1.8914	8.358890	0.000476	4.761661	1.613295	0.000191
  50	4.8755e+00	1.9187	8.504226	0.000365	3.647230	1.235715	0.000146
  51	4.9750e+00	1.9700	8.681860	0.000446	4.457725	1.510318	0.000179
  52	5.0745e+00	2.0085	8.867569	0.000466	4.660349	1.578969	0.000187
  53	5.1740e+00	2.0438	9.025017	0.000395	3.951166	1.338691	0.000158
  54	5.2735e+00	2.0855	9.210725	0.000466	4.660349	1.578969	0.000187
  55	5.3730e+00	2.1256	9.400471	0.000476	4.761661	1.613295	0.000191
  56	5.4725e+00	2.1609	9.553882	0.000385	3.849854	1.304366	0.000154
  57	5.5720e+00	2.2058	9.751701	0.000496	4.964285	1.681945	0.000199
  58	5.6715e+00	2.2491	9.909150	0.000395	3.951166	1.338691	0.000158
  59	5.7710e+00	2.2796	10.119081	0.000527	5.268221	1.784922	0.000211
  60	5.8705e+00	2.3245	10.288640	0.000426	4.255102	1.441667	0.000170
  61	5.9700e+00	2.3662	10.450126	0.000405	4.052478	1.373017	0.000162
  62	6.0695e+00	2.4063	10.631797	0.000456	4.559037	1.544644	0.000183
  63	6.1690e+00	2.4497	10.813468	0.000456	4.559037	1.544644	0.000183
  64	6.2685e+00	2.4898	10.970916	0.000395	3.951166	1.338691	0.000158
  65	6.3680e+00	2.5235	11.140476	0.000426	4.255102	1.441667	0.000170
  66	6.4675e+00	2.5668	11.338296	0.000496	4.964285	1.681945	0.000199
  67	6.5670e+00	2.6085	11.515930	0.000446	4.457725	1.510318	0.000179
  68	6.6665e+00	2.6486	11.705675	0.000476	4.761661	1.613295	0.000191
  69	6.7660e+00	2.6871	11.851012	0.000365	3.647230	1.235715	0.000146
  70	6.8655e+00	2.7272	12.073054	0.000557	5.572157	1.887898	0.000223
  71	6.9650e+00	2.7609	12.238577	0.000415	4.153790	1.407342	0.000166
  72	7.0645e+00	2.8042	12.363728	0.000314	3.140670	1.064088	0.000126
  73	7.1640e+00	2.8443	12.601919	0.000598	5.977405	2.025199	0.000239
  74	7.2635e+00	2.8796	12.767442	0.000415	4.153790	1.407342	0.000166
  75	7.3630e+00	2.9117	12.953150	0.000466	4.660349	1.578969	0.000187
  76	7.4625e+00	2.9646	13.122710	0.000426	4.255102	1.441667	0.000170
  77	7.5620e+00	3.0079	13.308418	0.000466	4.660349	1.578969	0.000187
  78	7.6615e+00	3.0496	13.465866	0.000395	3.951166	1.338691	0.000158
  79	7.7610e+00	3.0817	13.655612	0.000476	4.761661	1.613295	0.000191
  80	7.8605e+00	3.1250	13.853431	0.000496	4.964285	1.681945	0.000199
  81	7.9600e+00	3.1603	14.010880	0.000395	3.951166	1.338691	0.000158
  82	8.0595e+00	3.2085	14.176402	0.000415	4.153790	1.407342	0.000166
  83	8.1590e+00	3.2486	14.358073	0.000456	4.559037	1.544644	0.000183
  84	8.2585e+00	3.2694	14.535707	0.000446	4.457725	1.510318	0.000179
  85	8.3580e+00	3.3256	14.709304	0.000436	4.356414	1.475993	0.000174
  86	8.4575e+00	3.3577	14.895012	0.000466	4.660349	1.578969	0.000187
  87	8.5570e+00	3.4122	15.044386	0.000375	3.748542	1.270040	0.000150
  88	8.6565e+00	3.4491	15.209909	0.000415	4.153790	1.407342	0.000166
  89	8.7560e+00	3.4796	15.448100	0.000598	5.977405	2.025199	0.000239
  90	8.8555e+00	3.5069	15.589400	0.000355	3.545918	1.201390	0.000142
  91	8.9550e+00	3.5598	15.754922	0.000415	4.153790	1.407342	0.000166
  92	9.0545e+00	3.5935	15.916408	0.000405	4.052478	1.373017	0.000162
  93	9.1540e+00	3.6464	16.134413	0.000547	5.470845	1.853572	0.000219
  94	9.2535e+00	3.6801	16.320121	0.000466	4.660349	1.578969	0.000187
  95	9.3530e+00	3.7170	16.501792	0.000456	4.559037	1.544644	0.000183
  96	9.4525e+00	3.7635	16.639055	0.000344	3.444606	1.167064	0.000138
  97	9.5520e+00	3.7972	16.820726	0.000456	4.559037	1.544644	0.000183
  98	9.6515e+00	3.8405	16.994323	0.000436	4.356414	1.475993	0.000174
  99	9.7510e+00	3.8774	17.196180	0.000507	5.065597	1.716271	0.000203
 100	9.8505e+00	3.9111	17.357665	0.000405	4.052478	1.373017	0.000162
 101	9.9500e+00	3.9528	17.539336	0.000456	4.559037	1.544644	0.000183
 102	1.0050e+01	4.0010	17.684673	0.000365	3.647230	1.235715	0.000146
 103	1.0149e+01	4.0346	17.854233	0.000426	4.255102	1.441667	0.000170
 104	1.0248e+01	4.0764	18.080312	0.000567	5.673469	1.922223	0.000227
 105	1.0348e+01	4.1165	18.237761	0.000395	3.951166	1.338691	0.000158
 106	1.0447e+01	4.1518	18.411358	0.000436	4.356414	1.475993	0.000174
 107	1.0547e+01	4.1967	18.609177	0.000496	4.964285	1.681945	0.000199
 108	1.0646e+01	4.2352	18.794885	0.000466	4.660349	1.578969	0.000187
 109	1.0746e+01	4.2817	18.928111	0.000334	3.343294	1.132739	0.000134
 110	1.0845e+01	4.3154	19.142079	0.000537	5.369533	1.819247	0.000215
 111	1.0945e+01	4.3603	19.291453	0.000375	3.748542	1.270040	0.000150
 112	1.1044e+01	4.4020	19.428716	0.000344	3.444606	1.167064	0.000138
 113	1.1144e+01	4.4405	19.630573	0.000507	5.065597	1.716271	0.000203
 114	1.1243e+01	4.4678	19.800132	0.000426	4.255102	1.441667	0.000170
 115	1.1343e+01	4.5143	19.973729	0.000436	4.356414	1.475993	0.000174
 116	1.1443e+01	4.5608	20.151363	0.000446	4.457725	1.510318	0.000179
 117	1.1542e+01	4.5865	20.324960	0.000436	4.356414	1.475993	0.000174
 118	1.1642e+01	4.6378	20.526817	0.000507	5.065597	1.716271	0.000203
 119	1.1741e+01	4.6795	20.684265	0.000395	3.951166	1.338691	0.000158
 120	1.1841e+01	4.7084	20.845750	0.000405	4.052478	1.373017	0.000162
 121	1.1940e+01	4.7614	20.991087	0.000365	3.647230	1.235715	0.000146
 122	1.2040e+01	4.7902	21.160647	0.000426	4.255102	1.441667	0.000170
 123	1.2139e+01	4.8287	21.362504	0.000507	5.065597	1.716271	0.000203
 124	1.2239e+01	4.8737	21.511878	0.000375	3.748542	1.270040	0.000150
 125	1.2338e+01	4.9138	21.669326	0.000395	3.951166	1.338691	0.000158
 126	1.2438e+01	4.9587	21.838886	0.000426	4.255102	1.441667	0.000170
 127	1.2537e+01	4.9956	22.060928	0.000557	5.572157	1.887898	0.000223
 128	1.2636e+01	5.0421	22.214339	0.000385	3.849854	1.304366	0.000154
 129	1.2736e+01	5.0790	22.379862	0.000415	4.153790	1.407342	0.000166
 130	1.2835e+01	5.1111	22.569607	0.000476	4.761661	1.613295	0.000191
 131	1.2935e+01	5.1544	22.690721	0.000304	3.039358	1.029762	0.000122
 132	1.3034e+01	5.1913	22.892578	0.000507	5.065597	1.716271	0.000203
 133	1.3134e+01	5.2394	23.054064	0.000405	4.052478	1.373017	0.000162
 134	1.3233e+01	5.2779	23.215549	0.000405	4.052478	1.373017	0.000162
 135	1.3333e+01	5.3148	23.372997	0.000395	3.951166	1.338691	0.000158
 136	1.3432e+01	5.3533	23.542557	0.000426	4.255102	1.441667	0.000170
 137	1.3532e+01	5.3950	23.712117	0.000426	4.255102	1.441667	0.000170
 138	1.3632e+01	5.4400	23.861491	0.000375	3.748542	1.270040	0.000150
 139	1.3731e+01	5.4769	24.031050	0.000426	4.255102	1.441667	0.000170
 140	1.3831e+01	5.5154	24.176387	0.000365	3.647230	1.235715	0.000146
 141	1.3930e+01	5.5522	24.382281	0.000517	5.166909	1.750596	0.000207
 142	1.4030e+01	5.5924	24.572027	0.000476	4.761661	1.613295	0.000191
 143	1.4129e+01	5.6325	24.705252	0.000334	3.343294	1.132739	0.000134
 144	1.4229e+01	5.6710	24.899035	0.000486	4.862973	1.647620	0.000195
 145	1.4328e+01	5.7143	25.032260	0.000334	3.343294	1.132739	0.000134
 146	1.4428e+01	5.7512	25.193746	0.000405	4.052478	1.373017	0.000162
 147	1.4527e+01	5.7881	25.391565	0.000496	4.964285	1.681945	0.000199
 148	1.4627e+01	5.8266	25.516716	0.000314	3.140670	1.064088	0.000126
 149	1.4726e+01	5.8859	25.702425	0.000466	4.660349	1.578969	0.000187
 150	1.4825e+01	5.9100	25.876022	0.000436	4.356414	1.475993	0.000174
 151	1.4925e+01	5.9549	26.041544	0.000415	4.153790	1.407342	0.000166
 152	1.5024e+01	5.9934	26.166695	0.000314	3.140670	1.064088	0.000126
 153	1.5124e+01	6.0335	26.372589	0.000517	5.166909	1.750596	0.000207
 154	1.5223e+01	6.0752	26.521963	0.000375	3.748542	1.270040	0.000150
 155	1.5323e+01	6.1121	26.687486	0.000415	4.153790	1.407342	0.000166
 156	1.5422e+01	6.1570	26.836860	0.000375	3.748542	1.270040	0.000150
 157	1.5522e+01	6.1907	26.990271	0.000385	3.849854	1.304366	0.000154
 158	1.5621e+01	6.2324	27.159831	0.000426	4.255102	1.441667	0.000170
 159	1.5721e+01	6.2790	27.353613	0.000486	4.862973	1.647620	0.000195
 160	1.5820e+01	6.3094	27.458579	0.000263	2.634110	0.892461	0.000105
 161	1.5920e+01	6.3576	27.652361	0.000486	4.862973	1.647620	0.000195
 162	1.6020e+01	6.3977	27.834032	0.000456	4.559037	1.544644	0.000183
 163	1.6119e+01	6.4201	27.963221	0.000324	3.241982	1.098413	0.000130
 164	1.6218e+01	6.4635	28.112595	0.000375	3.748542	1.270040	0.000150
 165	1.6318e+01	6.5020	28.290229	0.000446	4.457725	1.510318	0.000179
 166	1.6418e+01	6.5533	28.479974	0.000476	4.761661	1.613295	0.000191
 167	1.6517e+01	6.5838	28.609162	0.000324	3.241982	1.098413	0.000130
 168	1.6616e+01	6.6319	28.770648	0.000405	4.052478	1.373017	0.000162
 169	1.6716e+01	6.6624	28.936170	0.000415	4.153790	1.407342	0.000166
 170	1.6816e+01	6.7153	29.101693	0.000415	4.153790	1.407342	0.000166
 171	1.6915e+01	6.7394	29.263178	0.000405	4.052478	1.373017	0.000162
 172	1.7015e+01	6.7891	29.420627	0.000395	3.951166	1.338691	0.000158
 173	1.7114e+01	6.8196	29.565964	0.000365	3.647230	1.235715	0.000146
 174	1.7213e+01	6.8725	29.743598	0.000446	4.457725	1.510318	0.000179
 175	1.7313e+01	6.9158	29.880860	0.000344	3.444606	1.167064	0.000138
 176	1.7413e+01	6.9479	30.058494	0.000446	4.457725	1.510318	0.000179
 177	1.7512e+01	6.9896	30.195757	0.000344	3.444606	1.167064	0.000138
 178	1.7611e+01	7.0201	30.361279	0.000415	4.153790	1.407342	0.000166
 179	1.7711e+01	7.0682	30.522765	0.000405	4.052478	1.373017	0.000162
 180	1.7811e+01	7.1084	30.704436	0.000456	4.559037	1.544644	0.000183
 181	1.7910e+01	7.1436	30.837661	0.000334	3.343294	1.132739	0.000134
 182	1.8009e+01	7.1789	30.954738	0.000294	2.938046	0.995437	0.000118
 183	1.8109e+01	7.2142	31.156595	0.000507	5.065597	1.716271	0.000203
 184	1.8209e+01	7.2672	31.301932	0.000365	3.647230	1.235715	0.000146
 185	1.8308e+01	7.3009	31.475529	0.000436	4.356414	1.475993	0.000174
 186	1.8407e+01	7.3458	31.624903	0.000375	3.748542	1.270040	0.000150
 187	1.8507e+01	7.3779	31.762165	0.000344	3.444606	1.167064	0.000138
 188	1.8607e+01	7.4228	31.923651	0.000405	4.052478	1.373017	0.000162
 189	1.8706e+01	7.4613	32.081099	0.000395	3.951166	1.338691	0.000158
 190	1.8805e+01	7.5046	32.222399	0.000355	3.545918	1.201390	0.000142
 191	1.8905e+01	7.5495	32.359662	0.000344	3.444606	1.167064	0.000138
 192	1.9005e+01	7.5768	32.553444	0.000486	4.862973	1.647620	0.000195
 193	1.9104e+01	7.6185	32.694744	0.000355	3.545918	1.201390	0.000142
 194	1.9203e+01	7.6650	32.848155	0.000385	3.849854	1.304366	0.000154
 195	1.9303e+01	7.7067	32.993492	0.000365	3.647230	1.235715	0.000146
 196	1.9402e+01	7.7436	33.167089	0.000436	4.356414	1.475993	0.000174
 197	1.9502e+01	7.7902	33.348760	0.000456	4.559037	1.544644	0.000183
 198	1.9602e+01	7.8206	33.469874	0.000304	3.039358	1.029762	0.000122
 199	1.9701e+01	7.8672	33.639434	0.000426	4.255102	1.441667	0.000170
 200	1.9800e+01	7.9073	33.764585	0.000314	3.140670	1.064088	0.000126
 201	1.9900e+01	7.9361	33.958367	0.000486	4.862973	1.647620	0.000195
 202	2.0000e+01	7.9746	34.148113	0.000476	4.761661	1.613295	0.000191
 203	2.0099e+01	8.0212	34.273264	0.000314	3.140670	1.064088	0.000126
 204	2.0198e+01	8.0597	34.390341	0.000294	2.938046	0.995437	0.000118
 205	2.0298e+01	8.0982	34.572012	0.000456	4.559037	1.544644	0.000183
 206	2.0398e+01	8.1335	34.693126	0.000304	3.039358	1.029762	0.000122
 207	2.0497e+01	8.1800	34.931317	0.000598	5.977405	2.025199	0.000239
 208	2.0596e+01	8.2137	35.016097	0.000213	2.127551	0.720834	0.000085
 209	2.0696e+01	8.2682	35.201805	0.000466	4.660349	1.578969	0.000187
 210	2.0796e+01	8.3019	35.330993	0.000324	3.241982	1.098413	0.000130
 211	2.0895e+01	8.3500	35.448070	0.000294	2.938046	0.995437	0.000118
 212	2.0994e+01	8.3901	35.621667	0.000436	4.356414	1.475993	0.000174
 213	2.1094e+01	8.4270	35.783153	0.000405	4.052478	1.373017	0.000162
 214	2.1194e+01	8.4687	35.960787	0.000446	4.457725	1.510318	0.000179
 215	2.1293e+01	8.4992	36.081901	0.000304	3.039358	1.029762	0.000122
 216	2.1392e+01	8.5361	36.255497	0.000436	4.356414	1.475993	0.000174
 217	2.1492e+01	8.5810	36.360463	0.000263	2.634110	0.892461	0.000105
 218	2.1591e+01	8.6195	36.578468	0.000547	5.470845	1.853572	0.000219
 219	2.1691e+01	8.6580	36.739954	0.000405	4.052478	1.373017	0.000162
 220	2.1791e+01	8.7046	36.881254	0.000355	3.545918	1.201390	0.000142
 221	2.1890e+01	8.7318	37.026590	0.000365	3.647230	1.235715	0.000146
 222	2.1989e+01	8.7784	37.196150	0.000426	4.255102	1.441667	0.000170
 223	2.2089e+01	8.8169	37.349561	0.000385	3.849854	1.304366	0.000154
 224	2.2189e+01	8.8634	37.490861	0.000355	3.545918	1.201390	0.000142
 225	2.2288e+01	8.9003	37.672532	0.000456	4.559037	1.544644	0.000183
 226	2.2387e+01	8.9436	37.777498	0.000263	2.634110	0.892461	0.000105
 227	2.2487e+01	8.9885	37.926872	0.000375	3.748542	1.270040	0.000150
 228	2.2587e+01	9.0142	38.072209	0.000365	3.647230	1.235715	0.000146
 229	2.2686e+01	9.0575	38.221583	0.000375	3.748542	1.270040	0.000150
 230	2.2785e+01	9.0992	38.419402	0.000496	4.964285	1.681945	0.000199
 231	2.2885e+01	9.1409	38.544553	0.000314	3.140670	1.064088	0.000126
 232	2.2985e+01	9.1778	38.706039	0.000405	4.052478	1.373017	0.000162
 233	2.3084e+01	9.2211	38.835227	0.000324	3.241982	1.098413	0.000130
 234	2.3183e+01	9.2564	39.029010	0.000486	4.862973	1.647620	0.000195
 235	2.3283e+01	9.2949	39.174347	0.000365	3.647230	1.235715	0.000146
 236	2.3383e+01	9.3414	39.295461	0.000304	3.039358	1.029762	0.000122
 237	2.3482e+01	9.3816	39.529615	0.000588	5.876093	1.990874	0.000235
 238	2.3581e+01	9.4217	39.622469	0.000233	2.330175	0.789485	0.000093
 239	2.3681e+01	9.4650	39.792028	0.000426	4.255102	1.441667	0.000170
 240	2.3780e+01	9.4906	39.945440	0.000385	3.849854	1.304366	0.000154
 241	2.3880e+01	9.5275	40.106925	0.000405	4.052478	1.373017	0.000162
 242	2.3980e+01	9.5725	40.256299	0.000375	3.748542	1.270040	0.000150
 243	2.4079e+01	9.6126	40.417784	0.000405	4.052478	1.373017	0.000162
 244	2.4178e+01	9.6575	40.542936	0.000314	3.140670	1.064088	0.000126
 245	2.4278e+01	9.6896	40.676161	0.000334	3.343294	1.132739	0.000134
 246	2.4378e+01	9.7329	40.849758	0.000436	4.356414	1.475993	0.000174
 247	2.4477e+01	9.7730	40.991058	0.000355	3.545918	1.201390	0.000142
 248	2.4576e+01	9.8227	41.160617	0.000426	4.255102	1.441667	0.000170
 249	2.4676e+01	9.8532	41.277694	0.000294	2.938046	0.995437	0.000118
 250	2.4776e+01	9.8949	41.467440	0.000476	4.761661	1.613295	0.000191
 251	2.4875e+01	9.9350	41.612777	0.000365	3.647230	1.235715	0.000146
 252	2.4974e+01	9.9719	41.729854	0.000294	2.938046	0.995437	0.000118
 253	2.5074e+01	10.0104	41.891339	0.000405	4.052478	1.373017	0.000162
 254	2.5174e+01	10.0553	42.052824	0.000405	4.052478	1.373017	0.000162
 255	2.5273e+01	10.0906	42.177976	0.000314	3.140670	1.064088	0.000126
 256	2.5372e+01	10.1436	42.335424	0.000395	3.951166	1.338691	0.000158
 257	2.5472e+01	10.1773	42.504984	0.000426	4.255102	1.441667	0.000170
 258	2.5572e+01	10.2142	42.646283	0.000355	3.545918	1.201390	0.000142
 259	2.5671e+01	10.2543	42.787583	0.000355	3.545918	1.201390	0.000142
 260	2.5770e+01	10.2944	42.973291	0.000466	4.660349	1.578969	0.000187
 261	2.5870e+01	10.3377	43.102480	0.000324	3.241982	1.098413	0.000130
 262	2.5970e+01	10.3682	43.231668	0.000324	3.241982	1.098413	0.000130
 263	2.6069e+01	10.4099	43.401228	0.000426	4.255102	1.441667	0.000170
 264	2.6169e+01	10.4596	43.562713	0.000405	4.052478	1.373017	0.000162
 265	2.6268e+01	10.4853	43.691902	0.000324	3.241982	1.098413	0.000130
 266	2.6367e+01	10.5254	43.853387	0.000405	4.052478	1.373017	0.000162
 267	2.6467e+01	10.5719	44.026984	0.000436	4.356414	1.475993	0.000174
 268	2.6567e+01	10.6104	44.180395	0.000385	3.849854	1.304366	0.000154
 269	2.6666e+01	10.6553	44.325732	0.000365	3.647230	1.235715	0.000146
 270	2.6765e+01	10.6954	44.450883	0.000314	3.140670	1.064088	0.000126
 271	2.6865e+01	10.7291	44.588146	0.000344	3.444606	1.167064	0.000138
 272	2.6965e+01	10.7740	44.790002	0.000507	5.065597	1.716271	0.000203
 273	2.7064e+01	10.8157	44.894968	0.000263	2.634110	0.892461	0.000105
 274	2.7163e+01	10.8558	45.068565	0.000436	4.356414	1.475993	0.000174
 275	2.7263e+01	10.8927	45.197753	0.000324	3.241982	1.098413	0.000130
 276	2.7363e+01	10.9377	45.347127	0.000375	3.748542	1.270040	0.000150
 277	2.7462e+01	10.9617	45.532835	0.000466	4.660349	1.578969	0.000187
 278	2.7561e+01	11.0147	45.657987	0.000314	3.140670	1.064088	0.000126
 279	2.7661e+01	11.0516	45.799286	0.000355	3.545918	1.201390	0.000142
 280	2.7761e+01	11.0949	45.989032	0.000476	4.761661	1.613295	0.000191
 281	2.7860e+01	11.1366	46.093997	0.000263	2.634110	0.892461	0.000105
 282	2.7959e+01	11.1719	46.275668	0.000456	4.559037	1.544644	0.000183
 283	2.8059e+01	11.2056	46.392745	0.000294	2.938046	0.995437	0.000118
 284	2.8159e+01	11.2505	46.570379	0.000446	4.457725	1.510318	0.000179
 285	2.8258e+01	11.2874	46.659196	0.000223	2.228863	0.755159	0.000089
 286	2.8358e+01	11.3323	46.820682	0.000405	4.052478	1.373017	0.000162
 287	2.8457e+01	11.3724	46.966019	0.000365	3.647230	1.235715	0.000146
 288	2.8556e+01	11.4157	47.131541	0.000415	4.153790	1.407342	0.000166
 289	2.8656e+01	11.4542	47.280915	0.000375	3.748542	1.270040	0.000150
 290	2.8756e+01	11.4975	47.422215	0.000355	3.545918	1.201390	0.000142
 291	2.8855e+01	11.5360	47.591775	0.000426	4.255102	1.441667	0.000170
 292	2.8954e+01	11.5649	47.725000	0.000334	3.343294	1.132739	0.000134
 293	2.9054e+01	11.6018	47.882448	0.000395	3.951166	1.338691	0.000158
 294	2.9154e+01	11.6515	47.999525	0.000294	2.938046	0.995437	0.000118
 295	2.9253e+01	11.6836	48.161011	0.000405	4.052478	1.373017	0.000162
 296	2.9352e+01	11.7302	48.290199	0.000324	3.241982	1.098413	0.000130
 297	2.9452e+01	11.7638	48.431499	0.000355	3.545918	1.201390	0.000142
 298	2.9552e+01	11.8055	48.588947	0.000395	3.951166	1.338691	0.000158
 299	2.9651e+01	11.8424	48.730247	0.000355	3.545918	1.201390	0.000142
 300	2.9750e+01	11.8938	48.847324	0.000294	2.938046	0.995437	0.000118
 301	2.9850e+01	11.9323	48.984586	0.000344	3.444606	1.167064	0.000138
 302	2.9950e+01	11.9676	49.146072	0.000405	4.052478	1.373017	0.000162
 303	3.0049e+01	12.0093	49.259112	0.000284	2.836734	0.961112	0.000114
 304	3.0148e+01	12.0430	49.400411	0.000355	3.545918	1.201390	0.000142
 305	3.0248e+01	12.0927	49.557860	0.000395	3.951166	1.338691	0.000158
 306	3.0348e+01	12.1312	49.703197	0.000365	3.647230	1.235715	0.000146
 307	3.0447e+01	12.1793	49.864682	0.000405	4.052478	1.373017	0.000162
 308	3.0547e+01	12.2018	50.010019	0.000365	3.647230	1.235715	0.000146
 309	3.0646e+01	12.2403	50.151319	0.000355	3.545918	1.201390	0.000142
 310	3.0745e+01	12.2900	50.284544	0.000334	3.343294	1.132739	0.000134
 311	3.0845e+01	12.3349	50.441992	0.000395	3.951166	1.338691	0.000158
 312	3.0945e+01	12.3734	50.538884	0.000243	2.431487	0.823810	0.000097
 313	3.1044e+01	12.4039	50.680183	0.000355	3.545918	1.201390	0.000142
 314	3.1143e+01	12.4601	50.869929	0.000476	4.761661	1.613295	0.000191
 315	3.1243e+01	12.4857	50.958746	0.000223	2.228863	0.755159	0.000089
 316	3.1343e+01	12.5291	51.100046	0.000355	3.545918	1.201390	0.000142
 317	3.1442e+01	12.5676	51.261531	0.000405	4.052478	1.373017	0.000162
 318	3.1541e+01	12.6045	51.370534	0.000274	2.735422	0.926786	0.000110
 319	3.1641e+01	12.6430	51.503759	0.000334	3.343294	1.132739	0.000134
 320	3.1741e+01	12.6863	51.657170	0.000385	3.849854	1.304366	0.000154
 321	3.1840e+01	12.7200	51.794433	0.000344	3.444606	1.167064	0.000138
 322	3.1939e+01	12.7665	51.923621	0.000324	3.241982	1.098413	0.000130
 323	3.2039e+01	12.8130	52.077032	0.000385	3.849854	1.304366	0.000154
 324	3.2139e+01	12.8435	52.198147	0.000304	3.039358	1.029762	0.000122
 325	3.2238e+01	12.8836	52.383855	0.000466	4.660349	1.578969	0.000187
 326	3.2337e+01	12.9221	52.496895	0.000284	2.836734	0.961112	0.000114
 327	3.2437e+01	12.9670	52.622046	0.000314	3.140670	1.064088	0.000126
 328	3.2536e+01	13.0023	52.727011	0.000263	2.634110	0.892461	0.000105
 329	3.2636e+01	13.0376	52.892534	0.000415	4.153790	1.407342	0.000166
 330	3.2736e+01	13.0841	53.013648	0.000304	3.039358	1.029762	0.000122
 331	3.2835e+01	13.1146	53.163022	0.000375	3.748542	1.270040	0.000150
 332	3.2934e+01	13.1643	53.300285	0.000344	3.444606	1.167064	0.000138
 333	3.3034e+01	13.1948	53.445621	0.000365	3.647230	1.235715	0.000146
 334	3.3133e+01	13.2478	53.574810	0.000324	3.241982	1.098413	0.000130
 335	3.3233e+01	13.2798	53.675738	0.000253	2.532799	0.858135	0.000101
 336	3.3333e+01	13.3183	53.841261	0.000415	4.153790	1.407342	0.000166
 337	3.3432e+01	13.3665	53.982561	0.000355	3.545918	1.201390	0.000142
 338	3.3532e+01	13.4034	54.091563	0.000274	2.735422	0.926786	0.000110
 339	3.3631e+01	13.4483	54.244974	0.000385	3.849854	1.304366	0.000154
 340	3.3730e+01	13.4788	54.349940	0.000263	2.634110	0.892461	0.000105
 341	3.3830e+01	13.5317	54.515462	0.000415	4.153790	1.407342	0.000166
 342	3.3929e+01	13.5510	54.676948	0.000405	4.052478	1.373017	0.000162
 343	3.4029e+01	13.5943	54.781913	0.000263	2.634110	0.892461	0.000105
 344	3.4129e+01	13.6392	54.955510	0.000436	4.356414	1.475993	0.000174
 345	3.4228e+01	13.6729	55.048364	0.000233	2.330175	0.789485	0.000093
 346	3.4328e+01	13.7178	55.221961	0.000436	4.356414	1.475993	0.000174
 347	3.4427e+01	13.7579	55.326927	0.000263	2.634110	0.892461	0.000105
 348	3.4526e+01	13.8044	55.472264	0.000365	3.647230	1.235715	0.000146
 349	3.4626e+01	13.8317	55.565118	0.000233	2.330175	0.789485	0.000093
 350	3.4725e+01	13.8750	55.734677	0.000426	4.255102	1.441667	0.000170
 351	3.4825e+01	13.9183	55.859829	0.000314	3.140670	1.064088	0.000126
 352	3.4925e+01	13.9681	55.976906	0.000294	2.938046	0.995437	0.000118
 353	3.5024e+01	13.9969	56.134354	0.000395	3.951166	1.338691	0.000158
 354	3.5123e+01	14.0386	56.235282	0.000253	2.532799	0.858135	0.000101
 355	3.5223e+01	14.0836	56.356396	0.000304	3.039358	1.029762	0.000122
 356	3.5322e+01	14.1156	56.509807	0.000385	3.849854	1.304366	0.000154
 357	3.5422e+01	14.1493	56.659182	0.000375	3.748542	1.270040	0.000150
 358	3.5522e+01	14.1975	56.780296	0.000304	3.039358	1.029762	0.000122
 359	3.5621e+01	14.2408	56.917558	0.000344	3.444606	1.167064	0.000138
 360	3.5721e+01	14.2745	57.018487	0.000253	2.532799	0.858135	0.000101
 361	3.5820e+01	14.3162	57.163823	0.000365	3.647230	1.235715	0.000146
 362	3.5919e+01	14.3563	57.280900	0.000294	2.938046	0.995437	0.000118
 363	3.6019e+01	14.4028	57.414126	0.000334	3.343294	1.132739	0.000134
 364	3.6118e+01	14.4349	57.555426	0.000355	3.545918	1.201390	0.000142
 365	3.6218e+01	14.4718	57.672503	0.000294	2.938046	0.995437	0.000118
 366	3.6318e+01	14.5199	57.805728	0.000334	3.343294	1.132739	0.000134
 367	3.6417e+01	14.5584	57.959139	0.000385	3.849854	1.304366	0.000154
 368	3.6517e+01	14.5857	58.092365	0.000334	3.343294	1.132739	0.000134
 369	3.6616e+01	14.6370	58.237702	0.000365	3.647230	1.235715	0.000146
 370	3.6715e+01	14.6723	58.330556	0.000233	2.330175	0.789485	0.000093
 371	3.6815e+01	14.7188	58.520301	0.000476	4.761661	1.613295	0.000191
 372	3.6914e+01	14.7525	58.592970	0.000182	1.823615	0.617857	0.000073
 373	3.7014e+01	14.7990	58.742344	0.000375	3.748542	1.270040	0.000150
 374	3.7114e+01	14.8295	58.863458	0.000304	3.039358	1.029762	0.000122
 375	3.7213e+01	14.8825	59.000720	0.000344	3.444606	1.167064	0.000138
 376	3.7313e+01	14.9113	59.117797	0.000294	2.938046	0.995437	0.000118
 377	3.7412e+01	14.9531	59.246986	0.000324	3.241982	1.098413	0.000130
 378	3.7511e+01	15.0012	59.380211	0.000334	3.343294	1.132739	0.000134
 379	3.7611e+01	15.0317	59.513436	0.000334	3.343294	1.132739	0.000134
 380	3.7711e+01	15.0798	59.650699	0.000344	3.444606	1.167064	0.000138
 381	3.7810e+01	15.1167	59.796036	0.000365	3.647230	1.235715	0.000146
 382	3.7910e+01	15.1536	59.909076	0.000284	2.836734	0.961112	0.000114
 383	3.8009e+01	15.1905	60.026153	0.000294	2.938046	0.995437	0.000118
 384	3.8108e+01	15.2354	60.143230	0.000294	2.938046	0.995437	0.000118
 385	3.8208e+01	15.2707	60.312789	0.000426	4.255102	1.441667	0.000170
 386	3.8307e+01	15.3140	60.450052	0.000344	3.444606	1.167064	0.000138
 387	3.8407e+01	15.3589	60.571166	0.000304	3.039358	1.029762	0.000122
 388	3.8507e+01	15.3910	60.716503	0.000365	3.647230	1.235715	0.000146
 389	3.8606e+01	15.4327	60.821468	0.000263	2.634110	0.892461	0.000105
 390	3.8706e+01	15.4664	60.950657	0.000324	3.241982	1.098413	0.000130
 391	3.8805e+01	15.5145	61.095994	0.000365	3.647230	1.235715	0.000146
 392	3.8904e+01	15.5514	61.209033	0.000284	2.836734	0.961112	0.000114
 393	3.9004e+01	15.5883	61.338222	0.000324	3.241982	1.098413	0.000130
 394	3.9103e+01	15.6349	61.459336	0.000304	3.039358	1.029762	0.000122
 395	3.9203e+01	15.6669	61.645044	0.000466	4.660349	1.578969	0.000187
 396	3.9303e+01	15.7183	61.750010	0.000263	2.634110	0.892461	0.000105
 397	3.9402e+01	15.7568	61.863049	0.000284	2.836734	0.961112	0.000114
 398	3.9502e+01	15.7921	61.992238	0.000324	3.241982	1.098413	0.000130
 399	3.9601e+01	15.8258	62.129500	0.000344	3.444606	1.167064	0.000138
 400	3.9700e+01	15.8723	62.246577	0.000294	2.938046	0.995437	0.000118
 401	3.9800e+01	15.9140	62.399989	0.000385	3.849854	1.304366	0.000154
 402	3.9900e+01	15.9589	62.468620	0.000172	1.722303	0.583532	0.000069
 403	3.9999e+01	15.9926	62.638180	0.000426	4.255102	1.441667	0.000170
 404	4.0099e+01	16.0263	62.783516	0.000365	3.647230	1.235715	0.000146
 405	4.0198e+01	16.0760	62.924816	0.000355	3.545918	1.201390	0.000142
 406	4.0297e+01	16.1257	63.017670	0.000233	2.330175	0.789485	0.000093
 407	4.0397e+01	16.1450	63.138784	0.000304	3.039358	1.029762	0.000122
 408	4.0496e+01	16.1947	63.280084	0.000355	3.545918	1.201390	0.000142
 409	4.0596e+01	16.2268	63.425421	0.000365	3.647230	1.235715	0.000146
 410	4.0696e+01	16.2701	63.554609	0.000324	3.241982	1.098413	0.000130
 411	4.0795e+01	16.3038	63.683798	0.000324	3.241982	1.098413	0.000130
 412	4.0895e+01	16.3455	63.792800	0.000274	2.735422	0.926786	0.000110
 413	4.0994e+01	16.3888	63.938137	0.000365	3.647230	1.235715	0.000146
 414	4.1093e+01	16.4306	64.055214	0.000294	2.938046	0.995437	0.000118
 415	4.1193e+01	16.4739	64.224774	0.000426	4.255102	1.441667	0.000170
 416	4.1292e+01	16.5108	64.337814	0.000284	2.836734	0.961112	0.000114
 417	4.1392e+01	16.5445	64.442779	0.000263	2.634110	0.892461	0.000105
 418	4.1492e+01	16.5894	64.608302	0.000415	4.153790	1.407342	0.000166
 419	4.1591e+01	16.6231	64.689044	0.000203	2.026239	0.686508	0.000081
 420	4.1691e+01	16.6632	64.838419	0.000375	3.748542	1.270040	0.000150
 421	4.1790e+01	16.7129	64.935310	0.000243	2.431487	0.823810	0.000097
 422	4.1889e+01	16.7562	65.076610	0.000355	3.545918	1.201390	0.000142
 423	4.1989e+01	16.7899	65.213872	0.000344	3.444606	1.167064	0.000138
 424	4.2089e+01	16.8252	65.355172	0.000355	3.545918	1.201390	0.000142
 425	4.2188e+01	16.8669	65.496472	0.000355	3.545918	1.201390	0.000142
 426	4.2288e+01	16.9102	65.601437	0.000263	2.634110	0.892461	0.000105
 427	4.2387e+01	16.9439	65.722551	0.000304	3.039358	1.029762	0.000122
 428	4.2486e+01	16.9904	65.863851	0.000355	3.545918	1.201390	0.000142
 429	4.2586e+01	17.0273	65.984965	0.000304	3.039358	1.029762	0.000122
 430	4.2685e+01	17.0594	66.098005	0.000284	2.836734	0.961112	0.000114
 431	4.2785e+01	17.1091	66.259490	0.000405	4.052478	1.373017	0.000162
 432	4.2885e+01	17.1476	66.396753	0.000344	3.444606	1.167064	0.000138
 433	4.2984e+01	17.1797	66.505756	0.000274	2.735422	0.926786	0.000110
 434	4.3084e+01	17.2311	66.602647	0.000243	2.431487	0.823810	0.000097
 435	4.3183e+01	17.2648	66.760095	0.000395	3.951166	1.338691	0.000158
 436	4.3282e+01	17.3097	66.893321	0.000334	3.343294	1.132739	0.000134
 437	4.3382e+01	17.3418	66.982138	0.000223	2.228863	0.755159	0.000089
 438	4.3481e+01	17.3851	67.155734	0.000436	4.356414	1.475993	0.000174
 439	4.3581e+01	17.4188	67.280886	0.000314	3.140670	1.064088	0.000126
 440	4.3681e+01	17.4653	67.397963	0.000294	2.938046	0.995437	0.000118
 441	4.3780e+01	17.5038	67.527151	0.000324	3.241982	1.098413	0.000130
 442	4.3880e+01	17.5407	67.628079	0.000253	2.532799	0.858135	0.000101
 443	4.3979e+01	17.5888	67.785528	0.000395	3.951166	1.338691	0.000158
 444	4.4078e+01	17.6241	67.878382	0.000233	2.330175	0.789485	0.000093
 445	4.4178e+01	17.6690	68.072164	0.000486	4.862973	1.647620	0.000195
 446	4.4278e+01	17.7027	68.140796	0.000172	1.722303	0.583532	0.000069
 447	4.4377e+01	17.7492	68.290170	0.000375	3.748542	1.270040	0.000150
 448	4.4477e+01	17.7829	68.427432	0.000344	3.444606	1.167064	0.000138
 449	4.4576e+01	17.8198	68.532398	0.000263	2.634110	0.892461	0.000105
 450	4.4675e+01	17.8631	68.649475	0.000294	2.938046	0.995437	0.000118
 451	4.4775e+01	17.9081	68.754440	0.000263	2.634110	0.892461	0.000105
 452	4.4874e+01	17.9482	68.895740	0.000355	3.545918	1.201390	0.000142
 453	4.4974e+01	17.9754	69.045114	0.000375	3.748542	1.270040	0.000150
 454	4.5074e+01	18.0171	69.109708	0.000162	1.620991	0.549207	0.000065
 455	4.5173e+01	18.0540	69.315602	0.000517	5.166909	1.750596	0.000207
 456	4.5273e+01	18.1086	69.388270	0.000182	1.823615	0.617857	0.000073
 457	4.5372e+01	18.1471	69.533607	0.000365	3.647230	1.235715	0.000146
 458	4.5471e+01	18.1856	69.646647	0.000284	2.836734	0.961112	0.000114
 459	4.5571e+01	18.2209	69.787947	0.000355	3.545918	1.201390	0.000142
 460	4.5670e+01	18.2658	69.905024	0.000294	2.938046	0.995437	0.000118
 461	4.5770e+01	18.2899	70.005952	0.000253	2.532799	0.858135	0.000101
 462	4.5870e+01	18.3476	70.147252	0.000355	3.545918	1.201390	0.000142
 463	4.5969e+01	18.3781	70.260292	0.000284	2.836734	0.961112	0.000114
 464	4.6069e+01	18.4134	70.389480	0.000324	3.241982	1.098413	0.000130
 465	4.6168e+01	18.4599	70.482334	0.000233	2.330175	0.789485	0.000093
 466	4.6267e+01	18.5000	70.635745	0.000385	3.849854	1.304366	0.000154
 467	4.6367e+01	18.5433	70.764934	0.000324	3.241982	1.098413	0.000130
 468	4.6467e+01	18.5850	70.873936	0.000274	2.735422	0.926786	0.000110
 469	4.6566e+01	18.6267	71.011199	0.000344	3.444606	1.167064	0.000138
 470	4.6666e+01	18.6540	71.108090	0.000243	2.431487	0.823810	0.000097
 471	4.6765e+01	18.7102	71.221130	0.000284	2.836734	0.961112	0.000114
 472	4.6864e+01	18.7390	71.354356	0.000334	3.343294	1.132739	0.000134
 473	4.6964e+01	18.7824	71.467395	0.000284	2.836734	0.961112	0.000114
 474	4.7063e+01	18.8209	71.576398	0.000274	2.735422	0.926786	0.000110
 475	4.7163e+01	18.8610	71.717698	0.000355	3.545918	1.201390	0.000142
 476	4.7263e+01	18.9123	71.850923	0.000334	3.343294	1.132739	0.000134
 477	4.7362e+01	18.9396	71.947815	0.000243	2.431487	0.823810	0.000097
 478	4.7462e+01	18.9765	72.040669	0.000233	2.330175	0.789485	0.000093
 479	4.7561e+01	19.0198	72.190043	0.000375	3.748542	1.270040	0.000150
 480	4.7660e+01	19.0679	72.295008	0.000263	2.634110	0.892461	0.000105
 481	4.7760e+01	19.0968	72.440345	0.000365	3.647230	1.235715	0.000146
 482	4.7859e+01	19.1497	72.549348	0.000274	2.735422	0.926786	0.000110
 483	4.7959e+01	19.1818	72.638165	0.000223	2.228863	0.755159	0.000089
 484	4.8059e+01	19.2251	72.791576	0.000385	3.849854	1.304366	0.000154
 485	4.8158e+01	19.2540	72.884430	0.000233	2.330175	0.789485	0.000093
 486	4.8258e+01	19.3021	72.981321	0.000243	2.431487	0.823810	0.000097
 487	4.8357e+01	19.3374	73.138770	0.000395	3.951166	1.338691	0.000158
 488	4.8456e+01	19.3759	73.231624	0.000233	2.330175	0.789485	0.000093
 489	4.8556e+01	19.4208	73.356775	0.000314	3.140670	1.064088	0.000126
 490	4.8656e+01	19.4642	73.494038	0.000344	3.444606	1.167064	0.000138
 491	4.8755e+01	19.4946	73.594966	0.000253	2.532799	0.858135	0.000101
 492	4.8855e+01	19.5331	73.699931	0.000263	2.634110	0.892461	0.000105
 493	4.8954e+01	19.5700	73.829120	0.000324	3.241982	1.098413	0.000130
 494	4.9053e+01	19.6214	73.962345	0.000334	3.343294	1.132739	0.000134
 495	4.9153e+01	19.6519	74.051162	0.000223	2.228863	0.755159	0.000089
 496	4.9252e+01	19.6968	74.156128	0.000263	2.634110	0.892461	0.000105
 497	4.9352e+01	19.7353	74.321650	0.000415	4.153790	1.407342	0.000166
 498	4.9452e+01	19.7818	74.382207	0.000152	1.519679	0.514881	0.000061
 499	4.9551e+01	19.8155	74.519470	0.000344	3.444606	1.167064	0.000138
 500	4.9651e+01	19.8588	74.628473	0.000274	2.735422	0.926786	0.000110
 501	4.9750e+01	19.8925	74.749587	0.000304	3.039358	1.029762	0.000122
 502	4.9849e+01	19.9278	74.866664	0.000294	2.938046	0.995437	0.000118
 503	4.9949e+01	19.9791	74.995852	0.000324	3.241982	1.098413	0.000130
 504	5.0048e+01	19.9358	74.911072	0.000213	2.127551	0.720834	-0.000085
 505	5.0148e+01	19.8941	74.842441	0.000172	1.722303	0.583532	-0.000069
 506	5.0248e+01	19.8556	74.729401	0.000284	2.836734	0.961112	-0.000114
 507	5.0347e+01	19.8251	74.689030	0.000101	1.013119	0.343254	-0.000041
 508	5.0447e+01	19.7738	74.588101	0.000253	2.532799	0.858135	-0.000101
 509	5.0546e+01	19.7353	74.519470	0.000172	1.722303	0.583532	-0.000069
 510	5.0645e+01	19.7032	74.406430	0.000284	2.836734	0.961112	-0.000114
 511	5.0745e+01	19.6567	74.333762	0.000182	1.823615	0.617857	-0.000073
 512	5.0844e+01	19.6166	74.216685	0.000294	2.938046	0.995437	-0.000118
 513	5.0944e+01	19.5748	74.160165	0.000142	1.418367	0.480556	-0.000057
 514	5.1044e+01	19.5299	74.043088	0.000294	2.938046	0.995437	-0.000118
 515	5.1143e+01	19.4994	73.966382	0.000192	1.924927	0.652183	-0.000077
 516	5.1242e+01	19.4561	73.889677	0.000192	1.924927	0.652183	-0.000077
 517	5.1342e+01	19.4112	73.821046	0.000172	1.722303	0.583532	-0.000069
 518	5.1441e+01	19.3775	73.695894	0.000314	3.140670	1.064088	-0.000126
 519	5.1541e+01	19.3406	73.586892	0.000274	2.735422	0.926786	-0.000110
 520	5.1641e+01	19.3005	73.522297	0.000162	1.620991	0.549207	-0.000065
 521	5.1740e+01	19.2572	73.437518	0.000213	2.127551	0.720834	-0.000085
 522	5.1840e+01	19.2267	73.308329	0.000324	3.241982	1.098413	-0.000130
 523	5.1939e+01	19.1770	73.223549	0.000213	2.127551	0.720834	-0.000085
 524	5.2038e+01	19.1481	73.130695	0.000233	2.330175	0.789485	-0.000093
 525	5.2138e+01	19.0872	73.033804	0.000243	2.431487	0.823810	-0.000097
 526	5.2237e+01	19.0615	72.936913	0.000243	2.431487	0.823810	-0.000097
 527	5.2337e+01	19.0182	72.815799	0.000304	3.039358	1.029762	-0.000122
 528	5.2437e+01	18.9877	72.747167	0.000172	1.722303	0.583532	-0.000069
 529	5.2536e+01	18.9412	72.622016	0.000314	3.140670	1.064088	-0.000126
 530	5.2636e+01	18.8995	72.573571	0.000122	1.215743	0.411905	-0.000049
 531	5.2735e+01	18.8578	72.452457	0.000304	3.039358	1.029762	-0.000122
 532	5.2834e+01	18.8257	72.351528	0.000253	2.532799	0.858135	-0.000101
 533	5.2934e+01	18.7824	72.270785	0.000203	2.026239	0.686508	-0.000081
 534	5.3033e+01	18.7455	72.097189	0.000436	4.356414	1.475993	-0.000174
 535	5.3133e+01	18.6989	72.060854	0.000091	0.911807	0.308929	-0.000037
 536	5.3233e+01	18.6604	71.943777	0.000294	2.938046	0.995437	-0.000118
 537	5.3332e+01	18.6251	71.830738	0.000284	2.836734	0.961112	-0.000114
 538	5.3431e+01	18.5722	71.745958	0.000213	2.127551	0.720834	-0.000085
 539	5.3531e+01	18.5401	71.649067	0.000243	2.431487	0.823810	-0.000097
 540	5.3630e+01	18.5000	71.572361	0.000192	1.924927	0.652183	-0.000077
 541	5.3730e+01	18.4663	71.471433	0.000253	2.532799	0.858135	-0.000101
 542	5.3830e+01	18.4294	71.386653	0.000213	2.127551	0.720834	-0.000085
 543	5.3929e+01	18.3845	71.245353	0.000355	3.545918	1.201390	-0.000142
 544	5.4029e+01	18.3396	71.184796	0.000152	1.519679	0.514881	-0.000061
 545	5.4128e+01	18.2963	71.051570	0.000334	3.343294	1.132739	-0.000134
 546	5.4227e+01	18.2674	70.938531	0.000284	2.836734	0.961112	-0.000114
 547	5.4327e+01	18.2257	70.849714	0.000223	2.228863	0.755159	-0.000089
 548	5.4426e+01	18.1808	70.752822	0.000243	2.431487	0.823810	-0.000097
 549	5.4526e+01	18.1423	70.668043	0.000213	2.127551	0.720834	-0.000085
 550	5.4626e+01	18.1086	70.538854	0.000324	3.241982	1.098413	-0.000130
 551	5.4725e+01	18.0572	70.470223	0.000172	1.722303	0.583532	-0.000069
 552	5.4825e+01	18.0284	70.365257	0.000263	2.634110	0.892461	-0.000105
 553	5.4924e+01	17.9867	70.248180	0.000294	2.938046	0.995437	-0.000118
 554	5.5023e+01	17.9482	70.151289	0.000243	2.431487	0.823810	-0.000097
 555	5.5123e+01	17.9000	70.042286	0.000274	2.735422	0.926786	-0.000110
 556	5.5222e+01	17.8631	69.969618	0.000182	1.823615	0.617857	-0.000073
 557	5.5322e+01	17.8150	69.852541	0.000294	2.938046	0.995437	-0.000118
 558	5.5422e+01	17.7845	69.759687	0.000233	2.330175	0.789485	-0.000093
 559	5.5521e+01	17.7396	69.642610	0.000294	2.938046	0.995437	-0.000118
 560	5.5620e+01	17.7027	69.509385	0.000334	3.343294	1.132739	-0.000134
 561	5.5720e+01	17.6722	69.469013	0.000101	1.013119	0.343254	-0.000041
 562	5.5819e+01	17.6177	69.335788	0.000334	3.343294	1.132739	-0.000134
 563	5.5919e+01	17.5856	69.246971	0.000223	2.228863	0.755159	-0.000089
 564	5.6019e+01	17.5503	69.113745	0.000334	3.343294	1.132739	-0.000134
 565	5.6118e+01	17.5038	69.033003	0.000203	2.026239	0.686508	-0.000081
 566	5.6218e+01	17.4669	68.928037	0.000263	2.634110	0.892461	-0.000105
 567	5.6317e+01	17.4284	68.831146	0.000243	2.431487	0.823810	-0.000097
 568	5.6416e+01	17.3931	68.718106	0.000284	2.836734	0.961112	-0.000114
 569	5.6516e+01	17.3450	68.661586	0.000142	1.418367	0.480556	-0.000057
 570	5.6615e+01	17.3065	68.512212	0.000375	3.748542	1.270040	-0.000150
 571	5.6715e+01	17.2567	68.427432	0.000213	2.127551	0.720834	-0.000085
 572	5.6815e+01	17.2327	68.338615	0.000223	2.228863	0.755159	-0.000089
 573	5.6914e+01	17.1861	68.229613	0.000274	2.735422	0.926786	-0.000110
 574	5.7014e+01	17.1573	68.116573	0.000284	2.836734	0.961112	-0.000114
 575	5.7113e+01	17.1059	68.003533	0.000284	2.836734	0.961112	-0.000114
 576	5.7212e+01	17.0706	67.894530	0.000274	2.735422	0.926786	-0.000110
 577	5.7312e+01	17.0370	67.785528	0.000274	2.735422	0.926786	-0.000110
 578	5.7411e+01	16.9808	67.672488	0.000284	2.836734	0.961112	-0.000114
 579	5.7511e+01	16.9487	67.595782	0.000192	1.924927	0.652183	-0.000077
 580	5.7611e+01	16.9086	67.462557	0.000334	3.343294	1.132739	-0.000134
 581	5.7710e+01	16.8557	67.357591	0.000263	2.634110	0.892461	-0.000105
 582	5.7809e+01	16.8300	67.276849	0.000203	2.026239	0.686508	-0.000081
 583	5.7909e+01	16.7803	67.171883	0.000263	2.634110	0.892461	-0.000105
 584	5.8008e+01	16.7450	67.038657	0.000334	3.343294	1.132739	-0.000134
 585	5.8108e+01	16.7065	66.998286	0.000101	1.013119	0.343254	-0.000041
 586	5.8208e+01	16.6648	66.865061	0.000334	3.343294	1.132739	-0.000134
 587	5.8307e+01	16.6279	66.727798	0.000344	3.444606	1.167064	-0.000138
 588	5.8407e+01	16.5878	66.618795	0.000274	2.735422	0.926786	-0.000110
 589	5.8506e+01	16.5589	66.513830	0.000263	2.634110	0.892461	-0.000105
 590	5.8605e+01	16.5092	66.380604	0.000334	3.343294	1.132739	-0.000134
 591	5.8705e+01	16.4691	66.299862	0.000203	2.026239	0.686508	-0.000081
 592	5.8804e+01	16.4370	66.247379	0.000132	1.317055	0.446230	-0.000053
 593	5.8904e+01	16.3824	66.069745	0.000446	4.457725	1.510318	-0.000179
 594	5.9004e+01	16.3487	65.984965	0.000213	2.127551	0.720834	-0.000085
 595	5.9103e+01	16.3070	65.884037	0.000253	2.532799	0.858135	-0.000101
 596	5.9203e+01	16.2669	65.775034	0.000274	2.735422	0.926786	-0.000110
 597	5.9302e+01	16.2284	65.694291	0.000203	2.026239	0.686508	-0.000081
 598	5.9401e+01	16.1787	65.581251	0.000284	2.836734	0.961112	-0.000114
 599	5.9501e+01	16.1546	65.492435	0.000223	2.228863	0.755159	-0.000089
 600	5.9600e+01	16.1161	65.339023	0.000385	3.849854	1.304366	-0.000154
 601	5.9700e+01	16.0760	65.258281	0.000203	2.026239	0.686508	-0.000081
 602	5.9800e+01	16.0311	65.149278	0.000274	2.735422	0.926786	-0.000110
 603	5.9899e+01	15.9926	65.060461	0.000223	2.228863	0.755159	-0.000089
 604	5.9998e+01	15.9573	64.923198	0.000344	3.444606	1.167064	-0.000138
 605	6.0098e+01	15.9172	64.842456	0.000203	2.026239	0.686508	-0.000081
 606	6.0197e+01	15.8707	64.721342	0.000304	3.039358	1.029762	-0.000122
 607	6.0297e+01	15.8322	64.620413	0.000253	2.532799	0.858135	-0.000101
 608	6.0397e+01	15.7937	64.515448	0.000263	2.634110	0.892461	-0.000105
 609	6.0496e+01	15.7616	64.410482	0.000263	2.634110	0.892461	-0.000105
 610	6.0596e+01	15.7054	64.281294	0.000324	3.241982	1.098413	-0.000130
 611	6.0695e+01	15.6766	64.180365	0.000253	2.532799	0.858135	-0.000101
 612	6.0794e+01	15.6316	64.075400	0.000263	2.634110	0.892461	-0.000105
 613	6.0894e+01	15.5964	63.974471	0.000253	2.532799	0.858135	-0.000101
 614	6.0993e+01	15.5482	63.869506	0.000263	2.634110	0.892461	-0.000105
 615	6.1093e+01	15.5145	63.792800	0.000192	1.924927	0.652183	-0.000077
 616	6.1193e+01	15.4776	63.627278	0.000415	4.153790	1.407342	-0.000166
 617	6.1292e+01	15.4359	63.530387	0.000243	2.431487	0.823810	-0.000097
 618	6.1392e+01	15.3942	63.401198	0.000324	3.241982	1.098413	-0.000130
 619	6.1491e+01	15.3525	63.320455	0.000203	2.026239	0.686508	-0.000081
 620	6.1590e+01	15.3172	63.179156	0.000355	3.545918	1.201390	-0.000142
 621	6.1690e+01	15.2739	63.062079	0.000294	2.938046	0.995437	-0.000118
 622	6.1789e+01	15.2434	62.969225	0.000233	2.330175	0.789485	-0.000093
 623	6.1889e+01	15.1905	62.868296	0.000253	2.532799	0.858135	-0.000101
 624	6.1989e+01	15.1456	62.731034	0.000344	3.444606	1.167064	-0.000138
 625	6.2088e+01	15.1183	62.686625	0.000111	1.114431	0.377580	-0.000045
 626	6.2188e+01	15.0798	62.533214	0.000385	3.849854	1.304366	-0.000154
 627	6.2287e+01	15.0236	62.412100	0.000304	3.039358	1.029762	-0.000122
 628	6.2386e+01	15.0028	62.303097	0.000274	2.735422	0.926786	-0.000110
 629	6.2486e+01	14.9595	62.210243	0.000233	2.330175	0.789485	-0.000093
 630	6.2586e+01	14.9129	62.113352	0.000243	2.431487	0.823810	-0.000097
 631	6.2685e+01	14.8744	61.931681	0.000456	4.559037	1.544644	-0.000183
 632	6.2785e+01	14.8424	61.879198	0.000132	1.317055	0.446230	-0.000053
 633	6.2884e+01	14.7958	61.750010	0.000324	3.241982	1.098413	-0.000130
 634	6.2983e+01	14.7509	61.624858	0.000314	3.140670	1.064088	-0.000126
 635	6.3083e+01	14.7188	61.527967	0.000243	2.431487	0.823810	-0.000097
 636	6.3182e+01	14.6755	61.423002	0.000263	2.634110	0.892461	-0.000105
 637	6.3282e+01	14.6402	61.297850	0.000314	3.140670	1.064088	-0.000126
 638	6.3382e+01	14.6001	61.184811	0.000284	2.836734	0.961112	-0.000114
 639	6.3481e+01	14.5632	61.027362	0.000395	3.951166	1.338691	-0.000158
 640	6.3581e+01	14.5151	60.942583	0.000213	2.127551	0.720834	-0.000085
 641	6.3680e+01	14.4750	60.873951	0.000172	1.722303	0.583532	-0.000069
 642	6.3779e+01	14.4365	60.704392	0.000426	4.255102	1.441667	-0.000170
 643	6.3879e+01	14.4028	60.595389	0.000274	2.735422	0.926786	-0.000110
 644	6.3978e+01	14.3595	60.458126	0.000344	3.444606	1.167064	-0.000138
 645	6.4078e+01	14.3162	60.349124	0.000274	2.735422	0.926786	-0.000110
 646	6.4177e+01	14.2745	60.236084	0.000284	2.836734	0.961112	-0.000114
 647	6.4277e+01	14.2392	60.094784	0.000355	3.545918	1.201390	-0.000142
 648	6.4376e+01	14.1975	59.985781	0.000274	2.735422	0.926786	-0.000110
 649	6.4476e+01	14.1638	59.868704	0.000294	2.938046	0.995437	-0.000118
 650	6.4576e+01	14.1205	59.759702	0.000274	2.735422	0.926786	-0.000110
 651	6.4675e+01	14.0771	59.654736	0.000263	2.634110	0.892461	-0.000105
 652	6.4775e+01	14.0370	59.501325	0.000385	3.849854	1.304366	-0.000154
 653	6.4874e+01	13.9937	59.400397	0.000253	2.532799	0.858135	-0.000101
 654	6.4974e+01	13.9552	59.319654	0.000203	2.026239	0.686508	-0.000081
 655	6.5073e+01	13.9183	59.170280	0.000375	3.748542	1.270040	-0.000150
 656	6.5172e+01	13.8766	59.004757	0.000415	4.153790	1.407342	-0.000166
 657	6.5272e+01	13.8397	58.928052	0.000192	1.924927	0.652183	-0.000077
 658	6.5371e+01	13.8124	58.802901	0.000314	3.140670	1.064088	-0.000126
 659	6.5471e+01	13.7659	58.701972	0.000253	2.532799	0.858135	-0.000101
 660	6.5570e+01	13.7258	58.556635	0.000365	3.647230	1.235715	-0.000146
 661	6.5670e+01	13.6681	58.459744	0.000243	2.431487	0.823810	-0.000097
 662	6.5769e+01	13.6392	58.294221	0.000415	4.153790	1.407342	-0.000166
 663	6.5869e+01	13.5895	58.225590	0.000172	1.722303	0.583532	-0.000069
 664	6.5969e+01	13.5606	58.088328	0.000344	3.444606	1.167064	-0.000138
 665	6.6068e+01	13.5189	57.967213	0.000304	3.039358	1.029762	-0.000122
 666	6.6168e+01	13.4836	57.833988	0.000334	3.343294	1.132739	-0.000134
 667	6.6267e+01	13.4403	57.733060	0.000253	2.532799	0.858135	-0.000101
 668	6.6367e+01	13.4018	57.607908	0.000314	3.140670	1.064088	-0.000126
 669	6.6466e+01	13.3633	57.474683	0.000334	3.343294	1.132739	-0.000134
 670	6.6566e+01	13.3280	57.389903	0.000213	2.127551	0.720834	-0.000085
 671	6.6665e+01	13.2798	57.216306	0.000436	4.356414	1.475993	-0.000174
 672	6.6764e+01	13.2413	57.131526	0.000213	2.127551	0.720834	-0.000085
 673	6.6864e+01	13.2060	56.998301	0.000334	3.343294	1.132739	-0.000134
 674	6.6963e+01	13.1643	56.852964	0.000365	3.647230	1.235715	-0.000146
 675	6.7063e+01	13.1210	56.747999	0.000263	2.634110	0.892461	-0.000105
 676	6.7162e+01	13.0857	56.643033	0.000263	2.634110	0.892461	-0.000105
 677	6.7262e+01	13.0392	56.473473	0.000426	4.255102	1.441667	-0.000170
 678	6.7362e+01	12.9943	56.332174	0.000355	3.545918	1.201390	-0.000142
 679	6.7461e+01	12.9542	56.227208	0.000263	2.634110	0.892461	-0.000105
 680	6.7561e+01	12.9285	56.114168	0.000284	2.836734	0.961112	-0.000114
 681	6.7660e+01	12.8724	56.017277	0.000243	2.431487	0.823810	-0.000097
 682	6.7760e+01	12.8467	55.851754	0.000415	4.153790	1.407342	-0.000166
 683	6.7859e+01	12.8002	55.734677	0.000294	2.938046	0.995437	-0.000118
 684	6.7959e+01	12.7697	55.601452	0.000334	3.343294	1.132739	-0.000134
 685	6.8058e+01	12.7248	55.460152	0.000355	3.545918	1.201390	-0.000142
 686	6.8157e+01	12.6750	55.379409	0.000203	2.026239	0.686508	-0.000081
 687	6.8257e+01	12.6381	55.250221	0.000324	3.241982	1.098413	-0.000130
 688	6.8356e+01	12.6061	55.092773	0.000395	3.951166	1.338691	-0.000158
 689	6.8456e+01	12.5788	54.987807	0.000263	2.634110	0.892461	-0.000105
 690	6.8555e+01	12.5323	54.866693	0.000304	3.039358	1.029762	-0.000122
 691	6.8655e+01	12.4825	54.721356	0.000365	3.647230	1.235715	-0.000146
 692	6.8754e+01	12.4424	54.616391	0.000263	2.634110	0.892461	-0.000105
 693	6.8854e+01	12.4007	54.487202	0.000324	3.241982	1.098413	-0.000130
 694	6.8954e+01	12.3686	54.362051	0.000314	3.140670	1.064088	-0.000126
 695	6.9053e+01	12.3349	54.232863	0.000324	3.241982	1.098413	-0.000130
 696	6.9153e+01	12.2868	54.083489	0.000375	3.748542	1.270040	-0.000150
 697	6.9252e+01	12.2531	53.958338	0.000314	3.140670	1.064088	-0.000126
 698	6.9352e+01	12.2002	53.808964	0.000375	3.748542	1.270040	-0.000150
 699	6.9451e+01	12.1745	53.712072	0.000243	2.431487	0.823810	-0.000097
 700	6.9550e+01	12.1248	53.566736	0.000365	3.647230	1.235715	-0.000146
 701	6.9650e+01	12.0991	53.469844	0.000243	2.431487	0.823810	-0.000097
 702	6.9749e+01	12.0478	53.324507	0.000365	3.647230	1.235715	-0.000146
 703	6.9849e+01	12.0077	53.191282	0.000334	3.343294	1.132739	-0.000134
 704	6.9948e+01	11.9676	53.054019	0.000344	3.444606	1.167064	-0.000138
 705	7.0048e+01	11.9275	52.916757	0.000344	3.444606	1.167064	-0.000138
 706	7.0147e+01	11.8858	52.783531	0.000334	3.343294	1.132739	-0.000134
 707	7.0247e+01	11.8489	52.694714	0.000223	2.228863	0.755159	-0.000089
 708	7.0347e+01	11.8104	52.565526	0.000324	3.241982	1.098413	-0.000130
 709	7.0446e+01	11.7703	52.416152	0.000375	3.748542	1.270040	-0.000150
 710	7.0546e+01	11.7189	52.270815	0.000365	3.647230	1.235715	-0.000146
 711	7.0645e+01	11.6949	52.137589	0.000334	3.343294	1.132739	-0.000134
 712	7.0745e+01	11.6483	52.040698	0.000243	2.431487	0.823810	-0.000097
 713	7.0844e+01	11.6034	51.927658	0.000284	2.836734	0.961112	-0.000114
 714	7.0944e+01	11.5713	51.774247	0.000385	3.849854	1.304366	-0.000154
 715	7.1043e+01	11.5216	51.677356	0.000243	2.431487	0.823810	-0.000097
 716	7.1142e+01	11.4815	51.519908	0.000395	3.951166	1.338691	-0.000158
 717	7.1242e+01	11.4462	51.390719	0.000324	3.241982	1.098413	-0.000130
 718	7.1341e+01	11.4157	51.225197	0.000415	4.153790	1.407342	-0.000166
 719	7.1441e+01	11.3660	51.132343	0.000233	2.330175	0.789485	-0.000093
 720	7.1540e+01	11.3339	50.987006	0.000365	3.647230	1.235715	-0.000146
 721	7.1640e+01	11.2938	50.841669	0.000365	3.647230	1.235715	-0.000146
 722	7.1740e+01	11.2457	50.769000	0.000182	1.823615	0.617857	-0.000073
 723	7.1839e+01	11.2104	50.607515	0.000405	4.052478	1.373017	-0.000162
 724	7.1939e+01	11.1671	50.446030	0.000405	4.052478	1.373017	-0.000162
 725	7.2038e+01	11.1270	50.320878	0.000314	3.140670	1.064088	-0.000126
 726	7.2138e+01	11.0885	50.223987	0.000243	2.431487	0.823810	-0.000097
 727	7.2237e+01	11.0451	50.070576	0.000385	3.849854	1.304366	-0.000154
 728	7.2337e+01	11.0034	49.973685	0.000243	2.431487	0.823810	-0.000097
 729	7.2436e+01	10.9794	49.856608	0.000294	2.938046	0.995437	-0.000118
 730	7.2535e+01	10.9280	49.711271	0.000365	3.647230	1.235715	-0.000146
 731	7.2635e+01	10.8911	49.586120	0.000314	3.140670	1.064088	-0.000126
 732	7.2734e+01	10.8607	49.424634	0.000405	4.052478	1.373017	-0.000162
 733	7.2834e+01	10.8077	49.287372	0.000344	3.444606	1.167064	-0.000138
 734	7.2933e+01	10.7676	49.182406	0.000263	2.634110	0.892461	-0.000105
 735	7.3033e+01	10.7339	49.045144	0.000344	3.444606	1.167064	-0.000138
 736	7.3132e+01	10.6922	48.924029	0.000304	3.039358	1.029762	-0.000122
 737	7.3232e+01	10.6473	48.802915	0.000304	3.039358	1.029762	-0.000122
 738	7.3332e+01	10.6168	48.677764	0.000314	3.140670	1.064088	-0.000126
 739	7.3431e+01	10.5703	48.564724	0.000284	2.836734	0.961112	-0.000114
 740	7.3531e+01	10.5302	48.370942	0.000486	4.862973	1.647620	-0.000195
 741	7.3630e+01	10.4901	48.241754	0.000324	3.241982	1.098413	-0.000130
 742	7.3730e+01	10.4500	48.140825	0.000253	2.532799	0.858135	-0.000101
 743	7.3829e+01	10.4083	47.963191	0.000446	4.457725	1.510318	-0.000179
 744	7.3928e+01	10.3746	47.846114	0.000294	2.938046	0.995437	-0.000118
 745	7.4028e+01	10.3313	47.733074	0.000284	2.836734	0.961112	-0.000114
 746	7.4127e+01	10.2960	47.628109	0.000263	2.634110	0.892461	-0.000105
 747	7.4227e+01	10.2559	47.502958	0.000314	3.140670	1.064088	-0.000126
 748	7.4326e+01	10.2158	47.341472	0.000405	4.052478	1.373017	-0.000162
 749	7.4426e+01	10.1773	47.188061	0.000385	3.849854	1.304366	-0.000154
 750	7.4525e+01	10.1404	47.087133	0.000253	2.532799	0.858135	-0.000101
 751	7.4625e+01	10.0890	46.933722	0.000385	3.849854	1.304366	-0.000154
 752	7.4725e+01	10.0505	46.804533	0.000324	3.241982	1.098413	-0.000130
 753	7.4824e+01	10.0104	46.671308	0.000334	3.343294	1.132739	-0.000134
 754	7.4924e+01	9.9783	46.513859	0.000395	3.951166	1.338691	-0.000158
 755	7.5023e+01	9.9398	46.392745	0.000304	3.039358	1.029762	-0.000122
 756	7.5123e+01	9.8933	46.279706	0.000284	2.836734	0.961112	-0.000114
 757	7.5222e+01	9.8516	46.098034	0.000456	4.559037	1.544644	-0.000183
 758	7.5322e+01	9.8163	46.005180	0.000233	2.330175	0.789485	-0.000093
 759	7.5421e+01	9.7810	45.871955	0.000334	3.343294	1.132739	-0.000134
 760	7.5520e+01	9.7345	45.738729	0.000334	3.343294	1.132739	-0.000134
 761	7.5620e+01	9.6944	45.593392	0.000365	3.647230	1.235715	-0.000146
 762	7.5719e+01	9.6607	45.427870	0.000415	4.153790	1.407342	-0.000166
 763	7.5819e+01	9.6126	45.343090	0.000213	2.127551	0.720834	-0.000085
 764	7.5918e+01	9.5869	45.189679	0.000385	3.849854	1.304366	-0.000154
 765	7.6018e+01	9.5388	45.096825	0.000233	2.330175	0.789485	-0.000093
 766	7.6118e+01	9.5019	44.947451	0.000375	3.748542	1.270040	-0.000150
 767	7.6217e+01	9.4553	44.802114	0.000365	3.647230	1.235715	-0.000146
 768	7.6317e+01	9.4168	44.664851	0.000344	3.444606	1.167064	-0.000138
 769	7.6416e+01	9.3735	44.503366	0.000405	4.052478	1.373017	-0.000162
 770	7.6516e+01	9.3382	44.442809	0.000152	1.519679	0.514881	-0.000061
 771	7.6615e+01	9.3013	44.257101	0.000466	4.660349	1.578969	-0.000187
 772	7.6715e+01	9.2548	44.140024	0.000294	2.938046	0.995437	-0.000118
 773	7.6814e+01	9.2163	43.986612	0.000385	3.849854	1.304366	-0.000154
 774	7.6913e+01	9.1762	43.861461	0.000314	3.140670	1.064088	-0.000126
 775	7.7013e+01	9.1473	43.695939	0.000415	4.153790	1.407342	-0.000166
 776	7.7112e+01	9.0912	43.603085	0.000233	2.330175	0.789485	-0.000093
 777	7.7212e+01	9.0591	43.465822	0.000344	3.444606	1.167064	-0.000138
 778	7.7311e+01	9.0110	43.328559	0.000344	3.444606	1.167064	-0.000138
 779	7.7411e+01	8.9709	43.175148	0.000385	3.849854	1.304366	-0.000154
 780	7.7510e+01	8.9324	43.058071	0.000294	2.938046	0.995437	-0.000118
 781	7.7610e+01	8.8955	42.872363	0.000466	4.660349	1.578969	-0.000187
 782	7.7710e+01	8.8602	42.731063	0.000355	3.545918	1.201390	-0.000142
 783	7.7809e+01	8.8217	42.630135	0.000253	2.532799	0.858135	-0.000101
 784	7.7909e+01	8.7800	42.500946	0.000324	3.241982	1.098413	-0.000130
 785	7.8008e+01	8.7431	42.363684	0.000344	3.444606	1.167064	-0.000138
 786	7.8108e+01	8.6949	42.226421	0.000344	3.444606	1.167064	-0.000138
 787	7.8207e+01	8.6645	42.081084	0.000365	3.647230	1.235715	-0.000146
 788	7.8306e+01	8.6195	41.923636	0.000395	3.951166	1.338691	-0.000158
 789	7.8406e+01	8.5794	41.826745	0.000243	2.431487	0.823810	-0.000097
 790	7.8505e+01	8.5377	41.653148	0.000436	4.356414	1.475993	-0.000174
 791	7.8605e+01	8.5089	41.536071	0.000294	2.938046	0.995437	-0.000118
 792	7.8704e+01	8.4575	41.410920	0.000314	3.140670	1.064088	-0.000126
 793	7.8804e+01	8.4126	41.225212	0.000466	4.660349	1.578969	-0.000187
 794	7.8903e+01	8.3869	41.116209	0.000274	2.735422	0.926786	-0.000110
 795	7.9003e+01	8.3420	40.995095	0.000304	3.039358	1.029762	-0.000122
 796	7.9103e+01	8.3083	40.833609	0.000405	4.052478	1.373017	-0.000162
 797	7.9202e+01	8.2650	40.700384	0.000334	3.343294	1.132739	-0.000134
 798	7.9302e+01	8.2201	40.506601	0.000486	4.862973	1.647620	-0.000195
 799	7.9401e+01	8.1816	40.409710	0.000243	2.431487	0.823810	-0.000097
 800	7.9501e+01	8.1431	40.260336	0.000375	3.748542	1.270040	-0.000150
 801	7.9600e+01	8.0966	40.102888	0.000395	3.951166	1.338691	-0.000158
 802	7.9700e+01	8.0597	39.961588	0.000355	3.545918	1.201390	-0.000142
 803	7.9799e+01	8.0180	39.808177	0.000385	3.849854	1.304366	-0.000154
 804	7.9898e+01	7.9875	39.670914	0.000344	3.444606	1.167064	-0.000138
 805	7.9998e+01	7.9474	39.565949	0.000263	2.634110	0.892461	-0.000105
 806	8.0097e+01	7.9008	39.432723	0.000334	3.343294	1.132739	-0.000134
 807	8.0197e+01	7.8607	39.242978	0.000476	4.761661	1.613295	-0.000191
 808	8.0296e+01	7.8222	39.109752	0.000334	3.343294	1.132739	-0.000134
 809	8.0396e+01	7.7757	38.972490	0.000344	3.444606	1.167064	-0.000138
 810	8.0496e+01	7.7372	38.798893	0.000436	4.356414	1.475993	-0.000174
 811	8.0595e+01	7.7003	38.625296	0.000436	4.356414	1.475993	-0.000174
 812	8.0695e+01	7.6586	38.524368	0.000253	2.532799	0.858135	-0.000101
 813	8.0794e+01	7.6265	38.395179	0.000324	3.241982	1.098413	-0.000130
 814	8.0894e+01	7.5896	38.229657	0.000415	4.153790	1.407342	-0.000166
 815	8.0993e+01	7.5399	38.116617	0.000284	2.836734	0.961112	-0.000114
 816	8.1093e+01	7.5142	37.971280	0.000365	3.647230	1.235715	-0.000146
 817	8.1192e+01	7.4581	37.809795	0.000405	4.052478	1.373017	-0.000162
 818	8.1291e+01	7.4292	37.652346	0.000395	3.951166	1.338691	-0.000158
 819	8.1391e+01	7.3923	37.494898	0.000395	3.951166	1.338691	-0.000158
 820	8.1490e+01	7.3394	37.373784	0.000304	3.039358	1.029762	-0.000122
 821	8.1590e+01	7.3073	37.236521	0.000344	3.444606	1.167064	-0.000138
 822	8.1689e+01	7.2592	37.042739	0.000486	4.862973	1.647620	-0.000195
 823	8.1789e+01	7.2239	36.885291	0.000395	3.951166	1.338691	-0.000158
 824	8.1888e+01	7.1854	36.764177	0.000304	3.039358	1.029762	-0.000122
 825	8.1988e+01	7.1340	36.606728	0.000395	3.951166	1.338691	-0.000158
 826	8.2088e+01	7.1019	36.425057	0.000456	4.559037	1.544644	-0.000183
 827	8.2187e+01	7.0682	36.267609	0.000395	3.951166	1.338691	-0.000158
 828	8.2287e+01	7.0297	36.146495	0.000304	3.039358	1.029762	-0.000122
 829	8.2386e+01	6.9896	35.985009	0.000405	4.052478	1.373017	-0.000162
 830	8.2486e+01	6.9560	35.880044	0.000263	2.634110	0.892461	-0.000105
 831	8.2585e+01	6.9078	35.702410	0.000446	4.457725	1.510318	-0.000179
 832	8.2684e+01	6.8725	35.565147	0.000344	3.444606	1.167064	-0.000138
 833	8.2784e+01	6.8228	35.415773	0.000375	3.748542	1.270040	-0.000150
 834	8.2883e+01	6.7859	35.262362	0.000385	3.849854	1.304366	-0.000154
 835	8.2983e+01	6.7442	35.117025	0.000365	3.647230	1.235715	-0.000146
 836	8.3082e+01	6.7057	34.963614	0.000385	3.849854	1.304366	-0.000154
 837	8.3182e+01	6.6688	34.773869	0.000476	4.761661	1.613295	-0.000191
 838	8.3281e+01	6.6239	34.660829	0.000284	2.836734	0.961112	-0.000114
 839	8.3381e+01	6.5838	34.519529	0.000355	3.545918	1.201390	-0.000142
 840	8.3481e+01	6.5533	34.329784	0.000476	4.761661	1.613295	-0.000191
 841	8.3580e+01	6.4987	34.200595	0.000324	3.241982	1.098413	-0.000130
 842	8.3680e+01	6.4699	34.059296	0.000355	3.545918	1.201390	-0.000142
 843	8.3779e+01	6.4282	33.885699	0.000436	4.356414	1.475993	-0.000174
 844	8.3879e+01	6.3977	33.732288	0.000385	3.849854	1.304366	-0.000154
 845	8.3978e+01	6.3431	33.578877	0.000385	3.849854	1.304366	-0.000154
 846	8.4078e+01	6.3062	33.441614	0.000344	3.444606	1.167064	-0.000138
 847	8.4177e+01	6.2774	33.292240	0.000375	3.748542	1.270040	-0.000150
 848	8.4276e+01	6.2405	33.114606	0.000446	4.457725	1.510318	-0.000179
 849	8.4376e+01	6.1875	32.961195	0.000385	3.849854	1.304366	-0.000154
 850	8.4475e+01	6.1474	32.811821	0.000375	3.748542	1.270040	-0.000150
 851	8.4575e+01	6.1073	32.670521	0.000355	3.545918	1.201390	-0.000142
 852	8.4674e+01	6.0656	32.517110	0.000385	3.849854	1.304366	-0.000154
 853	8.4774e+01	6.0271	32.359662	0.000395	3.951166	1.338691	-0.000158
 854	8.4874e+01	5.9918	32.206250	0.000385	3.849854	1.304366	-0.000154
 855	8.4973e+01	5.9549	32.060913	0.000365	3.647230	1.235715	-0.000146
 856	8.5073e+01	5.9148	31.903465	0.000395	3.951166	1.338691	-0.000158
 857	8.5172e+01	5.8747	31.737943	0.000415	4.153790	1.407342	-0.000166
 858	8.5272e+01	5.8282	31.544160	0.000486	4.862973	1.647620	-0.000195
 859	8.5371e+01	5.7993	31.374600	0.000426	4.255102	1.441667	-0.000170
 860	8.5471e+01	5.7560	31.229264	0.000365	3.647230	1.235715	-0.000146
 861	8.5570e+01	5.7030	31.092001	0.000344	3.444606	1.167064	-0.000138
 862	8.5669e+01	5.6758	30.938590	0.000385	3.849854	1.304366	-0.000154
 863	8.5769e+01	5.6293	30.769030	0.000426	4.255102	1.441667	-0.000170
 864	8.5868e+01	5.5875	30.603507	0.000415	4.153790	1.407342	-0.000166
 865	8.5968e+01	5.5522	30.450096	0.000385	3.849854	1.304366	-0.000154
 866	8.6067e+01	5.5218	30.320908	0.000324	3.241982	1.098413	-0.000130
 867	8.6167e+01	5.4897	30.159423	0.000405	4.052478	1.373017	-0.000162
 868	8.6266e+01	5.4303	29.969677	0.000476	4.761661	1.613295	-0.000191
 869	8.6366e+01	5.3886	29.816266	0.000385	3.849854	1.304366	-0.000154
 870	8.6466e+01	5.3533	29.654781	0.000405	4.052478	1.373017	-0.000162
 871	8.6565e+01	5.3084	29.501369	0.000385	3.849854	1.304366	-0.000154
 872	8.6665e+01	5.2747	29.331810	0.000426	4.255102	1.441667	-0.000170
 873	8.6764e+01	5.2426	29.166287	0.000415	4.153790	1.407342	-0.000166
 874	8.6864e+01	5.1961	29.049210	0.000294	2.938046	0.995437	-0.000118
 875	8.6963e+01	5.1544	28.875613	0.000436	4.356414	1.475993	-0.000174
 876	8.7063e+01	5.1143	28.718165	0.000395	3.951166	1.338691	-0.000158
 877	8.7162e+01	5.0694	28.532457	0.000466	4.660349	1.578969	-0.000187
 878	8.7261e+01	5.0341	28.391157	0.000355	3.545918	1.201390	-0.000142
 879	8.7361e+01	4.9956	28.205449	0.000466	4.660349	1.578969	-0.000187
 880	8.7460e+01	4.9555	28.048001	0.000395	3.951166	1.338691	-0.000158
 881	8.7560e+01	4.9122	27.914775	0.000334	3.343294	1.132739	-0.000134
 882	8.7659e+01	4.8769	27.773475	0.000355	3.545918	1.201390	-0.000142
 883	8.7759e+01	4.8303	27.616027	0.000395	3.951166	1.338691	-0.000158
 884	8.7859e+01	4.7983	27.422245	0.000486	4.862973	1.647620	-0.000195
 885	8.7958e+01	4.7533	27.272870	0.000375	3.748542	1.270040	-0.000150
 886	8.8058e+01	4.7084	27.147719	0.000314	3.140670	1.064088	-0.000126
 887	8.8157e+01	4.6715	26.974122	0.000436	4.356414	1.475993	-0.000174
 888	8.8257e+01	4.6346	26.796488	0.000446	4.457725	1.510318	-0.000179
 889	8.8356e+01	4.5993	26.630966	0.000415	4.153790	1.407342	-0.000166
 890	8.8456e+01	4.5608	26.465443	0.000415	4.153790	1.407342	-0.000166
 891	8.8555e+01	4.5255	26.299921	0.000415	4.153790	1.407342	-0.000166
 892	8.8654e+01	4.4790	26.182844	0.000294	2.938046	0.995437	-0.000118
 893	8.8754e+01	4.4421	25.989061	0.000486	4.862973	1.647620	-0.000195
 894	8.8853e+01	4.3956	25.847762	0.000355	3.545918	1.201390	-0.000142
 895	8.8953e+01	4.3571	25.694350	0.000385	3.849854	1.304366	-0.000154
 896	8.9052e+01	4.3106	25.528828	0.000415	4.153790	1.407342	-0.000166
 897	8.9152e+01	4.2753	25.363305	0.000415	4.153790	1.407342	-0.000166
 898	8.9251e+01	4.2336	25.209894	0.000385	3.849854	1.304366	-0.000154
 899	8.9351e+01	4.1967	25.032260	0.000446	4.457725	1.510318	-0.000179
 900	8.9451e+01	4.1566	24.842515	0.000476	4.761661	1.613295	-0.000191
 901	8.9550e+01	4.1293	24.701215	0.000355	3.545918	1.201390	-0.000142
 902	8.9650e+01	4.0812	24.519544	0.000456	4.559037	1.544644	-0.000183
 903	8.9749e+01	4.0411	24.358058	0.000405	4.052478	1.373017	-0.000162
 904	8.9849e+01	4.0010	24.208684	0.000375	3.748542	1.270040	-0.000150
 905	8.9948e+01	3.9560	24.091608	0.000294	2.938046	0.995437	-0.000118
 906	9.0047e+01	3.9191	23.885714	0.000517	5.166909	1.750596	-0.000207
 907	9.0147e+01	3.8871	23.724228	0.000405	4.052478	1.373017	-0.000162
 908	9.0246e+01	3.8389	23.546594	0.000446	4.457725	1.510318	-0.000179
 909	9.0346e+01	3.7972	23.389146	0.000395	3.951166	1.338691	-0.000158
 910	9.0445e+01	3.7571	23.219586	0.000426	4.255102	1.441667	-0.000170
 911	9.0545e+01	3.7154	23.078286	0.000355	3.545918	1.201390	-0.000142
 912	9.0644e+01	3.6865	22.920838	0.000395	3.951166	1.338691	-0.000158
 913	9.0744e+01	3.6448	22.735130	0.000466	4.660349	1.578969	-0.000187
 914	9.0844e+01	3.5983	22.614016	0.000304	3.039358	1.029762	-0.000122
 915	9.0943e+01	3.5566	22.428308	0.000466	4.660349	1.578969	-0.000187
 916	9.1043e+01	3.5165	22.250674	0.000446	4.457725	1.510318	-0.000179
 917	9.1142e+01	3.4828	22.105337	0.000365	3.647230	1.235715	-0.000146
 918	9.1242e+01	3.4395	21.919628	0.000466	4.660349	1.578969	-0.000187
 919	9.1341e+01	3.4010	21.741995	0.000446	4.457725	1.510318	-0.000179
 920	9.1441e+01	3.3625	21.560323	0.000456	4.559037	1.544644	-0.000183
 921	9.1540e+01	3.3143	21.414987	0.000365	3.647230	1.235715	-0.000146
 922	9.1639e+01	3.2919	21.233315	0.000456	4.559037	1.544644	-0.000183
 923	9.1739e+01	3.2486	21.108164	0.000314	3.140670	1.064088	-0.000126
 924	9.1838e+01	3.2037	20.942642	0.000415	4.153790	1.407342	-0.000166
 925	9.1938e+01	3.1571	20.720599	0.000557	5.572157	1.887898	-0.000223
 926	9.2037e+01	3.1250	20.575262	0.000365	3.647230	1.235715	-0.000146
 927	9.2137e+01	3.0817	20.369368	0.000517	5.166909	1.750596	-0.000207
 928	9.2237e+01	3.0432	20.256329	0.000284	2.836734	0.961112	-0.000114
 929	9.2336e+01	2.9935	20.050435	0.000517	5.166909	1.750596	-0.000207
 930	9.2436e+01	2.9726	19.901061	0.000375	3.748542	1.270040	-0.000150
 931	9.2535e+01	2.9277	19.739575	0.000405	4.052478	1.373017	-0.000162
 932	9.2635e+01	2.8908	19.602313	0.000344	3.444606	1.167064	-0.000138
 933	9.2734e+01	2.8411	19.424679	0.000446	4.457725	1.510318	-0.000179
 934	9.2834e+01	2.8042	19.226859	0.000496	4.964285	1.681945	-0.000199
 935	9.2933e+01	2.7689	19.113819	0.000284	2.836734	0.961112	-0.000114
 936	9.3032e+01	2.7304	18.891777	0.000557	5.572157	1.887898	-0.000223
 937	9.3132e+01	2.6839	18.734328	0.000395	3.951166	1.338691	-0.000158
 938	9.3231e+01	2.6470	18.552657	0.000456	4.559037	1.544644	-0.000183
 939	9.3331e+01	2.6117	18.419432	0.000334	3.343294	1.132739	-0.000134
 940	9.3430e+01	2.5620	18.237761	0.000456	4.559037	1.544644	-0.000183
 941	9.3530e+01	2.5170	18.048015	0.000476	4.761661	1.613295	-0.000191
 942	9.3629e+01	2.4978	17.902678	0.000365	3.647230	1.235715	-0.000146
 943	9.3729e+01	2.4384	17.749267	0.000385	3.849854	1.304366	-0.000154
 944	9.3829e+01	2.3999	17.531262	0.000547	5.470845	1.853572	-0.000219
 945	9.3928e+01	2.3582	17.389962	0.000355	3.545918	1.201390	-0.000142
 946	9.4028e+01	2.3261	17.188105	0.000507	5.065597	1.716271	-0.000203
 947	9.4127e+01	2.2860	17.002397	0.000466	4.660349	1.578969	-0.000187
 948	9.4227e+01	2.2379	16.848986	0.000385	3.849854	1.304366	-0.000154
 949	9.4326e+01	2.2090	16.691538	0.000395	3.951166	1.338691	-0.000158
 950	9.4425e+01	2.1689	16.526015	0.000415	4.153790	1.407342	-0.000166
 951	9.4525e+01	2.1192	16.332233	0.000486	4.862973	1.647620	-0.000195
 952	9.4624e+01	2.0791	16.174784	0.000395	3.951166	1.338691	-0.000158
 953	9.4724e+01	2.0454	15.993113	0.000456	4.559037	1.544644	-0.000183
 954	9.4823e+01	2.0037	15.831628	0.000405	4.052478	1.373017	-0.000162
 955	9.4923e+01	1.9732	15.649957	0.000456	4.559037	1.544644	-0.000183
 956	9.5022e+01	1.9235	15.456174	0.000486	4.862973	1.647620	-0.000195
 957	9.5122e+01	1.8818	15.310837	0.000365	3.647230	1.235715	-0.000146
 958	9.5222e+01	1.8529	15.080721	0.000577	5.774781	1.956549	-0.000231
 959	9.5321e+01	1.8080	14.975755	0.000263	2.634110	0.892461	-0.000105
 960	9.5421e+01	1.7647	14.761787	0.000537	5.369533	1.819247	-0.000215
 961	9.5520e+01	1.7262	14.596264	0.000415	4.153790	1.407342	-0.000166
 962	9.5620e+01	1.6844	14.410556	0.000466	4.660349	1.578969	-0.000187
 963	9.5719e+01	1.6540	14.184476	0.000567	5.673469	1.922223	-0.000227
 964	9.5819e+01	1.6123	14.022991	0.000405	4.052478	1.373017	-0.000162
 965	9.5918e+01	1.5577	13.881691	0.000355	3.545918	1.201390	-0.000142
 966	9.6017e+01	1.5240	13.687909	0.000486	4.862973	1.647620	-0.000195
 967	9.6117e+01	1.4823	13.498163	0.000476	4.761661	1.613295	-0.000191
 968	9.6216e+01	1.4534	13.308418	0.000476	4.761661	1.613295	-0.000191
 969	9.6316e+01	1.4053	13.130784	0.000446	4.457725	1.510318	-0.000179
 970	9.6415e+01	1.3732	12.920853	0.000527	5.268221	1.784922	-0.000211
 971	9.6515e+01	1.3283	12.791665	0.000324	3.241982	1.098413	-0.000130
 972	9.6615e+01	1.2914	12.618068	0.000436	4.356414	1.475993	-0.000174
 973	9.6714e+01	1.2497	12.412174	0.000517	5.166909	1.750596	-0.000207
 974	9.6814e+01	1.2112	12.246651	0.000415	4.153790	1.407342	-0.000166
 975	9.6913e+01	1.1695	12.064980	0.000456	4.559037	1.544644	-0.000183
 976	9.7013e+01	1.1294	11.879272	0.000466	4.660349	1.578969	-0.000187
 977	9.7112e+01	1.0893	11.669341	0.000527	5.268221	1.784922	-0.000211
 978	9.7212e+01	1.0524	11.495744	0.000436	4.356414	1.475993	-0.000174
 979	9.7311e+01	1.0107	11.305999	0.000476	4.761661	1.613295	-0.000191
 980	9.7410e+01	0.9738	11.120290	0.000466	4.660349	1.578969	-0.000187
 981	9.7510e+01	0.9224	10.946694	0.000436	4.356414	1.475993	-0.000174
 982	9.7609e+01	0.8887	10.740800	0.000517	5.166909	1.750596	-0.000207
 983	9.7709e+01	0.8535	10.518757	0.000557	5.572157	1.887898	-0.000223
 984	9.7808e+01	0.8005	10.365346	0.000385	3.849854	1.304366	-0.000154
 985	9.7908e+01	0.7588	10.183675	0.000456	4.559037	1.544644	-0.000183
 986	9.8007e+01	0.7396	9.985855	0.000496	4.964285	1.681945	-0.000199
 987	9.8107e+01	0.6882	9.755739	0.000577	5.774781	1.956549	-0.000231
 988	9.8207e+01	0.6513	9.630587	0.000314	3.140670	1.064088	-0.000126
 989	9.8306e+01	0.6080	9.408545	0.000557	5.572157	1.887898	-0.000223
 990	9.8406e+01	0.5727	9.202651	0.000517	5.166909	1.750596	-0.000207
 991	9.8505e+01	0.5214	9.037128	0.000415	4.153790	1.407342	-0.000166
 992	9.8605e+01	0.4941	8.847383	0.000476	4.761661	1.613295	-0.000191
 993	9.8704e+01	0.4492	8.633415	0.000537	5.369533	1.819247	-0.000215
 994	9.8803e+01	0.4139	8.451744	0.000456	4.559037	1.544644	-0.000183
 995	9.8903e+01	0.3610	8.278147	0.000436	4.356414	1.475993	-0.000174
 996	9.9002e+01	0.3257	8.088401	0.000476	4.761661	1.613295	-0.000191
 997	9.9102e+01	0.2920	7.898656	0.000476	4.761661	1.613295	-0.000191
 998	9.9201e+01	0.2454	7.696799	0.000507	5.065597	1.716271	-0.000203
 999	9.9301e+01	0.2134	7.519165	0.000446	4.457725	1.510318	-0.000179
1000	9.9400e+01	0.1797	7.301160	0.000547	5.470845	1.853572	-0.000219
1001	9.9500e+01	0.1299	7.095266	0.000517	5.166909	1.750596	-0.000207
1002	9.9600e+01	0.0979	6.925706	0.000426	4.255102	1.441667	-0.000170
1003	9.9699e+01	0.0578	6.715775	0.000527	5.268221	1.784922	-0.000211
1004	9.9799e+01	0.0096	6.521993	0.000486	4.862973	1.647620	-0.000195
1005	9.9898e+01	-0.0160	6.356470	0.000415	4.153790	1.407342	-0.000166
1006	9.9998e+01	-0.0529	6.178836	0.000446	4.457725	1.510318	-0.000179
1007	1.0010e+02	-0.1011	6.001202	0.000446	4.457725	1.510318	-0.000179
1008	1.0020e+02	-0.1380	5.742826	0.000648	6.483964	2.196827	-0.000260
1009	1.0030e+02	-0.1765	5.557117	0.000466	4.660349	1.578969	-0.000187
1010	1.0040e+02	-0.2182	5.355261	0.000507	5.065597	1.716271	-0.000203
1011	1.0050e+02	-0.2599	5.169552	0.000466	4.660349	1.578969	-0.000187
1012	1.0059e+02	-0.3048	4.959621	0.000527	5.268221	1.784922	-0.000211
1013	1.0069e+02	-0.3337	4.745653	0.000537	5.369533	1.819247	-0.000215
1014	1.0079e+02	-0.3786	4.580130	0.000415	4.153790	1.407342	-0.000166
1015	1.0089e+02	-0.4187	4.370199	0.000527	5.268221	1.784922	-0.000211
1016	1.0099e+02	-0.4524	4.152194	0.000547	5.470845	1.853572	-0.000219
1017	1.0109e+02	-0.5021	3.966486	0.000466	4.660349	1.578969	-0.000187
1018	1.0119e+02	-0.5390	3.740406	0.000567	5.673469	1.922223	-0.000227
1019	1.0129e+02	-0.5807	3.558735	0.000456	4.559037	1.544644	-0.000183
1020	1.0139e+02	-0.6128	3.368990	0.000476	4.761661	1.613295	-0.000191
1021	1.0149e+02	-0.6609	3.142910	0.000567	5.673469	1.922223	-0.000227
1022	1.0159e+02	-0.6962	2.957202	0.000466	4.660349	1.578969	-0.000187
1023	1.0169e+02	-0.7331	2.698825	0.000648	6.483964	2.196827	-0.000260
1024	1.0179e+02	-0.7716	2.541377	0.000395	3.951166	1.338691	-0.000158
1025	1.0189e+02	-0.8101	2.335483	0.000517	5.166909	1.750596	-0.000207
1026	1.0199e+02	-0.8599	2.145738	0.000476	4.761661	1.613295	-0.000191
1027	1.0209e+02	-0.8903	1.960029	0.000466	4.660349	1.578969	-0.000187
1028	1.0219e+02	-0.9337	1.705690	0.000638	6.382652	2.162501	-0.000256
1029	1.0229e+02	-0.9770	1.540167	0.000415	4.153790	1.407342	-0.000166
1030	1.0239e+02	-1.0187	1.306013	0.000588	5.876093	1.990874	-0.000235
1031	1.0248e+02	-1.0508	1.088008	0.000547	5.470845	1.853572	-0.000219
1032	1.0258e+02	-1.0957	0.934597	0.000385	3.849854	1.304366	-0.000154
1033	1.0268e+02	-1.1438	0.724666	0.000527	5.268221	1.784922	-0.000211
1034	1.0278e+02	-1.1727	0.486475	0.000598	5.977405	2.025199	-0.000239
1035	1.0288e+02	-1.2160	0.329027	0.000395	3.951166	1.338691	-0.000158
1036	1.0298e+02	-1.2513	0.123133	0.000517	5.166909	1.750596	-0.000207
1037	1.0308e+02	-1.2946	-0.106984	0.000577	5.774781	1.956549	-0.000231
1038	1.0318e+02	-1.3427	-0.296729	0.000476	4.761661	1.613295	-0.000191
1039	1.0328e+02	-1.3812	-0.534920	0.000598	5.977405	2.025199	-0.000239
1040	1.0338e+02	-1.4133	-0.676220	0.000355	3.545918	1.201390	-0.000142
1041	1.0348e+02	-1.4534	-0.918448	0.000608	6.078717	2.059525	-0.000243
1042	1.0358e+02	-1.4951	-1.116268	0.000496	4.964285	1.681945	-0.000199
1043	1.0368e+02	-1.5353	-1.297939	0.000456	4.559037	1.544644	-0.000183
1044	1.0378e+02	-1.5786	-1.499796	0.000507	5.065597	1.716271	-0.000203
1045	1.0388e+02	-1.6187	-1.697616	0.000496	4.964285	1.681945	-0.000199
1046	1.0398e+02	-1.6492	-1.931769	0.000588	5.876093	1.990874	-0.000235
1047	1.0408e+02	-1.6989	-2.077106	0.000365	3.647230	1.235715	-0.000146
1048	1.0418e+02	-1.7422	-2.339520	0.000659	6.585276	2.231152	-0.000264
1049	1.0428e+02	-1.7727	-2.569637	0.000577	5.774781	1.956549	-0.000231
1050	1.0438e+02	-1.8064	-2.674602	0.000263	2.634110	0.892461	-0.000105
1051	1.0447e+02	-1.8513	-2.904719	0.000577	5.774781	1.956549	-0.000231
1052	1.0457e+02	-1.8994	-3.094465	0.000476	4.761661	1.613295	-0.000191
1053	1.0467e+02	-1.9363	-3.328618	0.000588	5.876093	1.990874	-0.000235
1054	1.0477e+02	-1.9716	-3.518364	0.000476	4.761661	1.613295	-0.000191
1055	1.0487e+02	-2.0085	-3.704072	0.000466	4.660349	1.578969	-0.000187
1056	1.0497e+02	-2.0518	-3.926115	0.000557	5.572157	1.887898	-0.000223
1057	1.0507e+02	-2.0871	-4.067414	0.000355	3.545918	1.201390	-0.000142
1058	1.0517e+02	-2.1240	-4.325791	0.000648	6.483964	2.196827	-0.000260
1059	1.0527e+02	-2.1689	-4.515536	0.000476	4.761661	1.613295	-0.000191
1060	1.0537e+02	-2.2106	-4.701245	0.000466	4.660349	1.578969	-0.000187
1061	1.0547e+02	-2.2523	-4.895027	0.000486	4.862973	1.647620	-0.000195
1062	1.0557e+02	-2.2892	-5.088810	0.000486	4.862973	1.647620	-0.000195
1063	1.0567e+02	-2.3326	-5.302778	0.000537	5.369533	1.819247	-0.000215
1064	1.0577e+02	-2.3695	-5.484449	0.000456	4.559037	1.544644	-0.000183
1065	1.0587e+02	-2.4112	-5.678231	0.000486	4.862973	1.647620	-0.000195
1066	1.0597e+02	-2.4529	-5.876051	0.000496	4.964285	1.681945	-0.000199
1067	1.0607e+02	-2.4898	-6.057722	0.000456	4.559037	1.544644	-0.000183
1068	1.0617e+02	-2.5299	-6.223245	0.000415	4.153790	1.407342	-0.000166
1069	1.0627e+02	-2.5732	-6.457399	0.000588	5.876093	1.990874	-0.000235
1070	1.0637e+02	-2.6117	-6.626958	0.000426	4.255102	1.441667	-0.000170
1071	1.0647e+02	-2.6486	-6.840927	0.000537	5.369533	1.819247	-0.000215
1072	1.0656e+02	-2.6935	-7.030672	0.000476	4.761661	1.613295	-0.000191
1073	1.0666e+02	-2.7272	-7.248677	0.000547	5.470845	1.853572	-0.000219
1074	1.0676e+02	-2.7689	-7.389977	0.000355	3.545918	1.201390	-0.000142
1075	1.0686e+02	-2.8122	-7.612019	0.000557	5.572157	1.887898	-0.000223
1076	1.0696e+02	-2.8523	-7.773505	0.000405	4.052478	1.373017	-0.000162
1077	1.0706e+02	-2.8812	-7.959213	0.000466	4.660349	1.578969	-0.000187
1078	1.0716e+02	-2.9277	-8.152996	0.000486	4.862973	1.647620	-0.000195
1079	1.0726e+02	-2.9598	-8.375038	0.000557	5.572157	1.887898	-0.000223
1080	1.0736e+02	-3.0144	-8.532486	0.000395	3.951166	1.338691	-0.000158
1081	1.0746e+02	-3.0448	-8.714157	0.000456	4.559037	1.544644	-0.000183
1082	1.0756e+02	-3.0946	-8.887754	0.000436	4.356414	1.475993	-0.000174
1083	1.0766e+02	-3.1218	-9.093648	0.000517	5.166909	1.750596	-0.000207
1084	1.0776e+02	-3.1732	-9.271282	0.000446	4.457725	1.510318	-0.000179
1085	1.0786e+02	-3.2085	-9.485250	0.000537	5.369533	1.819247	-0.000215
1086	1.0796e+02	-3.2502	-9.626550	0.000355	3.545918	1.201390	-0.000142
1087	1.0806e+02	-3.2887	-9.848593	0.000557	5.572157	1.887898	-0.000223
1088	1.0816e+02	-3.3384	-10.030264	0.000456	4.559037	1.544644	-0.000183
1089	1.0826e+02	-3.3657	-10.203861	0.000436	4.356414	1.475993	-0.000174
1090	1.0836e+02	-3.4058	-10.385532	0.000456	4.559037	1.544644	-0.000183
1091	1.0845e+02	-3.4459	-10.571240	0.000466	4.660349	1.578969	-0.000187
1092	1.0855e+02	-3.4860	-10.728688	0.000395	3.951166	1.338691	-0.000158
1093	1.0865e+02	-3.5245	-10.934582	0.000517	5.166909	1.750596	-0.000207
1094	1.0875e+02	-3.5598	-11.148550	0.000537	5.369533	1.819247	-0.000215
1095	1.0885e+02	-3.6127	-11.330221	0.000456	4.559037	1.544644	-0.000183
1096	1.0895e+02	-3.6544	-11.455373	0.000314	3.140670	1.064088	-0.000126
1097	1.0905e+02	-3.6817	-11.661267	0.000517	5.166909	1.750596	-0.000207
1098	1.0915e+02	-3.7218	-11.810641	0.000375	3.748542	1.270040	-0.000150
1099	1.0925e+02	-3.7539	-12.004423	0.000486	4.862973	1.647620	-0.000195
1100	1.0935e+02	-3.8036	-12.210317	0.000517	5.166909	1.750596	-0.000207
1101	1.0945e+02	-3.8550	-12.319320	0.000274	2.735422	0.926786	-0.000110
1102	1.0955e+02	-3.8855	-12.533288	0.000537	5.369533	1.819247	-0.000215
1103	1.0965e+02	-3.9256	-12.686699	0.000385	3.849854	1.304366	-0.000154
1104	1.0975e+02	-3.9657	-12.892593	0.000517	5.166909	1.750596	-0.000207
1105	1.0985e+02	-4.0058	-13.078301	0.000466	4.660349	1.578969	-0.000187
1106	1.0995e+02	-4.0539	-13.272084	0.000486	4.862973	1.647620	-0.000195
1107	1.1005e+02	-4.0860	-13.401272	0.000324	3.241982	1.098413	-0.000130
1108	1.1015e+02	-4.1277	-13.615240	0.000537	5.369533	1.819247	-0.000215
1109	1.1025e+02	-4.1646	-13.752503	0.000344	3.444606	1.167064	-0.000138
1110	1.1035e+02	-4.2031	-13.905914	0.000385	3.849854	1.304366	-0.000154
1111	1.1044e+02	-4.2448	-14.111808	0.000517	5.166909	1.750596	-0.000207
1112	1.1054e+02	-4.2977	-14.305590	0.000486	4.862973	1.647620	-0.000195
1113	1.1064e+02	-4.3298	-14.495336	0.000476	4.761661	1.613295	-0.000191
1114	1.1074e+02	-4.3603	-14.632598	0.000344	3.444606	1.167064	-0.000138
1115	1.1084e+02	-4.4068	-14.818307	0.000466	4.660349	1.578969	-0.000187
1116	1.1094e+02	-4.4453	-14.999978	0.000456	4.559037	1.544644	-0.000183
1117	1.1104e+02	-4.4822	-15.153389	0.000385	3.849854	1.304366	-0.000154
1118	1.1114e+02	-4.5271	-15.294689	0.000355	3.545918	1.201390	-0.000142
1119	1.1124e+02	-4.5656	-15.516731	0.000557	5.572157	1.887898	-0.000223
1120	1.1134e+02	-4.6041	-15.674180	0.000395	3.951166	1.338691	-0.000158
1121	1.1144e+02	-4.6362	-15.847776	0.000436	4.356414	1.475993	-0.000174
1122	1.1154e+02	-4.6860	-15.985039	0.000344	3.444606	1.167064	-0.000138
1123	1.1164e+02	-4.7164	-16.174784	0.000476	4.761661	1.613295	-0.000191
1124	1.1174e+02	-4.7678	-16.356455	0.000456	4.559037	1.544644	-0.000183
1125	1.1184e+02	-4.7983	-16.501792	0.000365	3.647230	1.235715	-0.000146
1126	1.1194e+02	-4.8464	-16.663278	0.000405	4.052478	1.373017	-0.000162
1127	1.1204e+02	-4.8865	-16.881283	0.000547	5.470845	1.853572	-0.000219
1128	1.1214e+02	-4.9266	-17.010471	0.000324	3.241982	1.098413	-0.000130
1129	1.1224e+02	-4.9571	-17.188105	0.000446	4.457725	1.510318	-0.000179
1130	1.1234e+02	-4.9956	-17.381888	0.000486	4.862973	1.647620	-0.000195
1131	1.1244e+02	-5.0453	-17.539336	0.000395	3.951166	1.338691	-0.000158
1132	1.1253e+02	-5.0790	-17.696785	0.000395	3.951166	1.338691	-0.000158
1133	1.1263e+02	-5.1143	-17.882493	0.000466	4.660349	1.578969	-0.000187
1134	1.1273e+02	-5.1704	-18.039941	0.000395	3.951166	1.338691	-0.000158
1135	1.1283e+02	-5.2009	-18.213538	0.000436	4.356414	1.475993	-0.000174
1136	1.1293e+02	-5.2378	-18.375023	0.000405	4.052478	1.373017	-0.000162
1137	1.1303e+02	-5.2827	-18.576880	0.000507	5.065597	1.716271	-0.000203
1138	1.1313e+02	-5.3116	-18.693957	0.000294	2.938046	0.995437	-0.000118
1139	1.1323e+02	-5.3533	-18.891777	0.000496	4.964285	1.681945	-0.000199
1140	1.1333e+02	-5.4047	-19.033076	0.000355	3.545918	1.201390	-0.000142
1141	1.1343e+02	-5.4351	-19.206673	0.000436	4.356414	1.475993	-0.000174
1142	1.1353e+02	-5.4769	-19.376233	0.000426	4.255102	1.441667	-0.000170
1143	1.1363e+02	-5.5154	-19.545793	0.000426	4.255102	1.441667	-0.000170
1144	1.1373e+02	-5.5571	-19.727464	0.000456	4.559037	1.544644	-0.000183
1145	1.1383e+02	-5.5972	-19.852615	0.000314	3.140670	1.064088	-0.000126
1146	1.1393e+02	-5.6405	-20.042360	0.000476	4.761661	1.613295	-0.000191
1147	1.1403e+02	-5.6726	-20.232106	0.000476	4.761661	1.613295	-0.000191
1148	1.1413e+02	-5.7111	-20.401665	0.000426	4.255102	1.441667	-0.000170
1149	1.1423e+02	-5.7576	-20.547002	0.000365	3.647230	1.235715	-0.000146
1150	1.1433e+02	-5.8025	-20.704451	0.000395	3.951166	1.338691	-0.000158
1151	1.1442e+02	-5.8298	-20.869973	0.000415	4.153790	1.407342	-0.000166
1152	1.1452e+02	-5.8763	-21.051644	0.000456	4.559037	1.544644	-0.000183
1153	1.1462e+02	-5.9196	-21.225241	0.000436	4.356414	1.475993	-0.000174
1154	1.1472e+02	-5.9581	-21.370578	0.000365	3.647230	1.235715	-0.000146
1155	1.1482e+02	-6.0014	-21.540138	0.000426	4.255102	1.441667	-0.000170
1156	1.1492e+02	-6.0415	-21.673363	0.000334	3.343294	1.132739	-0.000134
1157	1.1502e+02	-6.0672	-21.855034	0.000456	4.559037	1.544644	-0.000183
1158	1.1512e+02	-6.1137	-22.020557	0.000415	4.153790	1.407342	-0.000166
1159	1.1522e+02	-6.1635	-22.141671	0.000304	3.039358	1.029762	-0.000122
1160	1.1532e+02	-6.1955	-22.331416	0.000476	4.761661	1.613295	-0.000191
1161	1.1542e+02	-6.2324	-22.480790	0.000375	3.748542	1.270040	-0.000150
1162	1.1552e+02	-6.2742	-22.670536	0.000476	4.761661	1.613295	-0.000191
1163	1.1562e+02	-6.3094	-22.803761	0.000334	3.343294	1.132739	-0.000134
1164	1.1572e+02	-6.3512	-23.013692	0.000527	5.268221	1.784922	-0.000211
1165	1.1582e+02	-6.4025	-23.150955	0.000344	3.444606	1.167064	-0.000138
1166	1.1592e+02	-6.4346	-23.328589	0.000446	4.457725	1.510318	-0.000179
1167	1.1602e+02	-6.4699	-23.494111	0.000415	4.153790	1.407342	-0.000166
1168	1.1612e+02	-6.5100	-23.627337	0.000334	3.343294	1.132739	-0.000134
1169	1.1622e+02	-6.5549	-23.792859	0.000415	4.153790	1.407342	-0.000166
1170	1.1632e+02	-6.5822	-23.930122	0.000344	3.444606	1.167064	-0.000138
1171	1.1642e+02	-6.6239	-24.079496	0.000375	3.748542	1.270040	-0.000150
1172	1.1651e+02	-6.6768	-24.253093	0.000436	4.356414	1.475993	-0.000174
1173	1.1661e+02	-6.7105	-24.418616	0.000415	4.153790	1.407342	-0.000166
1174	1.1671e+02	-6.7538	-24.608361	0.000476	4.761661	1.613295	-0.000191
1175	1.1681e+02	-6.7875	-24.761772	0.000385	3.849854	1.304366	-0.000154
1176	1.1691e+02	-6.8324	-24.923257	0.000405	4.052478	1.373017	-0.000162
1177	1.1701e+02	-6.8709	-25.044372	0.000304	3.039358	1.029762	-0.000122
1178	1.1711e+02	-6.9078	-25.226043	0.000456	4.559037	1.544644	-0.000183
1179	1.1721e+02	-6.9527	-25.383491	0.000395	3.951166	1.338691	-0.000158
1180	1.1731e+02	-6.9864	-25.516716	0.000334	3.343294	1.132739	-0.000134
1181	1.1741e+02	-7.0330	-25.694350	0.000446	4.457725	1.510318	-0.000179
1182	1.1751e+02	-7.0618	-25.880059	0.000466	4.660349	1.578969	-0.000187
1183	1.1761e+02	-7.1132	-26.001173	0.000304	3.039358	1.029762	-0.000122
1184	1.1771e+02	-7.1485	-26.174770	0.000436	4.356414	1.475993	-0.000174
1185	1.1781e+02	-7.1950	-26.372589	0.000496	4.964285	1.681945	-0.000199
1186	1.1791e+02	-7.2255	-26.513889	0.000355	3.545918	1.201390	-0.000142
1187	1.1801e+02	-7.2720	-26.679412	0.000415	4.153790	1.407342	-0.000166
1188	1.1811e+02	-7.3153	-26.832823	0.000385	3.849854	1.304366	-0.000154
1189	1.1821e+02	-7.3474	-26.978160	0.000365	3.647230	1.235715	-0.000146
1190	1.1831e+02	-7.3971	-27.115422	0.000344	3.444606	1.167064	-0.000138
1191	1.1841e+02	-7.4308	-27.341502	0.000567	5.673469	1.922223	-0.000227
1192	1.1850e+02	-7.4629	-27.470690	0.000324	3.241982	1.098413	-0.000130
1193	1.1860e+02	-7.5174	-27.624101	0.000385	3.849854	1.304366	-0.000154
1194	1.1870e+02	-7.5431	-27.741178	0.000294	2.938046	0.995437	-0.000118
1195	1.1880e+02	-7.5880	-27.987444	0.000618	6.180028	2.093850	-0.000248
1196	1.1890e+02	-7.6329	-28.104520	0.000294	2.938046	0.995437	-0.000118
1197	1.1900e+02	-7.6746	-28.270043	0.000415	4.153790	1.407342	-0.000166
1198	1.1910e+02	-7.7067	-28.411343	0.000355	3.545918	1.201390	-0.000142
1199	1.1920e+02	-7.7420	-28.576865	0.000415	4.153790	1.407342	-0.000166
1200	1.1930e+02	-7.7805	-28.702017	0.000314	3.140670	1.064088	-0.000126
1201	1.1940e+02	-7.8222	-28.891762	0.000476	4.761661	1.613295	-0.000191
1202	1.1950e+02	-7.8656	-29.053247	0.000405	4.052478	1.373017	-0.000162
1203	1.1960e+02	-7.9073	-29.178399	0.000314	3.140670	1.064088	-0.000126
1204	1.1970e+02	-7.9426	-29.339884	0.000405	4.052478	1.373017	-0.000162
1205	1.1980e+02	-7.9827	-29.493295	0.000385	3.849854	1.304366	-0.000154
1206	1.1990e+02	-8.0147	-29.646706	0.000385	3.849854	1.304366	-0.000154
1207	1.2000e+02	-8.0709	-29.808192	0.000405	4.052478	1.373017	-0.000162
1208	1.2010e+02	-8.1046	-29.953529	0.000365	3.647230	1.235715	-0.000146
1209	1.2020e+02	-8.1383	-30.147311	0.000486	4.862973	1.647620	-0.000195
1210	1.2030e+02	-8.1832	-30.256314	0.000274	2.735422	0.926786	-0.000110
1211	1.2039e+02	-8.2233	-30.417799	0.000405	4.052478	1.373017	-0.000162
1212	1.2049e+02	-8.2650	-30.615619	0.000496	4.964285	1.681945	-0.000199
1213	1.2059e+02	-8.3099	-30.764993	0.000375	3.748542	1.270040	-0.000150
1214	1.2069e+02	-8.3484	-30.873996	0.000274	2.735422	0.926786	-0.000110
1215	1.2079e+02	-8.3821	-31.023370	0.000375	3.748542	1.270040	-0.000150
1216	1.2089e+02	-8.4270	-31.144484	0.000304	3.039358	1.029762	-0.000122
1217	1.2099e+02	-8.4575	-31.322118	0.000446	4.457725	1.510318	-0.000179
1218	1.2109e+02	-8.5008	-31.491677	0.000426	4.255102	1.441667	-0.000170
1219	1.2119e+02	-8.5441	-31.628940	0.000344	3.444606	1.167064	-0.000138
1220	1.2129e+02	-8.5778	-31.798500	0.000426	4.255102	1.441667	-0.000170
1221	1.2139e+02	-8.6308	-31.931725	0.000334	3.343294	1.132739	-0.000134
1222	1.2149e+02	-8.6677	-32.056876	0.000314	3.140670	1.064088	-0.000126
1223	1.2159e+02	-8.7046	-32.270845	0.000537	5.369533	1.819247	-0.000215
1224	1.2169e+02	-8.7399	-32.395996	0.000314	3.140670	1.064088	-0.000126
1225	1.2179e+02	-8.7816	-32.509036	0.000284	2.836734	0.961112	-0.000114
1226	1.2189e+02	-8.8169	-32.698781	0.000476	4.761661	1.613295	-0.000191
1227	1.2199e+02	-8.8586	-32.807784	0.000274	2.735422	0.926786	-0.000110
1228	1.2209e+02	-8.9099	-32.965232	0.000395	3.951166	1.338691	-0.000158
1229	1.2219e+02	-8.9500	-33.094420	0.000324	3.241982	1.098413	-0.000130
1230	1.2229e+02	-8.9837	-33.255906	0.000405	4.052478	1.373017	-0.000162
1231	1.2239e+02	-9.0318	-33.381057	0.000314	3.140670	1.064088	-0.000126
1232	1.2248e+02	-9.0703	-33.590988	0.000527	5.268221	1.784922	-0.000211
1233	1.2258e+02	-9.1056	-33.695953	0.000263	2.634110	0.892461	-0.000105
1234	1.2268e+02	-9.1345	-33.821105	0.000314	3.140670	1.064088	-0.000126
1235	1.2278e+02	-9.1874	-33.978553	0.000395	3.951166	1.338691	-0.000158
1236	1.2288e+02	-9.2308	-34.127927	0.000375	3.748542	1.270040	-0.000150
1237	1.2298e+02	-9.2693	-34.293450	0.000415	4.153790	1.407342	-0.000166
1238	1.2308e+02	-9.2949	-34.418601	0.000314	3.140670	1.064088	-0.000126
1239	1.2318e+02	-9.3431	-34.600272	0.000456	4.559037	1.544644	-0.000183
1240	1.2328e+02	-9.3767	-34.713312	0.000284	2.836734	0.961112	-0.000114
1241	1.2338e+02	-9.4233	-34.866723	0.000385	3.849854	1.304366	-0.000154
1242	1.2348e+02	-9.4618	-35.012060	0.000365	3.647230	1.235715	-0.000146
1243	1.2358e+02	-9.5019	-35.169508	0.000395	3.951166	1.338691	-0.000158
1244	1.2368e+02	-9.5356	-35.266399	0.000243	2.431487	0.823810	-0.000097
1245	1.2378e+02	-9.5837	-35.464219	0.000496	4.964285	1.681945	-0.000199
1246	1.2388e+02	-9.6174	-35.581296	0.000294	2.938046	0.995437	-0.000118
1247	1.2398e+02	-9.6703	-35.730670	0.000375	3.748542	1.270040	-0.000150
1248	1.2408e+02	-9.7056	-35.867932	0.000344	3.444606	1.167064	-0.000138
1249	1.2418e+02	-9.7361	-36.021344	0.000385	3.849854	1.304366	-0.000154
1250	1.2428e+02	-9.7794	-36.154569	0.000334	3.343294	1.132739	-0.000134
1251	1.2438e+02	-9.8259	-36.316055	0.000405	4.052478	1.373017	-0.000162
1252	1.2447e+02	-9.8564	-36.421020	0.000263	2.634110	0.892461	-0.000105
1253	1.2457e+02	-9.8917	-36.590580	0.000426	4.255102	1.441667	-0.000170
1254	1.2467e+02	-9.9414	-36.735917	0.000365	3.647230	1.235715	-0.000146
1255	1.2477e+02	-9.9799	-36.877216	0.000355	3.545918	1.201390	-0.000142
1256	1.2487e+02	-10.0184	-37.050813	0.000436	4.356414	1.475993	-0.000174
1257	1.2497e+02	-10.0617	-37.131556	0.000203	2.026239	0.686508	-0.000081
1258	1.2507e+02	-10.1019	-37.309190	0.000446	4.457725	1.510318	-0.000179
1259	1.2517e+02	-10.1468	-37.430304	0.000304	3.039358	1.029762	-0.000122
1260	1.2527e+02	-10.1869	-37.583715	0.000385	3.849854	1.304366	-0.000154
1261	1.2537e+02	-10.2206	-37.733089	0.000375	3.748542	1.270040	-0.000150
1262	1.2547e+02	-10.2607	-37.890537	0.000395	3.951166	1.338691	-0.000158
1263	1.2557e+02	-10.3008	-38.019726	0.000324	3.241982	1.098413	-0.000130
1264	1.2567e+02	-10.3409	-38.148914	0.000324	3.241982	1.098413	-0.000130
1265	1.2577e+02	-10.3698	-38.249843	0.000253	2.532799	0.858135	-0.000101
1266	1.2587e+02	-10.4211	-38.387105	0.000344	3.444606	1.167064	-0.000138
1267	1.2597e+02	-10.4564	-38.536479	0.000375	3.748542	1.270040	-0.000150
1268	1.2607e+02	-10.4949	-38.693927	0.000395	3.951166	1.338691	-0.000158
1269	1.2617e+02	-10.5302	-38.839264	0.000365	3.647230	1.235715	-0.000146
1270	1.2627e+02	-10.5799	-38.968453	0.000324	3.241982	1.098413	-0.000130
1271	1.2636e+02	-10.6248	-39.125901	0.000395	3.951166	1.338691	-0.000158
1272	1.2646e+02	-10.6569	-39.267201	0.000355	3.545918	1.201390	-0.000142
1273	1.2656e+02	-10.6986	-39.392352	0.000314	3.140670	1.064088	-0.000126
1274	1.2666e+02	-10.7403	-39.537689	0.000365	3.647230	1.235715	-0.000146
1275	1.2676e+02	-10.7756	-39.678989	0.000355	3.545918	1.201390	-0.000142
1276	1.2686e+02	-10.8109	-39.787991	0.000274	2.735422	0.926786	-0.000110
1277	1.2696e+02	-10.8526	-39.969662	0.000456	4.559037	1.544644	-0.000183
1278	1.2706e+02	-10.9008	-40.078665	0.000274	2.735422	0.926786	-0.000110
1279	1.2716e+02	-10.9296	-40.199779	0.000304	3.039358	1.029762	-0.000122
1280	1.2726e+02	-10.9874	-40.361265	0.000405	4.052478	1.373017	-0.000162
1281	1.2736e+02	-11.0179	-40.490453	0.000324	3.241982	1.098413	-0.000130
1282	1.2746e+02	-11.0580	-40.623678	0.000334	3.343294	1.132739	-0.000134
1283	1.2756e+02	-11.0997	-40.744792	0.000304	3.039358	1.029762	-0.000122
1284	1.2766e+02	-11.1414	-40.914352	0.000426	4.255102	1.441667	-0.000170
1285	1.2776e+02	-11.1847	-41.007206	0.000233	2.330175	0.789485	-0.000093
1286	1.2786e+02	-11.2152	-41.160617	0.000385	3.849854	1.304366	-0.000154
1287	1.2796e+02	-11.2553	-41.309991	0.000375	3.748542	1.270040	-0.000150
1288	1.2806e+02	-11.2906	-41.455328	0.000365	3.647230	1.235715	-0.000146
1289	1.2816e+02	-11.3259	-41.616814	0.000405	4.052478	1.373017	-0.000162
1290	1.2826e+02	-11.3740	-41.729854	0.000284	2.836734	0.961112	-0.000114
1291	1.2835e+02	-11.4173	-41.838856	0.000274	2.735422	0.926786	-0.000110
1292	1.2845e+02	-11.4478	-42.004379	0.000415	4.153790	1.407342	-0.000166
1293	1.2855e+02	-11.4911	-42.105307	0.000253	2.532799	0.858135	-0.000101
1294	1.2865e+02	-11.5344	-42.295053	0.000476	4.761661	1.613295	-0.000191
1295	1.2875e+02	-11.5761	-42.391944	0.000243	2.431487	0.823810	-0.000097
1296	1.2885e+02	-11.6162	-42.557466	0.000415	4.153790	1.407342	-0.000166
1297	1.2895e+02	-11.6515	-42.674543	0.000294	2.938046	0.995437	-0.000118
1298	1.2905e+02	-11.6884	-42.811806	0.000344	3.444606	1.167064	-0.000138
1299	1.2915e+02	-11.7366	-42.949069	0.000344	3.444606	1.167064	-0.000138
1300	1.2925e+02	-11.7622	-43.098443	0.000375	3.748542	1.270040	-0.000150
1301	1.2935e+02	-11.8088	-43.215520	0.000294	2.938046	0.995437	-0.000118
1302	1.2945e+02	-11.8473	-43.368931	0.000385	3.849854	1.304366	-0.000154
1303	1.2955e+02	-11.9002	-43.481970	0.000284	2.836734	0.961112	-0.000114
1304	1.2965e+02	-11.9339	-43.667679	0.000466	4.660349	1.578969	-0.000187
1305	1.2975e+02	-11.9740	-43.756496	0.000223	2.228863	0.755159	-0.000089
1306	1.2985e+02	-12.0173	-43.905870	0.000375	3.748542	1.270040	-0.000150
1307	1.2995e+02	-12.0462	-44.035058	0.000324	3.241982	1.098413	-0.000130
1308	1.3005e+02	-12.0943	-44.220766	0.000466	4.660349	1.578969	-0.000187
1309	1.3015e+02	-12.1312	-44.301509	0.000203	2.026239	0.686508	-0.000081
1310	1.3025e+02	-12.1761	-44.406475	0.000263	2.634110	0.892461	-0.000105
1311	1.3034e+02	-12.2114	-44.584109	0.000446	4.457725	1.510318	-0.000179
1312	1.3044e+02	-12.2499	-44.733483	0.000375	3.748542	1.270040	-0.000150
1313	1.3054e+02	-12.2964	-44.870745	0.000344	3.444606	1.167064	-0.000138
1314	1.3064e+02	-12.3333	-45.012045	0.000355	3.545918	1.201390	-0.000142
1315	1.3074e+02	-12.3734	-45.137196	0.000314	3.140670	1.064088	-0.000126
1316	1.3084e+02	-12.4152	-45.274459	0.000344	3.444606	1.167064	-0.000138
1317	1.3094e+02	-12.4488	-45.383461	0.000274	2.735422	0.926786	-0.000110
1318	1.3104e+02	-12.4809	-45.577244	0.000486	4.862973	1.647620	-0.000195
1319	1.3114e+02	-12.5307	-45.645875	0.000172	1.722303	0.583532	-0.000069
1320	1.3124e+02	-12.5676	-45.847732	0.000507	5.065597	1.716271	-0.000203
1321	1.3134e+02	-12.6029	-45.964809	0.000294	2.938046	0.995437	-0.000118
1322	1.3144e+02	-12.6558	-46.130332	0.000415	4.153790	1.407342	-0.000166
1323	1.3154e+02	-12.6879	-46.190889	0.000152	1.519679	0.514881	-0.000061
1324	1.3164e+02	-12.7296	-46.364485	0.000436	4.356414	1.475993	-0.000174
1325	1.3174e+02	-12.7697	-46.497711	0.000334	3.343294	1.132739	-0.000134
1326	1.3184e+02	-12.8114	-46.622862	0.000314	3.140670	1.064088	-0.000126
1327	1.3194e+02	-12.8483	-46.772236	0.000375	3.748542	1.270040	-0.000150
1328	1.3204e+02	-12.8948	-46.913536	0.000355	3.545918	1.201390	-0.000142
1329	1.3214e+02	-12.9333	-47.002353	0.000223	2.228863	0.755159	-0.000089
1330	1.3224e+02	-12.9670	-47.163838	0.000405	4.052478	1.373017	-0.000162
1331	1.3234e+02	-13.0071	-47.317249	0.000385	3.849854	1.304366	-0.000154
1332	1.3243e+02	-13.0408	-47.422215	0.000263	2.634110	0.892461	-0.000105
1333	1.3253e+02	-13.0809	-47.551403	0.000324	3.241982	1.098413	-0.000130
1334	1.3263e+02	-13.1258	-47.708852	0.000395	3.951166	1.338691	-0.000158
1335	1.3273e+02	-13.1659	-47.854188	0.000365	3.647230	1.235715	-0.000146
1336	1.3283e+02	-13.2060	-47.983377	0.000324	3.241982	1.098413	-0.000130
1337	1.3293e+02	-13.2510	-48.084305	0.000253	2.532799	0.858135	-0.000101
1338	1.3303e+02	-13.2782	-48.229642	0.000365	3.647230	1.235715	-0.000146
1339	1.3313e+02	-13.3183	-48.387090	0.000395	3.951166	1.338691	-0.000158
1340	1.3323e+02	-13.3665	-48.544539	0.000395	3.951166	1.338691	-0.000158
1341	1.3333e+02	-13.4050	-48.657578	0.000284	2.836734	0.961112	-0.000114
1342	1.3343e+02	-13.4531	-48.786767	0.000324	3.241982	1.098413	-0.000130
1343	1.3353e+02	-13.4900	-48.956327	0.000426	4.255102	1.441667	-0.000170
1344	1.3363e+02	-13.5173	-49.012846	0.000142	1.418367	0.480556	-0.000057
1345	1.3373e+02	-13.5654	-49.154146	0.000355	3.545918	1.201390	-0.000142
1346	1.3383e+02	-13.6151	-49.263149	0.000274	2.735422	0.926786	-0.000110
1347	1.3393e+02	-13.6392	-49.485191	0.000557	5.572157	1.887898	-0.000223
1348	1.3403e+02	-13.6793	-49.602268	0.000294	2.938046	0.995437	-0.000118
1349	1.3413e+02	-13.7274	-49.715308	0.000284	2.836734	0.961112	-0.000114
1350	1.3423e+02	-13.7579	-49.896979	0.000456	4.559037	1.544644	-0.000183
1351	1.3432e+02	-13.8076	-49.965610	0.000172	1.722303	0.583532	-0.000069
1352	1.3442e+02	-13.8526	-50.131133	0.000415	4.153790	1.407342	-0.000166
1353	1.3452e+02	-13.8766	-50.256284	0.000314	3.140670	1.064088	-0.000126
1354	1.3462e+02	-13.9328	-50.377398	0.000304	3.039358	1.029762	-0.000122
1355	1.3472e+02	-13.9648	-50.530809	0.000385	3.849854	1.304366	-0.000154
1356	1.3482e+02	-13.9985	-50.672109	0.000355	3.545918	1.201390	-0.000142
1357	1.3492e+02	-14.0402	-50.801298	0.000324	3.241982	1.098413	-0.000130
1358	1.3502e+02	-14.0820	-50.934523	0.000334	3.343294	1.132739	-0.000134
1359	1.3512e+02	-14.1317	-51.063711	0.000324	3.241982	1.098413	-0.000130
1360	1.3522e+02	-14.1686	-51.213085	0.000375	3.748542	1.270040	-0.000150
1361	1.3532e+02	-14.2055	-51.326125	0.000284	2.836734	0.961112	-0.000114
1362	1.3542e+02	-14.2456	-51.463388	0.000344	3.444606	1.167064	-0.000138
1363	1.3552e+02	-14.2905	-51.600650	0.000344	3.444606	1.167064	-0.000138
1364	1.3562e+02	-14.3146	-51.721765	0.000304	3.039358	1.029762	-0.000122
1365	1.3572e+02	-14.3627	-51.875176	0.000385	3.849854	1.304366	-0.000154
1366	1.3582e+02	-14.4076	-52.020513	0.000365	3.647230	1.235715	-0.000146
1367	1.3592e+02	-14.4461	-52.137589	0.000294	2.938046	0.995437	-0.000118
1368	1.3602e+02	-14.4878	-52.258704	0.000304	3.039358	1.029762	-0.000122
1369	1.3612e+02	-14.5279	-52.408078	0.000375	3.748542	1.270040	-0.000150
1370	1.3622e+02	-14.5616	-52.557452	0.000375	3.748542	1.270040	-0.000150
1371	1.3631e+02	-14.6017	-52.670491	0.000284	2.836734	0.961112	-0.000114
1372	1.3641e+02	-14.6338	-52.844088	0.000436	4.356414	1.475993	-0.000174
1373	1.3651e+02	-14.6771	-52.928868	0.000213	2.127551	0.720834	-0.000085
1374	1.3661e+02	-14.7172	-53.066131	0.000344	3.444606	1.167064	-0.000138
1375	1.3671e+02	-14.7605	-53.219542	0.000385	3.849854	1.304366	-0.000154
1376	1.3681e+02	-14.8007	-53.356804	0.000344	3.444606	1.167064	-0.000138
1377	1.3691e+02	-14.8392	-53.485993	0.000324	3.241982	1.098413	-0.000130
1378	1.3701e+02	-14.8793	-53.635367	0.000375	3.748542	1.270040	-0.000150
1379	1.3711e+02	-14.9242	-53.752444	0.000294	2.938046	0.995437	-0.000118
1380	1.3721e+02	-14.9643	-53.901818	0.000375	3.748542	1.270040	-0.000150
1381	1.3731e+02	-14.9996	-54.063303	0.000405	4.052478	1.373017	-0.000162
1382	1.3741e+02	-15.0477	-54.164232	0.000253	2.532799	0.858135	-0.000101
1383	1.3751e+02	-15.0782	-54.333791	0.000426	4.255102	1.441667	-0.000170
1384	1.3761e+02	-15.1167	-54.438757	0.000263	2.634110	0.892461	-0.000105
1385	1.3771e+02	-15.1584	-54.571982	0.000334	3.343294	1.132739	-0.000134
1386	1.3781e+02	-15.1953	-54.737505	0.000415	4.153790	1.407342	-0.000166
1387	1.3791e+02	-15.2450	-54.870730	0.000334	3.343294	1.132739	-0.000134
1388	1.3801e+02	-15.2787	-54.983770	0.000284	2.836734	0.961112	-0.000114
1389	1.3811e+02	-15.3204	-55.121033	0.000344	3.444606	1.167064	-0.000138
1390	1.3821e+02	-15.3509	-55.290593	0.000426	4.255102	1.441667	-0.000170
1391	1.3831e+02	-15.3990	-55.439967	0.000375	3.748542	1.270040	-0.000150
1392	1.3840e+02	-15.4375	-55.565118	0.000314	3.140670	1.064088	-0.000126
1393	1.3850e+02	-15.4760	-55.710455	0.000365	3.647230	1.235715	-0.000146
1394	1.3860e+02	-15.5226	-55.855792	0.000365	3.647230	1.235715	-0.000146
1395	1.3870e+02	-15.5578	-55.976906	0.000304	3.039358	1.029762	-0.000122
1396	1.3880e+02	-15.6044	-56.126280	0.000375	3.748542	1.270040	-0.000150
1397	1.3890e+02	-15.6365	-56.239319	0.000284	2.836734	0.961112	-0.000114
1398	1.3900e+02	-15.6734	-56.416953	0.000446	4.457725	1.510318	-0.000179
1399	1.3910e+02	-15.7231	-56.546142	0.000324	3.241982	1.098413	-0.000130
1400	1.3920e+02	-15.7471	-56.699553	0.000385	3.849854	1.304366	-0.000154
1401	1.3930e+02	-15.7873	-56.848927	0.000375	3.748542	1.270040	-0.000150
1402	1.3940e+02	-15.8386	-57.006375	0.000395	3.951166	1.338691	-0.000158
1403	1.3950e+02	-15.8707	-57.095192	0.000223	2.228863	0.755159	-0.000089
1404	1.3960e+02	-15.9252	-57.288975	0.000486	4.862973	1.647620	-0.000195
1405	1.3970e+02	-15.9541	-57.414126	0.000314	3.140670	1.064088	-0.000126
1406	1.3980e+02	-15.9990	-57.551389	0.000344	3.444606	1.167064	-0.000138
1407	1.3990e+02	-16.0407	-57.708837	0.000395	3.951166	1.338691	-0.000158
1408	1.4000e+02	-16.0712	-57.850137	0.000355	3.545918	1.201390	-0.000142
1409	1.4010e+02	-16.1177	-58.007585	0.000395	3.951166	1.338691	-0.000158
1410	1.4020e+02	-16.1610	-58.156959	0.000375	3.748542	1.270040	-0.000150
1411	1.4029e+02	-16.1979	-58.294221	0.000344	3.444606	1.167064	-0.000138
1412	1.4039e+02	-16.2332	-58.447633	0.000385	3.849854	1.304366	-0.000154
1413	1.4049e+02	-16.2814	-58.617192	0.000426	4.255102	1.441667	-0.000170
1414	1.4059e+02	-16.3070	-58.766566	0.000375	3.748542	1.270040	-0.000150
1415	1.4069e+02	-16.3584	-58.932089	0.000415	4.153790	1.407342	-0.000166
1416	1.4079e+02	-16.3937	-59.037054	0.000263	2.634110	0.892461	-0.000105
1417	1.4089e+02	-16.4386	-59.226800	0.000476	4.761661	1.613295	-0.000191
1418	1.4099e+02	-16.4787	-59.360025	0.000334	3.343294	1.132739	-0.000134
1419	1.4109e+02	-16.5172	-59.513436	0.000385	3.849854	1.304366	-0.000154
1420	1.4119e+02	-16.5685	-59.666848	0.000385	3.849854	1.304366	-0.000154
1421	1.4129e+02	-16.5926	-59.812185	0.000365	3.647230	1.235715	-0.000146
1422	1.4139e+02	-16.6407	-59.949447	0.000344	3.444606	1.167064	-0.000138
1423	1.4149e+02	-16.6728	-60.123044	0.000436	4.356414	1.475993	-0.000174
1424	1.4159e+02	-16.7049	-60.256269	0.000334	3.343294	1.132739	-0.000134
1425	1.4169e+02	-16.7546	-60.446015	0.000476	4.761661	1.613295	-0.000191
1426	1.4179e+02	-16.7851	-60.571166	0.000314	3.140670	1.064088	-0.000126
1427	1.4189e+02	-16.8348	-60.732651	0.000405	4.052478	1.373017	-0.000162
1428	1.4199e+02	-16.8797	-60.898174	0.000415	4.153790	1.407342	-0.000166
1429	1.4209e+02	-16.9134	-61.055622	0.000395	3.951166	1.338691	-0.000158
1430	1.4219e+02	-16.9487	-61.204996	0.000375	3.748542	1.270040	-0.000150
1431	1.4228e+02	-16.9904	-61.354370	0.000375	3.748542	1.270040	-0.000150
1432	1.4238e+02	-17.0241	-61.527967	0.000436	4.356414	1.475993	-0.000174
1433	1.4248e+02	-17.0738	-61.685416	0.000395	3.951166	1.338691	-0.000158
1434	1.4258e+02	-17.1172	-61.863049	0.000446	4.457725	1.510318	-0.000179
1435	1.4268e+02	-17.1460	-61.992238	0.000324	3.241982	1.098413	-0.000130
1436	1.4278e+02	-17.1942	-62.169872	0.000446	4.457725	1.510318	-0.000179
1437	1.4288e+02	-17.2343	-62.327320	0.000395	3.951166	1.338691	-0.000158
1438	1.4298e+02	-17.2760	-62.436323	0.000274	2.735422	0.926786	-0.000110
1439	1.4308e+02	-17.3161	-62.694699	0.000648	6.483964	2.196827	-0.000260
1440	1.4318e+02	-17.3498	-62.783516	0.000223	2.228863	0.755159	-0.000089
1441	1.4328e+02	-17.3963	-62.953076	0.000426	4.255102	1.441667	-0.000170
1442	1.4338e+02	-17.4268	-63.130710	0.000446	4.457725	1.510318	-0.000179
1443	1.4348e+02	-17.4717	-63.267973	0.000344	3.444606	1.167064	-0.000138
1444	1.4358e+02	-17.5198	-63.441570	0.000436	4.356414	1.475993	-0.000174
1445	1.4368e+02	-17.5519	-63.603055	0.000405	4.052478	1.373017	-0.000162
1446	1.4378e+02	-17.5808	-63.772615	0.000426	4.255102	1.441667	-0.000170
1447	1.4388e+02	-17.6289	-63.958323	0.000466	4.660349	1.578969	-0.000187
1448	1.4398e+02	-17.6674	-64.107697	0.000375	3.748542	1.270040	-0.000150
1449	1.4408e+02	-17.7059	-64.265145	0.000395	3.951166	1.338691	-0.000158
1450	1.4418e+02	-17.7460	-64.414519	0.000375	3.748542	1.270040	-0.000150
1451	1.4428e+02	-17.7877	-64.551782	0.000344	3.444606	1.167064	-0.000138
1452	1.4437e+02	-17.8278	-64.729416	0.000446	4.457725	1.510318	-0.000179
1453	1.4447e+02	-17.8728	-64.931273	0.000507	5.065597	1.716271	-0.000203
1454	1.4457e+02	-17.9097	-65.092758	0.000405	4.052478	1.373017	-0.000162
1455	1.4467e+02	-17.9530	-65.286541	0.000486	4.862973	1.647620	-0.000195
1456	1.4477e+02	-17.9883	-65.415729	0.000324	3.241982	1.098413	-0.000130
1457	1.4487e+02	-18.0300	-65.573177	0.000395	3.951166	1.338691	-0.000158
1458	1.4497e+02	-18.0717	-65.799257	0.000567	5.673469	1.922223	-0.000227
1459	1.4507e+02	-18.1054	-65.920371	0.000304	3.039358	1.029762	-0.000122
1460	1.4517e+02	-18.1342	-66.102042	0.000456	4.559037	1.544644	-0.000183
1461	1.4527e+02	-18.1936	-66.259490	0.000395	3.951166	1.338691	-0.000158
1462	1.4537e+02	-18.2257	-66.461347	0.000507	5.065597	1.716271	-0.000203
1463	1.4547e+02	-18.2658	-66.602647	0.000355	3.545918	1.201390	-0.000142
1464	1.4557e+02	-18.3187	-66.772207	0.000426	4.255102	1.441667	-0.000170
1465	1.4567e+02	-18.3428	-66.957915	0.000466	4.660349	1.578969	-0.000187
1466	1.4577e+02	-18.3797	-67.151697	0.000486	4.862973	1.647620	-0.000195
1467	1.4587e+02	-18.4118	-67.272811	0.000304	3.039358	1.029762	-0.000122
1468	1.4597e+02	-18.4695	-67.502928	0.000577	5.774781	1.956549	-0.000231
1469	1.4607e+02	-18.5064	-67.696711	0.000486	4.862973	1.647620	-0.000195
1470	1.4617e+02	-18.5497	-67.862233	0.000415	4.153790	1.407342	-0.000166
1471	1.4626e+02	-18.5898	-67.983347	0.000304	3.039358	1.029762	-0.000122
1472	1.4636e+02	-18.6332	-68.213464	0.000577	5.774781	1.956549	-0.000231
1473	1.4646e+02	-18.6669	-68.399172	0.000466	4.660349	1.578969	-0.000187
1474	1.4656e+02	-18.7054	-68.601029	0.000507	5.065597	1.716271	-0.000203
1475	1.4666e+02	-18.7519	-68.722143	0.000304	3.039358	1.029762	-0.000122
1476	1.4676e+02	-18.7840	-68.956297	0.000588	5.876093	1.990874	-0.000235
1477	1.4686e+02	-18.8144	-69.133931	0.000446	4.457725	1.510318	-0.000179
1478	1.4696e+02	-18.8658	-69.307528	0.000436	4.356414	1.475993	-0.000174
1479	1.4706e+02	-18.9043	-69.456902	0.000375	3.748542	1.270040	-0.000150
1480	1.4716e+02	-18.9460	-69.695093	0.000598	5.977405	2.025199	-0.000239
1481	1.4726e+02	-18.9861	-69.864653	0.000426	4.255102	1.441667	-0.000170
1482	1.4736e+02	-19.0310	-70.054398	0.000476	4.761661	1.613295	-0.000191
1483	1.4746e+02	-19.0759	-70.272403	0.000547	5.470845	1.853572	-0.000219
1484	1.4756e+02	-19.1000	-70.417740	0.000365	3.647230	1.235715	-0.000146
1485	1.4766e+02	-19.1417	-70.627671	0.000527	5.268221	1.784922	-0.000211
1486	1.4776e+02	-19.1802	-70.789157	0.000405	4.052478	1.373017	-0.000162
1487	1.4786e+02	-19.2283	-71.031385	0.000608	6.078717	2.059525	-0.000243
1488	1.4796e+02	-19.2652	-71.156536	0.000314	3.140670	1.064088	-0.000126
1489	1.4806e+02	-19.3102	-71.334170	0.000446	4.457725	1.510318	-0.000179
1490	1.4816e+02	-19.3374	-71.600621	0.000669	6.686588	2.265477	-0.000268
1491	1.4825e+02	-19.3807	-71.754032	0.000385	3.849854	1.304366	-0.000154
1492	1.4835e+02	-19.4144	-71.911480	0.000395	3.951166	1.338691	-0.000158
1493	1.4845e+02	-19.4577	-72.125449	0.000537	5.369533	1.819247	-0.000215
1494	1.4855e+02	-19.4962	-72.307120	0.000456	4.559037	1.544644	-0.000183
1495	1.4865e+02	-19.5363	-72.529162	0.000557	5.572157	1.887898	-0.000223
1496	1.4875e+02	-19.5813	-72.735056	0.000517	5.166909	1.750596	-0.000207
1497	1.4885e+02	-19.6198	-72.912690	0.000446	4.457725	1.510318	-0.000179
1498	1.4895e+02	-19.6502	-73.082250	0.000426	4.255102	1.441667	-0.000170
1499	1.4905e+02	-19.7032	-73.308329	0.000567	5.673469	1.922223	-0.000227
1500	1.4915e+02	-19.7353	-73.506149	0.000496	4.964285	1.681945	-0.000199
1501	1.4925e+02	-19.7770	-73.772600	0.000669	6.686588	2.265477	-0.000268
1502	1.4935e+02	-19.8203	-73.905825	0.000334	3.343294	1.132739	-0.000134
1503	1.4945e+02	-19.8540	-74.127868	0.000557	5.572157	1.887898	-0.000223
1504	1.4955e+02	-19.8973	-74.301465	0.000436	4.356414	1.475993	-0.000174
1505	1.4965e+02	-19.9438	-74.580027	0.000699	6.990524	2.368454	-0.000280
1506	1.4975e+02	-19.9775	-74.777847	0.000496	4.964285	1.681945	-0.000199
1507	1.4985e+02	-20.0256	-74.943369	0.000415	4.153790	1.407342	-0.000166
1508	1.4995e+02	-19.9807	-74.971629	-0.000071	-0.709184	-0.240278	-0.000028
1509	1.5005e+02	-19.9438	-74.963555	0.000020	0.202624	0.068651	0.000008
1510	1.5015e+02	-19.9005	-74.995852	-0.000081	-0.810496	-0.274603	-0.000032
1511	1.5025e+02	-19.8620	-74.979703	0.000041	0.405248	0.137302	0.000016
1512	1.5034e+02	-19.8267	-74.939332	0.000101	1.013119	0.343254	0.000041
1513	1.5044e+02	-19.7770	-74.947406	-0.000020	-0.202624	-0.068651	-0.000008
1514	1.5054e+02	-19.7289	-74.890887	0.000142	1.418367	0.480556	0.000057
1515	1.5064e+02	-19.6871	-74.842441	0.000122	1.215743	0.411905	0.000049
1516	1.5074e+02	-19.6583	-74.826292	0.000041	0.405248	0.137302	0.000016
1517	1.5084e+02	-19.6246	-74.773810	0.000132	1.317055	0.446230	0.000053
1518	1.5094e+02	-19.5861	-74.757661	0.000041	0.405248	0.137302	0.000016
1519	1.5104e+02	-19.5363	-74.697104	0.000152	1.519679	0.514881	0.000061
1520	1.5114e+02	-19.5011	-74.648658	0.000122	1.215743	0.411905	0.000049
1521	1.5124e+02	-19.4577	-74.612324	0.000091	0.911807	0.308929	0.000037
1522	1.5134e+02	-19.4273	-74.539656	0.000182	1.823615	0.617857	0.000073
1523	1.5144e+02	-19.3936	-74.462950	0.000192	1.924927	0.652183	0.000077
1524	1.5154e+02	-19.3422	-74.442764	0.000051	0.506560	0.171627	0.000020
1525	1.5164e+02	-19.3037	-74.410467	0.000081	0.810496	0.274603	0.000032
1526	1.5174e+02	-19.2572	-74.309539	0.000253	2.532799	0.858135	0.000101
1527	1.5184e+02	-19.2235	-74.261093	0.000122	1.215743	0.411905	0.000049
1528	1.5194e+02	-19.1850	-74.204573	0.000142	1.418367	0.480556	0.000057
1529	1.5204e+02	-19.1417	-74.139979	0.000162	1.620991	0.549207	0.000065
1530	1.5214e+02	-19.1048	-74.055199	0.000213	2.127551	0.720834	0.000085
1531	1.5224e+02	-19.0647	-73.986568	0.000172	1.722303	0.583532	0.000069
1532	1.5233e+02	-19.0198	-73.946197	0.000101	1.013119	0.343254	0.000041
1533	1.5243e+02	-18.9893	-73.869491	0.000192	1.924927	0.652183	0.000077
1534	1.5253e+02	-18.9396	-73.825083	0.000111	1.114431	0.377580	0.000045
1535	1.5263e+02	-18.9059	-73.732229	0.000233	2.330175	0.789485	0.000093
1536	1.5273e+02	-18.8562	-73.671672	0.000152	1.519679	0.514881	0.000061
1537	1.5283e+02	-18.8289	-73.590929	0.000203	2.026239	0.686508	0.000081
1538	1.5293e+02	-18.7824	-73.538446	0.000132	1.317055	0.446230	0.000053
1539	1.5303e+02	-18.7519	-73.494038	0.000111	1.114431	0.377580	0.000045
1540	1.5313e+02	-18.7070	-73.320441	0.000436	4.356414	1.475993	0.000174
1541	1.5323e+02	-18.6717	-73.296218	0.000061	0.607872	0.205952	0.000024
1542	1.5333e+02	-18.6219	-73.203364	0.000233	2.330175	0.789485	0.000093
1543	1.5343e+02	-18.5818	-73.146844	0.000142	1.418367	0.480556	0.000057
1544	1.5353e+02	-18.5465	-73.053990	0.000233	2.330175	0.789485	0.000093
1545	1.5363e+02	-18.5032	-72.936913	0.000294	2.938046	0.995437	0.000118
1546	1.5373e+02	-18.4711	-72.900579	0.000091	0.911807	0.308929	0.000037
1547	1.5383e+02	-18.4342	-72.815799	0.000213	2.127551	0.720834	0.000085
1548	1.5393e+02	-18.3829	-72.743130	0.000182	1.823615	0.617857	0.000073
1549	1.5403e+02	-18.3444	-72.638165	0.000263	2.634110	0.892461	0.000105
1550	1.5413e+02	-18.3059	-72.553385	0.000213	2.127551	0.720834	0.000085
1551	1.5422e+02	-18.2754	-72.480716	0.000182	1.823615	0.617857	0.000073
1552	1.5432e+02	-18.2257	-72.416122	0.000162	1.620991	0.549207	0.000065
1553	1.5442e+02	-18.1872	-72.355565	0.000152	1.519679	0.514881	0.000061
1554	1.5452e+02	-18.1455	-72.230414	0.000314	3.140670	1.064088	0.000126
1555	1.5462e+02	-18.1022	-72.149671	0.000203	2.026239	0.686508	0.000081
1556	1.5472e+02	-18.0669	-72.048743	0.000253	2.532799	0.858135	0.000101
1557	1.5482e+02	-18.0284	-71.951852	0.000243	2.431487	0.823810	0.000097
1558	1.5492e+02	-17.9915	-71.854960	0.000243	2.431487	0.823810	0.000097
1559	1.5502e+02	-17.9449	-71.786329	0.000172	1.722303	0.583532	0.000069
1560	1.5512e+02	-17.9000	-71.733846	0.000132	1.317055	0.446230	0.000053
1561	1.5522e+02	-17.8760	-71.608695	0.000314	3.140670	1.064088	0.000126
1562	1.5532e+02	-17.8278	-71.515841	0.000233	2.330175	0.789485	0.000093
1563	1.5542e+02	-17.7877	-71.427024	0.000223	2.228863	0.755159	0.000089
1564	1.5552e+02	-17.7540	-71.374541	0.000132	1.317055	0.446230	0.000053
1565	1.5562e+02	-17.7107	-71.229204	0.000365	3.647230	1.235715	0.000146
1566	1.5572e+02	-17.6658	-71.144425	0.000213	2.127551	0.720834	0.000085
1567	1.5582e+02	-17.6321	-71.071756	0.000182	1.823615	0.617857	0.000073
1568	1.5592e+02	-17.5824	-70.950642	0.000304	3.039358	1.029762	0.000122
1569	1.5602e+02	-17.5455	-70.882011	0.000172	1.722303	0.583532	0.000069
1570	1.5612e+02	-17.5134	-70.764934	0.000294	2.938046	0.995437	0.000118
1571	1.5622e+02	-17.4701	-70.732637	0.000081	0.810496	0.274603	0.000032
1572	1.5631e+02	-17.4332	-70.591337	0.000355	3.545918	1.201390	0.000142
1573	1.5641e+02	-17.3915	-70.510594	0.000203	2.026239	0.686508	0.000081
1574	1.5651e+02	-17.3514	-70.377369	0.000334	3.343294	1.132739	0.000134
1575	1.5661e+02	-17.3145	-70.316812	0.000152	1.519679	0.514881	0.000061
1576	1.5671e+02	-17.2712	-70.244143	0.000182	1.823615	0.617857	0.000073
1577	1.5681e+02	-17.2246	-70.114955	0.000324	3.241982	1.098413	0.000130
1578	1.5691e+02	-17.1942	-70.022101	0.000233	2.330175	0.789485	0.000093
1579	1.5701e+02	-17.1541	-69.945395	0.000192	1.924927	0.652183	0.000077
1580	1.5711e+02	-17.1124	-69.848504	0.000243	2.431487	0.823810	0.000097
1581	1.5721e+02	-17.0755	-69.755650	0.000233	2.330175	0.789485	0.000093
1582	1.5731e+02	-17.0305	-69.618387	0.000344	3.444606	1.167064	0.000138
1583	1.5741e+02	-16.9936	-69.549756	0.000172	1.722303	0.583532	0.000069
1584	1.5751e+02	-16.9551	-69.473050	0.000192	1.924927	0.652183	0.000077
1585	1.5761e+02	-16.9166	-69.343862	0.000324	3.241982	1.098413	0.000130
1586	1.5771e+02	-16.8653	-69.283305	0.000152	1.519679	0.514881	0.000061
1587	1.5781e+02	-16.8348	-69.125857	0.000395	3.951166	1.338691	0.000158
1588	1.5791e+02	-16.7883	-69.097597	0.000071	0.709184	0.240278	0.000028
1589	1.5801e+02	-16.7578	-68.984557	0.000284	2.836734	0.961112	0.000114
1590	1.5811e+02	-16.7113	-68.867480	0.000294	2.938046	0.995437	0.000118
1591	1.5821e+02	-16.6680	-68.758477	0.000274	2.735422	0.926786	0.000110
1592	1.5830e+02	-16.6407	-68.705995	0.000132	1.317055	0.446230	0.000053
1593	1.5840e+02	-16.5926	-68.560658	0.000365	3.647230	1.235715	0.000146
1594	1.5850e+02	-16.5573	-68.451655	0.000274	2.735422	0.926786	0.000110
1595	1.5860e+02	-16.5076	-68.378987	0.000182	1.823615	0.617857	0.000073
1596	1.5870e+02	-16.4803	-68.290170	0.000223	2.228863	0.755159	0.000089
1597	1.5880e+02	-16.4322	-68.160981	0.000324	3.241982	1.098413	0.000130
1598	1.5890e+02	-16.3937	-68.104461	0.000142	1.418367	0.480556	0.000057
1599	1.5900e+02	-16.3584	-67.983347	0.000304	3.039358	1.029762	0.000122
1600	1.5910e+02	-16.3199	-67.898567	0.000213	2.127551	0.720834	0.000085
1601	1.5920e+02	-16.2749	-67.745156	0.000385	3.849854	1.304366	0.000154
1602	1.5930e+02	-16.2316	-67.640191	0.000263	2.634110	0.892461	0.000105
1603	1.5940e+02	-16.1931	-67.543299	0.000243	2.431487	0.823810	0.000097
1604	1.5950e+02	-16.1498	-67.446408	0.000243	2.431487	0.823810	0.000097
1605	1.5960e+02	-16.1129	-67.345480	0.000253	2.532799	0.858135	0.000101
1606	1.5970e+02	-16.0776	-67.232440	0.000284	2.836734	0.961112	0.000114
1607	1.5980e+02	-16.0343	-67.127474	0.000263	2.634110	0.892461	0.000105
1608	1.5990e+02	-15.9958	-67.026546	0.000253	2.532799	0.858135	0.000101
1609	1.6000e+02	-15.9637	-66.941766	0.000213	2.127551	0.720834	0.000085
1610	1.6010e+02	-15.9124	-66.820652	0.000304	3.039358	1.029762	0.000122
1611	1.6019e+02	-15.8819	-66.711650	0.000274	2.735422	0.926786	0.000110
1612	1.6029e+02	-15.8322	-66.602647	0.000274	2.735422	0.926786	0.000110
1613	1.6039e+02	-15.7937	-66.534016	0.000172	1.722303	0.583532	0.000069
1614	1.6049e+02	-15.7552	-66.388679	0.000365	3.647230	1.235715	0.000146
1615	1.6059e+02	-15.7151	-66.295825	0.000233	2.330175	0.789485	0.000093
1616	1.6069e+02	-15.6782	-66.194896	0.000253	2.532799	0.858135	0.000101
1617	1.6079e+02	-15.6413	-66.057634	0.000344	3.444606	1.167064	0.000138
1618	1.6089e+02	-15.5996	-65.993039	0.000162	1.620991	0.549207	0.000065
1619	1.6099e+02	-15.5530	-65.875962	0.000294	2.938046	0.995437	0.000118
1620	1.6109e+02	-15.5161	-65.779071	0.000243	2.431487	0.823810	0.000097
1621	1.6119e+02	-15.4792	-65.670068	0.000274	2.735422	0.926786	0.000110
1622	1.6129e+02	-15.4472	-65.548954	0.000304	3.039358	1.029762	0.000122
1623	1.6139e+02	-15.3878	-65.468212	0.000203	2.026239	0.686508	0.000081
1624	1.6149e+02	-15.3621	-65.326912	0.000355	3.545918	1.201390	0.000142
1625	1.6159e+02	-15.3124	-65.225984	0.000253	2.532799	0.858135	0.000101
1626	1.6169e+02	-15.2755	-65.129092	0.000243	2.431487	0.823810	0.000097
1627	1.6179e+02	-15.2418	-64.999904	0.000324	3.241982	1.098413	0.000130
1628	1.6189e+02	-15.1985	-64.927236	0.000182	1.823615	0.617857	0.000073
1629	1.6199e+02	-15.1664	-64.814196	0.000284	2.836734	0.961112	0.000114
1630	1.6209e+02	-15.1135	-64.676933	0.000344	3.444606	1.167064	0.000138
1631	1.6219e+02	-15.0734	-64.571968	0.000263	2.634110	0.892461	0.000105
1632	1.6228e+02	-15.0477	-64.495262	0.000192	1.924927	0.652183	0.000077
1633	1.6238e+02	-14.9964	-64.353962	0.000355	3.545918	1.201390	0.000142
1634	1.6248e+02	-14.9514	-64.261108	0.000233	2.330175	0.789485	0.000093
1635	1.6258e+02	-14.9194	-64.119808	0.000355	3.545918	1.201390	0.000142
1636	1.6268e+02	-14.8905	-64.095586	0.000061	0.607872	0.205952	0.000024
1637	1.6278e+02	-14.8375	-63.970434	0.000314	3.140670	1.064088	0.000126
1638	1.6288e+02	-14.7910	-63.841246	0.000324	3.241982	1.098413	0.000130
1639	1.6298e+02	-14.7589	-63.732243	0.000274	2.735422	0.926786	0.000110
1640	1.6308e+02	-14.7156	-63.655538	0.000192	1.924927	0.652183	0.000077
1641	1.6318e+02	-14.6771	-63.526349	0.000324	3.241982	1.098413	0.000130
1642	1.6328e+02	-14.6370	-63.405235	0.000304	3.039358	1.029762	0.000122
1643	1.6338e+02	-14.5905	-63.300270	0.000263	2.634110	0.892461	0.000105
1644	1.6348e+02	-14.5616	-63.227601	0.000182	1.823615	0.617857	0.000073
1645	1.6358e+02	-14.5231	-63.090339	0.000344	3.444606	1.167064	0.000138
1646	1.6368e+02	-14.4766	-62.973262	0.000294	2.938046	0.995437	0.000118
1647	1.6378e+02	-14.4397	-62.868296	0.000263	2.634110	0.892461	0.000105
1648	1.6388e+02	-14.4012	-62.771405	0.000243	2.431487	0.823810	0.000097
1649	1.6398e+02	-14.3531	-62.638180	0.000334	3.343294	1.132739	0.000134
1650	1.6408e+02	-14.3226	-62.517065	0.000304	3.039358	1.029762	0.000122
1651	1.6418e+02	-14.2777	-62.456508	0.000152	1.519679	0.514881	0.000061
1652	1.6427e+02	-14.2472	-62.323283	0.000334	3.343294	1.132739	0.000134
1653	1.6437e+02	-14.1959	-62.173909	0.000375	3.748542	1.270040	0.000150
1654	1.6447e+02	-14.1702	-62.129500	0.000111	1.114431	0.377580	0.000045
1655	1.6457e+02	-14.1253	-61.992238	0.000344	3.444606	1.167064	0.000138
1656	1.6467e+02	-14.0707	-61.947829	0.000111	1.114431	0.377580	0.000045
1657	1.6477e+02	-14.0402	-61.778270	0.000426	4.255102	1.441667	0.000170
1658	1.6487e+02	-13.9985	-61.697527	0.000203	2.026239	0.686508	0.000081
1659	1.6497e+02	-13.9648	-61.596599	0.000253	2.532799	0.858135	0.000101
1660	1.6507e+02	-13.9183	-61.447225	0.000375	3.748542	1.270040	0.000150
1661	1.6517e+02	-13.8814	-61.313999	0.000334	3.343294	1.132739	0.000134
1662	1.6527e+02	-13.8349	-61.241331	0.000182	1.823615	0.617857	0.000073
1663	1.6537e+02	-13.8108	-61.148476	0.000233	2.330175	0.789485	0.000093
1664	1.6547e+02	-13.7595	-61.035437	0.000284	2.836734	0.961112	0.000114
1665	1.6557e+02	-13.7258	-60.910285	0.000314	3.140670	1.064088	0.000126
1666	1.6567e+02	-13.6857	-60.805320	0.000263	2.634110	0.892461	0.000105
1667	1.6577e+02	-13.6440	-60.692280	0.000284	2.836734	0.961112	0.000114
1668	1.6587e+02	-13.6087	-60.587315	0.000263	2.634110	0.892461	0.000105
1669	1.6597e+02	-13.5622	-60.458126	0.000324	3.241982	1.098413	0.000130
1670	1.6607e+02	-13.5221	-60.341049	0.000294	2.938046	0.995437	0.000118
1671	1.6616e+02	-13.4852	-60.276455	0.000162	1.620991	0.549207	0.000065
1672	1.6626e+02	-13.4419	-60.143230	0.000334	3.343294	1.132739	0.000134
1673	1.6636e+02	-13.4098	-60.026153	0.000294	2.938046	0.995437	0.000118
1674	1.6646e+02	-13.3649	-59.933299	0.000233	2.330175	0.789485	0.000093
1675	1.6656e+02	-13.3215	-59.804110	0.000324	3.241982	1.098413	0.000130
1676	1.6666e+02	-13.2847	-59.691070	0.000284	2.836734	0.961112	0.000114
1677	1.6676e+02	-13.2526	-59.594179	0.000243	2.431487	0.823810	0.000097
1678	1.6686e+02	-13.2076	-59.464991	0.000324	3.241982	1.098413	0.000130
1679	1.6696e+02	-13.1675	-59.388285	0.000192	1.924927	0.652183	0.000077
1680	1.6706e+02	-13.1306	-59.263134	0.000314	3.140670	1.064088	0.000126
1681	1.6716e+02	-13.0873	-59.093574	0.000426	4.255102	1.441667	0.000170
1682	1.6726e+02	-13.0552	-59.037054	0.000142	1.418367	0.480556	0.000057
1683	1.6736e+02	-13.0087	-58.919978	0.000294	2.938046	0.995437	0.000118
1684	1.6746e+02	-12.9670	-58.819049	0.000253	2.532799	0.858135	0.000101
1685	1.6756e+02	-12.9285	-58.693898	0.000314	3.140670	1.064088	0.000126
1686	1.6766e+02	-12.8852	-58.584895	0.000274	2.735422	0.926786	0.000110
1687	1.6776e+02	-12.8435	-58.475893	0.000274	2.735422	0.926786	0.000110
1688	1.6786e+02	-12.8050	-58.366890	0.000274	2.735422	0.926786	0.000110
1689	1.6796e+02	-12.7729	-58.229627	0.000344	3.444606	1.167064	0.000138
1690	1.6806e+02	-12.7264	-58.116588	0.000284	2.836734	0.961112	0.000114
1691	1.6816e+02	-12.6831	-58.007585	0.000274	2.735422	0.926786	0.000110
1692	1.6825e+02	-12.6510	-57.898582	0.000274	2.735422	0.926786	0.000110
1693	1.6835e+02	-12.6141	-57.797654	0.000253	2.532799	0.858135	0.000101
1694	1.6845e+02	-12.5756	-57.656354	0.000355	3.545918	1.201390	0.000142
1695	1.6855e+02	-12.5387	-57.603871	0.000132	1.317055	0.446230	0.000053
1696	1.6865e+02	-12.4938	-57.442386	0.000405	4.052478	1.373017	0.000162
1697	1.6875e+02	-12.4505	-57.361643	0.000203	2.026239	0.686508	0.000081
1698	1.6885e+02	-12.4087	-57.228418	0.000334	3.343294	1.132739	0.000134
1699	1.6895e+02	-12.3734	-57.127489	0.000253	2.532799	0.858135	0.000101
1700	1.6905e+02	-12.3349	-56.986190	0.000355	3.545918	1.201390	0.000142
1701	1.6915e+02	-12.2948	-56.897373	0.000223	2.228863	0.755159	0.000089
1702	1.6925e+02	-12.2403	-56.772221	0.000314	3.140670	1.064088	0.000126
1703	1.6935e+02	-12.2130	-56.663219	0.000274	2.735422	0.926786	0.000110
1704	1.6945e+02	-12.1729	-56.562290	0.000253	2.532799	0.858135	0.000101
1705	1.6955e+02	-12.1376	-56.420991	0.000355	3.545918	1.201390	0.000142
1706	1.6965e+02	-12.0975	-56.332174	0.000223	2.228863	0.755159	0.000089
1707	1.6975e+02	-12.0494	-56.219134	0.000284	2.836734	0.961112	0.000114
1708	1.6985e+02	-12.0141	-56.069760	0.000375	3.748542	1.270040	0.000150
1709	1.6995e+02	-11.9740	-55.972868	0.000243	2.431487	0.823810	0.000097
1710	1.7005e+02	-11.9323	-55.823494	0.000375	3.748542	1.270040	0.000150
1711	1.7015e+02	-11.8954	-55.738715	0.000213	2.127551	0.720834	0.000085
1712	1.7024e+02	-11.8473	-55.666046	0.000182	1.823615	0.617857	0.000073
1713	1.7034e+02	-11.8152	-55.516672	0.000375	3.748542	1.270040	0.000150
1714	1.7044e+02	-11.7767	-55.387484	0.000324	3.241982	1.098413	0.000130
1715	1.7054e+02	-11.7253	-55.230035	0.000395	3.951166	1.338691	0.000158
1716	1.7064e+02	-11.6997	-55.141218	0.000223	2.228863	0.755159	0.000089
1717	1.7074e+02	-11.6596	-55.032216	0.000274	2.735422	0.926786	0.000110
1718	1.7084e+02	-11.6098	-54.886879	0.000365	3.647230	1.235715	0.000146
1719	1.7094e+02	-11.5761	-54.785951	0.000253	2.532799	0.858135	0.000101
1720	1.7104e+02	-11.5344	-54.660799	0.000314	3.140670	1.064088	0.000126
1721	1.7114e+02	-11.4911	-54.555834	0.000263	2.634110	0.892461	0.000105
1722	1.7124e+02	-11.4590	-54.414534	0.000355	3.545918	1.201390	0.000142
1723	1.7134e+02	-11.4173	-54.341866	0.000182	1.823615	0.617857	0.000073
1724	1.7144e+02	-11.3804	-54.164232	0.000446	4.457725	1.510318	0.000179
1725	1.7154e+02	-11.3499	-54.051192	0.000284	2.836734	0.961112	0.000114
1726	1.7164e+02	-11.2906	-53.958338	0.000233	2.330175	0.789485	0.000093
1727	1.7174e+02	-11.2633	-53.821075	0.000344	3.444606	1.167064	0.000138
1728	1.7184e+02	-11.2120	-53.699961	0.000304	3.039358	1.029762	0.000122
1729	1.7194e+02	-11.1735	-53.599033	0.000253	2.532799	0.858135	0.000101
1730	1.7204e+02	-11.1350	-53.461770	0.000344	3.444606	1.167064	0.000138
1731	1.7213e+02	-11.0965	-53.320470	0.000355	3.545918	1.201390	0.000142
1732	1.7223e+02	-11.0628	-53.203393	0.000294	2.938046	0.995437	0.000118
1733	1.7233e+02	-11.0163	-53.062094	0.000355	3.545918	1.201390	0.000142
1734	1.7243e+02	-10.9778	-52.957128	0.000263	2.634110	0.892461	0.000105
1735	1.7253e+02	-10.9409	-52.868311	0.000223	2.228863	0.755159	0.000089
1736	1.7263e+02	-10.8799	-52.698751	0.000426	4.255102	1.441667	0.000170
1737	1.7273e+02	-10.8494	-52.565526	0.000334	3.343294	1.132739	0.000134
1738	1.7283e+02	-10.8141	-52.468635	0.000243	2.431487	0.823810	0.000097
1739	1.7293e+02	-10.7885	-52.323298	0.000365	3.647230	1.235715	0.000146
1740	1.7303e+02	-10.7371	-52.210258	0.000284	2.836734	0.961112	0.000114
1741	1.7313e+02	-10.7002	-52.089144	0.000304	3.039358	1.029762	0.000122
1742	1.7323e+02	-10.6585	-51.955918	0.000334	3.343294	1.132739	0.000134
1743	1.7333e+02	-10.6104	-51.830767	0.000314	3.140670	1.064088	0.000126
1744	1.7343e+02	-10.5735	-51.729839	0.000253	2.532799	0.858135	0.000101
1745	1.7353e+02	-10.5334	-51.600650	0.000324	3.241982	1.098413	0.000130
1746	1.7363e+02	-10.4949	-51.463388	0.000344	3.444606	1.167064	0.000138
1747	1.7373e+02	-10.4564	-51.346311	0.000294	2.938046	0.995437	0.000118
1748	1.7383e+02	-10.4227	-51.205011	0.000355	3.545918	1.201390	0.000142
1749	1.7393e+02	-10.3762	-51.112157	0.000233	2.330175	0.789485	0.000093
1750	1.7403e+02	-10.3409	-50.934523	0.000446	4.457725	1.510318	0.000179
1751	1.7413e+02	-10.3008	-50.825520	0.000274	2.735422	0.926786	0.000110
1752	1.7422e+02	-10.2559	-50.684221	0.000355	3.545918	1.201390	0.000142
1753	1.7432e+02	-10.2270	-50.559069	0.000314	3.140670	1.064088	0.000126
1754	1.7442e+02	-10.1789	-50.425844	0.000334	3.343294	1.132739	0.000134
1755	1.7452e+02	-10.1404	-50.308767	0.000294	2.938046	0.995437	0.000118
1756	1.7462e+02	-10.1002	-50.207839	0.000253	2.532799	0.858135	0.000101
1757	1.7472e+02	-10.0553	-50.034242	0.000436	4.356414	1.475993	0.000174
1758	1.7482e+02	-10.0152	-49.969648	0.000162	1.620991	0.549207	0.000065
1759	1.7492e+02	-9.9863	-49.792014	0.000446	4.457725	1.510318	0.000179
1760	1.7502e+02	-9.9382	-49.670900	0.000304	3.039358	1.029762	0.000122
1761	1.7512e+02	-9.9029	-49.537674	0.000334	3.343294	1.132739	0.000134
1762	1.7522e+02	-9.8644	-49.432709	0.000263	2.634110	0.892461	0.000105
1763	1.7532e+02	-9.8163	-49.283335	0.000375	3.748542	1.270040	0.000150
1764	1.7542e+02	-9.7794	-49.162220	0.000304	3.039358	1.029762	0.000122
1765	1.7552e+02	-9.7457	-49.045144	0.000294	2.938046	0.995437	0.000118
1766	1.7562e+02	-9.6992	-48.899807	0.000365	3.647230	1.235715	0.000146
1767	1.7572e+02	-9.6591	-48.774655	0.000314	3.140670	1.064088	0.000126
1768	1.7582e+02	-9.6158	-48.641430	0.000334	3.343294	1.132739	0.000134
1769	1.7592e+02	-9.5789	-48.492056	0.000375	3.748542	1.270040	0.000150
1770	1.7602e+02	-9.5484	-48.374979	0.000294	2.938046	0.995437	0.000118
1771	1.7612e+02	-9.4971	-48.241754	0.000334	3.343294	1.132739	0.000134
1772	1.7621e+02	-9.4682	-48.108528	0.000334	3.343294	1.132739	0.000134
1773	1.7631e+02	-9.4249	-47.971265	0.000344	3.444606	1.167064	0.000138
1774	1.7641e+02	-9.3816	-47.846114	0.000314	3.140670	1.064088	0.000126
1775	1.7651e+02	-9.3382	-47.668480	0.000446	4.457725	1.510318	0.000179
1776	1.7661e+02	-9.3062	-47.559478	0.000274	2.735422	0.926786	0.000110
1777	1.7671e+02	-9.2677	-47.434326	0.000314	3.140670	1.064088	0.000126
1778	1.7681e+02	-9.2163	-47.317249	0.000294	2.938046	0.995437	0.000118
1779	1.7691e+02	-9.1826	-47.155764	0.000405	4.052478	1.373017	0.000162
1780	1.7701e+02	-9.1441	-47.010427	0.000365	3.647230	1.235715	0.000146
1781	1.7711e+02	-9.1072	-46.905462	0.000263	2.634110	0.892461	0.000105
1782	1.7721e+02	-9.0639	-46.743976	0.000405	4.052478	1.373017	0.000162
1783	1.7731e+02	-9.0206	-46.602676	0.000355	3.545918	1.201390	0.000142
1784	1.7741e+02	-8.9821	-46.485599	0.000294	2.938046	0.995437	0.000118
1785	1.7751e+02	-8.9452	-46.340263	0.000365	3.647230	1.235715	0.000146
1786	1.7761e+02	-8.8987	-46.239334	0.000253	2.532799	0.858135	0.000101
1787	1.7771e+02	-8.8634	-46.053626	0.000466	4.660349	1.578969	0.000187
1788	1.7781e+02	-8.8249	-45.952698	0.000253	2.532799	0.858135	0.000101
1789	1.7791e+02	-8.7768	-45.819472	0.000334	3.343294	1.132739	0.000134
1790	1.7801e+02	-8.7431	-45.641838	0.000446	4.457725	1.510318	0.000179
1791	1.7810e+02	-8.6965	-45.561095	0.000203	2.026239	0.686508	0.000081
1792	1.7820e+02	-8.6596	-45.403647	0.000395	3.951166	1.338691	0.000158
1793	1.7830e+02	-8.6244	-45.286570	0.000294	2.938046	0.995437	0.000118
1794	1.7840e+02	-8.5955	-45.141233	0.000365	3.647230	1.235715	0.000146
1795	1.7850e+02	-8.5522	-44.991859	0.000375	3.748542	1.270040	0.000150
1796	1.7860e+02	-8.5089	-44.878819	0.000284	2.836734	0.961112	0.000114
1797	1.7870e+02	-8.4623	-44.721371	0.000395	3.951166	1.338691	0.000158
1798	1.7880e+02	-8.4270	-44.596220	0.000314	3.140670	1.064088	0.000126
1799	1.7890e+02	-8.3853	-44.471069	0.000314	3.140670	1.064088	0.000126
1800	1.7900e+02	-8.3500	-44.337843	0.000334	3.343294	1.132739	0.000134
1801	1.7910e+02	-8.3083	-44.204618	0.000334	3.343294	1.132739	0.000134
1802	1.7920e+02	-8.2666	-44.031021	0.000436	4.356414	1.475993	0.000174
1803	1.7930e+02	-8.2249	-43.909907	0.000304	3.039358	1.029762	0.000122
1804	1.7940e+02	-8.1864	-43.796867	0.000284	2.836734	0.961112	0.000114
1805	1.7950e+02	-8.1431	-43.623270	0.000436	4.356414	1.475993	0.000174
1806	1.7960e+02	-8.1094	-43.530416	0.000233	2.330175	0.789485	0.000093
1807	1.7970e+02	-8.0597	-43.397191	0.000334	3.343294	1.132739	0.000134
1808	1.7980e+02	-8.0356	-43.263965	0.000334	3.343294	1.132739	0.000134
1809	1.7990e+02	-7.9923	-43.086331	0.000446	4.457725	1.510318	0.000179
1810	1.8000e+02	-7.9538	-42.916771	0.000426	4.255102	1.441667	0.000170
1811	1.8009e+02	-7.9073	-42.852177	0.000162	1.620991	0.549207	0.000065
1812	1.8019e+02	-7.8623	-42.706840	0.000365	3.647230	1.235715	0.000146
1813	1.8029e+02	-7.8335	-42.561504	0.000365	3.647230	1.235715	0.000146
1814	1.8039e+02	-7.7837	-42.424241	0.000344	3.444606	1.167064	0.000138
1815	1.8049e+02	-7.7484	-42.250644	0.000436	4.356414	1.475993	0.000174
1816	1.8059e+02	-7.7083	-42.117419	0.000334	3.343294	1.132739	0.000134
1817	1.8069e+02	-7.6666	-42.008416	0.000274	2.735422	0.926786	0.000110
1818	1.8079e+02	-7.6281	-41.883265	0.000314	3.140670	1.064088	0.000126
1819	1.8089e+02	-7.5896	-41.737928	0.000365	3.647230	1.235715	0.000146
1820	1.8099e+02	-7.5447	-41.604702	0.000334	3.343294	1.132739	0.000134
1821	1.8109e+02	-7.5126	-41.467440	0.000344	3.444606	1.167064	0.000138
1822	1.8119e+02	-7.4693	-41.305954	0.000405	4.052478	1.373017	0.000162
1823	1.8129e+02	-7.4260	-41.180803	0.000314	3.140670	1.064088	0.000126
1824	1.8139e+02	-7.3891	-41.051615	0.000324	3.241982	1.098413	0.000130
1825	1.8149e+02	-7.3506	-40.898204	0.000385	3.849854	1.304366	0.000154
1826	1.8159e+02	-7.3169	-40.744792	0.000385	3.849854	1.304366	0.000154
1827	1.8169e+02	-7.2704	-40.627715	0.000294	2.938046	0.995437	0.000118
1828	1.8179e+02	-7.2239	-40.482379	0.000365	3.647230	1.235715	0.000146
1829	1.8189e+02	-7.2030	-40.345116	0.000344	3.444606	1.167064	0.000138
1830	1.8199e+02	-7.1517	-40.224002	0.000304	3.039358	1.029762	0.000122
1831	1.8209e+02	-7.1003	-40.074628	0.000375	3.748542	1.270040	0.000150
1832	1.8218e+02	-7.0682	-39.929291	0.000365	3.647230	1.235715	0.000146
1833	1.8228e+02	-7.0281	-39.796066	0.000334	3.343294	1.132739	0.000134
1834	1.8238e+02	-6.9896	-39.630543	0.000415	4.153790	1.407342	0.000166
1835	1.8248e+02	-6.9415	-39.505392	0.000314	3.140670	1.064088	0.000126
1836	1.8258e+02	-6.9062	-39.376203	0.000324	3.241982	1.098413	0.000130
1837	1.8268e+02	-6.8693	-39.230867	0.000365	3.647230	1.235715	0.000146
1838	1.8278e+02	-6.8356	-39.065344	0.000415	4.153790	1.407342	0.000166
1839	1.8288e+02	-6.7891	-38.968453	0.000243	2.431487	0.823810	0.000097
1840	1.8298e+02	-6.7538	-38.798893	0.000426	4.255102	1.441667	0.000170
1841	1.8308e+02	-6.7121	-38.641445	0.000395	3.951166	1.338691	0.000158
1842	1.8318e+02	-6.6688	-38.532442	0.000274	2.735422	0.926786	0.000110
1843	1.8328e+02	-6.6303	-38.395179	0.000344	3.444606	1.167064	0.000138
1844	1.8338e+02	-6.5934	-38.225620	0.000426	4.255102	1.441667	0.000170
1845	1.8348e+02	-6.5453	-38.100469	0.000314	3.140670	1.064088	0.000126
1846	1.8358e+02	-6.5164	-37.959169	0.000355	3.545918	1.201390	0.000142
1847	1.8368e+02	-6.4795	-37.813832	0.000365	3.647230	1.235715	0.000146
1848	1.8378e+02	-6.4426	-37.688681	0.000314	3.140670	1.064088	0.000126
1849	1.8388e+02	-6.3929	-37.579678	0.000274	2.735422	0.926786	0.000110
1850	1.8398e+02	-6.3512	-37.410118	0.000426	4.255102	1.441667	0.000170
1851	1.8407e+02	-6.3223	-37.260744	0.000375	3.748542	1.270040	0.000150
1852	1.8417e+02	-6.2902	-37.111370	0.000375	3.748542	1.270040	0.000150
1853	1.8427e+02	-6.2276	-36.949885	0.000405	4.052478	1.373017	0.000162
1854	1.8437e+02	-6.2020	-36.828771	0.000304	3.039358	1.029762	0.000122
1855	1.8447e+02	-6.1522	-36.711694	0.000294	2.938046	0.995437	0.000118
1856	1.8457e+02	-6.1185	-36.566357	0.000365	3.647230	1.235715	0.000146
1857	1.8467e+02	-6.0800	-36.412946	0.000385	3.849854	1.304366	0.000154
1858	1.8477e+02	-6.0367	-36.271646	0.000355	3.545918	1.201390	0.000142
1859	1.8487e+02	-5.9918	-36.158606	0.000284	2.836734	0.961112	0.000114
1860	1.8497e+02	-5.9581	-36.013269	0.000365	3.647230	1.235715	0.000146
1861	1.8507e+02	-5.9180	-35.831598	0.000456	4.559037	1.544644	0.000183
1862	1.8517e+02	-5.8763	-35.674150	0.000395	3.951166	1.338691	0.000158
1863	1.8527e+02	-5.8410	-35.557073	0.000294	2.938046	0.995437	0.000118
1864	1.8537e+02	-5.7913	-35.395588	0.000405	4.052478	1.373017	0.000162
1865	1.8547e+02	-5.7576	-35.238139	0.000395	3.951166	1.338691	0.000158
1866	1.8557e+02	-5.7255	-35.084728	0.000385	3.849854	1.304366	0.000154
1867	1.8567e+02	-5.6710	-34.963614	0.000304	3.039358	1.029762	0.000122
1868	1.8577e+02	-5.6341	-34.810203	0.000385	3.849854	1.304366	0.000154
1869	1.8587e+02	-5.5988	-34.660829	0.000375	3.748542	1.270040	0.000150
1870	1.8597e+02	-5.5571	-34.519529	0.000355	3.545918	1.201390	0.000142
1871	1.8606e+02	-5.5218	-34.386304	0.000334	3.343294	1.132739	0.000134
1872	1.8616e+02	-5.4801	-34.253078	0.000334	3.343294	1.132739	0.000134
1873	1.8626e+02	-5.4496	-34.095630	0.000395	3.951166	1.338691	0.000158
1874	1.8636e+02	-5.3998	-33.950293	0.000365	3.647230	1.235715	0.000146
1875	1.8646e+02	-5.3597	-33.808993	0.000355	3.545918	1.201390	0.000142
1876	1.8656e+02	-5.3196	-33.603099	0.000517	5.166909	1.750596	0.000207
1877	1.8666e+02	-5.2811	-33.506208	0.000243	2.431487	0.823810	0.000097
1878	1.8676e+02	-5.2426	-33.348760	0.000395	3.951166	1.338691	0.000158
1879	1.8686e+02	-5.2057	-33.215534	0.000334	3.343294	1.132739	0.000134
1880	1.8696e+02	-5.1640	-33.037900	0.000446	4.457725	1.510318	0.000179
1881	1.8706e+02	-5.1143	-32.908712	0.000324	3.241982	1.098413	0.000130
1882	1.8716e+02	-5.0854	-32.763375	0.000365	3.647230	1.235715	0.000146
1883	1.8726e+02	-5.0389	-32.573630	0.000476	4.761661	1.613295	0.000191
1884	1.8736e+02	-5.0036	-32.444441	0.000324	3.241982	1.098413	0.000130
1885	1.8746e+02	-4.9651	-32.319290	0.000314	3.140670	1.064088	0.000126
1886	1.8756e+02	-4.9202	-32.153768	0.000415	4.153790	1.407342	0.000166
1887	1.8766e+02	-4.8817	-31.980171	0.000436	4.356414	1.475993	0.000174
1888	1.8776e+02	-4.8384	-31.810611	0.000426	4.255102	1.441667	0.000170
1889	1.8786e+02	-4.8047	-31.677386	0.000334	3.343294	1.132739	0.000134
1890	1.8796e+02	-4.7598	-31.532049	0.000365	3.647230	1.235715	0.000146
1891	1.8806e+02	-4.7229	-31.366526	0.000415	4.153790	1.407342	0.000166
1892	1.8815e+02	-4.6860	-31.196966	0.000426	4.255102	1.441667	0.000170
1893	1.8825e+02	-4.6475	-31.059704	0.000344	3.444606	1.167064	0.000138
1894	1.8835e+02	-4.6106	-30.902256	0.000395	3.951166	1.338691	0.000158
1895	1.8845e+02	-4.5624	-30.744807	0.000395	3.951166	1.338691	0.000158
1896	1.8855e+02	-4.5191	-30.567173	0.000446	4.457725	1.510318	0.000179
1897	1.8865e+02	-4.4870	-30.454133	0.000284	2.836734	0.961112	0.000114
1898	1.8875e+02	-4.4405	-30.264388	0.000476	4.761661	1.613295	0.000191
1899	1.8885e+02	-4.3892	-30.147311	0.000294	2.938046	0.995437	0.000118
1900	1.8895e+02	-4.3683	-29.977751	0.000426	4.255102	1.441667	0.000170
1901	1.8905e+02	-4.3154	-29.812229	0.000415	4.153790	1.407342	0.000166
1902	1.8915e+02	-4.2769	-29.614409	0.000496	4.964285	1.681945	0.000199
1903	1.8925e+02	-4.2480	-29.489258	0.000314	3.140670	1.064088	0.000126
1904	1.8935e+02	-4.2095	-29.311624	0.000446	4.457725	1.510318	0.000179
1905	1.8945e+02	-4.1662	-29.186473	0.000314	3.140670	1.064088	0.000126
1906	1.8955e+02	-4.1261	-29.004802	0.000456	4.559037	1.544644	0.000183
1907	1.8965e+02	-4.0812	-28.867539	0.000344	3.444606	1.167064	0.000138
1908	1.8975e+02	-4.0443	-28.669719	0.000496	4.964285	1.681945	0.000199
1909	1.8985e+02	-4.0042	-28.536494	0.000334	3.343294	1.132739	0.000134
1910	1.8995e+02	-3.9576	-28.399231	0.000344	3.444606	1.167064	0.000138
1911	1.9004e+02	-3.9304	-28.185263	0.000537	5.369533	1.819247	0.000215
1912	1.9014e+02	-3.8806	-28.060112	0.000314	3.140670	1.064088	0.000126
1913	1.9024e+02	-3.8389	-27.874404	0.000466	4.660349	1.578969	0.000187
1914	1.9034e+02	-3.7924	-27.712918	0.000405	4.052478	1.373017	0.000162
1915	1.9044e+02	-3.7635	-27.555470	0.000395	3.951166	1.338691	0.000158
1916	1.9054e+02	-3.7266	-27.389947	0.000415	4.153790	1.407342	0.000166
1917	1.9064e+02	-3.6913	-27.248648	0.000355	3.545918	1.201390	0.000142
1918	1.9074e+02	-3.6448	-27.107348	0.000355	3.545918	1.201390	0.000142
1919	1.9084e+02	-3.6095	-26.897417	0.000527	5.268221	1.784922	0.000211
1920	1.9094e+02	-3.5726	-26.699597	0.000496	4.964285	1.681945	0.000199
1921	1.9104e+02	-3.5213	-26.586557	0.000284	2.836734	0.961112	0.000114
1922	1.9114e+02	-3.4892	-26.392775	0.000486	4.862973	1.647620	0.000195
1923	1.9124e+02	-3.4443	-26.235327	0.000395	3.951166	1.338691	0.000158
1924	1.9134e+02	-3.4106	-26.045581	0.000476	4.761661	1.613295	0.000191
1925	1.9144e+02	-3.3593	-25.904281	0.000355	3.545918	1.201390	0.000142
1926	1.9154e+02	-3.3272	-25.754907	0.000375	3.748542	1.270040	0.000150
1927	1.9164e+02	-3.2903	-25.573236	0.000456	4.559037	1.544644	0.000183
1928	1.9174e+02	-3.2422	-25.411751	0.000405	4.052478	1.373017	0.000162
1929	1.9184e+02	-3.2037	-25.246228	0.000415	4.153790	1.407342	0.000166
1930	1.9194e+02	-3.1748	-25.092817	0.000385	3.849854	1.304366	0.000154
1931	1.9203e+02	-3.1234	-24.935369	0.000395	3.951166	1.338691	0.000158
1932	1.9213e+02	-3.0865	-24.725438	0.000527	5.268221	1.784922	0.000211
1933	1.9223e+02	-3.0529	-24.555878	0.000426	4.255102	1.441667	0.000170
1934	1.9233e+02	-3.0063	-24.402467	0.000385	3.849854	1.304366	0.000154
1935	1.9243e+02	-2.9678	-24.188499	0.000537	5.369533	1.819247	0.000215
1936	1.9253e+02	-2.9309	-24.047199	0.000355	3.545918	1.201390	0.000142
1937	1.9263e+02	-2.8860	-23.889751	0.000395	3.951166	1.338691	0.000158
1938	1.9273e+02	-2.8459	-23.679820	0.000527	5.268221	1.784922	0.000211
1939	1.9283e+02	-2.8138	-23.522371	0.000395	3.951166	1.338691	0.000158
1940	1.9293e+02	-2.7769	-23.356849	0.000415	4.153790	1.407342	0.000166
1941	1.9303e+02	-2.7352	-23.199401	0.000395	3.951166	1.338691	0.000158
1942	1.9313e+02	-2.6903	-23.001581	0.000496	4.964285	1.681945	0.000199
1943	1.9323e+02	-2.6534	-22.815873	0.000466	4.660349	1.578969	0.000187
1944	1.9333e+02	-2.6053	-22.666499	0.000375	3.748542	1.270040	0.000150
1945	1.9343e+02	-2.5732	-22.521162	0.000365	3.647230	1.235715	0.000146
1946	1.9353e+02	-2.5363	-22.291045	0.000577	5.774781	1.956549	0.000231
1947	1.9363e+02	-2.4946	-22.121485	0.000426	4.255102	1.441667	0.000170
1948	1.9373e+02	-2.4481	-21.984223	0.000344	3.444606	1.167064	0.000138
1949	1.9383e+02	-2.4144	-21.762180	0.000557	5.572157	1.887898	0.000223
1950	1.9393e+02	-2.3775	-21.600695	0.000405	4.052478	1.373017	0.000162
1951	1.9403e+02	-2.3245	-21.382689	0.000547	5.470845	1.853572	0.000219
1952	1.9412e+02	-2.2924	-21.253501	0.000324	3.241982	1.098413	0.000130
1953	1.9422e+02	-2.2507	-21.075867	0.000446	4.457725	1.510318	0.000179
1954	1.9432e+02	-2.2090	-20.865936	0.000527	5.268221	1.784922	0.000211
1955	1.9442e+02	-2.1705	-20.664079	0.000507	5.065597	1.716271	0.000203
1956	1.9452e+02	-2.1368	-20.530854	0.000334	3.343294	1.132739	0.000134
1957	1.9462e+02	-2.0983	-20.337071	0.000486	4.862973	1.647620	0.000195
1958	1.9472e+02	-2.0582	-20.171549	0.000415	4.153790	1.407342	0.000166
1959	1.9482e+02	-2.0197	-19.981803	0.000476	4.761661	1.613295	0.000191
1960	1.9492e+02	-1.9620	-19.804169	0.000446	4.457725	1.510318	0.000179
1961	1.9502e+02	-1.9235	-19.618461	0.000466	4.660349	1.578969	0.000187
1962	1.9512e+02	-1.8946	-19.461013	0.000395	3.951166	1.338691	0.000158
1963	1.9522e+02	-1.8513	-19.255119	0.000517	5.166909	1.750596	0.000207
1964	1.9532e+02	-1.8080	-19.037114	0.000547	5.470845	1.853572	0.000219
1965	1.9542e+02	-1.7727	-18.879665	0.000395	3.951166	1.338691	0.000158
1966	1.9552e+02	-1.7342	-18.722217	0.000395	3.951166	1.338691	0.000158
1967	1.9562e+02	-1.6941	-18.471915	0.000628	6.281340	2.128176	0.000252
1968	1.9572e+02	-1.6508	-18.350800	0.000304	3.039358	1.029762	0.000122
1969	1.9582e+02	-1.6123	-18.136832	0.000537	5.369533	1.819247	0.000215
1970	1.9592e+02	-1.5754	-17.955161	0.000456	4.559037	1.544644	0.000183
1971	1.9601e+02	-1.5320	-17.821936	0.000334	3.343294	1.132739	0.000134
1972	1.9611e+02	-1.5000	-17.612005	0.000527	5.268221	1.784922	0.000211
1973	1.9621e+02	-1.4566	-17.418222	0.000486	4.862973	1.647620	0.000195
1974	1.9631e+02	-1.4117	-17.236551	0.000456	4.559037	1.544644	0.000183
1975	1.9641e+02	-1.3716	-17.034694	0.000507	5.065597	1.716271	0.000203
1976	1.9651e+02	-1.3379	-16.828800	0.000517	5.166909	1.750596	0.000207
1977	1.9661e+02	-1.2978	-16.667315	0.000405	4.052478	1.373017	0.000162
1978	1.9671e+02	-1.2561	-16.449310	0.000547	5.470845	1.853572	0.000219
1979	1.9681e+02	-1.2160	-16.316084	0.000334	3.343294	1.132739	0.000134
1980	1.9691e+02	-1.1727	-16.094042	0.000557	5.572157	1.887898	0.000223
1981	1.9701e+02	-1.1342	-15.888148	0.000517	5.166909	1.750596	0.000207
1982	1.9711e+02	-1.0941	-15.734737	0.000385	3.849854	1.304366	0.000154
1983	1.9721e+02	-1.0620	-15.540954	0.000486	4.862973	1.647620	0.000195
1984	1.9731e+02	-1.0171	-15.326986	0.000537	5.369533	1.819247	0.000215
1985	1.9741e+02	-0.9818	-15.161463	0.000415	4.153790	1.407342	0.000166
1986	1.9751e+02	-0.9433	-14.971718	0.000476	4.761661	1.613295	0.000191
1987	1.9761e+02	-0.8936	-14.757750	0.000537	5.369533	1.819247	0.000215
1988	1.9771e+02	-0.8599	-14.596264	0.000405	4.052478	1.373017	0.000162
1989	1.9781e+02	-0.8133	-14.390370	0.000517	5.166909	1.750596	0.000207
1990	1.9791e+02	-0.7700	-14.204662	0.000466	4.660349	1.578969	0.000187
1991	1.9800e+02	-0.7331	-13.986657	0.000547	5.470845	1.853572	0.000219
1992	1.9810e+02	-0.6978	-13.784800	0.000507	5.065597	1.716271	0.000203
1993	1.9820e+02	-0.6593	-13.651574	0.000334	3.343294	1.132739	0.000134
1994	1.9830e+02	-0.6096	-13.413383	0.000598	5.977405	2.025199	0.000239
1995	1.9840e+02	-0.5791	-13.247861	0.000415	4.153790	1.407342	0.000166
1996	1.9850e+02	-0.5358	-13.017744	0.000577	5.774781	1.956549	0.000231
1997	1.9860e+02	-0.5005	-12.827999	0.000476	4.761661	1.613295	0.000191
1998	1.9870e+02	-0.4572	-12.626142	0.000507	5.065597	1.716271	0.000203
1999	1.9880e+02	-0.4059	-12.444471	0.000456	4.559037	1.544644	0.000183
2000	1.9890e+02	-0.3754	-12.262800	0.000456	4.559037	1.544644	0.000183
2001	1.9900e+02	-0.3401	-12.056906	0.000517	5.166909	1.750596	0.000207
2002	1.9910e+02	-0.3000	-11.855049	0.000507	5.065597	1.716271	0.000203
2003	1.9920e+02	-0.2535	-11.669341	0.000466	4.660349	1.578969	0.000187
2004	1.9930e+02	-0.2166	-11.503818	0.000415	4.153790	1.407342	0.000166
2005	1.9940e+02	-0.1749	-11.293887	0.000527	5.268221	1.784922	0.000211
2006	1.9950e+02	-0.1348	-11.104142	0.000476	4.761661	1.613295	0.000191
2007	1.9960e+02	-0.0979	-10.894211	0.000527	5.268221	1.784922	0.000211
2008	1.9970e+02	-0.0594	-10.692354	0.000507	5.065597	1.716271	0.000203
2009	1.9980e+02	-0.0144	-10.506646	0.000507	5.065597	1.716271	0.000187

Center data before PMax,+/-Pr and +/-Vc Calc.

PMax (uC/cm2):	7.50e+01
Pr (uC/cm2):	6.46e+00
-Pr (uC/cm2):	-1.05e+01
PLoss (uC/cm2):	-1.08e+01
-Vc:	-1.27e+00
C (Max-Eff) (nF):	3.75e-01
K (Eff):	1.27e+03
Vert. (+/-Pr) Shift (uC/cm2):	-2.02e+00
Offset (uC/cm2):	-2.89e-01

A (Loop Area - uC/cm2·Volts):	1.60e-01



Hysteresis Version: 5.48.1 - Radiant Technologies, Inc., 1999 - 9/12/24

