»»»»»»»»»»»»»»»»»»»»»»»»»»»»»»»»»»»» Hysteresis ««««««««««««««««««««««««««««««««««««
»»»  Executed Version:	5.48.1
»»»  Vision Version:	5.48.4 (R)
»»»  Vision Compiled:	9/18/24
»»»  Driver Version:	5.47.0
»»»  Windows Version:	Windows 8 or 8.1
»»»  Processor Information:	x86 (AMD or Intel) - 32 Processors
»»»  Tester Name:	PMF21124-494 (100V)
»»»  Tester S/N:	PMF21124-494
»»»  Internal Amp Type:	100V RevK 270k
»»»  Internal Amp S/N:	iAB2-596/K     
»»»  Execution Count:	1
»»»»»»»»»»»»»»»»»»»»»»»»»»»»»»»»»»»»»»»»»»««««««««««««««««««««««««««««««««««««««««««

Stored:	6/13/2025 - 10:24:19
Configured:	06/13/25 10:12:58 AM
Executed:	06/13/25 10:23:47 AM

»»»»»»»»»»»»»»»»»»»»»»»»»»»»»»»»»»» Sample Info ««««««««««««««««««««««««««««««««««««
Sample Name:	
Lot Name:	
Wafer Name:	
Die Row/Column:	0/0
Capacitor Number:	0
Sample Area (cm2):	1.00e-04
Sample Thickness (microns):	3.00e-01

Amplifier:	Internal

»»»»»»»»»»»»»»»»»»»»»»»»»»»»»»»»»»» Tester Info «««««««««««««««««««««««««««««««««««
Tester Name:	PMF21124-494 (100V)
Tester Serial Number:	PMF21124-494
Return Signal Amp. Level:	0.19 [Index: 3]

»»»»»»»»»»»»»»»»»»»»»»»»»»»»»»»» Hysteresis Info ««««««««««««««««««««««««««««««««««
Task Name:	Hyst-1704
Volts:	20.00
Field:	666.67 (kV/cm)
DCBias:	0.00
DCField:	0.00 (kV/cm)
Hysteresis Period (ms):	2.00e+02
Preset:	Enabled
Preset Delay (ms):	1.00e+03
Profile:	Standard Bipolar

»»»»»»»»»»»»»»»»»»»»»»»»»»»»»»»»»»»»»» Data «««««««««««««««««««««««««««««««««««««««
Points:	2009

Valid Data

Point	Time (ms)	Drive Voltage	Measured Polarization (uC/cm2)	Capacitance (uF)	Normalized Capacitance (uF/cm2)	Dielectric Constant	Instantaneous Current (mA)
   1	0.0000e+00	-0.0096	-0.062576	0.000233	2.331063	0.789785	0.000093
   2	9.9500e-02	0.0225	0.030279	0.000233	2.331063	0.789785	0.000093
   3	1.9900e-01	0.0545	0.183690	0.000385	3.851321	1.304863	0.000154
   4	2.9850e-01	0.1043	0.304804	0.000304	3.040516	1.030155	0.000122
   5	3.9800e-01	0.1396	0.478401	0.000436	4.358074	1.476555	0.000174
   6	4.9750e-01	0.1765	0.599515	0.000304	3.040516	1.030155	0.000122
   7	5.9700e-01	0.2150	0.761000	0.000405	4.054022	1.373540	0.000162
   8	6.9650e-01	0.2567	0.922486	0.000405	4.054022	1.373540	0.000162
   9	7.9600e-01	0.2920	1.075897	0.000385	3.851321	1.304863	0.000154
  10	8.9550e-01	0.3401	1.229308	0.000385	3.851321	1.304863	0.000154
  11	9.9500e-01	0.3770	1.366570	0.000345	3.445919	1.167509	0.000138
  12	1.0945e+00	0.4235	1.499796	0.000334	3.344568	1.133170	0.000134
  13	1.1940e+00	0.4556	1.661281	0.000405	4.054022	1.373540	0.000162
  14	1.2935e+00	0.4957	1.810655	0.000375	3.749970	1.270524	0.000150
  15	1.3930e+00	0.5342	1.972141	0.000405	4.054022	1.373540	0.000162
  16	1.4925e+00	0.5743	2.101329	0.000324	3.243218	1.098832	0.000130
  17	1.5920e+00	0.6112	2.311260	0.000527	5.270229	1.785602	0.000211
  18	1.6915e+00	0.6706	2.416226	0.000264	2.635114	0.892801	0.000105
  19	1.7910e+00	0.6946	2.545414	0.000324	3.243218	1.098832	0.000130
  20	1.8905e+00	0.7267	2.763419	0.000547	5.472930	1.854279	0.000219
  21	1.9900e+00	0.7716	2.872422	0.000274	2.736465	0.927139	0.000110
  22	2.0895e+00	0.8150	3.041982	0.000426	4.256723	1.442217	0.000170
  23	2.1890e+00	0.8583	3.159059	0.000294	2.939166	0.995816	0.000118
  24	2.2885e+00	0.8968	3.352841	0.000486	4.864826	1.648248	0.000195
  25	2.3880e+00	0.9305	3.526438	0.000436	4.358074	1.476555	0.000174
  26	2.4875e+00	0.9850	3.623329	0.000243	2.432413	0.824124	0.000097
  27	2.5870e+00	1.0139	3.792889	0.000426	4.256723	1.442217	0.000170
  28	2.6865e+00	1.0508	3.938226	0.000365	3.648620	1.236186	0.000146
  29	2.7860e+00	1.1021	4.107786	0.000426	4.256723	1.442217	0.000170
  30	2.8855e+00	1.1342	4.245048	0.000345	3.445919	1.167509	0.000138
  31	2.9850e+00	1.1791	4.422682	0.000446	4.459424	1.510894	0.000179
  32	3.0845e+00	1.2128	4.604353	0.000456	4.560775	1.545232	0.000183
  33	3.1840e+00	1.2641	4.753727	0.000375	3.749970	1.270524	0.000150
  34	3.2835e+00	1.2978	4.862730	0.000274	2.736465	0.927139	0.000110
  35	3.3830e+00	1.3347	5.028253	0.000416	4.155373	1.407878	0.000166
  36	3.4825e+00	1.3764	5.217998	0.000476	4.763476	1.613909	0.000191
  37	3.5820e+00	1.4069	5.343149	0.000314	3.141867	1.064493	0.000126
  38	3.6815e+00	1.4566	5.528857	0.000466	4.662125	1.579571	0.000187
  39	3.7810e+00	1.4967	5.641897	0.000284	2.837815	0.961478	0.000114
  40	3.8805e+00	1.5256	5.807420	0.000416	4.155373	1.407878	0.000166
  41	3.9800e+00	1.5673	5.968905	0.000405	4.054022	1.373540	0.000162
  42	4.0795e+00	1.6106	6.122316	0.000385	3.851321	1.304863	0.000154
  43	4.1790e+00	1.6604	6.295913	0.000436	4.358074	1.476555	0.000174
  44	4.2785e+00	1.6973	6.473547	0.000446	4.459424	1.510894	0.000179
  45	4.3780e+00	1.7358	6.586587	0.000284	2.837815	0.961478	0.000114
  46	4.4775e+00	1.7631	6.752110	0.000416	4.155373	1.407878	0.000166
  47	4.5770e+00	1.8096	6.945892	0.000486	4.864826	1.648248	0.000195
  48	4.6765e+00	1.8449	7.103340	0.000395	3.952671	1.339201	0.000158
  49	4.7760e+00	1.8898	7.240603	0.000345	3.445919	1.167509	0.000138
  50	4.8755e+00	1.9267	7.406126	0.000416	4.155373	1.407878	0.000166
  51	4.9750e+00	1.9748	7.563574	0.000395	3.952671	1.339201	0.000158
  52	5.0745e+00	2.0069	7.648354	0.000213	2.128362	0.721108	0.000085
  53	5.1740e+00	2.0502	7.886545	0.000598	5.979682	2.025971	0.000239
  54	5.2735e+00	2.0887	7.991510	0.000264	2.635114	0.892801	0.000105
  55	5.3730e+00	2.1304	8.140884	0.000375	3.749970	1.270524	0.000150
  56	5.4725e+00	2.1689	8.314481	0.000436	4.358074	1.476555	0.000174
  57	5.5720e+00	2.2170	8.488078	0.000436	4.358074	1.476555	0.000174
  58	5.6715e+00	2.2539	8.645526	0.000395	3.952671	1.339201	0.000158
  59	5.7710e+00	2.2973	8.819123	0.000436	4.358074	1.476555	0.000174
  60	5.8705e+00	2.3293	8.944274	0.000314	3.141867	1.064493	0.000126
  61	5.9700e+00	2.3614	9.113834	0.000426	4.256723	1.442217	0.000170
  62	6.0695e+00	2.4144	9.222837	0.000274	2.736465	0.927139	0.000110
  63	6.1690e+00	2.4561	9.444879	0.000557	5.574280	1.888617	0.000223
  64	6.2685e+00	2.4866	9.561956	0.000294	2.939166	0.995816	0.000118
  65	6.3680e+00	2.5235	9.731516	0.000426	4.256723	1.442217	0.000170
  66	6.4675e+00	2.5716	9.872815	0.000355	3.547269	1.201847	0.000142
  67	6.5670e+00	2.6181	10.046412	0.000436	4.358074	1.476555	0.000174
  68	6.6665e+00	2.6486	10.207898	0.000405	4.054022	1.373540	0.000162
  69	6.7660e+00	2.6839	10.333049	0.000314	3.141867	1.064493	0.000126
  70	6.8655e+00	2.7336	10.482423	0.000375	3.749970	1.270524	0.000150
  71	6.9650e+00	2.7641	10.672168	0.000476	4.763476	1.613909	0.000191
  72	7.0645e+00	2.8042	10.809431	0.000345	3.445919	1.167509	0.000138
  73	7.1640e+00	2.8475	10.978991	0.000426	4.256723	1.442217	0.000170
  74	7.2635e+00	2.8860	11.132402	0.000385	3.851321	1.304863	0.000154
  75	7.3630e+00	2.9213	11.253516	0.000304	3.040516	1.030155	0.000122
  76	7.4625e+00	2.9646	11.455373	0.000507	5.067527	1.716925	0.000203
  77	7.5620e+00	3.0047	11.564375	0.000274	2.736465	0.927139	0.000110
  78	7.6615e+00	3.0513	11.733935	0.000426	4.256723	1.442217	0.000170
  79	7.7610e+00	3.0865	11.863123	0.000324	3.243218	1.098832	0.000130
  80	7.8605e+00	3.1315	12.036720	0.000436	4.358074	1.476555	0.000174
  81	7.9600e+00	3.1571	12.194168	0.000395	3.952671	1.339201	0.000158
  82	8.0595e+00	3.2004	12.351617	0.000395	3.952671	1.339201	0.000158
  83	8.1590e+00	3.2534	12.533288	0.000456	4.560775	1.545232	0.000183
  84	8.2585e+00	3.2807	12.646328	0.000284	2.837815	0.961478	0.000114
  85	8.3580e+00	3.3256	12.807813	0.000405	4.054022	1.373540	0.000162
  86	8.4575e+00	3.3673	12.973336	0.000416	4.155373	1.407878	0.000166
  87	8.5570e+00	3.4074	13.114635	0.000355	3.547269	1.201847	0.000142
  88	8.6565e+00	3.4459	13.247861	0.000334	3.344568	1.133170	0.000134
  89	8.7560e+00	3.4892	13.449718	0.000507	5.067527	1.716925	0.000203
  90	8.8555e+00	3.5261	13.546609	0.000243	2.432413	0.824124	0.000097
  91	8.9550e+00	3.5662	13.724243	0.000446	4.459424	1.510894	0.000179
  92	9.0545e+00	3.5983	13.873617	0.000375	3.749970	1.270524	0.000150
  93	9.1540e+00	3.6496	14.043177	0.000426	4.256723	1.442217	0.000170
  94	9.2535e+00	3.6817	14.156216	0.000284	2.837815	0.961478	0.000114
  95	9.3530e+00	3.7218	14.305590	0.000375	3.749970	1.270524	0.000150
  96	9.4525e+00	3.7699	14.467076	0.000405	4.054022	1.373540	0.000162
  97	9.5520e+00	3.7956	14.640673	0.000436	4.358074	1.476555	0.000174
  98	9.6515e+00	3.8421	14.781973	0.000355	3.547269	1.201847	0.000142
  99	9.7510e+00	3.8822	14.947495	0.000416	4.155373	1.407878	0.000166
 100	9.8505e+00	3.9191	15.088795	0.000355	3.547269	1.201847	0.000142
 101	9.9500e+00	3.9689	15.234132	0.000365	3.648620	1.236186	0.000146
 102	1.0050e+01	3.9994	15.383506	0.000375	3.749970	1.270524	0.000150
 103	1.0149e+01	4.0346	15.565177	0.000456	4.560775	1.545232	0.000183
 104	1.0248e+01	4.0876	15.674180	0.000274	2.736465	0.927139	0.000110
 105	1.0348e+01	4.1325	15.851813	0.000446	4.459424	1.510894	0.000179
 106	1.0447e+01	4.1630	16.041559	0.000476	4.763476	1.613909	0.000191
 107	1.0547e+01	4.2063	16.166710	0.000314	3.141867	1.064493	0.000126
 108	1.0646e+01	4.2432	16.320121	0.000385	3.851321	1.304863	0.000154
 109	1.0746e+01	4.2817	16.461421	0.000355	3.547269	1.201847	0.000142
 110	1.0845e+01	4.3266	16.643092	0.000456	4.560775	1.545232	0.000183
 111	1.0945e+01	4.3651	16.800540	0.000395	3.952671	1.339201	0.000158
 112	1.1044e+01	4.4068	16.949914	0.000375	3.749970	1.270524	0.000150
 113	1.1144e+01	4.4437	17.083140	0.000334	3.344568	1.133170	0.000134
 114	1.1243e+01	4.4886	17.216365	0.000334	3.344568	1.133170	0.000134
 115	1.1343e+01	4.5255	17.398036	0.000456	4.560775	1.545232	0.000183
 116	1.1443e+01	4.5640	17.490891	0.000233	2.331063	0.789785	0.000093
 117	1.1542e+01	4.5929	17.660450	0.000426	4.256723	1.442217	0.000170
 118	1.1642e+01	4.6362	17.825973	0.000416	4.155373	1.407878	0.000166
 119	1.1741e+01	4.6763	17.987458	0.000405	4.054022	1.373540	0.000162
 120	1.1841e+01	4.7180	18.169129	0.000456	4.560775	1.545232	0.000183
 121	1.1940e+01	4.7549	18.261984	0.000233	2.331063	0.789785	0.000093
 122	1.2040e+01	4.7918	18.455766	0.000486	4.864826	1.648248	0.000195
 123	1.2139e+01	4.8512	18.597066	0.000355	3.547269	1.201847	0.000142
 124	1.2239e+01	4.8865	18.754514	0.000395	3.952671	1.339201	0.000158
 125	1.2338e+01	4.9218	18.903888	0.000375	3.749970	1.270524	0.000150
 126	1.2438e+01	4.9555	19.004816	0.000253	2.533764	0.858462	0.000101
 127	1.2537e+01	4.9956	19.174376	0.000426	4.256723	1.442217	0.000170
 128	1.2636e+01	5.0212	19.327787	0.000385	3.851321	1.304863	0.000154
 129	1.2736e+01	5.0806	19.456976	0.000324	3.243218	1.098832	0.000130
 130	1.2835e+01	5.1303	19.626535	0.000426	4.256723	1.442217	0.000170
 131	1.2935e+01	5.1656	19.783984	0.000395	3.952671	1.339201	0.000158
 132	1.3034e+01	5.1977	19.937395	0.000385	3.851321	1.304863	0.000154
 133	1.3134e+01	5.2362	20.106955	0.000426	4.256723	1.442217	0.000170
 134	1.3233e+01	5.2731	20.268440	0.000405	4.054022	1.373540	0.000162
 135	1.3333e+01	5.3164	20.417814	0.000375	3.749970	1.270524	0.000150
 136	1.3432e+01	5.3581	20.551039	0.000334	3.344568	1.133170	0.000134
 137	1.3532e+01	5.4031	20.672154	0.000304	3.040516	1.030155	0.000122
 138	1.3632e+01	5.4448	20.861899	0.000476	4.763476	1.613909	0.000191
 139	1.3731e+01	5.4769	21.023384	0.000405	4.054022	1.373540	0.000162
 140	1.3831e+01	5.5234	21.136424	0.000284	2.837815	0.961478	0.000114
 141	1.3930e+01	5.5587	21.289835	0.000385	3.851321	1.304863	0.000154
 142	1.4030e+01	5.6036	21.427098	0.000345	3.445919	1.167509	0.000138
 143	1.4129e+01	5.6357	21.564361	0.000345	3.445919	1.167509	0.000138
 144	1.4229e+01	5.6854	21.697586	0.000334	3.344568	1.133170	0.000134
 145	1.4328e+01	5.7175	21.855034	0.000395	3.952671	1.339201	0.000158
 146	1.4428e+01	5.7592	21.984223	0.000324	3.243218	1.098832	0.000130
 147	1.4527e+01	5.7929	22.161857	0.000446	4.459424	1.510894	0.000179
 148	1.4627e+01	5.8330	22.331416	0.000426	4.256723	1.442217	0.000170
 149	1.4726e+01	5.8795	22.456568	0.000314	3.141867	1.064493	0.000126
 150	1.4825e+01	5.9260	22.658424	0.000507	5.067527	1.716925	0.000203
 151	1.4925e+01	5.9549	22.751278	0.000233	2.331063	0.789785	0.000093
 152	1.5024e+01	5.9950	22.920838	0.000426	4.256723	1.442217	0.000170
 153	1.5124e+01	6.0415	23.106546	0.000466	4.662125	1.579571	0.000187
 154	1.5223e+01	6.0816	23.243809	0.000345	3.445919	1.167509	0.000138
 155	1.5323e+01	6.1153	23.360886	0.000294	2.939166	0.995816	0.000118
 156	1.5422e+01	6.1538	23.490074	0.000324	3.243218	1.098832	0.000130
 157	1.5522e+01	6.1891	23.651560	0.000405	4.054022	1.373540	0.000162
 158	1.5621e+01	6.2389	23.809008	0.000395	3.952671	1.339201	0.000158
 159	1.5721e+01	6.2774	23.942233	0.000334	3.344568	1.133170	0.000134
 160	1.5820e+01	6.3111	24.095645	0.000385	3.851321	1.304863	0.000154
 161	1.5920e+01	6.3560	24.253093	0.000395	3.952671	1.339201	0.000158
 162	1.6020e+01	6.3977	24.366133	0.000284	2.837815	0.961478	0.000114
 163	1.6119e+01	6.4330	24.551841	0.000466	4.662125	1.579571	0.000187
 164	1.6218e+01	6.4699	24.705252	0.000385	3.851321	1.304863	0.000154
 165	1.6318e+01	6.5180	24.842515	0.000345	3.445919	1.167509	0.000138
 166	1.6418e+01	6.5533	25.020149	0.000446	4.459424	1.510894	0.000179
 167	1.6517e+01	6.5870	25.145300	0.000314	3.141867	1.064493	0.000126
 168	1.6616e+01	6.6335	25.306785	0.000405	4.054022	1.373540	0.000162
 169	1.6716e+01	6.6688	25.460197	0.000385	3.851321	1.304863	0.000154
 170	1.6816e+01	6.7137	25.569199	0.000274	2.736465	0.927139	0.000110
 171	1.6915e+01	6.7554	25.750870	0.000456	4.560775	1.545232	0.000183
 172	1.7015e+01	6.7875	25.855836	0.000264	2.635114	0.892801	0.000105
 173	1.7114e+01	6.8324	26.017321	0.000405	4.054022	1.373540	0.000162
 174	1.7213e+01	6.8725	26.211104	0.000486	4.864826	1.648248	0.000195
 175	1.7313e+01	6.9078	26.332218	0.000304	3.040516	1.030155	0.000122
 176	1.7413e+01	6.9576	26.469480	0.000345	3.445919	1.167509	0.000138
 177	1.7512e+01	7.0009	26.618854	0.000375	3.749970	1.270524	0.000150
 178	1.7611e+01	7.0233	26.752080	0.000334	3.344568	1.133170	0.000134
 179	1.7711e+01	7.0699	26.941825	0.000476	4.763476	1.613909	0.000191
 180	1.7811e+01	7.1132	27.083125	0.000355	3.547269	1.201847	0.000142
 181	1.7910e+01	7.1436	27.200202	0.000294	2.939166	0.995816	0.000118
 182	1.8009e+01	7.1934	27.373799	0.000436	4.358074	1.476555	0.000174
 183	1.8109e+01	7.2351	27.462616	0.000223	2.229712	0.755447	0.000089
 184	1.8209e+01	7.2688	27.656398	0.000486	4.864826	1.648248	0.000195
 185	1.8308e+01	7.3105	27.793661	0.000345	3.445919	1.167509	0.000138
 186	1.8407e+01	7.3538	27.971295	0.000446	4.459424	1.510894	0.000179
 187	1.8507e+01	7.3891	28.068186	0.000243	2.432413	0.824124	0.000097
 188	1.8607e+01	7.4324	28.221597	0.000385	3.851321	1.304863	0.000154
 189	1.8706e+01	7.4725	28.362897	0.000355	3.547269	1.201847	0.000142
 190	1.8805e+01	7.5078	28.564754	0.000507	5.067527	1.716925	0.000203
 191	1.8905e+01	7.5527	28.653571	0.000223	2.229712	0.755447	0.000089
 192	1.9005e+01	7.5864	28.815056	0.000405	4.054022	1.373540	0.000162
 193	1.9104e+01	7.6297	28.956356	0.000355	3.547269	1.201847	0.000142
 194	1.9203e+01	7.6618	29.105730	0.000375	3.749970	1.270524	0.000150
 195	1.9303e+01	7.7067	29.234918	0.000324	3.243218	1.098832	0.000130
 196	1.9402e+01	7.7484	29.408515	0.000436	4.358074	1.476555	0.000174
 197	1.9502e+01	7.7902	29.529629	0.000304	3.040516	1.030155	0.000122
 198	1.9602e+01	7.8271	29.691115	0.000405	4.054022	1.373540	0.000162
 199	1.9701e+01	7.8672	29.844526	0.000385	3.851321	1.304863	0.000154
 200	1.9800e+01	7.9089	29.953529	0.000274	2.736465	0.927139	0.000110
 201	1.9900e+01	7.9474	30.090791	0.000345	3.445919	1.167509	0.000138
 202	2.0000e+01	7.9891	30.260351	0.000426	4.256723	1.442217	0.000170
 203	2.0099e+01	8.0292	30.357242	0.000243	2.432413	0.824124	0.000097
 204	2.0198e+01	8.0677	30.526802	0.000426	4.256723	1.442217	0.000170
 205	2.0298e+01	8.1014	30.668102	0.000355	3.547269	1.201847	0.000142
 206	2.0398e+01	8.1415	30.809401	0.000355	3.547269	1.201847	0.000142
 207	2.0497e+01	8.1896	30.962813	0.000385	3.851321	1.304863	0.000154
 208	2.0596e+01	8.2313	31.104112	0.000355	3.547269	1.201847	0.000142
 209	2.0696e+01	8.2618	31.249449	0.000365	3.648620	1.236186	0.000146
 210	2.0796e+01	8.3196	31.394786	0.000365	3.648620	1.236186	0.000146
 211	2.0895e+01	8.3436	31.499752	0.000264	2.635114	0.892801	0.000105
 212	2.0994e+01	8.3901	31.689497	0.000476	4.763476	1.613909	0.000191
 213	2.1094e+01	8.4238	31.802537	0.000284	2.837815	0.961478	0.000114
 214	2.1194e+01	8.4575	31.968059	0.000416	4.155373	1.407878	0.000166
 215	2.1293e+01	8.5056	32.109359	0.000355	3.547269	1.201847	0.000142
 216	2.1392e+01	8.5425	32.250659	0.000355	3.547269	1.201847	0.000142
 217	2.1492e+01	8.5810	32.363699	0.000284	2.837815	0.961478	0.000114
 218	2.1591e+01	8.6131	32.525184	0.000405	4.054022	1.373540	0.000162
 219	2.1691e+01	8.6741	32.682632	0.000395	3.952671	1.339201	0.000158
 220	2.1791e+01	8.7142	32.823932	0.000355	3.547269	1.201847	0.000142
 221	2.1890e+01	8.7399	32.941009	0.000294	2.939166	0.995816	0.000118
 222	2.1989e+01	8.7848	33.102494	0.000405	4.054022	1.373540	0.000162
 223	2.2089e+01	8.8265	33.219571	0.000294	2.939166	0.995816	0.000118
 224	2.2189e+01	8.8618	33.377020	0.000395	3.952671	1.339201	0.000158
 225	2.2288e+01	8.9131	33.526394	0.000375	3.749970	1.270524	0.000150
 226	2.2387e+01	8.9500	33.675768	0.000375	3.749970	1.270524	0.000150
 227	2.2487e+01	8.9821	33.788808	0.000284	2.837815	0.961478	0.000114
 228	2.2587e+01	9.0286	33.954330	0.000416	4.155373	1.407878	0.000166
 229	2.2686e+01	9.0687	34.091593	0.000345	3.445919	1.167509	0.000138
 230	2.2785e+01	9.1153	34.224818	0.000334	3.344568	1.133170	0.000134
 231	2.2885e+01	9.1409	34.386304	0.000405	4.054022	1.373540	0.000162
 232	2.2985e+01	9.1810	34.523566	0.000345	3.445919	1.167509	0.000138
 233	2.3084e+01	9.2259	34.628532	0.000264	2.635114	0.892801	0.000105
 234	2.3183e+01	9.2693	34.761757	0.000334	3.344568	1.133170	0.000134
 235	2.3283e+01	9.3013	34.899020	0.000345	3.445919	1.167509	0.000138
 236	2.3383e+01	9.3414	35.056468	0.000395	3.952671	1.339201	0.000158
 237	2.3482e+01	9.3848	35.149322	0.000233	2.331063	0.789785	0.000093
 238	2.3581e+01	9.4168	35.302733	0.000385	3.851321	1.304863	0.000154
 239	2.3681e+01	9.4794	35.448070	0.000365	3.648620	1.236186	0.000146
 240	2.3780e+01	9.4971	35.609556	0.000405	4.054022	1.373540	0.000162
 241	2.3880e+01	9.5484	35.698373	0.000223	2.229712	0.755447	0.000089
 242	2.3980e+01	9.5805	35.871970	0.000436	4.358074	1.476555	0.000174
 243	2.4079e+01	9.6174	36.025381	0.000385	3.851321	1.304863	0.000154
 244	2.4178e+01	9.6623	36.126309	0.000253	2.533764	0.858462	0.000101
 245	2.4278e+01	9.7040	36.259535	0.000334	3.344568	1.133170	0.000134
 246	2.4378e+01	9.7425	36.421020	0.000405	4.054022	1.373540	0.000162
 247	2.4477e+01	9.7810	36.558283	0.000345	3.445919	1.167509	0.000138
 248	2.4576e+01	9.8131	36.707657	0.000375	3.749970	1.270524	0.000150
 249	2.4676e+01	9.8628	36.832808	0.000314	3.141867	1.064493	0.000126
 250	2.4776e+01	9.8981	36.933736	0.000253	2.533764	0.858462	0.000101
 251	2.4875e+01	9.9334	37.079073	0.000365	3.648620	1.236186	0.000146
 252	2.4974e+01	9.9783	37.200187	0.000304	3.040516	1.030155	0.000122
 253	2.5074e+01	10.0216	37.345524	0.000365	3.648620	1.236186	0.000146
 254	2.5174e+01	10.0569	37.466638	0.000304	3.040516	1.030155	0.000122
 255	2.5273e+01	10.1002	37.636198	0.000426	4.256723	1.442217	0.000170
 256	2.5372e+01	10.1500	37.741163	0.000264	2.635114	0.892801	0.000105
 257	2.5472e+01	10.1805	37.842092	0.000253	2.533764	0.858462	0.000101
 258	2.5572e+01	10.2238	37.971280	0.000324	3.243218	1.098832	0.000130
 259	2.5671e+01	10.2591	38.112580	0.000355	3.547269	1.201847	0.000142
 260	2.5770e+01	10.3088	38.282140	0.000426	4.256723	1.442217	0.000170
 261	2.5870e+01	10.3329	38.419402	0.000345	3.445919	1.167509	0.000138
 262	2.5970e+01	10.3730	38.536479	0.000294	2.939166	0.995816	0.000118
 263	2.6069e+01	10.4227	38.633370	0.000243	2.432413	0.824124	0.000097
 264	2.6169e+01	10.4628	38.794856	0.000405	4.054022	1.373540	0.000162
 265	2.6268e+01	10.5013	38.920007	0.000314	3.141867	1.064493	0.000126
 266	2.6367e+01	10.5414	39.089567	0.000426	4.256723	1.442217	0.000170
 267	2.6467e+01	10.5879	39.202607	0.000284	2.837815	0.961478	0.000114
 268	2.6567e+01	10.6232	39.388315	0.000466	4.662125	1.579571	0.000187
 269	2.6666e+01	10.6601	39.460983	0.000182	1.824310	0.618093	0.000073
 270	2.6765e+01	10.6954	39.582097	0.000304	3.040516	1.030155	0.000122
 271	2.6865e+01	10.7323	39.727434	0.000365	3.648620	1.236186	0.000146
 272	2.6965e+01	10.7804	39.864697	0.000345	3.445919	1.167509	0.000138
 273	2.7064e+01	10.8206	39.989848	0.000314	3.141867	1.064493	0.000126
 274	2.7163e+01	10.8574	40.127111	0.000345	3.445919	1.167509	0.000138
 275	2.7263e+01	10.8927	40.264373	0.000345	3.445919	1.167509	0.000138
 276	2.7363e+01	10.9409	40.397599	0.000334	3.344568	1.133170	0.000134
 277	2.7462e+01	10.9810	40.478341	0.000203	2.027011	0.686770	0.000081
 278	2.7561e+01	11.0243	40.672124	0.000486	4.864826	1.648248	0.000195
 279	2.7661e+01	11.0516	40.744792	0.000182	1.824310	0.618093	0.000073
 280	2.7761e+01	11.0981	40.906278	0.000405	4.054022	1.373540	0.000162
 281	2.7860e+01	11.1350	41.031429	0.000314	3.141867	1.064493	0.000126
 282	2.7959e+01	11.1735	41.184840	0.000385	3.851321	1.304863	0.000154
 283	2.8059e+01	11.2120	41.293843	0.000274	2.736465	0.927139	0.000110
 284	2.8159e+01	11.2553	41.418994	0.000314	3.141867	1.064493	0.000126
 285	2.8258e+01	11.3002	41.564331	0.000365	3.648620	1.236186	0.000146
 286	2.8358e+01	11.3339	41.705631	0.000355	3.547269	1.201847	0.000142
 287	2.8457e+01	11.3804	41.838856	0.000334	3.344568	1.133170	0.000134
 288	2.8556e+01	11.4270	41.976119	0.000345	3.445919	1.167509	0.000138
 289	2.8656e+01	11.4510	42.133567	0.000395	3.952671	1.339201	0.000158
 290	2.8756e+01	11.4959	42.198161	0.000162	1.621609	0.549416	0.000065
 291	2.8855e+01	11.5376	42.339461	0.000355	3.547269	1.201847	0.000142
 292	2.8954e+01	11.5713	42.509021	0.000426	4.256723	1.442217	0.000170
 293	2.9054e+01	11.6227	42.638209	0.000324	3.243218	1.098832	0.000130
 294	2.9154e+01	11.6548	42.731063	0.000233	2.331063	0.789785	0.000093
 295	2.9253e+01	11.7013	42.852177	0.000304	3.040516	1.030155	0.000122
 296	2.9352e+01	11.7350	42.981366	0.000324	3.243218	1.098832	0.000130
 297	2.9452e+01	11.7735	43.154962	0.000436	4.358074	1.476555	0.000174
 298	2.9552e+01	11.8136	43.239742	0.000213	2.128362	0.721108	0.000085
 299	2.9651e+01	11.8569	43.393153	0.000385	3.851321	1.304863	0.000154
 300	2.9750e+01	11.8922	43.522342	0.000324	3.243218	1.098832	0.000130
 301	2.9850e+01	11.9419	43.651530	0.000324	3.243218	1.098832	0.000130
 302	2.9950e+01	11.9756	43.776681	0.000314	3.141867	1.064493	0.000126
 303	3.0049e+01	12.0125	43.897795	0.000304	3.040516	1.030155	0.000122
 304	3.0148e+01	12.0542	44.010835	0.000284	2.837815	0.961478	0.000114
 305	3.0248e+01	12.0847	44.152135	0.000355	3.547269	1.201847	0.000142
 306	3.0348e+01	12.1344	44.281323	0.000324	3.243218	1.098832	0.000130
 307	3.0447e+01	12.1761	44.402437	0.000304	3.040516	1.030155	0.000122
 308	3.0547e+01	12.1986	44.547774	0.000365	3.648620	1.236186	0.000146
 309	3.0646e+01	12.2531	44.660814	0.000284	2.837815	0.961478	0.000114
 310	3.0745e+01	12.2900	44.777891	0.000294	2.939166	0.995816	0.000118
 311	3.0845e+01	12.3333	44.955525	0.000446	4.459424	1.510894	0.000179
 312	3.0945e+01	12.3783	45.040305	0.000213	2.128362	0.721108	0.000085
 313	3.1044e+01	12.4136	45.185642	0.000365	3.648620	1.236186	0.000146
 314	3.1143e+01	12.4360	45.298682	0.000284	2.837815	0.961478	0.000114
 315	3.1243e+01	12.4841	45.431907	0.000334	3.344568	1.133170	0.000134
 316	3.1343e+01	12.5355	45.561095	0.000324	3.243218	1.098832	0.000130
 317	3.1442e+01	12.5756	45.686247	0.000314	3.141867	1.064493	0.000126
 318	3.1541e+01	12.6157	45.819472	0.000334	3.344568	1.133170	0.000134
 319	3.1641e+01	12.6478	45.924438	0.000264	2.635114	0.892801	0.000105
 320	3.1741e+01	12.6831	46.077849	0.000385	3.851321	1.304863	0.000154
 321	3.1840e+01	12.7360	46.223186	0.000365	3.648620	1.236186	0.000146
 322	3.1939e+01	12.7713	46.332188	0.000274	2.736465	0.927139	0.000110
 323	3.2039e+01	12.8130	46.469451	0.000345	3.445919	1.167509	0.000138
 324	3.2139e+01	12.8579	46.630936	0.000405	4.054022	1.373540	0.000162
 325	3.2238e+01	12.8900	46.711679	0.000203	2.027011	0.686770	0.000081
 326	3.2337e+01	12.9301	46.844905	0.000334	3.344568	1.133170	0.000134
 327	3.2437e+01	12.9686	46.949870	0.000264	2.635114	0.892801	0.000105
 328	3.2536e+01	12.9959	47.066947	0.000294	2.939166	0.995816	0.000118
 329	3.2636e+01	13.0472	47.216321	0.000375	3.749970	1.270524	0.000150
 330	3.2736e+01	13.0873	47.353584	0.000345	3.445919	1.167509	0.000138
 331	3.2835e+01	13.1274	47.458549	0.000264	2.635114	0.892801	0.000105
 332	3.2934e+01	13.1659	47.640220	0.000456	4.560775	1.545232	0.000183
 333	3.3034e+01	13.2044	47.725000	0.000213	2.128362	0.721108	0.000085
 334	3.3133e+01	13.2462	47.866300	0.000355	3.547269	1.201847	0.000142
 335	3.3233e+01	13.2782	48.019711	0.000385	3.851321	1.304863	0.000154
 336	3.3333e+01	13.3232	48.108528	0.000223	2.229712	0.755447	0.000089
 337	3.3432e+01	13.3697	48.290199	0.000456	4.560775	1.545232	0.000183
 338	3.3532e+01	13.4114	48.358830	0.000172	1.722959	0.583754	0.000069
 339	3.3631e+01	13.4499	48.508204	0.000375	3.749970	1.270524	0.000150
 340	3.3730e+01	13.4884	48.669690	0.000405	4.054022	1.373540	0.000162
 341	3.3830e+01	13.5253	48.762544	0.000233	2.331063	0.789785	0.000093
 342	3.3929e+01	13.5558	48.899807	0.000345	3.445919	1.167509	0.000138
 343	3.4029e+01	13.6007	49.004772	0.000264	2.635114	0.892801	0.000105
 344	3.4129e+01	13.6408	49.129923	0.000314	3.141867	1.064493	0.000126
 345	3.4228e+01	13.6841	49.299483	0.000426	4.256723	1.442217	0.000170
 346	3.4328e+01	13.7210	49.404449	0.000264	2.635114	0.892801	0.000105
 347	3.4427e+01	13.7627	49.537674	0.000334	3.344568	1.133170	0.000134
 348	3.4526e+01	13.8012	49.658788	0.000304	3.040516	1.030155	0.000122
 349	3.4626e+01	13.8461	49.731457	0.000182	1.824310	0.618093	0.000073
 350	3.4725e+01	13.8878	49.921202	0.000476	4.763476	1.613909	0.000191
 351	3.4825e+01	13.9231	50.005982	0.000213	2.128362	0.721108	0.000085
 352	3.4925e+01	13.9552	50.127096	0.000304	3.040516	1.030155	0.000122
 353	3.5024e+01	14.0066	50.276470	0.000375	3.749970	1.270524	0.000150
 354	3.5123e+01	14.0467	50.433918	0.000395	3.952671	1.339201	0.000158
 355	3.5223e+01	14.0820	50.559069	0.000314	3.141867	1.064493	0.000126
 356	3.5322e+01	14.1172	50.627701	0.000172	1.722959	0.583754	0.000069
 357	3.5422e+01	14.1606	50.777075	0.000375	3.749970	1.270524	0.000150
 358	3.5522e+01	14.1975	50.906263	0.000324	3.243218	1.098832	0.000130
 359	3.5621e+01	14.2456	51.035451	0.000324	3.243218	1.098832	0.000130
 360	3.5721e+01	14.2809	51.136380	0.000253	2.533764	0.858462	0.000101
 361	3.5820e+01	14.3226	51.277680	0.000355	3.547269	1.201847	0.000142
 362	3.5919e+01	14.3611	51.394757	0.000294	2.939166	0.995816	0.000118
 363	3.6019e+01	14.4044	51.519908	0.000314	3.141867	1.064493	0.000126
 364	3.6118e+01	14.4429	51.641022	0.000304	3.040516	1.030155	0.000122
 365	3.6218e+01	14.4814	51.782322	0.000355	3.547269	1.201847	0.000142
 366	3.6318e+01	14.5247	51.871139	0.000223	2.229712	0.755447	0.000089
 367	3.6417e+01	14.5552	51.992253	0.000304	3.040516	1.030155	0.000122
 368	3.6517e+01	14.5905	52.153738	0.000405	4.054022	1.373540	0.000162
 369	3.6616e+01	14.6370	52.266778	0.000284	2.837815	0.961478	0.000114
 370	3.6715e+01	14.6851	52.412115	0.000365	3.648620	1.236186	0.000146
 371	3.6815e+01	14.7236	52.509006	0.000243	2.432413	0.824124	0.000097
 372	3.6914e+01	14.7541	52.618009	0.000274	2.736465	0.927139	0.000110
 373	3.7014e+01	14.7942	52.767383	0.000375	3.749970	1.270524	0.000150
 374	3.7114e+01	14.8424	52.868311	0.000253	2.533764	0.858462	0.000101
 375	3.7213e+01	14.8809	52.977314	0.000274	2.736465	0.927139	0.000110
 376	3.7313e+01	14.9210	53.078242	0.000253	2.533764	0.858462	0.000101
 377	3.7412e+01	14.9643	53.255876	0.000446	4.459424	1.510894	0.000179
 378	3.7511e+01	15.0012	53.348730	0.000233	2.331063	0.789785	0.000093
 379	3.7611e+01	15.0397	53.490030	0.000355	3.547269	1.201847	0.000142
 380	3.7711e+01	15.0718	53.627293	0.000345	3.445919	1.167509	0.000138
 381	3.7810e+01	15.1151	53.740332	0.000284	2.837815	0.961478	0.000114
 382	3.7910e+01	15.1536	53.865484	0.000314	3.141867	1.064493	0.000126
 383	3.8009e+01	15.1969	53.974486	0.000274	2.736465	0.927139	0.000110
 384	3.8108e+01	15.2322	54.083489	0.000274	2.736465	0.927139	0.000110
 385	3.8208e+01	15.2707	54.168269	0.000213	2.128362	0.721108	0.000085
 386	3.8307e+01	15.3140	54.321680	0.000385	3.851321	1.304863	0.000154
 387	3.8407e+01	15.3589	54.471054	0.000375	3.749970	1.270524	0.000150
 388	3.8507e+01	15.4071	54.563908	0.000233	2.331063	0.789785	0.000093
 389	3.8606e+01	15.4327	54.701171	0.000345	3.445919	1.167509	0.000138
 390	3.8706e+01	15.4776	54.830359	0.000324	3.243218	1.098832	0.000130
 391	3.8805e+01	15.5258	54.935325	0.000264	2.635114	0.892801	0.000105
 392	3.8904e+01	15.5675	55.084699	0.000375	3.749970	1.270524	0.000150
 393	3.9004e+01	15.5899	55.169478	0.000213	2.128362	0.721108	0.000085
 394	3.9103e+01	15.6413	55.286555	0.000294	2.939166	0.995816	0.000118
 395	3.9203e+01	15.6782	55.423818	0.000345	3.445919	1.167509	0.000138
 396	3.9303e+01	15.7215	55.548969	0.000314	3.141867	1.064493	0.000126
 397	3.9402e+01	15.7600	55.649898	0.000253	2.533764	0.858462	0.000101
 398	3.9502e+01	15.7969	55.775049	0.000314	3.141867	1.064493	0.000126
 399	3.9601e+01	15.8402	55.908274	0.000334	3.344568	1.133170	0.000134
 400	3.9700e+01	15.8787	56.005166	0.000243	2.432413	0.824124	0.000097
 401	3.9800e+01	15.9188	56.122242	0.000294	2.939166	0.995816	0.000118
 402	3.9900e+01	15.9573	56.275654	0.000385	3.851321	1.304863	0.000154
 403	3.9999e+01	15.9926	56.364471	0.000223	2.229712	0.755447	0.000089
 404	4.0099e+01	16.0487	56.449250	0.000213	2.128362	0.721108	0.000085
 405	4.0198e+01	16.0712	56.622847	0.000436	4.358074	1.476555	0.000174
 406	4.0297e+01	16.1033	56.715701	0.000233	2.331063	0.789785	0.000093
 407	4.0397e+01	16.1514	56.808556	0.000233	2.331063	0.789785	0.000093
 408	4.0496e+01	16.1915	56.945818	0.000345	3.445919	1.167509	0.000138
 409	4.0596e+01	16.2332	57.046747	0.000253	2.533764	0.858462	0.000101
 410	4.0696e+01	16.2733	57.175935	0.000324	3.243218	1.098832	0.000130
 411	4.0795e+01	16.3150	57.288975	0.000284	2.837815	0.961478	0.000114
 412	4.0895e+01	16.3455	57.393940	0.000264	2.635114	0.892801	0.000105
 413	4.0994e+01	16.3921	57.527166	0.000334	3.344568	1.133170	0.000134
 414	4.1093e+01	16.4402	57.632131	0.000264	2.635114	0.892801	0.000105
 415	4.1193e+01	16.4771	57.749208	0.000294	2.939166	0.995816	0.000118
 416	4.1292e+01	16.5140	57.846099	0.000243	2.432413	0.824124	0.000097
 417	4.1392e+01	16.5557	57.951065	0.000264	2.635114	0.892801	0.000105
 418	4.1492e+01	16.5958	58.112550	0.000405	4.054022	1.373540	0.000162
 419	4.1591e+01	16.6359	58.217516	0.000264	2.635114	0.892801	0.000105
 420	4.1691e+01	16.6632	58.342667	0.000314	3.141867	1.064493	0.000126
 421	4.1790e+01	16.7081	58.423410	0.000203	2.027011	0.686770	0.000081
 422	4.1889e+01	16.7546	58.520301	0.000243	2.432413	0.824124	0.000097
 423	4.1989e+01	16.7883	58.685824	0.000416	4.155373	1.407878	0.000166
 424	4.2089e+01	16.8332	58.762529	0.000193	1.925660	0.652431	0.000077
 425	4.2188e+01	16.8685	58.843272	0.000203	2.027011	0.686770	0.000081
 426	4.2288e+01	16.9054	59.012832	0.000426	4.256723	1.442217	0.000170
 427	4.2387e+01	16.9535	59.105686	0.000233	2.331063	0.789785	0.000093
 428	4.2486e+01	16.9888	59.251023	0.000365	3.648620	1.236186	0.000146
 429	4.2586e+01	17.0305	59.327728	0.000193	1.925660	0.652431	0.000077
 430	4.2685e+01	17.0658	59.440768	0.000284	2.837815	0.961478	0.000114
 431	4.2785e+01	17.1075	59.565919	0.000314	3.141867	1.064493	0.000126
 432	4.2885e+01	17.1525	59.670885	0.000264	2.635114	0.892801	0.000105
 433	4.2984e+01	17.1878	59.800073	0.000324	3.243218	1.098832	0.000130
 434	4.3084e+01	17.2359	59.884853	0.000213	2.128362	0.721108	0.000085
 435	4.3183e+01	17.2776	60.018078	0.000334	3.344568	1.133170	0.000134
 436	4.3282e+01	17.3065	60.139193	0.000304	3.040516	1.030155	0.000122
 437	4.3382e+01	17.3466	60.272418	0.000334	3.344568	1.133170	0.000134
 438	4.3481e+01	17.3979	60.357198	0.000213	2.128362	0.721108	0.000085
 439	4.3581e+01	17.4284	60.462163	0.000264	2.635114	0.892801	0.000105
 440	4.3681e+01	17.4749	60.599426	0.000345	3.445919	1.167509	0.000138
 441	4.3780e+01	17.5086	60.696317	0.000243	2.432413	0.824124	0.000097
 442	4.3880e+01	17.5551	60.793209	0.000243	2.432413	0.824124	0.000097
 443	4.3979e+01	17.5920	60.894137	0.000253	2.533764	0.858462	0.000101
 444	4.4078e+01	17.6289	61.015251	0.000304	3.040516	1.030155	0.000122
 445	4.4178e+01	17.6722	61.116179	0.000253	2.533764	0.858462	0.000101
 446	4.4278e+01	17.7107	61.261516	0.000365	3.648620	1.236186	0.000146
 447	4.4377e+01	17.7589	61.362445	0.000253	2.533764	0.858462	0.000101
 448	4.4477e+01	17.7861	61.487596	0.000314	3.141867	1.064493	0.000126
 449	4.4576e+01	17.8294	61.592561	0.000264	2.635114	0.892801	0.000105
 450	4.4675e+01	17.8744	61.725787	0.000334	3.344568	1.133170	0.000134
 451	4.4775e+01	17.9048	61.826715	0.000253	2.533764	0.858462	0.000101
 452	4.4874e+01	17.9498	61.907458	0.000203	2.027011	0.686770	0.000081
 453	4.4974e+01	17.9883	62.000312	0.000233	2.331063	0.789785	0.000093
 454	4.5074e+01	18.0316	62.157760	0.000395	3.952671	1.339201	0.000158
 455	4.5173e+01	18.0653	62.278874	0.000304	3.040516	1.030155	0.000122
 456	4.5273e+01	18.1086	62.359617	0.000203	2.027011	0.686770	0.000081
 457	4.5372e+01	18.1535	62.492843	0.000334	3.344568	1.133170	0.000134
 458	4.5471e+01	18.1872	62.593771	0.000253	2.533764	0.858462	0.000101
 459	4.5571e+01	18.2289	62.706811	0.000284	2.837815	0.961478	0.000114
 460	4.5670e+01	18.2674	62.803702	0.000243	2.432413	0.824124	0.000097
 461	4.5770e+01	18.3107	62.928853	0.000314	3.141867	1.064493	0.000126
 462	4.5870e+01	18.3556	63.033819	0.000264	2.635114	0.892801	0.000105
 463	4.5969e+01	18.3957	63.163007	0.000324	3.243218	1.098832	0.000130
 464	4.6069e+01	18.4294	63.272010	0.000274	2.736465	0.927139	0.000110
 465	4.6168e+01	18.4647	63.356790	0.000213	2.128362	0.721108	0.000085
 466	4.6267e+01	18.5112	63.465792	0.000274	2.736465	0.927139	0.000110
 467	4.6367e+01	18.5449	63.574795	0.000274	2.736465	0.927139	0.000110
 468	4.6467e+01	18.5882	63.691872	0.000294	2.939166	0.995816	0.000118
 469	4.6566e+01	18.6203	63.808949	0.000294	2.939166	0.995816	0.000118
 470	4.6666e+01	18.6652	63.946212	0.000345	3.445919	1.167509	0.000138
 471	4.6765e+01	18.7102	64.071363	0.000314	3.141867	1.064493	0.000126
 472	4.6864e+01	18.7487	64.111734	0.000101	1.013505	0.343385	0.000041
 473	4.6964e+01	18.7888	64.232848	0.000304	3.040516	1.030155	0.000122
 474	4.7063e+01	18.8289	64.370111	0.000345	3.445919	1.167509	0.000138
 475	4.7163e+01	18.8658	64.462965	0.000233	2.331063	0.789785	0.000093
 476	4.7263e+01	18.9027	64.571968	0.000274	2.736465	0.927139	0.000110
 477	4.7362e+01	18.9412	64.672896	0.000253	2.533764	0.858462	0.000101
 478	4.7462e+01	18.9845	64.777861	0.000264	2.635114	0.892801	0.000105
 479	4.7561e+01	19.0198	64.907050	0.000324	3.243218	1.098832	0.000130
 480	4.7660e+01	19.0679	65.024127	0.000294	2.939166	0.995816	0.000118
 481	4.7760e+01	19.1048	65.137167	0.000284	2.837815	0.961478	0.000114
 482	4.7859e+01	19.1513	65.242132	0.000264	2.635114	0.892801	0.000105
 483	4.7959e+01	19.1786	65.367283	0.000314	3.141867	1.064493	0.000126
 484	4.8059e+01	19.2251	65.435915	0.000172	1.722959	0.583754	0.000069
 485	4.8158e+01	19.2668	65.565103	0.000324	3.243218	1.098832	0.000130
 486	4.8258e+01	19.3037	65.702366	0.000345	3.445919	1.167509	0.000138
 487	4.8357e+01	19.3342	65.766960	0.000162	1.621609	0.549416	0.000065
 488	4.8456e+01	19.3888	65.892111	0.000314	3.141867	1.064493	0.000126
 489	4.8556e+01	19.4160	66.017262	0.000314	3.141867	1.064493	0.000126
 490	4.8656e+01	19.4690	66.098005	0.000203	2.027011	0.686770	0.000081
 491	4.8755e+01	19.5043	66.239305	0.000355	3.547269	1.201847	0.000142
 492	4.8855e+01	19.5460	66.344270	0.000264	2.635114	0.892801	0.000105
 493	4.8954e+01	19.5813	66.445199	0.000253	2.533764	0.858462	0.000101
 494	4.9053e+01	19.6230	66.534016	0.000223	2.229712	0.755447	0.000089
 495	4.9153e+01	19.6583	66.634944	0.000253	2.533764	0.858462	0.000101
 496	4.9252e+01	19.6984	66.816615	0.000456	4.560775	1.545232	0.000183
 497	4.9352e+01	19.7433	66.885246	0.000172	1.722959	0.583754	0.000069
 498	4.9452e+01	19.7770	66.982138	0.000243	2.432413	0.824124	0.000097
 499	4.9551e+01	19.8155	67.099215	0.000294	2.939166	0.995816	0.000118
 500	4.9651e+01	19.8604	67.200143	0.000253	2.533764	0.858462	0.000101
 501	4.9750e+01	19.9053	67.329331	0.000324	3.243218	1.098832	0.000130
 502	4.9849e+01	19.9438	67.450445	0.000304	3.040516	1.030155	0.000122
 503	4.9949e+01	19.9791	67.535225	0.000213	2.128362	0.721108	0.000085
 504	5.0048e+01	19.9374	67.486780	0.000122	1.216207	0.412062	-0.000049
 505	5.0148e+01	19.8973	67.406037	0.000203	2.027011	0.686770	-0.000081
 506	5.0248e+01	19.8636	67.333368	0.000182	1.824310	0.618093	-0.000073
 507	5.0347e+01	19.8251	67.292997	0.000101	1.013505	0.343385	-0.000041
 508	5.0447e+01	19.7834	67.171883	0.000304	3.040516	1.030155	-0.000122
 509	5.0546e+01	19.7433	67.123437	0.000122	1.216207	0.412062	-0.000049
 510	5.0645e+01	19.7080	67.022509	0.000253	2.533764	0.858462	-0.000101
 511	5.0745e+01	19.6695	66.949841	0.000182	1.824310	0.618093	-0.000073
 512	5.0844e+01	19.6182	66.873135	0.000193	1.925660	0.652431	-0.000077
 513	5.0944e+01	19.5829	66.800466	0.000182	1.824310	0.618093	-0.000073
 514	5.1044e+01	19.5380	66.715687	0.000213	2.128362	0.721108	-0.000085
 515	5.1143e+01	19.5075	66.647055	0.000172	1.722959	0.583754	-0.000069
 516	5.1242e+01	19.4626	66.558238	0.000223	2.229712	0.755447	-0.000089
 517	5.1342e+01	19.4208	66.493644	0.000162	1.621609	0.549416	-0.000065
 518	5.1441e+01	19.3791	66.416939	0.000193	1.925660	0.652431	-0.000077
 519	5.1541e+01	19.3406	66.287750	0.000324	3.243218	1.098832	-0.000130
 520	5.1641e+01	19.3021	66.227193	0.000152	1.520258	0.515077	-0.000061
 521	5.1740e+01	19.2652	66.162599	0.000162	1.621609	0.549416	-0.000065
 522	5.1840e+01	19.2251	66.073782	0.000223	2.229712	0.755447	-0.000089
 523	5.1939e+01	19.1914	65.984965	0.000223	2.229712	0.755447	-0.000089
 524	5.2038e+01	19.1449	65.863851	0.000304	3.040516	1.030155	-0.000122
 525	5.2138e+01	19.1112	65.815405	0.000122	1.216207	0.412062	-0.000049
 526	5.2237e+01	19.0759	65.718514	0.000243	2.432413	0.824124	-0.000097
 527	5.2337e+01	19.0278	65.649883	0.000172	1.722959	0.583754	-0.000069
 528	5.2437e+01	18.9941	65.524732	0.000314	3.141867	1.064493	-0.000126
 529	5.2536e+01	18.9476	65.460137	0.000162	1.621609	0.549416	-0.000065
 530	5.2636e+01	18.9123	65.367283	0.000233	2.331063	0.789785	-0.000093
 531	5.2735e+01	18.8626	65.270392	0.000243	2.432413	0.824124	-0.000097
 532	5.2834e+01	18.8193	65.173501	0.000243	2.432413	0.824124	-0.000097
 533	5.2934e+01	18.7856	65.096795	0.000193	1.925660	0.652431	-0.000077
 534	5.3033e+01	18.7439	65.024127	0.000182	1.824310	0.618093	-0.000073
 535	5.3133e+01	18.7070	64.927236	0.000243	2.432413	0.824124	-0.000097
 536	5.3233e+01	18.6636	64.838419	0.000223	2.229712	0.755447	-0.000089
 537	5.3332e+01	18.6396	64.733453	0.000264	2.635114	0.892801	-0.000105
 538	5.3431e+01	18.5866	64.640599	0.000233	2.331063	0.789785	-0.000093
 539	5.3531e+01	18.5530	64.551782	0.000223	2.229712	0.755447	-0.000089
 540	5.3630e+01	18.5112	64.438742	0.000284	2.837815	0.961478	-0.000114
 541	5.3730e+01	18.4759	64.394334	0.000111	1.114856	0.377723	-0.000045
 542	5.3830e+01	18.4358	64.277257	0.000294	2.939166	0.995816	-0.000118
 543	5.3929e+01	18.3893	64.192477	0.000213	2.128362	0.721108	-0.000085
 544	5.4029e+01	18.3492	64.103660	0.000223	2.229712	0.755447	-0.000089
 545	5.4128e+01	18.3043	64.035029	0.000172	1.722959	0.583754	-0.000069
 546	5.4227e+01	18.2658	63.901803	0.000334	3.344568	1.133170	-0.000134
 547	5.4327e+01	18.2257	63.841246	0.000152	1.520258	0.515077	-0.000061
 548	5.4426e+01	18.1792	63.744355	0.000243	2.432413	0.824124	-0.000097
 549	5.4526e+01	18.1487	63.611129	0.000334	3.344568	1.133170	-0.000134
 550	5.4626e+01	18.1054	63.530387	0.000203	2.027011	0.686770	-0.000081
 551	5.4725e+01	18.0637	63.457718	0.000182	1.824310	0.618093	-0.000073
 552	5.4825e+01	18.0284	63.360827	0.000243	2.432413	0.824124	-0.000097
 553	5.4924e+01	17.9963	63.288158	0.000182	1.824310	0.618093	-0.000073
 554	5.5023e+01	17.9514	63.215490	0.000182	1.824310	0.618093	-0.000073
 555	5.5123e+01	17.9097	63.118599	0.000243	2.432413	0.824124	-0.000097
 556	5.5222e+01	17.8647	63.021707	0.000243	2.432413	0.824124	-0.000097
 557	5.5322e+01	17.8327	62.896556	0.000314	3.141867	1.064493	-0.000126
 558	5.5422e+01	17.7845	62.819851	0.000193	1.925660	0.652431	-0.000077
 559	5.5521e+01	17.7396	62.739108	0.000203	2.027011	0.686770	-0.000081
 560	5.5620e+01	17.7171	62.597808	0.000355	3.547269	1.201847	-0.000142
 561	5.5720e+01	17.6722	62.517065	0.000203	2.027011	0.686770	-0.000081
 562	5.5819e+01	17.6225	62.412100	0.000264	2.635114	0.892801	-0.000105
 563	5.5919e+01	17.5920	62.367691	0.000111	1.114856	0.377723	-0.000045
 564	5.6019e+01	17.5375	62.238503	0.000324	3.243218	1.098832	-0.000130
 565	5.6118e+01	17.5070	62.141612	0.000243	2.432413	0.824124	-0.000097
 566	5.6218e+01	17.4733	62.081055	0.000152	1.520258	0.515077	-0.000061
 567	5.6317e+01	17.4364	61.980126	0.000253	2.533764	0.858462	-0.000101
 568	5.6416e+01	17.3947	61.871124	0.000274	2.736465	0.927139	-0.000110
 569	5.6516e+01	17.3482	61.778270	0.000233	2.331063	0.789785	-0.000093
 570	5.6615e+01	17.3145	61.689453	0.000223	2.229712	0.755447	-0.000089
 571	5.6715e+01	17.2712	61.580450	0.000274	2.736465	0.927139	-0.000110
 572	5.6815e+01	17.2263	61.463373	0.000294	2.939166	0.995816	-0.000118
 573	5.6914e+01	17.1926	61.354370	0.000274	2.736465	0.927139	-0.000110
 574	5.7014e+01	17.1476	61.257479	0.000243	2.432413	0.824124	-0.000097
 575	5.7113e+01	17.1124	61.164625	0.000233	2.331063	0.789785	-0.000093
 576	5.7212e+01	17.0755	61.027362	0.000345	3.445919	1.167509	-0.000138
 577	5.7312e+01	17.0289	60.946620	0.000203	2.027011	0.686770	-0.000081
 578	5.7411e+01	16.9920	60.845691	0.000253	2.533764	0.858462	-0.000101
 579	5.7511e+01	16.9551	60.777060	0.000172	1.722959	0.583754	-0.000069
 580	5.7611e+01	16.9118	60.704392	0.000182	1.824310	0.618093	-0.000073
 581	5.7710e+01	16.8653	60.534832	0.000426	4.256723	1.442217	-0.000170
 582	5.7809e+01	16.8364	60.458126	0.000193	1.925660	0.652431	-0.000077
 583	5.7909e+01	16.7963	60.357198	0.000253	2.533764	0.858462	-0.000101
 584	5.8008e+01	16.7578	60.256269	0.000253	2.533764	0.858462	-0.000101
 585	5.8108e+01	16.7081	60.159378	0.000243	2.432413	0.824124	-0.000097
 586	5.8208e+01	16.6584	60.062487	0.000243	2.432413	0.824124	-0.000097
 587	5.8307e+01	16.6359	59.997893	0.000162	1.621609	0.549416	-0.000065
 588	5.8407e+01	16.5942	59.880816	0.000294	2.939166	0.995816	-0.000118
 589	5.8506e+01	16.5557	59.759702	0.000304	3.040516	1.030155	-0.000122
 590	5.8605e+01	16.5076	59.662811	0.000243	2.432413	0.824124	-0.000097
 591	5.8705e+01	16.4771	59.537659	0.000314	3.141867	1.064493	-0.000126
 592	5.8804e+01	16.4241	59.436731	0.000253	2.533764	0.858462	-0.000101
 593	5.8904e+01	16.3953	59.364062	0.000182	1.824310	0.618093	-0.000073
 594	5.9004e+01	16.3535	59.259097	0.000264	2.635114	0.892801	-0.000105
 595	5.9103e+01	16.3134	59.121834	0.000345	3.445919	1.167509	-0.000138
 596	5.9203e+01	16.2749	59.045129	0.000193	1.925660	0.652431	-0.000077
 597	5.9302e+01	16.2413	58.883643	0.000405	4.054022	1.373540	-0.000162
 598	5.9401e+01	16.1851	58.802901	0.000203	2.027011	0.686770	-0.000081
 599	5.9501e+01	16.1562	58.726195	0.000193	1.925660	0.652431	-0.000077
 600	5.9600e+01	16.1209	58.625267	0.000253	2.533764	0.858462	-0.000101
 601	5.9700e+01	16.0760	58.496078	0.000324	3.243218	1.098832	-0.000130
 602	5.9800e+01	16.0407	58.435521	0.000152	1.520258	0.515077	-0.000061
 603	5.9899e+01	15.9974	58.290184	0.000365	3.648620	1.236186	-0.000146
 604	5.9998e+01	15.9573	58.205405	0.000213	2.128362	0.721108	-0.000085
 605	6.0098e+01	15.9140	58.092365	0.000284	2.837815	0.961478	-0.000114
 606	6.0197e+01	15.8755	58.003548	0.000223	2.229712	0.755447	-0.000089
 607	6.0297e+01	15.8290	57.898582	0.000264	2.635114	0.892801	-0.000105
 608	6.0397e+01	15.7921	57.789580	0.000274	2.736465	0.927139	-0.000110
 609	6.0496e+01	15.7616	57.692688	0.000243	2.432413	0.824124	-0.000097
 610	6.0596e+01	15.7167	57.575611	0.000294	2.939166	0.995816	-0.000118
 611	6.0695e+01	15.6766	57.474683	0.000253	2.533764	0.858462	-0.000101
 612	6.0794e+01	15.6397	57.381829	0.000233	2.331063	0.789785	-0.000093
 613	6.0894e+01	15.6028	57.256678	0.000314	3.141867	1.064493	-0.000126
 614	6.0993e+01	15.5595	57.179972	0.000193	1.925660	0.652431	-0.000077
 615	6.1093e+01	15.5177	57.038672	0.000355	3.547269	1.201847	-0.000142
 616	6.1193e+01	15.4776	56.933707	0.000264	2.635114	0.892801	-0.000105
 617	6.1292e+01	15.4343	56.840853	0.000233	2.331063	0.789785	-0.000093
 618	6.1392e+01	15.4006	56.772221	0.000172	1.722959	0.583754	-0.000069
 619	6.1491e+01	15.3589	56.647070	0.000314	3.141867	1.064493	-0.000126
 620	6.1590e+01	15.3236	56.542105	0.000264	2.635114	0.892801	-0.000105
 621	6.1690e+01	15.2739	56.412916	0.000324	3.243218	1.098832	-0.000130
 622	6.1789e+01	15.2434	56.356396	0.000142	1.418908	0.480739	-0.000057
 623	6.1889e+01	15.2017	56.207022	0.000375	3.749970	1.270524	-0.000150
 624	6.1989e+01	15.1584	56.114168	0.000233	2.331063	0.789785	-0.000093
 625	6.2088e+01	15.1167	56.013240	0.000253	2.533764	0.858462	-0.000101
 626	6.2188e+01	15.0814	55.871940	0.000355	3.547269	1.201847	-0.000142
 627	6.2287e+01	15.0349	55.775049	0.000243	2.432413	0.824124	-0.000097
 628	6.2386e+01	15.0092	55.686232	0.000223	2.229712	0.755447	-0.000089
 629	6.2486e+01	14.9659	55.569155	0.000294	2.939166	0.995816	-0.000118
 630	6.2586e+01	14.9274	55.448041	0.000304	3.040516	1.030155	-0.000122
 631	6.2685e+01	14.8841	55.379409	0.000172	1.722959	0.583754	-0.000069
 632	6.2785e+01	14.8392	55.246184	0.000334	3.344568	1.133170	-0.000134
 633	6.2884e+01	14.7990	55.133144	0.000284	2.837815	0.961478	-0.000114
 634	6.2983e+01	14.7573	55.040290	0.000233	2.331063	0.789785	-0.000093
 635	6.3083e+01	14.7172	54.903027	0.000345	3.445919	1.167509	-0.000138
 636	6.3182e+01	14.6803	54.814210	0.000223	2.229712	0.755447	-0.000089
 637	6.3282e+01	14.6338	54.701171	0.000284	2.837815	0.961478	-0.000114
 638	6.3382e+01	14.6017	54.584094	0.000294	2.939166	0.995816	-0.000118
 639	6.3481e+01	14.5600	54.495277	0.000223	2.229712	0.755447	-0.000089
 640	6.3581e+01	14.5231	54.390311	0.000264	2.635114	0.892801	-0.000105
 641	6.3680e+01	14.4798	54.249011	0.000355	3.547269	1.201847	-0.000142
 642	6.3779e+01	14.4477	54.148083	0.000253	2.533764	0.858462	-0.000101
 643	6.3879e+01	14.4012	54.031006	0.000294	2.939166	0.995816	-0.000118
 644	6.3978e+01	14.3547	53.922003	0.000274	2.736465	0.927139	-0.000110
 645	6.4078e+01	14.3242	53.845298	0.000193	1.925660	0.652431	-0.000077
 646	6.4177e+01	14.2793	53.728221	0.000294	2.939166	0.995816	-0.000118
 647	6.4277e+01	14.2488	53.607107	0.000304	3.040516	1.030155	-0.000122
 648	6.4376e+01	14.1862	53.514253	0.000233	2.331063	0.789785	-0.000093
 649	6.4476e+01	14.1686	53.405250	0.000274	2.736465	0.927139	-0.000110
 650	6.4576e+01	14.1269	53.320470	0.000213	2.128362	0.721108	-0.000085
 651	6.4675e+01	14.0852	53.171096	0.000375	3.749970	1.270524	-0.000150
 652	6.4775e+01	14.0467	53.054019	0.000294	2.939166	0.995816	-0.000118
 653	6.4874e+01	14.0082	52.965202	0.000223	2.229712	0.755447	-0.000089
 654	6.4974e+01	13.9600	52.884460	0.000203	2.027011	0.686770	-0.000081
 655	6.5073e+01	13.9279	52.771420	0.000284	2.837815	0.961478	-0.000114
 656	6.5172e+01	13.8830	52.634157	0.000345	3.445919	1.167509	-0.000138
 657	6.5272e+01	13.8509	52.521117	0.000284	2.837815	0.961478	-0.000114
 658	6.5371e+01	13.8076	52.444412	0.000193	1.925660	0.652431	-0.000077
 659	6.5471e+01	13.7675	52.319261	0.000314	3.141867	1.064493	-0.000126
 660	6.5570e+01	13.7274	52.206221	0.000284	2.837815	0.961478	-0.000114
 661	6.5670e+01	13.6809	52.101255	0.000264	2.635114	0.892801	-0.000105
 662	6.5769e+01	13.6472	51.988215	0.000284	2.837815	0.961478	-0.000114
 663	6.5869e+01	13.6071	51.883250	0.000264	2.635114	0.892801	-0.000105
 664	6.5969e+01	13.5590	51.774247	0.000274	2.736465	0.927139	-0.000110
 665	6.6068e+01	13.5301	51.657170	0.000294	2.939166	0.995816	-0.000118
 666	6.6168e+01	13.4788	51.560279	0.000243	2.432413	0.824124	-0.000097
 667	6.6267e+01	13.4419	51.483573	0.000193	1.925660	0.652431	-0.000077
 668	6.6367e+01	13.4034	51.354385	0.000324	3.243218	1.098832	-0.000130
 669	6.6466e+01	13.3633	51.249420	0.000264	2.635114	0.892801	-0.000105
 670	6.6566e+01	13.3215	51.116194	0.000334	3.344568	1.133170	-0.000134
 671	6.6665e+01	13.2879	51.007191	0.000274	2.736465	0.927139	-0.000110
 672	6.6764e+01	13.2510	50.898189	0.000274	2.736465	0.927139	-0.000110
 673	6.6864e+01	13.2060	50.813409	0.000213	2.128362	0.721108	-0.000085
 674	6.6963e+01	13.1675	50.680183	0.000334	3.344568	1.133170	-0.000134
 675	6.7063e+01	13.1258	50.579255	0.000253	2.533764	0.858462	-0.000101
 676	6.7162e+01	13.0905	50.454104	0.000314	3.141867	1.064493	-0.000126
 677	6.7262e+01	13.0456	50.357213	0.000243	2.432413	0.824124	-0.000097
 678	6.7362e+01	13.0055	50.284544	0.000182	1.824310	0.618093	-0.000073
 679	6.7461e+01	12.9670	50.094799	0.000476	4.763476	1.613909	-0.000191
 680	6.7561e+01	12.9221	50.034242	0.000152	1.520258	0.515077	-0.000061
 681	6.7660e+01	12.8804	49.909091	0.000314	3.141867	1.064493	-0.000126
 682	6.7760e+01	12.8467	49.792014	0.000294	2.939166	0.995816	-0.000118
 683	6.7859e+01	12.8114	49.707234	0.000213	2.128362	0.721108	-0.000085
 684	6.7959e+01	12.7825	49.557860	0.000375	3.749970	1.270524	-0.000150
 685	6.8058e+01	12.7344	49.493266	0.000162	1.621609	0.549416	-0.000065
 686	6.8157e+01	12.6927	49.347929	0.000365	3.648620	1.236186	-0.000146
 687	6.8257e+01	12.6494	49.230852	0.000294	2.939166	0.995816	-0.000118
 688	6.8356e+01	12.6157	49.109738	0.000304	3.040516	1.030155	-0.000122
 689	6.8456e+01	12.5788	49.020921	0.000223	2.229712	0.755447	-0.000089
 690	6.8555e+01	12.5291	48.883658	0.000345	3.445919	1.167509	-0.000138
 691	6.8655e+01	12.4841	48.815027	0.000172	1.722959	0.583754	-0.000069
 692	6.8754e+01	12.4488	48.677764	0.000345	3.445919	1.167509	-0.000138
 693	6.8854e+01	12.4103	48.605096	0.000182	1.824310	0.618093	-0.000073
 694	6.8954e+01	12.3815	48.451685	0.000385	3.851321	1.304863	-0.000154
 695	6.9053e+01	12.3269	48.334608	0.000294	2.939166	0.995816	-0.000118
 696	6.9153e+01	12.2948	48.209456	0.000314	3.141867	1.064493	-0.000126
 697	6.9252e+01	12.2483	48.124677	0.000213	2.128362	0.721108	-0.000085
 698	6.9352e+01	12.2082	47.999525	0.000314	3.141867	1.064493	-0.000126
 699	6.9451e+01	12.1761	47.890523	0.000274	2.736465	0.927139	-0.000110
 700	6.9550e+01	12.1280	47.765371	0.000314	3.141867	1.064493	-0.000126
 701	6.9650e+01	12.0927	47.611960	0.000385	3.851321	1.304863	-0.000154
 702	6.9749e+01	12.0478	47.511032	0.000253	2.533764	0.858462	-0.000101
 703	6.9849e+01	12.0205	47.406066	0.000264	2.635114	0.892801	-0.000105
 704	6.9948e+01	11.9708	47.293027	0.000284	2.837815	0.961478	-0.000114
 705	7.0048e+01	11.9403	47.204210	0.000223	2.229712	0.755447	-0.000089
 706	7.0147e+01	11.8890	47.058873	0.000365	3.648620	1.236186	-0.000146
 707	7.0247e+01	11.8585	46.937759	0.000304	3.040516	1.030155	-0.000122
 708	7.0347e+01	11.8136	46.812607	0.000314	3.141867	1.064493	-0.000126
 709	7.0446e+01	11.7687	46.723790	0.000223	2.229712	0.755447	-0.000089
 710	7.0546e+01	11.7350	46.606714	0.000294	2.939166	0.995816	-0.000118
 711	7.0645e+01	11.6804	46.493674	0.000284	2.837815	0.961478	-0.000114
 712	7.0745e+01	11.6499	46.388708	0.000264	2.635114	0.892801	-0.000105
 713	7.0844e+01	11.6130	46.251446	0.000345	3.445919	1.167509	-0.000138
 714	7.0944e+01	11.5697	46.134369	0.000294	2.939166	0.995816	-0.000118
 715	7.1043e+01	11.5425	46.017292	0.000294	2.939166	0.995816	-0.000118
 716	7.1142e+01	11.4847	45.855806	0.000405	4.054022	1.373540	-0.000162
 717	7.1242e+01	11.4542	45.771026	0.000213	2.128362	0.721108	-0.000085
 718	7.1341e+01	11.4093	45.666061	0.000264	2.635114	0.892801	-0.000105
 719	7.1441e+01	11.3772	45.557058	0.000274	2.736465	0.927139	-0.000110
 720	7.1540e+01	11.3419	45.427870	0.000324	3.243218	1.098832	-0.000130
 721	7.1640e+01	11.3050	45.286570	0.000355	3.547269	1.201847	-0.000142
 722	7.1740e+01	11.2489	45.189679	0.000243	2.432413	0.824124	-0.000097
 723	7.1839e+01	11.2168	45.080676	0.000274	2.736465	0.927139	-0.000110
 724	7.1939e+01	11.1815	44.963599	0.000294	2.939166	0.995816	-0.000118
 725	7.2038e+01	11.1334	44.874782	0.000223	2.229712	0.755447	-0.000089
 726	7.2138e+01	11.0949	44.773854	0.000253	2.533764	0.858462	-0.000101
 727	7.2237e+01	11.0628	44.576034	0.000497	4.966177	1.682586	-0.000199
 728	7.2337e+01	11.0179	44.515477	0.000152	1.520258	0.515077	-0.000061
 729	7.2436e+01	10.9826	44.349955	0.000416	4.155373	1.407878	-0.000166
 730	7.2535e+01	10.9409	44.265175	0.000213	2.128362	0.721108	-0.000085
 731	7.2635e+01	10.8976	44.127912	0.000345	3.445919	1.167509	-0.000138
 732	7.2734e+01	10.8574	43.966427	0.000405	4.054022	1.373540	-0.000162
 733	7.2834e+01	10.8173	43.873573	0.000233	2.331063	0.789785	-0.000093
 734	7.2933e+01	10.7756	43.728236	0.000365	3.648620	1.236186	-0.000146
 735	7.3033e+01	10.7403	43.659604	0.000172	1.722959	0.583754	-0.000069
 736	7.3132e+01	10.6986	43.518305	0.000355	3.547269	1.201847	-0.000142
 737	7.3232e+01	10.6553	43.352782	0.000416	4.155373	1.407878	-0.000166
 738	7.3332e+01	10.6248	43.296262	0.000142	1.418908	0.480739	-0.000057
 739	7.3431e+01	10.5799	43.154962	0.000355	3.547269	1.201847	-0.000142
 740	7.3531e+01	10.5398	43.037886	0.000294	2.939166	0.995816	-0.000118
 741	7.3630e+01	10.5077	42.876400	0.000405	4.054022	1.373540	-0.000162
 742	7.3730e+01	10.4612	42.787583	0.000223	2.229712	0.755447	-0.000089
 743	7.3829e+01	10.4227	42.638209	0.000375	3.749970	1.270524	-0.000150
 744	7.3928e+01	10.3746	42.549392	0.000223	2.229712	0.755447	-0.000089
 745	7.4028e+01	10.3409	42.428278	0.000304	3.040516	1.030155	-0.000122
 746	7.4127e+01	10.3008	42.222384	0.000517	5.168878	1.751263	-0.000207
 747	7.4227e+01	10.2607	42.137604	0.000213	2.128362	0.721108	-0.000085
 748	7.4326e+01	10.2238	42.052824	0.000213	2.128362	0.721108	-0.000085
 749	7.4426e+01	10.1756	41.931710	0.000304	3.040516	1.030155	-0.000122
 750	7.4525e+01	10.1468	41.810596	0.000304	3.040516	1.030155	-0.000122
 751	7.4625e+01	10.1019	41.665259	0.000365	3.648620	1.236186	-0.000146
 752	7.4725e+01	10.0505	41.544145	0.000304	3.040516	1.030155	-0.000122
 753	7.4824e+01	10.0265	41.398808	0.000365	3.648620	1.236186	-0.000146
 754	7.4924e+01	9.9799	41.257509	0.000355	3.547269	1.201847	-0.000142
 755	7.5023e+01	9.9334	41.116209	0.000355	3.547269	1.201847	-0.000142
 756	7.5123e+01	9.9045	41.023355	0.000233	2.331063	0.789785	-0.000093
 757	7.5222e+01	9.8708	40.914352	0.000274	2.736465	0.927139	-0.000110
 758	7.5322e+01	9.8195	40.781127	0.000334	3.344568	1.133170	-0.000134
 759	7.5421e+01	9.7762	40.639827	0.000355	3.547269	1.201847	-0.000142
 760	7.5520e+01	9.7489	40.530824	0.000274	2.736465	0.927139	-0.000110
 761	7.5620e+01	9.6944	40.385487	0.000365	3.648620	1.236186	-0.000146
 762	7.5719e+01	9.6591	40.264373	0.000304	3.040516	1.030155	-0.000122
 763	7.5819e+01	9.6270	40.139222	0.000314	3.141867	1.064493	-0.000126
 764	7.5918e+01	9.5821	39.981774	0.000395	3.952671	1.339201	-0.000158
 765	7.6018e+01	9.5372	39.884883	0.000243	2.432413	0.824124	-0.000097
 766	7.6118e+01	9.5067	39.763768	0.000304	3.040516	1.030155	-0.000122
 767	7.6217e+01	9.4714	39.634580	0.000324	3.243218	1.098832	-0.000130
 768	7.6317e+01	9.4249	39.452909	0.000456	4.560775	1.545232	-0.000183
 769	7.6416e+01	9.3783	39.372166	0.000203	2.027011	0.686770	-0.000081
 770	7.6516e+01	9.3334	39.194532	0.000446	4.459424	1.510894	-0.000179
 771	7.6615e+01	9.3046	39.146087	0.000122	1.216207	0.412062	-0.000049
 772	7.6715e+01	9.2580	38.988638	0.000395	3.952671	1.339201	-0.000158
 773	7.6814e+01	9.2275	38.823116	0.000416	4.155373	1.407878	-0.000166
 774	7.6913e+01	9.1810	38.730262	0.000233	2.331063	0.789785	-0.000093
 775	7.7013e+01	9.1377	38.576851	0.000385	3.851321	1.304863	-0.000154
 776	7.7112e+01	9.1072	38.463811	0.000284	2.837815	0.961478	-0.000114
 777	7.7212e+01	9.0671	38.370957	0.000233	2.331063	0.789785	-0.000093
 778	7.7311e+01	9.0286	38.225620	0.000365	3.648620	1.236186	-0.000146
 779	7.7411e+01	8.9837	38.076246	0.000375	3.749970	1.270524	-0.000150
 780	7.7510e+01	8.9564	37.955132	0.000304	3.040516	1.030155	-0.000122
 781	7.7610e+01	8.9067	37.825943	0.000324	3.243218	1.098832	-0.000130
 782	7.7710e+01	8.8698	37.684644	0.000355	3.547269	1.201847	-0.000142
 783	7.7809e+01	8.8217	37.543344	0.000355	3.547269	1.201847	-0.000142
 784	7.7909e+01	8.7864	37.454527	0.000223	2.229712	0.755447	-0.000089
 785	7.8008e+01	8.7447	37.305153	0.000375	3.749970	1.270524	-0.000150
 786	7.8108e+01	8.7142	37.192113	0.000284	2.837815	0.961478	-0.000114
 787	7.8207e+01	8.6741	37.062925	0.000324	3.243218	1.098832	-0.000130
 788	7.8306e+01	8.6260	36.905476	0.000395	3.952671	1.339201	-0.000158
 789	7.8406e+01	8.5907	36.776288	0.000324	3.243218	1.098832	-0.000130
 790	7.8505e+01	8.5441	36.663248	0.000284	2.837815	0.961478	-0.000114
 791	7.8605e+01	8.5121	36.505800	0.000395	3.952671	1.339201	-0.000158
 792	7.8704e+01	8.4607	36.412946	0.000233	2.331063	0.789785	-0.000093
 793	7.8804e+01	8.4254	36.243386	0.000426	4.256723	1.442217	-0.000170
 794	7.8903e+01	8.3933	36.110161	0.000334	3.344568	1.133170	-0.000134
 795	7.9003e+01	8.3452	35.985009	0.000314	3.141867	1.064493	-0.000126
 796	7.9103e+01	8.3019	35.880044	0.000264	2.635114	0.892801	-0.000105
 797	7.9202e+01	8.2666	35.726633	0.000385	3.851321	1.304863	-0.000154
 798	7.9302e+01	8.2345	35.581296	0.000365	3.648620	1.236186	-0.000146
 799	7.9401e+01	8.1896	35.439996	0.000355	3.547269	1.201847	-0.000142
 800	7.9501e+01	8.1463	35.314845	0.000314	3.141867	1.064493	-0.000126
 801	7.9600e+01	8.1030	35.205842	0.000274	2.736465	0.927139	-0.000110
 802	7.9700e+01	8.0661	35.084728	0.000304	3.040516	1.030155	-0.000122
 803	7.9799e+01	8.0260	34.951503	0.000334	3.344568	1.133170	-0.000134
 804	7.9898e+01	7.9923	34.810203	0.000355	3.547269	1.201847	-0.000142
 805	7.9998e+01	7.9458	34.660829	0.000375	3.749970	1.270524	-0.000150
 806	8.0097e+01	7.9121	34.523566	0.000345	3.445919	1.167509	-0.000138
 807	8.0197e+01	7.8688	34.390341	0.000334	3.344568	1.133170	-0.000134
 808	8.0296e+01	7.8287	34.273264	0.000294	2.939166	0.995816	-0.000118
 809	8.0396e+01	7.7918	34.164261	0.000274	2.736465	0.927139	-0.000110
 810	8.0496e+01	7.7517	34.014887	0.000375	3.749970	1.270524	-0.000150
 811	8.0595e+01	7.7099	33.865513	0.000375	3.749970	1.270524	-0.000150
 812	8.0695e+01	7.6650	33.683842	0.000456	4.560775	1.545232	-0.000183
 813	8.0794e+01	7.6361	33.615211	0.000172	1.722959	0.583754	-0.000069
 814	8.0894e+01	7.5784	33.469874	0.000365	3.648620	1.236186	-0.000146
 815	8.0993e+01	7.5543	33.377020	0.000233	2.331063	0.789785	-0.000093
 816	8.1093e+01	7.5110	33.239757	0.000345	3.445919	1.167509	-0.000138
 817	8.1192e+01	7.4677	33.062123	0.000446	4.459424	1.510894	-0.000179
 818	8.1291e+01	7.4372	32.953120	0.000274	2.736465	0.927139	-0.000110
 819	8.1391e+01	7.3955	32.823932	0.000324	3.243218	1.098832	-0.000130
 820	8.1490e+01	7.3522	32.686670	0.000345	3.445919	1.167509	-0.000138
 821	8.1590e+01	7.3089	32.541333	0.000365	3.648620	1.236186	-0.000146
 822	8.1689e+01	7.2720	32.400033	0.000355	3.547269	1.201847	-0.000142
 823	8.1789e+01	7.2367	32.278919	0.000304	3.040516	1.030155	-0.000122
 824	8.1888e+01	7.1918	32.113396	0.000416	4.155373	1.407878	-0.000166
 825	8.1988e+01	7.1501	32.016505	0.000243	2.432413	0.824124	-0.000097
 826	8.2088e+01	7.1100	31.850982	0.000416	4.155373	1.407878	-0.000166
 827	8.2187e+01	7.0699	31.673348	0.000446	4.459424	1.510894	-0.000179
 828	8.2287e+01	7.0314	31.580494	0.000233	2.331063	0.789785	-0.000093
 829	8.2386e+01	6.9880	31.483603	0.000243	2.432413	0.824124	-0.000097
 830	8.2486e+01	6.9463	31.354415	0.000324	3.243218	1.098832	-0.000130
 831	8.2585e+01	6.9046	31.205041	0.000375	3.749970	1.270524	-0.000150
 832	8.2684e+01	6.8741	31.047592	0.000395	3.952671	1.339201	-0.000158
 833	8.2784e+01	6.8340	30.894181	0.000385	3.851321	1.304863	-0.000154
 834	8.2883e+01	6.7811	30.817476	0.000193	1.925660	0.652431	-0.000077
 835	8.2983e+01	6.7586	30.696362	0.000304	3.040516	1.030155	-0.000122
 836	8.3082e+01	6.7137	30.514690	0.000456	4.560775	1.545232	-0.000183
 837	8.3182e+01	6.6656	30.409725	0.000264	2.635114	0.892801	-0.000105
 838	8.3281e+01	6.6367	30.248240	0.000405	4.054022	1.373540	-0.000162
 839	8.3381e+01	6.5918	30.094828	0.000385	3.851321	1.304863	-0.000154
 840	8.3481e+01	6.5517	29.993900	0.000253	2.533764	0.858462	-0.000101
 841	8.3580e+01	6.5084	29.856637	0.000345	3.445919	1.167509	-0.000138
 842	8.3680e+01	6.4763	29.731486	0.000314	3.141867	1.064493	-0.000126
 843	8.3779e+01	6.4346	29.582112	0.000375	3.749970	1.270524	-0.000150
 844	8.3879e+01	6.3945	29.440812	0.000355	3.547269	1.201847	-0.000142
 845	8.3978e+01	6.3544	29.295475	0.000365	3.648620	1.236186	-0.000146
 846	8.4078e+01	6.3143	29.194547	0.000253	2.533764	0.858462	-0.000101
 847	8.4177e+01	6.2742	29.089582	0.000264	2.635114	0.892801	-0.000105
 848	8.4276e+01	6.2357	28.928096	0.000405	4.054022	1.373540	-0.000162
 849	8.4376e+01	6.1859	28.782759	0.000365	3.648620	1.236186	-0.000146
 850	8.4475e+01	6.1554	28.633385	0.000375	3.749970	1.270524	-0.000150
 851	8.4575e+01	6.1218	28.504197	0.000324	3.243218	1.098832	-0.000130
 852	8.4674e+01	6.0800	28.342711	0.000405	4.054022	1.373540	-0.000162
 853	8.4774e+01	6.0367	28.225635	0.000294	2.939166	0.995816	-0.000118
 854	8.4874e+01	6.0014	28.116632	0.000274	2.736465	0.927139	-0.000110
 855	8.4973e+01	5.9565	27.955146	0.000405	4.054022	1.373540	-0.000162
 856	8.5073e+01	5.9260	27.809810	0.000365	3.648620	1.236186	-0.000146
 857	8.5172e+01	5.8779	27.672547	0.000345	3.445919	1.167509	-0.000138
 858	8.5272e+01	5.8362	27.515099	0.000395	3.952671	1.339201	-0.000158
 859	8.5371e+01	5.7961	27.434356	0.000203	2.027011	0.686770	-0.000081
 860	8.5471e+01	5.7608	27.248648	0.000466	4.662125	1.579571	-0.000187
 861	8.5570e+01	5.7239	27.107348	0.000355	3.547269	1.201847	-0.000142
 862	8.5669e+01	5.6742	26.970085	0.000345	3.445919	1.167509	-0.000138
 863	8.5769e+01	5.6373	26.820711	0.000375	3.749970	1.270524	-0.000150
 864	8.5868e+01	5.6052	26.691523	0.000324	3.243218	1.098832	-0.000130
 865	8.5968e+01	5.5619	26.586557	0.000264	2.635114	0.892801	-0.000105
 866	8.6067e+01	5.5170	26.404886	0.000456	4.560775	1.545232	-0.000183
 867	8.6167e+01	5.4849	26.263587	0.000355	3.547269	1.201847	-0.000142
 868	8.6266e+01	5.4367	26.138435	0.000314	3.141867	1.064493	-0.000126
 869	8.6366e+01	5.3998	26.005210	0.000334	3.344568	1.133170	-0.000134
 870	8.6466e+01	5.3533	25.839687	0.000416	4.155373	1.407878	-0.000166
 871	8.6565e+01	5.3196	25.702425	0.000345	3.445919	1.167509	-0.000138
 872	8.6665e+01	5.2843	25.544976	0.000395	3.952671	1.339201	-0.000158
 873	8.6764e+01	5.2330	25.399639	0.000365	3.648620	1.236186	-0.000146
 874	8.6864e+01	5.2025	25.266414	0.000334	3.344568	1.133170	-0.000134
 875	8.6963e+01	5.1640	25.149337	0.000294	2.939166	0.995816	-0.000118
 876	8.7063e+01	5.1207	24.995926	0.000385	3.851321	1.304863	-0.000154
 877	8.7162e+01	5.0742	24.850589	0.000365	3.648620	1.236186	-0.000146
 878	8.7261e+01	5.0357	24.721401	0.000324	3.243218	1.098832	-0.000130
 879	8.7361e+01	5.0052	24.551841	0.000426	4.256723	1.442217	-0.000170
 880	8.7460e+01	4.9523	24.410541	0.000355	3.547269	1.201847	-0.000142
 881	8.7560e+01	4.9170	24.309613	0.000253	2.533764	0.858462	-0.000101
 882	8.7659e+01	4.8817	24.184462	0.000314	3.141867	1.064493	-0.000126
 883	8.7759e+01	4.8416	23.958382	0.000568	5.675631	1.922956	-0.000227
 884	8.7859e+01	4.7951	23.841305	0.000294	2.939166	0.995816	-0.000118
 885	8.7958e+01	4.7630	23.728265	0.000284	2.837815	0.961478	-0.000114
 886	8.8058e+01	4.7229	23.554668	0.000436	4.358074	1.476555	-0.000174
 887	8.8157e+01	4.6908	23.433554	0.000304	3.040516	1.030155	-0.000122
 888	8.8257e+01	4.6459	23.284180	0.000375	3.749970	1.270524	-0.000150
 889	8.8356e+01	4.5993	23.150955	0.000334	3.344568	1.133170	-0.000134
 890	8.8456e+01	4.5512	23.013692	0.000345	3.445919	1.167509	-0.000138
 891	8.8555e+01	4.5271	22.864318	0.000375	3.749970	1.270524	-0.000150
 892	8.8654e+01	4.4838	22.743204	0.000304	3.040516	1.030155	-0.000122
 893	8.8754e+01	4.4485	22.573644	0.000426	4.256723	1.442217	-0.000170
 894	8.8853e+01	4.4116	22.436382	0.000345	3.445919	1.167509	-0.000138
 895	8.8953e+01	4.3619	22.287008	0.000375	3.749970	1.270524	-0.000150
 896	8.9052e+01	4.3170	22.153782	0.000334	3.344568	1.133170	-0.000134
 897	8.9152e+01	4.2801	21.988260	0.000416	4.155373	1.407878	-0.000166
 898	8.9251e+01	4.2400	21.830812	0.000395	3.952671	1.339201	-0.000158
 899	8.9351e+01	4.1967	21.669326	0.000405	4.054022	1.373540	-0.000162
 900	8.9451e+01	4.1630	21.556286	0.000284	2.837815	0.961478	-0.000114
 901	8.9550e+01	4.1213	21.386727	0.000426	4.256723	1.442217	-0.000170
 902	8.9650e+01	4.0844	21.225241	0.000405	4.054022	1.373540	-0.000162
 903	8.9749e+01	4.0379	21.104127	0.000304	3.040516	1.030155	-0.000122
 904	8.9849e+01	4.0090	20.966864	0.000345	3.445919	1.167509	-0.000138
 905	8.9948e+01	3.9673	20.817490	0.000375	3.749970	1.270524	-0.000150
 906	9.0047e+01	3.9256	20.615634	0.000507	5.067527	1.716925	-0.000203
 907	9.0147e+01	3.8871	20.534891	0.000203	2.027011	0.686770	-0.000081
 908	9.0246e+01	3.8389	20.369368	0.000416	4.155373	1.407878	-0.000166
 909	9.0346e+01	3.8036	20.147326	0.000557	5.574280	1.888617	-0.000223
 910	9.0445e+01	3.7603	20.050435	0.000243	2.432413	0.824124	-0.000097
 911	9.0545e+01	3.7266	19.897023	0.000385	3.851321	1.304863	-0.000154
 912	9.0644e+01	3.6849	19.715352	0.000456	4.560775	1.545232	-0.000183
 913	9.0744e+01	3.6384	19.574053	0.000355	3.547269	1.201847	-0.000142
 914	9.0844e+01	3.6015	19.428716	0.000365	3.648620	1.236186	-0.000146
 915	9.0943e+01	3.5710	19.307602	0.000304	3.040516	1.030155	-0.000122
 916	9.1043e+01	3.5261	19.142079	0.000416	4.155373	1.407878	-0.000166
 917	9.1142e+01	3.4780	18.972519	0.000426	4.256723	1.442217	-0.000170
 918	9.1242e+01	3.4379	18.843331	0.000324	3.243218	1.098832	-0.000130
 919	9.1341e+01	3.4138	18.710106	0.000334	3.344568	1.133170	-0.000134
 920	9.1441e+01	3.3625	18.564769	0.000365	3.648620	1.236186	-0.000146
 921	9.1540e+01	3.3288	18.342726	0.000557	5.574280	1.888617	-0.000223
 922	9.1639e+01	3.2887	18.229686	0.000284	2.837815	0.961478	-0.000114
 923	9.1739e+01	3.2518	18.084350	0.000365	3.648620	1.236186	-0.000146
 924	9.1838e+01	3.2181	17.918827	0.000416	4.155373	1.407878	-0.000166
 925	9.1938e+01	3.1700	17.749267	0.000426	4.256723	1.442217	-0.000170
 926	9.2037e+01	3.1315	17.587782	0.000405	4.054022	1.373540	-0.000162
 927	9.2137e+01	3.0865	17.430334	0.000395	3.952671	1.339201	-0.000158
 928	9.2237e+01	3.0496	17.325368	0.000264	2.635114	0.892801	-0.000105
 929	9.2336e+01	3.0047	17.135623	0.000476	4.763476	1.613909	-0.000191
 930	9.2436e+01	2.9710	16.966063	0.000426	4.256723	1.442217	-0.000170
 931	9.2535e+01	2.9293	16.820726	0.000365	3.648620	1.236186	-0.000146
 932	9.2635e+01	2.8956	16.659241	0.000405	4.054022	1.373540	-0.000162
 933	9.2734e+01	2.8395	16.550238	0.000274	2.736465	0.927139	-0.000110
 934	9.2834e+01	2.8042	16.340307	0.000527	5.270229	1.785602	-0.000211
 935	9.2933e+01	2.7721	16.203044	0.000345	3.445919	1.167509	-0.000138
 936	9.3032e+01	2.7336	16.029447	0.000436	4.358074	1.476555	-0.000174
 937	9.3132e+01	2.6871	15.876036	0.000385	3.851321	1.304863	-0.000154
 938	9.3231e+01	2.6454	15.754922	0.000304	3.040516	1.030155	-0.000122
 939	9.3331e+01	2.6053	15.573251	0.000456	4.560775	1.545232	-0.000183
 940	9.3430e+01	2.5700	15.411766	0.000405	4.054022	1.373540	-0.000162
 941	9.3530e+01	2.5299	15.266429	0.000365	3.648620	1.236186	-0.000146
 942	9.3629e+01	2.4978	15.104943	0.000405	4.054022	1.373540	-0.000162
 943	9.3729e+01	2.4529	14.959606	0.000365	3.648620	1.236186	-0.000146
 944	9.3829e+01	2.4080	14.810232	0.000375	3.749970	1.270524	-0.000150
 945	9.3928e+01	2.3695	14.636636	0.000436	4.358074	1.476555	-0.000174
 946	9.4028e+01	2.3326	14.463039	0.000436	4.358074	1.476555	-0.000174
 947	9.4127e+01	2.2876	14.325776	0.000345	3.445919	1.167509	-0.000138
 948	9.4227e+01	2.2620	14.152179	0.000436	4.358074	1.476555	-0.000174
 949	9.4326e+01	2.2187	13.982620	0.000426	4.256723	1.442217	-0.000170
 950	9.4425e+01	2.1657	13.849394	0.000334	3.344568	1.133170	-0.000134
 951	9.4525e+01	2.1304	13.679834	0.000426	4.256723	1.442217	-0.000170
 952	9.4624e+01	2.0887	13.542572	0.000345	3.445919	1.167509	-0.000138
 953	9.4724e+01	2.0454	13.393198	0.000375	3.749970	1.270524	-0.000150
 954	9.4823e+01	2.0085	13.195378	0.000497	4.966177	1.682586	-0.000199
 955	9.4923e+01	1.9764	13.050041	0.000365	3.648620	1.236186	-0.000146
 956	9.5022e+01	1.9379	12.896630	0.000385	3.851321	1.304863	-0.000154
 957	9.5122e+01	1.8930	12.747256	0.000375	3.749970	1.270524	-0.000150
 958	9.5222e+01	1.8497	12.573659	0.000436	4.358074	1.476555	-0.000174
 959	9.5321e+01	1.8128	12.396025	0.000446	4.459424	1.510894	-0.000179
 960	9.5421e+01	1.7743	12.266837	0.000324	3.243218	1.098832	-0.000130
 961	9.5520e+01	1.7390	12.085166	0.000456	4.560775	1.545232	-0.000183
 962	9.5620e+01	1.6989	11.927718	0.000395	3.952671	1.339201	-0.000158
 963	9.5719e+01	1.6524	11.766232	0.000405	4.054022	1.373540	-0.000162
 964	9.5819e+01	1.6010	11.596672	0.000426	4.256723	1.442217	-0.000170
 965	9.5918e+01	1.5673	11.463447	0.000334	3.344568	1.133170	-0.000134
 966	9.6017e+01	1.5256	11.265627	0.000497	4.966177	1.682586	-0.000199
 967	9.6117e+01	1.4935	11.112216	0.000385	3.851321	1.304863	-0.000154
 968	9.6216e+01	1.4566	10.958805	0.000385	3.851321	1.304863	-0.000154
 969	9.6316e+01	1.4133	10.777134	0.000456	4.560775	1.545232	-0.000183
 970	9.6415e+01	1.3796	10.603537	0.000436	4.358074	1.476555	-0.000174
 971	9.6515e+01	1.3315	10.454163	0.000375	3.749970	1.270524	-0.000150
 972	9.6615e+01	1.2930	10.284603	0.000426	4.256723	1.442217	-0.000170
 973	9.6714e+01	1.2433	10.135229	0.000375	3.749970	1.270524	-0.000150
 974	9.6814e+01	1.2128	9.949521	0.000466	4.662125	1.579571	-0.000187
 975	9.6913e+01	1.1663	9.808221	0.000355	3.547269	1.201847	-0.000142
 976	9.7013e+01	1.1326	9.626550	0.000456	4.560775	1.545232	-0.000183
 977	9.7112e+01	1.0829	9.456990	0.000426	4.256723	1.442217	-0.000170
 978	9.7212e+01	1.0524	9.315691	0.000355	3.547269	1.201847	-0.000142
 979	9.7311e+01	1.0075	9.170354	0.000365	3.648620	1.236186	-0.000146
 980	9.7410e+01	0.9690	8.972534	0.000497	4.966177	1.682586	-0.000199
 981	9.7510e+01	0.9321	8.823160	0.000375	3.749970	1.270524	-0.000150
 982	9.7609e+01	0.8936	8.641489	0.000456	4.560775	1.545232	-0.000183
 983	9.7709e+01	0.8599	8.500189	0.000355	3.547269	1.201847	-0.000142
 984	9.7808e+01	0.8150	8.310444	0.000476	4.763476	1.613909	-0.000191
 985	9.7908e+01	0.7652	8.161070	0.000375	3.749970	1.270524	-0.000150
 986	9.8007e+01	0.7363	7.983436	0.000446	4.459424	1.510894	-0.000179
 987	9.8107e+01	0.6914	7.777542	0.000517	5.168878	1.751263	-0.000207
 988	9.8207e+01	0.6545	7.620094	0.000395	3.952671	1.339201	-0.000158
 989	9.8306e+01	0.6128	7.482831	0.000345	3.445919	1.167509	-0.000138
 990	9.8406e+01	0.5775	7.272900	0.000527	5.270229	1.785602	-0.000211
 991	9.8505e+01	0.5390	7.143712	0.000324	3.243218	1.098832	-0.000130
 992	9.8605e+01	0.4957	7.010486	0.000334	3.344568	1.133170	-0.000134
 993	9.8704e+01	0.4508	6.820741	0.000476	4.763476	1.613909	-0.000191
 994	9.8803e+01	0.4203	6.651181	0.000426	4.256723	1.442217	-0.000170
 995	9.8903e+01	0.3754	6.469510	0.000456	4.560775	1.545232	-0.000183
 996	9.9002e+01	0.3321	6.308025	0.000405	4.054022	1.373540	-0.000162
 997	9.9102e+01	0.2968	6.158651	0.000375	3.749970	1.270524	-0.000150
 998	9.9201e+01	0.2615	5.952757	0.000517	5.168878	1.751263	-0.000207
 999	9.9301e+01	0.2102	5.767048	0.000466	4.662125	1.579571	-0.000187
1000	9.9400e+01	0.1845	5.637860	0.000324	3.243218	1.098832	-0.000130
1001	9.9500e+01	0.1380	5.448115	0.000476	4.763476	1.613909	-0.000191
1002	9.9600e+01	0.0979	5.270481	0.000446	4.459424	1.510894	-0.000179
1003	9.9699e+01	0.0529	5.092847	0.000446	4.459424	1.510894	-0.000179
1004	9.9799e+01	0.0144	4.923287	0.000426	4.256723	1.442217	-0.000170
1005	9.9898e+01	-0.0112	4.814284	0.000274	2.736465	0.927139	-0.000110
1006	9.9998e+01	-0.0578	4.608390	0.000517	5.168878	1.751263	-0.000207
1007	1.0010e+02	-0.0914	4.491314	0.000294	2.939166	0.995816	-0.000118
1008	1.0020e+02	-0.1299	4.317717	0.000436	4.358074	1.476555	-0.000174
1009	1.0030e+02	-0.1668	4.164306	0.000385	3.851321	1.304863	-0.000154
1010	1.0040e+02	-0.2118	3.962449	0.000507	5.067527	1.716925	-0.000203
1011	1.0050e+02	-0.2503	3.817112	0.000365	3.648620	1.236186	-0.000146
1012	1.0059e+02	-0.2952	3.659664	0.000395	3.952671	1.339201	-0.000158
1013	1.0069e+02	-0.3321	3.490104	0.000426	4.256723	1.442217	-0.000170
1014	1.0079e+02	-0.3706	3.264024	0.000568	5.675631	1.922956	-0.000227
1015	1.0089e+02	-0.4043	3.102539	0.000405	4.054022	1.373540	-0.000162
1016	1.0099e+02	-0.4524	2.937016	0.000416	4.155373	1.407878	-0.000166
1017	1.0109e+02	-0.4909	2.791679	0.000365	3.648620	1.236186	-0.000146
1018	1.0119e+02	-0.5342	2.618083	0.000436	4.358074	1.476555	-0.000174
1019	1.0129e+02	-0.5631	2.440449	0.000446	4.459424	1.510894	-0.000179
1020	1.0139e+02	-0.6160	2.299149	0.000355	3.547269	1.201847	-0.000142
1021	1.0149e+02	-0.6561	2.105366	0.000486	4.864826	1.648248	-0.000195
1022	1.0159e+02	-0.6930	1.875250	0.000578	5.776981	1.957294	-0.000231
1023	1.0169e+02	-0.7396	1.725876	0.000375	3.749970	1.270524	-0.000150
1024	1.0179e+02	-0.7716	1.548242	0.000446	4.459424	1.510894	-0.000179
1025	1.0189e+02	-0.8150	1.382719	0.000416	4.155373	1.407878	-0.000166
1026	1.0199e+02	-0.8551	1.156639	0.000568	5.675631	1.922956	-0.000227
1027	1.0209e+02	-0.9048	1.043600	0.000284	2.837815	0.961478	-0.000114
1028	1.0219e+02	-0.9385	0.841743	0.000507	5.067527	1.716925	-0.000203
1029	1.0229e+02	-0.9722	0.656035	0.000466	4.662125	1.579571	-0.000187
1030	1.0239e+02	-1.0091	0.510698	0.000365	3.648620	1.236186	-0.000146
1031	1.0248e+02	-1.0588	0.316915	0.000486	4.864826	1.648248	-0.000195
1032	1.0258e+02	-1.0845	0.147355	0.000426	4.256723	1.442217	-0.000170
1033	1.0268e+02	-1.1294	-0.050464	0.000497	4.966177	1.682586	-0.000199
1034	1.0278e+02	-1.1711	-0.195801	0.000365	3.648620	1.236186	-0.000146
1035	1.0288e+02	-1.2096	-0.369398	0.000436	4.358074	1.476555	-0.000174
1036	1.0298e+02	-1.2465	-0.538958	0.000426	4.256723	1.442217	-0.000170
1037	1.0308e+02	-1.2834	-0.748889	0.000527	5.270229	1.785602	-0.000211
1038	1.0318e+02	-1.3219	-0.934597	0.000466	4.662125	1.579571	-0.000187
1039	1.0328e+02	-1.3700	-1.075897	0.000355	3.547269	1.201847	-0.000142
1040	1.0338e+02	-1.3989	-1.249494	0.000436	4.358074	1.476555	-0.000174
1041	1.0348e+02	-1.4486	-1.439239	0.000476	4.763476	1.613909	-0.000191
1042	1.0358e+02	-1.4791	-1.584576	0.000365	3.648620	1.236186	-0.000146
1043	1.0368e+02	-1.5336	-1.766247	0.000456	4.560775	1.545232	-0.000183
1044	1.0378e+02	-1.5673	-1.968104	0.000507	5.067527	1.716925	-0.000203
1045	1.0388e+02	-1.6123	-2.113441	0.000365	3.648620	1.236186	-0.000146
1046	1.0398e+02	-1.6411	-2.270889	0.000395	3.952671	1.339201	-0.000158
1047	1.0408e+02	-1.6925	-2.480820	0.000527	5.270229	1.785602	-0.000211
1048	1.0418e+02	-1.7213	-2.658454	0.000446	4.459424	1.510894	-0.000179
1049	1.0428e+02	-1.7647	-2.819939	0.000405	4.054022	1.373540	-0.000162
1050	1.0438e+02	-1.8016	-2.945091	0.000314	3.141867	1.064493	-0.000126
1051	1.0447e+02	-1.8417	-3.163096	0.000547	5.472930	1.854279	-0.000219
1052	1.0457e+02	-1.8866	-3.332656	0.000426	4.256723	1.442217	-0.000170
1053	1.0467e+02	-1.9235	-3.518364	0.000466	4.662125	1.579571	-0.000187
1054	1.0477e+02	-1.9668	-3.663701	0.000365	3.648620	1.236186	-0.000146
1055	1.0487e+02	-1.9989	-3.813075	0.000375	3.749970	1.270524	-0.000150
1056	1.0497e+02	-2.0422	-4.035117	0.000557	5.574280	1.888617	-0.000223
1057	1.0507e+02	-2.0887	-4.220825	0.000466	4.662125	1.579571	-0.000187
1058	1.0517e+02	-2.1240	-4.382311	0.000405	4.054022	1.373540	-0.000162
1059	1.0527e+02	-2.1753	-4.527648	0.000365	3.648620	1.236186	-0.000146
1060	1.0537e+02	-2.2106	-4.713356	0.000466	4.662125	1.579571	-0.000187
1061	1.0547e+02	-2.2443	-4.858693	0.000365	3.648620	1.236186	-0.000146
1062	1.0557e+02	-2.2876	-5.036327	0.000446	4.459424	1.510894	-0.000179
1063	1.0567e+02	-2.3165	-5.209924	0.000436	4.358074	1.476555	-0.000174
1064	1.0577e+02	-2.3630	-5.383521	0.000436	4.358074	1.476555	-0.000174
1065	1.0587e+02	-2.3983	-5.545006	0.000405	4.054022	1.373540	-0.000162
1066	1.0597e+02	-2.4449	-5.746863	0.000507	5.067527	1.716925	-0.000203
1067	1.0607e+02	-2.4898	-5.888162	0.000355	3.547269	1.201847	-0.000142
1068	1.0617e+02	-2.5186	-6.045611	0.000395	3.952671	1.339201	-0.000158
1069	1.0627e+02	-2.5588	-6.255542	0.000527	5.270229	1.785602	-0.000211
1070	1.0637e+02	-2.6069	-6.400879	0.000365	3.648620	1.236186	-0.000146
1071	1.0647e+02	-2.6470	-6.578513	0.000446	4.459424	1.510894	-0.000179
1072	1.0656e+02	-2.6727	-6.768258	0.000476	4.763476	1.613909	-0.000191
1073	1.0666e+02	-2.7288	-6.905521	0.000345	3.445919	1.167509	-0.000138
1074	1.0676e+02	-2.7625	-7.111415	0.000517	5.168878	1.751263	-0.000207
1075	1.0686e+02	-2.8090	-7.256751	0.000365	3.648620	1.236186	-0.000146
1076	1.0696e+02	-2.8379	-7.406126	0.000375	3.749970	1.270524	-0.000150
1077	1.0706e+02	-2.8860	-7.599908	0.000486	4.864826	1.648248	-0.000195
1078	1.0716e+02	-2.9197	-7.765431	0.000416	4.155373	1.407878	-0.000166
1079	1.0726e+02	-2.9630	-7.918842	0.000385	3.851321	1.304863	-0.000154
1080	1.0736e+02	-2.9951	-8.116661	0.000497	4.966177	1.682586	-0.000199
1081	1.0746e+02	-3.0464	-8.274110	0.000395	3.952671	1.339201	-0.000158
1082	1.0756e+02	-3.0865	-8.399261	0.000314	3.141867	1.064493	-0.000126
1083	1.0766e+02	-3.1202	-8.597081	0.000497	4.966177	1.682586	-0.000199
1084	1.0776e+02	-3.1668	-8.762603	0.000416	4.155373	1.407878	-0.000166
1085	1.0786e+02	-3.2053	-8.944274	0.000456	4.560775	1.545232	-0.000183
1086	1.0796e+02	-3.2325	-9.077500	0.000334	3.344568	1.133170	-0.000134
1087	1.0806e+02	-3.2823	-9.251097	0.000436	4.358074	1.476555	-0.000174
1088	1.0816e+02	-3.3304	-9.469102	0.000547	5.472930	1.854279	-0.000219
1089	1.0826e+02	-3.3561	-9.598290	0.000324	3.243218	1.098832	-0.000130
1090	1.0836e+02	-3.4026	-9.747664	0.000375	3.749970	1.270524	-0.000150
1091	1.0845e+02	-3.4411	-9.933372	0.000466	4.662125	1.579571	-0.000187
1092	1.0855e+02	-3.4844	-10.086784	0.000385	3.851321	1.304863	-0.000154
1093	1.0865e+02	-3.5229	-10.260380	0.000436	4.358074	1.476555	-0.000174
1094	1.0875e+02	-3.5678	-10.442052	0.000456	4.560775	1.545232	-0.000183
1095	1.0885e+02	-3.5983	-10.599500	0.000395	3.952671	1.339201	-0.000158
1096	1.0895e+02	-3.6400	-10.728688	0.000324	3.243218	1.098832	-0.000130
1097	1.0905e+02	-3.6849	-10.918434	0.000476	4.763476	1.613909	-0.000191
1098	1.0915e+02	-3.7154	-11.067808	0.000375	3.749970	1.270524	-0.000150
1099	1.0925e+02	-3.7651	-11.225256	0.000395	3.952671	1.339201	-0.000158
1100	1.0935e+02	-3.8020	-11.451336	0.000568	5.675631	1.922956	-0.000227
1101	1.0945e+02	-3.8437	-11.544190	0.000233	2.331063	0.789785	-0.000093
1102	1.0955e+02	-3.8774	-11.721824	0.000446	4.459424	1.510894	-0.000179
1103	1.0965e+02	-3.9272	-11.871198	0.000375	3.749970	1.270524	-0.000150
1104	1.0975e+02	-3.9592	-12.052869	0.000456	4.560775	1.545232	-0.000183
1105	1.0985e+02	-4.0090	-12.173983	0.000304	3.040516	1.030155	-0.000122
1106	1.0995e+02	-4.0459	-12.379877	0.000517	5.168878	1.751263	-0.000207
1107	1.1005e+02	-4.0844	-12.529251	0.000375	3.749970	1.270524	-0.000150
1108	1.1015e+02	-4.1133	-12.658439	0.000324	3.243218	1.098832	-0.000130
1109	1.1025e+02	-4.1598	-12.844147	0.000466	4.662125	1.579571	-0.000187
1110	1.1035e+02	-4.2095	-12.985447	0.000355	3.547269	1.201847	-0.000142
1111	1.1044e+02	-4.2384	-13.171155	0.000466	4.662125	1.579571	-0.000187
1112	1.1054e+02	-4.2849	-13.255935	0.000213	2.128362	0.721108	-0.000085
1113	1.1064e+02	-4.3234	-13.482015	0.000568	5.675631	1.922956	-0.000227
1114	1.1074e+02	-4.3619	-13.631389	0.000375	3.749970	1.270524	-0.000150
1115	1.1084e+02	-4.3988	-13.784800	0.000385	3.851321	1.304863	-0.000154
1116	1.1094e+02	-4.4437	-13.954360	0.000426	4.256723	1.442217	-0.000170
1117	1.1104e+02	-4.4806	-14.111808	0.000395	3.952671	1.339201	-0.000158
1118	1.1114e+02	-4.5079	-14.232922	0.000304	3.040516	1.030155	-0.000122
1119	1.1124e+02	-4.5673	-14.434779	0.000507	5.067527	1.716925	-0.000203
1120	1.1134e+02	-4.5849	-14.584153	0.000375	3.749970	1.270524	-0.000150
1121	1.1144e+02	-4.6394	-14.749675	0.000416	4.155373	1.407878	-0.000166
1122	1.1154e+02	-4.6812	-14.854641	0.000264	2.635114	0.892801	-0.000105
1123	1.1164e+02	-4.7132	-15.012089	0.000395	3.952671	1.339201	-0.000158
1124	1.1174e+02	-4.7582	-15.177612	0.000416	4.155373	1.407878	-0.000166
1125	1.1184e+02	-4.7967	-15.351209	0.000436	4.358074	1.476555	-0.000174
1126	1.1194e+02	-4.8400	-15.500583	0.000375	3.749970	1.270524	-0.000150
1127	1.1204e+02	-4.8801	-15.662068	0.000405	4.054022	1.373540	-0.000162
1128	1.1214e+02	-4.9186	-15.827591	0.000416	4.155373	1.407878	-0.000166
1129	1.1224e+02	-4.9523	-15.952742	0.000314	3.141867	1.064493	-0.000126
1130	1.1234e+02	-4.9924	-16.118264	0.000416	4.155373	1.407878	-0.000166
1131	1.1244e+02	-5.0389	-16.287824	0.000426	4.256723	1.442217	-0.000170
1132	1.1253e+02	-5.0726	-16.421050	0.000334	3.344568	1.133170	-0.000134
1133	1.1263e+02	-5.1223	-16.558312	0.000345	3.445919	1.167509	-0.000138
1134	1.1273e+02	-5.1528	-16.760169	0.000507	5.067527	1.716925	-0.000203
1135	1.1283e+02	-5.2025	-16.881283	0.000304	3.040516	1.030155	-0.000122
1136	1.1293e+02	-5.2378	-17.006434	0.000314	3.141867	1.064493	-0.000126
1137	1.1303e+02	-5.2795	-17.192143	0.000466	4.662125	1.579571	-0.000187
1138	1.1313e+02	-5.3084	-17.341517	0.000375	3.749970	1.270524	-0.000150
1139	1.1323e+02	-5.3565	-17.466668	0.000314	3.141867	1.064493	-0.000126
1140	1.1333e+02	-5.3838	-17.620079	0.000385	3.851321	1.304863	-0.000154
1141	1.1343e+02	-5.4335	-17.789639	0.000426	4.256723	1.442217	-0.000170
1142	1.1353e+02	-5.4720	-17.959198	0.000426	4.256723	1.442217	-0.000170
1143	1.1363e+02	-5.5170	-18.088387	0.000324	3.243218	1.098832	-0.000130
1144	1.1373e+02	-5.5571	-18.217575	0.000324	3.243218	1.098832	-0.000130
1145	1.1383e+02	-5.5891	-18.387135	0.000426	4.256723	1.442217	-0.000170
1146	1.1393e+02	-5.6325	-18.516323	0.000324	3.243218	1.098832	-0.000130
1147	1.1403e+02	-5.6758	-18.677808	0.000405	4.054022	1.373540	-0.000162
1148	1.1413e+02	-5.7111	-18.851405	0.000436	4.358074	1.476555	-0.000174
1149	1.1423e+02	-5.7496	-19.029039	0.000446	4.459424	1.510894	-0.000179
1150	1.1433e+02	-5.7833	-19.105745	0.000193	1.925660	0.652431	-0.000077
1151	1.1442e+02	-5.8330	-19.283379	0.000446	4.459424	1.510894	-0.000179
1152	1.1452e+02	-5.8699	-19.412567	0.000324	3.243218	1.098832	-0.000130
1153	1.1462e+02	-5.9180	-19.557904	0.000365	3.648620	1.236186	-0.000146
1154	1.1472e+02	-5.9549	-19.747649	0.000476	4.763476	1.613909	-0.000191
1155	1.1482e+02	-5.9982	-19.860689	0.000284	2.837815	0.961478	-0.000114
1156	1.1492e+02	-6.0335	-20.014100	0.000385	3.851321	1.304863	-0.000154
1157	1.1502e+02	-6.0720	-20.179623	0.000416	4.155373	1.407878	-0.000166
1158	1.1512e+02	-6.1218	-20.304774	0.000314	3.141867	1.064493	-0.000126
1159	1.1522e+02	-6.1538	-20.438000	0.000334	3.344568	1.133170	-0.000134
1160	1.1532e+02	-6.1859	-20.595448	0.000395	3.952671	1.339201	-0.000158
1161	1.1542e+02	-6.2357	-20.752896	0.000395	3.952671	1.339201	-0.000158
1162	1.1552e+02	-6.2693	-20.910345	0.000395	3.952671	1.339201	-0.000158
1163	1.1562e+02	-6.3127	-21.063756	0.000385	3.851321	1.304863	-0.000154
1164	1.1572e+02	-6.3463	-21.164684	0.000253	2.533764	0.858462	-0.000101
1165	1.1582e+02	-6.3945	-21.330207	0.000416	4.155373	1.407878	-0.000166
1166	1.1592e+02	-6.4330	-21.487655	0.000395	3.952671	1.339201	-0.000158
1167	1.1602e+02	-6.4570	-21.600695	0.000284	2.837815	0.961478	-0.000114
1168	1.1612e+02	-6.5148	-21.737957	0.000345	3.445919	1.167509	-0.000138
1169	1.1622e+02	-6.5469	-21.859071	0.000304	3.040516	1.030155	-0.000122
1170	1.1632e+02	-6.5822	-21.992297	0.000334	3.344568	1.133170	-0.000134
1171	1.1642e+02	-6.6319	-22.178005	0.000466	4.662125	1.579571	-0.000187
1172	1.1651e+02	-6.6656	-22.315268	0.000345	3.445919	1.167509	-0.000138
1173	1.1661e+02	-6.7121	-22.424270	0.000274	2.736465	0.927139	-0.000110
1174	1.1671e+02	-6.7394	-22.593830	0.000426	4.256723	1.442217	-0.000170
1175	1.1681e+02	-6.7875	-22.718981	0.000314	3.141867	1.064493	-0.000126
1176	1.1691e+02	-6.8244	-22.856244	0.000345	3.445919	1.167509	-0.000138
1177	1.1701e+02	-6.8677	-22.997544	0.000355	3.547269	1.201847	-0.000142
1178	1.1711e+02	-6.9046	-23.146918	0.000375	3.749970	1.270524	-0.000150
1179	1.1721e+02	-6.9479	-23.304366	0.000395	3.952671	1.339201	-0.000158
1180	1.1731e+02	-6.9864	-23.421443	0.000294	2.939166	0.995816	-0.000118
1181	1.1741e+02	-7.0346	-23.546594	0.000314	3.141867	1.064493	-0.000126
1182	1.1751e+02	-7.0731	-23.720191	0.000436	4.358074	1.476555	-0.000174
1183	1.1761e+02	-7.1100	-23.813045	0.000233	2.331063	0.789785	-0.000093
1184	1.1771e+02	-7.1453	-23.962419	0.000375	3.749970	1.270524	-0.000150
1185	1.1781e+02	-7.1822	-24.119867	0.000395	3.952671	1.339201	-0.000158
1186	1.1791e+02	-7.2255	-24.240982	0.000304	3.040516	1.030155	-0.000122
1187	1.1801e+02	-7.2656	-24.349984	0.000274	2.736465	0.927139	-0.000110
1188	1.1811e+02	-7.3041	-24.535692	0.000466	4.662125	1.579571	-0.000187
1189	1.1821e+02	-7.3362	-24.689104	0.000385	3.851321	1.304863	-0.000154
1190	1.1831e+02	-7.3763	-24.826366	0.000345	3.445919	1.167509	-0.000138
1191	1.1841e+02	-7.4276	-24.915183	0.000223	2.229712	0.755447	-0.000089
1192	1.1850e+02	-7.4613	-25.064557	0.000375	3.749970	1.270524	-0.000150
1193	1.1860e+02	-7.4982	-25.217968	0.000385	3.851321	1.304863	-0.000154
1194	1.1870e+02	-7.5431	-25.318897	0.000253	2.533764	0.858462	-0.000101
1195	1.1880e+02	-7.5896	-25.492494	0.000436	4.358074	1.476555	-0.000174
1196	1.1890e+02	-7.6249	-25.637831	0.000365	3.648620	1.236186	-0.000146
1197	1.1900e+02	-7.6666	-25.779130	0.000355	3.547269	1.201847	-0.000142
1198	1.1910e+02	-7.7035	-25.960801	0.000456	4.560775	1.545232	-0.000183
1199	1.1920e+02	-7.7452	-26.085953	0.000314	3.141867	1.064493	-0.000126
1200	1.1930e+02	-7.7869	-26.223215	0.000345	3.445919	1.167509	-0.000138
1201	1.1940e+02	-7.8190	-26.352404	0.000324	3.243218	1.098832	-0.000130
1202	1.1950e+02	-7.8623	-26.497740	0.000365	3.648620	1.236186	-0.000146
1203	1.1960e+02	-7.9073	-26.606743	0.000274	2.736465	0.927139	-0.000110
1204	1.1970e+02	-7.9490	-26.744006	0.000345	3.445919	1.167509	-0.000138
1205	1.1980e+02	-7.9795	-26.881268	0.000345	3.445919	1.167509	-0.000138
1206	1.1990e+02	-8.0131	-27.034679	0.000385	3.851321	1.304863	-0.000154
1207	1.2000e+02	-8.0613	-27.167905	0.000334	3.344568	1.133170	-0.000134
1208	1.2010e+02	-8.0934	-27.256722	0.000223	2.229712	0.755447	-0.000089
1209	1.2020e+02	-8.1415	-27.430319	0.000436	4.358074	1.476555	-0.000174
1210	1.2030e+02	-8.1768	-27.599878	0.000426	4.256723	1.442217	-0.000170
1211	1.2039e+02	-8.2345	-27.737141	0.000345	3.445919	1.167509	-0.000138
1212	1.2049e+02	-8.2586	-27.858255	0.000304	3.040516	1.030155	-0.000122
1213	1.2059e+02	-8.2971	-27.971295	0.000284	2.837815	0.961478	-0.000114
1214	1.2069e+02	-8.3420	-28.092409	0.000304	3.040516	1.030155	-0.000122
1215	1.2079e+02	-8.3853	-28.233709	0.000355	3.547269	1.201847	-0.000142
1216	1.2089e+02	-8.4174	-28.358860	0.000314	3.141867	1.064493	-0.000126
1217	1.2099e+02	-8.4607	-28.528420	0.000426	4.256723	1.442217	-0.000170
1218	1.2109e+02	-8.5024	-28.641459	0.000284	2.837815	0.961478	-0.000114
1219	1.2119e+02	-8.5377	-28.798908	0.000395	3.952671	1.339201	-0.000158
1220	1.2129e+02	-8.5859	-28.920022	0.000304	3.040516	1.030155	-0.000122
1221	1.2139e+02	-8.6195	-29.045173	0.000314	3.141867	1.064493	-0.000126
1222	1.2149e+02	-8.6580	-29.190510	0.000365	3.648620	1.236186	-0.000146
1223	1.2159e+02	-8.6949	-29.279327	0.000223	2.229712	0.755447	-0.000089
1224	1.2169e+02	-8.7447	-29.452924	0.000436	4.358074	1.476555	-0.000174
1225	1.2179e+02	-8.7752	-29.553852	0.000253	2.533764	0.858462	-0.000101
1226	1.2189e+02	-8.8137	-29.759746	0.000517	5.168878	1.751263	-0.000207
1227	1.2199e+02	-8.8618	-29.872786	0.000284	2.837815	0.961478	-0.000114
1228	1.2209e+02	-8.9019	-29.973714	0.000253	2.533764	0.858462	-0.000101
1229	1.2219e+02	-8.9324	-30.115014	0.000355	3.547269	1.201847	-0.000142
1230	1.2229e+02	-8.9789	-30.219980	0.000264	2.635114	0.892801	-0.000105
1231	1.2239e+02	-9.0174	-30.357242	0.000345	3.445919	1.167509	-0.000138
1232	1.2248e+02	-9.0655	-30.522765	0.000416	4.155373	1.407878	-0.000166
1233	1.2258e+02	-9.0960	-30.660027	0.000345	3.445919	1.167509	-0.000138
1234	1.2268e+02	-9.1393	-30.773067	0.000284	2.837815	0.961478	-0.000114
1235	1.2278e+02	-9.1874	-30.882070	0.000274	2.736465	0.927139	-0.000110
1236	1.2288e+02	-9.2115	-31.023370	0.000355	3.547269	1.201847	-0.000142
1237	1.2298e+02	-9.2548	-31.217152	0.000486	4.864826	1.648248	-0.000195
1238	1.2308e+02	-9.2997	-31.314043	0.000243	2.432413	0.824124	-0.000097
1239	1.2318e+02	-9.3447	-31.419009	0.000264	2.635114	0.892801	-0.000105
1240	1.2328e+02	-9.3880	-31.548197	0.000324	3.243218	1.098832	-0.000130
1241	1.2338e+02	-9.4265	-31.697571	0.000375	3.749970	1.270524	-0.000150
1242	1.2348e+02	-9.4553	-31.879242	0.000456	4.560775	1.545232	-0.000183
1243	1.2358e+02	-9.4938	-31.968059	0.000223	2.229712	0.755447	-0.000089
1244	1.2368e+02	-9.5275	-32.137619	0.000426	4.256723	1.442217	-0.000170
1245	1.2378e+02	-9.5773	-32.274882	0.000345	3.445919	1.167509	-0.000138
1246	1.2388e+02	-9.6174	-32.391959	0.000294	2.939166	0.995816	-0.000118
1247	1.2398e+02	-9.6591	-32.537295	0.000365	3.648620	1.236186	-0.000146
1248	1.2408e+02	-9.6912	-32.662447	0.000314	3.141867	1.064493	-0.000126
1249	1.2418e+02	-9.7329	-32.775486	0.000284	2.837815	0.961478	-0.000114
1250	1.2428e+02	-9.7746	-32.924861	0.000375	3.749970	1.270524	-0.000150
1251	1.2438e+02	-9.8131	-33.050012	0.000314	3.141867	1.064493	-0.000126
1252	1.2447e+02	-9.8580	-33.163052	0.000284	2.837815	0.961478	-0.000114
1253	1.2457e+02	-9.8981	-33.292240	0.000324	3.243218	1.098832	-0.000130
1254	1.2467e+02	-9.9382	-33.494097	0.000507	5.067527	1.716925	-0.000203
1255	1.2477e+02	-9.9703	-33.582914	0.000223	2.229712	0.755447	-0.000089
1256	1.2487e+02	-10.0040	-33.724213	0.000355	3.547269	1.201847	-0.000142
1257	1.2497e+02	-10.0489	-33.829179	0.000264	2.635114	0.892801	-0.000105
1258	1.2507e+02	-10.0890	-33.970479	0.000355	3.547269	1.201847	-0.000142
1259	1.2517e+02	-10.1355	-34.087556	0.000294	2.939166	0.995816	-0.000118
1260	1.2527e+02	-10.1805	-34.257115	0.000426	4.256723	1.442217	-0.000170
1261	1.2537e+02	-10.2190	-34.402452	0.000365	3.648620	1.236186	-0.000146
1262	1.2547e+02	-10.2510	-34.511455	0.000274	2.736465	0.927139	-0.000110
1263	1.2557e+02	-10.2928	-34.628532	0.000294	2.939166	0.995816	-0.000118
1264	1.2567e+02	-10.3313	-34.810203	0.000456	4.560775	1.545232	-0.000183
1265	1.2577e+02	-10.3746	-34.890946	0.000203	2.027011	0.686770	-0.000081
1266	1.2587e+02	-10.4115	-35.008023	0.000294	2.939166	0.995816	-0.000118
1267	1.2597e+02	-10.4548	-35.129137	0.000304	3.040516	1.030155	-0.000122
1268	1.2607e+02	-10.4917	-35.302733	0.000436	4.358074	1.476555	-0.000174
1269	1.2617e+02	-10.5414	-35.439996	0.000345	3.445919	1.167509	-0.000138
1270	1.2627e+02	-10.5767	-35.553036	0.000284	2.837815	0.961478	-0.000114
1271	1.2636e+02	-10.6152	-35.662039	0.000274	2.736465	0.927139	-0.000110
1272	1.2646e+02	-10.6521	-35.835635	0.000436	4.358074	1.476555	-0.000174
1273	1.2656e+02	-10.6986	-35.944638	0.000274	2.736465	0.927139	-0.000110
1274	1.2666e+02	-10.7452	-36.073826	0.000324	3.243218	1.098832	-0.000130
1275	1.2676e+02	-10.7788	-36.207052	0.000334	3.344568	1.133170	-0.000134
1276	1.2686e+02	-10.8125	-36.312017	0.000264	2.635114	0.892801	-0.000105
1277	1.2696e+02	-10.8494	-36.481577	0.000426	4.256723	1.442217	-0.000170
1278	1.2706e+02	-10.9008	-36.594617	0.000284	2.837815	0.961478	-0.000114
1279	1.2716e+02	-10.9280	-36.707657	0.000284	2.837815	0.961478	-0.000114
1280	1.2726e+02	-10.9665	-36.812622	0.000264	2.635114	0.892801	-0.000105
1281	1.2736e+02	-11.0131	-36.966033	0.000385	3.851321	1.304863	-0.000154
1282	1.2746e+02	-11.0451	-37.123482	0.000395	3.952671	1.339201	-0.000158
1283	1.2756e+02	-11.0885	-37.240559	0.000294	2.939166	0.995816	-0.000118
1284	1.2766e+02	-11.1350	-37.325338	0.000213	2.128362	0.721108	-0.000085
1285	1.2776e+02	-11.1687	-37.511047	0.000466	4.662125	1.579571	-0.000187
1286	1.2786e+02	-11.2184	-37.628124	0.000294	2.939166	0.995816	-0.000118
1287	1.2796e+02	-11.2601	-37.737126	0.000274	2.736465	0.927139	-0.000110
1288	1.2806e+02	-11.2874	-37.874389	0.000345	3.445919	1.167509	-0.000138
1289	1.2816e+02	-11.3323	-37.979354	0.000264	2.635114	0.892801	-0.000105
1290	1.2826e+02	-11.3644	-38.128728	0.000375	3.749970	1.270524	-0.000150
1291	1.2835e+02	-11.4237	-38.237731	0.000274	2.736465	0.927139	-0.000110
1292	1.2845e+02	-11.4510	-38.387105	0.000375	3.749970	1.270524	-0.000150
1293	1.2855e+02	-11.4975	-38.471885	0.000213	2.128362	0.721108	-0.000085
1294	1.2865e+02	-11.5264	-38.621259	0.000375	3.749970	1.270524	-0.000150
1295	1.2875e+02	-11.5585	-38.782744	0.000405	4.054022	1.373540	-0.000162
1296	1.2885e+02	-11.6098	-38.875599	0.000233	2.331063	0.789785	-0.000093
1297	1.2895e+02	-11.6483	-39.004787	0.000324	3.243218	1.098832	-0.000130
1298	1.2905e+02	-11.6868	-39.109752	0.000264	2.635114	0.892801	-0.000105
1299	1.2915e+02	-11.7318	-39.251052	0.000355	3.547269	1.201847	-0.000142
1300	1.2925e+02	-11.7767	-39.408501	0.000395	3.952671	1.339201	-0.000158
1301	1.2935e+02	-11.8023	-39.525577	0.000294	2.939166	0.995816	-0.000118
1302	1.2945e+02	-11.8505	-39.638617	0.000284	2.837815	0.961478	-0.000114
1303	1.2955e+02	-11.8954	-39.820288	0.000456	4.560775	1.545232	-0.000183
1304	1.2965e+02	-11.9194	-39.856623	0.000091	0.912155	0.309046	-0.000037
1305	1.2975e+02	-11.9628	-40.026182	0.000426	4.256723	1.442217	-0.000170
1306	1.2985e+02	-12.0125	-40.143259	0.000294	2.939166	0.995816	-0.000118
1307	1.2995e+02	-12.0462	-40.292633	0.000375	3.749970	1.270524	-0.000150
1308	1.3005e+02	-12.0927	-40.393562	0.000253	2.533764	0.858462	-0.000101
1309	1.3015e+02	-12.1264	-40.518713	0.000314	3.141867	1.064493	-0.000126
1310	1.3025e+02	-12.1649	-40.615604	0.000243	2.432413	0.824124	-0.000097
1311	1.3034e+02	-12.2066	-40.785164	0.000426	4.256723	1.442217	-0.000170
1312	1.3044e+02	-12.2435	-40.902241	0.000294	2.939166	0.995816	-0.000118
1313	1.3054e+02	-12.2884	-41.051615	0.000375	3.749970	1.270524	-0.000150
1314	1.3064e+02	-12.3269	-41.168692	0.000294	2.939166	0.995816	-0.000118
1315	1.3074e+02	-12.3702	-41.297880	0.000324	3.243218	1.098832	-0.000130
1316	1.3084e+02	-12.4039	-41.414957	0.000294	2.939166	0.995816	-0.000118
1317	1.3094e+02	-12.4521	-41.511848	0.000243	2.432413	0.824124	-0.000097
1318	1.3104e+02	-12.4873	-41.661222	0.000375	3.749970	1.270524	-0.000150
1319	1.3114e+02	-12.5226	-41.758114	0.000243	2.432413	0.824124	-0.000097
1320	1.3124e+02	-12.5644	-41.875190	0.000294	2.939166	0.995816	-0.000118
1321	1.3134e+02	-12.6061	-42.032639	0.000395	3.952671	1.339201	-0.000158
1322	1.3144e+02	-12.6430	-42.145679	0.000284	2.837815	0.961478	-0.000114
1323	1.3154e+02	-12.6815	-42.242570	0.000243	2.432413	0.824124	-0.000097
1324	1.3164e+02	-12.7264	-42.371758	0.000324	3.243218	1.098832	-0.000130
1325	1.3174e+02	-12.7649	-42.509021	0.000345	3.445919	1.167509	-0.000138
1326	1.3184e+02	-12.7922	-42.630135	0.000304	3.040516	1.030155	-0.000122
1327	1.3194e+02	-12.8515	-42.731063	0.000253	2.533764	0.858462	-0.000101
1328	1.3204e+02	-12.8852	-42.904660	0.000436	4.358074	1.476555	-0.000174
1329	1.3214e+02	-12.9157	-42.985403	0.000203	2.027011	0.686770	-0.000081
1330	1.3224e+02	-12.9654	-43.098443	0.000284	2.837815	0.961478	-0.000114
1331	1.3234e+02	-13.0007	-43.239742	0.000355	3.547269	1.201847	-0.000142
1332	1.3243e+02	-13.0360	-43.344708	0.000264	2.635114	0.892801	-0.000105
1333	1.3253e+02	-13.0825	-43.473896	0.000324	3.243218	1.098832	-0.000130
1334	1.3263e+02	-13.1178	-43.595010	0.000304	3.040516	1.030155	-0.000122
1335	1.3273e+02	-13.1595	-43.691902	0.000243	2.432413	0.824124	-0.000097
1336	1.3283e+02	-13.1932	-43.808978	0.000294	2.939166	0.995816	-0.000118
1337	1.3293e+02	-13.2462	-43.934130	0.000314	3.141867	1.064493	-0.000126
1338	1.3303e+02	-13.2847	-44.063318	0.000324	3.243218	1.098832	-0.000130
1339	1.3313e+02	-13.3232	-44.204618	0.000355	3.547269	1.201847	-0.000142
1340	1.3323e+02	-13.3617	-44.293435	0.000223	2.229712	0.755447	-0.000089
1341	1.3333e+02	-13.4050	-44.406475	0.000284	2.837815	0.961478	-0.000114
1342	1.3343e+02	-13.4419	-44.519514	0.000284	2.837815	0.961478	-0.000114
1343	1.3353e+02	-13.4852	-44.648703	0.000324	3.243218	1.098832	-0.000130
1344	1.3363e+02	-13.5173	-44.773854	0.000314	3.141867	1.064493	-0.000126
1345	1.3373e+02	-13.5558	-44.882857	0.000274	2.736465	0.927139	-0.000110
1346	1.3383e+02	-13.6055	-44.999934	0.000294	2.939166	0.995816	-0.000118
1347	1.3393e+02	-13.6408	-45.121048	0.000304	3.040516	1.030155	-0.000122
1348	1.3403e+02	-13.6761	-45.250236	0.000324	3.243218	1.098832	-0.000130
1349	1.3413e+02	-13.7226	-45.347127	0.000243	2.432413	0.824124	-0.000097
1350	1.3423e+02	-13.7611	-45.444018	0.000243	2.432413	0.824124	-0.000097
1351	1.3432e+02	-13.8012	-45.589355	0.000365	3.648620	1.236186	-0.000146
1352	1.3442e+02	-13.8333	-45.722581	0.000334	3.344568	1.133170	-0.000134
1353	1.3452e+02	-13.8814	-45.835621	0.000284	2.837815	0.961478	-0.000114
1354	1.3462e+02	-13.9215	-45.956735	0.000304	3.040516	1.030155	-0.000122
1355	1.3472e+02	-13.9552	-46.085923	0.000324	3.243218	1.098832	-0.000130
1356	1.3482e+02	-14.0033	-46.219148	0.000334	3.344568	1.133170	-0.000134
1357	1.3492e+02	-14.0402	-46.299891	0.000203	2.027011	0.686770	-0.000081
1358	1.3502e+02	-14.0836	-46.412931	0.000284	2.837815	0.961478	-0.000114
1359	1.3512e+02	-14.1237	-46.517897	0.000264	2.635114	0.892801	-0.000105
1360	1.3522e+02	-14.1638	-46.634973	0.000294	2.939166	0.995816	-0.000118
1361	1.3532e+02	-14.2087	-46.784348	0.000375	3.749970	1.270524	-0.000150
1362	1.3542e+02	-14.2392	-46.897387	0.000284	2.837815	0.961478	-0.000114
1363	1.3552e+02	-14.2809	-47.034650	0.000345	3.445919	1.167509	-0.000138
1364	1.3562e+02	-14.3162	-47.135578	0.000253	2.533764	0.858462	-0.000101
1365	1.3572e+02	-14.3611	-47.256692	0.000304	3.040516	1.030155	-0.000122
1366	1.3582e+02	-14.3932	-47.361658	0.000264	2.635114	0.892801	-0.000105
1367	1.3592e+02	-14.4461	-47.478735	0.000294	2.939166	0.995816	-0.000118
1368	1.3602e+02	-14.4702	-47.620035	0.000355	3.547269	1.201847	-0.000142
1369	1.3612e+02	-14.5103	-47.733074	0.000284	2.837815	0.961478	-0.000114
1370	1.3622e+02	-14.5616	-47.838040	0.000264	2.635114	0.892801	-0.000105
1371	1.3631e+02	-14.5905	-47.963191	0.000314	3.141867	1.064493	-0.000126
1372	1.3641e+02	-14.6338	-48.056045	0.000233	2.331063	0.789785	-0.000093
1373	1.3651e+02	-14.6787	-48.205419	0.000375	3.749970	1.270524	-0.000150
1374	1.3661e+02	-14.7204	-48.322496	0.000294	2.939166	0.995816	-0.000118
1375	1.3671e+02	-14.7589	-48.459759	0.000345	3.445919	1.167509	-0.000138
1376	1.3681e+02	-14.7990	-48.548576	0.000223	2.229712	0.755447	-0.000089
1377	1.3691e+02	-14.8375	-48.657578	0.000274	2.736465	0.927139	-0.000110
1378	1.3701e+02	-14.8744	-48.762544	0.000264	2.635114	0.892801	-0.000105
1379	1.3711e+02	-14.9146	-48.907881	0.000365	3.648620	1.236186	-0.000146
1380	1.3721e+02	-14.9563	-49.020921	0.000284	2.837815	0.961478	-0.000114
1381	1.3731e+02	-15.0012	-49.150109	0.000324	3.243218	1.098832	-0.000130
1382	1.3741e+02	-15.0349	-49.279297	0.000324	3.243218	1.098832	-0.000130
1383	1.3751e+02	-15.0734	-49.388300	0.000274	2.736465	0.927139	-0.000110
1384	1.3761e+02	-15.1103	-49.497303	0.000274	2.736465	0.927139	-0.000110
1385	1.3771e+02	-15.1632	-49.606305	0.000274	2.736465	0.927139	-0.000110
1386	1.3781e+02	-15.1969	-49.711271	0.000264	2.635114	0.892801	-0.000105
1387	1.3791e+02	-15.2338	-49.868719	0.000395	3.952671	1.339201	-0.000158
1388	1.3801e+02	-15.2723	-49.945425	0.000193	1.925660	0.652431	-0.000077
1389	1.3811e+02	-15.3108	-50.123059	0.000446	4.459424	1.510894	-0.000179
1390	1.3821e+02	-15.3589	-50.211876	0.000223	2.229712	0.755447	-0.000089
1391	1.3831e+02	-15.3958	-50.332990	0.000304	3.040516	1.030155	-0.000122
1392	1.3840e+02	-15.4375	-50.450067	0.000294	2.939166	0.995816	-0.000118
1393	1.3850e+02	-15.4712	-50.611552	0.000405	4.054022	1.373540	-0.000162
1394	1.3860e+02	-15.5145	-50.643849	0.000081	0.810804	0.274708	-0.000032
1395	1.3870e+02	-15.5482	-50.809372	0.000416	4.155373	1.407878	-0.000166
1396	1.3880e+02	-15.5964	-50.930486	0.000304	3.040516	1.030155	-0.000122
1397	1.3890e+02	-15.6332	-51.096008	0.000416	4.155373	1.407878	-0.000166
1398	1.3900e+02	-15.6701	-51.233271	0.000345	3.445919	1.167509	-0.000138
1399	1.3910e+02	-15.7167	-51.354385	0.000304	3.040516	1.030155	-0.000122
1400	1.3920e+02	-15.7504	-51.463388	0.000274	2.736465	0.927139	-0.000110
1401	1.3930e+02	-15.7969	-51.560279	0.000243	2.432413	0.824124	-0.000097
1402	1.3940e+02	-15.8209	-51.697542	0.000345	3.445919	1.167509	-0.000138
1403	1.3950e+02	-15.8723	-51.810581	0.000284	2.837815	0.961478	-0.000114
1404	1.3960e+02	-15.9156	-51.919584	0.000274	2.736465	0.927139	-0.000110
1405	1.3970e+02	-15.9573	-52.121441	0.000507	5.067527	1.716925	-0.000203
1406	1.3980e+02	-15.9878	-52.210258	0.000223	2.229712	0.755447	-0.000089
1407	1.3990e+02	-16.0311	-52.347521	0.000345	3.445919	1.167509	-0.000138
1408	1.4000e+02	-16.0760	-52.492857	0.000365	3.648620	1.236186	-0.000146
1409	1.4010e+02	-16.1145	-52.601860	0.000274	2.736465	0.927139	-0.000110
1410	1.4020e+02	-16.1578	-52.694714	0.000233	2.331063	0.789785	-0.000093
1411	1.4029e+02	-16.1883	-52.868311	0.000436	4.358074	1.476555	-0.000174
1412	1.4039e+02	-16.2364	-52.989425	0.000304	3.040516	1.030155	-0.000122
1413	1.4049e+02	-16.2717	-53.142836	0.000385	3.851321	1.304863	-0.000154
1414	1.4059e+02	-16.3167	-53.276062	0.000334	3.344568	1.133170	-0.000134
1415	1.4069e+02	-16.3503	-53.409287	0.000334	3.344568	1.133170	-0.000134
1416	1.4079e+02	-16.3904	-53.538476	0.000324	3.243218	1.098832	-0.000130
1417	1.4089e+02	-16.4402	-53.683812	0.000365	3.648620	1.236186	-0.000146
1418	1.4099e+02	-16.4723	-53.821075	0.000345	3.445919	1.167509	-0.000138
1419	1.4109e+02	-16.5043	-53.942189	0.000304	3.040516	1.030155	-0.000122
1420	1.4119e+02	-16.5525	-54.083489	0.000355	3.547269	1.201847	-0.000142
1421	1.4129e+02	-16.5846	-54.208640	0.000314	3.141867	1.064493	-0.000126
1422	1.4139e+02	-16.6215	-54.349940	0.000355	3.547269	1.201847	-0.000142
1423	1.4149e+02	-16.6696	-54.475091	0.000314	3.141867	1.064493	-0.000126
1424	1.4159e+02	-16.7129	-54.604279	0.000324	3.243218	1.098832	-0.000130
1425	1.4169e+02	-16.7562	-54.761728	0.000395	3.952671	1.339201	-0.000158
1426	1.4179e+02	-16.7963	-54.907065	0.000365	3.648620	1.236186	-0.000146
1427	1.4189e+02	-16.8364	-55.060476	0.000385	3.851321	1.304863	-0.000154
1428	1.4199e+02	-16.8701	-55.181590	0.000304	3.040516	1.030155	-0.000122
1429	1.4209e+02	-16.9086	-55.290593	0.000274	2.736465	0.927139	-0.000110
1430	1.4219e+02	-16.9407	-55.460152	0.000426	4.256723	1.442217	-0.000170
1431	1.4228e+02	-16.9888	-55.581266	0.000304	3.040516	1.030155	-0.000122
1432	1.4238e+02	-17.0257	-55.758900	0.000446	4.459424	1.510894	-0.000179
1433	1.4248e+02	-17.0626	-55.920386	0.000405	4.054022	1.373540	-0.000162
1434	1.4258e+02	-17.1124	-56.053611	0.000334	3.344568	1.133170	-0.000134
1435	1.4268e+02	-17.1509	-56.178762	0.000314	3.141867	1.064493	-0.000126
1436	1.4278e+02	-17.1861	-56.336211	0.000395	3.952671	1.339201	-0.000158
1437	1.4288e+02	-17.2279	-56.449250	0.000284	2.837815	0.961478	-0.000114
1438	1.4298e+02	-17.2664	-56.630922	0.000456	4.560775	1.545232	-0.000183
1439	1.4308e+02	-17.3081	-56.739924	0.000274	2.736465	0.927139	-0.000110
1440	1.4318e+02	-17.3385	-56.921595	0.000456	4.560775	1.545232	-0.000183
1441	1.4328e+02	-17.3754	-57.050784	0.000324	3.243218	1.098832	-0.000130
1442	1.4338e+02	-17.4236	-57.220343	0.000426	4.256723	1.442217	-0.000170
1443	1.4348e+02	-17.4669	-57.353569	0.000334	3.344568	1.133170	-0.000134
1444	1.4358e+02	-17.4942	-57.466609	0.000284	2.837815	0.961478	-0.000114
1445	1.4368e+02	-17.5455	-57.632131	0.000416	4.155373	1.407878	-0.000166
1446	1.4378e+02	-17.5904	-57.757282	0.000314	3.141867	1.064493	-0.000126
1447	1.4388e+02	-17.6241	-57.914731	0.000395	3.952671	1.339201	-0.000158
1448	1.4398e+02	-17.6658	-58.076216	0.000405	4.054022	1.373540	-0.000162
1449	1.4408e+02	-17.7011	-58.209442	0.000334	3.344568	1.133170	-0.000134
1450	1.4418e+02	-17.7348	-58.399187	0.000476	4.763476	1.613909	-0.000191
1451	1.4428e+02	-17.7861	-58.508190	0.000274	2.736465	0.927139	-0.000110
1452	1.4437e+02	-17.8262	-58.621229	0.000284	2.837815	0.961478	-0.000114
1453	1.4447e+02	-17.8679	-58.827123	0.000517	5.168878	1.751263	-0.000207
1454	1.4457e+02	-17.8952	-58.964386	0.000345	3.445919	1.167509	-0.000138
1455	1.4467e+02	-17.9369	-59.121834	0.000395	3.952671	1.339201	-0.000158
1456	1.4477e+02	-17.9899	-59.251023	0.000324	3.243218	1.098832	-0.000130
1457	1.4487e+02	-18.0203	-59.408471	0.000395	3.952671	1.339201	-0.000158
1458	1.4497e+02	-18.0621	-59.549771	0.000355	3.547269	1.201847	-0.000142
1459	1.4507e+02	-18.1038	-59.711256	0.000405	4.054022	1.373540	-0.000162
1460	1.4517e+02	-18.1487	-59.868704	0.000395	3.952671	1.339201	-0.000158
1461	1.4527e+02	-18.1760	-60.042301	0.000436	4.358074	1.476555	-0.000174
1462	1.4537e+02	-18.2193	-60.159378	0.000294	2.939166	0.995816	-0.000118
1463	1.4547e+02	-18.2706	-60.328938	0.000426	4.256723	1.442217	-0.000170
1464	1.4557e+02	-18.3027	-60.462163	0.000334	3.344568	1.133170	-0.000134
1465	1.4567e+02	-18.3364	-60.611537	0.000375	3.749970	1.270524	-0.000150
1466	1.4577e+02	-18.3925	-60.805320	0.000486	4.864826	1.648248	-0.000195
1467	1.4587e+02	-18.4278	-60.946620	0.000355	3.547269	1.201847	-0.000142
1468	1.4597e+02	-18.4663	-61.083882	0.000345	3.445919	1.167509	-0.000138
1469	1.4607e+02	-18.5000	-61.249405	0.000416	4.155373	1.407878	-0.000166
1470	1.4617e+02	-18.5465	-61.423002	0.000436	4.358074	1.476555	-0.000174
1471	1.4626e+02	-18.5850	-61.556227	0.000334	3.344568	1.133170	-0.000134
1472	1.4636e+02	-18.6251	-61.709638	0.000385	3.851321	1.304863	-0.000154
1473	1.4646e+02	-18.6540	-61.903421	0.000486	4.864826	1.648248	-0.000195
1474	1.4656e+02	-18.6989	-62.040683	0.000345	3.445919	1.167509	-0.000138
1475	1.4666e+02	-18.7455	-62.190057	0.000375	3.749970	1.270524	-0.000150
1476	1.4676e+02	-18.7856	-62.367691	0.000446	4.459424	1.510894	-0.000179
1477	1.4686e+02	-18.8209	-62.533214	0.000416	4.155373	1.407878	-0.000166
1478	1.4696e+02	-18.8562	-62.731034	0.000497	4.966177	1.682586	-0.000199
1479	1.4706e+02	-18.8947	-62.831962	0.000253	2.533764	0.858462	-0.000101
1480	1.4716e+02	-18.9396	-63.037856	0.000517	5.168878	1.751263	-0.000207
1481	1.4726e+02	-18.9861	-63.195304	0.000395	3.952671	1.339201	-0.000158
1482	1.4736e+02	-19.0182	-63.284121	0.000223	2.229712	0.755447	-0.000089
1483	1.4746e+02	-19.0583	-63.481941	0.000497	4.966177	1.682586	-0.000199
1484	1.4756e+02	-19.1048	-63.655538	0.000436	4.358074	1.476555	-0.000174
1485	1.4766e+02	-19.1449	-63.812986	0.000395	3.952671	1.339201	-0.000158
1486	1.4776e+02	-19.1786	-63.958323	0.000365	3.648620	1.236186	-0.000146
1487	1.4786e+02	-19.2235	-64.180365	0.000557	5.574280	1.888617	-0.000223
1488	1.4796e+02	-19.2716	-64.337814	0.000395	3.952671	1.339201	-0.000158
1489	1.4806e+02	-19.3037	-64.491225	0.000385	3.851321	1.304863	-0.000154
1490	1.4816e+02	-19.3326	-64.664822	0.000436	4.358074	1.476555	-0.000174
1491	1.4825e+02	-19.3791	-64.826307	0.000405	4.054022	1.373540	-0.000162
1492	1.4835e+02	-19.4160	-65.024127	0.000497	4.966177	1.682586	-0.000199
1493	1.4845e+02	-19.4642	-65.149278	0.000314	3.141867	1.064493	-0.000126
1494	1.4855e+02	-19.5011	-65.310763	0.000405	4.054022	1.373540	-0.000162
1495	1.4865e+02	-19.5380	-65.472249	0.000405	4.054022	1.373540	-0.000162
1496	1.4875e+02	-19.5781	-65.670068	0.000497	4.966177	1.682586	-0.000199
1497	1.4885e+02	-19.6198	-65.807331	0.000345	3.445919	1.167509	-0.000138
1498	1.4895e+02	-19.6486	-65.972854	0.000416	4.155373	1.407878	-0.000166
1499	1.4905e+02	-19.6920	-66.170673	0.000497	4.966177	1.682586	-0.000199
1500	1.4915e+02	-19.7321	-66.336196	0.000416	4.155373	1.407878	-0.000166
1501	1.4925e+02	-19.7802	-66.493644	0.000395	3.952671	1.339201	-0.000158
1502	1.4935e+02	-19.8219	-66.659167	0.000416	4.155373	1.407878	-0.000166
1503	1.4945e+02	-19.8556	-66.869098	0.000527	5.270229	1.785602	-0.000211
1504	1.4955e+02	-19.8957	-67.010398	0.000355	3.547269	1.201847	-0.000142
1505	1.4965e+02	-19.9358	-67.188032	0.000446	4.459424	1.510894	-0.000179
1506	1.4975e+02	-19.9775	-67.337406	0.000375	3.749970	1.270524	-0.000150
1507	1.4985e+02	-20.0176	-67.527151	0.000476	4.763476	1.613909	-0.000191
1508	1.4995e+02	-19.9695	-67.535225	-0.000020	-0.202701	-0.068677	-0.000008
1509	1.5005e+02	-19.9374	-67.519077	0.000041	0.405402	0.137354	0.000016
1510	1.5015e+02	-19.8957	-67.490817	0.000071	0.709454	0.240369	0.000028
1511	1.5025e+02	-19.8540	-67.506965	-0.000041	-0.405402	-0.137354	-0.000016
1512	1.5034e+02	-19.8139	-67.422185	0.000213	2.128362	0.721108	0.000085
1513	1.5044e+02	-19.7754	-67.422185	0.000000	0.000000	0.000000	0.000000
1514	1.5054e+02	-19.7337	-67.361628	0.000152	1.520258	0.515077	0.000061
1515	1.5064e+02	-19.6968	-67.288960	0.000182	1.824310	0.618093	0.000073
1516	1.5074e+02	-19.6551	-67.276849	0.000030	0.304052	0.103015	0.000012
1517	1.5084e+02	-19.6246	-67.248589	0.000071	0.709454	0.240369	0.000028
1518	1.5094e+02	-19.5748	-67.163809	0.000213	2.128362	0.721108	0.000085
1519	1.5104e+02	-19.5315	-67.111326	0.000132	1.317557	0.446400	0.000053
1520	1.5114e+02	-19.5027	-67.026546	0.000213	2.128362	0.721108	0.000085
1521	1.5124e+02	-19.4593	-67.010398	0.000041	0.405402	0.137354	0.000016
1522	1.5134e+02	-19.4144	-66.982138	0.000071	0.709454	0.240369	0.000028
1523	1.5144e+02	-19.3823	-66.901395	0.000203	2.027011	0.686770	0.000081
1524	1.5154e+02	-19.3390	-66.865061	0.000091	0.912155	0.309046	0.000037
1525	1.5164e+02	-19.3021	-66.764132	0.000253	2.533764	0.858462	0.000101
1526	1.5174e+02	-19.2620	-66.671278	0.000233	2.331063	0.789785	0.000093
1527	1.5184e+02	-19.2251	-66.582461	0.000223	2.229712	0.755447	0.000089
1528	1.5194e+02	-19.1802	-66.550164	0.000081	0.810804	0.274708	0.000032
1529	1.5204e+02	-19.1353	-66.534016	0.000041	0.405402	0.137354	0.000016
1530	1.5214e+02	-19.0952	-66.412901	0.000304	3.040516	1.030155	0.000122
1531	1.5224e+02	-19.0615	-66.380604	0.000081	0.810804	0.274708	0.000032
1532	1.5233e+02	-19.0262	-66.271602	0.000274	2.736465	0.927139	0.000110
1533	1.5243e+02	-18.9861	-66.198933	0.000182	1.824310	0.618093	0.000073
1534	1.5253e+02	-18.9444	-66.126265	0.000182	1.824310	0.618093	0.000073
1535	1.5263e+02	-18.8995	-66.081856	0.000111	1.114856	0.377723	0.000045
1536	1.5273e+02	-18.8562	-66.005151	0.000193	1.925660	0.652431	0.000077
1537	1.5283e+02	-18.8209	-65.928445	0.000193	1.925660	0.652431	0.000077
1538	1.5293e+02	-18.7840	-65.847702	0.000203	2.027011	0.686770	0.000081
1539	1.5303e+02	-18.7439	-65.762923	0.000213	2.128362	0.721108	0.000085
1540	1.5313e+02	-18.7054	-65.706403	0.000142	1.418908	0.480739	0.000057
1541	1.5323e+02	-18.6604	-65.617586	0.000223	2.229712	0.755447	0.000089
1542	1.5333e+02	-18.6155	-65.508583	0.000274	2.736465	0.927139	0.000110
1543	1.5343e+02	-18.5834	-65.452063	0.000142	1.418908	0.480739	0.000057
1544	1.5353e+02	-18.5465	-65.383432	0.000172	1.722959	0.583754	0.000069
1545	1.5363e+02	-18.4984	-65.310763	0.000182	1.824310	0.618093	0.000073
1546	1.5373e+02	-18.4679	-65.221946	0.000223	2.229712	0.755447	0.000089
1547	1.5383e+02	-18.4310	-65.129092	0.000233	2.331063	0.789785	0.000093
1548	1.5393e+02	-18.3797	-65.060461	0.000172	1.722959	0.583754	0.000069
1549	1.5403e+02	-18.3476	-64.959533	0.000253	2.533764	0.858462	0.000101
1550	1.5413e+02	-18.2963	-64.907050	0.000132	1.317557	0.446400	0.000053
1551	1.5422e+02	-18.2642	-64.810159	0.000243	2.432413	0.824124	0.000097
1552	1.5432e+02	-18.2241	-64.729416	0.000203	2.027011	0.686770	0.000081
1553	1.5442e+02	-18.1888	-64.628487	0.000253	2.533764	0.858462	0.000101
1554	1.5452e+02	-18.1535	-64.563893	0.000162	1.621609	0.549416	0.000065
1555	1.5462e+02	-18.1022	-64.499299	0.000162	1.621609	0.549416	0.000065
1556	1.5472e+02	-18.0653	-64.426631	0.000182	1.824310	0.618093	0.000073
1557	1.5482e+02	-18.0268	-64.269182	0.000395	3.952671	1.339201	0.000158
1558	1.5492e+02	-17.9915	-64.236885	0.000081	0.810804	0.274708	0.000032
1559	1.5502e+02	-17.9369	-64.152105	0.000213	2.128362	0.721108	0.000085
1560	1.5512e+02	-17.8968	-64.035029	0.000294	2.939166	0.995816	0.000118
1561	1.5522e+02	-17.8647	-63.986583	0.000122	1.216207	0.412062	0.000049
1562	1.5532e+02	-17.8278	-63.905840	0.000203	2.027011	0.686770	0.000081
1563	1.5542e+02	-17.7829	-63.825097	0.000203	2.027011	0.686770	0.000081
1564	1.5552e+02	-17.7444	-63.748392	0.000193	1.925660	0.652431	0.000077
1565	1.5562e+02	-17.7107	-63.611129	0.000345	3.445919	1.167509	0.000138
1566	1.5572e+02	-17.6738	-63.530387	0.000203	2.027011	0.686770	0.000081
1567	1.5582e+02	-17.6209	-63.449644	0.000203	2.027011	0.686770	0.000081
1568	1.5592e+02	-17.5808	-63.336604	0.000284	2.837815	0.961478	0.000114
1569	1.5602e+02	-17.5423	-63.288158	0.000122	1.216207	0.412062	0.000049
1570	1.5612e+02	-17.5022	-63.163007	0.000314	3.141867	1.064493	0.000126
1571	1.5622e+02	-17.4669	-63.130710	0.000081	0.810804	0.274708	0.000032
1572	1.5631e+02	-17.4300	-63.021707	0.000274	2.736465	0.927139	0.000110
1573	1.5641e+02	-17.3947	-62.953076	0.000172	1.722959	0.583754	0.000069
1574	1.5651e+02	-17.3466	-62.860222	0.000233	2.331063	0.789785	0.000093
1575	1.5661e+02	-17.3177	-62.791591	0.000172	1.722959	0.583754	0.000069
1576	1.5671e+02	-17.2776	-62.674514	0.000294	2.939166	0.995816	0.000118
1577	1.5681e+02	-17.2343	-62.617994	0.000142	1.418908	0.480739	0.000057
1578	1.5691e+02	-17.1845	-62.472657	0.000365	3.648620	1.236186	0.000146
1579	1.5701e+02	-17.1428	-62.399989	0.000182	1.824310	0.618093	0.000073
1580	1.5711e+02	-17.1027	-62.327320	0.000182	1.824310	0.618093	0.000073
1581	1.5721e+02	-17.0626	-62.222355	0.000264	2.635114	0.892801	0.000105
1582	1.5731e+02	-17.0209	-62.157760	0.000162	1.621609	0.549416	0.000065
1583	1.5741e+02	-16.9888	-62.036646	0.000304	3.040516	1.030155	0.000122
1584	1.5751e+02	-16.9471	-61.976089	0.000152	1.520258	0.515077	0.000061
1585	1.5761e+02	-16.9102	-61.867087	0.000274	2.736465	0.927139	0.000110
1586	1.5771e+02	-16.8701	-61.786344	0.000203	2.027011	0.686770	0.000081
1587	1.5781e+02	-16.8332	-61.689453	0.000243	2.432413	0.824124	0.000097
1588	1.5791e+02	-16.7947	-61.616784	0.000182	1.824310	0.618093	0.000073
1589	1.5801e+02	-16.7466	-61.532004	0.000213	2.128362	0.721108	0.000085
1590	1.5811e+02	-16.7049	-61.463373	0.000172	1.722959	0.583754	0.000069
1591	1.5821e+02	-16.6712	-61.330148	0.000334	3.344568	1.133170	0.000134
1592	1.5830e+02	-16.6327	-61.253442	0.000193	1.925660	0.652431	0.000077
1593	1.5840e+02	-16.5910	-61.144439	0.000274	2.736465	0.927139	0.000110
1594	1.5850e+02	-16.5445	-61.079845	0.000162	1.621609	0.549416	0.000065
1595	1.5860e+02	-16.5027	-60.978917	0.000253	2.533764	0.858462	0.000101
1596	1.5870e+02	-16.4707	-60.950657	0.000071	0.709454	0.240369	0.000028
1597	1.5880e+02	-16.4338	-60.809357	0.000355	3.547269	1.201847	0.000142
1598	1.5890e+02	-16.3824	-60.716503	0.000233	2.331063	0.789785	0.000093
1599	1.5900e+02	-16.3519	-60.619612	0.000243	2.432413	0.824124	0.000097
1600	1.5910e+02	-16.3150	-60.514646	0.000264	2.635114	0.892801	0.000105
1601	1.5920e+02	-16.2653	-60.458126	0.000142	1.418908	0.480739	0.000057
1602	1.5930e+02	-16.2300	-60.353161	0.000264	2.635114	0.892801	0.000105
1603	1.5940e+02	-16.1915	-60.268381	0.000213	2.128362	0.721108	0.000085
1604	1.5950e+02	-16.1498	-60.240121	0.000071	0.709454	0.240369	0.000028
1605	1.5960e+02	-16.1113	-60.026153	0.000537	5.371579	1.819940	0.000215
1606	1.5970e+02	-16.0760	-60.010004	0.000041	0.405402	0.137354	0.000016
1607	1.5980e+02	-16.0327	-59.905039	0.000264	2.635114	0.892801	0.000105
1608	1.5990e+02	-15.9958	-59.808147	0.000243	2.432413	0.824124	0.000097
1609	1.6000e+02	-15.9493	-59.723368	0.000213	2.128362	0.721108	0.000085
1610	1.6010e+02	-15.9172	-59.630513	0.000233	2.331063	0.789785	0.000093
1611	1.6019e+02	-15.8755	-59.557845	0.000182	1.824310	0.618093	0.000073
1612	1.6029e+02	-15.8290	-59.420582	0.000345	3.445919	1.167509	0.000138
1613	1.6039e+02	-15.7889	-59.339840	0.000203	2.027011	0.686770	0.000081
1614	1.6049e+02	-15.7536	-59.234874	0.000264	2.635114	0.892801	0.000105
1615	1.6059e+02	-15.7167	-59.133946	0.000253	2.533764	0.858462	0.000101
1616	1.6069e+02	-15.6637	-59.049166	0.000213	2.128362	0.721108	0.000085
1617	1.6079e+02	-15.6300	-58.964386	0.000213	2.128362	0.721108	0.000085
1618	1.6089e+02	-15.5964	-58.879606	0.000213	2.128362	0.721108	0.000085
1619	1.6099e+02	-15.5611	-58.750418	0.000324	3.243218	1.098832	0.000130
1620	1.6109e+02	-15.5113	-58.645452	0.000264	2.635114	0.892801	0.000105
1621	1.6119e+02	-15.4680	-58.580858	0.000162	1.621609	0.549416	0.000065
1622	1.6129e+02	-15.4327	-58.471855	0.000274	2.736465	0.927139	0.000110
1623	1.6139e+02	-15.4038	-58.387076	0.000213	2.128362	0.721108	0.000085
1624	1.6149e+02	-15.3461	-58.245776	0.000355	3.547269	1.201847	0.000142
1625	1.6159e+02	-15.3204	-58.197330	0.000122	1.216207	0.412062	0.000049
1626	1.6169e+02	-15.2739	-58.068142	0.000324	3.243218	1.098832	0.000130
1627	1.6179e+02	-15.2306	-57.975288	0.000233	2.331063	0.789785	0.000093
1628	1.6189e+02	-15.1905	-57.918768	0.000142	1.418908	0.480739	0.000057
1629	1.6199e+02	-15.1600	-57.817839	0.000253	2.533764	0.858462	0.000101
1630	1.6209e+02	-15.1151	-57.700763	0.000294	2.939166	0.995816	0.000118
1631	1.6219e+02	-15.0686	-57.599834	0.000253	2.533764	0.858462	0.000101
1632	1.6228e+02	-15.0381	-57.527166	0.000182	1.824310	0.618093	0.000073
1633	1.6238e+02	-14.9948	-57.406052	0.000304	3.040516	1.030155	0.000122
1634	1.6248e+02	-14.9498	-57.313198	0.000233	2.331063	0.789785	0.000093
1635	1.6258e+02	-14.9210	-57.224381	0.000223	2.229712	0.755447	0.000089
1636	1.6268e+02	-14.8793	-57.123452	0.000253	2.533764	0.858462	0.000101
1637	1.6278e+02	-14.8343	-57.042709	0.000203	2.027011	0.686770	0.000081
1638	1.6288e+02	-14.7862	-56.929670	0.000284	2.837815	0.961478	0.000114
1639	1.6298e+02	-14.7509	-56.852964	0.000193	1.925660	0.652431	0.000077
1640	1.6308e+02	-14.7204	-56.756073	0.000243	2.432413	0.824124	0.000097
1641	1.6318e+02	-14.6803	-56.643033	0.000284	2.837815	0.961478	0.000114
1642	1.6328e+02	-14.6290	-56.529993	0.000284	2.837815	0.961478	0.000114
1643	1.6338e+02	-14.5953	-56.416953	0.000284	2.837815	0.961478	0.000114
1644	1.6348e+02	-14.5520	-56.328136	0.000223	2.229712	0.755447	0.000089
1645	1.6358e+02	-14.5263	-56.202985	0.000314	3.141867	1.064493	0.000126
1646	1.6368e+02	-14.4782	-56.154540	0.000122	1.216207	0.412062	0.000049
1647	1.6378e+02	-14.4413	-56.029388	0.000314	3.141867	1.064493	0.000126
1648	1.6388e+02	-14.3964	-55.984980	0.000111	1.114856	0.377723	0.000045
1649	1.6398e+02	-14.3627	-55.823494	0.000405	4.054022	1.373540	0.000162
1650	1.6408e+02	-14.3194	-55.766975	0.000142	1.418908	0.480739	0.000057
1651	1.6418e+02	-14.2793	-55.653935	0.000284	2.837815	0.961478	0.000114
1652	1.6427e+02	-14.2376	-55.565118	0.000223	2.229712	0.755447	0.000089
1653	1.6437e+02	-14.2055	-55.444004	0.000304	3.040516	1.030155	0.000122
1654	1.6447e+02	-14.1606	-55.339038	0.000264	2.635114	0.892801	0.000105
1655	1.6457e+02	-14.1156	-55.266370	0.000182	1.824310	0.618093	0.000073
1656	1.6467e+02	-14.0755	-55.141218	0.000314	3.141867	1.064493	0.000126
1657	1.6477e+02	-14.0386	-55.040290	0.000253	2.533764	0.858462	0.000101
1658	1.6487e+02	-14.0033	-54.947436	0.000233	2.331063	0.789785	0.000093
1659	1.6497e+02	-13.9552	-54.830359	0.000294	2.939166	0.995816	0.000118
1660	1.6507e+02	-13.9167	-54.733468	0.000243	2.432413	0.824124	0.000097
1661	1.6517e+02	-13.8782	-54.620428	0.000284	2.837815	0.961478	0.000114
1662	1.6527e+02	-13.8397	-54.539685	0.000203	2.027011	0.686770	0.000081
1663	1.6537e+02	-13.8044	-54.422608	0.000294	2.939166	0.995816	0.000118
1664	1.6547e+02	-13.7499	-54.293420	0.000324	3.243218	1.098832	0.000130
1665	1.6557e+02	-13.7178	-54.204603	0.000223	2.229712	0.755447	0.000089
1666	1.6567e+02	-13.6841	-54.051192	0.000385	3.851321	1.304863	0.000154
1667	1.6577e+02	-13.6392	-54.014858	0.000091	0.912155	0.309046	0.000037
1668	1.6587e+02	-13.5927	-53.853372	0.000405	4.054022	1.373540	0.000162
1669	1.6597e+02	-13.5558	-53.776667	0.000193	1.925660	0.652431	0.000077
1670	1.6607e+02	-13.5173	-53.687850	0.000223	2.229712	0.755447	0.000089
1671	1.6616e+02	-13.4836	-53.554624	0.000334	3.344568	1.133170	0.000134
1672	1.6626e+02	-13.4403	-53.461770	0.000233	2.331063	0.789785	0.000093
1673	1.6636e+02	-13.4002	-53.372953	0.000223	2.229712	0.755447	0.000089
1674	1.6646e+02	-13.3568	-53.267987	0.000264	2.635114	0.892801	0.000105
1675	1.6656e+02	-13.3151	-53.158985	0.000274	2.736465	0.927139	0.000110
1676	1.6666e+02	-13.2782	-53.049982	0.000274	2.736465	0.927139	0.000110
1677	1.6676e+02	-13.2462	-52.940980	0.000274	2.736465	0.927139	0.000110
1678	1.6686e+02	-13.2012	-52.815828	0.000314	3.141867	1.064493	0.000126
1679	1.6696e+02	-13.1579	-52.678566	0.000345	3.445919	1.167509	0.000138
1680	1.6706e+02	-13.1210	-52.626083	0.000132	1.317557	0.446400	0.000053
1681	1.6716e+02	-13.0793	-52.541303	0.000213	2.128362	0.721108	0.000085
1682	1.6726e+02	-13.0408	-52.367706	0.000436	4.358074	1.476555	0.000174
1683	1.6736e+02	-12.9943	-52.254666	0.000284	2.837815	0.961478	0.000114
1684	1.6746e+02	-12.9558	-52.161812	0.000233	2.331063	0.789785	0.000093
1685	1.6756e+02	-12.9237	-52.077032	0.000213	2.128362	0.721108	0.000085
1686	1.6766e+02	-12.8820	-51.984178	0.000233	2.331063	0.789785	0.000093
1687	1.6776e+02	-12.8435	-51.850953	0.000334	3.344568	1.133170	0.000134
1688	1.6786e+02	-12.8050	-51.717727	0.000334	3.344568	1.133170	0.000134
1689	1.6796e+02	-12.7697	-51.616799	0.000253	2.533764	0.858462	0.000101
1690	1.6806e+02	-12.7264	-51.523945	0.000233	2.331063	0.789785	0.000093
1691	1.6816e+02	-12.6911	-51.378608	0.000365	3.648620	1.236186	0.000146
1692	1.6825e+02	-12.6462	-51.309977	0.000172	1.722959	0.583754	0.000069
1693	1.6835e+02	-12.6189	-51.209048	0.000253	2.533764	0.858462	0.000101
1694	1.6845e+02	-12.5644	-51.071786	0.000345	3.445919	1.167509	0.000138
1695	1.6855e+02	-12.5162	-50.999117	0.000182	1.824310	0.618093	0.000073
1696	1.6865e+02	-12.4890	-50.857817	0.000355	3.547269	1.201847	0.000142
1697	1.6875e+02	-12.4424	-50.769000	0.000223	2.229712	0.755447	0.000089
1698	1.6885e+02	-12.4039	-50.647886	0.000304	3.040516	1.030155	0.000122
1699	1.6895e+02	-12.3638	-50.550995	0.000243	2.432413	0.824124	0.000097
1700	1.6905e+02	-12.3253	-50.450067	0.000253	2.533764	0.858462	0.000101
1701	1.6915e+02	-12.2836	-50.328953	0.000304	3.040516	1.030155	0.000122
1702	1.6925e+02	-12.2419	-50.236099	0.000233	2.331063	0.789785	0.000093
1703	1.6935e+02	-12.2146	-50.098836	0.000345	3.445919	1.167509	0.000138
1704	1.6945e+02	-12.1665	-49.981759	0.000294	2.939166	0.995816	0.000118
1705	1.6955e+02	-12.1312	-49.896979	0.000213	2.128362	0.721108	0.000085
1706	1.6965e+02	-12.0831	-49.763754	0.000334	3.344568	1.133170	0.000134
1707	1.6975e+02	-12.0542	-49.691085	0.000182	1.824310	0.618093	0.000073
1708	1.6985e+02	-12.0109	-49.565934	0.000314	3.141867	1.064493	0.000126
1709	1.6995e+02	-11.9740	-49.452894	0.000284	2.837815	0.961478	0.000114
1710	1.7005e+02	-11.9323	-49.343892	0.000274	2.736465	0.927139	0.000110
1711	1.7015e+02	-11.8858	-49.242963	0.000253	2.533764	0.858462	0.000101
1712	1.7024e+02	-11.8408	-49.125886	0.000294	2.939166	0.995816	0.000118
1713	1.7034e+02	-11.8104	-49.016884	0.000274	2.736465	0.927139	0.000110
1714	1.7044e+02	-11.7670	-48.899807	0.000294	2.939166	0.995816	0.000118
1715	1.7054e+02	-11.7285	-48.778693	0.000304	3.040516	1.030155	0.000122
1716	1.7064e+02	-11.6916	-48.669690	0.000274	2.736465	0.927139	0.000110
1717	1.7074e+02	-11.6596	-48.580873	0.000223	2.229712	0.755447	0.000089
1718	1.7084e+02	-11.6114	-48.463796	0.000294	2.939166	0.995816	0.000118
1719	1.7094e+02	-11.5633	-48.338645	0.000314	3.141867	1.064493	0.000126
1720	1.7104e+02	-11.5264	-48.233679	0.000264	2.635114	0.892801	0.000105
1721	1.7114e+02	-11.4959	-48.100454	0.000334	3.344568	1.133170	0.000134
1722	1.7124e+02	-11.4478	-48.003562	0.000243	2.432413	0.824124	0.000097
1723	1.7134e+02	-11.4109	-47.870337	0.000334	3.344568	1.133170	0.000134
1724	1.7144e+02	-11.3660	-47.809780	0.000152	1.520258	0.515077	0.000061
1725	1.7154e+02	-11.3323	-47.624072	0.000466	4.662125	1.579571	0.000187
1726	1.7164e+02	-11.2858	-47.543329	0.000203	2.027011	0.686770	0.000081
1727	1.7174e+02	-11.2505	-47.450475	0.000233	2.331063	0.789785	0.000093
1728	1.7184e+02	-11.2120	-47.288989	0.000405	4.054022	1.373540	0.000162
1729	1.7194e+02	-11.1735	-47.192098	0.000243	2.432413	0.824124	0.000097
1730	1.7204e+02	-11.1270	-47.075021	0.000294	2.939166	0.995816	0.000118
1731	1.7213e+02	-11.0852	-46.970056	0.000264	2.635114	0.892801	0.000105
1732	1.7223e+02	-11.0500	-46.873164	0.000243	2.432413	0.824124	0.000097
1733	1.7233e+02	-11.0082	-46.756088	0.000294	2.939166	0.995816	0.000118
1734	1.7243e+02	-10.9665	-46.614788	0.000355	3.547269	1.201847	0.000142
1735	1.7253e+02	-10.9296	-46.546156	0.000172	1.722959	0.583754	0.000069
1736	1.7263e+02	-10.8927	-46.408894	0.000345	3.445919	1.167509	0.000138
1737	1.7273e+02	-10.8591	-46.303928	0.000264	2.635114	0.892801	0.000105
1738	1.7283e+02	-10.8093	-46.215111	0.000223	2.229712	0.755447	0.000089
1739	1.7293e+02	-10.7660	-46.065737	0.000375	3.749970	1.270524	0.000150
1740	1.7303e+02	-10.7243	-45.968846	0.000243	2.432413	0.824124	0.000097
1741	1.7313e+02	-10.6922	-45.831583	0.000345	3.445919	1.167509	0.000138
1742	1.7323e+02	-10.6505	-45.682209	0.000375	3.749970	1.270524	0.000150
1743	1.7333e+02	-10.6056	-45.657987	0.000061	0.608103	0.206031	0.000024
1744	1.7343e+02	-10.5703	-45.500538	0.000395	3.952671	1.339201	0.000158
1745	1.7353e+02	-10.5254	-45.379424	0.000304	3.040516	1.030155	0.000122
1746	1.7363e+02	-10.4965	-45.294644	0.000213	2.128362	0.721108	0.000085
1747	1.7373e+02	-10.4436	-45.165456	0.000324	3.243218	1.098832	0.000130
1748	1.7383e+02	-10.4115	-45.048379	0.000294	2.939166	0.995816	0.000118
1749	1.7393e+02	-10.3746	-44.935339	0.000284	2.837815	0.961478	0.000114
1750	1.7403e+02	-10.3393	-44.814225	0.000304	3.040516	1.030155	0.000122
1751	1.7413e+02	-10.2960	-44.753668	0.000152	1.520258	0.515077	0.000061
1752	1.7422e+02	-10.2494	-44.567960	0.000466	4.662125	1.579571	0.000187
1753	1.7432e+02	-10.2206	-44.438772	0.000324	3.243218	1.098832	0.000130
1754	1.7442e+02	-10.1756	-44.386289	0.000132	1.317557	0.446400	0.000053
1755	1.7452e+02	-10.1323	-44.216729	0.000426	4.256723	1.442217	0.000170
1756	1.7462e+02	-10.0922	-44.140024	0.000193	1.925660	0.652431	0.000077
1757	1.7472e+02	-10.0441	-43.998724	0.000355	3.547269	1.201847	0.000142
1758	1.7482e+02	-10.0088	-43.901833	0.000243	2.432413	0.824124	0.000097
1759	1.7492e+02	-9.9783	-43.772644	0.000324	3.243218	1.098832	0.000130
1760	1.7502e+02	-9.9382	-43.655567	0.000294	2.939166	0.995816	0.000118
1761	1.7512e+02	-9.9029	-43.546565	0.000274	2.736465	0.927139	0.000110
1762	1.7522e+02	-9.8532	-43.433525	0.000284	2.837815	0.961478	0.000114
1763	1.7532e+02	-9.8115	-43.296262	0.000345	3.445919	1.167509	0.000138
1764	1.7542e+02	-9.7746	-43.231668	0.000162	1.621609	0.549416	0.000065
1765	1.7552e+02	-9.7297	-43.062108	0.000426	4.256723	1.442217	0.000170
1766	1.7562e+02	-9.6864	-42.965217	0.000243	2.432413	0.824124	0.000097
1767	1.7572e+02	-9.6479	-42.831992	0.000334	3.344568	1.133170	0.000134
1768	1.7582e+02	-9.6238	-42.763360	0.000172	1.722959	0.583754	0.000069
1769	1.7592e+02	-9.5773	-42.650321	0.000284	2.837815	0.961478	0.000114
1770	1.7602e+02	-9.5324	-42.484798	0.000416	4.155373	1.407878	0.000166
1771	1.7612e+02	-9.4955	-42.375795	0.000274	2.736465	0.927139	0.000110
1772	1.7621e+02	-9.4537	-42.307164	0.000172	1.722959	0.583754	0.000069
1773	1.7631e+02	-9.4185	-42.214310	0.000233	2.331063	0.789785	0.000093
1774	1.7641e+02	-9.3687	-41.988230	0.000568	5.675631	1.922956	0.000227
1775	1.7651e+02	-9.3414	-41.899413	0.000223	2.229712	0.755447	0.000089
1776	1.7661e+02	-9.2933	-41.806559	0.000233	2.331063	0.789785	0.000093
1777	1.7671e+02	-9.2644	-41.701594	0.000264	2.635114	0.892801	0.000105
1778	1.7681e+02	-9.2131	-41.604702	0.000243	2.432413	0.824124	0.000097
1779	1.7691e+02	-9.1794	-41.443217	0.000405	4.054022	1.373540	0.000162
1780	1.7701e+02	-9.1329	-41.309991	0.000334	3.344568	1.133170	0.000134
1781	1.7711e+02	-9.1008	-41.229249	0.000203	2.027011	0.686770	0.000081
1782	1.7721e+02	-9.0687	-41.051615	0.000446	4.459424	1.510894	0.000179
1783	1.7731e+02	-9.0110	-40.982983	0.000172	1.722959	0.583754	0.000069
1784	1.7741e+02	-8.9725	-40.837647	0.000365	3.648620	1.236186	0.000146
1785	1.7751e+02	-8.9452	-40.708458	0.000324	3.243218	1.098832	0.000130
1786	1.7761e+02	-8.9003	-40.619641	0.000223	2.229712	0.755447	0.000089
1787	1.7771e+02	-8.8634	-40.482379	0.000345	3.445919	1.167509	0.000138
1788	1.7781e+02	-8.8233	-40.393562	0.000223	2.229712	0.755447	0.000089
1789	1.7791e+02	-8.7784	-40.268410	0.000314	3.141867	1.064493	0.000126
1790	1.7801e+02	-8.7383	-40.147296	0.000304	3.040516	1.030155	0.000122
1791	1.7810e+02	-8.6998	-40.030219	0.000294	2.939166	0.995816	0.000118
1792	1.7820e+02	-8.6613	-39.905068	0.000314	3.141867	1.064493	0.000126
1793	1.7830e+02	-8.6195	-39.763768	0.000355	3.547269	1.201847	0.000142
1794	1.7840e+02	-8.5810	-39.626506	0.000345	3.445919	1.167509	0.000138
1795	1.7850e+02	-8.5393	-39.513466	0.000284	2.837815	0.961478	0.000114
1796	1.7860e+02	-8.5072	-39.376203	0.000345	3.445919	1.167509	0.000138
1797	1.7870e+02	-8.4607	-39.259126	0.000294	2.939166	0.995816	0.000118
1798	1.7880e+02	-8.4270	-39.154161	0.000264	2.635114	0.892801	0.000105
1799	1.7890e+02	-8.3805	-39.061307	0.000233	2.331063	0.789785	0.000093
1800	1.7900e+02	-8.3388	-38.903859	0.000395	3.952671	1.339201	0.000158
1801	1.7910e+02	-8.2987	-38.823116	0.000203	2.027011	0.686770	0.000081
1802	1.7920e+02	-8.2634	-38.661630	0.000405	4.054022	1.373540	0.000162
1803	1.7930e+02	-8.2313	-38.528405	0.000334	3.344568	1.133170	0.000134
1804	1.7940e+02	-8.1832	-38.423439	0.000264	2.635114	0.892801	0.000105
1805	1.7950e+02	-8.1319	-38.314437	0.000274	2.736465	0.927139	0.000110
1806	1.7960e+02	-8.1030	-38.197360	0.000294	2.939166	0.995816	0.000118
1807	1.7970e+02	-8.0661	-38.043949	0.000385	3.851321	1.304863	0.000154
1808	1.7980e+02	-8.0164	-37.906686	0.000345	3.445919	1.167509	0.000138
1809	1.7990e+02	-7.9778	-37.829980	0.000193	1.925660	0.652431	0.000077
1810	1.8000e+02	-7.9474	-37.692718	0.000345	3.445919	1.167509	0.000138
1811	1.8009e+02	-7.9008	-37.547381	0.000365	3.648620	1.236186	0.000146
1812	1.8019e+02	-7.8607	-37.406081	0.000355	3.547269	1.201847	0.000142
1813	1.8029e+02	-7.8206	-37.317264	0.000223	2.229712	0.755447	0.000089
1814	1.8039e+02	-7.7821	-37.208262	0.000274	2.736465	0.927139	0.000110
1815	1.8049e+02	-7.7484	-37.103296	0.000264	2.635114	0.892801	0.000105
1816	1.8059e+02	-7.7019	-36.941811	0.000405	4.054022	1.373540	0.000162
1817	1.8069e+02	-7.6698	-36.828771	0.000284	2.837815	0.961478	0.000114
1818	1.8079e+02	-7.6249	-36.695545	0.000334	3.344568	1.133170	0.000134
1819	1.8089e+02	-7.5848	-36.566357	0.000324	3.243218	1.098832	0.000130
1820	1.8099e+02	-7.5431	-36.425057	0.000355	3.547269	1.201847	0.000142
1821	1.8109e+02	-7.4998	-36.303943	0.000304	3.040516	1.030155	0.000122
1822	1.8119e+02	-7.4629	-36.182829	0.000304	3.040516	1.030155	0.000122
1823	1.8129e+02	-7.4260	-36.069789	0.000284	2.837815	0.961478	0.000114
1824	1.8139e+02	-7.3859	-35.932527	0.000345	3.445919	1.167509	0.000138
1825	1.8149e+02	-7.3474	-35.803338	0.000324	3.243218	1.098832	0.000130
1826	1.8159e+02	-7.3089	-35.690298	0.000284	2.837815	0.961478	0.000114
1827	1.8169e+02	-7.2608	-35.569184	0.000304	3.040516	1.030155	0.000122
1828	1.8179e+02	-7.2271	-35.411736	0.000395	3.952671	1.339201	0.000158
1829	1.8189e+02	-7.1950	-35.318882	0.000233	2.331063	0.789785	0.000093
1830	1.8199e+02	-7.1485	-35.157397	0.000405	4.054022	1.373540	0.000162
1831	1.8209e+02	-7.1003	-35.040320	0.000294	2.939166	0.995816	0.000118
1832	1.8218e+02	-7.0715	-34.919206	0.000304	3.040516	1.030155	0.000122
1833	1.8228e+02	-7.0297	-34.806166	0.000284	2.837815	0.961478	0.000114
1834	1.8238e+02	-6.9832	-34.652755	0.000385	3.851321	1.304863	0.000154
1835	1.8248e+02	-6.9447	-34.523566	0.000324	3.243218	1.098832	0.000130
1836	1.8258e+02	-6.9094	-34.374192	0.000375	3.749970	1.270524	0.000150
1837	1.8268e+02	-6.8741	-34.261152	0.000284	2.837815	0.961478	0.000114
1838	1.8278e+02	-6.8292	-34.095630	0.000416	4.155373	1.407878	0.000166
1839	1.8288e+02	-6.7875	-33.978553	0.000294	2.939166	0.995816	0.000118
1840	1.8298e+02	-6.7490	-33.845327	0.000334	3.344568	1.133170	0.000134
1841	1.8308e+02	-6.7025	-33.708065	0.000345	3.445919	1.167509	0.000138
1842	1.8318e+02	-6.6720	-33.570802	0.000345	3.445919	1.167509	0.000138
1843	1.8328e+02	-6.6223	-33.433540	0.000345	3.445919	1.167509	0.000138
1844	1.8338e+02	-6.5838	-33.336648	0.000243	2.432413	0.824124	0.000097
1845	1.8348e+02	-6.5453	-33.163052	0.000436	4.358074	1.476555	0.000174
1846	1.8358e+02	-6.5116	-33.066160	0.000243	2.432413	0.824124	0.000097
1847	1.8368e+02	-6.4667	-32.932935	0.000334	3.344568	1.133170	0.000134
1848	1.8378e+02	-6.4330	-32.779524	0.000385	3.851321	1.304863	0.000154
1849	1.8388e+02	-6.3800	-32.702818	0.000193	1.925660	0.652431	0.000077
1850	1.8398e+02	-6.3560	-32.496924	0.000517	5.168878	1.751263	0.000207
1851	1.8407e+02	-6.3127	-32.371773	0.000314	3.141867	1.064493	0.000126
1852	1.8417e+02	-6.2774	-32.254696	0.000294	2.939166	0.995816	0.000118
1853	1.8427e+02	-6.2324	-32.137619	0.000294	2.939166	0.995816	0.000118
1854	1.8437e+02	-6.1988	-32.000356	0.000345	3.445919	1.167509	0.000138
1855	1.8447e+02	-6.1506	-31.830797	0.000426	4.256723	1.442217	0.000170
1856	1.8457e+02	-6.1169	-31.713720	0.000294	2.939166	0.995816	0.000118
1857	1.8467e+02	-6.0720	-31.596643	0.000294	2.939166	0.995816	0.000118
1858	1.8477e+02	-6.0335	-31.419009	0.000446	4.459424	1.510894	0.000179
1859	1.8487e+02	-5.9838	-31.301932	0.000294	2.939166	0.995816	0.000118
1860	1.8497e+02	-5.9565	-31.192929	0.000274	2.736465	0.927139	0.000110
1861	1.8507e+02	-5.9132	-31.051630	0.000355	3.547269	1.201847	0.000142
1862	1.8517e+02	-5.8683	-30.910330	0.000355	3.547269	1.201847	0.000142
1863	1.8527e+02	-5.8330	-30.781141	0.000324	3.243218	1.098832	0.000130
1864	1.8537e+02	-5.7945	-30.623693	0.000395	3.952671	1.339201	0.000158
1865	1.8547e+02	-5.7544	-30.538913	0.000213	2.128362	0.721108	0.000085
1866	1.8557e+02	-5.7079	-30.324945	0.000537	5.371579	1.819940	0.000215
1867	1.8567e+02	-5.6742	-30.248240	0.000193	1.925660	0.652431	0.000077
1868	1.8577e+02	-5.6325	-30.058494	0.000476	4.763476	1.613909	0.000191
1869	1.8587e+02	-5.5924	-29.965640	0.000233	2.331063	0.789785	0.000093
1870	1.8597e+02	-5.5506	-29.812229	0.000385	3.851321	1.304863	0.000154
1871	1.8606e+02	-5.5154	-29.699189	0.000284	2.837815	0.961478	0.000114
1872	1.8616e+02	-5.4833	-29.553852	0.000365	3.648620	1.236186	0.000146
1873	1.8626e+02	-5.4416	-29.388330	0.000416	4.155373	1.407878	0.000166
1874	1.8636e+02	-5.3982	-29.271253	0.000294	2.939166	0.995816	0.000118
1875	1.8646e+02	-5.3517	-29.170324	0.000253	2.533764	0.858462	0.000101
1876	1.8656e+02	-5.3132	-29.004802	0.000416	4.155373	1.407878	0.000166
1877	1.8666e+02	-5.2763	-28.887725	0.000294	2.939166	0.995816	0.000118
1878	1.8676e+02	-5.2314	-28.766611	0.000304	3.040516	1.030155	0.000122
1879	1.8686e+02	-5.2041	-28.609162	0.000395	3.952671	1.339201	0.000158
1880	1.8696e+02	-5.1640	-28.471900	0.000345	3.445919	1.167509	0.000138
1881	1.8706e+02	-5.1191	-28.314451	0.000395	3.952671	1.339201	0.000158
1882	1.8716e+02	-5.0774	-28.221597	0.000233	2.331063	0.789785	0.000093
1883	1.8726e+02	-5.0309	-28.048001	0.000436	4.358074	1.476555	0.000174
1884	1.8736e+02	-4.9924	-27.878441	0.000426	4.256723	1.442217	0.000170
1885	1.8746e+02	-4.9523	-27.753290	0.000314	3.141867	1.064493	0.000126
1886	1.8756e+02	-4.9234	-27.648324	0.000264	2.635114	0.892801	0.000105
1887	1.8766e+02	-4.8737	-27.470690	0.000446	4.459424	1.510894	0.000179
1888	1.8776e+02	-4.8368	-27.317279	0.000385	3.851321	1.304863	0.000154
1889	1.8786e+02	-4.7918	-27.180016	0.000345	3.445919	1.167509	0.000138
1890	1.8796e+02	-4.7598	-27.050828	0.000324	3.243218	1.098832	0.000130
1891	1.8806e+02	-4.7148	-26.925677	0.000314	3.141867	1.064493	0.000126
1892	1.8815e+02	-4.6779	-26.792451	0.000334	3.344568	1.133170	0.000134
1893	1.8825e+02	-4.6426	-26.635003	0.000395	3.952671	1.339201	0.000158
1894	1.8835e+02	-4.5929	-26.481592	0.000385	3.851321	1.304863	0.000154
1895	1.8845e+02	-4.5576	-26.340292	0.000355	3.547269	1.201847	0.000142
1896	1.8855e+02	-4.5159	-26.227252	0.000284	2.837815	0.961478	0.000114
1897	1.8865e+02	-4.4822	-26.073841	0.000385	3.851321	1.304863	0.000154
1898	1.8875e+02	-4.4405	-25.928504	0.000365	3.648620	1.236186	0.000146
1899	1.8885e+02	-4.3924	-25.775093	0.000385	3.851321	1.304863	0.000154
1900	1.8895e+02	-4.3571	-25.637831	0.000345	3.445919	1.167509	0.000138
1901	1.8905e+02	-4.3122	-25.484419	0.000385	3.851321	1.304863	0.000154
1902	1.8915e+02	-4.2737	-25.359268	0.000314	3.141867	1.064493	0.000126
1903	1.8925e+02	-4.2480	-25.226043	0.000334	3.344568	1.133170	0.000134
1904	1.8935e+02	-4.2015	-25.048409	0.000446	4.459424	1.510894	0.000179
1905	1.8945e+02	-4.1582	-24.923257	0.000314	3.141867	1.064493	0.000126
1906	1.8955e+02	-4.1229	-24.765809	0.000395	3.952671	1.339201	0.000158
1907	1.8965e+02	-4.0780	-24.632584	0.000334	3.344568	1.133170	0.000134
1908	1.8975e+02	-4.0395	-24.499358	0.000334	3.344568	1.133170	0.000134
1909	1.8985e+02	-4.0026	-24.349984	0.000375	3.749970	1.270524	0.000150
1910	1.8995e+02	-3.9592	-24.188499	0.000405	4.054022	1.373540	0.000162
1911	1.9004e+02	-3.9223	-24.059310	0.000324	3.243218	1.098832	0.000130
1912	1.9014e+02	-3.8806	-23.913974	0.000365	3.648620	1.236186	0.000146
1913	1.9024e+02	-3.8325	-23.841305	0.000182	1.824310	0.618093	0.000073
1914	1.9034e+02	-3.8004	-23.619263	0.000557	5.574280	1.888617	0.000223
1915	1.9044e+02	-3.7635	-23.490074	0.000324	3.243218	1.098832	0.000130
1916	1.9054e+02	-3.7186	-23.336663	0.000385	3.851321	1.304863	0.000154
1917	1.9064e+02	-3.6833	-23.191326	0.000365	3.648620	1.236186	0.000146
1918	1.9074e+02	-3.6384	-23.021767	0.000426	4.256723	1.442217	0.000170
1919	1.9084e+02	-3.5983	-22.904690	0.000294	2.939166	0.995816	0.000118
1920	1.9094e+02	-3.5598	-22.771464	0.000334	3.344568	1.133170	0.000134
1921	1.9104e+02	-3.5197	-22.622090	0.000375	3.749970	1.270524	0.000150
1922	1.9114e+02	-3.4732	-22.448493	0.000436	4.358074	1.476555	0.000174
1923	1.9124e+02	-3.4459	-22.323342	0.000314	3.141867	1.064493	0.000126
1924	1.9134e+02	-3.4026	-22.157819	0.000416	4.155373	1.407878	0.000166
1925	1.9144e+02	-3.3561	-22.048817	0.000274	2.736465	0.927139	0.000110
1926	1.9154e+02	-3.3256	-21.879257	0.000426	4.256723	1.442217	0.000170
1927	1.9164e+02	-3.2855	-21.741995	0.000345	3.445919	1.167509	0.000138
1928	1.9174e+02	-3.2357	-21.604732	0.000345	3.445919	1.167509	0.000138
1929	1.9184e+02	-3.2020	-21.451321	0.000385	3.851321	1.304863	0.000154
1930	1.9194e+02	-3.1587	-21.342318	0.000274	2.736465	0.927139	0.000110
1931	1.9203e+02	-3.1202	-21.132387	0.000527	5.270229	1.785602	0.000211
1932	1.9213e+02	-3.0849	-21.027421	0.000264	2.635114	0.892801	0.000105
1933	1.9223e+02	-3.0529	-20.894196	0.000334	3.344568	1.133170	0.000134
1934	1.9233e+02	-3.0047	-20.732711	0.000405	4.054022	1.373540	0.000162
1935	1.9243e+02	-2.9646	-20.575262	0.000395	3.952671	1.339201	0.000158
1936	1.9253e+02	-2.9245	-20.446074	0.000324	3.243218	1.098832	0.000130
1937	1.9263e+02	-2.8860	-20.252291	0.000486	4.864826	1.648248	0.000195
1938	1.9273e+02	-2.8475	-20.106955	0.000365	3.648620	1.236186	0.000146
1939	1.9283e+02	-2.8026	-19.953543	0.000385	3.851321	1.304863	0.000154
1940	1.9293e+02	-2.7657	-19.848578	0.000264	2.635114	0.892801	0.000105
1941	1.9303e+02	-2.7256	-19.666907	0.000456	4.560775	1.545232	0.000183
1942	1.9313e+02	-2.7031	-19.501384	0.000416	4.155373	1.407878	0.000166
1943	1.9323e+02	-2.6422	-19.376233	0.000314	3.141867	1.064493	0.000126
1944	1.9333e+02	-2.6133	-19.222822	0.000385	3.851321	1.304863	0.000154
1945	1.9343e+02	-2.5700	-19.049225	0.000436	4.358074	1.476555	0.000174
1946	1.9353e+02	-2.5283	-18.911962	0.000345	3.445919	1.167509	0.000138
1947	1.9363e+02	-2.4850	-18.758551	0.000385	3.851321	1.304863	0.000154
1948	1.9373e+02	-2.4497	-18.617251	0.000355	3.547269	1.201847	0.000142
1949	1.9383e+02	-2.3951	-18.435580	0.000456	4.560775	1.545232	0.000183
1950	1.9393e+02	-2.3662	-18.282169	0.000385	3.851321	1.304863	0.000154
1951	1.9403e+02	-2.3310	-18.136832	0.000365	3.648620	1.236186	0.000146
1952	1.9412e+02	-2.2812	-17.951124	0.000466	4.662125	1.579571	0.000187
1953	1.9422e+02	-2.2395	-17.821936	0.000324	3.243218	1.098832	0.000130
1954	1.9432e+02	-2.2042	-17.704859	0.000294	2.939166	0.995816	0.000118
1955	1.9442e+02	-2.1721	-17.507039	0.000497	4.966177	1.682586	0.000199
1956	1.9452e+02	-2.1240	-17.353628	0.000385	3.851321	1.304863	0.000154
1957	1.9462e+02	-2.0887	-17.212328	0.000355	3.547269	1.201847	0.000142
1958	1.9472e+02	-2.0534	-17.042769	0.000426	4.256723	1.442217	0.000170
1959	1.9482e+02	-2.0149	-16.889357	0.000385	3.851321	1.304863	0.000154
1960	1.9492e+02	-1.9668	-16.727872	0.000405	4.054022	1.373540	0.000162
1961	1.9502e+02	-1.9235	-16.574461	0.000385	3.851321	1.304863	0.000154
1962	1.9512e+02	-1.8882	-16.408938	0.000416	4.155373	1.407878	0.000166
1963	1.9522e+02	-1.8465	-16.227267	0.000456	4.560775	1.545232	0.000183
1964	1.9532e+02	-1.8016	-16.090004	0.000345	3.445919	1.167509	0.000138
1965	1.9542e+02	-1.7631	-15.940630	0.000375	3.749970	1.270524	0.000150
1966	1.9552e+02	-1.7358	-15.767034	0.000436	4.358074	1.476555	0.000174
1967	1.9562e+02	-1.6909	-15.597474	0.000426	4.256723	1.442217	0.000170
1968	1.9572e+02	-1.6443	-15.444063	0.000385	3.851321	1.304863	0.000154
1969	1.9582e+02	-1.6074	-15.331023	0.000284	2.837815	0.961478	0.000114
1970	1.9592e+02	-1.5609	-15.133203	0.000497	4.966177	1.682586	0.000199
1971	1.9601e+02	-1.5208	-14.987866	0.000365	3.648620	1.236186	0.000146
1972	1.9611e+02	-1.4887	-14.826381	0.000405	4.054022	1.373540	0.000162
1973	1.9621e+02	-1.4454	-14.640673	0.000466	4.662125	1.579571	0.000187
1974	1.9631e+02	-1.4085	-14.483224	0.000395	3.952671	1.339201	0.000158
1975	1.9641e+02	-1.3796	-14.329813	0.000385	3.851321	1.304863	0.000154
1976	1.9651e+02	-1.3315	-14.156216	0.000436	4.358074	1.476555	0.000174
1977	1.9661e+02	-1.2882	-13.954360	0.000507	5.067527	1.716925	0.000203
1978	1.9671e+02	-1.2401	-13.813060	0.000355	3.547269	1.201847	0.000142
1979	1.9681e+02	-1.2112	-13.659649	0.000385	3.851321	1.304863	0.000154
1980	1.9691e+02	-1.1743	-13.542572	0.000294	2.939166	0.995816	0.000118
1981	1.9701e+02	-1.1278	-13.332641	0.000527	5.270229	1.785602	0.000211
1982	1.9711e+02	-1.0877	-13.191341	0.000355	3.547269	1.201847	0.000142
1983	1.9721e+02	-1.0572	-13.025818	0.000416	4.155373	1.407878	0.000166
1984	1.9731e+02	-1.0042	-12.852222	0.000436	4.358074	1.476555	0.000174
1985	1.9741e+02	-0.9786	-12.694773	0.000395	3.952671	1.339201	0.000158
1986	1.9751e+02	-0.9321	-12.480805	0.000537	5.371579	1.819940	0.000215
1987	1.9761e+02	-0.8887	-12.331431	0.000375	3.749970	1.270524	0.000150
1988	1.9771e+02	-0.8502	-12.169946	0.000405	4.054022	1.373540	0.000162
1989	1.9781e+02	-0.8101	-12.000386	0.000426	4.256723	1.442217	0.000170
1990	1.9791e+02	-0.7716	-11.818715	0.000456	4.560775	1.545232	0.000183
1991	1.9800e+02	-0.7363	-11.637044	0.000456	4.560775	1.545232	0.000183
1992	1.9810e+02	-0.6834	-11.463447	0.000436	4.358074	1.476555	0.000174
1993	1.9820e+02	-0.6513	-11.334259	0.000324	3.243218	1.098832	0.000130
1994	1.9830e+02	-0.6160	-11.148550	0.000466	4.662125	1.579571	0.000187
1995	1.9840e+02	-0.5647	-10.983028	0.000416	4.155373	1.407878	0.000166
1996	1.9850e+02	-0.5294	-10.801357	0.000456	4.560775	1.545232	0.000183
1997	1.9860e+02	-0.4893	-10.627760	0.000436	4.358074	1.476555	0.000174
1998	1.9870e+02	-0.4508	-10.474349	0.000385	3.851321	1.304863	0.000154
1999	1.9880e+02	-0.4219	-10.276529	0.000497	4.966177	1.682586	0.000199
2000	1.9890e+02	-0.3754	-10.094858	0.000456	4.560775	1.545232	0.000183
2001	1.9900e+02	-0.3385	-9.905113	0.000476	4.763476	1.613909	0.000191
2002	1.9910e+02	-0.2968	-9.796110	0.000274	2.736465	0.927139	0.000110
2003	1.9920e+02	-0.2551	-9.622513	0.000436	4.358074	1.476555	0.000174
2004	1.9930e+02	-0.2166	-9.392396	0.000578	5.776981	1.957294	0.000231
2005	1.9940e+02	-0.1700	-9.230911	0.000405	4.054022	1.373540	0.000162
2006	1.9950e+02	-0.1380	-9.081537	0.000375	3.749970	1.270524	0.000150
2007	1.9960e+02	-0.0930	-8.851420	0.000578	5.776981	1.957294	0.000231
2008	1.9970e+02	-0.0561	-8.693972	0.000395	3.952671	1.339201	0.000158
2009	1.9980e+02	-0.0176	-8.544598	0.000395	3.952671	1.339201	0.000150

Center data before PMax,+/-Pr and +/-Vc Calc.

PMax (uC/cm2):	6.75e+01
Pr (uC/cm2):	4.86e+00
-Pr (uC/cm2):	-8.54e+00
PLoss (uC/cm2):	-8.48e+00
-Vc:	-1.12e+00
C (Max-Eff) (nF):	3.38e-01
K (Eff):	1.15e+03
Vert. (+/-Pr) Shift (uC/cm2):	-1.84e+00
Offset (uC/cm2):	8.28e-02

A (Loop Area - uC/cm2·Volts):	-5.14e-03



Hysteresis Version: 5.48.1 - Radiant Technologies, Inc., 1999 - 9/12/24

