»»»»»»»»»»»»»»»»»»»»»»»»»»»»»»»»»»»» Hysteresis ««««««««««««««««««««««««««««««««««««
»»»  Executed Version:	5.48.1
»»»  Vision Version:	5.48.4 (R)
»»»  Vision Compiled:	9/18/24
»»»  Driver Version:	5.47.0
»»»  Windows Version:	Windows 8 or 8.1
»»»  Processor Information:	x86 (AMD or Intel) - 32 Processors
»»»  Tester Name:	PMF21124-494 (100V)
»»»  Tester S/N:	PMF21124-494
»»»  Internal Amp Type:	100V RevK 270k
»»»  Internal Amp S/N:	iAB2-596/K     
»»»  Execution Count:	1
»»»»»»»»»»»»»»»»»»»»»»»»»»»»»»»»»»»»»»»»»»««««««««««««««««««««««««««««««««««««««««««

Stored:	6/13/2025 - 10:33:26
Configured:	06/13/25 10:12:58 AM
Executed:	06/13/25 10:32:54 AM

»»»»»»»»»»»»»»»»»»»»»»»»»»»»»»»»»»» Sample Info ««««««««««««««««««««««««««««««««««««
Sample Name:	
Lot Name:	
Wafer Name:	
Die Row/Column:	0/0
Capacitor Number:	0
Sample Area (cm2):	1.00e-04
Sample Thickness (microns):	3.00e-01

Amplifier:	Internal

»»»»»»»»»»»»»»»»»»»»»»»»»»»»»»»»»»» Tester Info «««««««««««««««««««««««««««««««««««
Tester Name:	PMF21124-494 (100V)
Tester Serial Number:	PMF21124-494
Return Signal Amp. Level:	0.19 [Index: 3]

»»»»»»»»»»»»»»»»»»»»»»»»»»»»»»»» Hysteresis Info ««««««««««««««««««««««««««««««««««
Task Name:	Hyst-1704
Volts:	20.00
Field:	666.67 (kV/cm)
DCBias:	0.00
DCField:	0.00 (kV/cm)
Hysteresis Period (ms):	2.00e+02
Preset:	Enabled
Preset Delay (ms):	1.00e+03
Profile:	Standard Bipolar

»»»»»»»»»»»»»»»»»»»»»»»»»»»»»»»»»»»»»» Data «««««««««««««««««««««««««««««««««««««««
Points:	2009

Valid Data

Point	Time (ms)	Drive Voltage	Measured Polarization (uC/cm2)	Capacitance (uF)	Normalized Capacitance (uF/cm2)	Dielectric Constant	Instantaneous Current (mA)
   1	0.0000e+00	-0.0096	-6.332247	0.000223	2.229667	0.755432	0.000089
   2	9.9500e-02	0.0257	-6.243430	0.000223	2.229667	0.755432	0.000089
   3	1.9900e-01	0.0642	-6.098094	0.000365	3.648547	1.236161	0.000146
   4	2.9850e-01	0.1107	-5.968905	0.000324	3.243153	1.098810	0.000130
   5	3.9800e-01	0.1524	-5.815494	0.000385	3.851244	1.304837	0.000154
   6	4.9750e-01	0.1845	-5.714566	0.000253	2.533713	0.858445	0.000101
   7	5.9700e-01	0.2182	-5.553080	0.000405	4.053941	1.373512	0.000162
   8	6.9650e-01	0.2791	-5.399669	0.000385	3.851244	1.304837	0.000154
   9	7.9600e-01	0.3048	-5.278555	0.000304	3.040456	1.030134	0.000122
  10	8.9550e-01	0.3401	-5.141292	0.000345	3.445850	1.167485	0.000138
  11	9.9500e-01	0.3850	-5.012104	0.000324	3.243153	1.098810	0.000130
  12	1.0945e+00	0.4251	-4.862730	0.000375	3.749895	1.270499	0.000150
  13	1.1940e+00	0.4572	-4.729505	0.000334	3.344501	1.133148	0.000134
  14	1.2935e+00	0.5037	-4.608390	0.000304	3.040456	1.030134	0.000122
  15	1.3930e+00	0.5374	-4.479202	0.000324	3.243153	1.098810	0.000130
  16	1.4925e+00	0.5855	-4.305605	0.000436	4.357986	1.476526	0.000174
  17	1.5920e+00	0.6208	-4.176417	0.000324	3.243153	1.098810	0.000130
  18	1.6915e+00	0.6577	-4.031080	0.000365	3.648547	1.236161	0.000146
  19	1.7910e+00	0.6962	-3.885743	0.000365	3.648547	1.236161	0.000146
  20	1.8905e+00	0.7476	-3.752518	0.000334	3.344501	1.133148	0.000134
  21	1.9900e+00	0.7813	-3.639478	0.000284	2.837758	0.961459	0.000114
  22	2.0895e+00	0.8278	-3.461844	0.000446	4.459335	1.510864	0.000179
  23	2.1890e+00	0.8631	-3.312470	0.000375	3.749895	1.270499	0.000150
  24	2.2885e+00	0.8936	-3.163096	0.000375	3.749895	1.270499	0.000150
  25	2.3880e+00	0.9353	-3.078316	0.000213	2.128319	0.721094	0.000085
  26	2.4875e+00	0.9802	-2.888571	0.000476	4.763380	1.613877	0.000191
  27	2.5870e+00	1.0203	-2.755345	0.000334	3.344501	1.133148	0.000134
  28	2.6865e+00	1.0540	-2.630194	0.000314	3.141804	1.064472	0.000126
  29	2.7860e+00	1.0989	-2.488894	0.000355	3.547198	1.201823	0.000142
  30	2.8855e+00	1.1470	-2.331446	0.000395	3.952592	1.339174	0.000158
  31	2.9850e+00	1.1871	-2.182072	0.000375	3.749895	1.270499	0.000150
  32	3.0845e+00	1.2240	-2.069032	0.000284	2.837758	0.961459	0.000114
  33	3.1840e+00	1.2593	-1.887361	0.000456	4.560683	1.545201	0.000183
  34	3.2835e+00	1.2978	-1.766247	0.000304	3.040456	1.030134	0.000122
  35	3.3830e+00	1.3411	-1.616873	0.000375	3.749895	1.270499	0.000150
  36	3.4825e+00	1.3764	-1.503833	0.000284	2.837758	0.961459	0.000114
  37	3.5820e+00	1.4230	-1.322162	0.000456	4.560683	1.545201	0.000183
  38	3.6815e+00	1.4647	-1.172788	0.000375	3.749895	1.270499	0.000150
  39	3.7810e+00	1.4935	-1.063785	0.000274	2.736410	0.927121	0.000110
  40	3.8805e+00	1.5497	-0.926523	0.000345	3.445850	1.167485	0.000138
  41	3.9800e+00	1.5721	-0.748889	0.000446	4.459335	1.510864	0.000179
  42	4.0795e+00	1.6155	-0.647960	0.000253	2.533713	0.858445	0.000101
  43	4.1790e+00	1.6588	-0.446103	0.000507	5.067426	1.716890	0.000203
  44	4.2785e+00	1.7005	-0.345175	0.000253	2.533713	0.858445	0.000101
  45	4.3780e+00	1.7454	-0.191764	0.000385	3.851244	1.304837	0.000154
  46	4.4775e+00	1.7839	-0.070650	0.000304	3.040456	1.030134	0.000122
  47	4.5770e+00	1.8192	0.147355	0.000547	5.472820	1.854242	0.000219
  48	4.6765e+00	1.8593	0.260395	0.000284	2.837758	0.961459	0.000114
  49	4.7760e+00	1.8914	0.393621	0.000334	3.344501	1.133148	0.000134
  50	4.8755e+00	1.9427	0.526846	0.000334	3.344501	1.133148	0.000134
  51	4.9750e+00	1.9780	0.668146	0.000355	3.547198	1.201823	0.000142
  52	5.0745e+00	2.0101	0.825594	0.000395	3.952592	1.339174	0.000158
  53	5.1740e+00	2.0614	0.946708	0.000304	3.040456	1.030134	0.000122
  54	5.2735e+00	2.0903	1.088008	0.000355	3.547198	1.201823	0.000142
  55	5.3730e+00	2.1352	1.237382	0.000375	3.749895	1.270499	0.000150
  56	5.4725e+00	2.1850	1.382719	0.000365	3.648547	1.236161	0.000146
  57	5.5720e+00	2.2251	1.524019	0.000355	3.547198	1.201823	0.000142
  58	5.6715e+00	2.2588	1.645133	0.000304	3.040456	1.030134	0.000122
  59	5.7710e+00	2.2892	1.778358	0.000334	3.344501	1.133148	0.000134
  60	5.8705e+00	2.3326	1.976178	0.000497	4.966077	1.682553	0.000199
  61	5.9700e+00	2.3711	2.052884	0.000193	1.925622	0.652418	0.000077
  62	6.0695e+00	2.4208	2.186109	0.000334	3.344501	1.133148	0.000134
  63	6.1690e+00	2.4641	2.343557	0.000395	3.952592	1.339174	0.000158
  64	6.2685e+00	2.4946	2.476783	0.000334	3.344501	1.133148	0.000134
  65	6.3680e+00	2.5363	2.626157	0.000375	3.749895	1.270499	0.000150
  66	6.4675e+00	2.5844	2.787642	0.000405	4.053941	1.373512	0.000162
  67	6.5670e+00	2.6165	2.892608	0.000264	2.635061	0.892783	0.000105
  68	6.6665e+00	2.6614	3.114650	0.000557	5.574168	1.888579	0.000223
  69	6.7660e+00	2.6903	3.179244	0.000162	1.621576	0.549405	0.000065
  70	6.8655e+00	2.7336	3.316507	0.000345	3.445850	1.167485	0.000138
  71	6.9650e+00	2.7673	3.453770	0.000345	3.445850	1.167485	0.000138
  72	7.0645e+00	2.8202	3.611218	0.000395	3.952592	1.339174	0.000158
  73	7.1640e+00	2.8555	3.695998	0.000213	2.128319	0.721094	0.000085
  74	7.2635e+00	2.9053	3.869595	0.000436	4.357986	1.476526	0.000174
  75	7.3630e+00	2.9245	4.027043	0.000395	3.952592	1.339174	0.000158
  76	7.4625e+00	2.9775	4.136046	0.000274	2.736410	0.927121	0.000110
  77	7.5620e+00	3.0208	4.241011	0.000264	2.635061	0.892783	0.000105
  78	7.6615e+00	3.0480	4.442868	0.000507	5.067426	1.716890	0.000203
  79	7.7610e+00	3.0978	4.551871	0.000274	2.736410	0.927121	0.000110
  80	7.8605e+00	3.1299	4.713356	0.000405	4.053941	1.373512	0.000162
  81	7.9600e+00	3.1700	4.826396	0.000284	2.837758	0.961459	0.000114
  82	8.0595e+00	3.2149	4.987881	0.000405	4.053941	1.373512	0.000162
  83	8.1590e+00	3.2518	5.145329	0.000395	3.952592	1.339174	0.000158
  84	8.2585e+00	3.2935	5.250295	0.000264	2.635061	0.892783	0.000105
  85	8.3580e+00	3.3336	5.383521	0.000334	3.344501	1.133148	0.000134
  86	8.4575e+00	3.3753	5.520783	0.000345	3.445850	1.167485	0.000138
  87	8.5570e+00	3.4138	5.682269	0.000405	4.053941	1.373512	0.000162
  88	8.6565e+00	3.4587	5.795308	0.000284	2.837758	0.961459	0.000114
  89	8.7560e+00	3.4972	5.920460	0.000314	3.141804	1.064472	0.000126
  90	8.8555e+00	3.5357	6.069834	0.000375	3.749895	1.270499	0.000150
  91	8.9550e+00	3.5742	6.263616	0.000486	4.864729	1.648215	0.000195
  92	9.0545e+00	3.6111	6.352433	0.000223	2.229667	0.755432	0.000089
  93	9.1540e+00	3.6496	6.509881	0.000395	3.952592	1.339174	0.000158
  94	9.2535e+00	3.6865	6.647144	0.000345	3.445850	1.167485	0.000138
  95	9.3530e+00	3.7314	6.760184	0.000284	2.837758	0.961459	0.000114
  96	9.4525e+00	3.7667	6.901484	0.000355	3.547198	1.201823	0.000142
  97	9.5520e+00	3.8068	7.058932	0.000395	3.952592	1.339174	0.000158
  98	9.6515e+00	3.8550	7.232529	0.000436	4.357986	1.476526	0.000174
  99	9.7510e+00	3.8838	7.337494	0.000264	2.635061	0.892783	0.000105
 100	9.8505e+00	3.9352	7.490905	0.000385	3.851244	1.304837	0.000154
 101	9.9500e+00	3.9689	7.599908	0.000274	2.736410	0.927121	0.000110
 102	1.0050e+01	4.0122	7.765431	0.000416	4.155289	1.407850	0.000166
 103	1.0149e+01	4.0475	7.890582	0.000314	3.141804	1.064472	0.000126
 104	1.0248e+01	4.1004	8.011696	0.000304	3.040456	1.030134	0.000122
 105	1.0348e+01	4.1309	8.181256	0.000426	4.256638	1.442188	0.000170
 106	1.0447e+01	4.1646	8.274110	0.000233	2.331016	0.789770	0.000093
 107	1.0547e+01	4.2063	8.419447	0.000365	3.648547	1.236161	0.000146
 108	1.0646e+01	4.2576	8.568821	0.000375	3.749895	1.270499	0.000150
 109	1.0746e+01	4.2961	8.693972	0.000314	3.141804	1.064472	0.000126
 110	1.0845e+01	4.3250	8.851420	0.000395	3.952592	1.339174	0.000158
 111	1.0945e+01	4.3731	8.996757	0.000365	3.648547	1.236161	0.000146
 112	1.1044e+01	4.4116	9.125945	0.000324	3.243153	1.098810	0.000130
 113	1.1144e+01	4.4469	9.271282	0.000365	3.648547	1.236161	0.000146
 114	1.1243e+01	4.4870	9.368173	0.000243	2.432364	0.824107	0.000097
 115	1.1343e+01	4.5336	9.489288	0.000304	3.040456	1.030134	0.000122
 116	1.1443e+01	4.5689	9.622513	0.000334	3.344501	1.133148	0.000134
 117	1.1542e+01	4.6041	9.800147	0.000446	4.459335	1.510864	0.000179
 118	1.1642e+01	4.6523	9.913187	0.000284	2.837758	0.961459	0.000114
 119	1.1741e+01	4.6972	10.086784	0.000436	4.357986	1.476526	0.000174
 120	1.1841e+01	4.7261	10.131192	0.000111	1.114834	0.377716	0.000045
 121	1.1940e+01	4.7662	10.320938	0.000476	4.763380	1.613877	0.000191
 122	1.2040e+01	4.8159	10.474349	0.000385	3.851244	1.304837	0.000154
 123	1.2139e+01	4.8576	10.571240	0.000243	2.432364	0.824107	0.000097
 124	1.2239e+01	4.8929	10.716577	0.000365	3.648547	1.236161	0.000146
 125	1.2338e+01	4.9314	10.869988	0.000385	3.851244	1.304837	0.000154
 126	1.2438e+01	4.9571	10.987065	0.000294	2.939107	0.995796	0.000118
 127	1.2537e+01	5.0068	11.132402	0.000365	3.648547	1.236161	0.000146
 128	1.2636e+01	5.0485	11.245442	0.000284	2.837758	0.961459	0.000114
 129	1.2736e+01	5.0966	11.350407	0.000264	2.635061	0.892783	0.000105
 130	1.2835e+01	5.1287	11.524004	0.000436	4.357986	1.476526	0.000174
 131	1.2935e+01	5.1688	11.616858	0.000233	2.331016	0.789770	0.000093
 132	1.3034e+01	5.2089	11.810641	0.000486	4.864729	1.648215	0.000195
 133	1.3134e+01	5.2442	11.927718	0.000294	2.939107	0.995796	0.000118
 134	1.3233e+01	5.2843	12.024609	0.000243	2.432364	0.824107	0.000097
 135	1.3333e+01	5.3244	12.190131	0.000416	4.155289	1.407850	0.000166
 136	1.3432e+01	5.3646	12.371802	0.000456	4.560683	1.545201	0.000183
 137	1.3532e+01	5.4079	12.436397	0.000162	1.621576	0.549405	0.000065
 138	1.3632e+01	5.4464	12.569622	0.000334	3.344501	1.133148	0.000134
 139	1.3731e+01	5.4881	12.718996	0.000375	3.749895	1.270499	0.000150
 140	1.3831e+01	5.5250	12.840110	0.000304	3.040456	1.030134	0.000122
 141	1.3930e+01	5.5683	12.937001	0.000243	2.432364	0.824107	0.000097
 142	1.4030e+01	5.5940	13.118673	0.000456	4.560683	1.545201	0.000183
 143	1.4129e+01	5.6453	13.276121	0.000395	3.952592	1.339174	0.000158
 144	1.4229e+01	5.6918	13.377049	0.000253	2.533713	0.858445	0.000101
 145	1.4328e+01	5.7287	13.498163	0.000304	3.040456	1.030134	0.000122
 146	1.4428e+01	5.7672	13.647537	0.000375	3.749895	1.270499	0.000150
 147	1.4527e+01	5.8041	13.821134	0.000436	4.357986	1.476526	0.000174
 148	1.4627e+01	5.8362	13.897840	0.000193	1.925622	0.652418	0.000077
 149	1.4726e+01	5.8827	14.059325	0.000405	4.053941	1.373512	0.000162
 150	1.4825e+01	5.9228	14.208699	0.000375	3.749895	1.270499	0.000150
 151	1.4925e+01	5.9517	14.317702	0.000274	2.736410	0.927121	0.000110
 152	1.5024e+01	6.0062	14.434779	0.000294	2.939107	0.995796	0.000118
 153	1.5124e+01	6.0399	14.572041	0.000345	3.445850	1.167485	0.000138
 154	1.5223e+01	6.0752	14.729490	0.000395	3.952592	1.339174	0.000158
 155	1.5323e+01	6.1201	14.886938	0.000395	3.952592	1.339174	0.000158
 156	1.5422e+01	6.1570	15.008052	0.000304	3.040456	1.030134	0.000122
 157	1.5522e+01	6.2036	15.141278	0.000334	3.344501	1.133148	0.000134
 158	1.5621e+01	6.2501	15.286614	0.000365	3.648547	1.236161	0.000146
 159	1.5721e+01	6.2886	15.391580	0.000264	2.635061	0.892783	0.000105
 160	1.5820e+01	6.3159	15.512694	0.000304	3.040456	1.030134	0.000122
 161	1.5920e+01	6.3560	15.621697	0.000274	2.736410	0.927121	0.000110
 162	1.6020e+01	6.3929	15.758959	0.000345	3.445850	1.167485	0.000138
 163	1.6119e+01	6.4506	15.916408	0.000395	3.952592	1.339174	0.000158
 164	1.6218e+01	6.4843	16.065782	0.000375	3.749895	1.270499	0.000150
 165	1.6318e+01	6.5100	16.162673	0.000243	2.432364	0.824107	0.000097
 166	1.6418e+01	6.5645	16.299936	0.000345	3.445850	1.167485	0.000138
 167	1.6517e+01	6.5950	16.445272	0.000365	3.648547	1.236161	0.000146
 168	1.6616e+01	6.6447	16.562349	0.000294	2.939107	0.995796	0.000118
 169	1.6716e+01	6.6752	16.667315	0.000264	2.635061	0.892783	0.000105
 170	1.6816e+01	6.7217	16.836875	0.000426	4.256638	1.442188	0.000170
 171	1.6915e+01	6.7586	16.937803	0.000253	2.533713	0.858445	0.000101
 172	1.7015e+01	6.7955	17.087177	0.000375	3.749895	1.270499	0.000150
 173	1.7114e+01	6.8404	17.192143	0.000264	2.635061	0.892783	0.000105
 174	1.7213e+01	6.8790	17.317294	0.000314	3.141804	1.064472	0.000126
 175	1.7313e+01	6.9191	17.478779	0.000405	4.053941	1.373512	0.000162
 176	1.7413e+01	6.9656	17.599893	0.000304	3.040456	1.030134	0.000122
 177	1.7512e+01	6.9929	17.721007	0.000304	3.040456	1.030134	0.000122
 178	1.7611e+01	7.0394	17.862307	0.000355	3.547198	1.201823	0.000142
 179	1.7711e+01	7.0715	17.979384	0.000294	2.939107	0.995796	0.000118
 180	1.7811e+01	7.1148	18.112609	0.000334	3.344501	1.133148	0.000134
 181	1.7910e+01	7.1597	18.237761	0.000314	3.141804	1.064472	0.000126
 182	1.8009e+01	7.1966	18.387135	0.000375	3.749895	1.270499	0.000150
 183	1.8109e+01	7.2415	18.504212	0.000294	2.939107	0.995796	0.000118
 184	1.8209e+01	7.2816	18.625326	0.000304	3.040456	1.030134	0.000122
 185	1.8308e+01	7.3201	18.766625	0.000355	3.547198	1.201823	0.000142
 186	1.8407e+01	7.3490	18.867554	0.000253	2.533713	0.858445	0.000101
 187	1.8507e+01	7.3971	19.020965	0.000385	3.851244	1.304837	0.000154
 188	1.8607e+01	7.4404	19.154191	0.000334	3.344501	1.133148	0.000134
 189	1.8706e+01	7.4757	19.287416	0.000334	3.344501	1.133148	0.000134
 190	1.8805e+01	7.5222	19.360084	0.000182	1.824273	0.618081	0.000073
 191	1.8905e+01	7.5543	19.497347	0.000345	3.445850	1.167485	0.000138
 192	1.9005e+01	7.5928	19.614424	0.000294	2.939107	0.995796	0.000118
 193	1.9104e+01	7.6378	19.723427	0.000274	2.736410	0.927121	0.000110
 194	1.9203e+01	7.6779	19.884912	0.000405	4.053941	1.373512	0.000162
 195	1.9303e+01	7.7132	20.014100	0.000324	3.243153	1.098810	0.000130
 196	1.9402e+01	7.7565	20.139252	0.000314	3.141804	1.064472	0.000126
 197	1.9502e+01	7.7982	20.288626	0.000375	3.749895	1.270499	0.000150
 198	1.9602e+01	7.8351	20.393591	0.000264	2.635061	0.892783	0.000105
 199	1.9701e+01	7.8848	20.510668	0.000294	2.939107	0.995796	0.000118
 200	1.9800e+01	7.9121	20.623708	0.000284	2.837758	0.961459	0.000114
 201	1.9900e+01	7.9602	20.760971	0.000345	3.445850	1.167485	0.000138
 202	2.0000e+01	7.9955	20.902270	0.000355	3.547198	1.201823	0.000142
 203	2.0099e+01	8.0372	21.019347	0.000294	2.939107	0.995796	0.000118
 204	2.0198e+01	8.0725	21.152573	0.000334	3.344501	1.133148	0.000134
 205	2.0298e+01	8.1158	21.310021	0.000395	3.952592	1.339174	0.000158
 206	2.0398e+01	8.1591	21.370578	0.000152	1.520228	0.515067	0.000061
 207	2.0497e+01	8.1944	21.515915	0.000365	3.648547	1.236161	0.000146
 208	2.0596e+01	8.2345	21.632992	0.000294	2.939107	0.995796	0.000118
 209	2.0696e+01	8.2682	21.766217	0.000334	3.344501	1.133148	0.000134
 210	2.0796e+01	8.3083	21.919628	0.000385	3.851244	1.304837	0.000154
 211	2.0895e+01	8.3613	22.008445	0.000223	2.229667	0.755432	0.000089
 212	2.0994e+01	8.3933	22.178005	0.000426	4.256638	1.442188	0.000170
 213	2.1094e+01	8.4351	22.291045	0.000284	2.837758	0.961459	0.000114
 214	2.1194e+01	8.4768	22.424270	0.000334	3.344501	1.133148	0.000134
 215	2.1293e+01	8.5105	22.533273	0.000274	2.736410	0.927121	0.000110
 216	2.1392e+01	8.5570	22.646313	0.000284	2.837758	0.961459	0.000114
 217	2.1492e+01	8.5891	22.759353	0.000284	2.837758	0.961459	0.000114
 218	2.1591e+01	8.6388	22.876430	0.000294	2.939107	0.995796	0.000118
 219	2.1691e+01	8.6677	23.029841	0.000385	3.851244	1.304837	0.000154
 220	2.1791e+01	8.7126	23.130769	0.000253	2.533713	0.858445	0.000101
 221	2.1890e+01	8.7479	23.255920	0.000314	3.141804	1.064472	0.000126
 222	2.1989e+01	8.7944	23.377034	0.000304	3.040456	1.030134	0.000122
 223	2.2089e+01	8.8233	23.465851	0.000223	2.229667	0.755432	0.000089
 224	2.2189e+01	8.8730	23.607151	0.000355	3.547198	1.201823	0.000142
 225	2.2288e+01	8.9099	23.752488	0.000365	3.648547	1.236161	0.000146
 226	2.2387e+01	8.9468	23.857454	0.000264	2.635061	0.892783	0.000105
 227	2.2487e+01	8.9869	23.998753	0.000355	3.547198	1.201823	0.000142
 228	2.2587e+01	9.0318	24.107756	0.000274	2.736410	0.927121	0.000110
 229	2.2686e+01	9.0735	24.216759	0.000274	2.736410	0.927121	0.000110
 230	2.2785e+01	9.1169	24.362096	0.000365	3.648547	1.236161	0.000146
 231	2.2885e+01	9.1457	24.442838	0.000203	2.026970	0.686756	0.000081
 232	2.2985e+01	9.2035	24.572027	0.000324	3.243153	1.098810	0.000130
 233	2.3084e+01	9.2259	24.733512	0.000405	4.053941	1.373512	0.000162
 234	2.3183e+01	9.2660	24.798106	0.000162	1.621576	0.549405	0.000065
 235	2.3283e+01	9.3110	24.899035	0.000253	2.533713	0.858445	0.000101
 236	2.3383e+01	9.3559	25.060520	0.000405	4.053941	1.373512	0.000162
 237	2.3482e+01	9.3912	25.121077	0.000152	1.520228	0.515067	0.000061
 238	2.3581e+01	9.4345	25.314860	0.000486	4.864729	1.648215	0.000195
 239	2.3681e+01	9.4682	25.355231	0.000101	1.013485	0.343378	0.000041
 240	2.3780e+01	9.5115	25.520754	0.000416	4.155289	1.407850	0.000166
 241	2.3880e+01	9.5484	25.641868	0.000304	3.040456	1.030134	0.000122
 242	2.3980e+01	9.5901	25.734722	0.000233	2.331016	0.789770	0.000093
 243	2.4079e+01	9.6270	25.851799	0.000294	2.939107	0.995796	0.000118
 244	2.4178e+01	9.6703	25.985024	0.000334	3.344501	1.133148	0.000134
 245	2.4278e+01	9.7072	26.061730	0.000193	1.925622	0.652418	0.000077
 246	2.4378e+01	9.7585	26.219178	0.000395	3.952592	1.339174	0.000158
 247	2.4477e+01	9.7826	26.356441	0.000345	3.445850	1.167485	0.000138
 248	2.4576e+01	9.8323	26.445258	0.000223	2.229667	0.755432	0.000089
 249	2.4676e+01	9.8580	26.582520	0.000345	3.445850	1.167485	0.000138
 250	2.4776e+01	9.9110	26.687486	0.000264	2.635061	0.892783	0.000105
 251	2.4875e+01	9.9527	26.812637	0.000314	3.141804	1.064472	0.000126
 252	2.4974e+01	9.9928	26.937788	0.000314	3.141804	1.064472	0.000126
 253	2.5074e+01	10.0249	27.018531	0.000203	2.026970	0.686756	0.000081
 254	2.5174e+01	10.0698	27.184053	0.000416	4.155289	1.407850	0.000166
 255	2.5273e+01	10.1051	27.284982	0.000253	2.533713	0.858445	0.000101
 256	2.5372e+01	10.1323	27.418207	0.000334	3.344501	1.133148	0.000134
 257	2.5472e+01	10.1789	27.515099	0.000243	2.432364	0.824107	0.000097
 258	2.5572e+01	10.2190	27.672547	0.000395	3.952592	1.339174	0.000158
 259	2.5671e+01	10.2591	27.757327	0.000213	2.128319	0.721094	0.000085
 260	2.5770e+01	10.2944	27.890552	0.000334	3.344501	1.133148	0.000134
 261	2.5870e+01	10.3457	28.003592	0.000284	2.837758	0.961459	0.000114
 262	2.5970e+01	10.3794	28.120669	0.000294	2.939107	0.995796	0.000118
 263	2.6069e+01	10.4227	28.213523	0.000233	2.331016	0.789770	0.000093
 264	2.6169e+01	10.4756	28.379046	0.000416	4.155289	1.407850	0.000166
 265	2.6268e+01	10.5045	28.455751	0.000193	1.925622	0.652418	0.000077
 266	2.6367e+01	10.5494	28.609162	0.000385	3.851244	1.304837	0.000154
 267	2.6467e+01	10.5831	28.722202	0.000284	2.837758	0.961459	0.000114
 268	2.6567e+01	10.6216	28.827168	0.000264	2.635061	0.892783	0.000105
 269	2.6666e+01	10.6681	28.932133	0.000264	2.635061	0.892783	0.000105
 270	2.6765e+01	10.7131	29.053247	0.000304	3.040456	1.030134	0.000122
 271	2.6865e+01	10.7484	29.170324	0.000294	2.939107	0.995796	0.000118
 272	2.6965e+01	10.7853	29.267216	0.000243	2.432364	0.824107	0.000097
 273	2.7064e+01	10.8350	29.392367	0.000314	3.141804	1.064472	0.000126
 274	2.7163e+01	10.8655	29.561926	0.000426	4.256638	1.442188	0.000170
 275	2.7263e+01	10.9040	29.626521	0.000162	1.621576	0.549405	0.000065
 276	2.7363e+01	10.9521	29.779932	0.000385	3.851244	1.304837	0.000154
 277	2.7462e+01	10.9858	29.901046	0.000304	3.040456	1.030134	0.000122
 278	2.7561e+01	11.0291	29.997937	0.000243	2.432364	0.824107	0.000097
 279	2.7661e+01	11.0532	30.115014	0.000294	2.939107	0.995796	0.000118
 280	2.7761e+01	11.1045	30.240165	0.000314	3.141804	1.064472	0.000126
 281	2.7860e+01	11.1366	30.369354	0.000324	3.243153	1.098810	0.000130
 282	2.7959e+01	11.1895	30.522765	0.000385	3.851244	1.304837	0.000154
 283	2.8059e+01	11.2232	30.603507	0.000203	2.026970	0.686756	0.000081
 284	2.8159e+01	11.2585	30.732696	0.000324	3.243153	1.098810	0.000130
 285	2.8258e+01	11.3066	30.833624	0.000253	2.533713	0.858445	0.000101
 286	2.8358e+01	11.3435	30.999147	0.000416	4.155289	1.407850	0.000166
 287	2.8457e+01	11.3884	31.079889	0.000203	2.026970	0.686756	0.000081
 288	2.8556e+01	11.4237	31.221189	0.000355	3.547198	1.201823	0.000142
 289	2.8656e+01	11.4574	31.318080	0.000243	2.432364	0.824107	0.000097
 290	2.8756e+01	11.5040	31.463417	0.000365	3.648547	1.236161	0.000146
 291	2.8855e+01	11.5489	31.580494	0.000294	2.939107	0.995796	0.000118
 292	2.8954e+01	11.5697	31.689497	0.000274	2.736410	0.927121	0.000110
 293	2.9054e+01	11.6146	31.846945	0.000395	3.952592	1.339174	0.000158
 294	2.9154e+01	11.6612	31.972096	0.000314	3.141804	1.064472	0.000126
 295	2.9253e+01	11.6997	32.068988	0.000243	2.432364	0.824107	0.000097
 296	2.9352e+01	11.7350	32.210287	0.000355	3.547198	1.201823	0.000142
 297	2.9452e+01	11.7799	32.319290	0.000274	2.736410	0.927121	0.000110
 298	2.9552e+01	11.8200	32.400033	0.000203	2.026970	0.686756	0.000081
 299	2.9651e+01	11.8569	32.581704	0.000456	4.560683	1.545201	0.000183
 300	2.9750e+01	11.8970	32.674558	0.000233	2.331016	0.789770	0.000093
 301	2.9850e+01	11.9451	32.815858	0.000355	3.547198	1.201823	0.000142
 302	2.9950e+01	11.9804	32.953120	0.000345	3.445850	1.167485	0.000138
 303	3.0049e+01	12.0141	33.102494	0.000375	3.749895	1.270499	0.000150
 304	3.0148e+01	12.0622	33.179200	0.000193	1.925622	0.652418	0.000077
 305	3.0248e+01	12.1023	33.316463	0.000345	3.445850	1.167485	0.000138
 306	3.0348e+01	12.1440	33.441614	0.000314	3.141804	1.064472	0.000126
 307	3.0447e+01	12.1809	33.566765	0.000314	3.141804	1.064472	0.000126
 308	3.0547e+01	12.2178	33.679805	0.000284	2.837758	0.961459	0.000114
 309	3.0646e+01	12.2676	33.821105	0.000355	3.547198	1.201823	0.000142
 310	3.0745e+01	12.3029	33.930107	0.000274	2.736410	0.927121	0.000110
 311	3.0845e+01	12.3349	34.087556	0.000395	3.952592	1.339174	0.000158
 312	3.0945e+01	12.3799	34.216744	0.000324	3.243153	1.098810	0.000130
 313	3.1044e+01	12.4248	34.337858	0.000304	3.040456	1.030134	0.000122
 314	3.1143e+01	12.4553	34.523566	0.000466	4.662032	1.579539	0.000187
 315	3.1243e+01	12.4873	34.604309	0.000203	2.026970	0.686756	0.000081
 316	3.1343e+01	12.5371	34.753683	0.000375	3.749895	1.270499	0.000150
 317	3.1442e+01	12.5756	34.830389	0.000193	1.925622	0.652418	0.000077
 318	3.1541e+01	12.6221	34.975725	0.000365	3.648547	1.236161	0.000146
 319	3.1641e+01	12.6638	35.056468	0.000203	2.026970	0.686756	0.000081
 320	3.1741e+01	12.7023	35.246214	0.000476	4.763380	1.613877	0.000191
 321	3.1840e+01	12.7408	35.363290	0.000294	2.939107	0.995796	0.000118
 322	3.1939e+01	12.7809	35.504590	0.000355	3.547198	1.201823	0.000142
 323	3.2039e+01	12.8178	35.593407	0.000223	2.229667	0.755432	0.000089
 324	3.2139e+01	12.8724	35.754893	0.000405	4.053941	1.373512	0.000162
 325	3.2238e+01	12.8916	35.896192	0.000355	3.547198	1.201823	0.000142
 326	3.2337e+01	12.9349	36.009232	0.000284	2.837758	0.961459	0.000114
 327	3.2437e+01	12.9734	36.134383	0.000314	3.141804	1.064472	0.000126
 328	3.2536e+01	13.0183	36.299906	0.000416	4.155289	1.407850	0.000166
 329	3.2636e+01	13.0504	36.437169	0.000345	3.445850	1.167485	0.000138
 330	3.2736e+01	13.0970	36.550208	0.000284	2.837758	0.961459	0.000114
 331	3.2835e+01	13.1355	36.671322	0.000304	3.040456	1.030134	0.000122
 332	3.2934e+01	13.1740	36.780325	0.000274	2.736410	0.927121	0.000110
 333	3.3034e+01	13.2093	36.937773	0.000395	3.952592	1.339174	0.000158
 334	3.3133e+01	13.2542	37.062925	0.000314	3.141804	1.064472	0.000126
 335	3.3233e+01	13.2911	37.171927	0.000274	2.736410	0.927121	0.000110
 336	3.3333e+01	13.3280	37.329376	0.000395	3.952592	1.339174	0.000158
 337	3.3432e+01	13.3745	37.458564	0.000324	3.243153	1.098810	0.000130
 338	3.3532e+01	13.4146	37.559492	0.000253	2.533713	0.858445	0.000101
 339	3.3631e+01	13.4483	37.684644	0.000314	3.141804	1.064472	0.000126
 340	3.3730e+01	13.4964	37.834018	0.000375	3.749895	1.270499	0.000150
 341	3.3830e+01	13.5333	38.011652	0.000446	4.459335	1.510864	0.000179
 342	3.3929e+01	13.5670	38.092394	0.000203	2.026970	0.686756	0.000081
 343	3.4029e+01	13.6119	38.225620	0.000334	3.344501	1.133148	0.000134
 344	3.4129e+01	13.6488	38.362882	0.000345	3.445850	1.167485	0.000138
 345	3.4228e+01	13.6953	38.467848	0.000264	2.635061	0.892783	0.000105
 346	3.4328e+01	13.7290	38.584925	0.000294	2.939107	0.995796	0.000118
 347	3.4427e+01	13.7691	38.734299	0.000375	3.749895	1.270499	0.000150
 348	3.4526e+01	13.8157	38.867524	0.000334	3.344501	1.133148	0.000134
 349	3.4626e+01	13.8558	39.000750	0.000334	3.344501	1.133148	0.000134
 350	3.4725e+01	13.8894	39.150124	0.000375	3.749895	1.270499	0.000150
 351	3.4825e+01	13.9199	39.263164	0.000284	2.837758	0.961459	0.000114
 352	3.4925e+01	13.9713	39.388315	0.000314	3.141804	1.064472	0.000126
 353	3.5024e+01	14.0114	39.521540	0.000334	3.344501	1.133148	0.000134
 354	3.5123e+01	14.0531	39.658803	0.000345	3.445850	1.167485	0.000138
 355	3.5223e+01	14.0932	39.787991	0.000324	3.243153	1.098810	0.000130
 356	3.5322e+01	14.1349	39.872771	0.000213	2.128319	0.721094	0.000085
 357	3.5422e+01	14.1686	40.074628	0.000507	5.067426	1.716890	0.000203
 358	3.5522e+01	14.2103	40.155371	0.000203	2.026970	0.686756	0.000081
 359	3.5621e+01	14.2504	40.280522	0.000314	3.141804	1.064472	0.000126
 360	3.5721e+01	14.2905	40.425859	0.000365	3.648547	1.236161	0.000146
 361	3.5820e+01	14.3274	40.542936	0.000294	2.939107	0.995796	0.000118
 362	3.5919e+01	14.3755	40.676161	0.000334	3.344501	1.133148	0.000134
 363	3.6019e+01	14.4060	40.777090	0.000253	2.533713	0.858445	0.000101
 364	3.6118e+01	14.4461	40.966835	0.000476	4.763380	1.613877	0.000191
 365	3.6218e+01	14.4894	41.035466	0.000172	1.722925	0.583743	0.000069
 366	3.6318e+01	14.5295	41.188877	0.000385	3.851244	1.304837	0.000154
 367	3.6417e+01	14.5632	41.281731	0.000233	2.331016	0.789770	0.000093
 368	3.6517e+01	14.6114	41.402846	0.000304	3.040456	1.030134	0.000122
 369	3.6616e+01	14.6482	41.548182	0.000365	3.648547	1.236161	0.000146
 370	3.6715e+01	14.6884	41.709668	0.000405	4.053941	1.373512	0.000162
 371	3.6815e+01	14.7269	41.806559	0.000243	2.432364	0.824107	0.000097
 372	3.6914e+01	14.7589	41.939785	0.000334	3.344501	1.133148	0.000134
 373	3.7014e+01	14.8039	42.036676	0.000243	2.432364	0.824107	0.000097
 374	3.7114e+01	14.8424	42.169901	0.000334	3.344501	1.133148	0.000134
 375	3.7213e+01	14.8873	42.295053	0.000314	3.141804	1.064472	0.000126
 376	3.7313e+01	14.9258	42.400018	0.000264	2.635061	0.892783	0.000105
 377	3.7412e+01	14.9659	42.521132	0.000304	3.040456	1.030134	0.000122
 378	3.7511e+01	15.0204	42.658395	0.000345	3.445850	1.167485	0.000138
 379	3.7611e+01	15.0445	42.783546	0.000314	3.141804	1.064472	0.000126
 380	3.7711e+01	15.0782	42.908697	0.000314	3.141804	1.064472	0.000126
 381	3.7810e+01	15.1295	43.009626	0.000253	2.533713	0.858445	0.000101
 382	3.7910e+01	15.1648	43.102480	0.000233	2.331016	0.789770	0.000093
 383	3.8009e+01	15.2129	43.247817	0.000365	3.648547	1.236161	0.000146
 384	3.8108e+01	15.2370	43.425451	0.000446	4.459335	1.510864	0.000179
 385	3.8208e+01	15.2883	43.486008	0.000152	1.520228	0.515067	0.000061
 386	3.8307e+01	15.3268	43.603085	0.000294	2.939107	0.995796	0.000118
 387	3.8407e+01	15.3669	43.732273	0.000324	3.243153	1.098810	0.000130
 388	3.8507e+01	15.4087	43.825127	0.000233	2.331016	0.789770	0.000093
 389	3.8606e+01	15.4439	43.946241	0.000304	3.040456	1.030134	0.000122
 390	3.8706e+01	15.4825	44.083504	0.000345	3.445850	1.167485	0.000138
 391	3.8805e+01	15.5290	44.200581	0.000294	2.939107	0.995796	0.000118
 392	3.8904e+01	15.5611	44.297472	0.000243	2.432364	0.824107	0.000097
 393	3.9004e+01	15.6012	44.430697	0.000334	3.344501	1.133148	0.000134
 394	3.9103e+01	15.6413	44.555849	0.000314	3.141804	1.064472	0.000126
 395	3.9203e+01	15.6830	44.620443	0.000162	1.621576	0.549405	0.000065
 396	3.9303e+01	15.7295	44.769817	0.000375	3.749895	1.270499	0.000150
 397	3.9402e+01	15.7728	44.854597	0.000213	2.128319	0.721094	0.000085
 398	3.9502e+01	15.8049	45.024156	0.000426	4.256638	1.442188	0.000170
 399	3.9601e+01	15.8466	45.088750	0.000162	1.621576	0.549405	0.000065
 400	3.9700e+01	15.8787	45.226013	0.000345	3.445850	1.167485	0.000138
 401	3.9800e+01	15.9300	45.343090	0.000294	2.939107	0.995796	0.000118
 402	3.9900e+01	15.9573	45.423833	0.000203	2.026970	0.686756	0.000081
 403	3.9999e+01	16.0070	45.524761	0.000253	2.533713	0.858445	0.000101
 404	4.0099e+01	16.0520	45.653949	0.000324	3.243153	1.098810	0.000130
 405	4.0198e+01	16.0776	45.758915	0.000264	2.635061	0.892783	0.000105
 406	4.0297e+01	16.1193	45.920400	0.000405	4.053941	1.373512	0.000162
 407	4.0397e+01	16.1562	46.025366	0.000264	2.635061	0.892783	0.000105
 408	4.0496e+01	16.2092	46.130332	0.000264	2.635061	0.892783	0.000105
 409	4.0596e+01	16.2445	46.243371	0.000284	2.837758	0.961459	0.000114
 410	4.0696e+01	16.2846	46.364485	0.000304	3.040456	1.030134	0.000122
 411	4.0795e+01	16.3263	46.453302	0.000223	2.229667	0.755432	0.000089
 412	4.0895e+01	16.3616	46.566342	0.000284	2.837758	0.961459	0.000114
 413	4.0994e+01	16.4065	46.711679	0.000365	3.648547	1.236161	0.000146
 414	4.1093e+01	16.4434	46.784348	0.000182	1.824273	0.618081	0.000073
 415	4.1193e+01	16.4787	46.901424	0.000294	2.939107	0.995796	0.000118
 416	4.1292e+01	16.5220	46.982167	0.000203	2.026970	0.686756	0.000081
 417	4.1392e+01	16.5541	47.115393	0.000334	3.344501	1.133148	0.000134
 418	4.1492e+01	16.6102	47.196135	0.000203	2.026970	0.686756	0.000081
 419	4.1591e+01	16.6455	47.365695	0.000426	4.256638	1.442188	0.000170
 420	4.1691e+01	16.6776	47.474698	0.000274	2.736410	0.927121	0.000110
 421	4.1790e+01	16.7193	47.579663	0.000264	2.635061	0.892783	0.000105
 422	4.1889e+01	16.7658	47.708852	0.000324	3.243153	1.098810	0.000130
 423	4.1989e+01	16.8059	47.773446	0.000162	1.621576	0.549405	0.000065
 424	4.2089e+01	16.8444	47.922820	0.000375	3.749895	1.270499	0.000150
 425	4.2188e+01	16.8733	48.007600	0.000213	2.128319	0.721094	0.000085
 426	4.2288e+01	16.9150	48.144862	0.000345	3.445850	1.167485	0.000138
 427	4.2387e+01	16.9712	48.225605	0.000203	2.026970	0.686756	0.000081
 428	4.2486e+01	17.0001	48.358830	0.000334	3.344501	1.133148	0.000134
 429	4.2586e+01	17.0370	48.447647	0.000223	2.229667	0.755432	0.000089
 430	4.2685e+01	17.0851	48.580873	0.000334	3.344501	1.133148	0.000134
 431	4.2785e+01	17.1268	48.730247	0.000375	3.749895	1.270499	0.000150
 432	4.2885e+01	17.1621	48.823101	0.000233	2.331016	0.789770	0.000093
 433	4.2984e+01	17.2070	48.936141	0.000284	2.837758	0.961459	0.000114
 434	4.3084e+01	17.2375	49.049181	0.000284	2.837758	0.961459	0.000114
 435	4.3183e+01	17.2792	49.174332	0.000314	3.141804	1.064472	0.000126
 436	4.3282e+01	17.3241	49.214703	0.000101	1.013485	0.343378	0.000041
 437	4.3382e+01	17.3610	49.335817	0.000304	3.040456	1.030134	0.000122
 438	4.3481e+01	17.3899	49.460968	0.000314	3.141804	1.064472	0.000126
 439	4.3581e+01	17.4364	49.578045	0.000294	2.939107	0.995796	0.000118
 440	4.3681e+01	17.4765	49.707234	0.000324	3.243153	1.098810	0.000130
 441	4.3780e+01	17.5102	49.787976	0.000203	2.026970	0.686756	0.000081
 442	4.3880e+01	17.5631	49.905053	0.000294	2.939107	0.995796	0.000118
 443	4.3979e+01	17.5984	50.034242	0.000324	3.243153	1.098810	0.000130
 444	4.4078e+01	17.6385	50.119022	0.000213	2.128319	0.721094	0.000085
 445	4.4178e+01	17.6786	50.211876	0.000233	2.331016	0.789770	0.000093
 446	4.4278e+01	17.7155	50.345101	0.000334	3.344501	1.133148	0.000134
 447	4.4377e+01	17.7524	50.450067	0.000264	2.635061	0.892783	0.000105
 448	4.4477e+01	17.7925	50.563107	0.000284	2.837758	0.961459	0.000114
 449	4.4576e+01	17.8407	50.627701	0.000162	1.621576	0.549405	0.000065
 450	4.4675e+01	17.8776	50.781112	0.000385	3.851244	1.304837	0.000154
 451	4.4775e+01	17.9129	50.878003	0.000243	2.432364	0.824107	0.000097
 452	4.4874e+01	17.9626	50.991043	0.000284	2.837758	0.961459	0.000114
 453	4.4974e+01	17.9915	51.124268	0.000334	3.344501	1.133148	0.000134
 454	4.5074e+01	18.0316	51.184825	0.000152	1.520228	0.515067	0.000061
 455	4.5173e+01	18.0813	51.309977	0.000314	3.141804	1.064472	0.000126
 456	4.5273e+01	18.1166	51.423016	0.000284	2.837758	0.961459	0.000114
 457	4.5372e+01	18.1583	51.515871	0.000233	2.331016	0.789770	0.000093
 458	4.5471e+01	18.1984	51.600650	0.000213	2.128319	0.721094	0.000085
 459	4.5571e+01	18.2305	51.721765	0.000304	3.040456	1.030134	0.000122
 460	4.5670e+01	18.2754	51.830767	0.000274	2.736410	0.927121	0.000110
 461	4.5770e+01	18.3187	51.951881	0.000304	3.040456	1.030134	0.000122
 462	4.5870e+01	18.3540	52.020513	0.000172	1.722925	0.583743	0.000069
 463	4.5969e+01	18.3893	52.145664	0.000314	3.141804	1.064472	0.000126
 464	4.6069e+01	18.4423	52.218332	0.000182	1.824273	0.618081	0.000073
 465	4.6168e+01	18.4711	52.347521	0.000324	3.243153	1.098810	0.000130
 466	4.6267e+01	18.5193	52.509006	0.000405	4.053941	1.373512	0.000162
 467	4.6367e+01	18.5578	52.533229	0.000061	0.608091	0.206027	0.000024
 468	4.6467e+01	18.5947	52.650306	0.000294	2.939107	0.995796	0.000118
 469	4.6566e+01	18.6284	52.759308	0.000274	2.736410	0.927121	0.000110
 470	4.6666e+01	18.6813	52.876385	0.000294	2.939107	0.995796	0.000118
 471	4.6765e+01	18.7214	52.969239	0.000233	2.331016	0.789770	0.000093
 472	4.6864e+01	18.7567	53.070168	0.000253	2.533713	0.858445	0.000101
 473	4.6964e+01	18.7888	53.187245	0.000294	2.939107	0.995796	0.000118
 474	4.7063e+01	18.8321	53.328545	0.000355	3.547198	1.201823	0.000142
 475	4.7163e+01	18.8690	53.409287	0.000203	2.026970	0.686756	0.000081
 476	4.7263e+01	18.9075	53.518290	0.000274	2.736410	0.927121	0.000110
 477	4.7362e+01	18.9444	53.623255	0.000264	2.635061	0.892783	0.000105
 478	4.7462e+01	18.9909	53.744370	0.000304	3.040456	1.030134	0.000122
 479	4.7561e+01	19.0406	53.829149	0.000213	2.128319	0.721094	0.000085
 480	4.7660e+01	19.0791	53.930078	0.000253	2.533713	0.858445	0.000101
 481	4.7760e+01	19.1080	54.035043	0.000264	2.635061	0.892783	0.000105
 482	4.7859e+01	19.1561	54.168269	0.000334	3.344501	1.133148	0.000134
 483	4.7959e+01	19.1946	54.289383	0.000304	3.040456	1.030134	0.000122
 484	4.8059e+01	19.2235	54.366088	0.000193	1.925622	0.652418	0.000077
 485	4.8158e+01	19.2765	54.442794	0.000193	1.925622	0.652418	0.000077
 486	4.8258e+01	19.3118	54.604279	0.000405	4.053941	1.373512	0.000162
 487	4.8357e+01	19.3535	54.680985	0.000193	1.925622	0.652418	0.000077
 488	4.8456e+01	19.3888	54.806136	0.000314	3.141804	1.064472	0.000126
 489	4.8556e+01	19.4353	54.931287	0.000314	3.141804	1.064472	0.000126
 490	4.8656e+01	19.4674	55.024142	0.000233	2.331016	0.789770	0.000093
 491	4.8755e+01	19.5155	55.121033	0.000243	2.432364	0.824107	0.000097
 492	4.8855e+01	19.5540	55.250221	0.000324	3.243153	1.098810	0.000130
 493	4.8954e+01	19.5925	55.351150	0.000253	2.533713	0.858445	0.000101
 494	4.9053e+01	19.6262	55.460152	0.000274	2.736410	0.927121	0.000110
 495	4.9153e+01	19.6615	55.569155	0.000274	2.736410	0.927121	0.000110
 496	4.9252e+01	19.7192	55.690269	0.000304	3.040456	1.030134	0.000122
 497	4.9352e+01	19.7529	55.807346	0.000294	2.939107	0.995796	0.000118
 498	4.9452e+01	19.7898	55.892126	0.000213	2.128319	0.721094	0.000085
 499	4.9551e+01	19.8299	55.989017	0.000243	2.432364	0.824107	0.000097
 500	4.9651e+01	19.8700	56.106094	0.000294	2.939107	0.995796	0.000118
 501	4.9750e+01	19.9133	56.223171	0.000294	2.939107	0.995796	0.000118
 502	4.9849e+01	19.9518	56.328136	0.000264	2.635061	0.892783	0.000105
 503	4.9949e+01	19.9775	56.425028	0.000243	2.432364	0.824107	0.000097
 504	5.0048e+01	19.9534	56.352359	0.000182	1.824273	0.618081	-0.000073
 505	5.0148e+01	19.9117	56.295839	0.000142	1.418879	0.480729	-0.000057
 506	5.0248e+01	19.8668	56.231245	0.000162	1.621576	0.549405	-0.000065
 507	5.0347e+01	19.8267	56.211059	0.000051	0.506743	0.171689	-0.000020
 508	5.0447e+01	19.7850	56.142428	0.000172	1.722925	0.583743	-0.000069
 509	5.0546e+01	19.7481	56.025351	0.000294	2.939107	0.995796	-0.000118
 510	5.0645e+01	19.7064	55.968831	0.000142	1.418879	0.480729	-0.000057
 511	5.0745e+01	19.6727	55.940571	0.000071	0.709440	0.240365	-0.000028
 512	5.0844e+01	19.6326	55.871940	0.000172	1.722925	0.583743	-0.000069
 513	5.0944e+01	19.5925	55.807346	0.000162	1.621576	0.549405	-0.000065
 514	5.1044e+01	19.5428	55.734677	0.000182	1.824273	0.618081	-0.000073
 515	5.1143e+01	19.5123	55.686232	0.000122	1.216182	0.412054	-0.000049
 516	5.1242e+01	19.4690	55.593378	0.000233	2.331016	0.789770	-0.000093
 517	5.1342e+01	19.4337	55.557043	0.000091	0.912137	0.309040	-0.000037
 518	5.1441e+01	19.3839	55.460152	0.000243	2.432364	0.824107	-0.000097
 519	5.1541e+01	19.3487	55.403632	0.000142	1.418879	0.480729	-0.000057
 520	5.1641e+01	19.3021	55.395558	0.000020	0.202697	0.068676	-0.000008
 521	5.1740e+01	19.2733	55.278481	0.000294	2.939107	0.995796	-0.000118
 522	5.1840e+01	19.2283	55.209850	0.000172	1.722925	0.583743	-0.000069
 523	5.1939e+01	19.1898	55.149293	0.000152	1.520228	0.515067	-0.000061
 524	5.2038e+01	19.1577	55.040290	0.000274	2.736410	0.927121	-0.000110
 525	5.2138e+01	19.1160	55.012030	0.000071	0.709440	0.240365	-0.000028
 526	5.2237e+01	19.0711	54.943399	0.000172	1.722925	0.583743	-0.000069
 527	5.2337e+01	19.0358	54.878805	0.000162	1.621576	0.549405	-0.000065
 528	5.2437e+01	18.9893	54.777876	0.000253	2.533713	0.858445	-0.000101
 529	5.2536e+01	18.9524	54.721356	0.000142	1.418879	0.480729	-0.000057
 530	5.2636e+01	18.9107	54.648688	0.000182	1.824273	0.618081	-0.000073
 531	5.2735e+01	18.8770	54.571982	0.000193	1.925622	0.652418	-0.000077
 532	5.2834e+01	18.8321	54.507388	0.000162	1.621576	0.549405	-0.000065
 533	5.2934e+01	18.7984	54.434720	0.000182	1.824273	0.618081	-0.000073
 534	5.3033e+01	18.7599	54.374163	0.000152	1.520228	0.515067	-0.000061
 535	5.3133e+01	18.7214	54.309569	0.000162	1.621576	0.549405	-0.000065
 536	5.3233e+01	18.6749	54.257086	0.000132	1.317531	0.446391	-0.000053
 537	5.3332e+01	18.6316	54.160194	0.000243	2.432364	0.824107	-0.000097
 538	5.3431e+01	18.5947	54.103675	0.000142	1.418879	0.480729	-0.000057
 539	5.3531e+01	18.5594	54.002746	0.000253	2.533713	0.858445	-0.000101
 540	5.3630e+01	18.5161	53.922003	0.000203	2.026970	0.686756	-0.000081
 541	5.3730e+01	18.4727	53.845298	0.000193	1.925622	0.652418	-0.000077
 542	5.3830e+01	18.4391	53.825112	0.000051	0.506743	0.171689	-0.000020
 543	5.3929e+01	18.3973	53.744370	0.000203	2.026970	0.686756	-0.000081
 544	5.4029e+01	18.3572	53.639404	0.000264	2.635061	0.892783	-0.000105
 545	5.4128e+01	18.3203	53.586921	0.000132	1.317531	0.446391	-0.000053
 546	5.4227e+01	18.2738	53.526364	0.000152	1.520228	0.515067	-0.000061
 547	5.4327e+01	18.2353	53.417362	0.000274	2.736410	0.927121	-0.000110
 548	5.4426e+01	18.2016	53.389102	0.000071	0.709440	0.240365	-0.000028
 549	5.4526e+01	18.1583	53.308359	0.000203	2.026970	0.686756	-0.000081
 550	5.4626e+01	18.1166	53.219542	0.000223	2.229667	0.755432	-0.000089
 551	5.4725e+01	18.0845	53.134762	0.000213	2.128319	0.721094	-0.000085
 552	5.4825e+01	18.0396	53.074205	0.000152	1.520228	0.515067	-0.000061
 553	5.4924e+01	17.9963	52.993462	0.000203	2.026970	0.686756	-0.000081
 554	5.5023e+01	17.9514	52.904645	0.000223	2.229667	0.755432	-0.000089
 555	5.5123e+01	17.9161	52.844088	0.000152	1.520228	0.515067	-0.000061
 556	5.5222e+01	17.8808	52.763346	0.000203	2.026970	0.686756	-0.000081
 557	5.5322e+01	17.8439	52.662417	0.000253	2.533713	0.858445	-0.000101
 558	5.5422e+01	17.7942	52.573600	0.000223	2.229667	0.755432	-0.000089
 559	5.5521e+01	17.7556	52.504969	0.000172	1.722925	0.583743	-0.000069
 560	5.5620e+01	17.7188	52.476709	0.000071	0.709440	0.240365	-0.000028
 561	5.5720e+01	17.6802	52.363669	0.000284	2.837758	0.961459	-0.000114
 562	5.5819e+01	17.6434	52.254666	0.000274	2.736410	0.927121	-0.000110
 563	5.5919e+01	17.5952	52.206221	0.000122	1.216182	0.412054	-0.000049
 564	5.6019e+01	17.5503	52.169887	0.000091	0.912137	0.309040	-0.000037
 565	5.6118e+01	17.5198	52.024550	0.000365	3.648547	1.236161	-0.000146
 566	5.6218e+01	17.4781	51.955918	0.000172	1.722925	0.583743	-0.000069
 567	5.6317e+01	17.4364	51.895361	0.000152	1.520228	0.515067	-0.000061
 568	5.6416e+01	17.3947	51.786359	0.000274	2.736410	0.927121	-0.000110
 569	5.6516e+01	17.3466	51.741950	0.000111	1.114834	0.377716	-0.000045
 570	5.6615e+01	17.3209	51.612762	0.000324	3.243153	1.098810	-0.000130
 571	5.6715e+01	17.2872	51.556242	0.000142	1.418879	0.480729	-0.000057
 572	5.6815e+01	17.2423	51.467425	0.000223	2.229667	0.755432	-0.000089
 573	5.6914e+01	17.1958	51.402831	0.000162	1.621576	0.549405	-0.000065
 574	5.7014e+01	17.1589	51.322088	0.000203	2.026970	0.686756	-0.000081
 575	5.7113e+01	17.1204	51.205011	0.000294	2.939107	0.995796	-0.000118
 576	5.7212e+01	17.0755	51.140417	0.000162	1.621576	0.549405	-0.000065
 577	5.7312e+01	17.0434	51.039489	0.000253	2.533713	0.858445	-0.000101
 578	5.7411e+01	16.9952	50.987006	0.000132	1.317531	0.446391	-0.000053
 579	5.7511e+01	16.9599	50.882040	0.000264	2.635061	0.892783	-0.000105
 580	5.7611e+01	16.9182	50.801298	0.000203	2.026970	0.686756	-0.000081
 581	5.7710e+01	16.8797	50.700369	0.000253	2.533713	0.858445	-0.000101
 582	5.7809e+01	16.8396	50.631738	0.000172	1.722925	0.583743	-0.000069
 583	5.7909e+01	16.8027	50.567144	0.000162	1.621576	0.549405	-0.000065
 584	5.8008e+01	16.7594	50.462178	0.000264	2.635061	0.892783	-0.000105
 585	5.8108e+01	16.7145	50.389510	0.000182	1.824273	0.618081	-0.000073
 586	5.8208e+01	16.6840	50.308767	0.000203	2.026970	0.686756	-0.000081
 587	5.8307e+01	16.6455	50.211876	0.000243	2.432364	0.824107	-0.000097
 588	5.8407e+01	16.6022	50.135170	0.000193	1.925622	0.652418	-0.000077
 589	5.8506e+01	16.5653	50.054427	0.000203	2.026970	0.686756	-0.000081
 590	5.8605e+01	16.5188	49.973685	0.000203	2.026970	0.686756	-0.000081
 591	5.8705e+01	16.4803	49.848534	0.000314	3.141804	1.064472	-0.000126
 592	5.8804e+01	16.4354	49.787976	0.000152	1.520228	0.515067	-0.000061
 593	5.8904e+01	16.3969	49.695122	0.000233	2.331016	0.789770	-0.000093
 594	5.9004e+01	16.3568	49.614380	0.000203	2.026970	0.686756	-0.000081
 595	5.9103e+01	16.3231	49.533637	0.000203	2.026970	0.686756	-0.000081
 596	5.9203e+01	16.2814	49.440783	0.000233	2.331016	0.789770	-0.000093
 597	5.9302e+01	16.2445	49.376189	0.000162	1.621576	0.549405	-0.000065
 598	5.9401e+01	16.1995	49.267186	0.000274	2.736410	0.927121	-0.000110
 599	5.9501e+01	16.1659	49.190480	0.000193	1.925622	0.652418	-0.000077
 600	5.9600e+01	16.1290	49.101663	0.000223	2.229667	0.755432	-0.000089
 601	5.9700e+01	16.0824	49.028995	0.000182	1.824273	0.618081	-0.000073
 602	5.9800e+01	16.0439	48.891732	0.000345	3.445850	1.167485	-0.000138
 603	5.9899e+01	16.0054	48.839250	0.000132	1.317531	0.446391	-0.000053
 604	5.9998e+01	15.9637	48.762544	0.000193	1.925622	0.652418	-0.000077
 605	6.0098e+01	15.9252	48.673727	0.000223	2.229667	0.755432	-0.000089
 606	6.0197e+01	15.8835	48.592984	0.000203	2.026970	0.686756	-0.000081
 607	6.0297e+01	15.8370	48.483982	0.000274	2.736410	0.927121	-0.000110
 608	6.0397e+01	15.8129	48.395165	0.000223	2.229667	0.755432	-0.000089
 609	6.0496e+01	15.7728	48.302311	0.000233	2.331016	0.789770	-0.000093
 610	6.0596e+01	15.7215	48.209456	0.000233	2.331016	0.789770	-0.000093
 611	6.0695e+01	15.6894	48.128714	0.000203	2.026970	0.686756	-0.000081
 612	6.0794e+01	15.6429	48.011637	0.000294	2.939107	0.995796	-0.000118
 613	6.0894e+01	15.6012	47.934931	0.000193	1.925622	0.652418	-0.000077
 614	6.0993e+01	15.5659	47.866300	0.000172	1.722925	0.583743	-0.000069
 615	6.1093e+01	15.5274	47.817854	0.000122	1.216182	0.412054	-0.000049
 616	6.1193e+01	15.4921	47.684629	0.000334	3.344501	1.133148	-0.000134
 617	6.1292e+01	15.4439	47.615997	0.000172	1.722925	0.583743	-0.000069
 618	6.1392e+01	15.4038	47.527180	0.000223	2.229667	0.755432	-0.000089
 619	6.1491e+01	15.3718	47.422215	0.000264	2.635061	0.892783	-0.000105
 620	6.1590e+01	15.3204	47.361658	0.000152	1.520228	0.515067	-0.000061
 621	6.1690e+01	15.2787	47.240544	0.000304	3.040456	1.030134	-0.000122
 622	6.1789e+01	15.2450	47.147690	0.000233	2.331016	0.789770	-0.000093
 623	6.1889e+01	15.2017	47.066947	0.000203	2.026970	0.686756	-0.000081
 624	6.1989e+01	15.1728	46.966019	0.000253	2.533713	0.858445	-0.000101
 625	6.2088e+01	15.1295	46.893350	0.000182	1.824273	0.618081	-0.000073
 626	6.2188e+01	15.0878	46.776273	0.000294	2.939107	0.995796	-0.000118
 627	6.2287e+01	15.0541	46.651122	0.000314	3.141804	1.064472	-0.000126
 628	6.2386e+01	15.0156	46.586528	0.000162	1.621576	0.549405	-0.000065
 629	6.2486e+01	14.9803	46.501748	0.000213	2.128319	0.721094	-0.000085
 630	6.2586e+01	14.9274	46.425042	0.000193	1.925622	0.652418	-0.000077
 631	6.2685e+01	14.8905	46.307965	0.000294	2.939107	0.995796	-0.000118
 632	6.2785e+01	14.8536	46.174740	0.000334	3.344501	1.133148	-0.000134
 633	6.2884e+01	14.8087	46.122257	0.000132	1.317531	0.446391	-0.000053
 634	6.2983e+01	14.7622	46.049589	0.000182	1.824273	0.618081	-0.000073
 635	6.3083e+01	14.7204	45.964809	0.000213	2.128319	0.721094	-0.000085
 636	6.3182e+01	14.6868	45.851769	0.000284	2.837758	0.961459	-0.000114
 637	6.3282e+01	14.6547	45.738729	0.000284	2.837758	0.961459	-0.000114
 638	6.3382e+01	14.6097	45.682209	0.000142	1.418879	0.480729	-0.000057
 639	6.3481e+01	14.5600	45.581281	0.000253	2.533713	0.858445	-0.000101
 640	6.3581e+01	14.5231	45.484390	0.000243	2.432364	0.824107	-0.000097
 641	6.3680e+01	14.4878	45.407684	0.000193	1.925622	0.652418	-0.000077
 642	6.3779e+01	14.4541	45.326941	0.000203	2.026970	0.686756	-0.000081
 643	6.3879e+01	14.4028	45.226013	0.000253	2.533713	0.858445	-0.000101
 644	6.3978e+01	14.3819	45.141233	0.000213	2.128319	0.721094	-0.000085
 645	6.4078e+01	14.3306	45.036268	0.000264	2.635061	0.892783	-0.000105
 646	6.4177e+01	14.2921	44.903042	0.000334	3.344501	1.133148	-0.000134
 647	6.4277e+01	14.2488	44.854597	0.000122	1.216182	0.412054	-0.000049
 648	6.4376e+01	14.2087	44.753668	0.000253	2.533713	0.858445	-0.000101
 649	6.4476e+01	14.1702	44.624480	0.000324	3.243153	1.098810	-0.000130
 650	6.4576e+01	14.1237	44.543737	0.000203	2.026970	0.686756	-0.000081
 651	6.4675e+01	14.0948	44.475106	0.000172	1.722925	0.583743	-0.000069
 652	6.4775e+01	14.0370	44.378215	0.000243	2.432364	0.824107	-0.000097
 653	6.4874e+01	14.0178	44.269212	0.000274	2.736410	0.927121	-0.000110
 654	6.4974e+01	13.9777	44.216729	0.000132	1.317531	0.446391	-0.000053
 655	6.5073e+01	13.9263	44.115801	0.000253	2.533713	0.858445	-0.000101
 656	6.5172e+01	13.8911	44.002761	0.000284	2.837758	0.961459	-0.000114
 657	6.5272e+01	13.8558	43.930093	0.000182	1.824273	0.618081	-0.000073
 658	6.5371e+01	13.8044	43.833201	0.000243	2.432364	0.824107	-0.000097
 659	6.5471e+01	13.7675	43.744384	0.000223	2.229667	0.755432	-0.000089
 660	6.5570e+01	13.7306	43.635382	0.000274	2.736410	0.927121	-0.000110
 661	6.5670e+01	13.6857	43.562713	0.000182	1.824273	0.618081	-0.000073
 662	6.5769e+01	13.6456	43.445636	0.000294	2.939107	0.995796	-0.000118
 663	6.5869e+01	13.6055	43.389116	0.000142	1.418879	0.480729	-0.000057
 664	6.5969e+01	13.5798	43.272039	0.000294	2.939107	0.995796	-0.000118
 665	6.6068e+01	13.5317	43.154962	0.000294	2.939107	0.995796	-0.000118
 666	6.6168e+01	13.4980	43.098443	0.000142	1.418879	0.480729	-0.000057
 667	6.6267e+01	13.4451	42.993477	0.000264	2.635061	0.892783	-0.000105
 668	6.6367e+01	13.4146	42.864289	0.000324	3.243153	1.098810	-0.000130
 669	6.6466e+01	13.3713	42.775472	0.000223	2.229667	0.755432	-0.000089
 670	6.6566e+01	13.3312	42.710878	0.000162	1.621576	0.549405	-0.000065
 671	6.6665e+01	13.2943	42.593801	0.000294	2.939107	0.995796	-0.000118
 672	6.6764e+01	13.2558	42.517095	0.000193	1.925622	0.652418	-0.000077
 673	6.6864e+01	13.2093	42.420204	0.000243	2.432364	0.824107	-0.000097
 674	6.6963e+01	13.1740	42.319275	0.000253	2.533713	0.858445	-0.000101
 675	6.7063e+01	13.1339	42.222384	0.000243	2.432364	0.824107	-0.000097
 676	6.7162e+01	13.0954	42.085122	0.000345	3.445850	1.167485	-0.000138
 677	6.7262e+01	13.0520	42.000342	0.000213	2.128319	0.721094	-0.000085
 678	6.7362e+01	13.0200	41.931710	0.000172	1.722925	0.583743	-0.000069
 679	6.7461e+01	12.9750	41.798485	0.000334	3.344501	1.133148	-0.000134
 680	6.7561e+01	12.9333	41.689482	0.000274	2.736410	0.927121	-0.000110
 681	6.7660e+01	12.8996	41.628925	0.000152	1.520228	0.515067	-0.000061
 682	6.7760e+01	12.8547	41.507811	0.000304	3.040456	1.030134	-0.000122
 683	6.7859e+01	12.8162	41.431106	0.000193	1.925622	0.652418	-0.000077
 684	6.7959e+01	12.7761	41.301917	0.000324	3.243153	1.098810	-0.000130
 685	6.8058e+01	12.7392	41.221174	0.000203	2.026970	0.686756	-0.000081
 686	6.8157e+01	12.7007	41.132357	0.000223	2.229667	0.755432	-0.000089
 687	6.8257e+01	12.6542	41.007206	0.000314	3.141804	1.064472	-0.000126
 688	6.8356e+01	12.6237	40.954723	0.000132	1.317531	0.446391	-0.000053
 689	6.8456e+01	12.5724	40.845721	0.000274	2.736410	0.927121	-0.000110
 690	6.8555e+01	12.5435	40.748830	0.000243	2.432364	0.824107	-0.000097
 691	6.8655e+01	12.5018	40.643864	0.000264	2.635061	0.892783	-0.000105
 692	6.8754e+01	12.4569	40.551010	0.000233	2.331016	0.789770	-0.000093
 693	6.8854e+01	12.4168	40.442007	0.000274	2.736410	0.927121	-0.000110
 694	6.8954e+01	12.3863	40.373376	0.000172	1.722925	0.583743	-0.000069
 695	6.9053e+01	12.3285	40.264373	0.000274	2.736410	0.927121	-0.000110
 696	6.9153e+01	12.2868	40.135185	0.000324	3.243153	1.098810	-0.000130
 697	6.9252e+01	12.2579	40.034257	0.000253	2.533713	0.858445	-0.000101
 698	6.9352e+01	12.2194	39.941402	0.000233	2.331016	0.789770	-0.000093
 699	6.9451e+01	12.1841	39.860660	0.000203	2.026970	0.686756	-0.000081
 700	6.9550e+01	12.1473	39.751657	0.000274	2.736410	0.927121	-0.000110
 701	6.9650e+01	12.1087	39.610357	0.000355	3.547198	1.201823	-0.000142
 702	6.9749e+01	12.0606	39.549800	0.000152	1.520228	0.515067	-0.000061
 703	6.9849e+01	12.0205	39.452909	0.000243	2.432364	0.824107	-0.000097
 704	6.9948e+01	11.9820	39.319684	0.000334	3.344501	1.133148	-0.000134
 705	7.0048e+01	11.9435	39.234904	0.000213	2.128319	0.721094	-0.000085
 706	7.0147e+01	11.8970	39.125901	0.000274	2.736410	0.927121	-0.000110
 707	7.0247e+01	11.8537	39.033047	0.000233	2.331016	0.789770	-0.000093
 708	7.0347e+01	11.8232	38.920007	0.000284	2.837758	0.961459	-0.000114
 709	7.0446e+01	11.7783	38.811004	0.000274	2.736410	0.927121	-0.000110
 710	7.0546e+01	11.7430	38.718150	0.000233	2.331016	0.789770	-0.000093
 711	7.0645e+01	11.6933	38.633370	0.000213	2.128319	0.721094	-0.000085
 712	7.0745e+01	11.6596	38.540516	0.000233	2.331016	0.789770	-0.000093
 713	7.0844e+01	11.6307	38.411328	0.000324	3.243153	1.098810	-0.000130
 714	7.0944e+01	11.5794	38.290214	0.000304	3.040456	1.030134	-0.000122
 715	7.1043e+01	11.5441	38.265991	0.000061	0.608091	0.206027	-0.000024
 716	7.1142e+01	11.5088	38.084320	0.000456	4.560683	1.545201	-0.000183
 717	7.1242e+01	11.4606	38.052023	0.000081	0.810788	0.274702	-0.000032
 718	7.1341e+01	11.4286	37.910723	0.000355	3.547198	1.201823	-0.000142
 719	7.1441e+01	11.3901	37.821906	0.000223	2.229667	0.755432	-0.000089
 720	7.1540e+01	11.3499	37.725015	0.000243	2.432364	0.824107	-0.000097
 721	7.1640e+01	11.3082	37.607938	0.000294	2.939107	0.995796	-0.000118
 722	7.1740e+01	11.2617	37.498935	0.000274	2.736410	0.927121	-0.000110
 723	7.1839e+01	11.2184	37.389933	0.000274	2.736410	0.927121	-0.000110
 724	7.1939e+01	11.1863	37.305153	0.000213	2.128319	0.721094	-0.000085
 725	7.2038e+01	11.1382	37.188076	0.000294	2.939107	0.995796	-0.000118
 726	7.2138e+01	11.1029	37.066962	0.000304	3.040456	1.030134	-0.000122
 727	7.2237e+01	11.0596	36.949885	0.000294	2.939107	0.995796	-0.000118
 728	7.2337e+01	11.0147	36.885291	0.000162	1.621576	0.549405	-0.000065
 729	7.2436e+01	10.9874	36.743991	0.000355	3.547198	1.201823	-0.000142
 730	7.2535e+01	10.9441	36.639025	0.000264	2.635061	0.892783	-0.000105
 731	7.2635e+01	10.9024	36.546171	0.000233	2.331016	0.789770	-0.000093
 732	7.2734e+01	10.8478	36.469466	0.000193	1.925622	0.652418	-0.000077
 733	7.2834e+01	10.8286	36.320092	0.000375	3.749895	1.270499	-0.000150
 734	7.2933e+01	10.7853	36.211089	0.000274	2.736410	0.927121	-0.000110
 735	7.3033e+01	10.7419	36.130346	0.000203	2.026970	0.686756	-0.000081
 736	7.3132e+01	10.7066	36.017306	0.000284	2.837758	0.961459	-0.000114
 737	7.3232e+01	10.6698	35.880044	0.000345	3.445850	1.167485	-0.000138
 738	7.3332e+01	10.6345	35.807375	0.000182	1.824273	0.618081	-0.000073
 739	7.3431e+01	10.5831	35.694336	0.000284	2.837758	0.961459	-0.000114
 740	7.3531e+01	10.5414	35.544962	0.000375	3.749895	1.270499	-0.000150
 741	7.3630e+01	10.5093	35.504590	0.000101	1.013485	0.343378	-0.000041
 742	7.3730e+01	10.4548	35.322919	0.000456	4.560683	1.545201	-0.000183
 743	7.3829e+01	10.4339	35.209879	0.000284	2.837758	0.961459	-0.000114
 744	7.3928e+01	10.3874	35.161434	0.000122	1.216182	0.412054	-0.000049
 745	7.4028e+01	10.3425	34.999948	0.000405	4.053941	1.373512	-0.000162
 746	7.4127e+01	10.3056	34.923243	0.000193	1.925622	0.652418	-0.000077
 747	7.4227e+01	10.2687	34.842500	0.000203	2.026970	0.686756	-0.000081
 748	7.4326e+01	10.2142	34.693126	0.000375	3.749895	1.270499	-0.000150
 749	7.4426e+01	10.1853	34.555863	0.000345	3.445850	1.167485	-0.000138
 750	7.4525e+01	10.1500	34.446861	0.000274	2.736410	0.927121	-0.000110
 751	7.4625e+01	10.1019	34.354007	0.000233	2.331016	0.789770	-0.000093
 752	7.4725e+01	10.0714	34.232892	0.000304	3.040456	1.030134	-0.000122
 753	7.4824e+01	10.0329	34.148113	0.000213	2.128319	0.721094	-0.000085
 754	7.4924e+01	9.9880	34.026999	0.000304	3.040456	1.030134	-0.000122
 755	7.5023e+01	9.9623	33.917996	0.000274	2.736410	0.927121	-0.000110
 756	7.5123e+01	9.9142	33.821105	0.000243	2.432364	0.824107	-0.000097
 757	7.5222e+01	9.8676	33.655582	0.000416	4.155289	1.407850	-0.000166
 758	7.5322e+01	9.8307	33.582914	0.000182	1.824273	0.618081	-0.000073
 759	7.5421e+01	9.7906	33.461800	0.000304	3.040456	1.030134	-0.000122
 760	7.5520e+01	9.7473	33.320500	0.000355	3.547198	1.201823	-0.000142
 761	7.5620e+01	9.7168	33.263980	0.000142	1.418879	0.480729	-0.000057
 762	7.5719e+01	9.6703	33.167089	0.000243	2.432364	0.824107	-0.000097
 763	7.5819e+01	9.6382	33.054049	0.000284	2.837758	0.961459	-0.000114
 764	7.5918e+01	9.5965	32.912749	0.000355	3.547198	1.201823	-0.000142
 765	7.6018e+01	9.5500	32.787598	0.000314	3.141804	1.064472	-0.000126
 766	7.6118e+01	9.5083	32.718967	0.000172	1.722925	0.583743	-0.000069
 767	7.6217e+01	9.4650	32.581704	0.000345	3.445850	1.167485	-0.000138
 768	7.6317e+01	9.4297	32.448478	0.000334	3.344501	1.133148	-0.000134
 769	7.6416e+01	9.3864	32.363699	0.000213	2.128319	0.721094	-0.000085
 770	7.6516e+01	9.3575	32.262770	0.000253	2.533713	0.858445	-0.000101
 771	7.6615e+01	9.3062	32.149730	0.000284	2.837758	0.961459	-0.000114
 772	7.6715e+01	9.2821	32.020542	0.000324	3.243153	1.098810	-0.000130
 773	7.6814e+01	9.2292	31.891354	0.000324	3.243153	1.098810	-0.000130
 774	7.6913e+01	9.1939	31.798500	0.000233	2.331016	0.789770	-0.000093
 775	7.7013e+01	9.1554	31.661237	0.000345	3.445850	1.167485	-0.000138
 776	7.7112e+01	9.1040	31.600680	0.000152	1.520228	0.515067	-0.000061
 777	7.7212e+01	9.0671	31.443232	0.000395	3.952592	1.339174	-0.000158
 778	7.7311e+01	9.0270	31.342303	0.000253	2.533713	0.858445	-0.000101
 779	7.7411e+01	8.9965	31.237338	0.000264	2.635061	0.892783	-0.000105
 780	7.7510e+01	8.9532	31.128335	0.000274	2.736410	0.927121	-0.000110
 781	7.7610e+01	8.9147	31.027407	0.000253	2.533713	0.858445	-0.000101
 782	7.7710e+01	8.8810	30.942627	0.000213	2.128319	0.721094	-0.000085
 783	7.7809e+01	8.8361	30.785179	0.000395	3.952592	1.339174	-0.000158
 784	7.7909e+01	8.7960	30.651953	0.000334	3.344501	1.133148	-0.000134
 785	7.8008e+01	8.7591	30.559099	0.000233	2.331016	0.789770	-0.000093
 786	7.8108e+01	8.7142	30.437985	0.000304	3.040456	1.030134	-0.000122
 787	7.8207e+01	8.6645	30.337057	0.000253	2.533713	0.858445	-0.000101
 788	7.8306e+01	8.6324	30.191720	0.000365	3.648547	1.236161	-0.000146
 789	7.8406e+01	8.6035	30.074643	0.000294	2.939107	0.995796	-0.000118
 790	7.8505e+01	8.5602	29.977751	0.000243	2.432364	0.824107	-0.000097
 791	7.8605e+01	8.5153	29.872786	0.000264	2.635061	0.892783	-0.000105
 792	7.8704e+01	8.4607	29.775895	0.000243	2.432364	0.824107	-0.000097
 793	7.8804e+01	8.4286	29.622483	0.000385	3.851244	1.304837	-0.000154
 794	7.8903e+01	8.3917	29.505407	0.000294	2.939107	0.995796	-0.000118
 795	7.9003e+01	8.3516	29.388330	0.000294	2.939107	0.995796	-0.000118
 796	7.9103e+01	8.3147	29.263178	0.000314	3.141804	1.064472	-0.000126
 797	7.9202e+01	8.2650	29.178399	0.000213	2.128319	0.721094	-0.000085
 798	7.9302e+01	8.2329	29.073433	0.000264	2.635061	0.892783	-0.000105
 799	7.9401e+01	8.1928	28.924059	0.000375	3.749895	1.270499	-0.000150
 800	7.9501e+01	8.1495	28.843316	0.000203	2.026970	0.686756	-0.000081
 801	7.9600e+01	8.1110	28.706054	0.000345	3.445850	1.167485	-0.000138
 802	7.9700e+01	8.0741	28.584940	0.000304	3.040456	1.030134	-0.000122
 803	7.9799e+01	8.0340	28.484011	0.000253	2.533713	0.858445	-0.000101
 804	7.9898e+01	7.9955	28.330600	0.000385	3.851244	1.304837	-0.000154
 805	7.9998e+01	7.9554	28.229672	0.000253	2.533713	0.858445	-0.000101
 806	8.0097e+01	7.9137	28.124706	0.000264	2.635061	0.892783	-0.000105
 807	8.0197e+01	7.8784	28.019741	0.000264	2.635061	0.892783	-0.000105
 808	8.0296e+01	7.8351	27.858255	0.000405	4.053941	1.373512	-0.000162
 809	8.0396e+01	7.8030	27.797698	0.000152	1.520228	0.515067	-0.000061
 810	8.0496e+01	7.7549	27.684658	0.000284	2.837758	0.961459	-0.000114
 811	8.0595e+01	7.7115	27.575656	0.000274	2.736410	0.927121	-0.000110
 812	8.0695e+01	7.6795	27.446467	0.000324	3.243153	1.098810	-0.000130
 813	8.0794e+01	7.6329	27.297093	0.000375	3.749895	1.270499	-0.000150
 814	8.0894e+01	7.5960	27.184053	0.000284	2.837758	0.961459	-0.000114
 815	8.0993e+01	7.5511	27.066977	0.000294	2.939107	0.995796	-0.000118
 816	8.1093e+01	7.5062	26.937788	0.000324	3.243153	1.098810	-0.000130
 817	8.1192e+01	7.4837	26.840897	0.000243	2.432364	0.824107	-0.000097
 818	8.1291e+01	7.4292	26.731894	0.000274	2.736410	0.927121	-0.000110
 819	8.1391e+01	7.3907	26.610780	0.000304	3.040456	1.030134	-0.000122
 820	8.1490e+01	7.3538	26.485629	0.000314	3.141804	1.064472	-0.000126
 821	8.1590e+01	7.3121	26.392775	0.000233	2.331016	0.789770	-0.000093
 822	8.1689e+01	7.2752	26.275698	0.000294	2.939107	0.995796	-0.000118
 823	8.1789e+01	7.2319	26.126324	0.000375	3.749895	1.270499	-0.000150
 824	8.1888e+01	7.1998	26.041544	0.000213	2.128319	0.721094	-0.000085
 825	8.1988e+01	7.1661	25.912356	0.000324	3.243153	1.098810	-0.000130
 826	8.2088e+01	7.1116	25.775093	0.000345	3.445850	1.167485	-0.000138
 827	8.2187e+01	7.0827	25.678202	0.000243	2.432364	0.824107	-0.000097
 828	8.2287e+01	7.0362	25.536902	0.000355	3.547198	1.201823	-0.000142
 829	8.2386e+01	7.0041	25.444048	0.000233	2.331016	0.789770	-0.000093
 830	8.2486e+01	6.9640	25.302748	0.000355	3.547198	1.201823	-0.000142
 831	8.2585e+01	6.9158	25.197783	0.000264	2.635061	0.892783	-0.000105
 832	8.2684e+01	6.8886	25.084743	0.000284	2.837758	0.961459	-0.000114
 833	8.2784e+01	6.8469	24.951517	0.000334	3.344501	1.133148	-0.000134
 834	8.2883e+01	6.8036	24.846552	0.000264	2.635061	0.892783	-0.000105
 835	8.2983e+01	6.7490	24.733512	0.000284	2.837758	0.961459	-0.000114
 836	8.3082e+01	6.7105	24.616435	0.000294	2.939107	0.995796	-0.000118
 837	8.3182e+01	6.6784	24.471098	0.000365	3.648547	1.236161	-0.000146
 838	8.3281e+01	6.6399	24.406504	0.000162	1.621576	0.549405	-0.000065
 839	8.3381e+01	6.5966	24.249056	0.000395	3.952592	1.339174	-0.000158
 840	8.3481e+01	6.5565	24.140053	0.000274	2.736410	0.927121	-0.000110
 841	8.3580e+01	6.5180	23.966456	0.000436	4.357986	1.476526	-0.000174
 842	8.3680e+01	6.4891	23.913974	0.000132	1.317531	0.446391	-0.000053
 843	8.3779e+01	6.4378	23.784785	0.000324	3.243153	1.098810	-0.000130
 844	8.3879e+01	6.3993	23.655597	0.000324	3.243153	1.098810	-0.000130
 845	8.3978e+01	6.3640	23.554668	0.000253	2.533713	0.858445	-0.000101
 846	8.4078e+01	6.3143	23.437592	0.000294	2.939107	0.995796	-0.000118
 847	8.4177e+01	6.2838	23.300329	0.000345	3.445850	1.167485	-0.000138
 848	8.4276e+01	6.2421	23.167103	0.000334	3.344501	1.133148	-0.000134
 849	8.4376e+01	6.1988	23.070212	0.000243	2.432364	0.824107	-0.000097
 850	8.4475e+01	6.1619	22.932950	0.000345	3.445850	1.167485	-0.000138
 851	8.4575e+01	6.1282	22.803761	0.000324	3.243153	1.098810	-0.000130
 852	8.4674e+01	6.0849	22.670536	0.000334	3.344501	1.133148	-0.000134
 853	8.4774e+01	6.0447	22.561533	0.000274	2.736410	0.927121	-0.000110
 854	8.4874e+01	5.9918	22.464642	0.000243	2.432364	0.824107	-0.000097
 855	8.4973e+01	5.9742	22.311231	0.000385	3.851244	1.304837	-0.000154
 856	8.5073e+01	5.9212	22.206265	0.000264	2.635061	0.892783	-0.000105
 857	8.5172e+01	5.8827	22.052854	0.000385	3.851244	1.304837	-0.000154
 858	8.5272e+01	5.8442	21.927703	0.000314	3.141804	1.064472	-0.000126
 859	8.5371e+01	5.8009	21.814663	0.000284	2.837758	0.961459	-0.000114
 860	8.5471e+01	5.7672	21.677400	0.000345	3.445850	1.167485	-0.000138
 861	8.5570e+01	5.7223	21.588583	0.000223	2.229667	0.755432	-0.000089
 862	8.5669e+01	5.6806	21.427098	0.000405	4.053941	1.373512	-0.000162
 863	8.5769e+01	5.6357	21.354429	0.000182	1.824273	0.618081	-0.000073
 864	8.5868e+01	5.6004	21.196981	0.000395	3.952592	1.339174	-0.000158
 865	8.5968e+01	5.5683	21.079904	0.000294	2.939107	0.995796	-0.000118
 866	8.6067e+01	5.5250	20.934567	0.000365	3.648547	1.236161	-0.000146
 867	8.6167e+01	5.4913	20.849788	0.000213	2.128319	0.721094	-0.000085
 868	8.6266e+01	5.4400	20.696376	0.000385	3.851244	1.304837	-0.000154
 869	8.6366e+01	5.4031	20.579299	0.000294	2.939107	0.995796	-0.000118
 870	8.6466e+01	5.3710	20.450111	0.000324	3.243153	1.098810	-0.000130
 871	8.6565e+01	5.3309	20.304774	0.000365	3.648547	1.236161	-0.000146
 872	8.6665e+01	5.2892	20.175586	0.000324	3.243153	1.098810	-0.000130
 873	8.6764e+01	5.2474	20.082732	0.000233	2.331016	0.789770	-0.000093
 874	8.6864e+01	5.2073	19.929321	0.000385	3.851244	1.304837	-0.000154
 875	8.6963e+01	5.1640	19.828392	0.000253	2.533713	0.858445	-0.000101
 876	8.7063e+01	5.1384	19.687092	0.000355	3.547198	1.201823	-0.000142
 877	8.7162e+01	5.0742	19.549830	0.000345	3.445850	1.167485	-0.000138
 878	8.7261e+01	5.0437	19.432753	0.000294	2.939107	0.995796	-0.000118
 879	8.7361e+01	5.0068	19.319713	0.000284	2.837758	0.961459	-0.000114
 880	8.7460e+01	4.9571	19.210710	0.000274	2.736410	0.927121	-0.000110
 881	8.7560e+01	4.9250	19.069411	0.000355	3.547198	1.201823	-0.000142
 882	8.7659e+01	4.8881	18.944259	0.000314	3.141804	1.064472	-0.000126
 883	8.7759e+01	4.8352	18.798923	0.000365	3.648547	1.236161	-0.000146
 884	8.7859e+01	4.8079	18.681846	0.000294	2.939107	0.995796	-0.000118
 885	8.7958e+01	4.7678	18.560732	0.000304	3.040456	1.030134	-0.000122
 886	8.8058e+01	4.7277	18.399246	0.000405	4.053941	1.373512	-0.000162
 887	8.8157e+01	4.6812	18.282169	0.000294	2.939107	0.995796	-0.000118
 888	8.8257e+01	4.6539	18.185278	0.000243	2.432364	0.824107	-0.000097
 889	8.8356e+01	4.5993	18.031867	0.000385	3.851244	1.304837	-0.000154
 890	8.8456e+01	4.5721	17.902678	0.000324	3.243153	1.098810	-0.000130
 891	8.8555e+01	4.5271	17.781564	0.000304	3.040456	1.030134	-0.000122
 892	8.8654e+01	4.4935	17.644302	0.000345	3.445850	1.167485	-0.000138
 893	8.8754e+01	4.4453	17.523188	0.000304	3.040456	1.030134	-0.000122
 894	8.8853e+01	4.4116	17.406111	0.000294	2.939107	0.995796	-0.000118
 895	8.8953e+01	4.3651	17.264811	0.000355	3.547198	1.201823	-0.000142
 896	8.9052e+01	4.3346	17.131586	0.000334	3.344501	1.133148	-0.000134
 897	8.9152e+01	4.2929	16.962026	0.000426	4.256638	1.442188	-0.000170
 898	8.9251e+01	4.2400	16.848986	0.000284	2.837758	0.961459	-0.000114
 899	8.9351e+01	4.2031	16.719798	0.000324	3.243153	1.098810	-0.000130
 900	8.9451e+01	4.1646	16.578498	0.000355	3.547198	1.201823	-0.000142
 901	8.9550e+01	4.1325	16.425087	0.000385	3.851244	1.304837	-0.000154
 902	8.9650e+01	4.0876	16.308010	0.000294	2.939107	0.995796	-0.000118
 903	8.9749e+01	4.0427	16.186896	0.000304	3.040456	1.030134	-0.000122
 904	8.9849e+01	4.0090	16.069819	0.000294	2.939107	0.995796	-0.000118
 905	8.9948e+01	3.9689	15.928519	0.000355	3.547198	1.201823	-0.000142
 906	9.0047e+01	3.9272	15.779145	0.000375	3.749895	1.270499	-0.000150
 907	9.0147e+01	3.8903	15.690328	0.000223	2.229667	0.755432	-0.000089
 908	9.0246e+01	3.8486	15.500583	0.000476	4.763380	1.613877	-0.000191
 909	9.0346e+01	3.8117	15.419840	0.000203	2.026970	0.686756	-0.000081
 910	9.0445e+01	3.7683	15.226057	0.000486	4.864729	1.648215	-0.000195
 911	9.0545e+01	3.7363	15.108980	0.000294	2.939107	0.995796	-0.000118
 912	9.0644e+01	3.6817	14.979792	0.000324	3.243153	1.098810	-0.000130
 913	9.0744e+01	3.6480	14.834455	0.000365	3.648547	1.236161	-0.000146
 914	9.0844e+01	3.6095	14.725453	0.000274	2.736410	0.927121	-0.000110
 915	9.0943e+01	3.5662	14.559930	0.000416	4.155289	1.407850	-0.000166
 916	9.1043e+01	3.5357	14.434779	0.000314	3.141804	1.064472	-0.000126
 917	9.1142e+01	3.4972	14.293479	0.000355	3.547198	1.201823	-0.000142
 918	9.1242e+01	3.4491	14.140068	0.000385	3.851244	1.304837	-0.000154
 919	9.1341e+01	3.4122	13.990694	0.000375	3.749895	1.270499	-0.000150
 920	9.1441e+01	3.3769	13.881691	0.000274	2.736410	0.927121	-0.000110
 921	9.1540e+01	3.3288	13.712132	0.000426	4.256638	1.442188	-0.000170
 922	9.1639e+01	3.2871	13.603129	0.000274	2.736410	0.927121	-0.000110
 923	9.1739e+01	3.2614	13.441643	0.000405	4.053941	1.373512	-0.000162
 924	9.1838e+01	3.2037	13.308418	0.000334	3.344501	1.133148	-0.000134
 925	9.1938e+01	3.1748	13.175192	0.000334	3.344501	1.133148	-0.000134
 926	9.2037e+01	3.1379	13.098487	0.000193	1.925622	0.652418	-0.000077
 927	9.2137e+01	3.0946	12.920853	0.000446	4.459335	1.510864	-0.000179
 928	9.2237e+01	3.0545	12.799739	0.000304	3.040456	1.030134	-0.000122
 929	9.2336e+01	3.0111	12.646328	0.000385	3.851244	1.304837	-0.000154
 930	9.2436e+01	2.9726	12.541362	0.000264	2.635061	0.892783	-0.000105
 931	9.2535e+01	2.9390	12.387951	0.000385	3.851244	1.304837	-0.000154
 932	9.2635e+01	2.8972	12.226466	0.000405	4.053941	1.373512	-0.000162
 933	9.2734e+01	2.8587	12.097277	0.000324	3.243153	1.098810	-0.000130
 934	9.2834e+01	2.8154	11.927718	0.000426	4.256638	1.442188	-0.000170
 935	9.2933e+01	2.7785	11.851012	0.000193	1.925622	0.652418	-0.000077
 936	9.3032e+01	2.7368	11.673378	0.000446	4.459335	1.510864	-0.000179
 937	9.3132e+01	2.6983	11.564375	0.000274	2.736410	0.927121	-0.000110
 938	9.3231e+01	2.6582	11.406927	0.000395	3.952592	1.339174	-0.000158
 939	9.3331e+01	2.6149	11.281776	0.000314	3.141804	1.064472	-0.000126
 940	9.3430e+01	2.5780	11.132402	0.000375	3.749895	1.270499	-0.000150
 941	9.3530e+01	2.5331	10.978991	0.000385	3.851244	1.304837	-0.000154
 942	9.3629e+01	2.4914	10.874025	0.000264	2.635061	0.892783	-0.000105
 943	9.3729e+01	2.4497	10.692354	0.000456	4.560683	1.545201	-0.000183
 944	9.3829e+01	2.4080	10.563166	0.000324	3.243153	1.098810	-0.000130
 945	9.3928e+01	2.3727	10.417829	0.000365	3.648547	1.236161	-0.000146
 946	9.4028e+01	2.3358	10.296715	0.000304	3.040456	1.030134	-0.000122
 947	9.4127e+01	2.2892	10.131192	0.000416	4.155289	1.407850	-0.000166
 948	9.4227e+01	2.2523	9.989892	0.000355	3.547198	1.201823	-0.000142
 949	9.4326e+01	2.2106	9.864741	0.000314	3.141804	1.064472	-0.000126
 950	9.4425e+01	2.1689	9.703256	0.000405	4.053941	1.373512	-0.000162
 951	9.4525e+01	2.1384	9.549845	0.000385	3.851244	1.304837	-0.000154
 952	9.4624e+01	2.0999	9.440842	0.000274	2.736410	0.927121	-0.000110
 953	9.4724e+01	2.0518	9.303579	0.000345	3.445850	1.167485	-0.000138
 954	9.4823e+01	2.0181	9.142094	0.000405	4.053941	1.373512	-0.000162
 955	9.4923e+01	1.9828	8.972534	0.000426	4.256638	1.442188	-0.000170
 956	9.5022e+01	1.9443	8.839309	0.000334	3.344501	1.133148	-0.000134
 957	9.5122e+01	1.8994	8.698009	0.000355	3.547198	1.201823	-0.000142
 958	9.5222e+01	1.8593	8.568821	0.000324	3.243153	1.098810	-0.000130
 959	9.5321e+01	1.8064	8.399261	0.000426	4.256638	1.442188	-0.000170
 960	9.5421e+01	1.7807	8.261998	0.000345	3.445850	1.167485	-0.000138
 961	9.5520e+01	1.7374	8.116661	0.000365	3.648547	1.236161	-0.000146
 962	9.5620e+01	1.6989	7.999584	0.000294	2.939107	0.995796	-0.000118
 963	9.5719e+01	1.6556	7.850210	0.000375	3.749895	1.270499	-0.000150
 964	9.5819e+01	1.6171	7.696799	0.000385	3.851244	1.304837	-0.000154
 965	9.5918e+01	1.5786	7.531277	0.000416	4.155289	1.407850	-0.000166
 966	9.6017e+01	1.5353	7.426311	0.000264	2.635061	0.892783	-0.000105
 967	9.6117e+01	1.4967	7.268863	0.000395	3.952592	1.339174	-0.000158
 968	9.6216e+01	1.4566	7.103340	0.000416	4.155289	1.407850	-0.000166
 969	9.6316e+01	1.4181	6.978189	0.000314	3.141804	1.064472	-0.000126
 970	9.6415e+01	1.3796	6.836889	0.000355	3.547198	1.201823	-0.000142
 971	9.6515e+01	1.3460	6.667330	0.000426	4.256638	1.442188	-0.000170
 972	9.6615e+01	1.3058	6.550253	0.000294	2.939107	0.995796	-0.000118
 973	9.6714e+01	1.2609	6.400879	0.000375	3.749895	1.270499	-0.000150
 974	9.6814e+01	1.2160	6.243430	0.000395	3.952592	1.339174	-0.000158
 975	9.6913e+01	1.1791	6.106168	0.000345	3.445850	1.167485	-0.000138
 976	9.7013e+01	1.1438	5.936608	0.000426	4.256638	1.442188	-0.000170
 977	9.7112e+01	1.0925	5.787234	0.000375	3.749895	1.270499	-0.000150
 978	9.7212e+01	1.0556	5.654009	0.000334	3.344501	1.133148	-0.000134
 979	9.7311e+01	1.0219	5.488486	0.000416	4.155289	1.407850	-0.000166
 980	9.7410e+01	0.9786	5.363335	0.000314	3.141804	1.064472	-0.000126
 981	9.7510e+01	0.9385	5.246258	0.000294	2.939107	0.995796	-0.000118
 982	9.7609e+01	0.9048	5.060550	0.000466	4.662032	1.579539	-0.000187
 983	9.7709e+01	0.8615	4.923287	0.000345	3.445850	1.167485	-0.000138
 984	9.7808e+01	0.8262	4.822359	0.000253	2.533713	0.858445	-0.000101
 985	9.7908e+01	0.7813	4.636650	0.000466	4.662032	1.579539	-0.000187
 986	9.8007e+01	0.7508	4.511499	0.000314	3.141804	1.064472	-0.000126
 987	9.8107e+01	0.6978	4.329828	0.000456	4.560683	1.545201	-0.000183
 988	9.8207e+01	0.6561	4.216788	0.000284	2.837758	0.961459	-0.000114
 989	9.8306e+01	0.6208	4.067414	0.000375	3.749895	1.270499	-0.000150
 990	9.8406e+01	0.5743	3.901892	0.000416	4.155289	1.407850	-0.000166
 991	9.8505e+01	0.5486	3.780778	0.000304	3.040456	1.030134	-0.000122
 992	9.8605e+01	0.4909	3.647552	0.000334	3.344501	1.133148	-0.000134
 993	9.8704e+01	0.4604	3.461844	0.000466	4.662032	1.579539	-0.000187
 994	9.8803e+01	0.4251	3.340730	0.000304	3.040456	1.030134	-0.000122
 995	9.8903e+01	0.3738	3.219616	0.000304	3.040456	1.030134	-0.000122
 996	9.9002e+01	0.3433	3.037945	0.000456	4.560683	1.545201	-0.000183
 997	9.9102e+01	0.3048	2.904719	0.000334	3.344501	1.133148	-0.000134
 998	9.9201e+01	0.2599	2.723048	0.000456	4.560683	1.545201	-0.000183
 999	9.9301e+01	0.2214	2.626157	0.000243	2.432364	0.824107	-0.000097
1000	9.9400e+01	0.1749	2.480820	0.000365	3.648547	1.236161	-0.000146
1001	9.9500e+01	0.1396	2.287037	0.000486	4.864729	1.648215	-0.000195
1002	9.9600e+01	0.1043	2.133626	0.000385	3.851244	1.304837	-0.000154
1003	9.9699e+01	0.0594	2.004438	0.000324	3.243153	1.098810	-0.000130
1004	9.9799e+01	0.0241	1.834878	0.000426	4.256638	1.442188	-0.000170
1005	9.9898e+01	-0.0064	1.754135	0.000203	2.026970	0.686756	-0.000081
1006	9.9998e+01	-0.0561	1.576502	0.000446	4.459335	1.510864	-0.000179
1007	1.0010e+02	-0.0914	1.431165	0.000365	3.648547	1.236161	-0.000146
1008	1.0020e+02	-0.1235	1.322162	0.000274	2.736410	0.927121	-0.000110
1009	1.0030e+02	-0.1604	1.184899	0.000345	3.445850	1.167485	-0.000138
1010	1.0040e+02	-0.2069	1.015340	0.000426	4.256638	1.442188	-0.000170
1011	1.0050e+02	-0.2454	0.861928	0.000385	3.851244	1.304837	-0.000154
1012	1.0059e+02	-0.2920	0.732740	0.000324	3.243153	1.098810	-0.000130
1013	1.0069e+02	-0.3273	0.534920	0.000497	4.966077	1.682553	-0.000199
1014	1.0079e+02	-0.3706	0.405732	0.000324	3.243153	1.098810	-0.000130
1015	1.0089e+02	-0.4043	0.268470	0.000345	3.445850	1.167485	-0.000138
1016	1.0099e+02	-0.4444	0.115058	0.000385	3.851244	1.304837	-0.000154
1017	1.0109e+02	-0.4845	-0.042390	0.000395	3.952592	1.339174	-0.000158
1018	1.0119e+02	-0.5342	-0.199838	0.000395	3.952592	1.339174	-0.000158
1019	1.0129e+02	-0.5727	-0.345175	0.000365	3.648547	1.236161	-0.000146
1020	1.0139e+02	-0.6096	-0.454178	0.000274	2.736410	0.927121	-0.000110
1021	1.0149e+02	-0.6401	-0.660072	0.000517	5.168774	1.751228	-0.000207
1022	1.0159e+02	-0.6914	-0.789260	0.000324	3.243153	1.098810	-0.000130
1023	1.0169e+02	-0.7235	-0.910374	0.000304	3.040456	1.030134	-0.000122
1024	1.0179e+02	-0.7604	-1.067822	0.000395	3.952592	1.339174	-0.000158
1025	1.0189e+02	-0.8053	-1.192974	0.000314	3.141804	1.064472	-0.000126
1026	1.0199e+02	-0.8454	-1.366570	0.000436	4.357986	1.476526	-0.000174
1027	1.0209e+02	-0.8823	-1.528056	0.000405	4.053941	1.373512	-0.000162
1028	1.0219e+02	-0.9208	-1.657244	0.000324	3.243153	1.098810	-0.000130
1029	1.0229e+02	-0.9786	-1.851027	0.000486	4.864729	1.648215	-0.000195
1030	1.0239e+02	-0.9946	-1.976178	0.000314	3.141804	1.064472	-0.000126
1031	1.0248e+02	-1.0444	-2.113441	0.000345	3.445850	1.167485	-0.000138
1032	1.0258e+02	-1.0829	-2.194183	0.000203	2.026970	0.686756	-0.000081
1033	1.0268e+02	-1.1165	-2.387966	0.000486	4.864729	1.648215	-0.000195
1034	1.0278e+02	-1.1631	-2.541377	0.000385	3.851244	1.304837	-0.000154
1035	1.0288e+02	-1.2080	-2.714974	0.000436	4.357986	1.476526	-0.000174
1036	1.0298e+02	-1.2465	-2.852236	0.000345	3.445850	1.167485	-0.000138
1037	1.0308e+02	-1.2818	-2.989499	0.000345	3.445850	1.167485	-0.000138
1038	1.0318e+02	-1.3155	-3.146947	0.000395	3.952592	1.339174	-0.000158
1039	1.0328e+02	-1.3652	-3.300358	0.000385	3.851244	1.304837	-0.000154
1040	1.0338e+02	-1.4005	-3.465881	0.000416	4.155289	1.407850	-0.000166
1041	1.0348e+02	-1.4454	-3.562772	0.000243	2.432364	0.824107	-0.000097
1042	1.0358e+02	-1.4887	-3.700035	0.000345	3.445850	1.167485	-0.000138
1043	1.0368e+02	-1.5256	-3.881706	0.000456	4.560683	1.545201	-0.000183
1044	1.0378e+02	-1.5641	-3.994746	0.000284	2.837758	0.961459	-0.000114
1045	1.0388e+02	-1.6026	-4.168343	0.000436	4.357986	1.476526	-0.000174
1046	1.0398e+02	-1.6492	-4.313680	0.000365	3.648547	1.236161	-0.000146
1047	1.0408e+02	-1.6844	-4.438831	0.000314	3.141804	1.064472	-0.000126
1048	1.0418e+02	-1.7278	-4.596279	0.000395	3.952592	1.339174	-0.000158
1049	1.0428e+02	-1.7566	-4.749690	0.000385	3.851244	1.304837	-0.000154
1050	1.0438e+02	-1.7935	-4.882916	0.000334	3.344501	1.133148	-0.000134
1051	1.0447e+02	-1.8320	-4.995955	0.000284	2.837758	0.961459	-0.000114
1052	1.0457e+02	-1.8802	-5.129181	0.000334	3.344501	1.133148	-0.000134
1053	1.0467e+02	-1.9187	-5.363335	0.000588	5.878214	1.991593	-0.000235
1054	1.0477e+02	-1.9620	-5.468300	0.000264	2.635061	0.892783	-0.000105
1055	1.0487e+02	-2.0005	-5.633823	0.000416	4.155289	1.407850	-0.000166
1056	1.0497e+02	-2.0342	-5.803383	0.000426	4.256638	1.442188	-0.000170
1057	1.0507e+02	-2.0759	-5.872014	0.000172	1.722925	0.583743	-0.000069
1058	1.0517e+02	-2.1256	-6.033499	0.000405	4.053941	1.373512	-0.000162
1059	1.0527e+02	-2.1673	-6.215170	0.000456	4.560683	1.545201	-0.000183
1060	1.0537e+02	-2.1962	-6.324173	0.000274	2.736410	0.927121	-0.000110
1061	1.0547e+02	-2.2347	-6.477584	0.000385	3.851244	1.304837	-0.000154
1062	1.0557e+02	-2.2860	-6.594661	0.000294	2.939107	0.995796	-0.000118
1063	1.0567e+02	-2.3117	-6.748072	0.000385	3.851244	1.304837	-0.000154
1064	1.0577e+02	-2.3630	-6.913595	0.000416	4.155289	1.407850	-0.000166
1065	1.0587e+02	-2.4015	-7.079118	0.000416	4.155289	1.407850	-0.000166
1066	1.0597e+02	-2.4384	-7.176009	0.000243	2.432364	0.824107	-0.000097
1067	1.0607e+02	-2.4705	-7.345568	0.000426	4.256638	1.442188	-0.000170
1068	1.0617e+02	-2.5170	-7.507054	0.000405	4.053941	1.373512	-0.000162
1069	1.0627e+02	-2.5620	-7.603945	0.000243	2.432364	0.824107	-0.000097
1070	1.0637e+02	-2.5989	-7.769468	0.000416	4.155289	1.407850	-0.000166
1071	1.0647e+02	-2.6277	-7.898656	0.000324	3.243153	1.098810	-0.000130
1072	1.0656e+02	-2.6791	-8.084364	0.000466	4.662032	1.579539	-0.000187
1073	1.0666e+02	-2.7176	-8.209516	0.000314	3.141804	1.064472	-0.000126
1074	1.0676e+02	-2.7529	-8.318518	0.000274	2.736410	0.927121	-0.000110
1075	1.0686e+02	-2.8058	-8.500189	0.000456	4.560683	1.545201	-0.000183
1076	1.0696e+02	-2.8395	-8.629378	0.000324	3.243153	1.098810	-0.000130
1077	1.0706e+02	-2.8796	-8.774715	0.000365	3.648547	1.236161	-0.000146
1078	1.0716e+02	-2.9165	-8.887754	0.000284	2.837758	0.961459	-0.000114
1079	1.0726e+02	-2.9566	-9.093648	0.000517	5.168774	1.751228	-0.000207
1080	1.0736e+02	-2.9999	-9.206688	0.000284	2.837758	0.961459	-0.000114
1081	1.0746e+02	-3.0352	-9.331839	0.000314	3.141804	1.064472	-0.000126
1082	1.0756e+02	-3.0609	-9.489288	0.000395	3.952592	1.339174	-0.000158
1083	1.0766e+02	-3.1186	-9.654810	0.000416	4.155289	1.407850	-0.000166
1084	1.0776e+02	-3.1587	-9.783998	0.000324	3.243153	1.098810	-0.000130
1085	1.0786e+02	-3.2020	-9.901075	0.000294	2.939107	0.995796	-0.000118
1086	1.0796e+02	-3.2341	-10.038338	0.000345	3.445850	1.167485	-0.000138
1087	1.0806e+02	-3.2742	-10.179638	0.000355	3.547198	1.201823	-0.000142
1088	1.0816e+02	-3.3208	-10.324975	0.000365	3.648547	1.236161	-0.000146
1089	1.0826e+02	-3.3577	-10.429940	0.000264	2.635061	0.892783	-0.000105
1090	1.0836e+02	-3.4026	-10.583351	0.000385	3.851244	1.304837	-0.000154
1091	1.0845e+02	-3.4363	-10.765022	0.000456	4.560683	1.545201	-0.000183
1092	1.0855e+02	-3.4812	-10.869988	0.000264	2.635061	0.892783	-0.000105
1093	1.0865e+02	-3.5133	-10.991102	0.000304	3.040456	1.030134	-0.000122
1094	1.0875e+02	-3.5662	-11.160662	0.000426	4.256638	1.442188	-0.000170
1095	1.0885e+02	-3.6015	-11.338296	0.000446	4.459335	1.510864	-0.000179
1096	1.0895e+02	-3.6288	-11.410964	0.000182	1.824273	0.618081	-0.000073
1097	1.0905e+02	-3.6785	-11.576487	0.000416	4.155289	1.407850	-0.000166
1098	1.0915e+02	-3.7074	-11.681452	0.000264	2.635061	0.892783	-0.000105
1099	1.0925e+02	-3.7539	-11.851012	0.000426	4.256638	1.442188	-0.000170
1100	1.0935e+02	-3.7892	-11.980200	0.000324	3.243153	1.098810	-0.000130
1101	1.0945e+02	-3.8405	-12.125537	0.000365	3.648547	1.236161	-0.000146
1102	1.0955e+02	-3.8710	-12.291060	0.000416	4.155289	1.407850	-0.000166
1103	1.0965e+02	-3.9175	-12.363728	0.000182	1.824273	0.618081	-0.000073
1104	1.0975e+02	-3.9560	-12.509065	0.000365	3.648547	1.236161	-0.000146
1105	1.0985e+02	-3.9945	-12.642291	0.000334	3.344501	1.133148	-0.000134
1106	1.0995e+02	-4.0443	-12.787627	0.000365	3.648547	1.236161	-0.000146
1107	1.1005e+02	-4.0764	-12.896630	0.000274	2.736410	0.927121	-0.000110
1108	1.1015e+02	-4.1165	-13.037930	0.000355	3.547198	1.201823	-0.000142
1109	1.1025e+02	-4.1550	-13.183267	0.000365	3.648547	1.236161	-0.000146
1110	1.1035e+02	-4.1951	-13.360901	0.000446	4.459335	1.510864	-0.000179
1111	1.1044e+02	-4.2320	-13.461829	0.000253	2.533713	0.858445	-0.000101
1112	1.1054e+02	-4.2753	-13.599092	0.000345	3.445850	1.167485	-0.000138
1113	1.1064e+02	-4.3202	-13.736354	0.000345	3.445850	1.167485	-0.000138
1114	1.1074e+02	-4.3587	-13.861506	0.000314	3.141804	1.064472	-0.000126
1115	1.1084e+02	-4.3860	-13.962434	0.000253	2.533713	0.858445	-0.000101
1116	1.1094e+02	-4.4293	-14.115845	0.000385	3.851244	1.304837	-0.000154
1117	1.1104e+02	-4.4646	-14.240996	0.000314	3.141804	1.064472	-0.000126
1118	1.1114e+02	-4.5047	-14.410556	0.000426	4.256638	1.442188	-0.000170
1119	1.1124e+02	-4.5528	-14.503410	0.000233	2.331016	0.789770	-0.000093
1120	1.1134e+02	-4.5945	-14.660858	0.000395	3.952592	1.339174	-0.000158
1121	1.1144e+02	-4.6362	-14.769861	0.000274	2.736410	0.927121	-0.000110
1122	1.1154e+02	-4.6795	-14.931347	0.000405	4.053941	1.373512	-0.000162
1123	1.1164e+02	-4.7068	-15.036312	0.000264	2.635061	0.892783	-0.000105
1124	1.1174e+02	-4.7469	-15.161463	0.000314	3.141804	1.064472	-0.000126
1125	1.1184e+02	-4.7951	-15.302763	0.000355	3.547198	1.201823	-0.000142
1126	1.1194e+02	-4.8287	-15.464248	0.000405	4.053941	1.373512	-0.000162
1127	1.1204e+02	-4.8705	-15.549028	0.000213	2.128319	0.721094	-0.000085
1128	1.1214e+02	-4.9186	-15.694365	0.000365	3.648547	1.236161	-0.000146
1129	1.1224e+02	-4.9475	-15.807405	0.000284	2.837758	0.961459	-0.000114
1130	1.1234e+02	-4.9924	-15.952742	0.000365	3.648547	1.236161	-0.000146
1131	1.1244e+02	-5.0277	-16.085967	0.000334	3.344501	1.133148	-0.000134
1132	1.1253e+02	-5.0678	-16.243416	0.000395	3.952592	1.339174	-0.000158
1133	1.1263e+02	-5.1111	-16.364530	0.000304	3.040456	1.030134	-0.000122
1134	1.1273e+02	-5.1432	-16.477570	0.000284	2.837758	0.961459	-0.000114
1135	1.1283e+02	-5.1977	-16.643092	0.000416	4.155289	1.407850	-0.000166
1136	1.1293e+02	-5.2282	-16.752095	0.000274	2.736410	0.927121	-0.000110
1137	1.1303e+02	-5.2715	-16.885320	0.000334	3.344501	1.133148	-0.000134
1138	1.1313e+02	-5.3052	-17.006434	0.000304	3.040456	1.030134	-0.000122
1139	1.1323e+02	-5.3485	-17.131586	0.000314	3.141804	1.064472	-0.000126
1140	1.1333e+02	-5.3918	-17.248662	0.000294	2.939107	0.995796	-0.000118
1141	1.1343e+02	-5.4255	-17.393999	0.000365	3.648547	1.236161	-0.000146
1142	1.1353e+02	-5.4720	-17.486853	0.000233	2.331016	0.789770	-0.000093
1143	1.1363e+02	-5.5041	-17.648339	0.000405	4.053941	1.373512	-0.000162
1144	1.1373e+02	-5.5442	-17.745230	0.000243	2.432364	0.824107	-0.000097
1145	1.1383e+02	-5.5843	-17.902678	0.000395	3.952592	1.339174	-0.000158
1146	1.1393e+02	-5.6341	-17.991495	0.000223	2.229667	0.755432	-0.000089
1147	1.1403e+02	-5.6678	-18.152981	0.000405	4.053941	1.373512	-0.000162
1148	1.1413e+02	-5.7127	-18.266021	0.000284	2.837758	0.961459	-0.000114
1149	1.1423e+02	-5.7512	-18.370986	0.000264	2.635061	0.892783	-0.000105
1150	1.1433e+02	-5.7881	-18.508249	0.000345	3.445850	1.167485	-0.000138
1151	1.1442e+02	-5.8250	-18.649549	0.000355	3.547198	1.201823	-0.000142
1152	1.1452e+02	-5.8667	-18.798923	0.000375	3.749895	1.270499	-0.000150
1153	1.1462e+02	-5.9068	-18.891777	0.000233	2.331016	0.789770	-0.000093
1154	1.1472e+02	-5.9485	-18.980594	0.000223	2.229667	0.755432	-0.000089
1155	1.1482e+02	-5.9854	-19.134005	0.000385	3.851244	1.304837	-0.000154
1156	1.1492e+02	-6.0255	-19.255119	0.000304	3.040456	1.030134	-0.000122
1157	1.1502e+02	-6.0720	-19.372196	0.000294	2.939107	0.995796	-0.000118
1158	1.1512e+02	-6.1089	-19.481199	0.000274	2.736410	0.927121	-0.000110
1159	1.1522e+02	-6.1522	-19.618461	0.000345	3.445850	1.167485	-0.000138
1160	1.1532e+02	-6.1939	-19.751687	0.000334	3.344501	1.133148	-0.000134
1161	1.1542e+02	-6.2292	-19.848578	0.000243	2.432364	0.824107	-0.000097
1162	1.1552e+02	-6.2677	-19.985840	0.000345	3.445850	1.167485	-0.000138
1163	1.1562e+02	-6.3062	-20.042360	0.000142	1.418879	0.480729	-0.000057
1164	1.1572e+02	-6.3383	-20.232106	0.000476	4.763380	1.613877	-0.000191
1165	1.1582e+02	-6.3816	-20.353220	0.000304	3.040456	1.030134	-0.000122
1166	1.1592e+02	-6.4298	-20.450111	0.000243	2.432364	0.824107	-0.000097
1167	1.1602e+02	-6.4570	-20.567188	0.000294	2.939107	0.995796	-0.000118
1168	1.1612e+02	-6.4939	-20.688302	0.000304	3.040456	1.030134	-0.000122
1169	1.1622e+02	-6.5469	-20.765008	0.000193	1.925622	0.652418	-0.000077
1170	1.1632e+02	-6.5806	-20.942642	0.000446	4.459335	1.510864	-0.000179
1171	1.1642e+02	-6.6223	-21.055681	0.000284	2.837758	0.961459	-0.000114
1172	1.1651e+02	-6.6576	-21.205055	0.000375	3.749895	1.270499	-0.000150
1173	1.1661e+02	-6.6977	-21.269650	0.000162	1.621576	0.549405	-0.000065
1174	1.1671e+02	-6.7394	-21.402875	0.000334	3.344501	1.133148	-0.000134
1175	1.1681e+02	-6.7843	-21.523989	0.000304	3.040456	1.030134	-0.000122
1176	1.1691e+02	-6.8228	-21.657215	0.000334	3.344501	1.133148	-0.000134
1177	1.1701e+02	-6.8533	-21.758143	0.000253	2.533713	0.858445	-0.000101
1178	1.1711e+02	-6.8982	-21.871183	0.000284	2.837758	0.961459	-0.000114
1179	1.1721e+02	-6.9399	-22.032668	0.000405	4.053941	1.373512	-0.000162
1180	1.1731e+02	-6.9784	-22.137634	0.000264	2.635061	0.892783	-0.000105
1181	1.1741e+02	-7.0217	-22.246636	0.000274	2.736410	0.927121	-0.000110
1182	1.1751e+02	-7.0634	-22.375825	0.000324	3.243153	1.098810	-0.000130
1183	1.1761e+02	-7.1019	-22.488865	0.000284	2.837758	0.961459	-0.000114
1184	1.1771e+02	-7.1340	-22.609979	0.000304	3.040456	1.030134	-0.000122
1185	1.1781e+02	-7.1773	-22.771464	0.000405	4.053941	1.373512	-0.000162
1186	1.1791e+02	-7.2190	-22.864318	0.000233	2.331016	0.789770	-0.000093
1187	1.1801e+02	-7.2608	-22.977358	0.000284	2.837758	0.961459	-0.000114
1188	1.1811e+02	-7.2944	-23.074249	0.000243	2.432364	0.824107	-0.000097
1189	1.1821e+02	-7.3394	-23.223623	0.000375	3.749895	1.270499	-0.000150
1190	1.1831e+02	-7.3875	-23.308403	0.000213	2.128319	0.721094	-0.000085
1191	1.1841e+02	-7.4132	-23.449703	0.000355	3.547198	1.201823	-0.000142
1192	1.1850e+02	-7.4565	-23.570817	0.000304	3.040456	1.030134	-0.000122
1193	1.1860e+02	-7.4918	-23.716154	0.000365	3.648547	1.236161	-0.000146
1194	1.1870e+02	-7.5383	-23.764600	0.000122	1.216182	0.412054	-0.000049
1195	1.1880e+02	-7.5800	-23.934159	0.000426	4.256638	1.442188	-0.000170
1196	1.1890e+02	-7.6233	-24.055273	0.000304	3.040456	1.030134	-0.000122
1197	1.1900e+02	-7.6586	-24.156202	0.000253	2.533713	0.858445	-0.000101
1198	1.1910e+02	-7.7083	-24.249056	0.000233	2.331016	0.789770	-0.000093
1199	1.1920e+02	-7.7356	-24.390356	0.000355	3.547198	1.201823	-0.000142
1200	1.1930e+02	-7.7773	-24.527618	0.000345	3.445850	1.167485	-0.000138
1201	1.1940e+02	-7.8062	-24.628547	0.000253	2.533713	0.858445	-0.000101
1202	1.1950e+02	-7.8656	-24.761772	0.000334	3.344501	1.133148	-0.000134
1203	1.1960e+02	-7.8928	-24.858663	0.000243	2.432364	0.824107	-0.000097
1204	1.1970e+02	-7.9249	-24.983815	0.000314	3.141804	1.064472	-0.000126
1205	1.1980e+02	-7.9811	-25.117040	0.000334	3.344501	1.133148	-0.000134
1206	1.1990e+02	-8.0131	-25.230080	0.000284	2.837758	0.961459	-0.000114
1207	1.2000e+02	-8.0549	-25.359268	0.000324	3.243153	1.098810	-0.000130
1208	1.2010e+02	-8.0982	-25.452122	0.000233	2.331016	0.789770	-0.000093
1209	1.2020e+02	-8.1447	-25.565162	0.000284	2.837758	0.961459	-0.000114
1210	1.2030e+02	-8.1768	-25.666090	0.000253	2.533713	0.858445	-0.000101
1211	1.2039e+02	-8.2185	-25.787205	0.000304	3.040456	1.030134	-0.000122
1212	1.2049e+02	-8.2474	-25.863910	0.000193	1.925622	0.652418	-0.000077
1213	1.2059e+02	-8.2955	-26.005210	0.000355	3.547198	1.201823	-0.000142
1214	1.2069e+02	-8.3324	-26.154584	0.000375	3.749895	1.270499	-0.000150
1215	1.2079e+02	-8.3661	-26.235327	0.000203	2.026970	0.686756	-0.000081
1216	1.2089e+02	-8.4206	-26.384701	0.000375	3.749895	1.270499	-0.000150
1217	1.2099e+02	-8.4527	-26.441221	0.000142	1.418879	0.480729	-0.000057
1218	1.2109e+02	-8.4912	-26.590595	0.000375	3.749895	1.270499	-0.000150
1219	1.2119e+02	-8.5393	-26.687486	0.000243	2.432364	0.824107	-0.000097
1220	1.2129e+02	-8.5746	-26.840897	0.000385	3.851244	1.304837	-0.000154
1221	1.2139e+02	-8.6163	-26.921640	0.000203	2.026970	0.686756	-0.000081
1222	1.2149e+02	-8.6532	-27.030642	0.000274	2.736410	0.927121	-0.000110
1223	1.2159e+02	-8.6933	-27.184053	0.000385	3.851244	1.304837	-0.000154
1224	1.2169e+02	-8.7350	-27.256722	0.000182	1.824273	0.618081	-0.000073
1225	1.2179e+02	-8.7752	-27.402059	0.000365	3.648547	1.236161	-0.000146
1226	1.2189e+02	-8.8088	-27.507024	0.000264	2.635061	0.892783	-0.000105
1227	1.2199e+02	-8.8506	-27.611990	0.000264	2.635061	0.892783	-0.000105
1228	1.2209e+02	-8.8923	-27.753290	0.000355	3.547198	1.201823	-0.000142
1229	1.2219e+02	-8.9324	-27.821921	0.000172	1.722925	0.583743	-0.000069
1230	1.2229e+02	-8.9709	-27.979369	0.000395	3.952592	1.339174	-0.000158
1231	1.2239e+02	-8.9997	-28.056075	0.000193	1.925622	0.652418	-0.000077
1232	1.2248e+02	-9.0543	-28.213523	0.000395	3.952592	1.339174	-0.000158
1233	1.2258e+02	-9.0960	-28.314451	0.000253	2.533713	0.858445	-0.000101
1234	1.2268e+02	-9.1345	-28.411343	0.000243	2.432364	0.824107	-0.000097
1235	1.2278e+02	-9.1778	-28.512271	0.000253	2.533713	0.858445	-0.000101
1236	1.2288e+02	-9.2067	-28.665682	0.000385	3.851244	1.304837	-0.000154
1237	1.2298e+02	-9.2580	-28.766611	0.000253	2.533713	0.858445	-0.000101
1238	1.2308e+02	-9.2885	-28.891762	0.000314	3.141804	1.064472	-0.000126
1239	1.2318e+02	-9.3302	-29.008839	0.000294	2.939107	0.995796	-0.000118
1240	1.2328e+02	-9.3687	-29.105730	0.000243	2.432364	0.824107	-0.000097
1241	1.2338e+02	-9.4088	-29.263178	0.000395	3.952592	1.339174	-0.000158
1242	1.2348e+02	-9.4425	-29.360070	0.000243	2.432364	0.824107	-0.000097
1243	1.2358e+02	-9.4890	-29.465035	0.000264	2.635061	0.892783	-0.000105
1244	1.2368e+02	-9.5163	-29.598261	0.000334	3.344501	1.133148	-0.000134
1245	1.2378e+02	-9.5757	-29.662855	0.000162	1.621576	0.549405	-0.000065
1246	1.2388e+02	-9.6110	-29.816266	0.000385	3.851244	1.304837	-0.000154
1247	1.2398e+02	-9.6527	-29.949491	0.000334	3.344501	1.133148	-0.000134
1248	1.2408e+02	-9.6815	-30.030234	0.000203	2.026970	0.686756	-0.000081
1249	1.2418e+02	-9.7377	-30.127125	0.000243	2.432364	0.824107	-0.000097
1250	1.2428e+02	-9.7746	-30.236128	0.000274	2.736410	0.927121	-0.000110
1251	1.2438e+02	-9.8115	-30.349168	0.000284	2.837758	0.961459	-0.000114
1252	1.2447e+02	-9.8516	-30.514690	0.000416	4.155289	1.407850	-0.000166
1253	1.2457e+02	-9.8949	-30.647916	0.000334	3.344501	1.133148	-0.000134
1254	1.2467e+02	-9.9238	-30.744807	0.000243	2.432364	0.824107	-0.000097
1255	1.2477e+02	-9.9623	-30.853810	0.000274	2.736410	0.927121	-0.000110
1256	1.2487e+02	-9.9992	-30.942627	0.000223	2.229667	0.755432	-0.000089
1257	1.2497e+02	-10.0457	-31.063741	0.000304	3.040456	1.030134	-0.000122
1258	1.2507e+02	-10.0890	-31.172744	0.000274	2.736410	0.927121	-0.000110
1259	1.2517e+02	-10.1291	-31.273672	0.000253	2.533713	0.858445	-0.000101
1260	1.2527e+02	-10.1644	-31.394786	0.000304	3.040456	1.030134	-0.000122
1261	1.2537e+02	-10.2013	-31.471492	0.000193	1.925622	0.652418	-0.000077
1262	1.2547e+02	-10.2478	-31.628940	0.000395	3.952592	1.339174	-0.000158
1263	1.2557e+02	-10.2847	-31.741980	0.000284	2.837758	0.961459	-0.000114
1264	1.2567e+02	-10.3361	-31.855020	0.000284	2.837758	0.961459	-0.000114
1265	1.2577e+02	-10.3666	-31.939799	0.000213	2.128319	0.721094	-0.000085
1266	1.2587e+02	-10.4067	-32.044765	0.000264	2.635061	0.892783	-0.000105
1267	1.2597e+02	-10.4516	-32.169916	0.000314	3.141804	1.064472	-0.000126
1268	1.2607e+02	-10.4853	-32.315253	0.000365	3.648547	1.236161	-0.000146
1269	1.2617e+02	-10.5350	-32.412144	0.000243	2.432364	0.824107	-0.000097
1270	1.2627e+02	-10.5671	-32.476738	0.000162	1.621576	0.549405	-0.000065
1271	1.2636e+02	-10.6024	-32.601890	0.000314	3.141804	1.064472	-0.000126
1272	1.2646e+02	-10.6505	-32.714929	0.000284	2.837758	0.961459	-0.000114
1273	1.2656e+02	-10.6842	-32.840081	0.000314	3.141804	1.064472	-0.000126
1274	1.2666e+02	-10.7307	-32.969269	0.000324	3.243153	1.098810	-0.000130
1275	1.2676e+02	-10.7660	-33.078272	0.000274	2.736410	0.927121	-0.000110
1276	1.2686e+02	-10.8077	-33.171126	0.000233	2.331016	0.789770	-0.000093
1277	1.2696e+02	-10.8462	-33.272054	0.000253	2.533713	0.858445	-0.000101
1278	1.2706e+02	-10.8847	-33.372983	0.000253	2.533713	0.858445	-0.000101
1279	1.2716e+02	-10.9200	-33.481985	0.000274	2.736410	0.927121	-0.000110
1280	1.2726e+02	-10.9681	-33.627322	0.000365	3.648547	1.236161	-0.000146
1281	1.2736e+02	-10.9986	-33.712102	0.000213	2.128319	0.721094	-0.000085
1282	1.2746e+02	-11.0403	-33.804956	0.000233	2.331016	0.789770	-0.000093
1283	1.2756e+02	-11.0869	-33.917996	0.000284	2.837758	0.961459	-0.000114
1284	1.2766e+02	-11.1205	-34.055259	0.000345	3.445850	1.167485	-0.000138
1285	1.2776e+02	-11.1671	-34.152150	0.000243	2.432364	0.824107	-0.000097
1286	1.2786e+02	-11.2088	-34.273264	0.000304	3.040456	1.030134	-0.000122
1287	1.2796e+02	-11.2457	-34.341895	0.000172	1.722925	0.583743	-0.000069
1288	1.2806e+02	-11.2826	-34.495306	0.000385	3.851244	1.304837	-0.000154
1289	1.2816e+02	-11.3211	-34.620458	0.000314	3.141804	1.064472	-0.000126
1290	1.2826e+02	-11.3724	-34.660829	0.000101	1.013485	0.343378	-0.000041
1291	1.2835e+02	-11.4013	-34.777906	0.000294	2.939107	0.995796	-0.000118
1292	1.2845e+02	-11.4398	-34.931317	0.000385	3.851244	1.304837	-0.000154
1293	1.2855e+02	-11.4847	-35.020134	0.000223	2.229667	0.755432	-0.000089
1294	1.2865e+02	-11.5248	-35.165471	0.000365	3.648547	1.236161	-0.000146
1295	1.2875e+02	-11.5681	-35.238139	0.000182	1.824273	0.618081	-0.000073
1296	1.2885e+02	-11.6082	-35.326956	0.000223	2.229667	0.755432	-0.000089
1297	1.2895e+02	-11.6419	-35.456145	0.000324	3.243153	1.098810	-0.000130
1298	1.2905e+02	-11.6868	-35.536887	0.000203	2.026970	0.686756	-0.000081
1299	1.2915e+02	-11.7237	-35.670113	0.000334	3.344501	1.133148	-0.000134
1300	1.2925e+02	-11.7767	-35.783153	0.000284	2.837758	0.961459	-0.000114
1301	1.2935e+02	-11.8007	-35.884081	0.000253	2.533713	0.858445	-0.000101
1302	1.2945e+02	-11.8441	-35.976935	0.000233	2.331016	0.789770	-0.000093
1303	1.2955e+02	-11.8906	-36.126309	0.000375	3.749895	1.270499	-0.000150
1304	1.2965e+02	-11.9227	-36.190903	0.000162	1.621576	0.549405	-0.000065
1305	1.2975e+02	-11.9612	-36.324129	0.000334	3.344501	1.133148	-0.000134
1306	1.2985e+02	-11.9965	-36.449280	0.000314	3.141804	1.064472	-0.000126
1307	1.2995e+02	-12.0478	-36.578468	0.000324	3.243153	1.098810	-0.000130
1308	1.3005e+02	-12.0911	-36.606728	0.000071	0.709440	0.240365	-0.000028
1309	1.3015e+02	-12.1248	-36.731880	0.000314	3.141804	1.064472	-0.000126
1310	1.3025e+02	-12.1585	-36.832808	0.000253	2.533713	0.858445	-0.000101
1311	1.3034e+02	-12.2034	-36.929699	0.000243	2.432364	0.824107	-0.000097
1312	1.3044e+02	-12.2467	-37.058888	0.000324	3.243153	1.098810	-0.000130
1313	1.3054e+02	-12.2756	-37.155779	0.000243	2.432364	0.824107	-0.000097
1314	1.3064e+02	-12.3141	-37.293041	0.000345	3.445850	1.167485	-0.000138
1315	1.3074e+02	-12.3686	-37.345524	0.000132	1.317531	0.446391	-0.000053
1316	1.3084e+02	-12.4007	-37.462601	0.000294	2.939107	0.995796	-0.000118
1317	1.3094e+02	-12.4344	-37.567567	0.000264	2.635061	0.892783	-0.000105
1318	1.3104e+02	-12.4745	-37.668495	0.000253	2.533713	0.858445	-0.000101
1319	1.3114e+02	-12.5275	-37.753275	0.000213	2.128319	0.721094	-0.000085
1320	1.3124e+02	-12.5547	-37.870352	0.000294	2.939107	0.995796	-0.000118
1321	1.3134e+02	-12.5980	-37.979354	0.000274	2.736410	0.927121	-0.000110
1322	1.3144e+02	-12.6414	-38.088357	0.000274	2.736410	0.927121	-0.000110
1323	1.3154e+02	-12.6799	-38.148914	0.000152	1.520228	0.515067	-0.000061
1324	1.3164e+02	-12.7103	-38.290214	0.000355	3.547198	1.201823	-0.000142
1325	1.3174e+02	-12.7585	-38.423439	0.000334	3.344501	1.133148	-0.000134
1326	1.3184e+02	-12.8066	-38.520331	0.000243	2.432364	0.824107	-0.000097
1327	1.3194e+02	-12.8419	-38.572813	0.000132	1.317531	0.446391	-0.000053
1328	1.3204e+02	-12.8836	-38.702002	0.000324	3.243153	1.098810	-0.000130
1329	1.3214e+02	-12.9173	-38.798893	0.000243	2.432364	0.824107	-0.000097
1330	1.3224e+02	-12.9526	-38.875599	0.000193	1.925622	0.652418	-0.000077
1331	1.3234e+02	-12.9895	-39.008824	0.000334	3.344501	1.133148	-0.000134
1332	1.3243e+02	-13.0296	-39.077455	0.000172	1.722925	0.583743	-0.000069
1333	1.3253e+02	-13.0761	-39.190495	0.000284	2.837758	0.961459	-0.000114
1334	1.3263e+02	-13.1210	-39.319684	0.000324	3.243153	1.098810	-0.000130
1335	1.3273e+02	-13.1563	-39.408501	0.000223	2.229667	0.755432	-0.000089
1336	1.3283e+02	-13.1900	-39.533652	0.000314	3.141804	1.064472	-0.000126
1337	1.3293e+02	-13.2365	-39.614394	0.000203	2.026970	0.686756	-0.000081
1338	1.3303e+02	-13.2750	-39.695137	0.000203	2.026970	0.686756	-0.000081
1339	1.3313e+02	-13.3232	-39.824325	0.000324	3.243153	1.098810	-0.000130
1340	1.3323e+02	-13.3601	-39.864697	0.000101	1.013485	0.343378	-0.000041
1341	1.3333e+02	-13.3986	-40.026182	0.000405	4.053941	1.373512	-0.000162
1342	1.3343e+02	-13.4387	-40.135185	0.000274	2.736410	0.927121	-0.000110
1343	1.3353e+02	-13.4788	-40.203816	0.000172	1.722925	0.583743	-0.000069
1344	1.3363e+02	-13.5285	-40.320893	0.000294	2.939107	0.995796	-0.000118
1345	1.3373e+02	-13.5638	-40.381450	0.000152	1.520228	0.515067	-0.000061
1346	1.3383e+02	-13.5959	-40.514676	0.000334	3.344501	1.133148	-0.000134
1347	1.3393e+02	-13.6360	-40.627715	0.000284	2.837758	0.961459	-0.000114
1348	1.3403e+02	-13.6761	-40.716532	0.000223	2.229667	0.755432	-0.000089
1349	1.3413e+02	-13.7114	-40.841684	0.000314	3.141804	1.064472	-0.000126
1350	1.3423e+02	-13.7483	-40.914352	0.000182	1.824273	0.618081	-0.000073
1351	1.3432e+02	-13.8092	-41.015281	0.000253	2.533713	0.858445	-0.000101
1352	1.3442e+02	-13.8317	-41.112172	0.000243	2.432364	0.824107	-0.000097
1353	1.3452e+02	-13.8798	-41.225212	0.000284	2.837758	0.961459	-0.000114
1354	1.3462e+02	-13.9039	-41.309991	0.000213	2.128319	0.721094	-0.000085
1355	1.3472e+02	-13.9520	-41.418994	0.000274	2.736410	0.927121	-0.000110
1356	1.3482e+02	-13.9921	-41.532034	0.000284	2.837758	0.961459	-0.000114
1357	1.3492e+02	-14.0290	-41.616814	0.000213	2.128319	0.721094	-0.000085
1358	1.3502e+02	-14.0627	-41.709668	0.000233	2.331016	0.789770	-0.000093
1359	1.3512e+02	-14.1140	-41.790411	0.000203	2.026970	0.686756	-0.000081
1360	1.3522e+02	-14.1525	-41.947859	0.000395	3.952592	1.339174	-0.000158
1361	1.3532e+02	-14.1878	-42.008416	0.000152	1.520228	0.515067	-0.000061
1362	1.3542e+02	-14.2279	-42.149716	0.000355	3.547198	1.201823	-0.000142
1363	1.3552e+02	-14.2648	-42.230458	0.000203	2.026970	0.686756	-0.000081
1364	1.3562e+02	-14.3130	-42.367721	0.000345	3.445850	1.167485	-0.000138
1365	1.3572e+02	-14.3450	-42.428278	0.000152	1.520228	0.515067	-0.000061
1366	1.3582e+02	-14.3900	-42.557466	0.000324	3.243153	1.098810	-0.000130
1367	1.3592e+02	-14.4397	-42.642246	0.000213	2.128319	0.721094	-0.000085
1368	1.3602e+02	-14.4734	-42.718952	0.000193	1.925622	0.652418	-0.000077
1369	1.3612e+02	-14.5055	-42.819880	0.000253	2.533713	0.858445	-0.000101
1370	1.3622e+02	-14.5520	-42.904660	0.000213	2.128319	0.721094	-0.000085
1371	1.3631e+02	-14.5889	-43.066145	0.000405	4.053941	1.373512	-0.000162
1372	1.3641e+02	-14.6306	-43.126703	0.000152	1.520228	0.515067	-0.000061
1373	1.3651e+02	-14.6675	-43.251854	0.000314	3.141804	1.064472	-0.000126
1374	1.3661e+02	-14.7076	-43.332596	0.000203	2.026970	0.686756	-0.000081
1375	1.3671e+02	-14.7445	-43.457748	0.000314	3.141804	1.064472	-0.000126
1376	1.3681e+02	-14.7814	-43.506193	0.000122	1.216182	0.412054	-0.000049
1377	1.3691e+02	-14.8279	-43.590973	0.000213	2.128319	0.721094	-0.000085
1378	1.3701e+02	-14.8712	-43.704013	0.000284	2.837758	0.961459	-0.000114
1379	1.3711e+02	-14.9162	-43.821090	0.000294	2.939107	0.995796	-0.000118
1380	1.3721e+02	-14.9531	-43.930093	0.000274	2.736410	0.927121	-0.000110
1381	1.3731e+02	-14.9948	-44.031021	0.000253	2.533713	0.858445	-0.000101
1382	1.3741e+02	-15.0268	-44.103689	0.000182	1.824273	0.618081	-0.000073
1383	1.3751e+02	-15.0686	-44.216729	0.000284	2.837758	0.961459	-0.000114
1384	1.3761e+02	-15.1103	-44.285360	0.000172	1.722925	0.583743	-0.000069
1385	1.3771e+02	-15.1472	-44.394363	0.000274	2.736410	0.927121	-0.000110
1386	1.3781e+02	-15.1937	-44.483180	0.000223	2.229667	0.755432	-0.000089
1387	1.3791e+02	-15.2370	-44.600257	0.000294	2.939107	0.995796	-0.000118
1388	1.3801e+02	-15.2627	-44.685037	0.000213	2.128319	0.721094	-0.000085
1389	1.3811e+02	-15.3124	-44.794040	0.000274	2.736410	0.927121	-0.000110
1390	1.3821e+02	-15.3429	-44.911117	0.000294	2.939107	0.995796	-0.000118
1391	1.3831e+02	-15.3878	-45.028193	0.000294	2.939107	0.995796	-0.000118
1392	1.3840e+02	-15.4343	-45.092788	0.000162	1.621576	0.549405	-0.000065
1393	1.3850e+02	-15.4648	-45.149308	0.000142	1.418879	0.480729	-0.000057
1394	1.3860e+02	-15.5001	-45.290607	0.000355	3.547198	1.201823	-0.000142
1395	1.3870e+02	-15.5514	-45.359239	0.000172	1.722925	0.583743	-0.000069
1396	1.3880e+02	-15.5915	-45.512650	0.000385	3.851244	1.304837	-0.000154
1397	1.3890e+02	-15.6268	-45.593392	0.000203	2.026970	0.686756	-0.000081
1398	1.3900e+02	-15.6637	-45.694321	0.000253	2.533713	0.858445	-0.000101
1399	1.3910e+02	-15.7086	-45.819472	0.000314	3.141804	1.064472	-0.000126
1400	1.3920e+02	-15.7455	-45.900215	0.000203	2.026970	0.686756	-0.000081
1401	1.3930e+02	-15.7873	-45.964809	0.000162	1.621576	0.549405	-0.000065
1402	1.3940e+02	-15.8306	-46.102072	0.000345	3.445850	1.167485	-0.000138
1403	1.3950e+02	-15.8643	-46.190889	0.000223	2.229667	0.755432	-0.000089
1404	1.3960e+02	-15.9060	-46.267594	0.000193	1.925622	0.652418	-0.000077
1405	1.3970e+02	-15.9477	-46.368523	0.000253	2.533713	0.858445	-0.000101
1406	1.3980e+02	-15.9926	-46.485599	0.000294	2.939107	0.995796	-0.000118
1407	1.3990e+02	-16.0311	-46.610751	0.000314	3.141804	1.064472	-0.000126
1408	1.4000e+02	-16.0616	-46.667271	0.000142	1.418879	0.480729	-0.000057
1409	1.4010e+02	-16.1145	-46.776273	0.000274	2.736410	0.927121	-0.000110
1410	1.4020e+02	-16.1450	-46.897387	0.000304	3.040456	1.030134	-0.000122
1411	1.4029e+02	-16.1835	-46.961981	0.000162	1.621576	0.549405	-0.000065
1412	1.4039e+02	-16.2268	-47.095207	0.000334	3.344501	1.133148	-0.000134
1413	1.4049e+02	-16.2573	-47.196135	0.000253	2.533713	0.858445	-0.000101
1414	1.4059e+02	-16.3070	-47.268804	0.000182	1.824273	0.618081	-0.000073
1415	1.4069e+02	-16.3423	-47.381844	0.000284	2.837758	0.961459	-0.000114
1416	1.4079e+02	-16.3776	-47.486809	0.000264	2.635061	0.892783	-0.000105
1417	1.4089e+02	-16.4177	-47.587738	0.000253	2.533713	0.858445	-0.000101
1418	1.4099e+02	-16.4658	-47.696740	0.000274	2.736410	0.927121	-0.000110
1419	1.4109e+02	-16.5060	-47.805743	0.000274	2.736410	0.927121	-0.000110
1420	1.4119e+02	-16.5445	-47.882448	0.000193	1.925622	0.652418	-0.000077
1421	1.4129e+02	-16.5830	-48.015674	0.000334	3.344501	1.133148	-0.000134
1422	1.4139e+02	-16.6247	-48.088342	0.000182	1.824273	0.618081	-0.000073
1423	1.4149e+02	-16.6744	-48.181196	0.000233	2.331016	0.789770	-0.000093
1424	1.4159e+02	-16.7113	-48.290199	0.000274	2.736410	0.927121	-0.000110
1425	1.4169e+02	-16.7434	-48.370942	0.000203	2.026970	0.686756	-0.000081
1426	1.4179e+02	-16.7787	-48.492056	0.000304	3.040456	1.030134	-0.000122
1427	1.4189e+02	-16.8236	-48.580873	0.000223	2.229667	0.755432	-0.000089
1428	1.4199e+02	-16.8637	-48.669690	0.000223	2.229667	0.755432	-0.000089
1429	1.4209e+02	-16.9022	-48.794841	0.000314	3.141804	1.064472	-0.000126
1430	1.4219e+02	-16.9439	-48.871547	0.000193	1.925622	0.652418	-0.000077
1431	1.4228e+02	-16.9712	-48.956327	0.000213	2.128319	0.721094	-0.000085
1432	1.4238e+02	-17.0289	-49.093589	0.000345	3.445850	1.167485	-0.000138
1433	1.4248e+02	-17.0626	-49.190480	0.000243	2.432364	0.824107	-0.000097
1434	1.4258e+02	-17.1027	-49.291409	0.000253	2.533713	0.858445	-0.000101
1435	1.4268e+02	-17.1380	-49.368114	0.000193	1.925622	0.652418	-0.000077
1436	1.4278e+02	-17.1797	-49.477117	0.000274	2.736410	0.927121	-0.000110
1437	1.4288e+02	-17.2295	-49.565934	0.000223	2.229667	0.755432	-0.000089
1438	1.4298e+02	-17.2519	-49.683011	0.000294	2.939107	0.995796	-0.000118
1439	1.4308e+02	-17.3049	-49.751642	0.000172	1.722925	0.583743	-0.000069
1440	1.4318e+02	-17.3434	-49.872756	0.000304	3.040456	1.030134	-0.000122
1441	1.4328e+02	-17.3706	-49.937351	0.000162	1.621576	0.549405	-0.000065
1442	1.4338e+02	-17.4188	-50.046353	0.000274	2.736410	0.927121	-0.000110
1443	1.4348e+02	-17.4589	-50.143244	0.000243	2.432364	0.824107	-0.000097
1444	1.4358e+02	-17.4958	-50.272433	0.000324	3.243153	1.098810	-0.000130
1445	1.4368e+02	-17.5423	-50.332990	0.000152	1.520228	0.515067	-0.000061
1446	1.4378e+02	-17.5792	-50.466215	0.000334	3.344501	1.133148	-0.000134
1447	1.4388e+02	-17.6177	-50.571181	0.000264	2.635061	0.892783	-0.000105
1448	1.4398e+02	-17.6706	-50.623664	0.000132	1.317531	0.446391	-0.000053
1449	1.4408e+02	-17.7043	-50.760926	0.000345	3.445850	1.167485	-0.000138
1450	1.4418e+02	-17.7428	-50.845706	0.000213	2.128319	0.721094	-0.000085
1451	1.4428e+02	-17.7845	-50.934523	0.000223	2.229667	0.755432	-0.000089
1452	1.4437e+02	-17.8166	-51.023340	0.000223	2.229667	0.755432	-0.000089
1453	1.4447e+02	-17.8535	-51.136380	0.000284	2.837758	0.961459	-0.000114
1454	1.4457e+02	-17.9016	-51.213085	0.000193	1.925622	0.652418	-0.000077
1455	1.4467e+02	-17.9530	-51.285754	0.000182	1.824273	0.618081	-0.000073
1456	1.4477e+02	-17.9851	-51.398794	0.000284	2.837758	0.961459	-0.000114
1457	1.4487e+02	-18.0220	-51.568353	0.000426	4.256638	1.442188	-0.000170
1458	1.4497e+02	-18.0540	-51.604688	0.000091	0.912137	0.309040	-0.000037
1459	1.4507e+02	-18.0974	-51.689467	0.000213	2.128319	0.721094	-0.000085
1460	1.4517e+02	-18.1391	-51.838841	0.000375	3.749895	1.270499	-0.000150
1461	1.4527e+02	-18.1727	-51.947844	0.000274	2.736410	0.927121	-0.000110
1462	1.4537e+02	-18.2225	-52.048773	0.000253	2.533713	0.858445	-0.000101
1463	1.4547e+02	-18.2578	-52.113367	0.000162	1.621576	0.549405	-0.000065
1464	1.4557e+02	-18.2995	-52.230444	0.000294	2.939107	0.995796	-0.000118
1465	1.4567e+02	-18.3460	-52.335409	0.000264	2.635061	0.892783	-0.000105
1466	1.4577e+02	-18.3893	-52.464597	0.000324	3.243153	1.098810	-0.000130
1467	1.4587e+02	-18.4198	-52.525155	0.000152	1.520228	0.515067	-0.000061
1468	1.4597e+02	-18.4471	-52.609934	0.000213	2.128319	0.721094	-0.000085
1469	1.4607e+02	-18.4888	-52.718937	0.000274	2.736410	0.927121	-0.000110
1470	1.4617e+02	-18.5337	-52.819865	0.000253	2.533713	0.858445	-0.000101
1471	1.4626e+02	-18.5738	-52.920794	0.000253	2.533713	0.858445	-0.000101
1472	1.4636e+02	-18.6107	-53.054019	0.000334	3.344501	1.133148	-0.000134
1473	1.4646e+02	-18.6572	-53.138799	0.000213	2.128319	0.721094	-0.000085
1474	1.4656e+02	-18.6973	-53.199356	0.000152	1.520228	0.515067	-0.000061
1475	1.4666e+02	-18.7406	-53.320470	0.000304	3.040456	1.030134	-0.000122
1476	1.4676e+02	-18.7791	-53.401213	0.000203	2.026970	0.686756	-0.000081
1477	1.4686e+02	-18.8096	-53.526364	0.000314	3.141804	1.064472	-0.000126
1478	1.4696e+02	-18.8658	-53.655553	0.000324	3.243153	1.098810	-0.000130
1479	1.4706e+02	-18.8947	-53.716110	0.000152	1.520228	0.515067	-0.000061
1480	1.4716e+02	-18.9316	-53.817038	0.000253	2.533713	0.858445	-0.000101
1481	1.4726e+02	-18.9765	-53.909892	0.000233	2.331016	0.789770	-0.000093
1482	1.4736e+02	-19.0086	-54.018895	0.000274	2.736410	0.927121	-0.000110
1483	1.4746e+02	-19.0567	-54.144046	0.000314	3.141804	1.064472	-0.000126
1484	1.4756e+02	-19.0936	-54.196529	0.000132	1.317531	0.446391	-0.000053
1485	1.4766e+02	-19.1273	-54.281309	0.000213	2.128319	0.721094	-0.000085
1486	1.4776e+02	-19.1738	-54.374163	0.000233	2.331016	0.789770	-0.000093
1487	1.4786e+02	-19.2139	-54.499314	0.000314	3.141804	1.064472	-0.000126
1488	1.4796e+02	-19.2604	-54.576019	0.000193	1.925622	0.652418	-0.000077
1489	1.4806e+02	-19.2909	-54.672911	0.000243	2.432364	0.824107	-0.000097
1490	1.4816e+02	-19.3294	-54.757691	0.000213	2.128319	0.721094	-0.000085
1491	1.4825e+02	-19.3695	-54.862656	0.000264	2.635061	0.892783	-0.000105
1492	1.4835e+02	-19.4208	-54.963585	0.000253	2.533713	0.858445	-0.000101
1493	1.4845e+02	-19.4481	-55.104884	0.000355	3.547198	1.201823	-0.000142
1494	1.4855e+02	-19.4962	-55.169478	0.000162	1.621576	0.549405	-0.000065
1495	1.4865e+02	-19.5267	-55.290593	0.000304	3.040456	1.030134	-0.000122
1496	1.4875e+02	-19.5732	-55.367298	0.000193	1.925622	0.652418	-0.000077
1497	1.4885e+02	-19.6053	-55.480338	0.000284	2.837758	0.961459	-0.000114
1498	1.4895e+02	-19.6502	-55.548969	0.000172	1.722925	0.583743	-0.000069
1499	1.4905e+02	-19.6871	-55.662009	0.000284	2.837758	0.961459	-0.000114
1500	1.4915e+02	-19.7337	-55.771012	0.000274	2.736410	0.927121	-0.000110
1501	1.4925e+02	-19.7722	-55.859829	0.000223	2.229667	0.755432	-0.000089
1502	1.4935e+02	-19.8043	-55.940571	0.000203	2.026970	0.686756	-0.000081
1503	1.4945e+02	-19.8460	-56.069760	0.000324	3.243153	1.098810	-0.000130
1504	1.4955e+02	-19.8941	-56.178762	0.000274	2.736410	0.927121	-0.000110
1505	1.4965e+02	-19.9342	-56.267579	0.000223	2.229667	0.755432	-0.000089
1506	1.4975e+02	-19.9791	-56.360433	0.000233	2.331016	0.789770	-0.000093
1507	1.4985e+02	-20.0128	-56.425028	0.000162	1.621576	0.549405	-0.000065
1508	1.4995e+02	-19.9647	-56.384656	0.000101	1.013485	0.343378	0.000041
1509	1.5005e+02	-19.9294	-56.344285	0.000101	1.013485	0.343378	0.000041
1510	1.5015e+02	-19.8925	-56.316025	0.000071	0.709440	0.240365	0.000028
1511	1.5025e+02	-19.8444	-56.219134	0.000243	2.432364	0.824107	0.000097
1512	1.5034e+02	-19.8091	-56.190874	0.000071	0.709440	0.240365	0.000028
1513	1.5044e+02	-19.7658	-56.130317	0.000152	1.520228	0.515067	0.000061
1514	1.5054e+02	-19.7289	-56.077834	0.000132	1.317531	0.446391	0.000053
1515	1.5064e+02	-19.6936	-55.976906	0.000253	2.533713	0.858445	0.000101
1516	1.5074e+02	-19.6470	-55.968831	0.000020	0.202697	0.068676	0.000008
1517	1.5084e+02	-19.6069	-55.835606	0.000334	3.344501	1.133148	0.000134
1518	1.5094e+02	-19.5700	-55.811383	0.000061	0.608091	0.206027	0.000024
1519	1.5104e+02	-19.5380	-55.734677	0.000193	1.925622	0.652418	0.000077
1520	1.5114e+02	-19.4882	-55.662009	0.000182	1.824273	0.618081	0.000073
1521	1.5124e+02	-19.4465	-55.605489	0.000142	1.418879	0.480729	0.000057
1522	1.5134e+02	-19.4096	-55.557043	0.000122	1.216182	0.412054	0.000049
1523	1.5144e+02	-19.3791	-55.476301	0.000203	2.026970	0.686756	0.000081
1524	1.5154e+02	-19.3294	-55.407669	0.000172	1.722925	0.583743	0.000069
1525	1.5164e+02	-19.3021	-55.318852	0.000223	2.229667	0.755432	0.000089
1526	1.5174e+02	-19.2588	-55.274444	0.000111	1.114834	0.377716	0.000045
1527	1.5184e+02	-19.2123	-55.238110	0.000091	0.912137	0.309040	0.000037
1528	1.5194e+02	-19.1866	-55.149293	0.000223	2.229667	0.755432	0.000089
1529	1.5204e+02	-19.1305	-55.044327	0.000264	2.635061	0.892783	0.000105
1530	1.5214e+02	-19.1000	-54.995882	0.000122	1.216182	0.412054	0.000049
1531	1.5224e+02	-19.0567	-54.915139	0.000203	2.026970	0.686756	0.000081
1532	1.5233e+02	-19.0102	-54.854582	0.000152	1.520228	0.515067	0.000061
1533	1.5243e+02	-18.9733	-54.785951	0.000172	1.722925	0.583743	0.000069
1534	1.5253e+02	-18.9396	-54.701171	0.000213	2.128319	0.721094	0.000085
1535	1.5263e+02	-18.8882	-54.668874	0.000081	0.810788	0.274702	0.000032
1536	1.5273e+02	-18.8529	-54.563908	0.000264	2.635061	0.892783	0.000105
1537	1.5283e+02	-18.8128	-54.467017	0.000243	2.432364	0.824107	0.000097
1538	1.5293e+02	-18.7840	-54.454905	0.000030	0.304046	0.103013	0.000012
1539	1.5303e+02	-18.7214	-54.362051	0.000233	2.331016	0.789770	0.000093
1540	1.5313e+02	-18.7021	-54.297457	0.000162	1.621576	0.549405	0.000065
1541	1.5323e+02	-18.6572	-54.192492	0.000264	2.635061	0.892783	0.000105
1542	1.5333e+02	-18.6139	-54.119823	0.000182	1.824273	0.618081	0.000073
1543	1.5343e+02	-18.5834	-54.047155	0.000182	1.824273	0.618081	0.000073
1544	1.5353e+02	-18.5401	-53.950263	0.000243	2.432364	0.824107	0.000097
1545	1.5363e+02	-18.5000	-53.922003	0.000071	0.709440	0.240365	0.000028
1546	1.5373e+02	-18.4583	-53.841261	0.000203	2.026970	0.686756	0.000081
1547	1.5383e+02	-18.4246	-53.720147	0.000304	3.040456	1.030134	0.000122
1548	1.5393e+02	-18.3701	-53.671701	0.000122	1.216182	0.412054	0.000049
1549	1.5403e+02	-18.3492	-53.603070	0.000172	1.722925	0.583743	0.000069
1550	1.5413e+02	-18.3091	-53.490030	0.000284	2.837758	0.961459	0.000114
1551	1.5422e+02	-18.2578	-53.498104	-0.000020	-0.202697	-0.068676	-0.000008
1552	1.5432e+02	-18.2177	-53.385064	0.000284	2.837758	0.961459	0.000114
1553	1.5442e+02	-18.1808	-53.304322	0.000203	2.026970	0.686756	0.000081
1554	1.5452e+02	-18.1407	-53.207430	0.000243	2.432364	0.824107	0.000097
1555	1.5462e+02	-18.0957	-53.102465	0.000264	2.635061	0.892783	0.000105
1556	1.5472e+02	-18.0540	-53.058056	0.000111	1.114834	0.377716	0.000045
1557	1.5482e+02	-18.0123	-52.993462	0.000162	1.621576	0.549405	0.000065
1558	1.5492e+02	-17.9786	-52.928868	0.000162	1.621576	0.549405	0.000065
1559	1.5502e+02	-17.9353	-52.819865	0.000274	2.736410	0.927121	0.000110
1560	1.5512e+02	-17.8920	-52.751234	0.000172	1.722925	0.583743	0.000069
1561	1.5522e+02	-17.8551	-52.646269	0.000264	2.635061	0.892783	0.000105
1562	1.5532e+02	-17.8230	-52.642231	0.000010	0.101349	0.034338	0.000004
1563	1.5542e+02	-17.7749	-52.557452	0.000213	2.128319	0.721094	0.000085
1564	1.5552e+02	-17.7396	-52.424226	0.000334	3.344501	1.133148	0.000134
1565	1.5562e+02	-17.7027	-52.343483	0.000203	2.026970	0.686756	0.000081
1566	1.5572e+02	-17.6610	-52.303112	0.000101	1.013485	0.343378	0.000041
1567	1.5582e+02	-17.6225	-52.218332	0.000213	2.128319	0.721094	0.000085
1568	1.5592e+02	-17.5808	-52.125478	0.000233	2.331016	0.789770	0.000093
1569	1.5602e+02	-17.5423	-52.052810	0.000182	1.824273	0.618081	0.000073
1570	1.5612e+02	-17.5086	-52.008401	0.000111	1.114834	0.377716	0.000045
1571	1.5622e+02	-17.4621	-51.911510	0.000243	2.432364	0.824107	0.000097
1572	1.5631e+02	-17.4220	-51.859027	0.000132	1.317531	0.446391	0.000053
1573	1.5641e+02	-17.3803	-51.766173	0.000233	2.331016	0.789770	0.000093
1574	1.5651e+02	-17.3450	-51.681393	0.000213	2.128319	0.721094	0.000085
1575	1.5661e+02	-17.3097	-51.592576	0.000223	2.229667	0.755432	0.000089
1576	1.5671e+02	-17.2648	-51.552205	0.000101	1.013485	0.343378	0.000041
1577	1.5681e+02	-17.2150	-51.471462	0.000203	2.026970	0.686756	0.000081
1578	1.5691e+02	-17.1733	-51.402831	0.000172	1.722925	0.583743	0.000069
1579	1.5701e+02	-17.1348	-51.301902	0.000253	2.533713	0.858445	0.000101
1580	1.5711e+02	-17.1075	-51.257494	0.000111	1.114834	0.377716	0.000045
1581	1.5721e+02	-17.0578	-51.164640	0.000233	2.331016	0.789770	0.000093
1582	1.5731e+02	-17.0193	-51.035451	0.000324	3.243153	1.098810	0.000130
1583	1.5741e+02	-16.9712	-51.011229	0.000061	0.608091	0.206027	0.000024
1584	1.5751e+02	-16.9455	-50.898189	0.000284	2.837758	0.961459	0.000114
1585	1.5761e+02	-16.9102	-50.813409	0.000213	2.128319	0.721094	0.000085
1586	1.5771e+02	-16.8637	-50.789186	0.000061	0.608091	0.206027	0.000024
1587	1.5781e+02	-16.8172	-50.680183	0.000274	2.736410	0.927121	0.000110
1588	1.5791e+02	-16.7803	-50.595404	0.000213	2.128319	0.721094	0.000085
1589	1.5801e+02	-16.7450	-50.534847	0.000152	1.520228	0.515067	0.000061
1590	1.5811e+02	-16.7049	-50.446030	0.000223	2.229667	0.755432	0.000089
1591	1.5821e+02	-16.6680	-50.361250	0.000213	2.128319	0.721094	0.000085
1592	1.5830e+02	-16.6231	-50.268396	0.000233	2.331016	0.789770	0.000093
1593	1.5840e+02	-16.5814	-50.183616	0.000213	2.128319	0.721094	0.000085
1594	1.5850e+02	-16.5461	-50.131133	0.000132	1.317531	0.446391	0.000053
1595	1.5860e+02	-16.5027	-50.054427	0.000193	1.925622	0.652418	0.000077
1596	1.5870e+02	-16.4674	-49.961573	0.000233	2.331016	0.789770	0.000093
1597	1.5880e+02	-16.4225	-49.909091	0.000132	1.317531	0.446391	0.000053
1598	1.5890e+02	-16.3969	-49.812199	0.000243	2.432364	0.824107	0.000097
1599	1.5900e+02	-16.3359	-49.703197	0.000274	2.736410	0.927121	0.000110
1600	1.5910e+02	-16.3086	-49.634565	0.000172	1.722925	0.583743	0.000069
1601	1.5920e+02	-16.2653	-49.553823	0.000203	2.026970	0.686756	0.000081
1602	1.5930e+02	-16.2284	-49.473080	0.000203	2.026970	0.686756	0.000081
1603	1.5940e+02	-16.1819	-49.360040	0.000284	2.837758	0.961459	0.000114
1604	1.5950e+02	-16.1418	-49.299483	0.000152	1.520228	0.515067	0.000061
1605	1.5960e+02	-16.1097	-49.234889	0.000162	1.621576	0.549405	0.000065
1606	1.5970e+02	-16.0696	-49.133960	0.000253	2.533713	0.858445	0.000101
1607	1.5980e+02	-16.0279	-49.061292	0.000182	1.824273	0.618081	0.000073
1608	1.5990e+02	-15.9814	-48.976512	0.000213	2.128319	0.721094	0.000085
1609	1.6000e+02	-15.9397	-48.887695	0.000223	2.229667	0.755432	0.000089
1610	1.6010e+02	-15.9060	-48.831175	0.000142	1.418879	0.480729	0.000057
1611	1.6019e+02	-15.8610	-48.746395	0.000213	2.128319	0.721094	0.000085
1612	1.6029e+02	-15.8258	-48.653541	0.000233	2.331016	0.789770	0.000093
1613	1.6039e+02	-15.7873	-48.564724	0.000223	2.229667	0.755432	0.000089
1614	1.6049e+02	-15.7520	-48.479945	0.000213	2.128319	0.721094	0.000085
1615	1.6059e+02	-15.7070	-48.403239	0.000193	1.925622	0.652418	0.000077
1616	1.6069e+02	-15.6653	-48.302311	0.000253	2.533713	0.858445	0.000101
1617	1.6079e+02	-15.6268	-48.213494	0.000223	2.229667	0.755432	0.000089
1618	1.6089e+02	-15.5931	-48.112565	0.000253	2.533713	0.858445	0.000101
1619	1.6099e+02	-15.5466	-48.052008	0.000152	1.520228	0.515067	0.000061
1620	1.6109e+02	-15.5065	-47.975303	0.000193	1.925622	0.652418	0.000077
1621	1.6119e+02	-15.4712	-47.886486	0.000223	2.229667	0.755432	0.000089
1622	1.6129e+02	-15.4247	-47.785557	0.000253	2.533713	0.858445	0.000101
1623	1.6139e+02	-15.3926	-47.733074	0.000132	1.317531	0.446391	0.000053
1624	1.6149e+02	-15.3557	-47.632146	0.000253	2.533713	0.858445	0.000101
1625	1.6159e+02	-15.3156	-47.555440	0.000193	1.925622	0.652418	0.000077
1626	1.6169e+02	-15.2611	-47.458549	0.000243	2.432364	0.824107	0.000097
1627	1.6179e+02	-15.2322	-47.393955	0.000162	1.621576	0.549405	0.000065
1628	1.6189e+02	-15.1937	-47.301101	0.000233	2.331016	0.789770	0.000093
1629	1.6199e+02	-15.1472	-47.208247	0.000233	2.331016	0.789770	0.000093
1630	1.6209e+02	-15.1071	-47.143653	0.000162	1.621576	0.549405	0.000065
1631	1.6219e+02	-15.0654	-47.091170	0.000132	1.317531	0.446391	0.000053
1632	1.6228e+02	-15.0333	-46.966019	0.000314	3.141804	1.064472	0.000126
1633	1.6238e+02	-14.9803	-46.873164	0.000233	2.331016	0.789770	0.000093
1634	1.6248e+02	-14.9466	-46.792422	0.000203	2.026970	0.686756	0.000081
1635	1.6258e+02	-14.9113	-46.727828	0.000162	1.621576	0.549405	0.000065
1636	1.6268e+02	-14.8777	-46.618825	0.000274	2.736410	0.927121	0.000110
1637	1.6278e+02	-14.8247	-46.558268	0.000152	1.520228	0.515067	0.000061
1638	1.6288e+02	-14.7782	-46.453302	0.000264	2.635061	0.892783	0.000105
1639	1.6298e+02	-14.7477	-46.356411	0.000243	2.432364	0.824107	0.000097
1640	1.6308e+02	-14.6996	-46.283743	0.000182	1.824273	0.618081	0.000073
1641	1.6318e+02	-14.6691	-46.178777	0.000264	2.635061	0.892783	0.000105
1642	1.6328e+02	-14.6322	-46.130332	0.000122	1.216182	0.412054	0.000049
1643	1.6338e+02	-14.5873	-46.005180	0.000314	3.141804	1.064472	0.000126
1644	1.6348e+02	-14.5584	-45.928475	0.000193	1.925622	0.652418	0.000077
1645	1.6358e+02	-14.5071	-45.867918	0.000152	1.520228	0.515067	0.000061
1646	1.6368e+02	-14.4702	-45.783138	0.000213	2.128319	0.721094	0.000085
1647	1.6378e+02	-14.4301	-45.710469	0.000182	1.824273	0.618081	0.000073
1648	1.6388e+02	-14.3819	-45.601467	0.000274	2.736410	0.927121	0.000110
1649	1.6398e+02	-14.3499	-45.439981	0.000405	4.053941	1.373512	0.000162
1650	1.6408e+02	-14.3065	-45.431907	0.000020	0.202697	0.068676	0.000008
1651	1.6418e+02	-14.2664	-45.318867	0.000284	2.837758	0.961459	0.000114
1652	1.6427e+02	-14.2328	-45.238125	0.000203	2.026970	0.686756	0.000081
1653	1.6437e+02	-14.1959	-45.145270	0.000233	2.331016	0.789770	0.000093
1654	1.6447e+02	-14.1558	-45.044342	0.000253	2.533713	0.858445	0.000101
1655	1.6457e+02	-14.1092	-44.931302	0.000284	2.837758	0.961459	0.000114
1656	1.6467e+02	-14.0723	-44.894968	0.000091	0.912137	0.309040	0.000037
1657	1.6477e+02	-14.0418	-44.753668	0.000355	3.547198	1.201823	0.000142
1658	1.6487e+02	-13.9985	-44.693111	0.000152	1.520228	0.515067	0.000061
1659	1.6497e+02	-13.9520	-44.576034	0.000294	2.939107	0.995796	0.000118
1660	1.6507e+02	-13.9135	-44.531626	0.000111	1.114834	0.377716	0.000045
1661	1.6517e+02	-13.8670	-44.402437	0.000324	3.243153	1.098810	0.000130
1662	1.6527e+02	-13.8365	-44.273249	0.000324	3.243153	1.098810	0.000130
1663	1.6537e+02	-13.7980	-44.212692	0.000152	1.520228	0.515067	0.000061
1664	1.6547e+02	-13.7547	-44.111764	0.000253	2.533713	0.858445	0.000101
1665	1.6557e+02	-13.7146	-44.035058	0.000193	1.925622	0.652418	0.000077
1666	1.6567e+02	-13.6681	-43.942204	0.000233	2.331016	0.789770	0.000093
1667	1.6577e+02	-13.6360	-43.849350	0.000233	2.331016	0.789770	0.000093
1668	1.6587e+02	-13.5975	-43.728236	0.000304	3.040456	1.030134	0.000122
1669	1.6597e+02	-13.5558	-43.683827	0.000111	1.114834	0.377716	0.000045
1670	1.6607e+02	-13.5076	-43.566750	0.000294	2.939107	0.995796	0.000118
1671	1.6616e+02	-13.4852	-43.461785	0.000264	2.635061	0.892783	0.000105
1672	1.6626e+02	-13.4387	-43.393153	0.000172	1.722925	0.583743	0.000069
1673	1.6636e+02	-13.3953	-43.296262	0.000243	2.432364	0.824107	0.000097
1674	1.6646e+02	-13.3584	-43.219557	0.000193	1.925622	0.652418	0.000077
1675	1.6656e+02	-13.3167	-43.130740	0.000223	2.229667	0.755432	0.000089
1676	1.6666e+02	-13.2782	-43.029811	0.000253	2.533713	0.858445	0.000101
1677	1.6676e+02	-13.2397	-42.908697	0.000304	3.040456	1.030134	0.000122
1678	1.6686e+02	-13.1852	-42.823917	0.000213	2.128319	0.721094	0.000085
1679	1.6696e+02	-13.1595	-42.775472	0.000122	1.216182	0.412054	0.000049
1680	1.6706e+02	-13.1130	-42.626098	0.000375	3.749895	1.270499	0.000150
1681	1.6716e+02	-13.0761	-42.545355	0.000203	2.026970	0.686756	0.000081
1682	1.6726e+02	-13.0392	-42.432315	0.000284	2.837758	0.961459	0.000114
1683	1.6736e+02	-12.9911	-42.355610	0.000193	1.925622	0.652418	0.000077
1684	1.6746e+02	-12.9478	-42.291015	0.000162	1.621576	0.549405	0.000065
1685	1.6756e+02	-12.9125	-42.157790	0.000334	3.344501	1.133148	0.000134
1686	1.6766e+02	-12.8756	-42.105307	0.000132	1.317531	0.446391	0.000053
1687	1.6776e+02	-12.8419	-42.016490	0.000223	2.229667	0.755432	0.000089
1688	1.6786e+02	-12.7922	-41.911525	0.000264	2.635061	0.892783	0.000105
1689	1.6796e+02	-12.7537	-41.794448	0.000294	2.939107	0.995796	0.000118
1690	1.6806e+02	-12.7232	-41.701594	0.000233	2.331016	0.789770	0.000093
1691	1.6816e+02	-12.6766	-41.645074	0.000142	1.418879	0.480729	0.000057
1692	1.6825e+02	-12.6430	-41.540108	0.000264	2.635061	0.892783	0.000105
1693	1.6835e+02	-12.6093	-41.459365	0.000203	2.026970	0.686756	0.000081
1694	1.6845e+02	-12.5579	-41.342289	0.000294	2.939107	0.995796	0.000118
1695	1.6855e+02	-12.5275	-41.237323	0.000264	2.635061	0.892783	0.000105
1696	1.6865e+02	-12.4761	-41.144469	0.000233	2.331016	0.789770	0.000093
1697	1.6875e+02	-12.4328	-41.091986	0.000132	1.317531	0.446391	0.000053
1698	1.6885e+02	-12.4087	-40.958761	0.000334	3.344501	1.133148	0.000134
1699	1.6895e+02	-12.3542	-40.853795	0.000264	2.635061	0.892783	0.000105
1700	1.6905e+02	-12.3269	-40.809387	0.000111	1.114834	0.377716	0.000045
1701	1.6915e+02	-12.2852	-40.680198	0.000324	3.243153	1.098810	0.000130
1702	1.6925e+02	-12.2419	-40.563121	0.000294	2.939107	0.995796	0.000118
1703	1.6935e+02	-12.1954	-40.510639	0.000132	1.317531	0.446391	0.000053
1704	1.6945e+02	-12.1585	-40.373376	0.000345	3.445850	1.167485	0.000138
1705	1.6955e+02	-12.1232	-40.276485	0.000243	2.432364	0.824107	0.000097
1706	1.6965e+02	-12.0735	-40.207853	0.000172	1.722925	0.583743	0.000069
1707	1.6975e+02	-12.0382	-40.106925	0.000253	2.533713	0.858445	0.000101
1708	1.6985e+02	-12.0045	-40.014071	0.000233	2.331016	0.789770	0.000093
1709	1.6995e+02	-11.9628	-39.925254	0.000223	2.229667	0.755432	0.000089
1710	1.7005e+02	-11.9194	-39.848548	0.000193	1.925622	0.652418	0.000077
1711	1.7015e+02	-11.8938	-39.695137	0.000385	3.851244	1.304837	0.000154
1712	1.7024e+02	-11.8408	-39.630543	0.000162	1.621576	0.549405	0.000065
1713	1.7034e+02	-11.8007	-39.565949	0.000162	1.621576	0.549405	0.000065
1714	1.7044e+02	-11.7478	-39.460983	0.000264	2.635061	0.892783	0.000105
1715	1.7054e+02	-11.7205	-39.335832	0.000314	3.141804	1.064472	0.000126
1716	1.7064e+02	-11.6756	-39.234904	0.000253	2.533713	0.858445	0.000101
1717	1.7074e+02	-11.6483	-39.170309	0.000162	1.621576	0.549405	0.000065
1718	1.7084e+02	-11.6034	-39.029010	0.000355	3.547198	1.201823	0.000142
1719	1.7094e+02	-11.5633	-38.928081	0.000253	2.533713	0.858445	0.000101
1720	1.7104e+02	-11.5232	-38.839264	0.000223	2.229667	0.755432	0.000089
1721	1.7114e+02	-11.4815	-38.742373	0.000243	2.432364	0.824107	0.000097
1722	1.7124e+02	-11.4366	-38.637408	0.000264	2.635061	0.892783	0.000105
1723	1.7134e+02	-11.4125	-38.556665	0.000203	2.026970	0.686756	0.000081
1724	1.7144e+02	-11.3644	-38.419402	0.000345	3.445850	1.167485	0.000138
1725	1.7154e+02	-11.3323	-38.346734	0.000182	1.824273	0.618081	0.000073
1726	1.7164e+02	-11.2858	-38.217545	0.000324	3.243153	1.098810	0.000130
1727	1.7174e+02	-11.2425	-38.152951	0.000162	1.621576	0.549405	0.000065
1728	1.7184e+02	-11.2072	-38.068171	0.000213	2.128319	0.721094	0.000085
1729	1.7194e+02	-11.1590	-37.979354	0.000223	2.229667	0.755432	0.000089
1730	1.7204e+02	-11.1189	-37.846129	0.000334	3.344501	1.133148	0.000134
1731	1.7213e+02	-11.0869	-37.757312	0.000223	2.229667	0.755432	0.000089
1732	1.7223e+02	-11.0516	-37.620049	0.000345	3.445850	1.167485	0.000138
1733	1.7233e+02	-11.0066	-37.555455	0.000162	1.621576	0.549405	0.000065
1734	1.7243e+02	-10.9633	-37.470675	0.000213	2.128319	0.721094	0.000085
1735	1.7253e+02	-10.9296	-37.361673	0.000274	2.736410	0.927121	0.000110
1736	1.7263e+02	-10.8847	-37.280930	0.000203	2.026970	0.686756	0.000081
1737	1.7273e+02	-10.8510	-37.155779	0.000314	3.141804	1.064472	0.000126
1738	1.7283e+02	-10.8109	-37.038702	0.000294	2.939107	0.995796	0.000118
1739	1.7293e+02	-10.7692	-37.014479	0.000061	0.608091	0.206027	0.000024
1740	1.7303e+02	-10.7275	-36.861068	0.000385	3.851244	1.304837	0.000154
1741	1.7313e+02	-10.6954	-36.780325	0.000203	2.026970	0.686756	0.000081
1742	1.7323e+02	-10.6457	-36.699582	0.000203	2.026970	0.686756	0.000081
1743	1.7333e+02	-10.6152	-36.598654	0.000253	2.533713	0.858445	0.000101
1744	1.7343e+02	-10.5623	-36.489651	0.000274	2.736410	0.927121	0.000110
1745	1.7353e+02	-10.5286	-36.425057	0.000162	1.621576	0.549405	0.000065
1746	1.7363e+02	-10.4853	-36.307980	0.000294	2.939107	0.995796	0.000118
1747	1.7373e+02	-10.4468	-36.227238	0.000203	2.026970	0.686756	0.000081
1748	1.7383e+02	-10.4018	-36.098049	0.000324	3.243153	1.098810	0.000130
1749	1.7393e+02	-10.3682	-35.997121	0.000253	2.533713	0.858445	0.000101
1750	1.7403e+02	-10.3281	-35.916378	0.000203	2.026970	0.686756	0.000081
1751	1.7413e+02	-10.2847	-35.831598	0.000213	2.128319	0.721094	0.000085
1752	1.7422e+02	-10.2414	-35.714521	0.000294	2.939107	0.995796	0.000118
1753	1.7432e+02	-10.2013	-35.593407	0.000304	3.040456	1.030134	0.000122
1754	1.7442e+02	-10.1676	-35.504590	0.000223	2.229667	0.755432	0.000089
1755	1.7452e+02	-10.1339	-35.435959	0.000172	1.722925	0.583743	0.000069
1756	1.7462e+02	-10.0826	-35.310808	0.000314	3.141804	1.064472	0.000126
1757	1.7472e+02	-10.0425	-35.242176	0.000172	1.722925	0.583743	0.000069
1758	1.7482e+02	-9.9992	-35.088765	0.000385	3.851244	1.304837	0.000154
1759	1.7492e+02	-9.9671	-35.020134	0.000172	1.722925	0.583743	0.000069
1760	1.7502e+02	-9.9286	-34.939391	0.000203	2.026970	0.686756	0.000081
1761	1.7512e+02	-9.8805	-34.794054	0.000365	3.648547	1.236161	0.000146
1762	1.7522e+02	-9.8420	-34.693126	0.000253	2.533713	0.858445	0.000101
1763	1.7532e+02	-9.8131	-34.604309	0.000223	2.229667	0.755432	0.000089
1764	1.7542e+02	-9.7778	-34.475121	0.000324	3.243153	1.098810	0.000130
1765	1.7552e+02	-9.7297	-34.394378	0.000203	2.026970	0.686756	0.000081
1766	1.7562e+02	-9.6831	-34.309598	0.000213	2.128319	0.721094	0.000085
1767	1.7572e+02	-9.6527	-34.200595	0.000274	2.736410	0.927121	0.000110
1768	1.7582e+02	-9.6061	-34.107741	0.000233	2.331016	0.789770	0.000093
1769	1.7592e+02	-9.5757	-33.998739	0.000274	2.736410	0.927121	0.000110
1770	1.7602e+02	-9.5356	-33.922033	0.000193	1.925622	0.652418	0.000077
1771	1.7612e+02	-9.4922	-33.772659	0.000375	3.749895	1.270499	0.000150
1772	1.7621e+02	-9.4537	-33.691916	0.000203	2.026970	0.686756	0.000081
1773	1.7631e+02	-9.4072	-33.619248	0.000182	1.824273	0.618081	0.000073
1774	1.7641e+02	-9.3623	-33.481985	0.000345	3.445850	1.167485	0.000138
1775	1.7651e+02	-9.3366	-33.405280	0.000193	1.925622	0.652418	0.000077
1776	1.7661e+02	-9.3013	-33.300314	0.000264	2.635061	0.892783	0.000105
1777	1.7671e+02	-9.2420	-33.191311	0.000274	2.736410	0.927121	0.000110
1778	1.7681e+02	-9.2099	-33.082309	0.000274	2.736410	0.927121	0.000110
1779	1.7691e+02	-9.1714	-32.961195	0.000304	3.040456	1.030134	0.000122
1780	1.7701e+02	-9.1233	-32.888526	0.000182	1.824273	0.618081	0.000073
1781	1.7711e+02	-9.1040	-32.795672	0.000233	2.331016	0.789770	0.000093
1782	1.7721e+02	-9.0527	-32.670521	0.000314	3.141804	1.064472	0.000126
1783	1.7731e+02	-9.0094	-32.561518	0.000274	2.736410	0.927121	0.000110
1784	1.7741e+02	-8.9741	-32.424256	0.000345	3.445850	1.167485	0.000138
1785	1.7751e+02	-8.9404	-32.331402	0.000233	2.331016	0.789770	0.000093
1786	1.7761e+02	-8.8907	-32.266807	0.000162	1.621576	0.549405	0.000065
1787	1.7771e+02	-8.8457	-32.145693	0.000304	3.040456	1.030134	0.000122
1788	1.7781e+02	-8.8088	-32.032654	0.000284	2.837758	0.961459	0.000114
1789	1.7791e+02	-8.7687	-31.911539	0.000304	3.040456	1.030134	0.000122
1790	1.7801e+02	-8.7399	-31.822722	0.000223	2.229667	0.755432	0.000089
1791	1.7810e+02	-8.6949	-31.737943	0.000213	2.128319	0.721094	0.000085
1792	1.7820e+02	-8.6468	-31.628940	0.000274	2.736410	0.927121	0.000110
1793	1.7830e+02	-8.6099	-31.519937	0.000274	2.736410	0.927121	0.000110
1794	1.7840e+02	-8.5762	-31.427083	0.000233	2.331016	0.789770	0.000093
1795	1.7850e+02	-8.5441	-31.305969	0.000304	3.040456	1.030134	0.000122
1796	1.7860e+02	-8.4976	-31.192929	0.000284	2.837758	0.961459	0.000114
1797	1.7870e+02	-8.4479	-31.043555	0.000375	3.749895	1.270499	0.000150
1798	1.7880e+02	-8.4158	-30.966850	0.000193	1.925622	0.652418	0.000077
1799	1.7890e+02	-8.3661	-30.886107	0.000203	2.026970	0.686756	0.000081
1800	1.7900e+02	-8.3420	-30.764993	0.000304	3.040456	1.030134	0.000122
1801	1.7910e+02	-8.3003	-30.668102	0.000243	2.432364	0.824107	0.000097
1802	1.7920e+02	-8.2506	-30.571210	0.000243	2.432364	0.824107	0.000097
1803	1.7930e+02	-8.2105	-30.401651	0.000426	4.256638	1.442188	0.000170
1804	1.7940e+02	-8.1784	-30.353205	0.000122	1.216182	0.412054	0.000049
1805	1.7950e+02	-8.1335	-30.199794	0.000385	3.851244	1.304837	0.000154
1806	1.7960e+02	-8.0966	-30.131163	0.000172	1.722925	0.583743	0.000069
1807	1.7970e+02	-8.0565	-30.082717	0.000122	1.216182	0.412054	0.000049
1808	1.7980e+02	-8.0212	-29.929306	0.000385	3.851244	1.304837	0.000154
1809	1.7990e+02	-7.9730	-29.824340	0.000264	2.635061	0.892783	0.000105
1810	1.8000e+02	-7.9313	-29.719375	0.000264	2.635061	0.892783	0.000105
1811	1.8009e+02	-7.8912	-29.626521	0.000233	2.331016	0.789770	0.000093
1812	1.8019e+02	-7.8559	-29.497332	0.000324	3.243153	1.098810	0.000130
1813	1.8029e+02	-7.8094	-29.376218	0.000304	3.040456	1.030134	0.000122
1814	1.8039e+02	-7.7757	-29.226844	0.000375	3.749895	1.270499	0.000150
1815	1.8049e+02	-7.7292	-29.150139	0.000193	1.925622	0.652418	0.000077
1816	1.8059e+02	-7.7003	-29.049210	0.000253	2.533713	0.858445	0.000101
1817	1.8069e+02	-7.6570	-28.940208	0.000274	2.736410	0.927121	0.000110
1818	1.8079e+02	-7.6137	-28.823131	0.000294	2.939107	0.995796	0.000118
1819	1.8089e+02	-7.5800	-28.697979	0.000314	3.141804	1.064472	0.000126
1820	1.8099e+02	-7.5463	-28.605125	0.000233	2.331016	0.789770	0.000093
1821	1.8109e+02	-7.5062	-28.504197	0.000253	2.533713	0.858445	0.000101
1822	1.8119e+02	-7.4468	-28.415380	0.000223	2.229667	0.755432	0.000089
1823	1.8129e+02	-7.4292	-28.290229	0.000314	3.141804	1.064472	0.000126
1824	1.8139e+02	-7.3763	-28.144892	0.000365	3.648547	1.236161	0.000146
1825	1.8149e+02	-7.3346	-28.043963	0.000253	2.533713	0.858445	0.000101
1826	1.8159e+02	-7.2993	-27.955146	0.000223	2.229667	0.755432	0.000089
1827	1.8169e+02	-7.2624	-27.777512	0.000446	4.459335	1.510864	0.000179
1828	1.8179e+02	-7.2174	-27.688695	0.000223	2.229667	0.755432	0.000089
1829	1.8189e+02	-7.1822	-27.591804	0.000243	2.432364	0.824107	0.000097
1830	1.8199e+02	-7.1404	-27.462616	0.000324	3.243153	1.098810	0.000130
1831	1.8209e+02	-7.0971	-27.333428	0.000324	3.243153	1.098810	0.000130
1832	1.8218e+02	-7.0538	-27.252685	0.000203	2.026970	0.686756	0.000081
1833	1.8228e+02	-7.0153	-27.119459	0.000334	3.344501	1.133148	0.000134
1834	1.8238e+02	-6.9880	-27.026605	0.000233	2.331016	0.789770	0.000093
1835	1.8248e+02	-6.9431	-26.901454	0.000314	3.141804	1.064472	0.000126
1836	1.8258e+02	-6.8966	-26.764191	0.000345	3.445850	1.167485	0.000138
1837	1.8268e+02	-6.8597	-26.659226	0.000264	2.635061	0.892783	0.000105
1838	1.8278e+02	-6.8148	-26.574446	0.000213	2.128319	0.721094	0.000085
1839	1.8288e+02	-6.7875	-26.441221	0.000334	3.344501	1.133148	0.000134
1840	1.8298e+02	-6.7458	-26.332218	0.000274	2.736410	0.927121	0.000110
1841	1.8308e+02	-6.7009	-26.178807	0.000385	3.851244	1.304837	0.000154
1842	1.8318e+02	-6.6544	-26.089990	0.000223	2.229667	0.755432	0.000089
1843	1.8328e+02	-6.6159	-25.976950	0.000284	2.837758	0.961459	0.000114
1844	1.8338e+02	-6.5854	-25.867947	0.000274	2.736410	0.927121	0.000110
1845	1.8348e+02	-6.5405	-25.734722	0.000334	3.344501	1.133148	0.000134
1846	1.8358e+02	-6.5100	-25.637831	0.000243	2.432364	0.824107	0.000097
1847	1.8368e+02	-6.4618	-25.524791	0.000284	2.837758	0.961459	0.000114
1848	1.8378e+02	-6.4266	-25.431937	0.000233	2.331016	0.789770	0.000093
1849	1.8388e+02	-6.3800	-25.302748	0.000324	3.243153	1.098810	0.000130
1850	1.8398e+02	-6.3544	-25.201820	0.000253	2.533713	0.858445	0.000101
1851	1.8407e+02	-6.3078	-25.092817	0.000274	2.736410	0.927121	0.000110
1852	1.8417e+02	-6.2726	-24.955555	0.000345	3.445850	1.167485	0.000138
1853	1.8427e+02	-6.2324	-24.838478	0.000294	2.939107	0.995796	0.000118
1854	1.8437e+02	-6.1795	-24.697178	0.000355	3.547198	1.201823	0.000142
1855	1.8447e+02	-6.1506	-24.592212	0.000264	2.635061	0.892783	0.000105
1856	1.8457e+02	-6.1073	-24.495321	0.000243	2.432364	0.824107	0.000097
1857	1.8467e+02	-6.0592	-24.362096	0.000334	3.344501	1.133148	0.000134
1858	1.8477e+02	-6.0287	-24.228870	0.000334	3.344501	1.133148	0.000134
1859	1.8487e+02	-5.9790	-24.131979	0.000243	2.432364	0.824107	0.000097
1860	1.8497e+02	-5.9453	-23.990679	0.000355	3.547198	1.201823	0.000142
1861	1.8507e+02	-5.8956	-23.926085	0.000162	1.621576	0.549405	0.000065
1862	1.8517e+02	-5.8731	-23.760562	0.000416	4.155289	1.407850	0.000166
1863	1.8527e+02	-5.8202	-23.683857	0.000193	1.925622	0.652418	0.000077
1864	1.8537e+02	-5.7913	-23.498149	0.000466	4.662032	1.579539	0.000187
1865	1.8547e+02	-5.7512	-23.413369	0.000213	2.128319	0.721094	0.000085
1866	1.8557e+02	-5.7030	-23.304366	0.000274	2.736410	0.927121	0.000110
1867	1.8567e+02	-5.6726	-23.183252	0.000304	3.040456	1.030134	0.000122
1868	1.8577e+02	-5.6341	-23.110584	0.000182	1.824273	0.618081	0.000073
1869	1.8587e+02	-5.5924	-22.969284	0.000355	3.547198	1.201823	0.000142
1870	1.8597e+02	-5.5474	-22.819910	0.000375	3.749895	1.270499	0.000150
1871	1.8606e+02	-5.5105	-22.702833	0.000294	2.939107	0.995796	0.000118
1872	1.8616e+02	-5.4752	-22.577682	0.000314	3.141804	1.064472	0.000126
1873	1.8626e+02	-5.4367	-22.456568	0.000304	3.040456	1.030134	0.000122
1874	1.8636e+02	-5.3902	-22.331416	0.000314	3.141804	1.064472	0.000126
1875	1.8646e+02	-5.3437	-22.238562	0.000233	2.331016	0.789770	0.000093
1876	1.8656e+02	-5.3084	-22.085151	0.000385	3.851244	1.304837	0.000154
1877	1.8666e+02	-5.2747	-21.960000	0.000314	3.141804	1.064472	0.000126
1878	1.8676e+02	-5.2346	-21.911554	0.000122	1.216182	0.412054	0.000049
1879	1.8686e+02	-5.1897	-21.754106	0.000395	3.952592	1.339174	0.000158
1880	1.8696e+02	-5.1432	-21.637029	0.000294	2.939107	0.995796	0.000118
1881	1.8706e+02	-5.1015	-21.528026	0.000274	2.736410	0.927121	0.000110
1882	1.8716e+02	-5.0742	-21.398838	0.000324	3.243153	1.098810	0.000130
1883	1.8726e+02	-5.0325	-21.253501	0.000365	3.648547	1.236161	0.000146
1884	1.8736e+02	-4.9908	-21.140461	0.000284	2.837758	0.961459	0.000114
1885	1.8746e+02	-4.9475	-21.003199	0.000345	3.445850	1.167485	0.000138
1886	1.8756e+02	-4.8993	-20.869973	0.000334	3.344501	1.133148	0.000134
1887	1.8766e+02	-4.8656	-20.781156	0.000223	2.229667	0.755432	0.000089
1888	1.8776e+02	-4.8303	-20.647931	0.000334	3.344501	1.133148	0.000134
1889	1.8786e+02	-4.7838	-20.502594	0.000365	3.648547	1.236161	0.000146
1890	1.8796e+02	-4.7533	-20.401665	0.000253	2.533713	0.858445	0.000101
1891	1.8806e+02	-4.7068	-20.280551	0.000304	3.040456	1.030134	0.000122
1892	1.8815e+02	-4.6747	-20.167512	0.000284	2.837758	0.961459	0.000114
1893	1.8825e+02	-4.6410	-20.042360	0.000314	3.141804	1.064472	0.000126
1894	1.8835e+02	-4.5865	-19.953543	0.000223	2.229667	0.755432	0.000089
1895	1.8845e+02	-4.5480	-19.840504	0.000284	2.837758	0.961459	0.000114
1896	1.8855e+02	-4.5127	-19.630573	0.000527	5.270123	1.785566	0.000211
1897	1.8865e+02	-4.4710	-19.570015	0.000152	1.520228	0.515067	0.000061
1898	1.8875e+02	-4.4293	-19.420641	0.000375	3.749895	1.270499	0.000150
1899	1.8885e+02	-4.3812	-19.307602	0.000284	2.837758	0.961459	0.000114
1900	1.8895e+02	-4.3571	-19.166302	0.000355	3.547198	1.201823	0.000142
1901	1.8905e+02	-4.3074	-19.029039	0.000345	3.445850	1.167485	0.000138
1902	1.8915e+02	-4.2673	-18.944259	0.000213	2.128319	0.721094	0.000085
1903	1.8925e+02	-4.2352	-18.798923	0.000365	3.648547	1.236161	0.000146
1904	1.8935e+02	-4.1983	-18.689920	0.000274	2.736410	0.927121	0.000110
1905	1.8945e+02	-4.1614	-18.572843	0.000294	2.939107	0.995796	0.000118
1906	1.8955e+02	-4.1020	-18.423469	0.000375	3.749895	1.270499	0.000150
1907	1.8965e+02	-4.0715	-18.310429	0.000284	2.837758	0.961459	0.000114
1908	1.8975e+02	-4.0330	-18.161055	0.000375	3.749895	1.270499	0.000150
1909	1.8985e+02	-3.9945	-18.084350	0.000193	1.925622	0.652418	0.000077
1910	1.8995e+02	-3.9592	-17.930938	0.000385	3.851244	1.304837	0.000154
1911	1.9004e+02	-3.9095	-17.805787	0.000314	3.141804	1.064472	0.000126
1912	1.9014e+02	-3.8710	-17.700822	0.000264	2.635061	0.892783	0.000105
1913	1.9024e+02	-3.8421	-17.575670	0.000314	3.141804	1.064472	0.000126
1914	1.9034e+02	-3.8004	-17.398036	0.000446	4.459335	1.510864	0.000179
1915	1.9044e+02	-3.7507	-17.325368	0.000182	1.824273	0.618081	0.000073
1916	1.9054e+02	-3.7138	-17.184068	0.000355	3.547198	1.201823	0.000142
1917	1.9064e+02	-3.6721	-17.058917	0.000314	3.141804	1.064472	0.000126
1918	1.9074e+02	-3.6320	-16.949914	0.000274	2.736410	0.927121	0.000110
1919	1.9084e+02	-3.6015	-16.792466	0.000395	3.952592	1.339174	0.000158
1920	1.9094e+02	-3.5534	-16.687501	0.000264	2.635061	0.892783	0.000105
1921	1.9104e+02	-3.5181	-16.590609	0.000243	2.432364	0.824107	0.000097
1922	1.9114e+02	-3.4780	-16.457384	0.000334	3.344501	1.133148	0.000134
1923	1.9124e+02	-3.4395	-16.316084	0.000355	3.547198	1.201823	0.000142
1924	1.9134e+02	-3.3978	-16.194970	0.000304	3.040456	1.030134	0.000122
1925	1.9144e+02	-3.3577	-16.073856	0.000304	3.040456	1.030134	0.000122
1926	1.9154e+02	-3.3143	-15.920445	0.000385	3.851244	1.304837	0.000154
1927	1.9164e+02	-3.2742	-15.823554	0.000243	2.432364	0.824107	0.000097
1928	1.9174e+02	-3.2277	-15.678217	0.000365	3.648547	1.236161	0.000146
1929	1.9184e+02	-3.1972	-15.540954	0.000345	3.445850	1.167485	0.000138
1930	1.9194e+02	-3.1539	-15.407729	0.000334	3.344501	1.133148	0.000134
1931	1.9203e+02	-3.1234	-15.290652	0.000294	2.939107	0.995796	0.000118
1932	1.9213e+02	-3.0769	-15.149352	0.000355	3.547198	1.201823	0.000142
1933	1.9223e+02	-3.0416	-15.068609	0.000203	2.026970	0.686756	0.000081
1934	1.9233e+02	-2.9935	-14.895012	0.000436	4.357986	1.476526	0.000174
1935	1.9243e+02	-2.9662	-14.765824	0.000324	3.243153	1.098810	0.000130
1936	1.9253e+02	-2.9165	-14.636636	0.000324	3.243153	1.098810	0.000130
1937	1.9263e+02	-2.8780	-14.527633	0.000274	2.736410	0.927121	0.000110
1938	1.9273e+02	-2.8331	-14.366148	0.000405	4.053941	1.373512	0.000162
1939	1.9283e+02	-2.7962	-14.253108	0.000284	2.837758	0.961459	0.000114
1940	1.9293e+02	-2.7561	-14.095659	0.000395	3.952592	1.339174	0.000158
1941	1.9303e+02	-2.7160	-13.962434	0.000334	3.344501	1.133148	0.000134
1942	1.9313e+02	-2.6839	-13.796911	0.000416	4.155289	1.407850	0.000166
1943	1.9323e+02	-2.6325	-13.700020	0.000243	2.432364	0.824107	0.000097
1944	1.9333e+02	-2.6069	-13.591017	0.000274	2.736410	0.927121	0.000110
1945	1.9343e+02	-2.5684	-13.449718	0.000355	3.547198	1.201823	0.000142
1946	1.9353e+02	-2.5074	-13.292269	0.000395	3.952592	1.339174	0.000158
1947	1.9363e+02	-2.4801	-13.150970	0.000355	3.547198	1.201823	0.000142
1948	1.9373e+02	-2.4400	-13.037930	0.000284	2.837758	0.961459	0.000114
1949	1.9383e+02	-2.3983	-12.945076	0.000233	2.331016	0.789770	0.000093
1950	1.9393e+02	-2.3518	-12.783590	0.000405	4.053941	1.373512	0.000162
1951	1.9403e+02	-2.3165	-12.662476	0.000304	3.040456	1.030134	0.000122
1952	1.9412e+02	-2.2716	-12.484842	0.000446	4.459335	1.510864	0.000179
1953	1.9422e+02	-2.2539	-12.359691	0.000314	3.141804	1.064472	0.000126
1954	1.9432e+02	-2.1946	-12.250688	0.000274	2.736410	0.927121	0.000110
1955	1.9442e+02	-2.1609	-12.081129	0.000426	4.256638	1.442188	0.000170
1956	1.9452e+02	-2.1208	-11.960015	0.000304	3.040456	1.030134	0.000122
1957	1.9462e+02	-2.0727	-11.830826	0.000324	3.243153	1.098810	0.000130
1958	1.9472e+02	-2.0310	-11.697601	0.000334	3.344501	1.133148	0.000134
1959	1.9482e+02	-2.0021	-11.568412	0.000324	3.243153	1.098810	0.000130
1960	1.9492e+02	-1.9652	-11.419038	0.000375	3.749895	1.270499	0.000150
1961	1.9502e+02	-1.9138	-11.281776	0.000345	3.445850	1.167485	0.000138
1962	1.9512e+02	-1.8802	-11.132402	0.000375	3.749895	1.270499	0.000150
1963	1.9522e+02	-1.8401	-11.011288	0.000304	3.040456	1.030134	0.000122
1964	1.9532e+02	-1.8032	-10.857877	0.000385	3.851244	1.304837	0.000154
1965	1.9542e+02	-1.7695	-10.716577	0.000355	3.547198	1.201823	0.000142
1966	1.9552e+02	-1.7197	-10.559129	0.000395	3.952592	1.339174	0.000158
1967	1.9562e+02	-1.6828	-10.446089	0.000284	2.837758	0.961459	0.000114
1968	1.9572e+02	-1.6379	-10.333049	0.000284	2.837758	0.961459	0.000114
1969	1.9582e+02	-1.6010	-10.191749	0.000355	3.547198	1.201823	0.000142
1970	1.9592e+02	-1.5593	-10.074672	0.000294	2.939107	0.995796	0.000118
1971	1.9601e+02	-1.5240	-9.909150	0.000416	4.155289	1.407850	0.000166
1972	1.9611e+02	-1.4727	-9.767850	0.000355	3.547198	1.201823	0.000142
1973	1.9621e+02	-1.4470	-9.578105	0.000476	4.763380	1.613877	0.000191
1974	1.9631e+02	-1.3957	-9.489288	0.000223	2.229667	0.755432	0.000089
1975	1.9641e+02	-1.3716	-9.392396	0.000243	2.432364	0.824107	0.000097
1976	1.9651e+02	-1.3267	-9.194577	0.000497	4.966077	1.682553	0.000199
1977	1.9661e+02	-1.2802	-9.073463	0.000304	3.040456	1.030134	0.000122
1978	1.9671e+02	-1.2417	-8.928126	0.000365	3.648547	1.236161	0.000146
1979	1.9681e+02	-1.2112	-8.786826	0.000355	3.547198	1.201823	0.000142
1980	1.9691e+02	-1.1695	-8.613229	0.000436	4.357986	1.476526	0.000174
1981	1.9701e+02	-1.1278	-8.532486	0.000203	2.026970	0.686756	0.000081
1982	1.9711e+02	-1.0780	-8.346778	0.000466	4.662032	1.579539	0.000187
1983	1.9721e+02	-1.0428	-8.197404	0.000375	3.749895	1.270499	0.000150
1984	1.9731e+02	-1.0075	-8.043993	0.000385	3.851244	1.304837	0.000154
1985	1.9741e+02	-0.9657	-7.878470	0.000416	4.155289	1.407850	0.000166
1986	1.9751e+02	-0.9224	-7.753319	0.000314	3.141804	1.064472	0.000126
1987	1.9761e+02	-0.8871	-7.644317	0.000274	2.736410	0.927121	0.000110
1988	1.9771e+02	-0.8374	-7.454571	0.000476	4.763380	1.613877	0.000191
1989	1.9781e+02	-0.8117	-7.301160	0.000385	3.851244	1.304837	0.000154
1990	1.9791e+02	-0.7620	-7.176009	0.000314	3.141804	1.064472	0.000126
1991	1.9800e+02	-0.7267	-7.022598	0.000385	3.851244	1.304837	0.000154
1992	1.9810e+02	-0.6866	-6.861112	0.000405	4.053941	1.373512	0.000162
1993	1.9820e+02	-0.6465	-6.756147	0.000264	2.635061	0.892783	0.000105
1994	1.9830e+02	-0.6112	-6.594661	0.000405	4.053941	1.373512	0.000162
1995	1.9840e+02	-0.5599	-6.437213	0.000395	3.952592	1.339174	0.000158
1996	1.9850e+02	-0.5230	-6.271690	0.000416	4.155289	1.407850	0.000166
1997	1.9860e+02	-0.4781	-6.170762	0.000253	2.533713	0.858445	0.000101
1998	1.9870e+02	-0.4524	-6.041574	0.000324	3.243153	1.098810	0.000130
1999	1.9880e+02	-0.4011	-5.815494	0.000568	5.675517	1.922917	0.000227
2000	1.9890e+02	-0.3642	-5.726677	0.000223	2.229667	0.755432	0.000089
2001	1.9900e+02	-0.3305	-5.536932	0.000476	4.763380	1.613877	0.000191
2002	1.9910e+02	-0.2888	-5.379483	0.000395	3.952592	1.339174	0.000158
2003	1.9920e+02	-0.2551	-5.226072	0.000385	3.851244	1.304837	0.000154
2004	1.9930e+02	-0.2086	-5.092847	0.000334	3.344501	1.133148	0.000134
2005	1.9940e+02	-0.1700	-4.951547	0.000355	3.547198	1.201823	0.000142
2006	1.9950e+02	-0.1267	-4.781987	0.000426	4.256638	1.442188	0.000170
2007	1.9960e+02	-0.0850	-4.620502	0.000405	4.053941	1.373512	0.000162
2008	1.9970e+02	-0.0465	-4.503425	0.000294	2.939107	0.995796	0.000118
2009	1.9980e+02	-0.0032	-4.366162	0.000294	2.939107	0.995796	0.000138

Center data before PMax,+/-Pr and +/-Vc Calc.

PMax (uC/cm2):	5.64e+01
Pr (uC/cm2):	1.77e+00
-Pr (uC/cm2):	-4.37e+00
PLoss (uC/cm2):	1.97e+00
Vc:	1.80e+00
-Vc:	-4.74e-01
C (Max-Eff) (nF):	2.82e-01
K (Eff):	9.57e+02
Vert. (+/-Pr) Shift (uC/cm2):	-1.30e+00
Horiz. Shift (+/-Vc):	6.61e-01
Offset (uC/cm2):	6.34e+00

A (Loop Area - uC/cm2·Volts):	-1.29e-01



Hysteresis Version: 5.48.1 - Radiant Technologies, Inc., 1999 - 9/12/24

