»»»»»»»»»»»»»»»»»»»»»»»»»»»»»»»»»»»» Hysteresis ««««««««««««««««««««««««««««««««««««
»»»  Executed Version:	5.48.1
»»»  Vision Version:	5.48.4 (R)
»»»  Vision Compiled:	9/18/24
»»»  Driver Version:	5.47.0
»»»  Windows Version:	Windows 8 or 8.1
»»»  Processor Information:	x86 (AMD or Intel) - 32 Processors
»»»  Tester Name:	PMF21124-494 (100V)
»»»  Tester S/N:	PMF21124-494
»»»  Internal Amp Type:	100V RevK 270k
»»»  Internal Amp S/N:	iAB2-596/K     
»»»  Execution Count:	1
»»»»»»»»»»»»»»»»»»»»»»»»»»»»»»»»»»»»»»»»»»««««««««««««««««««««««««««««««««««««««««««

Stored:	6/12/2025 - 17:48:55
Configured:	06/12/25 03:03:03 PM
Executed:	06/12/25 05:48:06 PM

»»»»»»»»»»»»»»»»»»»»»»»»»»»»»»»»»»» Sample Info ««««««««««««««««««««««««««««««««««««
Sample Name:	
Lot Name:	
Wafer Name:	
Die Row/Column:	0/0
Capacitor Number:	0
Sample Area (cm2):	1.00e-04
Sample Thickness (microns):	3.00e-01

Amplifier:	Internal

»»»»»»»»»»»»»»»»»»»»»»»»»»»»»»»»»»» Tester Info «««««««««««««««««««««««««««««««««««
Tester Name:	PMF21124-494 (100V)
Tester Serial Number:	PMF21124-494
Return Signal Amp. Level:	0.19 [Index: 3]

»»»»»»»»»»»»»»»»»»»»»»»»»»»»»»»» Hysteresis Info ««««««««««««««««««««««««««««««««««
Task Name:	Hyst-1570
Volts:	20.00
Field:	666.67 (kV/cm)
DCBias:	0.00
DCField:	0.00 (kV/cm)
Hysteresis Period (ms):	2.00e+02
Preset:	Enabled
Preset Delay (ms):	1.00e+03
Profile:	Standard Bipolar

»»»»»»»»»»»»»»»»»»»»»»»»»»»»»»»»»»»»»» Data «««««««««««««««««««««««««««««««««««««««
Points:	2009

Valid Data

Point	Time (ms)	Drive Voltage	Measured Polarization (uC/cm2)	Capacitance (uF)	Normalized Capacitance (uF/cm2)	Dielectric Constant	Instantaneous Current (mA)
   1	0.0000e+00	0.0032	4.903101	0.000243	2.432657	0.824207	0.000097
   2	9.9500e-02	0.0289	4.999993	0.000243	2.432657	0.824207	0.000097
   3	1.9900e-01	0.0722	5.145329	0.000365	3.648986	1.236310	0.000146
   4	2.9850e-01	0.1075	5.314889	0.000426	4.257150	1.442361	0.000170
   5	3.9800e-01	0.1572	5.460226	0.000365	3.648986	1.236310	0.000146
   6	4.9750e-01	0.1909	5.621712	0.000405	4.054429	1.373678	0.000162
   7	5.9700e-01	0.2342	5.799345	0.000446	4.459871	1.511045	0.000179
   8	6.9650e-01	0.2759	5.936608	0.000345	3.446264	1.167626	0.000138
   9	7.9600e-01	0.3080	6.077908	0.000355	3.547625	1.201968	0.000142
  10	8.9550e-01	0.3626	6.259579	0.000456	4.561232	1.545387	0.000183
  11	9.9500e-01	0.3930	6.425102	0.000416	4.155789	1.408020	0.000166
  12	1.0945e+00	0.4299	6.594661	0.000426	4.257150	1.442361	0.000170
  13	1.1940e+00	0.4765	6.731924	0.000345	3.446264	1.167626	0.000138
  14	1.2935e+00	0.5134	6.877261	0.000365	3.648986	1.236310	0.000146
  15	1.3930e+00	0.5647	7.050858	0.000436	4.358511	1.476703	0.000174
  16	1.4925e+00	0.5920	7.220417	0.000426	4.257150	1.442361	0.000170
  17	1.5920e+00	0.6257	7.377866	0.000395	3.953068	1.339336	0.000158
  18	1.6915e+00	0.6706	7.498980	0.000304	3.040821	1.030258	0.000122
  19	1.7910e+00	0.7091	7.692762	0.000487	4.865314	1.648413	0.000195
  20	1.8905e+00	0.7524	7.882508	0.000476	4.763954	1.614071	0.000191
  21	1.9900e+00	0.7893	8.015733	0.000334	3.344904	1.133284	0.000134
  22	2.0895e+00	0.8342	8.181256	0.000416	4.155789	1.408020	0.000166
  23	2.1890e+00	0.8711	8.330630	0.000375	3.750346	1.270652	0.000150
  24	2.2885e+00	0.9048	8.480004	0.000375	3.750346	1.270652	0.000150
  25	2.3880e+00	0.9449	8.649563	0.000426	4.257150	1.442361	0.000170
  26	2.4875e+00	0.9962	8.807012	0.000395	3.953068	1.339336	0.000158
  27	2.5870e+00	1.0411	8.972534	0.000416	4.155789	1.408020	0.000166
  28	2.6865e+00	1.0700	9.150168	0.000446	4.459871	1.511045	0.000179
  29	2.7860e+00	1.1069	9.295505	0.000365	3.648986	1.236310	0.000146
  30	2.8855e+00	1.1518	9.452953	0.000395	3.953068	1.339336	0.000158
  31	2.9850e+00	1.1839	9.622513	0.000426	4.257150	1.442361	0.000170
  32	3.0845e+00	1.2192	9.788036	0.000416	4.155789	1.408020	0.000166
  33	3.1840e+00	1.2625	9.977781	0.000476	4.763954	1.614071	0.000191
  34	3.2835e+00	1.3139	10.106969	0.000324	3.243543	1.098942	0.000130
  35	3.3830e+00	1.3395	10.292678	0.000466	4.662593	1.579729	0.000187
  36	3.4825e+00	1.3828	10.490497	0.000497	4.966675	1.682755	0.000199
  37	3.5820e+00	1.4326	10.607574	0.000294	2.939461	0.995916	0.000118
  38	3.6815e+00	1.4711	10.825579	0.000547	5.473479	1.854465	0.000219
  39	3.7810e+00	1.5048	10.954768	0.000324	3.243543	1.098942	0.000130
  40	3.8805e+00	1.5465	11.152587	0.000497	4.966675	1.682755	0.000199
  41	3.9800e+00	1.5914	11.261590	0.000274	2.736739	0.927232	0.000110
  42	4.0795e+00	1.6219	11.467484	0.000517	5.169396	1.751439	0.000207
  43	4.1790e+00	1.6668	11.616858	0.000375	3.750346	1.270652	0.000150
  44	4.2785e+00	1.7069	11.766232	0.000375	3.750346	1.270652	0.000150
  45	4.3780e+00	1.7486	11.955977	0.000476	4.763954	1.614071	0.000191
  46	4.4775e+00	1.7967	12.105352	0.000375	3.750346	1.270652	0.000150
  47	4.5770e+00	1.8192	12.266837	0.000405	4.054429	1.373678	0.000162
  48	4.6765e+00	1.8641	12.488879	0.000557	5.574839	1.888807	0.000223
  49	4.7760e+00	1.9042	12.630179	0.000355	3.547625	1.201968	0.000142
  50	4.8755e+00	1.9395	12.775516	0.000365	3.648986	1.236310	0.000146
  51	4.9750e+00	1.9876	12.928927	0.000385	3.851707	1.304994	0.000154
  52	5.0745e+00	2.0245	13.122710	0.000487	4.865314	1.648413	0.000195
  53	5.1740e+00	2.0646	13.312455	0.000476	4.763954	1.614071	0.000191
  54	5.2735e+00	2.1112	13.477978	0.000416	4.155789	1.408020	0.000166
  55	5.3730e+00	2.1417	13.611203	0.000334	3.344904	1.133284	0.000134
  56	5.4725e+00	2.1866	13.821134	0.000527	5.270757	1.785781	0.000211
  57	5.5720e+00	2.2267	13.970508	0.000375	3.750346	1.270652	0.000150
  58	5.6715e+00	2.2636	14.160254	0.000476	4.763954	1.614071	0.000191
  59	5.7710e+00	2.3133	14.277331	0.000294	2.939461	0.995916	0.000118
  60	5.8705e+00	2.3422	14.471113	0.000487	4.865314	1.648413	0.000195
  61	5.9700e+00	2.3855	14.648747	0.000446	4.459871	1.511045	0.000179
  62	6.0695e+00	2.4320	14.794084	0.000365	3.648986	1.236310	0.000146
  63	6.1690e+00	2.4625	14.947495	0.000385	3.851707	1.304994	0.000154
  64	6.2685e+00	2.5026	15.129166	0.000456	4.561232	1.545387	0.000183
  65	6.3680e+00	2.5539	15.274503	0.000365	3.648986	1.236310	0.000146
  66	6.4675e+00	2.5828	15.456174	0.000456	4.561232	1.545387	0.000183
  67	6.5670e+00	2.6293	15.617660	0.000405	4.054429	1.373678	0.000162
  68	6.6665e+00	2.6614	15.787219	0.000426	4.257150	1.442361	0.000170
  69	6.7660e+00	2.7063	15.989076	0.000507	5.068036	1.717097	0.000203
  70	6.8655e+00	2.7464	16.146524	0.000395	3.953068	1.339336	0.000158
  71	6.9650e+00	2.7785	16.328195	0.000456	4.561232	1.545387	0.000183
  72	7.0645e+00	2.8299	16.477570	0.000375	3.750346	1.270652	0.000150
  73	7.1640e+00	2.8684	16.675389	0.000497	4.966675	1.682755	0.000199
  74	7.2635e+00	2.8876	16.792466	0.000294	2.939461	0.995916	0.000118
  75	7.3630e+00	2.9261	16.966063	0.000436	4.358511	1.476703	0.000174
  76	7.4625e+00	2.9887	17.159845	0.000487	4.865314	1.648413	0.000195
  77	7.5620e+00	3.0224	17.293071	0.000334	3.344904	1.133284	0.000134
  78	7.6615e+00	3.0657	17.498965	0.000517	5.169396	1.751439	0.000207
  79	7.7610e+00	3.1010	17.676599	0.000446	4.459871	1.511045	0.000179
  80	7.8605e+00	3.1411	17.817899	0.000355	3.547625	1.201968	0.000142
  81	7.9600e+00	3.1876	17.967273	0.000375	3.750346	1.270652	0.000150
  82	8.0595e+00	3.2293	18.140869	0.000436	4.358511	1.476703	0.000174
  83	8.1590e+00	3.2614	18.326578	0.000466	4.662593	1.579729	0.000187
  84	8.2585e+00	3.2983	18.488063	0.000405	4.054429	1.373678	0.000162
  85	8.3580e+00	3.3448	18.645511	0.000395	3.953068	1.339336	0.000158
  86	8.4575e+00	3.3865	18.811034	0.000416	4.155789	1.408020	0.000166
  87	8.5570e+00	3.4266	18.972519	0.000405	4.054429	1.373678	0.000162
  88	8.6565e+00	3.4716	19.198599	0.000568	5.676200	1.923149	0.000227
  89	8.7560e+00	3.5052	19.356047	0.000395	3.953068	1.339336	0.000158
  90	8.8555e+00	3.5341	19.497347	0.000355	3.547625	1.201968	0.000142
  91	8.9550e+00	3.5903	19.674981	0.000446	4.459871	1.511045	0.000179
  92	9.0545e+00	3.6320	19.832429	0.000395	3.953068	1.339336	0.000158
  93	9.1540e+00	3.6641	19.997952	0.000416	4.155789	1.408020	0.000166
  94	9.2535e+00	3.6913	20.155400	0.000395	3.953068	1.339336	0.000158
  95	9.3530e+00	3.7347	20.333034	0.000446	4.459871	1.511045	0.000179
  96	9.4525e+00	3.7844	20.498557	0.000416	4.155789	1.408020	0.000166
  97	9.5520e+00	3.8293	20.676191	0.000446	4.459871	1.511045	0.000179
  98	9.6515e+00	3.8598	20.825565	0.000375	3.750346	1.270652	0.000150
  99	9.7510e+00	3.8999	21.035496	0.000527	5.270757	1.785781	0.000211
 100	9.8505e+00	3.9400	21.184870	0.000375	3.750346	1.270652	0.000150
 101	9.9500e+00	3.9865	21.326170	0.000355	3.547625	1.201968	0.000142
 102	1.0050e+01	4.0106	21.515915	0.000476	4.763954	1.614071	0.000191
 103	1.0149e+01	4.0587	21.705660	0.000476	4.763954	1.614071	0.000191
 104	1.0248e+01	4.1020	21.850997	0.000365	3.648986	1.236310	0.000146
 105	1.0348e+01	4.1453	22.016520	0.000416	4.155789	1.408020	0.000166
 106	1.0447e+01	4.1887	22.178005	0.000405	4.054429	1.373678	0.000162
 107	1.0547e+01	4.2143	22.367751	0.000476	4.763954	1.614071	0.000191
 108	1.0646e+01	4.2608	22.468679	0.000253	2.534018	0.858548	0.000101
 109	1.0746e+01	4.3090	22.674573	0.000517	5.169396	1.751439	0.000207
 110	1.0845e+01	4.3394	22.823947	0.000375	3.750346	1.270652	0.000150
 111	1.0945e+01	4.3780	23.017729	0.000487	4.865314	1.648413	0.000195
 112	1.1044e+01	4.4213	23.150955	0.000334	3.344904	1.133284	0.000134
 113	1.1144e+01	4.4550	23.344737	0.000487	4.865314	1.648413	0.000195
 114	1.1243e+01	4.5047	23.514297	0.000426	4.257150	1.442361	0.000170
 115	1.1343e+01	4.5368	23.639448	0.000314	3.142182	1.064600	0.000126
 116	1.1443e+01	4.5769	23.833231	0.000487	4.865314	1.648413	0.000195
 117	1.1542e+01	4.6041	23.994716	0.000405	4.054429	1.373678	0.000162
 118	1.1642e+01	4.6507	24.196573	0.000507	5.068036	1.717097	0.000203
 119	1.1741e+01	4.7036	24.329799	0.000334	3.344904	1.133284	0.000134
 120	1.1841e+01	4.7357	24.491284	0.000405	4.054429	1.373678	0.000162
 121	1.1940e+01	4.7726	24.668918	0.000446	4.459871	1.511045	0.000179
 122	1.2040e+01	4.8191	24.834440	0.000416	4.155789	1.408020	0.000166
 123	1.2139e+01	4.8576	24.983815	0.000375	3.750346	1.270652	0.000150
 124	1.2239e+01	4.9057	25.169523	0.000466	4.662593	1.579729	0.000187
 125	1.2338e+01	4.9330	25.335045	0.000416	4.155789	1.408020	0.000166
 126	1.2438e+01	4.9763	25.472308	0.000345	3.446264	1.167626	0.000138
 127	1.2537e+01	5.0068	25.645905	0.000436	4.358511	1.476703	0.000174
 128	1.2636e+01	5.0517	25.807390	0.000405	4.054429	1.373678	0.000162
 129	1.2736e+01	5.0870	26.001173	0.000487	4.865314	1.648413	0.000195
 130	1.2835e+01	5.1351	26.138435	0.000345	3.446264	1.167626	0.000138
 131	1.2935e+01	5.1849	26.320106	0.000456	4.561232	1.545387	0.000183
 132	1.3034e+01	5.2122	26.481592	0.000405	4.054429	1.373678	0.000162
 133	1.3134e+01	5.2539	26.602706	0.000304	3.040821	1.030258	0.000122
 134	1.3233e+01	5.2956	26.800526	0.000497	4.966675	1.682755	0.000199
 135	1.3333e+01	5.3357	26.962011	0.000405	4.054429	1.373678	0.000162
 136	1.3432e+01	5.3694	27.095237	0.000334	3.344904	1.133284	0.000134
 137	1.3532e+01	5.4111	27.248648	0.000385	3.851707	1.304994	0.000154
 138	1.3632e+01	5.4544	27.454542	0.000517	5.169396	1.751439	0.000207
 139	1.3731e+01	5.4897	27.624101	0.000426	4.257150	1.442361	0.000170
 140	1.3831e+01	5.5346	27.769438	0.000365	3.648986	1.236310	0.000146
 141	1.3930e+01	5.5779	27.902664	0.000334	3.344904	1.133284	0.000134
 142	1.4030e+01	5.6020	28.056075	0.000385	3.851707	1.304994	0.000154
 143	1.4129e+01	5.6565	28.245820	0.000476	4.763954	1.614071	0.000191
 144	1.4229e+01	5.6982	28.399231	0.000385	3.851707	1.304994	0.000154
 145	1.4328e+01	5.7351	28.552643	0.000385	3.851707	1.304994	0.000154
 146	1.4428e+01	5.7752	28.722202	0.000426	4.257150	1.442361	0.000170
 147	1.4527e+01	5.8057	28.843316	0.000304	3.040821	1.030258	0.000122
 148	1.4627e+01	5.8587	29.049210	0.000517	5.169396	1.751439	0.000207
 149	1.4726e+01	5.8972	29.214733	0.000416	4.155789	1.408020	0.000166
 150	1.4825e+01	5.9357	29.384292	0.000426	4.257150	1.442361	0.000170
 151	1.4925e+01	5.9661	29.521555	0.000345	3.446264	1.167626	0.000138
 152	1.5024e+01	6.0191	29.695152	0.000436	4.358511	1.476703	0.000174
 153	1.5124e+01	6.0399	29.836452	0.000355	3.547625	1.201968	0.000142
 154	1.5223e+01	6.0897	29.989863	0.000385	3.851707	1.304994	0.000154
 155	1.5323e+01	6.1282	30.187682	0.000497	4.966675	1.682755	0.000199
 156	1.5422e+01	6.1699	30.300722	0.000284	2.838100	0.961574	0.000114
 157	1.5522e+01	6.2036	30.514690	0.000537	5.372118	1.820123	0.000215
 158	1.5621e+01	6.2485	30.655990	0.000355	3.547625	1.201968	0.000142
 159	1.5721e+01	6.2950	30.789216	0.000334	3.344904	1.133284	0.000134
 160	1.5820e+01	6.3367	30.926478	0.000345	3.446264	1.167626	0.000138
 161	1.5920e+01	6.3672	31.116224	0.000476	4.763954	1.614071	0.000191
 162	1.6020e+01	6.4137	31.277709	0.000405	4.054429	1.373678	0.000162
 163	1.6119e+01	6.4490	31.398823	0.000304	3.040821	1.030258	0.000122
 164	1.6218e+01	6.4859	31.568383	0.000426	4.257150	1.442361	0.000170
 165	1.6318e+01	6.5212	31.746017	0.000446	4.459871	1.511045	0.000179
 166	1.6418e+01	6.5709	31.891354	0.000365	3.648986	1.236310	0.000146
 167	1.6517e+01	6.6094	32.056876	0.000416	4.155789	1.408020	0.000166
 168	1.6616e+01	6.6463	32.198176	0.000355	3.547625	1.201968	0.000142
 169	1.6716e+01	6.6832	32.367736	0.000426	4.257150	1.442361	0.000170
 170	1.6816e+01	6.7282	32.533258	0.000416	4.155789	1.408020	0.000166
 171	1.6915e+01	6.7715	32.654372	0.000304	3.040821	1.030258	0.000122
 172	1.7015e+01	6.8052	32.827969	0.000436	4.358511	1.476703	0.000174
 173	1.7114e+01	6.8485	32.973306	0.000365	3.648986	1.236310	0.000146
 174	1.7213e+01	6.8902	33.142866	0.000426	4.257150	1.442361	0.000170
 175	1.7313e+01	6.9335	33.296277	0.000385	3.851707	1.304994	0.000154
 176	1.7413e+01	6.9640	33.449688	0.000385	3.851707	1.304994	0.000154
 177	1.7512e+01	7.0041	33.607136	0.000395	3.953068	1.339336	0.000158
 178	1.7611e+01	7.0410	33.788808	0.000456	4.561232	1.545387	0.000183
 179	1.7711e+01	7.0811	33.893773	0.000264	2.635379	0.892890	0.000105
 180	1.7811e+01	7.1308	34.039110	0.000365	3.648986	1.236310	0.000146
 181	1.7910e+01	7.1645	34.216744	0.000446	4.459871	1.511045	0.000179
 182	1.8009e+01	7.2078	34.398415	0.000456	4.561232	1.545387	0.000183
 183	1.8109e+01	7.2511	34.527603	0.000324	3.243543	1.098942	0.000130
 184	1.8209e+01	7.2864	34.685052	0.000395	3.953068	1.339336	0.000158
 185	1.8308e+01	7.3297	34.870760	0.000466	4.662593	1.579729	0.000187
 186	1.8407e+01	7.3714	34.991874	0.000304	3.040821	1.030258	0.000122
 187	1.8507e+01	7.4051	35.125099	0.000334	3.344904	1.133284	0.000134
 188	1.8607e+01	7.4501	35.286585	0.000405	4.054429	1.373678	0.000162
 189	1.8706e+01	7.4821	35.468256	0.000456	4.561232	1.545387	0.000183
 190	1.8805e+01	7.5255	35.601482	0.000334	3.344904	1.133284	0.000134
 191	1.8905e+01	7.5640	35.791227	0.000476	4.763954	1.614071	0.000191
 192	1.9005e+01	7.6041	35.904267	0.000284	2.838100	0.961574	0.000114
 193	1.9104e+01	7.6345	36.053641	0.000375	3.750346	1.270652	0.000150
 194	1.9203e+01	7.6763	36.166681	0.000284	2.838100	0.961574	0.000114
 195	1.9303e+01	7.7276	36.360463	0.000487	4.865314	1.648413	0.000195
 196	1.9402e+01	7.7597	36.505800	0.000365	3.648986	1.236310	0.000146
 197	1.9502e+01	7.7998	36.667285	0.000405	4.054429	1.373678	0.000162
 198	1.9602e+01	7.8463	36.820696	0.000385	3.851707	1.304994	0.000154
 199	1.9701e+01	7.8816	36.990256	0.000426	4.257150	1.442361	0.000170
 200	1.9800e+01	7.9201	37.079073	0.000223	2.229936	0.755523	0.000089
 201	1.9900e+01	7.9618	37.289004	0.000527	5.270757	1.785781	0.000211
 202	2.0000e+01	7.9971	37.454527	0.000416	4.155789	1.408020	0.000166
 203	2.0099e+01	8.0436	37.579678	0.000314	3.142182	1.064600	0.000126
 204	2.0198e+01	8.0805	37.700792	0.000304	3.040821	1.030258	0.000122
 205	2.0298e+01	8.1238	37.874389	0.000436	4.358511	1.476703	0.000174
 206	2.0398e+01	8.1575	38.003577	0.000324	3.243543	1.098942	0.000130
 207	2.0497e+01	8.1992	38.181211	0.000446	4.459871	1.511045	0.000179
 208	2.0596e+01	8.2393	38.338660	0.000395	3.953068	1.339336	0.000158
 209	2.0696e+01	8.2778	38.459774	0.000304	3.040821	1.030258	0.000122
 210	2.0796e+01	8.3163	38.625296	0.000416	4.155789	1.408020	0.000166
 211	2.0895e+01	8.3613	38.766596	0.000355	3.547625	1.201968	0.000142
 212	2.0994e+01	8.4126	38.911933	0.000365	3.648986	1.236310	0.000146
 213	2.1094e+01	8.4335	39.077455	0.000416	4.155789	1.408020	0.000166
 214	2.1194e+01	8.4848	39.214718	0.000345	3.446264	1.167626	0.000138
 215	2.1293e+01	8.5201	39.347943	0.000334	3.344904	1.133284	0.000134
 216	2.1392e+01	8.5714	39.493280	0.000365	3.648986	1.236310	0.000146
 217	2.1492e+01	8.6051	39.638617	0.000365	3.648986	1.236310	0.000146
 218	2.1591e+01	8.6388	39.828363	0.000476	4.763954	1.614071	0.000191
 219	2.1691e+01	8.6821	39.937365	0.000274	2.736739	0.927232	0.000110
 220	2.1791e+01	8.7206	40.098851	0.000405	4.054429	1.373678	0.000162
 221	2.1890e+01	8.7527	40.260336	0.000405	4.054429	1.373678	0.000162
 222	2.1989e+01	8.8008	40.429896	0.000426	4.257150	1.442361	0.000170
 223	2.2089e+01	8.8377	40.551010	0.000304	3.040821	1.030258	0.000122
 224	2.2189e+01	8.8698	40.672124	0.000304	3.040821	1.030258	0.000122
 225	2.2288e+01	8.9195	40.857832	0.000466	4.662593	1.579729	0.000187
 226	2.2387e+01	8.9661	40.995095	0.000345	3.446264	1.167626	0.000138
 227	2.2487e+01	8.9933	41.144469	0.000375	3.750346	1.270652	0.000150
 228	2.2587e+01	9.0415	41.273657	0.000324	3.243543	1.098942	0.000130
 229	2.2686e+01	9.0671	41.406883	0.000334	3.344904	1.133284	0.000134
 230	2.2785e+01	9.1153	41.544145	0.000345	3.446264	1.167626	0.000138
 231	2.2885e+01	9.1570	41.697556	0.000385	3.851707	1.304994	0.000154
 232	2.2985e+01	9.2019	41.871153	0.000436	4.358511	1.476703	0.000174
 233	2.3084e+01	9.2420	41.959970	0.000223	2.229936	0.755523	0.000089
 234	2.3183e+01	9.2725	42.165864	0.000517	5.169396	1.751439	0.000207
 235	2.3283e+01	9.3222	42.303127	0.000345	3.446264	1.167626	0.000138
 236	2.3383e+01	9.3623	42.428278	0.000314	3.142182	1.064600	0.000126
 237	2.3482e+01	9.3992	42.609949	0.000456	4.561232	1.545387	0.000183
 238	2.3581e+01	9.4377	42.706840	0.000243	2.432657	0.824207	0.000097
 239	2.3681e+01	9.4746	42.884474	0.000446	4.459871	1.511045	0.000179
 240	2.3780e+01	9.5003	43.062108	0.000446	4.459871	1.511045	0.000179
 241	2.3880e+01	9.5532	43.175148	0.000284	2.838100	0.961574	0.000114
 242	2.3980e+01	9.5981	43.308374	0.000334	3.344904	1.133284	0.000134
 243	2.4079e+01	9.6430	43.437562	0.000324	3.243543	1.098942	0.000130
 244	2.4178e+01	9.6783	43.607122	0.000426	4.257150	1.442361	0.000170
 245	2.4278e+01	9.7184	43.744384	0.000345	3.446264	1.167626	0.000138
 246	2.4378e+01	9.7634	43.885684	0.000355	3.547625	1.201968	0.000142
 247	2.4477e+01	9.7987	44.047169	0.000405	4.054429	1.373678	0.000162
 248	2.4576e+01	9.8420	44.164246	0.000294	2.939461	0.995916	0.000118
 249	2.4676e+01	9.8821	44.293435	0.000324	3.243543	1.098942	0.000130
 250	2.4776e+01	9.9126	44.446846	0.000385	3.851707	1.304994	0.000154
 251	2.4875e+01	9.9591	44.608331	0.000405	4.054429	1.373678	0.000162
 252	2.4974e+01	9.9992	44.717334	0.000274	2.736739	0.927232	0.000110
 253	2.5074e+01	10.0265	44.874782	0.000395	3.953068	1.339336	0.000158
 254	2.5174e+01	10.0682	45.028193	0.000385	3.851707	1.304994	0.000154
 255	2.5273e+01	10.1179	45.177567	0.000375	3.750346	1.270652	0.000150
 256	2.5372e+01	10.1580	45.298682	0.000304	3.040821	1.030258	0.000122
 257	2.5472e+01	10.1917	45.423833	0.000314	3.142182	1.064600	0.000126
 258	2.5572e+01	10.2334	45.577244	0.000385	3.851707	1.304994	0.000154
 259	2.5671e+01	10.2655	45.771026	0.000487	4.865314	1.648413	0.000195
 260	2.5770e+01	10.3184	45.867918	0.000243	2.432657	0.824207	0.000097
 261	2.5870e+01	10.3505	45.980957	0.000284	2.838100	0.961574	0.000114
 262	2.5970e+01	10.4002	46.166666	0.000466	4.662593	1.579729	0.000187
 263	2.6069e+01	10.4275	46.303928	0.000345	3.446264	1.167626	0.000138
 264	2.6169e+01	10.4708	46.433117	0.000324	3.243543	1.098942	0.000130
 265	2.6268e+01	10.5125	46.558268	0.000314	3.142182	1.064600	0.000126
 266	2.6367e+01	10.5446	46.727828	0.000426	4.257150	1.442361	0.000170
 267	2.6467e+01	10.5944	46.844905	0.000294	2.939461	0.995916	0.000118
 268	2.6567e+01	10.6313	46.990241	0.000365	3.648986	1.236310	0.000146
 269	2.6666e+01	10.6730	47.111355	0.000304	3.040821	1.030258	0.000122
 270	2.6765e+01	10.7066	47.264767	0.000385	3.851707	1.304994	0.000154
 271	2.6865e+01	10.7516	47.385881	0.000304	3.040821	1.030258	0.000122
 272	2.6965e+01	10.7917	47.543329	0.000395	3.953068	1.339336	0.000158
 273	2.7064e+01	10.8350	47.652332	0.000274	2.736739	0.927232	0.000110
 274	2.7163e+01	10.8687	47.801706	0.000375	3.750346	1.270652	0.000150
 275	2.7263e+01	10.9120	47.951080	0.000375	3.750346	1.270652	0.000150
 276	2.7363e+01	10.9553	48.100454	0.000375	3.750346	1.270652	0.000150
 277	2.7462e+01	10.9906	48.229642	0.000324	3.243543	1.098942	0.000130
 278	2.7561e+01	11.0307	48.383053	0.000385	3.851707	1.304994	0.000154
 279	2.7661e+01	11.0756	48.528390	0.000365	3.648986	1.236310	0.000146
 280	2.7761e+01	11.1109	48.689876	0.000405	4.054429	1.373678	0.000162
 281	2.7860e+01	11.1558	48.802915	0.000284	2.838100	0.961574	0.000114
 282	2.7959e+01	11.1767	48.952289	0.000375	3.750346	1.270652	0.000150
 283	2.8059e+01	11.2248	49.033032	0.000203	2.027214	0.686839	0.000081
 284	2.8159e+01	11.2665	49.198555	0.000416	4.155789	1.408020	0.000166
 285	2.8258e+01	11.3114	49.307557	0.000274	2.736739	0.927232	0.000110
 286	2.8358e+01	11.3516	49.497303	0.000476	4.763954	1.614071	0.000191
 287	2.8457e+01	11.3868	49.594194	0.000243	2.432657	0.824207	0.000097
 288	2.8556e+01	11.4318	49.739531	0.000365	3.648986	1.236310	0.000146
 289	2.8656e+01	11.4735	49.901016	0.000405	4.054429	1.373678	0.000162
 290	2.8756e+01	11.5088	49.997908	0.000243	2.432657	0.824207	0.000097
 291	2.8855e+01	11.5441	50.131133	0.000334	3.344904	1.133284	0.000134
 292	2.8954e+01	11.5890	50.276470	0.000365	3.648986	1.236310	0.000146
 293	2.9054e+01	11.6195	50.437955	0.000405	4.054429	1.373678	0.000162
 294	2.9154e+01	11.6644	50.583292	0.000365	3.648986	1.236310	0.000146
 295	2.9253e+01	11.7109	50.684221	0.000253	2.534018	0.858548	0.000101
 296	2.9352e+01	11.7510	50.797260	0.000284	2.838100	0.961574	0.000114
 297	2.9452e+01	11.7927	50.942597	0.000365	3.648986	1.236310	0.000146
 298	2.9552e+01	11.8264	51.100046	0.000395	3.953068	1.339336	0.000158
 299	2.9651e+01	11.8761	51.245382	0.000365	3.648986	1.236310	0.000146
 300	2.9750e+01	11.9066	51.354385	0.000274	2.736739	0.927232	0.000110
 301	2.9850e+01	11.9451	51.556242	0.000507	5.068036	1.717097	0.000203
 302	2.9950e+01	11.9868	51.645059	0.000223	2.229936	0.755523	0.000089
 303	3.0049e+01	12.0366	51.754062	0.000274	2.736739	0.927232	0.000110
 304	3.0148e+01	12.0606	51.915547	0.000405	4.054429	1.373678	0.000162
 305	3.0248e+01	12.1023	52.040698	0.000314	3.142182	1.064600	0.000126
 306	3.0348e+01	12.1392	52.117404	0.000193	1.925854	0.652497	0.000077
 307	3.0447e+01	12.1841	52.323298	0.000517	5.169396	1.751439	0.000207
 308	3.0547e+01	12.2226	52.456523	0.000334	3.344904	1.133284	0.000134
 309	3.0646e+01	12.2692	52.577637	0.000304	3.040821	1.030258	0.000122
 310	3.0745e+01	12.3077	52.722974	0.000365	3.648986	1.236310	0.000146
 311	3.0845e+01	12.3462	52.852163	0.000324	3.243543	1.098942	0.000130
 312	3.0945e+01	12.3879	52.961165	0.000274	2.736739	0.927232	0.000110
 313	3.1044e+01	12.4232	53.102465	0.000355	3.547625	1.201968	0.000142
 314	3.1143e+01	12.4681	53.203393	0.000253	2.534018	0.858548	0.000101
 315	3.1243e+01	12.5050	53.364879	0.000405	4.054429	1.373678	0.000162
 316	3.1343e+01	12.5483	53.506179	0.000355	3.547625	1.201968	0.000142
 317	3.1442e+01	12.5884	53.635367	0.000324	3.243543	1.098942	0.000130
 318	3.1541e+01	12.6253	53.736295	0.000253	2.534018	0.858548	0.000101
 319	3.1641e+01	12.6702	53.917966	0.000456	4.561232	1.545387	0.000183
 320	3.1741e+01	12.6991	54.006783	0.000223	2.229936	0.755523	0.000089
 321	3.1840e+01	12.7537	54.127897	0.000304	3.040821	1.030258	0.000122
 322	3.1939e+01	12.7841	54.285346	0.000395	3.953068	1.339336	0.000158
 323	3.2039e+01	12.8210	54.434720	0.000375	3.750346	1.270652	0.000150
 324	3.2139e+01	12.8676	54.547760	0.000284	2.838100	0.961574	0.000114
 325	3.2238e+01	12.9061	54.713282	0.000416	4.155789	1.408020	0.000166
 326	3.2337e+01	12.9365	54.810173	0.000243	2.432657	0.824207	0.000097
 327	3.2437e+01	12.9847	54.947436	0.000345	3.446264	1.167626	0.000138
 328	3.2536e+01	13.0183	55.084699	0.000345	3.446264	1.167626	0.000138
 329	3.2636e+01	13.0617	55.189664	0.000264	2.635379	0.892890	0.000105
 330	3.2736e+01	13.0954	55.330964	0.000355	3.547625	1.201968	0.000142
 331	3.2835e+01	13.1371	55.431892	0.000253	2.534018	0.858548	0.000101
 332	3.2934e+01	13.1932	55.573192	0.000355	3.547625	1.201968	0.000142
 333	3.3034e+01	13.2221	55.710455	0.000345	3.446264	1.167626	0.000138
 334	3.3133e+01	13.2574	55.880014	0.000426	4.257150	1.442361	0.000170
 335	3.3233e+01	13.2991	55.952683	0.000182	1.824493	0.618155	0.000073
 336	3.3333e+01	13.3376	56.102057	0.000375	3.750346	1.270652	0.000150
 337	3.3432e+01	13.3793	56.219134	0.000294	2.939461	0.995916	0.000118
 338	3.3532e+01	13.4178	56.368508	0.000375	3.750346	1.270652	0.000150
 339	3.3631e+01	13.4627	56.517882	0.000375	3.750346	1.270652	0.000150
 340	3.3730e+01	13.4916	56.622847	0.000264	2.635379	0.892890	0.000105
 341	3.3830e+01	13.5445	56.727813	0.000264	2.635379	0.892890	0.000105
 342	3.3929e+01	13.5782	56.873150	0.000365	3.648986	1.236310	0.000146
 343	3.4029e+01	13.6167	57.022524	0.000375	3.750346	1.270652	0.000150
 344	3.4129e+01	13.6520	57.147675	0.000314	3.142182	1.064600	0.000126
 345	3.4228e+01	13.6985	57.264752	0.000294	2.939461	0.995916	0.000118
 346	3.4328e+01	13.7386	57.410089	0.000365	3.648986	1.236310	0.000146
 347	3.4427e+01	13.7723	57.523129	0.000284	2.838100	0.961574	0.000114
 348	3.4526e+01	13.8157	57.644243	0.000304	3.040821	1.030258	0.000122
 349	3.4626e+01	13.8542	57.769394	0.000314	3.142182	1.064600	0.000126
 350	3.4725e+01	13.8959	57.914731	0.000365	3.648986	1.236310	0.000146
 351	3.4825e+01	13.9440	58.031808	0.000294	2.939461	0.995916	0.000118
 352	3.4925e+01	13.9729	58.144847	0.000284	2.838100	0.961574	0.000114
 353	3.5024e+01	14.0194	58.298259	0.000385	3.851707	1.304994	0.000154
 354	3.5123e+01	14.0595	58.407261	0.000274	2.736739	0.927232	0.000110
 355	3.5223e+01	14.1028	58.556635	0.000375	3.750346	1.270652	0.000150
 356	3.5322e+01	14.1397	58.657564	0.000253	2.534018	0.858548	0.000101
 357	3.5422e+01	14.1654	58.790789	0.000334	3.344904	1.133284	0.000134
 358	3.5522e+01	14.2199	58.915940	0.000314	3.142182	1.064600	0.000126
 359	3.5621e+01	14.2632	59.045129	0.000324	3.243543	1.098942	0.000130
 360	3.5721e+01	14.2969	59.170280	0.000314	3.142182	1.064600	0.000126
 361	3.5820e+01	14.3306	59.283320	0.000284	2.838100	0.961574	0.000114
 362	3.5919e+01	14.3787	59.392322	0.000274	2.736739	0.927232	0.000110
 363	3.6019e+01	14.4156	59.533622	0.000355	3.547625	1.201968	0.000142
 364	3.6118e+01	14.4525	59.666848	0.000334	3.344904	1.133284	0.000134
 365	3.6218e+01	14.4942	59.787962	0.000304	3.040821	1.030258	0.000122
 366	3.6318e+01	14.5440	59.917150	0.000324	3.243543	1.098942	0.000130
 367	3.6417e+01	14.5712	60.018078	0.000253	2.534018	0.858548	0.000101
 368	3.6517e+01	14.6194	60.191675	0.000436	4.358511	1.476703	0.000174
 369	3.6616e+01	14.6659	60.320864	0.000324	3.243543	1.098942	0.000130
 370	3.6715e+01	14.6948	60.421792	0.000253	2.534018	0.858548	0.000101
 371	3.6815e+01	14.7397	60.546943	0.000314	3.142182	1.064600	0.000126
 372	3.6914e+01	14.7670	60.684206	0.000345	3.446264	1.167626	0.000138
 373	3.7014e+01	14.8039	60.821468	0.000345	3.446264	1.167626	0.000138
 374	3.7114e+01	14.8584	60.934508	0.000284	2.838100	0.961574	0.000114
 375	3.7213e+01	14.8969	61.059659	0.000314	3.142182	1.064600	0.000126
 376	3.7313e+01	14.9338	61.180774	0.000304	3.040821	1.030258	0.000122
 377	3.7412e+01	14.9771	61.273628	0.000233	2.331296	0.789865	0.000093
 378	3.7511e+01	15.0108	61.443187	0.000426	4.257150	1.442361	0.000170
 379	3.7611e+01	15.0525	61.560264	0.000294	2.939461	0.995916	0.000118
 380	3.7711e+01	15.0862	61.653118	0.000233	2.331296	0.789865	0.000093
 381	3.7810e+01	15.1311	61.774232	0.000304	3.040821	1.030258	0.000122
 382	3.7910e+01	15.1712	61.911495	0.000345	3.446264	1.167626	0.000138
 383	3.8009e+01	15.2145	62.064906	0.000385	3.851707	1.304994	0.000154
 384	3.8108e+01	15.2514	62.177946	0.000284	2.838100	0.961574	0.000114
 385	3.8208e+01	15.2915	62.323283	0.000365	3.648986	1.236310	0.000146
 386	3.8307e+01	15.3397	62.404026	0.000203	2.027214	0.686839	0.000081
 387	3.8407e+01	15.3702	62.569548	0.000416	4.155789	1.408020	0.000166
 388	3.8507e+01	15.4022	62.634142	0.000162	1.621771	0.549471	0.000065
 389	3.8606e+01	15.4536	62.763331	0.000324	3.243543	1.098942	0.000130
 390	3.8706e+01	15.4889	62.912705	0.000375	3.750346	1.270652	0.000150
 391	3.8805e+01	15.5306	63.025745	0.000284	2.838100	0.961574	0.000114
 392	3.8904e+01	15.5691	63.138784	0.000284	2.838100	0.961574	0.000114
 393	3.9004e+01	15.6076	63.276047	0.000345	3.446264	1.167626	0.000138
 394	3.9103e+01	15.6525	63.393124	0.000294	2.939461	0.995916	0.000118
 395	3.9203e+01	15.6958	63.506164	0.000284	2.838100	0.961574	0.000114
 396	3.9303e+01	15.7247	63.631315	0.000314	3.142182	1.064600	0.000126
 397	3.9402e+01	15.7808	63.720132	0.000223	2.229936	0.755523	0.000089
 398	3.9502e+01	15.8017	63.837209	0.000294	2.939461	0.995916	0.000118
 399	3.9601e+01	15.8546	64.002731	0.000416	4.155789	1.408020	0.000166
 400	3.9700e+01	15.8819	64.123845	0.000304	3.040821	1.030258	0.000122
 401	3.9800e+01	15.9300	64.224774	0.000253	2.534018	0.858548	0.000101
 402	3.9900e+01	15.9750	64.378185	0.000385	3.851707	1.304994	0.000154
 403	3.9999e+01	16.0118	64.467002	0.000223	2.229936	0.755523	0.000089
 404	4.0099e+01	16.0503	64.596190	0.000324	3.243543	1.098942	0.000130
 405	4.0198e+01	16.0808	64.733453	0.000345	3.446264	1.167626	0.000138
 406	4.0297e+01	16.1322	64.842456	0.000274	2.736739	0.927232	0.000110
 407	4.0397e+01	16.1642	64.963570	0.000304	3.040821	1.030258	0.000122
 408	4.0496e+01	16.2060	65.088721	0.000314	3.142182	1.064600	0.000126
 409	4.0596e+01	16.2541	65.197724	0.000274	2.736739	0.927232	0.000110
 410	4.0696e+01	16.2910	65.359209	0.000405	4.054429	1.373678	0.000162
 411	4.0795e+01	16.3295	65.423803	0.000162	1.621771	0.549471	0.000065
 412	4.0895e+01	16.3648	65.589326	0.000416	4.155789	1.408020	0.000166
 413	4.0994e+01	16.3985	65.734663	0.000365	3.648986	1.236310	0.000146
 414	4.1093e+01	16.4466	65.807331	0.000182	1.824493	0.618155	0.000073
 415	4.1193e+01	16.4867	65.908259	0.000253	2.534018	0.858548	0.000101
 416	4.1292e+01	16.5268	66.041485	0.000334	3.344904	1.133284	0.000134
 417	4.1392e+01	16.5749	66.166636	0.000314	3.142182	1.064600	0.000126
 418	4.1492e+01	16.6182	66.295825	0.000324	3.243543	1.098942	0.000130
 419	4.1591e+01	16.6423	66.416939	0.000304	3.040821	1.030258	0.000122
 420	4.1691e+01	16.6920	66.534016	0.000294	2.939461	0.995916	0.000118
 421	4.1790e+01	16.7273	66.659167	0.000314	3.142182	1.064600	0.000126
 422	4.1889e+01	16.7690	66.752021	0.000233	2.331296	0.789865	0.000093
 423	4.1989e+01	16.8140	66.877172	0.000314	3.142182	1.064600	0.000126
 424	4.2089e+01	16.8525	66.982138	0.000264	2.635379	0.892890	0.000105
 425	4.2188e+01	16.8846	67.111326	0.000324	3.243543	1.098942	0.000130
 426	4.2288e+01	16.9247	67.220329	0.000274	2.736739	0.927232	0.000110
 427	4.2387e+01	16.9728	67.345480	0.000314	3.142182	1.064600	0.000126
 428	4.2486e+01	17.0049	67.494854	0.000375	3.750346	1.270652	0.000150
 429	4.2586e+01	17.0450	67.603857	0.000274	2.736739	0.927232	0.000110
 430	4.2685e+01	17.0883	67.704785	0.000253	2.534018	0.858548	0.000101
 431	4.2785e+01	17.1220	67.813788	0.000274	2.736739	0.927232	0.000110
 432	4.2885e+01	17.1605	67.910679	0.000243	2.432657	0.824207	0.000097
 433	4.2984e+01	17.2054	68.084276	0.000436	4.358511	1.476703	0.000174
 434	4.3084e+01	17.2471	68.189241	0.000264	2.635379	0.892890	0.000105
 435	4.3183e+01	17.2840	68.314392	0.000314	3.142182	1.064600	0.000126
 436	4.3282e+01	17.3289	68.411284	0.000243	2.432657	0.824207	0.000097
 437	4.3382e+01	17.3706	68.552583	0.000355	3.547625	1.201968	0.000142
 438	4.3481e+01	17.4043	68.641400	0.000223	2.229936	0.755523	0.000089
 439	4.3581e+01	17.4412	68.758477	0.000294	2.939461	0.995916	0.000118
 440	4.3681e+01	17.4893	68.875554	0.000294	2.939461	0.995916	0.000118
 441	4.3780e+01	17.5166	69.004743	0.000324	3.243543	1.098942	0.000130
 442	4.3880e+01	17.5663	69.125857	0.000304	3.040821	1.030258	0.000122
 443	4.3979e+01	17.6032	69.238896	0.000284	2.838100	0.961574	0.000114
 444	4.4078e+01	17.6466	69.368085	0.000324	3.243543	1.098942	0.000130
 445	4.4178e+01	17.6899	69.448828	0.000203	2.027214	0.686839	0.000081
 446	4.4278e+01	17.7268	69.602239	0.000385	3.851707	1.304994	0.000154
 447	4.4377e+01	17.7637	69.699130	0.000243	2.432657	0.824207	0.000097
 448	4.4477e+01	17.8070	69.820244	0.000304	3.040821	1.030258	0.000122
 449	4.4576e+01	17.8471	69.917135	0.000243	2.432657	0.824207	0.000097
 450	4.4675e+01	17.8824	70.038249	0.000304	3.040821	1.030258	0.000122
 451	4.4775e+01	17.9177	70.118992	0.000203	2.027214	0.686839	0.000081
 452	4.4874e+01	17.9642	70.256255	0.000345	3.446264	1.167626	0.000138
 453	4.4974e+01	18.0011	70.385443	0.000324	3.243543	1.098942	0.000130
 454	4.5074e+01	18.0444	70.522706	0.000345	3.446264	1.167626	0.000138
 455	4.5173e+01	18.0797	70.635745	0.000284	2.838100	0.961574	0.000114
 456	4.5273e+01	18.1246	70.744748	0.000274	2.736739	0.927232	0.000110
 457	4.5372e+01	18.1599	70.861825	0.000294	2.939461	0.995916	0.000118
 458	4.5471e+01	18.2032	70.974865	0.000284	2.838100	0.961574	0.000114
 459	4.5571e+01	18.2369	71.108090	0.000334	3.344904	1.133284	0.000134
 460	4.5670e+01	18.2802	71.213056	0.000264	2.635379	0.892890	0.000105
 461	4.5770e+01	18.3139	71.297836	0.000213	2.128575	0.721181	0.000085
 462	4.5870e+01	18.3701	71.418950	0.000304	3.040821	1.030258	0.000122
 463	4.5969e+01	18.4022	71.564287	0.000365	3.648986	1.236310	0.000146
 464	4.6069e+01	18.4407	71.665215	0.000253	2.534018	0.858548	0.000101
 465	4.6168e+01	18.4808	71.745958	0.000203	2.027214	0.686839	0.000081
 466	4.6267e+01	18.5209	71.891295	0.000365	3.648986	1.236310	0.000146
 467	4.6367e+01	18.5706	71.963963	0.000182	1.824493	0.618155	0.000073
 468	4.6467e+01	18.5995	72.093151	0.000324	3.243543	1.098942	0.000130
 469	4.6566e+01	18.6396	72.242525	0.000375	3.750346	1.270652	0.000150
 470	4.6666e+01	18.6765	72.327305	0.000213	2.128575	0.721181	0.000085
 471	4.6765e+01	18.7214	72.448419	0.000304	3.040821	1.030258	0.000122
 472	4.6864e+01	18.7647	72.549348	0.000253	2.534018	0.858548	0.000101
 473	4.6964e+01	18.8000	72.682573	0.000334	3.344904	1.133284	0.000134
 474	4.7063e+01	18.8497	72.779465	0.000243	2.432657	0.824207	0.000097
 475	4.7163e+01	18.8818	72.896541	0.000294	2.939461	0.995916	0.000118
 476	4.7263e+01	18.9171	72.993433	0.000243	2.432657	0.824207	0.000097
 477	4.7362e+01	18.9588	73.130695	0.000345	3.446264	1.167626	0.000138
 478	4.7462e+01	18.9909	73.243735	0.000284	2.838100	0.961574	0.000114
 479	4.7561e+01	19.0438	73.328515	0.000213	2.128575	0.721181	0.000085
 480	4.7660e+01	19.0840	73.453666	0.000314	3.142182	1.064600	0.000126
 481	4.7760e+01	19.1176	73.574780	0.000304	3.040821	1.030258	0.000122
 482	4.7859e+01	19.1513	73.691857	0.000294	2.939461	0.995916	0.000118
 483	4.7959e+01	19.1946	73.788748	0.000243	2.432657	0.824207	0.000097
 484	4.8059e+01	19.2299	73.905825	0.000294	2.939461	0.995916	0.000118
 485	4.8158e+01	19.2749	74.018865	0.000284	2.838100	0.961574	0.000114
 486	4.8258e+01	19.3198	74.115756	0.000243	2.432657	0.824207	0.000097
 487	4.8357e+01	19.3487	74.281279	0.000416	4.155789	1.408020	0.000166
 488	4.8456e+01	19.4032	74.357985	0.000193	1.925854	0.652497	0.000077
 489	4.8556e+01	19.4337	74.462950	0.000264	2.635379	0.892890	0.000105
 490	4.8656e+01	19.4770	74.575990	0.000284	2.838100	0.961574	0.000114
 491	4.8755e+01	19.5155	74.693067	0.000294	2.939461	0.995916	0.000118
 492	4.8855e+01	19.5620	74.793995	0.000253	2.534018	0.858548	0.000101
 493	4.8954e+01	19.6005	74.939332	0.000365	3.648986	1.236310	0.000146
 494	4.9053e+01	19.6374	75.032186	0.000233	2.331296	0.789865	0.000093
 495	4.9153e+01	19.6663	75.112929	0.000203	2.027214	0.686839	0.000081
 496	4.9252e+01	19.7144	75.266340	0.000385	3.851707	1.304994	0.000154
 497	4.9352e+01	19.7449	75.383417	0.000294	2.939461	0.995916	0.000118
 498	4.9452e+01	19.7882	75.452048	0.000172	1.723132	0.583813	0.000069
 499	4.9551e+01	19.8412	75.581237	0.000324	3.243543	1.098942	0.000130
 500	4.9651e+01	19.8732	75.694277	0.000284	2.838100	0.961574	0.000114
 501	4.9750e+01	19.9182	75.787131	0.000233	2.331296	0.789865	0.000093
 502	4.9849e+01	19.9486	75.896133	0.000274	2.736739	0.927232	0.000110
 503	4.9949e+01	19.9936	76.025322	0.000324	3.243543	1.098942	0.000130
 504	5.0048e+01	19.9534	75.944579	0.000203	2.027214	0.686839	-0.000081
 505	5.0148e+01	19.9005	75.900170	0.000111	1.114968	0.377761	-0.000045
 506	5.0248e+01	19.8732	75.807316	0.000233	2.331296	0.789865	-0.000093
 507	5.0347e+01	19.8331	75.718499	0.000223	2.229936	0.755523	-0.000089
 508	5.0447e+01	19.7866	75.625645	0.000233	2.331296	0.789865	-0.000093
 509	5.0546e+01	19.7641	75.548940	0.000193	1.925854	0.652497	-0.000077
 510	5.0645e+01	19.7273	75.500494	0.000122	1.216329	0.412103	-0.000049
 511	5.0745e+01	19.6663	75.395528	0.000264	2.635379	0.892890	-0.000105
 512	5.0844e+01	19.6390	75.294600	0.000253	2.534018	0.858548	-0.000101
 513	5.0944e+01	19.5893	75.225969	0.000172	1.723132	0.583813	-0.000069
 514	5.1044e+01	19.5604	75.145226	0.000203	2.027214	0.686839	-0.000081
 515	5.1143e+01	19.5139	75.056409	0.000223	2.229936	0.755523	-0.000089
 516	5.1242e+01	19.4738	74.963555	0.000233	2.331296	0.789865	-0.000093
 517	5.1342e+01	19.4369	74.902998	0.000152	1.520411	0.515129	-0.000061
 518	5.1441e+01	19.3984	74.789958	0.000284	2.838100	0.961574	-0.000114
 519	5.1541e+01	19.3647	74.745550	0.000111	1.114968	0.377761	-0.000045
 520	5.1641e+01	19.3214	74.588101	0.000395	3.953068	1.339336	-0.000158
 521	5.1740e+01	19.2797	74.527544	0.000152	1.520411	0.515129	-0.000061
 522	5.1840e+01	19.2412	74.495247	0.000081	0.810886	0.274736	-0.000032
 523	5.1939e+01	19.1995	74.353947	0.000355	3.547625	1.201968	-0.000142
 524	5.2038e+01	19.1610	74.240908	0.000284	2.838100	0.961574	-0.000114
 525	5.2138e+01	19.1096	74.160165	0.000203	2.027214	0.686839	-0.000081
 526	5.2237e+01	19.0743	74.095571	0.000162	1.621771	0.549471	-0.000065
 527	5.2337e+01	19.0422	74.010791	0.000213	2.128575	0.721181	-0.000085
 528	5.2437e+01	18.9925	73.901788	0.000274	2.736739	0.927232	-0.000110
 529	5.2536e+01	18.9668	73.841231	0.000152	1.520411	0.515129	-0.000061
 530	5.2636e+01	18.9251	73.752414	0.000223	2.229936	0.755523	-0.000089
 531	5.2735e+01	18.8770	73.611114	0.000355	3.547625	1.201968	-0.000142
 532	5.2834e+01	18.8401	73.546520	0.000162	1.621771	0.549471	-0.000065
 533	5.2934e+01	18.7952	73.429443	0.000294	2.939461	0.995916	-0.000118
 534	5.3033e+01	18.7567	73.409258	0.000051	0.506804	0.171710	-0.000020
 535	5.3133e+01	18.7182	73.276032	0.000334	3.344904	1.133284	-0.000134
 536	5.3233e+01	18.6781	73.211438	0.000162	1.621771	0.549471	-0.000065
 537	5.3332e+01	18.6444	73.106473	0.000264	2.635379	0.892890	-0.000105
 538	5.3431e+01	18.6043	73.013618	0.000233	2.331296	0.789865	-0.000093
 539	5.3531e+01	18.5578	72.924801	0.000223	2.229936	0.755523	-0.000089
 540	5.3630e+01	18.5273	72.835984	0.000223	2.229936	0.755523	-0.000089
 541	5.3730e+01	18.4840	72.743130	0.000233	2.331296	0.789865	-0.000093
 542	5.3830e+01	18.4455	72.666425	0.000193	1.925854	0.652497	-0.000077
 543	5.3929e+01	18.4102	72.541274	0.000314	3.142182	1.064600	-0.000126
 544	5.4029e+01	18.3572	72.452457	0.000223	2.229936	0.755523	-0.000089
 545	5.4128e+01	18.3155	72.359602	0.000233	2.331296	0.789865	-0.000093
 546	5.4227e+01	18.2850	72.270785	0.000223	2.229936	0.755523	-0.000089
 547	5.4327e+01	18.2369	72.153708	0.000294	2.939461	0.995916	-0.000118
 548	5.4426e+01	18.1904	72.085077	0.000172	1.723132	0.583813	-0.000069
 549	5.4526e+01	18.1551	71.992223	0.000233	2.331296	0.789865	-0.000093
 550	5.4626e+01	18.1230	71.883220	0.000274	2.736739	0.927232	-0.000110
 551	5.4725e+01	18.0861	71.814589	0.000172	1.723132	0.583813	-0.000069
 552	5.4825e+01	18.0460	71.693475	0.000304	3.040821	1.030258	-0.000122
 553	5.4924e+01	18.0027	71.600621	0.000233	2.331296	0.789865	-0.000093
 554	5.5023e+01	17.9642	71.463358	0.000345	3.446264	1.167626	-0.000138
 555	5.5123e+01	17.9241	71.410876	0.000132	1.317689	0.446445	-0.000053
 556	5.5222e+01	17.8776	71.289761	0.000304	3.040821	1.030258	-0.000122
 557	5.5322e+01	17.8310	71.168647	0.000304	3.040821	1.030258	-0.000122
 558	5.5422e+01	17.7925	71.128276	0.000101	1.013607	0.343419	-0.000041
 559	5.5521e+01	17.7637	71.023310	0.000264	2.635379	0.892890	-0.000105
 560	5.5620e+01	17.7188	70.922382	0.000253	2.534018	0.858548	-0.000101
 561	5.5720e+01	17.6802	70.813379	0.000274	2.736739	0.927232	-0.000110
 562	5.5819e+01	17.6401	70.752822	0.000152	1.520411	0.515129	-0.000061
 563	5.5919e+01	17.6081	70.607485	0.000365	3.648986	1.236310	-0.000146
 564	5.6019e+01	17.5647	70.563077	0.000111	1.114968	0.377761	-0.000045
 565	5.6118e+01	17.5246	70.425814	0.000345	3.446264	1.167626	-0.000138
 566	5.6218e+01	17.4861	70.349109	0.000193	1.925854	0.652497	-0.000077
 567	5.6317e+01	17.4476	70.256255	0.000233	2.331296	0.789865	-0.000093
 568	5.6416e+01	17.3979	70.131103	0.000314	3.142182	1.064600	-0.000126
 569	5.6516e+01	17.3690	70.062472	0.000172	1.723132	0.583813	-0.000069
 570	5.6615e+01	17.3225	69.961544	0.000253	2.534018	0.858548	-0.000101
 571	5.6715e+01	17.2920	69.864653	0.000243	2.432657	0.824207	-0.000097
 572	5.6815e+01	17.2455	69.739501	0.000314	3.142182	1.064600	-0.000126
 573	5.6914e+01	17.1990	69.674907	0.000162	1.621771	0.549471	-0.000065
 574	5.7014e+01	17.1717	69.553793	0.000304	3.040821	1.030258	-0.000122
 575	5.7113e+01	17.1252	69.460939	0.000233	2.331296	0.789865	-0.000093
 576	5.7212e+01	17.0867	69.392308	0.000172	1.723132	0.583813	-0.000069
 577	5.7312e+01	17.0514	69.275231	0.000294	2.939461	0.995916	-0.000118
 578	5.7411e+01	17.0065	69.166228	0.000274	2.736739	0.927232	-0.000110
 579	5.7511e+01	16.9648	69.057225	0.000274	2.736739	0.927232	-0.000110
 580	5.7611e+01	16.9231	68.940148	0.000294	2.939461	0.995916	-0.000118
 581	5.7710e+01	16.8862	68.863443	0.000193	1.925854	0.652497	-0.000077
 582	5.7809e+01	16.8412	68.754440	0.000274	2.736739	0.927232	-0.000110
 583	5.7909e+01	16.8059	68.657549	0.000243	2.432657	0.824207	-0.000097
 584	5.8008e+01	16.7674	68.532398	0.000314	3.142182	1.064600	-0.000126
 585	5.8108e+01	16.7289	68.443581	0.000223	2.229936	0.755523	-0.000089
 586	5.8208e+01	16.6936	68.346689	0.000243	2.432657	0.824207	-0.000097
 587	5.8307e+01	16.6503	68.253835	0.000233	2.331296	0.789865	-0.000093
 588	5.8407e+01	16.6070	68.128684	0.000314	3.142182	1.064600	-0.000126
 589	5.8506e+01	16.5637	68.035830	0.000233	2.331296	0.789865	-0.000093
 590	5.8605e+01	16.5236	67.934902	0.000253	2.534018	0.858548	-0.000101
 591	5.8705e+01	16.4835	67.838010	0.000243	2.432657	0.824207	-0.000097
 592	5.8804e+01	16.4498	67.741119	0.000243	2.432657	0.824207	-0.000097
 593	5.8904e+01	16.4097	67.636154	0.000264	2.635379	0.892890	-0.000105
 594	5.9004e+01	16.3680	67.531188	0.000264	2.635379	0.892890	-0.000105
 595	5.9103e+01	16.3247	67.410074	0.000304	3.040821	1.030258	-0.000122
 596	5.9203e+01	16.2974	67.321257	0.000223	2.229936	0.755523	-0.000089
 597	5.9302e+01	16.2493	67.208217	0.000284	2.838100	0.961574	-0.000114
 598	5.9401e+01	16.2092	67.143623	0.000162	1.621771	0.549471	-0.000065
 599	5.9501e+01	16.1803	67.002323	0.000355	3.547625	1.201968	-0.000142
 600	5.9600e+01	16.1306	66.921581	0.000203	2.027214	0.686839	-0.000081
 601	5.9700e+01	16.0856	66.780281	0.000355	3.547625	1.201968	-0.000142
 602	5.9800e+01	16.0455	66.723761	0.000142	1.419050	0.480787	-0.000057
 603	5.9899e+01	16.0151	66.590535	0.000334	3.344904	1.133284	-0.000134
 604	5.9998e+01	15.9701	66.521904	0.000172	1.723132	0.583813	-0.000069
 605	6.0098e+01	15.9284	66.425013	0.000243	2.432657	0.824207	-0.000097
 606	6.0197e+01	15.8947	66.316010	0.000274	2.736739	0.927232	-0.000110
 607	6.0297e+01	15.8466	66.174710	0.000355	3.547625	1.201968	-0.000142
 608	6.0397e+01	15.8033	66.061671	0.000284	2.838100	0.961574	-0.000114
 609	6.0496e+01	15.7808	65.984965	0.000193	1.925854	0.652497	-0.000077
 610	6.0596e+01	15.7279	65.871925	0.000284	2.838100	0.961574	-0.000114
 611	6.0695e+01	15.6974	65.754848	0.000294	2.939461	0.995916	-0.000118
 612	6.0794e+01	15.6557	65.661994	0.000233	2.331296	0.789865	-0.000093
 613	6.0894e+01	15.6044	65.544917	0.000294	2.939461	0.995916	-0.000118
 614	6.0993e+01	15.5739	65.460137	0.000213	2.128575	0.721181	-0.000085
 615	6.1093e+01	15.5354	65.343060	0.000294	2.939461	0.995916	-0.000118
 616	6.1193e+01	15.4985	65.282503	0.000152	1.520411	0.515129	-0.000061
 617	6.1292e+01	15.4536	65.145241	0.000345	3.446264	1.167626	-0.000138
 618	6.1392e+01	15.4054	65.020090	0.000314	3.142182	1.064600	-0.000126
 619	6.1491e+01	15.3734	64.919161	0.000253	2.534018	0.858548	-0.000101
 620	6.1590e+01	15.3284	64.818233	0.000253	2.534018	0.858548	-0.000101
 621	6.1690e+01	15.2899	64.709230	0.000274	2.736739	0.927232	-0.000110
 622	6.1789e+01	15.2450	64.563893	0.000365	3.648986	1.236310	-0.000146
 623	6.1889e+01	15.2113	64.531596	0.000081	0.810886	0.274736	-0.000032
 624	6.1989e+01	15.1744	64.357999	0.000436	4.358511	1.476703	-0.000174
 625	6.2088e+01	15.1391	64.285331	0.000182	1.824493	0.618155	-0.000073
 626	6.2188e+01	15.0974	64.196514	0.000223	2.229936	0.755523	-0.000089
 627	6.2287e+01	15.0557	64.067326	0.000324	3.243543	1.098942	-0.000130
 628	6.2386e+01	15.0060	63.934100	0.000334	3.344904	1.133284	-0.000134
 629	6.2486e+01	14.9771	63.821060	0.000284	2.838100	0.961574	-0.000114
 630	6.2586e+01	14.9338	63.740318	0.000203	2.027214	0.686839	-0.000081
 631	6.2685e+01	14.8937	63.663612	0.000193	1.925854	0.652497	-0.000077
 632	6.2785e+01	14.8552	63.530387	0.000334	3.344904	1.133284	-0.000134
 633	6.2884e+01	14.8039	63.449644	0.000203	2.027214	0.686839	-0.000081
 634	6.2983e+01	14.7702	63.284121	0.000416	4.155789	1.408020	-0.000166
 635	6.3083e+01	14.7397	63.215490	0.000172	1.723132	0.583813	-0.000069
 636	6.3182e+01	14.7012	63.086302	0.000324	3.243543	1.098942	-0.000130
 637	6.3282e+01	14.6547	63.009596	0.000193	1.925854	0.652497	-0.000077
 638	6.3382e+01	14.6242	62.896556	0.000284	2.838100	0.961574	-0.000114
 639	6.3481e+01	14.5729	62.767368	0.000324	3.243543	1.098942	-0.000130
 640	6.3581e+01	14.5327	62.670477	0.000243	2.432657	0.824207	-0.000097
 641	6.3680e+01	14.4975	62.565511	0.000264	2.635379	0.892890	-0.000105
 642	6.3779e+01	14.4557	62.456508	0.000274	2.736739	0.927232	-0.000110
 643	6.3879e+01	14.4140	62.323283	0.000334	3.344904	1.133284	-0.000134
 644	6.3978e+01	14.3755	62.222355	0.000253	2.534018	0.858548	-0.000101
 645	6.4078e+01	14.3338	62.085092	0.000345	3.446264	1.167626	-0.000138
 646	6.4177e+01	14.3001	62.040683	0.000111	1.114968	0.377761	-0.000045
 647	6.4277e+01	14.2568	61.895347	0.000365	3.648986	1.236310	-0.000146
 648	6.4376e+01	14.2103	61.778270	0.000294	2.939461	0.995916	-0.000118
 649	6.4476e+01	14.1798	61.673304	0.000264	2.635379	0.892890	-0.000105
 650	6.4576e+01	14.1429	61.540079	0.000334	3.344904	1.133284	-0.000134
 651	6.4675e+01	14.0916	61.463373	0.000193	1.925854	0.652497	-0.000077
 652	6.4775e+01	14.0643	61.334185	0.000324	3.243543	1.098942	-0.000130
 653	6.4874e+01	14.0210	61.217108	0.000294	2.939461	0.995916	-0.000118
 654	6.4974e+01	13.9793	61.116179	0.000253	2.534018	0.858548	-0.000101
 655	6.5073e+01	13.9344	60.999102	0.000294	2.939461	0.995916	-0.000118
 656	6.5172e+01	13.8911	60.882025	0.000294	2.939461	0.995916	-0.000118
 657	6.5272e+01	13.8590	60.789171	0.000233	2.331296	0.789865	-0.000093
 658	6.5371e+01	13.8173	60.664020	0.000314	3.142182	1.064600	-0.000126
 659	6.5471e+01	13.7772	60.526758	0.000345	3.446264	1.167626	-0.000138
 660	6.5570e+01	13.7386	60.425829	0.000253	2.534018	0.858548	-0.000101
 661	6.5670e+01	13.6969	60.328938	0.000243	2.432657	0.824207	-0.000097
 662	6.5769e+01	13.6568	60.252232	0.000193	1.925854	0.652497	-0.000077
 663	6.5869e+01	13.6183	60.090747	0.000405	4.054429	1.373678	-0.000162
 664	6.5969e+01	13.5798	59.957521	0.000334	3.344904	1.133284	-0.000134
 665	6.6068e+01	13.5397	59.840444	0.000294	2.939461	0.995916	-0.000118
 666	6.6168e+01	13.5012	59.779887	0.000152	1.520411	0.515129	-0.000061
 667	6.6267e+01	13.4611	59.650699	0.000324	3.243543	1.098942	-0.000130
 668	6.6367e+01	13.4178	59.505362	0.000365	3.648986	1.236310	-0.000146
 669	6.6466e+01	13.3809	59.404434	0.000253	2.534018	0.858548	-0.000101
 670	6.6566e+01	13.3376	59.299468	0.000264	2.635379	0.892890	-0.000105
 671	6.6665e+01	13.3007	59.146057	0.000385	3.851707	1.304994	-0.000154
 672	6.6764e+01	13.2590	59.057240	0.000223	2.229936	0.755523	-0.000089
 673	6.6864e+01	13.2189	58.944200	0.000284	2.838100	0.961574	-0.000114
 674	6.6963e+01	13.1772	58.823086	0.000304	3.040821	1.030258	-0.000122
 675	6.7063e+01	13.1403	58.734269	0.000223	2.229936	0.755523	-0.000089
 676	6.7162e+01	13.1002	58.609118	0.000314	3.142182	1.064600	-0.000126
 677	6.7262e+01	13.0697	58.512227	0.000243	2.432657	0.824207	-0.000097
 678	6.7362e+01	13.0135	58.362853	0.000375	3.750346	1.270652	-0.000150
 679	6.7461e+01	12.9815	58.229627	0.000334	3.344904	1.133284	-0.000134
 680	6.7561e+01	12.9446	58.144847	0.000213	2.128575	0.721181	-0.000085
 681	6.7660e+01	12.8980	58.035845	0.000274	2.736739	0.927232	-0.000110
 682	6.7760e+01	12.8659	57.918768	0.000294	2.939461	0.995916	-0.000118
 683	6.7859e+01	12.8178	57.825914	0.000233	2.331296	0.789865	-0.000093
 684	6.7959e+01	12.7938	57.692688	0.000334	3.344904	1.133284	-0.000134
 685	6.8058e+01	12.7472	57.587723	0.000264	2.635379	0.892890	-0.000105
 686	6.8157e+01	12.7071	57.450460	0.000345	3.446264	1.167626	-0.000138
 687	6.8257e+01	12.6622	57.313198	0.000345	3.446264	1.167626	-0.000138
 688	6.8356e+01	12.6189	57.248603	0.000162	1.621771	0.549471	-0.000065
 689	6.8456e+01	12.5820	57.107304	0.000355	3.547625	1.201968	-0.000142
 690	6.8555e+01	12.5435	57.002338	0.000264	2.635379	0.892890	-0.000105
 691	6.8655e+01	12.4986	56.861038	0.000355	3.547625	1.201968	-0.000142
 692	6.8754e+01	12.4665	56.764147	0.000243	2.432657	0.824207	-0.000097
 693	6.8854e+01	12.4264	56.630922	0.000334	3.344904	1.133284	-0.000134
 694	6.8954e+01	12.3927	56.546142	0.000213	2.128575	0.721181	-0.000085
 695	6.9053e+01	12.3494	56.429065	0.000294	2.939461	0.995916	-0.000118
 696	6.9153e+01	12.3125	56.275654	0.000385	3.851707	1.304994	-0.000154
 697	6.9252e+01	12.2676	56.166651	0.000274	2.736739	0.927232	-0.000110
 698	6.9352e+01	12.2307	56.065723	0.000253	2.534018	0.858548	-0.000101
 699	6.9451e+01	12.1777	55.916349	0.000375	3.750346	1.270652	-0.000150
 700	6.9550e+01	12.1456	55.787160	0.000324	3.243543	1.098942	-0.000130
 701	6.9650e+01	12.1136	55.666046	0.000304	3.040821	1.030258	-0.000122
 702	6.9749e+01	12.0686	55.553006	0.000284	2.838100	0.961574	-0.000114
 703	6.9849e+01	12.0382	55.452078	0.000253	2.534018	0.858548	-0.000101
 704	6.9948e+01	11.9804	55.335001	0.000294	2.939461	0.995916	-0.000118
 705	7.0048e+01	11.9387	55.221961	0.000284	2.838100	0.961574	-0.000114
 706	7.0147e+01	11.9050	55.096810	0.000314	3.142182	1.064600	-0.000126
 707	7.0247e+01	11.8729	54.983770	0.000284	2.838100	0.961574	-0.000114
 708	7.0347e+01	11.8360	54.842470	0.000355	3.547625	1.201968	-0.000142
 709	7.0446e+01	11.7911	54.725393	0.000294	2.939461	0.995916	-0.000118
 710	7.0546e+01	11.7462	54.584094	0.000355	3.547625	1.201968	-0.000142
 711	7.0645e+01	11.7093	54.487202	0.000243	2.432657	0.824207	-0.000097
 712	7.0745e+01	11.6724	54.386274	0.000253	2.534018	0.858548	-0.000101
 713	7.0844e+01	11.6227	54.244974	0.000355	3.547625	1.201968	-0.000142
 714	7.0944e+01	11.5906	54.127897	0.000294	2.939461	0.995916	-0.000118
 715	7.1043e+01	11.5473	53.994672	0.000334	3.344904	1.133284	-0.000134
 716	7.1142e+01	11.5136	53.853372	0.000355	3.547625	1.201968	-0.000142
 717	7.1242e+01	11.4703	53.760518	0.000233	2.331296	0.789865	-0.000093
 718	7.1341e+01	11.4237	53.655553	0.000264	2.635379	0.892890	-0.000105
 719	7.1441e+01	11.3901	53.490030	0.000416	4.155789	1.408020	-0.000166
 720	7.1540e+01	11.3451	53.389102	0.000253	2.534018	0.858548	-0.000101
 721	7.1640e+01	11.3098	53.272025	0.000294	2.939461	0.995916	-0.000118
 722	7.1740e+01	11.2713	53.122651	0.000375	3.750346	1.270652	-0.000150
 723	7.1839e+01	11.2328	53.009611	0.000284	2.838100	0.961574	-0.000114
 724	7.1939e+01	11.1911	52.916757	0.000233	2.331296	0.789865	-0.000093
 725	7.2038e+01	11.1574	52.795643	0.000304	3.040821	1.030258	-0.000122
 726	7.2138e+01	11.1109	52.674529	0.000304	3.040821	1.030258	-0.000122
 727	7.2237e+01	11.0644	52.545340	0.000324	3.243543	1.098942	-0.000130
 728	7.2337e+01	11.0259	52.408078	0.000345	3.446264	1.167626	-0.000138
 729	7.2436e+01	10.9890	52.291001	0.000294	2.939461	0.995916	-0.000118
 730	7.2535e+01	10.9521	52.141627	0.000375	3.750346	1.270652	-0.000150
 731	7.2635e+01	10.9088	52.040698	0.000253	2.534018	0.858548	-0.000101
 732	7.2734e+01	10.8735	51.895361	0.000365	3.648986	1.236310	-0.000146
 733	7.2834e+01	10.8302	51.802507	0.000233	2.331296	0.789865	-0.000093
 734	7.2933e+01	10.7901	51.697542	0.000264	2.635379	0.892890	-0.000105
 735	7.3033e+01	10.7548	51.527982	0.000426	4.257150	1.442361	-0.000170
 736	7.3132e+01	10.7179	51.414942	0.000284	2.838100	0.961574	-0.000114
 737	7.3232e+01	10.6665	51.285754	0.000324	3.243543	1.098942	-0.000130
 738	7.3332e+01	10.6232	51.132343	0.000385	3.851707	1.304994	-0.000154
 739	7.3431e+01	10.5927	51.011229	0.000304	3.040821	1.030258	-0.000122
 740	7.3531e+01	10.5446	50.890115	0.000304	3.040821	1.030258	-0.000122
 741	7.3630e+01	10.5141	50.781112	0.000274	2.736739	0.927232	-0.000110
 742	7.3730e+01	10.4724	50.672109	0.000274	2.736739	0.927232	-0.000110
 743	7.3829e+01	10.4420	50.526772	0.000365	3.648986	1.236310	-0.000146
 744	7.3928e+01	10.3922	50.429881	0.000243	2.432657	0.824207	-0.000097
 745	7.4028e+01	10.3553	50.264359	0.000416	4.155789	1.408020	-0.000166
 746	7.4127e+01	10.3200	50.155356	0.000274	2.736739	0.927232	-0.000110
 747	7.4227e+01	10.2687	50.005982	0.000375	3.750346	1.270652	-0.000150
 748	7.4326e+01	10.2334	49.884868	0.000304	3.040821	1.030258	-0.000122
 749	7.4426e+01	10.1965	49.816236	0.000172	1.723132	0.583813	-0.000069
 750	7.4525e+01	10.1580	49.618417	0.000497	4.966675	1.682755	-0.000199
 751	7.4625e+01	10.1147	49.505377	0.000284	2.838100	0.961574	-0.000114
 752	7.4725e+01	10.0730	49.372152	0.000334	3.344904	1.133284	-0.000134
 753	7.4824e+01	10.0409	49.251037	0.000304	3.040821	1.030258	-0.000122
 754	7.4924e+01	10.0040	49.101663	0.000375	3.750346	1.270652	-0.000150
 755	7.5023e+01	9.9591	49.008809	0.000233	2.331296	0.789865	-0.000093
 756	7.5123e+01	9.9126	48.867510	0.000355	3.547625	1.201968	-0.000142
 757	7.5222e+01	9.8708	48.766581	0.000253	2.534018	0.858548	-0.000101
 758	7.5322e+01	9.8404	48.597021	0.000426	4.257150	1.442361	-0.000170
 759	7.5421e+01	9.7922	48.500130	0.000243	2.432657	0.824207	-0.000097
 760	7.5520e+01	9.7553	48.346719	0.000385	3.851707	1.304994	-0.000154
 761	7.5620e+01	9.7217	48.241754	0.000264	2.635379	0.892890	-0.000105
 762	7.5719e+01	9.6751	48.128714	0.000284	2.838100	0.961574	-0.000114
 763	7.5819e+01	9.6382	47.999525	0.000324	3.243543	1.098942	-0.000130
 764	7.5918e+01	9.5917	47.862263	0.000345	3.446264	1.167626	-0.000138
 765	7.6018e+01	9.5612	47.708852	0.000385	3.851707	1.304994	-0.000154
 766	7.6118e+01	9.5211	47.563515	0.000365	3.648986	1.236310	-0.000146
 767	7.6217e+01	9.4810	47.446438	0.000294	2.939461	0.995916	-0.000118
 768	7.6317e+01	9.4393	47.313212	0.000334	3.344904	1.133284	-0.000134
 769	7.6416e+01	9.4040	47.159801	0.000385	3.851707	1.304994	-0.000154
 770	7.6516e+01	9.3559	47.062910	0.000243	2.432657	0.824207	-0.000097
 771	7.6615e+01	9.3126	46.905462	0.000395	3.953068	1.339336	-0.000158
 772	7.6715e+01	9.2789	46.804533	0.000253	2.534018	0.858548	-0.000101
 773	7.6814e+01	9.2372	46.634973	0.000426	4.257150	1.442361	-0.000170
 774	7.6913e+01	9.2035	46.497711	0.000345	3.446264	1.167626	-0.000138
 775	7.7013e+01	9.1554	46.384671	0.000284	2.838100	0.961574	-0.000114
 776	7.7112e+01	9.1185	46.251446	0.000334	3.344904	1.133284	-0.000134
 777	7.7212e+01	9.0767	46.118220	0.000334	3.344904	1.133284	-0.000134
 778	7.7311e+01	9.0415	46.005180	0.000284	2.838100	0.961574	-0.000114
 779	7.7411e+01	8.9997	45.867918	0.000345	3.446264	1.167626	-0.000138
 780	7.7510e+01	8.9645	45.730655	0.000345	3.446264	1.167626	-0.000138
 781	7.7610e+01	8.9227	45.621652	0.000274	2.736739	0.927232	-0.000110
 782	7.7710e+01	8.8810	45.472278	0.000375	3.750346	1.270652	-0.000150
 783	7.7809e+01	8.8473	45.351164	0.000304	3.040821	1.030258	-0.000122
 784	7.7909e+01	8.8056	45.213902	0.000345	3.446264	1.167626	-0.000138
 785	7.8008e+01	8.7575	45.072602	0.000355	3.547625	1.201968	-0.000142
 786	7.8108e+01	8.7190	44.959562	0.000284	2.838100	0.961574	-0.000114
 787	7.8207e+01	8.6789	44.773854	0.000466	4.662593	1.579729	-0.000187
 788	7.8306e+01	8.6452	44.644666	0.000324	3.243543	1.098942	-0.000130
 789	7.8406e+01	8.5939	44.543737	0.000253	2.534018	0.858548	-0.000101
 790	7.8505e+01	8.5634	44.406475	0.000345	3.446264	1.167626	-0.000138
 791	7.8605e+01	8.5265	44.289398	0.000294	2.939461	0.995916	-0.000118
 792	7.8704e+01	8.4752	44.107727	0.000456	4.561232	1.545387	-0.000183
 793	7.8804e+01	8.4351	43.958352	0.000375	3.750346	1.270652	-0.000150
 794	7.8903e+01	8.4030	43.861461	0.000243	2.432657	0.824207	-0.000097
 795	7.9003e+01	8.3629	43.724199	0.000345	3.446264	1.167626	-0.000138
 796	7.9103e+01	8.3179	43.546565	0.000446	4.459871	1.511045	-0.000179
 797	7.9202e+01	8.2875	43.433525	0.000284	2.838100	0.961574	-0.000114
 798	7.9302e+01	8.2474	43.284151	0.000375	3.750346	1.270652	-0.000150
 799	7.9401e+01	8.2040	43.179185	0.000264	2.635379	0.892890	-0.000105
 800	7.9501e+01	8.1607	43.017700	0.000405	4.054429	1.373678	-0.000162
 801	7.9600e+01	8.1319	42.880437	0.000345	3.446264	1.167626	-0.000138
 802	7.9700e+01	8.0853	42.735100	0.000365	3.648986	1.236310	-0.000146
 803	7.9799e+01	8.0500	42.630135	0.000264	2.635379	0.892890	-0.000105
 804	7.9898e+01	8.0083	42.492872	0.000345	3.446264	1.167626	-0.000138
 805	7.9998e+01	7.9634	42.327350	0.000416	4.155789	1.408020	-0.000166
 806	8.0097e+01	7.9233	42.210273	0.000294	2.939461	0.995916	-0.000118
 807	8.0197e+01	7.8816	42.077047	0.000334	3.344904	1.133284	-0.000134
 808	8.0296e+01	7.8431	41.903450	0.000436	4.358511	1.476703	-0.000174
 809	8.0396e+01	7.8078	41.806559	0.000243	2.432657	0.824207	-0.000097
 810	8.0496e+01	7.7597	41.645074	0.000405	4.054429	1.373678	-0.000162
 811	8.0595e+01	7.7180	41.536071	0.000274	2.736739	0.927232	-0.000110
 812	8.0695e+01	7.6811	41.370548	0.000416	4.155789	1.408020	-0.000166
 813	8.0794e+01	7.6426	41.200989	0.000426	4.257150	1.442361	-0.000170
 814	8.0894e+01	7.6073	41.087949	0.000284	2.838100	0.961574	-0.000114
 815	8.0993e+01	7.5656	40.930501	0.000395	3.953068	1.339336	-0.000158
 816	8.1093e+01	7.5255	40.809387	0.000304	3.040821	1.030258	-0.000122
 817	8.1192e+01	7.4886	40.676161	0.000334	3.344904	1.133284	-0.000134
 818	8.1291e+01	7.4436	40.514676	0.000405	4.054429	1.373678	-0.000162
 819	8.1391e+01	7.4051	40.369339	0.000365	3.648986	1.236310	-0.000146
 820	8.1490e+01	7.3682	40.244188	0.000314	3.142182	1.064600	-0.000126
 821	8.1590e+01	7.3265	40.123074	0.000304	3.040821	1.030258	-0.000122
 822	8.1689e+01	7.2800	39.953514	0.000426	4.257150	1.442361	-0.000170
 823	8.1789e+01	7.2479	39.808177	0.000365	3.648986	1.236310	-0.000146
 824	8.1888e+01	7.1950	39.670914	0.000345	3.446264	1.167626	-0.000138
 825	8.1988e+01	7.1581	39.509429	0.000405	4.054429	1.373678	-0.000162
 826	8.2088e+01	7.1356	39.400426	0.000274	2.736739	0.927232	-0.000110
 827	8.2187e+01	7.0907	39.295461	0.000264	2.635379	0.892890	-0.000105
 828	8.2287e+01	7.0522	39.105715	0.000476	4.763954	1.614071	-0.000191
 829	8.2386e+01	7.0089	38.944230	0.000405	4.054429	1.373678	-0.000162
 830	8.2486e+01	6.9640	38.871561	0.000182	1.824493	0.618155	-0.000073
 831	8.2585e+01	6.9287	38.718150	0.000385	3.851707	1.304994	-0.000154
 832	8.2684e+01	6.8918	38.508219	0.000527	5.270757	1.785781	-0.000211
 833	8.2784e+01	6.8437	38.395179	0.000284	2.838100	0.961574	-0.000114
 834	8.2883e+01	6.8068	38.241768	0.000385	3.851707	1.304994	-0.000154
 835	8.2983e+01	6.7667	38.108543	0.000334	3.344904	1.133284	-0.000134
 836	8.3082e+01	6.7378	37.951095	0.000395	3.953068	1.339336	-0.000158
 837	8.3182e+01	6.6880	37.817869	0.000334	3.344904	1.133284	-0.000134
 838	8.3281e+01	6.6431	37.684644	0.000334	3.344904	1.133284	-0.000134
 839	8.3381e+01	6.6094	37.523158	0.000405	4.054429	1.373678	-0.000162
 840	8.3481e+01	6.5629	37.361673	0.000405	4.054429	1.373678	-0.000162
 841	8.3580e+01	6.5292	37.236521	0.000314	3.142182	1.064600	-0.000126
 842	8.3680e+01	6.4859	37.123482	0.000284	2.838100	0.961574	-0.000114
 843	8.3779e+01	6.4458	36.961996	0.000405	4.054429	1.373678	-0.000162
 844	8.3879e+01	6.4169	36.808585	0.000385	3.851707	1.304994	-0.000154
 845	8.3978e+01	6.3656	36.659211	0.000375	3.750346	1.270652	-0.000150
 846	8.4078e+01	6.3255	36.489651	0.000426	4.257150	1.442361	-0.000170
 847	8.4177e+01	6.2886	36.376612	0.000284	2.838100	0.961574	-0.000114
 848	8.4276e+01	6.2453	36.243386	0.000334	3.344904	1.133284	-0.000134
 849	8.4376e+01	6.2100	36.085938	0.000395	3.953068	1.339336	-0.000158
 850	8.4475e+01	6.1683	35.908304	0.000446	4.459871	1.511045	-0.000179
 851	8.4575e+01	6.1394	35.779115	0.000324	3.243543	1.098942	-0.000130
 852	8.4674e+01	6.0849	35.645890	0.000334	3.344904	1.133284	-0.000134
 853	8.4774e+01	6.0496	35.488442	0.000395	3.953068	1.339336	-0.000158
 854	8.4874e+01	6.0127	35.339068	0.000375	3.750346	1.270652	-0.000150
 855	8.4973e+01	5.9661	35.185657	0.000385	3.851707	1.304994	-0.000154
 856	8.5073e+01	5.9341	35.032245	0.000385	3.851707	1.304994	-0.000154
 857	8.5172e+01	5.8940	34.878834	0.000385	3.851707	1.304994	-0.000154
 858	8.5272e+01	5.8458	34.729460	0.000375	3.750346	1.270652	-0.000150
 859	8.5371e+01	5.8234	34.567975	0.000405	4.054429	1.373678	-0.000162
 860	8.5471e+01	5.7768	34.446861	0.000304	3.040821	1.030258	-0.000122
 861	8.5570e+01	5.7432	34.321709	0.000314	3.142182	1.064600	-0.000126
 862	8.5669e+01	5.6902	34.180410	0.000355	3.547625	1.201968	-0.000142
 863	8.5769e+01	5.6501	33.978553	0.000507	5.068036	1.717097	-0.000203
 864	8.5868e+01	5.6164	33.861476	0.000294	2.939461	0.995916	-0.000118
 865	8.5968e+01	5.5699	33.699991	0.000405	4.054429	1.373678	-0.000162
 866	8.6067e+01	5.5266	33.570802	0.000324	3.243543	1.098942	-0.000130
 867	8.6167e+01	5.4961	33.356834	0.000537	5.372118	1.820123	-0.000215
 868	8.6266e+01	5.4383	33.215534	0.000355	3.547625	1.201968	-0.000142
 869	8.6366e+01	5.4111	33.130754	0.000213	2.128575	0.721181	-0.000085
 870	8.6466e+01	5.3774	32.896601	0.000588	5.878921	1.991833	-0.000235
 871	8.6565e+01	5.3389	32.755301	0.000355	3.547625	1.201968	-0.000142
 872	8.6665e+01	5.2988	32.638224	0.000294	2.939461	0.995916	-0.000118
 873	8.6764e+01	5.2523	32.476738	0.000405	4.054429	1.373678	-0.000162
 874	8.6864e+01	5.2154	32.351587	0.000314	3.142182	1.064600	-0.000126
 875	8.6963e+01	5.1753	32.186065	0.000416	4.155789	1.408020	-0.000166
 876	8.7063e+01	5.1303	32.032654	0.000385	3.851707	1.304994	-0.000154
 877	8.7162e+01	5.1063	31.891354	0.000355	3.547625	1.201968	-0.000142
 878	8.7261e+01	5.0565	31.729868	0.000405	4.054429	1.373678	-0.000162
 879	8.7361e+01	5.0164	31.568383	0.000405	4.054429	1.373678	-0.000162
 880	8.7460e+01	4.9763	31.427083	0.000355	3.547625	1.201968	-0.000142
 881	8.7560e+01	4.9410	31.277709	0.000375	3.750346	1.270652	-0.000150
 882	8.7659e+01	4.8913	31.108149	0.000426	4.257150	1.442361	-0.000170
 883	8.7759e+01	4.8576	30.970887	0.000345	3.446264	1.167626	-0.000138
 884	8.7859e+01	4.8191	30.833624	0.000345	3.446264	1.167626	-0.000138
 885	8.7958e+01	4.7758	30.603507	0.000578	5.777561	1.957491	-0.000231
 886	8.8058e+01	4.7325	30.494505	0.000274	2.736739	0.927232	-0.000110
 887	8.8157e+01	4.6988	30.345131	0.000375	3.750346	1.270652	-0.000150
 888	8.8257e+01	4.6523	30.171534	0.000436	4.358511	1.476703	-0.000174
 889	8.8356e+01	4.6218	30.018123	0.000385	3.851707	1.304994	-0.000154
 890	8.8456e+01	4.5753	29.872786	0.000365	3.648986	1.236310	-0.000146
 891	8.8555e+01	4.5320	29.739560	0.000334	3.344904	1.133284	-0.000134
 892	8.8654e+01	4.4951	29.549815	0.000476	4.763954	1.614071	-0.000191
 893	8.8754e+01	4.4534	29.392367	0.000395	3.953068	1.339336	-0.000158
 894	8.8853e+01	4.4100	29.263178	0.000324	3.243543	1.098942	-0.000130
 895	8.8953e+01	4.3780	29.101693	0.000405	4.054429	1.373678	-0.000162
 896	8.9052e+01	4.3411	28.936170	0.000416	4.155789	1.408020	-0.000166
 897	8.9152e+01	4.2849	28.754499	0.000456	4.561232	1.545387	-0.000183
 898	8.9251e+01	4.2608	28.609162	0.000365	3.648986	1.236310	-0.000146
 899	8.9351e+01	4.2063	28.451714	0.000395	3.953068	1.339336	-0.000158
 900	8.9451e+01	4.1838	28.274080	0.000446	4.459871	1.511045	-0.000179
 901	8.9550e+01	4.1405	28.112595	0.000405	4.054429	1.373678	-0.000162
 902	8.9650e+01	4.0956	27.979369	0.000334	3.344904	1.133284	-0.000134
 903	8.9749e+01	4.0619	27.838069	0.000355	3.547625	1.201968	-0.000142
 904	8.9849e+01	4.0138	27.656398	0.000456	4.561232	1.545387	-0.000183
 905	8.9948e+01	3.9833	27.466653	0.000476	4.763954	1.614071	-0.000191
 906	9.0047e+01	3.9432	27.337465	0.000324	3.243543	1.098942	-0.000130
 907	9.0147e+01	3.9015	27.159831	0.000446	4.459871	1.511045	-0.000179
 908	9.0246e+01	3.8598	27.034679	0.000314	3.142182	1.064600	-0.000126
 909	9.0346e+01	3.8245	26.861083	0.000436	4.358511	1.476703	-0.000174
 910	9.0445e+01	3.7748	26.703634	0.000395	3.953068	1.339336	-0.000158
 911	9.0545e+01	3.7379	26.558297	0.000365	3.648986	1.236310	-0.000146
 912	9.0644e+01	3.6978	26.376626	0.000456	4.561232	1.545387	-0.000183
 913	9.0744e+01	3.6625	26.231289	0.000365	3.648986	1.236310	-0.000146
 914	9.0844e+01	3.6159	26.061730	0.000426	4.257150	1.442361	-0.000170
 915	9.0943e+01	3.5726	25.896207	0.000416	4.155789	1.408020	-0.000166
 916	9.1043e+01	3.5405	25.758945	0.000345	3.446264	1.167626	-0.000138
 917	9.1142e+01	3.5004	25.577273	0.000456	4.561232	1.545387	-0.000183
 918	9.1242e+01	3.4635	25.403677	0.000436	4.358511	1.476703	-0.000174
 919	9.1341e+01	3.4218	25.246228	0.000395	3.953068	1.339336	-0.000158
 920	9.1441e+01	3.3865	25.076669	0.000426	4.257150	1.442361	-0.000170
 921	9.1540e+01	3.3368	24.967666	0.000274	2.736739	0.927232	-0.000110
 922	9.1639e+01	3.3047	24.733512	0.000588	5.878921	1.991833	-0.000235
 923	9.1739e+01	3.2662	24.543767	0.000476	4.763954	1.614071	-0.000191
 924	9.1838e+01	3.2181	24.406504	0.000345	3.446264	1.167626	-0.000138
 925	9.1938e+01	3.1828	24.269241	0.000345	3.446264	1.167626	-0.000138
 926	9.2037e+01	3.1443	24.111793	0.000395	3.953068	1.339336	-0.000158
 927	9.2137e+01	3.0978	23.954345	0.000395	3.953068	1.339336	-0.000158
 928	9.2237e+01	3.0625	23.800934	0.000385	3.851707	1.304994	-0.000154
 929	9.2336e+01	3.0160	23.611188	0.000476	4.763954	1.614071	-0.000191
 930	9.2436e+01	2.9871	23.457777	0.000385	3.851707	1.304994	-0.000154
 931	9.2535e+01	2.9438	23.304366	0.000385	3.851707	1.304994	-0.000154
 932	9.2635e+01	2.9037	23.130769	0.000436	4.358511	1.476703	-0.000174
 933	9.2734e+01	2.8587	22.953135	0.000446	4.459871	1.511045	-0.000179
 934	9.2834e+01	2.8218	22.807798	0.000365	3.648986	1.236310	-0.000146
 935	9.2933e+01	2.7849	22.622090	0.000466	4.662593	1.579729	-0.000187
 936	9.3032e+01	2.7448	22.476753	0.000365	3.648986	1.236310	-0.000146
 937	9.3132e+01	2.6967	22.262785	0.000537	5.372118	1.820123	-0.000215
 938	9.3231e+01	2.6566	22.117448	0.000365	3.648986	1.236310	-0.000146
 939	9.3331e+01	2.6309	21.968074	0.000375	3.750346	1.270652	-0.000150
 940	9.3430e+01	2.5876	21.822737	0.000365	3.648986	1.236310	-0.000146
 941	9.3530e+01	2.5411	21.653178	0.000426	4.257150	1.442361	-0.000170
 942	9.3629e+01	2.5026	21.431135	0.000557	5.574839	1.888807	-0.000223
 943	9.3729e+01	2.4689	21.301947	0.000324	3.243543	1.098942	-0.000130
 944	9.3829e+01	2.4288	21.164684	0.000345	3.446264	1.167626	-0.000138
 945	9.3928e+01	2.3807	20.934567	0.000578	5.777561	1.957491	-0.000231
 946	9.4028e+01	2.3454	20.777119	0.000395	3.953068	1.339336	-0.000158
 947	9.4127e+01	2.3069	20.607559	0.000426	4.257150	1.442361	-0.000170
 948	9.4227e+01	2.2716	20.450111	0.000395	3.953068	1.339336	-0.000158
 949	9.4326e+01	2.2283	20.308811	0.000355	3.547625	1.201968	-0.000142
 950	9.4425e+01	2.1818	20.094843	0.000537	5.372118	1.820123	-0.000215
 951	9.4525e+01	2.1417	19.937395	0.000395	3.953068	1.339336	-0.000158
 952	9.4624e+01	2.1031	19.796095	0.000355	3.547625	1.201968	-0.000142
 953	9.4724e+01	2.0695	19.602313	0.000487	4.865314	1.648413	-0.000195
 954	9.4823e+01	2.0245	19.465050	0.000345	3.446264	1.167626	-0.000138
 955	9.4923e+01	1.9925	19.247045	0.000547	5.473479	1.854465	-0.000219
 956	9.5022e+01	1.9507	19.113819	0.000334	3.344904	1.133284	-0.000134
 957	9.5122e+01	1.9090	18.936185	0.000446	4.459871	1.511045	-0.000179
 958	9.5222e+01	1.8721	18.762588	0.000436	4.358511	1.476703	-0.000174
 959	9.5321e+01	1.8272	18.560732	0.000507	5.068036	1.717097	-0.000203
 960	9.5421e+01	1.7807	18.387135	0.000436	4.358511	1.476703	-0.000174
 961	9.5520e+01	1.7486	18.229686	0.000395	3.953068	1.339336	-0.000158
 962	9.5620e+01	1.7101	18.072238	0.000395	3.953068	1.339336	-0.000158
 963	9.5719e+01	1.6684	17.886530	0.000466	4.662593	1.579729	-0.000187
 964	9.5819e+01	1.6267	17.688710	0.000497	4.966675	1.682755	-0.000199
 965	9.5918e+01	1.5914	17.547410	0.000355	3.547625	1.201968	-0.000142
 966	9.6017e+01	1.5481	17.389962	0.000395	3.953068	1.339336	-0.000158
 967	9.6117e+01	1.5096	17.212328	0.000446	4.459871	1.511045	-0.000179
 968	9.6216e+01	1.4647	17.050843	0.000405	4.054429	1.373678	-0.000162
 969	9.6316e+01	1.4310	16.844949	0.000517	5.169396	1.751439	-0.000207
 970	9.6415e+01	1.3877	16.695575	0.000375	3.750346	1.270652	-0.000150
 971	9.6515e+01	1.3427	16.473532	0.000557	5.574839	1.888807	-0.000223
 972	9.6615e+01	1.3058	16.356455	0.000294	2.939461	0.995916	-0.000118
 973	9.6714e+01	1.2722	16.186896	0.000426	4.257150	1.442361	-0.000170
 974	9.6814e+01	1.2304	15.956779	0.000578	5.777561	1.957491	-0.000231
 975	9.6913e+01	1.1855	15.823554	0.000334	3.344904	1.133284	-0.000134
 976	9.7013e+01	1.1583	15.605548	0.000547	5.473479	1.854465	-0.000219
 977	9.7112e+01	1.1133	15.480397	0.000314	3.142182	1.064600	-0.000126
 978	9.7212e+01	1.0764	15.258355	0.000557	5.574839	1.888807	-0.000223
 979	9.7311e+01	1.0187	15.117055	0.000355	3.547625	1.201968	-0.000142
 980	9.7410e+01	0.9882	14.963644	0.000385	3.851707	1.304994	-0.000154
 981	9.7510e+01	0.9481	14.749675	0.000537	5.372118	1.820123	-0.000215
 982	9.7609e+01	0.9016	14.620487	0.000324	3.243543	1.098942	-0.000130
 983	9.7709e+01	0.8663	14.394407	0.000568	5.676200	1.923149	-0.000227
 984	9.7808e+01	0.8278	14.281368	0.000284	2.838100	0.961574	-0.000114
 985	9.7908e+01	0.7941	14.071437	0.000527	5.270757	1.785781	-0.000211
 986	9.8007e+01	0.7492	13.893803	0.000446	4.459871	1.511045	-0.000179
 987	9.8107e+01	0.7171	13.736354	0.000395	3.953068	1.339336	-0.000158
 988	9.8207e+01	0.6738	13.542572	0.000487	4.865314	1.648413	-0.000195
 989	9.8306e+01	0.6337	13.397235	0.000365	3.648986	1.236310	-0.000146
 990	9.8406e+01	0.5855	13.191341	0.000517	5.169396	1.751439	-0.000207
 991	9.8505e+01	0.5503	13.009670	0.000456	4.561232	1.545387	-0.000183
 992	9.8605e+01	0.5150	12.848184	0.000405	4.054429	1.373678	-0.000162
 993	9.8704e+01	0.4652	12.654402	0.000487	4.865314	1.648413	-0.000195
 994	9.8803e+01	0.4331	12.464657	0.000476	4.763954	1.614071	-0.000191
 995	9.8903e+01	0.3882	12.335468	0.000324	3.243543	1.098942	-0.000130
 996	9.9002e+01	0.3417	12.133611	0.000507	5.068036	1.717097	-0.000203
 997	9.9102e+01	0.3096	11.968089	0.000416	4.155789	1.408020	-0.000166
 998	9.9201e+01	0.2775	11.762195	0.000517	5.169396	1.751439	-0.000207
 999	9.9301e+01	0.2278	11.592635	0.000426	4.257150	1.442361	-0.000170
1000	9.9400e+01	0.1941	11.394816	0.000497	4.966675	1.682755	-0.000199
1001	9.9500e+01	0.1524	11.241404	0.000385	3.851707	1.304994	-0.000154
1002	9.9600e+01	0.1139	11.075882	0.000416	4.155789	1.408020	-0.000166
1003	9.9699e+01	0.0722	10.886137	0.000476	4.763954	1.614071	-0.000191
1004	9.9799e+01	0.0289	10.728688	0.000395	3.953068	1.339336	-0.000158
1005	9.9898e+01	0.0016	10.575277	0.000385	3.851707	1.304994	-0.000154
1006	9.9998e+01	-0.0353	10.345160	0.000578	5.777561	1.957491	-0.000231
1007	1.0010e+02	-0.0754	10.203861	0.000355	3.547625	1.201968	-0.000142
1008	1.0020e+02	-0.1155	10.018152	0.000466	4.662593	1.579729	-0.000187
1009	1.0030e+02	-0.1636	9.860704	0.000395	3.953068	1.339336	-0.000158
1010	1.0040e+02	-0.1989	9.670959	0.000476	4.763954	1.614071	-0.000191
1011	1.0050e+02	-0.2342	9.497362	0.000436	4.358511	1.476703	-0.000174
1012	1.0059e+02	-0.2872	9.311654	0.000466	4.662593	1.579729	-0.000187
1013	1.0069e+02	-0.3225	9.125945	0.000466	4.662593	1.579729	-0.000187
1014	1.0079e+02	-0.3561	8.944274	0.000456	4.561232	1.545387	-0.000183
1015	1.0089e+02	-0.3866	8.746455	0.000497	4.966675	1.682755	-0.000199
1016	1.0099e+02	-0.4444	8.580932	0.000416	4.155789	1.408020	-0.000166
1017	1.0109e+02	-0.4797	8.423484	0.000395	3.953068	1.339336	-0.000158
1018	1.0119e+02	-0.5134	8.233738	0.000476	4.763954	1.614071	-0.000191
1019	1.0129e+02	-0.5519	8.100513	0.000334	3.344904	1.133284	-0.000134
1020	1.0139e+02	-0.5968	7.874433	0.000568	5.676200	1.923149	-0.000227
1021	1.0149e+02	-0.6337	7.692762	0.000456	4.561232	1.545387	-0.000183
1022	1.0159e+02	-0.6786	7.494942	0.000497	4.966675	1.682755	-0.000199
1023	1.0169e+02	-0.7059	7.329420	0.000416	4.155789	1.408020	-0.000166
1024	1.0179e+02	-0.7588	7.163897	0.000416	4.155789	1.408020	-0.000166
1025	1.0189e+02	-0.7989	6.970115	0.000487	4.865314	1.648413	-0.000195
1026	1.0199e+02	-0.8374	6.849001	0.000304	3.040821	1.030258	-0.000122
1027	1.0209e+02	-0.8743	6.602735	0.000618	6.183004	2.094858	-0.000248
1028	1.0219e+02	-0.9128	6.465473	0.000345	3.446264	1.167626	-0.000138
1029	1.0229e+02	-0.9545	6.328210	0.000345	3.446264	1.167626	-0.000138
1030	1.0239e+02	-0.9930	6.118279	0.000527	5.270757	1.785781	-0.000211
1031	1.0248e+02	-1.0363	5.900274	0.000547	5.473479	1.854465	-0.000219
1032	1.0258e+02	-1.0796	5.718603	0.000456	4.561232	1.545387	-0.000183
1033	1.0268e+02	-1.1133	5.540969	0.000446	4.459871	1.511045	-0.000179
1034	1.0278e+02	-1.1567	5.371409	0.000426	4.257150	1.442361	-0.000170
1035	1.0288e+02	-1.1887	5.177627	0.000487	4.865314	1.648413	-0.000195
1036	1.0298e+02	-1.2256	5.024215	0.000385	3.851707	1.304994	-0.000154
1037	1.0308e+02	-1.2689	4.826396	0.000497	4.966675	1.682755	-0.000199
1038	1.0318e+02	-1.3058	4.636650	0.000476	4.763954	1.614071	-0.000191
1039	1.0328e+02	-1.3492	4.479202	0.000395	3.953068	1.339336	-0.000158
1040	1.0338e+02	-1.3909	4.281382	0.000497	4.966675	1.682755	-0.000199
1041	1.0348e+02	-1.4342	4.140083	0.000355	3.547625	1.201968	-0.000142
1042	1.0358e+02	-1.4807	3.926115	0.000537	5.372118	1.820123	-0.000215
1043	1.0368e+02	-1.5112	3.748481	0.000446	4.459871	1.511045	-0.000179
1044	1.0378e+02	-1.5433	3.603144	0.000365	3.648986	1.236310	-0.000146
1045	1.0388e+02	-1.5994	3.381101	0.000557	5.574839	1.888807	-0.000223
1046	1.0398e+02	-1.6347	3.215579	0.000416	4.155789	1.408020	-0.000166
1047	1.0408e+02	-1.6652	3.082353	0.000334	3.344904	1.133284	-0.000134
1048	1.0418e+02	-1.7165	2.880496	0.000507	5.068036	1.717097	-0.000203
1049	1.0428e+02	-1.7647	2.682677	0.000497	4.966675	1.682755	-0.000199
1050	1.0438e+02	-1.7871	2.501006	0.000456	4.561232	1.545387	-0.000183
1051	1.0447e+02	-1.8417	2.355669	0.000365	3.648986	1.236310	-0.000146
1052	1.0457e+02	-1.8673	2.113441	0.000608	6.081643	2.060516	-0.000243
1053	1.0467e+02	-1.9187	1.972141	0.000355	3.547625	1.201968	-0.000142
1054	1.0477e+02	-1.9443	1.778358	0.000487	4.865314	1.648413	-0.000195
1055	1.0487e+02	-1.9876	1.592650	0.000466	4.662593	1.579729	-0.000187
1056	1.0497e+02	-2.0261	1.382719	0.000527	5.270757	1.785781	-0.000211
1057	1.0507e+02	-2.0663	1.253531	0.000324	3.243543	1.098942	-0.000130
1058	1.0517e+02	-2.1208	1.051674	0.000507	5.068036	1.717097	-0.000203
1059	1.0527e+02	-2.1433	0.882114	0.000426	4.257150	1.442361	-0.000170
1060	1.0537e+02	-2.1898	0.748889	0.000334	3.344904	1.133284	-0.000134
1061	1.0547e+02	-2.2331	0.571255	0.000446	4.459871	1.511045	-0.000179
1062	1.0557e+02	-2.2668	0.361324	0.000527	5.270757	1.785781	-0.000211
1063	1.0567e+02	-2.3085	0.191764	0.000426	4.257150	1.442361	-0.000170
1064	1.0577e+02	-2.3518	-0.002019	0.000487	4.865314	1.648413	-0.000195
1065	1.0587e+02	-2.3935	-0.143318	0.000355	3.547625	1.201968	-0.000142
1066	1.0597e+02	-2.4352	-0.341138	0.000497	4.966675	1.682755	-0.000199
1067	1.0607e+02	-2.4657	-0.494549	0.000385	3.851707	1.304994	-0.000154
1068	1.0617e+02	-2.5042	-0.728703	0.000588	5.878921	1.991833	-0.000235
1069	1.0627e+02	-2.5507	-0.882114	0.000385	3.851707	1.304994	-0.000154
1070	1.0637e+02	-2.5908	-1.083971	0.000507	5.068036	1.717097	-0.000203
1071	1.0647e+02	-2.6261	-1.221234	0.000345	3.446264	1.167626	-0.000138
1072	1.0656e+02	-2.6598	-1.398868	0.000446	4.459871	1.511045	-0.000179
1073	1.0666e+02	-2.7079	-1.624947	0.000568	5.676200	1.923149	-0.000227
1074	1.0676e+02	-2.7497	-1.737987	0.000284	2.838100	0.961574	-0.000114
1075	1.0686e+02	-2.7817	-1.972141	0.000588	5.878921	1.991833	-0.000235
1076	1.0696e+02	-2.8283	-2.125552	0.000385	3.851707	1.304994	-0.000154
1077	1.0706e+02	-2.8732	-2.283000	0.000395	3.953068	1.339336	-0.000158
1078	1.0716e+02	-2.9005	-2.529266	0.000618	6.183004	2.094858	-0.000248
1079	1.0726e+02	-2.9502	-2.654417	0.000314	3.142182	1.064600	-0.000126
1080	1.0736e+02	-2.9855	-2.828014	0.000436	4.358511	1.476703	-0.000174
1081	1.0746e+02	-3.0288	-3.005648	0.000446	4.459871	1.511045	-0.000179
1082	1.0756e+02	-3.0689	-3.175207	0.000426	4.257150	1.442361	-0.000170
1083	1.0766e+02	-3.1074	-3.344767	0.000426	4.257150	1.442361	-0.000170
1084	1.0776e+02	-3.1459	-3.502215	0.000395	3.953068	1.339336	-0.000158
1085	1.0786e+02	-3.1876	-3.695998	0.000487	4.865314	1.648413	-0.000195
1086	1.0796e+02	-3.2261	-3.897855	0.000507	5.068036	1.717097	-0.000203
1087	1.0806e+02	-3.2630	-4.023006	0.000314	3.142182	1.064600	-0.000126
1088	1.0816e+02	-3.2999	-4.200640	0.000446	4.459871	1.511045	-0.000179
1089	1.0826e+02	-3.3432	-4.402497	0.000507	5.068036	1.717097	-0.000203
1090	1.0836e+02	-3.3849	-4.580130	0.000446	4.459871	1.511045	-0.000179
1091	1.0845e+02	-3.4266	-4.753727	0.000436	4.358511	1.476703	-0.000174
1092	1.0855e+02	-3.4619	-4.935398	0.000456	4.561232	1.545387	-0.000183
1093	1.0865e+02	-3.5069	-5.076698	0.000355	3.547625	1.201968	-0.000142
1094	1.0875e+02	-3.5438	-5.234146	0.000395	3.953068	1.339336	-0.000158
1095	1.0885e+02	-3.5839	-5.399669	0.000416	4.155789	1.408020	-0.000166
1096	1.0895e+02	-3.6208	-5.589414	0.000476	4.763954	1.614071	-0.000191
1097	1.0905e+02	-3.6657	-5.795308	0.000517	5.169396	1.751439	-0.000207
1098	1.0915e+02	-3.7090	-5.952757	0.000395	3.953068	1.339336	-0.000158
1099	1.0925e+02	-3.7459	-6.094056	0.000355	3.547625	1.201968	-0.000142
1100	1.0935e+02	-3.7732	-6.271690	0.000446	4.459871	1.511045	-0.000179
1101	1.0945e+02	-3.8165	-6.457399	0.000466	4.662593	1.579729	-0.000187
1102	1.0955e+02	-3.8598	-6.622921	0.000416	4.155789	1.408020	-0.000166
1103	1.0965e+02	-3.9015	-6.764221	0.000355	3.547625	1.201968	-0.000142
1104	1.0975e+02	-3.9528	-6.974152	0.000527	5.270757	1.785781	-0.000211
1105	1.0985e+02	-3.9929	-7.163897	0.000476	4.763954	1.614071	-0.000191
1106	1.0995e+02	-4.0298	-7.321346	0.000395	3.953068	1.339336	-0.000158
1107	1.1005e+02	-4.0715	-7.446497	0.000314	3.142182	1.064600	-0.000126
1108	1.1015e+02	-4.1084	-7.656428	0.000527	5.270757	1.785781	-0.000211
1109	1.1025e+02	-4.1453	-7.821950	0.000416	4.155789	1.408020	-0.000166
1110	1.1035e+02	-4.1806	-7.983436	0.000405	4.054429	1.373678	-0.000162
1111	1.1044e+02	-4.2223	-8.148958	0.000416	4.155789	1.408020	-0.000166
1112	1.1054e+02	-4.2624	-8.330630	0.000456	4.561232	1.545387	-0.000183
1113	1.1064e+02	-4.2961	-8.496152	0.000416	4.155789	1.408020	-0.000166
1114	1.1074e+02	-4.3427	-8.698009	0.000507	5.068036	1.717097	-0.000203
1115	1.1084e+02	-4.3812	-8.811049	0.000284	2.838100	0.961574	-0.000114
1116	1.1094e+02	-4.4277	-8.964460	0.000385	3.851707	1.304994	-0.000154
1117	1.1104e+02	-4.4582	-9.174391	0.000527	5.270757	1.785781	-0.000211
1118	1.1114e+02	-4.5047	-9.352025	0.000446	4.459871	1.511045	-0.000179
1119	1.1124e+02	-4.5368	-9.497362	0.000365	3.648986	1.236310	-0.000146
1120	1.1134e+02	-4.5769	-9.695181	0.000497	4.966675	1.682755	-0.000199
1121	1.1144e+02	-4.6186	-9.836481	0.000355	3.547625	1.201968	-0.000142
1122	1.1154e+02	-4.6587	-10.006041	0.000426	4.257150	1.442361	-0.000170
1123	1.1164e+02	-4.7004	-10.179638	0.000436	4.358511	1.476703	-0.000174
1124	1.1174e+02	-4.7373	-10.337086	0.000395	3.953068	1.339336	-0.000158
1125	1.1184e+02	-4.7806	-10.466274	0.000324	3.243543	1.098942	-0.000130
1126	1.1194e+02	-4.8191	-10.680243	0.000537	5.372118	1.820123	-0.000215
1127	1.1204e+02	-4.8608	-10.817505	0.000345	3.446264	1.167626	-0.000138
1128	1.1214e+02	-4.8929	-10.978991	0.000405	4.054429	1.373678	-0.000162
1129	1.1224e+02	-4.9346	-11.132402	0.000385	3.851707	1.304994	-0.000154
1130	1.1234e+02	-4.9811	-11.322147	0.000476	4.763954	1.614071	-0.000191
1131	1.1244e+02	-5.0261	-11.491707	0.000426	4.257150	1.442361	-0.000170
1132	1.1253e+02	-5.0742	-11.624932	0.000334	3.344904	1.133284	-0.000134
1133	1.1263e+02	-5.0983	-11.842938	0.000547	5.473479	1.854465	-0.000219
1134	1.1273e+02	-5.1287	-11.976163	0.000334	3.344904	1.133284	-0.000134
1135	1.1283e+02	-5.1817	-12.133611	0.000395	3.953068	1.339336	-0.000158
1136	1.1293e+02	-5.2250	-12.278948	0.000365	3.648986	1.236310	-0.000146
1137	1.1303e+02	-5.2587	-12.476768	0.000497	4.966675	1.682755	-0.000199
1138	1.1313e+02	-5.2956	-12.630179	0.000385	3.851707	1.304994	-0.000154
1139	1.1323e+02	-5.3373	-12.763405	0.000334	3.344904	1.133284	-0.000134
1140	1.1333e+02	-5.3886	-12.916816	0.000385	3.851707	1.304994	-0.000154
1141	1.1343e+02	-5.4175	-13.167118	0.000628	6.284364	2.129200	-0.000252
1142	1.1353e+02	-5.4640	-13.308418	0.000355	3.547625	1.201968	-0.000142
1143	1.1363e+02	-5.4993	-13.441643	0.000334	3.344904	1.133284	-0.000134
1144	1.1373e+02	-5.5362	-13.562758	0.000304	3.040821	1.030258	-0.000122
1145	1.1383e+02	-5.5827	-13.752503	0.000476	4.763954	1.614071	-0.000191
1146	1.1393e+02	-5.6244	-13.901877	0.000375	3.750346	1.270652	-0.000150
1147	1.1403e+02	-5.6549	-14.071437	0.000426	4.257150	1.442361	-0.000170
1148	1.1413e+02	-5.6934	-14.224848	0.000385	3.851707	1.304994	-0.000154
1149	1.1423e+02	-5.7399	-14.402482	0.000446	4.459871	1.511045	-0.000179
1150	1.1433e+02	-5.7752	-14.539744	0.000345	3.446264	1.167626	-0.000138
1151	1.1442e+02	-5.8218	-14.729490	0.000476	4.763954	1.614071	-0.000191
1152	1.1452e+02	-5.8522	-14.866752	0.000345	3.446264	1.167626	-0.000138
1153	1.1462e+02	-5.8891	-15.064572	0.000497	4.966675	1.682755	-0.000199
1154	1.1472e+02	-5.9276	-15.201835	0.000345	3.446264	1.167626	-0.000138
1155	1.1482e+02	-5.9790	-15.359283	0.000395	3.953068	1.339336	-0.000158
1156	1.1492e+02	-6.0143	-15.516731	0.000395	3.953068	1.339336	-0.000158
1157	1.1502e+02	-6.0528	-15.653994	0.000345	3.446264	1.167626	-0.000138
1158	1.1512e+02	-6.1009	-15.831628	0.000446	4.459871	1.511045	-0.000179
1159	1.1522e+02	-6.1330	-15.985039	0.000385	3.851707	1.304994	-0.000154
1160	1.1532e+02	-6.1747	-16.182859	0.000497	4.966675	1.682755	-0.000199
1161	1.1542e+02	-6.2148	-16.308010	0.000314	3.142182	1.064600	-0.000126
1162	1.1552e+02	-6.2597	-16.501792	0.000487	4.865314	1.648413	-0.000195
1163	1.1562e+02	-6.2934	-16.635018	0.000334	3.344904	1.133284	-0.000134
1164	1.1572e+02	-6.3319	-16.744020	0.000274	2.736739	0.927232	-0.000110
1165	1.1582e+02	-6.3784	-16.949914	0.000517	5.169396	1.751439	-0.000207
1166	1.1592e+02	-6.4153	-17.054880	0.000264	2.635379	0.892890	-0.000105
1167	1.1602e+02	-6.4474	-17.200217	0.000365	3.648986	1.236310	-0.000146
1168	1.1612e+02	-6.4955	-17.406111	0.000517	5.169396	1.751439	-0.000207
1169	1.1622e+02	-6.5356	-17.571633	0.000416	4.155789	1.408020	-0.000166
1170	1.1632e+02	-6.5645	-17.721007	0.000375	3.750346	1.270652	-0.000150
1171	1.1642e+02	-6.6062	-17.850196	0.000324	3.243543	1.098942	-0.000130
1172	1.1651e+02	-6.6463	-18.039941	0.000476	4.763954	1.614071	-0.000191
1173	1.1661e+02	-6.6897	-18.152981	0.000284	2.838100	0.961574	-0.000114
1174	1.1671e+02	-6.7233	-18.298318	0.000365	3.648986	1.236310	-0.000146
1175	1.1681e+02	-6.7715	-18.467877	0.000426	4.257150	1.442361	-0.000170
1176	1.1691e+02	-6.8100	-18.629363	0.000405	4.054429	1.373678	-0.000162
1177	1.1701e+02	-6.8469	-18.782774	0.000385	3.851707	1.304994	-0.000154
1178	1.1711e+02	-6.8902	-18.988668	0.000517	5.169396	1.751439	-0.000207
1179	1.1721e+02	-6.9287	-19.089596	0.000253	2.534018	0.858548	-0.000101
1180	1.1731e+02	-6.9752	-19.247045	0.000395	3.953068	1.339336	-0.000158
1181	1.1741e+02	-7.0025	-19.384307	0.000345	3.446264	1.167626	-0.000138
1182	1.1751e+02	-7.0522	-19.578090	0.000487	4.865314	1.648413	-0.000195
1183	1.1761e+02	-7.0923	-19.707278	0.000324	3.243543	1.098942	-0.000130
1184	1.1771e+02	-7.1212	-19.836466	0.000324	3.243543	1.098942	-0.000130
1185	1.1781e+02	-7.1677	-20.001989	0.000416	4.155789	1.408020	-0.000166
1186	1.1791e+02	-7.2078	-20.151363	0.000375	3.750346	1.270652	-0.000150
1187	1.1801e+02	-7.2575	-20.296700	0.000365	3.648986	1.236310	-0.000146
1188	1.1811e+02	-7.2864	-20.474334	0.000446	4.459871	1.511045	-0.000179
1189	1.1821e+02	-7.3329	-20.619671	0.000365	3.648986	1.236310	-0.000146
1190	1.1831e+02	-7.3634	-20.728673	0.000274	2.736739	0.927232	-0.000110
1191	1.1841e+02	-7.4051	-20.926493	0.000497	4.966675	1.682755	-0.000199
1192	1.1850e+02	-7.4485	-21.071830	0.000365	3.648986	1.236310	-0.000146
1193	1.1860e+02	-7.4918	-21.229278	0.000395	3.953068	1.339336	-0.000158
1194	1.1870e+02	-7.5287	-21.366541	0.000345	3.446264	1.167626	-0.000138
1195	1.1880e+02	-7.5672	-21.511878	0.000365	3.648986	1.236310	-0.000146
1196	1.1890e+02	-7.6041	-21.685475	0.000436	4.358511	1.476703	-0.000174
1197	1.1900e+02	-7.6506	-21.826774	0.000355	3.547625	1.201968	-0.000142
1198	1.1910e+02	-7.6907	-22.020557	0.000487	4.865314	1.648413	-0.000195
1199	1.1920e+02	-7.7276	-22.097262	0.000193	1.925854	0.652497	-0.000077
1200	1.1930e+02	-7.7565	-22.246636	0.000375	3.750346	1.270652	-0.000150
1201	1.1940e+02	-7.8110	-22.428308	0.000456	4.561232	1.545387	-0.000183
1202	1.1950e+02	-7.8463	-22.569607	0.000355	3.547625	1.201968	-0.000142
1203	1.1960e+02	-7.8816	-22.706870	0.000345	3.446264	1.167626	-0.000138
1204	1.1970e+02	-7.9217	-22.852207	0.000365	3.648986	1.236310	-0.000146
1205	1.1980e+02	-7.9682	-22.993507	0.000355	3.547625	1.201968	-0.000142
1206	1.1990e+02	-8.0147	-23.199401	0.000517	5.169396	1.751439	-0.000207
1207	1.2000e+02	-8.0532	-23.320515	0.000304	3.040821	1.030258	-0.000122
1208	1.2010e+02	-8.0853	-23.486037	0.000416	4.155789	1.408020	-0.000166
1209	1.2020e+02	-8.1303	-23.627337	0.000355	3.547625	1.201968	-0.000142
1210	1.2030e+02	-8.1623	-23.760562	0.000334	3.344904	1.133284	-0.000134
1211	1.2039e+02	-8.2169	-23.885714	0.000314	3.142182	1.064600	-0.000126
1212	1.2049e+02	-8.2490	-24.067385	0.000456	4.561232	1.545387	-0.000183
1213	1.2059e+02	-8.2859	-24.192536	0.000314	3.142182	1.064600	-0.000126
1214	1.2069e+02	-8.3228	-24.321724	0.000324	3.243543	1.098942	-0.000130
1215	1.2079e+02	-8.3661	-24.503395	0.000456	4.561232	1.545387	-0.000183
1216	1.2089e+02	-8.4030	-24.648732	0.000365	3.648986	1.236310	-0.000146
1217	1.2099e+02	-8.4495	-24.769846	0.000304	3.040821	1.030258	-0.000122
1218	1.2109e+02	-8.4944	-24.927295	0.000395	3.953068	1.339336	-0.000158
1219	1.2119e+02	-8.5313	-25.100891	0.000436	4.358511	1.476703	-0.000174
1220	1.2129e+02	-8.5602	-25.165486	0.000162	1.621771	0.549471	-0.000065
1221	1.2139e+02	-8.6051	-25.355231	0.000476	4.763954	1.614071	-0.000191
1222	1.2149e+02	-8.6436	-25.480382	0.000314	3.142182	1.064600	-0.000126
1223	1.2159e+02	-8.6901	-25.649942	0.000426	4.257150	1.442361	-0.000170
1224	1.2169e+02	-8.7270	-25.795279	0.000365	3.648986	1.236310	-0.000146
1225	1.2179e+02	-8.7591	-25.932541	0.000345	3.446264	1.167626	-0.000138
1226	1.2189e+02	-8.7976	-26.069804	0.000345	3.446264	1.167626	-0.000138
1227	1.2199e+02	-8.8425	-26.178807	0.000274	2.736739	0.927232	-0.000110
1228	1.2209e+02	-8.8907	-26.360478	0.000456	4.561232	1.545387	-0.000183
1229	1.2219e+02	-8.9195	-26.493703	0.000334	3.344904	1.133284	-0.000134
1230	1.2229e+02	-8.9677	-26.651152	0.000395	3.953068	1.339336	-0.000158
1231	1.2239e+02	-9.0030	-26.772266	0.000304	3.040821	1.030258	-0.000122
1232	1.2248e+02	-9.0463	-26.978160	0.000517	5.169396	1.751439	-0.000207
1233	1.2258e+02	-9.0832	-27.107348	0.000324	3.243543	1.098942	-0.000130
1234	1.2268e+02	-9.1265	-27.192128	0.000213	2.128575	0.721181	-0.000085
1235	1.2278e+02	-9.1586	-27.349576	0.000395	3.953068	1.339336	-0.000158
1236	1.2288e+02	-9.2067	-27.519136	0.000426	4.257150	1.442361	-0.000170
1237	1.2298e+02	-9.2436	-27.656398	0.000345	3.446264	1.167626	-0.000138
1238	1.2308e+02	-9.2869	-27.805772	0.000375	3.750346	1.270652	-0.000150
1239	1.2318e+02	-9.3142	-27.922849	0.000294	2.939461	0.995916	-0.000118
1240	1.2328e+02	-9.3687	-28.076260	0.000385	3.851707	1.304994	-0.000154
1241	1.2338e+02	-9.3976	-28.229672	0.000385	3.851707	1.304994	-0.000154
1242	1.2348e+02	-9.4361	-28.342711	0.000284	2.838100	0.961574	-0.000114
1243	1.2358e+02	-9.4762	-28.479974	0.000345	3.446264	1.167626	-0.000138
1244	1.2368e+02	-9.5179	-28.625311	0.000365	3.648986	1.236310	-0.000146
1245	1.2378e+02	-9.5612	-28.774685	0.000375	3.750346	1.270652	-0.000150
1246	1.2388e+02	-9.6045	-28.936170	0.000405	4.054429	1.373678	-0.000162
1247	1.2398e+02	-9.6414	-29.065359	0.000324	3.243543	1.098942	-0.000130
1248	1.2408e+02	-9.6703	-29.190510	0.000314	3.142182	1.064600	-0.000126
1249	1.2418e+02	-9.7136	-29.364107	0.000436	4.358511	1.476703	-0.000174
1250	1.2428e+02	-9.7537	-29.497332	0.000334	3.344904	1.133284	-0.000134
1251	1.2438e+02	-9.7954	-29.642669	0.000365	3.648986	1.236310	-0.000146
1252	1.2447e+02	-9.8420	-29.779932	0.000345	3.446264	1.167626	-0.000138
1253	1.2457e+02	-9.8773	-29.888934	0.000274	2.736739	0.927232	-0.000110
1254	1.2467e+02	-9.9286	-30.026197	0.000345	3.446264	1.167626	-0.000138
1255	1.2477e+02	-9.9591	-30.143274	0.000294	2.939461	0.995916	-0.000118
1256	1.2487e+02	-9.9944	-30.333019	0.000476	4.763954	1.614071	-0.000191
1257	1.2497e+02	-10.0409	-30.433948	0.000253	2.534018	0.858548	-0.000101
1258	1.2507e+02	-10.0778	-30.579285	0.000365	3.648986	1.236310	-0.000146
1259	1.2517e+02	-10.1163	-30.744807	0.000416	4.155789	1.408020	-0.000166
1260	1.2527e+02	-10.1548	-30.865921	0.000304	3.040821	1.030258	-0.000122
1261	1.2537e+02	-10.1933	-30.982998	0.000294	2.939461	0.995916	-0.000118
1262	1.2547e+02	-10.2350	-31.116224	0.000334	3.344904	1.133284	-0.000134
1263	1.2557e+02	-10.2751	-31.273672	0.000395	3.953068	1.339336	-0.000158
1264	1.2567e+02	-10.3200	-31.390749	0.000294	2.939461	0.995916	-0.000118
1265	1.2577e+02	-10.3569	-31.548197	0.000395	3.953068	1.339336	-0.000158
1266	1.2587e+02	-10.3890	-31.689497	0.000355	3.547625	1.201968	-0.000142
1267	1.2597e+02	-10.4323	-31.810611	0.000304	3.040821	1.030258	-0.000122
1268	1.2607e+02	-10.4772	-31.988245	0.000446	4.459871	1.511045	-0.000179
1269	1.2617e+02	-10.5109	-32.085136	0.000243	2.432657	0.824207	-0.000097
1270	1.2627e+02	-10.5575	-32.250659	0.000416	4.155789	1.408020	-0.000166
1271	1.2636e+02	-10.6008	-32.371773	0.000304	3.040821	1.030258	-0.000122
1272	1.2646e+02	-10.6345	-32.492887	0.000304	3.040821	1.030258	-0.000122
1273	1.2656e+02	-10.6762	-32.658410	0.000416	4.155789	1.408020	-0.000166
1274	1.2666e+02	-10.7147	-32.739152	0.000203	2.027214	0.686839	-0.000081
1275	1.2676e+02	-10.7596	-32.916786	0.000446	4.459871	1.511045	-0.000179
1276	1.2686e+02	-10.7981	-33.058086	0.000355	3.547625	1.201968	-0.000142
1277	1.2696e+02	-10.8350	-33.183237	0.000314	3.142182	1.064600	-0.000126
1278	1.2706e+02	-10.8767	-33.324537	0.000355	3.547625	1.201968	-0.000142
1279	1.2716e+02	-10.9200	-33.465837	0.000355	3.547625	1.201968	-0.000142
1280	1.2726e+02	-10.9585	-33.558691	0.000233	2.331296	0.789865	-0.000093
1281	1.2736e+02	-11.0066	-33.728251	0.000426	4.257150	1.442361	-0.000170
1282	1.2746e+02	-11.0291	-33.897810	0.000426	4.257150	1.442361	-0.000170
1283	1.2756e+02	-11.0660	-34.031036	0.000334	3.344904	1.133284	-0.000134
1284	1.2766e+02	-11.1157	-34.131964	0.000253	2.534018	0.858548	-0.000101
1285	1.2776e+02	-11.1526	-34.257115	0.000314	3.142182	1.064600	-0.000126
1286	1.2786e+02	-11.1943	-34.370155	0.000284	2.838100	0.961574	-0.000114
1287	1.2796e+02	-11.2280	-34.551826	0.000456	4.561232	1.545387	-0.000183
1288	1.2806e+02	-11.2745	-34.656792	0.000264	2.635379	0.892890	-0.000105
1289	1.2816e+02	-11.3114	-34.810203	0.000385	3.851707	1.304994	-0.000154
1290	1.2826e+02	-11.3628	-34.935354	0.000314	3.142182	1.064600	-0.000126
1291	1.2835e+02	-11.3852	-35.068580	0.000334	3.344904	1.133284	-0.000134
1292	1.2845e+02	-11.4382	-35.205842	0.000345	3.446264	1.167626	-0.000138
1293	1.2855e+02	-11.4767	-35.335031	0.000324	3.243543	1.098942	-0.000130
1294	1.2865e+02	-11.5088	-35.476330	0.000355	3.547625	1.201968	-0.000142
1295	1.2875e+02	-11.5521	-35.565147	0.000223	2.229936	0.755523	-0.000089
1296	1.2885e+02	-11.5906	-35.710484	0.000365	3.648986	1.236310	-0.000146
1297	1.2895e+02	-11.6275	-35.863895	0.000385	3.851707	1.304994	-0.000154
1298	1.2905e+02	-11.6644	-35.968861	0.000264	2.635379	0.892890	-0.000105
1299	1.2915e+02	-11.7141	-36.130346	0.000405	4.054429	1.373678	-0.000162
1300	1.2925e+02	-11.7494	-36.283757	0.000385	3.851707	1.304994	-0.000154
1301	1.2935e+02	-11.7847	-36.400834	0.000294	2.939461	0.995916	-0.000118
1302	1.2945e+02	-11.8312	-36.534060	0.000334	3.344904	1.133284	-0.000134
1303	1.2955e+02	-11.8761	-36.634988	0.000253	2.534018	0.858548	-0.000101
1304	1.2965e+02	-11.9050	-36.820696	0.000466	4.662593	1.579729	-0.000187
1305	1.2975e+02	-11.9451	-36.921625	0.000253	2.534018	0.858548	-0.000101
1306	1.2985e+02	-11.9981	-37.050813	0.000324	3.243543	1.098942	-0.000130
1307	1.2995e+02	-12.0317	-37.175964	0.000314	3.142182	1.064600	-0.000126
1308	1.3005e+02	-12.0735	-37.381858	0.000517	5.169396	1.751439	-0.000207
1309	1.3015e+02	-12.1071	-37.422230	0.000101	1.013607	0.343419	-0.000041
1310	1.3025e+02	-12.1585	-37.551418	0.000324	3.243543	1.098942	-0.000130
1311	1.3034e+02	-12.1890	-37.680606	0.000324	3.243543	1.098942	-0.000130
1312	1.3044e+02	-12.2339	-37.878426	0.000497	4.966675	1.682755	-0.000199
1313	1.3054e+02	-12.2547	-38.031837	0.000385	3.851707	1.304994	-0.000154
1314	1.3064e+02	-12.3141	-38.120654	0.000223	2.229936	0.755523	-0.000089
1315	1.3074e+02	-12.3494	-38.257917	0.000345	3.446264	1.167626	-0.000138
1316	1.3084e+02	-12.3847	-38.395179	0.000345	3.446264	1.167626	-0.000138
1317	1.3094e+02	-12.4248	-38.540516	0.000365	3.648986	1.236310	-0.000146
1318	1.3104e+02	-12.4713	-38.657593	0.000294	2.939461	0.995916	-0.000118
1319	1.3114e+02	-12.5114	-38.811004	0.000385	3.851707	1.304994	-0.000154
1320	1.3124e+02	-12.5531	-38.928081	0.000294	2.939461	0.995916	-0.000118
1321	1.3134e+02	-12.5852	-39.077455	0.000375	3.750346	1.270652	-0.000150
1322	1.3144e+02	-12.6205	-39.186458	0.000274	2.736739	0.927232	-0.000110
1323	1.3154e+02	-12.6686	-39.360055	0.000436	4.358511	1.476703	-0.000174
1324	1.3164e+02	-12.7103	-39.485206	0.000314	3.142182	1.064600	-0.000126
1325	1.3174e+02	-12.7520	-39.590172	0.000264	2.635379	0.892890	-0.000105
1326	1.3184e+02	-12.7793	-39.759731	0.000426	4.257150	1.442361	-0.000170
1327	1.3194e+02	-12.8194	-39.852585	0.000233	2.331296	0.789865	-0.000093
1328	1.3204e+02	-12.8708	-39.997922	0.000365	3.648986	1.236310	-0.000146
1329	1.3214e+02	-12.9125	-40.143259	0.000365	3.648986	1.236310	-0.000146
1330	1.3224e+02	-12.9381	-40.276485	0.000334	3.344904	1.133284	-0.000134
1331	1.3234e+02	-12.9847	-40.401636	0.000314	3.142182	1.064600	-0.000126
1332	1.3243e+02	-13.0232	-40.559084	0.000395	3.953068	1.339336	-0.000158
1333	1.3253e+02	-13.0729	-40.631753	0.000182	1.824493	0.618155	-0.000073
1334	1.3263e+02	-13.0986	-40.821498	0.000476	4.763954	1.614071	-0.000191
1335	1.3273e+02	-13.1355	-40.958761	0.000345	3.446264	1.167626	-0.000138
1336	1.3283e+02	-13.1804	-41.128320	0.000426	4.257150	1.442361	-0.000170
1337	1.3293e+02	-13.2317	-41.257509	0.000324	3.243543	1.098942	-0.000130
1338	1.3303e+02	-13.2622	-41.346326	0.000223	2.229936	0.755523	-0.000089
1339	1.3313e+02	-13.3039	-41.495700	0.000375	3.750346	1.270652	-0.000150
1340	1.3323e+02	-13.3392	-41.641037	0.000365	3.648986	1.236310	-0.000146
1341	1.3333e+02	-13.3857	-41.838856	0.000497	4.966675	1.682755	-0.000199
1342	1.3343e+02	-13.4338	-41.976119	0.000345	3.446264	1.167626	-0.000138
1343	1.3353e+02	-13.4707	-42.068973	0.000233	2.331296	0.789865	-0.000093
1344	1.3363e+02	-13.5028	-42.206236	0.000345	3.446264	1.167626	-0.000138
1345	1.3373e+02	-13.5349	-42.379832	0.000436	4.358511	1.476703	-0.000174
1346	1.3383e+02	-13.5830	-42.521132	0.000355	3.547625	1.201968	-0.000142
1347	1.3393e+02	-13.6296	-42.634172	0.000284	2.838100	0.961574	-0.000114
1348	1.3403e+02	-13.6568	-42.795657	0.000405	4.054429	1.373678	-0.000162
1349	1.3413e+02	-13.7066	-42.924846	0.000324	3.243543	1.098942	-0.000130
1350	1.3423e+02	-13.7435	-43.049997	0.000314	3.142182	1.064600	-0.000126
1351	1.3432e+02	-13.7772	-43.251854	0.000507	5.068036	1.717097	-0.000203
1352	1.3442e+02	-13.8157	-43.356819	0.000264	2.635379	0.892890	-0.000105
1353	1.3452e+02	-13.8622	-43.481970	0.000314	3.142182	1.064600	-0.000126
1354	1.3462e+02	-13.9007	-43.659604	0.000446	4.459871	1.511045	-0.000179
1355	1.3472e+02	-13.9488	-43.784756	0.000314	3.142182	1.064600	-0.000126
1356	1.3482e+02	-13.9809	-43.942204	0.000395	3.953068	1.339336	-0.000158
1357	1.3492e+02	-14.0226	-44.115801	0.000436	4.358511	1.476703	-0.000174
1358	1.3502e+02	-14.0547	-44.232878	0.000294	2.939461	0.995916	-0.000118
1359	1.3512e+02	-14.1012	-44.374177	0.000355	3.547625	1.201968	-0.000142
1360	1.3522e+02	-14.1445	-44.543737	0.000426	4.257150	1.442361	-0.000170
1361	1.3532e+02	-14.1734	-44.689074	0.000365	3.648986	1.236310	-0.000146
1362	1.3542e+02	-14.2167	-44.818262	0.000324	3.243543	1.098942	-0.000130
1363	1.3552e+02	-14.2680	-44.931302	0.000284	2.838100	0.961574	-0.000114
1364	1.3562e+02	-14.3033	-45.125085	0.000487	4.865314	1.648413	-0.000195
1365	1.3572e+02	-14.3354	-45.258310	0.000334	3.344904	1.133284	-0.000134
1366	1.3582e+02	-14.3739	-45.423833	0.000416	4.155789	1.408020	-0.000166
1367	1.3592e+02	-14.4188	-45.565133	0.000355	3.547625	1.201968	-0.000142
1368	1.3602e+02	-14.4638	-45.718544	0.000385	3.851707	1.304994	-0.000154
1369	1.3612e+02	-14.5007	-45.851769	0.000334	3.344904	1.133284	-0.000134
1370	1.3622e+02	-14.5343	-46.029403	0.000446	4.459871	1.511045	-0.000179
1371	1.3631e+02	-14.5809	-46.170703	0.000355	3.547625	1.201968	-0.000142
1372	1.3641e+02	-14.6146	-46.328151	0.000395	3.953068	1.339336	-0.000158
1373	1.3651e+02	-14.6563	-46.505785	0.000446	4.459871	1.511045	-0.000179
1374	1.3661e+02	-14.6980	-46.630936	0.000314	3.142182	1.064600	-0.000126
1375	1.3671e+02	-14.7349	-46.800496	0.000426	4.257150	1.442361	-0.000170
1376	1.3681e+02	-14.7830	-46.897387	0.000243	2.432657	0.824207	-0.000097
1377	1.3691e+02	-14.8119	-47.070984	0.000436	4.358511	1.476703	-0.000174
1378	1.3701e+02	-14.8632	-47.248618	0.000446	4.459871	1.511045	-0.000179
1379	1.3711e+02	-14.8953	-47.393955	0.000365	3.648986	1.236310	-0.000146
1380	1.3721e+02	-14.9418	-47.523143	0.000324	3.243543	1.098942	-0.000130
1381	1.3731e+02	-14.9787	-47.692703	0.000426	4.257150	1.442361	-0.000170
1382	1.3741e+02	-15.0236	-47.874374	0.000456	4.561232	1.545387	-0.000183
1383	1.3751e+02	-15.0654	-48.039897	0.000416	4.155789	1.408020	-0.000166
1384	1.3761e+02	-15.0958	-48.177159	0.000345	3.446264	1.167626	-0.000138
1385	1.3771e+02	-15.1359	-48.322496	0.000365	3.648986	1.236310	-0.000146
1386	1.3781e+02	-15.1809	-48.504167	0.000456	4.561232	1.545387	-0.000183
1387	1.3791e+02	-15.2161	-48.669690	0.000416	4.155789	1.408020	-0.000166
1388	1.3801e+02	-15.2530	-48.810990	0.000355	3.547625	1.201968	-0.000142
1389	1.3811e+02	-15.2980	-48.988624	0.000446	4.459871	1.511045	-0.000179
1390	1.3821e+02	-15.3333	-49.117812	0.000324	3.243543	1.098942	-0.000130
1391	1.3831e+02	-15.3750	-49.331780	0.000537	5.372118	1.820123	-0.000215
1392	1.3840e+02	-15.4183	-49.501340	0.000426	4.257150	1.442361	-0.000170
1393	1.3850e+02	-15.4584	-49.646677	0.000365	3.648986	1.236310	-0.000146
1394	1.3860e+02	-15.4985	-49.816236	0.000426	4.257150	1.442361	-0.000170
1395	1.3870e+02	-15.5418	-49.981759	0.000416	4.155789	1.408020	-0.000166
1396	1.3880e+02	-15.5723	-50.119022	0.000345	3.446264	1.167626	-0.000138
1397	1.3890e+02	-15.6044	-50.252247	0.000334	3.344904	1.133284	-0.000134
1398	1.3900e+02	-15.6413	-50.482364	0.000578	5.777561	1.957491	-0.000231
1399	1.3910e+02	-15.6910	-50.664035	0.000456	4.561232	1.545387	-0.000183
1400	1.3920e+02	-15.7343	-50.769000	0.000264	2.635379	0.892890	-0.000105
1401	1.3930e+02	-15.7808	-50.930486	0.000405	4.054429	1.373678	-0.000162
1402	1.3940e+02	-15.8306	-51.168677	0.000598	5.980282	2.026174	-0.000239
1403	1.3950e+02	-15.8594	-51.338237	0.000426	4.257150	1.442361	-0.000170
1404	1.3960e+02	-15.8931	-51.499722	0.000405	4.054429	1.373678	-0.000162
1405	1.3970e+02	-15.9445	-51.673319	0.000436	4.358511	1.476703	-0.000174
1406	1.3980e+02	-15.9685	-51.810581	0.000345	3.446264	1.167626	-0.000138
1407	1.3990e+02	-16.0022	-52.036661	0.000568	5.676200	1.923149	-0.000227
1408	1.4000e+02	-16.0616	-52.145664	0.000274	2.736739	0.927232	-0.000110
1409	1.4010e+02	-16.0937	-52.331372	0.000466	4.662593	1.579729	-0.000187
1410	1.4020e+02	-16.1290	-52.525155	0.000487	4.865314	1.648413	-0.000195
1411	1.4029e+02	-16.1819	-52.702788	0.000446	4.459871	1.511045	-0.000179
1412	1.4039e+02	-16.2108	-52.872348	0.000426	4.257150	1.442361	-0.000170
1413	1.4049e+02	-16.2589	-53.049982	0.000446	4.459871	1.511045	-0.000179
1414	1.4059e+02	-16.2942	-53.235690	0.000466	4.662593	1.579729	-0.000187
1415	1.4069e+02	-16.3327	-53.393139	0.000395	3.953068	1.339336	-0.000158
1416	1.4079e+02	-16.3744	-53.603070	0.000527	5.270757	1.785781	-0.000211
1417	1.4089e+02	-16.4081	-53.788778	0.000466	4.662593	1.579729	-0.000187
1418	1.4099e+02	-16.4482	-53.970449	0.000456	4.561232	1.545387	-0.000183
1419	1.4109e+02	-16.4931	-54.144046	0.000436	4.358511	1.476703	-0.000174
1420	1.4119e+02	-16.5332	-54.309569	0.000416	4.155789	1.408020	-0.000166
1421	1.4129e+02	-16.5717	-54.511425	0.000507	5.068036	1.717097	-0.000203
1422	1.4139e+02	-16.6150	-54.672911	0.000405	4.054429	1.373678	-0.000162
1423	1.4149e+02	-16.6439	-54.870730	0.000497	4.966675	1.682755	-0.000199
1424	1.4159e+02	-16.6824	-55.028179	0.000395	3.953068	1.339336	-0.000158
1425	1.4169e+02	-16.7402	-55.230035	0.000507	5.068036	1.717097	-0.000203
1426	1.4179e+02	-16.7723	-55.399595	0.000426	4.257150	1.442361	-0.000170
1427	1.4189e+02	-16.8108	-55.637786	0.000598	5.980282	2.026174	-0.000239
1428	1.4199e+02	-16.8460	-55.803309	0.000416	4.155789	1.408020	-0.000166
1429	1.4209e+02	-16.8926	-55.997091	0.000487	4.865314	1.648413	-0.000195
1430	1.4219e+02	-16.9263	-56.186837	0.000476	4.763954	1.614071	-0.000191
1431	1.4228e+02	-16.9664	-56.404842	0.000547	5.473479	1.854465	-0.000219
1432	1.4238e+02	-17.0145	-56.578439	0.000436	4.358511	1.476703	-0.000174
1433	1.4248e+02	-17.0514	-56.764147	0.000466	4.662593	1.579729	-0.000187
1434	1.4258e+02	-17.0835	-56.982152	0.000547	5.473479	1.854465	-0.000219
1435	1.4268e+02	-17.1332	-57.179972	0.000497	4.966675	1.682755	-0.000199
1436	1.4278e+02	-17.1813	-57.373755	0.000487	4.865314	1.648413	-0.000195
1437	1.4288e+02	-17.2118	-57.575611	0.000507	5.068036	1.717097	-0.000203
1438	1.4298e+02	-17.2471	-57.757282	0.000456	4.561232	1.545387	-0.000183
1439	1.4308e+02	-17.2856	-57.959139	0.000507	5.068036	1.717097	-0.000203
1440	1.4318e+02	-17.3305	-58.177145	0.000547	5.473479	1.854465	-0.000219
1441	1.4328e+02	-17.3610	-58.374964	0.000497	4.966675	1.682755	-0.000199
1442	1.4338e+02	-17.4091	-58.597007	0.000557	5.574839	1.888807	-0.000223
1443	1.4348e+02	-17.4444	-58.742344	0.000365	3.648986	1.236310	-0.000146
1444	1.4358e+02	-17.4942	-58.968423	0.000568	5.676200	1.923149	-0.000227
1445	1.4368e+02	-17.5278	-59.206614	0.000598	5.980282	2.026174	-0.000239
1446	1.4378e+02	-17.5696	-59.412508	0.000517	5.169396	1.751439	-0.000207
1447	1.4388e+02	-17.6032	-59.658773	0.000618	6.183004	2.094858	-0.000248
1448	1.4398e+02	-17.6385	-59.856593	0.000497	4.966675	1.682755	-0.000199
1449	1.4408e+02	-17.6979	-60.034227	0.000446	4.459871	1.511045	-0.000179
1450	1.4418e+02	-17.7171	-60.260307	0.000568	5.676200	1.923149	-0.000227
1451	1.4428e+02	-17.7621	-60.502535	0.000608	6.081643	2.060516	-0.000243
1452	1.4437e+02	-17.8118	-60.672094	0.000426	4.257150	1.442361	-0.000170
1453	1.4447e+02	-17.8567	-60.894137	0.000557	5.574839	1.888807	-0.000223
1454	1.4457e+02	-17.8840	-61.172699	0.000699	6.993889	2.369594	-0.000280
1455	1.4467e+02	-17.9193	-61.394742	0.000557	5.574839	1.888807	-0.000223
1456	1.4477e+02	-17.9690	-61.552190	0.000395	3.953068	1.339336	-0.000158
1457	1.4487e+02	-18.0075	-61.774232	0.000557	5.574839	1.888807	-0.000223
1458	1.4497e+02	-18.0476	-62.020498	0.000618	6.183004	2.094858	-0.000248
1459	1.4507e+02	-18.0861	-62.238503	0.000547	5.473479	1.854465	-0.000219
1460	1.4517e+02	-18.1342	-62.484768	0.000618	6.183004	2.094858	-0.000248
1461	1.4527e+02	-18.1647	-62.731034	0.000618	6.183004	2.094858	-0.000248
1462	1.4537e+02	-18.2129	-62.949039	0.000547	5.473479	1.854465	-0.000219
1463	1.4547e+02	-18.2417	-63.183193	0.000588	5.878921	1.991833	-0.000235
1464	1.4557e+02	-18.2818	-63.433495	0.000628	6.284364	2.129200	-0.000252
1465	1.4567e+02	-18.3187	-63.671686	0.000598	5.980282	2.026174	-0.000239
1466	1.4577e+02	-18.3572	-63.881617	0.000527	5.270757	1.785781	-0.000211
1467	1.4587e+02	-18.4070	-64.131920	0.000628	6.284364	2.129200	-0.000252
1468	1.4597e+02	-18.4374	-64.374148	0.000608	6.081643	2.060516	-0.000243
1469	1.4607e+02	-18.4920	-64.608302	0.000588	5.878921	1.991833	-0.000235
1470	1.4617e+02	-18.5273	-64.878790	0.000679	6.791168	2.300910	-0.000272
1471	1.4626e+02	-18.5690	-65.076610	0.000497	4.966675	1.682755	-0.000199
1472	1.4636e+02	-18.6043	-65.330949	0.000639	6.385725	2.163542	-0.000256
1473	1.4646e+02	-18.6508	-65.617586	0.000720	7.196611	2.438278	-0.000288
1474	1.4656e+02	-18.6845	-65.819443	0.000507	5.068036	1.717097	-0.000203
1475	1.4666e+02	-18.7246	-66.093968	0.000689	6.892529	2.335252	-0.000276
1476	1.4676e+02	-18.7599	-66.340233	0.000618	6.183004	2.094858	-0.000248
1477	1.4686e+02	-18.8064	-66.590535	0.000628	6.284364	2.129200	-0.000252
1478	1.4696e+02	-18.8529	-66.844875	0.000639	6.385725	2.163542	-0.000256
1479	1.4706e+02	-18.8802	-67.083066	0.000598	5.980282	2.026174	-0.000239
1480	1.4716e+02	-18.9219	-67.373740	0.000730	7.297971	2.472620	-0.000292
1481	1.4726e+02	-18.9588	-67.632116	0.000649	6.487086	2.197884	-0.000260
1482	1.4736e+02	-19.0037	-67.894530	0.000659	6.588446	2.232226	-0.000264
1483	1.4746e+02	-19.0342	-68.177130	0.000710	7.095250	2.403936	-0.000284
1484	1.4756e+02	-19.0791	-68.399172	0.000557	5.574839	1.888807	-0.000223
1485	1.4766e+02	-19.1241	-68.669660	0.000679	6.791168	2.300910	-0.000272
1486	1.4776e+02	-19.1610	-68.972446	0.000760	7.602054	2.575645	-0.000304
1487	1.4786e+02	-19.2107	-69.246971	0.000689	6.892529	2.335252	-0.000276
1488	1.4796e+02	-19.2412	-69.521496	0.000689	6.892529	2.335252	-0.000276
1489	1.4806e+02	-19.2845	-69.808133	0.000720	7.196611	2.438278	-0.000288
1490	1.4816e+02	-19.3166	-70.070546	0.000659	6.588446	2.232226	-0.000264
1491	1.4825e+02	-19.3631	-70.349109	0.000699	6.993889	2.369594	-0.000280
1492	1.4835e+02	-19.3984	-70.611523	0.000659	6.588446	2.232226	-0.000264
1493	1.4845e+02	-19.4401	-70.906234	0.000740	7.399332	2.506962	-0.000296
1494	1.4855e+02	-19.4802	-71.156536	0.000628	6.284364	2.129200	-0.000252
1495	1.4865e+02	-19.5347	-71.479507	0.000811	8.108857	2.747355	-0.000325
1496	1.4875e+02	-19.5556	-71.786329	0.000770	7.703414	2.609987	-0.000308
1497	1.4885e+02	-19.5989	-72.072966	0.000720	7.196611	2.438278	-0.000288
1498	1.4895e+02	-19.6310	-72.359602	0.000720	7.196611	2.438278	-0.000288
1499	1.4905e+02	-19.6695	-72.674499	0.000791	7.906136	2.678671	-0.000316
1500	1.4915e+02	-19.7128	-72.936913	0.000659	6.588446	2.232226	-0.000264
1501	1.4925e+02	-19.7609	-73.267958	0.000831	8.311579	2.816039	-0.000333
1502	1.4935e+02	-19.7994	-73.542483	0.000689	6.892529	2.335252	-0.000276
1503	1.4945e+02	-19.8379	-73.853343	0.000780	7.804775	2.644329	-0.000312
1504	1.4955e+02	-19.8668	-74.164202	0.000780	7.804775	2.644329	-0.000312
1505	1.4965e+02	-19.9214	-74.495247	0.000831	8.311579	2.816039	-0.000333
1506	1.4975e+02	-19.9486	-74.781884	0.000720	7.196611	2.438278	-0.000288
1507	1.4985e+02	-19.9968	-75.104855	0.000811	8.108857	2.747355	-0.000325
1508	1.4995e+02	-19.9551	-75.225969	-0.000304	-3.040821	-1.030258	-0.000122
1509	1.5005e+02	-19.9198	-75.375343	-0.000375	-3.750346	-1.270652	-0.000150
1510	1.5015e+02	-19.8684	-75.415714	-0.000101	-1.013607	-0.343419	-0.000041
1511	1.5025e+02	-19.8412	-75.496457	-0.000203	-2.027214	-0.686839	-0.000081
1512	1.5034e+02	-19.8075	-75.589311	-0.000233	-2.331296	-0.789865	-0.000093
1513	1.5044e+02	-19.7593	-75.633719	-0.000111	-1.114968	-0.377761	-0.000045
1514	1.5054e+02	-19.7144	-75.726574	-0.000233	-2.331296	-0.789865	-0.000093
1515	1.5064e+02	-19.6807	-75.787131	-0.000152	-1.520411	-0.515129	-0.000061
1516	1.5074e+02	-19.6374	-75.839613	-0.000132	-1.317689	-0.446445	-0.000053
1517	1.5084e+02	-19.6037	-75.875948	-0.000091	-0.912246	-0.309077	-0.000037
1518	1.5094e+02	-19.5556	-75.904208	-0.000071	-0.709525	-0.240394	-0.000028
1519	1.5104e+02	-19.5251	-75.900170	0.000010	0.101361	0.034342	0.000004
1520	1.5114e+02	-19.4690	-75.948616	-0.000122	-1.216329	-0.412103	-0.000049
1521	1.5124e+02	-19.4449	-75.956690	-0.000020	-0.202721	-0.068684	-0.000008
1522	1.5134e+02	-19.3968	-75.980913	-0.000061	-0.608164	-0.206052	-0.000024
1523	1.5144e+02	-19.3615	-75.984950	-0.000010	-0.101361	-0.034342	-0.000004
1524	1.5154e+02	-19.3246	-75.980913	0.000010	0.101361	0.034342	0.000004
1525	1.5164e+02	-19.2733	-75.980913	0.000000	0.000000	0.000000	0.000000
1526	1.5174e+02	-19.2412	-76.025322	-0.000111	-1.114968	-0.377761	-0.000045
1527	1.5184e+02	-19.2043	-75.997062	0.000071	0.709525	0.240394	0.000028
1528	1.5194e+02	-19.1610	-75.972839	0.000061	0.608164	0.206052	0.000024
1529	1.5204e+02	-19.1241	-75.940542	0.000081	0.810886	0.274736	0.000032
1530	1.5214e+02	-19.0840	-75.912282	0.000071	0.709525	0.240394	0.000028
1531	1.5224e+02	-19.0438	-75.904208	0.000020	0.202721	0.068684	0.000008
1532	1.5233e+02	-19.0037	-75.859799	0.000111	1.114968	0.377761	0.000045
1533	1.5243e+02	-18.9588	-75.888059	-0.000071	-0.709525	-0.240394	-0.000028
1534	1.5253e+02	-18.9219	-75.827502	0.000152	1.520411	0.515129	0.000061
1535	1.5263e+02	-18.8850	-75.811353	0.000041	0.405443	0.137368	0.000016
1536	1.5273e+02	-18.8401	-75.770982	0.000101	1.013607	0.343419	0.000041
1537	1.5283e+02	-18.8000	-75.750796	0.000051	0.506804	0.171710	0.000020
1538	1.5293e+02	-18.7583	-75.714462	0.000091	0.912246	0.309077	0.000037
1539	1.5303e+02	-18.7198	-75.625645	0.000223	2.229936	0.755523	0.000089
1540	1.5313e+02	-18.6925	-75.633719	-0.000020	-0.202721	-0.068684	-0.000008
1541	1.5323e+02	-18.6396	-75.637757	-0.000010	-0.101361	-0.034342	-0.000004
1542	1.5333e+02	-18.6043	-75.557014	0.000203	2.027214	0.686839	0.000081
1543	1.5343e+02	-18.5610	-75.508568	0.000122	1.216329	0.412103	0.000049
1544	1.5353e+02	-18.5273	-75.464160	0.000111	1.114968	0.377761	0.000045
1545	1.5363e+02	-18.4759	-75.419751	0.000111	1.114968	0.377761	0.000045
1546	1.5373e+02	-18.4519	-75.347083	0.000182	1.824493	0.618155	0.000073
1547	1.5383e+02	-18.3989	-75.334971	0.000030	0.304082	0.103026	0.000012
1548	1.5393e+02	-18.3669	-75.234043	0.000253	2.534018	0.858548	0.000101
1549	1.5403e+02	-18.3235	-75.173486	0.000152	1.520411	0.515129	0.000061
1550	1.5413e+02	-18.2899	-75.137152	0.000091	0.912246	0.309077	0.000037
1551	1.5422e+02	-18.2465	-75.096780	0.000101	1.013607	0.343419	0.000041
1552	1.5432e+02	-18.2000	-75.016038	0.000203	2.027214	0.686839	0.000081
1553	1.5442e+02	-18.1727	-74.999889	0.000041	0.405443	0.137368	0.000016
1554	1.5452e+02	-18.1262	-74.943369	0.000142	1.419050	0.480787	0.000057
1555	1.5462e+02	-18.0829	-74.814181	0.000324	3.243543	1.098942	0.000130
1556	1.5472e+02	-18.0572	-74.802070	0.000030	0.304082	0.103026	0.000012
1557	1.5482e+02	-18.0043	-74.733438	0.000172	1.723132	0.583813	0.000069
1558	1.5492e+02	-17.9610	-74.693067	0.000101	1.013607	0.343419	0.000041
1559	1.5502e+02	-17.9305	-74.616361	0.000193	1.925854	0.652497	0.000077
1560	1.5512e+02	-17.8840	-74.543693	0.000182	1.824493	0.618155	0.000073
1561	1.5522e+02	-17.8439	-74.438727	0.000264	2.635379	0.892890	0.000105
1562	1.5532e+02	-17.7990	-74.398356	0.000101	1.013607	0.343419	0.000041
1563	1.5542e+02	-17.7589	-74.341836	0.000142	1.419050	0.480787	0.000057
1564	1.5552e+02	-17.7284	-74.273205	0.000172	1.723132	0.583813	0.000069
1565	1.5562e+02	-17.6835	-74.261093	0.000030	0.304082	0.103026	0.000012
1566	1.5572e+02	-17.6353	-74.123831	0.000345	3.446264	1.167626	0.000138
1567	1.5582e+02	-17.6129	-74.063274	0.000152	1.520411	0.515129	0.000061
1568	1.5592e+02	-17.5647	-73.986568	0.000193	1.925854	0.652497	0.000077
1569	1.5602e+02	-17.5391	-73.897751	0.000223	2.229936	0.755523	0.000089
1570	1.5612e+02	-17.4926	-73.829120	0.000172	1.723132	0.583813	0.000069
1571	1.5622e+02	-17.4541	-73.788748	0.000101	1.013607	0.343419	0.000041
1572	1.5631e+02	-17.4043	-73.708006	0.000203	2.027214	0.686839	0.000081
1573	1.5641e+02	-17.3642	-73.643412	0.000162	1.621771	0.549471	0.000065
1574	1.5651e+02	-17.3289	-73.530372	0.000284	2.838100	0.961574	0.000114
1575	1.5661e+02	-17.2840	-73.461740	0.000172	1.723132	0.583813	0.000069
1576	1.5671e+02	-17.2599	-73.397146	0.000162	1.621771	0.549471	0.000065
1577	1.5681e+02	-17.2102	-73.324478	0.000182	1.824493	0.618155	0.000073
1578	1.5691e+02	-17.1717	-73.255847	0.000172	1.723132	0.583813	0.000069
1579	1.5701e+02	-17.1236	-73.175104	0.000203	2.027214	0.686839	0.000081
1580	1.5711e+02	-17.0915	-73.078213	0.000243	2.432657	0.824207	0.000097
1581	1.5721e+02	-17.0546	-72.989396	0.000223	2.229936	0.755523	0.000089
1582	1.5731e+02	-17.0049	-72.920764	0.000172	1.723132	0.583813	0.000069
1583	1.5741e+02	-16.9760	-72.852133	0.000172	1.723132	0.583813	0.000069
1584	1.5751e+02	-16.9311	-72.751205	0.000253	2.534018	0.858548	0.000101
1585	1.5761e+02	-16.8878	-72.686610	0.000162	1.621771	0.549471	0.000065
1586	1.5771e+02	-16.8509	-72.642202	0.000111	1.114968	0.377761	0.000045
1587	1.5781e+02	-16.8172	-72.508976	0.000334	3.344904	1.133284	0.000134
1588	1.5791e+02	-16.7739	-72.448419	0.000152	1.520411	0.515129	0.000061
1589	1.5801e+02	-16.7370	-72.359602	0.000223	2.229936	0.755523	0.000089
1590	1.5811e+02	-16.6920	-72.290971	0.000172	1.723132	0.583813	0.000069
1591	1.5821e+02	-16.6503	-72.186006	0.000264	2.635379	0.892890	0.000105
1592	1.5830e+02	-16.6150	-72.097189	0.000223	2.229936	0.755523	0.000089
1593	1.5840e+02	-16.5701	-71.988186	0.000274	2.736739	0.927232	0.000110
1594	1.5850e+02	-16.5332	-71.927629	0.000152	1.520411	0.515129	0.000061
1595	1.5860e+02	-16.4915	-71.883220	0.000111	1.114968	0.377761	0.000045
1596	1.5870e+02	-16.4450	-71.806515	0.000193	1.925854	0.652497	0.000077
1597	1.5880e+02	-16.4129	-71.689438	0.000294	2.939461	0.995916	0.000118
1598	1.5890e+02	-16.3728	-71.604658	0.000213	2.128575	0.721181	0.000085
1599	1.5900e+02	-16.3343	-71.519878	0.000213	2.128575	0.721181	0.000085
1600	1.5910e+02	-16.3022	-71.431061	0.000223	2.229936	0.755523	0.000089
1601	1.5920e+02	-16.2525	-71.305910	0.000314	3.142182	1.064600	0.000126
1602	1.5930e+02	-16.2140	-71.253427	0.000132	1.317689	0.446445	0.000053
1603	1.5940e+02	-16.1787	-71.112127	0.000355	3.547625	1.201968	0.000142
1604	1.5950e+02	-16.1338	-71.071756	0.000101	1.013607	0.343419	0.000041
1605	1.5960e+02	-16.1017	-70.962753	0.000274	2.736739	0.927232	0.000110
1606	1.5970e+02	-16.0552	-70.898159	0.000162	1.621771	0.549471	0.000065
1607	1.5980e+02	-16.0183	-70.805305	0.000233	2.331296	0.789865	0.000093
1608	1.5990e+02	-15.9701	-70.700340	0.000264	2.635379	0.892890	0.000105
1609	1.6000e+02	-15.9300	-70.627671	0.000182	1.824493	0.618155	0.000073
1610	1.6010e+02	-15.8883	-70.550966	0.000193	1.925854	0.652497	0.000077
1611	1.6019e+02	-15.8594	-70.474260	0.000193	1.925854	0.652497	0.000077
1612	1.6029e+02	-15.8145	-70.373332	0.000253	2.534018	0.858548	0.000101
1613	1.6039e+02	-15.7808	-70.248180	0.000314	3.142182	1.064600	0.000126
1614	1.6049e+02	-15.7391	-70.167438	0.000203	2.027214	0.686839	0.000081
1615	1.6059e+02	-15.6894	-70.098806	0.000172	1.723132	0.583813	0.000069
1616	1.6069e+02	-15.6493	-69.957507	0.000355	3.547625	1.201968	0.000142
1617	1.6079e+02	-15.6044	-69.868690	0.000223	2.229936	0.755523	0.000089
1618	1.6089e+02	-15.5707	-69.836393	0.000081	0.810886	0.274736	0.000032
1619	1.6099e+02	-15.5418	-69.711241	0.000314	3.142182	1.064600	0.000126
1620	1.6109e+02	-15.4985	-69.650684	0.000152	1.520411	0.515129	0.000061
1621	1.6119e+02	-15.4680	-69.525533	0.000314	3.142182	1.064600	0.000126
1622	1.6129e+02	-15.4103	-69.424605	0.000253	2.534018	0.858548	0.000101
1623	1.6139e+02	-15.3766	-69.351936	0.000182	1.824493	0.618155	0.000073
1624	1.6149e+02	-15.3445	-69.246971	0.000264	2.635379	0.892890	0.000105
1625	1.6159e+02	-15.2932	-69.158154	0.000223	2.229936	0.755523	0.000089
1626	1.6169e+02	-15.2530	-69.081448	0.000193	1.925854	0.652497	0.000077
1627	1.6179e+02	-15.2129	-68.952260	0.000324	3.243543	1.098942	0.000130
1628	1.6189e+02	-15.1793	-68.875554	0.000193	1.925854	0.652497	0.000077
1629	1.6199e+02	-15.1456	-68.770589	0.000264	2.635379	0.892890	0.000105
1630	1.6209e+02	-15.0878	-68.697920	0.000182	1.824493	0.618155	0.000073
1631	1.6219e+02	-15.0605	-68.629289	0.000172	1.723132	0.583813	0.000069
1632	1.6228e+02	-15.0172	-68.487989	0.000355	3.547625	1.201968	0.000142
1633	1.6238e+02	-14.9787	-68.391098	0.000243	2.432657	0.824207	0.000097
1634	1.6248e+02	-14.9402	-68.306318	0.000213	2.128575	0.721181	0.000085
1635	1.6258e+02	-14.8969	-68.189241	0.000294	2.939461	0.995916	0.000118
1636	1.6268e+02	-14.8568	-68.128684	0.000152	1.520411	0.515129	0.000061
1637	1.6278e+02	-14.8119	-68.031793	0.000243	2.432657	0.824207	0.000097
1638	1.6288e+02	-14.7782	-67.922790	0.000274	2.736739	0.927232	0.000110
1639	1.6298e+02	-14.7397	-67.858196	0.000162	1.621771	0.549471	0.000065
1640	1.6308e+02	-14.6964	-67.720933	0.000345	3.446264	1.167626	0.000138
1641	1.6318e+02	-14.6659	-67.648265	0.000182	1.824493	0.618155	0.000073
1642	1.6328e+02	-14.6178	-67.519077	0.000324	3.243543	1.098942	0.000130
1643	1.6338e+02	-14.5761	-67.434297	0.000213	2.128575	0.721181	0.000085
1644	1.6348e+02	-14.5424	-67.369703	0.000162	1.621771	0.549471	0.000065
1645	1.6358e+02	-14.4975	-67.220329	0.000375	3.750346	1.270652	0.000150
1646	1.6368e+02	-14.4557	-67.107289	0.000284	2.838100	0.961574	0.000114
1647	1.6378e+02	-14.4269	-67.050769	0.000142	1.419050	0.480787	0.000057
1648	1.6388e+02	-14.3819	-66.941766	0.000274	2.736739	0.927232	0.000110
1649	1.6398e+02	-14.3418	-66.840838	0.000253	2.534018	0.858548	0.000101
1650	1.6408e+02	-14.3049	-66.743947	0.000243	2.432657	0.824207	0.000097
1651	1.6418e+02	-14.2632	-66.675315	0.000172	1.723132	0.583813	0.000069
1652	1.6427e+02	-14.2183	-66.586498	0.000223	2.229936	0.755523	0.000089
1653	1.6437e+02	-14.1766	-66.461347	0.000314	3.142182	1.064600	0.000126
1654	1.6447e+02	-14.1429	-66.356382	0.000264	2.635379	0.892890	0.000105
1655	1.6457e+02	-14.1012	-66.231230	0.000314	3.142182	1.064600	0.000126
1656	1.6467e+02	-14.0563	-66.106079	0.000314	3.142182	1.064600	0.000126
1657	1.6477e+02	-14.0274	-66.045522	0.000152	1.520411	0.515129	0.000061
1658	1.6487e+02	-13.9793	-65.968817	0.000193	1.925854	0.652497	0.000077
1659	1.6497e+02	-13.9424	-65.863851	0.000264	2.635379	0.892890	0.000105
1660	1.6507e+02	-13.9103	-65.762923	0.000253	2.534018	0.858548	0.000101
1661	1.6517e+02	-13.8638	-65.670068	0.000233	2.331296	0.789865	0.000093
1662	1.6527e+02	-13.8189	-65.552992	0.000294	2.939461	0.995916	0.000118
1663	1.6537e+02	-13.7836	-65.435915	0.000294	2.939461	0.995916	0.000118
1664	1.6547e+02	-13.7451	-65.326912	0.000274	2.736739	0.927232	0.000110
1665	1.6557e+02	-13.7034	-65.246169	0.000203	2.027214	0.686839	0.000081
1666	1.6567e+02	-13.6633	-65.121018	0.000314	3.142182	1.064600	0.000126
1667	1.6577e+02	-13.6264	-65.048350	0.000182	1.824493	0.618155	0.000073
1668	1.6587e+02	-13.5750	-64.911087	0.000345	3.446264	1.167626	0.000138
1669	1.6597e+02	-13.5494	-64.838419	0.000182	1.824493	0.618155	0.000073
1670	1.6607e+02	-13.4980	-64.713267	0.000314	3.142182	1.064600	0.000126
1671	1.6616e+02	-13.4595	-64.652710	0.000152	1.520411	0.515129	0.000061
1672	1.6626e+02	-13.4306	-64.495262	0.000395	3.953068	1.339336	0.000158
1673	1.6636e+02	-13.3873	-64.434705	0.000152	1.520411	0.515129	0.000061
1674	1.6646e+02	-13.3488	-64.341851	0.000233	2.331296	0.789865	0.000093
1675	1.6656e+02	-13.3119	-64.240922	0.000253	2.534018	0.858548	0.000101
1676	1.6666e+02	-13.2654	-64.119808	0.000304	3.040821	1.030258	0.000122
1677	1.6676e+02	-13.2205	-64.030991	0.000223	2.229936	0.755523	0.000089
1678	1.6686e+02	-13.1884	-63.897766	0.000334	3.344904	1.133284	0.000134
1679	1.6696e+02	-13.1435	-63.808949	0.000223	2.229936	0.755523	0.000089
1680	1.6706e+02	-13.1082	-63.671686	0.000345	3.446264	1.167626	0.000138
1681	1.6716e+02	-13.0681	-63.582869	0.000223	2.229936	0.755523	0.000089
1682	1.6726e+02	-13.0232	-63.490015	0.000233	2.331296	0.789865	0.000093
1683	1.6736e+02	-12.9782	-63.393124	0.000243	2.432657	0.824207	0.000097
1684	1.6746e+02	-12.9526	-63.308344	0.000213	2.128575	0.721181	0.000085
1685	1.6756e+02	-12.9044	-63.114562	0.000487	4.865314	1.648413	0.000195
1686	1.6766e+02	-12.8692	-63.070153	0.000111	1.114968	0.377761	0.000045
1687	1.6776e+02	-12.8290	-62.940965	0.000324	3.243543	1.098942	0.000130
1688	1.6786e+02	-12.7905	-62.860222	0.000203	2.027214	0.686839	0.000081
1689	1.6796e+02	-12.7424	-62.787554	0.000182	1.824493	0.618155	0.000073
1690	1.6806e+02	-12.7071	-62.626068	0.000405	4.054429	1.373678	0.000162
1691	1.6816e+02	-12.6670	-62.525140	0.000253	2.534018	0.858548	0.000101
1692	1.6825e+02	-12.6269	-62.420174	0.000264	2.635379	0.892890	0.000105
1693	1.6835e+02	-12.5804	-62.290986	0.000324	3.243543	1.098942	0.000130
1694	1.6845e+02	-12.5467	-62.177946	0.000284	2.838100	0.961574	0.000114
1695	1.6855e+02	-12.5002	-62.093166	0.000213	2.128575	0.721181	0.000085
1696	1.6865e+02	-12.4649	-62.016461	0.000193	1.925854	0.652497	0.000077
1697	1.6875e+02	-12.4248	-61.875161	0.000355	3.547625	1.201968	0.000142
1698	1.6885e+02	-12.3879	-61.770195	0.000264	2.635379	0.892890	0.000105
1699	1.6895e+02	-12.3494	-61.693490	0.000193	1.925854	0.652497	0.000077
1700	1.6905e+02	-12.3125	-61.540079	0.000385	3.851707	1.304994	0.000154
1701	1.6915e+02	-12.2692	-61.455299	0.000213	2.128575	0.721181	0.000085
1702	1.6925e+02	-12.2323	-61.322073	0.000334	3.344904	1.133284	0.000134
1703	1.6935e+02	-12.1890	-61.265553	0.000142	1.419050	0.480787	0.000057
1704	1.6945e+02	-12.1456	-61.116179	0.000375	3.750346	1.270652	0.000150
1705	1.6955e+02	-12.1168	-61.003140	0.000284	2.838100	0.961574	0.000114
1706	1.6965e+02	-12.0654	-60.898174	0.000264	2.635379	0.892890	0.000105
1707	1.6975e+02	-12.0253	-60.785134	0.000284	2.838100	0.961574	0.000114
1708	1.6985e+02	-11.9868	-60.708429	0.000193	1.925854	0.652497	0.000077
1709	1.6995e+02	-11.9515	-60.595389	0.000284	2.838100	0.961574	0.000114
1710	1.7005e+02	-11.9114	-60.470238	0.000314	3.142182	1.064600	0.000126
1711	1.7015e+02	-11.8537	-60.365272	0.000264	2.635379	0.892890	0.000105
1712	1.7024e+02	-11.8280	-60.268381	0.000243	2.432657	0.824207	0.000097
1713	1.7034e+02	-11.7991	-60.135155	0.000334	3.344904	1.133284	0.000134
1714	1.7044e+02	-11.7494	-60.010004	0.000314	3.142182	1.064600	0.000126
1715	1.7054e+02	-11.7061	-59.905039	0.000264	2.635379	0.892890	0.000105
1716	1.7064e+02	-11.6708	-59.836407	0.000172	1.723132	0.583813	0.000069
1717	1.7074e+02	-11.6243	-59.691070	0.000365	3.648986	1.236310	0.000146
1718	1.7084e+02	-11.5874	-59.561882	0.000324	3.243543	1.098942	0.000130
1719	1.7094e+02	-11.5553	-59.473065	0.000223	2.229936	0.755523	0.000089
1720	1.7104e+02	-11.5152	-59.319654	0.000385	3.851707	1.304994	0.000154
1721	1.7114e+02	-11.4767	-59.210651	0.000274	2.736739	0.927232	0.000110
1722	1.7124e+02	-11.4398	-59.125871	0.000213	2.128575	0.721181	0.000085
1723	1.7134e+02	-11.3965	-59.000720	0.000314	3.142182	1.064600	0.000126
1724	1.7144e+02	-11.3516	-58.871532	0.000324	3.243543	1.098942	0.000130
1725	1.7154e+02	-11.3034	-58.778678	0.000233	2.331296	0.789865	0.000093
1726	1.7164e+02	-11.2681	-58.657564	0.000304	3.040821	1.030258	0.000122
1727	1.7174e+02	-11.2377	-58.592970	0.000162	1.621771	0.549471	0.000065
1728	1.7184e+02	-11.1879	-58.447633	0.000365	3.648986	1.236310	0.000146
1729	1.7194e+02	-11.1623	-58.326519	0.000304	3.040821	1.030258	0.000122
1730	1.7204e+02	-11.1141	-58.241739	0.000213	2.128575	0.721181	0.000085
1731	1.7213e+02	-11.0724	-58.100439	0.000355	3.547625	1.201968	0.000142
1732	1.7223e+02	-11.0291	-57.991436	0.000274	2.736739	0.927232	0.000110
1733	1.7233e+02	-10.9954	-57.862248	0.000324	3.243543	1.098942	0.000130
1734	1.7243e+02	-10.9505	-57.753245	0.000274	2.736739	0.927232	0.000110
1735	1.7253e+02	-10.9136	-57.628094	0.000314	3.142182	1.064600	0.000126
1736	1.7263e+02	-10.8719	-57.494869	0.000334	3.344904	1.133284	0.000134
1737	1.7273e+02	-10.8366	-57.410089	0.000213	2.128575	0.721181	0.000085
1738	1.7283e+02	-10.7869	-57.293012	0.000294	2.939461	0.995916	0.000118
1739	1.7293e+02	-10.7564	-57.184009	0.000274	2.736739	0.927232	0.000110
1740	1.7303e+02	-10.7163	-57.075006	0.000274	2.736739	0.927232	0.000110
1741	1.7313e+02	-10.6714	-56.957930	0.000294	2.939461	0.995916	0.000118
1742	1.7323e+02	-10.6473	-56.865075	0.000233	2.331296	0.789865	0.000093
1743	1.7333e+02	-10.5960	-56.695516	0.000426	4.257150	1.442361	0.000170
1744	1.7343e+02	-10.5559	-56.594587	0.000253	2.534018	0.858548	0.000101
1745	1.7353e+02	-10.5077	-56.465399	0.000324	3.243543	1.098942	0.000130
1746	1.7363e+02	-10.4740	-56.352359	0.000284	2.838100	0.961574	0.000114
1747	1.7373e+02	-10.4371	-56.243357	0.000274	2.736739	0.927232	0.000110
1748	1.7383e+02	-10.4002	-56.142428	0.000253	2.534018	0.858548	0.000101
1749	1.7393e+02	-10.3537	-56.017277	0.000314	3.142182	1.064600	0.000126
1750	1.7403e+02	-10.3297	-55.855792	0.000405	4.054429	1.373678	0.000162
1751	1.7413e+02	-10.2751	-55.771012	0.000213	2.128575	0.721181	0.000085
1752	1.7422e+02	-10.2430	-55.666046	0.000264	2.635379	0.892890	0.000105
1753	1.7432e+02	-10.2013	-55.589341	0.000193	1.925854	0.652497	0.000077
1754	1.7442e+02	-10.1564	-55.403632	0.000466	4.662593	1.579729	0.000187
1755	1.7452e+02	-10.1099	-55.290593	0.000284	2.838100	0.961574	0.000114
1756	1.7462e+02	-10.0810	-55.185627	0.000264	2.635379	0.892890	0.000105
1757	1.7472e+02	-10.0329	-55.007993	0.000446	4.459871	1.511045	0.000179
1758	1.7482e+02	-9.9928	-54.915139	0.000233	2.331296	0.789865	0.000093
1759	1.7492e+02	-9.9623	-54.826322	0.000223	2.229936	0.755523	0.000089
1760	1.7502e+02	-9.9045	-54.693096	0.000334	3.344904	1.133284	0.000134
1761	1.7512e+02	-9.8708	-54.563908	0.000324	3.243543	1.098942	0.000130
1762	1.7522e+02	-9.8339	-54.446831	0.000294	2.939461	0.995916	0.000118
1763	1.7532e+02	-9.8051	-54.333791	0.000284	2.838100	0.961574	0.000114
1764	1.7542e+02	-9.7569	-54.212677	0.000304	3.040821	1.030258	0.000122
1765	1.7552e+02	-9.7217	-54.083489	0.000324	3.243543	1.098942	0.000130
1766	1.7562e+02	-9.6719	-54.006783	0.000193	1.925854	0.652497	0.000077
1767	1.7572e+02	-9.6446	-53.845298	0.000405	4.054429	1.373678	0.000162
1768	1.7582e+02	-9.5917	-53.744370	0.000253	2.534018	0.858548	0.000101
1769	1.7592e+02	-9.5596	-53.590958	0.000385	3.851707	1.304994	0.000154
1770	1.7602e+02	-9.5179	-53.485993	0.000264	2.635379	0.892890	0.000105
1771	1.7612e+02	-9.4746	-53.356804	0.000324	3.243543	1.098942	0.000130
1772	1.7621e+02	-9.4457	-53.243765	0.000284	2.838100	0.961574	0.000114
1773	1.7631e+02	-9.4056	-53.134762	0.000274	2.736739	0.927232	0.000110
1774	1.7641e+02	-9.3527	-53.017685	0.000294	2.939461	0.995916	0.000118
1775	1.7651e+02	-9.3238	-52.860237	0.000395	3.953068	1.339336	0.000158
1776	1.7661e+02	-9.2885	-52.739123	0.000304	3.040821	1.030258	0.000122
1777	1.7671e+02	-9.2356	-52.613972	0.000314	3.142182	1.064600	0.000126
1778	1.7681e+02	-9.2003	-52.525155	0.000223	2.229936	0.755523	0.000089
1779	1.7691e+02	-9.1650	-52.379818	0.000365	3.648986	1.236310	0.000146
1780	1.7701e+02	-9.1233	-52.234481	0.000365	3.648986	1.236310	0.000146
1781	1.7711e+02	-9.0816	-52.117404	0.000294	2.939461	0.995916	0.000118
1782	1.7721e+02	-9.0415	-52.004364	0.000284	2.838100	0.961574	0.000114
1783	1.7731e+02	-9.0014	-51.867101	0.000345	3.446264	1.167626	0.000138
1784	1.7741e+02	-8.9580	-51.750024	0.000294	2.939461	0.995916	0.000118
1785	1.7751e+02	-8.9195	-51.628910	0.000304	3.040821	1.030258	0.000122
1786	1.7761e+02	-8.8810	-51.483573	0.000365	3.648986	1.236310	0.000146
1787	1.7771e+02	-8.8329	-51.394757	0.000223	2.229936	0.755523	0.000089
1788	1.7781e+02	-8.7896	-51.221160	0.000436	4.358511	1.476703	0.000174
1789	1.7791e+02	-8.7607	-51.120231	0.000253	2.534018	0.858548	0.000101
1790	1.7801e+02	-8.7286	-51.015266	0.000264	2.635379	0.892890	0.000105
1791	1.7810e+02	-8.6805	-50.873966	0.000355	3.547625	1.201968	0.000142
1792	1.7820e+02	-8.6372	-50.773038	0.000253	2.534018	0.858548	0.000101
1793	1.7830e+02	-8.6067	-50.575218	0.000497	4.966675	1.682755	0.000199
1794	1.7840e+02	-8.5618	-50.494475	0.000203	2.027214	0.686839	0.000081
1795	1.7850e+02	-8.5233	-50.377398	0.000294	2.939461	0.995916	0.000118
1796	1.7860e+02	-8.4832	-50.228024	0.000375	3.750346	1.270652	0.000150
1797	1.7870e+02	-8.4447	-50.086725	0.000355	3.547625	1.201968	0.000142
1798	1.7880e+02	-8.4094	-49.977722	0.000274	2.736739	0.927232	0.000110
1799	1.7890e+02	-8.3613	-49.844496	0.000334	3.344904	1.133284	0.000134
1800	1.7900e+02	-8.3308	-49.735494	0.000274	2.736739	0.927232	0.000110
1801	1.7910e+02	-8.2794	-49.598231	0.000345	3.446264	1.167626	0.000138
1802	1.7920e+02	-8.2409	-49.440783	0.000395	3.953068	1.339336	0.000158
1803	1.7930e+02	-8.2073	-49.343892	0.000243	2.432657	0.824207	0.000097
1804	1.7940e+02	-8.1655	-49.198555	0.000365	3.648986	1.236310	0.000146
1805	1.7950e+02	-8.1319	-49.049181	0.000375	3.750346	1.270652	0.000150
1806	1.7960e+02	-8.0773	-48.948252	0.000253	2.534018	0.858548	0.000101
1807	1.7970e+02	-8.0420	-48.802915	0.000365	3.648986	1.236310	0.000146
1808	1.7980e+02	-8.0115	-48.701987	0.000253	2.534018	0.858548	0.000101
1809	1.7990e+02	-7.9746	-48.540502	0.000405	4.054429	1.373678	0.000162
1810	1.8000e+02	-7.9265	-48.423425	0.000294	2.939461	0.995916	0.000118
1811	1.8009e+02	-7.8880	-48.282125	0.000355	3.547625	1.201968	0.000142
1812	1.8019e+02	-7.8431	-48.189271	0.000233	2.331296	0.789865	0.000093
1813	1.8029e+02	-7.8062	-48.056045	0.000334	3.344904	1.133284	0.000134
1814	1.8039e+02	-7.7613	-47.890523	0.000416	4.155789	1.408020	0.000166
1815	1.8049e+02	-7.7292	-47.789594	0.000253	2.534018	0.858548	0.000101
1816	1.8059e+02	-7.6843	-47.615997	0.000436	4.358511	1.476703	0.000174
1817	1.8069e+02	-7.6490	-47.511032	0.000264	2.635379	0.892890	0.000105
1818	1.8079e+02	-7.6105	-47.385881	0.000314	3.142182	1.064600	0.000126
1819	1.8089e+02	-7.5624	-47.248618	0.000345	3.446264	1.167626	0.000138
1820	1.8099e+02	-7.5239	-47.123467	0.000314	3.142182	1.064600	0.000126
1821	1.8109e+02	-7.4870	-46.949870	0.000436	4.358511	1.476703	0.000174
1822	1.8119e+02	-7.4468	-46.824719	0.000314	3.142182	1.064600	0.000126
1823	1.8129e+02	-7.4116	-46.687456	0.000345	3.446264	1.167626	0.000138
1824	1.8139e+02	-7.3698	-46.574416	0.000284	2.838100	0.961574	0.000114
1825	1.8149e+02	-7.3249	-46.461377	0.000284	2.838100	0.961574	0.000114
1826	1.8159e+02	-7.2816	-46.307965	0.000385	3.851707	1.304994	0.000154
1827	1.8169e+02	-7.2511	-46.178777	0.000324	3.243543	1.098942	0.000130
1828	1.8179e+02	-7.2046	-46.029403	0.000375	3.750346	1.270652	0.000150
1829	1.8189e+02	-7.1677	-45.888103	0.000355	3.547625	1.201968	0.000142
1830	1.8199e+02	-7.1308	-45.807361	0.000203	2.027214	0.686839	0.000081
1831	1.8209e+02	-7.0923	-45.633764	0.000436	4.358511	1.476703	0.000174
1832	1.8218e+02	-7.0522	-45.492464	0.000355	3.547625	1.201968	0.000142
1833	1.8228e+02	-7.0009	-45.355201	0.000345	3.446264	1.167626	0.000138
1834	1.8238e+02	-6.9688	-45.234087	0.000304	3.040821	1.030258	0.000122
1835	1.8248e+02	-6.9191	-45.044342	0.000476	4.763954	1.614071	0.000191
1836	1.8258e+02	-6.8886	-44.943414	0.000253	2.534018	0.858548	0.000101
1837	1.8268e+02	-6.8501	-44.834411	0.000274	2.736739	0.927232	0.000110
1838	1.8278e+02	-6.8132	-44.685037	0.000375	3.750346	1.270652	0.000150
1839	1.8288e+02	-6.7715	-44.527589	0.000395	3.953068	1.339336	0.000158
1840	1.8298e+02	-6.7346	-44.386289	0.000355	3.547625	1.201968	0.000142
1841	1.8308e+02	-6.7009	-44.220766	0.000416	4.155789	1.408020	0.000166
1842	1.8318e+02	-6.6511	-44.119838	0.000253	2.534018	0.858548	0.000101
1843	1.8328e+02	-6.6110	-44.002761	0.000294	2.939461	0.995916	0.000118
1844	1.8338e+02	-6.5677	-43.869535	0.000334	3.344904	1.133284	0.000134
1845	1.8348e+02	-6.5276	-43.708050	0.000405	4.054429	1.373678	0.000162
1846	1.8358e+02	-6.4987	-43.550602	0.000395	3.953068	1.339336	0.000158
1847	1.8368e+02	-6.4538	-43.441599	0.000274	2.736739	0.927232	0.000110
1848	1.8378e+02	-6.4169	-43.308374	0.000334	3.344904	1.133284	0.000134
1849	1.8388e+02	-6.3720	-43.171111	0.000345	3.446264	1.167626	0.000138
1850	1.8398e+02	-6.3303	-43.029811	0.000355	3.547625	1.201968	0.000142
1851	1.8407e+02	-6.2934	-42.928883	0.000253	2.534018	0.858548	0.000101
1852	1.8417e+02	-6.2469	-42.759323	0.000426	4.257150	1.442361	0.000170
1853	1.8427e+02	-6.2164	-42.597838	0.000405	4.054429	1.373678	0.000162
1854	1.8437e+02	-6.1651	-42.472687	0.000314	3.142182	1.064600	0.000126
1855	1.8447e+02	-6.1410	-42.335424	0.000345	3.446264	1.167626	0.000138
1856	1.8457e+02	-6.1025	-42.161827	0.000436	4.358511	1.476703	0.000174
1857	1.8467e+02	-6.0624	-42.016490	0.000365	3.648986	1.236310	0.000146
1858	1.8477e+02	-6.0046	-41.903450	0.000284	2.838100	0.961574	0.000114
1859	1.8487e+02	-5.9758	-41.750039	0.000385	3.851707	1.304994	0.000154
1860	1.8497e+02	-5.9357	-41.628925	0.000304	3.040821	1.030258	0.000122
1861	1.8507e+02	-5.8923	-41.471477	0.000395	3.953068	1.339336	0.000158
1862	1.8517e+02	-5.8554	-41.338251	0.000334	3.344904	1.133284	0.000134
1863	1.8527e+02	-5.8169	-41.192915	0.000365	3.648986	1.236310	0.000146
1864	1.8537e+02	-5.7784	-41.035466	0.000395	3.953068	1.339336	0.000158
1865	1.8547e+02	-5.7351	-40.914352	0.000304	3.040821	1.030258	0.000122
1866	1.8557e+02	-5.6998	-40.760941	0.000385	3.851707	1.304994	0.000154
1867	1.8567e+02	-5.6581	-40.619641	0.000355	3.547625	1.201968	0.000142
1868	1.8577e+02	-5.6116	-40.482379	0.000345	3.446264	1.167626	0.000138
1869	1.8587e+02	-5.5827	-40.353190	0.000324	3.243543	1.098942	0.000130
1870	1.8597e+02	-5.5458	-40.199779	0.000385	3.851707	1.304994	0.000154
1871	1.8606e+02	-5.5057	-40.030219	0.000426	4.257150	1.442361	0.000170
1872	1.8616e+02	-5.4560	-39.880845	0.000375	3.750346	1.270652	0.000150
1873	1.8626e+02	-5.4223	-39.755694	0.000314	3.142182	1.064600	0.000126
1874	1.8636e+02	-5.3806	-39.614394	0.000355	3.547625	1.201968	0.000142
1875	1.8646e+02	-5.3389	-39.440798	0.000436	4.358511	1.476703	0.000174
1876	1.8656e+02	-5.2988	-39.307572	0.000334	3.344904	1.133284	0.000134
1877	1.8666e+02	-5.2571	-39.158198	0.000375	3.750346	1.270652	0.000150
1878	1.8676e+02	-5.2186	-39.016898	0.000355	3.547625	1.201968	0.000142
1879	1.8686e+02	-5.1817	-38.847339	0.000426	4.257150	1.442361	0.000170
1880	1.8696e+02	-5.1368	-38.689890	0.000395	3.953068	1.339336	0.000158
1881	1.8706e+02	-5.1015	-38.576851	0.000284	2.838100	0.961574	0.000114
1882	1.8716e+02	-5.0549	-38.427477	0.000375	3.750346	1.270652	0.000150
1883	1.8726e+02	-5.0180	-38.306362	0.000304	3.040821	1.030258	0.000122
1884	1.8736e+02	-4.9844	-38.152951	0.000385	3.851707	1.304994	0.000154
1885	1.8746e+02	-4.9410	-37.971280	0.000456	4.561232	1.545387	0.000183
1886	1.8756e+02	-4.8913	-37.829980	0.000355	3.547625	1.201968	0.000142
1887	1.8766e+02	-4.8624	-37.684644	0.000365	3.648986	1.236310	0.000146
1888	1.8776e+02	-4.8175	-37.511047	0.000436	4.358511	1.476703	0.000174
1889	1.8786e+02	-4.7870	-37.385896	0.000314	3.142182	1.064600	0.000126
1890	1.8796e+02	-4.7373	-37.232484	0.000385	3.851707	1.304994	0.000154
1891	1.8806e+02	-4.6956	-37.095222	0.000345	3.446264	1.167626	0.000138
1892	1.8815e+02	-4.6587	-36.941811	0.000385	3.851707	1.304994	0.000154
1893	1.8825e+02	-4.6250	-36.788399	0.000385	3.851707	1.304994	0.000154
1894	1.8835e+02	-4.5785	-36.594617	0.000487	4.865314	1.648413	0.000195
1895	1.8845e+02	-4.5400	-36.481577	0.000284	2.838100	0.961574	0.000114
1896	1.8855e+02	-4.5031	-36.352389	0.000324	3.243543	1.098942	0.000130
1897	1.8865e+02	-4.4630	-36.158606	0.000487	4.865314	1.648413	0.000195
1898	1.8875e+02	-4.4213	-36.001158	0.000395	3.953068	1.339336	0.000158
1899	1.8885e+02	-4.3828	-35.867932	0.000334	3.344904	1.133284	0.000134
1900	1.8895e+02	-4.3443	-35.726633	0.000355	3.547625	1.201968	0.000142
1901	1.8905e+02	-4.3058	-35.565147	0.000405	4.054429	1.373678	0.000162
1902	1.8915e+02	-4.2544	-35.411736	0.000385	3.851707	1.304994	0.000154
1903	1.8925e+02	-4.2175	-35.290622	0.000304	3.040821	1.030258	0.000122
1904	1.8935e+02	-4.1854	-35.117025	0.000436	4.358511	1.476703	0.000174
1905	1.8945e+02	-4.1421	-34.935354	0.000456	4.561232	1.545387	0.000183
1906	1.8955e+02	-4.1052	-34.818277	0.000294	2.939461	0.995916	0.000118
1907	1.8965e+02	-4.0603	-34.608346	0.000527	5.270757	1.785781	0.000211
1908	1.8975e+02	-4.0202	-34.467046	0.000355	3.547625	1.201968	0.000142
1909	1.8985e+02	-3.9833	-34.341895	0.000314	3.142182	1.064600	0.000126
1910	1.8995e+02	-3.9448	-34.224818	0.000294	2.939461	0.995916	0.000118
1911	1.9004e+02	-3.8999	-34.039110	0.000466	4.662593	1.579729	0.000187
1912	1.9014e+02	-3.8630	-33.889736	0.000375	3.750346	1.270652	0.000150
1913	1.9024e+02	-3.8245	-33.744399	0.000365	3.648986	1.236310	0.000146
1914	1.9034e+02	-3.7812	-33.558691	0.000466	4.662593	1.579729	0.000187
1915	1.9044e+02	-3.7443	-33.389131	0.000426	4.257150	1.442361	0.000170
1916	1.9054e+02	-3.7010	-33.235720	0.000385	3.851707	1.304994	0.000154
1917	1.9064e+02	-3.6769	-33.118643	0.000294	2.939461	0.995916	0.000118
1918	1.9074e+02	-3.6304	-32.920823	0.000497	4.966675	1.682755	0.000199
1919	1.9084e+02	-3.5951	-32.779524	0.000355	3.547625	1.201968	0.000142
1920	1.9094e+02	-3.5389	-32.646298	0.000334	3.344904	1.133284	0.000134
1921	1.9104e+02	-3.5036	-32.480776	0.000416	4.155789	1.408020	0.000166
1922	1.9114e+02	-3.4603	-32.335439	0.000365	3.648986	1.236310	0.000146
1923	1.9124e+02	-3.4266	-32.149730	0.000466	4.662593	1.579729	0.000187
1924	1.9134e+02	-3.3817	-32.004394	0.000365	3.648986	1.236310	0.000146
1925	1.9144e+02	-3.3448	-31.830797	0.000436	4.358511	1.476703	0.000174
1926	1.9154e+02	-3.3031	-31.689497	0.000355	3.547625	1.201968	0.000142
1927	1.9164e+02	-3.2646	-31.495714	0.000487	4.865314	1.648413	0.000195
1928	1.9174e+02	-3.2213	-31.338266	0.000395	3.953068	1.339336	0.000158
1929	1.9184e+02	-3.1924	-31.201004	0.000345	3.446264	1.167626	0.000138
1930	1.9194e+02	-3.1459	-31.035481	0.000416	4.155789	1.408020	0.000166
1931	1.9203e+02	-3.1026	-30.934553	0.000253	2.534018	0.858548	0.000101
1932	1.9213e+02	-3.0689	-30.740770	0.000487	4.865314	1.648413	0.000195
1933	1.9223e+02	-3.0240	-30.571210	0.000426	4.257150	1.442361	0.000170
1934	1.9233e+02	-2.9855	-30.377428	0.000487	4.865314	1.648413	0.000195
1935	1.9243e+02	-2.9486	-30.232091	0.000365	3.648986	1.236310	0.000146
1936	1.9253e+02	-2.9101	-30.082717	0.000375	3.750346	1.270652	0.000150
1937	1.9263e+02	-2.8668	-29.917194	0.000416	4.155789	1.408020	0.000166
1938	1.9273e+02	-2.8363	-29.767820	0.000375	3.750346	1.270652	0.000150
1939	1.9283e+02	-2.7882	-29.606335	0.000405	4.054429	1.373678	0.000162
1940	1.9293e+02	-2.7400	-29.428701	0.000446	4.459871	1.511045	0.000179
1941	1.9303e+02	-2.7079	-29.279327	0.000375	3.750346	1.270652	0.000150
1942	1.9313e+02	-2.6662	-29.129953	0.000375	3.750346	1.270652	0.000150
1943	1.9323e+02	-2.6277	-28.915985	0.000537	5.372118	1.820123	0.000215
1944	1.9333e+02	-2.5844	-28.758536	0.000395	3.953068	1.339336	0.000158
1945	1.9343e+02	-2.5379	-28.613200	0.000365	3.648986	1.236310	0.000146
1946	1.9353e+02	-2.5074	-28.431528	0.000456	4.561232	1.545387	0.000183
1947	1.9363e+02	-2.4673	-28.290229	0.000355	3.547625	1.201968	0.000142
1948	1.9373e+02	-2.4288	-28.092409	0.000497	4.966675	1.682755	0.000199
1949	1.9383e+02	-2.3791	-27.963221	0.000324	3.243543	1.098942	0.000130
1950	1.9393e+02	-2.3598	-27.769438	0.000487	4.865314	1.648413	0.000195
1951	1.9403e+02	-2.3149	-27.640250	0.000324	3.243543	1.098942	0.000130
1952	1.9412e+02	-2.2700	-27.454542	0.000466	4.662593	1.579729	0.000187
1953	1.9422e+02	-2.2347	-27.264796	0.000476	4.763954	1.614071	0.000191
1954	1.9432e+02	-2.1914	-27.127534	0.000345	3.446264	1.167626	0.000138
1955	1.9442e+02	-2.1513	-26.953937	0.000436	4.358511	1.476703	0.000174
1956	1.9452e+02	-2.1160	-26.808600	0.000365	3.648986	1.236310	0.000146
1957	1.9462e+02	-2.0646	-26.602706	0.000517	5.169396	1.751439	0.000207
1958	1.9472e+02	-2.0342	-26.437183	0.000416	4.155789	1.408020	0.000166
1959	1.9482e+02	-1.9909	-26.279735	0.000395	3.953068	1.339336	0.000158
1960	1.9492e+02	-1.9588	-26.122287	0.000395	3.953068	1.339336	0.000158
1961	1.9502e+02	-1.9122	-25.972913	0.000375	3.750346	1.270652	0.000150
1962	1.9512e+02	-1.8657	-25.762982	0.000527	5.270757	1.785781	0.000211
1963	1.9522e+02	-1.8240	-25.629756	0.000334	3.344904	1.133284	0.000134
1964	1.9532e+02	-1.7935	-25.468271	0.000405	4.054429	1.373678	0.000162
1965	1.9542e+02	-1.7486	-25.254303	0.000537	5.372118	1.820123	0.000215
1966	1.9552e+02	-1.7101	-25.092817	0.000405	4.054429	1.373678	0.000162
1967	1.9562e+02	-1.6764	-24.931332	0.000405	4.054429	1.373678	0.000162
1968	1.9572e+02	-1.6299	-24.781958	0.000375	3.750346	1.270652	0.000150
1969	1.9582e+02	-1.5882	-24.624509	0.000395	3.953068	1.339336	0.000158
1970	1.9592e+02	-1.5545	-24.458987	0.000416	4.155789	1.408020	0.000166
1971	1.9601e+02	-1.5192	-24.269241	0.000476	4.763954	1.614071	0.000191
1972	1.9611e+02	-1.4807	-24.103719	0.000416	4.155789	1.408020	0.000166
1973	1.9621e+02	-1.4342	-23.938196	0.000416	4.155789	1.408020	0.000166
1974	1.9631e+02	-1.4037	-23.776711	0.000405	4.054429	1.373678	0.000162
1975	1.9641e+02	-1.3556	-23.603114	0.000436	4.358511	1.476703	0.000174
1976	1.9651e+02	-1.3058	-23.413369	0.000476	4.763954	1.614071	0.000191
1977	1.9661e+02	-1.2754	-23.255920	0.000395	3.953068	1.339336	0.000158
1978	1.9671e+02	-1.2353	-23.062138	0.000487	4.865314	1.648413	0.000195
1979	1.9681e+02	-1.1935	-22.916801	0.000365	3.648986	1.236310	0.000146
1980	1.9691e+02	-1.1470	-22.739167	0.000446	4.459871	1.511045	0.000179
1981	1.9701e+02	-1.1214	-22.577682	0.000405	4.054429	1.373678	0.000162
1982	1.9711e+02	-1.0684	-22.375825	0.000507	5.068036	1.717097	0.000203
1983	1.9721e+02	-1.0347	-22.194154	0.000456	4.561232	1.545387	0.000183
1984	1.9731e+02	-0.9930	-22.048817	0.000365	3.648986	1.236310	0.000146
1985	1.9741e+02	-0.9561	-21.826774	0.000557	5.574839	1.888807	0.000223
1986	1.9751e+02	-0.9208	-21.677400	0.000375	3.750346	1.270652	0.000150
1987	1.9761e+02	-0.8743	-21.499766	0.000446	4.459871	1.511045	0.000179
1988	1.9771e+02	-0.8262	-21.350392	0.000375	3.750346	1.270652	0.000150
1989	1.9781e+02	-0.7893	-21.176796	0.000436	4.358511	1.476703	0.000174
1990	1.9791e+02	-0.7620	-20.991087	0.000466	4.662593	1.579729	0.000187
1991	1.9800e+02	-0.7123	-20.793268	0.000497	4.966675	1.682755	0.000199
1992	1.9810e+02	-0.6738	-20.668116	0.000314	3.142182	1.064600	0.000126
1993	1.9820e+02	-0.6401	-20.466260	0.000507	5.068036	1.717097	0.000203
1994	1.9830e+02	-0.5952	-20.288626	0.000446	4.459871	1.511045	0.000179
1995	1.9840e+02	-0.5519	-20.098880	0.000476	4.763954	1.614071	0.000191
1996	1.9850e+02	-0.5118	-19.949506	0.000375	3.750346	1.270652	0.000150
1997	1.9860e+02	-0.4732	-19.759761	0.000476	4.763954	1.614071	0.000191
1998	1.9870e+02	-0.4347	-19.586164	0.000436	4.358511	1.476703	0.000174
1999	1.9880e+02	-0.3930	-19.396419	0.000476	4.763954	1.614071	0.000191
2000	1.9890e+02	-0.3626	-19.198599	0.000497	4.966675	1.682755	0.000199
2001	1.9900e+02	-0.3208	-19.045188	0.000385	3.851707	1.304994	0.000154
2002	1.9910e+02	-0.2759	-18.899851	0.000365	3.648986	1.236310	0.000146
2003	1.9920e+02	-0.2454	-18.706068	0.000487	4.865314	1.648413	0.000195
2004	1.9930e+02	-0.1957	-18.552657	0.000385	3.851707	1.304994	0.000154
2005	1.9940e+02	-0.1572	-18.387135	0.000416	4.155789	1.408020	0.000166
2006	1.9950e+02	-0.1235	-18.165092	0.000557	5.574839	1.888807	0.000223
2007	1.9960e+02	-0.0754	-18.015718	0.000375	3.750346	1.270652	0.000150
2008	1.9970e+02	-0.0289	-17.846159	0.000426	4.257150	1.442361	0.000170
2009	1.9980e+02	0.0000	-17.668525	0.000426	4.257150	1.442361	0.000179

Center data before PMax,+/-Pr and +/-Vc Calc.

PMax (uC/cm2):	7.60e+01
Pr (uC/cm2):	1.06e+01
-Pr (uC/cm2):	-1.77e+01
PLoss (uC/cm2):	-2.26e+01
-Vc:	-2.35e+00
C (Max-Eff) (nF):	3.80e-01
K (Eff):	1.29e+03
Vert. (+/-Pr) Shift (uC/cm2):	-3.55e+00
Offset (uC/cm2):	-4.90e+00

A (Loop Area - uC/cm2·Volts):	1.74e-01



Hysteresis Version: 5.48.1 - Radiant Technologies, Inc., 1999 - 9/12/24

