»»»»»»»»»»»»»»»»»»»»»»»»»»»»»»»»»»»» Hysteresis ««««««««««««««««««««««««««««««««««««
»»»  Executed Version:	5.48.1
»»»  Vision Version:	5.48.4 (R)
»»»  Vision Compiled:	9/18/24
»»»  Driver Version:	5.47.0
»»»  Windows Version:	Windows 8 or 8.1
»»»  Processor Information:	x86 (AMD or Intel) - 32 Processors
»»»  Tester Name:	PMF21124-494 (100V)
»»»  Tester S/N:	PMF21124-494
»»»  Internal Amp Type:	100V RevK 270k
»»»  Internal Amp S/N:	iAB2-596/K     
»»»  Execution Count:	1
»»»»»»»»»»»»»»»»»»»»»»»»»»»»»»»»»»»»»»»»»»««««««««««««««««««««««««««««««««««««««««««

Stored:	6/13/2025 - 10:15:48
Configured:	06/13/25 10:12:58 AM
Executed:	06/13/25 10:15:10 AM

»»»»»»»»»»»»»»»»»»»»»»»»»»»»»»»»»»» Sample Info ««««««««««««««««««««««««««««««««««««
Sample Name:	
Lot Name:	
Wafer Name:	
Die Row/Column:	0/0
Capacitor Number:	0
Sample Area (cm2):	1.00e-04
Sample Thickness (microns):	3.00e-01

Amplifier:	Internal

»»»»»»»»»»»»»»»»»»»»»»»»»»»»»»»»»»» Tester Info «««««««««««««««««««««««««««««««««««
Tester Name:	PMF21124-494 (100V)
Tester Serial Number:	PMF21124-494
Return Signal Amp. Level:	0.19 [Index: 3]

»»»»»»»»»»»»»»»»»»»»»»»»»»»»»»»» Hysteresis Info ««««««««««««««««««««««««««««««««««
Task Name:	Hyst-1704
Volts:	20.00
Field:	666.67 (kV/cm)
DCBias:	0.00
DCField:	0.00 (kV/cm)
Hysteresis Period (ms):	2.00e+02
Preset:	Enabled
Preset Delay (ms):	1.00e+03
Profile:	Standard Bipolar

»»»»»»»»»»»»»»»»»»»»»»»»»»»»»»»»»»»»»» Data «««««««««««««««««««««««««««««««««««««««
Points:	2009

Valid Data

Point	Time (ms)	Drive Voltage	Measured Polarization (uC/cm2)	Capacitance (uF)	Normalized Capacitance (uF/cm2)	Dielectric Constant	Instantaneous Current (mA)
   1	0.0000e+00	-0.0273	0.288655	0.000142	1.419676	0.480999	0.000057
   2	9.9500e-02	0.0016	0.345175	0.000142	1.419676	0.480999	0.000057
   3	1.9900e-01	0.0465	0.514735	0.000426	4.259029	1.442998	0.000170
   4	2.9850e-01	0.0818	0.672183	0.000395	3.954813	1.339927	0.000158
   5	3.9800e-01	0.1155	0.813483	0.000355	3.549191	1.202499	0.000142
   6	4.9750e-01	0.1668	0.974968	0.000406	4.056219	1.374284	0.000162
   7	5.9700e-01	0.1973	1.156639	0.000456	4.563246	1.546070	0.000183
   8	6.9650e-01	0.2519	1.322162	0.000416	4.157624	1.408641	0.000166
   9	7.9600e-01	0.2872	1.479610	0.000395	3.954813	1.339927	0.000158
  10	8.9550e-01	0.3257	1.633021	0.000385	3.853408	1.305570	0.000154
  11	9.9500e-01	0.3690	1.790470	0.000395	3.954813	1.339927	0.000158
  12	1.0945e+00	0.4059	1.964067	0.000436	4.360435	1.477355	0.000174
  13	1.1940e+00	0.4444	2.165923	0.000507	5.070273	1.717855	0.000203
  14	1.2935e+00	0.4813	2.262815	0.000243	2.433731	0.824570	0.000097
  15	1.3930e+00	0.5214	2.436411	0.000436	4.360435	1.477355	0.000174
  16	1.4925e+00	0.5535	2.630194	0.000487	4.867462	1.649141	0.000195
  17	1.5920e+00	0.6016	2.811865	0.000456	4.563246	1.546070	0.000183
  18	1.6915e+00	0.6465	2.941053	0.000324	3.244975	1.099427	0.000130
  19	1.7910e+00	0.6754	3.110613	0.000426	4.259029	1.442998	0.000170
  20	1.8905e+00	0.7203	3.264024	0.000385	3.853408	1.305570	0.000154
  21	1.9900e+00	0.7572	3.421473	0.000395	3.954813	1.339927	0.000158
  22	2.0895e+00	0.8005	3.611218	0.000477	4.766057	1.614784	0.000191
  23	2.1890e+00	0.8406	3.764629	0.000385	3.853408	1.305570	0.000154
  24	2.2885e+00	0.8775	3.950337	0.000466	4.664651	1.580427	0.000187
  25	2.3880e+00	0.9240	4.075489	0.000314	3.143569	1.065070	0.000126
  26	2.4875e+00	0.9577	4.224863	0.000375	3.752002	1.271213	0.000150
  27	2.5870e+00	0.9994	4.418645	0.000487	4.867462	1.649141	0.000195
  28	2.6865e+00	1.0428	4.580130	0.000406	4.056219	1.374284	0.000162
  29	2.7860e+00	1.0732	4.761802	0.000456	4.563246	1.546070	0.000183
  30	2.8855e+00	1.1165	4.951547	0.000477	4.766057	1.614784	0.000191
  31	2.9850e+00	1.1647	5.108995	0.000395	3.954813	1.339927	0.000158
  32	3.0845e+00	1.2016	5.282592	0.000436	4.360435	1.477355	0.000174
  33	3.1840e+00	1.2401	5.436003	0.000385	3.853408	1.305570	0.000154
  34	3.2835e+00	1.2882	5.605563	0.000426	4.259029	1.442998	0.000170
  35	3.3830e+00	1.3155	5.775123	0.000426	4.259029	1.442998	0.000170
  36	3.4825e+00	1.3524	5.916422	0.000355	3.549191	1.202499	0.000142
  37	3.5820e+00	1.3989	6.110205	0.000487	4.867462	1.649141	0.000195
  38	3.6815e+00	1.4454	6.283802	0.000436	4.360435	1.477355	0.000174
  39	3.7810e+00	1.4823	6.457399	0.000436	4.360435	1.477355	0.000174
  40	3.8805e+00	1.5208	6.578513	0.000304	3.042164	1.030713	0.000122
  41	3.9800e+00	1.5545	6.764221	0.000466	4.664651	1.580427	0.000187
  42	4.0795e+00	1.5962	6.933781	0.000426	4.259029	1.442998	0.000170
  43	4.1790e+00	1.6411	7.111415	0.000446	4.461840	1.511712	0.000179
  44	4.2785e+00	1.6812	7.268863	0.000395	3.954813	1.339927	0.000158
  45	4.3780e+00	1.7229	7.474757	0.000517	5.171679	1.752212	0.000207
  46	4.4775e+00	1.7518	7.599908	0.000314	3.143569	1.065070	0.000126
  47	4.5770e+00	1.8016	7.781579	0.000456	4.563246	1.546070	0.000183
  48	4.6765e+00	1.8304	7.947102	0.000416	4.157624	1.408641	0.000166
  49	4.7760e+00	1.8818	8.116661	0.000426	4.259029	1.442998	0.000170
  50	4.8755e+00	1.9235	8.274110	0.000395	3.954813	1.339927	0.000158
  51	4.9750e+00	1.9556	8.480004	0.000517	5.171679	1.752212	0.000207
  52	5.0745e+00	1.9957	8.661675	0.000456	4.563246	1.546070	0.000183
  53	5.1740e+00	2.0406	8.778752	0.000294	2.940758	0.996356	0.000118
  54	5.2735e+00	2.0727	8.968497	0.000477	4.766057	1.614784	0.000191
  55	5.3730e+00	2.1112	9.154205	0.000466	4.664651	1.580427	0.000187
  56	5.4725e+00	2.1561	9.311654	0.000395	3.954813	1.339927	0.000158
  57	5.5720e+00	2.1946	9.469102	0.000395	3.954813	1.339927	0.000158
  58	5.6715e+00	2.2443	9.606364	0.000345	3.447786	1.168141	0.000138
  59	5.7710e+00	2.2700	9.796110	0.000477	4.766057	1.614784	0.000191
  60	5.8705e+00	2.3213	10.006041	0.000527	5.273084	1.786569	0.000211
  61	5.9700e+00	2.3534	10.147341	0.000355	3.549191	1.202499	0.000142
  62	6.0695e+00	2.4031	10.312863	0.000416	4.157624	1.408641	0.000166
  63	6.1690e+00	2.4304	10.466274	0.000385	3.853408	1.305570	0.000154
  64	6.2685e+00	2.4769	10.660057	0.000487	4.867462	1.649141	0.000195
  65	6.3680e+00	2.5186	10.797320	0.000345	3.447786	1.168141	0.000138
  66	6.4675e+00	2.5604	11.015325	0.000548	5.475895	1.855283	0.000219
  67	6.5670e+00	2.5989	11.201033	0.000466	4.664651	1.580427	0.000187
  68	6.6665e+00	2.6454	11.293887	0.000233	2.332326	0.790213	0.000093
  69	6.7660e+00	2.6759	11.499781	0.000517	5.171679	1.752212	0.000207
  70	6.8655e+00	2.7192	11.661267	0.000406	4.056219	1.374284	0.000162
  71	6.9650e+00	2.7593	11.830826	0.000426	4.259029	1.442998	0.000170
  72	7.0645e+00	2.7882	12.016535	0.000466	4.664651	1.580427	0.000187
  73	7.1640e+00	2.8363	12.161871	0.000365	3.650597	1.236856	0.000146
  74	7.2635e+00	2.8732	12.339505	0.000446	4.461840	1.511712	0.000179
  75	7.3630e+00	2.9149	12.533288	0.000487	4.867462	1.649141	0.000195
  76	7.4625e+00	2.9582	12.658439	0.000314	3.143569	1.065070	0.000126
  77	7.5620e+00	2.9951	12.844147	0.000466	4.664651	1.580427	0.000187
  78	7.6615e+00	3.0208	13.013707	0.000426	4.259029	1.442998	0.000170
  79	7.7610e+00	3.0721	13.159044	0.000365	3.650597	1.236856	0.000146
  80	7.8605e+00	3.1186	13.360901	0.000507	5.070273	1.717855	0.000203
  81	7.9600e+00	3.1555	13.506238	0.000365	3.650597	1.236856	0.000146
  82	8.0595e+00	3.1876	13.695983	0.000477	4.766057	1.614784	0.000191
  83	8.1590e+00	3.2261	13.865543	0.000426	4.259029	1.442998	0.000170
  84	8.2585e+00	3.2758	14.014917	0.000375	3.752002	1.271213	0.000150
  85	8.3580e+00	3.3111	14.200625	0.000466	4.664651	1.580427	0.000187
  86	8.4575e+00	3.3577	14.366148	0.000416	4.157624	1.408641	0.000166
  87	8.5570e+00	3.3897	14.503410	0.000345	3.447786	1.168141	0.000138
  88	8.6565e+00	3.4250	14.713341	0.000527	5.273084	1.786569	0.000211
  89	8.7560e+00	3.4700	14.866752	0.000385	3.853408	1.305570	0.000154
  90	8.8555e+00	3.4988	14.991904	0.000314	3.143569	1.065070	0.000126
  91	8.9550e+00	3.5486	15.234132	0.000608	6.084328	2.061426	0.000243
  92	9.0545e+00	3.5823	15.359283	0.000314	3.143569	1.065070	0.000126
  93	9.1540e+00	3.6416	15.532880	0.000436	4.360435	1.477355	0.000174
  94	9.2535e+00	3.6737	15.706477	0.000436	4.360435	1.477355	0.000174
  95	9.3530e+00	3.7074	15.867962	0.000406	4.056219	1.374284	0.000162
  96	9.4525e+00	3.7491	16.045596	0.000446	4.461840	1.511712	0.000179
  97	9.5520e+00	3.7876	16.190933	0.000365	3.650597	1.236856	0.000146
  98	9.6515e+00	3.8261	16.372604	0.000456	4.563246	1.546070	0.000183
  99	9.7510e+00	3.8678	16.558312	0.000466	4.664651	1.580427	0.000187
 100	9.8505e+00	3.9063	16.691538	0.000335	3.346380	1.133784	0.000134
 101	9.9500e+00	3.9464	16.889357	0.000497	4.968868	1.683498	0.000199
 102	1.0050e+01	3.9929	17.014509	0.000314	3.143569	1.065070	0.000126
 103	1.0149e+01	4.0379	17.236551	0.000558	5.577300	1.889641	0.000223
 104	1.0248e+01	4.0699	17.389962	0.000385	3.853408	1.305570	0.000154
 105	1.0348e+01	4.1133	17.507039	0.000294	2.940758	0.996356	0.000118
 106	1.0447e+01	4.1469	17.716970	0.000527	5.273084	1.786569	0.000211
 107	1.0547e+01	4.1951	17.874418	0.000395	3.954813	1.339927	0.000158
 108	1.0646e+01	4.2336	18.052052	0.000446	4.461840	1.511712	0.000179
 109	1.0746e+01	4.2624	18.197389	0.000365	3.650597	1.236856	0.000146
 110	1.0845e+01	4.3138	18.375023	0.000446	4.461840	1.511712	0.000179
 111	1.0945e+01	4.3394	18.568806	0.000487	4.867462	1.649141	0.000195
 112	1.1044e+01	4.3860	18.689920	0.000304	3.042164	1.030713	0.000122
 113	1.1144e+01	4.4213	18.859480	0.000426	4.259029	1.442998	0.000170
 114	1.1243e+01	4.4742	19.045188	0.000466	4.664651	1.580427	0.000187
 115	1.1343e+01	4.5111	19.202636	0.000395	3.954813	1.339927	0.000158
 116	1.1443e+01	4.5512	19.368159	0.000416	4.157624	1.408641	0.000166
 117	1.1542e+01	4.5897	19.537718	0.000426	4.259029	1.442998	0.000170
 118	1.1642e+01	4.6282	19.703241	0.000416	4.157624	1.408641	0.000166
 119	1.1741e+01	4.6715	19.856652	0.000385	3.853408	1.305570	0.000154
 120	1.1841e+01	4.7084	20.010063	0.000385	3.853408	1.305570	0.000154
 121	1.1940e+01	4.7469	20.155400	0.000365	3.650597	1.236856	0.000146
 122	1.2040e+01	4.7822	20.333034	0.000446	4.461840	1.511712	0.000179
 123	1.2139e+01	4.8303	20.470297	0.000345	3.447786	1.168141	0.000138
 124	1.2239e+01	4.8801	20.656005	0.000466	4.664651	1.580427	0.000187
 125	1.2338e+01	4.9090	20.817490	0.000406	4.056219	1.374284	0.000162
 126	1.2438e+01	4.9442	20.995124	0.000446	4.461840	1.511712	0.000179
 127	1.2537e+01	4.9811	21.164684	0.000426	4.259029	1.442998	0.000170
 128	1.2636e+01	5.0277	21.350392	0.000466	4.664651	1.580427	0.000187
 129	1.2736e+01	5.0630	21.483618	0.000335	3.346380	1.133784	0.000134
 130	1.2835e+01	5.1015	21.661252	0.000446	4.461840	1.511712	0.000179
 131	1.2935e+01	5.1464	21.822737	0.000406	4.056219	1.374284	0.000162
 132	1.3034e+01	5.1849	21.988260	0.000416	4.157624	1.408641	0.000166
 133	1.3134e+01	5.2250	22.141671	0.000385	3.853408	1.305570	0.000154
 134	1.3233e+01	5.2683	22.274896	0.000335	3.346380	1.133784	0.000134
 135	1.3333e+01	5.3036	22.468679	0.000487	4.867462	1.649141	0.000195
 136	1.3432e+01	5.3549	22.670536	0.000507	5.070273	1.717855	0.000203
 137	1.3532e+01	5.3886	22.795687	0.000314	3.143569	1.065070	0.000126
 138	1.3632e+01	5.4239	22.920838	0.000314	3.143569	1.065070	0.000126
 139	1.3731e+01	5.4656	23.122695	0.000507	5.070273	1.717855	0.000203
 140	1.3831e+01	5.5105	23.292255	0.000426	4.259029	1.442998	0.000170
 141	1.3930e+01	5.5458	23.405294	0.000284	2.839353	0.961999	0.000114
 142	1.4030e+01	5.5843	23.627337	0.000558	5.577300	1.889641	0.000223
 143	1.4129e+01	5.6293	23.756525	0.000324	3.244975	1.099427	0.000130
 144	1.4229e+01	5.6645	23.881676	0.000314	3.143569	1.065070	0.000126
 145	1.4328e+01	5.7030	24.075459	0.000487	4.867462	1.649141	0.000195
 146	1.4428e+01	5.7496	24.257130	0.000456	4.563246	1.546070	0.000183
 147	1.4527e+01	5.7865	24.386318	0.000324	3.244975	1.099427	0.000130
 148	1.4627e+01	5.8266	24.519544	0.000335	3.346380	1.133784	0.000134
 149	1.4726e+01	5.8571	24.753698	0.000588	5.881517	1.992712	0.000235
 150	1.4825e+01	5.9004	24.862700	0.000274	2.737948	0.927642	0.000110
 151	1.4925e+01	5.9341	25.044372	0.000456	4.563246	1.546070	0.000183
 152	1.5024e+01	5.9870	25.209894	0.000416	4.157624	1.408641	0.000166
 153	1.5124e+01	6.0239	25.355231	0.000365	3.650597	1.236856	0.000146
 154	1.5223e+01	6.0592	25.528828	0.000436	4.360435	1.477355	0.000174
 155	1.5323e+01	6.1089	25.674165	0.000365	3.650597	1.236856	0.000146
 156	1.5422e+01	6.1442	25.827576	0.000385	3.853408	1.305570	0.000154
 157	1.5522e+01	6.1779	26.013284	0.000466	4.664651	1.580427	0.000187
 158	1.5621e+01	6.2260	26.146510	0.000335	3.346380	1.133784	0.000134
 159	1.5721e+01	6.2549	26.303958	0.000395	3.954813	1.339927	0.000158
 160	1.5820e+01	6.3062	26.457369	0.000385	3.853408	1.305570	0.000154
 161	1.5920e+01	6.3319	26.635003	0.000446	4.461840	1.511712	0.000179
 162	1.6020e+01	6.3784	26.804563	0.000426	4.259029	1.442998	0.000170
 163	1.6119e+01	6.4233	26.929714	0.000314	3.143569	1.065070	0.000126
 164	1.6218e+01	6.4602	27.095237	0.000416	4.157624	1.408641	0.000166
 165	1.6318e+01	6.5052	27.256722	0.000406	4.056219	1.374284	0.000162
 166	1.6418e+01	6.5389	27.398022	0.000355	3.549191	1.202499	0.000142
 167	1.6517e+01	6.5677	27.583730	0.000466	4.664651	1.580427	0.000187
 168	1.6616e+01	6.6143	27.704844	0.000304	3.042164	1.030713	0.000122
 169	1.6716e+01	6.6592	27.854218	0.000375	3.752002	1.271213	0.000150
 170	1.6816e+01	6.6945	28.043963	0.000477	4.766057	1.614784	0.000191
 171	1.6915e+01	6.7394	28.209486	0.000416	4.157624	1.408641	0.000166
 172	1.7015e+01	6.7795	28.322526	0.000284	2.839353	0.961999	0.000114
 173	1.7114e+01	6.8148	28.463826	0.000355	3.549191	1.202499	0.000142
 174	1.7213e+01	6.8565	28.669719	0.000517	5.171679	1.752212	0.000207
 175	1.7313e+01	6.8902	28.859465	0.000477	4.766057	1.614784	0.000191
 176	1.7413e+01	6.9351	29.000765	0.000355	3.549191	1.202499	0.000142
 177	1.7512e+01	6.9752	29.121879	0.000304	3.042164	1.030713	0.000122
 178	1.7611e+01	7.0217	29.299513	0.000446	4.461840	1.511712	0.000179
 179	1.7711e+01	7.0506	29.440812	0.000355	3.549191	1.202499	0.000142
 180	1.7811e+01	7.1003	29.594224	0.000385	3.853408	1.305570	0.000154
 181	1.7910e+01	7.1372	29.755709	0.000406	4.056219	1.374284	0.000162
 182	1.8009e+01	7.1773	29.913157	0.000395	3.954813	1.339927	0.000158
 183	1.8109e+01	7.2207	30.082717	0.000426	4.259029	1.442998	0.000170
 184	1.8209e+01	7.2447	30.236128	0.000385	3.853408	1.305570	0.000154
 185	1.8308e+01	7.2912	30.385502	0.000375	3.752002	1.271213	0.000150
 186	1.8407e+01	7.3313	30.510653	0.000314	3.143569	1.065070	0.000126
 187	1.8507e+01	7.3779	30.704436	0.000487	4.867462	1.649141	0.000195
 188	1.8607e+01	7.4116	30.817476	0.000284	2.839353	0.961999	0.000114
 189	1.8706e+01	7.4501	30.970887	0.000385	3.853408	1.305570	0.000154
 190	1.8805e+01	7.4950	31.144484	0.000436	4.360435	1.477355	0.000174
 191	1.8905e+01	7.5399	31.318080	0.000436	4.360435	1.477355	0.000174
 192	1.9005e+01	7.5784	31.455343	0.000345	3.447786	1.168141	0.000138
 193	1.9104e+01	7.6137	31.620866	0.000416	4.157624	1.408641	0.000166
 194	1.9203e+01	7.6554	31.762165	0.000355	3.549191	1.202499	0.000142
 195	1.9303e+01	7.7035	31.887317	0.000314	3.143569	1.065070	0.000126
 196	1.9402e+01	7.7308	32.064951	0.000446	4.461840	1.511712	0.000179
 197	1.9502e+01	7.7805	32.202213	0.000345	3.447786	1.168141	0.000138
 198	1.9602e+01	7.8158	32.363699	0.000406	4.056219	1.374284	0.000162
 199	1.9701e+01	7.8607	32.525184	0.000406	4.056219	1.374284	0.000162
 200	1.9800e+01	7.8896	32.702818	0.000446	4.461840	1.511712	0.000179
 201	1.9900e+01	7.9393	32.848155	0.000365	3.650597	1.236856	0.000146
 202	2.0000e+01	7.9859	32.961195	0.000284	2.839353	0.961999	0.000114
 203	2.0099e+01	8.0035	33.163052	0.000507	5.070273	1.717855	0.000203
 204	2.0198e+01	8.0516	33.288203	0.000314	3.143569	1.065070	0.000126
 205	2.0298e+01	8.0837	33.409317	0.000304	3.042164	1.030713	0.000122
 206	2.0398e+01	8.1254	33.562728	0.000385	3.853408	1.305570	0.000154
 207	2.0497e+01	8.1768	33.740362	0.000446	4.461840	1.511712	0.000179
 208	2.0596e+01	8.2089	33.913959	0.000436	4.360435	1.477355	0.000174
 209	2.0696e+01	8.2538	34.039110	0.000314	3.143569	1.065070	0.000126
 210	2.0796e+01	8.2923	34.180410	0.000355	3.549191	1.202499	0.000142
 211	2.0895e+01	8.3244	34.317672	0.000345	3.447786	1.168141	0.000138
 212	2.0994e+01	8.3789	34.483195	0.000416	4.157624	1.408641	0.000166
 213	2.1094e+01	8.4110	34.620458	0.000345	3.447786	1.168141	0.000138
 214	2.1194e+01	8.4463	34.806166	0.000466	4.664651	1.580427	0.000187
 215	2.1293e+01	8.4928	34.927280	0.000304	3.042164	1.030713	0.000122
 216	2.1392e+01	8.5297	35.112988	0.000466	4.664651	1.580427	0.000187
 217	2.1492e+01	8.5826	35.254288	0.000355	3.549191	1.202499	0.000142
 218	2.1591e+01	8.6147	35.375402	0.000304	3.042164	1.030713	0.000122
 219	2.1691e+01	8.6548	35.524776	0.000375	3.752002	1.271213	0.000150
 220	2.1791e+01	8.6901	35.670113	0.000365	3.650597	1.236856	0.000146
 221	2.1890e+01	8.7190	35.831598	0.000406	4.056219	1.374284	0.000162
 222	2.1989e+01	8.7703	35.964824	0.000335	3.346380	1.133784	0.000134
 223	2.2089e+01	8.8185	36.134383	0.000426	4.259029	1.442998	0.000170
 224	2.2189e+01	8.8489	36.291832	0.000395	3.954813	1.339927	0.000158
 225	2.2288e+01	8.8923	36.457354	0.000416	4.157624	1.408641	0.000166
 226	2.2387e+01	8.9276	36.562320	0.000264	2.636542	0.893285	0.000105
 227	2.2487e+01	8.9773	36.723805	0.000406	4.056219	1.374284	0.000162
 228	2.2587e+01	9.0190	36.893365	0.000426	4.259029	1.442998	0.000170
 229	2.2686e+01	9.0447	37.010442	0.000294	2.940758	0.996356	0.000118
 230	2.2785e+01	9.0880	37.155779	0.000365	3.650597	1.236856	0.000146
 231	2.2885e+01	9.1329	37.297079	0.000355	3.549191	1.202499	0.000142
 232	2.2985e+01	9.1714	37.446453	0.000375	3.752002	1.271213	0.000150
 233	2.3084e+01	9.2067	37.632161	0.000466	4.664651	1.580427	0.000187
 234	2.3183e+01	9.2532	37.733089	0.000254	2.535137	0.858928	0.000101
 235	2.3283e+01	9.2869	37.878426	0.000365	3.650597	1.236856	0.000146
 236	2.3383e+01	9.3238	38.027800	0.000375	3.752002	1.271213	0.000150
 237	2.3482e+01	9.3703	38.225620	0.000497	4.968868	1.683498	0.000199
 238	2.3581e+01	9.4040	38.330585	0.000264	2.636542	0.893285	0.000105
 239	2.3681e+01	9.4505	38.496108	0.000416	4.157624	1.408641	0.000166
 240	2.3780e+01	9.4858	38.629333	0.000335	3.346380	1.133784	0.000134
 241	2.3880e+01	9.5275	38.754485	0.000314	3.143569	1.065070	0.000126
 242	2.3980e+01	9.5741	38.928081	0.000436	4.360435	1.477355	0.000174
 243	2.4079e+01	9.6078	39.077455	0.000375	3.752002	1.271213	0.000150
 244	2.4178e+01	9.6398	39.158198	0.000203	2.028109	0.687142	0.000081
 245	2.4278e+01	9.6880	39.360055	0.000507	5.070273	1.717855	0.000203
 246	2.4378e+01	9.7345	39.497317	0.000345	3.447786	1.168141	0.000138
 247	2.4477e+01	9.7618	39.654766	0.000395	3.954813	1.339927	0.000158
 248	2.4576e+01	9.8131	39.779917	0.000314	3.143569	1.065070	0.000126
 249	2.4676e+01	9.8420	39.949477	0.000426	4.259029	1.442998	0.000170
 250	2.4776e+01	9.8901	40.090776	0.000355	3.549191	1.202499	0.000142
 251	2.4875e+01	9.9286	40.236113	0.000365	3.650597	1.236856	0.000146
 252	2.4974e+01	9.9623	40.365302	0.000324	3.244975	1.099427	0.000130
 253	2.5074e+01	10.0168	40.518713	0.000385	3.853408	1.305570	0.000154
 254	2.5174e+01	10.0409	40.611567	0.000233	2.332326	0.790213	0.000093
 255	2.5273e+01	10.0826	40.817461	0.000517	5.171679	1.752212	0.000207
 256	2.5372e+01	10.1227	40.918389	0.000254	2.535137	0.858928	0.000101
 257	2.5472e+01	10.1676	41.100060	0.000456	4.563246	1.546070	0.000183
 258	2.5572e+01	10.2125	41.233286	0.000335	3.346380	1.133784	0.000134
 259	2.5671e+01	10.2382	41.338251	0.000264	2.636542	0.893285	0.000105
 260	2.5770e+01	10.2863	41.511848	0.000436	4.360435	1.477355	0.000174
 261	2.5870e+01	10.3281	41.649111	0.000345	3.447786	1.168141	0.000138
 262	2.5970e+01	10.3617	41.786373	0.000345	3.447786	1.168141	0.000138
 263	2.6069e+01	10.4002	41.935747	0.000375	3.752002	1.271213	0.000150
 264	2.6169e+01	10.4420	42.093196	0.000395	3.954813	1.339927	0.000158
 265	2.6268e+01	10.4965	42.190087	0.000243	2.433731	0.824570	0.000097
 266	2.6367e+01	10.5157	42.315238	0.000314	3.143569	1.065070	0.000126
 267	2.6467e+01	10.5703	42.517095	0.000507	5.070273	1.717855	0.000203
 268	2.6567e+01	10.6072	42.638209	0.000304	3.042164	1.030713	0.000122
 269	2.6666e+01	10.6313	42.811806	0.000436	4.360435	1.477355	0.000174
 270	2.6765e+01	10.6922	42.908697	0.000243	2.433731	0.824570	0.000097
 271	2.6865e+01	10.7243	43.037886	0.000324	3.244975	1.099427	0.000130
 272	2.6965e+01	10.7612	43.207445	0.000426	4.259029	1.442998	0.000170
 273	2.7064e+01	10.8157	43.360856	0.000385	3.853408	1.305570	0.000154
 274	2.7163e+01	10.8350	43.494082	0.000335	3.346380	1.133784	0.000134
 275	2.7263e+01	10.8847	43.631344	0.000345	3.447786	1.168141	0.000138
 276	2.7363e+01	10.9168	43.780719	0.000375	3.752002	1.271213	0.000150
 277	2.7462e+01	10.9569	43.909907	0.000324	3.244975	1.099427	0.000130
 278	2.7561e+01	11.0115	44.043132	0.000335	3.346380	1.133784	0.000134
 279	2.7661e+01	11.0403	44.168284	0.000314	3.143569	1.065070	0.000126
 280	2.7761e+01	11.0788	44.333806	0.000416	4.157624	1.408641	0.000166
 281	2.7860e+01	11.1157	44.495292	0.000406	4.056219	1.374284	0.000162
 282	2.7959e+01	11.1639	44.592183	0.000243	2.433731	0.824570	0.000097
 283	2.8059e+01	11.1975	44.741557	0.000375	3.752002	1.271213	0.000150
 284	2.8159e+01	11.2360	44.894968	0.000385	3.853408	1.305570	0.000154
 285	2.8258e+01	11.2842	45.028193	0.000335	3.346380	1.133784	0.000134
 286	2.8358e+01	11.3163	45.181605	0.000385	3.853408	1.305570	0.000154
 287	2.8457e+01	11.3644	45.326941	0.000365	3.650597	1.236856	0.000146
 288	2.8556e+01	11.3981	45.427870	0.000254	2.535137	0.858928	0.000101
 289	2.8656e+01	11.4430	45.557058	0.000324	3.244975	1.099427	0.000130
 290	2.8756e+01	11.4799	45.694321	0.000345	3.447786	1.168141	0.000138
 291	2.8855e+01	11.5120	45.871955	0.000446	4.461840	1.511712	0.000179
 292	2.8954e+01	11.5649	45.976920	0.000264	2.636542	0.893285	0.000105
 293	2.9054e+01	11.6082	46.130332	0.000385	3.853408	1.305570	0.000154
 294	2.9154e+01	11.6451	46.243371	0.000284	2.839353	0.961999	0.000114
 295	2.9253e+01	11.6740	46.412931	0.000426	4.259029	1.442998	0.000170
 296	2.9352e+01	11.7109	46.542119	0.000324	3.244975	1.099427	0.000130
 297	2.9452e+01	11.7606	46.663233	0.000304	3.042164	1.030713	0.000122
 298	2.9552e+01	11.7943	46.784348	0.000304	3.042164	1.030713	0.000122
 299	2.9651e+01	11.8441	46.941796	0.000395	3.954813	1.339927	0.000158
 300	2.9750e+01	11.8874	47.070984	0.000324	3.244975	1.099427	0.000130
 301	2.9850e+01	11.9259	47.192098	0.000304	3.042164	1.030713	0.000122
 302	2.9950e+01	11.9596	47.361658	0.000426	4.259029	1.442998	0.000170
 303	3.0049e+01	11.9997	47.498921	0.000345	3.447786	1.168141	0.000138
 304	3.0148e+01	12.0366	47.628109	0.000324	3.244975	1.099427	0.000130
 305	3.0248e+01	12.0767	47.777483	0.000375	3.752002	1.271213	0.000150
 306	3.0348e+01	12.1248	47.890523	0.000284	2.839353	0.961999	0.000114
 307	3.0447e+01	12.1553	48.015674	0.000314	3.143569	1.065070	0.000126
 308	3.0547e+01	12.1970	48.189271	0.000436	4.360435	1.477355	0.000174
 309	3.0646e+01	12.2291	48.298273	0.000274	2.737948	0.927642	0.000110
 310	3.0745e+01	12.2852	48.443610	0.000365	3.650597	1.236856	0.000146
 311	3.0845e+01	12.3189	48.572799	0.000324	3.244975	1.099427	0.000130
 312	3.0945e+01	12.3462	48.685838	0.000284	2.839353	0.961999	0.000114
 313	3.1044e+01	12.3991	48.851361	0.000416	4.157624	1.408641	0.000166
 314	3.1143e+01	12.4424	49.012846	0.000406	4.056219	1.374284	0.000162
 315	3.1243e+01	12.4825	49.121849	0.000274	2.737948	0.927642	0.000110
 316	3.1343e+01	12.5275	49.275260	0.000385	3.853408	1.305570	0.000154
 317	3.1442e+01	12.5531	49.388300	0.000284	2.839353	0.961999	0.000114
 318	3.1541e+01	12.5964	49.521526	0.000335	3.346380	1.133784	0.000134
 319	3.1641e+01	12.6414	49.650714	0.000324	3.244975	1.099427	0.000130
 320	3.1741e+01	12.6734	49.792014	0.000355	3.549191	1.202499	0.000142
 321	3.1840e+01	12.7119	49.941388	0.000375	3.752002	1.271213	0.000150
 322	3.1939e+01	12.7649	50.062502	0.000304	3.042164	1.030713	0.000122
 323	3.2039e+01	12.7905	50.215913	0.000385	3.853408	1.305570	0.000154
 324	3.2139e+01	12.8339	50.332990	0.000294	2.940758	0.996356	0.000118
 325	3.2238e+01	12.8708	50.429881	0.000243	2.433731	0.824570	0.000097
 326	3.2337e+01	12.9189	50.599441	0.000426	4.259029	1.442998	0.000170
 327	3.2437e+01	12.9526	50.692295	0.000233	2.332326	0.790213	0.000093
 328	3.2536e+01	12.9895	50.857817	0.000416	4.157624	1.408641	0.000166
 329	3.2636e+01	13.0280	50.987006	0.000324	3.244975	1.099427	0.000130
 330	3.2736e+01	13.0729	51.132343	0.000365	3.650597	1.236856	0.000146
 331	3.2835e+01	13.1082	51.261531	0.000324	3.244975	1.099427	0.000130
 332	3.2934e+01	13.1467	51.402831	0.000355	3.549191	1.202499	0.000142
 333	3.3034e+01	13.1884	51.507796	0.000264	2.636542	0.893285	0.000105
 334	3.3133e+01	13.2349	51.653133	0.000365	3.650597	1.236856	0.000146
 335	3.3233e+01	13.2734	51.794433	0.000355	3.549191	1.202499	0.000142
 336	3.3333e+01	13.3023	51.838841	0.000112	1.115460	0.377928	0.000045
 337	3.3432e+01	13.3584	52.068958	0.000578	5.780111	1.958355	0.000231
 338	3.3532e+01	13.3969	52.177961	0.000274	2.737948	0.927642	0.000110
 339	3.3631e+01	13.4387	52.311186	0.000335	3.346380	1.133784	0.000134
 340	3.3730e+01	13.4595	52.448449	0.000345	3.447786	1.168141	0.000138
 341	3.3830e+01	13.5141	52.557452	0.000274	2.737948	0.927642	0.000110
 342	3.3929e+01	13.5461	52.682603	0.000314	3.143569	1.065070	0.000126
 343	3.4029e+01	13.5895	52.831977	0.000375	3.752002	1.271213	0.000150
 344	3.4129e+01	13.6392	52.953091	0.000304	3.042164	1.030713	0.000122
 345	3.4228e+01	13.6761	53.086316	0.000335	3.346380	1.133784	0.000134
 346	3.4328e+01	13.7162	53.211468	0.000314	3.143569	1.065070	0.000126
 347	3.4427e+01	13.7483	53.340656	0.000324	3.244975	1.099427	0.000130
 348	3.4526e+01	13.7932	53.469844	0.000324	3.244975	1.099427	0.000130
 349	3.4626e+01	13.8269	53.631330	0.000406	4.056219	1.374284	0.000162
 350	3.4725e+01	13.8686	53.740332	0.000274	2.737948	0.927642	0.000110
 351	3.4825e+01	13.8991	53.897781	0.000395	3.954813	1.339927	0.000158
 352	3.4925e+01	13.9440	53.986598	0.000223	2.230920	0.755856	0.000089
 353	3.5024e+01	13.9873	54.123860	0.000345	3.447786	1.168141	0.000138
 354	3.5123e+01	14.0274	54.236900	0.000284	2.839353	0.961999	0.000114
 355	3.5223e+01	14.0675	54.390311	0.000385	3.853408	1.305570	0.000154
 356	3.5322e+01	14.1028	54.519500	0.000324	3.244975	1.099427	0.000130
 357	3.5422e+01	14.1477	54.644651	0.000314	3.143569	1.065070	0.000126
 358	3.5522e+01	14.1798	54.785951	0.000355	3.549191	1.202499	0.000142
 359	3.5621e+01	14.2199	54.939362	0.000385	3.853408	1.305570	0.000154
 360	3.5721e+01	14.2680	55.036253	0.000243	2.433731	0.824570	0.000097
 361	3.5820e+01	14.3065	55.145256	0.000274	2.737948	0.927642	0.000110
 362	3.5919e+01	14.3434	55.250221	0.000264	2.636542	0.893285	0.000105
 363	3.6019e+01	14.3868	55.395558	0.000365	3.650597	1.236856	0.000146
 364	3.6118e+01	14.4253	55.548969	0.000385	3.853408	1.305570	0.000154
 365	3.6218e+01	14.4573	55.662009	0.000284	2.839353	0.961999	0.000114
 366	3.6318e+01	14.5055	55.783123	0.000304	3.042164	1.030713	0.000122
 367	3.6417e+01	14.5456	55.912311	0.000324	3.244975	1.099427	0.000130
 368	3.6517e+01	14.5873	56.049574	0.000345	3.447786	1.168141	0.000138
 369	3.6616e+01	14.6210	56.182799	0.000335	3.346380	1.133784	0.000134
 370	3.6715e+01	14.6659	56.332174	0.000375	3.752002	1.271213	0.000150
 371	3.6815e+01	14.6964	56.408879	0.000193	1.926704	0.652785	0.000077
 372	3.6914e+01	14.7413	56.562290	0.000385	3.853408	1.305570	0.000154
 373	3.7014e+01	14.7846	56.715701	0.000385	3.853408	1.305570	0.000154
 374	3.7114e+01	14.8327	56.836815	0.000304	3.042164	1.030713	0.000122
 375	3.7213e+01	14.8680	56.929670	0.000233	2.332326	0.790213	0.000093
 376	3.7313e+01	14.9033	57.083081	0.000385	3.853408	1.305570	0.000154
 377	3.7412e+01	14.9498	57.184009	0.000254	2.535137	0.858928	0.000101
 378	3.7511e+01	14.9948	57.321272	0.000345	3.447786	1.168141	0.000138
 379	3.7611e+01	15.0285	57.454497	0.000335	3.346380	1.133784	0.000134
 380	3.7711e+01	15.0637	57.603871	0.000375	3.752002	1.271213	0.000150
 381	3.7810e+01	15.1022	57.700763	0.000243	2.433731	0.824570	0.000097
 382	3.7910e+01	15.1440	57.846099	0.000365	3.650597	1.236856	0.000146
 383	3.8009e+01	15.1857	57.959139	0.000284	2.839353	0.961999	0.000114
 384	3.8108e+01	15.2322	58.096402	0.000345	3.447786	1.168141	0.000138
 385	3.8208e+01	15.2563	58.233664	0.000345	3.447786	1.168141	0.000138
 386	3.8307e+01	15.3028	58.310370	0.000193	1.926704	0.652785	0.000077
 387	3.8407e+01	15.3445	58.467818	0.000395	3.954813	1.339927	0.000158
 388	3.8507e+01	15.3798	58.548561	0.000203	2.028109	0.687142	0.000081
 389	3.8606e+01	15.4263	58.738306	0.000477	4.766057	1.614784	0.000191
 390	3.8706e+01	15.4680	58.835198	0.000243	2.433731	0.824570	0.000097
 391	3.8805e+01	15.5129	58.976497	0.000355	3.549191	1.202499	0.000142
 392	3.8904e+01	15.5482	59.085500	0.000274	2.737948	0.927642	0.000110
 393	3.9004e+01	15.5867	59.202577	0.000294	2.940758	0.996356	0.000118
 394	3.9103e+01	15.6252	59.319654	0.000294	2.940758	0.996356	0.000118
 395	3.9203e+01	15.6637	59.420582	0.000254	2.535137	0.858928	0.000101
 396	3.9303e+01	15.7070	59.614365	0.000487	4.867462	1.649141	0.000195
 397	3.9402e+01	15.7423	59.695108	0.000203	2.028109	0.687142	0.000081
 398	3.9502e+01	15.7840	59.844482	0.000375	3.752002	1.271213	0.000150
 399	3.9601e+01	15.8274	59.945410	0.000254	2.535137	0.858928	0.000101
 400	3.9700e+01	15.8610	60.050376	0.000264	2.636542	0.893285	0.000105
 401	3.9800e+01	15.9060	60.223972	0.000436	4.360435	1.477355	0.000174
 402	3.9900e+01	15.9461	60.320864	0.000243	2.433731	0.824570	0.000097
 403	3.9999e+01	15.9766	60.437941	0.000294	2.940758	0.996356	0.000118
 404	4.0099e+01	16.0167	60.563092	0.000314	3.143569	1.065070	0.000126
 405	4.0198e+01	16.0648	60.704392	0.000355	3.549191	1.202499	0.000142
 406	4.0297e+01	16.0921	60.837617	0.000335	3.346380	1.133784	0.000134
 407	4.0397e+01	16.1466	60.914323	0.000193	1.926704	0.652785	0.000077
 408	4.0496e+01	16.1771	61.063697	0.000375	3.752002	1.271213	0.000150
 409	4.0596e+01	16.2284	61.172699	0.000274	2.737948	0.927642	0.000110
 410	4.0696e+01	16.2605	61.309962	0.000345	3.447786	1.168141	0.000138
 411	4.0795e+01	16.2990	61.398779	0.000223	2.230920	0.755856	0.000089
 412	4.0895e+01	16.3471	61.540079	0.000355	3.549191	1.202499	0.000142
 413	4.0994e+01	16.3712	61.677341	0.000345	3.447786	1.168141	0.000138
 414	4.1093e+01	16.4257	61.806530	0.000324	3.244975	1.099427	0.000130
 415	4.1193e+01	16.4626	61.891309	0.000213	2.129515	0.721499	0.000085
 416	4.1292e+01	16.4979	62.040683	0.000375	3.752002	1.271213	0.000150
 417	4.1392e+01	16.5412	62.161798	0.000304	3.042164	1.030713	0.000122
 418	4.1492e+01	16.5846	62.303097	0.000355	3.549191	1.202499	0.000142
 419	4.1591e+01	16.6166	62.399989	0.000243	2.433731	0.824570	0.000097
 420	4.1691e+01	16.6535	62.521103	0.000304	3.042164	1.030713	0.000122
 421	4.1790e+01	16.6969	62.634142	0.000284	2.839353	0.961999	0.000114
 422	4.1889e+01	16.7450	62.779479	0.000365	3.650597	1.236856	0.000146
 423	4.1989e+01	16.7771	62.900593	0.000304	3.042164	1.030713	0.000122
 424	4.2089e+01	16.8220	63.017670	0.000294	2.940758	0.996356	0.000118
 425	4.2188e+01	16.8669	63.094376	0.000193	1.926704	0.652785	0.000077
 426	4.2288e+01	16.9054	63.215490	0.000304	3.042164	1.030713	0.000122
 427	4.2387e+01	16.9295	63.348715	0.000335	3.346380	1.133784	0.000134
 428	4.2486e+01	16.9632	63.490015	0.000355	3.549191	1.202499	0.000142
 429	4.2586e+01	17.0113	63.603055	0.000284	2.839353	0.961999	0.000114
 430	4.2685e+01	17.0514	63.691872	0.000223	2.230920	0.755856	0.000089
 431	4.2785e+01	17.0931	63.861432	0.000426	4.259029	1.442998	0.000170
 432	4.2885e+01	17.1332	63.990620	0.000324	3.244975	1.099427	0.000130
 433	4.2984e+01	17.1765	64.111734	0.000304	3.042164	1.030713	0.000122
 434	4.3084e+01	17.2166	64.172291	0.000152	1.521082	0.515357	0.000061
 435	4.3183e+01	17.2551	64.289368	0.000294	2.940758	0.996356	0.000118
 436	4.3282e+01	17.2920	64.414519	0.000314	3.143569	1.065070	0.000126
 437	4.3382e+01	17.3353	64.547745	0.000335	3.346380	1.133784	0.000134
 438	4.3481e+01	17.3867	64.680970	0.000335	3.346380	1.133784	0.000134
 439	4.3581e+01	17.4188	64.769787	0.000223	2.230920	0.755856	0.000089
 440	4.3681e+01	17.4524	64.911087	0.000355	3.549191	1.202499	0.000142
 441	4.3780e+01	17.5038	65.020090	0.000274	2.737948	0.927642	0.000110
 442	4.3880e+01	17.5311	65.141204	0.000304	3.042164	1.030713	0.000122
 443	4.3979e+01	17.5744	65.286541	0.000365	3.650597	1.236856	0.000146
 444	4.4078e+01	17.6177	65.387469	0.000254	2.535137	0.858928	0.000101
 445	4.4178e+01	17.6594	65.536843	0.000375	3.752002	1.271213	0.000150
 446	4.4278e+01	17.6979	65.621623	0.000213	2.129515	0.721499	0.000085
 447	4.4377e+01	17.7364	65.710440	0.000223	2.230920	0.755856	0.000089
 448	4.4477e+01	17.7781	65.884037	0.000436	4.360435	1.477355	0.000174
 449	4.4576e+01	17.8166	65.972854	0.000223	2.230920	0.755856	0.000089
 450	4.4675e+01	17.8615	66.134339	0.000406	4.056219	1.374284	0.000162
 451	4.4775e+01	17.8936	66.231230	0.000243	2.433731	0.824570	0.000097
 452	4.4874e+01	17.9305	66.311973	0.000203	2.028109	0.687142	0.000081
 453	4.4974e+01	17.9674	66.461347	0.000375	3.752002	1.271213	0.000150
 454	4.5074e+01	18.0171	66.602647	0.000355	3.549191	1.202499	0.000142
 455	4.5173e+01	18.0637	66.699538	0.000243	2.433731	0.824570	0.000097
 456	4.5273e+01	18.0925	66.832764	0.000335	3.346380	1.133784	0.000134
 457	4.5372e+01	18.1294	66.921581	0.000223	2.230920	0.755856	0.000089
 458	4.5471e+01	18.1711	67.046732	0.000314	3.143569	1.065070	0.000126
 459	4.5571e+01	18.2032	67.147660	0.000254	2.535137	0.858928	0.000101
 460	4.5670e+01	18.2562	67.272811	0.000314	3.143569	1.065070	0.000126
 461	4.5770e+01	18.2979	67.406037	0.000335	3.346380	1.133784	0.000134
 462	4.5870e+01	18.3348	67.539262	0.000335	3.346380	1.133784	0.000134
 463	4.5969e+01	18.3653	67.620005	0.000203	2.028109	0.687142	0.000081
 464	4.6069e+01	18.4166	67.757268	0.000345	3.447786	1.168141	0.000138
 465	4.6168e+01	18.4519	67.838010	0.000203	2.028109	0.687142	0.000081
 466	4.6267e+01	18.4936	67.975273	0.000345	3.447786	1.168141	0.000138
 467	4.6367e+01	18.5369	68.092350	0.000294	2.940758	0.996356	0.000118
 468	4.6467e+01	18.5786	68.221538	0.000324	3.244975	1.099427	0.000130
 469	4.6566e+01	18.6155	68.334578	0.000284	2.839353	0.961999	0.000114
 470	4.6666e+01	18.6588	68.431469	0.000243	2.433731	0.824570	0.000097
 471	4.6765e+01	18.6845	68.560658	0.000324	3.244975	1.099427	0.000130
 472	4.6864e+01	18.7310	68.653512	0.000233	2.332326	0.790213	0.000093
 473	4.6964e+01	18.7631	68.798849	0.000365	3.650597	1.236856	0.000146
 474	4.7063e+01	18.8096	68.915926	0.000294	2.940758	0.996356	0.000118
 475	4.7163e+01	18.8545	69.041077	0.000314	3.143569	1.065070	0.000126
 476	4.7263e+01	18.8979	69.133931	0.000233	2.332326	0.790213	0.000093
 477	4.7362e+01	18.9332	69.234859	0.000254	2.535137	0.858928	0.000101
 478	4.7462e+01	18.9717	69.388270	0.000385	3.853408	1.305570	0.000154
 479	4.7561e+01	19.0134	69.477087	0.000223	2.230920	0.755856	0.000089
 480	4.7660e+01	19.0583	69.618387	0.000355	3.549191	1.202499	0.000142
 481	4.7760e+01	19.0823	69.703167	0.000213	2.129515	0.721499	0.000085
 482	4.7859e+01	19.1417	69.800058	0.000243	2.433731	0.824570	0.000097
 483	4.7959e+01	19.1658	69.925210	0.000314	3.143569	1.065070	0.000126
 484	4.8059e+01	19.2107	70.042286	0.000294	2.940758	0.996356	0.000118
 485	4.8158e+01	19.2444	70.143215	0.000254	2.535137	0.858928	0.000101
 486	4.8258e+01	19.2989	70.256255	0.000284	2.839353	0.961999	0.000114
 487	4.8357e+01	19.3278	70.413703	0.000395	3.954813	1.339927	0.000158
 488	4.8456e+01	19.3647	70.490409	0.000193	1.926704	0.652785	0.000077
 489	4.8556e+01	19.4128	70.623634	0.000335	3.346380	1.133784	0.000134
 490	4.8656e+01	19.4417	70.708414	0.000213	2.129515	0.721499	0.000085
 491	4.8755e+01	19.4898	70.821454	0.000284	2.839353	0.961999	0.000114
 492	4.8855e+01	19.5235	70.946605	0.000314	3.143569	1.065070	0.000126
 493	4.8954e+01	19.5748	71.039459	0.000233	2.332326	0.790213	0.000093
 494	4.9053e+01	19.6101	71.196907	0.000395	3.954813	1.339927	0.000158
 495	4.9153e+01	19.6438	71.269576	0.000183	1.825298	0.618428	0.000073
 496	4.9252e+01	19.6807	71.435098	0.000416	4.157624	1.408641	0.000166
 497	4.9352e+01	19.7240	71.511804	0.000193	1.926704	0.652785	0.000077
 498	4.9452e+01	19.7706	71.645029	0.000335	3.346380	1.133784	0.000134
 499	4.9551e+01	19.8091	71.741921	0.000243	2.433731	0.824570	0.000097
 500	4.9651e+01	19.8524	71.895332	0.000385	3.853408	1.305570	0.000154
 501	4.9750e+01	19.8845	71.980112	0.000213	2.129515	0.721499	0.000085
 502	4.9849e+01	19.9262	72.072966	0.000233	2.332326	0.790213	0.000093
 503	4.9949e+01	19.9567	72.230414	0.000395	3.954813	1.339927	0.000158
 504	5.0048e+01	19.9214	72.137560	0.000233	2.332326	0.790213	-0.000093
 505	5.0148e+01	19.8861	72.048743	0.000223	2.230920	0.755856	-0.000089
 506	5.0248e+01	19.8492	71.963963	0.000213	2.129515	0.721499	-0.000085
 507	5.0347e+01	19.8139	71.850923	0.000284	2.839353	0.961999	-0.000114
 508	5.0447e+01	19.7641	71.846886	0.000010	0.101405	0.034357	-0.000004
 509	5.0546e+01	19.7192	71.721735	0.000314	3.143569	1.065070	-0.000126
 510	5.0645e+01	19.6823	71.649067	0.000183	1.825298	0.618428	-0.000073
 511	5.0745e+01	19.6519	71.568324	0.000203	2.028109	0.687142	-0.000081
 512	5.0844e+01	19.6053	71.483544	0.000213	2.129515	0.721499	-0.000085
 513	5.0944e+01	19.5620	71.406838	0.000193	1.926704	0.652785	-0.000077
 514	5.1044e+01	19.5299	71.297836	0.000274	2.737948	0.927642	-0.000110
 515	5.1143e+01	19.4802	71.229204	0.000172	1.723893	0.584071	-0.000069
 516	5.1242e+01	19.4481	71.140387	0.000223	2.230920	0.755856	-0.000089
 517	5.1342e+01	19.4064	71.039459	0.000254	2.535137	0.858928	-0.000101
 518	5.1441e+01	19.3695	70.938531	0.000254	2.535137	0.858928	-0.000101
 519	5.1541e+01	19.3198	70.869899	0.000172	1.723893	0.584071	-0.000069
 520	5.1641e+01	19.2845	70.760897	0.000274	2.737948	0.927642	-0.000110
 521	5.1740e+01	19.2524	70.659968	0.000254	2.535137	0.858928	-0.000101
 522	5.1840e+01	19.2091	70.595374	0.000162	1.622487	0.549714	-0.000065
 523	5.1939e+01	19.1722	70.522706	0.000183	1.825298	0.618428	-0.000073
 524	5.2038e+01	19.1337	70.413703	0.000274	2.737948	0.927642	-0.000110
 525	5.2138e+01	19.0823	70.312775	0.000254	2.535137	0.858928	-0.000101
 526	5.2237e+01	19.0551	70.256255	0.000142	1.419676	0.480999	-0.000057
 527	5.2337e+01	19.0053	70.175512	0.000203	2.028109	0.687142	-0.000081
 528	5.2437e+01	18.9733	70.066509	0.000274	2.737948	0.927642	-0.000110
 529	5.2536e+01	18.9316	69.941358	0.000314	3.143569	1.065070	-0.000126
 530	5.2636e+01	18.8995	69.872727	0.000172	1.723893	0.584071	-0.000069
 531	5.2735e+01	18.8465	69.791984	0.000203	2.028109	0.687142	-0.000081
 532	5.2834e+01	18.8112	69.703167	0.000223	2.230920	0.755856	-0.000089
 533	5.2934e+01	18.7663	69.578016	0.000314	3.143569	1.065070	-0.000126
 534	5.3033e+01	18.7310	69.497273	0.000203	2.028109	0.687142	-0.000081
 535	5.3133e+01	18.6941	69.384233	0.000284	2.839353	0.961999	-0.000114
 536	5.3233e+01	18.6556	69.311565	0.000183	1.825298	0.618428	-0.000073
 537	5.3332e+01	18.6091	69.222748	0.000223	2.230920	0.755856	-0.000089
 538	5.3431e+01	18.5754	69.101634	0.000304	3.042164	1.030713	-0.000122
 539	5.3531e+01	18.5401	69.028965	0.000183	1.825298	0.618428	-0.000073
 540	5.3630e+01	18.4920	68.936111	0.000233	2.332326	0.790213	-0.000093
 541	5.3730e+01	18.4455	68.806923	0.000324	3.244975	1.099427	-0.000130
 542	5.3830e+01	18.4102	68.734255	0.000183	1.825298	0.618428	-0.000073
 543	5.3929e+01	18.3604	68.633326	0.000254	2.535137	0.858928	-0.000101
 544	5.4029e+01	18.3332	68.560658	0.000183	1.825298	0.618428	-0.000073
 545	5.4128e+01	18.2883	68.475878	0.000213	2.129515	0.721499	-0.000085
 546	5.4227e+01	18.2578	68.314392	0.000406	4.056219	1.374284	-0.000162
 547	5.4327e+01	18.2193	68.249798	0.000162	1.622487	0.549714	-0.000065
 548	5.4426e+01	18.1856	68.173093	0.000193	1.926704	0.652785	-0.000077
 549	5.4526e+01	18.1326	68.080239	0.000233	2.332326	0.790213	-0.000093
 550	5.4626e+01	18.0974	67.947013	0.000335	3.346380	1.133784	-0.000134
 551	5.4725e+01	18.0540	67.870307	0.000193	1.926704	0.652785	-0.000077
 552	5.4825e+01	18.0220	67.753231	0.000294	2.940758	0.996356	-0.000118
 553	5.4924e+01	17.9690	67.664414	0.000223	2.230920	0.755856	-0.000089
 554	5.5023e+01	17.9321	67.591745	0.000183	1.825298	0.618428	-0.000073
 555	5.5123e+01	17.8952	67.482742	0.000274	2.737948	0.927642	-0.000110
 556	5.5222e+01	17.8519	67.369703	0.000284	2.839353	0.961999	-0.000114
 557	5.5322e+01	17.8102	67.276849	0.000233	2.332326	0.790213	-0.000093
 558	5.5422e+01	17.7781	67.216291	0.000152	1.521082	0.515357	-0.000061
 559	5.5521e+01	17.7348	67.091140	0.000314	3.143569	1.065070	-0.000126
 560	5.5620e+01	17.6899	66.965989	0.000314	3.143569	1.065070	-0.000126
 561	5.5720e+01	17.6530	66.869098	0.000243	2.433731	0.824570	-0.000097
 562	5.5819e+01	17.6097	66.768169	0.000254	2.535137	0.858928	-0.000101
 563	5.5919e+01	17.5696	66.695501	0.000183	1.825298	0.618428	-0.000073
 564	5.6019e+01	17.5343	66.598610	0.000243	2.433731	0.824570	-0.000097
 565	5.6118e+01	17.4958	66.473458	0.000314	3.143569	1.065070	-0.000126
 566	5.6218e+01	17.4637	66.392716	0.000203	2.028109	0.687142	-0.000081
 567	5.6317e+01	17.4123	66.291787	0.000254	2.535137	0.858928	-0.000101
 568	5.6416e+01	17.3706	66.170673	0.000304	3.042164	1.030713	-0.000122
 569	5.6516e+01	17.3321	66.073782	0.000243	2.433731	0.824570	-0.000097
 570	5.6615e+01	17.2968	65.997076	0.000193	1.926704	0.652785	-0.000077
 571	5.6715e+01	17.2471	65.871925	0.000314	3.143569	1.065070	-0.000126
 572	5.6815e+01	17.2198	65.766960	0.000264	2.636542	0.893285	-0.000105
 573	5.6914e+01	17.1733	65.670068	0.000243	2.433731	0.824570	-0.000097
 574	5.7014e+01	17.1364	65.577214	0.000233	2.332326	0.790213	-0.000093
 575	5.7113e+01	17.1027	65.431877	0.000365	3.650597	1.236856	-0.000146
 576	5.7212e+01	17.0562	65.383432	0.000122	1.216866	0.412285	-0.000049
 577	5.7312e+01	17.0145	65.274429	0.000274	2.737948	0.927642	-0.000110
 578	5.7411e+01	16.9712	65.161389	0.000284	2.839353	0.961999	-0.000114
 579	5.7511e+01	16.9359	65.056424	0.000264	2.636542	0.893285	-0.000105
 580	5.7611e+01	16.9006	64.923198	0.000335	3.346380	1.133784	-0.000134
 581	5.7710e+01	16.8557	64.870716	0.000132	1.318271	0.446642	-0.000053
 582	5.7809e+01	16.8252	64.753639	0.000294	2.940758	0.996356	-0.000118
 583	5.7909e+01	16.7787	64.697119	0.000142	1.419676	0.480999	-0.000057
 584	5.8008e+01	16.7434	64.559856	0.000345	3.447786	1.168141	-0.000138
 585	5.8108e+01	16.6969	64.479113	0.000203	2.028109	0.687142	-0.000081
 586	5.8208e+01	16.6535	64.313591	0.000416	4.157624	1.408641	-0.000166
 587	5.8307e+01	16.6263	64.236885	0.000193	1.926704	0.652785	-0.000077
 588	5.8407e+01	16.5797	64.131920	0.000264	2.636542	0.893285	-0.000105
 589	5.8506e+01	16.5428	64.039066	0.000233	2.332326	0.790213	-0.000093
 590	5.8605e+01	16.4963	63.905840	0.000335	3.346380	1.133784	-0.000134
 591	5.8705e+01	16.4578	63.869506	0.000091	0.912649	0.309214	-0.000037
 592	5.8804e+01	16.4193	63.728206	0.000355	3.549191	1.202499	-0.000142
 593	5.8904e+01	16.3872	63.631315	0.000243	2.433731	0.824570	-0.000097
 594	5.9004e+01	16.3359	63.514238	0.000294	2.940758	0.996356	-0.000118
 595	5.9103e+01	16.3054	63.421384	0.000233	2.332326	0.790213	-0.000093
 596	5.9203e+01	16.2605	63.332567	0.000223	2.230920	0.755856	-0.000089
 597	5.9302e+01	16.2252	63.158970	0.000436	4.360435	1.477355	-0.000174
 598	5.9401e+01	16.1819	63.082264	0.000193	1.926704	0.652785	-0.000077
 599	5.9501e+01	16.1354	62.965188	0.000294	2.940758	0.996356	-0.000118
 600	5.9600e+01	16.1065	62.852148	0.000284	2.839353	0.961999	-0.000114
 601	5.9700e+01	16.0600	62.771405	0.000203	2.028109	0.687142	-0.000081
 602	5.9800e+01	16.0199	62.650291	0.000304	3.042164	1.030713	-0.000122
 603	5.9899e+01	15.9862	62.549363	0.000254	2.535137	0.858928	-0.000101
 604	5.9998e+01	15.9397	62.440360	0.000274	2.737948	0.927642	-0.000110
 605	6.0098e+01	15.9012	62.343469	0.000243	2.433731	0.824570	-0.000097
 606	6.0197e+01	15.8627	62.258689	0.000213	2.129515	0.721499	-0.000085
 607	6.0297e+01	15.8274	62.105278	0.000385	3.853408	1.305570	-0.000154
 608	6.0397e+01	15.7792	62.008386	0.000243	2.433731	0.824570	-0.000097
 609	6.0496e+01	15.7407	61.931681	0.000193	1.926704	0.652785	-0.000077
 610	6.0596e+01	15.6910	61.830752	0.000254	2.535137	0.858928	-0.000101
 611	6.0695e+01	15.6621	61.721750	0.000274	2.737948	0.927642	-0.000110
 612	6.0794e+01	15.6236	61.604673	0.000294	2.940758	0.996356	-0.000118
 613	6.0894e+01	15.5787	61.495670	0.000274	2.737948	0.927642	-0.000110
 614	6.0993e+01	15.5434	61.382630	0.000284	2.839353	0.961999	-0.000114
 615	6.1093e+01	15.5017	61.293813	0.000223	2.230920	0.755856	-0.000089
 616	6.1193e+01	15.4632	61.192885	0.000254	2.535137	0.858928	-0.000101
 617	6.1292e+01	15.4247	61.055622	0.000345	3.447786	1.168141	-0.000138
 618	6.1392e+01	15.3798	60.934508	0.000304	3.042164	1.030713	-0.000122
 619	6.1491e+01	15.3429	60.853766	0.000203	2.028109	0.687142	-0.000081
 620	6.1590e+01	15.3060	60.724577	0.000324	3.244975	1.099427	-0.000130
 621	6.1690e+01	15.2643	60.591352	0.000335	3.346380	1.133784	-0.000134
 622	6.1789e+01	15.2178	60.498498	0.000233	2.332326	0.790213	-0.000093
 623	6.1889e+01	15.1793	60.413718	0.000213	2.129515	0.721499	-0.000085
 624	6.1989e+01	15.1424	60.272418	0.000355	3.549191	1.202499	-0.000142
 625	6.2088e+01	15.1055	60.167452	0.000264	2.636542	0.893285	-0.000105
 626	6.2188e+01	15.0589	60.074598	0.000233	2.332326	0.790213	-0.000093
 627	6.2287e+01	15.0124	59.929261	0.000365	3.650597	1.236856	-0.000146
 628	6.2386e+01	14.9771	59.820259	0.000274	2.737948	0.927642	-0.000110
 629	6.2486e+01	14.9482	59.743553	0.000193	1.926704	0.652785	-0.000077
 630	6.2586e+01	14.9162	59.642625	0.000254	2.535137	0.858928	-0.000101
 631	6.2685e+01	14.8664	59.517474	0.000314	3.143569	1.065070	-0.000126
 632	6.2785e+01	14.8295	59.408471	0.000274	2.737948	0.927642	-0.000110
 633	6.2884e+01	14.7862	59.299468	0.000274	2.737948	0.927642	-0.000110
 634	6.2983e+01	14.7493	59.190466	0.000274	2.737948	0.927642	-0.000110
 635	6.3083e+01	14.6996	59.057240	0.000335	3.346380	1.133784	-0.000134
 636	6.3182e+01	14.6739	58.960349	0.000243	2.433731	0.824570	-0.000097
 637	6.3282e+01	14.6242	58.827123	0.000335	3.346380	1.133784	-0.000134
 638	6.3382e+01	14.5809	58.710046	0.000294	2.940758	0.996356	-0.000118
 639	6.3481e+01	14.5376	58.633341	0.000193	1.926704	0.652785	-0.000077
 640	6.3581e+01	14.5039	58.500115	0.000335	3.346380	1.133784	-0.000134
 641	6.3680e+01	14.4686	58.403224	0.000243	2.433731	0.824570	-0.000097
 642	6.3779e+01	14.4285	58.278073	0.000314	3.143569	1.065070	-0.000126
 643	6.3879e+01	14.3836	58.160996	0.000294	2.940758	0.996356	-0.000118
 644	6.3978e+01	14.3531	58.076216	0.000213	2.129515	0.721499	-0.000085
 645	6.4078e+01	14.3098	57.926842	0.000375	3.752002	1.271213	-0.000150
 646	6.4177e+01	14.2713	57.821877	0.000264	2.636542	0.893285	-0.000105
 647	6.4277e+01	14.2328	57.724985	0.000243	2.433731	0.824570	-0.000097
 648	6.4376e+01	14.1814	57.620020	0.000264	2.636542	0.893285	-0.000105
 649	6.4476e+01	14.1541	57.519091	0.000254	2.535137	0.858928	-0.000101
 650	6.4576e+01	14.1044	57.385866	0.000335	3.346380	1.133784	-0.000134
 651	6.4675e+01	14.0723	57.260715	0.000314	3.143569	1.065070	-0.000126
 652	6.4775e+01	14.0242	57.139601	0.000304	3.042164	1.030713	-0.000122
 653	6.4874e+01	13.9937	57.022524	0.000294	2.940758	0.996356	-0.000118
 654	6.4974e+01	13.9520	56.885261	0.000345	3.447786	1.168141	-0.000138
 655	6.5073e+01	13.9119	56.792407	0.000233	2.332326	0.790213	-0.000093
 656	6.5172e+01	13.8734	56.687441	0.000264	2.636542	0.893285	-0.000105
 657	6.5272e+01	13.8253	56.590550	0.000243	2.433731	0.824570	-0.000097
 658	6.5371e+01	13.7916	56.501733	0.000223	2.230920	0.755856	-0.000089
 659	6.5471e+01	13.7515	56.340248	0.000406	4.056219	1.374284	-0.000162
 660	6.5570e+01	13.6985	56.211059	0.000324	3.244975	1.099427	-0.000130
 661	6.5670e+01	13.6681	56.114168	0.000243	2.433731	0.824570	-0.000097
 662	6.5769e+01	13.6280	56.033425	0.000203	2.028109	0.687142	-0.000081
 663	6.5869e+01	13.5911	55.908274	0.000314	3.143569	1.065070	-0.000126
 664	6.5969e+01	13.5413	55.762937	0.000365	3.650597	1.236856	-0.000146
 665	6.6068e+01	13.5092	55.678158	0.000213	2.129515	0.721499	-0.000085
 666	6.6168e+01	13.4659	55.540895	0.000345	3.447786	1.168141	-0.000138
 667	6.6267e+01	13.4371	55.415744	0.000314	3.143569	1.065070	-0.000126
 668	6.6367e+01	13.3921	55.326927	0.000223	2.230920	0.755856	-0.000089
 669	6.6466e+01	13.3456	55.189664	0.000345	3.447786	1.168141	-0.000138
 670	6.6566e+01	13.3135	55.064513	0.000314	3.143569	1.065070	-0.000126
 671	6.6665e+01	13.2686	54.967622	0.000243	2.433731	0.824570	-0.000097
 672	6.6764e+01	13.2301	54.830359	0.000345	3.447786	1.168141	-0.000138
 673	6.6864e+01	13.1948	54.717319	0.000284	2.839353	0.961999	-0.000114
 674	6.6963e+01	13.1499	54.604279	0.000284	2.839353	0.961999	-0.000114
 675	6.7063e+01	13.1130	54.495277	0.000274	2.737948	0.927642	-0.000110
 676	6.7162e+01	13.0649	54.394348	0.000254	2.535137	0.858928	-0.000101
 677	6.7262e+01	13.0312	54.261123	0.000335	3.346380	1.133784	-0.000134
 678	6.7362e+01	12.9975	54.123860	0.000345	3.447786	1.168141	-0.000138
 679	6.7461e+01	12.9494	54.055229	0.000172	1.723893	0.584071	-0.000069
 680	6.7561e+01	12.9044	53.889706	0.000416	4.157624	1.408641	-0.000166
 681	6.7660e+01	12.8788	53.784741	0.000264	2.636542	0.893285	-0.000105
 682	6.7760e+01	12.8307	53.675738	0.000274	2.737948	0.927642	-0.000110
 683	6.7859e+01	12.7905	53.534438	0.000355	3.549191	1.202499	-0.000142
 684	6.7959e+01	12.7601	53.453696	0.000203	2.028109	0.687142	-0.000081
 685	6.8058e+01	12.7151	53.320470	0.000335	3.346380	1.133784	-0.000134
 686	6.8157e+01	12.6750	53.187245	0.000335	3.346380	1.133784	-0.000134
 687	6.8257e+01	12.6414	53.082279	0.000264	2.636542	0.893285	-0.000105
 688	6.8356e+01	12.6012	52.957128	0.000314	3.143569	1.065070	-0.000126
 689	6.8456e+01	12.5644	52.811791	0.000365	3.650597	1.236856	-0.000146
 690	6.8555e+01	12.5082	52.714900	0.000243	2.433731	0.824570	-0.000097
 691	6.8655e+01	12.4809	52.626083	0.000223	2.230920	0.755856	-0.000089
 692	6.8754e+01	12.4344	52.509006	0.000294	2.940758	0.996356	-0.000118
 693	6.8854e+01	12.3895	52.355595	0.000385	3.853408	1.305570	-0.000154
 694	6.8954e+01	12.3526	52.250629	0.000264	2.636542	0.893285	-0.000105
 695	6.9053e+01	12.3141	52.133552	0.000294	2.940758	0.996356	-0.000118
 696	6.9153e+01	12.2820	51.984178	0.000375	3.752002	1.271213	-0.000150
 697	6.9252e+01	12.2259	51.850953	0.000335	3.346380	1.133784	-0.000134
 698	6.9352e+01	12.1954	51.725802	0.000314	3.143569	1.065070	-0.000126
 699	6.9451e+01	12.1601	51.616799	0.000274	2.737948	0.927642	-0.000110
 700	6.9550e+01	12.1200	51.556242	0.000152	1.521082	0.515357	-0.000061
 701	6.9650e+01	12.0799	51.382645	0.000436	4.360435	1.477355	-0.000174
 702	6.9749e+01	12.0350	51.269605	0.000284	2.839353	0.961999	-0.000114
 703	6.9849e+01	11.9916	51.156566	0.000284	2.839353	0.961999	-0.000114
 704	6.9948e+01	11.9531	51.031414	0.000314	3.143569	1.065070	-0.000126
 705	7.0048e+01	11.9162	50.910300	0.000304	3.042164	1.030713	-0.000122
 706	7.0147e+01	11.8874	50.756889	0.000385	3.853408	1.305570	-0.000154
 707	7.0247e+01	11.8457	50.680183	0.000193	1.926704	0.652785	-0.000077
 708	7.0347e+01	11.8023	50.550995	0.000324	3.244975	1.099427	-0.000130
 709	7.0446e+01	11.7590	50.433918	0.000294	2.940758	0.996356	-0.000118
 710	7.0546e+01	11.7141	50.296656	0.000345	3.447786	1.168141	-0.000138
 711	7.0645e+01	11.6804	50.151319	0.000365	3.650597	1.236856	-0.000146
 712	7.0745e+01	11.6483	50.050390	0.000254	2.535137	0.858928	-0.000101
 713	7.0844e+01	11.6034	49.913128	0.000345	3.447786	1.168141	-0.000138
 714	7.0944e+01	11.5585	49.800088	0.000284	2.839353	0.961999	-0.000114
 715	7.1043e+01	11.5136	49.683011	0.000294	2.940758	0.996356	-0.000118
 716	7.1142e+01	11.4799	49.565934	0.000294	2.940758	0.996356	-0.000118
 717	7.1242e+01	11.4350	49.428671	0.000345	3.447786	1.168141	-0.000138
 718	7.1341e+01	11.4045	49.295446	0.000335	3.346380	1.133784	-0.000134
 719	7.1441e+01	11.3628	49.154146	0.000355	3.549191	1.202499	-0.000142
 720	7.1540e+01	11.3195	49.057255	0.000243	2.433731	0.824570	-0.000097
 721	7.1640e+01	11.2858	48.924029	0.000335	3.346380	1.133784	-0.000134
 722	7.1740e+01	11.2377	48.766581	0.000395	3.954813	1.339927	-0.000158
 723	7.1839e+01	11.2008	48.637393	0.000324	3.244975	1.099427	-0.000130
 724	7.1939e+01	11.1655	48.532427	0.000264	2.636542	0.893285	-0.000105
 725	7.2038e+01	11.1189	48.403239	0.000324	3.244975	1.099427	-0.000130
 726	7.2138e+01	11.0756	48.249828	0.000385	3.853408	1.305570	-0.000154
 727	7.2237e+01	11.0435	48.173122	0.000193	1.926704	0.652785	-0.000077
 728	7.2337e+01	11.0034	48.076231	0.000243	2.433731	0.824570	-0.000097
 729	7.2436e+01	10.9569	47.914746	0.000406	4.056219	1.374284	-0.000162
 730	7.2535e+01	10.9264	47.757297	0.000395	3.954813	1.339927	-0.000158
 731	7.2635e+01	10.8719	47.652332	0.000264	2.636542	0.893285	-0.000105
 732	7.2734e+01	10.8430	47.519106	0.000335	3.346380	1.133784	-0.000134
 733	7.2834e+01	10.8013	47.434326	0.000213	2.129515	0.721499	-0.000085
 734	7.2933e+01	10.7676	47.268804	0.000416	4.157624	1.408641	-0.000166
 735	7.3033e+01	10.7115	47.127504	0.000355	3.549191	1.202499	-0.000142
 736	7.3132e+01	10.6906	47.014464	0.000284	2.839353	0.961999	-0.000114
 737	7.3232e+01	10.6425	46.897387	0.000294	2.940758	0.996356	-0.000118
 738	7.3332e+01	10.6008	46.776273	0.000304	3.042164	1.030713	-0.000122
 739	7.3431e+01	10.5687	46.602676	0.000436	4.360435	1.477355	-0.000174
 740	7.3531e+01	10.5270	46.521934	0.000203	2.028109	0.687142	-0.000081
 741	7.3630e+01	10.4853	46.352374	0.000426	4.259029	1.442998	-0.000170
 742	7.3730e+01	10.4420	46.259520	0.000233	2.332326	0.790213	-0.000093
 743	7.3829e+01	10.3986	46.102072	0.000395	3.954813	1.339927	-0.000158
 744	7.3928e+01	10.3682	45.997106	0.000264	2.636542	0.893285	-0.000105
 745	7.4028e+01	10.3232	45.875992	0.000304	3.042164	1.030713	-0.000122
 746	7.4127e+01	10.2799	45.734692	0.000355	3.549191	1.202499	-0.000142
 747	7.4227e+01	10.2446	45.597430	0.000345	3.447786	1.168141	-0.000138
 748	7.4326e+01	10.2190	45.468241	0.000324	3.244975	1.099427	-0.000130
 749	7.4426e+01	10.1644	45.371350	0.000243	2.433731	0.824570	-0.000097
 750	7.4525e+01	10.1195	45.213902	0.000395	3.954813	1.339927	-0.000158
 751	7.4625e+01	10.0906	45.092788	0.000304	3.042164	1.030713	-0.000122
 752	7.4725e+01	10.0361	44.971674	0.000304	3.042164	1.030713	-0.000122
 753	7.4824e+01	10.0040	44.794040	0.000446	4.461840	1.511712	-0.000179
 754	7.4924e+01	9.9655	44.676963	0.000294	2.940758	0.996356	-0.000118
 755	7.5023e+01	9.9302	44.563923	0.000284	2.839353	0.961999	-0.000114
 756	7.5123e+01	9.8821	44.422623	0.000355	3.549191	1.202499	-0.000142
 757	7.5222e+01	9.8452	44.285360	0.000345	3.447786	1.168141	-0.000138
 758	7.5322e+01	9.8115	44.160209	0.000314	3.143569	1.065070	-0.000126
 759	7.5421e+01	9.7569	44.031021	0.000324	3.244975	1.099427	-0.000130
 760	7.5520e+01	9.7233	43.905870	0.000314	3.143569	1.065070	-0.000126
 761	7.5620e+01	9.6751	43.788793	0.000294	2.940758	0.996356	-0.000118
 762	7.5719e+01	9.6446	43.615196	0.000436	4.360435	1.477355	-0.000174
 763	7.5819e+01	9.6110	43.502156	0.000284	2.839353	0.961999	-0.000114
 764	7.5918e+01	9.5676	43.368931	0.000335	3.346380	1.133784	-0.000134
 765	7.6018e+01	9.5259	43.268002	0.000254	2.535137	0.858928	-0.000101
 766	7.6118e+01	9.4906	43.090368	0.000446	4.461840	1.511712	-0.000179
 767	7.6217e+01	9.4537	42.940994	0.000375	3.752002	1.271213	-0.000150
 768	7.6317e+01	9.4072	42.815843	0.000314	3.143569	1.065070	-0.000126
 769	7.6416e+01	9.3687	42.722989	0.000233	2.332326	0.790213	-0.000093
 770	7.6516e+01	9.3334	42.549392	0.000436	4.360435	1.477355	-0.000174
 771	7.6615e+01	9.2837	42.408092	0.000355	3.549191	1.202499	-0.000142
 772	7.6715e+01	9.2500	42.315238	0.000233	2.332326	0.790213	-0.000093
 773	7.6814e+01	9.2051	42.177976	0.000345	3.447786	1.168141	-0.000138
 774	7.6913e+01	9.1666	42.040713	0.000345	3.447786	1.168141	-0.000138
 775	7.7013e+01	9.1281	41.863079	0.000446	4.461840	1.511712	-0.000179
 776	7.7112e+01	9.0864	41.774262	0.000223	2.230920	0.755856	-0.000089
 777	7.7212e+01	9.0447	41.612777	0.000406	4.056219	1.374284	-0.000162
 778	7.7311e+01	9.0126	41.471477	0.000355	3.549191	1.202499	-0.000142
 779	7.7411e+01	8.9725	41.362474	0.000274	2.737948	0.927642	-0.000110
 780	7.7510e+01	8.9324	41.184840	0.000446	4.461840	1.511712	-0.000179
 781	7.7610e+01	8.8955	41.083912	0.000254	2.535137	0.858928	-0.000101
 782	7.7710e+01	8.8586	40.938575	0.000365	3.650597	1.236856	-0.000146
 783	7.7809e+01	8.8088	40.813424	0.000314	3.143569	1.065070	-0.000126
 784	7.7909e+01	8.7719	40.660013	0.000385	3.853408	1.305570	-0.000154
 785	7.8008e+01	8.7334	40.514676	0.000365	3.650597	1.236856	-0.000146
 786	7.8108e+01	8.6949	40.417784	0.000243	2.433731	0.824570	-0.000097
 787	7.8207e+01	8.6500	40.284559	0.000335	3.346380	1.133784	-0.000134
 788	7.8306e+01	8.6163	40.159408	0.000314	3.143569	1.065070	-0.000126
 789	7.8406e+01	8.5650	39.981774	0.000446	4.461840	1.511712	-0.000179
 790	7.8505e+01	8.5409	39.852585	0.000324	3.244975	1.099427	-0.000130
 791	7.8605e+01	8.4880	39.707249	0.000365	3.650597	1.236856	-0.000146
 792	7.8704e+01	8.4527	39.586134	0.000304	3.042164	1.030713	-0.000122
 793	7.8804e+01	8.4158	39.420612	0.000416	4.157624	1.408641	-0.000166
 794	7.8903e+01	8.3709	39.339869	0.000203	2.028109	0.687142	-0.000081
 795	7.9003e+01	8.3260	39.174347	0.000416	4.157624	1.408641	-0.000166
 796	7.9103e+01	8.2827	39.012861	0.000406	4.056219	1.374284	-0.000162
 797	7.9202e+01	8.2570	38.879636	0.000335	3.346380	1.133784	-0.000134
 798	7.9302e+01	8.2073	38.746410	0.000335	3.346380	1.133784	-0.000134
 799	7.9401e+01	8.1720	38.621259	0.000314	3.143569	1.065070	-0.000126
 800	7.9501e+01	8.1367	38.459774	0.000406	4.056219	1.374284	-0.000162
 801	7.9600e+01	8.0934	38.366919	0.000233	2.332326	0.790213	-0.000093
 802	7.9700e+01	8.0516	38.156988	0.000527	5.273084	1.786569	-0.000211
 803	7.9799e+01	8.0180	38.088357	0.000172	1.723893	0.584071	-0.000069
 804	7.9898e+01	7.9730	37.890537	0.000497	4.968868	1.683498	-0.000199
 805	7.9998e+01	7.9329	37.785572	0.000264	2.636542	0.893285	-0.000105
 806	8.0097e+01	7.8960	37.644272	0.000355	3.549191	1.202499	-0.000142
 807	8.0197e+01	7.8527	37.474712	0.000426	4.259029	1.442998	-0.000170
 808	8.0296e+01	7.8142	37.353598	0.000304	3.042164	1.030713	-0.000122
 809	8.0396e+01	7.7645	37.208262	0.000365	3.650597	1.236856	-0.000146
 810	8.0496e+01	7.7356	37.075036	0.000335	3.346380	1.133784	-0.000134
 811	8.0595e+01	7.6923	36.921625	0.000385	3.853408	1.305570	-0.000154
 812	8.0695e+01	7.6554	36.772251	0.000375	3.752002	1.271213	-0.000150
 813	8.0794e+01	7.6185	36.639025	0.000335	3.346380	1.133784	-0.000134
 814	8.0894e+01	7.5672	36.505800	0.000335	3.346380	1.133784	-0.000134
 815	8.0993e+01	7.5287	36.392760	0.000284	2.839353	0.961999	-0.000114
 816	8.1093e+01	7.4870	36.227238	0.000416	4.157624	1.408641	-0.000166
 817	8.1192e+01	7.4501	36.130346	0.000243	2.433731	0.824570	-0.000097
 818	8.1291e+01	7.4100	35.936564	0.000487	4.867462	1.649141	-0.000195
 819	8.1391e+01	7.3827	35.762967	0.000436	4.360435	1.477355	-0.000174
 820	8.1490e+01	7.3362	35.674150	0.000223	2.230920	0.755856	-0.000089
 821	8.1590e+01	7.2961	35.532850	0.000355	3.549191	1.202499	-0.000142
 822	8.1689e+01	7.2640	35.330993	0.000507	5.070273	1.717855	-0.000203
 823	8.1789e+01	7.2190	35.209879	0.000304	3.042164	1.030713	-0.000122
 824	8.1888e+01	7.1757	35.068580	0.000355	3.549191	1.202499	-0.000142
 825	8.1988e+01	7.1308	34.931317	0.000345	3.447786	1.168141	-0.000138
 826	8.2088e+01	7.0971	34.790017	0.000355	3.549191	1.202499	-0.000142
 827	8.2187e+01	7.0538	34.628532	0.000406	4.056219	1.374284	-0.000162
 828	8.2287e+01	7.0233	34.475121	0.000385	3.853408	1.305570	-0.000154
 829	8.2386e+01	6.9752	34.366118	0.000274	2.737948	0.927642	-0.000110
 830	8.2486e+01	6.9431	34.188484	0.000446	4.461840	1.511712	-0.000179
 831	8.2585e+01	6.8998	34.095630	0.000233	2.332326	0.790213	-0.000093
 832	8.2684e+01	6.8517	33.905884	0.000477	4.766057	1.614784	-0.000191
 833	8.2784e+01	6.8180	33.760548	0.000365	3.650597	1.236856	-0.000146
 834	8.2883e+01	6.7747	33.623285	0.000345	3.447786	1.168141	-0.000138
 835	8.2983e+01	6.7410	33.477948	0.000365	3.650597	1.236856	-0.000146
 836	8.3082e+01	6.7041	33.352797	0.000314	3.143569	1.065070	-0.000126
 837	8.3182e+01	6.6544	33.163052	0.000477	4.766057	1.614784	-0.000191
 838	8.3281e+01	6.6191	33.029826	0.000335	3.346380	1.133784	-0.000134
 839	8.3381e+01	6.5806	32.892563	0.000345	3.447786	1.168141	-0.000138
 840	8.3481e+01	6.5324	32.727041	0.000416	4.157624	1.408641	-0.000166
 841	8.3580e+01	6.4939	32.605927	0.000304	3.042164	1.030713	-0.000122
 842	8.3680e+01	6.4490	32.456553	0.000375	3.752002	1.271213	-0.000150
 843	8.3779e+01	6.4282	32.323327	0.000335	3.346380	1.133784	-0.000134
 844	8.3879e+01	6.3897	32.169916	0.000385	3.853408	1.305570	-0.000154
 845	8.3978e+01	6.3399	32.040728	0.000324	3.244975	1.099427	-0.000130
 846	8.4078e+01	6.3046	31.891354	0.000375	3.752002	1.271213	-0.000150
 847	8.4177e+01	6.2597	31.750054	0.000355	3.549191	1.202499	-0.000142
 848	8.4276e+01	6.2244	31.596643	0.000385	3.853408	1.305570	-0.000154
 849	8.4376e+01	6.1747	31.455343	0.000355	3.549191	1.202499	-0.000142
 850	8.4475e+01	6.1362	31.297895	0.000395	3.954813	1.339927	-0.000158
 851	8.4575e+01	6.0961	31.132372	0.000416	4.157624	1.408641	-0.000166
 852	8.4674e+01	6.0672	30.974924	0.000395	3.954813	1.339927	-0.000158
 853	8.4774e+01	6.0255	30.845736	0.000324	3.244975	1.099427	-0.000130
 854	8.4874e+01	5.9870	30.676176	0.000426	4.259029	1.442998	-0.000170
 855	8.4973e+01	5.9389	30.530839	0.000365	3.650597	1.236856	-0.000146
 856	8.5073e+01	5.8940	30.389539	0.000355	3.549191	1.202499	-0.000142
 857	8.5172e+01	5.8651	30.248240	0.000355	3.549191	1.202499	-0.000142
 858	8.5272e+01	5.8153	30.086754	0.000406	4.056219	1.374284	-0.000162
 859	8.5371e+01	5.7801	29.961603	0.000314	3.143569	1.065070	-0.000126
 860	8.5471e+01	5.7496	29.820303	0.000355	3.549191	1.202499	-0.000142
 861	8.5570e+01	5.7047	29.679003	0.000355	3.549191	1.202499	-0.000142
 862	8.5669e+01	5.6629	29.509444	0.000426	4.259029	1.442998	-0.000170
 863	8.5769e+01	5.6212	29.356033	0.000385	3.853408	1.305570	-0.000154
 864	8.5868e+01	5.5875	29.178399	0.000446	4.461840	1.511712	-0.000179
 865	8.5968e+01	5.5426	29.033062	0.000365	3.650597	1.236856	-0.000146
 866	8.6067e+01	5.5041	28.879651	0.000385	3.853408	1.305570	-0.000154
 867	8.6167e+01	5.4688	28.730276	0.000375	3.752002	1.271213	-0.000150
 868	8.6266e+01	5.4175	28.593014	0.000345	3.447786	1.168141	-0.000138
 869	8.6366e+01	5.3854	28.379046	0.000537	5.374490	1.820926	-0.000215
 870	8.6466e+01	5.3405	28.253894	0.000314	3.143569	1.065070	-0.000126
 871	8.6565e+01	5.3068	28.112595	0.000355	3.549191	1.202499	-0.000142
 872	8.6665e+01	5.2603	27.963221	0.000375	3.752002	1.271213	-0.000150
 873	8.6764e+01	5.2266	27.781550	0.000456	4.563246	1.546070	-0.000183
 874	8.6864e+01	5.1913	27.660436	0.000304	3.042164	1.030713	-0.000122
 875	8.6963e+01	5.1448	27.527210	0.000335	3.346380	1.133784	-0.000134
 876	8.7063e+01	5.1031	27.349576	0.000446	4.461840	1.511712	-0.000179
 877	8.7162e+01	5.0694	27.192128	0.000395	3.954813	1.339927	-0.000158
 878	8.7261e+01	5.0261	27.046791	0.000365	3.650597	1.236856	-0.000146
 879	8.7361e+01	4.9844	26.889343	0.000395	3.954813	1.339927	-0.000158
 880	8.7460e+01	4.9475	26.731894	0.000395	3.954813	1.339927	-0.000158
 881	8.7560e+01	4.9073	26.562335	0.000426	4.259029	1.442998	-0.000170
 882	8.7659e+01	4.8721	26.408923	0.000385	3.853408	1.305570	-0.000154
 883	8.7759e+01	4.8255	26.263587	0.000365	3.650597	1.236856	-0.000146
 884	8.7859e+01	4.7983	26.110175	0.000385	3.853408	1.305570	-0.000154
 885	8.7958e+01	4.7405	25.944653	0.000416	4.157624	1.408641	-0.000166
 886	8.8058e+01	4.7020	25.783167	0.000406	4.056219	1.374284	-0.000162
 887	8.8157e+01	4.6747	25.637831	0.000365	3.650597	1.236856	-0.000146
 888	8.8257e+01	4.6234	25.496531	0.000355	3.549191	1.202499	-0.000142
 889	8.8356e+01	4.5881	25.318897	0.000446	4.461840	1.511712	-0.000179
 890	8.8456e+01	4.5480	25.185671	0.000335	3.346380	1.133784	-0.000134
 891	8.8555e+01	4.5191	25.024186	0.000406	4.056219	1.374284	-0.000162
 892	8.8654e+01	4.4726	24.874812	0.000375	3.752002	1.271213	-0.000150
 893	8.8754e+01	4.4229	24.676992	0.000497	4.968868	1.683498	-0.000199
 894	8.8853e+01	4.3908	24.580101	0.000243	2.433731	0.824570	-0.000097
 895	8.8953e+01	4.3555	24.410541	0.000426	4.259029	1.442998	-0.000170
 896	8.9052e+01	4.3186	24.240982	0.000426	4.259029	1.442998	-0.000170
 897	8.9152e+01	4.2689	24.095645	0.000365	3.650597	1.236856	-0.000146
 898	8.9251e+01	4.2368	23.926085	0.000426	4.259029	1.442998	-0.000170
 899	8.9351e+01	4.1870	23.744414	0.000456	4.563246	1.546070	-0.000183
 900	8.9451e+01	4.1534	23.599077	0.000365	3.650597	1.236856	-0.000146
 901	8.9550e+01	4.1229	23.445666	0.000385	3.853408	1.305570	-0.000154
 902	8.9650e+01	4.0715	23.300329	0.000365	3.650597	1.236856	-0.000146
 903	8.9749e+01	4.0362	23.094435	0.000517	5.171679	1.752212	-0.000207
 904	8.9849e+01	3.9897	22.973321	0.000304	3.042164	1.030713	-0.000122
 905	8.9948e+01	3.9512	22.823947	0.000375	3.752002	1.271213	-0.000150
 906	9.0047e+01	3.9063	22.638239	0.000466	4.664651	1.580427	-0.000187
 907	9.0147e+01	3.8614	22.472716	0.000416	4.157624	1.408641	-0.000166
 908	9.0246e+01	3.8341	22.291045	0.000456	4.563246	1.546070	-0.000183
 909	9.0346e+01	3.7860	22.149745	0.000355	3.549191	1.202499	-0.000142
 910	9.0445e+01	3.7411	22.024594	0.000314	3.143569	1.065070	-0.000126
 911	9.0545e+01	3.7106	21.875220	0.000375	3.752002	1.271213	-0.000150
 912	9.0644e+01	3.6817	21.673363	0.000507	5.070273	1.717855	-0.000203
 913	9.0744e+01	3.6304	21.519952	0.000385	3.853408	1.305570	-0.000154
 914	9.0844e+01	3.5935	21.378652	0.000355	3.549191	1.202499	-0.000142
 915	9.0943e+01	3.5454	21.196981	0.000456	4.563246	1.546070	-0.000183
 916	9.1043e+01	3.5117	21.047607	0.000375	3.752002	1.271213	-0.000150
 917	9.1142e+01	3.4700	20.849788	0.000497	4.968868	1.683498	-0.000199
 918	9.1242e+01	3.4315	20.700413	0.000375	3.752002	1.271213	-0.000150
 919	9.1341e+01	3.3897	20.559114	0.000355	3.549191	1.202499	-0.000142
 920	9.1441e+01	3.3464	20.397628	0.000406	4.056219	1.374284	-0.000162
 921	9.1540e+01	3.3111	20.224031	0.000436	4.360435	1.477355	-0.000174
 922	9.1639e+01	3.2726	20.034286	0.000477	4.766057	1.614784	-0.000191
 923	9.1739e+01	3.2373	19.860689	0.000436	4.360435	1.477355	-0.000174
 924	9.1838e+01	3.1988	19.735538	0.000314	3.143569	1.065070	-0.000126
 925	9.1938e+01	3.1587	19.557904	0.000446	4.461840	1.511712	-0.000179
 926	9.2037e+01	3.1250	19.396419	0.000406	4.056219	1.374284	-0.000162
 927	9.2137e+01	3.0705	19.214748	0.000456	4.563246	1.546070	-0.000183
 928	9.2237e+01	3.0384	19.069411	0.000365	3.650597	1.236856	-0.000146
 929	9.2336e+01	3.0047	18.932148	0.000345	3.447786	1.168141	-0.000138
 930	9.2436e+01	2.9454	18.730291	0.000507	5.070273	1.717855	-0.000203
 931	9.2535e+01	2.9053	18.572843	0.000395	3.954813	1.339927	-0.000158
 932	9.2635e+01	2.8668	18.411358	0.000406	4.056219	1.374284	-0.000162
 933	9.2734e+01	2.8347	18.257946	0.000385	3.853408	1.305570	-0.000154
 934	9.2834e+01	2.7849	18.096461	0.000406	4.056219	1.374284	-0.000162
 935	9.2933e+01	2.7593	17.918827	0.000446	4.461840	1.511712	-0.000179
 936	9.3032e+01	2.7128	17.757342	0.000406	4.056219	1.374284	-0.000162
 937	9.3132e+01	2.6759	17.571633	0.000466	4.664651	1.580427	-0.000187
 938	9.3231e+01	2.6245	17.357665	0.000537	5.374490	1.820926	-0.000215
 939	9.3331e+01	2.5973	17.236551	0.000304	3.042164	1.030713	-0.000122
 940	9.3430e+01	2.5539	17.075066	0.000406	4.056219	1.374284	-0.000162
 941	9.3530e+01	2.5138	16.917617	0.000395	3.954813	1.339927	-0.000158
 942	9.3629e+01	2.4834	16.723835	0.000487	4.867462	1.649141	-0.000195
 943	9.3729e+01	2.4336	16.566387	0.000395	3.954813	1.339927	-0.000158
 944	9.3829e+01	2.4031	16.417012	0.000375	3.752002	1.271213	-0.000150
 945	9.3928e+01	2.3502	16.211119	0.000517	5.171679	1.752212	-0.000207
 946	9.4028e+01	2.3149	16.053670	0.000395	3.954813	1.339927	-0.000158
 947	9.4127e+01	2.2796	15.888148	0.000416	4.157624	1.408641	-0.000166
 948	9.4227e+01	2.2395	15.710514	0.000446	4.461840	1.511712	-0.000179
 949	9.4326e+01	2.1914	15.540954	0.000426	4.259029	1.442998	-0.000170
 950	9.4425e+01	2.1577	15.399654	0.000355	3.549191	1.202499	-0.000142
 951	9.4525e+01	2.1096	15.201835	0.000497	4.968868	1.683498	-0.000199
 952	9.4624e+01	2.0791	15.056498	0.000365	3.650597	1.236856	-0.000146
 953	9.4724e+01	2.0342	14.899049	0.000395	3.954813	1.339927	-0.000158
 954	9.4823e+01	1.9957	14.725453	0.000436	4.360435	1.477355	-0.000174
 955	9.4923e+01	1.9588	14.527633	0.000497	4.968868	1.683498	-0.000199
 956	9.5022e+01	1.9219	14.358073	0.000426	4.259029	1.442998	-0.000170
 957	9.5122e+01	1.8737	14.188514	0.000426	4.259029	1.442998	-0.000170
 958	9.5222e+01	1.8352	14.010880	0.000446	4.461840	1.511712	-0.000179
 959	9.5321e+01	1.7983	13.849394	0.000406	4.056219	1.374284	-0.000162
 960	9.5421e+01	1.7663	13.700020	0.000375	3.752002	1.271213	-0.000150
 961	9.5520e+01	1.7149	13.514312	0.000466	4.664651	1.580427	-0.000187
 962	9.5620e+01	1.6796	13.336678	0.000446	4.461840	1.511712	-0.000179
 963	9.5719e+01	1.6459	13.175192	0.000406	4.056219	1.374284	-0.000162
 964	9.5819e+01	1.6106	12.981410	0.000487	4.867462	1.649141	-0.000195
 965	9.5918e+01	1.5577	12.803776	0.000446	4.461840	1.511712	-0.000179
 966	9.6017e+01	1.5208	12.638253	0.000416	4.157624	1.408641	-0.000166
 967	9.6117e+01	1.4711	12.468694	0.000426	4.259029	1.442998	-0.000170
 968	9.6216e+01	1.4342	12.295097	0.000436	4.360435	1.477355	-0.000174
 969	9.6316e+01	1.3989	12.129574	0.000416	4.157624	1.408641	-0.000166
 970	9.6415e+01	1.3636	11.951940	0.000446	4.461840	1.511712	-0.000179
 971	9.6515e+01	1.3267	11.778344	0.000436	4.360435	1.477355	-0.000174
 972	9.6615e+01	1.2770	11.580524	0.000497	4.968868	1.683498	-0.000199
 973	9.6714e+01	1.2433	11.419038	0.000406	4.056219	1.374284	-0.000162
 974	9.6814e+01	1.1952	11.241404	0.000446	4.461840	1.511712	-0.000179
 975	9.6913e+01	1.1711	11.096068	0.000365	3.650597	1.236856	-0.000146
 976	9.7013e+01	1.1198	10.914396	0.000456	4.563246	1.546070	-0.000183
 977	9.7112e+01	1.0764	10.728688	0.000466	4.664651	1.580427	-0.000187
 978	9.7212e+01	1.0411	10.494534	0.000588	5.881517	1.992712	-0.000235
 979	9.7311e+01	0.9930	10.385532	0.000274	2.737948	0.927642	-0.000110
 980	9.7410e+01	0.9625	10.187712	0.000497	4.968868	1.683498	-0.000199
 981	9.7510e+01	0.9208	10.006041	0.000456	4.563246	1.546070	-0.000183
 982	9.7609e+01	0.8839	9.844555	0.000406	4.056219	1.374284	-0.000162
 983	9.7709e+01	0.8390	9.662884	0.000456	4.563246	1.546070	-0.000183
 984	9.7808e+01	0.8117	9.448916	0.000537	5.374490	1.820926	-0.000215
 985	9.7908e+01	0.7620	9.307616	0.000355	3.549191	1.202499	-0.000142
 986	9.8007e+01	0.7203	9.085574	0.000558	5.577300	1.889641	-0.000223
 987	9.8107e+01	0.6818	8.956386	0.000324	3.244975	1.099427	-0.000130
 988	9.8207e+01	0.6481	8.798937	0.000395	3.954813	1.339927	-0.000158
 989	9.8306e+01	0.6016	8.580932	0.000548	5.475895	1.855283	-0.000219
 990	9.8406e+01	0.5631	8.383112	0.000497	4.968868	1.683498	-0.000199
 991	9.8505e+01	0.5198	8.237775	0.000365	3.650597	1.236856	-0.000146
 992	9.8605e+01	0.4829	8.080327	0.000395	3.954813	1.339927	-0.000158
 993	9.8704e+01	0.4428	7.914805	0.000416	4.157624	1.408641	-0.000166
 994	9.8803e+01	0.3962	7.733134	0.000456	4.563246	1.546070	-0.000183
 995	9.8903e+01	0.3577	7.498980	0.000588	5.881517	1.992712	-0.000235
 996	9.9002e+01	0.3160	7.361717	0.000345	3.447786	1.168141	-0.000138
 997	9.9102e+01	0.2775	7.180046	0.000456	4.563246	1.546070	-0.000183
 998	9.9201e+01	0.2471	7.018560	0.000406	4.056219	1.374284	-0.000162
 999	9.9301e+01	0.2086	6.792481	0.000568	5.678706	1.923998	-0.000227
1000	9.9400e+01	0.1572	6.614847	0.000446	4.461840	1.511712	-0.000179
1001	9.9500e+01	0.1203	6.437213	0.000446	4.461840	1.511712	-0.000179
1002	9.9600e+01	0.0818	6.231319	0.000517	5.171679	1.752212	-0.000207
1003	9.9699e+01	0.0401	6.073871	0.000395	3.954813	1.339927	-0.000158
1004	9.9799e+01	0.0016	5.904311	0.000426	4.259029	1.442998	-0.000170
1005	9.9898e+01	-0.0225	5.771086	0.000335	3.346380	1.133784	-0.000134
1006	9.9998e+01	-0.0658	5.589414	0.000456	4.563246	1.546070	-0.000183
1007	1.0010e+02	-0.1155	5.403706	0.000466	4.664651	1.580427	-0.000187
1008	1.0020e+02	-0.1540	5.209924	0.000487	4.867462	1.649141	-0.000195
1009	1.0030e+02	-0.1829	4.991918	0.000548	5.475895	1.855283	-0.000219
1010	1.0040e+02	-0.2182	4.838507	0.000385	3.853408	1.305570	-0.000154
1011	1.0050e+02	-0.2743	4.672985	0.000416	4.157624	1.408641	-0.000166
1012	1.0059e+02	-0.3128	4.499388	0.000436	4.360435	1.477355	-0.000174
1013	1.0069e+02	-0.3465	4.301568	0.000497	4.968868	1.683498	-0.000199
1014	1.0079e+02	-0.3786	4.119897	0.000456	4.563246	1.546070	-0.000183
1015	1.0089e+02	-0.4251	3.954374	0.000416	4.157624	1.408641	-0.000166
1016	1.0099e+02	-0.4684	3.776740	0.000446	4.461840	1.511712	-0.000179
1017	1.0109e+02	-0.5085	3.591032	0.000466	4.664651	1.580427	-0.000187
1018	1.0119e+02	-0.5454	3.389175	0.000507	5.070273	1.717855	-0.000203
1019	1.0129e+02	-0.5839	3.231727	0.000395	3.954813	1.339927	-0.000158
1020	1.0139e+02	-0.6289	3.041982	0.000477	4.766057	1.614784	-0.000191
1021	1.0149e+02	-0.6545	2.856274	0.000466	4.664651	1.580427	-0.000187
1022	1.0159e+02	-0.7059	2.638268	0.000548	5.475895	1.855283	-0.000219
1023	1.0169e+02	-0.7460	2.492931	0.000365	3.650597	1.236856	-0.000146
1024	1.0179e+02	-0.7845	2.283000	0.000527	5.273084	1.786569	-0.000211
1025	1.0189e+02	-0.8246	2.109403	0.000436	4.360435	1.477355	-0.000174
1026	1.0199e+02	-0.8631	1.931769	0.000446	4.461840	1.511712	-0.000179
1027	1.0209e+02	-0.9032	1.746061	0.000466	4.664651	1.580427	-0.000187
1028	1.0219e+02	-0.9497	1.556316	0.000477	4.766057	1.614784	-0.000191
1029	1.0229e+02	-0.9866	1.406942	0.000375	3.752002	1.271213	-0.000150
1030	1.0239e+02	-1.0235	1.209122	0.000497	4.968868	1.683498	-0.000199
1031	1.0248e+02	-1.0636	0.983043	0.000568	5.678706	1.923998	-0.000227
1032	1.0258e+02	-1.1117	0.833669	0.000375	3.752002	1.271213	-0.000150
1033	1.0268e+02	-1.1518	0.627775	0.000517	5.171679	1.752212	-0.000207
1034	1.0278e+02	-1.1759	0.454178	0.000436	4.360435	1.477355	-0.000174
1035	1.0288e+02	-1.2144	0.296729	0.000395	3.954813	1.339927	-0.000158
1036	1.0298e+02	-1.2593	0.094873	0.000507	5.070273	1.717855	-0.000203
1037	1.0308e+02	-1.3091	-0.102947	0.000497	4.968868	1.683498	-0.000199
1038	1.0318e+02	-1.3395	-0.304804	0.000507	5.070273	1.717855	-0.000203
1039	1.0328e+02	-1.3780	-0.466289	0.000406	4.056219	1.374284	-0.000162
1040	1.0338e+02	-1.4262	-0.668146	0.000507	5.070273	1.717855	-0.000203
1041	1.0348e+02	-1.4615	-0.829631	0.000406	4.056219	1.374284	-0.000162
1042	1.0358e+02	-1.5032	-1.015340	0.000466	4.664651	1.580427	-0.000187
1043	1.0368e+02	-1.5401	-1.184899	0.000426	4.259029	1.442998	-0.000170
1044	1.0378e+02	-1.5754	-1.415016	0.000578	5.780111	1.958355	-0.000231
1045	1.0388e+02	-1.6267	-1.564390	0.000375	3.752002	1.271213	-0.000150
1046	1.0398e+02	-1.6620	-1.754135	0.000477	4.766057	1.614784	-0.000191
1047	1.0408e+02	-1.7085	-1.943881	0.000477	4.766057	1.614784	-0.000191
1048	1.0418e+02	-1.7326	-2.101329	0.000395	3.954813	1.339927	-0.000158
1049	1.0428e+02	-1.7695	-2.299149	0.000497	4.968868	1.683498	-0.000199
1050	1.0438e+02	-1.8144	-2.476783	0.000446	4.461840	1.511712	-0.000179
1051	1.0447e+02	-1.8705	-2.694788	0.000548	5.475895	1.855283	-0.000219
1052	1.0457e+02	-1.9010	-2.848199	0.000385	3.853408	1.305570	-0.000154
1053	1.0467e+02	-1.9363	-3.029870	0.000456	4.563246	1.546070	-0.000183
1054	1.0477e+02	-1.9860	-3.215579	0.000466	4.664651	1.580427	-0.000187
1055	1.0487e+02	-2.0197	-3.397250	0.000456	4.563246	1.546070	-0.000183
1056	1.0497e+02	-2.0598	-3.578921	0.000456	4.563246	1.546070	-0.000183
1057	1.0507e+02	-2.0983	-3.776740	0.000497	4.968868	1.683498	-0.000199
1058	1.0517e+02	-2.1433	-3.934189	0.000395	3.954813	1.339927	-0.000158
1059	1.0527e+02	-2.1705	-4.136046	0.000507	5.070273	1.717855	-0.000203
1060	1.0537e+02	-2.2203	-4.293494	0.000395	3.954813	1.339927	-0.000158
1061	1.0547e+02	-2.2620	-4.487276	0.000487	4.867462	1.649141	-0.000195
1062	1.0557e+02	-2.3053	-4.689133	0.000507	5.070273	1.717855	-0.000203
1063	1.0567e+02	-2.3342	-4.842544	0.000385	3.853408	1.305570	-0.000154
1064	1.0577e+02	-2.3855	-4.995955	0.000385	3.853408	1.305570	-0.000154
1065	1.0587e+02	-2.4224	-5.201849	0.000517	5.171679	1.752212	-0.000207
1066	1.0597e+02	-2.4657	-5.347186	0.000365	3.650597	1.236856	-0.000146
1067	1.0607e+02	-2.5058	-5.569229	0.000558	5.577300	1.889641	-0.000223
1068	1.0617e+02	-2.5459	-5.710529	0.000355	3.549191	1.202499	-0.000142
1069	1.0627e+02	-2.5796	-5.916422	0.000517	5.171679	1.752212	-0.000207
1070	1.0637e+02	-2.6309	-6.065796	0.000375	3.752002	1.271213	-0.000150
1071	1.0647e+02	-2.6582	-6.275728	0.000527	5.273084	1.786569	-0.000211
1072	1.0656e+02	-2.7015	-6.465473	0.000477	4.766057	1.614784	-0.000191
1073	1.0666e+02	-2.7288	-6.635033	0.000426	4.259029	1.442998	-0.000170
1074	1.0676e+02	-2.7705	-6.816704	0.000456	4.563246	1.546070	-0.000183
1075	1.0686e+02	-2.8138	-6.982226	0.000416	4.157624	1.408641	-0.000166
1076	1.0696e+02	-2.8523	-7.159860	0.000446	4.461840	1.511712	-0.000179
1077	1.0706e+02	-2.8988	-7.353643	0.000487	4.867462	1.649141	-0.000195
1078	1.0716e+02	-2.9357	-7.458608	0.000264	2.636542	0.893285	-0.000105
1079	1.0726e+02	-2.9791	-7.716985	0.000649	6.489950	2.198854	-0.000260
1080	1.0736e+02	-3.0144	-7.825988	0.000274	2.737948	0.927642	-0.000110
1081	1.0746e+02	-3.0529	-8.031882	0.000517	5.171679	1.752212	-0.000207
1082	1.0756e+02	-3.0898	-8.229701	0.000497	4.968868	1.683498	-0.000199
1083	1.0766e+02	-3.1395	-8.407335	0.000446	4.461840	1.511712	-0.000179
1084	1.0776e+02	-3.1732	-8.568821	0.000406	4.056219	1.374284	-0.000162
1085	1.0786e+02	-3.2149	-8.730306	0.000406	4.056219	1.374284	-0.000162
1086	1.0796e+02	-3.2774	-8.964460	0.000588	5.881517	1.992712	-0.000235
1087	1.0806e+02	-3.2935	-9.057314	0.000233	2.332326	0.790213	-0.000093
1088	1.0816e+02	-3.3400	-9.226874	0.000426	4.259029	1.442998	-0.000170
1089	1.0826e+02	-3.3817	-9.432768	0.000517	5.171679	1.752212	-0.000207
1090	1.0836e+02	-3.4138	-9.618476	0.000466	4.664651	1.580427	-0.000187
1091	1.0845e+02	-3.4555	-9.751701	0.000335	3.346380	1.133784	-0.000134
1092	1.0855e+02	-3.4972	-9.929335	0.000446	4.461840	1.511712	-0.000179
1093	1.0865e+02	-3.5325	-10.102932	0.000436	4.360435	1.477355	-0.000174
1094	1.0875e+02	-3.5758	-10.296715	0.000487	4.867462	1.649141	-0.000195
1095	1.0885e+02	-3.6111	-10.474349	0.000446	4.461840	1.511712	-0.000179
1096	1.0895e+02	-3.6528	-10.619686	0.000365	3.650597	1.236856	-0.000146
1097	1.0905e+02	-3.6962	-10.773097	0.000385	3.853408	1.305570	-0.000154
1098	1.0915e+02	-3.7314	-10.995139	0.000558	5.577300	1.889641	-0.000223
1099	1.0925e+02	-3.7796	-11.148550	0.000385	3.853408	1.305570	-0.000154
1100	1.0935e+02	-3.8165	-11.322147	0.000436	4.360435	1.477355	-0.000174
1101	1.0945e+02	-3.8582	-11.499781	0.000446	4.461840	1.511712	-0.000179
1102	1.0955e+02	-3.8887	-11.649155	0.000375	3.752002	1.271213	-0.000150
1103	1.0965e+02	-3.9368	-11.838901	0.000477	4.766057	1.614784	-0.000191
1104	1.0975e+02	-3.9737	-11.951940	0.000284	2.839353	0.961999	-0.000114
1105	1.0985e+02	-4.0106	-12.173983	0.000558	5.577300	1.889641	-0.000223
1106	1.0995e+02	-4.0523	-12.343543	0.000426	4.259029	1.442998	-0.000170
1107	1.1005e+02	-4.0892	-12.496954	0.000385	3.853408	1.305570	-0.000154
1108	1.1015e+02	-4.1309	-12.678625	0.000456	4.563246	1.546070	-0.000183
1109	1.1025e+02	-4.1758	-12.836073	0.000395	3.954813	1.339927	-0.000158
1110	1.1035e+02	-4.2175	-12.985447	0.000375	3.752002	1.271213	-0.000150
1111	1.1044e+02	-4.2384	-13.159044	0.000436	4.360435	1.477355	-0.000174
1112	1.1054e+02	-4.3026	-13.344752	0.000466	4.664651	1.580427	-0.000187
1113	1.1064e+02	-4.3330	-13.469903	0.000314	3.143569	1.065070	-0.000126
1114	1.1074e+02	-4.3683	-13.647537	0.000446	4.461840	1.511712	-0.000179
1115	1.1084e+02	-4.4148	-13.792874	0.000365	3.650597	1.236856	-0.000146
1116	1.1094e+02	-4.4582	-13.986657	0.000487	4.867462	1.649141	-0.000195
1117	1.1104e+02	-4.4822	-14.184476	0.000497	4.968868	1.683498	-0.000199
1118	1.1114e+02	-4.5320	-14.341925	0.000395	3.954813	1.339927	-0.000158
1119	1.1124e+02	-4.5769	-14.503410	0.000406	4.056219	1.374284	-0.000162
1120	1.1134e+02	-4.6138	-14.640673	0.000345	3.447786	1.168141	-0.000138
1121	1.1144e+02	-4.6491	-14.806195	0.000416	4.157624	1.408641	-0.000166
1122	1.1154e+02	-4.6956	-14.991904	0.000466	4.664651	1.580427	-0.000187
1123	1.1164e+02	-4.7293	-15.117055	0.000314	3.143569	1.065070	-0.000126
1124	1.1174e+02	-4.7742	-15.318912	0.000507	5.070273	1.717855	-0.000203
1125	1.1184e+02	-4.8079	-15.448100	0.000324	3.244975	1.099427	-0.000130
1126	1.1194e+02	-4.8608	-15.662068	0.000537	5.374490	1.820926	-0.000215
1127	1.1204e+02	-4.8929	-15.803368	0.000355	3.549191	1.202499	-0.000142
1128	1.1214e+02	-4.9282	-15.940630	0.000345	3.447786	1.168141	-0.000138
1129	1.1224e+02	-4.9683	-16.081930	0.000355	3.549191	1.202499	-0.000142
1130	1.1234e+02	-5.0052	-16.251490	0.000426	4.259029	1.442998	-0.000170
1131	1.1244e+02	-5.0549	-16.453347	0.000507	5.070273	1.717855	-0.000203
1132	1.1253e+02	-5.0854	-16.618869	0.000416	4.157624	1.408641	-0.000166
1133	1.1263e+02	-5.1207	-16.731909	0.000284	2.839353	0.961999	-0.000114
1134	1.1273e+02	-5.1737	-16.941840	0.000527	5.273084	1.786569	-0.000211
1135	1.1283e+02	-5.2105	-17.083140	0.000355	3.549191	1.202499	-0.000142
1136	1.1293e+02	-5.2474	-17.264811	0.000456	4.563246	1.546070	-0.000183
1137	1.1303e+02	-5.2924	-17.410148	0.000365	3.650597	1.236856	-0.000146
1138	1.1313e+02	-5.3341	-17.563559	0.000385	3.853408	1.305570	-0.000154
1139	1.1323e+02	-5.3726	-17.753304	0.000477	4.766057	1.614784	-0.000191
1140	1.1333e+02	-5.4079	-17.882493	0.000324	3.244975	1.099427	-0.000130
1141	1.1343e+02	-5.4496	-18.092424	0.000527	5.273084	1.786569	-0.000211
1142	1.1353e+02	-5.4961	-18.217575	0.000314	3.143569	1.065070	-0.000126
1143	1.1363e+02	-5.5218	-18.395209	0.000446	4.461840	1.511712	-0.000179
1144	1.1373e+02	-5.5715	-18.540546	0.000365	3.650597	1.236856	-0.000146
1145	1.1383e+02	-5.6084	-18.714143	0.000436	4.360435	1.477355	-0.000174
1146	1.1393e+02	-5.6453	-18.831220	0.000294	2.940758	0.996356	-0.000118
1147	1.1403e+02	-5.6838	-19.000779	0.000426	4.259029	1.442998	-0.000170
1148	1.1413e+02	-5.7351	-19.150153	0.000375	3.752002	1.271213	-0.000150
1149	1.1423e+02	-5.7704	-19.291453	0.000355	3.549191	1.202499	-0.000142
1150	1.1433e+02	-5.7961	-19.461013	0.000426	4.259029	1.442998	-0.000170
1151	1.1442e+02	-5.8490	-19.658832	0.000497	4.968868	1.683498	-0.000199
1152	1.1452e+02	-5.8827	-19.788021	0.000324	3.244975	1.099427	-0.000130
1153	1.1462e+02	-5.9276	-19.945469	0.000395	3.954813	1.339927	-0.000158
1154	1.1472e+02	-5.9726	-20.127140	0.000456	4.563246	1.546070	-0.000183
1155	1.1482e+02	-6.0111	-20.264403	0.000345	3.447786	1.168141	-0.000138
1156	1.1492e+02	-6.0528	-20.417814	0.000385	3.853408	1.305570	-0.000154
1157	1.1502e+02	-6.0865	-20.595448	0.000446	4.461840	1.511712	-0.000179
1158	1.1512e+02	-6.1346	-20.720599	0.000314	3.143569	1.065070	-0.000126
1159	1.1522e+02	-6.1651	-20.902270	0.000456	4.563246	1.546070	-0.000183
1160	1.1532e+02	-6.2132	-21.063756	0.000406	4.056219	1.374284	-0.000162
1161	1.1542e+02	-6.2421	-21.188907	0.000314	3.143569	1.065070	-0.000126
1162	1.1552e+02	-6.2806	-21.326170	0.000345	3.447786	1.168141	-0.000138
1163	1.1562e+02	-6.3207	-21.483618	0.000395	3.954813	1.339927	-0.000158
1164	1.1572e+02	-6.3496	-21.653178	0.000426	4.259029	1.442998	-0.000170
1165	1.1582e+02	-6.4089	-21.794477	0.000355	3.549191	1.202499	-0.000142
1166	1.1592e+02	-6.4394	-21.960000	0.000416	4.157624	1.408641	-0.000166
1167	1.1602e+02	-6.4795	-22.125522	0.000416	4.157624	1.408641	-0.000166
1168	1.1612e+02	-6.5164	-22.262785	0.000345	3.447786	1.168141	-0.000138
1169	1.1622e+02	-6.5613	-22.416196	0.000385	3.853408	1.305570	-0.000154
1170	1.1632e+02	-6.5950	-22.545385	0.000324	3.244975	1.099427	-0.000130
1171	1.1642e+02	-6.6415	-22.678610	0.000335	3.346380	1.133784	-0.000134
1172	1.1651e+02	-6.6800	-22.876430	0.000497	4.968868	1.683498	-0.000199
1173	1.1661e+02	-6.7201	-23.041952	0.000416	4.157624	1.408641	-0.000166
1174	1.1671e+02	-6.7602	-23.183252	0.000355	3.549191	1.202499	-0.000142
1175	1.1681e+02	-6.7971	-23.300329	0.000294	2.940758	0.996356	-0.000118
1176	1.1691e+02	-6.8485	-23.469889	0.000426	4.259029	1.442998	-0.000170
1177	1.1701e+02	-6.8822	-23.599077	0.000324	3.244975	1.099427	-0.000130
1178	1.1711e+02	-6.9175	-23.752488	0.000385	3.853408	1.305570	-0.000154
1179	1.1721e+02	-6.9624	-23.913974	0.000406	4.056219	1.374284	-0.000162
1180	1.1731e+02	-6.9961	-24.119867	0.000517	5.171679	1.752212	-0.000207
1181	1.1741e+02	-7.0394	-24.220796	0.000254	2.535137	0.858928	-0.000101
1182	1.1751e+02	-7.0763	-24.378244	0.000395	3.954813	1.339927	-0.000158
1183	1.1761e+02	-7.1244	-24.515507	0.000345	3.447786	1.168141	-0.000138
1184	1.1771e+02	-7.1613	-24.652769	0.000345	3.447786	1.168141	-0.000138
1185	1.1781e+02	-7.1982	-24.834440	0.000456	4.563246	1.546070	-0.000183
1186	1.1791e+02	-7.2383	-24.983815	0.000375	3.752002	1.271213	-0.000150
1187	1.1801e+02	-7.2800	-25.149337	0.000416	4.157624	1.408641	-0.000166
1188	1.1811e+02	-7.3185	-25.258340	0.000274	2.737948	0.927642	-0.000110
1189	1.1821e+02	-7.3570	-25.415788	0.000395	3.954813	1.339927	-0.000158
1190	1.1831e+02	-7.3907	-25.593422	0.000446	4.461840	1.511712	-0.000179
1191	1.1841e+02	-7.4276	-25.738759	0.000365	3.650597	1.236856	-0.000146
1192	1.1850e+02	-7.4805	-25.888133	0.000375	3.752002	1.271213	-0.000150
1193	1.1860e+02	-7.5287	-26.041544	0.000385	3.853408	1.305570	-0.000154
1194	1.1870e+02	-7.5511	-26.158621	0.000294	2.940758	0.996356	-0.000118
1195	1.1880e+02	-7.5944	-26.275698	0.000294	2.940758	0.996356	-0.000118
1196	1.1890e+02	-7.6329	-26.437183	0.000406	4.056219	1.374284	-0.000162
1197	1.1900e+02	-7.6859	-26.614817	0.000446	4.461840	1.511712	-0.000179
1198	1.1910e+02	-7.7212	-26.776303	0.000406	4.056219	1.374284	-0.000162
1199	1.1920e+02	-7.7484	-26.921640	0.000365	3.650597	1.236856	-0.000146
1200	1.1930e+02	-7.8014	-27.062939	0.000355	3.549191	1.202499	-0.000142
1201	1.1940e+02	-7.8319	-27.200202	0.000345	3.447786	1.168141	-0.000138
1202	1.1950e+02	-7.8752	-27.365725	0.000416	4.157624	1.408641	-0.000166
1203	1.1960e+02	-7.9153	-27.470690	0.000264	2.636542	0.893285	-0.000105
1204	1.1970e+02	-7.9602	-27.575656	0.000264	2.636542	0.893285	-0.000105
1205	1.1980e+02	-7.9971	-27.801735	0.000568	5.678706	1.923998	-0.000227
1206	1.1990e+02	-8.0340	-27.890552	0.000223	2.230920	0.755856	-0.000089
1207	1.2000e+02	-8.0757	-28.068186	0.000446	4.461840	1.511712	-0.000179
1208	1.2010e+02	-8.1158	-28.225635	0.000395	3.954813	1.339927	-0.000158
1209	1.2020e+02	-8.1559	-28.370971	0.000365	3.650597	1.236856	-0.000146
1210	1.2030e+02	-8.1976	-28.504197	0.000335	3.346380	1.133784	-0.000134
1211	1.2039e+02	-8.2442	-28.657608	0.000385	3.853408	1.305570	-0.000154
1212	1.2049e+02	-8.2666	-28.831205	0.000436	4.360435	1.477355	-0.000174
1213	1.2059e+02	-8.3147	-28.936170	0.000264	2.636542	0.893285	-0.000105
1214	1.2069e+02	-8.3548	-29.117842	0.000456	4.563246	1.546070	-0.000183
1215	1.2079e+02	-8.3982	-29.251067	0.000335	3.346380	1.133784	-0.000134
1216	1.2089e+02	-8.4399	-29.376218	0.000314	3.143569	1.065070	-0.000126
1217	1.2099e+02	-8.4816	-29.513481	0.000345	3.447786	1.168141	-0.000138
1218	1.2109e+02	-8.5201	-29.683041	0.000426	4.259029	1.442998	-0.000170
1219	1.2119e+02	-8.5554	-29.800117	0.000294	2.940758	0.996356	-0.000118
1220	1.2129e+02	-8.6067	-29.993900	0.000487	4.867462	1.649141	-0.000195
1221	1.2139e+02	-8.6276	-30.074643	0.000203	2.028109	0.687142	-0.000081
1222	1.2149e+02	-8.6773	-30.244202	0.000426	4.259029	1.442998	-0.000170
1223	1.2159e+02	-8.7078	-30.361279	0.000294	2.940758	0.996356	-0.000118
1224	1.2169e+02	-8.7527	-30.522765	0.000406	4.056219	1.374284	-0.000162
1225	1.2179e+02	-8.7976	-30.712510	0.000477	4.766057	1.614784	-0.000191
1226	1.2189e+02	-8.8377	-30.793253	0.000203	2.028109	0.687142	-0.000081
1227	1.2199e+02	-8.8634	-30.958775	0.000416	4.157624	1.408641	-0.000166
1228	1.2209e+02	-8.9179	-31.083927	0.000314	3.143569	1.065070	-0.000126
1229	1.2219e+02	-8.9548	-31.253486	0.000426	4.259029	1.442998	-0.000170
1230	1.2229e+02	-8.9773	-31.362489	0.000274	2.737948	0.927642	-0.000110
1231	1.2239e+02	-9.0254	-31.536086	0.000436	4.360435	1.477355	-0.000174
1232	1.2248e+02	-9.0751	-31.637014	0.000254	2.535137	0.858928	-0.000101
1233	1.2258e+02	-9.1153	-31.802537	0.000416	4.157624	1.408641	-0.000166
1234	1.2268e+02	-9.1425	-31.976134	0.000436	4.360435	1.477355	-0.000174
1235	1.2278e+02	-9.1923	-32.073025	0.000243	2.433731	0.824570	-0.000097
1236	1.2288e+02	-9.2324	-32.222399	0.000375	3.752002	1.271213	-0.000150
1237	1.2298e+02	-9.2596	-32.335439	0.000284	2.839353	0.961999	-0.000114
1238	1.2308e+02	-9.3206	-32.488850	0.000385	3.853408	1.305570	-0.000154
1239	1.2318e+02	-9.3463	-32.674558	0.000466	4.664651	1.580427	-0.000187
1240	1.2328e+02	-9.3896	-32.807784	0.000335	3.346380	1.133784	-0.000134
1241	1.2338e+02	-9.4281	-32.908712	0.000254	2.535137	0.858928	-0.000101
1242	1.2348e+02	-9.4714	-33.050012	0.000355	3.549191	1.202499	-0.000142
1243	1.2358e+02	-9.5051	-33.203423	0.000385	3.853408	1.305570	-0.000154
1244	1.2368e+02	-9.5500	-33.348760	0.000365	3.650597	1.236856	-0.000146
1245	1.2378e+02	-9.5933	-33.490060	0.000355	3.549191	1.202499	-0.000142
1246	1.2388e+02	-9.6190	-33.631359	0.000355	3.549191	1.202499	-0.000142
1247	1.2398e+02	-9.6655	-33.804956	0.000436	4.360435	1.477355	-0.000174
1248	1.2408e+02	-9.7072	-33.897810	0.000233	2.332326	0.790213	-0.000093
1249	1.2418e+02	-9.7473	-34.035073	0.000345	3.447786	1.168141	-0.000138
1250	1.2428e+02	-9.7842	-34.172335	0.000345	3.447786	1.168141	-0.000138
1251	1.2438e+02	-9.8291	-34.333821	0.000406	4.056219	1.374284	-0.000162
1252	1.2447e+02	-9.8708	-34.475121	0.000355	3.549191	1.202499	-0.000142
1253	1.2457e+02	-9.9029	-34.551826	0.000193	1.926704	0.652785	-0.000077
1254	1.2467e+02	-9.9462	-34.798091	0.000619	6.185733	2.095783	-0.000248
1255	1.2477e+02	-9.9799	-34.858649	0.000152	1.521082	0.515357	-0.000061
1256	1.2487e+02	-10.0281	-35.032245	0.000436	4.360435	1.477355	-0.000174
1257	1.2497e+02	-10.0682	-35.133174	0.000254	2.535137	0.858928	-0.000101
1258	1.2507e+02	-10.1035	-35.270436	0.000345	3.447786	1.168141	-0.000138
1259	1.2517e+02	-10.1516	-35.407699	0.000345	3.447786	1.168141	-0.000138
1260	1.2527e+02	-10.1885	-35.540924	0.000335	3.346380	1.133784	-0.000134
1261	1.2537e+02	-10.2286	-35.714521	0.000436	4.360435	1.477355	-0.000174
1262	1.2547e+02	-10.2623	-35.827561	0.000284	2.839353	0.961999	-0.000114
1263	1.2557e+02	-10.3040	-36.005195	0.000446	4.461840	1.511712	-0.000179
1264	1.2567e+02	-10.3537	-36.110161	0.000264	2.636542	0.893285	-0.000105
1265	1.2577e+02	-10.3906	-36.223200	0.000284	2.839353	0.961999	-0.000114
1266	1.2587e+02	-10.4243	-36.416983	0.000487	4.867462	1.649141	-0.000195
1267	1.2597e+02	-10.4676	-36.493689	0.000193	1.926704	0.652785	-0.000077
1268	1.2607e+02	-10.5013	-36.659211	0.000416	4.157624	1.408641	-0.000166
1269	1.2617e+02	-10.5446	-36.756102	0.000243	2.433731	0.824570	-0.000097
1270	1.2627e+02	-10.5879	-36.941811	0.000466	4.664651	1.580427	-0.000187
1271	1.2636e+02	-10.6280	-37.066962	0.000314	3.143569	1.065070	-0.000126
1272	1.2646e+02	-10.6714	-37.248633	0.000456	4.563246	1.546070	-0.000183
1273	1.2656e+02	-10.7050	-37.345524	0.000243	2.433731	0.824570	-0.000097
1274	1.2666e+02	-10.7468	-37.458564	0.000284	2.839353	0.961999	-0.000114
1275	1.2676e+02	-10.7853	-37.607938	0.000375	3.752002	1.271213	-0.000150
1276	1.2686e+02	-10.8109	-37.757312	0.000375	3.752002	1.271213	-0.000150
1277	1.2696e+02	-10.8607	-37.918797	0.000406	4.056219	1.374284	-0.000162
1278	1.2706e+02	-10.9072	-38.011652	0.000233	2.332326	0.790213	-0.000093
1279	1.2716e+02	-10.9473	-38.161026	0.000375	3.752002	1.271213	-0.000150
1280	1.2726e+02	-10.9874	-38.270028	0.000274	2.737948	0.927642	-0.000110
1281	1.2736e+02	-11.0195	-38.399217	0.000324	3.244975	1.099427	-0.000130
1282	1.2746e+02	-11.0596	-38.568776	0.000426	4.259029	1.442998	-0.000170
1283	1.2756e+02	-11.0949	-38.665668	0.000243	2.433731	0.824570	-0.000097
1284	1.2766e+02	-11.1414	-38.798893	0.000335	3.346380	1.133784	-0.000134
1285	1.2776e+02	-11.1767	-38.960378	0.000406	4.056219	1.374284	-0.000162
1286	1.2786e+02	-11.2200	-39.029010	0.000172	1.723893	0.584071	-0.000069
1287	1.2796e+02	-11.2601	-39.198569	0.000426	4.259029	1.442998	-0.000170
1288	1.2806e+02	-11.3082	-39.356018	0.000395	3.954813	1.339927	-0.000158
1289	1.2816e+02	-11.3403	-39.473095	0.000294	2.940758	0.996356	-0.000118
1290	1.2826e+02	-11.3852	-39.582097	0.000274	2.737948	0.927642	-0.000110
1291	1.2835e+02	-11.4270	-39.735509	0.000385	3.853408	1.305570	-0.000154
1292	1.2845e+02	-11.4687	-39.872771	0.000345	3.447786	1.168141	-0.000138
1293	1.2855e+02	-11.5023	-40.014071	0.000355	3.549191	1.202499	-0.000142
1294	1.2865e+02	-11.5409	-40.175556	0.000406	4.056219	1.374284	-0.000162
1295	1.2875e+02	-11.5826	-40.268410	0.000233	2.332326	0.790213	-0.000093
1296	1.2885e+02	-11.6259	-40.437970	0.000426	4.259029	1.442998	-0.000170
1297	1.2895e+02	-11.6676	-40.534861	0.000243	2.433731	0.824570	-0.000097
1298	1.2905e+02	-11.7125	-40.716532	0.000456	4.563246	1.546070	-0.000183
1299	1.2915e+02	-11.7510	-40.833609	0.000294	2.940758	0.996356	-0.000118
1300	1.2925e+02	-11.7815	-40.946649	0.000284	2.839353	0.961999	-0.000114
1301	1.2935e+02	-11.8168	-41.071800	0.000314	3.143569	1.065070	-0.000126
1302	1.2945e+02	-11.8553	-41.205026	0.000335	3.346380	1.133784	-0.000134
1303	1.2955e+02	-11.9034	-41.350363	0.000365	3.650597	1.236856	-0.000146
1304	1.2965e+02	-11.9339	-41.479551	0.000324	3.244975	1.099427	-0.000130
1305	1.2975e+02	-11.9852	-41.600665	0.000304	3.042164	1.030713	-0.000122
1306	1.2985e+02	-12.0109	-41.733891	0.000335	3.346380	1.133784	-0.000134
1307	1.2995e+02	-12.0558	-41.863079	0.000324	3.244975	1.099427	-0.000130
1308	1.3005e+02	-12.0991	-41.984193	0.000304	3.042164	1.030713	-0.000122
1309	1.3015e+02	-12.1489	-42.117419	0.000335	3.346380	1.133784	-0.000134
1310	1.3025e+02	-12.1761	-42.270830	0.000385	3.853408	1.305570	-0.000154
1311	1.3034e+02	-12.2178	-42.387907	0.000294	2.940758	0.996356	-0.000118
1312	1.3044e+02	-12.2628	-42.517095	0.000324	3.244975	1.099427	-0.000130
1313	1.3054e+02	-12.2964	-42.605912	0.000223	2.230920	0.755856	-0.000089
1314	1.3064e+02	-12.3446	-42.759323	0.000385	3.853408	1.305570	-0.000154
1315	1.3074e+02	-12.3799	-42.888512	0.000324	3.244975	1.099427	-0.000130
1316	1.3084e+02	-12.4232	-43.005588	0.000294	2.940758	0.996356	-0.000118
1317	1.3094e+02	-12.4585	-43.118628	0.000284	2.839353	0.961999	-0.000114
1318	1.3104e+02	-12.4986	-43.255891	0.000345	3.447786	1.168141	-0.000138
1319	1.3114e+02	-12.5483	-43.401228	0.000365	3.650597	1.236856	-0.000146
1320	1.3124e+02	-12.5852	-43.534453	0.000335	3.346380	1.133784	-0.000134
1321	1.3134e+02	-12.6205	-43.655567	0.000304	3.042164	1.030713	-0.000122
1322	1.3144e+02	-12.6622	-43.817053	0.000406	4.056219	1.374284	-0.000162
1323	1.3154e+02	-12.6943	-43.905870	0.000223	2.230920	0.755856	-0.000089
1324	1.3164e+02	-12.7312	-44.047169	0.000355	3.549191	1.202499	-0.000142
1325	1.3174e+02	-12.7713	-44.148098	0.000254	2.535137	0.858928	-0.000101
1326	1.3184e+02	-12.8162	-44.337843	0.000477	4.766057	1.614784	-0.000191
1327	1.3194e+02	-12.8547	-44.446846	0.000274	2.737948	0.927642	-0.000110
1328	1.3204e+02	-12.8964	-44.584109	0.000345	3.447786	1.168141	-0.000138
1329	1.3214e+02	-12.9333	-44.660814	0.000193	1.926704	0.652785	-0.000077
1330	1.3224e+02	-12.9734	-44.794040	0.000335	3.346380	1.133784	-0.000134
1331	1.3234e+02	-13.0183	-44.931302	0.000345	3.447786	1.168141	-0.000138
1332	1.3243e+02	-13.0504	-45.100862	0.000426	4.259029	1.442998	-0.000170
1333	1.3253e+02	-13.0889	-45.197753	0.000243	2.433731	0.824570	-0.000097
1334	1.3263e+02	-13.1371	-45.310793	0.000284	2.839353	0.961999	-0.000114
1335	1.3273e+02	-13.1611	-45.492464	0.000456	4.563246	1.546070	-0.000183
1336	1.3283e+02	-13.2157	-45.585318	0.000233	2.332326	0.790213	-0.000093
1337	1.3293e+02	-13.2574	-45.706432	0.000304	3.042164	1.030713	-0.000122
1338	1.3303e+02	-13.2943	-45.827546	0.000304	3.042164	1.030713	-0.000122
1339	1.3313e+02	-13.3408	-45.980957	0.000385	3.853408	1.305570	-0.000154
1340	1.3323e+02	-13.3665	-46.077849	0.000243	2.433731	0.824570	-0.000097
1341	1.3333e+02	-13.4066	-46.219148	0.000355	3.549191	1.202499	-0.000142
1342	1.3343e+02	-13.4451	-46.328151	0.000274	2.737948	0.927642	-0.000110
1343	1.3353e+02	-13.4916	-46.481562	0.000385	3.853408	1.305570	-0.000154
1344	1.3363e+02	-13.5333	-46.634973	0.000385	3.853408	1.305570	-0.000154
1345	1.3373e+02	-13.5670	-46.699568	0.000162	1.622487	0.549714	-0.000065
1346	1.3383e+02	-13.6071	-46.869127	0.000426	4.259029	1.442998	-0.000170
1347	1.3393e+02	-13.6488	-46.970056	0.000254	2.535137	0.858928	-0.000101
1348	1.3403e+02	-13.6857	-47.139615	0.000426	4.259029	1.442998	-0.000170
1349	1.3413e+02	-13.7274	-47.208247	0.000172	1.723893	0.584071	-0.000069
1350	1.3423e+02	-13.7739	-47.377806	0.000426	4.259029	1.442998	-0.000170
1351	1.3432e+02	-13.8108	-47.506995	0.000324	3.244975	1.099427	-0.000130
1352	1.3442e+02	-13.8542	-47.644257	0.000345	3.447786	1.168141	-0.000138
1353	1.3452e+02	-13.8943	-47.737112	0.000233	2.332326	0.790213	-0.000093
1354	1.3462e+02	-13.9344	-47.854188	0.000294	2.940758	0.996356	-0.000118
1355	1.3472e+02	-13.9793	-47.967228	0.000284	2.839353	0.961999	-0.000114
1356	1.3482e+02	-14.0178	-48.088342	0.000304	3.042164	1.030713	-0.000122
1357	1.3492e+02	-14.0418	-48.245791	0.000395	3.954813	1.339927	-0.000158
1358	1.3502e+02	-14.0804	-48.366905	0.000304	3.042164	1.030713	-0.000122
1359	1.3512e+02	-14.1301	-48.516279	0.000375	3.752002	1.271213	-0.000150
1360	1.3522e+02	-14.1798	-48.669690	0.000385	3.853408	1.305570	-0.000154
1361	1.3532e+02	-14.2151	-48.746395	0.000193	1.926704	0.652785	-0.000077
1362	1.3542e+02	-14.2536	-48.875584	0.000324	3.244975	1.099427	-0.000130
1363	1.3552e+02	-14.2937	-49.004772	0.000324	3.244975	1.099427	-0.000130
1364	1.3562e+02	-14.3306	-49.166258	0.000406	4.056219	1.374284	-0.000162
1365	1.3572e+02	-14.3707	-49.275260	0.000274	2.737948	0.927642	-0.000110
1366	1.3582e+02	-14.4044	-49.384263	0.000274	2.737948	0.927642	-0.000110
1367	1.3592e+02	-14.4461	-49.509414	0.000314	3.143569	1.065070	-0.000126
1368	1.3602e+02	-14.4958	-49.678974	0.000426	4.259029	1.442998	-0.000170
1369	1.3612e+02	-14.5231	-49.800088	0.000304	3.042164	1.030713	-0.000122
1370	1.3622e+02	-14.5793	-49.888905	0.000223	2.230920	0.755856	-0.000089
1371	1.3631e+02	-14.6114	-50.046353	0.000395	3.954813	1.339927	-0.000158
1372	1.3641e+02	-14.6499	-50.155356	0.000274	2.737948	0.927642	-0.000110
1373	1.3651e+02	-14.6964	-50.284544	0.000324	3.244975	1.099427	-0.000130
1374	1.3661e+02	-14.7333	-50.409695	0.000314	3.143569	1.065070	-0.000126
1375	1.3671e+02	-14.7750	-50.530809	0.000304	3.042164	1.030713	-0.000122
1376	1.3681e+02	-14.8055	-50.676146	0.000365	3.650597	1.236856	-0.000146
1377	1.3691e+02	-14.8456	-50.797260	0.000304	3.042164	1.030713	-0.000122
1378	1.3701e+02	-14.8873	-50.987006	0.000477	4.766057	1.614784	-0.000191
1379	1.3711e+02	-14.9290	-51.063711	0.000193	1.926704	0.652785	-0.000077
1380	1.3721e+02	-14.9659	-51.196937	0.000335	3.346380	1.133784	-0.000134
1381	1.3731e+02	-15.0172	-51.334199	0.000345	3.447786	1.168141	-0.000138
1382	1.3741e+02	-15.0461	-51.503759	0.000426	4.259029	1.442998	-0.000170
1383	1.3751e+02	-15.0910	-51.612762	0.000274	2.737948	0.927642	-0.000110
1384	1.3761e+02	-15.1263	-51.737913	0.000314	3.143569	1.065070	-0.000126
1385	1.3771e+02	-15.1680	-51.863064	0.000314	3.143569	1.065070	-0.000126
1386	1.3781e+02	-15.2097	-52.032624	0.000426	4.259029	1.442998	-0.000170
1387	1.3791e+02	-15.2402	-52.157775	0.000314	3.143569	1.065070	-0.000126
1388	1.3801e+02	-15.2883	-52.266778	0.000274	2.737948	0.927642	-0.000110
1389	1.3811e+02	-15.3236	-52.408078	0.000355	3.549191	1.202499	-0.000142
1390	1.3821e+02	-15.3621	-52.553414	0.000365	3.650597	1.236856	-0.000146
1391	1.3831e+02	-15.4087	-52.686640	0.000335	3.346380	1.133784	-0.000134
1392	1.3840e+02	-15.4552	-52.836014	0.000375	3.752002	1.271213	-0.000150
1393	1.3850e+02	-15.4953	-52.981351	0.000365	3.650597	1.236856	-0.000146
1394	1.3860e+02	-15.5338	-53.098428	0.000294	2.940758	0.996356	-0.000118
1395	1.3870e+02	-15.5627	-53.239728	0.000355	3.549191	1.202499	-0.000142
1396	1.3880e+02	-15.6092	-53.409287	0.000426	4.259029	1.442998	-0.000170
1397	1.3890e+02	-15.6461	-53.506179	0.000243	2.433731	0.824570	-0.000097
1398	1.3900e+02	-15.6846	-53.659590	0.000385	3.853408	1.305570	-0.000154
1399	1.3910e+02	-15.7247	-53.776667	0.000294	2.940758	0.996356	-0.000118
1400	1.3920e+02	-15.7664	-53.962375	0.000466	4.664651	1.580427	-0.000187
1401	1.3930e+02	-15.8097	-54.047155	0.000213	2.129515	0.721499	-0.000085
1402	1.3940e+02	-15.8402	-54.168269	0.000304	3.042164	1.030713	-0.000122
1403	1.3950e+02	-15.8835	-54.374163	0.000517	5.171679	1.752212	-0.000207
1404	1.3960e+02	-15.9236	-54.511425	0.000345	3.447786	1.168141	-0.000138
1405	1.3970e+02	-15.9653	-54.644651	0.000335	3.346380	1.133784	-0.000134
1406	1.3980e+02	-16.0102	-54.781913	0.000345	3.447786	1.168141	-0.000138
1407	1.3990e+02	-16.0407	-54.911102	0.000324	3.244975	1.099427	-0.000130
1408	1.4000e+02	-16.0840	-55.060476	0.000375	3.752002	1.271213	-0.000150
1409	1.4010e+02	-16.1241	-55.193701	0.000335	3.346380	1.133784	-0.000134
1410	1.4020e+02	-16.1691	-55.367298	0.000436	4.360435	1.477355	-0.000174
1411	1.4029e+02	-16.1995	-55.508598	0.000355	3.549191	1.202499	-0.000142
1412	1.4039e+02	-16.2413	-55.666046	0.000395	3.954813	1.339927	-0.000158
1413	1.4049e+02	-16.2830	-55.807346	0.000355	3.549191	1.202499	-0.000142
1414	1.4059e+02	-16.3247	-55.976906	0.000426	4.259029	1.442998	-0.000170
1415	1.4069e+02	-16.3632	-56.069760	0.000233	2.332326	0.790213	-0.000093
1416	1.4079e+02	-16.3953	-56.271616	0.000507	5.070273	1.717855	-0.000203
1417	1.4089e+02	-16.4434	-56.392731	0.000304	3.042164	1.030713	-0.000122
1418	1.4099e+02	-16.4883	-56.501733	0.000274	2.737948	0.927642	-0.000110
1419	1.4109e+02	-16.5140	-56.671293	0.000426	4.259029	1.442998	-0.000170
1420	1.4119e+02	-16.5589	-56.804518	0.000335	3.346380	1.133784	-0.000134
1421	1.4129e+02	-16.6038	-56.978115	0.000436	4.360435	1.477355	-0.000174
1422	1.4139e+02	-16.6471	-57.139601	0.000406	4.056219	1.374284	-0.000162
1423	1.4149e+02	-16.6872	-57.228418	0.000223	2.230920	0.755856	-0.000089
1424	1.4159e+02	-16.7177	-57.450460	0.000558	5.577300	1.889641	-0.000223
1425	1.4169e+02	-16.7658	-57.567537	0.000294	2.940758	0.996356	-0.000118
1426	1.4179e+02	-16.8011	-57.716911	0.000375	3.752002	1.271213	-0.000150
1427	1.4189e+02	-16.8477	-57.898582	0.000456	4.563246	1.546070	-0.000183
1428	1.4199e+02	-16.8926	-57.975288	0.000193	1.926704	0.652785	-0.000077
1429	1.4209e+02	-16.9198	-58.181182	0.000517	5.171679	1.752212	-0.000207
1430	1.4219e+02	-16.9583	-58.350741	0.000426	4.259029	1.442998	-0.000170
1431	1.4228e+02	-17.0033	-58.504153	0.000385	3.853408	1.305570	-0.000154
1432	1.4238e+02	-17.0321	-58.637378	0.000335	3.346380	1.133784	-0.000134
1433	1.4248e+02	-17.0867	-58.806938	0.000426	4.259029	1.442998	-0.000170
1434	1.4258e+02	-17.1268	-58.944200	0.000345	3.447786	1.168141	-0.000138
1435	1.4268e+02	-17.1589	-59.113760	0.000426	4.259029	1.442998	-0.000170
1436	1.4278e+02	-17.2054	-59.271208	0.000395	3.954813	1.339927	-0.000158
1437	1.4288e+02	-17.2407	-59.408471	0.000345	3.447786	1.168141	-0.000138
1438	1.4298e+02	-17.2792	-59.614365	0.000517	5.171679	1.752212	-0.000207
1439	1.4308e+02	-17.3209	-59.763739	0.000375	3.752002	1.271213	-0.000150
1440	1.4318e+02	-17.3578	-59.880816	0.000294	2.940758	0.996356	-0.000118
1441	1.4328e+02	-17.3979	-60.042301	0.000406	4.056219	1.374284	-0.000162
1442	1.4338e+02	-17.4412	-60.211861	0.000426	4.259029	1.442998	-0.000170
1443	1.4348e+02	-17.4797	-60.381421	0.000426	4.259029	1.442998	-0.000170
1444	1.4358e+02	-17.5262	-60.571166	0.000477	4.766057	1.614784	-0.000191
1445	1.4368e+02	-17.5647	-60.716503	0.000365	3.650597	1.236856	-0.000146
1446	1.4378e+02	-17.5920	-60.857803	0.000355	3.549191	1.202499	-0.000142
1447	1.4388e+02	-17.6450	-60.999102	0.000355	3.549191	1.202499	-0.000142
1448	1.4398e+02	-17.6770	-61.209033	0.000527	5.273084	1.786569	-0.000211
1449	1.4408e+02	-17.7268	-61.346296	0.000345	3.447786	1.168141	-0.000138
1450	1.4418e+02	-17.7540	-61.519893	0.000436	4.360435	1.477355	-0.000174
1451	1.4428e+02	-17.7958	-61.741935	0.000558	5.577300	1.889641	-0.000223
1452	1.4437e+02	-17.8391	-61.883235	0.000355	3.549191	1.202499	-0.000142
1453	1.4447e+02	-17.8776	-62.004349	0.000304	3.042164	1.030713	-0.000122
1454	1.4457e+02	-17.9129	-62.177946	0.000436	4.360435	1.477355	-0.000174
1455	1.4467e+02	-17.9530	-62.363654	0.000466	4.664651	1.580427	-0.000187
1456	1.4477e+02	-17.9883	-62.521103	0.000395	3.954813	1.339927	-0.000158
1457	1.4487e+02	-18.0428	-62.706811	0.000466	4.664651	1.580427	-0.000187
1458	1.4497e+02	-18.0733	-62.864259	0.000395	3.954813	1.339927	-0.000158
1459	1.4507e+02	-18.1166	-63.005559	0.000355	3.549191	1.202499	-0.000142
1460	1.4517e+02	-18.1679	-63.183193	0.000446	4.461840	1.511712	-0.000179
1461	1.4527e+02	-18.1952	-63.368901	0.000466	4.664651	1.580427	-0.000187
1462	1.4537e+02	-18.2417	-63.566721	0.000497	4.968868	1.683498	-0.000199
1463	1.4547e+02	-18.2738	-63.716095	0.000375	3.752002	1.271213	-0.000150
1464	1.4557e+02	-18.3235	-63.885654	0.000426	4.259029	1.442998	-0.000170
1465	1.4567e+02	-18.3604	-64.055214	0.000426	4.259029	1.442998	-0.000170
1466	1.4577e+02	-18.3957	-64.244960	0.000477	4.766057	1.614784	-0.000191
1467	1.4587e+02	-18.4471	-64.414519	0.000426	4.259029	1.442998	-0.000170
1468	1.4597e+02	-18.4647	-64.584079	0.000426	4.259029	1.442998	-0.000170
1469	1.4607e+02	-18.5145	-64.789973	0.000517	5.171679	1.752212	-0.000207
1470	1.4617e+02	-18.5465	-64.951458	0.000406	4.056219	1.374284	-0.000162
1471	1.4626e+02	-18.5947	-65.145241	0.000487	4.867462	1.649141	-0.000195
1472	1.4636e+02	-18.6300	-65.347098	0.000507	5.070273	1.717855	-0.000203
1473	1.4646e+02	-18.6717	-65.512620	0.000416	4.157624	1.408641	-0.000166
1474	1.4656e+02	-18.7166	-65.686217	0.000436	4.360435	1.477355	-0.000174
1475	1.4666e+02	-18.7647	-65.880000	0.000487	4.867462	1.649141	-0.000195
1476	1.4676e+02	-18.7968	-66.041485	0.000406	4.056219	1.374284	-0.000162
1477	1.4686e+02	-18.8353	-66.235267	0.000487	4.867462	1.649141	-0.000195
1478	1.4696e+02	-18.8754	-66.416939	0.000456	4.563246	1.546070	-0.000183
1479	1.4706e+02	-18.9107	-66.606684	0.000477	4.766057	1.614784	-0.000191
1480	1.4716e+02	-18.9476	-66.772207	0.000416	4.157624	1.408641	-0.000166
1481	1.4726e+02	-18.9829	-66.953878	0.000456	4.563246	1.546070	-0.000183
1482	1.4736e+02	-19.0310	-67.155734	0.000507	5.070273	1.717855	-0.000203
1483	1.4746e+02	-19.0679	-67.329331	0.000436	4.360435	1.477355	-0.000174
1484	1.4756e+02	-19.1176	-67.559448	0.000578	5.780111	1.958355	-0.000231
1485	1.4766e+02	-19.1561	-67.729008	0.000426	4.259029	1.442998	-0.000170
1486	1.4776e+02	-19.1898	-67.898567	0.000426	4.259029	1.442998	-0.000170
1487	1.4786e+02	-19.2299	-68.104461	0.000517	5.171679	1.752212	-0.000207
1488	1.4796e+02	-19.2765	-68.338615	0.000588	5.881517	1.992712	-0.000235
1489	1.4806e+02	-19.3085	-68.492026	0.000385	3.853408	1.305570	-0.000154
1490	1.4816e+02	-19.3438	-68.718106	0.000568	5.678706	1.923998	-0.000227
1491	1.4825e+02	-19.3968	-68.855369	0.000345	3.447786	1.168141	-0.000138
1492	1.4835e+02	-19.4321	-69.089522	0.000588	5.881517	1.992712	-0.000235
1493	1.4845e+02	-19.4609	-69.299454	0.000527	5.273084	1.786569	-0.000211
1494	1.4855e+02	-19.5139	-69.489199	0.000477	4.766057	1.614784	-0.000191
1495	1.4865e+02	-19.5588	-69.674907	0.000466	4.664651	1.580427	-0.000187
1496	1.4875e+02	-19.5909	-69.860615	0.000466	4.664651	1.580427	-0.000187
1497	1.4885e+02	-19.6278	-70.102844	0.000608	6.084328	2.061426	-0.000243
1498	1.4895e+02	-19.6599	-70.349109	0.000619	6.185733	2.095783	-0.000248
1499	1.4905e+02	-19.7112	-70.478297	0.000324	3.244975	1.099427	-0.000130
1500	1.4915e+02	-19.7529	-70.716488	0.000598	5.982922	2.027069	-0.000239
1501	1.4925e+02	-19.7850	-70.906234	0.000477	4.766057	1.614784	-0.000191
1502	1.4935e+02	-19.8251	-71.091942	0.000466	4.664651	1.580427	-0.000187
1503	1.4945e+02	-19.8684	-71.293799	0.000507	5.070273	1.717855	-0.000203
1504	1.4955e+02	-19.9053	-71.531990	0.000598	5.982922	2.027069	-0.000239
1505	1.4965e+02	-19.9406	-71.741921	0.000527	5.273084	1.786569	-0.000211
1506	1.4975e+02	-19.9903	-71.951852	0.000527	5.273084	1.786569	-0.000211
1507	1.4985e+02	-20.0176	-72.129486	0.000446	4.461840	1.511712	-0.000179
1508	1.4995e+02	-19.9919	-72.181968	-0.000132	-1.318271	-0.446642	-0.000053
1509	1.5005e+02	-19.9502	-72.230414	-0.000122	-1.216866	-0.412285	-0.000049
1510	1.5015e+02	-19.9133	-72.190043	0.000101	1.014055	0.343571	0.000041
1511	1.5025e+02	-19.8652	-72.230414	-0.000101	-1.014055	-0.343571	-0.000041
1512	1.5034e+02	-19.8299	-72.186006	0.000112	1.115460	0.377928	0.000045
1513	1.5044e+02	-19.7914	-72.181968	0.000010	0.101405	0.034357	0.000004
1514	1.5054e+02	-19.7481	-72.149671	0.000081	0.811244	0.274857	0.000032
1515	1.5064e+02	-19.7128	-72.137560	0.000030	0.304216	0.103071	0.000012
1516	1.5074e+02	-19.6631	-72.089114	0.000122	1.216866	0.412285	0.000049
1517	1.5084e+02	-19.6326	-72.101226	-0.000030	-0.304216	-0.103071	-0.000012
1518	1.5094e+02	-19.5797	-72.048743	0.000132	1.318271	0.446642	0.000053
1519	1.5104e+02	-19.5540	-72.032594	0.000041	0.405622	0.137428	0.000016
1520	1.5114e+02	-19.5107	-72.008372	0.000061	0.608433	0.206143	0.000024
1521	1.5124e+02	-19.4690	-71.955889	0.000132	1.318271	0.446642	0.000053
1522	1.5134e+02	-19.4289	-71.931666	0.000061	0.608433	0.206143	0.000024
1523	1.5144e+02	-19.3936	-71.842849	0.000223	2.230920	0.755856	0.000089
1524	1.5154e+02	-19.3422	-71.818626	0.000061	0.608433	0.206143	0.000024
1525	1.5164e+02	-19.3150	-71.745958	0.000183	1.825298	0.618428	0.000073
1526	1.5174e+02	-19.2700	-71.705586	0.000101	1.014055	0.343571	0.000041
1527	1.5184e+02	-19.2428	-71.685401	0.000051	0.507027	0.171786	0.000020
1528	1.5194e+02	-19.1995	-71.653104	0.000081	0.811244	0.274857	0.000032
1529	1.5204e+02	-19.1561	-71.556212	0.000243	2.433731	0.824570	0.000097
1530	1.5214e+02	-19.1160	-71.491618	0.000162	1.622487	0.549714	0.000065
1531	1.5224e+02	-19.0775	-71.447210	0.000112	1.115460	0.377928	0.000045
1532	1.5233e+02	-19.0374	-71.346281	0.000254	2.535137	0.858928	0.000101
1533	1.5243e+02	-18.9813	-71.265539	0.000203	2.028109	0.687142	0.000081
1534	1.5253e+02	-18.9556	-71.253427	0.000030	0.304216	0.103071	0.000012
1535	1.5263e+02	-18.9139	-71.200944	0.000132	1.318271	0.446642	0.000053
1536	1.5273e+02	-18.8754	-71.100016	0.000254	2.535137	0.858928	0.000101
1537	1.5283e+02	-18.8321	-71.063682	0.000091	0.912649	0.309214	0.000037
1538	1.5293e+02	-18.8032	-70.966791	0.000243	2.433731	0.824570	0.000097
1539	1.5303e+02	-18.7503	-70.922382	0.000112	1.115460	0.377928	0.000045
1540	1.5313e+02	-18.7166	-70.833565	0.000223	2.230920	0.755856	0.000089
1541	1.5323e+02	-18.6749	-70.813379	0.000051	0.507027	0.171786	0.000020
1542	1.5333e+02	-18.6235	-70.756860	0.000142	1.419676	0.480999	0.000057
1543	1.5343e+02	-18.6027	-70.655931	0.000254	2.535137	0.858928	0.000101
1544	1.5353e+02	-18.5642	-70.550966	0.000264	2.636542	0.893285	0.000105
1545	1.5363e+02	-18.5177	-70.494446	0.000142	1.419676	0.480999	0.000057
1546	1.5373e+02	-18.4695	-70.421777	0.000183	1.825298	0.618428	0.000073
1547	1.5383e+02	-18.4294	-70.324886	0.000243	2.433731	0.824570	0.000097
1548	1.5393e+02	-18.4054	-70.272403	0.000132	1.318271	0.446642	0.000053
1549	1.5403e+02	-18.3556	-70.195698	0.000193	1.926704	0.652785	0.000077
1550	1.5413e+02	-18.3155	-70.155326	0.000101	1.014055	0.343571	0.000041
1551	1.5422e+02	-18.2754	-70.018064	0.000345	3.447786	1.168141	0.000138
1552	1.5432e+02	-18.2385	-69.969618	0.000122	1.216866	0.412285	0.000049
1553	1.5442e+02	-18.2000	-69.896950	0.000183	1.825298	0.618428	0.000073
1554	1.5452e+02	-18.1599	-69.767761	0.000324	3.244975	1.099427	0.000130
1555	1.5462e+02	-18.1182	-69.707204	0.000152	1.521082	0.515357	0.000061
1556	1.5472e+02	-18.0781	-69.618387	0.000223	2.230920	0.755856	0.000089
1557	1.5482e+02	-18.0444	-69.573979	0.000112	1.115460	0.377928	0.000045
1558	1.5492e+02	-18.0011	-69.460939	0.000284	2.839353	0.961999	0.000114
1559	1.5502e+02	-17.9466	-69.388270	0.000183	1.825298	0.618428	0.000073
1560	1.5512e+02	-17.9097	-69.315602	0.000183	1.825298	0.618428	0.000073
1561	1.5522e+02	-17.8792	-69.238896	0.000193	1.926704	0.652785	0.000077
1562	1.5532e+02	-17.8343	-69.166228	0.000183	1.825298	0.618428	0.000073
1563	1.5542e+02	-17.7990	-69.045114	0.000304	3.042164	1.030713	0.000122
1564	1.5552e+02	-17.7492	-68.940148	0.000264	2.636542	0.893285	0.000105
1565	1.5562e+02	-17.7252	-68.887666	0.000132	1.318271	0.446642	0.000053
1566	1.5572e+02	-17.6722	-68.835183	0.000132	1.318271	0.446642	0.000053
1567	1.5582e+02	-17.6417	-68.714069	0.000304	3.042164	1.030713	0.000122
1568	1.5592e+02	-17.5968	-68.653512	0.000152	1.521082	0.515357	0.000061
1569	1.5602e+02	-17.5583	-68.560658	0.000233	2.332326	0.790213	0.000093
1570	1.5612e+02	-17.5102	-68.447618	0.000284	2.839353	0.961999	0.000114
1571	1.5622e+02	-17.4813	-68.358801	0.000223	2.230920	0.755856	0.000089
1572	1.5631e+02	-17.4396	-68.290170	0.000172	1.723893	0.584071	0.000069
1573	1.5641e+02	-17.4043	-68.152907	0.000345	3.447786	1.168141	0.000138
1574	1.5651e+02	-17.3642	-68.124647	0.000071	0.709838	0.240500	0.000028
1575	1.5661e+02	-17.3209	-68.056016	0.000172	1.723893	0.584071	0.000069
1576	1.5671e+02	-17.2680	-67.918753	0.000345	3.447786	1.168141	0.000138
1577	1.5681e+02	-17.2407	-67.870307	0.000122	1.216866	0.412285	0.000049
1578	1.5691e+02	-17.2038	-67.753231	0.000294	2.940758	0.996356	0.000118
1579	1.5701e+02	-17.1525	-67.668451	0.000213	2.129515	0.721499	0.000085
1580	1.5711e+02	-17.1188	-67.579634	0.000223	2.230920	0.755856	0.000089
1581	1.5721e+02	-17.0771	-67.474668	0.000264	2.636542	0.893285	0.000105
1582	1.5731e+02	-17.0434	-67.422185	0.000132	1.318271	0.446642	0.000053
1583	1.5741e+02	-16.9952	-67.337406	0.000213	2.129515	0.721499	0.000085
1584	1.5751e+02	-16.9632	-67.228403	0.000274	2.737948	0.927642	0.000110
1585	1.5761e+02	-16.9231	-67.119400	0.000274	2.737948	0.927642	0.000110
1586	1.5771e+02	-16.8717	-67.054806	0.000162	1.622487	0.549714	0.000065
1587	1.5781e+02	-16.8428	-66.941766	0.000284	2.839353	0.961999	0.000114
1588	1.5791e+02	-16.8075	-66.861024	0.000203	2.028109	0.687142	0.000081
1589	1.5801e+02	-16.7658	-66.727798	0.000335	3.346380	1.133784	0.000134
1590	1.5811e+02	-16.7209	-66.671278	0.000142	1.419676	0.480999	0.000057
1591	1.5821e+02	-16.6888	-66.618795	0.000132	1.318271	0.446642	0.000053
1592	1.5830e+02	-16.6407	-66.489607	0.000324	3.244975	1.099427	0.000130
1593	1.5840e+02	-16.6118	-66.376567	0.000284	2.839353	0.961999	0.000114
1594	1.5850e+02	-16.5637	-66.336196	0.000101	1.014055	0.343571	0.000041
1595	1.5860e+02	-16.5284	-66.194896	0.000355	3.549191	1.202499	0.000142
1596	1.5870e+02	-16.4867	-66.146450	0.000122	1.216866	0.412285	0.000049
1597	1.5880e+02	-16.4418	-66.041485	0.000264	2.636542	0.893285	0.000105
1598	1.5890e+02	-16.3985	-65.984965	0.000142	1.419676	0.480999	0.000057
1599	1.5900e+02	-16.3568	-65.843665	0.000355	3.549191	1.202499	0.000142
1600	1.5910e+02	-16.3199	-65.803294	0.000101	1.014055	0.343571	0.000041
1601	1.5920e+02	-16.2878	-65.670068	0.000335	3.346380	1.133784	0.000134
1602	1.5930e+02	-16.2477	-65.573177	0.000243	2.433731	0.824570	0.000097
1603	1.5940e+02	-16.1963	-65.480323	0.000233	2.332326	0.790213	0.000093
1604	1.5950e+02	-16.1594	-65.375358	0.000264	2.636542	0.893285	0.000105
1605	1.5960e+02	-16.1290	-65.294615	0.000203	2.028109	0.687142	0.000081
1606	1.5970e+02	-16.0776	-65.177538	0.000294	2.940758	0.996356	0.000118
1607	1.5980e+02	-16.0471	-65.096795	0.000203	2.028109	0.687142	0.000081
1608	1.5990e+02	-16.0086	-64.983755	0.000284	2.839353	0.961999	0.000114
1609	1.6000e+02	-15.9669	-64.886864	0.000243	2.433731	0.824570	0.000097
1610	1.6010e+02	-15.9332	-64.806121	0.000203	2.028109	0.687142	0.000081
1611	1.6019e+02	-15.8835	-64.705193	0.000254	2.535137	0.858928	0.000101
1612	1.6029e+02	-15.8402	-64.636562	0.000172	1.723893	0.584071	0.000069
1613	1.6039e+02	-15.8129	-64.515448	0.000304	3.042164	1.030713	0.000122
1614	1.6049e+02	-15.7616	-64.422594	0.000233	2.332326	0.790213	0.000093
1615	1.6059e+02	-15.7311	-64.337814	0.000213	2.129515	0.721499	0.000085
1616	1.6069e+02	-15.6846	-64.265145	0.000183	1.825298	0.618428	0.000073
1617	1.6079e+02	-15.6397	-64.139994	0.000314	3.143569	1.065070	0.000126
1618	1.6089e+02	-15.6076	-64.047140	0.000233	2.332326	0.790213	0.000093
1619	1.6099e+02	-15.5643	-63.921989	0.000314	3.143569	1.065070	0.000126
1620	1.6109e+02	-15.5258	-63.833172	0.000223	2.230920	0.755856	0.000089
1621	1.6119e+02	-15.4905	-63.748392	0.000213	2.129515	0.721499	0.000085
1622	1.6129e+02	-15.4439	-63.631315	0.000294	2.940758	0.996356	0.000118
1623	1.6139e+02	-15.4103	-63.526349	0.000264	2.636542	0.893285	0.000105
1624	1.6149e+02	-15.3669	-63.449644	0.000193	1.926704	0.652785	0.000077
1625	1.6159e+02	-15.3381	-63.360827	0.000223	2.230920	0.755856	0.000089
1626	1.6169e+02	-15.2851	-63.243750	0.000294	2.940758	0.996356	0.000118
1627	1.6179e+02	-15.2563	-63.154933	0.000223	2.230920	0.755856	0.000089
1628	1.6189e+02	-15.2017	-63.054005	0.000254	2.535137	0.858928	0.000101
1629	1.6199e+02	-15.1648	-62.953076	0.000254	2.535137	0.858928	0.000101
1630	1.6209e+02	-15.1295	-62.840036	0.000284	2.839353	0.961999	0.000114
1631	1.6219e+02	-15.0862	-62.759294	0.000203	2.028109	0.687142	0.000081
1632	1.6228e+02	-15.0493	-62.642217	0.000294	2.940758	0.996356	0.000118
1633	1.6238e+02	-15.0076	-62.549363	0.000233	2.332326	0.790213	0.000093
1634	1.6248e+02	-14.9643	-62.476694	0.000183	1.825298	0.618428	0.000073
1635	1.6258e+02	-14.9306	-62.367691	0.000274	2.737948	0.927642	0.000110
1636	1.6268e+02	-14.8889	-62.218317	0.000375	3.752002	1.271213	0.000150
1637	1.6278e+02	-14.8504	-62.133538	0.000213	2.129515	0.721499	0.000085
1638	1.6288e+02	-14.8087	-62.044721	0.000223	2.230920	0.755856	0.000089
1639	1.6298e+02	-14.7589	-61.943792	0.000254	2.535137	0.858928	0.000101
1640	1.6308e+02	-14.7333	-61.863049	0.000203	2.028109	0.687142	0.000081
1641	1.6318e+02	-14.6900	-61.745973	0.000294	2.940758	0.996356	0.000118
1642	1.6328e+02	-14.6466	-61.653118	0.000233	2.332326	0.790213	0.000093
1643	1.6338e+02	-14.6033	-61.523930	0.000324	3.244975	1.099427	0.000130
1644	1.6348e+02	-14.5729	-61.447225	0.000193	1.926704	0.652785	0.000077
1645	1.6358e+02	-14.5327	-61.354370	0.000233	2.332326	0.790213	0.000093
1646	1.6368e+02	-14.4926	-61.249405	0.000264	2.636542	0.893285	0.000105
1647	1.6378e+02	-14.4525	-61.120217	0.000324	3.244975	1.099427	0.000130
1648	1.6388e+02	-14.4140	-61.031400	0.000223	2.230920	0.755856	0.000089
1649	1.6398e+02	-14.3739	-60.942583	0.000223	2.230920	0.755856	0.000089
1650	1.6408e+02	-14.3354	-60.825506	0.000294	2.940758	0.996356	0.000118
1651	1.6418e+02	-14.2969	-60.728614	0.000243	2.433731	0.824570	0.000097
1652	1.6427e+02	-14.2488	-60.639797	0.000223	2.230920	0.755856	0.000089
1653	1.6437e+02	-14.2135	-60.518683	0.000304	3.042164	1.030713	0.000122
1654	1.6447e+02	-14.1638	-60.397569	0.000304	3.042164	1.030713	0.000122
1655	1.6457e+02	-14.1301	-60.228010	0.000426	4.259029	1.442998	0.000170
1656	1.6467e+02	-14.0900	-60.191675	0.000091	0.912649	0.309214	0.000037
1657	1.6477e+02	-14.0611	-60.098821	0.000233	2.332326	0.790213	0.000093
1658	1.6487e+02	-14.0066	-59.961559	0.000345	3.447786	1.168141	0.000138
1659	1.6497e+02	-13.9729	-59.913113	0.000122	1.216866	0.412285	0.000049
1660	1.6507e+02	-13.9328	-59.771813	0.000355	3.549191	1.202499	0.000142
1661	1.6517e+02	-13.8911	-59.687033	0.000213	2.129515	0.721499	0.000085
1662	1.6527e+02	-13.8493	-59.586105	0.000254	2.535137	0.858928	0.000101
1663	1.6537e+02	-13.8140	-59.436731	0.000375	3.752002	1.271213	0.000150
1664	1.6547e+02	-13.7643	-59.368100	0.000172	1.723893	0.584071	0.000069
1665	1.6557e+02	-13.7419	-59.267171	0.000254	2.535137	0.858928	0.000101
1666	1.6567e+02	-13.6841	-59.150094	0.000294	2.940758	0.996356	0.000118
1667	1.6577e+02	-13.6520	-59.049166	0.000254	2.535137	0.858928	0.000101
1668	1.6587e+02	-13.6151	-58.952275	0.000243	2.433731	0.824570	0.000097
1669	1.6597e+02	-13.5686	-58.839235	0.000284	2.839353	0.961999	0.000114
1670	1.6607e+02	-13.5349	-58.718121	0.000304	3.042164	1.030713	0.000122
1671	1.6616e+02	-13.4932	-58.649489	0.000172	1.723893	0.584071	0.000069
1672	1.6626e+02	-13.4563	-58.508190	0.000355	3.549191	1.202499	0.000142
1673	1.6636e+02	-13.4018	-58.374964	0.000335	3.346380	1.133784	0.000134
1674	1.6646e+02	-13.3713	-58.278073	0.000243	2.433731	0.824570	0.000097
1675	1.6656e+02	-13.3344	-58.189256	0.000223	2.230920	0.755856	0.000089
1676	1.6666e+02	-13.2927	-58.076216	0.000284	2.839353	0.961999	0.000114
1677	1.6676e+02	-13.2542	-57.983362	0.000233	2.332326	0.790213	0.000093
1678	1.6686e+02	-13.2221	-57.882434	0.000254	2.535137	0.858928	0.000101
1679	1.6696e+02	-13.1804	-57.781505	0.000254	2.535137	0.858928	0.000101
1680	1.6706e+02	-13.1403	-57.660391	0.000304	3.042164	1.030713	0.000122
1681	1.6716e+02	-13.1082	-57.531203	0.000324	3.244975	1.099427	0.000130
1682	1.6726e+02	-13.0601	-57.454497	0.000193	1.926704	0.652785	0.000077
1683	1.6736e+02	-13.0071	-57.337420	0.000294	2.940758	0.996356	0.000118
1684	1.6746e+02	-12.9686	-57.188046	0.000375	3.752002	1.271213	0.000150
1685	1.6756e+02	-12.9333	-57.131526	0.000142	1.419676	0.480999	0.000057
1686	1.6766e+02	-12.8948	-57.002338	0.000324	3.244975	1.099427	0.000130
1687	1.6776e+02	-12.8579	-56.881224	0.000304	3.042164	1.030713	0.000122
1688	1.6786e+02	-12.8226	-56.772221	0.000274	2.737948	0.927642	0.000110
1689	1.6796e+02	-12.7697	-56.663219	0.000274	2.737948	0.927642	0.000110
1690	1.6806e+02	-12.7376	-56.582476	0.000203	2.028109	0.687142	0.000081
1691	1.6816e+02	-12.6927	-56.437139	0.000365	3.650597	1.236856	0.000146
1692	1.6825e+02	-12.6638	-56.324099	0.000284	2.839353	0.961999	0.000114
1693	1.6835e+02	-12.6173	-56.215097	0.000274	2.737948	0.927642	0.000110
1694	1.6845e+02	-12.5788	-56.098020	0.000294	2.940758	0.996356	0.000118
1695	1.6855e+02	-12.5451	-56.009203	0.000223	2.230920	0.755856	0.000089
1696	1.6865e+02	-12.4873	-55.908274	0.000254	2.535137	0.858928	0.000101
1697	1.6875e+02	-12.4537	-55.803309	0.000264	2.636542	0.893285	0.000105
1698	1.6885e+02	-12.4168	-55.678158	0.000314	3.143569	1.065070	0.000126
1699	1.6895e+02	-12.3767	-55.577229	0.000254	2.535137	0.858928	0.000101
1700	1.6905e+02	-12.3478	-55.456115	0.000304	3.042164	1.030713	0.000122
1701	1.6915e+02	-12.2980	-55.314815	0.000355	3.549191	1.202499	0.000142
1702	1.6925e+02	-12.2628	-55.221961	0.000233	2.332326	0.790213	0.000093
1703	1.6935e+02	-12.2226	-55.129107	0.000233	2.332326	0.790213	0.000093
1704	1.6945e+02	-12.1745	-55.016067	0.000284	2.839353	0.961999	0.000114
1705	1.6955e+02	-12.1360	-54.866693	0.000375	3.752002	1.271213	0.000150
1706	1.6965e+02	-12.0959	-54.814210	0.000132	1.318271	0.446642	0.000053
1707	1.6975e+02	-12.0719	-54.668874	0.000365	3.650597	1.236856	0.000146
1708	1.6985e+02	-12.0125	-54.559871	0.000274	2.737948	0.927642	0.000110
1709	1.6995e+02	-11.9772	-54.471054	0.000223	2.230920	0.755856	0.000089
1710	1.7005e+02	-11.9371	-54.349940	0.000304	3.042164	1.030713	0.000122
1711	1.7015e+02	-11.9002	-54.164232	0.000466	4.664651	1.580427	0.000187
1712	1.7024e+02	-11.8617	-54.087526	0.000193	1.926704	0.652785	0.000077
1713	1.7034e+02	-11.8216	-53.966412	0.000304	3.042164	1.030713	0.000122
1714	1.7044e+02	-11.7751	-53.853372	0.000284	2.839353	0.961999	0.000114
1715	1.7054e+02	-11.7510	-53.792815	0.000152	1.521082	0.515357	0.000061
1716	1.7064e+02	-11.6933	-53.643441	0.000375	3.752002	1.271213	0.000150
1717	1.7074e+02	-11.6660	-53.546550	0.000243	2.433731	0.824570	0.000097
1718	1.7084e+02	-11.6211	-53.433510	0.000284	2.839353	0.961999	0.000114
1719	1.7094e+02	-11.5858	-53.296247	0.000345	3.447786	1.168141	0.000138
1720	1.7104e+02	-11.5376	-53.179171	0.000294	2.940758	0.996356	0.000118
1721	1.7114e+02	-11.5136	-53.090354	0.000223	2.230920	0.755856	0.000089
1722	1.7124e+02	-11.4655	-52.945017	0.000365	3.650597	1.236856	0.000146
1723	1.7134e+02	-11.4189	-52.831977	0.000284	2.839353	0.961999	0.000114
1724	1.7144e+02	-11.3949	-52.710863	0.000304	3.042164	1.030713	0.000122
1725	1.7154e+02	-11.3451	-52.601860	0.000274	2.737948	0.927642	0.000110
1726	1.7164e+02	-11.3018	-52.472672	0.000324	3.244975	1.099427	0.000130
1727	1.7174e+02	-11.2617	-52.375780	0.000243	2.433731	0.824570	0.000097
1728	1.7184e+02	-11.2232	-52.270815	0.000264	2.636542	0.893285	0.000105
1729	1.7194e+02	-11.1831	-52.165849	0.000264	2.636542	0.893285	0.000105
1730	1.7204e+02	-11.1398	-52.028587	0.000345	3.447786	1.168141	0.000138
1731	1.7213e+02	-11.1045	-51.907473	0.000304	3.042164	1.030713	0.000122
1732	1.7223e+02	-11.0644	-51.770210	0.000345	3.447786	1.168141	0.000138
1733	1.7233e+02	-11.0275	-51.693505	0.000193	1.926704	0.652785	0.000077
1734	1.7243e+02	-10.9842	-51.548168	0.000365	3.650597	1.236856	0.000146
1735	1.7253e+02	-10.9441	-51.414942	0.000335	3.346380	1.133784	0.000134
1736	1.7263e+02	-10.9056	-51.322088	0.000233	2.332326	0.790213	0.000093
1737	1.7273e+02	-10.8687	-51.205011	0.000294	2.940758	0.996356	0.000118
1738	1.7283e+02	-10.8318	-51.112157	0.000233	2.332326	0.790213	0.000093
1739	1.7293e+02	-10.7772	-50.978932	0.000335	3.346380	1.133784	0.000134
1740	1.7303e+02	-10.7435	-50.857817	0.000304	3.042164	1.030713	0.000122
1741	1.7313e+02	-10.7034	-50.748815	0.000274	2.737948	0.927642	0.000110
1742	1.7323e+02	-10.6649	-50.607515	0.000355	3.549191	1.202499	0.000142
1743	1.7333e+02	-10.6232	-50.462178	0.000365	3.650597	1.236856	0.000146
1744	1.7343e+02	-10.5863	-50.345101	0.000294	2.940758	0.996356	0.000118
1745	1.7353e+02	-10.5446	-50.232061	0.000284	2.839353	0.961999	0.000114
1746	1.7363e+02	-10.5093	-50.143244	0.000223	2.230920	0.755856	0.000089
1747	1.7373e+02	-10.4708	-50.010019	0.000335	3.346380	1.133784	0.000134
1748	1.7383e+02	-10.4227	-49.884868	0.000314	3.143569	1.065070	0.000126
1749	1.7393e+02	-10.3858	-49.755679	0.000324	3.244975	1.099427	0.000130
1750	1.7403e+02	-10.3473	-49.699160	0.000142	1.419676	0.480999	0.000057
1751	1.7413e+02	-10.3056	-49.574008	0.000314	3.143569	1.065070	0.000126
1752	1.7422e+02	-10.2719	-49.420597	0.000385	3.853408	1.305570	0.000154
1753	1.7432e+02	-10.2286	-49.291409	0.000324	3.244975	1.099427	0.000130
1754	1.7442e+02	-10.1949	-49.182406	0.000274	2.737948	0.927642	0.000110
1755	1.7452e+02	-10.1452	-49.061292	0.000304	3.042164	1.030713	0.000122
1756	1.7462e+02	-10.1067	-48.903844	0.000395	3.954813	1.339927	0.000158
1757	1.7472e+02	-10.0634	-48.790804	0.000284	2.839353	0.961999	0.000114
1758	1.7482e+02	-10.0265	-48.685838	0.000264	2.636542	0.893285	0.000105
1759	1.7492e+02	-9.9928	-48.584910	0.000254	2.535137	0.858928	0.000101
1760	1.7502e+02	-9.9495	-48.439573	0.000365	3.650597	1.236856	0.000146
1761	1.7512e+02	-9.9061	-48.306348	0.000335	3.346380	1.133784	0.000134
1762	1.7522e+02	-9.8676	-48.185234	0.000304	3.042164	1.030713	0.000122
1763	1.7532e+02	-9.8307	-48.072194	0.000284	2.839353	0.961999	0.000114
1764	1.7542e+02	-9.7922	-47.951080	0.000304	3.042164	1.030713	0.000122
1765	1.7552e+02	-9.7457	-47.805743	0.000365	3.650597	1.236856	0.000146
1766	1.7562e+02	-9.7088	-47.704814	0.000254	2.535137	0.858928	0.000101
1767	1.7572e+02	-9.6655	-47.583700	0.000304	3.042164	1.030713	0.000122
1768	1.7582e+02	-9.6334	-47.478735	0.000264	2.636542	0.893285	0.000105
1769	1.7592e+02	-9.5869	-47.357621	0.000304	3.042164	1.030713	0.000122
1770	1.7602e+02	-9.5596	-47.220358	0.000345	3.447786	1.168141	0.000138
1771	1.7612e+02	-9.5035	-47.087133	0.000335	3.346380	1.133784	0.000134
1772	1.7621e+02	-9.4714	-46.966019	0.000304	3.042164	1.030713	0.000122
1773	1.7631e+02	-9.4297	-46.816645	0.000375	3.752002	1.271213	0.000150
1774	1.7641e+02	-9.3944	-46.715716	0.000254	2.535137	0.858928	0.000101
1775	1.7651e+02	-9.3447	-46.594602	0.000304	3.042164	1.030713	0.000122
1776	1.7661e+02	-9.3062	-46.493674	0.000254	2.535137	0.858928	0.000101
1777	1.7671e+02	-9.2773	-46.388708	0.000264	2.636542	0.893285	0.000105
1778	1.7681e+02	-9.2340	-46.263557	0.000314	3.143569	1.065070	0.000126
1779	1.7691e+02	-9.1955	-46.077849	0.000466	4.664651	1.580427	0.000187
1780	1.7701e+02	-9.1489	-45.976920	0.000254	2.535137	0.858928	0.000101
1781	1.7711e+02	-9.1024	-45.807361	0.000426	4.259029	1.442998	0.000170
1782	1.7721e+02	-9.0767	-45.722581	0.000213	2.129515	0.721499	0.000085
1783	1.7731e+02	-9.0238	-45.601467	0.000304	3.042164	1.030713	0.000122
1784	1.7741e+02	-8.9949	-45.484390	0.000294	2.940758	0.996356	0.000118
1785	1.7751e+02	-8.9532	-45.314830	0.000426	4.259029	1.442998	0.000170
1786	1.7761e+02	-8.9147	-45.217939	0.000243	2.433731	0.824570	0.000097
1787	1.7771e+02	-8.8746	-45.088750	0.000324	3.244975	1.099427	0.000130
1788	1.7781e+02	-8.8265	-44.987822	0.000254	2.535137	0.858928	0.000101
1789	1.7791e+02	-8.7944	-44.846522	0.000355	3.549191	1.202499	0.000142
1790	1.7801e+02	-8.7527	-44.697148	0.000375	3.752002	1.271213	0.000150
1791	1.7810e+02	-8.7078	-44.596220	0.000254	2.535137	0.858928	0.000101
1792	1.7820e+02	-8.6757	-44.471069	0.000314	3.143569	1.065070	0.000126
1793	1.7830e+02	-8.6292	-44.353992	0.000294	2.940758	0.996356	0.000118
1794	1.7840e+02	-8.5923	-44.220766	0.000335	3.346380	1.133784	0.000134
1795	1.7850e+02	-8.5538	-44.047169	0.000436	4.360435	1.477355	0.000174
1796	1.7860e+02	-8.5137	-43.962390	0.000213	2.129515	0.721499	0.000085
1797	1.7870e+02	-8.4703	-43.821090	0.000355	3.549191	1.202499	0.000142
1798	1.7880e+02	-8.4351	-43.704013	0.000294	2.940758	0.996356	0.000118
1799	1.7890e+02	-8.4046	-43.550602	0.000385	3.853408	1.305570	0.000154
1800	1.7900e+02	-8.3468	-43.429488	0.000304	3.042164	1.030713	0.000122
1801	1.7910e+02	-8.3083	-43.296262	0.000335	3.346380	1.133784	0.000134
1802	1.7920e+02	-8.2762	-43.167074	0.000324	3.244975	1.099427	0.000130
1803	1.7930e+02	-8.2313	-43.070183	0.000243	2.433731	0.824570	0.000097
1804	1.7940e+02	-8.1896	-42.896586	0.000436	4.360435	1.477355	0.000174
1805	1.7950e+02	-8.1511	-42.787583	0.000274	2.737948	0.927642	0.000110
1806	1.7960e+02	-8.1158	-42.650321	0.000345	3.447786	1.168141	0.000138
1807	1.7970e+02	-8.0709	-42.513058	0.000345	3.447786	1.168141	0.000138
1808	1.7980e+02	-8.0308	-42.395981	0.000294	2.940758	0.996356	0.000118
1809	1.7990e+02	-8.0003	-42.270830	0.000314	3.143569	1.065070	0.000126
1810	1.8000e+02	-7.9538	-42.117419	0.000385	3.853408	1.305570	0.000154
1811	1.8009e+02	-7.9233	-41.996305	0.000304	3.042164	1.030713	0.000122
1812	1.8019e+02	-7.8720	-41.830782	0.000416	4.157624	1.408641	0.000166
1813	1.8029e+02	-7.8319	-41.746002	0.000213	2.129515	0.721499	0.000085
1814	1.8039e+02	-7.7966	-41.592591	0.000385	3.853408	1.305570	0.000154
1815	1.8049e+02	-7.7629	-41.439180	0.000385	3.853408	1.305570	0.000154
1816	1.8059e+02	-7.7228	-41.330177	0.000274	2.737948	0.927642	0.000110
1817	1.8069e+02	-7.6827	-41.184840	0.000365	3.650597	1.236856	0.000146
1818	1.8079e+02	-7.6313	-41.059689	0.000314	3.143569	1.065070	0.000126
1819	1.8089e+02	-7.5864	-40.942612	0.000294	2.940758	0.996356	0.000118
1820	1.8099e+02	-7.5543	-40.821498	0.000304	3.042164	1.030713	0.000122
1821	1.8109e+02	-7.5158	-40.635790	0.000466	4.664651	1.580427	0.000187
1822	1.8119e+02	-7.4773	-40.546973	0.000223	2.230920	0.755856	0.000089
1823	1.8129e+02	-7.4436	-40.365302	0.000456	4.563246	1.546070	0.000183
1824	1.8139e+02	-7.3939	-40.292633	0.000183	1.825298	0.618428	0.000073
1825	1.8149e+02	-7.3618	-40.175556	0.000294	2.940758	0.996356	0.000118
1826	1.8159e+02	-7.3185	-39.981774	0.000487	4.867462	1.649141	0.000195
1827	1.8169e+02	-7.2768	-39.876808	0.000264	2.636542	0.893285	0.000105
1828	1.8179e+02	-7.2335	-39.711286	0.000416	4.157624	1.408641	0.000166
1829	1.8189e+02	-7.1982	-39.578060	0.000335	3.346380	1.133784	0.000134
1830	1.8199e+02	-7.1581	-39.444835	0.000335	3.346380	1.133784	0.000134
1831	1.8209e+02	-7.1116	-39.327758	0.000294	2.940758	0.996356	0.000118
1832	1.8218e+02	-7.0859	-39.154161	0.000436	4.360435	1.477355	0.000174
1833	1.8228e+02	-7.0410	-39.073418	0.000203	2.028109	0.687142	0.000081
1834	1.8238e+02	-6.9961	-38.928081	0.000365	3.650597	1.236856	0.000146
1835	1.8248e+02	-6.9640	-38.758522	0.000426	4.259029	1.442998	0.000170
1836	1.8258e+02	-6.9158	-38.625296	0.000335	3.346380	1.133784	0.000134
1837	1.8268e+02	-6.8854	-38.516294	0.000274	2.737948	0.927642	0.000110
1838	1.8278e+02	-6.8356	-38.387105	0.000324	3.244975	1.099427	0.000130
1839	1.8288e+02	-6.7955	-38.205434	0.000456	4.563246	1.546070	0.000183
1840	1.8298e+02	-6.7683	-38.112580	0.000233	2.332326	0.790213	0.000093
1841	1.8308e+02	-6.7217	-37.963206	0.000375	3.752002	1.271213	0.000150
1842	1.8318e+02	-6.6848	-37.825943	0.000345	3.447786	1.168141	0.000138
1843	1.8328e+02	-6.6431	-37.700792	0.000314	3.143569	1.065070	0.000126
1844	1.8338e+02	-6.6030	-37.571604	0.000324	3.244975	1.099427	0.000130
1845	1.8348e+02	-6.5549	-37.426267	0.000365	3.650597	1.236856	0.000146
1846	1.8358e+02	-6.5164	-37.293041	0.000335	3.346380	1.133784	0.000134
1847	1.8368e+02	-6.4795	-37.135593	0.000395	3.954813	1.339927	0.000158
1848	1.8378e+02	-6.4458	-36.994293	0.000355	3.549191	1.202499	0.000142
1849	1.8388e+02	-6.4025	-36.861068	0.000335	3.346380	1.133784	0.000134
1850	1.8398e+02	-6.3704	-36.735917	0.000314	3.143569	1.065070	0.000126
1851	1.8407e+02	-6.3287	-36.594617	0.000355	3.549191	1.202499	0.000142
1852	1.8417e+02	-6.2934	-36.457354	0.000345	3.447786	1.168141	0.000138
1853	1.8427e+02	-6.2437	-36.303943	0.000385	3.853408	1.305570	0.000154
1854	1.8437e+02	-6.2020	-36.154569	0.000375	3.752002	1.271213	0.000150
1855	1.8447e+02	-6.1651	-36.041529	0.000284	2.839353	0.961999	0.000114
1856	1.8457e+02	-6.1234	-35.863895	0.000446	4.461840	1.511712	0.000179
1857	1.8467e+02	-6.0881	-35.722596	0.000355	3.549191	1.202499	0.000142
1858	1.8477e+02	-6.0512	-35.641853	0.000203	2.028109	0.687142	0.000081
1859	1.8487e+02	-6.0062	-35.480367	0.000406	4.056219	1.374284	0.000162
1860	1.8497e+02	-5.9613	-35.314845	0.000416	4.157624	1.408641	0.000166
1861	1.8507e+02	-5.9405	-35.205842	0.000274	2.737948	0.927642	0.000110
1862	1.8517e+02	-5.8875	-35.036283	0.000426	4.259029	1.442998	0.000170
1863	1.8527e+02	-5.8394	-34.866723	0.000426	4.259029	1.442998	0.000170
1864	1.8537e+02	-5.8073	-34.769832	0.000243	2.433731	0.824570	0.000097
1865	1.8547e+02	-5.7672	-34.596235	0.000436	4.360435	1.477355	0.000174
1866	1.8557e+02	-5.7207	-34.458972	0.000345	3.447786	1.168141	0.000138
1867	1.8567e+02	-5.6854	-34.305561	0.000385	3.853408	1.305570	0.000154
1868	1.8577e+02	-5.6357	-34.200595	0.000264	2.636542	0.893285	0.000105
1869	1.8587e+02	-5.6084	-34.018924	0.000456	4.563246	1.546070	0.000183
1870	1.8597e+02	-5.5619	-33.913959	0.000264	2.636542	0.893285	0.000105
1871	1.8606e+02	-5.5330	-33.776696	0.000345	3.447786	1.168141	0.000138
1872	1.8616e+02	-5.4881	-33.631359	0.000365	3.650597	1.236856	0.000146
1873	1.8626e+02	-5.4432	-33.441614	0.000477	4.766057	1.614784	0.000191
1874	1.8636e+02	-5.4159	-33.324537	0.000294	2.940758	0.996356	0.000118
1875	1.8646e+02	-5.3646	-33.191311	0.000335	3.346380	1.133784	0.000134
1876	1.8656e+02	-5.3309	-33.029826	0.000406	4.056219	1.374284	0.000162
1877	1.8666e+02	-5.2859	-32.856229	0.000436	4.360435	1.477355	0.000174
1878	1.8676e+02	-5.2539	-32.755301	0.000254	2.535137	0.858928	0.000101
1879	1.8686e+02	-5.2089	-32.601890	0.000385	3.853408	1.305570	0.000154
1880	1.8696e+02	-5.1656	-32.440404	0.000406	4.056219	1.374284	0.000162
1881	1.8706e+02	-5.1239	-32.323327	0.000294	2.940758	0.996356	0.000118
1882	1.8716e+02	-5.0854	-32.125508	0.000497	4.968868	1.683498	0.000199
1883	1.8726e+02	-5.0549	-32.024579	0.000254	2.535137	0.858928	0.000101
1884	1.8736e+02	-5.0020	-31.830797	0.000487	4.867462	1.649141	0.000195
1885	1.8746e+02	-4.9715	-31.685460	0.000365	3.650597	1.236856	0.000146
1886	1.8756e+02	-4.9266	-31.568383	0.000294	2.940758	0.996356	0.000118
1887	1.8766e+02	-4.8833	-31.427083	0.000355	3.549191	1.202499	0.000142
1888	1.8776e+02	-4.8544	-31.269635	0.000395	3.954813	1.339927	0.000158
1889	1.8786e+02	-4.8047	-31.092001	0.000446	4.461840	1.511712	0.000179
1890	1.8796e+02	-4.7678	-30.987035	0.000264	2.636542	0.893285	0.000105
1891	1.8806e+02	-4.7309	-30.841698	0.000365	3.650597	1.236856	0.000146
1892	1.8815e+02	-4.6876	-30.700399	0.000355	3.549191	1.202499	0.000142
1893	1.8825e+02	-4.6555	-30.518728	0.000456	4.563246	1.546070	0.000183
1894	1.8835e+02	-4.6122	-30.393576	0.000314	3.143569	1.065070	0.000126
1895	1.8845e+02	-4.5737	-30.240165	0.000385	3.853408	1.305570	0.000154
1896	1.8855e+02	-4.5352	-30.070606	0.000426	4.259029	1.442998	0.000170
1897	1.8865e+02	-4.4951	-29.937380	0.000335	3.346380	1.133784	0.000134
1898	1.8875e+02	-4.4405	-29.788006	0.000375	3.752002	1.271213	0.000150
1899	1.8885e+02	-4.4148	-29.614409	0.000436	4.360435	1.477355	0.000174
1900	1.8895e+02	-4.3763	-29.493295	0.000304	3.042164	1.030713	0.000122
1901	1.8905e+02	-4.3314	-29.307587	0.000466	4.664651	1.580427	0.000187
1902	1.8915e+02	-4.2929	-29.178399	0.000324	3.244975	1.099427	0.000130
1903	1.8925e+02	-4.2480	-29.033062	0.000365	3.650597	1.236856	0.000146
1904	1.8935e+02	-4.2207	-28.875613	0.000395	3.954813	1.339927	0.000158
1905	1.8945e+02	-4.1710	-28.746425	0.000324	3.244975	1.099427	0.000130
1906	1.8955e+02	-4.1245	-28.564754	0.000456	4.563246	1.546070	0.000183
1907	1.8965e+02	-4.1004	-28.415380	0.000375	3.752002	1.271213	0.000150
1908	1.8975e+02	-4.0587	-28.241783	0.000436	4.360435	1.477355	0.000174
1909	1.8985e+02	-4.0106	-28.104520	0.000345	3.447786	1.168141	0.000138
1910	1.8995e+02	-3.9689	-27.987444	0.000294	2.940758	0.996356	0.000118
1911	1.9004e+02	-3.9352	-27.821921	0.000416	4.157624	1.408641	0.000166
1912	1.9014e+02	-3.8887	-27.668510	0.000385	3.853408	1.305570	0.000154
1913	1.9024e+02	-3.8534	-27.466653	0.000507	5.070273	1.717855	0.000203
1914	1.9034e+02	-3.8101	-27.373799	0.000233	2.332326	0.790213	0.000093
1915	1.9044e+02	-3.7812	-27.216351	0.000395	3.954813	1.339927	0.000158
1916	1.9054e+02	-3.7347	-27.034679	0.000456	4.563246	1.546070	0.000183
1917	1.9064e+02	-3.7042	-26.905491	0.000324	3.244975	1.099427	0.000130
1918	1.9074e+02	-3.6625	-26.711709	0.000487	4.867462	1.649141	0.000195
1919	1.9084e+02	-3.6175	-26.586557	0.000314	3.143569	1.065070	0.000126
1920	1.9094e+02	-3.5855	-26.404886	0.000456	4.563246	1.546070	0.000183
1921	1.9104e+02	-3.5293	-26.251475	0.000385	3.853408	1.305570	0.000154
1922	1.9114e+02	-3.4988	-26.085953	0.000416	4.157624	1.408641	0.000166
1923	1.9124e+02	-3.4523	-25.932541	0.000385	3.853408	1.305570	0.000154
1924	1.9134e+02	-3.4170	-25.791242	0.000355	3.549191	1.202499	0.000142
1925	1.9144e+02	-3.3753	-25.625719	0.000416	4.157624	1.408641	0.000166
1926	1.9154e+02	-3.3352	-25.492494	0.000335	3.346380	1.133784	0.000134
1927	1.9164e+02	-3.3063	-25.286600	0.000517	5.171679	1.752212	0.000207
1928	1.9174e+02	-3.2534	-25.173560	0.000284	2.839353	0.961999	0.000114
1929	1.9184e+02	-3.2149	-25.020149	0.000385	3.853408	1.305570	0.000154
1930	1.9194e+02	-3.1780	-24.850589	0.000426	4.259029	1.442998	0.000170
1931	1.9203e+02	-3.1379	-24.652769	0.000497	4.968868	1.683498	0.000199
1932	1.9213e+02	-3.1026	-24.499358	0.000385	3.853408	1.305570	0.000154
1933	1.9223e+02	-3.0545	-24.366133	0.000335	3.346380	1.133784	0.000134
1934	1.9233e+02	-3.0111	-24.200610	0.000416	4.157624	1.408641	0.000166
1935	1.9243e+02	-2.9807	-24.010865	0.000477	4.766057	1.614784	0.000191
1936	1.9253e+02	-2.9390	-23.905899	0.000264	2.636542	0.893285	0.000105
1937	1.9263e+02	-2.8924	-23.736340	0.000426	4.259029	1.442998	0.000170
1938	1.9273e+02	-2.8507	-23.562743	0.000436	4.360435	1.477355	0.000174
1939	1.9283e+02	-2.8186	-23.368960	0.000487	4.867462	1.649141	0.000195
1940	1.9293e+02	-2.7721	-23.259958	0.000274	2.737948	0.927642	0.000110
1941	1.9303e+02	-2.7416	-23.066175	0.000487	4.867462	1.649141	0.000195
1942	1.9313e+02	-2.7015	-22.908727	0.000395	3.954813	1.339927	0.000158
1943	1.9323e+02	-2.6518	-22.743204	0.000416	4.157624	1.408641	0.000166
1944	1.9333e+02	-2.6181	-22.581719	0.000406	4.056219	1.374284	0.000162
1945	1.9343e+02	-2.5748	-22.440419	0.000355	3.549191	1.202499	0.000142
1946	1.9353e+02	-2.5379	-22.262785	0.000446	4.461840	1.511712	0.000179
1947	1.9363e+02	-2.5026	-22.081114	0.000456	4.563246	1.546070	0.000183
1948	1.9373e+02	-2.4689	-21.947888	0.000335	3.346380	1.133784	0.000134
1949	1.9383e+02	-2.4256	-21.758143	0.000477	4.766057	1.614784	0.000191
1950	1.9393e+02	-2.3775	-21.612806	0.000365	3.650597	1.236856	0.000146
1951	1.9403e+02	-2.3390	-21.447284	0.000416	4.157624	1.408641	0.000166
1952	1.9412e+02	-2.2973	-21.281761	0.000416	4.157624	1.408641	0.000166
1953	1.9422e+02	-2.2588	-21.092016	0.000477	4.766057	1.614784	0.000191
1954	1.9432e+02	-2.2187	-20.906307	0.000466	4.664651	1.580427	0.000187
1955	1.9442e+02	-2.1914	-20.769045	0.000345	3.447786	1.168141	0.000138
1956	1.9452e+02	-2.1433	-20.619671	0.000375	3.752002	1.271213	0.000150
1957	1.9462e+02	-2.1128	-20.413777	0.000517	5.171679	1.752212	0.000207
1958	1.9472e+02	-2.0598	-20.244217	0.000426	4.259029	1.442998	0.000170
1959	1.9482e+02	-2.0229	-20.102917	0.000355	3.549191	1.202499	0.000142
1960	1.9492e+02	-1.9812	-19.957581	0.000365	3.650597	1.236856	0.000146
1961	1.9502e+02	-1.9363	-19.739575	0.000548	5.475895	1.855283	0.000219
1962	1.9512e+02	-1.9026	-19.586164	0.000385	3.853408	1.305570	0.000154
1963	1.9522e+02	-1.8625	-19.404493	0.000456	4.563246	1.546070	0.000183
1964	1.9532e+02	-1.8208	-19.238970	0.000416	4.157624	1.408641	0.000166
1965	1.9542e+02	-1.7775	-19.081522	0.000395	3.954813	1.339927	0.000158
1966	1.9552e+02	-1.7390	-18.936185	0.000365	3.650597	1.236856	0.000146
1967	1.9562e+02	-1.7085	-18.750477	0.000466	4.664651	1.580427	0.000187
1968	1.9572e+02	-1.6572	-18.584954	0.000416	4.157624	1.408641	0.000166
1969	1.9582e+02	-1.6203	-18.419432	0.000416	4.157624	1.408641	0.000166
1970	1.9592e+02	-1.5834	-18.229686	0.000477	4.766057	1.614784	0.000191
1971	1.9601e+02	-1.5433	-18.072238	0.000395	3.954813	1.339927	0.000158
1972	1.9611e+02	-1.4935	-17.882493	0.000477	4.766057	1.614784	0.000191
1973	1.9621e+02	-1.4615	-17.725044	0.000395	3.954813	1.339927	0.000158
1974	1.9631e+02	-1.4214	-17.563559	0.000406	4.056219	1.374284	0.000162
1975	1.9641e+02	-1.3973	-17.389962	0.000436	4.360435	1.477355	0.000174
1976	1.9651e+02	-1.3363	-17.188105	0.000507	5.070273	1.717855	0.000203
1977	1.9661e+02	-1.3074	-17.050843	0.000345	3.447786	1.168141	0.000138
1978	1.9671e+02	-1.2657	-16.848986	0.000507	5.070273	1.717855	0.000203
1979	1.9681e+02	-1.2208	-16.679426	0.000426	4.259029	1.442998	0.000170
1980	1.9691e+02	-1.1935	-16.513904	0.000416	4.157624	1.408641	0.000166
1981	1.9701e+02	-1.1438	-16.344344	0.000426	4.259029	1.442998	0.000170
1982	1.9711e+02	-1.1133	-16.126339	0.000548	5.475895	1.855283	0.000219
1983	1.9721e+02	-1.0620	-15.981002	0.000365	3.650597	1.236856	0.000146
1984	1.9731e+02	-1.0235	-15.799331	0.000456	4.563246	1.546070	0.000183
1985	1.9741e+02	-0.9866	-15.653994	0.000365	3.650597	1.236856	0.000146
1986	1.9751e+02	-0.9481	-15.444063	0.000527	5.273084	1.786569	0.000211
1987	1.9761e+02	-0.9080	-15.234132	0.000527	5.273084	1.786569	0.000211
1988	1.9771e+02	-0.8615	-15.072646	0.000406	4.056219	1.374284	0.000162
1989	1.9781e+02	-0.8246	-14.911161	0.000406	4.056219	1.374284	0.000162
1990	1.9791e+02	-0.7845	-14.741601	0.000426	4.259029	1.442998	0.000170
1991	1.9800e+02	-0.7396	-14.547819	0.000487	4.867462	1.649141	0.000195
1992	1.9810e+02	-0.7059	-14.406519	0.000355	3.549191	1.202499	0.000142
1993	1.9820e+02	-0.6658	-14.224848	0.000456	4.563246	1.546070	0.000183
1994	1.9830e+02	-0.6305	-14.047214	0.000446	4.461840	1.511712	0.000179
1995	1.9840e+02	-0.5807	-13.873617	0.000436	4.360435	1.477355	0.000174
1996	1.9850e+02	-0.5503	-13.623315	0.000629	6.287139	2.130140	0.000252
1997	1.9860e+02	-0.5150	-13.457792	0.000416	4.157624	1.408641	0.000166
1998	1.9870e+02	-0.4652	-13.308418	0.000375	3.752002	1.271213	0.000150
1999	1.9880e+02	-0.4251	-13.138858	0.000426	4.259029	1.442998	0.000170
2000	1.9890e+02	-0.3834	-12.928927	0.000527	5.273084	1.786569	0.000211
2001	1.9900e+02	-0.3465	-12.747256	0.000456	4.563246	1.546070	0.000183
2002	1.9910e+02	-0.3064	-12.581734	0.000416	4.157624	1.408641	0.000166
2003	1.9920e+02	-0.2695	-12.383914	0.000497	4.968868	1.683498	0.000199
2004	1.9930e+02	-0.2326	-12.218391	0.000416	4.157624	1.408641	0.000166
2005	1.9940e+02	-0.1941	-12.008460	0.000527	5.273084	1.786569	0.000211
2006	1.9950e+02	-0.1460	-11.838901	0.000426	4.259029	1.442998	0.000170
2007	1.9960e+02	-0.1123	-11.620895	0.000548	5.475895	1.855283	0.000219
2008	1.9970e+02	-0.0642	-11.459410	0.000406	4.056219	1.374284	0.000162
2009	1.9980e+02	-0.0337	-11.297924	0.000406	4.056219	1.374284	0.000162

Center data before PMax,+/-Pr and +/-Vc Calc.

PMax (uC/cm2):	7.22e+01
Pr (uC/cm2):	5.90e+00
-Pr (uC/cm2):	-1.13e+01
PLoss (uC/cm2):	-1.16e+01
-Vc:	-1.28e+00
C (Max-Eff) (nF):	3.62e-01
K (Eff):	1.23e+03
Vert. (+/-Pr) Shift (uC/cm2):	-2.70e+00
Offset (uC/cm2):	-2.56e-01

A (Loop Area - uC/cm2·Volts):	4.12e-02



Hysteresis Version: 5.48.1 - Radiant Technologies, Inc., 1999 - 9/12/24

