»»»»»»»»»»»»»»»»»»»»»»»»»»»»»»»»»»»» Hysteresis ««««««««««««««««««««««««««««««««««««
»»»  Executed Version:	5.48.1
»»»  Vision Version:	5.48.4 (R)
»»»  Vision Compiled:	9/18/24
»»»  Driver Version:	5.47.0
»»»  Windows Version:	Windows 8 or 8.1
»»»  Processor Information:	x86 (AMD or Intel) - 32 Processors
»»»  Tester Name:	PMF21124-494 (100V)
»»»  Tester S/N:	PMF21124-494
»»»  Internal Amp Type:	100V RevK 270k
»»»  Internal Amp S/N:	iAB2-596/K     
»»»  Execution Count:	1
»»»»»»»»»»»»»»»»»»»»»»»»»»»»»»»»»»»»»»»»»»««««««««««««««««««««««««««««««««««««««««««

Stored:	6/13/2025 - 10:59:10
Configured:	06/13/25 10:12:58 AM
Executed:	06/13/25 10:58:38 AM

»»»»»»»»»»»»»»»»»»»»»»»»»»»»»»»»»»» Sample Info ««««««««««««««««««««««««««««««««««««
Sample Name:	
Lot Name:	
Wafer Name:	
Die Row/Column:	0/0
Capacitor Number:	0
Sample Area (cm2):	1.00e-04
Sample Thickness (microns):	3.00e-01

Amplifier:	Internal

»»»»»»»»»»»»»»»»»»»»»»»»»»»»»»»»»»» Tester Info «««««««««««««««««««««««««««««««««««
Tester Name:	PMF21124-494 (100V)
Tester Serial Number:	PMF21124-494
Return Signal Amp. Level:	0.19 [Index: 3]

»»»»»»»»»»»»»»»»»»»»»»»»»»»»»»»» Hysteresis Info ««««««««««««««««««««««««««««««««««
Task Name:	Hyst-1704
Volts:	20.00
Field:	666.67 (kV/cm)
DCBias:	0.00
DCField:	0.00 (kV/cm)
Hysteresis Period (ms):	2.00e+02
Preset:	Enabled
Preset Delay (ms):	1.00e+03
Profile:	Standard Bipolar

»»»»»»»»»»»»»»»»»»»»»»»»»»»»»»»»»»»»»» Data «««««««««««««««««««««««««««««««««««««««
Points:	2009

Valid Data

Point	Time (ms)	Drive Voltage	Measured Polarization (uC/cm2)	Capacitance (uF)	Normalized Capacitance (uF/cm2)	Dielectric Constant	Instantaneous Current (mA)
   1	0.0000e+00	0.0080	-2.636250	0.000233	2.330922	0.789738	0.000093
   2	9.9500e-02	0.0289	-2.543396	0.000233	2.330922	0.789738	0.000093
   3	1.9900e-01	0.0706	-2.361724	0.000456	4.560500	1.545139	0.000183
   4	2.9850e-01	0.1123	-2.248685	0.000284	2.837645	0.961420	0.000114
   5	3.9800e-01	0.1444	-2.058939	0.000476	4.763189	1.613812	0.000191
   6	4.9750e-01	0.1973	-1.941862	0.000294	2.938989	0.995756	0.000118
   7	5.9700e-01	0.2326	-1.792488	0.000375	3.749745	1.270448	0.000150
   8	6.9650e-01	0.2743	-1.618891	0.000436	4.357811	1.476466	0.000174
   9	7.9600e-01	0.3080	-1.513926	0.000263	2.634956	0.892747	0.000105
  10	8.9550e-01	0.3433	-1.324181	0.000476	4.763189	1.613812	0.000191
  11	9.9500e-01	0.3866	-1.231326	0.000233	2.330922	0.789738	0.000093
  12	1.0945e+00	0.4331	-1.069841	0.000405	4.053778	1.373457	0.000162
  13	1.1940e+00	0.4636	-0.928541	0.000355	3.547056	1.201775	0.000142
  14	1.2935e+00	0.5085	-0.771093	0.000395	3.952434	1.339121	0.000158
  15	1.3930e+00	0.5470	-0.633830	0.000345	3.445711	1.167439	0.000138
  16	1.4925e+00	0.5791	-0.464271	0.000426	4.256467	1.442130	0.000170
  17	1.5920e+00	0.6224	-0.335082	0.000324	3.243022	1.098766	0.000130
  18	1.6915e+00	0.6658	-0.125151	0.000527	5.269911	1.785494	0.000211
  19	1.7910e+00	0.7107	0.004037	0.000324	3.243022	1.098766	0.000130
  20	1.8905e+00	0.7412	0.133225	0.000324	3.243022	1.098766	0.000130
  21	1.9900e+00	0.7861	0.282600	0.000375	3.749745	1.270448	0.000150
  22	2.0895e+00	0.8278	0.427936	0.000365	3.648400	1.236111	0.000146
  23	2.1890e+00	0.8647	0.593459	0.000416	4.155123	1.407794	0.000166
  24	2.2885e+00	0.9144	0.722647	0.000324	3.243022	1.098766	0.000130
  25	2.3880e+00	0.9497	0.892207	0.000426	4.256467	1.442130	0.000170
  26	2.4875e+00	0.9914	1.033507	0.000355	3.547056	1.201775	0.000142
  27	2.5870e+00	1.0235	1.199029	0.000416	4.155123	1.407794	0.000166
  28	2.6865e+00	1.0668	1.308032	0.000274	2.736300	0.927084	0.000110
  29	2.7860e+00	1.1021	1.526037	0.000547	5.472600	1.854167	0.000219
  30	2.8855e+00	1.1454	1.663300	0.000345	3.445711	1.167439	0.000138
  31	2.9850e+00	1.1823	1.816711	0.000385	3.851089	1.304784	0.000154
  32	3.0845e+00	1.2272	1.949937	0.000334	3.344367	1.133102	0.000134
  33	3.1840e+00	1.2609	2.095273	0.000365	3.648400	1.236111	0.000146
  34	3.2835e+00	1.3107	2.220425	0.000314	3.141678	1.064429	0.000126
  35	3.3830e+00	1.3460	2.389984	0.000426	4.256467	1.442130	0.000170
  36	3.4825e+00	1.3893	2.567618	0.000446	4.459156	1.510803	0.000179
  37	3.5820e+00	1.4246	2.692770	0.000314	3.141678	1.064429	0.000126
  38	3.6815e+00	1.4663	2.842144	0.000375	3.749745	1.270448	0.000150
  39	3.7810e+00	1.5080	2.999592	0.000395	3.952434	1.339121	0.000158
  40	3.8805e+00	1.5497	3.161077	0.000405	4.053778	1.373457	0.000162
  41	3.9800e+00	1.5850	3.278154	0.000294	2.938989	0.995756	0.000118
  42	4.0795e+00	1.6299	3.455788	0.000446	4.459156	1.510803	0.000179
  43	4.1790e+00	1.6668	3.589014	0.000334	3.344367	1.133102	0.000134
  44	4.2785e+00	1.7037	3.742425	0.000385	3.851089	1.304784	0.000154
  45	4.3780e+00	1.7486	3.879687	0.000345	3.445711	1.167439	0.000138
  46	4.4775e+00	1.7775	4.041173	0.000405	4.053778	1.373457	0.000162
  47	4.5770e+00	1.8256	4.190547	0.000375	3.749745	1.270448	0.000150
  48	4.6765e+00	1.8673	4.327810	0.000345	3.445711	1.167439	0.000138
  49	4.7760e+00	1.9042	4.493332	0.000416	4.155123	1.407794	0.000166
  50	4.8755e+00	1.9347	4.630595	0.000345	3.445711	1.167439	0.000138
  51	4.9750e+00	1.9892	4.800154	0.000426	4.256467	1.442130	0.000170
  52	5.0745e+00	2.0197	4.965677	0.000416	4.155123	1.407794	0.000166
  53	5.1740e+00	2.0598	5.106977	0.000355	3.547056	1.201775	0.000142
  54	5.2735e+00	2.1112	5.224054	0.000294	2.938989	0.995756	0.000118
  55	5.3730e+00	2.1433	5.401688	0.000446	4.459156	1.510803	0.000179
  56	5.4725e+00	2.1818	5.530876	0.000324	3.243022	1.098766	0.000130
  57	5.5720e+00	2.2315	5.676213	0.000365	3.648400	1.236111	0.000146
  58	5.6715e+00	2.2764	5.849810	0.000436	4.357811	1.476466	0.000174
  59	5.7710e+00	2.2989	5.991109	0.000355	3.547056	1.201775	0.000142
  60	5.8705e+00	2.3406	6.160669	0.000426	4.256467	1.442130	0.000170
  61	5.9700e+00	2.3839	6.261598	0.000253	2.533611	0.858411	0.000101
  62	6.0695e+00	2.4288	6.423083	0.000405	4.053778	1.373457	0.000162
  63	6.1690e+00	2.4545	6.628977	0.000517	5.168567	1.751158	0.000207
  64	6.2685e+00	2.5042	6.742017	0.000284	2.837645	0.961420	0.000114
  65	6.3680e+00	2.5523	6.899465	0.000395	3.952434	1.339121	0.000158
  66	6.4675e+00	2.5812	7.032690	0.000334	3.344367	1.133102	0.000134
  67	6.5670e+00	2.6229	7.182064	0.000375	3.749745	1.270448	0.000150
  68	6.6665e+00	2.6582	7.355661	0.000436	4.357811	1.476466	0.000174
  69	6.7660e+00	2.7095	7.472738	0.000294	2.938989	0.995756	0.000118
  70	6.8655e+00	2.7400	7.670558	0.000497	4.965878	1.682485	0.000199
  71	6.9650e+00	2.7753	7.783598	0.000284	2.837645	0.961420	0.000114
  72	7.0645e+00	2.8106	7.932972	0.000375	3.749745	1.270448	0.000150
  73	7.1640e+00	2.8539	8.074271	0.000355	3.547056	1.201775	0.000142
  74	7.2635e+00	2.8988	8.215571	0.000355	3.547056	1.201775	0.000142
  75	7.3630e+00	2.9422	8.360908	0.000365	3.648400	1.236111	0.000146
  76	7.4625e+00	2.9823	8.518356	0.000395	3.952434	1.339121	0.000158
  77	7.5620e+00	3.0160	8.671768	0.000385	3.851089	1.304784	0.000154
  78	7.6615e+00	3.0593	8.784807	0.000284	2.837645	0.961420	0.000114
  79	7.7610e+00	3.1026	8.926107	0.000355	3.547056	1.201775	0.000142
  80	7.8605e+00	3.1363	9.067407	0.000355	3.547056	1.201775	0.000142
  81	7.9600e+00	3.1748	9.224855	0.000395	3.952434	1.339121	0.000158
  82	8.0595e+00	3.2213	9.362118	0.000345	3.445711	1.167439	0.000138
  83	8.1590e+00	3.2534	9.539752	0.000446	4.459156	1.510803	0.000179
  84	8.2585e+00	3.2951	9.677014	0.000345	3.445711	1.167439	0.000138
  85	8.3580e+00	3.3432	9.818314	0.000355	3.547056	1.201775	0.000142
  86	8.4575e+00	3.3801	9.951540	0.000334	3.344367	1.133102	0.000134
  87	8.5570e+00	3.4122	10.084765	0.000334	3.344367	1.133102	0.000134
  88	8.6565e+00	3.4539	10.246251	0.000405	4.053778	1.373457	0.000162
  89	8.7560e+00	3.4940	10.383513	0.000345	3.445711	1.167439	0.000138
  90	8.8555e+00	3.5389	10.504627	0.000304	3.040334	1.030093	0.000122
  91	8.9550e+00	3.5887	10.662075	0.000395	3.952434	1.339121	0.000158
  92	9.0545e+00	3.6191	10.807412	0.000365	3.648400	1.236111	0.000146
  93	9.1540e+00	3.6625	10.936601	0.000324	3.243022	1.098766	0.000130
  94	9.2535e+00	3.6962	11.069826	0.000334	3.344367	1.133102	0.000134
  95	9.3530e+00	3.7330	11.219200	0.000375	3.749745	1.270448	0.000150
  96	9.4525e+00	3.7683	11.368574	0.000375	3.749745	1.270448	0.000150
  97	9.5520e+00	3.8101	11.481614	0.000284	2.837645	0.961420	0.000114
  98	9.6515e+00	3.8453	11.643099	0.000405	4.053778	1.373457	0.000162
  99	9.7510e+00	3.8951	11.804585	0.000405	4.053778	1.373457	0.000162
 100	9.8505e+00	3.9368	11.937810	0.000334	3.344367	1.133102	0.000134
 101	9.9500e+00	3.9769	12.083147	0.000365	3.648400	1.236111	0.000146
 102	1.0050e+01	4.0106	12.220410	0.000345	3.445711	1.167439	0.000138
 103	1.0149e+01	4.0603	12.398044	0.000446	4.459156	1.510803	0.000179
 104	1.0248e+01	4.0956	12.507047	0.000274	2.736300	0.927084	0.000110
 105	1.0348e+01	4.1405	12.628161	0.000304	3.040334	1.030093	0.000122
 106	1.0447e+01	4.1630	12.777535	0.000375	3.749745	1.270448	0.000150
 107	1.0547e+01	4.2047	12.886537	0.000274	2.736300	0.927084	0.000110
 108	1.0646e+01	4.2528	13.092431	0.000517	5.168567	1.751158	0.000207
 109	1.0746e+01	4.2897	13.225657	0.000334	3.344367	1.133102	0.000134
 110	1.0845e+01	4.3362	13.346771	0.000304	3.040334	1.030093	0.000122
 111	1.0945e+01	4.3796	13.512293	0.000416	4.155123	1.407794	0.000166
 112	1.1044e+01	4.4132	13.625333	0.000284	2.837645	0.961420	0.000114
 113	1.1144e+01	4.4646	13.770670	0.000365	3.648400	1.236111	0.000146
 114	1.1243e+01	4.4983	13.928118	0.000395	3.952434	1.339121	0.000158
 115	1.1343e+01	4.5336	14.073455	0.000365	3.648400	1.236111	0.000146
 116	1.1443e+01	4.5785	14.206681	0.000334	3.344367	1.133102	0.000134
 117	1.1542e+01	4.6138	14.356055	0.000375	3.749745	1.270448	0.000150
 118	1.1642e+01	4.6587	14.501392	0.000365	3.648400	1.236111	0.000146
 119	1.1741e+01	4.6908	14.606357	0.000263	2.634956	0.892747	0.000105
 120	1.1841e+01	4.7293	14.771880	0.000416	4.155123	1.407794	0.000166
 121	1.1940e+01	4.7694	14.876845	0.000263	2.634956	0.892747	0.000105
 122	1.2040e+01	4.8191	15.022182	0.000365	3.648400	1.236111	0.000146
 123	1.2139e+01	4.8448	15.163482	0.000355	3.547056	1.201775	0.000142
 124	1.2239e+01	4.8993	15.300744	0.000345	3.445711	1.167439	0.000138
 125	1.2338e+01	4.9378	15.454156	0.000385	3.851089	1.304784	0.000154
 126	1.2438e+01	4.9731	15.575270	0.000304	3.040334	1.030093	0.000122
 127	1.2537e+01	5.0100	15.732718	0.000395	3.952434	1.339121	0.000158
 128	1.2636e+01	5.0598	15.898241	0.000416	4.155123	1.407794	0.000166
 129	1.2736e+01	5.0870	16.015317	0.000294	2.938989	0.995756	0.000118
 130	1.2835e+01	5.1400	16.176803	0.000405	4.053778	1.373457	0.000162
 131	1.2935e+01	5.1817	16.289843	0.000284	2.837645	0.961420	0.000114
 132	1.3034e+01	5.2202	16.394808	0.000263	2.634956	0.892747	0.000105
 133	1.3134e+01	5.2507	16.580516	0.000466	4.661845	1.579476	0.000187
 134	1.3233e+01	5.2908	16.713742	0.000334	3.344367	1.133102	0.000134
 135	1.3333e+01	5.3357	16.802559	0.000223	2.229578	0.755401	0.000089
 136	1.3432e+01	5.3726	16.972119	0.000426	4.256467	1.442130	0.000170
 137	1.3532e+01	5.4127	17.097270	0.000314	3.141678	1.064429	0.000126
 138	1.3632e+01	5.4544	17.242607	0.000365	3.648400	1.236111	0.000146
 139	1.3731e+01	5.4977	17.379869	0.000345	3.445711	1.167439	0.000138
 140	1.3831e+01	5.5410	17.496946	0.000294	2.938989	0.995756	0.000118
 141	1.3930e+01	5.5715	17.666506	0.000426	4.256467	1.442130	0.000170
 142	1.4030e+01	5.6148	17.795694	0.000324	3.243022	1.098766	0.000130
 143	1.4129e+01	5.6485	17.900660	0.000263	2.634956	0.892747	0.000105
 144	1.4229e+01	5.6886	18.062145	0.000405	4.053778	1.373457	0.000162
 145	1.4328e+01	5.7319	18.179222	0.000294	2.938989	0.995756	0.000118
 146	1.4428e+01	5.7640	18.316485	0.000345	3.445711	1.167439	0.000138
 147	1.4527e+01	5.8057	18.433562	0.000294	2.938989	0.995756	0.000118
 148	1.4627e+01	5.8458	18.611196	0.000446	4.459156	1.510803	0.000179
 149	1.4726e+01	5.8907	18.700013	0.000223	2.229578	0.755401	0.000089
 150	1.4825e+01	5.9308	18.881684	0.000456	4.560500	1.545139	0.000183
 151	1.4925e+01	5.9710	18.974538	0.000233	2.330922	0.789738	0.000093
 152	1.5024e+01	6.0127	19.099689	0.000314	3.141678	1.064429	0.000126
 153	1.5124e+01	6.0544	19.236952	0.000345	3.445711	1.167439	0.000138
 154	1.5223e+01	6.0977	19.406511	0.000426	4.256467	1.442130	0.000170
 155	1.5323e+01	6.1314	19.547811	0.000355	3.547056	1.201775	0.000142
 156	1.5422e+01	6.1731	19.632591	0.000213	2.128233	0.721065	0.000085
 157	1.5522e+01	6.2132	19.765817	0.000334	3.344367	1.133102	0.000134
 158	1.5621e+01	6.2501	19.911153	0.000365	3.648400	1.236111	0.000146
 159	1.5721e+01	6.2822	20.072639	0.000405	4.053778	1.373457	0.000162
 160	1.5820e+01	6.3303	20.209902	0.000345	3.445711	1.167439	0.000138
 161	1.5920e+01	6.3720	20.310830	0.000253	2.533611	0.858411	0.000101
 162	1.6020e+01	6.4025	20.452130	0.000355	3.547056	1.201775	0.000142
 163	1.6119e+01	6.4394	20.601504	0.000375	3.749745	1.270448	0.000150
 164	1.6218e+01	6.4875	20.702432	0.000253	2.533611	0.858411	0.000101
 165	1.6318e+01	6.5132	20.827583	0.000314	3.141678	1.064429	0.000126
 166	1.6418e+01	6.5758	21.017329	0.000476	4.763189	1.613812	0.000191
 167	1.6517e+01	6.6175	21.110183	0.000233	2.330922	0.789738	0.000093
 168	1.6616e+01	6.6495	21.247445	0.000345	3.445711	1.167439	0.000138
 169	1.6716e+01	6.6816	21.408931	0.000405	4.053778	1.373457	0.000162
 170	1.6816e+01	6.7265	21.558305	0.000375	3.749745	1.270448	0.000150
 171	1.6915e+01	6.7715	21.651159	0.000233	2.330922	0.789738	0.000093
 172	1.7015e+01	6.8116	21.792459	0.000355	3.547056	1.201775	0.000142
 173	1.7114e+01	6.8324	21.925684	0.000334	3.344367	1.133102	0.000134
 174	1.7213e+01	6.8870	22.099281	0.000436	4.357811	1.476466	0.000174
 175	1.7313e+01	6.9271	22.200209	0.000253	2.533611	0.858411	0.000101
 176	1.7413e+01	6.9624	22.337472	0.000345	3.445711	1.167439	0.000138
 177	1.7512e+01	7.0041	22.462623	0.000314	3.141678	1.064429	0.000126
 178	1.7611e+01	7.0410	22.599886	0.000345	3.445711	1.167439	0.000138
 179	1.7711e+01	7.0779	22.704851	0.000263	2.634956	0.892747	0.000105
 180	1.7811e+01	7.1164	22.838077	0.000334	3.344367	1.133102	0.000134
 181	1.7910e+01	7.1645	22.939005	0.000253	2.533611	0.858411	0.000101
 182	1.8009e+01	7.2046	23.108565	0.000426	4.256467	1.442130	0.000170
 183	1.8109e+01	7.2415	23.245828	0.000345	3.445711	1.167439	0.000138
 184	1.8209e+01	7.2768	23.366942	0.000304	3.040334	1.030093	0.000122
 185	1.8308e+01	7.3217	23.512279	0.000365	3.648400	1.236111	0.000146
 186	1.8407e+01	7.3650	23.629355	0.000294	2.938989	0.995756	0.000118
 187	1.8507e+01	7.3955	23.754507	0.000314	3.141678	1.064429	0.000126
 188	1.8607e+01	7.4404	23.891769	0.000345	3.445711	1.167439	0.000138
 189	1.8706e+01	7.4902	24.045180	0.000385	3.851089	1.304784	0.000154
 190	1.8805e+01	7.5319	24.170332	0.000314	3.141678	1.064429	0.000126
 191	1.8905e+01	7.5624	24.243000	0.000182	1.824200	0.618056	0.000073
 192	1.9005e+01	7.6073	24.412560	0.000426	4.256467	1.442130	0.000170
 193	1.9104e+01	7.6394	24.549822	0.000345	3.445711	1.167439	0.000138
 194	1.9203e+01	7.6795	24.711308	0.000405	4.053778	1.373457	0.000162
 195	1.9303e+01	7.7244	24.771865	0.000152	1.520167	0.515046	0.000061
 196	1.9402e+01	7.7629	24.949499	0.000446	4.459156	1.510803	0.000179
 197	1.9502e+01	7.8030	25.050427	0.000253	2.533611	0.858411	0.000101
 198	1.9602e+01	7.8431	25.187690	0.000345	3.445711	1.167439	0.000138
 199	1.9701e+01	7.8816	25.320915	0.000334	3.344367	1.133102	0.000134
 200	1.9800e+01	7.9233	25.421844	0.000253	2.533611	0.858411	0.000101
 201	1.9900e+01	7.9602	25.571218	0.000375	3.749745	1.270448	0.000150
 202	2.0000e+01	8.0019	25.688295	0.000294	2.938989	0.995756	0.000118
 203	2.0099e+01	8.0372	25.809409	0.000304	3.040334	1.030093	0.000122
 204	2.0198e+01	8.0821	25.938597	0.000324	3.243022	1.098766	0.000130
 205	2.0298e+01	8.1222	25.999154	0.000152	1.520167	0.515046	0.000061
 206	2.0398e+01	8.1559	26.180825	0.000456	4.560500	1.545139	0.000183
 207	2.0497e+01	8.1976	26.330199	0.000375	3.749745	1.270448	0.000150
 208	2.0596e+01	8.2442	26.447276	0.000294	2.938989	0.995756	0.000118
 209	2.0696e+01	8.2843	26.600687	0.000385	3.851089	1.304784	0.000154
 210	2.0796e+01	8.3179	26.697579	0.000243	2.432267	0.824074	0.000097
 211	2.0895e+01	8.3597	26.830804	0.000334	3.344367	1.133102	0.000134
 212	2.0994e+01	8.4014	26.935770	0.000263	2.634956	0.892747	0.000105
 213	2.1094e+01	8.4335	27.101292	0.000416	4.155123	1.407794	0.000166
 214	2.1194e+01	8.4752	27.194146	0.000233	2.330922	0.789738	0.000093
 215	2.1293e+01	8.5121	27.311223	0.000294	2.938989	0.995756	0.000118
 216	2.1392e+01	8.5634	27.472709	0.000405	4.053778	1.373457	0.000162
 217	2.1492e+01	8.5891	27.553451	0.000203	2.026889	0.686729	0.000081
 218	2.1591e+01	8.6356	27.694751	0.000355	3.547056	1.201775	0.000142
 219	2.1691e+01	8.6821	27.823940	0.000324	3.243022	1.098766	0.000130
 220	2.1791e+01	8.7158	27.936979	0.000284	2.837645	0.961420	0.000114
 221	2.1890e+01	8.7591	28.070205	0.000334	3.344367	1.133102	0.000134
 222	2.1989e+01	8.7928	28.175170	0.000263	2.634956	0.892747	0.000105
 223	2.2089e+01	8.8425	28.336656	0.000405	4.053778	1.373457	0.000162
 224	2.2189e+01	8.8698	28.449696	0.000284	2.837645	0.961420	0.000114
 225	2.2288e+01	8.9147	28.574847	0.000314	3.141678	1.064429	0.000126
 226	2.2387e+01	8.9548	28.691924	0.000294	2.938989	0.995756	0.000118
 227	2.2487e+01	8.9965	28.845335	0.000385	3.851089	1.304784	0.000154
 228	2.2587e+01	9.0431	28.954338	0.000274	2.736300	0.927084	0.000110
 229	2.2686e+01	9.0832	29.083526	0.000324	3.243022	1.098766	0.000130
 230	2.2785e+01	9.1136	29.180417	0.000243	2.432267	0.824074	0.000097
 231	2.2885e+01	9.1618	29.329791	0.000375	3.749745	1.270448	0.000150
 232	2.2985e+01	9.1923	29.454942	0.000314	3.141678	1.064429	0.000126
 233	2.3084e+01	9.2372	29.596242	0.000355	3.547056	1.201775	0.000142
 234	2.3183e+01	9.2821	29.685059	0.000223	2.229578	0.755401	0.000089
 235	2.3283e+01	9.3110	29.830396	0.000365	3.648400	1.236111	0.000146
 236	2.3383e+01	9.3495	29.935361	0.000263	2.634956	0.892747	0.000105
 237	2.3482e+01	9.3928	30.092810	0.000395	3.952434	1.339121	0.000158
 238	2.3581e+01	9.4297	30.217961	0.000314	3.141678	1.064429	0.000126
 239	2.3681e+01	9.4778	30.322927	0.000263	2.634956	0.892747	0.000105
 240	2.3780e+01	9.5147	30.435966	0.000284	2.837645	0.961420	0.000114
 241	2.3880e+01	9.5500	30.581303	0.000365	3.648400	1.236111	0.000146
 242	2.3980e+01	9.5965	30.682232	0.000253	2.533611	0.858411	0.000101
 243	2.4079e+01	9.6350	30.775086	0.000233	2.330922	0.789738	0.000093
 244	2.4178e+01	9.6831	30.920423	0.000365	3.648400	1.236111	0.000146
 245	2.4278e+01	9.7104	31.017314	0.000243	2.432267	0.824074	0.000097
 246	2.4378e+01	9.7505	31.158614	0.000355	3.547056	1.201775	0.000142
 247	2.4477e+01	9.7954	31.312025	0.000385	3.851089	1.304784	0.000154
 248	2.4576e+01	9.8420	31.376619	0.000162	1.621511	0.549383	0.000065
 249	2.4676e+01	9.8741	31.521956	0.000365	3.648400	1.236111	0.000146
 250	2.4776e+01	9.9190	31.655181	0.000334	3.344367	1.133102	0.000134
 251	2.4875e+01	9.9591	31.735924	0.000203	2.026889	0.686729	0.000081
 252	2.4974e+01	10.0024	31.885298	0.000375	3.749745	1.270448	0.000150
 253	2.5074e+01	10.0281	31.957967	0.000182	1.824200	0.618056	0.000073
 254	2.5174e+01	10.0714	32.123489	0.000416	4.155123	1.407794	0.000166
 255	2.5273e+01	10.1115	32.180009	0.000142	1.418822	0.480710	0.000057
 256	2.5372e+01	10.1516	32.353606	0.000436	4.357811	1.476466	0.000174
 257	2.5472e+01	10.1917	32.430311	0.000193	1.925545	0.652392	0.000077
 258	2.5572e+01	10.2334	32.575648	0.000365	3.648400	1.236111	0.000146
 259	2.5671e+01	10.2735	32.692725	0.000294	2.938989	0.995756	0.000118
 260	2.5770e+01	10.3136	32.850174	0.000395	3.952434	1.339121	0.000158
 261	2.5870e+01	10.3537	32.967250	0.000294	2.938989	0.995756	0.000118
 262	2.5970e+01	10.3906	33.052030	0.000213	2.128233	0.721065	0.000085
 263	2.6069e+01	10.4371	33.148922	0.000243	2.432267	0.824074	0.000097
 264	2.6169e+01	10.4740	33.274073	0.000314	3.141678	1.064429	0.000126
 265	2.6268e+01	10.5093	33.415373	0.000355	3.547056	1.201775	0.000142
 266	2.6367e+01	10.5623	33.564747	0.000375	3.749745	1.270448	0.000150
 267	2.6467e+01	10.5879	33.621266	0.000142	1.418822	0.480710	0.000057
 268	2.6567e+01	10.6264	33.758529	0.000345	3.445711	1.167439	0.000138
 269	2.6666e+01	10.6778	33.859457	0.000253	2.533611	0.858411	0.000101
 270	2.6765e+01	10.7131	34.037091	0.000446	4.459156	1.510803	0.000179
 271	2.6865e+01	10.7435	34.121871	0.000213	2.128233	0.721065	0.000085
 272	2.6965e+01	10.7901	34.234911	0.000284	2.837645	0.961420	0.000114
 273	2.7064e+01	10.8334	34.356025	0.000304	3.040334	1.030093	0.000122
 274	2.7163e+01	10.8623	34.501362	0.000365	3.648400	1.236111	0.000146
 275	2.7263e+01	10.9120	34.618439	0.000294	2.938989	0.995756	0.000118
 276	2.7363e+01	10.9537	34.715330	0.000243	2.432267	0.824074	0.000097
 277	2.7462e+01	10.9922	34.812221	0.000243	2.432267	0.824074	0.000097
 278	2.7561e+01	11.0291	34.949484	0.000345	3.445711	1.167439	0.000138
 279	2.7661e+01	11.0692	35.050412	0.000253	2.533611	0.858411	0.000101
 280	2.7761e+01	11.1109	35.163452	0.000284	2.837645	0.961420	0.000114
 281	2.7860e+01	11.1446	35.320901	0.000395	3.952434	1.339121	0.000158
 282	2.7959e+01	11.1895	35.373383	0.000132	1.317478	0.446374	0.000053
 283	2.8059e+01	11.2264	35.534869	0.000405	4.053778	1.373457	0.000162
 284	2.8159e+01	11.2617	35.655983	0.000304	3.040334	1.030093	0.000122
 285	2.8258e+01	11.3018	35.752874	0.000243	2.432267	0.824074	0.000097
 286	2.8358e+01	11.3532	35.849765	0.000243	2.432267	0.824074	0.000097
 287	2.8457e+01	11.3917	35.966842	0.000294	2.938989	0.995756	0.000118
 288	2.8556e+01	11.4350	36.104105	0.000345	3.445711	1.167439	0.000138
 289	2.8656e+01	11.4671	36.233293	0.000324	3.243022	1.098766	0.000130
 290	2.8756e+01	11.5056	36.281739	0.000122	1.216133	0.412037	0.000049
 291	2.8855e+01	11.5505	36.419001	0.000345	3.445711	1.167439	0.000138
 292	2.8954e+01	11.6002	36.536078	0.000294	2.938989	0.995756	0.000118
 293	2.9054e+01	11.6275	36.632970	0.000243	2.432267	0.824074	0.000097
 294	2.9154e+01	11.6740	36.762158	0.000324	3.243022	1.098766	0.000130
 295	2.9253e+01	11.7109	36.891346	0.000324	3.243022	1.098766	0.000130
 296	2.9352e+01	11.7462	36.984200	0.000233	2.330922	0.789738	0.000093
 297	2.9452e+01	11.7895	37.117426	0.000334	3.344367	1.133102	0.000134
 298	2.9552e+01	11.8264	37.238540	0.000304	3.040334	1.030093	0.000122
 299	2.9651e+01	11.8649	37.347543	0.000274	2.736300	0.927084	0.000110
 300	2.9750e+01	11.8986	37.480768	0.000334	3.344367	1.133102	0.000134
 301	2.9850e+01	11.9547	37.533251	0.000132	1.317478	0.446374	0.000053
 302	2.9950e+01	11.9852	37.694736	0.000405	4.053778	1.373457	0.000162
 303	3.0049e+01	12.0253	37.819888	0.000314	3.141678	1.064429	0.000126
 304	3.0148e+01	12.0622	37.900630	0.000203	2.026889	0.686729	0.000081
 305	3.0248e+01	12.1071	38.009633	0.000274	2.736300	0.927084	0.000110
 306	3.0348e+01	12.1408	38.175156	0.000416	4.155123	1.407794	0.000166
 307	3.0447e+01	12.1825	38.284158	0.000274	2.736300	0.927084	0.000110
 308	3.0547e+01	12.2243	38.360864	0.000193	1.925545	0.652392	0.000077
 309	3.0646e+01	12.2724	38.498126	0.000345	3.445711	1.167439	0.000138
 310	3.0745e+01	12.3093	38.582906	0.000213	2.128233	0.721065	0.000085
 311	3.0845e+01	12.3414	38.679798	0.000243	2.432267	0.824074	0.000097
 312	3.0945e+01	12.3831	38.821097	0.000355	3.547056	1.201775	0.000142
 313	3.1044e+01	12.4216	38.926063	0.000263	2.634956	0.892747	0.000105
 314	3.1143e+01	12.4665	39.031028	0.000263	2.634956	0.892747	0.000105
 315	3.1243e+01	12.5066	39.140031	0.000274	2.736300	0.927084	0.000110
 316	3.1343e+01	12.5467	39.240959	0.000253	2.533611	0.858411	0.000101
 317	3.1442e+01	12.5820	39.333813	0.000233	2.330922	0.789738	0.000093
 318	3.1541e+01	12.6253	39.491262	0.000395	3.952434	1.339121	0.000158
 319	3.1641e+01	12.6606	39.584116	0.000233	2.330922	0.789738	0.000093
 320	3.1741e+01	12.7023	39.709267	0.000314	3.141678	1.064429	0.000126
 321	3.1840e+01	12.7504	39.834418	0.000314	3.141678	1.064429	0.000126
 322	3.1939e+01	12.7793	39.971681	0.000345	3.445711	1.167439	0.000138
 323	3.2039e+01	12.8307	40.048387	0.000193	1.925545	0.652392	0.000077
 324	3.2139e+01	12.8643	40.177575	0.000324	3.243022	1.098766	0.000130
 325	3.2238e+01	12.9044	40.258318	0.000203	2.026889	0.686729	0.000081
 326	3.2337e+01	12.9397	40.383469	0.000314	3.141678	1.064429	0.000126
 327	3.2437e+01	12.9815	40.472286	0.000223	2.229578	0.755401	0.000089
 328	3.2536e+01	13.0280	40.617623	0.000365	3.648400	1.236111	0.000146
 329	3.2636e+01	13.0649	40.710477	0.000233	2.330922	0.789738	0.000093
 330	3.2736e+01	13.1098	40.827554	0.000294	2.938989	0.995756	0.000118
 331	3.2835e+01	13.1419	40.916371	0.000223	2.229578	0.755401	0.000089
 332	3.2934e+01	13.1772	41.049596	0.000334	3.344367	1.133102	0.000134
 333	3.3034e+01	13.2269	41.130339	0.000203	2.026889	0.686729	0.000081
 334	3.3133e+01	13.2558	41.255490	0.000314	3.141678	1.064429	0.000126
 335	3.3233e+01	13.2943	41.376604	0.000304	3.040334	1.030093	0.000122
 336	3.3333e+01	13.3408	41.489644	0.000284	2.837645	0.961420	0.000114
 337	3.3432e+01	13.3809	41.622869	0.000334	3.344367	1.133102	0.000134
 338	3.3532e+01	13.4130	41.731872	0.000274	2.736300	0.927084	0.000110
 339	3.3631e+01	13.4627	41.836838	0.000263	2.634956	0.892747	0.000105
 340	3.3730e+01	13.4980	41.974100	0.000345	3.445711	1.167439	0.000138
 341	3.3830e+01	13.5349	42.054843	0.000203	2.026889	0.686729	0.000081
 342	3.3929e+01	13.5814	42.151734	0.000243	2.432267	0.824074	0.000097
 343	3.4029e+01	13.6119	42.268811	0.000294	2.938989	0.995756	0.000118
 344	3.4129e+01	13.6584	42.373777	0.000263	2.634956	0.892747	0.000105
 345	3.4228e+01	13.7001	42.531225	0.000395	3.952434	1.339121	0.000158
 346	3.4328e+01	13.7258	42.620042	0.000223	2.229578	0.755401	0.000089
 347	3.4427e+01	13.7804	42.733082	0.000284	2.837645	0.961420	0.000114
 348	3.4526e+01	13.8237	42.813825	0.000203	2.026889	0.686729	0.000081
 349	3.4626e+01	13.8542	42.922827	0.000274	2.736300	0.927084	0.000110
 350	3.4725e+01	13.8911	43.072201	0.000375	3.749745	1.270448	0.000150
 351	3.4825e+01	13.9312	43.144870	0.000182	1.824200	0.618056	0.000073
 352	3.4925e+01	13.9697	43.265984	0.000304	3.040334	1.030093	0.000122
 353	3.5024e+01	14.0258	43.358838	0.000233	2.330922	0.789738	0.000093
 354	3.5123e+01	14.0547	43.479952	0.000304	3.040334	1.030093	0.000122
 355	3.5223e+01	14.0964	43.653549	0.000436	4.357811	1.476466	0.000174
 356	3.5322e+01	14.1429	43.665660	0.000030	0.304033	0.103009	0.000012
 357	3.5422e+01	14.1766	43.815034	0.000375	3.749745	1.270448	0.000150
 358	3.5522e+01	14.2167	43.895777	0.000203	2.026889	0.686729	0.000081
 359	3.5621e+01	14.2520	44.020928	0.000314	3.141678	1.064429	0.000126
 360	3.5721e+01	14.2953	44.138005	0.000294	2.938989	0.995756	0.000118
 361	3.5820e+01	14.3370	44.206636	0.000172	1.722856	0.583719	0.000069
 362	3.5919e+01	14.3787	44.347936	0.000355	3.547056	1.201775	0.000142
 363	3.6019e+01	14.4253	44.448864	0.000253	2.533611	0.858411	0.000101
 364	3.6118e+01	14.4397	44.565941	0.000294	2.938989	0.995756	0.000118
 365	3.6218e+01	14.4910	44.695130	0.000324	3.243022	1.098766	0.000130
 366	3.6318e+01	14.5343	44.796058	0.000253	2.533611	0.858411	0.000101
 367	3.6417e+01	14.5712	44.925246	0.000324	3.243022	1.098766	0.000130
 368	3.6517e+01	14.6065	45.014063	0.000223	2.229578	0.755401	0.000089
 369	3.6616e+01	14.6515	45.110955	0.000243	2.432267	0.824074	0.000097
 370	3.6715e+01	14.6980	45.223995	0.000284	2.837645	0.961420	0.000114
 371	3.6815e+01	14.7429	45.328960	0.000263	2.634956	0.892747	0.000105
 372	3.6914e+01	14.7686	45.433926	0.000263	2.634956	0.892747	0.000105
 373	3.7014e+01	14.8135	45.551003	0.000294	2.938989	0.995756	0.000118
 374	3.7114e+01	14.8520	45.631745	0.000203	2.026889	0.686729	0.000081
 375	3.7213e+01	14.8873	45.732674	0.000253	2.533611	0.858411	0.000101
 376	3.7313e+01	14.9402	45.853788	0.000304	3.040334	1.030093	0.000122
 377	3.7412e+01	14.9739	45.987013	0.000334	3.344367	1.133102	0.000134
 378	3.7511e+01	15.0140	46.071793	0.000213	2.128233	0.721065	0.000085
 379	3.7611e+01	15.0461	46.180796	0.000274	2.736300	0.927084	0.000110
 380	3.7711e+01	15.0990	46.301910	0.000304	3.040334	1.030093	0.000122
 381	3.7810e+01	15.1263	46.394764	0.000233	2.330922	0.789738	0.000093
 382	3.7910e+01	15.1760	46.503767	0.000274	2.736300	0.927084	0.000110
 383	3.8009e+01	15.2161	46.608732	0.000263	2.634956	0.892747	0.000105
 384	3.8108e+01	15.2546	46.657178	0.000122	1.216133	0.412037	0.000049
 385	3.8208e+01	15.2932	46.798477	0.000355	3.547056	1.201775	0.000142
 386	3.8307e+01	15.3220	46.895369	0.000243	2.432267	0.824074	0.000097
 387	3.8407e+01	15.3846	47.044743	0.000375	3.749745	1.270448	0.000150
 388	3.8507e+01	15.4103	47.137597	0.000233	2.330922	0.789738	0.000093
 389	3.8606e+01	15.4456	47.234488	0.000243	2.432267	0.824074	0.000097
 390	3.8706e+01	15.4969	47.351565	0.000294	2.938989	0.995756	0.000118
 391	3.8805e+01	15.5290	47.436345	0.000213	2.128233	0.721065	0.000085
 392	3.8904e+01	15.5755	47.517088	0.000203	2.026889	0.686729	0.000081
 393	3.9004e+01	15.6076	47.678573	0.000405	4.053778	1.373457	0.000162
 394	3.9103e+01	15.6477	47.775464	0.000243	2.432267	0.824074	0.000097
 395	3.9203e+01	15.6894	47.848133	0.000182	1.824200	0.618056	0.000073
 396	3.9303e+01	15.7327	47.965210	0.000294	2.938989	0.995756	0.000118
 397	3.9402e+01	15.7696	48.062101	0.000243	2.432267	0.824074	0.000097
 398	3.9502e+01	15.8129	48.203401	0.000355	3.547056	1.201775	0.000142
 399	3.9601e+01	15.8498	48.316441	0.000284	2.837645	0.961420	0.000114
 400	3.9700e+01	15.8915	48.372960	0.000142	1.418822	0.480710	0.000057
 401	3.9800e+01	15.9220	48.510223	0.000345	3.445711	1.167439	0.000138
 402	3.9900e+01	15.9573	48.603077	0.000233	2.330922	0.789738	0.000093
 403	3.9999e+01	16.0086	48.716117	0.000284	2.837645	0.961420	0.000114
 404	4.0099e+01	16.0423	48.784748	0.000172	1.722856	0.583719	0.000069
 405	4.0198e+01	16.0889	48.909899	0.000314	3.141678	1.064429	0.000126
 406	4.0297e+01	16.1241	48.990642	0.000203	2.026889	0.686729	0.000081
 407	4.0397e+01	16.1626	49.095608	0.000263	2.634956	0.892747	0.000105
 408	4.0496e+01	16.2124	49.196536	0.000253	2.533611	0.858411	0.000101
 409	4.0596e+01	16.2525	49.317650	0.000304	3.040334	1.030093	0.000122
 410	4.0696e+01	16.2894	49.414541	0.000243	2.432267	0.824074	0.000097
 411	4.0795e+01	16.3247	49.491247	0.000193	1.925545	0.652392	0.000077
 412	4.0895e+01	16.3696	49.600250	0.000274	2.736300	0.927084	0.000110
 413	4.0994e+01	16.4113	49.745587	0.000365	3.648400	1.236111	0.000146
 414	4.1093e+01	16.4530	49.850552	0.000263	2.634956	0.892747	0.000105
 415	4.1193e+01	16.4979	49.907072	0.000142	1.418822	0.480710	0.000057
 416	4.1292e+01	16.5364	49.995889	0.000223	2.229578	0.755401	0.000089
 417	4.1392e+01	16.5637	50.108929	0.000284	2.837645	0.961420	0.000114
 418	4.1492e+01	16.6038	50.221969	0.000284	2.837645	0.961420	0.000114
 419	4.1591e+01	16.6503	50.318860	0.000243	2.432267	0.824074	0.000097
 420	4.1691e+01	16.6856	50.423825	0.000263	2.634956	0.892747	0.000105
 421	4.1790e+01	16.7257	50.520717	0.000243	2.432267	0.824074	0.000097
 422	4.1889e+01	16.7706	50.621645	0.000253	2.533611	0.858411	0.000101
 423	4.1989e+01	16.7979	50.730648	0.000274	2.736300	0.927084	0.000110
 424	4.2089e+01	16.8460	50.823502	0.000233	2.330922	0.789738	0.000093
 425	4.2188e+01	16.8829	50.916356	0.000233	2.330922	0.789738	0.000093
 426	4.2288e+01	16.9198	51.041507	0.000314	3.141678	1.064429	0.000126
 427	4.2387e+01	16.9728	51.098027	0.000142	1.418822	0.480710	0.000057
 428	4.2486e+01	17.0017	51.239327	0.000355	3.547056	1.201775	0.000142
 429	4.2586e+01	17.0434	51.340255	0.000253	2.533611	0.858411	0.000101
 430	4.2685e+01	17.0947	51.433109	0.000233	2.330922	0.789738	0.000093
 431	4.2785e+01	17.1284	51.542112	0.000274	2.736300	0.927084	0.000110
 432	4.2885e+01	17.1589	51.618818	0.000193	1.925545	0.652392	0.000077
 433	4.2984e+01	17.2022	51.739932	0.000304	3.040334	1.030093	0.000122
 434	4.3084e+01	17.2423	51.832786	0.000233	2.330922	0.789738	0.000093
 435	4.3183e+01	17.2856	51.917566	0.000213	2.128233	0.721065	0.000085
 436	4.3282e+01	17.3257	52.070977	0.000385	3.851089	1.304784	0.000154
 437	4.3382e+01	17.3610	52.091162	0.000051	0.506722	0.171682	0.000020
 438	4.3481e+01	17.4059	52.240536	0.000375	3.749745	1.270448	0.000150
 439	4.3581e+01	17.4428	52.361651	0.000304	3.040334	1.030093	0.000122
 440	4.3681e+01	17.4813	52.410096	0.000122	1.216133	0.412037	0.000049
 441	4.3780e+01	17.5262	52.519099	0.000274	2.736300	0.927084	0.000110
 442	4.3880e+01	17.5615	52.611953	0.000233	2.330922	0.789738	0.000093
 443	4.3979e+01	17.6000	52.708844	0.000243	2.432267	0.824074	0.000097
 444	4.4078e+01	17.6482	52.801698	0.000233	2.330922	0.789738	0.000093
 445	4.4178e+01	17.6883	52.906664	0.000263	2.634956	0.892747	0.000105
 446	4.4278e+01	17.7236	53.007592	0.000253	2.533611	0.858411	0.000101
 447	4.4377e+01	17.7573	53.120632	0.000284	2.837645	0.961420	0.000114
 448	4.4477e+01	17.8038	53.193300	0.000182	1.824200	0.618056	0.000073
 449	4.4576e+01	17.8407	53.318452	0.000314	3.141678	1.064429	0.000126
 450	4.4675e+01	17.8824	53.415343	0.000243	2.432267	0.824074	0.000097
 451	4.4775e+01	17.9225	53.492049	0.000193	1.925545	0.652392	0.000077
 452	4.4874e+01	17.9610	53.609125	0.000294	2.938989	0.995756	0.000118
 453	4.4974e+01	18.0059	53.697942	0.000223	2.229578	0.755401	0.000089
 454	4.5074e+01	18.0380	53.806945	0.000274	2.736300	0.927084	0.000110
 455	4.5173e+01	18.0861	53.907874	0.000253	2.533611	0.858411	0.000101
 456	4.5273e+01	18.1150	53.980542	0.000182	1.824200	0.618056	0.000073
 457	4.5372e+01	18.1679	54.101656	0.000304	3.040334	1.030093	0.000122
 458	4.5471e+01	18.2000	54.198547	0.000243	2.432267	0.824074	0.000097
 459	4.5571e+01	18.2498	54.263141	0.000162	1.621511	0.549383	0.000065
 460	4.5670e+01	18.2786	54.372144	0.000274	2.736300	0.927084	0.000110
 461	4.5770e+01	18.3235	54.497295	0.000314	3.141678	1.064429	0.000126
 462	4.5870e+01	18.3637	54.630521	0.000334	3.344367	1.133102	0.000134
 463	4.5969e+01	18.4086	54.707226	0.000193	1.925545	0.652392	0.000077
 464	4.6069e+01	18.4407	54.747598	0.000101	1.013445	0.343364	0.000041
 465	4.6168e+01	18.4743	54.888897	0.000355	3.547056	1.201775	0.000142
 466	4.6267e+01	18.5177	54.953492	0.000162	1.621511	0.549383	0.000065
 467	4.6367e+01	18.5578	55.102866	0.000375	3.749745	1.270448	0.000150
 468	4.6467e+01	18.5947	55.191683	0.000223	2.229578	0.755401	0.000089
 469	4.6566e+01	18.6444	55.268388	0.000193	1.925545	0.652392	0.000077
 470	4.6666e+01	18.6749	55.341057	0.000182	1.824200	0.618056	0.000073
 471	4.6765e+01	18.7182	55.474282	0.000334	3.344367	1.133102	0.000134
 472	4.6864e+01	18.7631	55.567136	0.000233	2.330922	0.789738	0.000093
 473	4.6964e+01	18.8032	55.639805	0.000182	1.824200	0.618056	0.000073
 474	4.7063e+01	18.8449	55.732659	0.000233	2.330922	0.789738	0.000093
 475	4.7163e+01	18.8802	55.841662	0.000274	2.736300	0.927084	0.000110
 476	4.7263e+01	18.9155	55.906256	0.000162	1.621511	0.549383	0.000065
 477	4.7362e+01	18.9556	56.027370	0.000304	3.040334	1.030093	0.000122
 478	4.7462e+01	18.9925	56.136372	0.000274	2.736300	0.927084	0.000110
 479	4.7561e+01	19.0342	56.209041	0.000182	1.824200	0.618056	0.000073
 480	4.7660e+01	19.0807	56.334192	0.000314	3.141678	1.064429	0.000126
 481	4.7760e+01	19.1241	56.410898	0.000193	1.925545	0.652392	0.000077
 482	4.7859e+01	19.1674	56.503752	0.000233	2.330922	0.789738	0.000093
 483	4.7959e+01	19.2075	56.576420	0.000182	1.824200	0.618056	0.000073
 484	4.8059e+01	19.2380	56.689460	0.000284	2.837645	0.961420	0.000114
 485	4.8158e+01	19.2749	56.802500	0.000284	2.837645	0.961420	0.000114
 486	4.8258e+01	19.3182	56.879205	0.000193	1.925545	0.652392	0.000077
 487	4.8357e+01	19.3567	56.951874	0.000182	1.824200	0.618056	0.000073
 488	4.8456e+01	19.3984	57.072988	0.000304	3.040334	1.030093	0.000122
 489	4.8556e+01	19.4321	57.161805	0.000223	2.229578	0.755401	0.000089
 490	4.8656e+01	19.4722	57.242548	0.000203	2.026889	0.686729	0.000081
 491	4.8755e+01	19.5155	57.355587	0.000284	2.837645	0.961420	0.000114
 492	4.8855e+01	19.5540	57.464590	0.000274	2.736300	0.927084	0.000110
 493	4.8954e+01	19.5877	57.553407	0.000223	2.229578	0.755401	0.000089
 494	4.9053e+01	19.6246	57.638187	0.000213	2.128233	0.721065	0.000085
 495	4.9153e+01	19.6855	57.710855	0.000182	1.824200	0.618056	0.000073
 496	4.9252e+01	19.7160	57.831969	0.000304	3.040334	1.030093	0.000122
 497	4.9352e+01	19.7449	57.957121	0.000314	3.141678	1.064429	0.000126
 498	4.9452e+01	19.7962	58.025752	0.000172	1.722856	0.583719	0.000069
 499	4.9551e+01	19.8331	58.094383	0.000172	1.722856	0.583719	0.000069
 500	4.9651e+01	19.8797	58.215497	0.000304	3.040334	1.030093	0.000122
 501	4.9750e+01	19.9149	58.360834	0.000365	3.648400	1.236111	0.000146
 502	4.9849e+01	19.9486	58.372946	0.000030	0.304033	0.103009	0.000012
 503	4.9949e+01	20.0000	58.494060	0.000304	3.040334	1.030093	0.000122
 504	5.0048e+01	19.9551	58.441577	0.000132	1.317478	0.446374	-0.000053
 505	5.0148e+01	19.9101	58.364871	0.000193	1.925545	0.652392	-0.000077
 506	5.0248e+01	19.8732	58.292203	0.000182	1.824200	0.618056	-0.000073
 507	5.0347e+01	19.8331	58.247794	0.000111	1.114789	0.377701	-0.000045
 508	5.0447e+01	19.7978	58.138792	0.000274	2.736300	0.927084	-0.000110
 509	5.0546e+01	19.7641	58.045938	0.000233	2.330922	0.789738	-0.000093
 510	5.0645e+01	19.7176	58.017678	0.000071	0.709411	0.240355	-0.000028
 511	5.0745e+01	19.6727	57.912712	0.000263	2.634956	0.892747	-0.000105
 512	5.0844e+01	19.6374	57.807747	0.000263	2.634956	0.892747	-0.000105
 513	5.0944e+01	19.6037	57.799672	0.000020	0.202689	0.068673	-0.000008
 514	5.1044e+01	19.5476	57.666447	0.000334	3.344367	1.133102	-0.000134
 515	5.1143e+01	19.5123	57.593778	0.000182	1.824200	0.618056	-0.000073
 516	5.1242e+01	19.4674	57.521110	0.000182	1.824200	0.618056	-0.000073
 517	5.1342e+01	19.4353	57.460553	0.000152	1.520167	0.515046	-0.000061
 518	5.1441e+01	19.4048	57.335402	0.000314	3.141678	1.064429	-0.000126
 519	5.1541e+01	19.3599	57.295030	0.000101	1.013445	0.343364	-0.000041
 520	5.1641e+01	19.3198	57.242548	0.000132	1.317478	0.446374	-0.000053
 521	5.1740e+01	19.2765	57.105285	0.000345	3.445711	1.167439	-0.000138
 522	5.1840e+01	19.2331	57.064914	0.000101	1.013445	0.343364	-0.000041
 523	5.1939e+01	19.1979	56.980134	0.000213	2.128233	0.721065	-0.000085
 524	5.2038e+01	19.1545	56.867094	0.000284	2.837645	0.961420	-0.000114
 525	5.2138e+01	19.1176	56.794426	0.000182	1.824200	0.618056	-0.000073
 526	5.2237e+01	19.0775	56.754054	0.000101	1.013445	0.343364	-0.000041
 527	5.2337e+01	19.0406	56.649089	0.000263	2.634956	0.892747	-0.000105
 528	5.2437e+01	19.0070	56.552197	0.000243	2.432267	0.824074	-0.000097
 529	5.2536e+01	18.9588	56.475492	0.000193	1.925545	0.652392	-0.000077
 530	5.2636e+01	18.9251	56.410898	0.000162	1.621511	0.549383	-0.000065
 531	5.2735e+01	18.8786	56.289784	0.000304	3.040334	1.030093	-0.000122
 532	5.2834e+01	18.8433	56.229227	0.000152	1.520167	0.515046	-0.000061
 533	5.2934e+01	18.7984	56.152521	0.000193	1.925545	0.652392	-0.000077
 534	5.3033e+01	18.7631	56.087927	0.000162	1.621511	0.549383	-0.000065
 535	5.3133e+01	18.7182	55.962776	0.000314	3.141678	1.064429	-0.000126
 536	5.3233e+01	18.6733	55.906256	0.000142	1.418822	0.480710	-0.000057
 537	5.3332e+01	18.6348	55.813402	0.000233	2.330922	0.789738	-0.000093
 538	5.3431e+01	18.5915	55.696325	0.000294	2.938989	0.995756	-0.000118
 539	5.3531e+01	18.5594	55.647879	0.000122	1.216133	0.412037	-0.000049
 540	5.3630e+01	18.5257	55.542913	0.000263	2.634956	0.892747	-0.000105
 541	5.3730e+01	18.4808	55.450059	0.000233	2.330922	0.789738	-0.000093
 542	5.3830e+01	18.4391	55.425837	0.000061	0.608067	0.206019	-0.000024
 543	5.3929e+01	18.4038	55.320871	0.000263	2.634956	0.892747	-0.000105
 544	5.4029e+01	18.3588	55.191683	0.000324	3.243022	1.098766	-0.000130
 545	5.4128e+01	18.3171	55.147274	0.000111	1.114789	0.377701	-0.000045
 546	5.4227e+01	18.2754	55.074606	0.000182	1.824200	0.618056	-0.000073
 547	5.4327e+01	18.2465	54.997900	0.000193	1.925545	0.652392	-0.000077
 548	5.4426e+01	18.2000	54.864675	0.000334	3.344367	1.133102	-0.000134
 549	5.4526e+01	18.1599	54.804118	0.000152	1.520167	0.515046	-0.000061
 550	5.4626e+01	18.1214	54.674929	0.000324	3.243022	1.098766	-0.000130
 551	5.4725e+01	18.0861	54.626484	0.000122	1.216133	0.412037	-0.000049
 552	5.4825e+01	18.0332	54.517481	0.000274	2.736300	0.927084	-0.000110
 553	5.4924e+01	17.9947	54.485184	0.000081	0.810756	0.274691	-0.000032
 554	5.5023e+01	17.9610	54.388293	0.000243	2.432267	0.824074	-0.000097
 555	5.5123e+01	17.9257	54.287364	0.000253	2.533611	0.858411	-0.000101
 556	5.5222e+01	17.8760	54.182399	0.000263	2.634956	0.892747	-0.000105
 557	5.5322e+01	17.8535	54.129916	0.000132	1.317478	0.446374	-0.000053
 558	5.5422e+01	17.8070	54.053210	0.000193	1.925545	0.652392	-0.000077
 559	5.5521e+01	17.7733	53.968431	0.000213	2.128233	0.721065	-0.000085
 560	5.5620e+01	17.7300	53.839242	0.000324	3.243022	1.098766	-0.000130
 561	5.5720e+01	17.6915	53.774648	0.000162	1.621511	0.549383	-0.000065
 562	5.5819e+01	17.6434	53.734277	0.000101	1.013445	0.343364	-0.000041
 563	5.5919e+01	17.6049	53.617200	0.000294	2.938989	0.995756	-0.000118
 564	5.6019e+01	17.5631	53.500123	0.000294	2.938989	0.995756	-0.000118
 565	5.6118e+01	17.5246	53.483974	0.000041	0.405378	0.137346	-0.000016
 566	5.6218e+01	17.4893	53.330563	0.000385	3.851089	1.304784	-0.000154
 567	5.6317e+01	17.4348	53.253858	0.000193	1.925545	0.652392	-0.000077
 568	5.6416e+01	17.4091	53.169078	0.000213	2.128233	0.721065	-0.000085
 569	5.6516e+01	17.3546	53.052001	0.000294	2.938989	0.995756	-0.000118
 570	5.6615e+01	17.3241	52.983369	0.000172	1.722856	0.583719	-0.000069
 571	5.6715e+01	17.2824	52.922812	0.000152	1.520167	0.515046	-0.000061
 572	5.6815e+01	17.2455	52.821884	0.000253	2.533611	0.858411	-0.000101
 573	5.6914e+01	17.2022	52.704807	0.000294	2.938989	0.995756	-0.000118
 574	5.7014e+01	17.1685	52.624064	0.000203	2.026889	0.686729	-0.000081
 575	5.7113e+01	17.1268	52.555433	0.000172	1.722856	0.583719	-0.000069
 576	5.7212e+01	17.0835	52.418170	0.000345	3.445711	1.167439	-0.000138
 577	5.7312e+01	17.0434	52.377799	0.000101	1.013445	0.343364	-0.000041
 578	5.7411e+01	17.0049	52.301093	0.000193	1.925545	0.652392	-0.000077
 579	5.7511e+01	16.9632	52.155757	0.000365	3.648400	1.236111	-0.000146
 580	5.7611e+01	16.9279	52.087125	0.000172	1.722856	0.583719	-0.000069
 581	5.7710e+01	16.8862	52.026568	0.000152	1.520167	0.515046	-0.000061
 582	5.7809e+01	16.8477	51.905454	0.000304	3.040334	1.030093	-0.000122
 583	5.7909e+01	16.7995	51.832786	0.000182	1.824200	0.618056	-0.000073
 584	5.8008e+01	16.7658	51.711672	0.000304	3.040334	1.030093	-0.000122
 585	5.8108e+01	16.7257	51.614780	0.000243	2.432267	0.824074	-0.000097
 586	5.8208e+01	16.6904	51.542112	0.000182	1.824200	0.618056	-0.000073
 587	5.8307e+01	16.6471	51.437146	0.000263	2.634956	0.892747	-0.000105
 588	5.8407e+01	16.6182	51.344292	0.000233	2.330922	0.789738	-0.000093
 589	5.8506e+01	16.5685	51.243364	0.000253	2.533611	0.858411	-0.000101
 590	5.8605e+01	16.5252	51.186844	0.000142	1.418822	0.480710	-0.000057
 591	5.8705e+01	16.4851	51.049581	0.000345	3.445711	1.167439	-0.000138
 592	5.8804e+01	16.4498	51.001136	0.000122	1.216133	0.412037	-0.000049
 593	5.8904e+01	16.4017	50.912319	0.000223	2.229578	0.755401	-0.000089
 594	5.9004e+01	16.3760	50.811390	0.000253	2.533611	0.858411	-0.000101
 595	5.9103e+01	16.3311	50.706425	0.000263	2.634956	0.892747	-0.000105
 596	5.9203e+01	16.2814	50.617608	0.000223	2.229578	0.755401	-0.000089
 597	5.9302e+01	16.2509	50.520717	0.000243	2.432267	0.824074	-0.000097
 598	5.9401e+01	16.2140	50.407677	0.000284	2.837645	0.961420	-0.000114
 599	5.9501e+01	16.1594	50.322897	0.000213	2.128233	0.721065	-0.000085
 600	5.9600e+01	16.1354	50.250229	0.000182	1.824200	0.618056	-0.000073
 601	5.9700e+01	16.0921	50.173523	0.000193	1.925545	0.652392	-0.000077
 602	5.9800e+01	16.0359	50.072595	0.000253	2.533611	0.858411	-0.000101
 603	5.9899e+01	16.0102	49.971666	0.000253	2.533611	0.858411	-0.000101
 604	5.9998e+01	15.9605	49.886886	0.000213	2.128233	0.721065	-0.000085
 605	6.0098e+01	15.9332	49.810181	0.000193	1.925545	0.652392	-0.000077
 606	6.0197e+01	15.8979	49.701178	0.000274	2.736300	0.927084	-0.000110
 607	6.0297e+01	15.8466	49.580064	0.000304	3.040334	1.030093	-0.000122
 608	6.0397e+01	15.8097	49.479136	0.000253	2.533611	0.858411	-0.000101
 609	6.0496e+01	15.7744	49.446839	0.000081	0.810756	0.274691	-0.000032
 610	6.0596e+01	15.7279	49.341873	0.000263	2.634956	0.892747	-0.000105
 611	6.0695e+01	15.6958	49.196536	0.000365	3.648400	1.236111	-0.000146
 612	6.0794e+01	15.6525	49.115793	0.000203	2.026889	0.686729	-0.000081
 613	6.0894e+01	15.6140	49.063311	0.000132	1.317478	0.446374	-0.000053
 614	6.0993e+01	15.5691	48.962382	0.000253	2.533611	0.858411	-0.000101
 615	6.1093e+01	15.5338	48.861454	0.000253	2.533611	0.858411	-0.000101
 616	6.1193e+01	15.4921	48.752451	0.000274	2.736300	0.927084	-0.000110
 617	6.1292e+01	15.4552	48.691894	0.000152	1.520167	0.515046	-0.000061
 618	6.1392e+01	15.4135	48.562706	0.000324	3.243022	1.098766	-0.000130
 619	6.1491e+01	15.3702	48.465815	0.000243	2.432267	0.824074	-0.000097
 620	6.1590e+01	15.3284	48.381035	0.000213	2.128233	0.721065	-0.000085
 621	6.1690e+01	15.2899	48.280106	0.000253	2.533611	0.858411	-0.000101
 622	6.1789e+01	15.2498	48.167066	0.000284	2.837645	0.961420	-0.000114
 623	6.1889e+01	15.2065	48.066138	0.000253	2.533611	0.858411	-0.000101
 624	6.1989e+01	15.1776	47.985395	0.000203	2.026889	0.686729	-0.000081
 625	6.2088e+01	15.1359	47.916764	0.000172	1.722856	0.583719	-0.000069
 626	6.2188e+01	15.0942	47.803724	0.000284	2.837645	0.961420	-0.000114
 627	6.2287e+01	15.0557	47.694722	0.000274	2.736300	0.927084	-0.000110
 628	6.2386e+01	15.0140	47.609942	0.000213	2.128233	0.721065	-0.000085
 629	6.2486e+01	14.9691	47.513051	0.000243	2.432267	0.824074	-0.000097
 630	6.2586e+01	14.9338	47.448456	0.000162	1.621511	0.549383	-0.000065
 631	6.2685e+01	14.8937	47.335417	0.000284	2.837645	0.961420	-0.000114
 632	6.2785e+01	14.8568	47.242562	0.000233	2.330922	0.789738	-0.000093
 633	6.2884e+01	14.8151	47.165857	0.000193	1.925545	0.652392	-0.000077
 634	6.2983e+01	14.7750	47.048780	0.000294	2.938989	0.995756	-0.000118
 635	6.3083e+01	14.7285	46.919592	0.000324	3.243022	1.098766	-0.000130
 636	6.3182e+01	14.6932	46.859035	0.000152	1.520167	0.515046	-0.000061
 637	6.3282e+01	14.6595	46.758106	0.000253	2.533611	0.858411	-0.000101
 638	6.3382e+01	14.6033	46.653141	0.000263	2.634956	0.892747	-0.000105
 639	6.3481e+01	14.5761	46.560286	0.000233	2.330922	0.789738	-0.000093
 640	6.3581e+01	14.5392	46.491655	0.000172	1.722856	0.583719	-0.000069
 641	6.3680e+01	14.5007	46.330170	0.000405	4.053778	1.373457	-0.000162
 642	6.3779e+01	14.4654	46.257501	0.000182	1.824200	0.618056	-0.000073
 643	6.3879e+01	14.4108	46.192907	0.000162	1.621511	0.549383	-0.000065
 644	6.3978e+01	14.3852	46.059682	0.000334	3.344367	1.133102	-0.000134
 645	6.4078e+01	14.3306	45.987013	0.000182	1.824200	0.618056	-0.000073
 646	6.4177e+01	14.2889	45.873973	0.000284	2.837645	0.961420	-0.000114
 647	6.4277e+01	14.2584	45.764971	0.000274	2.736300	0.927084	-0.000110
 648	6.4376e+01	14.2071	45.668079	0.000243	2.432267	0.824074	-0.000097
 649	6.4476e+01	14.1846	45.595411	0.000182	1.824200	0.618056	-0.000073
 650	6.4576e+01	14.1381	45.478334	0.000294	2.938989	0.995756	-0.000118
 651	6.4675e+01	14.0948	45.397591	0.000203	2.026889	0.686729	-0.000081
 652	6.4775e+01	14.0515	45.296663	0.000253	2.533611	0.858411	-0.000101
 653	6.4874e+01	14.0146	45.167475	0.000324	3.243022	1.098766	-0.000130
 654	6.4974e+01	13.9697	45.078658	0.000223	2.229578	0.755401	-0.000089
 655	6.5073e+01	13.9408	44.997915	0.000203	2.026889	0.686729	-0.000081
 656	6.5172e+01	13.8959	44.876801	0.000304	3.040334	1.030093	-0.000122
 657	6.5272e+01	13.8590	44.783947	0.000233	2.330922	0.789738	-0.000093
 658	6.5371e+01	13.8140	44.683018	0.000253	2.533611	0.858411	-0.000101
 659	6.5471e+01	13.7820	44.594201	0.000223	2.229578	0.755401	-0.000089
 660	6.5570e+01	13.7354	44.513459	0.000203	2.026889	0.686729	-0.000081
 661	6.5670e+01	13.6905	44.388307	0.000314	3.141678	1.064429	-0.000126
 662	6.5769e+01	13.6568	44.263156	0.000314	3.141678	1.064429	-0.000126
 663	6.5869e+01	13.6280	44.178376	0.000213	2.128233	0.721065	-0.000085
 664	6.5969e+01	13.5830	44.057262	0.000304	3.040334	1.030093	-0.000122
 665	6.6068e+01	13.5397	43.992668	0.000162	1.621511	0.549383	-0.000065
 666	6.6168e+01	13.4900	43.903851	0.000223	2.229578	0.755401	-0.000089
 667	6.6267e+01	13.4611	43.778700	0.000314	3.141678	1.064429	-0.000126
 668	6.6367e+01	13.4178	43.681809	0.000243	2.432267	0.824074	-0.000097
 669	6.6466e+01	13.3809	43.621252	0.000152	1.520167	0.515046	-0.000061
 670	6.6566e+01	13.3360	43.492063	0.000324	3.243022	1.098766	-0.000130
 671	6.6665e+01	13.2943	43.415358	0.000193	1.925545	0.652392	-0.000077
 672	6.6764e+01	13.2526	43.294244	0.000304	3.040334	1.030093	-0.000122
 673	6.6864e+01	13.2205	43.213501	0.000203	2.026889	0.686729	-0.000081
 674	6.6963e+01	13.1756	43.096424	0.000294	2.938989	0.995756	-0.000118
 675	6.7063e+01	13.1419	43.007607	0.000223	2.229578	0.755401	-0.000089
 676	6.7162e+01	13.0970	42.910716	0.000243	2.432267	0.824074	-0.000097
 677	6.7262e+01	13.0633	42.809787	0.000253	2.533611	0.858411	-0.000101
 678	6.7362e+01	13.0151	42.741156	0.000172	1.722856	0.583719	-0.000069
 679	6.7461e+01	12.9766	42.591782	0.000375	3.749745	1.270448	-0.000150
 680	6.7561e+01	12.9430	42.470668	0.000304	3.040334	1.030093	-0.000122
 681	6.7660e+01	12.9028	42.430297	0.000101	1.013445	0.343364	-0.000041
 682	6.7760e+01	12.8547	42.321294	0.000274	2.736300	0.927084	-0.000110
 683	6.7859e+01	12.8162	42.184031	0.000345	3.445711	1.167439	-0.000138
 684	6.7959e+01	12.7873	42.115400	0.000172	1.722856	0.583719	-0.000069
 685	6.8058e+01	12.7344	41.986212	0.000324	3.243022	1.098766	-0.000130
 686	6.8157e+01	12.7039	41.909506	0.000193	1.925545	0.652392	-0.000077
 687	6.8257e+01	12.6638	41.800503	0.000274	2.736300	0.927084	-0.000110
 688	6.8356e+01	12.6189	41.691501	0.000274	2.736300	0.927084	-0.000110
 689	6.8456e+01	12.5804	41.594610	0.000243	2.432267	0.824074	-0.000097
 690	6.8555e+01	12.5467	41.489644	0.000263	2.634956	0.892747	-0.000105
 691	6.8655e+01	12.5018	41.360456	0.000324	3.243022	1.098766	-0.000130
 692	6.8754e+01	12.4665	41.275676	0.000213	2.128233	0.721065	-0.000085
 693	6.8854e+01	12.4248	41.166673	0.000274	2.736300	0.927084	-0.000110
 694	6.8954e+01	12.3863	41.073819	0.000233	2.330922	0.789738	-0.000093
 695	6.9053e+01	12.3430	40.989039	0.000213	2.128233	0.721065	-0.000085
 696	6.9153e+01	12.3045	40.851777	0.000345	3.445711	1.167439	-0.000138
 697	6.9252e+01	12.2612	40.742774	0.000274	2.736300	0.927084	-0.000110
 698	6.9352e+01	12.2307	40.649920	0.000233	2.330922	0.789738	-0.000093
 699	6.9451e+01	12.1841	40.553028	0.000243	2.432267	0.824074	-0.000097
 700	6.9550e+01	12.1537	40.444026	0.000274	2.736300	0.927084	-0.000110
 701	6.9650e+01	12.1104	40.379432	0.000162	1.621511	0.549383	-0.000065
 702	6.9749e+01	12.0702	40.221983	0.000395	3.952434	1.339121	-0.000158
 703	6.9849e+01	12.0269	40.153352	0.000172	1.722856	0.583719	-0.000069
 704	6.9948e+01	11.9884	40.044349	0.000274	2.736300	0.927084	-0.000110
 705	7.0048e+01	11.9483	39.935347	0.000274	2.736300	0.927084	-0.000110
 706	7.0147e+01	11.9130	39.834418	0.000253	2.533611	0.858411	-0.000101
 707	7.0247e+01	11.8697	39.749638	0.000213	2.128233	0.721065	-0.000085
 708	7.0347e+01	11.8216	39.644673	0.000263	2.634956	0.892747	-0.000105
 709	7.0446e+01	11.7847	39.483188	0.000405	4.053778	1.373457	-0.000162
 710	7.0546e+01	11.7414	39.418593	0.000162	1.621511	0.549383	-0.000065
 711	7.0645e+01	11.7125	39.309591	0.000274	2.736300	0.927084	-0.000110
 712	7.0745e+01	11.6660	39.228848	0.000203	2.026889	0.686729	-0.000081
 713	7.0844e+01	11.6339	39.067363	0.000405	4.053778	1.373457	-0.000162
 714	7.0944e+01	11.5938	38.982583	0.000213	2.128233	0.721065	-0.000085
 715	7.1043e+01	11.5505	38.865506	0.000294	2.938989	0.995756	-0.000118
 716	7.1142e+01	11.5056	38.784763	0.000203	2.026889	0.686729	-0.000081
 717	7.1242e+01	11.4655	38.663649	0.000304	3.040334	1.030093	-0.000122
 718	7.1341e+01	11.4318	38.578869	0.000213	2.128233	0.721065	-0.000085
 719	7.1441e+01	11.3820	38.441606	0.000345	3.445711	1.167439	-0.000138
 720	7.1540e+01	11.3580	38.360864	0.000203	2.026889	0.686729	-0.000081
 721	7.1640e+01	11.3163	38.231675	0.000324	3.243022	1.098766	-0.000130
 722	7.1740e+01	11.2681	38.110561	0.000304	3.040334	1.030093	-0.000122
 723	7.1839e+01	11.2328	38.029819	0.000203	2.026889	0.686729	-0.000081
 724	7.1939e+01	11.1991	37.920816	0.000274	2.736300	0.927084	-0.000110
 725	7.2038e+01	11.1398	37.791628	0.000324	3.243022	1.098766	-0.000130
 726	7.2138e+01	11.1093	37.714922	0.000193	1.925545	0.652392	-0.000077
 727	7.2237e+01	11.0612	37.585734	0.000324	3.243022	1.098766	-0.000130
 728	7.2337e+01	11.0355	37.488842	0.000243	2.432267	0.824074	-0.000097
 729	7.2436e+01	10.9858	37.379840	0.000274	2.736300	0.927084	-0.000110
 730	7.2535e+01	10.9521	37.278911	0.000253	2.533611	0.858411	-0.000101
 731	7.2635e+01	10.9040	37.194132	0.000213	2.128233	0.721065	-0.000085
 732	7.2734e+01	10.8655	37.044758	0.000375	3.749745	1.270448	-0.000150
 733	7.2834e+01	10.8318	36.955941	0.000223	2.229578	0.755401	-0.000089
 734	7.2933e+01	10.7901	36.867124	0.000223	2.229578	0.755401	-0.000089
 735	7.3033e+01	10.7500	36.770232	0.000243	2.432267	0.824074	-0.000097
 736	7.3132e+01	10.7163	36.649118	0.000304	3.040334	1.030093	-0.000122
 737	7.3232e+01	10.6665	36.499744	0.000375	3.749745	1.270448	-0.000150
 738	7.3332e+01	10.6296	36.431113	0.000172	1.722856	0.583719	-0.000069
 739	7.3431e+01	10.5944	36.314036	0.000294	2.938989	0.995756	-0.000118
 740	7.3531e+01	10.5526	36.196959	0.000294	2.938989	0.995756	-0.000118
 741	7.3630e+01	10.5206	36.087956	0.000274	2.736300	0.927084	-0.000110
 742	7.3730e+01	10.4676	35.962805	0.000314	3.141678	1.064429	-0.000126
 743	7.3829e+01	10.4227	35.833617	0.000324	3.243022	1.098766	-0.000130
 744	7.3928e+01	10.3986	35.777097	0.000142	1.418822	0.480710	-0.000057
 745	7.4028e+01	10.3521	35.664057	0.000284	2.837645	0.961420	-0.000114
 746	7.4127e+01	10.3152	35.510646	0.000385	3.851089	1.304784	-0.000154
 747	7.4227e+01	10.2719	35.393569	0.000294	2.938989	0.995756	-0.000118
 748	7.4326e+01	10.2302	35.292641	0.000253	2.533611	0.858411	-0.000101
 749	7.4426e+01	10.1933	35.191712	0.000253	2.533611	0.858411	-0.000101
 750	7.4525e+01	10.1548	35.074635	0.000294	2.938989	0.995756	-0.000118
 751	7.4625e+01	10.1099	34.957558	0.000294	2.938989	0.995756	-0.000118
 752	7.4725e+01	10.0698	34.840481	0.000294	2.938989	0.995756	-0.000118
 753	7.4824e+01	10.0329	34.735516	0.000263	2.634956	0.892747	-0.000105
 754	7.4924e+01	9.9944	34.626513	0.000274	2.736300	0.927084	-0.000110
 755	7.5023e+01	9.9446	34.493288	0.000334	3.344367	1.133102	-0.000134
 756	7.5123e+01	9.9158	34.408508	0.000213	2.128233	0.721065	-0.000085
 757	7.5222e+01	9.8724	34.263171	0.000365	3.648400	1.236111	-0.000146
 758	7.5322e+01	9.8388	34.166280	0.000243	2.432267	0.824074	-0.000097
 759	7.5421e+01	9.7987	34.053240	0.000284	2.837645	0.961420	-0.000114
 760	7.5520e+01	9.7457	33.948274	0.000263	2.634956	0.892747	-0.000105
 761	7.5620e+01	9.7104	33.855420	0.000233	2.330922	0.789738	-0.000093
 762	7.5719e+01	9.6751	33.746418	0.000274	2.736300	0.927084	-0.000110
 763	7.5819e+01	9.6286	33.613192	0.000334	3.344367	1.133102	-0.000134
 764	7.5918e+01	9.5965	33.475930	0.000345	3.445711	1.167439	-0.000138
 765	7.6018e+01	9.5564	33.387113	0.000223	2.229578	0.755401	-0.000089
 766	7.6118e+01	9.5147	33.290221	0.000243	2.432267	0.824074	-0.000097
 767	7.6217e+01	9.4762	33.132773	0.000395	3.952434	1.339121	-0.000158
 768	7.6317e+01	9.4409	33.027807	0.000263	2.634956	0.892747	-0.000105
 769	7.6416e+01	9.4024	32.959176	0.000172	1.722856	0.583719	-0.000069
 770	7.6516e+01	9.3559	32.805765	0.000385	3.851089	1.304784	-0.000154
 771	7.6615e+01	9.3158	32.700799	0.000263	2.634956	0.892747	-0.000105
 772	7.6715e+01	9.2773	32.575648	0.000314	3.141678	1.064429	-0.000126
 773	7.6814e+01	9.2372	32.434349	0.000355	3.547056	1.201775	-0.000142
 774	7.6913e+01	9.2019	32.381866	0.000132	1.317478	0.446374	-0.000053
 775	7.7013e+01	9.1570	32.276900	0.000263	2.634956	0.892747	-0.000105
 776	7.7112e+01	9.1217	32.143675	0.000334	3.344367	1.133102	-0.000134
 777	7.7212e+01	9.0751	32.030635	0.000284	2.837645	0.961420	-0.000114
 778	7.7311e+01	9.0366	31.881261	0.000375	3.749745	1.270448	-0.000150
 779	7.7411e+01	9.0014	31.776295	0.000263	2.634956	0.892747	-0.000105
 780	7.7510e+01	8.9548	31.659218	0.000294	2.938989	0.995756	-0.000118
 781	7.7610e+01	8.9163	31.542142	0.000294	2.938989	0.995756	-0.000118
 782	7.7710e+01	8.8746	31.433139	0.000274	2.736300	0.927084	-0.000110
 783	7.7809e+01	8.8345	31.303951	0.000324	3.243022	1.098766	-0.000130
 784	7.7909e+01	8.7864	31.190911	0.000284	2.837645	0.961420	-0.000114
 785	7.8008e+01	8.7559	31.077871	0.000284	2.837645	0.961420	-0.000114
 786	7.8108e+01	8.7190	30.944645	0.000334	3.344367	1.133102	-0.000134
 787	7.8207e+01	8.6757	30.839680	0.000263	2.634956	0.892747	-0.000105
 788	7.8306e+01	8.6340	30.730677	0.000274	2.736300	0.927084	-0.000110
 789	7.8406e+01	8.5939	30.613600	0.000294	2.938989	0.995756	-0.000118
 790	7.8505e+01	8.5570	30.480375	0.000334	3.344367	1.133102	-0.000134
 791	7.8605e+01	8.5201	30.379446	0.000253	2.533611	0.858411	-0.000101
 792	7.8704e+01	8.4880	30.282555	0.000243	2.432267	0.824074	-0.000097
 793	7.8804e+01	8.4367	30.145293	0.000345	3.445711	1.167439	-0.000138
 794	7.8903e+01	8.3998	30.036290	0.000274	2.736300	0.927084	-0.000110
 795	7.9003e+01	8.3532	29.886916	0.000375	3.749745	1.270448	-0.000150
 796	7.9103e+01	8.3292	29.798099	0.000223	2.229578	0.755401	-0.000089
 797	7.9202e+01	8.2778	29.668911	0.000324	3.243022	1.098766	-0.000130
 798	7.9302e+01	8.2281	29.539722	0.000324	3.243022	1.098766	-0.000130
 799	7.9401e+01	8.1944	29.454942	0.000213	2.128233	0.721065	-0.000085
 800	7.9501e+01	8.1591	29.305568	0.000375	3.749745	1.270448	-0.000150
 801	7.9600e+01	8.1158	29.208677	0.000243	2.432267	0.824074	-0.000097
 802	7.9700e+01	8.0805	29.063340	0.000365	3.648400	1.236111	-0.000146
 803	7.9799e+01	8.0436	28.970486	0.000233	2.330922	0.789738	-0.000093
 804	7.9898e+01	8.0083	28.857446	0.000284	2.837645	0.961420	-0.000114
 805	7.9998e+01	7.9538	28.712109	0.000365	3.648400	1.236111	-0.000146
 806	8.0097e+01	7.9137	28.603107	0.000274	2.736300	0.927084	-0.000110
 807	8.0197e+01	7.8848	28.486030	0.000294	2.938989	0.995756	-0.000118
 808	8.0296e+01	7.8479	28.356841	0.000324	3.243022	1.098766	-0.000130
 809	8.0396e+01	7.7934	28.247839	0.000274	2.736300	0.927084	-0.000110
 810	8.0496e+01	7.7597	28.122688	0.000314	3.141678	1.064429	-0.000126
 811	8.0595e+01	7.7196	27.965239	0.000395	3.952434	1.339121	-0.000158
 812	8.0695e+01	7.6811	27.860274	0.000263	2.634956	0.892747	-0.000105
 813	8.0794e+01	7.6394	27.763382	0.000243	2.432267	0.824074	-0.000097
 814	8.0894e+01	7.6057	27.650343	0.000284	2.837645	0.961420	-0.000114
 815	8.0993e+01	7.5656	27.505006	0.000365	3.648400	1.236111	-0.000146
 816	8.1093e+01	7.5303	27.391966	0.000284	2.837645	0.961420	-0.000114
 817	8.1192e+01	7.4854	27.278926	0.000284	2.837645	0.961420	-0.000114
 818	8.1291e+01	7.4404	27.133589	0.000365	3.648400	1.236111	-0.000146
 819	8.1391e+01	7.4035	27.048809	0.000213	2.128233	0.721065	-0.000085
 820	8.1490e+01	7.3682	26.883287	0.000416	4.155123	1.407794	-0.000166
 821	8.1590e+01	7.3169	26.786396	0.000243	2.432267	0.824074	-0.000097
 822	8.1689e+01	7.2864	26.637022	0.000375	3.749745	1.270448	-0.000150
 823	8.1789e+01	7.2415	26.511870	0.000314	3.141678	1.064429	-0.000126
 824	8.1888e+01	7.1950	26.414979	0.000243	2.432267	0.824074	-0.000097
 825	8.1988e+01	7.1661	26.281754	0.000334	3.344367	1.133102	-0.000134
 826	8.2088e+01	7.1148	26.160640	0.000304	3.040334	1.030093	-0.000122
 827	8.2187e+01	7.0843	26.023377	0.000345	3.445711	1.167439	-0.000138
 828	8.2287e+01	7.0410	25.894189	0.000324	3.243022	1.098766	-0.000130
 829	8.2386e+01	7.0073	25.769037	0.000314	3.141678	1.064429	-0.000126
 830	8.2486e+01	6.9720	25.680220	0.000223	2.229578	0.755401	-0.000089
 831	8.2585e+01	6.9239	25.567181	0.000284	2.837645	0.961420	-0.000114
 832	8.2684e+01	6.8854	25.450104	0.000294	2.938989	0.995756	-0.000118
 833	8.2784e+01	6.8356	25.345138	0.000263	2.634956	0.892747	-0.000105
 834	8.2883e+01	6.8036	25.228061	0.000294	2.938989	0.995756	-0.000118
 835	8.2983e+01	6.7554	25.074650	0.000385	3.851089	1.304784	-0.000154
 836	8.3082e+01	6.7346	24.953536	0.000304	3.040334	1.030093	-0.000122
 837	8.3182e+01	6.6897	24.840496	0.000284	2.837645	0.961420	-0.000114
 838	8.3281e+01	6.6399	24.699196	0.000355	3.547056	1.201775	-0.000142
 839	8.3381e+01	6.6159	24.594231	0.000263	2.634956	0.892747	-0.000105
 840	8.3481e+01	6.5645	24.489265	0.000263	2.634956	0.892747	-0.000105
 841	8.3580e+01	6.5196	24.339891	0.000375	3.749745	1.270448	-0.000150
 842	8.3680e+01	6.4827	24.210703	0.000324	3.243022	1.098766	-0.000130
 843	8.3779e+01	6.4538	24.117849	0.000233	2.330922	0.789738	-0.000093
 844	8.3879e+01	6.3993	23.968475	0.000375	3.749745	1.270448	-0.000150
 845	8.3978e+01	6.3608	23.855435	0.000284	2.837645	0.961420	-0.000114
 846	8.4078e+01	6.3399	23.730284	0.000314	3.141678	1.064429	-0.000126
 847	8.4177e+01	6.2918	23.588984	0.000355	3.547056	1.201775	-0.000142
 848	8.4276e+01	6.2517	23.443647	0.000365	3.648400	1.236111	-0.000146
 849	8.4376e+01	6.2100	23.326570	0.000294	2.938989	0.995756	-0.000118
 850	8.4475e+01	6.1619	23.205456	0.000304	3.040334	1.030093	-0.000122
 851	8.4575e+01	6.1298	23.112602	0.000233	2.330922	0.789738	-0.000093
 852	8.4674e+01	6.0913	22.987451	0.000314	3.141678	1.064429	-0.000126
 853	8.4774e+01	6.0399	22.838077	0.000375	3.749745	1.270448	-0.000150
 854	8.4874e+01	6.0111	22.668517	0.000426	4.256467	1.442130	-0.000170
 855	8.4973e+01	5.9613	22.567589	0.000253	2.533611	0.858411	-0.000101
 856	8.5073e+01	5.9228	22.474735	0.000233	2.330922	0.789738	-0.000093
 857	8.5172e+01	5.8891	22.345546	0.000324	3.243022	1.098766	-0.000130
 858	8.5272e+01	5.8490	22.220395	0.000314	3.141678	1.064429	-0.000126
 859	8.5371e+01	5.8153	22.103318	0.000294	2.938989	0.995756	-0.000118
 860	8.5471e+01	5.7688	21.941833	0.000405	4.053778	1.373457	-0.000162
 861	8.5570e+01	5.7399	21.792459	0.000375	3.749745	1.270448	-0.000150
 862	8.5669e+01	5.6854	21.639048	0.000385	3.851089	1.304784	-0.000154
 863	8.5769e+01	5.6501	21.570416	0.000172	1.722856	0.583719	-0.000069
 864	8.5868e+01	5.6100	21.412968	0.000395	3.952434	1.339121	-0.000158
 865	8.5968e+01	5.5715	21.303965	0.000274	2.736300	0.927084	-0.000110
 866	8.6067e+01	5.5362	21.154591	0.000375	3.749745	1.270448	-0.000150
 867	8.6167e+01	5.4961	21.053663	0.000253	2.533611	0.858411	-0.000101
 868	8.6266e+01	5.4544	20.924475	0.000324	3.243022	1.098766	-0.000130
 869	8.6366e+01	5.4111	20.771063	0.000385	3.851089	1.304784	-0.000154
 870	8.6466e+01	5.3678	20.682246	0.000223	2.229578	0.755401	-0.000089
 871	8.6565e+01	5.3357	20.549021	0.000334	3.344367	1.133102	-0.000134
 872	8.6665e+01	5.2892	20.383498	0.000416	4.155123	1.407794	-0.000166
 873	8.6764e+01	5.2571	20.274496	0.000274	2.736300	0.927084	-0.000110
 874	8.6864e+01	5.2186	20.113010	0.000405	4.053778	1.373457	-0.000162
 875	8.6963e+01	5.1704	20.004008	0.000274	2.736300	0.927084	-0.000110
 876	8.7063e+01	5.1335	19.862708	0.000355	3.547056	1.201775	-0.000142
 877	8.7162e+01	5.0934	19.777928	0.000213	2.128233	0.721065	-0.000085
 878	8.7261e+01	5.0565	19.596257	0.000456	4.560500	1.545139	-0.000183
 879	8.7361e+01	5.0180	19.503403	0.000233	2.330922	0.789738	-0.000093
 880	8.7460e+01	4.9715	19.354029	0.000375	3.749745	1.270448	-0.000150
 881	8.7560e+01	4.9346	19.208692	0.000365	3.648400	1.236111	-0.000146
 882	8.7659e+01	4.8913	19.083541	0.000314	3.141678	1.064429	-0.000126
 883	8.7759e+01	4.8576	18.962427	0.000304	3.040334	1.030093	-0.000122
 884	8.7859e+01	4.8159	18.833238	0.000324	3.243022	1.098766	-0.000130
 885	8.7958e+01	4.7774	18.724236	0.000274	2.736300	0.927084	-0.000110
 886	8.8058e+01	4.7261	18.526416	0.000497	4.965878	1.682485	-0.000199
 887	8.8157e+01	4.6908	18.421450	0.000263	2.634956	0.892747	-0.000105
 888	8.8257e+01	4.6491	18.296299	0.000314	3.141678	1.064429	-0.000126
 889	8.8356e+01	4.6138	18.146925	0.000375	3.749745	1.270448	-0.000150
 890	8.8456e+01	4.5769	18.054071	0.000233	2.330922	0.789738	-0.000093
 891	8.8555e+01	4.5320	17.892586	0.000405	4.053778	1.373457	-0.000162
 892	8.8654e+01	4.5047	17.755323	0.000345	3.445711	1.167439	-0.000138
 893	8.8754e+01	4.4582	17.650357	0.000263	2.634956	0.892747	-0.000105
 894	8.8853e+01	4.4165	17.517132	0.000334	3.344367	1.133102	-0.000134
 895	8.8953e+01	4.3747	17.400055	0.000294	2.938989	0.995756	-0.000118
 896	8.9052e+01	4.3346	17.262792	0.000345	3.445711	1.167439	-0.000138
 897	8.9152e+01	4.2993	17.109381	0.000385	3.851089	1.304784	-0.000154
 898	8.9251e+01	4.2608	16.955970	0.000385	3.851089	1.304784	-0.000154
 899	8.9351e+01	4.2111	16.838893	0.000294	2.938989	0.995756	-0.000118
 900	8.9451e+01	4.1694	16.709705	0.000324	3.243022	1.098766	-0.000130
 901	8.9550e+01	4.1389	16.612814	0.000243	2.432267	0.824074	-0.000097
 902	8.9650e+01	4.0956	16.443254	0.000426	4.256467	1.442130	-0.000170
 903	8.9749e+01	4.0619	16.301954	0.000355	3.547056	1.201775	-0.000142
 904	8.9849e+01	4.0154	16.176803	0.000314	3.141678	1.064429	-0.000126
 905	8.9948e+01	3.9817	16.039540	0.000345	3.445711	1.167439	-0.000138
 906	9.0047e+01	3.9320	15.926500	0.000284	2.837645	0.961420	-0.000114
 907	9.0147e+01	3.8887	15.744829	0.000456	4.560500	1.545139	-0.000183
 908	9.0246e+01	3.8582	15.619678	0.000314	3.141678	1.064429	-0.000126
 909	9.0346e+01	3.8165	15.474341	0.000365	3.648400	1.236111	-0.000146
 910	9.0445e+01	3.7780	15.361301	0.000284	2.837645	0.961420	-0.000114
 911	9.0545e+01	3.7282	15.232113	0.000324	3.243022	1.098766	-0.000130
 912	9.0644e+01	3.6913	15.090813	0.000355	3.547056	1.201775	-0.000142
 913	9.0744e+01	3.6560	14.909142	0.000456	4.560500	1.545139	-0.000183
 914	9.0844e+01	3.6191	14.783991	0.000314	3.141678	1.064429	-0.000126
 915	9.0943e+01	3.5871	14.666914	0.000294	2.938989	0.995756	-0.000118
 916	9.1043e+01	3.5454	14.533689	0.000334	3.344367	1.133102	-0.000134
 917	9.1142e+01	3.4972	14.364129	0.000426	4.256467	1.442130	-0.000170
 918	9.1242e+01	3.4651	14.230903	0.000334	3.344367	1.133102	-0.000134
 919	9.1341e+01	3.4186	14.097678	0.000334	3.344367	1.133102	-0.000134
 920	9.1441e+01	3.3721	13.944267	0.000385	3.851089	1.304784	-0.000154
 921	9.1540e+01	3.3416	13.746447	0.000497	4.965878	1.682485	-0.000199
 922	9.1639e+01	3.2983	13.669742	0.000193	1.925545	0.652392	-0.000077
 923	9.1739e+01	3.2630	13.516330	0.000385	3.851089	1.304784	-0.000154
 924	9.1838e+01	3.2213	13.391179	0.000314	3.141678	1.064429	-0.000126
 925	9.1938e+01	3.1668	13.253917	0.000345	3.445711	1.167439	-0.000138
 926	9.2037e+01	3.1363	13.088394	0.000416	4.155123	1.407794	-0.000166
 927	9.2137e+01	3.0962	12.947094	0.000355	3.547056	1.201775	-0.000142
 928	9.2237e+01	3.0625	12.821943	0.000314	3.141678	1.064429	-0.000126
 929	9.2336e+01	3.0176	12.668532	0.000385	3.851089	1.304784	-0.000154
 930	9.2436e+01	2.9935	12.551455	0.000294	2.938989	0.995756	-0.000118
 931	9.2535e+01	2.9357	12.422267	0.000324	3.243022	1.098766	-0.000130
 932	9.2635e+01	2.9021	12.240596	0.000456	4.560500	1.545139	-0.000183
 933	9.2734e+01	2.8587	12.107370	0.000334	3.344367	1.133102	-0.000134
 934	9.2834e+01	2.8267	11.941848	0.000416	4.155123	1.407794	-0.000166
 935	9.2933e+01	2.7849	11.812659	0.000324	3.243022	1.098766	-0.000130
 936	9.3032e+01	2.7432	11.675397	0.000345	3.445711	1.167439	-0.000138
 937	9.3132e+01	2.7031	11.530060	0.000365	3.648400	1.236111	-0.000146
 938	9.3231e+01	2.6614	11.408946	0.000304	3.040334	1.030093	-0.000122
 939	9.3331e+01	2.6197	11.275720	0.000334	3.344367	1.133102	-0.000134
 940	9.3430e+01	2.5892	11.106160	0.000426	4.256467	1.442130	-0.000170
 941	9.3530e+01	2.5347	10.972935	0.000334	3.344367	1.133102	-0.000134
 942	9.3629e+01	2.5058	10.815487	0.000395	3.952434	1.339121	-0.000158
 943	9.3729e+01	2.4609	10.662075	0.000385	3.851089	1.304784	-0.000154
 944	9.3829e+01	2.4320	10.540961	0.000304	3.040334	1.030093	-0.000122
 945	9.3928e+01	2.3711	10.379476	0.000405	4.053778	1.373457	-0.000162
 946	9.4028e+01	2.3486	10.238176	0.000355	3.547056	1.201775	-0.000142
 947	9.4127e+01	2.3021	10.092839	0.000365	3.648400	1.236111	-0.000146
 948	9.4227e+01	2.2636	9.947502	0.000365	3.648400	1.236111	-0.000146
 949	9.4326e+01	2.2251	9.786017	0.000405	4.053778	1.373457	-0.000162
 950	9.4425e+01	2.1737	9.672977	0.000284	2.837645	0.961420	-0.000114
 951	9.4525e+01	2.1417	9.503418	0.000426	4.256467	1.442130	-0.000170
 952	9.4624e+01	2.0967	9.321746	0.000456	4.560500	1.545139	-0.000183
 953	9.4724e+01	2.0663	9.236967	0.000213	2.128233	0.721065	-0.000085
 954	9.4823e+01	2.0133	9.087593	0.000375	3.749745	1.270448	-0.000150
 955	9.4923e+01	1.9812	8.942256	0.000365	3.648400	1.236111	-0.000146
 956	9.5022e+01	1.9411	8.748473	0.000486	4.864534	1.648149	-0.000195
 957	9.5122e+01	1.9010	8.615248	0.000334	3.344367	1.133102	-0.000134
 958	9.5222e+01	1.8561	8.465874	0.000375	3.749745	1.270448	-0.000150
 959	9.5321e+01	1.8192	8.352834	0.000284	2.837645	0.961420	-0.000114
 960	9.5421e+01	1.7775	8.138866	0.000537	5.371256	1.819831	-0.000215
 961	9.5520e+01	1.7566	8.005640	0.000334	3.344367	1.133102	-0.000134
 962	9.5620e+01	1.7101	7.872415	0.000334	3.344367	1.133102	-0.000134
 963	9.5719e+01	1.6668	7.747263	0.000314	3.141678	1.064429	-0.000126
 964	9.5819e+01	1.6315	7.553481	0.000486	4.864534	1.648149	-0.000195
 965	9.5918e+01	1.5802	7.432367	0.000304	3.040334	1.030093	-0.000122
 966	9.6017e+01	1.5417	7.274919	0.000395	3.952434	1.339121	-0.000158
 967	9.6117e+01	1.5080	7.145730	0.000324	3.243022	1.098766	-0.000130
 968	9.6216e+01	1.4679	6.996356	0.000375	3.749745	1.270448	-0.000150
 969	9.6316e+01	1.4310	6.851019	0.000365	3.648400	1.236111	-0.000146
 970	9.6415e+01	1.3941	6.661274	0.000476	4.763189	1.613812	-0.000191
 971	9.6515e+01	1.3443	6.499789	0.000405	4.053778	1.373457	-0.000162
 972	9.6615e+01	1.3010	6.358489	0.000355	3.547056	1.201775	-0.000142
 973	9.6714e+01	1.2641	6.197003	0.000405	4.053778	1.373457	-0.000162
 974	9.6814e+01	1.2256	6.100112	0.000243	2.432267	0.824074	-0.000097
 975	9.6913e+01	1.1807	5.890181	0.000527	5.269911	1.785494	-0.000211
 976	9.7013e+01	1.1406	5.769067	0.000304	3.040334	1.030093	-0.000122
 977	9.7112e+01	1.1037	5.599507	0.000426	4.256467	1.442130	-0.000170
 978	9.7212e+01	1.0668	5.466282	0.000334	3.344367	1.133102	-0.000134
 979	9.7311e+01	1.0283	5.292685	0.000436	4.357811	1.476466	-0.000174
 980	9.7410e+01	0.9898	5.131200	0.000405	4.053778	1.373457	-0.000162
 981	9.7510e+01	0.9545	4.965677	0.000416	4.155123	1.407794	-0.000166
 982	9.7609e+01	0.9032	4.844563	0.000304	3.040334	1.030093	-0.000122
 983	9.7709e+01	0.8711	4.699226	0.000365	3.648400	1.236111	-0.000146
 984	9.7808e+01	0.8294	4.525629	0.000436	4.357811	1.476466	-0.000174
 985	9.7908e+01	0.7877	4.347995	0.000446	4.459156	1.510803	-0.000179
 986	9.8007e+01	0.7524	4.158250	0.000476	4.763189	1.613812	-0.000191
 987	9.8107e+01	0.6962	4.061359	0.000243	2.432267	0.824074	-0.000097
 988	9.8207e+01	0.6658	3.928133	0.000334	3.344367	1.133102	-0.000134
 989	9.8306e+01	0.6289	3.730313	0.000497	4.965878	1.682485	-0.000199
 990	9.8406e+01	0.6000	3.568828	0.000405	4.053778	1.373457	-0.000162
 991	9.8505e+01	0.5535	3.455788	0.000284	2.837645	0.961420	-0.000114
 992	9.8605e+01	0.5134	3.322563	0.000334	3.344367	1.133102	-0.000134
 993	9.8704e+01	0.4684	3.100520	0.000557	5.573945	1.888504	-0.000223
 994	9.8803e+01	0.4283	2.991518	0.000274	2.736300	0.927084	-0.000110
 995	9.8903e+01	0.3914	2.813884	0.000446	4.459156	1.510803	-0.000179
 996	9.9002e+01	0.3593	2.644324	0.000426	4.256467	1.442130	-0.000170
 997	9.9102e+01	0.3112	2.503024	0.000355	3.547056	1.201775	-0.000142
 998	9.9201e+01	0.2711	2.341539	0.000405	4.053778	1.373457	-0.000162
 999	9.9301e+01	0.2294	2.176016	0.000416	4.155123	1.407794	-0.000166
1000	9.9400e+01	0.1877	2.026642	0.000375	3.749745	1.270448	-0.000150
1001	9.9500e+01	0.1492	1.877268	0.000375	3.749745	1.270448	-0.000150
1002	9.9600e+01	0.1155	1.760191	0.000294	2.938989	0.995756	-0.000118
1003	9.9699e+01	0.0690	1.582557	0.000446	4.459156	1.510803	-0.000179
1004	9.9799e+01	0.0353	1.441257	0.000355	3.547056	1.201775	-0.000142
1005	9.9898e+01	-0.0064	1.303995	0.000345	3.445711	1.167439	-0.000138
1006	9.9998e+01	-0.0449	1.110212	0.000486	4.864534	1.648149	-0.000195
1007	1.0010e+02	-0.0898	1.033507	0.000193	1.925545	0.652392	-0.000077
1008	1.0020e+02	-0.1203	0.819539	0.000537	5.371256	1.819831	-0.000215
1009	1.0030e+02	-0.1636	0.682276	0.000345	3.445711	1.167439	-0.000138
1010	1.0040e+02	-0.2037	0.524828	0.000395	3.952434	1.339121	-0.000158
1011	1.0050e+02	-0.2358	0.339119	0.000466	4.661845	1.579476	-0.000187
1012	1.0059e+02	-0.2936	0.169560	0.000426	4.256467	1.442130	-0.000170
1013	1.0069e+02	-0.3144	0.032297	0.000345	3.445711	1.167439	-0.000138
1014	1.0079e+02	-0.3642	-0.121114	0.000385	3.851089	1.304784	-0.000154
1015	1.0089e+02	-0.3978	-0.294711	0.000436	4.357811	1.476466	-0.000174
1016	1.0099e+02	-0.4380	-0.419862	0.000314	3.141678	1.064429	-0.000126
1017	1.0109e+02	-0.4829	-0.617682	0.000497	4.965878	1.682485	-0.000199
1018	1.0119e+02	-0.5214	-0.738796	0.000304	3.040334	1.030093	-0.000122
1019	1.0129e+02	-0.5599	-0.900281	0.000405	4.053778	1.373457	-0.000162
1020	1.0139e+02	-0.5936	-1.090027	0.000476	4.763189	1.613812	-0.000191
1021	1.0149e+02	-0.6353	-1.199029	0.000274	2.736300	0.927084	-0.000110
1022	1.0159e+02	-0.6850	-1.392812	0.000486	4.864534	1.648149	-0.000195
1023	1.0169e+02	-0.7139	-1.542186	0.000375	3.749745	1.270448	-0.000150
1024	1.0179e+02	-0.7508	-1.707708	0.000416	4.155123	1.407794	-0.000166
1025	1.0189e+02	-0.8005	-1.836897	0.000324	3.243022	1.098766	-0.000130
1026	1.0199e+02	-0.8406	-2.018568	0.000456	4.560500	1.545139	-0.000183
1027	1.0209e+02	-0.8695	-2.176016	0.000395	3.952434	1.339121	-0.000158
1028	1.0219e+02	-0.9208	-2.353650	0.000446	4.459156	1.510803	-0.000179
1029	1.0229e+02	-0.9561	-2.462653	0.000274	2.736300	0.927084	-0.000110
1030	1.0239e+02	-0.9994	-2.672584	0.000527	5.269911	1.785494	-0.000211
1031	1.0248e+02	-1.0395	-2.817921	0.000365	3.648400	1.236111	-0.000146
1032	1.0258e+02	-1.0796	-2.991518	0.000436	4.357811	1.476466	-0.000174
1033	1.0268e+02	-1.1149	-3.080335	0.000223	2.229578	0.755401	-0.000089
1034	1.0278e+02	-1.1599	-3.278154	0.000497	4.965878	1.682485	-0.000199
1035	1.0288e+02	-1.1984	-3.455788	0.000446	4.459156	1.510803	-0.000179
1036	1.0298e+02	-1.2337	-3.572865	0.000294	2.938989	0.995756	-0.000118
1037	1.0308e+02	-1.2818	-3.758573	0.000466	4.661845	1.579476	-0.000187
1038	1.0318e+02	-1.3187	-3.895836	0.000345	3.445711	1.167439	-0.000138
1039	1.0328e+02	-1.3524	-4.065396	0.000426	4.256467	1.442130	-0.000170
1040	1.0338e+02	-1.3893	-4.210733	0.000365	3.648400	1.236111	-0.000146
1041	1.0348e+02	-1.4358	-4.360107	0.000375	3.749745	1.270448	-0.000150
1042	1.0358e+02	-1.4775	-4.537741	0.000446	4.459156	1.510803	-0.000179
1043	1.0368e+02	-1.5144	-4.679040	0.000355	3.547056	1.201775	-0.000142
1044	1.0378e+02	-1.5561	-4.840526	0.000405	4.053778	1.373457	-0.000162
1045	1.0388e+02	-1.5962	-5.014123	0.000436	4.357811	1.476466	-0.000174
1046	1.0398e+02	-1.6315	-5.171571	0.000395	3.952434	1.339121	-0.000158
1047	1.0408e+02	-1.6796	-5.324982	0.000385	3.851089	1.304784	-0.000154
1048	1.0418e+02	-1.7117	-5.474356	0.000375	3.749745	1.270448	-0.000150
1049	1.0428e+02	-1.7486	-5.660064	0.000466	4.661845	1.579476	-0.000187
1050	1.0438e+02	-1.7887	-5.785216	0.000314	3.141678	1.064429	-0.000126
1051	1.0447e+02	-1.8352	-5.910367	0.000314	3.141678	1.064429	-0.000126
1052	1.0457e+02	-1.8753	-6.083964	0.000436	4.357811	1.476466	-0.000174
1053	1.0467e+02	-1.9203	-6.233338	0.000375	3.749745	1.270448	-0.000150
1054	1.0477e+02	-1.9524	-6.406934	0.000436	4.357811	1.476466	-0.000174
1055	1.0487e+02	-1.9941	-6.580531	0.000436	4.357811	1.476466	-0.000174
1056	1.0497e+02	-2.0342	-6.701645	0.000304	3.040334	1.030093	-0.000122
1057	1.0507e+02	-2.0695	-6.826797	0.000314	3.141678	1.064429	-0.000126
1058	1.0517e+02	-2.1192	-7.024616	0.000497	4.965878	1.682485	-0.000199
1059	1.0527e+02	-2.1593	-7.137656	0.000284	2.837645	0.961420	-0.000114
1060	1.0537e+02	-2.1834	-7.335476	0.000497	4.965878	1.682485	-0.000199
1061	1.0547e+02	-2.2379	-7.529258	0.000486	4.864534	1.648149	-0.000195
1062	1.0557e+02	-2.2796	-7.601927	0.000182	1.824200	0.618056	-0.000073
1063	1.0567e+02	-2.3149	-7.767449	0.000416	4.155123	1.407794	-0.000166
1064	1.0577e+02	-2.3486	-7.945083	0.000446	4.459156	1.510803	-0.000179
1065	1.0587e+02	-2.3951	-8.066197	0.000304	3.040334	1.030093	-0.000122
1066	1.0597e+02	-2.4368	-8.259980	0.000486	4.864534	1.648149	-0.000195
1067	1.0607e+02	-2.4593	-8.401279	0.000355	3.547056	1.201775	-0.000142
1068	1.0617e+02	-2.5026	-8.490096	0.000223	2.229578	0.755401	-0.000089
1069	1.0627e+02	-2.5507	-8.659656	0.000426	4.256467	1.442130	-0.000170
1070	1.0637e+02	-2.5956	-8.865550	0.000517	5.168567	1.751158	-0.000207
1071	1.0647e+02	-2.6309	-8.942256	0.000193	1.925545	0.652392	-0.000077
1072	1.0656e+02	-2.6743	-9.111815	0.000426	4.256467	1.442130	-0.000170
1073	1.0666e+02	-2.7112	-9.289449	0.000446	4.459156	1.510803	-0.000179
1074	1.0676e+02	-2.7545	-9.414601	0.000314	3.141678	1.064429	-0.000126
1075	1.0686e+02	-2.7882	-9.551863	0.000345	3.445711	1.167439	-0.000138
1076	1.0696e+02	-2.8315	-9.729497	0.000446	4.459156	1.510803	-0.000179
1077	1.0706e+02	-2.8668	-9.907131	0.000446	4.459156	1.510803	-0.000179
1078	1.0716e+02	-2.9197	-10.028245	0.000304	3.040334	1.030093	-0.000122
1079	1.0726e+02	-2.9502	-10.181656	0.000385	3.851089	1.304784	-0.000154
1080	1.0736e+02	-2.9919	-10.335067	0.000385	3.851089	1.304784	-0.000154
1081	1.0746e+02	-3.0352	-10.456182	0.000304	3.040334	1.030093	-0.000122
1082	1.0756e+02	-3.0769	-10.585370	0.000324	3.243022	1.098766	-0.000130
1083	1.0766e+02	-3.1138	-10.750892	0.000416	4.155123	1.407794	-0.000166
1084	1.0776e+02	-3.1523	-10.896229	0.000365	3.648400	1.236111	-0.000146
1085	1.0786e+02	-3.1908	-11.029455	0.000334	3.344367	1.133102	-0.000134
1086	1.0796e+02	-3.2341	-11.211126	0.000456	4.560500	1.545139	-0.000183
1087	1.0806e+02	-3.2550	-11.364537	0.000385	3.851089	1.304784	-0.000154
1088	1.0816e+02	-3.3047	-11.505837	0.000355	3.547056	1.201775	-0.000142
1089	1.0826e+02	-3.3561	-11.667322	0.000405	4.053778	1.373457	-0.000162
1090	1.0836e+02	-3.3865	-11.800548	0.000334	3.344367	1.133102	-0.000134
1091	1.0845e+02	-3.4315	-11.941848	0.000355	3.547056	1.201775	-0.000142
1092	1.0855e+02	-3.4748	-12.058924	0.000294	2.938989	0.995756	-0.000118
1093	1.0865e+02	-3.5052	-12.208298	0.000375	3.749745	1.270448	-0.000150
1094	1.0875e+02	-3.5502	-12.365747	0.000395	3.952434	1.339121	-0.000158
1095	1.0885e+02	-3.5935	-12.531269	0.000416	4.155123	1.407794	-0.000166
1096	1.0895e+02	-3.6320	-12.708903	0.000446	4.459156	1.510803	-0.000179
1097	1.0905e+02	-3.6721	-12.858277	0.000375	3.749745	1.270448	-0.000150
1098	1.0915e+02	-3.7042	-12.914797	0.000142	1.418822	0.480710	-0.000057
1099	1.0925e+02	-3.7507	-13.128765	0.000537	5.371256	1.819831	-0.000215
1100	1.0935e+02	-3.7940	-13.253917	0.000314	3.141678	1.064429	-0.000126
1101	1.0945e+02	-3.8277	-13.338696	0.000213	2.128233	0.721065	-0.000085
1102	1.0955e+02	-3.8646	-13.496145	0.000395	3.952434	1.339121	-0.000158
1103	1.0965e+02	-3.9063	-13.653593	0.000395	3.952434	1.339121	-0.000158
1104	1.0975e+02	-3.9448	-13.802967	0.000375	3.749745	1.270448	-0.000150
1105	1.0985e+02	-3.9897	-13.948304	0.000365	3.648400	1.236111	-0.000146
1106	1.0995e+02	-4.0298	-14.105752	0.000395	3.952434	1.339121	-0.000158
1107	1.1005e+02	-4.0748	-14.218792	0.000284	2.837645	0.961420	-0.000114
1108	1.1015e+02	-4.1020	-14.339906	0.000304	3.040334	1.030093	-0.000122
1109	1.1025e+02	-4.1469	-14.509466	0.000426	4.256467	1.442130	-0.000170
1110	1.1035e+02	-4.1919	-14.642691	0.000334	3.344367	1.133102	-0.000134
1111	1.1044e+02	-4.2191	-14.788028	0.000365	3.648400	1.236111	-0.000146
1112	1.1054e+02	-4.2705	-14.933365	0.000365	3.648400	1.236111	-0.000146
1113	1.1064e+02	-4.3090	-15.086776	0.000385	3.851089	1.304784	-0.000154
1114	1.1074e+02	-4.3411	-15.224039	0.000345	3.445711	1.167439	-0.000138
1115	1.1084e+02	-4.3796	-15.304782	0.000203	2.026889	0.686729	-0.000081
1116	1.1094e+02	-4.4245	-15.490490	0.000466	4.661845	1.579476	-0.000187
1117	1.1104e+02	-4.4678	-15.579307	0.000223	2.229578	0.755401	-0.000089
1118	1.1114e+02	-4.5095	-15.744829	0.000416	4.155123	1.407794	-0.000166
1119	1.1124e+02	-4.5432	-15.894203	0.000375	3.749745	1.270448	-0.000150
1120	1.1134e+02	-4.5881	-16.007243	0.000284	2.837645	0.961420	-0.000114
1121	1.1144e+02	-4.6202	-16.168729	0.000405	4.053778	1.373457	-0.000162
1122	1.1154e+02	-4.6587	-16.285806	0.000294	2.938989	0.995756	-0.000118
1123	1.1164e+02	-4.7020	-16.427105	0.000355	3.547056	1.201775	-0.000142
1124	1.1174e+02	-4.7469	-16.580516	0.000385	3.851089	1.304784	-0.000154
1125	1.1184e+02	-4.7838	-16.709705	0.000324	3.243022	1.098766	-0.000130
1126	1.1194e+02	-4.8175	-16.851005	0.000355	3.547056	1.201775	-0.000142
1127	1.1204e+02	-4.8560	-16.996341	0.000365	3.648400	1.236111	-0.000146
1128	1.1214e+02	-4.9057	-17.113418	0.000294	2.938989	0.995756	-0.000118
1129	1.1224e+02	-4.9475	-17.246644	0.000334	3.344367	1.133102	-0.000134
1130	1.1234e+02	-4.9811	-17.371795	0.000314	3.141678	1.064429	-0.000126
1131	1.1244e+02	-5.0293	-17.517132	0.000365	3.648400	1.236111	-0.000146
1132	1.1253e+02	-5.0614	-17.646320	0.000324	3.243022	1.098766	-0.000130
1133	1.1263e+02	-5.1047	-17.787620	0.000355	3.547056	1.201775	-0.000142
1134	1.1273e+02	-5.1368	-17.928920	0.000355	3.547056	1.201775	-0.000142
1135	1.1283e+02	-5.1833	-18.066182	0.000345	3.445711	1.167439	-0.000138
1136	1.1293e+02	-5.2314	-18.191334	0.000314	3.141678	1.064429	-0.000126
1137	1.1303e+02	-5.2667	-18.324559	0.000334	3.344367	1.133102	-0.000134
1138	1.1313e+02	-5.3036	-18.421450	0.000243	2.432267	0.824074	-0.000097
1139	1.1323e+02	-5.3453	-18.586973	0.000416	4.155123	1.407794	-0.000166
1140	1.1333e+02	-5.3854	-18.720198	0.000334	3.344367	1.133102	-0.000134
1141	1.1343e+02	-5.4207	-18.865535	0.000365	3.648400	1.236111	-0.000146
1142	1.1353e+02	-5.4592	-18.974538	0.000274	2.736300	0.927084	-0.000110
1143	1.1363e+02	-5.5025	-19.111801	0.000345	3.445711	1.167439	-0.000138
1144	1.1373e+02	-5.5394	-19.232915	0.000304	3.040334	1.030093	-0.000122
1145	1.1383e+02	-5.5699	-19.345954	0.000284	2.837645	0.961420	-0.000114
1146	1.1393e+02	-5.6148	-19.527626	0.000456	4.560500	1.545139	-0.000183
1147	1.1403e+02	-5.6565	-19.648740	0.000304	3.040334	1.030093	-0.000122
1148	1.1413e+02	-5.7030	-19.753705	0.000263	2.634956	0.892747	-0.000105
1149	1.1423e+02	-5.7399	-19.915191	0.000405	4.053778	1.373457	-0.000162
1150	1.1433e+02	-5.7801	-20.036305	0.000304	3.040334	1.030093	-0.000122
1151	1.1442e+02	-5.8202	-20.173567	0.000345	3.445711	1.167439	-0.000138
1152	1.1452e+02	-5.8538	-20.326978	0.000385	3.851089	1.304784	-0.000154
1153	1.1462e+02	-5.9100	-20.448093	0.000304	3.040334	1.030093	-0.000122
1154	1.1472e+02	-5.9421	-20.561132	0.000284	2.837645	0.961420	-0.000114
1155	1.1482e+02	-5.9742	-20.674172	0.000284	2.837645	0.961420	-0.000114
1156	1.1492e+02	-6.0239	-20.819509	0.000365	3.648400	1.236111	-0.000146
1157	1.1502e+02	-6.0560	-20.960809	0.000355	3.547056	1.201775	-0.000142
1158	1.1512e+02	-6.1009	-21.081923	0.000304	3.040334	1.030093	-0.000122
1159	1.1522e+02	-6.1378	-21.170740	0.000223	2.229578	0.755401	-0.000089
1160	1.1532e+02	-6.1779	-21.348374	0.000446	4.459156	1.510803	-0.000179
1161	1.1542e+02	-6.2180	-21.501785	0.000385	3.851089	1.304784	-0.000154
1162	1.1552e+02	-6.2533	-21.602713	0.000253	2.533611	0.858411	-0.000101
1163	1.1562e+02	-6.3046	-21.715753	0.000284	2.837645	0.961420	-0.000114
1164	1.1572e+02	-6.3351	-21.808607	0.000233	2.330922	0.789738	-0.000093
1165	1.1582e+02	-6.3768	-21.953944	0.000365	3.648400	1.236111	-0.000146
1166	1.1592e+02	-6.4185	-22.083132	0.000324	3.243022	1.098766	-0.000130
1167	1.1602e+02	-6.4490	-22.208284	0.000314	3.141678	1.064429	-0.000126
1168	1.1612e+02	-6.5020	-22.309212	0.000253	2.533611	0.858411	-0.000101
1169	1.1622e+02	-6.5276	-22.446475	0.000345	3.445711	1.167439	-0.000138
1170	1.1632e+02	-6.5774	-22.603923	0.000395	3.952434	1.339121	-0.000158
1171	1.1642e+02	-6.6207	-22.688703	0.000213	2.128233	0.721065	-0.000085
1172	1.1651e+02	-6.6511	-22.825965	0.000345	3.445711	1.167439	-0.000138
1173	1.1661e+02	-6.7057	-22.914782	0.000223	2.229578	0.755401	-0.000089
1174	1.1671e+02	-6.7265	-23.088379	0.000436	4.357811	1.476466	-0.000174
1175	1.1681e+02	-6.7731	-23.181233	0.000233	2.330922	0.789738	-0.000093
1176	1.1691e+02	-6.8100	-23.350793	0.000426	4.256467	1.442130	-0.000170
1177	1.1701e+02	-6.8549	-23.427499	0.000193	1.925545	0.652392	-0.000077
1178	1.1711e+02	-6.8918	-23.580910	0.000385	3.851089	1.304784	-0.000154
1179	1.1721e+02	-6.9319	-23.685875	0.000263	2.634956	0.892747	-0.000105
1180	1.1731e+02	-6.9704	-23.811027	0.000314	3.141678	1.064429	-0.000126
1181	1.1741e+02	-7.0153	-23.944252	0.000334	3.344367	1.133102	-0.000134
1182	1.1751e+02	-7.0538	-24.093626	0.000375	3.749745	1.270448	-0.000150
1183	1.1761e+02	-7.0891	-24.202629	0.000274	2.736300	0.927084	-0.000110
1184	1.1771e+02	-7.1388	-24.319706	0.000294	2.938989	0.995756	-0.000118
1185	1.1781e+02	-7.1757	-24.432745	0.000284	2.837645	0.961420	-0.000114
1186	1.1791e+02	-7.2110	-24.553860	0.000304	3.040334	1.030093	-0.000122
1187	1.1801e+02	-7.2527	-24.666899	0.000284	2.837645	0.961420	-0.000114
1188	1.1811e+02	-7.2912	-24.808199	0.000355	3.547056	1.201775	-0.000142
1189	1.1821e+02	-7.3313	-24.941425	0.000334	3.344367	1.133102	-0.000134
1190	1.1831e+02	-7.3666	-25.090799	0.000375	3.749745	1.270448	-0.000150
1191	1.1841e+02	-7.4083	-25.183653	0.000233	2.330922	0.789738	-0.000093
1192	1.1850e+02	-7.4501	-25.280544	0.000243	2.432267	0.824074	-0.000097
1193	1.1860e+02	-7.4886	-25.425881	0.000365	3.648400	1.236111	-0.000146
1194	1.1870e+02	-7.5303	-25.530846	0.000263	2.634956	0.892747	-0.000105
1195	1.1880e+02	-7.5752	-25.672146	0.000355	3.547056	1.201775	-0.000142
1196	1.1890e+02	-7.6089	-25.756926	0.000213	2.128233	0.721065	-0.000085
1197	1.1900e+02	-7.6538	-25.906300	0.000375	3.749745	1.270448	-0.000150
1198	1.1910e+02	-7.6875	-26.003191	0.000243	2.432267	0.824074	-0.000097
1199	1.1920e+02	-7.7276	-26.144491	0.000355	3.547056	1.201775	-0.000142
1200	1.1930e+02	-7.7725	-26.245419	0.000253	2.533611	0.858411	-0.000101
1201	1.1940e+02	-7.8014	-26.378645	0.000334	3.344367	1.133102	-0.000134
1202	1.1950e+02	-7.8479	-26.519945	0.000355	3.547056	1.201775	-0.000142
1203	1.1960e+02	-7.8880	-26.637022	0.000294	2.938989	0.995756	-0.000118
1204	1.1970e+02	-7.9249	-26.729876	0.000233	2.330922	0.789738	-0.000093
1205	1.1980e+02	-7.9778	-26.850990	0.000304	3.040334	1.030093	-0.000122
1206	1.1990e+02	-8.0083	-26.976141	0.000314	3.141678	1.064429	-0.000126
1207	1.2000e+02	-8.0581	-27.113404	0.000345	3.445711	1.167439	-0.000138
1208	1.2010e+02	-8.0869	-27.234518	0.000304	3.040334	1.030093	-0.000122
1209	1.2020e+02	-8.1351	-27.327372	0.000233	2.330922	0.789738	-0.000093
1210	1.2030e+02	-8.1768	-27.436374	0.000274	2.736300	0.927084	-0.000110
1211	1.2039e+02	-8.2121	-27.577674	0.000355	3.547056	1.201775	-0.000142
1212	1.2049e+02	-8.2425	-27.755308	0.000446	4.459156	1.510803	-0.000179
1213	1.2059e+02	-8.2827	-27.827977	0.000182	1.824200	0.618056	-0.000073
1214	1.2069e+02	-8.3276	-27.977351	0.000375	3.749745	1.270448	-0.000150
1215	1.2079e+02	-8.3693	-28.050019	0.000182	1.824200	0.618056	-0.000073
1216	1.2089e+02	-8.4062	-28.146910	0.000243	2.432267	0.824074	-0.000097
1217	1.2099e+02	-8.4479	-28.272062	0.000314	3.141678	1.064429	-0.000126
1218	1.2109e+02	-8.4896	-28.417398	0.000365	3.648400	1.236111	-0.000146
1219	1.2119e+02	-8.5249	-28.538513	0.000304	3.040334	1.030093	-0.000122
1220	1.2129e+02	-8.5746	-28.663664	0.000314	3.141678	1.064429	-0.000126
1221	1.2139e+02	-8.6131	-28.792852	0.000324	3.243022	1.098766	-0.000130
1222	1.2149e+02	-8.6484	-28.889743	0.000243	2.432267	0.824074	-0.000097
1223	1.2159e+02	-8.6901	-29.018932	0.000324	3.243022	1.098766	-0.000130
1224	1.2169e+02	-8.7254	-29.152157	0.000334	3.344367	1.133102	-0.000134
1225	1.2179e+02	-8.7671	-29.228863	0.000193	1.925545	0.652392	-0.000077
1226	1.2189e+02	-8.8121	-29.325754	0.000243	2.432267	0.824074	-0.000097
1227	1.2199e+02	-8.8506	-29.479165	0.000385	3.851089	1.304784	-0.000154
1228	1.2209e+02	-8.8858	-29.588168	0.000274	2.736300	0.927084	-0.000110
1229	1.2219e+02	-8.9227	-29.725430	0.000345	3.445711	1.167439	-0.000138
1230	1.2229e+02	-8.9596	-29.798099	0.000182	1.824200	0.618056	-0.000073
1231	1.2239e+02	-9.0030	-29.931324	0.000334	3.344367	1.133102	-0.000134
1232	1.2248e+02	-9.0527	-30.060513	0.000324	3.243022	1.098766	-0.000130
1233	1.2258e+02	-9.0848	-30.173553	0.000284	2.837645	0.961420	-0.000114
1234	1.2268e+02	-9.1217	-30.262369	0.000223	2.229578	0.755401	-0.000089
1235	1.2278e+02	-9.1682	-30.383484	0.000304	3.040334	1.030093	-0.000122
1236	1.2288e+02	-9.1923	-30.516709	0.000334	3.344367	1.133102	-0.000134
1237	1.2298e+02	-9.2484	-30.605526	0.000223	2.229578	0.755401	-0.000089
1238	1.2308e+02	-9.2869	-30.734714	0.000324	3.243022	1.098766	-0.000130
1239	1.2318e+02	-9.3270	-30.859866	0.000314	3.141678	1.064429	-0.000126
1240	1.2328e+02	-9.3623	-30.968868	0.000274	2.736300	0.927084	-0.000110
1241	1.2338e+02	-9.4088	-31.089982	0.000304	3.040334	1.030093	-0.000122
1242	1.2348e+02	-9.4457	-31.186874	0.000243	2.432267	0.824074	-0.000097
1243	1.2358e+02	-9.4890	-31.320099	0.000334	3.344367	1.133102	-0.000134
1244	1.2368e+02	-9.5211	-31.404879	0.000213	2.128233	0.721065	-0.000085
1245	1.2378e+02	-9.5692	-31.538104	0.000334	3.344367	1.133102	-0.000134
1246	1.2388e+02	-9.5981	-31.651144	0.000284	2.837645	0.961420	-0.000114
1247	1.2398e+02	-9.6495	-31.731887	0.000203	2.026889	0.686729	-0.000081
1248	1.2408e+02	-9.6880	-31.941818	0.000527	5.269911	1.785494	-0.000211
1249	1.2418e+02	-9.7249	-32.014486	0.000182	1.824200	0.618056	-0.000073
1250	1.2428e+02	-9.7602	-32.143675	0.000324	3.243022	1.098766	-0.000130
1251	1.2438e+02	-9.8003	-32.272863	0.000324	3.243022	1.098766	-0.000130
1252	1.2447e+02	-9.8307	-32.337457	0.000162	1.621511	0.549383	-0.000065
1253	1.2457e+02	-9.8757	-32.450497	0.000284	2.837645	0.961420	-0.000114
1254	1.2467e+02	-9.9222	-32.599871	0.000375	3.749745	1.270448	-0.000150
1255	1.2477e+02	-9.9655	-32.712911	0.000284	2.837645	0.961420	-0.000114
1256	1.2487e+02	-9.9912	-32.797691	0.000213	2.128233	0.721065	-0.000085
1257	1.2497e+02	-10.0441	-32.947065	0.000375	3.749745	1.270448	-0.000150
1258	1.2507e+02	-10.0842	-33.007622	0.000152	1.520167	0.515046	-0.000061
1259	1.2517e+02	-10.1211	-33.169107	0.000405	4.053778	1.373457	-0.000162
1260	1.2527e+02	-10.1612	-33.314444	0.000365	3.648400	1.236111	-0.000146
1261	1.2537e+02	-10.1997	-33.383075	0.000172	1.722856	0.583719	-0.000069
1262	1.2547e+02	-10.2398	-33.516301	0.000334	3.344367	1.133102	-0.000134
1263	1.2557e+02	-10.2783	-33.653564	0.000345	3.445711	1.167439	-0.000138
1264	1.2567e+02	-10.3297	-33.730269	0.000193	1.925545	0.652392	-0.000077
1265	1.2577e+02	-10.3633	-33.867532	0.000345	3.445711	1.167439	-0.000138
1266	1.2587e+02	-10.3954	-33.932126	0.000162	1.621511	0.549383	-0.000065
1267	1.2597e+02	-10.4403	-34.085537	0.000385	3.851089	1.304784	-0.000154
1268	1.2607e+02	-10.4772	-34.166280	0.000203	2.026889	0.686729	-0.000081
1269	1.2617e+02	-10.5254	-34.287394	0.000304	3.040334	1.030093	-0.000122
1270	1.2627e+02	-10.5607	-34.416582	0.000324	3.243022	1.098766	-0.000130
1271	1.2636e+02	-10.6040	-34.557882	0.000355	3.547056	1.201775	-0.000142
1272	1.2646e+02	-10.6409	-34.614402	0.000142	1.418822	0.480710	-0.000057
1273	1.2656e+02	-10.6858	-34.715330	0.000253	2.533611	0.858411	-0.000101
1274	1.2666e+02	-10.7227	-34.852593	0.000345	3.445711	1.167439	-0.000138
1275	1.2676e+02	-10.7516	-35.010041	0.000395	3.952434	1.339121	-0.000158
1276	1.2686e+02	-10.8093	-35.098858	0.000223	2.229578	0.755401	-0.000089
1277	1.2696e+02	-10.8430	-35.171527	0.000182	1.824200	0.618056	-0.000073
1278	1.2706e+02	-10.8831	-35.308789	0.000345	3.445711	1.167439	-0.000138
1279	1.2716e+02	-10.9136	-35.433940	0.000314	3.141678	1.064429	-0.000126
1280	1.2726e+02	-10.9617	-35.522757	0.000223	2.229578	0.755401	-0.000089
1281	1.2736e+02	-10.9986	-35.647909	0.000314	3.141678	1.064429	-0.000126
1282	1.2746e+02	-11.0387	-35.740763	0.000233	2.330922	0.789738	-0.000093
1283	1.2756e+02	-11.0804	-35.857840	0.000294	2.938989	0.995756	-0.000118
1284	1.2766e+02	-11.1125	-35.987028	0.000324	3.243022	1.098766	-0.000130
1285	1.2776e+02	-11.1526	-36.047585	0.000152	1.520167	0.515046	-0.000061
1286	1.2786e+02	-11.2024	-36.192922	0.000365	3.648400	1.236111	-0.000146
1287	1.2796e+02	-11.2360	-36.318073	0.000314	3.141678	1.064429	-0.000126
1288	1.2806e+02	-11.2729	-36.435150	0.000294	2.938989	0.995756	-0.000118
1289	1.2816e+02	-11.3211	-36.519930	0.000213	2.128233	0.721065	-0.000085
1290	1.2826e+02	-11.3516	-36.600673	0.000203	2.026889	0.686729	-0.000081
1291	1.2835e+02	-11.3949	-36.762158	0.000405	4.053778	1.373457	-0.000162
1292	1.2845e+02	-11.4270	-36.850975	0.000223	2.229578	0.755401	-0.000089
1293	1.2855e+02	-11.4735	-36.951903	0.000253	2.533611	0.858411	-0.000101
1294	1.2865e+02	-11.5184	-37.036683	0.000213	2.128233	0.721065	-0.000085
1295	1.2875e+02	-11.5489	-37.206243	0.000426	4.256467	1.442130	-0.000170
1296	1.2885e+02	-11.6002	-37.270837	0.000162	1.621511	0.549383	-0.000065
1297	1.2895e+02	-11.6387	-37.383877	0.000284	2.837645	0.961420	-0.000114
1298	1.2905e+02	-11.6724	-37.480768	0.000243	2.432267	0.824074	-0.000097
1299	1.2915e+02	-11.7109	-37.609957	0.000324	3.243022	1.098766	-0.000130
1300	1.2925e+02	-11.7510	-37.731071	0.000304	3.040334	1.030093	-0.000122
1301	1.2935e+02	-11.7895	-37.823925	0.000233	2.330922	0.789738	-0.000093
1302	1.2945e+02	-11.8344	-37.965224	0.000355	3.547056	1.201775	-0.000142
1303	1.2955e+02	-11.8809	-38.033856	0.000172	1.722856	0.583719	-0.000069
1304	1.2965e+02	-11.9066	-38.150933	0.000294	2.938989	0.995756	-0.000118
1305	1.2975e+02	-11.9531	-38.268010	0.000294	2.938989	0.995756	-0.000118
1306	1.2985e+02	-11.9900	-38.352790	0.000213	2.128233	0.721065	-0.000085
1307	1.2995e+02	-12.0510	-38.490052	0.000345	3.445711	1.167439	-0.000138
1308	1.3005e+02	-12.0751	-38.570795	0.000203	2.026889	0.686729	-0.000081
1309	1.3015e+02	-12.1136	-38.716132	0.000365	3.648400	1.236111	-0.000146
1310	1.3025e+02	-12.1537	-38.788800	0.000182	1.824200	0.618056	-0.000073
1311	1.3034e+02	-12.1986	-38.885691	0.000243	2.432267	0.824074	-0.000097
1312	1.3044e+02	-12.2323	-39.014880	0.000324	3.243022	1.098766	-0.000130
1313	1.3054e+02	-12.2740	-39.140031	0.000314	3.141678	1.064429	-0.000126
1314	1.3064e+02	-12.3125	-39.257108	0.000294	2.938989	0.995756	-0.000118
1315	1.3074e+02	-12.3542	-39.382259	0.000314	3.141678	1.064429	-0.000126
1316	1.3084e+02	-12.3895	-39.450890	0.000172	1.722856	0.583719	-0.000069
1317	1.3094e+02	-12.4328	-39.551819	0.000253	2.533611	0.858411	-0.000101
1318	1.3104e+02	-12.4745	-39.681007	0.000324	3.243022	1.098766	-0.000130
1319	1.3114e+02	-12.5178	-39.790010	0.000274	2.736300	0.927084	-0.000110
1320	1.3124e+02	-12.5483	-39.878827	0.000223	2.229578	0.755401	-0.000089
1321	1.3134e+02	-12.5980	-40.003978	0.000314	3.141678	1.064429	-0.000126
1322	1.3144e+02	-12.6333	-40.112981	0.000274	2.736300	0.927084	-0.000110
1323	1.3154e+02	-12.6783	-40.189686	0.000193	1.925545	0.652392	-0.000077
1324	1.3164e+02	-12.7055	-40.322912	0.000334	3.344367	1.133102	-0.000134
1325	1.3174e+02	-12.7520	-40.415766	0.000233	2.330922	0.789738	-0.000093
1326	1.3184e+02	-12.8002	-40.548991	0.000334	3.344367	1.133102	-0.000134
1327	1.3194e+02	-12.8290	-40.637808	0.000223	2.229578	0.755401	-0.000089
1328	1.3204e+02	-12.8708	-40.746811	0.000274	2.736300	0.927084	-0.000110
1329	1.3214e+02	-12.9125	-40.847739	0.000253	2.533611	0.858411	-0.000101
1330	1.3224e+02	-12.9478	-40.904259	0.000142	1.418822	0.480710	-0.000057
1331	1.3234e+02	-12.9863	-41.041522	0.000345	3.445711	1.167439	-0.000138
1332	1.3243e+02	-13.0360	-41.130339	0.000223	2.229578	0.755401	-0.000089
1333	1.3253e+02	-13.0745	-41.235304	0.000263	2.634956	0.892747	-0.000105
1334	1.3263e+02	-13.1066	-41.360456	0.000314	3.141678	1.064429	-0.000126
1335	1.3273e+02	-13.1483	-41.421013	0.000152	1.520167	0.515046	-0.000061
1336	1.3283e+02	-13.1852	-41.521941	0.000253	2.533611	0.858411	-0.000101
1337	1.3293e+02	-13.2413	-41.659204	0.000345	3.445711	1.167439	-0.000138
1338	1.3303e+02	-13.2686	-41.764169	0.000263	2.634956	0.892747	-0.000105
1339	1.3313e+02	-13.3087	-41.852986	0.000223	2.229578	0.755401	-0.000089
1340	1.3323e+02	-13.3392	-41.966026	0.000284	2.837645	0.961420	-0.000114
1341	1.3333e+02	-13.3841	-42.087140	0.000304	3.040334	1.030093	-0.000122
1342	1.3343e+02	-13.4290	-42.184031	0.000243	2.432267	0.824074	-0.000097
1343	1.3353e+02	-13.4723	-42.256700	0.000182	1.824200	0.618056	-0.000073
1344	1.3363e+02	-13.5092	-42.349554	0.000233	2.330922	0.789738	-0.000093
1345	1.3373e+02	-13.5477	-42.486817	0.000345	3.445711	1.167439	-0.000138
1346	1.3383e+02	-13.5862	-42.591782	0.000263	2.634956	0.892747	-0.000105
1347	1.3393e+02	-13.6280	-42.684636	0.000233	2.330922	0.789738	-0.000093
1348	1.3403e+02	-13.6713	-42.753267	0.000172	1.722856	0.583719	-0.000069
1349	1.3413e+02	-13.7114	-42.926864	0.000436	4.357811	1.476466	-0.000174
1350	1.3423e+02	-13.7531	-43.015681	0.000223	2.229578	0.755401	-0.000089
1351	1.3432e+02	-13.7820	-43.116610	0.000253	2.533611	0.858411	-0.000101
1352	1.3442e+02	-13.8333	-43.193315	0.000193	1.925545	0.652392	-0.000077
1353	1.3452e+02	-13.8686	-43.306355	0.000284	2.837645	0.961420	-0.000114
1354	1.3462e+02	-13.9023	-43.407283	0.000253	2.533611	0.858411	-0.000101
1355	1.3472e+02	-13.9408	-43.508212	0.000253	2.533611	0.858411	-0.000101
1356	1.3482e+02	-13.9825	-43.629326	0.000304	3.040334	1.030093	-0.000122
1357	1.3492e+02	-14.0242	-43.714106	0.000213	2.128233	0.721065	-0.000085
1358	1.3502e+02	-14.0611	-43.831183	0.000294	2.938989	0.995756	-0.000118
1359	1.3512e+02	-14.1076	-43.920000	0.000223	2.229578	0.755401	-0.000089
1360	1.3522e+02	-14.1397	-44.029002	0.000274	2.736300	0.927084	-0.000110
1361	1.3532e+02	-14.1846	-44.113782	0.000213	2.128233	0.721065	-0.000085
1362	1.3542e+02	-14.2247	-44.234896	0.000304	3.040334	1.030093	-0.000122
1363	1.3552e+02	-14.2568	-44.347936	0.000284	2.837645	0.961420	-0.000114
1364	1.3562e+02	-14.3049	-44.432716	0.000213	2.128233	0.721065	-0.000085
1365	1.3572e+02	-14.3499	-44.533644	0.000253	2.533611	0.858411	-0.000101
1366	1.3582e+02	-14.3771	-44.650721	0.000294	2.938989	0.995756	-0.000118
1367	1.3592e+02	-14.4253	-44.751650	0.000253	2.533611	0.858411	-0.000101
1368	1.3602e+02	-14.4622	-44.836430	0.000213	2.128233	0.721065	-0.000085
1369	1.3612e+02	-14.5087	-44.896987	0.000152	1.520167	0.515046	-0.000061
1370	1.3622e+02	-14.5440	-45.010026	0.000284	2.837645	0.961420	-0.000114
1371	1.3631e+02	-14.5857	-45.143252	0.000334	3.344367	1.133102	-0.000134
1372	1.3641e+02	-14.6146	-45.244180	0.000253	2.533611	0.858411	-0.000101
1373	1.3651e+02	-14.6579	-45.353183	0.000274	2.736300	0.927084	-0.000110
1374	1.3661e+02	-14.7092	-45.442000	0.000223	2.229578	0.755401	-0.000089
1375	1.3671e+02	-14.7525	-45.571188	0.000324	3.243022	1.098766	-0.000130
1376	1.3681e+02	-14.7830	-45.651931	0.000203	2.026889	0.686729	-0.000081
1377	1.3691e+02	-14.8311	-45.764971	0.000284	2.837645	0.961420	-0.000114
1378	1.3701e+02	-14.8632	-45.805342	0.000101	1.013445	0.343364	-0.000041
1379	1.3711e+02	-14.9017	-45.890122	0.000213	2.128233	0.721065	-0.000085
1380	1.3721e+02	-14.9386	-46.063719	0.000436	4.357811	1.476466	-0.000174
1381	1.3731e+02	-14.9900	-46.152536	0.000223	2.229578	0.755401	-0.000089
1382	1.3741e+02	-15.0140	-46.249427	0.000243	2.432267	0.824074	-0.000097
1383	1.3751e+02	-15.0621	-46.358430	0.000274	2.736300	0.927084	-0.000110
1384	1.3761e+02	-15.1006	-46.455321	0.000243	2.432267	0.824074	-0.000097
1385	1.3771e+02	-15.1391	-46.560286	0.000263	2.634956	0.892747	-0.000105
1386	1.3781e+02	-15.1744	-46.653141	0.000233	2.330922	0.789738	-0.000093
1387	1.3791e+02	-15.2210	-46.754069	0.000253	2.533611	0.858411	-0.000101
1388	1.3801e+02	-15.2627	-46.842886	0.000223	2.229578	0.755401	-0.000089
1389	1.3811e+02	-15.2996	-46.955926	0.000284	2.837645	0.961420	-0.000114
1390	1.3821e+02	-15.3461	-47.064928	0.000274	2.736300	0.927084	-0.000110
1391	1.3831e+02	-15.3942	-47.129523	0.000162	1.621511	0.549383	-0.000065
1392	1.3840e+02	-15.4327	-47.238525	0.000274	2.736300	0.927084	-0.000110
1393	1.3850e+02	-15.4600	-47.371751	0.000334	3.344367	1.133102	-0.000134
1394	1.3860e+02	-15.5001	-47.432308	0.000152	1.520167	0.515046	-0.000061
1395	1.3870e+02	-15.5386	-47.529199	0.000243	2.432267	0.824074	-0.000097
1396	1.3880e+02	-15.5819	-47.626090	0.000243	2.432267	0.824074	-0.000097
1397	1.3890e+02	-15.6108	-47.743167	0.000294	2.938989	0.995756	-0.000118
1398	1.3900e+02	-15.6557	-47.815836	0.000182	1.824200	0.618056	-0.000073
1399	1.3910e+02	-15.6974	-47.932913	0.000294	2.938989	0.995756	-0.000118
1400	1.3920e+02	-15.7455	-47.993470	0.000152	1.520167	0.515046	-0.000061
1401	1.3930e+02	-15.7712	-48.110547	0.000294	2.938989	0.995756	-0.000118
1402	1.3940e+02	-15.8242	-48.259921	0.000375	3.749745	1.270448	-0.000150
1403	1.3950e+02	-15.8659	-48.304329	0.000111	1.114789	0.377701	-0.000045
1404	1.3960e+02	-15.9044	-48.413332	0.000274	2.736300	0.927084	-0.000110
1405	1.3970e+02	-15.9461	-48.506186	0.000233	2.330922	0.789738	-0.000093
1406	1.3980e+02	-15.9782	-48.595003	0.000223	2.229578	0.755401	-0.000089
1407	1.3990e+02	-16.0215	-48.683820	0.000223	2.229578	0.755401	-0.000089
1408	1.4000e+02	-16.0696	-48.764563	0.000203	2.026889	0.686729	-0.000081
1409	1.4010e+02	-16.0953	-48.901825	0.000345	3.445711	1.167439	-0.000138
1410	1.4020e+02	-16.1402	-49.002754	0.000253	2.533611	0.858411	-0.000101
1411	1.4029e+02	-16.1803	-49.107719	0.000263	2.634956	0.892747	-0.000105
1412	1.4039e+02	-16.2076	-49.192499	0.000213	2.128233	0.721065	-0.000085
1413	1.4049e+02	-16.2541	-49.297464	0.000263	2.634956	0.892747	-0.000105
1414	1.4059e+02	-16.2926	-49.434727	0.000345	3.445711	1.167439	-0.000138
1415	1.4069e+02	-16.3407	-49.483173	0.000122	1.216133	0.412037	-0.000049
1416	1.4079e+02	-16.3760	-49.588138	0.000263	2.634956	0.892747	-0.000105
1417	1.4089e+02	-16.4306	-49.680992	0.000233	2.330922	0.789738	-0.000093
1418	1.4099e+02	-16.4578	-49.826329	0.000365	3.648400	1.236111	-0.000146
1419	1.4109e+02	-16.4947	-49.903035	0.000193	1.925545	0.652392	-0.000077
1420	1.4119e+02	-16.5412	-50.012038	0.000274	2.736300	0.927084	-0.000110
1421	1.4129e+02	-16.5765	-50.121040	0.000274	2.736300	0.927084	-0.000110
1422	1.4139e+02	-16.6263	-50.181597	0.000152	1.520167	0.515046	-0.000061
1423	1.4149e+02	-16.6632	-50.310786	0.000324	3.243022	1.098766	-0.000130
1424	1.4159e+02	-16.6872	-50.395565	0.000213	2.128233	0.721065	-0.000085
1425	1.4169e+02	-16.7434	-50.492457	0.000243	2.432267	0.824074	-0.000097
1426	1.4179e+02	-16.7755	-50.645868	0.000385	3.851089	1.304784	-0.000154
1427	1.4189e+02	-16.8204	-50.690276	0.000111	1.114789	0.377701	-0.000045
1428	1.4199e+02	-16.8605	-50.827539	0.000345	3.445711	1.167439	-0.000138
1429	1.4209e+02	-16.8926	-50.884059	0.000142	1.418822	0.480710	-0.000057
1430	1.4219e+02	-16.9375	-50.997099	0.000284	2.837645	0.961420	-0.000114
1431	1.4228e+02	-16.9712	-51.114176	0.000294	2.938989	0.995756	-0.000118
1432	1.4238e+02	-17.0065	-51.211067	0.000243	2.432267	0.824074	-0.000097
1433	1.4248e+02	-17.0546	-51.332181	0.000304	3.040334	1.030093	-0.000122
1434	1.4258e+02	-17.0947	-51.420998	0.000223	2.229578	0.755401	-0.000089
1435	1.4268e+02	-17.1348	-51.501741	0.000203	2.026889	0.686729	-0.000081
1436	1.4278e+02	-17.1701	-51.602669	0.000253	2.533611	0.858411	-0.000101
1437	1.4288e+02	-17.2230	-51.663226	0.000152	1.520167	0.515046	-0.000061
1438	1.4298e+02	-17.2535	-51.772229	0.000274	2.736300	0.927084	-0.000110
1439	1.4308e+02	-17.2920	-51.852971	0.000203	2.026889	0.686729	-0.000081
1440	1.4318e+02	-17.3321	-51.957937	0.000263	2.634956	0.892747	-0.000105
1441	1.4328e+02	-17.3819	-52.103274	0.000365	3.648400	1.236111	-0.000146
1442	1.4338e+02	-17.4156	-52.200165	0.000243	2.432267	0.824074	-0.000097
1443	1.4348e+02	-17.4589	-52.284945	0.000213	2.128233	0.721065	-0.000085
1444	1.4358e+02	-17.4942	-52.377799	0.000233	2.330922	0.789738	-0.000093
1445	1.4368e+02	-17.5359	-52.446430	0.000172	1.722856	0.583719	-0.000069
1446	1.4378e+02	-17.5583	-52.523136	0.000193	1.925545	0.652392	-0.000077
1447	1.4388e+02	-17.6193	-52.652324	0.000324	3.243022	1.098766	-0.000130
1448	1.4398e+02	-17.6562	-52.817847	0.000416	4.155123	1.407794	-0.000166
1449	1.4408e+02	-17.6947	-52.846107	0.000071	0.709411	0.240355	-0.000028
1450	1.4418e+02	-17.7252	-52.938961	0.000233	2.330922	0.789738	-0.000093
1451	1.4428e+02	-17.7701	-53.043926	0.000263	2.634956	0.892747	-0.000105
1452	1.4437e+02	-17.8118	-53.156966	0.000284	2.837645	0.961420	-0.000114
1453	1.4447e+02	-17.8503	-53.278080	0.000304	3.040334	1.030093	-0.000122
1454	1.4457e+02	-17.8968	-53.350749	0.000182	1.824200	0.618056	-0.000073
1455	1.4467e+02	-17.9257	-53.423417	0.000182	1.824200	0.618056	-0.000073
1456	1.4477e+02	-17.9722	-53.560680	0.000345	3.445711	1.167439	-0.000138
1457	1.4487e+02	-18.0203	-53.649497	0.000223	2.229578	0.755401	-0.000089
1458	1.4497e+02	-18.0476	-53.718128	0.000172	1.722856	0.583719	-0.000069
1459	1.4507e+02	-18.0941	-53.847316	0.000324	3.243022	1.098766	-0.000130
1460	1.4517e+02	-18.1278	-53.911911	0.000162	1.621511	0.549383	-0.000065
1461	1.4527e+02	-18.1679	-54.012839	0.000253	2.533611	0.858411	-0.000101
1462	1.4537e+02	-18.2193	-54.125879	0.000284	2.837645	0.961420	-0.000114
1463	1.4547e+02	-18.2433	-54.222770	0.000243	2.432267	0.824074	-0.000097
1464	1.4557e+02	-18.2866	-54.323698	0.000253	2.533611	0.858411	-0.000101
1465	1.4567e+02	-18.3268	-54.412515	0.000223	2.229578	0.755401	-0.000089
1466	1.4577e+02	-18.3765	-54.517481	0.000263	2.634956	0.892747	-0.000105
1467	1.4587e+02	-18.4150	-54.610335	0.000233	2.330922	0.789738	-0.000093
1468	1.4597e+02	-18.4535	-54.666855	0.000142	1.418822	0.480710	-0.000057
1469	1.4607e+02	-18.4920	-54.804118	0.000345	3.445711	1.167439	-0.000138
1470	1.4617e+02	-18.5273	-54.925232	0.000304	3.040334	1.030093	-0.000122
1471	1.4626e+02	-18.5658	-54.969640	0.000111	1.114789	0.377701	-0.000045
1472	1.4636e+02	-18.6027	-55.102866	0.000334	3.344367	1.133102	-0.000134
1473	1.4646e+02	-18.6428	-55.159386	0.000142	1.418822	0.480710	-0.000057
1474	1.4656e+02	-18.7038	-55.284537	0.000314	3.141678	1.064429	-0.000126
1475	1.4666e+02	-18.7310	-55.393539	0.000274	2.736300	0.927084	-0.000110
1476	1.4676e+02	-18.7663	-55.494468	0.000253	2.533611	0.858411	-0.000101
1477	1.4686e+02	-18.8080	-55.567136	0.000182	1.824200	0.618056	-0.000073
1478	1.4696e+02	-18.8562	-55.688250	0.000304	3.040334	1.030093	-0.000122
1479	1.4706e+02	-18.8866	-55.744770	0.000142	1.418822	0.480710	-0.000057
1480	1.4716e+02	-18.9332	-55.906256	0.000405	4.053778	1.373457	-0.000162
1481	1.4726e+02	-18.9717	-55.982961	0.000193	1.925545	0.652392	-0.000077
1482	1.4736e+02	-19.0102	-56.051593	0.000172	1.722856	0.583719	-0.000069
1483	1.4746e+02	-19.0503	-56.192892	0.000355	3.547056	1.201775	-0.000142
1484	1.4756e+02	-19.0856	-56.293821	0.000253	2.533611	0.858411	-0.000101
1485	1.4766e+02	-19.1321	-56.386675	0.000233	2.330922	0.789738	-0.000093
1486	1.4776e+02	-19.1722	-56.463380	0.000193	1.925545	0.652392	-0.000077
1487	1.4786e+02	-19.1979	-56.564309	0.000253	2.533611	0.858411	-0.000101
1488	1.4796e+02	-19.2492	-56.665237	0.000253	2.533611	0.858411	-0.000101
1489	1.4806e+02	-19.2797	-56.750017	0.000213	2.128233	0.721065	-0.000085
1490	1.4816e+02	-19.3246	-56.907465	0.000395	3.952434	1.339121	-0.000158
1491	1.4825e+02	-19.3567	-56.972060	0.000162	1.621511	0.549383	-0.000065
1492	1.4835e+02	-19.4016	-57.072988	0.000253	2.533611	0.858411	-0.000101
1493	1.4845e+02	-19.4497	-57.177953	0.000263	2.634956	0.892747	-0.000105
1494	1.4855e+02	-19.4930	-57.262733	0.000213	2.128233	0.721065	-0.000085
1495	1.4865e+02	-19.5299	-57.347513	0.000213	2.128233	0.721065	-0.000085
1496	1.4875e+02	-19.5604	-57.428256	0.000203	2.026889	0.686729	-0.000081
1497	1.4885e+02	-19.6037	-57.565518	0.000345	3.445711	1.167439	-0.000138
1498	1.4895e+02	-19.6342	-57.638187	0.000182	1.824200	0.618056	-0.000073
1499	1.4905e+02	-19.6855	-57.747190	0.000274	2.736300	0.927084	-0.000110
1500	1.4915e+02	-19.7208	-57.848118	0.000253	2.533611	0.858411	-0.000101
1501	1.4925e+02	-19.7625	-57.932898	0.000213	2.128233	0.721065	-0.000085
1502	1.4935e+02	-19.7994	-58.005566	0.000182	1.824200	0.618056	-0.000073
1503	1.4945e+02	-19.8347	-58.138792	0.000334	3.344367	1.133102	-0.000134
1504	1.4955e+02	-19.8845	-58.183200	0.000111	1.114789	0.377701	-0.000045
1505	1.4965e+02	-19.9230	-58.312389	0.000324	3.243022	1.098766	-0.000130
1506	1.4975e+02	-19.9647	-58.417354	0.000263	2.634956	0.892747	-0.000105
1507	1.4985e+02	-19.9984	-58.494060	0.000193	1.925545	0.652392	-0.000077
1508	1.4995e+02	-19.9759	-58.457725	0.000091	0.912100	0.309028	0.000037
1509	1.5005e+02	-19.9262	-58.372946	0.000213	2.128233	0.721065	0.000085
1510	1.5015e+02	-19.8780	-58.284129	0.000223	2.229578	0.755401	0.000089
1511	1.5025e+02	-19.8395	-58.280092	0.000010	0.101344	0.034336	0.000004
1512	1.5034e+02	-19.7946	-58.203386	0.000193	1.925545	0.652392	0.000077
1513	1.5044e+02	-19.7690	-58.138792	0.000162	1.621511	0.549383	0.000065
1514	1.5054e+02	-19.7273	-58.037863	0.000253	2.533611	0.858411	0.000101
1515	1.5064e+02	-19.6839	-57.997492	0.000101	1.013445	0.343364	0.000041
1516	1.5074e+02	-19.6486	-57.908675	0.000223	2.229578	0.755401	0.000089
1517	1.5084e+02	-19.6069	-57.860229	0.000122	1.216133	0.412037	0.000049
1518	1.5094e+02	-19.5636	-57.823895	0.000091	0.912100	0.309028	0.000037
1519	1.5104e+02	-19.5283	-57.735078	0.000223	2.229578	0.755401	0.000089
1520	1.5114e+02	-19.4850	-57.630113	0.000263	2.634956	0.892747	0.000105
1521	1.5124e+02	-19.4449	-57.573593	0.000142	1.418822	0.480710	0.000057
1522	1.5134e+02	-19.4096	-57.476702	0.000243	2.432267	0.824074	0.000097
1523	1.5144e+02	-19.3695	-57.436330	0.000101	1.013445	0.343364	0.000041
1524	1.5154e+02	-19.3294	-57.399996	0.000091	0.912100	0.309028	0.000037
1525	1.5164e+02	-19.2861	-57.307142	0.000233	2.330922	0.789738	0.000093
1526	1.5174e+02	-19.2460	-57.222362	0.000213	2.128233	0.721065	0.000085
1527	1.5184e+02	-19.2123	-57.141619	0.000203	2.026889	0.686729	0.000081
1528	1.5194e+02	-19.1690	-57.085099	0.000142	1.418822	0.480710	0.000057
1529	1.5204e+02	-19.1176	-57.040691	0.000111	1.114789	0.377701	0.000045
1530	1.5214e+02	-19.0840	-56.951874	0.000223	2.229578	0.755401	0.000089
1531	1.5224e+02	-19.0503	-56.887280	0.000162	1.621511	0.549383	0.000065
1532	1.5233e+02	-19.0118	-56.782314	0.000263	2.634956	0.892747	0.000105
1533	1.5243e+02	-18.9684	-56.701571	0.000203	2.026889	0.686729	0.000081
1534	1.5253e+02	-18.9283	-56.645052	0.000142	1.418822	0.480710	0.000057
1535	1.5263e+02	-18.8850	-56.604680	0.000101	1.013445	0.343364	0.000041
1536	1.5273e+02	-18.8449	-56.527975	0.000193	1.925545	0.652392	0.000077
1537	1.5283e+02	-18.8096	-56.443195	0.000213	2.128233	0.721065	0.000085
1538	1.5293e+02	-18.7679	-56.322081	0.000304	3.040334	1.030093	0.000122
1539	1.5303e+02	-18.7262	-56.285746	0.000091	0.912100	0.309028	0.000037
1540	1.5313e+02	-18.6845	-56.176744	0.000274	2.736300	0.927084	0.000110
1541	1.5323e+02	-18.6460	-56.136372	0.000101	1.013445	0.343364	0.000041
1542	1.5333e+02	-18.6171	-56.047555	0.000223	2.229578	0.755401	0.000089
1543	1.5343e+02	-18.5754	-55.995073	0.000132	1.317478	0.446374	0.000053
1544	1.5353e+02	-18.5353	-55.938553	0.000142	1.418822	0.480710	0.000057
1545	1.5363e+02	-18.4920	-55.809364	0.000324	3.243022	1.098766	0.000130
1546	1.5373e+02	-18.4503	-55.748807	0.000152	1.520167	0.515046	0.000061
1547	1.5383e+02	-18.4102	-55.716510	0.000081	0.810756	0.274691	0.000032
1548	1.5393e+02	-18.3733	-55.587322	0.000324	3.243022	1.098766	0.000130
1549	1.5403e+02	-18.3316	-55.546951	0.000101	1.013445	0.343364	0.000041
1550	1.5413e+02	-18.2883	-55.446022	0.000253	2.533611	0.858411	0.000101
1551	1.5422e+02	-18.2530	-55.369317	0.000193	1.925545	0.652392	0.000077
1552	1.5432e+02	-18.2064	-55.280500	0.000223	2.229578	0.755401	0.000089
1553	1.5442e+02	-18.1679	-55.203794	0.000193	1.925545	0.652392	0.000077
1554	1.5452e+02	-18.1326	-55.131126	0.000182	1.824200	0.618056	0.000073
1555	1.5462e+02	-18.0845	-55.070569	0.000152	1.520167	0.515046	0.000061
1556	1.5472e+02	-18.0444	-54.969640	0.000253	2.533611	0.858411	0.000101
1557	1.5482e+02	-18.0123	-54.925232	0.000111	1.114789	0.377701	0.000045
1558	1.5492e+02	-17.9786	-54.836415	0.000223	2.229578	0.755401	0.000089
1559	1.5502e+02	-17.9337	-54.751635	0.000213	2.128233	0.721065	0.000085
1560	1.5512e+02	-17.9016	-54.666855	0.000213	2.128233	0.721065	0.000085
1561	1.5522e+02	-17.8503	-54.569964	0.000243	2.432267	0.824074	0.000097
1562	1.5532e+02	-17.8070	-54.529592	0.000101	1.013445	0.343364	0.000041
1563	1.5542e+02	-17.7733	-54.428664	0.000253	2.533611	0.858411	0.000101
1564	1.5552e+02	-17.7396	-54.347921	0.000203	2.026889	0.686729	0.000081
1565	1.5562e+02	-17.6931	-54.263141	0.000213	2.128233	0.721065	0.000085
1566	1.5572e+02	-17.6562	-54.182399	0.000203	2.026889	0.686729	0.000081
1567	1.5582e+02	-17.6193	-54.069359	0.000284	2.837645	0.961420	0.000114
1568	1.5592e+02	-17.5760	-53.996690	0.000182	1.824200	0.618056	0.000073
1569	1.5602e+02	-17.5359	-53.924022	0.000182	1.824200	0.618056	0.000073
1570	1.5612e+02	-17.4910	-53.867502	0.000142	1.418822	0.480710	0.000057
1571	1.5622e+02	-17.4508	-53.762537	0.000263	2.634956	0.892747	0.000105
1572	1.5631e+02	-17.4091	-53.657571	0.000263	2.634956	0.892747	0.000105
1573	1.5641e+02	-17.3754	-53.609125	0.000122	1.216133	0.412037	0.000049
1574	1.5651e+02	-17.3305	-53.536457	0.000182	1.824200	0.618056	0.000073
1575	1.5661e+02	-17.2936	-53.451677	0.000213	2.128233	0.721065	0.000085
1576	1.5671e+02	-17.2535	-53.383046	0.000172	1.722856	0.583719	0.000069
1577	1.5681e+02	-17.2182	-53.274043	0.000274	2.736300	0.927084	0.000110
1578	1.5691e+02	-17.1701	-53.197338	0.000193	1.925545	0.652392	0.000077
1579	1.5701e+02	-17.1332	-53.132743	0.000162	1.621511	0.549383	0.000065
1580	1.5711e+02	-17.0947	-53.043926	0.000223	2.229578	0.755401	0.000089
1581	1.5721e+02	-17.0562	-52.995481	0.000122	1.216133	0.412037	0.000049
1582	1.5731e+02	-17.0113	-52.870330	0.000314	3.141678	1.064429	0.000126
1583	1.5741e+02	-16.9760	-52.801698	0.000172	1.722856	0.583719	0.000069
1584	1.5751e+02	-16.9343	-52.692696	0.000274	2.736300	0.927084	0.000110
1585	1.5761e+02	-16.8958	-52.579656	0.000284	2.837645	0.961420	0.000114
1586	1.5771e+02	-16.8444	-52.579656	0.000000	0.000000	0.000000	0.000000
1587	1.5781e+02	-16.8124	-52.442393	0.000345	3.445711	1.167439	0.000138
1588	1.5791e+02	-16.7674	-52.402022	0.000101	1.013445	0.343364	0.000041
1589	1.5801e+02	-16.7402	-52.325316	0.000193	1.925545	0.652392	0.000077
1590	1.5811e+02	-16.6872	-52.248611	0.000193	1.925545	0.652392	0.000077
1591	1.5821e+02	-16.6535	-52.139608	0.000274	2.736300	0.927084	0.000110
1592	1.5830e+02	-16.6182	-52.058865	0.000203	2.026889	0.686729	0.000081
1593	1.5840e+02	-16.5749	-51.978123	0.000203	2.026889	0.686729	0.000081
1594	1.5850e+02	-16.5380	-51.897380	0.000203	2.026889	0.686729	0.000081
1595	1.5860e+02	-16.4979	-51.812600	0.000213	2.128233	0.721065	0.000085
1596	1.5870e+02	-16.4530	-51.748006	0.000162	1.621511	0.549383	0.000065
1597	1.5880e+02	-16.4161	-51.643040	0.000263	2.634956	0.892747	0.000105
1598	1.5890e+02	-16.3824	-51.566335	0.000193	1.925545	0.652392	0.000077
1599	1.5900e+02	-16.3343	-51.521926	0.000111	1.114789	0.377701	0.000045
1600	1.5910e+02	-16.2958	-51.360441	0.000405	4.053778	1.373457	0.000162
1601	1.5920e+02	-16.2573	-51.299884	0.000152	1.520167	0.515046	0.000061
1602	1.5930e+02	-16.2220	-51.263550	0.000091	0.912100	0.309028	0.000037
1603	1.5940e+02	-16.1771	-51.194918	0.000172	1.722856	0.583719	0.000069
1604	1.5950e+02	-16.1322	-51.057656	0.000345	3.445711	1.167439	0.000138
1605	1.5960e+02	-16.0953	-50.980950	0.000193	1.925545	0.652392	0.000077
1606	1.5970e+02	-16.0616	-50.867910	0.000284	2.837645	0.961420	0.000114
1607	1.5980e+02	-16.0183	-50.803316	0.000162	1.621511	0.549383	0.000065
1608	1.5990e+02	-15.9814	-50.742759	0.000152	1.520167	0.515046	0.000061
1609	1.6000e+02	-15.9348	-50.645868	0.000243	2.432267	0.824074	0.000097
1610	1.6010e+02	-15.8931	-50.565125	0.000203	2.026889	0.686729	0.000081
1611	1.6019e+02	-15.8498	-50.444011	0.000304	3.040334	1.030093	0.000122
1612	1.6029e+02	-15.8161	-50.383454	0.000152	1.520167	0.515046	0.000061
1613	1.6039e+02	-15.7873	-50.290600	0.000233	2.330922	0.789738	0.000093
1614	1.6049e+02	-15.7423	-50.209857	0.000203	2.026889	0.686729	0.000081
1615	1.6059e+02	-15.7022	-50.112966	0.000243	2.432267	0.824074	0.000097
1616	1.6069e+02	-15.6589	-50.072595	0.000101	1.013445	0.343364	0.000041
1617	1.6079e+02	-15.6188	-49.971666	0.000253	2.533611	0.858411	0.000101
1618	1.6089e+02	-15.5803	-49.894961	0.000193	1.925545	0.652392	0.000077
1619	1.6099e+02	-15.5418	-49.802106	0.000233	2.330922	0.789738	0.000093
1620	1.6109e+02	-15.5049	-49.713289	0.000223	2.229578	0.755401	0.000089
1621	1.6119e+02	-15.4696	-49.596213	0.000294	2.938989	0.995756	0.000118
1622	1.6129e+02	-15.4183	-49.519507	0.000193	1.925545	0.652392	0.000077
1623	1.6139e+02	-15.3750	-49.458950	0.000152	1.520167	0.515046	0.000061
1624	1.6149e+02	-15.3461	-49.374170	0.000213	2.128233	0.721065	0.000085
1625	1.6159e+02	-15.3028	-49.293427	0.000203	2.026889	0.686729	0.000081
1626	1.6169e+02	-15.2611	-49.144053	0.000375	3.749745	1.270448	0.000150
1627	1.6179e+02	-15.2322	-49.095608	0.000122	1.216133	0.412037	0.000049
1628	1.6189e+02	-15.1873	-49.035051	0.000152	1.520167	0.515046	0.000061
1629	1.6199e+02	-15.1391	-48.934122	0.000253	2.533611	0.858411	0.000101
1630	1.6209e+02	-15.1022	-48.784748	0.000375	3.749745	1.270448	0.000150
1631	1.6219e+02	-15.0637	-48.740340	0.000111	1.114789	0.377701	0.000045
1632	1.6228e+02	-15.0268	-48.615189	0.000314	3.141678	1.064429	0.000126
1633	1.6238e+02	-14.9787	-48.546557	0.000172	1.722856	0.583719	0.000069
1634	1.6248e+02	-14.9402	-48.465815	0.000203	2.026889	0.686729	0.000081
1635	1.6258e+02	-14.8937	-48.393146	0.000182	1.824200	0.618056	0.000073
1636	1.6268e+02	-14.8712	-48.308366	0.000213	2.128233	0.721065	0.000085
1637	1.6278e+02	-14.8263	-48.191289	0.000294	2.938989	0.995756	0.000118
1638	1.6288e+02	-14.7798	-48.086324	0.000263	2.634956	0.892747	0.000105
1639	1.6298e+02	-14.7381	-48.017692	0.000172	1.722856	0.583719	0.000069
1640	1.6308e+02	-14.7044	-47.940987	0.000193	1.925545	0.652392	0.000077
1641	1.6318e+02	-14.6611	-47.880430	0.000152	1.520167	0.515046	0.000061
1642	1.6328e+02	-14.6226	-47.755279	0.000314	3.141678	1.064429	0.000126
1643	1.6338e+02	-14.5761	-47.630127	0.000314	3.141678	1.064429	0.000126
1644	1.6348e+02	-14.5504	-47.593793	0.000091	0.912100	0.309028	0.000037
1645	1.6358e+02	-14.5119	-47.513051	0.000203	2.026889	0.686729	0.000081
1646	1.6368e+02	-14.4686	-47.383862	0.000324	3.243022	1.098766	0.000130
1647	1.6378e+02	-14.4172	-47.315231	0.000172	1.722856	0.583719	0.000069
1648	1.6388e+02	-14.3787	-47.230451	0.000213	2.128233	0.721065	0.000085
1649	1.6398e+02	-14.3434	-47.121448	0.000274	2.736300	0.927084	0.000110
1650	1.6408e+02	-14.3065	-47.048780	0.000182	1.824200	0.618056	0.000073
1651	1.6418e+02	-14.2664	-46.959963	0.000223	2.229578	0.755401	0.000089
1652	1.6427e+02	-14.2215	-46.859035	0.000253	2.533611	0.858411	0.000101
1653	1.6437e+02	-14.1894	-46.758106	0.000253	2.533611	0.858411	0.000101
1654	1.6447e+02	-14.1525	-46.685438	0.000182	1.824200	0.618056	0.000073
1655	1.6457e+02	-14.1028	-46.612769	0.000182	1.824200	0.618056	0.000073
1656	1.6467e+02	-14.0739	-46.479544	0.000334	3.344367	1.133102	0.000134
1657	1.6477e+02	-14.0290	-46.418987	0.000152	1.520167	0.515046	0.000061
1658	1.6487e+02	-13.9921	-46.330170	0.000223	2.229578	0.755401	0.000089
1659	1.6497e+02	-13.9472	-46.221167	0.000274	2.736300	0.927084	0.000110
1660	1.6507e+02	-13.9087	-46.168684	0.000132	1.317478	0.446374	0.000053
1661	1.6517e+02	-13.8606	-46.055644	0.000284	2.837645	0.961420	0.000114
1662	1.6527e+02	-13.8269	-45.954716	0.000253	2.533611	0.858411	0.000101
1663	1.6537e+02	-13.7964	-45.845713	0.000274	2.736300	0.927084	0.000110
1664	1.6547e+02	-13.7467	-45.760934	0.000213	2.128233	0.721065	0.000085
1665	1.6557e+02	-13.7114	-45.635782	0.000314	3.141678	1.064429	0.000126
1666	1.6567e+02	-13.6649	-45.619634	0.000041	0.405378	0.137346	0.000016
1667	1.6577e+02	-13.6247	-45.462186	0.000395	3.952434	1.339121	0.000158
1668	1.6587e+02	-13.5846	-45.413740	0.000122	1.216133	0.412037	0.000049
1669	1.6597e+02	-13.5542	-45.296663	0.000294	2.938989	0.995756	0.000118
1670	1.6607e+02	-13.5060	-45.211883	0.000213	2.128233	0.721065	0.000085
1671	1.6616e+02	-13.4707	-45.139215	0.000182	1.824200	0.618056	0.000073
1672	1.6626e+02	-13.4178	-45.030212	0.000274	2.736300	0.927084	0.000110
1673	1.6636e+02	-13.3889	-44.921209	0.000274	2.736300	0.927084	0.000110
1674	1.6646e+02	-13.3504	-44.840467	0.000203	2.026889	0.686729	0.000081
1675	1.6656e+02	-13.3039	-44.755687	0.000213	2.128233	0.721065	0.000085
1676	1.6666e+02	-13.2718	-44.634573	0.000304	3.040334	1.030093	0.000122
1677	1.6676e+02	-13.2269	-44.541719	0.000233	2.330922	0.789738	0.000093
1678	1.6686e+02	-13.1916	-44.436753	0.000263	2.634956	0.892747	0.000105
1679	1.6696e+02	-13.1579	-44.339862	0.000243	2.432267	0.824074	0.000097
1680	1.6706e+02	-13.1050	-44.271231	0.000172	1.722856	0.583719	0.000069
1681	1.6716e+02	-13.0649	-44.133968	0.000345	3.445711	1.167439	0.000138
1682	1.6726e+02	-13.0280	-44.057262	0.000193	1.925545	0.652392	0.000077
1683	1.6736e+02	-12.9959	-43.976520	0.000203	2.026889	0.686729	0.000081
1684	1.6746e+02	-12.9462	-43.883665	0.000233	2.330922	0.789738	0.000093
1685	1.6756e+02	-12.9125	-43.762551	0.000304	3.040334	1.030093	0.000122
1686	1.6766e+02	-12.8788	-43.730254	0.000081	0.810756	0.274691	0.000032
1687	1.6776e+02	-12.8274	-43.568769	0.000405	4.053778	1.373457	0.000162
1688	1.6786e+02	-12.7873	-43.483989	0.000213	2.128233	0.721065	0.000085
1689	1.6796e+02	-12.7456	-43.387098	0.000243	2.432267	0.824074	0.000097
1690	1.6806e+02	-12.7135	-43.314429	0.000182	1.824200	0.618056	0.000073
1691	1.6816e+02	-12.6734	-43.209464	0.000263	2.634956	0.892747	0.000105
1692	1.6825e+02	-12.6237	-43.128721	0.000203	2.026889	0.686729	0.000081
1693	1.6835e+02	-12.5820	-42.999533	0.000324	3.243022	1.098766	0.000130
1694	1.6845e+02	-12.5515	-42.951087	0.000122	1.216133	0.412037	0.000049
1695	1.6855e+02	-12.5114	-42.842084	0.000274	2.736300	0.927084	0.000110
1696	1.6865e+02	-12.4681	-42.725008	0.000294	2.938989	0.995756	0.000118
1697	1.6875e+02	-12.4312	-42.644265	0.000203	2.026889	0.686729	0.000081
1698	1.6885e+02	-12.3975	-42.543336	0.000253	2.533611	0.858411	0.000101
1699	1.6895e+02	-12.3590	-42.381851	0.000405	4.053778	1.373457	0.000162
1700	1.6905e+02	-12.3173	-42.333405	0.000122	1.216133	0.412037	0.000049
1701	1.6915e+02	-12.2708	-42.240551	0.000233	2.330922	0.789738	0.000093
1702	1.6925e+02	-12.2323	-42.151734	0.000223	2.229578	0.755401	0.000089
1703	1.6935e+02	-12.1858	-42.046769	0.000263	2.634956	0.892747	0.000105
1704	1.6945e+02	-12.1521	-41.941803	0.000263	2.634956	0.892747	0.000105
1705	1.6955e+02	-12.1120	-41.820689	0.000304	3.040334	1.030093	0.000122
1706	1.6965e+02	-12.0719	-41.756095	0.000162	1.621511	0.549383	0.000065
1707	1.6975e+02	-12.0301	-41.651129	0.000263	2.634956	0.892747	0.000105
1708	1.6985e+02	-11.9852	-41.570387	0.000203	2.026889	0.686729	0.000081
1709	1.6995e+02	-11.9547	-41.473495	0.000243	2.432267	0.824074	0.000097
1710	1.7005e+02	-11.9146	-41.368530	0.000263	2.634956	0.892747	0.000105
1711	1.7015e+02	-11.8713	-41.271639	0.000243	2.432267	0.824074	0.000097
1712	1.7024e+02	-11.8344	-41.162636	0.000274	2.736300	0.927084	0.000110
1713	1.7034e+02	-11.7879	-41.065745	0.000243	2.432267	0.824074	0.000097
1714	1.7044e+02	-11.7558	-40.985002	0.000203	2.026889	0.686729	0.000081
1715	1.7054e+02	-11.7205	-40.871962	0.000284	2.837645	0.961420	0.000114
1716	1.7064e+02	-11.6740	-40.787182	0.000213	2.128233	0.721065	0.000085
1717	1.7074e+02	-11.6323	-40.637808	0.000375	3.749745	1.270448	0.000150
1718	1.7084e+02	-11.6002	-40.597437	0.000101	1.013445	0.343364	0.000041
1719	1.7094e+02	-11.5553	-40.476323	0.000304	3.040334	1.030093	0.000122
1720	1.7104e+02	-11.5184	-40.399617	0.000193	1.925545	0.652392	0.000077
1721	1.7114e+02	-11.4767	-40.286578	0.000284	2.837645	0.961420	0.000114
1722	1.7124e+02	-11.4382	-40.181612	0.000263	2.634956	0.892747	0.000105
1723	1.7134e+02	-11.3997	-40.084721	0.000243	2.432267	0.824074	0.000097
1724	1.7144e+02	-11.3660	-39.987829	0.000243	2.432267	0.824074	0.000097
1725	1.7154e+02	-11.3211	-39.870753	0.000294	2.938989	0.995756	0.000118
1726	1.7164e+02	-11.2745	-39.753676	0.000294	2.938989	0.995756	0.000118
1727	1.7174e+02	-11.2328	-39.668896	0.000213	2.128233	0.721065	0.000085
1728	1.7184e+02	-11.2008	-39.555856	0.000284	2.837645	0.961420	0.000114
1729	1.7194e+02	-11.1574	-39.442816	0.000284	2.837645	0.961420	0.000114
1730	1.7204e+02	-11.1141	-39.366111	0.000193	1.925545	0.652392	0.000077
1731	1.7213e+02	-11.0820	-39.249034	0.000294	2.938989	0.995756	0.000118
1732	1.7223e+02	-11.0419	-39.168291	0.000203	2.026889	0.686729	0.000081
1733	1.7233e+02	-10.9954	-39.075437	0.000233	2.330922	0.789738	0.000093
1734	1.7243e+02	-10.9569	-38.958360	0.000294	2.938989	0.995756	0.000118
1735	1.7253e+02	-10.9232	-38.865506	0.000233	2.330922	0.789738	0.000093
1736	1.7263e+02	-10.8815	-38.760540	0.000263	2.634956	0.892747	0.000105
1737	1.7273e+02	-10.8414	-38.627315	0.000334	3.344367	1.133102	0.000134
1738	1.7283e+02	-10.7885	-38.534461	0.000233	2.330922	0.789738	0.000093
1739	1.7293e+02	-10.7612	-38.473904	0.000152	1.520167	0.515046	0.000061
1740	1.7303e+02	-10.7179	-38.320492	0.000385	3.851089	1.304784	0.000154
1741	1.7313e+02	-10.6810	-38.223601	0.000243	2.432267	0.824074	0.000097
1742	1.7323e+02	-10.6441	-38.122673	0.000253	2.533611	0.858411	0.000101
1743	1.7333e+02	-10.5927	-38.033856	0.000223	2.229578	0.755401	0.000089
1744	1.7343e+02	-10.5607	-37.936965	0.000243	2.432267	0.824074	0.000097
1745	1.7353e+02	-10.5157	-37.799702	0.000345	3.445711	1.167439	0.000138
1746	1.7363e+02	-10.4821	-37.751256	0.000122	1.216133	0.412037	0.000049
1747	1.7373e+02	-10.4371	-37.618031	0.000334	3.344367	1.133102	0.000134
1748	1.7383e+02	-10.4051	-37.472694	0.000365	3.648400	1.236111	0.000146
1749	1.7393e+02	-10.3633	-37.424248	0.000122	1.216133	0.412037	0.000049
1750	1.7403e+02	-10.3168	-37.323320	0.000253	2.533611	0.858411	0.000101
1751	1.7413e+02	-10.2895	-37.226429	0.000243	2.432267	0.824074	0.000097
1752	1.7422e+02	-10.2350	-37.073017	0.000385	3.851089	1.304784	0.000154
1753	1.7432e+02	-10.2013	-36.984200	0.000223	2.229578	0.755401	0.000089
1754	1.7442e+02	-10.1548	-36.883272	0.000253	2.533611	0.858411	0.000101
1755	1.7452e+02	-10.1275	-36.818678	0.000162	1.621511	0.549383	0.000065
1756	1.7462e+02	-10.0794	-36.717750	0.000253	2.533611	0.858411	0.000101
1757	1.7472e+02	-10.0457	-36.556264	0.000405	4.053778	1.373457	0.000162
1758	1.7482e+02	-9.9944	-36.471484	0.000213	2.128233	0.721065	0.000085
1759	1.7492e+02	-9.9607	-36.414964	0.000142	1.418822	0.480710	0.000057
1760	1.7502e+02	-9.9254	-36.305962	0.000274	2.736300	0.927084	0.000110
1761	1.7512e+02	-9.8724	-36.176773	0.000324	3.243022	1.098766	0.000130
1762	1.7522e+02	-9.8468	-36.091993	0.000213	2.128233	0.721065	0.000085
1763	1.7532e+02	-9.8099	-35.950694	0.000355	3.547056	1.201775	0.000142
1764	1.7542e+02	-9.7650	-35.873988	0.000193	1.925545	0.652392	0.000077
1765	1.7552e+02	-9.7265	-35.740763	0.000334	3.344367	1.133102	0.000134
1766	1.7562e+02	-9.6831	-35.643871	0.000243	2.432267	0.824074	0.000097
1767	1.7572e+02	-9.6318	-35.551017	0.000233	2.330922	0.789738	0.000093
1768	1.7582e+02	-9.6094	-35.450089	0.000253	2.533611	0.858411	0.000101
1769	1.7592e+02	-9.5660	-35.320901	0.000324	3.243022	1.098766	0.000130
1770	1.7602e+02	-9.5211	-35.272455	0.000122	1.216133	0.412037	0.000049
1771	1.7612e+02	-9.4810	-35.167489	0.000263	2.634956	0.892747	0.000105
1772	1.7621e+02	-9.4537	-35.058487	0.000274	2.736300	0.927084	0.000110
1773	1.7631e+02	-9.4056	-34.933336	0.000314	3.141678	1.064429	0.000126
1774	1.7641e+02	-9.3591	-34.824333	0.000274	2.736300	0.927084	0.000110
1775	1.7651e+02	-9.3270	-34.711293	0.000284	2.837645	0.961420	0.000114
1776	1.7661e+02	-9.2917	-34.634587	0.000193	1.925545	0.652392	0.000077
1777	1.7671e+02	-9.2420	-34.529622	0.000263	2.634956	0.892747	0.000105
1778	1.7681e+02	-9.2067	-34.404471	0.000314	3.141678	1.064429	0.000126
1779	1.7691e+02	-9.1730	-34.283357	0.000304	3.040334	1.030093	0.000122
1780	1.7701e+02	-9.1169	-34.150131	0.000334	3.344367	1.133102	0.000134
1781	1.7711e+02	-9.0848	-34.093611	0.000142	1.418822	0.480710	0.000057
1782	1.7721e+02	-9.0415	-33.952312	0.000355	3.547056	1.201775	0.000142
1783	1.7731e+02	-9.0062	-33.819086	0.000334	3.344367	1.133102	0.000134
1784	1.7741e+02	-8.9628	-33.754492	0.000162	1.621511	0.549383	0.000065
1785	1.7751e+02	-8.9276	-33.629341	0.000314	3.141678	1.064429	0.000126
1786	1.7761e+02	-8.8826	-33.524375	0.000263	2.634956	0.892747	0.000105
1787	1.7771e+02	-8.8489	-33.370964	0.000385	3.851089	1.304784	0.000154
1788	1.7781e+02	-8.8185	-33.314444	0.000142	1.418822	0.480710	0.000057
1789	1.7791e+02	-8.7735	-33.169107	0.000365	3.648400	1.236111	0.000146
1790	1.7801e+02	-8.7270	-33.084327	0.000213	2.128233	0.721065	0.000085
1791	1.7810e+02	-8.6869	-33.007622	0.000193	1.925545	0.652392	0.000077
1792	1.7820e+02	-8.6516	-32.894582	0.000284	2.837645	0.961420	0.000114
1793	1.7830e+02	-8.6019	-32.797691	0.000243	2.432267	0.824074	0.000097
1794	1.7840e+02	-8.5602	-32.644280	0.000385	3.851089	1.304784	0.000154
1795	1.7850e+02	-8.5233	-32.547388	0.000243	2.432267	0.824074	0.000097
1796	1.7860e+02	-8.4864	-32.462608	0.000213	2.128233	0.721065	0.000085
1797	1.7870e+02	-8.4511	-32.301123	0.000405	4.053778	1.373457	0.000162
1798	1.7880e+02	-8.4046	-32.236529	0.000162	1.621511	0.549383	0.000065
1799	1.7890e+02	-8.3645	-32.075043	0.000405	4.053778	1.373457	0.000162
1800	1.7900e+02	-8.3372	-32.030635	0.000111	1.114789	0.377701	0.000045
1801	1.7910e+02	-8.2827	-31.865112	0.000416	4.155123	1.407794	0.000166
1802	1.7920e+02	-8.2538	-31.776295	0.000223	2.229578	0.755401	0.000089
1803	1.7930e+02	-8.2137	-31.651144	0.000314	3.141678	1.064429	0.000126
1804	1.7940e+02	-8.1768	-31.542142	0.000274	2.736300	0.927084	0.000110
1805	1.7950e+02	-8.1286	-31.457362	0.000213	2.128233	0.721065	0.000085
1806	1.7960e+02	-8.0853	-31.332210	0.000314	3.141678	1.064429	0.000126
1807	1.7970e+02	-8.0549	-31.247431	0.000213	2.128233	0.721065	0.000085
1808	1.7980e+02	-8.0003	-31.114205	0.000334	3.344367	1.133102	0.000134
1809	1.7990e+02	-7.9746	-31.009240	0.000263	2.634956	0.892747	0.000105
1810	1.8000e+02	-7.9185	-30.855828	0.000385	3.851089	1.304784	0.000154
1811	1.8009e+02	-7.8800	-30.815457	0.000101	1.013445	0.343364	0.000041
1812	1.8019e+02	-7.8495	-30.637823	0.000446	4.459156	1.510803	0.000179
1813	1.8029e+02	-7.8110	-30.544969	0.000233	2.330922	0.789738	0.000093
1814	1.8039e+02	-7.7693	-30.419818	0.000314	3.141678	1.064429	0.000126
1815	1.8049e+02	-7.7292	-30.351186	0.000172	1.722856	0.583719	0.000069
1816	1.8059e+02	-7.6955	-30.209887	0.000355	3.547056	1.201775	0.000142
1817	1.8069e+02	-7.6522	-30.096847	0.000284	2.837645	0.961420	0.000114
1818	1.8079e+02	-7.6121	-30.012067	0.000213	2.128233	0.721065	0.000085
1819	1.8089e+02	-7.5720	-29.870767	0.000355	3.547056	1.201775	0.000142
1820	1.8099e+02	-7.5303	-29.757728	0.000284	2.837645	0.961420	0.000114
1821	1.8109e+02	-7.4886	-29.640651	0.000294	2.938989	0.995756	0.000118
1822	1.8119e+02	-7.4517	-29.551834	0.000223	2.229578	0.755401	0.000089
1823	1.8129e+02	-7.4067	-29.434757	0.000294	2.938989	0.995756	0.000118
1824	1.8139e+02	-7.3714	-29.309605	0.000314	3.141678	1.064429	0.000126
1825	1.8149e+02	-7.3265	-29.224826	0.000213	2.128233	0.721065	0.000085
1826	1.8159e+02	-7.2928	-29.083526	0.000355	3.547056	1.201775	0.000142
1827	1.8169e+02	-7.2543	-28.974523	0.000274	2.736300	0.927084	0.000110
1828	1.8179e+02	-7.2046	-28.853409	0.000304	3.040334	1.030093	0.000122
1829	1.8189e+02	-7.1741	-28.744406	0.000274	2.736300	0.927084	0.000110
1830	1.8199e+02	-7.1372	-28.635404	0.000274	2.736300	0.927084	0.000110
1831	1.8209e+02	-7.0923	-28.514290	0.000304	3.040334	1.030093	0.000122
1832	1.8218e+02	-7.0538	-28.401250	0.000284	2.837645	0.961420	0.000114
1833	1.8228e+02	-7.0057	-28.259950	0.000355	3.547056	1.201775	0.000142
1834	1.8238e+02	-6.9768	-28.146910	0.000284	2.837645	0.961420	0.000114
1835	1.8248e+02	-6.9271	-28.037908	0.000274	2.736300	0.927084	0.000110
1836	1.8258e+02	-6.8950	-27.945054	0.000233	2.330922	0.789738	0.000093
1837	1.8268e+02	-6.8421	-27.807791	0.000345	3.445711	1.167439	0.000138
1838	1.8278e+02	-6.8148	-27.654380	0.000385	3.851089	1.304784	0.000154
1839	1.8288e+02	-6.7795	-27.549414	0.000263	2.634956	0.892747	0.000105
1840	1.8298e+02	-6.7394	-27.440412	0.000274	2.736300	0.927084	0.000110
1841	1.8308e+02	-6.6880	-27.287000	0.000385	3.851089	1.304784	0.000154
1842	1.8318e+02	-6.6479	-27.234518	0.000132	1.317478	0.446374	0.000053
1843	1.8328e+02	-6.6126	-27.060921	0.000436	4.357811	1.476466	0.000174
1844	1.8338e+02	-6.5790	-26.939807	0.000304	3.040334	1.030093	0.000122
1845	1.8348e+02	-6.5324	-26.867138	0.000182	1.824200	0.618056	0.000073
1846	1.8358e+02	-6.4987	-26.705653	0.000405	4.053778	1.373457	0.000162
1847	1.8368e+02	-6.4602	-26.600687	0.000263	2.634956	0.892747	0.000105
1848	1.8378e+02	-6.4201	-26.491685	0.000274	2.736300	0.927084	0.000110
1849	1.8388e+02	-6.3816	-26.378645	0.000284	2.837645	0.961420	0.000114
1850	1.8398e+02	-6.3335	-26.237345	0.000355	3.547056	1.201775	0.000142
1851	1.8407e+02	-6.2934	-26.140454	0.000243	2.432267	0.824074	0.000097
1852	1.8417e+02	-6.2597	-26.043563	0.000243	2.432267	0.824074	0.000097
1853	1.8427e+02	-6.2116	-25.926486	0.000294	2.938989	0.995756	0.000118
1854	1.8437e+02	-6.1779	-25.789223	0.000345	3.445711	1.167439	0.000138
1855	1.8447e+02	-6.1442	-25.623701	0.000416	4.155123	1.407794	0.000166
1856	1.8457e+02	-6.0993	-25.530846	0.000233	2.330922	0.789738	0.000093
1857	1.8467e+02	-6.0496	-25.433955	0.000243	2.432267	0.824074	0.000097
1858	1.8477e+02	-6.0271	-25.292655	0.000355	3.547056	1.201775	0.000142
1859	1.8487e+02	-5.9822	-25.167504	0.000314	3.141678	1.064429	0.000126
1860	1.8497e+02	-5.9469	-25.038316	0.000324	3.243022	1.098766	0.000130
1861	1.8507e+02	-5.9020	-24.933350	0.000263	2.634956	0.892747	0.000105
1862	1.8517e+02	-5.8538	-24.816273	0.000294	2.938989	0.995756	0.000118
1863	1.8527e+02	-5.8105	-24.650751	0.000416	4.155123	1.407794	0.000166
1864	1.8537e+02	-5.7817	-24.545785	0.000263	2.634956	0.892747	0.000105
1865	1.8547e+02	-5.7367	-24.469080	0.000193	1.925545	0.652392	0.000077
1866	1.8557e+02	-5.7111	-24.307594	0.000405	4.053778	1.373457	0.000162
1867	1.8567e+02	-5.6597	-24.158220	0.000375	3.749745	1.270448	0.000150
1868	1.8577e+02	-5.6196	-24.061329	0.000243	2.432267	0.824074	0.000097
1869	1.8587e+02	-5.5859	-23.928104	0.000334	3.344367	1.133102	0.000134
1870	1.8597e+02	-5.5410	-23.819101	0.000274	2.736300	0.927084	0.000110
1871	1.8606e+02	-5.4977	-23.702024	0.000294	2.938989	0.995756	0.000118
1872	1.8616e+02	-5.4640	-23.548613	0.000385	3.851089	1.304784	0.000154
1873	1.8626e+02	-5.4255	-23.463833	0.000213	2.128233	0.721065	0.000085
1874	1.8636e+02	-5.3838	-23.278125	0.000466	4.661845	1.579476	0.000187
1875	1.8646e+02	-5.3421	-23.221605	0.000142	1.418822	0.480710	0.000057
1876	1.8656e+02	-5.2972	-23.056082	0.000416	4.155123	1.407794	0.000166
1877	1.8666e+02	-5.2715	-22.934968	0.000304	3.040334	1.030093	0.000122
1878	1.8676e+02	-5.2202	-22.813854	0.000304	3.040334	1.030093	0.000122
1879	1.8686e+02	-5.1833	-22.700814	0.000284	2.837645	0.961420	0.000114
1880	1.8696e+02	-5.1416	-22.611997	0.000223	2.229578	0.755401	0.000089
1881	1.8706e+02	-5.1079	-22.450512	0.000405	4.053778	1.373457	0.000162
1882	1.8716e+02	-5.0614	-22.349583	0.000253	2.533611	0.858411	0.000101
1883	1.8726e+02	-5.0229	-22.208284	0.000355	3.547056	1.201775	0.000142
1884	1.8736e+02	-4.9811	-22.038724	0.000426	4.256467	1.442130	0.000170
1885	1.8746e+02	-4.9330	-21.982204	0.000142	1.418822	0.480710	0.000057
1886	1.8756e+02	-4.9041	-21.832830	0.000375	3.749745	1.270448	0.000150
1887	1.8766e+02	-4.8721	-21.703642	0.000324	3.243022	1.098766	0.000130
1888	1.8776e+02	-4.8223	-21.606750	0.000243	2.432267	0.824074	0.000097
1889	1.8786e+02	-4.7742	-21.421042	0.000466	4.661845	1.579476	0.000187
1890	1.8796e+02	-4.7421	-21.324151	0.000243	2.432267	0.824074	0.000097
1891	1.8806e+02	-4.7052	-21.162666	0.000405	4.053778	1.373457	0.000162
1892	1.8815e+02	-4.6555	-21.089997	0.000182	1.824200	0.618056	0.000073
1893	1.8825e+02	-4.6282	-20.993106	0.000243	2.432267	0.824074	0.000097
1894	1.8835e+02	-4.5897	-20.795286	0.000497	4.965878	1.682485	0.000199
1895	1.8845e+02	-4.5464	-20.682246	0.000284	2.837645	0.961420	0.000114
1896	1.8855e+02	-4.5111	-20.561132	0.000304	3.040334	1.030093	0.000122
1897	1.8865e+02	-4.4662	-20.423870	0.000345	3.445711	1.167439	0.000138
1898	1.8875e+02	-4.4293	-20.278533	0.000365	3.648400	1.236111	0.000146
1899	1.8885e+02	-4.3876	-20.165493	0.000284	2.837645	0.961420	0.000114
1900	1.8895e+02	-4.3571	-20.012082	0.000385	3.851089	1.304784	0.000154
1901	1.8905e+02	-4.3042	-19.903079	0.000274	2.736300	0.927084	0.000110
1902	1.8915e+02	-4.2689	-19.773891	0.000324	3.243022	1.098766	0.000130
1903	1.8925e+02	-4.2304	-19.616443	0.000395	3.952434	1.339121	0.000158
1904	1.8935e+02	-4.1870	-19.487254	0.000324	3.243022	1.098766	0.000130
1905	1.8945e+02	-4.1389	-19.398437	0.000223	2.229578	0.755401	0.000089
1906	1.8955e+02	-4.1133	-19.204655	0.000486	4.864534	1.648149	0.000195
1907	1.8965e+02	-4.0683	-19.119875	0.000213	2.128233	0.721065	0.000085
1908	1.8975e+02	-4.0298	-18.994724	0.000314	3.141678	1.064429	0.000126
1909	1.8985e+02	-3.9817	-18.809015	0.000466	4.661845	1.579476	0.000187
1910	1.8995e+02	-3.9464	-18.675790	0.000334	3.344367	1.133102	0.000134
1911	1.9004e+02	-3.9063	-18.570824	0.000263	2.634956	0.892747	0.000105
1912	1.9014e+02	-3.8646	-18.441636	0.000324	3.243022	1.098766	0.000130
1913	1.9024e+02	-3.8357	-18.284188	0.000395	3.952434	1.339121	0.000158
1914	1.9034e+02	-3.7908	-18.142888	0.000355	3.547056	1.201775	0.000142
1915	1.9044e+02	-3.7523	-18.017737	0.000314	3.141678	1.064429	0.000126
1916	1.9054e+02	-3.7042	-17.908734	0.000274	2.736300	0.927084	0.000110
1917	1.9064e+02	-3.6593	-17.751286	0.000395	3.952434	1.339121	0.000158
1918	1.9074e+02	-3.6208	-17.618060	0.000334	3.344367	1.133102	0.000134
1919	1.9084e+02	-3.5806	-17.529243	0.000223	2.229578	0.755401	0.000089
1920	1.9094e+02	-3.5470	-17.371795	0.000395	3.952434	1.339121	0.000158
1921	1.9104e+02	-3.5117	-17.222421	0.000375	3.749745	1.270448	0.000150
1922	1.9114e+02	-3.4684	-17.105344	0.000294	2.938989	0.995756	0.000118
1923	1.9124e+02	-3.4138	-17.012490	0.000233	2.330922	0.789738	0.000093
1924	1.9134e+02	-3.3913	-16.838893	0.000436	4.357811	1.476466	0.000174
1925	1.9144e+02	-3.3464	-16.701631	0.000345	3.445711	1.167439	0.000138
1926	1.9154e+02	-3.3031	-16.592628	0.000274	2.736300	0.927084	0.000110
1927	1.9164e+02	-3.2646	-16.443254	0.000375	3.749745	1.270448	0.000150
1928	1.9174e+02	-3.2277	-16.293880	0.000375	3.749745	1.270448	0.000150
1929	1.9184e+02	-3.1940	-16.213137	0.000203	2.026889	0.686729	0.000081
1930	1.9194e+02	-3.1475	-16.059726	0.000385	3.851089	1.304784	0.000154
1931	1.9203e+02	-3.1122	-15.914389	0.000365	3.648400	1.236111	0.000146
1932	1.9213e+02	-3.0705	-15.760978	0.000385	3.851089	1.304784	0.000154
1933	1.9223e+02	-3.0416	-15.619678	0.000355	3.547056	1.201775	0.000142
1934	1.9233e+02	-2.9887	-15.478378	0.000355	3.547056	1.201775	0.000142
1935	1.9243e+02	-2.9566	-15.369376	0.000274	2.736300	0.927084	0.000110
1936	1.9253e+02	-2.9069	-15.207890	0.000405	4.053778	1.373457	0.000162
1937	1.9263e+02	-2.8603	-15.038331	0.000426	4.256467	1.442130	0.000170
1938	1.9273e+02	-2.8363	-14.929328	0.000274	2.736300	0.927084	0.000110
1939	1.9283e+02	-2.7849	-14.763805	0.000416	4.155123	1.407794	0.000166
1940	1.9293e+02	-2.7593	-14.650766	0.000284	2.837645	0.961420	0.000114
1941	1.9303e+02	-2.7128	-14.529652	0.000304	3.040334	1.030093	0.000122
1942	1.9313e+02	-2.6710	-14.352018	0.000446	4.459156	1.510803	0.000179
1943	1.9323e+02	-2.6229	-14.230903	0.000304	3.040334	1.030093	0.000122
1944	1.9333e+02	-2.5908	-14.097678	0.000334	3.344367	1.133102	0.000134
1945	1.9343e+02	-2.5539	-13.928118	0.000426	4.256467	1.442130	0.000170
1946	1.9353e+02	-2.5026	-13.802967	0.000314	3.141678	1.064429	0.000126
1947	1.9363e+02	-2.4785	-13.641482	0.000405	4.053778	1.373457	0.000162
1948	1.9373e+02	-2.4320	-13.548628	0.000233	2.330922	0.789738	0.000093
1949	1.9383e+02	-2.3935	-13.375031	0.000436	4.357811	1.476466	0.000174
1950	1.9393e+02	-2.3454	-13.241805	0.000334	3.344367	1.133102	0.000134
1951	1.9403e+02	-2.3197	-13.108580	0.000334	3.344367	1.133102	0.000134
1952	1.9412e+02	-2.2668	-12.979391	0.000324	3.243022	1.098766	0.000130
1953	1.9422e+02	-2.2299	-12.797720	0.000456	4.560500	1.545139	0.000183
1954	1.9432e+02	-2.1882	-12.620086	0.000446	4.459156	1.510803	0.000179
1955	1.9442e+02	-2.1481	-12.543381	0.000193	1.925545	0.652392	0.000077
1956	1.9452e+02	-2.1144	-12.373821	0.000426	4.256467	1.442130	0.000170
1957	1.9462e+02	-2.0646	-12.220410	0.000385	3.851089	1.304784	0.000154
1958	1.9472e+02	-2.0374	-12.111407	0.000274	2.736300	0.927084	0.000110
1959	1.9482e+02	-1.9925	-11.925699	0.000466	4.661845	1.579476	0.000187
1960	1.9492e+02	-1.9524	-11.784399	0.000355	3.547056	1.201775	0.000142
1961	1.9502e+02	-1.9155	-11.651174	0.000334	3.344367	1.133102	0.000134
1962	1.9512e+02	-1.8737	-11.489688	0.000405	4.053778	1.373457	0.000162
1963	1.9522e+02	-1.8304	-11.356463	0.000334	3.344367	1.133102	0.000134
1964	1.9532e+02	-1.7839	-11.178829	0.000446	4.459156	1.510803	0.000179
1965	1.9542e+02	-1.7502	-11.041566	0.000345	3.445711	1.167439	0.000138
1966	1.9552e+02	-1.7117	-10.896229	0.000365	3.648400	1.236111	0.000146
1967	1.9562e+02	-1.6764	-10.754930	0.000355	3.547056	1.201775	0.000142
1968	1.9572e+02	-1.6379	-10.601518	0.000385	3.851089	1.304784	0.000154
1969	1.9582e+02	-1.5914	-10.464256	0.000345	3.445711	1.167439	0.000138
1970	1.9592e+02	-1.5545	-10.335067	0.000324	3.243022	1.098766	0.000130
1971	1.9601e+02	-1.5192	-10.129174	0.000517	5.168567	1.751158	0.000207
1972	1.9611e+02	-1.4727	-9.979800	0.000375	3.749745	1.270448	0.000150
1973	1.9621e+02	-1.4342	-9.882908	0.000243	2.432267	0.824074	0.000097
1974	1.9631e+02	-1.3957	-9.713349	0.000426	4.256467	1.442130	0.000170
1975	1.9641e+02	-1.3620	-9.551863	0.000405	4.053778	1.373457	0.000162
1976	1.9651e+02	-1.3155	-9.394415	0.000395	3.952434	1.339121	0.000158
1977	1.9661e+02	-1.2850	-9.232929	0.000405	4.053778	1.373457	0.000162
1978	1.9671e+02	-1.2481	-9.115852	0.000294	2.938989	0.995756	0.000118
1979	1.9681e+02	-1.2000	-8.974553	0.000355	3.547056	1.201775	0.000142
1980	1.9691e+02	-1.1567	-8.760585	0.000537	5.371256	1.819831	0.000215
1981	1.9701e+02	-1.1182	-8.659656	0.000253	2.533611	0.858411	0.000101
1982	1.9711e+02	-1.0764	-8.498171	0.000405	4.053778	1.373457	0.000162
1983	1.9721e+02	-1.0395	-8.360908	0.000345	3.445711	1.167439	0.000138
1984	1.9731e+02	-0.9930	-8.155014	0.000517	5.168567	1.751158	0.000207
1985	1.9741e+02	-0.9545	-8.029863	0.000314	3.141678	1.064429	0.000126
1986	1.9751e+02	-0.9176	-7.892600	0.000345	3.445711	1.167439	0.000138
1987	1.9761e+02	-0.8727	-7.698818	0.000486	4.864534	1.648149	0.000195
1988	1.9771e+02	-0.8310	-7.585778	0.000284	2.837645	0.961420	0.000114
1989	1.9781e+02	-0.7973	-7.408144	0.000446	4.459156	1.510803	0.000179
1990	1.9791e+02	-0.7652	-7.234547	0.000436	4.357811	1.476466	0.000174
1991	1.9800e+02	-0.7155	-7.060950	0.000436	4.357811	1.476466	0.000174
1992	1.9810e+02	-0.6850	-6.943873	0.000294	2.938989	0.995756	0.000118
1993	1.9820e+02	-0.6369	-6.810648	0.000334	3.344367	1.133102	0.000134
1994	1.9830e+02	-0.6032	-6.653200	0.000395	3.952434	1.339121	0.000158
1995	1.9840e+02	-0.5647	-6.439232	0.000537	5.371256	1.819831	0.000215
1996	1.9850e+02	-0.5134	-6.342340	0.000243	2.432267	0.824074	0.000097
1997	1.9860e+02	-0.4732	-6.184892	0.000395	3.952434	1.339121	0.000158
1998	1.9870e+02	-0.4428	-6.003221	0.000456	4.560500	1.545139	0.000183
1999	1.9880e+02	-0.4011	-5.817513	0.000466	4.661845	1.579476	0.000187
2000	1.9890e+02	-0.3577	-5.664101	0.000385	3.851089	1.304784	0.000154
2001	1.9900e+02	-0.3096	-5.547025	0.000294	2.938989	0.995756	0.000118
2002	1.9910e+02	-0.2807	-5.389576	0.000395	3.952434	1.339121	0.000158
2003	1.9920e+02	-0.2374	-5.215979	0.000436	4.357811	1.476466	0.000174
2004	1.9930e+02	-0.1989	-5.038345	0.000446	4.459156	1.510803	0.000179
2005	1.9940e+02	-0.1572	-4.880897	0.000395	3.952434	1.339121	0.000158
2006	1.9950e+02	-0.1299	-4.747672	0.000334	3.344367	1.133102	0.000134
2007	1.9960e+02	-0.0754	-4.574075	0.000436	4.357811	1.476466	0.000174
2008	1.9970e+02	-0.0449	-4.408552	0.000416	4.155123	1.407794	0.000166
2009	1.9980e+02	0.0016	-4.226881	0.000416	4.155123	1.407794	0.000183

Center data before PMax,+/-Pr and +/-Vc Calc.

PMax (uC/cm2):	5.85e+01
Pr (uC/cm2):	1.33e+00
-Pr (uC/cm2):	-4.23e+00
PLoss (uC/cm2):	-1.59e+00
Vc:	7.09e-01
-Vc:	-3.25e-01
C (Max-Eff) (nF):	2.92e-01
K (Eff):	9.91e+02
Vert. (+/-Pr) Shift (uC/cm2):	-1.45e+00
Horiz. Shift (+/-Vc):	1.92e-01
Offset (uC/cm2):	2.65e+00

A (Loop Area - uC/cm2·Volts):	3.28e-02



Hysteresis Version: 5.48.1 - Radiant Technologies, Inc., 1999 - 9/12/24

