»»»»»»»»»»»»»»»»»»»»»»»»»»»»»»»»»»»» Hysteresis ««««««««««««««««««««««««««««««««««««
»»»  Executed Version:	5.48.1
»»»  Vision Version:	5.48.4 (R)
»»»  Vision Compiled:	9/18/24
»»»  Driver Version:	5.47.0
»»»  Windows Version:	Windows 8 or 8.1
»»»  Processor Information:	x86 (AMD or Intel) - 32 Processors
»»»  Tester Name:	PMF21124-494 (100V)
»»»  Tester S/N:	PMF21124-494
»»»  Internal Amp Type:	100V RevK 270k
»»»  Internal Amp S/N:	iAB2-596/K     
»»»  Execution Count:	1
»»»»»»»»»»»»»»»»»»»»»»»»»»»»»»»»»»»»»»»»»»««««««««««««««««««««««««««««««««««««««««««

Stored:	6/13/2025 - 11:25:24
Configured:	06/13/25 10:12:58 AM
Executed:	06/13/25 11:24:40 AM

»»»»»»»»»»»»»»»»»»»»»»»»»»»»»»»»»»» Sample Info ««««««««««««««««««««««««««««««««««««
Sample Name:	
Lot Name:	
Wafer Name:	
Die Row/Column:	0/0
Capacitor Number:	0
Sample Area (cm2):	1.00e-04
Sample Thickness (microns):	3.00e-01

Amplifier:	Internal

»»»»»»»»»»»»»»»»»»»»»»»»»»»»»»»»»»» Tester Info «««««««««««««««««««««««««««««««««««
Tester Name:	PMF21124-494 (100V)
Tester Serial Number:	PMF21124-494
Return Signal Amp. Level:	0.19 [Index: 3]

»»»»»»»»»»»»»»»»»»»»»»»»»»»»»»»» Hysteresis Info ««««««««««««««««««««««««««««««««««
Task Name:	Hyst-1704
Volts:	20.00
Field:	666.67 (kV/cm)
DCBias:	0.00
DCField:	0.00 (kV/cm)
Hysteresis Period (ms):	2.00e+02
Preset:	Enabled
Preset Delay (ms):	1.00e+03
Profile:	Standard Bipolar

»»»»»»»»»»»»»»»»»»»»»»»»»»»»»»»»»»»»»» Data «««««««««««««««««««««««««««««««««««««««
Points:	2009

Valid Data

Point	Time (ms)	Drive Voltage	Measured Polarization (uC/cm2)	Capacitance (uF)	Normalized Capacitance (uF/cm2)	Dielectric Constant	Instantaneous Current (mA)
   1	0.0000e+00	0.0032	-0.859910	0.000456	4.560866	1.545263	0.000183
   2	9.9500e-02	0.0321	-0.678239	0.000456	4.560866	1.545263	0.000183
   3	1.9900e-01	0.0754	-0.496568	0.000456	4.560866	1.545263	0.000183
   4	2.9850e-01	0.1059	-0.347194	0.000375	3.750046	1.270550	0.000150
   5	3.9800e-01	0.1556	-0.072668	0.000689	6.891976	2.335065	0.000276
   6	4.9750e-01	0.2037	0.129188	0.000507	5.067629	1.716959	0.000203
   7	5.9700e-01	0.2278	0.282600	0.000385	3.851398	1.304889	0.000154
   8	6.9650e-01	0.2631	0.512716	0.000578	5.777097	1.957334	0.000231
   9	7.9600e-01	0.3112	0.730722	0.000547	5.473039	1.854316	0.000219
  10	8.9550e-01	0.3497	0.904318	0.000436	4.358161	1.476585	0.000174
  11	9.9500e-01	0.3930	1.118287	0.000537	5.371687	1.819977	0.000215
  12	1.0945e+00	0.4428	1.312069	0.000486	4.864924	1.648281	0.000195
  13	1.1940e+00	0.4716	1.530074	0.000547	5.473039	1.854316	0.000219
  14	1.2935e+00	0.5150	1.711746	0.000456	4.560866	1.545263	0.000183
  15	1.3930e+00	0.5390	1.929751	0.000547	5.473039	1.854316	0.000219
  16	1.4925e+00	0.5920	2.151793	0.000557	5.574392	1.888655	0.000223
  17	1.5920e+00	0.6401	2.365762	0.000537	5.371687	1.819977	0.000215
  18	1.6915e+00	0.6690	2.551470	0.000466	4.662219	1.579602	0.000187
  19	1.7910e+00	0.7123	2.733141	0.000456	4.560866	1.545263	0.000183
  20	1.8905e+00	0.7428	2.955183	0.000557	5.574392	1.888655	0.000223
  21	1.9900e+00	0.7925	3.148966	0.000486	4.864924	1.648281	0.000195
  22	2.0895e+00	0.8390	3.362934	0.000537	5.371687	1.819977	0.000215
  23	2.1890e+00	0.8679	3.589014	0.000568	5.675745	1.922994	0.000227
  24	2.2885e+00	0.9128	3.774722	0.000466	4.662219	1.579602	0.000187
  25	2.3880e+00	0.9417	4.008876	0.000588	5.878450	1.991673	0.000235
  26	2.4875e+00	1.0010	4.190547	0.000456	4.560866	1.545263	0.000183
  27	2.5870e+00	1.0203	4.392404	0.000507	5.067629	1.716959	0.000203
  28	2.6865e+00	1.0620	4.553889	0.000405	4.054103	1.373567	0.000162
  29	2.7860e+00	1.1149	4.759783	0.000517	5.168982	1.751298	0.000207
  30	2.8855e+00	1.1567	5.014123	0.000639	6.385213	2.163369	0.000256
  31	2.9850e+00	1.1871	5.211942	0.000497	4.966277	1.682620	0.000199
  32	3.0845e+00	1.2272	5.393613	0.000456	4.560866	1.545263	0.000183
  33	3.1840e+00	1.2802	5.607582	0.000537	5.371687	1.819977	0.000215
  34	3.2835e+00	1.3058	5.801364	0.000486	4.864924	1.648281	0.000195
  35	3.3830e+00	1.3492	6.011295	0.000527	5.270334	1.785638	0.000211
  36	3.4825e+00	1.3893	6.180855	0.000426	4.256808	1.442246	0.000170
  37	3.5820e+00	1.4278	6.410972	0.000578	5.777097	1.957334	0.000231
  38	3.6815e+00	1.4759	6.608791	0.000497	4.966277	1.682620	0.000199
  39	3.7810e+00	1.5016	6.810648	0.000507	5.067629	1.716959	0.000203
  40	3.8805e+00	1.5433	7.028653	0.000547	5.473039	1.854316	0.000219
  41	3.9800e+00	1.6010	7.202250	0.000436	4.358161	1.476585	0.000174
  42	4.0795e+00	1.6251	7.412181	0.000527	5.270334	1.785638	0.000211
  43	4.1790e+00	1.6604	7.597889	0.000466	4.662219	1.579602	0.000187
  44	4.2785e+00	1.7005	7.811858	0.000537	5.371687	1.819977	0.000215
  45	4.3780e+00	1.7470	8.046012	0.000588	5.878450	1.991673	0.000235
  46	4.4775e+00	1.7887	8.231720	0.000466	4.662219	1.579602	0.000187
  47	4.5770e+00	1.8304	8.397242	0.000416	4.155456	1.407907	0.000166
  48	4.6765e+00	1.8673	8.599099	0.000507	5.067629	1.716959	0.000203
  49	4.7760e+00	1.9010	8.809030	0.000527	5.270334	1.785638	0.000211
  50	4.8755e+00	1.9475	9.022998	0.000537	5.371687	1.819977	0.000215
  51	4.9750e+00	1.9828	9.241004	0.000547	5.473039	1.854316	0.000219
  52	5.0745e+00	2.0342	9.414601	0.000436	4.358161	1.476585	0.000174
  53	5.1740e+00	2.0663	9.644717	0.000578	5.777097	1.957334	0.000231
  54	5.2735e+00	2.0967	9.761794	0.000294	2.939225	0.995836	0.000118
  55	5.3730e+00	2.1368	10.024208	0.000659	6.587918	2.232047	0.000264
  56	5.4725e+00	2.1930	10.189731	0.000416	4.155456	1.407907	0.000166
  57	5.5720e+00	2.2363	10.395625	0.000517	5.168982	1.751298	0.000207
  58	5.6715e+00	2.2652	10.621704	0.000568	5.675745	1.922994	0.000227
  59	5.7710e+00	2.3069	10.811450	0.000476	4.763571	1.613942	0.000191
  60	5.8705e+00	2.3454	10.989083	0.000446	4.459514	1.510924	0.000179
  61	5.9700e+00	2.3871	11.158643	0.000426	4.256808	1.442246	0.000170
  62	6.0695e+00	2.4272	11.372611	0.000537	5.371687	1.819977	0.000215
  63	6.1690e+00	2.4625	11.554282	0.000456	4.560866	1.545263	0.000183
  64	6.2685e+00	2.5154	11.760176	0.000517	5.168982	1.751298	0.000207
  65	6.3680e+00	2.5507	11.970107	0.000527	5.270334	1.785638	0.000211
  66	6.4675e+00	2.5812	12.151779	0.000456	4.560866	1.545263	0.000183
  67	6.5670e+00	2.6261	12.329413	0.000446	4.459514	1.510924	0.000179
  68	6.6665e+00	2.6678	12.567604	0.000598	5.979802	2.026012	0.000239
  69	6.7660e+00	2.7079	12.753312	0.000466	4.662219	1.579602	0.000187
  70	6.8655e+00	2.7432	12.959206	0.000517	5.168982	1.751298	0.000207
  71	6.9650e+00	2.7882	13.132803	0.000436	4.358161	1.476585	0.000174
  72	7.0645e+00	2.8186	13.306399	0.000436	4.358161	1.476585	0.000174
  73	7.1640e+00	2.8684	13.492108	0.000466	4.662219	1.579602	0.000187
  74	7.2635e+00	2.9021	13.677816	0.000466	4.662219	1.579602	0.000187
  75	7.3630e+00	2.9486	13.867561	0.000476	4.763571	1.613942	0.000191
  76	7.4625e+00	2.9823	14.073455	0.000517	5.168982	1.751298	0.000207
  77	7.5620e+00	3.0144	14.238978	0.000416	4.155456	1.407907	0.000166
  78	7.6615e+00	3.0625	14.408537	0.000426	4.256808	1.442246	0.000170
  79	7.7610e+00	3.1010	14.610394	0.000507	5.067629	1.716959	0.000203
  80	7.8605e+00	3.1459	14.832437	0.000557	5.574392	1.888655	0.000223
  81	7.9600e+00	3.1828	14.993922	0.000405	4.054103	1.373567	0.000162
  82	8.0595e+00	3.2213	15.167519	0.000436	4.358161	1.476585	0.000174
  83	8.1590e+00	3.2614	15.389561	0.000557	5.574392	1.888655	0.000223
  84	8.2585e+00	3.2967	15.571233	0.000456	4.560866	1.545263	0.000183
  85	8.3580e+00	3.3400	15.756941	0.000466	4.662219	1.579602	0.000187
  86	8.4575e+00	3.3769	15.894203	0.000345	3.445988	1.167532	0.000138
  87	8.5570e+00	3.4186	16.096060	0.000507	5.067629	1.716959	0.000203
  88	8.6565e+00	3.4523	16.330214	0.000588	5.878450	1.991673	0.000235
  89	8.7560e+00	3.5052	16.499774	0.000426	4.256808	1.442246	0.000170
  90	8.8555e+00	3.5405	16.653185	0.000385	3.851398	1.304889	0.000154
  91	8.9550e+00	3.5839	16.814670	0.000405	4.054103	1.373567	0.000162
  92	9.0545e+00	3.6240	17.020564	0.000517	5.168982	1.751298	0.000207
  93	9.1540e+00	3.6560	17.250681	0.000578	5.777097	1.957334	0.000231
  94	9.2535e+00	3.7058	17.379869	0.000324	3.243283	1.098854	0.000130
  95	9.3530e+00	3.7395	17.585763	0.000517	5.168982	1.751298	0.000207
  96	9.4525e+00	3.7828	17.755323	0.000426	4.256808	1.442246	0.000170
  97	9.5520e+00	3.8117	17.957180	0.000507	5.067629	1.716959	0.000203
  98	9.6515e+00	3.8566	18.126739	0.000426	4.256808	1.442246	0.000170
  99	9.7510e+00	3.8983	18.292262	0.000416	4.155456	1.407907	0.000166
 100	9.8505e+00	3.9400	18.506230	0.000537	5.371687	1.819977	0.000215
 101	9.9500e+00	3.9705	18.671753	0.000416	4.155456	1.407907	0.000166
 102	1.0050e+01	4.0186	18.849387	0.000446	4.459514	1.510924	0.000179
 103	1.0149e+01	4.0523	19.043169	0.000486	4.864924	1.648281	0.000195
 104	1.0248e+01	4.0988	19.220803	0.000446	4.459514	1.510924	0.000179
 105	1.0348e+01	4.1405	19.442846	0.000557	5.574392	1.888655	0.000223
 106	1.0447e+01	4.1790	19.592220	0.000375	3.750046	1.270550	0.000150
 107	1.0547e+01	4.2191	19.769854	0.000446	4.459514	1.510924	0.000179
 108	1.0646e+01	4.2673	19.890968	0.000304	3.040577	1.030176	0.000122
 109	1.0746e+01	4.2977	20.129159	0.000598	5.979802	2.026012	0.000239
 110	1.0845e+01	4.3539	20.286607	0.000395	3.952751	1.339228	0.000158
 111	1.0945e+01	4.3844	20.431944	0.000365	3.648693	1.236211	0.000146
 112	1.1044e+01	4.4132	20.686284	0.000639	6.385213	2.163369	0.000256
 113	1.1144e+01	4.4517	20.863917	0.000446	4.459514	1.510924	0.000179
 114	1.1243e+01	4.5095	21.017329	0.000385	3.851398	1.304889	0.000154
 115	1.1343e+01	4.5352	21.215148	0.000497	4.966277	1.682620	0.000199
 116	1.1443e+01	4.5833	21.356448	0.000355	3.547340	1.201871	0.000142
 117	1.1542e+01	4.6186	21.534082	0.000446	4.459514	1.510924	0.000179
 118	1.1642e+01	4.6651	21.715753	0.000456	4.560866	1.545263	0.000183
 119	1.1741e+01	4.6956	21.905499	0.000476	4.763571	1.613942	0.000191
 120	1.1841e+01	4.7309	22.066984	0.000405	4.054103	1.373567	0.000162
 121	1.1940e+01	4.7758	22.220395	0.000385	3.851398	1.304889	0.000154
 122	1.2040e+01	4.8191	22.385918	0.000416	4.155456	1.407907	0.000166
 123	1.2139e+01	4.8576	22.624109	0.000598	5.979802	2.026012	0.000239
 124	1.2239e+01	4.9090	22.765408	0.000355	3.547340	1.201871	0.000142
 125	1.2338e+01	4.9346	22.947080	0.000456	4.560866	1.545263	0.000183
 126	1.2438e+01	4.9827	23.068194	0.000304	3.040577	1.030176	0.000122
 127	1.2537e+01	5.0068	23.294273	0.000568	5.675745	1.922994	0.000227
 128	1.2636e+01	5.0517	23.508241	0.000537	5.371687	1.819977	0.000215
 129	1.2736e+01	5.0902	23.633393	0.000314	3.141930	1.064515	0.000126
 130	1.2835e+01	5.1400	23.839287	0.000517	5.168982	1.751298	0.000207
 131	1.2935e+01	5.1753	24.000772	0.000405	4.054103	1.373567	0.000162
 132	1.3034e+01	5.2170	24.133997	0.000334	3.344635	1.133193	0.000134
 133	1.3134e+01	5.2603	24.372188	0.000598	5.979802	2.026012	0.000239
 134	1.3233e+01	5.2892	24.525600	0.000385	3.851398	1.304889	0.000154
 135	1.3333e+01	5.3357	24.666899	0.000355	3.547340	1.201871	0.000142
 136	1.3432e+01	5.3774	24.860682	0.000486	4.864924	1.648281	0.000195
 137	1.3532e+01	5.4143	25.014093	0.000385	3.851398	1.304889	0.000154
 138	1.3632e+01	5.4544	25.207876	0.000486	4.864924	1.648281	0.000195
 139	1.3731e+01	5.4897	25.381472	0.000436	4.358161	1.476585	0.000174
 140	1.3831e+01	5.5442	25.538921	0.000395	3.952751	1.339228	0.000158
 141	1.3930e+01	5.5795	25.708480	0.000426	4.256808	1.442246	0.000170
 142	1.4030e+01	5.6132	25.865929	0.000395	3.952751	1.339228	0.000158
 143	1.4129e+01	5.6565	26.031451	0.000416	4.155456	1.407907	0.000166
 144	1.4229e+01	5.6998	26.233308	0.000507	5.067629	1.716959	0.000203
 145	1.4328e+01	5.7367	26.386719	0.000385	3.851398	1.304889	0.000154
 146	1.4428e+01	5.7752	26.564353	0.000446	4.459514	1.510924	0.000179
 147	1.4527e+01	5.8105	26.693541	0.000324	3.243283	1.098854	0.000130
 148	1.4627e+01	5.8522	26.891361	0.000497	4.966277	1.682620	0.000199
 149	1.4726e+01	5.8891	27.068995	0.000446	4.459514	1.510924	0.000179
 150	1.4825e+01	5.9325	27.214332	0.000365	3.648693	1.236211	0.000146
 151	1.4925e+01	5.9645	27.416189	0.000507	5.067629	1.716959	0.000203
 152	1.5024e+01	6.0079	27.541340	0.000314	3.141930	1.064515	0.000126
 153	1.5124e+01	6.0544	27.662454	0.000304	3.040577	1.030176	0.000122
 154	1.5223e+01	6.0865	27.872385	0.000527	5.270334	1.785638	0.000211
 155	1.5323e+01	6.1282	28.074242	0.000507	5.067629	1.716959	0.000203
 156	1.5422e+01	6.1827	28.203430	0.000324	3.243283	1.098854	0.000130
 157	1.5522e+01	6.2228	28.409324	0.000517	5.168982	1.751298	0.000207
 158	1.5621e+01	6.2517	28.570810	0.000405	4.054103	1.373567	0.000162
 159	1.5721e+01	6.2918	28.772666	0.000507	5.067629	1.716959	0.000203
 160	1.5820e+01	6.3319	28.893780	0.000304	3.040577	1.030176	0.000122
 161	1.5920e+01	6.3688	29.083526	0.000476	4.763571	1.613942	0.000191
 162	1.6020e+01	6.4105	29.245011	0.000405	4.054103	1.373567	0.000162
 163	1.6119e+01	6.4554	29.414571	0.000426	4.256808	1.442246	0.000170
 164	1.6218e+01	6.4907	29.588168	0.000436	4.358161	1.476585	0.000174
 165	1.6318e+01	6.5244	29.737542	0.000375	3.750046	1.270550	0.000150
 166	1.6418e+01	6.5741	29.890953	0.000385	3.851398	1.304889	0.000154
 167	1.6517e+01	6.6159	30.060513	0.000426	4.256808	1.442246	0.000170
 168	1.6616e+01	6.6463	30.270444	0.000527	5.270334	1.785638	0.000211
 169	1.6716e+01	6.6784	30.419818	0.000375	3.750046	1.270550	0.000150
 170	1.6816e+01	6.7201	30.557080	0.000345	3.445988	1.167532	0.000138
 171	1.6915e+01	6.7634	30.738752	0.000456	4.560866	1.545263	0.000183
 172	1.7015e+01	6.8052	30.944645	0.000517	5.168982	1.751298	0.000207
 173	1.7114e+01	6.8453	31.081908	0.000345	3.445988	1.167532	0.000138
 174	1.7213e+01	6.8854	31.239356	0.000395	3.952751	1.339228	0.000158
 175	1.7313e+01	6.9175	31.368545	0.000324	3.243283	1.098854	0.000130
 176	1.7413e+01	6.9656	31.598661	0.000578	5.777097	1.957334	0.000231
 177	1.7512e+01	7.0105	31.707664	0.000274	2.736520	0.927158	0.000110
 178	1.7611e+01	7.0426	31.881261	0.000436	4.358161	1.476585	0.000174
 179	1.7711e+01	7.0907	32.050821	0.000426	4.256808	1.442246	0.000170
 180	1.7811e+01	7.1292	32.196158	0.000365	3.648693	1.236211	0.000146
 181	1.7910e+01	7.1661	32.333420	0.000345	3.445988	1.167532	0.000138
 182	1.8009e+01	7.2078	32.519128	0.000466	4.662219	1.579602	0.000187
 183	1.8109e+01	7.2415	32.680614	0.000405	4.054103	1.373567	0.000162
 184	1.8209e+01	7.2944	32.866322	0.000466	4.662219	1.579602	0.000187
 185	1.8308e+01	7.3201	32.999548	0.000334	3.344635	1.133193	0.000134
 186	1.8407e+01	7.3602	33.201404	0.000507	5.067629	1.716959	0.000203
 187	1.8507e+01	7.4067	33.330593	0.000324	3.243283	1.098854	0.000130
 188	1.8607e+01	7.4452	33.488041	0.000395	3.952751	1.339228	0.000158
 189	1.8706e+01	7.4886	33.657601	0.000426	4.256808	1.442246	0.000170
 190	1.8805e+01	7.5303	33.823123	0.000416	4.155456	1.407907	0.000166
 191	1.8905e+01	7.5704	33.984609	0.000405	4.054103	1.373567	0.000162
 192	1.9005e+01	7.6025	34.142057	0.000395	3.952751	1.339228	0.000158
 193	1.9104e+01	7.6442	34.287394	0.000365	3.648693	1.236211	0.000146
 194	1.9203e+01	7.6907	34.444842	0.000395	3.952751	1.339228	0.000158
 195	1.9303e+01	7.7292	34.610365	0.000416	4.155456	1.407907	0.000166
 196	1.9402e+01	7.7581	34.763776	0.000385	3.851398	1.304889	0.000154
 197	1.9502e+01	7.7950	34.909113	0.000365	3.648693	1.236211	0.000146
 198	1.9602e+01	7.8479	35.086747	0.000446	4.459514	1.510924	0.000179
 199	1.9701e+01	7.8848	35.244195	0.000395	3.952751	1.339228	0.000158
 200	1.9800e+01	7.9297	35.381458	0.000345	3.445988	1.167532	0.000138
 201	1.9900e+01	7.9602	35.526794	0.000365	3.648693	1.236211	0.000146
 202	2.0000e+01	8.0003	35.732688	0.000517	5.168982	1.751298	0.000207
 203	2.0099e+01	8.0436	35.869951	0.000345	3.445988	1.167532	0.000138
 204	2.0198e+01	8.0789	36.019325	0.000375	3.750046	1.270550	0.000150
 205	2.0298e+01	8.1174	36.160625	0.000355	3.547340	1.201871	0.000142
 206	2.0398e+01	8.1639	36.346333	0.000466	4.662219	1.579602	0.000187
 207	2.0497e+01	8.2008	36.471484	0.000314	3.141930	1.064515	0.000126
 208	2.0596e+01	8.2425	36.612784	0.000355	3.547340	1.201871	0.000142
 209	2.0696e+01	8.2810	36.806567	0.000486	4.864924	1.648281	0.000195
 210	2.0796e+01	8.3179	36.959978	0.000385	3.851398	1.304889	0.000154
 211	2.0895e+01	8.3613	37.105315	0.000365	3.648693	1.236211	0.000146
 212	2.0994e+01	8.3917	37.282949	0.000446	4.459514	1.510924	0.000179
 213	2.1094e+01	8.4383	37.395988	0.000284	2.837872	0.961497	0.000114
 214	2.1194e+01	8.4848	37.585734	0.000476	4.763571	1.613942	0.000191
 215	2.1293e+01	8.5233	37.755293	0.000426	4.256808	1.442246	0.000170
 216	2.1392e+01	8.5570	37.884482	0.000324	3.243283	1.098854	0.000130
 217	2.1492e+01	8.6003	38.062116	0.000446	4.459514	1.510924	0.000179
 218	2.1591e+01	8.6308	38.183230	0.000304	3.040577	1.030176	0.000122
 219	2.1691e+01	8.6789	38.360864	0.000446	4.459514	1.510924	0.000179
 220	2.1791e+01	8.7174	38.526386	0.000416	4.155456	1.407907	0.000166
 221	2.1890e+01	8.7527	38.623278	0.000243	2.432462	0.824140	0.000097
 222	2.1989e+01	8.7960	38.780726	0.000395	3.952751	1.339228	0.000158
 223	2.2089e+01	8.8361	38.926063	0.000365	3.648693	1.236211	0.000146
 224	2.2189e+01	8.8762	39.144068	0.000547	5.473039	1.854316	0.000219
 225	2.2288e+01	8.9195	39.244997	0.000253	2.533815	0.858480	0.000101
 226	2.2387e+01	8.9564	39.402445	0.000395	3.952751	1.339228	0.000158
 227	2.2487e+01	9.0014	39.559893	0.000395	3.952751	1.339228	0.000158
 228	2.2587e+01	9.0399	39.693119	0.000334	3.344635	1.133193	0.000134
 229	2.2686e+01	9.0864	39.899012	0.000517	5.168982	1.751298	0.000207
 230	2.2785e+01	9.1249	40.008015	0.000274	2.736520	0.927158	0.000110
 231	2.2885e+01	9.1586	40.161426	0.000385	3.851398	1.304889	0.000154
 232	2.2985e+01	9.2003	40.343097	0.000456	4.560866	1.545263	0.000183
 233	2.3084e+01	9.2516	40.480360	0.000345	3.445988	1.167532	0.000138
 234	2.3183e+01	9.2853	40.637808	0.000395	3.952751	1.339228	0.000158
 235	2.3283e+01	9.3174	40.791219	0.000385	3.851398	1.304889	0.000154
 236	2.3383e+01	9.3671	40.940594	0.000375	3.750046	1.270550	0.000150
 237	2.3482e+01	9.4008	41.065745	0.000314	3.141930	1.064515	0.000126
 238	2.3581e+01	9.4425	41.219156	0.000385	3.851398	1.304889	0.000154
 239	2.3681e+01	9.4746	41.376604	0.000395	3.952751	1.339228	0.000158
 240	2.3780e+01	9.5099	41.578461	0.000507	5.067629	1.716959	0.000203
 241	2.3880e+01	9.5532	41.667278	0.000223	2.229757	0.755462	0.000089
 242	2.3980e+01	9.5965	41.796466	0.000324	3.243283	1.098854	0.000130
 243	2.4079e+01	9.6222	41.949877	0.000385	3.851398	1.304889	0.000154
 244	2.4178e+01	9.6799	42.083103	0.000334	3.344635	1.133193	0.000134
 245	2.4278e+01	9.7184	42.248625	0.000416	4.155456	1.407907	0.000166
 246	2.4378e+01	9.7569	42.389925	0.000355	3.547340	1.201871	0.000142
 247	2.4477e+01	9.8019	42.494891	0.000264	2.635167	0.892819	0.000105
 248	2.4576e+01	9.8339	42.668488	0.000436	4.358161	1.476585	0.000174
 249	2.4676e+01	9.8741	42.801713	0.000334	3.344635	1.133193	0.000134
 250	2.4776e+01	9.9093	42.963199	0.000405	4.054103	1.373567	0.000162
 251	2.4875e+01	9.9607	43.084313	0.000304	3.040577	1.030176	0.000122
 252	2.4974e+01	9.9976	43.249835	0.000416	4.155456	1.407907	0.000166
 253	2.5074e+01	10.0361	43.399209	0.000375	3.750046	1.270550	0.000150
 254	2.5174e+01	10.0762	43.532435	0.000334	3.344635	1.133193	0.000134
 255	2.5273e+01	10.1211	43.706031	0.000436	4.358161	1.476585	0.000174
 256	2.5372e+01	10.1500	43.859443	0.000385	3.851398	1.304889	0.000154
 257	2.5472e+01	10.1885	43.956334	0.000243	2.432462	0.824140	0.000097
 258	2.5572e+01	10.2334	44.129931	0.000436	4.358161	1.476585	0.000174
 259	2.5671e+01	10.2799	44.242971	0.000284	2.837872	0.961497	0.000114
 260	2.5770e+01	10.3232	44.412530	0.000426	4.256808	1.442246	0.000170
 261	2.5870e+01	10.3537	44.525570	0.000284	2.837872	0.961497	0.000114
 262	2.5970e+01	10.3986	44.662833	0.000345	3.445988	1.167532	0.000138
 263	2.6069e+01	10.4275	44.820281	0.000395	3.952751	1.339228	0.000158
 264	2.6169e+01	10.4740	44.997915	0.000446	4.459514	1.510924	0.000179
 265	2.6268e+01	10.5141	45.114992	0.000294	2.939225	0.995836	0.000118
 266	2.6367e+01	10.5559	45.308774	0.000486	4.864924	1.648281	0.000195
 267	2.6467e+01	10.5863	45.409703	0.000253	2.533815	0.858480	0.000101
 268	2.6567e+01	10.6345	45.526780	0.000294	2.939225	0.995836	0.000118
 269	2.6666e+01	10.6633	45.680191	0.000385	3.851398	1.304889	0.000154
 270	2.6765e+01	10.7066	45.837639	0.000395	3.952751	1.339228	0.000158
 271	2.6865e+01	10.7580	45.938568	0.000253	2.533815	0.858480	0.000101
 272	2.6965e+01	10.7933	46.144461	0.000517	5.168982	1.751298	0.000207
 273	2.7064e+01	10.8286	46.245390	0.000253	2.533815	0.858480	0.000101
 274	2.7163e+01	10.8655	46.386690	0.000355	3.547340	1.201871	0.000142
 275	2.7263e+01	10.9072	46.519915	0.000334	3.344635	1.133193	0.000134
 276	2.7363e+01	10.9521	46.653141	0.000334	3.344635	1.133193	0.000134
 277	2.7462e+01	10.9906	46.806552	0.000385	3.851398	1.304889	0.000154
 278	2.7561e+01	11.0307	46.951889	0.000365	3.648693	1.236211	0.000146
 279	2.7661e+01	11.0644	47.093188	0.000355	3.547340	1.201871	0.000142
 280	2.7761e+01	11.1109	47.250637	0.000395	3.952751	1.339228	0.000158
 281	2.7860e+01	11.1446	47.400011	0.000375	3.750046	1.270550	0.000150
 282	2.7959e+01	11.1767	47.525162	0.000314	3.141930	1.064515	0.000126
 283	2.8059e+01	11.2312	47.674536	0.000375	3.750046	1.270550	0.000150
 284	2.8159e+01	11.2745	47.799687	0.000314	3.141930	1.064515	0.000126
 285	2.8258e+01	11.3147	47.920801	0.000304	3.040577	1.030176	0.000122
 286	2.8358e+01	11.3516	48.110547	0.000476	4.763571	1.613942	0.000191
 287	2.8457e+01	11.3917	48.243772	0.000334	3.344635	1.133193	0.000134
 288	2.8556e+01	11.4270	48.376998	0.000334	3.344635	1.133193	0.000134
 289	2.8656e+01	11.4606	48.510223	0.000334	3.344635	1.133193	0.000134
 290	2.8756e+01	11.5072	48.679783	0.000426	4.256808	1.442246	0.000170
 291	2.8855e+01	11.5553	48.804934	0.000314	3.141930	1.064515	0.000126
 292	2.8954e+01	11.5906	48.909899	0.000264	2.635167	0.892819	0.000105
 293	2.9054e+01	11.6259	49.031014	0.000304	3.040577	1.030176	0.000122
 294	2.9154e+01	11.6644	49.176350	0.000365	3.648693	1.236211	0.000146
 295	2.9253e+01	11.7125	49.325724	0.000375	3.750046	1.270550	0.000150
 296	2.9352e+01	11.7558	49.467024	0.000355	3.547340	1.201871	0.000142
 297	2.9452e+01	11.7927	49.592175	0.000314	3.141930	1.064515	0.000126
 298	2.9552e+01	11.8264	49.769809	0.000446	4.459514	1.510924	0.000179
 299	2.9651e+01	11.8745	49.886886	0.000294	2.939225	0.995836	0.000118
 300	2.9750e+01	11.9098	50.012038	0.000314	3.141930	1.064515	0.000126
 301	2.9850e+01	11.9547	50.149300	0.000345	3.445988	1.167532	0.000138
 302	2.9950e+01	11.9884	50.310786	0.000405	4.054103	1.373567	0.000162
 303	3.0049e+01	12.0382	50.439974	0.000324	3.243283	1.098854	0.000130
 304	3.0148e+01	12.0686	50.540902	0.000253	2.533815	0.858480	0.000101
 305	3.0248e+01	12.1039	50.710462	0.000426	4.256808	1.442246	0.000170
 306	3.0348e+01	12.1440	50.827539	0.000294	2.939225	0.995836	0.000118
 307	3.0447e+01	12.1841	50.960764	0.000334	3.344635	1.133193	0.000134
 308	3.0547e+01	12.2226	51.077841	0.000294	2.939225	0.995836	0.000118
 309	3.0646e+01	12.2660	51.219141	0.000355	3.547340	1.201871	0.000142
 310	3.0745e+01	12.3013	51.340255	0.000304	3.040577	1.030176	0.000122
 311	3.0845e+01	12.3510	51.505778	0.000416	4.155456	1.407907	0.000166
 312	3.0945e+01	12.3879	51.655152	0.000375	3.750046	1.270550	0.000150
 313	3.1044e+01	12.4264	51.764154	0.000274	2.736520	0.927158	0.000110
 314	3.1143e+01	12.4745	51.917566	0.000385	3.851398	1.304889	0.000154
 315	3.1243e+01	12.5066	52.022531	0.000264	2.635167	0.892819	0.000105
 316	3.1343e+01	12.5403	52.167868	0.000365	3.648693	1.236211	0.000146
 317	3.1442e+01	12.5788	52.293019	0.000314	3.141930	1.064515	0.000126
 318	3.1541e+01	12.6269	52.422208	0.000324	3.243283	1.098854	0.000130
 319	3.1641e+01	12.6622	52.567544	0.000365	3.648693	1.236211	0.000146
 320	3.1741e+01	12.7071	52.716918	0.000375	3.750046	1.270550	0.000150
 321	3.1840e+01	12.7424	52.874367	0.000395	3.952751	1.339228	0.000158
 322	3.1939e+01	12.7857	52.991444	0.000294	2.939225	0.995836	0.000118
 323	3.2039e+01	12.8242	53.100446	0.000274	2.736520	0.927158	0.000110
 324	3.2139e+01	12.8659	53.253858	0.000385	3.851398	1.304889	0.000154
 325	3.2238e+01	12.9044	53.370934	0.000294	2.939225	0.995836	0.000118
 326	3.2337e+01	12.9462	53.488011	0.000294	2.939225	0.995836	0.000118
 327	3.2437e+01	12.9815	53.637385	0.000375	3.750046	1.270550	0.000150
 328	3.2536e+01	13.0151	53.790797	0.000385	3.851398	1.304889	0.000154
 329	3.2636e+01	13.0681	53.952282	0.000405	4.054103	1.373567	0.000162
 330	3.2736e+01	13.0921	54.077433	0.000314	3.141930	1.064515	0.000126
 331	3.2835e+01	13.1467	54.186436	0.000274	2.736520	0.927158	0.000110
 332	3.2934e+01	13.1788	54.327736	0.000355	3.547340	1.201871	0.000142
 333	3.3034e+01	13.2157	54.481147	0.000385	3.851398	1.304889	0.000154
 334	3.3133e+01	13.2622	54.578038	0.000243	2.432462	0.824140	0.000097
 335	3.3233e+01	13.2959	54.711264	0.000334	3.344635	1.133193	0.000134
 336	3.3333e+01	13.3344	54.868712	0.000395	3.952751	1.339228	0.000158
 337	3.3432e+01	13.3745	54.985789	0.000294	2.939225	0.995836	0.000118
 338	3.3532e+01	13.4082	55.155348	0.000426	4.256808	1.442246	0.000170
 339	3.3631e+01	13.4563	55.284537	0.000324	3.243283	1.098854	0.000130
 340	3.3730e+01	13.4836	55.397577	0.000284	2.837872	0.961497	0.000114
 341	3.3830e+01	13.5253	55.567136	0.000426	4.256808	1.442246	0.000170
 342	3.3929e+01	13.5734	55.676139	0.000274	2.736520	0.927158	0.000110
 343	3.4029e+01	13.6199	55.785142	0.000274	2.736520	0.927158	0.000110
 344	3.4129e+01	13.6552	55.914330	0.000324	3.243283	1.098854	0.000130
 345	3.4228e+01	13.6937	56.043518	0.000324	3.243283	1.098854	0.000130
 346	3.4328e+01	13.7386	56.188855	0.000365	3.648693	1.236211	0.000146
 347	3.4427e+01	13.7788	56.309969	0.000304	3.040577	1.030176	0.000122
 348	3.4526e+01	13.8140	56.418972	0.000274	2.736520	0.927158	0.000110
 349	3.4626e+01	13.8574	56.616792	0.000497	4.966277	1.682620	0.000199
 350	3.4725e+01	13.9055	56.693497	0.000193	1.925699	0.652445	0.000077
 351	3.4825e+01	13.9424	56.854983	0.000405	4.054103	1.373567	0.000162
 352	3.4925e+01	13.9793	56.935725	0.000203	2.027052	0.686784	0.000081
 353	3.5024e+01	14.0194	57.064914	0.000324	3.243283	1.098854	0.000130
 354	3.5123e+01	14.0595	57.246585	0.000456	4.560866	1.545263	0.000183
 355	3.5223e+01	14.0964	57.347513	0.000253	2.533815	0.858480	0.000101
 356	3.5322e+01	14.1317	57.496887	0.000375	3.750046	1.270550	0.000150
 357	3.5422e+01	14.1814	57.601853	0.000264	2.635167	0.892819	0.000105
 358	3.5522e+01	14.2039	57.751227	0.000375	3.750046	1.270550	0.000150
 359	3.5621e+01	14.2648	57.872341	0.000304	3.040577	1.030176	0.000122
 360	3.5721e+01	14.2873	57.981343	0.000274	2.736520	0.927158	0.000110
 361	3.5820e+01	14.3322	58.122643	0.000355	3.547340	1.201871	0.000142
 362	3.5919e+01	14.3739	58.263943	0.000355	3.547340	1.201871	0.000142
 363	3.6019e+01	14.4108	58.368909	0.000264	2.635167	0.892819	0.000105
 364	3.6118e+01	14.4606	58.510208	0.000355	3.547340	1.201871	0.000142
 365	3.6218e+01	14.4975	58.619211	0.000274	2.736520	0.927158	0.000110
 366	3.6318e+01	14.5392	58.772622	0.000385	3.851398	1.304889	0.000154
 367	3.6417e+01	14.5793	58.865476	0.000233	2.331109	0.789801	0.000093
 368	3.6517e+01	14.6162	59.006776	0.000355	3.547340	1.201871	0.000142
 369	3.6616e+01	14.6418	59.127890	0.000304	3.040577	1.030176	0.000122
 370	3.6715e+01	14.6948	59.249004	0.000304	3.040577	1.030176	0.000122
 371	3.6815e+01	14.7301	59.386267	0.000345	3.445988	1.167532	0.000138
 372	3.6914e+01	14.7718	59.519492	0.000334	3.344635	1.133193	0.000134
 373	3.7014e+01	14.8183	59.612346	0.000233	2.331109	0.789801	0.000093
 374	3.7114e+01	14.8520	59.745572	0.000334	3.344635	1.133193	0.000134
 375	3.7213e+01	14.8905	59.874760	0.000324	3.243283	1.098854	0.000130
 376	3.7313e+01	14.9354	59.999911	0.000314	3.141930	1.064515	0.000126
 377	3.7412e+01	14.9755	60.169471	0.000426	4.256808	1.442246	0.000170
 378	3.7511e+01	15.0076	60.238102	0.000172	1.722994	0.583766	0.000069
 379	3.7611e+01	15.0541	60.355179	0.000294	2.939225	0.995836	0.000118
 380	3.7711e+01	15.0814	60.536850	0.000456	4.560866	1.545263	0.000183
 381	3.7810e+01	15.1279	60.645853	0.000274	2.736520	0.927158	0.000110
 382	3.7910e+01	15.1825	60.807338	0.000405	4.054103	1.373567	0.000162
 383	3.8009e+01	15.2129	60.884044	0.000193	1.925699	0.652445	0.000077
 384	3.8108e+01	15.2546	61.013232	0.000324	3.243283	1.098854	0.000130
 385	3.8208e+01	15.2932	61.122235	0.000274	2.736520	0.927158	0.000110
 386	3.8307e+01	15.3397	61.283721	0.000405	4.054103	1.373567	0.000162
 387	3.8407e+01	15.3798	61.420983	0.000345	3.445988	1.167532	0.000138
 388	3.8507e+01	15.4135	61.509800	0.000223	2.229757	0.755462	0.000089
 389	3.8606e+01	15.4456	61.647063	0.000345	3.445988	1.167532	0.000138
 390	3.8706e+01	15.4937	61.743954	0.000243	2.432462	0.824140	0.000097
 391	3.8805e+01	15.5370	61.877179	0.000334	3.344635	1.133193	0.000134
 392	3.8904e+01	15.5723	62.010405	0.000334	3.344635	1.133193	0.000134
 393	3.9004e+01	15.6092	62.111333	0.000253	2.533815	0.858480	0.000101
 394	3.9103e+01	15.6541	62.252633	0.000355	3.547340	1.201871	0.000142
 395	3.9203e+01	15.6926	62.402007	0.000375	3.750046	1.270550	0.000150
 396	3.9303e+01	15.7359	62.490824	0.000223	2.229757	0.755462	0.000089
 397	3.9402e+01	15.7744	62.611938	0.000304	3.040577	1.030176	0.000122
 398	3.9502e+01	15.8033	62.753238	0.000355	3.547340	1.201871	0.000142
 399	3.9601e+01	15.8514	62.866278	0.000284	2.837872	0.961497	0.000114
 400	3.9700e+01	15.8963	62.955095	0.000223	2.229757	0.755462	0.000089
 401	3.9800e+01	15.9316	63.132729	0.000446	4.459514	1.510924	0.000179
 402	3.9900e+01	15.9733	63.249806	0.000294	2.939225	0.995836	0.000118
 403	3.9999e+01	16.0054	63.370920	0.000304	3.040577	1.030176	0.000122
 404	4.0099e+01	16.0455	63.479922	0.000274	2.736520	0.927158	0.000110
 405	4.0198e+01	16.0905	63.580851	0.000253	2.533815	0.858480	0.000101
 406	4.0297e+01	16.1322	63.697928	0.000294	2.939225	0.995836	0.000118
 407	4.0397e+01	16.1707	63.806930	0.000274	2.736520	0.927158	0.000110
 408	4.0496e+01	16.2060	63.964379	0.000395	3.952751	1.339228	0.000158
 409	4.0596e+01	16.2477	64.041084	0.000193	1.925699	0.652445	0.000077
 410	4.0696e+01	16.2910	64.162198	0.000304	3.040577	1.030176	0.000122
 411	4.0795e+01	16.3327	64.327721	0.000416	4.155456	1.407907	0.000166
 412	4.0895e+01	16.3616	64.420575	0.000233	2.331109	0.789801	0.000093
 413	4.0994e+01	16.4097	64.553800	0.000334	3.344635	1.133193	0.000134
 414	4.1093e+01	16.4530	64.626469	0.000182	1.824346	0.618105	0.000073
 415	4.1193e+01	16.4915	64.783917	0.000395	3.952751	1.339228	0.000158
 416	4.1292e+01	16.5364	64.884846	0.000253	2.533815	0.858480	0.000101
 417	4.1392e+01	16.5701	64.981737	0.000243	2.432462	0.824140	0.000097
 418	4.1492e+01	16.6166	65.094777	0.000284	2.837872	0.961497	0.000114
 419	4.1591e+01	16.6439	65.223965	0.000324	3.243283	1.098854	0.000130
 420	4.1691e+01	16.6888	65.381413	0.000395	3.952751	1.339228	0.000158
 421	4.1790e+01	16.7354	65.421785	0.000101	1.013526	0.343392	0.000041
 422	4.1889e+01	16.7658	65.559047	0.000345	3.445988	1.167532	0.000138
 423	4.1989e+01	16.8011	65.692273	0.000334	3.344635	1.133193	0.000134
 424	4.2089e+01	16.8444	65.773015	0.000203	2.027052	0.686784	0.000081
 425	4.2188e+01	16.8862	65.882018	0.000274	2.736520	0.927158	0.000110
 426	4.2288e+01	16.9214	66.055615	0.000436	4.358161	1.476585	0.000174
 427	4.2387e+01	16.9664	66.160580	0.000264	2.635167	0.892819	0.000105
 428	4.2486e+01	17.0049	66.257472	0.000243	2.432462	0.824140	0.000097
 429	4.2586e+01	17.0434	66.370512	0.000284	2.837872	0.961497	0.000114
 430	4.2685e+01	17.0851	66.536034	0.000416	4.155456	1.407907	0.000166
 431	4.2785e+01	17.1348	66.600628	0.000162	1.621641	0.549427	0.000065
 432	4.2885e+01	17.1701	66.754039	0.000385	3.851398	1.304889	0.000154
 433	4.2984e+01	17.2006	66.854968	0.000253	2.533815	0.858480	0.000101
 434	4.3084e+01	17.2487	66.959933	0.000264	2.635167	0.892819	0.000105
 435	4.3183e+01	17.2888	67.081047	0.000304	3.040577	1.030176	0.000122
 436	4.3282e+01	17.3257	67.230421	0.000375	3.750046	1.270550	0.000150
 437	4.3382e+01	17.3626	67.290978	0.000152	1.520289	0.515088	0.000061
 438	4.3481e+01	17.4107	67.436315	0.000365	3.648693	1.236211	0.000146
 439	4.3581e+01	17.4428	67.513021	0.000193	1.925699	0.652445	0.000077
 440	4.3681e+01	17.4813	67.682581	0.000426	4.256808	1.442246	0.000170
 441	4.3780e+01	17.5327	67.791583	0.000274	2.736520	0.927158	0.000110
 442	4.3880e+01	17.5615	67.872326	0.000203	2.027052	0.686784	0.000081
 443	4.3979e+01	17.6113	67.989403	0.000294	2.939225	0.995836	0.000118
 444	4.4078e+01	17.6450	68.106480	0.000294	2.939225	0.995836	0.000118
 445	4.4178e+01	17.6851	68.231631	0.000314	3.141930	1.064515	0.000126
 446	4.4278e+01	17.7188	68.332560	0.000253	2.533815	0.858480	0.000101
 447	4.4377e+01	17.7669	68.441562	0.000274	2.736520	0.927158	0.000110
 448	4.4477e+01	17.8086	68.582862	0.000355	3.547340	1.201871	0.000142
 449	4.4576e+01	17.8519	68.695902	0.000284	2.837872	0.961497	0.000114
 450	4.4675e+01	17.8856	68.800867	0.000264	2.635167	0.892819	0.000105
 451	4.4775e+01	17.9209	68.930056	0.000324	3.243283	1.098854	0.000130
 452	4.4874e+01	17.9658	69.026947	0.000243	2.432462	0.824140	0.000097
 453	4.4974e+01	18.0059	69.152098	0.000314	3.141930	1.064515	0.000126
 454	4.5074e+01	18.0396	69.253026	0.000253	2.533815	0.858480	0.000101
 455	4.5173e+01	18.0717	69.329732	0.000193	1.925699	0.652445	0.000077
 456	4.5273e+01	18.1246	69.466995	0.000345	3.445988	1.167532	0.000138
 457	4.5372e+01	18.1583	69.575997	0.000274	2.736520	0.927158	0.000110
 458	4.5471e+01	18.1920	69.713260	0.000345	3.445988	1.167532	0.000138
 459	4.5571e+01	18.2417	69.830337	0.000294	2.939225	0.995836	0.000118
 460	4.5670e+01	18.2770	69.927228	0.000243	2.432462	0.824140	0.000097
 461	4.5770e+01	18.3235	70.028157	0.000253	2.533815	0.858480	0.000101
 462	4.5870e+01	18.3620	70.153308	0.000314	3.141930	1.064515	0.000126
 463	4.5969e+01	18.4022	70.270385	0.000294	2.939225	0.995836	0.000118
 464	4.6069e+01	18.4487	70.423796	0.000385	3.851398	1.304889	0.000154
 465	4.6168e+01	18.4856	70.488390	0.000162	1.621641	0.549427	0.000065
 466	4.6267e+01	18.5257	70.577207	0.000223	2.229757	0.755462	0.000089
 467	4.6367e+01	18.5674	70.730618	0.000385	3.851398	1.304889	0.000154
 468	4.6467e+01	18.6011	70.875955	0.000365	3.648693	1.236211	0.000146
 469	4.6566e+01	18.6444	70.928438	0.000132	1.317584	0.446409	0.000053
 470	4.6666e+01	18.6813	71.037440	0.000274	2.736520	0.927158	0.000110
 471	4.6765e+01	18.7182	71.142406	0.000264	2.635167	0.892819	0.000105
 472	4.6864e+01	18.7519	71.247372	0.000264	2.635167	0.892819	0.000105
 473	4.6964e+01	18.7888	71.380597	0.000334	3.344635	1.133193	0.000134
 474	4.7063e+01	18.8337	71.509785	0.000324	3.243283	1.098854	0.000130
 475	4.7163e+01	18.8834	71.594565	0.000213	2.128404	0.721123	0.000085
 476	4.7263e+01	18.9155	71.695494	0.000253	2.533815	0.858480	0.000101
 477	4.7362e+01	18.9556	71.836793	0.000355	3.547340	1.201871	0.000142
 478	4.7462e+01	19.0037	71.945796	0.000274	2.736520	0.927158	0.000110
 479	4.7561e+01	19.0310	72.026539	0.000203	2.027052	0.686784	0.000081
 480	4.7660e+01	19.0727	72.123430	0.000243	2.432462	0.824140	0.000097
 481	4.7760e+01	19.1225	72.264730	0.000355	3.547340	1.201871	0.000142
 482	4.7859e+01	19.1626	72.381807	0.000294	2.939225	0.995836	0.000118
 483	4.7959e+01	19.1995	72.430252	0.000122	1.216231	0.412070	0.000049
 484	4.8059e+01	19.2428	72.615961	0.000466	4.662219	1.579602	0.000187
 485	4.8158e+01	19.2829	72.676518	0.000152	1.520289	0.515088	0.000061
 486	4.8258e+01	19.3182	72.809743	0.000334	3.344635	1.133193	0.000134
 487	4.8357e+01	19.3583	72.890486	0.000203	2.027052	0.686784	0.000081
 488	4.8456e+01	19.4016	73.035823	0.000365	3.648693	1.236211	0.000146
 489	4.8556e+01	19.4353	73.124640	0.000223	2.229757	0.755462	0.000089
 490	4.8656e+01	19.4674	73.245754	0.000304	3.040577	1.030176	0.000122
 491	4.8755e+01	19.5203	73.350719	0.000264	2.635167	0.892819	0.000105
 492	4.8855e+01	19.5540	73.483945	0.000334	3.344635	1.133193	0.000134
 493	4.8954e+01	19.6005	73.556613	0.000182	1.824346	0.618105	0.000073
 494	4.9053e+01	19.6342	73.685801	0.000324	3.243283	1.098854	0.000130
 495	4.9153e+01	19.6711	73.806916	0.000304	3.040577	1.030176	0.000122
 496	4.9252e+01	19.7176	73.891695	0.000213	2.128404	0.721123	0.000085
 497	4.9352e+01	19.7529	73.992624	0.000253	2.533815	0.858480	0.000101
 498	4.9452e+01	19.8026	74.137961	0.000365	3.648693	1.236211	0.000146
 499	4.9551e+01	19.8299	74.279260	0.000355	3.547340	1.201871	0.000142
 500	4.9651e+01	19.8829	74.360003	0.000203	2.027052	0.686784	0.000081
 501	4.9750e+01	19.9214	74.473043	0.000284	2.837872	0.961497	0.000114
 502	4.9849e+01	19.9534	74.590120	0.000294	2.939225	0.995836	0.000118
 503	4.9949e+01	19.9887	74.735457	0.000365	3.648693	1.236211	0.000146
 504	5.0048e+01	19.9502	74.634528	0.000253	2.533815	0.858480	-0.000101
 505	5.0148e+01	19.9085	74.561860	0.000182	1.824346	0.618105	-0.000073
 506	5.0248e+01	19.8700	74.440746	0.000304	3.040577	1.030176	-0.000122
 507	5.0347e+01	19.8347	74.380189	0.000152	1.520289	0.515088	-0.000061
 508	5.0447e+01	19.7994	74.311558	0.000172	1.722994	0.583766	-0.000069
 509	5.0546e+01	19.7561	74.230815	0.000203	2.027052	0.686784	-0.000081
 510	5.0645e+01	19.7176	74.113738	0.000294	2.939225	0.995836	-0.000118
 511	5.0745e+01	19.6759	74.020884	0.000233	2.331109	0.789801	-0.000093
 512	5.0844e+01	19.6374	73.956290	0.000162	1.621641	0.549427	-0.000065
 513	5.0944e+01	19.5973	73.831138	0.000314	3.141930	1.064515	-0.000126
 514	5.1044e+01	19.5588	73.762507	0.000172	1.722994	0.583766	-0.000069
 515	5.1143e+01	19.5139	73.681764	0.000203	2.027052	0.686784	-0.000081
 516	5.1242e+01	19.4754	73.617170	0.000162	1.621641	0.549427	-0.000065
 517	5.1342e+01	19.4385	73.520279	0.000243	2.432462	0.824140	-0.000097
 518	5.1441e+01	19.4016	73.407239	0.000284	2.837872	0.961497	-0.000114
 519	5.1541e+01	19.3567	73.314385	0.000233	2.331109	0.789801	-0.000093
 520	5.1641e+01	19.3102	73.225568	0.000223	2.229757	0.755462	-0.000089
 521	5.1740e+01	19.2861	73.148862	0.000193	1.925699	0.652445	-0.000077
 522	5.1840e+01	19.2492	73.060045	0.000223	2.229757	0.755462	-0.000089
 523	5.1939e+01	19.2059	72.942969	0.000294	2.939225	0.995836	-0.000118
 524	5.2038e+01	19.1610	72.846077	0.000243	2.432462	0.824140	-0.000097
 525	5.2138e+01	19.1176	72.785520	0.000152	1.520289	0.515088	-0.000061
 526	5.2237e+01	19.0823	72.704778	0.000203	2.027052	0.686784	-0.000081
 527	5.2337e+01	19.0455	72.611923	0.000233	2.331109	0.789801	-0.000093
 528	5.2437e+01	18.9941	72.531181	0.000203	2.027052	0.686784	-0.000081
 529	5.2536e+01	18.9572	72.406029	0.000314	3.141930	1.064515	-0.000126
 530	5.2636e+01	18.9299	72.333361	0.000182	1.824346	0.618105	-0.000073
 531	5.2735e+01	18.8850	72.192061	0.000355	3.547340	1.201871	-0.000142
 532	5.2834e+01	18.8353	72.107281	0.000213	2.128404	0.721123	-0.000085
 533	5.2934e+01	18.7936	72.042687	0.000162	1.621641	0.549427	-0.000065
 534	5.3033e+01	18.7567	71.909462	0.000334	3.344635	1.133193	-0.000134
 535	5.3133e+01	18.7310	71.848905	0.000152	1.520289	0.515088	-0.000061
 536	5.3233e+01	18.6749	71.760088	0.000223	2.229757	0.755462	-0.000089
 537	5.3332e+01	18.6364	71.643011	0.000294	2.939225	0.995836	-0.000118
 538	5.3431e+01	18.6011	71.546120	0.000243	2.432462	0.824140	-0.000097
 539	5.3531e+01	18.5594	71.441154	0.000264	2.635167	0.892819	-0.000105
 540	5.3630e+01	18.5177	71.336188	0.000264	2.635167	0.892819	-0.000105
 541	5.3730e+01	18.4824	71.235260	0.000253	2.533815	0.858480	-0.000101
 542	5.3830e+01	18.4407	71.170666	0.000162	1.621641	0.549427	-0.000065
 543	5.3929e+01	18.4038	71.057626	0.000284	2.837872	0.961497	-0.000114
 544	5.4029e+01	18.3556	70.993032	0.000162	1.621641	0.549427	-0.000065
 545	5.4128e+01	18.3284	70.875955	0.000294	2.939225	0.995836	-0.000118
 546	5.4227e+01	18.2834	70.766952	0.000274	2.736520	0.927158	-0.000110
 547	5.4327e+01	18.2449	70.678135	0.000223	2.229757	0.755462	-0.000089
 548	5.4426e+01	18.1920	70.552984	0.000314	3.141930	1.064515	-0.000126
 549	5.4526e+01	18.1551	70.516650	0.000091	0.912173	0.309053	-0.000037
 550	5.4626e+01	18.1070	70.399573	0.000294	2.939225	0.995836	-0.000118
 551	5.4725e+01	18.0813	70.302682	0.000243	2.432462	0.824140	-0.000097
 552	5.4825e+01	18.0380	70.225976	0.000193	1.925699	0.652445	-0.000077
 553	5.4924e+01	18.0075	70.100825	0.000314	3.141930	1.064515	-0.000126
 554	5.5023e+01	17.9626	70.028157	0.000182	1.824346	0.618105	-0.000073
 555	5.5123e+01	17.9225	69.907042	0.000304	3.040577	1.030176	-0.000122
 556	5.5222e+01	17.8792	69.789966	0.000294	2.939225	0.995836	-0.000118
 557	5.5322e+01	17.8343	69.709223	0.000203	2.027052	0.686784	-0.000081
 558	5.5422e+01	17.7974	69.620406	0.000223	2.229757	0.755462	-0.000089
 559	5.5521e+01	17.7637	69.523515	0.000243	2.432462	0.824140	-0.000097
 560	5.5620e+01	17.7300	69.406438	0.000294	2.939225	0.995836	-0.000118
 561	5.5720e+01	17.6819	69.305509	0.000253	2.533815	0.858480	-0.000101
 562	5.5819e+01	17.6482	69.192469	0.000284	2.837872	0.961497	-0.000114
 563	5.5919e+01	17.5984	69.164209	0.000071	0.709468	0.240374	-0.000028
 564	5.6019e+01	17.5680	69.043095	0.000304	3.040577	1.030176	-0.000122
 565	5.6118e+01	17.5230	68.917944	0.000314	3.141930	1.064515	-0.000126
 566	5.6218e+01	17.4813	68.829127	0.000223	2.229757	0.755462	-0.000089
 567	5.6317e+01	17.4460	68.728199	0.000253	2.533815	0.858480	-0.000101
 568	5.6416e+01	17.4091	68.627270	0.000253	2.533815	0.858480	-0.000101
 569	5.6516e+01	17.3642	68.530379	0.000243	2.432462	0.824140	-0.000097
 570	5.6615e+01	17.3161	68.453674	0.000193	1.925699	0.652445	-0.000077
 571	5.6715e+01	17.2968	68.324485	0.000324	3.243283	1.098854	-0.000130
 572	5.6815e+01	17.2487	68.239705	0.000213	2.128404	0.721123	-0.000085
 573	5.6914e+01	17.1958	68.098406	0.000355	3.547340	1.201871	-0.000142
 574	5.7014e+01	17.1621	68.001514	0.000243	2.432462	0.824140	-0.000097
 575	5.7113e+01	17.1316	67.912697	0.000223	2.229757	0.755462	-0.000089
 576	5.7212e+01	17.0835	67.791583	0.000304	3.040577	1.030176	-0.000122
 577	5.7312e+01	17.0482	67.694692	0.000243	2.432462	0.824140	-0.000097
 578	5.7411e+01	17.0081	67.573578	0.000304	3.040577	1.030176	-0.000122
 579	5.7511e+01	16.9632	67.484761	0.000223	2.229757	0.755462	-0.000089
 580	5.7611e+01	16.9327	67.375758	0.000274	2.736520	0.927158	-0.000110
 581	5.7710e+01	16.8846	67.234459	0.000355	3.547340	1.201871	-0.000142
 582	5.7809e+01	16.8493	67.149679	0.000213	2.128404	0.721123	-0.000085
 583	5.7909e+01	16.8043	67.024528	0.000314	3.141930	1.064515	-0.000126
 584	5.8008e+01	16.7690	66.943785	0.000203	2.027052	0.686784	-0.000081
 585	5.8108e+01	16.7273	66.859005	0.000213	2.128404	0.721123	-0.000085
 586	5.8208e+01	16.6969	66.709631	0.000375	3.750046	1.270550	-0.000150
 587	5.8307e+01	16.6487	66.604665	0.000264	2.635167	0.892819	-0.000105
 588	5.8407e+01	16.6038	66.507774	0.000243	2.432462	0.824140	-0.000097
 589	5.8506e+01	16.5637	66.418957	0.000223	2.229757	0.755462	-0.000089
 590	5.8605e+01	16.5332	66.346289	0.000182	1.824346	0.618105	-0.000073
 591	5.8705e+01	16.4883	66.213063	0.000334	3.344635	1.133193	-0.000134
 592	5.8804e+01	16.4514	66.083875	0.000324	3.243283	1.098854	-0.000130
 593	5.8904e+01	16.4113	65.974872	0.000274	2.736520	0.927158	-0.000110
 594	5.9004e+01	16.3648	65.886055	0.000223	2.229757	0.755462	-0.000089
 595	5.9103e+01	16.3263	65.793201	0.000233	2.331109	0.789801	-0.000093
 596	5.9203e+01	16.2894	65.672087	0.000304	3.040577	1.030176	-0.000122
 597	5.9302e+01	16.2589	65.550973	0.000304	3.040577	1.030176	-0.000122
 598	5.9401e+01	16.2172	65.441970	0.000274	2.736520	0.927158	-0.000110
 599	5.9501e+01	16.1739	65.381413	0.000152	1.520289	0.515088	-0.000061
 600	5.9600e+01	16.1306	65.223965	0.000395	3.952751	1.339228	-0.000158
 601	5.9700e+01	16.0969	65.118999	0.000264	2.635167	0.892819	-0.000105
 602	5.9800e+01	16.0584	65.082665	0.000091	0.912173	0.309053	-0.000037
 603	5.9899e+01	15.9974	64.909068	0.000436	4.358161	1.476585	-0.000174
 604	5.9998e+01	15.9701	64.816214	0.000233	2.331109	0.789801	-0.000093
 605	6.0098e+01	15.9413	64.711249	0.000264	2.635167	0.892819	-0.000105
 606	6.0197e+01	15.8979	64.626469	0.000213	2.128404	0.721123	-0.000085
 607	6.0297e+01	15.8450	64.501318	0.000314	3.141930	1.064515	-0.000126
 608	6.0397e+01	15.8129	64.400389	0.000253	2.533815	0.858480	-0.000101
 609	6.0496e+01	15.7792	64.275238	0.000314	3.141930	1.064515	-0.000126
 610	6.0596e+01	15.7263	64.150087	0.000314	3.141930	1.064515	-0.000126
 611	6.0695e+01	15.6862	64.073381	0.000193	1.925699	0.652445	-0.000077
 612	6.0794e+01	15.6589	63.952267	0.000304	3.040577	1.030176	-0.000122
 613	6.0894e+01	15.6220	63.847302	0.000264	2.635167	0.892819	-0.000105
 614	6.0993e+01	15.5707	63.778670	0.000172	1.722994	0.583766	-0.000069
 615	6.1093e+01	15.5274	63.613148	0.000416	4.155456	1.407907	-0.000166
 616	6.1193e+01	15.4937	63.520294	0.000233	2.331109	0.789801	-0.000093
 617	6.1292e+01	15.4552	63.423402	0.000243	2.432462	0.824140	-0.000097
 618	6.1392e+01	15.4215	63.310363	0.000284	2.837872	0.961497	-0.000114
 619	6.1491e+01	15.3621	63.181174	0.000324	3.243283	1.098854	-0.000130
 620	6.1590e+01	15.3381	63.096394	0.000213	2.128404	0.721123	-0.000085
 621	6.1690e+01	15.2883	62.967206	0.000324	3.243283	1.098854	-0.000130
 622	6.1789e+01	15.2595	62.854166	0.000284	2.837872	0.961497	-0.000114
 623	6.1889e+01	15.2033	62.737089	0.000294	2.939225	0.995836	-0.000118
 624	6.1989e+01	15.1696	62.644235	0.000233	2.331109	0.789801	-0.000093
 625	6.2088e+01	15.1359	62.515047	0.000324	3.243283	1.098854	-0.000130
 626	6.2188e+01	15.0878	62.397970	0.000294	2.939225	0.995836	-0.000118
 627	6.2287e+01	15.0573	62.305116	0.000233	2.331109	0.789801	-0.000093
 628	6.2386e+01	15.0204	62.200150	0.000264	2.635167	0.892819	-0.000105
 629	6.2486e+01	14.9803	62.066925	0.000334	3.344635	1.133193	-0.000134
 630	6.2586e+01	14.9354	61.970034	0.000243	2.432462	0.824140	-0.000097
 631	6.2685e+01	14.9033	61.844882	0.000314	3.141930	1.064515	-0.000126
 632	6.2785e+01	14.8616	61.756065	0.000223	2.229757	0.755462	-0.000089
 633	6.2884e+01	14.8135	61.618803	0.000345	3.445988	1.167532	-0.000138
 634	6.2983e+01	14.7814	61.517874	0.000253	2.533815	0.858480	-0.000101
 635	6.3083e+01	14.7333	61.429057	0.000223	2.229757	0.755462	-0.000089
 636	6.3182e+01	14.7044	61.295832	0.000334	3.344635	1.133193	-0.000134
 637	6.3282e+01	14.6579	61.198941	0.000243	2.432462	0.824140	-0.000097
 638	6.3382e+01	14.6146	61.057641	0.000355	3.547340	1.201871	-0.000142
 639	6.3481e+01	14.5664	60.980935	0.000193	1.925699	0.652445	-0.000077
 640	6.3581e+01	14.5408	60.851747	0.000324	3.243283	1.098854	-0.000130
 641	6.3680e+01	14.4942	60.738707	0.000284	2.837872	0.961497	-0.000114
 642	6.3779e+01	14.4573	60.637779	0.000253	2.533815	0.858480	-0.000101
 643	6.3879e+01	14.4253	60.480330	0.000395	3.952751	1.339228	-0.000158
 644	6.3978e+01	14.3707	60.371328	0.000274	2.736520	0.927158	-0.000110
 645	6.4078e+01	14.3450	60.286548	0.000213	2.128404	0.721123	-0.000085
 646	6.4177e+01	14.2921	60.133137	0.000385	3.851398	1.304889	-0.000154
 647	6.4277e+01	14.2488	60.044320	0.000223	2.229757	0.755462	-0.000089
 648	6.4376e+01	14.2135	59.915131	0.000324	3.243283	1.098854	-0.000130
 649	6.4476e+01	14.1766	59.822277	0.000233	2.331109	0.789801	-0.000093
 650	6.4576e+01	14.1429	59.685015	0.000345	3.445988	1.167532	-0.000138
 651	6.4675e+01	14.0916	59.600235	0.000213	2.128404	0.721123	-0.000085
 652	6.4775e+01	14.0451	59.446824	0.000385	3.851398	1.304889	-0.000154
 653	6.4874e+01	14.0210	59.309561	0.000345	3.445988	1.167532	-0.000138
 654	6.4974e+01	13.9841	59.232856	0.000193	1.925699	0.652445	-0.000077
 655	6.5073e+01	13.9392	59.140001	0.000233	2.331109	0.789801	-0.000093
 656	6.5172e+01	13.8943	59.026962	0.000284	2.837872	0.961497	-0.000114
 657	6.5272e+01	13.8638	58.889699	0.000345	3.445988	1.167532	-0.000138
 658	6.5371e+01	13.8173	58.804919	0.000213	2.128404	0.721123	-0.000085
 659	6.5471e+01	13.7804	58.675731	0.000324	3.243283	1.098854	-0.000130
 660	6.5570e+01	13.7403	58.566728	0.000274	2.736520	0.927158	-0.000110
 661	6.5670e+01	13.6937	58.429466	0.000345	3.445988	1.167532	-0.000138
 662	6.5769e+01	13.6633	58.324500	0.000264	2.635167	0.892819	-0.000105
 663	6.5869e+01	13.6167	58.227609	0.000243	2.432462	0.824140	-0.000097
 664	6.5969e+01	13.5702	58.098420	0.000324	3.243283	1.098854	-0.000130
 665	6.6068e+01	13.5349	57.997492	0.000253	2.533815	0.858480	-0.000101
 666	6.6168e+01	13.4964	57.864267	0.000334	3.344635	1.133193	-0.000134
 667	6.6267e+01	13.4579	57.791598	0.000182	1.824346	0.618105	-0.000073
 668	6.6367e+01	13.4226	57.678558	0.000284	2.837872	0.961497	-0.000114
 669	6.6466e+01	13.3729	57.521110	0.000395	3.952751	1.339228	-0.000158
 670	6.6566e+01	13.3408	57.432293	0.000223	2.229757	0.755462	-0.000089
 671	6.6665e+01	13.3007	57.295030	0.000345	3.445988	1.167532	-0.000138
 672	6.6764e+01	13.2670	57.194102	0.000253	2.533815	0.858480	-0.000101
 673	6.6864e+01	13.2173	57.077025	0.000294	2.939225	0.995836	-0.000118
 674	6.6963e+01	13.1804	56.939762	0.000345	3.445988	1.167532	-0.000138
 675	6.7063e+01	13.1339	56.859020	0.000203	2.027052	0.686784	-0.000081
 676	6.7162e+01	13.0970	56.737906	0.000304	3.040577	1.030176	-0.000122
 677	6.7262e+01	13.0649	56.584495	0.000385	3.851398	1.304889	-0.000154
 678	6.7362e+01	13.0216	56.471455	0.000284	2.837872	0.961497	-0.000114
 679	6.7461e+01	12.9798	56.382638	0.000223	2.229757	0.755462	-0.000089
 680	6.7561e+01	12.9462	56.281709	0.000253	2.533815	0.858480	-0.000101
 681	6.7660e+01	12.9077	56.144447	0.000345	3.445988	1.167532	-0.000138
 682	6.7760e+01	12.8724	56.031407	0.000284	2.837872	0.961497	-0.000114
 683	6.7859e+01	12.8162	55.894144	0.000345	3.445988	1.167532	-0.000138
 684	6.7959e+01	12.7889	55.781104	0.000284	2.837872	0.961497	-0.000114
 685	6.8058e+01	12.7472	55.684213	0.000243	2.432462	0.824140	-0.000097
 686	6.8157e+01	12.7007	55.567136	0.000294	2.939225	0.995836	-0.000118
 687	6.8257e+01	12.6670	55.433911	0.000334	3.344635	1.133193	-0.000134
 688	6.8356e+01	12.6205	55.312797	0.000304	3.040577	1.030176	-0.000122
 689	6.8456e+01	12.5868	55.183608	0.000324	3.243283	1.098854	-0.000130
 690	6.8555e+01	12.5499	55.070569	0.000284	2.837872	0.961497	-0.000114
 691	6.8655e+01	12.5050	54.921195	0.000375	3.750046	1.270550	-0.000150
 692	6.8754e+01	12.4649	54.856600	0.000162	1.621641	0.549427	-0.000065
 693	6.8854e+01	12.4248	54.715301	0.000355	3.547340	1.201871	-0.000142
 694	6.8954e+01	12.4007	54.569964	0.000365	3.648693	1.236211	-0.000146
 695	6.9053e+01	12.3494	54.497295	0.000182	1.824346	0.618105	-0.000073
 696	6.9153e+01	12.3109	54.376181	0.000304	3.040577	1.030176	-0.000122
 697	6.9252e+01	12.2756	54.242956	0.000334	3.344635	1.133193	-0.000134
 698	6.9352e+01	12.2146	54.101656	0.000355	3.547340	1.201871	-0.000142
 699	6.9451e+01	12.1825	53.996690	0.000264	2.635167	0.892819	-0.000105
 700	6.9550e+01	12.1473	53.851354	0.000365	3.648693	1.236211	-0.000146
 701	6.9650e+01	12.1087	53.746388	0.000264	2.635167	0.892819	-0.000105
 702	6.9749e+01	12.0654	53.625274	0.000304	3.040577	1.030176	-0.000122
 703	6.9849e+01	12.0350	53.483974	0.000355	3.547340	1.201871	-0.000142
 704	6.9948e+01	11.9900	53.370934	0.000284	2.837872	0.961497	-0.000114
 705	7.0048e+01	11.9451	53.241746	0.000324	3.243283	1.098854	-0.000130
 706	7.0147e+01	11.9130	53.124669	0.000294	2.939225	0.995836	-0.000118
 707	7.0247e+01	11.8697	53.035852	0.000223	2.229757	0.755462	-0.000089
 708	7.0347e+01	11.8392	52.898590	0.000345	3.445988	1.167532	-0.000138
 709	7.0446e+01	11.7863	52.753253	0.000365	3.648693	1.236211	-0.000146
 710	7.0546e+01	11.7526	52.680584	0.000182	1.824346	0.618105	-0.000073
 711	7.0645e+01	11.7125	52.519099	0.000405	4.054103	1.373567	-0.000162
 712	7.0745e+01	11.6660	52.397985	0.000304	3.040577	1.030176	-0.000122
 713	7.0844e+01	11.6259	52.276871	0.000304	3.040577	1.030176	-0.000122
 714	7.0944e+01	11.5810	52.175942	0.000253	2.533815	0.858480	-0.000101
 715	7.1043e+01	11.5505	52.006383	0.000426	4.256808	1.442246	-0.000170
 716	7.1142e+01	11.5056	51.909491	0.000243	2.432462	0.824140	-0.000097
 717	7.1242e+01	11.4799	51.776266	0.000334	3.344635	1.133193	-0.000134
 718	7.1341e+01	11.4286	51.651115	0.000314	3.141930	1.064515	-0.000126
 719	7.1441e+01	11.3917	51.534038	0.000294	2.939225	0.995836	-0.000118
 720	7.1540e+01	11.3580	51.433109	0.000253	2.533815	0.858480	-0.000101
 721	7.1640e+01	11.3114	51.263550	0.000426	4.256808	1.442246	-0.000170
 722	7.1740e+01	11.2762	51.122250	0.000355	3.547340	1.201871	-0.000142
 723	7.1839e+01	11.2248	51.025359	0.000243	2.432462	0.824140	-0.000097
 724	7.1939e+01	11.1943	50.908282	0.000294	2.939225	0.995836	-0.000118
 725	7.2038e+01	11.1462	50.771019	0.000345	3.445988	1.167532	-0.000138
 726	7.2138e+01	11.1125	50.641831	0.000324	3.243283	1.098854	-0.000130
 727	7.2237e+01	11.0676	50.492457	0.000375	3.750046	1.270550	-0.000150
 728	7.2337e+01	11.0387	50.411714	0.000203	2.027052	0.686784	-0.000081
 729	7.2436e+01	10.9826	50.302711	0.000274	2.736520	0.927158	-0.000110
 730	7.2535e+01	10.9521	50.121040	0.000456	4.560866	1.545263	-0.000183
 731	7.2635e+01	10.9104	50.016075	0.000264	2.635167	0.892819	-0.000105
 732	7.2734e+01	10.8671	49.870738	0.000365	3.648693	1.236211	-0.000146
 733	7.2834e+01	10.8398	49.781921	0.000223	2.229757	0.755462	-0.000089
 734	7.2933e+01	10.7901	49.644658	0.000345	3.445988	1.167532	-0.000138
 735	7.3033e+01	10.7628	49.479136	0.000416	4.155456	1.407907	-0.000166
 736	7.3132e+01	10.7099	49.358022	0.000304	3.040577	1.030176	-0.000122
 737	7.3232e+01	10.6762	49.220759	0.000345	3.445988	1.167532	-0.000138
 738	7.3332e+01	10.6361	49.107719	0.000284	2.837872	0.961497	-0.000114
 739	7.3431e+01	10.5992	48.942197	0.000416	4.155456	1.407907	-0.000166
 740	7.3531e+01	10.5526	48.841268	0.000253	2.533815	0.858480	-0.000101
 741	7.3630e+01	10.5109	48.740340	0.000253	2.533815	0.858480	-0.000101
 742	7.3730e+01	10.4772	48.615189	0.000314	3.141930	1.064515	-0.000126
 743	7.3829e+01	10.4323	48.477926	0.000345	3.445988	1.167532	-0.000138
 744	7.3928e+01	10.3986	48.320478	0.000395	3.952751	1.339228	-0.000158
 745	7.4028e+01	10.3553	48.207438	0.000284	2.837872	0.961497	-0.000114
 746	7.4127e+01	10.3184	48.054027	0.000385	3.851398	1.304889	-0.000154
 747	7.4227e+01	10.2767	47.900616	0.000385	3.851398	1.304889	-0.000154
 748	7.4326e+01	10.2350	47.803724	0.000243	2.432462	0.824140	-0.000097
 749	7.4426e+01	10.1933	47.666462	0.000345	3.445988	1.167532	-0.000138
 750	7.4525e+01	10.1484	47.504976	0.000405	4.054103	1.373567	-0.000162
 751	7.4625e+01	10.1211	47.400011	0.000264	2.635167	0.892819	-0.000105
 752	7.4725e+01	10.0682	47.226414	0.000436	4.358161	1.476585	-0.000174
 753	7.4824e+01	10.0297	47.121448	0.000264	2.635167	0.892819	-0.000105
 754	7.4924e+01	9.9928	46.972074	0.000375	3.750046	1.270550	-0.000150
 755	7.5023e+01	9.9495	46.842886	0.000324	3.243283	1.098854	-0.000130
 756	7.5123e+01	9.9093	46.717735	0.000314	3.141930	1.064515	-0.000126
 757	7.5222e+01	9.8789	46.568361	0.000375	3.750046	1.270550	-0.000150
 758	7.5322e+01	9.8388	46.427061	0.000355	3.547340	1.201871	-0.000142
 759	7.5421e+01	9.8019	46.277687	0.000375	3.750046	1.270550	-0.000150
 760	7.5520e+01	9.7569	46.184833	0.000233	2.331109	0.789801	-0.000093
 761	7.5620e+01	9.7120	46.015273	0.000426	4.256808	1.442246	-0.000170
 762	7.5719e+01	9.6799	45.869936	0.000365	3.648693	1.236211	-0.000146
 763	7.5819e+01	9.6430	45.785156	0.000213	2.128404	0.721123	-0.000085
 764	7.5918e+01	9.5965	45.623671	0.000405	4.054103	1.373567	-0.000162
 765	7.6018e+01	9.5532	45.482371	0.000355	3.547340	1.201871	-0.000142
 766	7.6118e+01	9.5147	45.349146	0.000334	3.344635	1.133193	-0.000134
 767	7.6217e+01	9.4778	45.236106	0.000284	2.837872	0.961497	-0.000114
 768	7.6317e+01	9.4377	45.127103	0.000274	2.736520	0.927158	-0.000110
 769	7.6416e+01	9.4024	44.949469	0.000446	4.459514	1.510924	-0.000179
 770	7.6516e+01	9.3527	44.800095	0.000375	3.750046	1.270550	-0.000150
 771	7.6615e+01	9.3158	44.687055	0.000284	2.837872	0.961497	-0.000114
 772	7.6715e+01	9.2789	44.574016	0.000284	2.837872	0.961497	-0.000114
 773	7.6814e+01	9.2356	44.388307	0.000466	4.662219	1.579602	-0.000187
 774	7.6913e+01	9.2019	44.271231	0.000294	2.939225	0.995836	-0.000118
 775	7.7013e+01	9.1570	44.105708	0.000416	4.155456	1.407907	-0.000166
 776	7.7112e+01	9.1088	43.996705	0.000274	2.736520	0.927158	-0.000110
 777	7.7212e+01	9.0832	43.859443	0.000345	3.445988	1.167532	-0.000138
 778	7.7311e+01	9.0382	43.706031	0.000385	3.851398	1.304889	-0.000154
 779	7.7411e+01	8.9965	43.584917	0.000304	3.040577	1.030176	-0.000122
 780	7.7510e+01	8.9532	43.419395	0.000416	4.155456	1.407907	-0.000166
 781	7.7610e+01	8.9211	43.294244	0.000314	3.141930	1.064515	-0.000126
 782	7.7710e+01	8.8826	43.189278	0.000264	2.635167	0.892819	-0.000105
 783	7.7809e+01	8.8377	43.011644	0.000446	4.459514	1.510924	-0.000179
 784	7.7909e+01	8.8008	42.858233	0.000385	3.851398	1.304889	-0.000154
 785	7.8008e+01	8.7607	42.733082	0.000314	3.141930	1.064515	-0.000126
 786	7.8108e+01	8.7206	42.624079	0.000274	2.736520	0.927158	-0.000110
 787	7.8207e+01	8.6853	42.482779	0.000355	3.547340	1.201871	-0.000142
 788	7.8306e+01	8.6484	42.329368	0.000385	3.851398	1.304889	-0.000154
 789	7.8406e+01	8.5923	42.208254	0.000304	3.040577	1.030176	-0.000122
 790	7.8505e+01	8.5618	42.034657	0.000436	4.358161	1.476585	-0.000174
 791	7.8605e+01	8.5201	41.889320	0.000365	3.648693	1.236211	-0.000146
 792	7.8704e+01	8.4800	41.772243	0.000294	2.939225	0.995836	-0.000118
 793	7.8804e+01	8.4335	41.626907	0.000365	3.648693	1.236211	-0.000146
 794	7.8903e+01	8.4030	41.485607	0.000355	3.547340	1.201871	-0.000142
 795	7.9003e+01	8.3629	41.328159	0.000395	3.952751	1.339228	-0.000158
 796	7.9103e+01	8.3196	41.186859	0.000355	3.547340	1.201871	-0.000142
 797	7.9202e+01	8.2762	41.102079	0.000213	2.128404	0.721123	-0.000085
 798	7.9302e+01	8.2377	40.912334	0.000476	4.763571	1.613942	-0.000191
 799	7.9401e+01	8.1960	40.779108	0.000334	3.344635	1.133193	-0.000134
 800	7.9501e+01	8.1655	40.613586	0.000416	4.155456	1.407907	-0.000166
 801	7.9600e+01	8.1254	40.464212	0.000375	3.750046	1.270550	-0.000150
 802	7.9700e+01	8.0757	40.363283	0.000253	2.533815	0.858480	-0.000101
 803	7.9799e+01	8.0484	40.230058	0.000334	3.344635	1.133193	-0.000134
 804	7.9898e+01	8.0003	40.088758	0.000355	3.547340	1.201871	-0.000142
 805	7.9998e+01	7.9602	39.939384	0.000375	3.750046	1.270550	-0.000150
 806	8.0097e+01	7.9185	39.737527	0.000507	5.067629	1.716959	-0.000203
 807	8.0197e+01	7.8864	39.612376	0.000314	3.141930	1.064515	-0.000126
 808	8.0296e+01	7.8431	39.487225	0.000314	3.141930	1.064515	-0.000126
 809	8.0396e+01	7.8062	39.362073	0.000314	3.141930	1.064515	-0.000126
 810	8.0496e+01	7.7677	39.212699	0.000375	3.750046	1.270550	-0.000150
 811	8.0595e+01	7.7212	39.039103	0.000436	4.358161	1.476585	-0.000174
 812	8.0695e+01	7.6859	38.873580	0.000416	4.155456	1.407907	-0.000166
 813	8.0794e+01	7.6522	38.764577	0.000274	2.736520	0.927158	-0.000110
 814	8.0894e+01	7.6057	38.590981	0.000436	4.358161	1.476585	-0.000174
 815	8.0993e+01	7.5591	38.445644	0.000365	3.648693	1.236211	-0.000146
 816	8.1093e+01	7.5287	38.324530	0.000304	3.040577	1.030176	-0.000122
 817	8.1192e+01	7.4950	38.146896	0.000446	4.459514	1.510924	-0.000179
 818	8.1291e+01	7.4533	38.021744	0.000314	3.141930	1.064515	-0.000126
 819	8.1391e+01	7.4083	37.872370	0.000375	3.750046	1.270550	-0.000150
 820	8.1490e+01	7.3682	37.698774	0.000436	4.358161	1.476585	-0.000174
 821	8.1590e+01	7.3249	37.577659	0.000304	3.040577	1.030176	-0.000122
 822	8.1689e+01	7.2832	37.416174	0.000405	4.054103	1.373567	-0.000162
 823	8.1789e+01	7.2479	37.291023	0.000314	3.141930	1.064515	-0.000126
 824	8.1888e+01	7.2094	37.153760	0.000345	3.445988	1.167532	-0.000138
 825	8.1988e+01	7.1661	37.008423	0.000365	3.648693	1.236211	-0.000146
 826	8.2088e+01	7.1228	36.875198	0.000334	3.344635	1.133193	-0.000134
 827	8.2187e+01	7.0811	36.705638	0.000426	4.256808	1.442246	-0.000170
 828	8.2287e+01	7.0538	36.556264	0.000375	3.750046	1.270550	-0.000150
 829	8.2386e+01	7.0009	36.431113	0.000314	3.141930	1.064515	-0.000126
 830	8.2486e+01	6.9656	36.301925	0.000324	3.243283	1.098854	-0.000130
 831	8.2585e+01	6.9239	36.112179	0.000476	4.763571	1.613942	-0.000191
 832	8.2684e+01	6.8902	35.970879	0.000355	3.547340	1.201871	-0.000142
 833	8.2784e+01	6.8485	35.817468	0.000385	3.851398	1.304889	-0.000154
 834	8.2883e+01	6.8084	35.660020	0.000395	3.952751	1.339228	-0.000158
 835	8.2983e+01	6.7683	35.530832	0.000324	3.243283	1.098854	-0.000130
 836	8.3082e+01	6.7330	35.353198	0.000446	4.459514	1.510924	-0.000179
 837	8.3182e+01	6.6848	35.224009	0.000324	3.243283	1.098854	-0.000130
 838	8.3281e+01	6.6479	35.078672	0.000365	3.648693	1.236211	-0.000146
 839	8.3381e+01	6.6062	34.961595	0.000294	2.939225	0.995836	-0.000118
 840	8.3481e+01	6.5725	34.804147	0.000395	3.952751	1.339228	-0.000158
 841	8.3580e+01	6.5228	34.626513	0.000446	4.459514	1.510924	-0.000179
 842	8.3680e+01	6.4875	34.460991	0.000416	4.155456	1.407907	-0.000166
 843	8.3779e+01	6.4474	34.347951	0.000284	2.837872	0.961497	-0.000114
 844	8.3879e+01	6.4105	34.190503	0.000395	3.952751	1.339228	-0.000158
 845	8.3978e+01	6.3800	34.004794	0.000466	4.662219	1.579602	-0.000187
 846	8.4078e+01	6.3303	33.891755	0.000284	2.837872	0.961497	-0.000114
 847	8.4177e+01	6.2902	33.742380	0.000375	3.750046	1.270550	-0.000150
 848	8.4276e+01	6.2421	33.556672	0.000466	4.662219	1.579602	-0.000187
 849	8.4376e+01	6.2148	33.435558	0.000304	3.040577	1.030176	-0.000122
 850	8.4475e+01	6.1763	33.302333	0.000334	3.344635	1.133193	-0.000134
 851	8.4575e+01	6.1314	33.161033	0.000355	3.547340	1.201871	-0.000142
 852	8.4674e+01	6.0945	33.003585	0.000395	3.952751	1.339228	-0.000158
 853	8.4774e+01	6.0576	32.817876	0.000466	4.662219	1.579602	-0.000187
 854	8.4874e+01	6.0095	32.672540	0.000365	3.648693	1.236211	-0.000146
 855	8.4973e+01	5.9726	32.494906	0.000446	4.459514	1.510924	-0.000179
 856	8.5073e+01	5.9421	32.349569	0.000365	3.648693	1.236211	-0.000146
 857	8.5172e+01	5.8891	32.236529	0.000284	2.837872	0.961497	-0.000114
 858	8.5272e+01	5.8442	32.030635	0.000517	5.168982	1.751298	-0.000207
 859	8.5371e+01	5.8105	31.929707	0.000253	2.533815	0.858480	-0.000101
 860	8.5471e+01	5.7736	31.756110	0.000436	4.358161	1.476585	-0.000174
 861	8.5570e+01	5.7399	31.594624	0.000405	4.054103	1.373567	-0.000162
 862	8.5669e+01	5.6902	31.425065	0.000426	4.256808	1.442246	-0.000170
 863	8.5769e+01	5.6533	31.307988	0.000294	2.939225	0.995836	-0.000118
 864	8.5868e+01	5.6004	31.130354	0.000446	4.459514	1.510924	-0.000179
 865	8.5968e+01	5.5763	30.976943	0.000385	3.851398	1.304889	-0.000154
 866	8.6067e+01	5.5330	30.815457	0.000405	4.054103	1.373567	-0.000162
 867	8.6167e+01	5.4961	30.678194	0.000345	3.445988	1.167532	-0.000138
 868	8.6266e+01	5.4528	30.472301	0.000517	5.168982	1.751298	-0.000207
 869	8.6366e+01	5.4111	30.335038	0.000345	3.445988	1.167532	-0.000138
 870	8.6466e+01	5.3774	30.161441	0.000436	4.358161	1.476585	-0.000174
 871	8.6565e+01	5.3341	29.999956	0.000405	4.054103	1.373567	-0.000162
 872	8.6665e+01	5.2972	29.882879	0.000294	2.939225	0.995836	-0.000118
 873	8.6764e+01	5.2587	29.741579	0.000355	3.547340	1.201871	-0.000142
 874	8.6864e+01	5.2138	29.559908	0.000456	4.560866	1.545263	-0.000183
 875	8.6963e+01	5.1785	29.402460	0.000395	3.952751	1.339228	-0.000158
 876	8.7063e+01	5.1416	29.253086	0.000375	3.750046	1.270550	-0.000150
 877	8.7162e+01	5.0950	29.087563	0.000416	4.155456	1.407907	-0.000166
 878	8.7261e+01	5.0581	28.930115	0.000395	3.952751	1.339228	-0.000158
 879	8.7361e+01	5.0164	28.764592	0.000416	4.155456	1.407907	-0.000166
 880	8.7460e+01	4.9683	28.611181	0.000385	3.851398	1.304889	-0.000154
 881	8.7560e+01	4.9410	28.449696	0.000405	4.054103	1.373567	-0.000162
 882	8.7659e+01	4.8913	28.243802	0.000517	5.168982	1.751298	-0.000207
 883	8.7759e+01	4.8576	28.090390	0.000385	3.851398	1.304889	-0.000154
 884	8.7859e+01	4.8191	27.936979	0.000385	3.851398	1.304889	-0.000154
 885	8.7958e+01	4.7870	27.791642	0.000365	3.648693	1.236211	-0.000146
 886	8.8058e+01	4.7485	27.670528	0.000304	3.040577	1.030176	-0.000122
 887	8.8157e+01	4.6956	27.468672	0.000507	5.067629	1.716959	-0.000203
 888	8.8257e+01	4.6555	27.351595	0.000294	2.939225	0.995836	-0.000118
 889	8.8356e+01	4.6122	27.149738	0.000507	5.067629	1.716959	-0.000203
 890	8.8456e+01	4.5817	26.988252	0.000405	4.054103	1.373567	-0.000162
 891	8.8555e+01	4.5336	26.834841	0.000385	3.851398	1.304889	-0.000154
 892	8.8654e+01	4.5015	26.681430	0.000385	3.851398	1.304889	-0.000154
 893	8.8754e+01	4.4614	26.491685	0.000476	4.763571	1.613942	-0.000191
 894	8.8853e+01	4.4132	26.366534	0.000314	3.141930	1.064515	-0.000126
 895	8.8953e+01	4.3844	26.164677	0.000507	5.067629	1.716959	-0.000203
 896	8.9052e+01	4.3378	26.023377	0.000355	3.547340	1.201871	-0.000142
 897	8.9152e+01	4.2897	25.857854	0.000416	4.155456	1.407907	-0.000166
 898	8.9251e+01	4.2624	25.651960	0.000517	5.168982	1.751298	-0.000207
 899	8.9351e+01	4.2159	25.506624	0.000365	3.648693	1.236211	-0.000146
 900	8.9451e+01	4.1790	25.369361	0.000345	3.445988	1.167532	-0.000138
 901	8.9550e+01	4.1373	25.203838	0.000416	4.155456	1.407907	-0.000166
 902	8.9650e+01	4.1020	25.001982	0.000507	5.067629	1.716959	-0.000203
 903	8.9749e+01	4.0571	24.880868	0.000304	3.040577	1.030176	-0.000122
 904	8.9849e+01	4.0154	24.695159	0.000466	4.662219	1.579602	-0.000187
 905	8.9948e+01	3.9689	24.517525	0.000446	4.459514	1.510924	-0.000179
 906	9.0047e+01	3.9400	24.327780	0.000476	4.763571	1.613942	-0.000191
 907	9.0147e+01	3.8935	24.154183	0.000436	4.358161	1.476585	-0.000174
 908	9.0246e+01	3.8614	24.053255	0.000253	2.533815	0.858480	-0.000101
 909	9.0346e+01	3.8213	23.827175	0.000568	5.675745	1.922994	-0.000227
 910	9.0445e+01	3.7828	23.665690	0.000405	4.054103	1.373567	-0.000162
 911	9.0545e+01	3.7363	23.500167	0.000416	4.155456	1.407907	-0.000166
 912	9.0644e+01	3.6962	23.334645	0.000416	4.155456	1.407907	-0.000166
 913	9.0744e+01	3.6464	23.108565	0.000568	5.675745	1.922994	-0.000227
 914	9.0844e+01	3.6191	22.939005	0.000426	4.256808	1.442246	-0.000170
 915	9.0943e+01	3.5871	22.813854	0.000314	3.141930	1.064515	-0.000126
 916	9.1043e+01	3.5421	22.599886	0.000537	5.371687	1.819977	-0.000215
 917	9.1142e+01	3.4972	22.482809	0.000294	2.939225	0.995836	-0.000118
 918	9.1242e+01	3.4523	22.313249	0.000426	4.256808	1.442246	-0.000170
 919	9.1341e+01	3.4266	22.123504	0.000476	4.763571	1.613942	-0.000191
 920	9.1441e+01	3.3849	21.957981	0.000416	4.155456	1.407907	-0.000166
 921	9.1540e+01	3.3400	21.764199	0.000486	4.864924	1.648281	-0.000195
 922	9.1639e+01	3.3047	21.614825	0.000375	3.750046	1.270550	-0.000150
 923	9.1739e+01	3.2662	21.449302	0.000416	4.155456	1.407907	-0.000166
 924	9.1838e+01	3.2277	21.223223	0.000568	5.675745	1.922994	-0.000227
 925	9.1938e+01	3.1828	21.049626	0.000436	4.358161	1.476585	-0.000174
 926	9.2037e+01	3.1427	20.920437	0.000324	3.243283	1.098854	-0.000130
 927	9.2137e+01	3.1090	20.706469	0.000537	5.371687	1.819977	-0.000215
 928	9.2237e+01	3.0721	20.561132	0.000365	3.648693	1.236211	-0.000146
 929	9.2336e+01	3.0192	20.391573	0.000426	4.256808	1.442246	-0.000170
 930	9.2436e+01	2.9823	20.145307	0.000618	6.182508	2.094690	-0.000248
 931	9.2535e+01	2.9438	20.044379	0.000253	2.533815	0.858480	-0.000101
 932	9.2635e+01	2.9133	19.862708	0.000456	4.560866	1.545263	-0.000183
 933	9.2734e+01	2.8603	19.652777	0.000527	5.270334	1.785638	-0.000211
 934	9.2834e+01	2.8331	19.499366	0.000385	3.851398	1.304889	-0.000154
 935	9.2933e+01	2.7753	19.329806	0.000426	4.256808	1.442246	-0.000170
 936	9.3032e+01	2.7481	19.127949	0.000507	5.067629	1.716959	-0.000203
 937	9.3132e+01	2.7031	18.909944	0.000547	5.473039	1.854316	-0.000219
 938	9.3231e+01	2.6710	18.768644	0.000355	3.547340	1.201871	-0.000142
 939	9.3331e+01	2.6245	18.578899	0.000476	4.763571	1.613942	-0.000191
 940	9.3430e+01	2.5892	18.465859	0.000284	2.837872	0.961497	-0.000114
 941	9.3530e+01	2.5459	18.264002	0.000507	5.067629	1.716959	-0.000203
 942	9.3629e+01	2.4946	18.058108	0.000517	5.168982	1.751298	-0.000207
 943	9.3729e+01	2.4593	17.892586	0.000416	4.155456	1.407907	-0.000166
 944	9.3829e+01	2.4304	17.678617	0.000537	5.371687	1.819977	-0.000215
 945	9.3928e+01	2.3871	17.533281	0.000365	3.648693	1.236211	-0.000146
 946	9.4028e+01	2.3422	17.351609	0.000456	4.560866	1.545263	-0.000183
 947	9.4127e+01	2.3069	17.141678	0.000527	5.270334	1.785638	-0.000211
 948	9.4227e+01	2.2684	16.968082	0.000436	4.358161	1.476585	-0.000174
 949	9.4326e+01	2.2251	16.830819	0.000345	3.445988	1.167532	-0.000138
 950	9.4425e+01	2.1882	16.628962	0.000507	5.067629	1.716959	-0.000203
 951	9.4525e+01	2.1417	16.431142	0.000497	4.966277	1.682620	-0.000199
 952	9.4624e+01	2.0999	16.237360	0.000486	4.864924	1.648281	-0.000195
 953	9.4724e+01	2.0646	16.100097	0.000345	3.445988	1.167532	-0.000138
 954	9.4823e+01	2.0229	15.914389	0.000466	4.662219	1.579602	-0.000187
 955	9.4923e+01	1.9876	15.668124	0.000618	6.182508	2.094690	-0.000248
 956	9.5022e+01	1.9411	15.490490	0.000446	4.459514	1.510924	-0.000179
 957	9.5122e+01	1.9074	15.341116	0.000375	3.750046	1.270550	-0.000150
 958	9.5222e+01	1.8705	15.151370	0.000476	4.763571	1.613942	-0.000191
 959	9.5321e+01	1.8256	14.961625	0.000476	4.763571	1.613942	-0.000191
 960	9.5421e+01	1.7887	14.767843	0.000486	4.864924	1.648281	-0.000195
 961	9.5520e+01	1.7518	14.582134	0.000466	4.662219	1.579602	-0.000187
 962	9.5620e+01	1.7037	14.392389	0.000476	4.763571	1.613942	-0.000191
 963	9.5719e+01	1.6716	14.238978	0.000385	3.851398	1.304889	-0.000154
 964	9.5819e+01	1.6235	14.037121	0.000507	5.067629	1.716959	-0.000203
 965	9.5918e+01	1.5882	13.811041	0.000568	5.675745	1.922994	-0.000227
 966	9.6017e+01	1.5545	13.641482	0.000426	4.256808	1.442246	-0.000170
 967	9.6117e+01	1.4984	13.463848	0.000446	4.459514	1.510924	-0.000179
 968	9.6216e+01	1.4679	13.298325	0.000416	4.155456	1.407907	-0.000166
 969	9.6316e+01	1.4294	13.092431	0.000517	5.168982	1.751298	-0.000207
 970	9.6415e+01	1.3909	12.926909	0.000416	4.155456	1.407907	-0.000166
 971	9.6515e+01	1.3476	12.704866	0.000557	5.574392	1.888655	-0.000223
 972	9.6615e+01	1.3010	12.507047	0.000497	4.966277	1.682620	-0.000199
 973	9.6714e+01	1.2689	12.313264	0.000486	4.864924	1.648281	-0.000195
 974	9.6814e+01	1.2272	12.103333	0.000527	5.270334	1.785638	-0.000211
 975	9.6913e+01	1.1855	11.925699	0.000446	4.459514	1.510924	-0.000179
 976	9.7013e+01	1.1583	11.735954	0.000476	4.763571	1.613942	-0.000191
 977	9.7112e+01	1.0989	11.538134	0.000497	4.966277	1.682620	-0.000199
 978	9.7212e+01	1.0636	11.380686	0.000395	3.952751	1.339228	-0.000158
 979	9.7311e+01	1.0219	11.150569	0.000578	5.777097	1.957334	-0.000231
 980	9.7410e+01	0.9882	10.968898	0.000456	4.560866	1.545263	-0.000183
 981	9.7510e+01	0.9529	10.750892	0.000547	5.473039	1.854316	-0.000219
 982	9.7609e+01	0.9160	10.512701	0.000598	5.979802	2.026012	-0.000239
 983	9.7709e+01	0.8727	10.351216	0.000405	4.054103	1.373567	-0.000162
 984	9.7808e+01	0.8262	10.149359	0.000507	5.067629	1.716959	-0.000203
 985	9.7908e+01	0.7909	9.999985	0.000375	3.750046	1.270550	-0.000150
 986	9.8007e+01	0.7428	9.745646	0.000639	6.385213	2.163369	-0.000256
 987	9.8107e+01	0.7155	9.555900	0.000476	4.763571	1.613942	-0.000191
 988	9.8207e+01	0.6561	9.386341	0.000426	4.256808	1.442246	-0.000170
 989	9.8306e+01	0.6369	9.164298	0.000557	5.574392	1.888655	-0.000223
 990	9.8406e+01	0.5888	8.958404	0.000517	5.168982	1.751298	-0.000207
 991	9.8505e+01	0.5535	8.780770	0.000446	4.459514	1.510924	-0.000179
 992	9.8605e+01	0.5085	8.538542	0.000608	6.081155	2.060351	-0.000243
 993	9.8704e+01	0.4700	8.397242	0.000355	3.547340	1.201871	-0.000142
 994	9.8803e+01	0.4315	8.183274	0.000537	5.371687	1.819977	-0.000215
 995	9.8903e+01	0.3946	7.997566	0.000466	4.662219	1.579602	-0.000187
 996	9.9002e+01	0.3433	7.815895	0.000456	4.560866	1.545263	-0.000183
 997	9.9102e+01	0.3192	7.549444	0.000669	6.689270	2.266386	-0.000268
 998	9.9201e+01	0.2759	7.404107	0.000365	3.648693	1.236211	-0.000146
 999	9.9301e+01	0.2374	7.178027	0.000568	5.675745	1.922994	-0.000227
1000	9.9400e+01	0.1989	6.964059	0.000537	5.371687	1.819977	-0.000215
1001	9.9500e+01	0.1492	6.770277	0.000486	4.864924	1.648281	-0.000195
1002	9.9600e+01	0.1107	6.584568	0.000466	4.662219	1.579602	-0.000187
1003	9.9699e+01	0.0690	6.374637	0.000527	5.270334	1.785638	-0.000211
1004	9.9799e+01	0.0417	6.152595	0.000557	5.574392	1.888655	-0.000223
1005	9.9898e+01	0.0096	5.995147	0.000395	3.952751	1.339228	-0.000158
1006	9.9998e+01	-0.0433	5.805401	0.000476	4.763571	1.613942	-0.000191
1007	1.0010e+02	-0.0786	5.555099	0.000628	6.283860	2.129029	-0.000252
1008	1.0020e+02	-0.1235	5.365353	0.000476	4.763571	1.613942	-0.000191
1009	1.0030e+02	-0.1604	5.191757	0.000436	4.358161	1.476585	-0.000174
1010	1.0040e+02	-0.1957	5.014123	0.000446	4.459514	1.510924	-0.000179
1011	1.0050e+02	-0.2342	4.796117	0.000547	5.473039	1.854316	-0.000219
1012	1.0059e+02	-0.2759	4.529666	0.000669	6.689270	2.266386	-0.000268
1013	1.0069e+02	-0.3241	4.343958	0.000466	4.662219	1.579602	-0.000187
1014	1.0079e+02	-0.3577	4.134027	0.000527	5.270334	1.785638	-0.000211
1015	1.0089e+02	-0.3978	3.964467	0.000426	4.256808	1.442246	-0.000170
1016	1.0099e+02	-0.4412	3.722239	0.000608	6.081155	2.060351	-0.000243
1017	1.0109e+02	-0.4797	3.540568	0.000456	4.560866	1.545263	-0.000183
1018	1.0119e+02	-0.5198	3.282191	0.000649	6.486565	2.197708	-0.000260
1019	1.0129e+02	-0.5647	3.124743	0.000395	3.952751	1.339228	-0.000158
1020	1.0139e+02	-0.5920	2.886552	0.000598	5.979802	2.026012	-0.000239
1021	1.0149e+02	-0.6321	2.664510	0.000557	5.574392	1.888655	-0.000223
1022	1.0159e+02	-0.6850	2.482838	0.000456	4.560866	1.545263	-0.000183
1023	1.0169e+02	-0.7155	2.272907	0.000527	5.270334	1.785638	-0.000211
1024	1.0179e+02	-0.7556	2.034716	0.000598	5.979802	2.026012	-0.000239
1025	1.0189e+02	-0.7909	1.844971	0.000476	4.763571	1.613942	-0.000191
1026	1.0199e+02	-0.8390	1.622929	0.000557	5.574392	1.888655	-0.000223
1027	1.0209e+02	-0.8791	1.425109	0.000497	4.966277	1.682620	-0.000199
1028	1.0219e+02	-0.9080	1.178844	0.000618	6.182508	2.094690	-0.000248
1029	1.0229e+02	-0.9545	0.993135	0.000466	4.662219	1.579602	-0.000187
1030	1.0239e+02	-1.0010	0.783204	0.000527	5.270334	1.785638	-0.000211
1031	1.0248e+02	-1.0379	0.569236	0.000537	5.371687	1.819977	-0.000215
1032	1.0258e+02	-1.0764	0.343157	0.000568	5.675745	1.922994	-0.000227
1033	1.0268e+02	-1.1149	0.117077	0.000568	5.675745	1.922994	-0.000227
1034	1.0278e+02	-1.1567	-0.072668	0.000476	4.763571	1.613942	-0.000191
1035	1.0288e+02	-1.1887	-0.298748	0.000568	5.675745	1.922994	-0.000227
1036	1.0298e+02	-1.2337	-0.484456	0.000466	4.662219	1.579602	-0.000187
1037	1.0308e+02	-1.2770	-0.714573	0.000578	5.777097	1.957334	-0.000231
1038	1.0318e+02	-1.3171	-0.932578	0.000547	5.473039	1.854316	-0.000219
1039	1.0328e+02	-1.3508	-1.142509	0.000527	5.270334	1.785638	-0.000211
1040	1.0338e+02	-1.3909	-1.364552	0.000557	5.574392	1.888655	-0.000223
1041	1.0348e+02	-1.4230	-1.590631	0.000568	5.675745	1.922994	-0.000227
1042	1.0358e+02	-1.4679	-1.800563	0.000527	5.270334	1.785638	-0.000211
1043	1.0368e+02	-1.5240	-1.986271	0.000466	4.662219	1.579602	-0.000187
1044	1.0378e+02	-1.5417	-2.212350	0.000568	5.675745	1.922994	-0.000227
1045	1.0388e+02	-1.5866	-2.410170	0.000497	4.966277	1.682620	-0.000199
1046	1.0398e+02	-1.6315	-2.668547	0.000649	6.486565	2.197708	-0.000260
1047	1.0408e+02	-1.6764	-2.850218	0.000456	4.560866	1.545263	-0.000183
1048	1.0418e+02	-1.7069	-3.068223	0.000547	5.473039	1.854316	-0.000219
1049	1.0428e+02	-1.7518	-3.270080	0.000507	5.067629	1.716959	-0.000203
1050	1.0438e+02	-1.7919	-3.471937	0.000507	5.067629	1.716959	-0.000203
1051	1.0447e+02	-1.8320	-3.689942	0.000547	5.473039	1.854316	-0.000219
1052	1.0457e+02	-1.8657	-3.924096	0.000588	5.878450	1.991673	-0.000235
1053	1.0467e+02	-1.9074	-4.134027	0.000527	5.270334	1.785638	-0.000211
1054	1.0477e+02	-1.9588	-4.364144	0.000578	5.777097	1.957334	-0.000231
1055	1.0487e+02	-1.9860	-4.561963	0.000497	4.966277	1.682620	-0.000199
1056	1.0497e+02	-2.0406	-4.767857	0.000517	5.168982	1.751298	-0.000207
1057	1.0507e+02	-2.0663	-5.002011	0.000588	5.878450	1.991673	-0.000235
1058	1.0517e+02	-2.1031	-5.240202	0.000598	5.979802	2.026012	-0.000239
1059	1.0527e+02	-2.1529	-5.413799	0.000436	4.358161	1.476585	-0.000174
1060	1.0537e+02	-2.1930	-5.627767	0.000537	5.371687	1.819977	-0.000215
1061	1.0547e+02	-2.2379	-5.829624	0.000507	5.067629	1.716959	-0.000203
1062	1.0557e+02	-2.2764	-6.075889	0.000618	6.182508	2.094690	-0.000248
1063	1.0567e+02	-2.3101	-6.253523	0.000446	4.459514	1.510924	-0.000179
1064	1.0577e+02	-2.3486	-6.427120	0.000436	4.358161	1.476585	-0.000174
1065	1.0587e+02	-2.3935	-6.641088	0.000537	5.371687	1.819977	-0.000215
1066	1.0597e+02	-2.4320	-6.883316	0.000608	6.081155	2.060351	-0.000243
1067	1.0607e+02	-2.4657	-7.044802	0.000405	4.054103	1.373567	-0.000162
1068	1.0617e+02	-2.5074	-7.287030	0.000608	6.081155	2.060351	-0.000243
1069	1.0627e+02	-2.5491	-7.480813	0.000486	4.864924	1.648281	-0.000195
1070	1.0637e+02	-2.5973	-7.666521	0.000466	4.662219	1.579602	-0.000187
1071	1.0647e+02	-2.6261	-7.896638	0.000578	5.777097	1.957334	-0.000231
1072	1.0656e+02	-2.6678	-8.070234	0.000436	4.358161	1.476585	-0.000174
1073	1.0666e+02	-2.7112	-8.332648	0.000659	6.587918	2.232047	-0.000264
1074	1.0676e+02	-2.7481	-8.482022	0.000375	3.750046	1.270550	-0.000150
1075	1.0686e+02	-2.7914	-8.708102	0.000568	5.675745	1.922994	-0.000227
1076	1.0696e+02	-2.8299	-8.926107	0.000547	5.473039	1.854316	-0.000219
1077	1.0706e+02	-2.8652	-9.156224	0.000578	5.777097	1.957334	-0.000231
1078	1.0716e+02	-2.9133	-9.345969	0.000476	4.763571	1.613942	-0.000191
1079	1.0726e+02	-2.9582	-9.559937	0.000537	5.371687	1.819977	-0.000215
1080	1.0736e+02	-2.9919	-9.737571	0.000446	4.459514	1.510924	-0.000179
1081	1.0746e+02	-3.0208	-9.947502	0.000527	5.270334	1.785638	-0.000211
1082	1.0756e+02	-3.0593	-10.217991	0.000679	6.790623	2.300725	-0.000272
1083	1.0766e+02	-3.1010	-10.363327	0.000365	3.648693	1.236211	-0.000146
1084	1.0776e+02	-3.1523	-10.561147	0.000497	4.966277	1.682620	-0.000199
1085	1.0786e+02	-3.1876	-10.775115	0.000537	5.371687	1.819977	-0.000215
1086	1.0796e+02	-3.2213	-10.968898	0.000486	4.864924	1.648281	-0.000195
1087	1.0806e+02	-3.2710	-11.182866	0.000537	5.371687	1.819977	-0.000215
1088	1.0816e+02	-3.3079	-11.376649	0.000486	4.864924	1.648281	-0.000195
1089	1.0826e+02	-3.3593	-11.554282	0.000446	4.459514	1.510924	-0.000179
1090	1.0836e+02	-3.3833	-11.800548	0.000618	6.182508	2.094690	-0.000248
1091	1.0845e+02	-3.4347	-11.933773	0.000334	3.344635	1.133193	-0.000134
1092	1.0855e+02	-3.4603	-12.167927	0.000588	5.878450	1.991673	-0.000235
1093	1.0865e+02	-3.4940	-12.369784	0.000507	5.067629	1.716959	-0.000203
1094	1.0875e+02	-3.5389	-12.567604	0.000497	4.966277	1.682620	-0.000199
1095	1.0885e+02	-3.5823	-12.737163	0.000426	4.256808	1.442246	-0.000170
1096	1.0895e+02	-3.6256	-12.955169	0.000547	5.473039	1.854316	-0.000219
1097	1.0905e+02	-3.6641	-13.165100	0.000527	5.270334	1.785638	-0.000211
1098	1.0915e+02	-3.6978	-13.318511	0.000385	3.851398	1.304889	-0.000154
1099	1.0925e+02	-3.7507	-13.512293	0.000486	4.864924	1.648281	-0.000195
1100	1.0935e+02	-3.7796	-13.730299	0.000547	5.473039	1.854316	-0.000219
1101	1.0945e+02	-3.8229	-13.916007	0.000466	4.662219	1.579602	-0.000187
1102	1.0955e+02	-3.8726	-14.073455	0.000395	3.952751	1.339228	-0.000158
1103	1.0965e+02	-3.8887	-14.291461	0.000547	5.473039	1.854316	-0.000219
1104	1.0975e+02	-3.9448	-14.481206	0.000476	4.763571	1.613942	-0.000191
1105	1.0985e+02	-3.9881	-14.670951	0.000476	4.763571	1.613942	-0.000191
1106	1.0995e+02	-4.0282	-14.848585	0.000446	4.459514	1.510924	-0.000179
1107	1.1005e+02	-4.0683	-15.070628	0.000557	5.574392	1.888655	-0.000223
1108	1.1015e+02	-4.1036	-15.252299	0.000456	4.560866	1.545263	-0.000183
1109	1.1025e+02	-4.1293	-15.442044	0.000476	4.763571	1.613942	-0.000191
1110	1.1035e+02	-4.1838	-15.639864	0.000497	4.966277	1.682620	-0.000199
1111	1.1044e+02	-4.2239	-15.825572	0.000466	4.662219	1.579602	-0.000187
1112	1.1054e+02	-4.2657	-16.015317	0.000476	4.763571	1.613942	-0.000191
1113	1.1064e+02	-4.3042	-16.180840	0.000416	4.155456	1.407907	-0.000166
1114	1.1074e+02	-4.3362	-16.358474	0.000446	4.459514	1.510924	-0.000179
1115	1.1084e+02	-4.3844	-16.548219	0.000476	4.763571	1.613942	-0.000191
1116	1.1094e+02	-4.4277	-16.774299	0.000568	5.675745	1.922994	-0.000227
1117	1.1104e+02	-4.4694	-16.875227	0.000253	2.533815	0.858480	-0.000101
1118	1.1114e+02	-4.5031	-17.137641	0.000659	6.587918	2.232047	-0.000264
1119	1.1124e+02	-4.5400	-17.299127	0.000405	4.054103	1.373567	-0.000162
1120	1.1134e+02	-4.5721	-17.529243	0.000578	5.777097	1.957334	-0.000231
1121	1.1144e+02	-4.6170	-17.666506	0.000345	3.445988	1.167532	-0.000138
1122	1.1154e+02	-4.6619	-17.860289	0.000486	4.864924	1.648281	-0.000195
1123	1.1164e+02	-4.6988	-18.033885	0.000436	4.358161	1.476585	-0.000174
1124	1.1174e+02	-4.7389	-18.211519	0.000446	4.459514	1.510924	-0.000179
1125	1.1184e+02	-4.7774	-18.381079	0.000426	4.256808	1.442246	-0.000170
1126	1.1194e+02	-4.8255	-18.574862	0.000486	4.864924	1.648281	-0.000195
1127	1.1204e+02	-4.8608	-18.744421	0.000426	4.256808	1.442246	-0.000170
1128	1.1214e+02	-4.8993	-18.881684	0.000345	3.445988	1.167532	-0.000138
1129	1.1224e+02	-4.9491	-19.055281	0.000436	4.358161	1.476585	-0.000174
1130	1.1234e+02	-4.9876	-19.249063	0.000486	4.864924	1.648281	-0.000195
1131	1.1244e+02	-5.0132	-19.446883	0.000497	4.966277	1.682620	-0.000199
1132	1.1253e+02	-5.0646	-19.620480	0.000436	4.358161	1.476585	-0.000174
1133	1.1263e+02	-5.1031	-19.794077	0.000436	4.358161	1.476585	-0.000174
1134	1.1273e+02	-5.1368	-19.987859	0.000486	4.864924	1.648281	-0.000195
1135	1.1283e+02	-5.1817	-20.145307	0.000395	3.952751	1.339228	-0.000158
1136	1.1293e+02	-5.2298	-20.322941	0.000446	4.459514	1.510924	-0.000179
1137	1.1303e+02	-5.2619	-20.500575	0.000446	4.459514	1.510924	-0.000179
1138	1.1313e+02	-5.2956	-20.682246	0.000456	4.560866	1.545263	-0.000183
1139	1.1323e+02	-5.3453	-20.851806	0.000426	4.256808	1.442246	-0.000170
1140	1.1333e+02	-5.3774	-21.053663	0.000507	5.067629	1.716959	-0.000203
1141	1.1343e+02	-5.4191	-21.227260	0.000436	4.358161	1.476585	-0.000174
1142	1.1353e+02	-5.4576	-21.348374	0.000304	3.040577	1.030176	-0.000122
1143	1.1363e+02	-5.5025	-21.542156	0.000486	4.864924	1.648281	-0.000195
1144	1.1373e+02	-5.5330	-21.739976	0.000497	4.966277	1.682620	-0.000199
1145	1.1383e+02	-5.5827	-21.889350	0.000375	3.750046	1.270550	-0.000150
1146	1.1393e+02	-5.6132	-22.034687	0.000365	3.648693	1.236211	-0.000146
1147	1.1403e+02	-5.6613	-22.228469	0.000486	4.864924	1.648281	-0.000195
1148	1.1413e+02	-5.7030	-22.369769	0.000355	3.547340	1.201871	-0.000142
1149	1.1423e+02	-5.7367	-22.587774	0.000547	5.473039	1.854316	-0.000219
1150	1.1433e+02	-5.7784	-22.749260	0.000405	4.054103	1.373567	-0.000162
1151	1.1442e+02	-5.8202	-22.926894	0.000446	4.459514	1.510924	-0.000179
1152	1.1452e+02	-5.8458	-23.092416	0.000416	4.155456	1.407907	-0.000166
1153	1.1462e+02	-5.8956	-23.257939	0.000416	4.155456	1.407907	-0.000166
1154	1.1472e+02	-5.9260	-23.439610	0.000456	4.560866	1.545263	-0.000183
1155	1.1482e+02	-5.9742	-23.605133	0.000416	4.155456	1.407907	-0.000166
1156	1.1492e+02	-6.0111	-23.786804	0.000456	4.560866	1.545263	-0.000183
1157	1.1502e+02	-6.0624	-23.907918	0.000304	3.040577	1.030176	-0.000122
1158	1.1512e+02	-6.1041	-24.069403	0.000405	4.054103	1.373567	-0.000162
1159	1.1522e+02	-6.1314	-24.226852	0.000395	3.952751	1.339228	-0.000158
1160	1.1532e+02	-6.1779	-24.400448	0.000436	4.358161	1.476585	-0.000174
1161	1.1542e+02	-6.2180	-24.578082	0.000446	4.459514	1.510924	-0.000179
1162	1.1552e+02	-6.2533	-24.747642	0.000426	4.256808	1.442246	-0.000170
1163	1.1562e+02	-6.2966	-24.917202	0.000426	4.256808	1.442246	-0.000170
1164	1.1572e+02	-6.3367	-25.074650	0.000395	3.952751	1.339228	-0.000158
1165	1.1582e+02	-6.3752	-25.199801	0.000314	3.141930	1.064515	-0.000126
1166	1.1592e+02	-6.4105	-25.365324	0.000416	4.155456	1.407907	-0.000166
1167	1.1602e+02	-6.4506	-25.518735	0.000385	3.851398	1.304889	-0.000154
1168	1.1612e+02	-6.4923	-25.712518	0.000486	4.864924	1.648281	-0.000195
1169	1.1622e+02	-6.5324	-25.857854	0.000365	3.648693	1.236211	-0.000146
1170	1.1632e+02	-6.5693	-26.003191	0.000365	3.648693	1.236211	-0.000146
1171	1.1642e+02	-6.6110	-26.140454	0.000345	3.445988	1.167532	-0.000138
1172	1.1651e+02	-6.6447	-26.293865	0.000385	3.851398	1.304889	-0.000154
1173	1.1661e+02	-6.6993	-26.463425	0.000426	4.256808	1.442246	-0.000170
1174	1.1671e+02	-6.7314	-26.645096	0.000456	4.560866	1.545263	-0.000183
1175	1.1681e+02	-6.7618	-26.786396	0.000355	3.547340	1.201871	-0.000142
1176	1.1691e+02	-6.8036	-26.935770	0.000375	3.750046	1.270550	-0.000150
1177	1.1701e+02	-6.8565	-27.081107	0.000365	3.648693	1.236211	-0.000146
1178	1.1711e+02	-6.8870	-27.242592	0.000405	4.054103	1.373567	-0.000162
1179	1.1721e+02	-6.9351	-27.391966	0.000375	3.750046	1.270550	-0.000150
1180	1.1731e+02	-6.9672	-27.557489	0.000416	4.155456	1.407907	-0.000166
1181	1.1741e+02	-7.0089	-27.731085	0.000436	4.358161	1.476585	-0.000174
1182	1.1751e+02	-7.0522	-27.860274	0.000324	3.243283	1.098854	-0.000130
1183	1.1761e+02	-7.0843	-28.070205	0.000527	5.270334	1.785638	-0.000211
1184	1.1771e+02	-7.1292	-28.231690	0.000405	4.054103	1.373567	-0.000162
1185	1.1781e+02	-7.1677	-28.352804	0.000304	3.040577	1.030176	-0.000122
1186	1.1791e+02	-7.2110	-28.510253	0.000395	3.952751	1.339228	-0.000158
1187	1.1801e+02	-7.2463	-28.667701	0.000395	3.952751	1.339228	-0.000158
1188	1.1811e+02	-7.2880	-28.861483	0.000486	4.864924	1.648281	-0.000195
1189	1.1821e+02	-7.3329	-29.006820	0.000365	3.648693	1.236211	-0.000146
1190	1.1831e+02	-7.3698	-29.123897	0.000294	2.939225	0.995836	-0.000118
1191	1.1841e+02	-7.4051	-29.293457	0.000426	4.256808	1.442246	-0.000170
1192	1.1850e+02	-7.4388	-29.430720	0.000345	3.445988	1.167532	-0.000138
1193	1.1860e+02	-7.4870	-29.616428	0.000466	4.662219	1.579602	-0.000187
1194	1.1870e+02	-7.5399	-29.741579	0.000314	3.141930	1.064515	-0.000126
1195	1.1880e+02	-7.5672	-29.870767	0.000324	3.243283	1.098854	-0.000130
1196	1.1890e+02	-7.6025	-30.003993	0.000334	3.344635	1.133193	-0.000134
1197	1.1900e+02	-7.6442	-30.209887	0.000517	5.168982	1.751298	-0.000207
1198	1.1910e+02	-7.6923	-30.322927	0.000284	2.837872	0.961497	-0.000114
1199	1.1920e+02	-7.7260	-30.508635	0.000466	4.662219	1.579602	-0.000187
1200	1.1930e+02	-7.7581	-30.625712	0.000294	2.939225	0.995836	-0.000118
1201	1.1940e+02	-7.8190	-30.815457	0.000476	4.763571	1.613942	-0.000191
1202	1.1950e+02	-7.8415	-30.989054	0.000436	4.358161	1.476585	-0.000174
1203	1.1960e+02	-7.8880	-31.134391	0.000365	3.648693	1.236211	-0.000146
1204	1.1970e+02	-7.9249	-31.279728	0.000365	3.648693	1.236211	-0.000146
1205	1.1980e+02	-7.9586	-31.429102	0.000375	3.750046	1.270550	-0.000150
1206	1.1990e+02	-8.0083	-31.558290	0.000324	3.243283	1.098854	-0.000130
1207	1.2000e+02	-8.0420	-31.727850	0.000426	4.256808	1.442246	-0.000170
1208	1.2010e+02	-8.0950	-31.881261	0.000385	3.851398	1.304889	-0.000154
1209	1.2020e+02	-8.1206	-32.010449	0.000324	3.243283	1.098854	-0.000130
1210	1.2030e+02	-8.1655	-32.200195	0.000476	4.763571	1.613942	-0.000191
1211	1.2039e+02	-8.2024	-32.337457	0.000345	3.445988	1.167532	-0.000138
1212	1.2049e+02	-8.2458	-32.458571	0.000304	3.040577	1.030176	-0.000122
1213	1.2059e+02	-8.2827	-32.599871	0.000355	3.547340	1.201871	-0.000142
1214	1.2069e+02	-8.3276	-32.757319	0.000395	3.952751	1.339228	-0.000158
1215	1.2079e+02	-8.3613	-32.902656	0.000365	3.648693	1.236211	-0.000146
1216	1.2089e+02	-8.4094	-33.027807	0.000314	3.141930	1.064515	-0.000126
1217	1.2099e+02	-8.4415	-33.181219	0.000385	3.851398	1.304889	-0.000154
1218	1.2109e+02	-8.4768	-33.375001	0.000486	4.864924	1.648281	-0.000195
1219	1.2119e+02	-8.5217	-33.479967	0.000264	2.635167	0.892819	-0.000105
1220	1.2129e+02	-8.5666	-33.665675	0.000466	4.662219	1.579602	-0.000187
1221	1.2139e+02	-8.5923	-33.778715	0.000284	2.837872	0.961497	-0.000114
1222	1.2149e+02	-8.6420	-33.920014	0.000355	3.547340	1.201871	-0.000142
1223	1.2159e+02	-8.6821	-34.024980	0.000264	2.635167	0.892819	-0.000105
1224	1.2169e+02	-8.7238	-34.190503	0.000416	4.155456	1.407907	-0.000166
1225	1.2179e+02	-8.7671	-34.335839	0.000365	3.648693	1.236211	-0.000146
1226	1.2189e+02	-8.7960	-34.521548	0.000466	4.662219	1.579602	-0.000187
1227	1.2199e+02	-8.8506	-34.634587	0.000284	2.837872	0.961497	-0.000114
1228	1.2209e+02	-8.8842	-34.771850	0.000345	3.445988	1.167532	-0.000138
1229	1.2219e+02	-8.9260	-34.897001	0.000314	3.141930	1.064515	-0.000126
1230	1.2229e+02	-8.9532	-35.102895	0.000517	5.168982	1.751298	-0.000207
1231	1.2239e+02	-8.9965	-35.232084	0.000324	3.243283	1.098854	-0.000130
1232	1.2248e+02	-9.0527	-35.324938	0.000233	2.331109	0.789801	-0.000093
1233	1.2258e+02	-9.0864	-35.538906	0.000537	5.371687	1.819977	-0.000215
1234	1.2268e+02	-9.1345	-35.655983	0.000294	2.939225	0.995836	-0.000118
1235	1.2278e+02	-9.1666	-35.777097	0.000304	3.040577	1.030176	-0.000122
1236	1.2288e+02	-9.2019	-35.902248	0.000314	3.141930	1.064515	-0.000126
1237	1.2298e+02	-9.2324	-36.104105	0.000507	5.067629	1.716959	-0.000203
1238	1.2308e+02	-9.2869	-36.221182	0.000294	2.939225	0.995836	-0.000118
1239	1.2318e+02	-9.3286	-36.374593	0.000385	3.851398	1.304889	-0.000154
1240	1.2328e+02	-9.3639	-36.511856	0.000345	3.445988	1.167532	-0.000138
1241	1.2338e+02	-9.3976	-36.624895	0.000284	2.837872	0.961497	-0.000114
1242	1.2348e+02	-9.4393	-36.798492	0.000436	4.358161	1.476585	-0.000174
1243	1.2358e+02	-9.4778	-36.943829	0.000365	3.648693	1.236211	-0.000146
1244	1.2368e+02	-9.5195	-37.097240	0.000385	3.851398	1.304889	-0.000154
1245	1.2378e+02	-9.5532	-37.238540	0.000355	3.547340	1.201871	-0.000142
1246	1.2388e+02	-9.6045	-37.355617	0.000294	2.939225	0.995836	-0.000118
1247	1.2398e+02	-9.6366	-37.521140	0.000416	4.155456	1.407907	-0.000166
1248	1.2408e+02	-9.6767	-37.662439	0.000355	3.547340	1.201871	-0.000142
1249	1.2418e+02	-9.7184	-37.819888	0.000395	3.952751	1.339228	-0.000158
1250	1.2428e+02	-9.7746	-37.941002	0.000304	3.040577	1.030176	-0.000122
1251	1.2438e+02	-9.7938	-38.094413	0.000385	3.851398	1.304889	-0.000154
1252	1.2447e+02	-9.8420	-38.215527	0.000304	3.040577	1.030176	-0.000122
1253	1.2457e+02	-9.8837	-38.417384	0.000507	5.067629	1.716959	-0.000203
1254	1.2467e+02	-9.9158	-38.550609	0.000334	3.344635	1.133193	-0.000134
1255	1.2477e+02	-9.9655	-38.663649	0.000284	2.837872	0.961497	-0.000114
1256	1.2487e+02	-9.9944	-38.788800	0.000314	3.141930	1.064515	-0.000126
1257	1.2497e+02	-10.0313	-38.934137	0.000365	3.648693	1.236211	-0.000146
1258	1.2507e+02	-10.0826	-39.091585	0.000395	3.952751	1.339228	-0.000158
1259	1.2517e+02	-10.1243	-39.224811	0.000334	3.344635	1.133193	-0.000134
1260	1.2527e+02	-10.1532	-39.362073	0.000345	3.445988	1.167532	-0.000138
1261	1.2537e+02	-10.2061	-39.499336	0.000345	3.445988	1.167532	-0.000138
1262	1.2547e+02	-10.2350	-39.636599	0.000345	3.445988	1.167532	-0.000138
1263	1.2557e+02	-10.2735	-39.753676	0.000294	2.939225	0.995836	-0.000118
1264	1.2567e+02	-10.3248	-39.919198	0.000416	4.155456	1.407907	-0.000166
1265	1.2577e+02	-10.3601	-40.056461	0.000345	3.445988	1.167532	-0.000138
1266	1.2587e+02	-10.3986	-40.209872	0.000385	3.851398	1.304889	-0.000154
1267	1.2597e+02	-10.4243	-40.322912	0.000284	2.837872	0.961497	-0.000114
1268	1.2607e+02	-10.4756	-40.484397	0.000405	4.054103	1.373567	-0.000162
1269	1.2617e+02	-10.5029	-40.637808	0.000385	3.851398	1.304889	-0.000154
1270	1.2627e+02	-10.5446	-40.758922	0.000304	3.040577	1.030176	-0.000122
1271	1.2636e+02	-10.5944	-40.900222	0.000355	3.547340	1.201871	-0.000142
1272	1.2646e+02	-10.6425	-41.045559	0.000365	3.648693	1.236211	-0.000146
1273	1.2656e+02	-10.6714	-41.150525	0.000264	2.635167	0.892819	-0.000105
1274	1.2666e+02	-10.7066	-41.291824	0.000355	3.547340	1.201871	-0.000142
1275	1.2676e+02	-10.7548	-41.461384	0.000426	4.256808	1.442246	-0.000170
1276	1.2686e+02	-10.8061	-41.562312	0.000253	2.533815	0.858480	-0.000101
1277	1.2696e+02	-10.8286	-41.723798	0.000405	4.054103	1.373567	-0.000162
1278	1.2706e+02	-10.8719	-41.857023	0.000334	3.344635	1.133193	-0.000134
1279	1.2716e+02	-10.9120	-41.982175	0.000314	3.141930	1.064515	-0.000126
1280	1.2726e+02	-10.9569	-42.139623	0.000395	3.952751	1.339228	-0.000158
1281	1.2736e+02	-10.9970	-42.248625	0.000274	2.736520	0.927158	-0.000110
1282	1.2746e+02	-11.0419	-42.369740	0.000304	3.040577	1.030176	-0.000122
1283	1.2756e+02	-11.0852	-42.519114	0.000375	3.750046	1.270550	-0.000150
1284	1.2766e+02	-11.1125	-42.684636	0.000416	4.155456	1.407907	-0.000166
1285	1.2776e+02	-11.1558	-42.801713	0.000294	2.939225	0.995836	-0.000118
1286	1.2786e+02	-11.1927	-42.959161	0.000395	3.952751	1.339228	-0.000158
1287	1.2796e+02	-11.2377	-43.076238	0.000294	2.939225	0.995836	-0.000118
1288	1.2806e+02	-11.2697	-43.209464	0.000334	3.344635	1.133193	-0.000134
1289	1.2816e+02	-11.3098	-43.366912	0.000395	3.952751	1.339228	-0.000158
1290	1.2826e+02	-11.3596	-43.492063	0.000314	3.141930	1.064515	-0.000126
1291	1.2835e+02	-11.3917	-43.588955	0.000243	2.432462	0.824140	-0.000097
1292	1.2845e+02	-11.4398	-43.738329	0.000375	3.750046	1.270550	-0.000150
1293	1.2855e+02	-11.4735	-43.891740	0.000385	3.851398	1.304889	-0.000154
1294	1.2865e+02	-11.5040	-44.012854	0.000304	3.040577	1.030176	-0.000122
1295	1.2875e+02	-11.5601	-44.174339	0.000405	4.054103	1.373567	-0.000162
1296	1.2885e+02	-11.5938	-44.283342	0.000274	2.736520	0.927158	-0.000110
1297	1.2895e+02	-11.6307	-44.428679	0.000365	3.648693	1.236211	-0.000146
1298	1.2905e+02	-11.6740	-44.561904	0.000334	3.344635	1.133193	-0.000134
1299	1.2915e+02	-11.7109	-44.658796	0.000243	2.432462	0.824140	-0.000097
1300	1.2925e+02	-11.7542	-44.828355	0.000426	4.256808	1.442246	-0.000170
1301	1.2935e+02	-11.7831	-44.945432	0.000294	2.939225	0.995836	-0.000118
1302	1.2945e+02	-11.8328	-45.098843	0.000385	3.851398	1.304889	-0.000154
1303	1.2955e+02	-11.8761	-45.191697	0.000233	2.331109	0.789801	-0.000093
1304	1.2965e+02	-11.9098	-45.385480	0.000486	4.864924	1.648281	-0.000195
1305	1.2975e+02	-11.9612	-45.466223	0.000203	2.027052	0.686784	-0.000081
1306	1.2985e+02	-11.9948	-45.615597	0.000375	3.750046	1.270550	-0.000150
1307	1.2995e+02	-12.0285	-45.760934	0.000365	3.648693	1.236211	-0.000146
1308	1.3005e+02	-12.0702	-45.882048	0.000304	3.040577	1.030176	-0.000122
1309	1.3015e+02	-12.1232	-46.019310	0.000345	3.445988	1.167532	-0.000138
1310	1.3025e+02	-12.1521	-46.160610	0.000355	3.547340	1.201871	-0.000142
1311	1.3034e+02	-12.1874	-46.289798	0.000324	3.243283	1.098854	-0.000130
1312	1.3044e+02	-12.2323	-46.398801	0.000274	2.736520	0.927158	-0.000110
1313	1.3054e+02	-12.2676	-46.552212	0.000385	3.851398	1.304889	-0.000154
1314	1.3064e+02	-12.3173	-46.697549	0.000365	3.648693	1.236211	-0.000146
1315	1.3074e+02	-12.3542	-46.826737	0.000324	3.243283	1.098854	-0.000130
1316	1.3084e+02	-12.3863	-46.955926	0.000324	3.243283	1.098854	-0.000130
1317	1.3094e+02	-12.4296	-47.105300	0.000375	3.750046	1.270550	-0.000150
1318	1.3104e+02	-12.4649	-47.222377	0.000294	2.939225	0.995836	-0.000118
1319	1.3114e+02	-12.5082	-47.347528	0.000314	3.141930	1.064515	-0.000126
1320	1.3124e+02	-12.5467	-47.500939	0.000385	3.851398	1.304889	-0.000154
1321	1.3134e+02	-12.5948	-47.618016	0.000294	2.939225	0.995836	-0.000118
1322	1.3144e+02	-12.6221	-47.747204	0.000324	3.243283	1.098854	-0.000130
1323	1.3154e+02	-12.6590	-47.852170	0.000264	2.635167	0.892819	-0.000105
1324	1.3164e+02	-12.7119	-48.017692	0.000416	4.155456	1.407907	-0.000166
1325	1.3174e+02	-12.7520	-48.098435	0.000203	2.027052	0.686784	-0.000081
1326	1.3184e+02	-12.7889	-48.272032	0.000436	4.358161	1.476585	-0.000174
1327	1.3194e+02	-12.8258	-48.364886	0.000233	2.331109	0.789801	-0.000093
1328	1.3204e+02	-12.8708	-48.486000	0.000304	3.040577	1.030176	-0.000122
1329	1.3214e+02	-12.8964	-48.639411	0.000385	3.851398	1.304889	-0.000154
1330	1.3224e+02	-12.9494	-48.764563	0.000314	3.141930	1.064515	-0.000126
1331	1.3234e+02	-12.9750	-48.905862	0.000355	3.547340	1.201871	-0.000142
1332	1.3243e+02	-13.0328	-49.022939	0.000294	2.939225	0.995836	-0.000118
1333	1.3253e+02	-13.0617	-49.115793	0.000233	2.331109	0.789801	-0.000093
1334	1.3263e+02	-13.1114	-49.240945	0.000314	3.141930	1.064515	-0.000126
1335	1.3273e+02	-13.1483	-49.438764	0.000497	4.966277	1.682620	-0.000199
1336	1.3283e+02	-13.1772	-49.543730	0.000264	2.635167	0.892819	-0.000105
1337	1.3293e+02	-13.2333	-49.628510	0.000213	2.128404	0.721123	-0.000085
1338	1.3303e+02	-13.2702	-49.789995	0.000405	4.054103	1.373567	-0.000162
1339	1.3313e+02	-13.3087	-49.886886	0.000243	2.432462	0.824140	-0.000097
1340	1.3323e+02	-13.3424	-50.060483	0.000436	4.358161	1.476585	-0.000174
1341	1.3333e+02	-13.3793	-50.173523	0.000284	2.837872	0.961497	-0.000114
1342	1.3343e+02	-13.4194	-50.282526	0.000274	2.736520	0.927158	-0.000110
1343	1.3353e+02	-13.4659	-50.435937	0.000385	3.851398	1.304889	-0.000154
1344	1.3363e+02	-13.5012	-50.532828	0.000243	2.432462	0.824140	-0.000097
1345	1.3373e+02	-13.5429	-50.706425	0.000436	4.358161	1.476585	-0.000174
1346	1.3383e+02	-13.5911	-50.791205	0.000213	2.128404	0.721123	-0.000085
1347	1.3393e+02	-13.6296	-50.932504	0.000355	3.547340	1.201871	-0.000142
1348	1.3403e+02	-13.6649	-51.025359	0.000233	2.331109	0.789801	-0.000093
1349	1.3413e+02	-13.7162	-51.186844	0.000405	4.054103	1.373567	-0.000162
1350	1.3423e+02	-13.7467	-51.311995	0.000314	3.141930	1.064515	-0.000126
1351	1.3432e+02	-13.7772	-51.485592	0.000436	4.358161	1.476585	-0.000174
1352	1.3442e+02	-13.8301	-51.574409	0.000223	2.229757	0.755462	-0.000089
1353	1.3452e+02	-13.8718	-51.707635	0.000334	3.344635	1.133193	-0.000134
1354	1.3462e+02	-13.9023	-51.844897	0.000345	3.445988	1.167532	-0.000138
1355	1.3472e+02	-13.9456	-51.974085	0.000324	3.243283	1.098854	-0.000130
1356	1.3482e+02	-13.9777	-52.058865	0.000213	2.128404	0.721123	-0.000085
1357	1.3492e+02	-14.0178	-52.184017	0.000314	3.141930	1.064515	-0.000126
1358	1.3502e+02	-14.0627	-52.361651	0.000446	4.459514	1.510924	-0.000179
1359	1.3512e+02	-14.1140	-52.454505	0.000233	2.331109	0.789801	-0.000093
1360	1.3522e+02	-14.1413	-52.611953	0.000395	3.952751	1.339228	-0.000158
1361	1.3532e+02	-14.1959	-52.720956	0.000274	2.736520	0.927158	-0.000110
1362	1.3542e+02	-14.2151	-52.886478	0.000416	4.155456	1.407907	-0.000166
1363	1.3552e+02	-14.2680	-52.975295	0.000223	2.229757	0.755462	-0.000089
1364	1.3562e+02	-14.3049	-53.108521	0.000334	3.344635	1.133193	-0.000134
1365	1.3572e+02	-14.3450	-53.253858	0.000365	3.648693	1.236211	-0.000146
1366	1.3582e+02	-14.3884	-53.423417	0.000426	4.256808	1.442246	-0.000170
1367	1.3592e+02	-14.4253	-53.528383	0.000264	2.635167	0.892819	-0.000105
1368	1.3602e+02	-14.4606	-53.641423	0.000284	2.837872	0.961497	-0.000114
1369	1.3612e+02	-14.4991	-53.766574	0.000314	3.141930	1.064515	-0.000126
1370	1.3622e+02	-14.5408	-53.928059	0.000405	4.054103	1.373567	-0.000162
1371	1.3631e+02	-14.5761	-54.037062	0.000274	2.736520	0.927158	-0.000110
1372	1.3641e+02	-14.6290	-54.142027	0.000264	2.635167	0.892819	-0.000105
1373	1.3651e+02	-14.6579	-54.275253	0.000334	3.344635	1.133193	-0.000134
1374	1.3661e+02	-14.7044	-54.376181	0.000253	2.533815	0.858480	-0.000101
1375	1.3671e+02	-14.7461	-54.529592	0.000385	3.851398	1.304889	-0.000154
1376	1.3681e+02	-14.7814	-54.658781	0.000324	3.243283	1.098854	-0.000130
1377	1.3691e+02	-14.8311	-54.812192	0.000385	3.851398	1.304889	-0.000154
1378	1.3701e+02	-14.8600	-54.953492	0.000355	3.547340	1.201871	-0.000142
1379	1.3711e+02	-14.8921	-55.090754	0.000345	3.445988	1.167532	-0.000138
1380	1.3721e+02	-14.9322	-55.183608	0.000233	2.331109	0.789801	-0.000093
1381	1.3731e+02	-14.9851	-55.332982	0.000375	3.750046	1.270550	-0.000150
1382	1.3741e+02	-15.0236	-55.446022	0.000284	2.837872	0.961497	-0.000114
1383	1.3751e+02	-15.0654	-55.583285	0.000345	3.445988	1.167532	-0.000138
1384	1.3761e+02	-15.1006	-55.724585	0.000355	3.547340	1.201871	-0.000142
1385	1.3771e+02	-15.1375	-55.857810	0.000334	3.344635	1.133193	-0.000134
1386	1.3781e+02	-15.1776	-55.991036	0.000334	3.344635	1.133193	-0.000134
1387	1.3791e+02	-15.2242	-56.083890	0.000233	2.331109	0.789801	-0.000093
1388	1.3801e+02	-15.2498	-56.229227	0.000365	3.648693	1.236211	-0.000146
1389	1.3811e+02	-15.3060	-56.346303	0.000294	2.939225	0.995836	-0.000118
1390	1.3821e+02	-15.3333	-56.499715	0.000385	3.851398	1.304889	-0.000154
1391	1.3831e+02	-15.3846	-56.628903	0.000324	3.243283	1.098854	-0.000130
1392	1.3840e+02	-15.4215	-56.770203	0.000355	3.547340	1.201871	-0.000142
1393	1.3850e+02	-15.4568	-56.883243	0.000284	2.837872	0.961497	-0.000114
1394	1.3860e+02	-15.4953	-56.988208	0.000264	2.635167	0.892819	-0.000105
1395	1.3870e+02	-15.5386	-57.169879	0.000456	4.560866	1.545263	-0.000183
1396	1.3880e+02	-15.5803	-57.266770	0.000243	2.432462	0.824140	-0.000097
1397	1.3890e+02	-15.6220	-57.387885	0.000304	3.040577	1.030176	-0.000122
1398	1.3900e+02	-15.6541	-57.521110	0.000334	3.344635	1.133193	-0.000134
1399	1.3910e+02	-15.7022	-57.686633	0.000416	4.155456	1.407907	-0.000166
1400	1.3920e+02	-15.7375	-57.783524	0.000243	2.432462	0.824140	-0.000097
1401	1.3930e+02	-15.7712	-57.953084	0.000426	4.256808	1.442246	-0.000170
1402	1.3940e+02	-15.8113	-58.078235	0.000314	3.141930	1.064515	-0.000126
1403	1.3950e+02	-15.8594	-58.207423	0.000324	3.243283	1.098854	-0.000130
1404	1.3960e+02	-15.9044	-58.344686	0.000345	3.445988	1.167532	-0.000138
1405	1.3970e+02	-15.9397	-58.461763	0.000294	2.939225	0.995836	-0.000118
1406	1.3980e+02	-15.9717	-58.627285	0.000416	4.155456	1.407907	-0.000166
1407	1.3990e+02	-16.0054	-58.728214	0.000253	2.533815	0.858480	-0.000101
1408	1.4000e+02	-16.0503	-58.873550	0.000365	3.648693	1.236211	-0.000146
1409	1.4010e+02	-16.0953	-58.990627	0.000294	2.939225	0.995836	-0.000118
1410	1.4020e+02	-16.1370	-59.164224	0.000436	4.358161	1.476585	-0.000174
1411	1.4029e+02	-16.1707	-59.309561	0.000365	3.648693	1.236211	-0.000146
1412	1.4039e+02	-16.2172	-59.386267	0.000193	1.925699	0.652445	-0.000077
1413	1.4049e+02	-16.2477	-59.563901	0.000446	4.459514	1.510924	-0.000179
1414	1.4059e+02	-16.3022	-59.668866	0.000264	2.635167	0.892819	-0.000105
1415	1.4069e+02	-16.3359	-59.814203	0.000365	3.648693	1.236211	-0.000146
1416	1.4079e+02	-16.3744	-59.979726	0.000416	4.155456	1.407907	-0.000166
1417	1.4089e+02	-16.4161	-60.116988	0.000345	3.445988	1.167532	-0.000138
1418	1.4099e+02	-16.4530	-60.274437	0.000395	3.952751	1.339228	-0.000158
1419	1.4109e+02	-16.4867	-60.415736	0.000355	3.547340	1.201871	-0.000142
1420	1.4119e+02	-16.5364	-60.561073	0.000365	3.648693	1.236211	-0.000146
1421	1.4129e+02	-16.5749	-60.666039	0.000264	2.635167	0.892819	-0.000105
1422	1.4139e+02	-16.6150	-60.839636	0.000436	4.358161	1.476585	-0.000174
1423	1.4149e+02	-16.6519	-60.968824	0.000324	3.243283	1.098854	-0.000130
1424	1.4159e+02	-16.6936	-61.069752	0.000253	2.533815	0.858480	-0.000101
1425	1.4169e+02	-16.7289	-61.247386	0.000446	4.459514	1.510924	-0.000179
1426	1.4179e+02	-16.7739	-61.404835	0.000395	3.952751	1.339228	-0.000158
1427	1.4189e+02	-16.8156	-61.538060	0.000334	3.344635	1.133193	-0.000134
1428	1.4199e+02	-16.8477	-61.663211	0.000314	3.141930	1.064515	-0.000126
1429	1.4209e+02	-16.8942	-61.808548	0.000365	3.648693	1.236211	-0.000146
1430	1.4219e+02	-16.9279	-61.970034	0.000405	4.054103	1.373567	-0.000162
1431	1.4228e+02	-16.9776	-62.143630	0.000436	4.358161	1.476585	-0.000174
1432	1.4238e+02	-17.0081	-62.220336	0.000193	1.925699	0.652445	-0.000077
1433	1.4248e+02	-17.0546	-62.426230	0.000517	5.168982	1.751298	-0.000207
1434	1.4258e+02	-17.0883	-62.531195	0.000264	2.635167	0.892819	-0.000105
1435	1.4268e+02	-17.1348	-62.652310	0.000304	3.040577	1.030176	-0.000122
1436	1.4278e+02	-17.1733	-62.817832	0.000416	4.155456	1.407907	-0.000166
1437	1.4288e+02	-17.2118	-62.987392	0.000426	4.256808	1.442246	-0.000170
1438	1.4298e+02	-17.2519	-63.136766	0.000375	3.750046	1.270550	-0.000150
1439	1.4308e+02	-17.2952	-63.290177	0.000385	3.851398	1.304889	-0.000154
1440	1.4318e+02	-17.3337	-63.407254	0.000294	2.939225	0.995836	-0.000118
1441	1.4328e+02	-17.3722	-63.601036	0.000486	4.864924	1.648281	-0.000195
1442	1.4338e+02	-17.4156	-63.722150	0.000304	3.040577	1.030176	-0.000122
1443	1.4348e+02	-17.4508	-63.895747	0.000436	4.358161	1.476585	-0.000174
1444	1.4358e+02	-17.4910	-64.049158	0.000385	3.851398	1.304889	-0.000154
1445	1.4368e+02	-17.5311	-64.133938	0.000213	2.128404	0.721123	-0.000085
1446	1.4378e+02	-17.5647	-64.339832	0.000517	5.168982	1.751298	-0.000207
1447	1.4388e+02	-17.6065	-64.456909	0.000294	2.939225	0.995836	-0.000118
1448	1.4398e+02	-17.6434	-64.602246	0.000365	3.648693	1.236211	-0.000146
1449	1.4408e+02	-17.6899	-64.763732	0.000405	4.054103	1.373567	-0.000162
1450	1.4418e+02	-17.7348	-64.925217	0.000405	4.054103	1.373567	-0.000162
1451	1.4428e+02	-17.7733	-65.070554	0.000365	3.648693	1.236211	-0.000146
1452	1.4437e+02	-17.8054	-65.191668	0.000304	3.040577	1.030176	-0.000122
1453	1.4447e+02	-17.8487	-65.361228	0.000426	4.256808	1.442246	-0.000170
1454	1.4457e+02	-17.8744	-65.534824	0.000436	4.358161	1.476585	-0.000174
1455	1.4467e+02	-17.9289	-65.680161	0.000365	3.648693	1.236211	-0.000146
1456	1.4477e+02	-17.9674	-65.857795	0.000446	4.459514	1.510924	-0.000179
1457	1.4487e+02	-18.0059	-66.023318	0.000416	4.155456	1.407907	-0.000166
1458	1.4497e+02	-18.0460	-66.120209	0.000243	2.432462	0.824140	-0.000097
1459	1.4507e+02	-18.0909	-66.273620	0.000385	3.851398	1.304889	-0.000154
1460	1.4517e+02	-18.1262	-66.499700	0.000568	5.675745	1.922994	-0.000227
1461	1.4527e+02	-18.1711	-66.632925	0.000334	3.344635	1.133193	-0.000134
1462	1.4537e+02	-18.2016	-66.762114	0.000324	3.243283	1.098854	-0.000130
1463	1.4547e+02	-18.2498	-66.911488	0.000375	3.750046	1.270550	-0.000150
1464	1.4557e+02	-18.2866	-67.101233	0.000476	4.763571	1.613942	-0.000191
1465	1.4567e+02	-18.3300	-67.230421	0.000324	3.243283	1.098854	-0.000130
1466	1.4577e+02	-18.3653	-67.436315	0.000517	5.168982	1.751298	-0.000207
1467	1.4587e+02	-18.4070	-67.589727	0.000385	3.851398	1.304889	-0.000154
1468	1.4597e+02	-18.4503	-67.726989	0.000345	3.445988	1.167532	-0.000138
1469	1.4607e+02	-18.4872	-67.908660	0.000456	4.560866	1.545263	-0.000183
1470	1.4617e+02	-18.5321	-68.094368	0.000466	4.662219	1.579602	-0.000187
1471	1.4626e+02	-18.5642	-68.284114	0.000476	4.763571	1.613942	-0.000191
1472	1.4636e+02	-18.6011	-68.437525	0.000385	3.851398	1.304889	-0.000154
1473	1.4646e+02	-18.6428	-68.619196	0.000456	4.560866	1.545263	-0.000183
1474	1.4656e+02	-18.6813	-68.708013	0.000223	2.229757	0.755462	-0.000089
1475	1.4666e+02	-18.7230	-68.917944	0.000527	5.270334	1.785638	-0.000211
1476	1.4676e+02	-18.7615	-69.103652	0.000466	4.662219	1.579602	-0.000187
1477	1.4686e+02	-18.8064	-69.265138	0.000405	4.054103	1.373567	-0.000162
1478	1.4696e+02	-18.8353	-69.434698	0.000426	4.256808	1.442246	-0.000170
1479	1.4706e+02	-18.8898	-69.588109	0.000385	3.851398	1.304889	-0.000154
1480	1.4716e+02	-18.9251	-69.765743	0.000446	4.459514	1.510924	-0.000179
1481	1.4726e+02	-18.9636	-69.923191	0.000395	3.952751	1.339228	-0.000158
1482	1.4736e+02	-19.0037	-70.121011	0.000497	4.966277	1.682620	-0.000199
1483	1.4746e+02	-19.0455	-70.278459	0.000395	3.952751	1.339228	-0.000158
1484	1.4756e+02	-19.0872	-70.476279	0.000497	4.966277	1.682620	-0.000199
1485	1.4766e+02	-19.1241	-70.678135	0.000507	5.067629	1.716959	-0.000203
1486	1.4776e+02	-19.1642	-70.815398	0.000345	3.445988	1.167532	-0.000138
1487	1.4786e+02	-19.2091	-71.017255	0.000507	5.067629	1.716959	-0.000203
1488	1.4796e+02	-19.2444	-71.170666	0.000385	3.851398	1.304889	-0.000154
1489	1.4806e+02	-19.2733	-71.368486	0.000497	4.966277	1.682620	-0.000199
1490	1.4816e+02	-19.3214	-71.529971	0.000405	4.054103	1.373567	-0.000162
1491	1.4825e+02	-19.3711	-71.715679	0.000466	4.662219	1.579602	-0.000187
1492	1.4835e+02	-19.3936	-71.897350	0.000456	4.560866	1.545263	-0.000183
1493	1.4845e+02	-19.4433	-72.115356	0.000547	5.473039	1.854316	-0.000219
1494	1.4855e+02	-19.4770	-72.244544	0.000324	3.243283	1.098854	-0.000130
1495	1.4865e+02	-19.5171	-72.393918	0.000375	3.750046	1.270550	-0.000150
1496	1.4875e+02	-19.5588	-72.628072	0.000588	5.878450	1.991673	-0.000235
1497	1.4885e+02	-19.5781	-72.813780	0.000466	4.662219	1.579602	-0.000187
1498	1.4895e+02	-19.6358	-72.983340	0.000426	4.256808	1.442246	-0.000170
1499	1.4905e+02	-19.6775	-73.181160	0.000497	4.966277	1.682620	-0.000199
1500	1.4915e+02	-19.7240	-73.374942	0.000486	4.864924	1.648281	-0.000195
1501	1.4925e+02	-19.7593	-73.548539	0.000436	4.358161	1.476585	-0.000174
1502	1.4935e+02	-19.8091	-73.750396	0.000507	5.067629	1.716959	-0.000203
1503	1.4945e+02	-19.8444	-73.940141	0.000476	4.763571	1.613942	-0.000191
1504	1.4955e+02	-19.8764	-74.129886	0.000476	4.763571	1.613942	-0.000191
1505	1.4965e+02	-19.9262	-74.331743	0.000507	5.067629	1.716959	-0.000203
1506	1.4975e+02	-19.9631	-74.545711	0.000537	5.371687	1.819977	-0.000215
1507	1.4985e+02	-20.0032	-74.670863	0.000314	3.141930	1.064515	-0.000126
1508	1.4995e+02	-19.9663	-74.727383	-0.000142	-1.418936	-0.480749	-0.000057
1509	1.5005e+02	-19.9182	-74.727383	0.000000	0.000000	0.000000	0.000000
1510	1.5015e+02	-19.8877	-74.715271	0.000030	0.304058	0.103018	0.000012
1511	1.5025e+02	-19.8363	-74.735457	-0.000051	-0.506763	-0.171696	-0.000020
1512	1.5034e+02	-19.8091	-74.715271	0.000051	0.506763	0.171696	0.000020
1513	1.5044e+02	-19.7722	-74.691048	0.000061	0.608115	0.206035	0.000024
1514	1.5054e+02	-19.7208	-74.695085	-0.000010	-0.101353	-0.034339	-0.000004
1515	1.5064e+02	-19.6839	-74.731420	-0.000091	-0.912173	-0.309053	-0.000037
1516	1.5074e+02	-19.6454	-74.646640	0.000213	2.128404	0.721123	0.000085
1517	1.5084e+02	-19.5989	-74.606268	0.000101	1.013526	0.343392	0.000041
1518	1.5094e+02	-19.5604	-74.626454	-0.000051	-0.506763	-0.171696	-0.000020
1519	1.5104e+02	-19.5315	-74.553786	0.000182	1.824346	0.618105	0.000073
1520	1.5114e+02	-19.4802	-74.517451	0.000091	0.912173	0.309053	0.000037
1521	1.5124e+02	-19.4353	-74.541674	-0.000061	-0.608115	-0.206035	-0.000024
1522	1.5134e+02	-19.4016	-74.497266	0.000111	1.114878	0.377731	0.000045
1523	1.5144e+02	-19.3663	-74.392300	0.000264	2.635167	0.892819	0.000105
1524	1.5154e+02	-19.3326	-74.400375	-0.000020	-0.202705	-0.068678	-0.000008
1525	1.5164e+02	-19.2829	-74.347892	0.000132	1.317584	0.446409	0.000053
1526	1.5174e+02	-19.2524	-74.295409	0.000132	1.317584	0.446409	0.000053
1527	1.5184e+02	-19.2123	-74.230815	0.000162	1.621641	0.549427	0.000065
1528	1.5194e+02	-19.1642	-74.186406	0.000111	1.114878	0.377731	0.000045
1529	1.5204e+02	-19.1337	-74.166221	0.000051	0.506763	0.171696	0.000020
1530	1.5214e+02	-19.0904	-74.125849	0.000101	1.013526	0.343392	0.000041
1531	1.5224e+02	-19.0406	-73.996661	0.000324	3.243283	1.098854	0.000130
1532	1.5233e+02	-19.0070	-73.992624	0.000010	0.101353	0.034339	0.000004
1533	1.5243e+02	-18.9652	-73.915918	0.000193	1.925699	0.652445	0.000077
1534	1.5253e+02	-18.9251	-73.859398	0.000142	1.418936	0.480749	0.000057
1535	1.5263e+02	-18.8866	-73.819027	0.000101	1.013526	0.343392	0.000041
1536	1.5273e+02	-18.8497	-73.762507	0.000142	1.418936	0.480749	0.000057
1537	1.5283e+02	-18.8177	-73.665616	0.000243	2.432462	0.824140	0.000097
1538	1.5293e+02	-18.7551	-73.617170	0.000122	1.216231	0.412070	0.000049
1539	1.5303e+02	-18.7326	-73.592947	0.000061	0.608115	0.206035	0.000024
1540	1.5313e+02	-18.6877	-73.471833	0.000304	3.040577	1.030176	0.000122
1541	1.5323e+02	-18.6460	-73.431462	0.000101	1.013526	0.343392	0.000041
1542	1.5333e+02	-18.6011	-73.395128	0.000091	0.912173	0.309053	0.000037
1543	1.5343e+02	-18.5722	-73.322459	0.000182	1.824346	0.618105	0.000073
1544	1.5353e+02	-18.5305	-73.229605	0.000233	2.331109	0.789801	0.000093
1545	1.5363e+02	-18.4776	-73.148862	0.000203	2.027052	0.686784	0.000081
1546	1.5373e+02	-18.4471	-73.088305	0.000152	1.520289	0.515088	0.000061
1547	1.5383e+02	-18.4118	-73.015637	0.000182	1.824346	0.618105	0.000073
1548	1.5393e+02	-18.3749	-72.995451	0.000051	0.506763	0.171696	0.000020
1549	1.5403e+02	-18.3203	-72.906634	0.000223	2.229757	0.755462	0.000089
1550	1.5413e+02	-18.2770	-72.805706	0.000253	2.533815	0.858480	0.000101
1551	1.5422e+02	-18.2449	-72.712852	0.000233	2.331109	0.789801	0.000093
1552	1.5432e+02	-18.2113	-72.680555	0.000081	0.810821	0.274713	0.000032
1553	1.5442e+02	-18.1567	-72.543292	0.000345	3.445988	1.167532	0.000138
1554	1.5452e+02	-18.1326	-72.519069	0.000061	0.608115	0.206035	0.000024
1555	1.5462e+02	-18.0877	-72.450438	0.000172	1.722994	0.583766	0.000069
1556	1.5472e+02	-18.0556	-72.353547	0.000243	2.432462	0.824140	0.000097
1557	1.5482e+02	-18.0107	-72.264730	0.000223	2.229757	0.755462	0.000089
1558	1.5492e+02	-17.9578	-72.204173	0.000152	1.520289	0.515088	0.000061
1559	1.5502e+02	-17.9273	-72.119393	0.000213	2.128404	0.721123	0.000085
1560	1.5512e+02	-17.8856	-72.034613	0.000213	2.128404	0.721123	0.000085
1561	1.5522e+02	-17.8551	-71.937722	0.000243	2.432462	0.824140	0.000097
1562	1.5532e+02	-17.8102	-71.869090	0.000172	1.722994	0.583766	0.000069
1563	1.5542e+02	-17.7733	-71.812571	0.000142	1.418936	0.480749	0.000057
1564	1.5552e+02	-17.7300	-71.679345	0.000334	3.344635	1.133193	0.000134
1565	1.5562e+02	-17.6899	-71.659159	0.000051	0.506763	0.171696	0.000020
1566	1.5572e+02	-17.6434	-71.521897	0.000345	3.445988	1.167532	0.000138
1567	1.5582e+02	-17.6129	-71.445191	0.000193	1.925699	0.652445	0.000077
1568	1.5592e+02	-17.5696	-71.384634	0.000152	1.520289	0.515088	0.000061
1569	1.5602e+02	-17.5327	-71.283706	0.000253	2.533815	0.858480	0.000101
1570	1.5612e+02	-17.4893	-71.194889	0.000223	2.229757	0.755462	0.000089
1571	1.5622e+02	-17.4476	-71.126257	0.000172	1.722994	0.583766	0.000069
1572	1.5631e+02	-17.4123	-71.057626	0.000172	1.722994	0.583766	0.000069
1573	1.5641e+02	-17.3722	-70.976883	0.000203	2.027052	0.686784	0.000081
1574	1.5651e+02	-17.3273	-70.888066	0.000223	2.229757	0.755462	0.000089
1575	1.5661e+02	-17.2952	-70.799249	0.000223	2.229757	0.755462	0.000089
1576	1.5671e+02	-17.2487	-70.702358	0.000243	2.432462	0.824140	0.000097
1577	1.5681e+02	-17.2102	-70.605467	0.000243	2.432462	0.824140	0.000097
1578	1.5691e+02	-17.1685	-70.504539	0.000253	2.533815	0.858480	0.000101
1579	1.5701e+02	-17.1284	-70.448019	0.000142	1.418936	0.480749	0.000057
1580	1.5711e+02	-17.0931	-70.391499	0.000142	1.418936	0.480749	0.000057
1581	1.5721e+02	-17.0530	-70.278459	0.000284	2.837872	0.961497	0.000114
1582	1.5731e+02	-17.0097	-70.181568	0.000243	2.432462	0.824140	0.000097
1583	1.5741e+02	-16.9728	-70.112936	0.000172	1.722994	0.583766	0.000069
1584	1.5751e+02	-16.9279	-70.016045	0.000243	2.432462	0.824140	0.000097
1585	1.5761e+02	-16.8910	-69.955488	0.000152	1.520289	0.515088	0.000061
1586	1.5771e+02	-16.8396	-69.834374	0.000304	3.040577	1.030176	0.000122
1587	1.5781e+02	-16.8108	-69.761706	0.000182	1.824346	0.618105	0.000073
1588	1.5791e+02	-16.7674	-69.705186	0.000142	1.418936	0.480749	0.000057
1589	1.5801e+02	-16.7370	-69.592146	0.000284	2.837872	0.961497	0.000114
1590	1.5811e+02	-16.6953	-69.531589	0.000152	1.520289	0.515088	0.000061
1591	1.5821e+02	-16.6535	-69.426623	0.000264	2.635167	0.892819	0.000105
1592	1.5830e+02	-16.6086	-69.329732	0.000243	2.432462	0.824140	0.000097
1593	1.5840e+02	-16.5765	-69.228804	0.000253	2.533815	0.858480	0.000101
1594	1.5850e+02	-16.5316	-69.135950	0.000233	2.331109	0.789801	0.000093
1595	1.5860e+02	-16.4963	-69.047133	0.000223	2.229757	0.755462	0.000089
1596	1.5870e+02	-16.4498	-68.970427	0.000193	1.925699	0.652445	0.000077
1597	1.5880e+02	-16.4113	-68.865461	0.000264	2.635167	0.892819	0.000105
1598	1.5890e+02	-16.3776	-68.764533	0.000253	2.533815	0.858480	0.000101
1599	1.5900e+02	-16.3375	-68.651493	0.000284	2.837872	0.961497	0.000114
1600	1.5910e+02	-16.2942	-68.611122	0.000101	1.013526	0.343392	0.000041
1601	1.5920e+02	-16.2477	-68.498082	0.000284	2.837872	0.961497	0.000114
1602	1.5930e+02	-16.2204	-68.417339	0.000203	2.027052	0.686784	0.000081
1603	1.5940e+02	-16.1755	-68.304300	0.000284	2.837872	0.961497	0.000114
1604	1.5950e+02	-16.1466	-68.235668	0.000172	1.722994	0.583766	0.000069
1605	1.5960e+02	-16.0889	-68.179148	0.000142	1.418936	0.480749	0.000057
1606	1.5970e+02	-16.0648	-68.058034	0.000304	3.040577	1.030176	0.000122
1607	1.5980e+02	-16.0199	-67.965180	0.000233	2.331109	0.789801	0.000093
1608	1.5990e+02	-15.9782	-67.852140	0.000284	2.837872	0.961497	0.000114
1609	1.6000e+02	-15.9509	-67.799658	0.000132	1.317584	0.446409	0.000053
1610	1.6010e+02	-15.8915	-67.690655	0.000274	2.736520	0.927158	0.000110
1611	1.6019e+02	-15.8562	-67.565504	0.000314	3.141930	1.064515	0.000126
1612	1.6029e+02	-15.8177	-67.476687	0.000223	2.229757	0.755462	0.000089
1613	1.6039e+02	-15.7808	-67.359610	0.000294	2.939225	0.995836	0.000118
1614	1.6049e+02	-15.7471	-67.295016	0.000162	1.621641	0.549427	0.000065
1615	1.6059e+02	-15.7038	-67.186013	0.000274	2.736520	0.927158	0.000110
1616	1.6069e+02	-15.6605	-67.121419	0.000162	1.621641	0.549427	0.000065
1617	1.6079e+02	-15.6060	-67.004342	0.000294	2.939225	0.995836	0.000118
1618	1.6089e+02	-15.5755	-66.879191	0.000314	3.141930	1.064515	0.000126
1619	1.6099e+02	-15.5338	-66.798448	0.000203	2.027052	0.686784	0.000081
1620	1.6109e+02	-15.4969	-66.717705	0.000203	2.027052	0.686784	0.000081
1621	1.6119e+02	-15.4520	-66.588517	0.000324	3.243283	1.098854	0.000130
1622	1.6129e+02	-15.4183	-66.531997	0.000142	1.418936	0.480749	0.000057
1623	1.6139e+02	-15.3734	-66.406846	0.000314	3.141930	1.064515	0.000126
1624	1.6149e+02	-15.3413	-66.326103	0.000203	2.027052	0.686784	0.000081
1625	1.6159e+02	-15.2980	-66.209026	0.000294	2.939225	0.995836	0.000118
1626	1.6169e+02	-15.2595	-66.087912	0.000304	3.040577	1.030176	0.000122
1627	1.6179e+02	-15.2145	-66.035429	0.000132	1.317584	0.446409	0.000053
1628	1.6189e+02	-15.1760	-65.922389	0.000284	2.837872	0.961497	0.000114
1629	1.6199e+02	-15.1375	-65.849721	0.000182	1.824346	0.618105	0.000073
1630	1.6209e+02	-15.1006	-65.740718	0.000274	2.736520	0.927158	0.000110
1631	1.6219e+02	-15.0557	-65.635753	0.000264	2.635167	0.892819	0.000105
1632	1.6228e+02	-15.0172	-65.546936	0.000223	2.229757	0.755462	0.000089
1633	1.6238e+02	-14.9675	-65.429859	0.000294	2.939225	0.995836	0.000118
1634	1.6248e+02	-14.9354	-65.345079	0.000213	2.128404	0.721123	0.000085
1635	1.6258e+02	-14.8905	-65.232039	0.000284	2.837872	0.961497	0.000114
1636	1.6268e+02	-14.8696	-65.135148	0.000243	2.432462	0.824140	0.000097
1637	1.6278e+02	-14.8199	-65.026145	0.000274	2.736520	0.927158	0.000110
1638	1.6288e+02	-14.7766	-64.925217	0.000253	2.533815	0.858480	0.000101
1639	1.6298e+02	-14.7413	-64.848511	0.000193	1.925699	0.652445	0.000077
1640	1.6308e+02	-14.7060	-64.739509	0.000274	2.736520	0.927158	0.000110
1641	1.6318e+02	-14.6611	-64.650692	0.000223	2.229757	0.755462	0.000089
1642	1.6328e+02	-14.6322	-64.578023	0.000182	1.824346	0.618105	0.000073
1643	1.6338e+02	-14.5761	-64.432686	0.000365	3.648693	1.236211	0.000146
1644	1.6348e+02	-14.5408	-64.319647	0.000284	2.837872	0.961497	0.000114
1645	1.6358e+02	-14.4958	-64.242941	0.000193	1.925699	0.652445	0.000077
1646	1.6368e+02	-14.4606	-64.142013	0.000253	2.533815	0.858480	0.000101
1647	1.6378e+02	-14.4269	-64.065307	0.000193	1.925699	0.652445	0.000077
1648	1.6388e+02	-14.3803	-63.928044	0.000345	3.445988	1.167532	0.000138
1649	1.6398e+02	-14.3434	-63.851339	0.000193	1.925699	0.652445	0.000077
1650	1.6408e+02	-14.3049	-63.742336	0.000274	2.736520	0.927158	0.000110
1651	1.6418e+02	-14.2664	-63.657556	0.000213	2.128404	0.721123	0.000085
1652	1.6427e+02	-14.2231	-63.556628	0.000253	2.533815	0.858480	0.000101
1653	1.6437e+02	-14.1910	-63.459737	0.000243	2.432462	0.824140	0.000097
1654	1.6447e+02	-14.1429	-63.342660	0.000294	2.939225	0.995836	0.000118
1655	1.6457e+02	-14.0996	-63.269991	0.000182	1.824346	0.618105	0.000073
1656	1.6467e+02	-14.0643	-63.100432	0.000426	4.256808	1.442246	0.000170
1657	1.6477e+02	-14.0242	-63.035837	0.000162	1.621641	0.549427	0.000065
1658	1.6487e+02	-13.9841	-62.902612	0.000334	3.344635	1.133193	0.000134
1659	1.6497e+02	-13.9376	-62.801684	0.000253	2.533815	0.858480	0.000101
1660	1.6507e+02	-13.9087	-62.708829	0.000233	2.331109	0.789801	0.000093
1661	1.6517e+02	-13.8654	-62.575604	0.000334	3.344635	1.133193	0.000134
1662	1.6527e+02	-13.8173	-62.498898	0.000193	1.925699	0.652445	0.000077
1663	1.6537e+02	-13.7788	-62.345487	0.000385	3.851398	1.304889	0.000154
1664	1.6547e+02	-13.7403	-62.252633	0.000233	2.331109	0.789801	0.000093
1665	1.6557e+02	-13.7130	-62.184002	0.000172	1.722994	0.583766	0.000069
1666	1.6567e+02	-13.6713	-62.095185	0.000223	2.229757	0.755462	0.000089
1667	1.6577e+02	-13.6231	-61.978108	0.000294	2.939225	0.995836	0.000118
1668	1.6587e+02	-13.5814	-61.869105	0.000274	2.736520	0.927158	0.000110
1669	1.6597e+02	-13.5477	-61.719731	0.000375	3.750046	1.270550	0.000150
1670	1.6607e+02	-13.5044	-61.634951	0.000213	2.128404	0.721123	0.000085
1671	1.6616e+02	-13.4707	-61.521912	0.000284	2.837872	0.961497	0.000114
1672	1.6626e+02	-13.4146	-61.457317	0.000162	1.621641	0.549427	0.000065
1673	1.6636e+02	-13.3809	-61.368500	0.000223	2.229757	0.755462	0.000089
1674	1.6646e+02	-13.3440	-61.202978	0.000416	4.155456	1.407907	0.000166
1675	1.6656e+02	-13.3039	-61.110124	0.000233	2.331109	0.789801	0.000093
1676	1.6666e+02	-13.2590	-60.960750	0.000375	3.750046	1.270550	0.000150
1677	1.6676e+02	-13.2333	-60.859821	0.000253	2.533815	0.858480	0.000101
1678	1.6686e+02	-13.1772	-60.779079	0.000203	2.027052	0.686784	0.000081
1679	1.6696e+02	-13.1435	-60.690262	0.000223	2.229757	0.755462	0.000089
1680	1.6706e+02	-13.1114	-60.544925	0.000365	3.648693	1.236211	0.000146
1681	1.6716e+02	-13.0649	-60.411699	0.000334	3.344635	1.133193	0.000134
1682	1.6726e+02	-13.0248	-60.363254	0.000122	1.216231	0.412070	0.000049
1683	1.6736e+02	-12.9895	-60.225991	0.000345	3.445988	1.167532	0.000138
1684	1.6746e+02	-12.9558	-60.096803	0.000324	3.243283	1.098854	0.000130
1685	1.6756e+02	-12.9028	-60.012023	0.000213	2.128404	0.721123	0.000085
1686	1.6766e+02	-12.8724	-59.903020	0.000274	2.736520	0.927158	0.000110
1687	1.6776e+02	-12.8274	-59.794017	0.000274	2.736520	0.927158	0.000110
1688	1.6786e+02	-12.7889	-59.697126	0.000243	2.432462	0.824140	0.000097
1689	1.6796e+02	-12.7504	-59.584086	0.000284	2.837872	0.961497	0.000114
1690	1.6806e+02	-12.7007	-59.467009	0.000294	2.939225	0.995836	0.000118
1691	1.6816e+02	-12.6670	-59.337821	0.000324	3.243283	1.098854	0.000130
1692	1.6825e+02	-12.6253	-59.285338	0.000132	1.317584	0.446409	0.000053
1693	1.6835e+02	-12.5900	-59.156150	0.000324	3.243283	1.098854	0.000130
1694	1.6845e+02	-12.5595	-59.006776	0.000375	3.750046	1.270550	0.000150
1695	1.6855e+02	-12.5098	-58.938145	0.000172	1.722994	0.583766	0.000069
1696	1.6865e+02	-12.4745	-58.833179	0.000264	2.635167	0.892819	0.000105
1697	1.6875e+02	-12.4296	-58.679768	0.000385	3.851398	1.304889	0.000154
1698	1.6885e+02	-12.3927	-58.586914	0.000233	2.331109	0.789801	0.000093
1699	1.6895e+02	-12.3510	-58.445614	0.000355	3.547340	1.201871	0.000142
1700	1.6905e+02	-12.3125	-58.348723	0.000243	2.432462	0.824140	0.000097
1701	1.6915e+02	-12.2676	-58.227609	0.000304	3.040577	1.030176	0.000122
1702	1.6925e+02	-12.2355	-58.150903	0.000193	1.925699	0.652445	0.000077
1703	1.6935e+02	-12.2002	-58.025752	0.000314	3.141930	1.064515	0.000126
1704	1.6945e+02	-12.1601	-57.908675	0.000294	2.939225	0.995836	0.000118
1705	1.6955e+02	-12.1168	-57.767375	0.000355	3.547340	1.201871	0.000142
1706	1.6965e+02	-12.0767	-57.710855	0.000142	1.418936	0.480749	0.000057
1707	1.6975e+02	-12.0334	-57.581667	0.000324	3.243283	1.098854	0.000130
1708	1.6985e+02	-11.9932	-57.424219	0.000395	3.952751	1.339228	0.000158
1709	1.6995e+02	-11.9531	-57.363662	0.000152	1.520289	0.515088	0.000061
1710	1.7005e+02	-11.9050	-57.234473	0.000324	3.243283	1.098854	0.000130
1711	1.7015e+02	-11.8777	-57.101248	0.000334	3.344635	1.133193	0.000134
1712	1.7024e+02	-11.8264	-56.980134	0.000304	3.040577	1.030176	0.000122
1713	1.7034e+02	-11.7895	-56.867094	0.000284	2.837872	0.961497	0.000114
1714	1.7044e+02	-11.7462	-56.754054	0.000284	2.837872	0.961497	0.000114
1715	1.7054e+02	-11.7125	-56.653126	0.000253	2.533815	0.858480	0.000101
1716	1.7064e+02	-11.6740	-56.552197	0.000253	2.533815	0.858480	0.000101
1717	1.7074e+02	-11.6307	-56.459343	0.000233	2.331109	0.789801	0.000093
1718	1.7084e+02	-11.5970	-56.338229	0.000304	3.040577	1.030176	0.000122
1719	1.7094e+02	-11.5585	-56.241338	0.000243	2.432462	0.824140	0.000097
1720	1.7104e+02	-11.5184	-56.075815	0.000416	4.155456	1.407907	0.000166
1721	1.7114e+02	-11.4719	-55.954701	0.000304	3.040577	1.030176	0.000122
1722	1.7124e+02	-11.4350	-55.809364	0.000365	3.648693	1.236211	0.000146
1723	1.7134e+02	-11.3997	-55.712473	0.000243	2.432462	0.824140	0.000097
1724	1.7144e+02	-11.3499	-55.591359	0.000304	3.040577	1.030176	0.000122
1725	1.7154e+02	-11.3163	-55.490431	0.000253	2.533815	0.858480	0.000101
1726	1.7164e+02	-11.2745	-55.361242	0.000324	3.243283	1.098854	0.000130
1727	1.7174e+02	-11.2344	-55.244165	0.000294	2.939225	0.995836	0.000118
1728	1.7184e+02	-11.1943	-55.139200	0.000264	2.635167	0.892819	0.000105
1729	1.7194e+02	-11.1494	-55.034234	0.000264	2.635167	0.892819	0.000105
1730	1.7204e+02	-11.1109	-54.884860	0.000375	3.750046	1.270550	0.000150
1731	1.7213e+02	-11.0724	-54.836415	0.000122	1.216231	0.412070	0.000049
1732	1.7223e+02	-11.0339	-54.691078	0.000365	3.648693	1.236211	0.000146
1733	1.7233e+02	-10.9954	-54.513444	0.000446	4.459514	1.510924	0.000179
1734	1.7243e+02	-10.9569	-54.416553	0.000243	2.432462	0.824140	0.000097
1735	1.7253e+02	-10.9120	-54.331773	0.000213	2.128404	0.721123	0.000085
1736	1.7263e+02	-10.8751	-54.174324	0.000395	3.952751	1.339228	0.000158
1737	1.7273e+02	-10.8414	-54.057248	0.000294	2.939225	0.995836	0.000118
1738	1.7283e+02	-10.7901	-53.936133	0.000304	3.040577	1.030176	0.000122
1739	1.7293e+02	-10.7532	-53.839242	0.000243	2.432462	0.824140	0.000097
1740	1.7303e+02	-10.7131	-53.697942	0.000355	3.547340	1.201871	0.000142
1741	1.7313e+02	-10.6810	-53.592977	0.000264	2.635167	0.892819	0.000105
1742	1.7323e+02	-10.6361	-53.475900	0.000294	2.939225	0.995836	0.000118
1743	1.7333e+02	-10.5895	-53.374972	0.000253	2.533815	0.858480	0.000101
1744	1.7343e+02	-10.5510	-53.241746	0.000334	3.344635	1.133193	0.000134
1745	1.7353e+02	-10.5077	-53.096409	0.000365	3.648693	1.236211	0.000146
1746	1.7363e+02	-10.4821	-52.999518	0.000243	2.432462	0.824140	0.000097
1747	1.7373e+02	-10.4339	-52.858218	0.000355	3.547340	1.201871	0.000142
1748	1.7383e+02	-10.3986	-52.797661	0.000152	1.520289	0.515088	0.000061
1749	1.7393e+02	-10.3553	-52.664436	0.000334	3.344635	1.133193	0.000134
1750	1.7403e+02	-10.3216	-52.515062	0.000375	3.750046	1.270550	0.000150
1751	1.7413e+02	-10.2815	-52.418170	0.000243	2.432462	0.824140	0.000097
1752	1.7422e+02	-10.2366	-52.256685	0.000405	4.054103	1.373567	0.000162
1753	1.7432e+02	-10.1965	-52.167868	0.000223	2.229757	0.755462	0.000089
1754	1.7442e+02	-10.1564	-52.058865	0.000274	2.736520	0.927158	0.000110
1755	1.7452e+02	-10.1195	-51.925640	0.000334	3.344635	1.133193	0.000134
1756	1.7462e+02	-10.0922	-51.820674	0.000264	2.635167	0.892819	0.000105
1757	1.7472e+02	-10.0409	-51.703597	0.000294	2.939225	0.995836	0.000118
1758	1.7482e+02	-9.9976	-51.530001	0.000436	4.358161	1.476585	0.000174
1759	1.7492e+02	-9.9527	-51.457332	0.000182	1.824346	0.618105	0.000073
1760	1.7502e+02	-9.9286	-51.307958	0.000375	3.750046	1.270550	0.000150
1761	1.7512e+02	-9.8757	-51.235290	0.000182	1.824346	0.618105	0.000073
1762	1.7522e+02	-9.8339	-51.069767	0.000416	4.155456	1.407907	0.000166
1763	1.7532e+02	-9.8051	-50.956727	0.000284	2.837872	0.961497	0.000114
1764	1.7542e+02	-9.7634	-50.843687	0.000284	2.837872	0.961497	0.000114
1765	1.7552e+02	-9.7265	-50.694313	0.000375	3.750046	1.270550	0.000150
1766	1.7562e+02	-9.6783	-50.609534	0.000213	2.128404	0.721123	0.000085
1767	1.7572e+02	-9.6495	-50.468234	0.000355	3.547340	1.201871	0.000142
1768	1.7582e+02	-9.6013	-50.359231	0.000274	2.736520	0.927158	0.000110
1769	1.7592e+02	-9.5612	-50.242154	0.000294	2.939225	0.995836	0.000118
1770	1.7602e+02	-9.5083	-50.125077	0.000294	2.939225	0.995836	0.000118
1771	1.7612e+02	-9.4842	-49.971666	0.000385	3.851398	1.304889	0.000154
1772	1.7621e+02	-9.4409	-49.858626	0.000284	2.837872	0.961497	0.000114
1773	1.7631e+02	-9.3960	-49.721364	0.000345	3.445988	1.167532	0.000138
1774	1.7641e+02	-9.3639	-49.616398	0.000264	2.635167	0.892819	0.000105
1775	1.7651e+02	-9.3254	-49.475098	0.000355	3.547340	1.201871	0.000142
1776	1.7661e+02	-9.2789	-49.329762	0.000365	3.648693	1.236211	0.000146
1777	1.7671e+02	-9.2324	-49.232870	0.000243	2.432462	0.824140	0.000097
1778	1.7681e+02	-9.2099	-49.119831	0.000284	2.837872	0.961497	0.000114
1779	1.7691e+02	-9.1618	-48.982568	0.000345	3.445988	1.167532	0.000138
1780	1.7701e+02	-9.1217	-48.845305	0.000345	3.445988	1.167532	0.000138
1781	1.7711e+02	-9.0816	-48.695931	0.000375	3.750046	1.270550	0.000150
1782	1.7721e+02	-9.0463	-48.578854	0.000294	2.939225	0.995836	0.000118
1783	1.7731e+02	-8.9997	-48.461777	0.000294	2.939225	0.995836	0.000118
1784	1.7741e+02	-8.9628	-48.356812	0.000264	2.635167	0.892819	0.000105
1785	1.7751e+02	-8.9163	-48.231661	0.000314	3.141930	1.064515	0.000126
1786	1.7761e+02	-8.8826	-48.098435	0.000334	3.344635	1.133193	0.000134
1787	1.7771e+02	-8.8457	-47.932913	0.000416	4.155456	1.407907	0.000166
1788	1.7781e+02	-8.7992	-47.815836	0.000294	2.939225	0.995836	0.000118
1789	1.7791e+02	-8.7559	-47.690684	0.000314	3.141930	1.064515	0.000126
1790	1.7801e+02	-8.7286	-47.577645	0.000284	2.837872	0.961497	0.000114
1791	1.7810e+02	-8.6982	-47.460568	0.000294	2.939225	0.995836	0.000118
1792	1.7820e+02	-8.6452	-47.331379	0.000324	3.243283	1.098854	0.000130
1793	1.7830e+02	-8.6019	-47.173931	0.000395	3.952751	1.339228	0.000158
1794	1.7840e+02	-8.5666	-47.036668	0.000345	3.445988	1.167532	0.000138
1795	1.7850e+02	-8.5201	-46.895369	0.000355	3.547340	1.201871	0.000142
1796	1.7860e+02	-8.4896	-46.774255	0.000304	3.040577	1.030176	0.000122
1797	1.7870e+02	-8.4431	-46.665252	0.000274	2.736520	0.927158	0.000110
1798	1.7880e+02	-8.3998	-46.536064	0.000324	3.243283	1.098854	0.000130
1799	1.7890e+02	-8.3725	-46.394764	0.000355	3.547340	1.201871	0.000142
1800	1.7900e+02	-8.3308	-46.249427	0.000365	3.648693	1.236211	0.000146
1801	1.7910e+02	-8.2827	-46.100053	0.000375	3.750046	1.270550	0.000150
1802	1.7920e+02	-8.2490	-45.970865	0.000324	3.243283	1.098854	0.000130
1803	1.7930e+02	-8.2073	-45.861862	0.000274	2.736520	0.927158	0.000110
1804	1.7940e+02	-8.1655	-45.732674	0.000324	3.243283	1.098854	0.000130
1805	1.7950e+02	-8.1222	-45.583300	0.000375	3.750046	1.270550	0.000150
1806	1.7960e+02	-8.0869	-45.466223	0.000294	2.939225	0.995836	0.000118
1807	1.7970e+02	-8.0404	-45.337034	0.000324	3.243283	1.098854	0.000130
1808	1.7980e+02	-8.0099	-45.203809	0.000334	3.344635	1.133193	0.000134
1809	1.7990e+02	-7.9682	-45.078658	0.000314	3.141930	1.064515	0.000126
1810	1.8000e+02	-7.9265	-44.941395	0.000345	3.445988	1.167532	0.000138
1811	1.8009e+02	-7.8928	-44.787984	0.000385	3.851398	1.304889	0.000154
1812	1.8019e+02	-7.8415	-44.687055	0.000253	2.533815	0.858480	0.000101
1813	1.8029e+02	-7.8110	-44.541719	0.000365	3.648693	1.236211	0.000146
1814	1.8039e+02	-7.7581	-44.376196	0.000416	4.155456	1.407907	0.000166
1815	1.8049e+02	-7.7196	-44.275268	0.000253	2.533815	0.858480	0.000101
1816	1.8059e+02	-7.6891	-44.117819	0.000395	3.952751	1.339228	0.000158
1817	1.8069e+02	-7.6506	-44.016891	0.000253	2.533815	0.858480	0.000101
1818	1.8079e+02	-7.6073	-43.843294	0.000436	4.358161	1.476585	0.000174
1819	1.8089e+02	-7.5640	-43.722180	0.000304	3.040577	1.030176	0.000122
1820	1.8099e+02	-7.5271	-43.576843	0.000365	3.648693	1.236211	0.000146
1821	1.8109e+02	-7.4918	-43.455729	0.000304	3.040577	1.030176	0.000122
1822	1.8119e+02	-7.4420	-43.322504	0.000334	3.344635	1.133193	0.000134
1823	1.8129e+02	-7.4083	-43.156981	0.000416	4.155456	1.407907	0.000166
1824	1.8139e+02	-7.3602	-43.015681	0.000355	3.547340	1.201871	0.000142
1825	1.8149e+02	-7.3362	-42.914753	0.000253	2.533815	0.858480	0.000101
1826	1.8159e+02	-7.2800	-42.737119	0.000446	4.459514	1.510924	0.000179
1827	1.8169e+02	-7.2495	-42.644265	0.000233	2.331109	0.789801	0.000093
1828	1.8179e+02	-7.2078	-42.462594	0.000456	4.560866	1.545263	0.000183
1829	1.8189e+02	-7.1725	-42.329368	0.000334	3.344635	1.133193	0.000134
1830	1.8199e+02	-7.1308	-42.184031	0.000365	3.648693	1.236211	0.000146
1831	1.8209e+02	-7.1019	-42.046769	0.000345	3.445988	1.167532	0.000138
1832	1.8218e+02	-7.0522	-41.925655	0.000304	3.040577	1.030176	0.000122
1833	1.8228e+02	-7.0121	-41.752058	0.000436	4.358161	1.476585	0.000174
1834	1.8238e+02	-6.9688	-41.643055	0.000274	2.736520	0.927158	0.000110
1835	1.8248e+02	-6.9319	-41.501755	0.000355	3.547340	1.201871	0.000142
1836	1.8258e+02	-6.8854	-41.324121	0.000446	4.459514	1.510924	0.000179
1837	1.8268e+02	-6.8485	-41.170710	0.000385	3.851398	1.304889	0.000154
1838	1.8278e+02	-6.8100	-41.069782	0.000253	2.533815	0.858480	0.000101
1839	1.8288e+02	-6.7667	-40.888111	0.000456	4.560866	1.545263	0.000183
1840	1.8298e+02	-6.7314	-40.750848	0.000345	3.445988	1.167532	0.000138
1841	1.8308e+02	-6.6897	-40.609548	0.000355	3.547340	1.201871	0.000142
1842	1.8318e+02	-6.6624	-40.456137	0.000385	3.851398	1.304889	0.000154
1843	1.8328e+02	-6.6110	-40.330986	0.000314	3.141930	1.064515	0.000126
1844	1.8338e+02	-6.5693	-40.157389	0.000436	4.358161	1.476585	0.000174
1845	1.8348e+02	-6.5260	-40.008015	0.000375	3.750046	1.270550	0.000150
1846	1.8358e+02	-6.4923	-39.878827	0.000324	3.243283	1.098854	0.000130
1847	1.8368e+02	-6.4426	-39.697156	0.000456	4.560866	1.545263	0.000183
1848	1.8378e+02	-6.4105	-39.580079	0.000294	2.939225	0.995836	0.000118
1849	1.8388e+02	-6.3784	-39.414556	0.000416	4.155456	1.407907	0.000166
1850	1.8398e+02	-6.3367	-39.297479	0.000294	2.939225	0.995836	0.000118
1851	1.8407e+02	-6.2966	-39.172328	0.000314	3.141930	1.064515	0.000126
1852	1.8417e+02	-6.2549	-39.055251	0.000294	2.939225	0.995836	0.000118
1853	1.8427e+02	-6.2196	-38.861469	0.000486	4.864924	1.648281	0.000195
1854	1.8437e+02	-6.1779	-38.671723	0.000476	4.763571	1.613942	0.000191
1855	1.8447e+02	-6.1426	-38.550609	0.000304	3.040577	1.030176	0.000122
1856	1.8457e+02	-6.0993	-38.457755	0.000233	2.331109	0.789801	0.000093
1857	1.8467e+02	-6.0528	-38.243787	0.000537	5.371687	1.819977	0.000215
1858	1.8477e+02	-6.0191	-38.122673	0.000304	3.040577	1.030176	0.000122
1859	1.8487e+02	-5.9710	-37.985410	0.000345	3.445988	1.167532	0.000138
1860	1.8497e+02	-5.9373	-37.827962	0.000395	3.952751	1.339228	0.000158
1861	1.8507e+02	-5.9004	-37.642254	0.000466	4.662219	1.579602	0.000187
1862	1.8517e+02	-5.8506	-37.529214	0.000284	2.837872	0.961497	0.000114
1863	1.8527e+02	-5.8234	-37.331394	0.000497	4.966277	1.682620	0.000199
1864	1.8537e+02	-5.7704	-37.194132	0.000345	3.445988	1.167532	0.000138
1865	1.8547e+02	-5.7223	-37.064943	0.000324	3.243283	1.098854	0.000130
1866	1.8557e+02	-5.7030	-36.903458	0.000405	4.054103	1.373567	0.000162
1867	1.8567e+02	-5.6694	-36.754084	0.000375	3.750046	1.270550	0.000150
1868	1.8577e+02	-5.6180	-36.572413	0.000456	4.560866	1.545263	0.000183
1869	1.8587e+02	-5.5827	-36.435150	0.000345	3.445988	1.167532	0.000138
1870	1.8597e+02	-5.5314	-36.285776	0.000375	3.750046	1.270550	0.000150
1871	1.8606e+02	-5.4993	-36.104105	0.000456	4.560866	1.545263	0.000183
1872	1.8616e+02	-5.4688	-36.007214	0.000243	2.432462	0.824140	0.000097
1873	1.8626e+02	-5.4175	-35.801320	0.000517	5.168982	1.751298	0.000207
1874	1.8636e+02	-5.3790	-35.680206	0.000304	3.040577	1.030176	0.000122
1875	1.8646e+02	-5.3357	-35.534869	0.000365	3.648693	1.236211	0.000146
1876	1.8656e+02	-5.2908	-35.361272	0.000436	4.358161	1.476585	0.000174
1877	1.8666e+02	-5.2587	-35.191712	0.000426	4.256808	1.442246	0.000170
1878	1.8676e+02	-5.2186	-35.054450	0.000345	3.445988	1.167532	0.000138
1879	1.8686e+02	-5.1753	-34.921224	0.000334	3.344635	1.133193	0.000134
1880	1.8696e+02	-5.1496	-34.723404	0.000497	4.966277	1.682620	0.000199
1881	1.8706e+02	-5.1015	-34.549808	0.000436	4.358161	1.476585	0.000174
1882	1.8716e+02	-5.0662	-34.408508	0.000355	3.547340	1.201871	0.000142
1883	1.8726e+02	-5.0180	-34.291431	0.000294	2.939225	0.995836	0.000118
1884	1.8736e+02	-4.9795	-34.093611	0.000497	4.966277	1.682620	0.000199
1885	1.8746e+02	-4.9426	-33.932126	0.000405	4.054103	1.373567	0.000162
1886	1.8756e+02	-4.8993	-33.762566	0.000426	4.256808	1.442246	0.000170
1887	1.8766e+02	-4.8544	-33.605118	0.000395	3.952751	1.339228	0.000158
1888	1.8776e+02	-4.8207	-33.443632	0.000405	4.054103	1.373567	0.000162
1889	1.8786e+02	-4.7902	-33.274073	0.000426	4.256808	1.442246	0.000170
1890	1.8796e+02	-4.7405	-33.096439	0.000446	4.459514	1.510924	0.000179
1891	1.8806e+02	-4.7004	-32.983399	0.000284	2.837872	0.961497	0.000114
1892	1.8815e+02	-4.6667	-32.825951	0.000395	3.952751	1.339228	0.000158
1893	1.8825e+02	-4.6186	-32.636205	0.000476	4.763571	1.613942	0.000191
1894	1.8835e+02	-4.5881	-32.507017	0.000324	3.243283	1.098854	0.000130
1895	1.8845e+02	-4.5384	-32.321309	0.000466	4.662219	1.579602	0.000187
1896	1.8855e+02	-4.5063	-32.155786	0.000416	4.155456	1.407907	0.000166
1897	1.8865e+02	-4.4582	-31.990264	0.000416	4.155456	1.407907	0.000166
1898	1.8875e+02	-4.4197	-31.820704	0.000426	4.256808	1.442246	0.000170
1899	1.8885e+02	-4.3844	-31.659218	0.000405	4.054103	1.373567	0.000162
1900	1.8895e+02	-4.3443	-31.505807	0.000385	3.851398	1.304889	0.000154
1901	1.8905e+02	-4.2993	-31.320099	0.000466	4.662219	1.579602	0.000187
1902	1.8915e+02	-4.2624	-31.162651	0.000395	3.952751	1.339228	0.000158
1903	1.8925e+02	-4.2239	-30.960794	0.000507	5.067629	1.716959	0.000203
1904	1.8935e+02	-4.1919	-30.811420	0.000375	3.750046	1.270550	0.000150
1905	1.8945e+02	-4.1357	-30.613600	0.000497	4.966277	1.682620	0.000199
1906	1.8955e+02	-4.1004	-30.500561	0.000284	2.837872	0.961497	0.000114
1907	1.8965e+02	-4.0635	-30.306778	0.000486	4.864924	1.648281	0.000195
1908	1.8975e+02	-4.0298	-30.137218	0.000426	4.256808	1.442246	0.000170
1909	1.8985e+02	-3.9769	-29.971696	0.000416	4.155456	1.407907	0.000166
1910	1.8995e+02	-3.9384	-29.798099	0.000436	4.358161	1.476585	0.000174
1911	1.9004e+02	-3.8983	-29.604316	0.000486	4.864924	1.648281	0.000195
1912	1.9014e+02	-3.8614	-29.479165	0.000314	3.141930	1.064515	0.000126
1913	1.9024e+02	-3.8325	-29.305568	0.000436	4.358161	1.476585	0.000174
1914	1.9034e+02	-3.7828	-29.160231	0.000365	3.648693	1.236211	0.000146
1915	1.9044e+02	-3.7411	-28.966449	0.000486	4.864924	1.648281	0.000195
1916	1.9054e+02	-3.6994	-28.796889	0.000426	4.256808	1.442246	0.000170
1917	1.9064e+02	-3.6625	-28.611181	0.000466	4.662219	1.579602	0.000187
1918	1.9074e+02	-3.6288	-28.461807	0.000375	3.750046	1.270550	0.000150
1919	1.9084e+02	-3.5774	-28.272062	0.000476	4.763571	1.613942	0.000191
1920	1.9094e+02	-3.5405	-28.094428	0.000446	4.459514	1.510924	0.000179
1921	1.9104e+02	-3.5052	-27.900645	0.000486	4.864924	1.648281	0.000195
1922	1.9114e+02	-3.4651	-27.759345	0.000355	3.547340	1.201871	0.000142
1923	1.9124e+02	-3.4202	-27.577674	0.000456	4.560866	1.545263	0.000183
1924	1.9134e+02	-3.3801	-27.404077	0.000436	4.358161	1.476585	0.000174
1925	1.9144e+02	-3.3432	-27.202221	0.000507	5.067629	1.716959	0.000203
1926	1.9154e+02	-3.3079	-27.068995	0.000334	3.344635	1.133193	0.000134
1927	1.9164e+02	-3.2791	-26.907510	0.000405	4.054103	1.373567	0.000162
1928	1.9174e+02	-3.2213	-26.665282	0.000608	6.081155	2.060351	0.000243
1929	1.9184e+02	-3.1876	-26.507833	0.000395	3.952751	1.339228	0.000158
1930	1.9194e+02	-3.1555	-26.362496	0.000365	3.648693	1.236211	0.000146
1931	1.9203e+02	-3.0994	-26.172751	0.000476	4.763571	1.613942	0.000191
1932	1.9213e+02	-3.0689	-25.995117	0.000446	4.459514	1.510924	0.000179
1933	1.9223e+02	-3.0288	-25.748852	0.000618	6.182508	2.094690	0.000248
1934	1.9233e+02	-2.9919	-25.595441	0.000385	3.851398	1.304889	0.000154
1935	1.9243e+02	-2.9518	-25.429918	0.000416	4.155456	1.407907	0.000166
1936	1.9253e+02	-2.9085	-25.256321	0.000436	4.358161	1.476585	0.000174
1937	1.9263e+02	-2.8700	-25.058502	0.000497	4.966277	1.682620	0.000199
1938	1.9273e+02	-2.8218	-24.860682	0.000497	4.966277	1.682620	0.000199
1939	1.9283e+02	-2.7898	-24.707271	0.000385	3.851398	1.304889	0.000154
1940	1.9293e+02	-2.7448	-24.513488	0.000486	4.864924	1.648281	0.000195
1941	1.9303e+02	-2.7144	-24.287409	0.000568	5.675745	1.922994	0.000227
1942	1.9313e+02	-2.6646	-24.142072	0.000365	3.648693	1.236211	0.000146
1943	1.9323e+02	-2.6245	-23.944252	0.000497	4.966277	1.682620	0.000199
1944	1.9333e+02	-2.5876	-23.750470	0.000486	4.864924	1.648281	0.000195
1945	1.9343e+02	-2.5507	-23.568798	0.000456	4.560866	1.545263	0.000183
1946	1.9353e+02	-2.5122	-23.354830	0.000537	5.371687	1.819977	0.000215
1947	1.9363e+02	-2.4673	-23.221605	0.000334	3.344635	1.133193	0.000134
1948	1.9373e+02	-2.4256	-22.999562	0.000557	5.574392	1.888655	0.000223
1949	1.9383e+02	-2.3871	-22.805780	0.000486	4.864924	1.648281	0.000195
1950	1.9393e+02	-2.3470	-22.636220	0.000426	4.256808	1.442246	0.000170
1951	1.9403e+02	-2.3069	-22.414178	0.000557	5.574392	1.888655	0.000223
1952	1.9412e+02	-2.2732	-22.236544	0.000446	4.459514	1.510924	0.000179
1953	1.9422e+02	-2.2299	-22.030650	0.000517	5.168982	1.751298	0.000207
1954	1.9432e+02	-2.1882	-21.853016	0.000446	4.459514	1.510924	0.000179
1955	1.9442e+02	-2.1400	-21.643085	0.000527	5.270334	1.785638	0.000211
1956	1.9452e+02	-2.1192	-21.493711	0.000375	3.750046	1.270550	0.000150
1957	1.9462e+02	-2.0711	-21.279742	0.000537	5.371687	1.819977	0.000215
1958	1.9472e+02	-2.0358	-21.094034	0.000466	4.662219	1.579602	0.000187
1959	1.9482e+02	-1.9909	-20.900252	0.000486	4.864924	1.648281	0.000195
1960	1.9492e+02	-1.9588	-20.641875	0.000649	6.486565	2.197708	0.000260
1961	1.9502e+02	-1.9106	-20.480390	0.000405	4.054103	1.373567	0.000162
1962	1.9512e+02	-1.8786	-20.238161	0.000608	6.081155	2.060351	0.000243
1963	1.9522e+02	-1.8336	-20.052453	0.000466	4.662219	1.579602	0.000187
1964	1.9532e+02	-1.7887	-19.903079	0.000375	3.750046	1.270550	0.000150
1965	1.9542e+02	-1.7454	-19.681037	0.000557	5.574392	1.888655	0.000223
1966	1.9552e+02	-1.7117	-19.475143	0.000517	5.168982	1.751298	0.000207
1967	1.9562e+02	-1.6668	-19.289435	0.000466	4.662219	1.579602	0.000187
1968	1.9572e+02	-1.6347	-19.095652	0.000486	4.864924	1.648281	0.000195
1969	1.9582e+02	-1.5930	-18.849387	0.000618	6.182508	2.094690	0.000248
1970	1.9592e+02	-1.5609	-18.683864	0.000416	4.155456	1.407907	0.000166
1971	1.9601e+02	-1.5144	-18.461822	0.000557	5.574392	1.888655	0.000223
1972	1.9611e+02	-1.4759	-18.243816	0.000547	5.473039	1.854316	0.000219
1973	1.9621e+02	-1.4406	-18.001588	0.000608	6.081155	2.060351	0.000243
1974	1.9631e+02	-1.3893	-17.832029	0.000426	4.256808	1.442246	0.000170
1975	1.9641e+02	-1.3556	-17.630172	0.000507	5.067629	1.716959	0.000203
1976	1.9651e+02	-1.3139	-17.424278	0.000517	5.168982	1.751298	0.000207
1977	1.9661e+02	-1.2738	-17.234532	0.000476	4.763571	1.613942	0.000191
1978	1.9671e+02	-1.2369	-17.000379	0.000588	5.878450	1.991673	0.000235
1979	1.9681e+02	-1.1984	-16.826782	0.000436	4.358161	1.476585	0.000174
1980	1.9691e+02	-1.1534	-16.564368	0.000659	6.587918	2.232047	0.000264
1981	1.9701e+02	-1.1165	-16.378660	0.000466	4.662219	1.579602	0.000187
1982	1.9711e+02	-1.0716	-16.164691	0.000537	5.371687	1.819977	0.000215
1983	1.9721e+02	-1.0331	-15.946686	0.000547	5.473039	1.854316	0.000219
1984	1.9731e+02	-0.9962	-15.752904	0.000486	4.864924	1.648281	0.000195
1985	1.9741e+02	-0.9593	-15.530861	0.000557	5.574392	1.888655	0.000223
1986	1.9751e+02	-0.9208	-15.345153	0.000466	4.662219	1.579602	0.000187
1987	1.9761e+02	-0.8791	-15.106962	0.000598	5.979802	2.026012	0.000239
1988	1.9771e+02	-0.8342	-14.905105	0.000507	5.067629	1.716959	0.000203
1989	1.9781e+02	-0.8005	-14.687100	0.000547	5.473039	1.854316	0.000219
1990	1.9791e+02	-0.7508	-14.473132	0.000537	5.371687	1.819977	0.000215
1991	1.9800e+02	-0.7091	-14.267238	0.000517	5.168982	1.751298	0.000207
1992	1.9810e+02	-0.6706	-14.041158	0.000568	5.675745	1.922994	0.000227
1993	1.9820e+02	-0.6337	-13.827190	0.000537	5.371687	1.819977	0.000215
1994	1.9830e+02	-0.5920	-13.605147	0.000557	5.574392	1.888655	0.000223
1995	1.9840e+02	-0.5503	-13.362919	0.000608	6.081155	2.060351	0.000243
1996	1.9850e+02	-0.5198	-13.181248	0.000456	4.560866	1.545263	0.000183
1997	1.9860e+02	-0.4781	-12.967280	0.000537	5.371687	1.819977	0.000215
1998	1.9870e+02	-0.4476	-12.749275	0.000547	5.473039	1.854316	0.000219
1999	1.9880e+02	-0.3914	-12.527232	0.000557	5.574392	1.888655	0.000223
2000	1.9890e+02	-0.3561	-12.293078	0.000588	5.878450	1.991673	0.000235
2001	1.9900e+02	-0.3225	-12.062962	0.000578	5.777097	1.957334	0.000231
2002	1.9910e+02	-0.2759	-11.816696	0.000618	6.182508	2.094690	0.000248
2003	1.9920e+02	-0.2503	-11.622914	0.000486	4.864924	1.648281	0.000195
2004	1.9930e+02	-0.1957	-11.429131	0.000486	4.864924	1.648281	0.000195
2005	1.9940e+02	-0.1652	-11.186903	0.000608	6.081155	2.060351	0.000243
2006	1.9950e+02	-0.1171	-10.964861	0.000557	5.574392	1.888655	0.000223
2007	1.9960e+02	-0.0802	-10.754930	0.000527	5.270334	1.785638	0.000211
2008	1.9970e+02	-0.0321	-10.528850	0.000568	5.675745	1.922994	0.000227
2009	1.9980e+02	0.0032	-10.298733	0.000568	5.675745	1.922994	0.000231

Center data before PMax,+/-Pr and +/-Vc Calc.

PMax (uC/cm2):	7.47e+01
Pr (uC/cm2):	5.96e+00
-Pr (uC/cm2):	-1.03e+01
PLoss (uC/cm2):	-9.44e+00
-Vc:	-1.14e+00
C (Max-Eff) (nF):	3.74e-01
K (Eff):	1.27e+03
Vert. (+/-Pr) Shift (uC/cm2):	-2.17e+00
Offset (uC/cm2):	8.56e-01

A (Loop Area - uC/cm2·Volts):	7.44e-02



Hysteresis Version: 5.48.1 - Radiant Technologies, Inc., 1999 - 9/12/24

