»»»»»»»»»»»»»»»»»»»»»»»»»»»»»»»»»»»» Hysteresis ««««««««««««««««««««««««««««««««««««
»»»  Executed Version:	5.48.1
»»»  Vision Version:	5.48.4 (R)
»»»  Vision Compiled:	9/18/24
»»»  Driver Version:	5.47.0
»»»  Windows Version:	Windows 8 or 8.1
»»»  Processor Information:	x86 (AMD or Intel) - 32 Processors
»»»  Tester Name:	PMF21124-494 (100V)
»»»  Tester S/N:	PMF21124-494
»»»  Internal Amp Type:	100V RevK 270k
»»»  Internal Amp S/N:	iAB2-596/K     
»»»  Execution Count:	1
»»»»»»»»»»»»»»»»»»»»»»»»»»»»»»»»»»»»»»»»»»««««««««««««««««««««««««««««««««««««««««««

Stored:	6/13/2025 - 11:20:48
Configured:	06/13/25 10:12:58 AM
Executed:	06/13/25 11:20:11 AM

»»»»»»»»»»»»»»»»»»»»»»»»»»»»»»»»»»» Sample Info ««««««««««««««««««««««««««««««««««««
Sample Name:	
Lot Name:	
Wafer Name:	
Die Row/Column:	0/0
Capacitor Number:	0
Sample Area (cm2):	1.00e-04
Sample Thickness (microns):	3.00e-01

Amplifier:	Internal

»»»»»»»»»»»»»»»»»»»»»»»»»»»»»»»»»»» Tester Info «««««««««««««««««««««««««««««««««««
Tester Name:	PMF21124-494 (100V)
Tester Serial Number:	PMF21124-494
Return Signal Amp. Level:	0.19 [Index: 3]

»»»»»»»»»»»»»»»»»»»»»»»»»»»»»»»» Hysteresis Info ««««««««««««««««««««««««««««««««««
Task Name:	Hyst-1704
Volts:	20.00
Field:	666.67 (kV/cm)
DCBias:	0.00
DCField:	0.00 (kV/cm)
Hysteresis Period (ms):	2.00e+02
Preset:	Enabled
Preset Delay (ms):	1.00e+03
Profile:	Standard Bipolar

»»»»»»»»»»»»»»»»»»»»»»»»»»»»»»»»»»»»»» Data «««««««««««««««««««««««««««««««««««««««
Points:	2009

Valid Data

Point	Time (ms)	Drive Voltage	Measured Polarization (uC/cm2)	Capacitance (uF)	Normalized Capacitance (uF/cm2)	Dielectric Constant	Instantaneous Current (mA)
   1	0.0000e+00	0.0000	-2.605971	0.000253	2.534018	0.858548	0.000101
   2	9.9500e-02	0.0321	-2.505043	0.000253	2.534018	0.858548	0.000101
   3	1.9900e-01	0.0754	-2.295112	0.000527	5.270757	1.785781	0.000211
   4	2.9850e-01	0.1171	-2.109403	0.000466	4.662593	1.579729	0.000187
   5	3.9800e-01	0.1492	-1.964067	0.000365	3.648986	1.236310	0.000146
   6	4.9750e-01	0.1861	-1.750098	0.000537	5.372118	1.820123	0.000215
   7	5.9700e-01	0.2230	-1.528056	0.000557	5.574839	1.888807	0.000223
   8	6.9650e-01	0.2743	-1.382719	0.000365	3.648986	1.236310	0.000146
   9	7.9600e-01	0.3144	-1.180862	0.000507	5.068036	1.717097	0.000203
  10	8.9550e-01	0.3610	-0.999191	0.000456	4.561232	1.545387	0.000183
  11	9.9500e-01	0.3898	-0.789260	0.000527	5.270757	1.785781	0.000211
  12	1.0945e+00	0.4380	-0.607589	0.000456	4.561232	1.545387	0.000183
  13	1.1940e+00	0.4684	-0.417844	0.000476	4.763954	1.614071	0.000191
  14	1.2935e+00	0.5118	-0.236172	0.000456	4.561232	1.545387	0.000183
  15	1.3930e+00	0.5454	-0.082761	0.000385	3.851707	1.304994	0.000154
  16	1.4925e+00	0.5952	0.179653	0.000659	6.588446	2.232226	0.000264
  17	1.5920e+00	0.6273	0.337101	0.000395	3.953068	1.339336	0.000158
  18	1.6915e+00	0.6738	0.510698	0.000436	4.358511	1.476703	0.000174
  19	1.7910e+00	0.7155	0.728703	0.000547	5.473479	1.854465	0.000219
  20	1.8905e+00	0.7540	0.906337	0.000446	4.459871	1.511045	0.000179
  21	1.9900e+00	0.7909	1.071860	0.000416	4.155789	1.408020	0.000166
  22	2.0895e+00	0.8278	1.261605	0.000476	4.763954	1.614071	0.000191
  23	2.1890e+00	0.8727	1.479610	0.000547	5.473479	1.854465	0.000219
  24	2.2885e+00	0.9064	1.685504	0.000517	5.169396	1.751439	0.000207
  25	2.3880e+00	0.9481	1.867175	0.000456	4.561232	1.545387	0.000183
  26	2.4875e+00	0.9834	2.089218	0.000557	5.574839	1.888807	0.000223
  27	2.5870e+00	1.0283	2.262815	0.000436	4.358511	1.476703	0.000174
  28	2.6865e+00	1.0572	2.464671	0.000507	5.068036	1.717097	0.000203
  29	2.7860e+00	1.1069	2.634231	0.000426	4.257150	1.442361	0.000170
  30	2.8855e+00	1.1454	2.832051	0.000497	4.966675	1.682755	0.000199
  31	2.9850e+00	1.1887	3.029870	0.000497	4.966675	1.682755	0.000199
  32	3.0845e+00	1.2176	3.223653	0.000487	4.865314	1.648413	0.000195
  33	3.1840e+00	1.2641	3.421473	0.000497	4.966675	1.682755	0.000199
  34	3.2835e+00	1.3107	3.603144	0.000456	4.561232	1.545387	0.000183
  35	3.3830e+00	1.3540	3.817112	0.000537	5.372118	1.820123	0.000215
  36	3.4825e+00	1.3861	4.006857	0.000476	4.763954	1.614071	0.000191
  37	3.5820e+00	1.4262	4.192565	0.000466	4.662593	1.579729	0.000187
  38	3.6815e+00	1.4695	4.354051	0.000405	4.054429	1.373678	0.000162
  39	3.7810e+00	1.5000	4.563982	0.000527	5.270757	1.785781	0.000211
  40	3.8805e+00	1.5561	4.745653	0.000456	4.561232	1.545387	0.000183
  41	3.9800e+00	1.5946	4.959621	0.000537	5.372118	1.820123	0.000215
  42	4.0795e+00	1.6299	5.197812	0.000598	5.980282	2.026174	0.000239
  43	4.1790e+00	1.6716	5.351223	0.000385	3.851707	1.304994	0.000154
  44	4.2785e+00	1.7085	5.528857	0.000446	4.459871	1.511045	0.000179
  45	4.3780e+00	1.7534	5.722640	0.000487	4.865314	1.648413	0.000195
  46	4.4775e+00	1.7903	5.924497	0.000507	5.068036	1.717097	0.000203
  47	4.5770e+00	1.8224	6.081945	0.000395	3.953068	1.339336	0.000158
  48	4.6765e+00	1.8673	6.316099	0.000588	5.878921	1.991833	0.000235
  49	4.7760e+00	1.9042	6.481621	0.000416	4.155789	1.408020	0.000166
  50	4.8755e+00	1.9459	6.703664	0.000557	5.574839	1.888807	0.000223
  51	4.9750e+00	1.9860	6.812667	0.000274	2.736739	0.927232	0.000110
  52	5.0745e+00	2.0213	7.058932	0.000618	6.183004	2.094858	0.000248
  53	5.1740e+00	2.0598	7.260789	0.000507	5.068036	1.717097	0.000203
  54	5.2735e+00	2.1048	7.430348	0.000426	4.257150	1.442361	0.000170
  55	5.3730e+00	2.1465	7.628168	0.000497	4.966675	1.682755	0.000199
  56	5.4725e+00	2.1946	7.825988	0.000497	4.966675	1.682755	0.000199
  57	5.5720e+00	2.2251	7.987473	0.000405	4.054429	1.373678	0.000162
  58	5.6715e+00	2.2668	8.193367	0.000517	5.169396	1.751439	0.000207
  59	5.7710e+00	2.3037	8.383112	0.000476	4.763954	1.614071	0.000191
  60	5.8705e+00	2.3518	8.580932	0.000497	4.966675	1.682755	0.000199
  61	5.9700e+00	2.3871	8.758566	0.000446	4.459871	1.511045	0.000179
  62	6.0695e+00	2.4336	8.944274	0.000466	4.662593	1.579729	0.000187
  63	6.1690e+00	2.4625	9.121908	0.000446	4.459871	1.511045	0.000179
  64	6.2685e+00	2.5042	9.263208	0.000355	3.547625	1.201968	0.000142
  65	6.3680e+00	2.5395	9.465065	0.000507	5.068036	1.717097	0.000203
  66	6.4675e+00	2.5828	9.687107	0.000557	5.574839	1.888807	0.000223
  67	6.5670e+00	2.6213	9.913187	0.000568	5.676200	1.923149	0.000227
  68	6.6665e+00	2.6614	10.062561	0.000375	3.750346	1.270652	0.000150
  69	6.7660e+00	2.6999	10.215972	0.000385	3.851707	1.304994	0.000154
  70	6.8655e+00	2.7432	10.438014	0.000557	5.574839	1.888807	0.000223
  71	6.9650e+00	2.7753	10.587388	0.000375	3.750346	1.270652	0.000150
  72	7.0645e+00	2.8251	10.773097	0.000466	4.662593	1.579729	0.000187
  73	7.1640e+00	2.8571	10.930545	0.000395	3.953068	1.339336	0.000158
  74	7.2635e+00	2.9053	11.156625	0.000568	5.676200	1.923149	0.000227
  75	7.3630e+00	2.9422	11.330221	0.000436	4.358511	1.476703	0.000174
  76	7.4625e+00	2.9871	11.532078	0.000507	5.068036	1.717097	0.000203
  77	7.5620e+00	3.0240	11.673378	0.000355	3.547625	1.201968	0.000142
  78	7.6615e+00	3.0689	11.891383	0.000547	5.473479	1.854465	0.000219
  79	7.7610e+00	3.1010	12.069017	0.000446	4.459871	1.511045	0.000179
  80	7.8605e+00	3.1363	12.266837	0.000497	4.966675	1.682755	0.000199
  81	7.9600e+00	3.1812	12.420248	0.000385	3.851707	1.304994	0.000154
  82	8.0595e+00	3.2149	12.609993	0.000476	4.763954	1.614071	0.000191
  83	8.1590e+00	3.2614	12.795702	0.000466	4.662593	1.579729	0.000187
  84	8.2585e+00	3.2999	13.001596	0.000517	5.169396	1.751439	0.000207
  85	8.3580e+00	3.3496	13.175192	0.000436	4.358511	1.476703	0.000174
  86	8.4575e+00	3.3833	13.360901	0.000466	4.662593	1.579729	0.000187
  87	8.5570e+00	3.4186	13.538535	0.000446	4.459871	1.511045	0.000179
  88	8.6565e+00	3.4651	13.704057	0.000416	4.155789	1.408020	0.000166
  89	8.7560e+00	3.5052	13.909951	0.000517	5.169396	1.751439	0.000207
  90	8.8555e+00	3.5341	14.051251	0.000355	3.547625	1.201968	0.000142
  91	8.9550e+00	3.5823	14.249071	0.000497	4.966675	1.682755	0.000199
  92	9.0545e+00	3.6256	14.430742	0.000456	4.561232	1.545387	0.000183
  93	9.1540e+00	3.6657	14.592227	0.000405	4.054429	1.373678	0.000162
  94	9.2535e+00	3.7010	14.781973	0.000476	4.763954	1.614071	0.000191
  95	9.3530e+00	3.7475	14.979792	0.000497	4.966675	1.682755	0.000199
  96	9.4525e+00	3.7796	15.157426	0.000446	4.459871	1.511045	0.000179
  97	9.5520e+00	3.8245	15.318912	0.000405	4.054429	1.373678	0.000162
  98	9.6515e+00	3.8582	15.500583	0.000456	4.561232	1.545387	0.000183
  99	9.7510e+00	3.8919	15.670142	0.000426	4.257150	1.442361	0.000170
 100	9.8505e+00	3.9320	15.847776	0.000446	4.459871	1.511045	0.000179
 101	9.9500e+00	3.9673	16.061745	0.000537	5.372118	1.820123	0.000215
 102	1.0050e+01	4.0266	16.219193	0.000395	3.953068	1.339336	0.000158
 103	1.0149e+01	4.0619	16.384715	0.000416	4.155789	1.408020	0.000166
 104	1.0248e+01	4.0988	16.554275	0.000426	4.257150	1.442361	0.000170
 105	1.0348e+01	4.1373	16.731909	0.000446	4.459871	1.511045	0.000179
 106	1.0447e+01	4.1710	16.881283	0.000375	3.750346	1.270652	0.000150
 107	1.0547e+01	4.2127	17.050843	0.000426	4.257150	1.442361	0.000170
 108	1.0646e+01	4.2624	17.216365	0.000416	4.155789	1.408020	0.000166
 109	1.0746e+01	4.3026	17.430334	0.000537	5.372118	1.820123	0.000215
 110	1.0845e+01	4.3443	17.624116	0.000487	4.865314	1.648413	0.000195
 111	1.0945e+01	4.3731	17.745230	0.000304	3.040821	1.030258	0.000122
 112	1.1044e+01	4.4132	17.934976	0.000476	4.763954	1.614071	0.000191
 113	1.1144e+01	4.4598	18.128758	0.000487	4.865314	1.648413	0.000195
 114	1.1243e+01	4.5063	18.294281	0.000416	4.155789	1.408020	0.000166
 115	1.1343e+01	4.5432	18.407320	0.000284	2.838100	0.961574	0.000114
 116	1.1443e+01	4.5721	18.584954	0.000446	4.459871	1.511045	0.000179
 117	1.1542e+01	4.6154	18.774700	0.000476	4.763954	1.614071	0.000191
 118	1.1642e+01	4.6651	18.932148	0.000395	3.953068	1.339336	0.000158
 119	1.1741e+01	4.6908	19.097671	0.000416	4.155789	1.408020	0.000166
 120	1.1841e+01	4.7325	19.271267	0.000436	4.358511	1.476703	0.000174
 121	1.1940e+01	4.7742	19.452939	0.000456	4.561232	1.545387	0.000183
 122	1.2040e+01	4.8191	19.622498	0.000426	4.257150	1.442361	0.000170
 123	1.2139e+01	4.8512	19.771872	0.000375	3.750346	1.270652	0.000150
 124	1.2239e+01	4.8977	19.941432	0.000426	4.257150	1.442361	0.000170
 125	1.2338e+01	4.9314	20.131177	0.000476	4.763954	1.614071	0.000191
 126	1.2438e+01	4.9699	20.300737	0.000426	4.257150	1.442361	0.000170
 127	1.2537e+01	5.0180	20.433963	0.000334	3.344904	1.133284	0.000134
 128	1.2636e+01	5.0598	20.603522	0.000426	4.257150	1.442361	0.000170
 129	1.2736e+01	5.1015	20.785193	0.000456	4.561232	1.545387	0.000183
 130	1.2835e+01	5.1335	20.983013	0.000497	4.966675	1.682755	0.000199
 131	1.2935e+01	5.1753	21.104127	0.000304	3.040821	1.030258	0.000122
 132	1.3034e+01	5.2057	21.277724	0.000436	4.358511	1.476703	0.000174
 133	1.3134e+01	5.2571	21.459395	0.000456	4.561232	1.545387	0.000183
 134	1.3233e+01	5.2908	21.612806	0.000385	3.851707	1.304994	0.000154
 135	1.3333e+01	5.3357	21.766217	0.000385	3.851707	1.304994	0.000154
 136	1.3432e+01	5.3662	21.891369	0.000314	3.142182	1.064600	0.000126
 137	1.3532e+01	5.4175	22.133597	0.000608	6.081643	2.060516	0.000243
 138	1.3632e+01	5.4448	22.262785	0.000324	3.243543	1.098942	0.000130
 139	1.3731e+01	5.4913	22.416196	0.000385	3.851707	1.304994	0.000154
 140	1.3831e+01	5.5234	22.565570	0.000375	3.750346	1.270652	0.000150
 141	1.3930e+01	5.5699	22.771464	0.000517	5.169396	1.751439	0.000207
 142	1.4030e+01	5.6148	22.941024	0.000426	4.257150	1.442361	0.000170
 143	1.4129e+01	5.6501	23.106546	0.000416	4.155789	1.408020	0.000166
 144	1.4229e+01	5.6870	23.255920	0.000375	3.750346	1.270652	0.000150
 145	1.4328e+01	5.7287	23.437592	0.000456	4.561232	1.545387	0.000183
 146	1.4428e+01	5.7752	23.599077	0.000405	4.054429	1.373678	0.000162
 147	1.4527e+01	5.8153	23.768637	0.000426	4.257150	1.442361	0.000170
 148	1.4627e+01	5.8410	23.901862	0.000334	3.344904	1.133284	0.000134
 149	1.4726e+01	5.8827	24.051236	0.000375	3.750346	1.270652	0.000150
 150	1.4825e+01	5.9341	24.257130	0.000517	5.169396	1.751439	0.000207
 151	1.4925e+01	5.9694	24.394393	0.000345	3.446264	1.167626	0.000138
 152	1.5024e+01	6.0111	24.563952	0.000426	4.257150	1.442361	0.000170
 153	1.5124e+01	6.0415	24.729475	0.000416	4.155789	1.408020	0.000166
 154	1.5223e+01	6.0865	24.903072	0.000436	4.358511	1.476703	0.000174
 155	1.5323e+01	6.1346	25.060520	0.000395	3.953068	1.339336	0.000158
 156	1.5422e+01	6.1683	25.193746	0.000334	3.344904	1.133284	0.000134
 157	1.5522e+01	6.2084	25.383491	0.000476	4.763954	1.614071	0.000191
 158	1.5621e+01	6.2501	25.553051	0.000426	4.257150	1.442361	0.000170
 159	1.5721e+01	6.2886	25.698388	0.000365	3.648986	1.236310	0.000146
 160	1.5820e+01	6.3271	25.867947	0.000426	4.257150	1.442361	0.000170
 161	1.5920e+01	6.3784	26.001173	0.000334	3.344904	1.133284	0.000134
 162	1.6020e+01	6.4169	26.166695	0.000416	4.155789	1.408020	0.000166
 163	1.6119e+01	6.4506	26.328181	0.000405	4.054429	1.373678	0.000162
 164	1.6218e+01	6.4907	26.461406	0.000334	3.344904	1.133284	0.000134
 165	1.6318e+01	6.5244	26.635003	0.000436	4.358511	1.476703	0.000174
 166	1.6418e+01	6.5677	26.820711	0.000466	4.662593	1.579729	0.000187
 167	1.6517e+01	6.6030	26.962011	0.000355	3.547625	1.201968	0.000142
 168	1.6616e+01	6.6479	27.123496	0.000405	4.054429	1.373678	0.000162
 169	1.6716e+01	6.6913	27.276908	0.000385	3.851707	1.304994	0.000154
 170	1.6816e+01	6.7249	27.446467	0.000426	4.257150	1.442361	0.000170
 171	1.6915e+01	6.7602	27.579693	0.000334	3.344904	1.133284	0.000134
 172	1.7015e+01	6.8100	27.753290	0.000436	4.358511	1.476703	0.000174
 173	1.7114e+01	6.8308	27.874404	0.000304	3.040821	1.030258	0.000122
 174	1.7213e+01	6.8902	28.068186	0.000487	4.865314	1.648413	0.000195
 175	1.7313e+01	6.9287	28.217560	0.000375	3.750346	1.270652	0.000150
 176	1.7413e+01	6.9656	28.370971	0.000385	3.851707	1.304994	0.000154
 177	1.7512e+01	7.0153	28.484011	0.000284	2.838100	0.961574	0.000114
 178	1.7611e+01	7.0458	28.649534	0.000416	4.155789	1.408020	0.000166
 179	1.7711e+01	7.0827	28.827168	0.000446	4.459871	1.511045	0.000179
 180	1.7811e+01	7.1228	29.008839	0.000456	4.561232	1.545387	0.000183
 181	1.7910e+01	7.1709	29.174361	0.000416	4.155789	1.408020	0.000166
 182	1.8009e+01	7.1934	29.307587	0.000334	3.344904	1.133284	0.000134
 183	1.8109e+01	7.2543	29.432738	0.000314	3.142182	1.064600	0.000126
 184	1.8209e+01	7.2896	29.602298	0.000426	4.257150	1.442361	0.000170
 185	1.8308e+01	7.3297	29.796080	0.000487	4.865314	1.648413	0.000195
 186	1.8407e+01	7.3650	29.917194	0.000304	3.040821	1.030258	0.000122
 187	1.8507e+01	7.4067	30.066568	0.000375	3.750346	1.270652	0.000150
 188	1.8607e+01	7.4517	30.179608	0.000284	2.838100	0.961574	0.000114
 189	1.8706e+01	7.4950	30.369354	0.000476	4.763954	1.614071	0.000191
 190	1.8805e+01	7.5222	30.579285	0.000527	5.270757	1.785781	0.000211
 191	1.8905e+01	7.5640	30.676176	0.000243	2.432657	0.824207	0.000097
 192	1.9005e+01	7.6041	30.825550	0.000375	3.750346	1.270652	0.000150
 193	1.9104e+01	7.6490	30.995110	0.000426	4.257150	1.442361	0.000170
 194	1.9203e+01	7.6939	31.148521	0.000385	3.851707	1.304994	0.000154
 195	1.9303e+01	7.7132	31.297895	0.000375	3.750346	1.270652	0.000150
 196	1.9402e+01	7.7581	31.410935	0.000284	2.838100	0.961574	0.000114
 197	1.9502e+01	7.8062	31.616829	0.000517	5.169396	1.751439	0.000207
 198	1.9602e+01	7.8415	31.737943	0.000304	3.040821	1.030258	0.000122
 199	1.9701e+01	7.8880	31.931725	0.000487	4.865314	1.648413	0.000195
 200	1.9800e+01	7.9249	32.081099	0.000375	3.750346	1.270652	0.000150
 201	1.9900e+01	7.9586	32.242585	0.000405	4.054429	1.373678	0.000162
 202	2.0000e+01	8.0051	32.395996	0.000385	3.851707	1.304994	0.000154
 203	2.0099e+01	8.0404	32.529221	0.000334	3.344904	1.133284	0.000134
 204	2.0198e+01	8.0773	32.682632	0.000385	3.851707	1.304994	0.000154
 205	2.0298e+01	8.1142	32.832006	0.000375	3.750346	1.270652	0.000150
 206	2.0398e+01	8.1575	33.025789	0.000487	4.865314	1.648413	0.000195
 207	2.0497e+01	8.1976	33.142866	0.000294	2.939461	0.995916	0.000118
 208	2.0596e+01	8.2377	33.304351	0.000405	4.054429	1.373678	0.000162
 209	2.0696e+01	8.2827	33.425465	0.000304	3.040821	1.030258	0.000122
 210	2.0796e+01	8.3163	33.595025	0.000426	4.257150	1.442361	0.000170
 211	2.0895e+01	8.3532	33.768622	0.000436	4.358511	1.476703	0.000174
 212	2.0994e+01	8.3982	33.889736	0.000304	3.040821	1.030258	0.000122
 213	2.1094e+01	8.4318	34.022961	0.000334	3.344904	1.133284	0.000134
 214	2.1194e+01	8.4768	34.212707	0.000476	4.763954	1.614071	0.000191
 215	2.1293e+01	8.5153	34.345932	0.000334	3.344904	1.133284	0.000134
 216	2.1392e+01	8.5666	34.511455	0.000416	4.155789	1.408020	0.000166
 217	2.1492e+01	8.5955	34.660829	0.000375	3.750346	1.270652	0.000150
 218	2.1591e+01	8.6292	34.806166	0.000365	3.648986	1.236310	0.000146
 219	2.1691e+01	8.6757	34.995911	0.000476	4.763954	1.614071	0.000191
 220	2.1791e+01	8.7190	35.121062	0.000314	3.142182	1.064600	0.000126
 221	2.1890e+01	8.7559	35.290622	0.000426	4.257150	1.442361	0.000170
 222	2.1989e+01	8.8008	35.371365	0.000203	2.027214	0.686839	0.000081
 223	2.2089e+01	8.8377	35.540924	0.000426	4.257150	1.442361	0.000170
 224	2.2189e+01	8.8939	35.714521	0.000436	4.358511	1.476703	0.000174
 225	2.2288e+01	8.9195	35.863895	0.000375	3.750346	1.270652	0.000150
 226	2.2387e+01	8.9564	35.960787	0.000243	2.432657	0.824207	0.000097
 227	2.2487e+01	8.9917	36.146495	0.000466	4.662593	1.579729	0.000187
 228	2.2587e+01	9.0334	36.259535	0.000284	2.838100	0.961574	0.000114
 229	2.2686e+01	9.0767	36.408909	0.000375	3.750346	1.270652	0.000150
 230	2.2785e+01	9.1185	36.594617	0.000466	4.662593	1.579729	0.000187
 231	2.2885e+01	9.1538	36.711694	0.000294	2.939461	0.995916	0.000118
 232	2.2985e+01	9.2003	36.905476	0.000487	4.865314	1.648413	0.000195
 233	2.3084e+01	9.2356	37.046776	0.000355	3.547625	1.201968	0.000142
 234	2.3183e+01	9.2789	37.163853	0.000294	2.939461	0.995916	0.000118
 235	2.3283e+01	9.3190	37.305153	0.000355	3.547625	1.201968	0.000142
 236	2.3383e+01	9.3591	37.466638	0.000405	4.054429	1.373678	0.000162
 237	2.3482e+01	9.3976	37.616012	0.000375	3.750346	1.270652	0.000150
 238	2.3581e+01	9.4329	37.745201	0.000324	3.243543	1.098942	0.000130
 239	2.3681e+01	9.4762	37.886500	0.000355	3.547625	1.201968	0.000142
 240	2.3780e+01	9.5131	38.039911	0.000385	3.851707	1.304994	0.000154
 241	2.3880e+01	9.5548	38.185248	0.000365	3.648986	1.236310	0.000146
 242	2.3980e+01	9.5965	38.294251	0.000274	2.736739	0.927232	0.000110
 243	2.4079e+01	9.6286	38.459774	0.000416	4.155789	1.408020	0.000166
 244	2.4178e+01	9.6783	38.592999	0.000334	3.344904	1.133284	0.000134
 245	2.4278e+01	9.7152	38.754485	0.000405	4.054429	1.373678	0.000162
 246	2.4378e+01	9.7473	38.867524	0.000284	2.838100	0.961574	0.000114
 247	2.4477e+01	9.7938	39.033047	0.000416	4.155789	1.408020	0.000166
 248	2.4576e+01	9.8323	39.162235	0.000324	3.243543	1.098942	0.000130
 249	2.4676e+01	9.8724	39.311609	0.000375	3.750346	1.270652	0.000150
 250	2.4776e+01	9.9142	39.497317	0.000466	4.662593	1.579729	0.000187
 251	2.4875e+01	9.9495	39.598246	0.000253	2.534018	0.858548	0.000101
 252	2.4974e+01	9.9928	39.771843	0.000436	4.358511	1.476703	0.000174
 253	2.5074e+01	10.0313	39.892957	0.000304	3.040821	1.030258	0.000122
 254	2.5174e+01	10.0746	40.001959	0.000274	2.736739	0.927232	0.000110
 255	2.5273e+01	10.1131	40.179593	0.000446	4.459871	1.511045	0.000179
 256	2.5372e+01	10.1564	40.312819	0.000334	3.344904	1.133284	0.000134
 257	2.5472e+01	10.1997	40.458156	0.000365	3.648986	1.236310	0.000146
 258	2.5572e+01	10.2350	40.603493	0.000365	3.648986	1.236310	0.000146
 259	2.5671e+01	10.2767	40.769015	0.000416	4.155789	1.408020	0.000166
 260	2.5770e+01	10.3104	40.926464	0.000395	3.953068	1.339336	0.000158
 261	2.5870e+01	10.3569	41.035466	0.000274	2.736739	0.927232	0.000110
 262	2.5970e+01	10.3954	41.176766	0.000355	3.547625	1.201968	0.000142
 263	2.6069e+01	10.4420	41.318066	0.000355	3.547625	1.201968	0.000142
 264	2.6169e+01	10.4708	41.471477	0.000385	3.851707	1.304994	0.000154
 265	2.6268e+01	10.5206	41.628925	0.000395	3.953068	1.339336	0.000158
 266	2.6367e+01	10.5526	41.762151	0.000334	3.344904	1.133284	0.000134
 267	2.6467e+01	10.5895	41.887302	0.000314	3.142182	1.064600	0.000126
 268	2.6567e+01	10.6393	42.004379	0.000294	2.939461	0.995916	0.000118
 269	2.6666e+01	10.6778	42.173938	0.000426	4.257150	1.442361	0.000170
 270	2.6765e+01	10.7147	42.299090	0.000314	3.142182	1.064600	0.000126
 271	2.6865e+01	10.7580	42.432315	0.000334	3.344904	1.133284	0.000134
 272	2.6965e+01	10.7933	42.593801	0.000405	4.054429	1.373678	0.000162
 273	2.7064e+01	10.8350	42.718952	0.000314	3.142182	1.064600	0.000126
 274	2.7163e+01	10.8719	42.840066	0.000304	3.040821	1.030258	0.000122
 275	2.7263e+01	10.9120	42.977328	0.000345	3.446264	1.167626	0.000138
 276	2.7363e+01	10.9425	43.078257	0.000253	2.534018	0.858548	0.000101
 277	2.7462e+01	10.9890	43.268002	0.000476	4.763954	1.614071	0.000191
 278	2.7561e+01	11.0323	43.413339	0.000365	3.648986	1.236310	0.000146
 279	2.7661e+01	11.0692	43.526379	0.000284	2.838100	0.961574	0.000114
 280	2.7761e+01	11.1029	43.691902	0.000416	4.155789	1.408020	0.000166
 281	2.7860e+01	11.1462	43.792830	0.000253	2.534018	0.858548	0.000101
 282	2.7959e+01	11.1959	43.954315	0.000405	4.054429	1.373678	0.000162
 283	2.8059e+01	11.2296	44.071392	0.000294	2.939461	0.995916	0.000118
 284	2.8159e+01	11.2697	44.192506	0.000304	3.040821	1.030258	0.000122
 285	2.8258e+01	11.3034	44.293435	0.000253	2.534018	0.858548	0.000101
 286	2.8358e+01	11.3548	44.467032	0.000436	4.358511	1.476703	0.000174
 287	2.8457e+01	11.3949	44.628517	0.000405	4.054429	1.373678	0.000162
 288	2.8556e+01	11.4270	44.729445	0.000253	2.534018	0.858548	0.000101
 289	2.8656e+01	11.4719	44.862671	0.000334	3.344904	1.133284	0.000134
 290	2.8756e+01	11.5136	44.987822	0.000314	3.142182	1.064600	0.000126
 291	2.8855e+01	11.5553	45.117010	0.000324	3.243543	1.098942	0.000130
 292	2.8954e+01	11.5906	45.258310	0.000355	3.547625	1.201968	0.000142
 293	2.9054e+01	11.6339	45.363276	0.000264	2.635379	0.892890	0.000105
 294	2.9154e+01	11.6804	45.520724	0.000395	3.953068	1.339336	0.000158
 295	2.9253e+01	11.6997	45.674135	0.000385	3.851707	1.304994	0.000154
 296	2.9352e+01	11.7494	45.766989	0.000233	2.331296	0.789865	0.000093
 297	2.9452e+01	11.7895	45.904252	0.000345	3.446264	1.167626	0.000138
 298	2.9552e+01	11.8408	46.073812	0.000426	4.257150	1.442361	0.000170
 299	2.9651e+01	11.8777	46.190889	0.000294	2.939461	0.995916	0.000118
 300	2.9750e+01	11.9034	46.344300	0.000385	3.851707	1.304994	0.000154
 301	2.9850e+01	11.9531	46.445228	0.000253	2.534018	0.858548	0.000101
 302	2.9950e+01	11.9868	46.562305	0.000294	2.939461	0.995916	0.000118
 303	3.0049e+01	12.0285	46.711679	0.000375	3.750346	1.270652	0.000150
 304	3.0148e+01	12.0719	46.832793	0.000304	3.040821	1.030258	0.000122
 305	3.0248e+01	12.1055	46.961981	0.000324	3.243543	1.098942	0.000130
 306	3.0348e+01	12.1553	47.111355	0.000375	3.750346	1.270652	0.000150
 307	3.0447e+01	12.1922	47.228432	0.000294	2.939461	0.995916	0.000118
 308	3.0547e+01	12.2323	47.349547	0.000304	3.040821	1.030258	0.000122
 309	3.0646e+01	12.2628	47.519106	0.000426	4.257150	1.442361	0.000170
 310	3.0745e+01	12.3045	47.640220	0.000304	3.040821	1.030258	0.000122
 311	3.0845e+01	12.3494	47.761334	0.000304	3.040821	1.030258	0.000122
 312	3.0945e+01	12.3879	47.894560	0.000334	3.344904	1.133284	0.000134
 313	3.1044e+01	12.4232	48.052008	0.000395	3.953068	1.339336	0.000158
 314	3.1143e+01	12.4713	48.136788	0.000213	2.128575	0.721181	0.000085
 315	3.1243e+01	12.4986	48.278088	0.000355	3.547625	1.201968	0.000142
 316	3.1343e+01	12.5451	48.419387	0.000355	3.547625	1.201968	0.000142
 317	3.1442e+01	12.5884	48.532427	0.000284	2.838100	0.961574	0.000114
 318	3.1541e+01	12.6349	48.665653	0.000334	3.344904	1.133284	0.000134
 319	3.1641e+01	12.6670	48.815027	0.000375	3.750346	1.270652	0.000150
 320	3.1741e+01	12.7039	48.915955	0.000253	2.534018	0.858548	0.000101
 321	3.1840e+01	12.7504	49.033032	0.000294	2.939461	0.995916	0.000118
 322	3.1939e+01	12.7873	49.214703	0.000456	4.561232	1.545387	0.000183
 323	3.2039e+01	12.8258	49.307557	0.000233	2.331296	0.789865	0.000093
 324	3.2139e+01	12.8627	49.477117	0.000426	4.257150	1.442361	0.000170
 325	3.2238e+01	12.9044	49.565934	0.000223	2.229936	0.755523	0.000089
 326	3.2337e+01	12.9397	49.715308	0.000375	3.750346	1.270652	0.000150
 327	3.2437e+01	12.9766	49.868719	0.000385	3.851707	1.304994	0.000154
 328	3.2536e+01	13.0232	49.953499	0.000213	2.128575	0.721181	0.000085
 329	3.2636e+01	13.0520	50.110947	0.000395	3.953068	1.339336	0.000158
 330	3.2736e+01	13.1050	50.211876	0.000253	2.534018	0.858548	0.000101
 331	3.2835e+01	13.1322	50.373361	0.000405	4.054429	1.373678	0.000162
 332	3.2934e+01	13.1868	50.486401	0.000284	2.838100	0.961574	0.000114
 333	3.3034e+01	13.2237	50.615589	0.000324	3.243543	1.098942	0.000130
 334	3.3133e+01	13.2558	50.700369	0.000213	2.128575	0.721181	0.000085
 335	3.3233e+01	13.2959	50.857817	0.000395	3.953068	1.339336	0.000158
 336	3.3333e+01	13.3344	50.974894	0.000294	2.939461	0.995916	0.000118
 337	3.3432e+01	13.3889	51.087934	0.000284	2.838100	0.961574	0.000114
 338	3.3532e+01	13.4242	51.241345	0.000385	3.851707	1.304994	0.000154
 339	3.3631e+01	13.4627	51.374571	0.000334	3.344904	1.133284	0.000134
 340	3.3730e+01	13.4948	51.499722	0.000314	3.142182	1.064600	0.000126
 341	3.3830e+01	13.5317	51.624873	0.000314	3.142182	1.064600	0.000126
 342	3.3929e+01	13.5766	51.750024	0.000314	3.142182	1.064600	0.000126
 343	3.4029e+01	13.6247	51.883250	0.000334	3.344904	1.133284	0.000134
 344	3.4129e+01	13.6600	51.980141	0.000243	2.432657	0.824207	0.000097
 345	3.4228e+01	13.6953	52.113367	0.000334	3.344904	1.133284	0.000134
 346	3.4328e+01	13.7338	52.242555	0.000324	3.243543	1.098942	0.000130
 347	3.4427e+01	13.7804	52.387892	0.000365	3.648986	1.236310	0.000146
 348	3.4526e+01	13.8157	52.496895	0.000274	2.736739	0.927232	0.000110
 349	3.4626e+01	13.8654	52.626083	0.000324	3.243543	1.098942	0.000130
 350	3.4725e+01	13.8991	52.763346	0.000345	3.446264	1.167626	0.000138
 351	3.4825e+01	13.9392	52.868311	0.000264	2.635379	0.892890	0.000105
 352	3.4925e+01	13.9761	53.021722	0.000385	3.851707	1.304994	0.000154
 353	3.5024e+01	14.0290	53.138799	0.000294	2.939461	0.995916	0.000118
 354	3.5123e+01	14.0611	53.251839	0.000284	2.838100	0.961574	0.000114
 355	3.5223e+01	14.1028	53.376990	0.000314	3.142182	1.064600	0.000126
 356	3.5322e+01	14.1413	53.498104	0.000304	3.040821	1.030258	0.000122
 357	3.5422e+01	14.1750	53.627293	0.000324	3.243543	1.098942	0.000130
 358	3.5522e+01	14.2135	53.756481	0.000324	3.243543	1.098942	0.000130
 359	3.5621e+01	14.2504	53.889706	0.000334	3.344904	1.133284	0.000134
 360	3.5721e+01	14.2985	54.031006	0.000355	3.547625	1.201968	0.000142
 361	3.5820e+01	14.3402	54.164232	0.000334	3.344904	1.133284	0.000134
 362	3.5919e+01	14.3771	54.261123	0.000243	2.432657	0.824207	0.000097
 363	3.6019e+01	14.4172	54.378200	0.000294	2.939461	0.995916	0.000118
 364	3.6118e+01	14.4525	54.487202	0.000274	2.736739	0.927232	0.000110
 365	3.6218e+01	14.4958	54.632539	0.000365	3.648986	1.236310	0.000146
 366	3.6318e+01	14.5392	54.745579	0.000284	2.838100	0.961574	0.000114
 367	3.6417e+01	14.5777	54.886879	0.000355	3.547625	1.201968	0.000142
 368	3.6517e+01	14.6210	55.024142	0.000345	3.446264	1.167626	0.000138
 369	3.6616e+01	14.6547	55.177553	0.000385	3.851707	1.304994	0.000154
 370	3.6715e+01	14.6932	55.242147	0.000162	1.621771	0.549471	0.000065
 371	3.6815e+01	14.7285	55.375372	0.000334	3.344904	1.133284	0.000134
 372	3.6914e+01	14.7670	55.496486	0.000304	3.040821	1.030258	0.000122
 373	3.7014e+01	14.8087	55.629712	0.000334	3.344904	1.133284	0.000134
 374	3.7114e+01	14.8712	55.738715	0.000274	2.736739	0.927232	0.000110
 375	3.7213e+01	14.8873	55.884051	0.000365	3.648986	1.236310	0.000146
 376	3.7313e+01	14.9322	56.025351	0.000355	3.547625	1.201968	0.000142
 377	3.7412e+01	14.9675	56.122242	0.000243	2.432657	0.824207	0.000097
 378	3.7511e+01	15.0124	56.267579	0.000365	3.648986	1.236310	0.000146
 379	3.7611e+01	15.0461	56.360433	0.000233	2.331296	0.789865	0.000093
 380	3.7711e+01	15.0926	56.562290	0.000507	5.068036	1.717097	0.000203
 381	3.7810e+01	15.1311	56.647070	0.000213	2.128575	0.721181	0.000085
 382	3.7910e+01	15.1568	56.723776	0.000193	1.925854	0.652497	0.000077
 383	3.8009e+01	15.2065	56.869113	0.000365	3.648986	1.236310	0.000146
 384	3.8108e+01	15.2482	56.990227	0.000304	3.040821	1.030258	0.000122
 385	3.8208e+01	15.2899	57.119415	0.000324	3.243543	1.098942	0.000130
 386	3.8307e+01	15.3300	57.260715	0.000355	3.547625	1.201968	0.000142
 387	3.8407e+01	15.3702	57.393940	0.000334	3.344904	1.133284	0.000134
 388	3.8507e+01	15.4087	57.494869	0.000253	2.534018	0.858548	0.000101
 389	3.8606e+01	15.4520	57.624057	0.000324	3.243543	1.098942	0.000130
 390	3.8706e+01	15.4937	57.733060	0.000274	2.736739	0.927232	0.000110
 391	3.8805e+01	15.5274	57.833988	0.000253	2.534018	0.858548	0.000101
 392	3.8904e+01	15.5755	57.967213	0.000334	3.344904	1.133284	0.000134
 393	3.9004e+01	15.6108	58.060068	0.000233	2.331296	0.789865	0.000093
 394	3.9103e+01	15.6477	58.205405	0.000365	3.648986	1.236310	0.000146
 395	3.9203e+01	15.6942	58.342667	0.000345	3.446264	1.167626	0.000138
 396	3.9303e+01	15.7279	58.459744	0.000294	2.939461	0.995916	0.000118
 397	3.9402e+01	15.7760	58.588932	0.000324	3.243543	1.098942	0.000130
 398	3.9502e+01	15.8145	58.653527	0.000162	1.621771	0.549471	0.000065
 399	3.9601e+01	15.8434	58.831161	0.000446	4.459871	1.511045	0.000179
 400	3.9700e+01	15.8931	58.899792	0.000172	1.723132	0.583813	0.000069
 401	3.9800e+01	15.9188	59.024943	0.000314	3.142182	1.064600	0.000126
 402	3.9900e+01	15.9653	59.129909	0.000264	2.635379	0.892890	0.000105
 403	3.9999e+01	16.0167	59.263134	0.000334	3.344904	1.133284	0.000134
 404	4.0099e+01	16.0520	59.408471	0.000365	3.648986	1.236310	0.000146
 405	4.0198e+01	16.0824	59.509399	0.000253	2.534018	0.858548	0.000101
 406	4.0297e+01	16.1290	59.642625	0.000334	3.344904	1.133284	0.000134
 407	4.0397e+01	16.1691	59.739516	0.000243	2.432657	0.824207	0.000097
 408	4.0496e+01	16.2076	59.820259	0.000203	2.027214	0.686839	0.000081
 409	4.0596e+01	16.2461	59.993856	0.000436	4.358511	1.476703	0.000174
 410	4.0696e+01	16.2926	60.086710	0.000233	2.331296	0.789865	0.000093
 411	4.0795e+01	16.3263	60.223972	0.000345	3.446264	1.167626	0.000138
 412	4.0895e+01	16.3712	60.349124	0.000314	3.142182	1.064600	0.000126
 413	4.0994e+01	16.4081	60.458126	0.000274	2.736739	0.927232	0.000110
 414	4.1093e+01	16.4450	60.571166	0.000284	2.838100	0.961574	0.000114
 415	4.1193e+01	16.4931	60.680169	0.000274	2.736739	0.927232	0.000110
 416	4.1292e+01	16.5300	60.817431	0.000345	3.446264	1.167626	0.000138
 417	4.1392e+01	16.5669	60.918360	0.000253	2.534018	0.858548	0.000101
 418	4.1492e+01	16.6086	61.055622	0.000345	3.446264	1.167626	0.000138
 419	4.1591e+01	16.6471	61.140402	0.000213	2.128575	0.721181	0.000085
 420	4.1691e+01	16.6792	61.297850	0.000395	3.953068	1.339336	0.000158
 421	4.1790e+01	16.7257	61.406853	0.000274	2.736739	0.927232	0.000110
 422	4.1889e+01	16.7658	61.519893	0.000284	2.838100	0.961574	0.000114
 423	4.1989e+01	16.7995	61.624858	0.000264	2.635379	0.892890	0.000105
 424	4.2089e+01	16.8509	61.762121	0.000345	3.446264	1.167626	0.000138
 425	4.2188e+01	16.8797	61.854975	0.000233	2.331296	0.789865	0.000093
 426	4.2288e+01	16.9231	62.016461	0.000405	4.054429	1.373678	0.000162
 427	4.2387e+01	16.9776	62.113352	0.000243	2.432657	0.824207	0.000097
 428	4.2486e+01	17.0049	62.210243	0.000243	2.432657	0.824207	0.000097
 429	4.2586e+01	17.0402	62.363654	0.000385	3.851707	1.304994	0.000154
 430	4.2685e+01	17.0771	62.460546	0.000243	2.432657	0.824207	0.000097
 431	4.2785e+01	17.1252	62.549363	0.000223	2.229936	0.755523	0.000089
 432	4.2885e+01	17.1637	62.666439	0.000294	2.939461	0.995916	0.000118
 433	4.2984e+01	17.1990	62.739108	0.000182	1.824493	0.618155	0.000073
 434	4.3084e+01	17.2327	62.896556	0.000395	3.953068	1.339336	0.000158
 435	4.3183e+01	17.2840	63.009596	0.000284	2.838100	0.961574	0.000114
 436	4.3282e+01	17.3241	63.130710	0.000304	3.040821	1.030258	0.000122
 437	4.3382e+01	17.3626	63.247787	0.000294	2.939461	0.995916	0.000118
 438	4.3481e+01	17.3931	63.332567	0.000213	2.128575	0.721181	0.000085
 439	4.3581e+01	17.4428	63.465792	0.000334	3.344904	1.133284	0.000134
 440	4.3681e+01	17.4861	63.607092	0.000355	3.547625	1.201968	0.000142
 441	4.3780e+01	17.5246	63.695909	0.000223	2.229936	0.755523	0.000089
 442	4.3880e+01	17.5647	63.849320	0.000385	3.851707	1.304994	0.000154
 443	4.3979e+01	17.6000	63.921989	0.000182	1.824493	0.618155	0.000073
 444	4.4078e+01	17.6385	64.035029	0.000284	2.838100	0.961574	0.000114
 445	4.4178e+01	17.6899	64.164217	0.000324	3.243543	1.098942	0.000130
 446	4.4278e+01	17.7252	64.244960	0.000203	2.027214	0.686839	0.000081
 447	4.4377e+01	17.7685	64.406445	0.000405	4.054429	1.373678	0.000162
 448	4.4477e+01	17.8038	64.483151	0.000193	1.925854	0.652497	0.000077
 449	4.4576e+01	17.8455	64.580042	0.000243	2.432657	0.824207	0.000097
 450	4.4675e+01	17.8840	64.713267	0.000334	3.344904	1.133284	0.000134
 451	4.4775e+01	17.9321	64.818233	0.000264	2.635379	0.892890	0.000105
 452	4.4874e+01	17.9642	64.915124	0.000243	2.432657	0.824207	0.000097
 453	4.4974e+01	18.0027	65.020090	0.000264	2.635379	0.892890	0.000105
 454	4.5074e+01	18.0508	65.145241	0.000314	3.142182	1.064600	0.000126
 455	4.5173e+01	18.0797	65.242132	0.000243	2.432657	0.824207	0.000097
 456	4.5273e+01	18.1150	65.371320	0.000324	3.243543	1.098942	0.000130
 457	4.5372e+01	18.1551	65.468212	0.000243	2.432657	0.824207	0.000097
 458	4.5471e+01	18.2032	65.573177	0.000264	2.635379	0.892890	0.000105
 459	4.5571e+01	18.2401	65.666031	0.000233	2.331296	0.789865	0.000093
 460	4.5670e+01	18.2802	65.775034	0.000274	2.736739	0.927232	0.000110
 461	4.5770e+01	18.3252	65.863851	0.000223	2.229936	0.755523	0.000089
 462	4.5870e+01	18.3556	65.993039	0.000324	3.243543	1.098942	0.000130
 463	4.5969e+01	18.4054	66.118191	0.000314	3.142182	1.064600	0.000126
 464	4.6069e+01	18.4439	66.235267	0.000294	2.939461	0.995916	0.000118
 465	4.6168e+01	18.4711	66.303899	0.000172	1.723132	0.583813	0.000069
 466	4.6267e+01	18.5257	66.453273	0.000375	3.750346	1.270652	0.000150
 467	4.6367e+01	18.5626	66.566313	0.000284	2.838100	0.961574	0.000114
 468	4.6467e+01	18.6011	66.671278	0.000264	2.635379	0.892890	0.000105
 469	4.6566e+01	18.6396	66.739909	0.000172	1.723132	0.583813	0.000069
 470	4.6666e+01	18.6845	66.877172	0.000345	3.446264	1.167626	0.000138
 471	4.6765e+01	18.7198	66.978100	0.000253	2.534018	0.858548	0.000101
 472	4.6864e+01	18.7679	67.046732	0.000172	1.723132	0.583813	0.000069
 473	4.6964e+01	18.8016	67.192069	0.000365	3.648986	1.236310	0.000146
 474	4.7063e+01	18.8433	67.353554	0.000405	4.054429	1.373678	0.000162
 475	4.7163e+01	18.8866	67.402000	0.000122	1.216329	0.412103	0.000049
 476	4.7263e+01	18.9219	67.502928	0.000253	2.534018	0.858548	0.000101
 477	4.7362e+01	18.9588	67.656339	0.000385	3.851707	1.304994	0.000154
 478	4.7462e+01	19.0053	67.741119	0.000213	2.128575	0.721181	0.000085
 479	4.7561e+01	19.0358	67.878382	0.000345	3.446264	1.167626	0.000138
 480	4.7660e+01	19.0727	67.951050	0.000182	1.824493	0.618155	0.000073
 481	4.7760e+01	19.1112	68.068127	0.000294	2.939461	0.995916	0.000118
 482	4.7859e+01	19.1577	68.173093	0.000264	2.635379	0.892890	0.000105
 483	4.7959e+01	19.1882	68.298244	0.000314	3.142182	1.064600	0.000126
 484	4.8059e+01	19.2315	68.395135	0.000243	2.432657	0.824207	0.000097
 485	4.8158e+01	19.2700	68.504138	0.000274	2.736739	0.927232	0.000110
 486	4.8258e+01	19.3246	68.605066	0.000253	2.534018	0.858548	0.000101
 487	4.8357e+01	19.3535	68.701957	0.000243	2.432657	0.824207	0.000097
 488	4.8456e+01	19.3984	68.802886	0.000253	2.534018	0.858548	0.000101
 489	4.8556e+01	19.4401	68.919963	0.000294	2.939461	0.995916	0.000118
 490	4.8656e+01	19.4850	69.020891	0.000253	2.534018	0.858548	0.000101
 491	4.8755e+01	19.5059	69.101634	0.000203	2.027214	0.686839	0.000081
 492	4.8855e+01	19.5492	69.251008	0.000375	3.750346	1.270652	0.000150
 493	4.8954e+01	19.5909	69.351936	0.000253	2.534018	0.858548	0.000101
 494	4.9053e+01	19.6406	69.469013	0.000294	2.939461	0.995916	0.000118
 495	4.9153e+01	19.6695	69.573979	0.000264	2.635379	0.892890	0.000105
 496	4.9252e+01	19.7112	69.674907	0.000253	2.534018	0.858548	0.000101
 497	4.9352e+01	19.7577	69.796021	0.000304	3.040821	1.030258	0.000122
 498	4.9452e+01	19.7962	69.876764	0.000203	2.027214	0.686839	0.000081
 499	4.9551e+01	19.8315	70.026138	0.000375	3.750346	1.270652	0.000150
 500	4.9651e+01	19.8652	70.046324	0.000051	0.506804	0.171710	0.000020
 501	4.9750e+01	19.9166	70.199735	0.000385	3.851707	1.304994	0.000154
 502	4.9849e+01	19.9518	70.280477	0.000203	2.027214	0.686839	0.000081
 503	4.9949e+01	19.9919	70.429852	0.000375	3.750346	1.270652	0.000150
 504	5.0048e+01	19.9567	70.320849	0.000274	2.736739	0.927232	-0.000110
 505	5.0148e+01	19.9021	70.284515	0.000091	0.912246	0.309077	-0.000037
 506	5.0248e+01	19.8764	70.118992	0.000416	4.155789	1.408020	-0.000166
 507	5.0347e+01	19.8412	70.094769	0.000061	0.608164	0.206052	-0.000024
 508	5.0447e+01	19.7930	70.014027	0.000203	2.027214	0.686839	-0.000081
 509	5.0546e+01	19.7497	69.905024	0.000274	2.736739	0.927232	-0.000110
 510	5.0645e+01	19.7160	69.791984	0.000284	2.838100	0.961574	-0.000114
 511	5.0745e+01	19.6759	69.735464	0.000142	1.419050	0.480787	-0.000057
 512	5.0844e+01	19.6278	69.618387	0.000294	2.939461	0.995916	-0.000118
 513	5.0944e+01	19.5957	69.533607	0.000213	2.128575	0.721181	-0.000085
 514	5.1044e+01	19.5572	69.448828	0.000213	2.128575	0.721181	-0.000085
 515	5.1143e+01	19.5107	69.368085	0.000203	2.027214	0.686839	-0.000081
 516	5.1242e+01	19.4738	69.283305	0.000213	2.128575	0.721181	-0.000085
 517	5.1342e+01	19.4353	69.202562	0.000203	2.027214	0.686839	-0.000081
 518	5.1441e+01	19.3904	69.049151	0.000385	3.851707	1.304994	-0.000154
 519	5.1541e+01	19.3567	68.968408	0.000203	2.027214	0.686839	-0.000081
 520	5.1641e+01	19.3230	68.960334	0.000020	0.202721	0.068684	-0.000008
 521	5.1740e+01	19.2765	68.827109	0.000334	3.344904	1.133284	-0.000134
 522	5.1840e+01	19.2380	68.726180	0.000253	2.534018	0.858548	-0.000101
 523	5.1939e+01	19.1946	68.637363	0.000223	2.229936	0.755523	-0.000089
 524	5.2038e+01	19.1610	68.544509	0.000233	2.331296	0.789865	-0.000093
 525	5.2138e+01	19.1160	68.423395	0.000304	3.040821	1.030258	-0.000122
 526	5.2237e+01	19.0759	68.334578	0.000223	2.229936	0.755523	-0.000089
 527	5.2337e+01	19.0342	68.241724	0.000233	2.331296	0.789865	-0.000093
 528	5.2437e+01	18.9941	68.193278	0.000122	1.216329	0.412103	-0.000049
 529	5.2536e+01	18.9604	68.051979	0.000355	3.547625	1.201968	-0.000142
 530	5.2636e+01	18.9299	67.975273	0.000193	1.925854	0.652497	-0.000077
 531	5.2735e+01	18.8722	67.878382	0.000243	2.432657	0.824207	-0.000097
 532	5.2834e+01	18.8385	67.813788	0.000162	1.621771	0.549471	-0.000065
 533	5.2934e+01	18.7888	67.741119	0.000182	1.824493	0.618155	-0.000073
 534	5.3033e+01	18.7679	67.640191	0.000253	2.534018	0.858548	-0.000101
 535	5.3133e+01	18.7214	67.547337	0.000233	2.331296	0.789865	-0.000093
 536	5.3233e+01	18.6861	67.458520	0.000223	2.229936	0.755523	-0.000089
 537	5.3332e+01	18.6364	67.353554	0.000264	2.635379	0.892890	-0.000105
 538	5.3431e+01	18.5995	67.264737	0.000223	2.229936	0.755523	-0.000089
 539	5.3531e+01	18.5578	67.188032	0.000193	1.925854	0.652497	-0.000077
 540	5.3630e+01	18.5145	67.066917	0.000304	3.040821	1.030258	-0.000122
 541	5.3730e+01	18.4776	66.961952	0.000264	2.635379	0.892890	-0.000105
 542	5.3830e+01	18.4342	66.889283	0.000182	1.824493	0.618155	-0.000073
 543	5.3929e+01	18.4086	66.780281	0.000274	2.736739	0.927232	-0.000110
 544	5.4029e+01	18.3556	66.663204	0.000294	2.939461	0.995916	-0.000118
 545	5.4128e+01	18.3203	66.598610	0.000162	1.621771	0.549471	-0.000065
 546	5.4227e+01	18.2931	66.534016	0.000162	1.621771	0.549471	-0.000065
 547	5.4327e+01	18.2369	66.400790	0.000334	3.344904	1.133284	-0.000134
 548	5.4426e+01	18.1968	66.307936	0.000233	2.331296	0.789865	-0.000093
 549	5.4526e+01	18.1583	66.231230	0.000193	1.925854	0.652497	-0.000077
 550	5.4626e+01	18.1262	66.122228	0.000274	2.736739	0.927232	-0.000110
 551	5.4725e+01	18.0813	66.033411	0.000223	2.229936	0.755523	-0.000089
 552	5.4825e+01	18.0396	65.916334	0.000294	2.939461	0.995916	-0.000118
 553	5.4924e+01	18.0027	65.823480	0.000233	2.331296	0.789865	-0.000093
 554	5.5023e+01	17.9562	65.734663	0.000223	2.229936	0.755523	-0.000089
 555	5.5123e+01	17.9241	65.633734	0.000253	2.534018	0.858548	-0.000101
 556	5.5222e+01	17.8856	65.524732	0.000274	2.736739	0.927232	-0.000110
 557	5.5322e+01	17.8455	65.403618	0.000304	3.040821	1.030258	-0.000122
 558	5.5422e+01	17.8006	65.343060	0.000152	1.520411	0.515129	-0.000061
 559	5.5521e+01	17.7605	65.209835	0.000334	3.344904	1.133284	-0.000134
 560	5.5620e+01	17.7300	65.177538	0.000081	0.810886	0.274736	-0.000032
 561	5.5720e+01	17.6835	65.064498	0.000284	2.838100	0.961574	-0.000114
 562	5.5819e+01	17.6434	64.911087	0.000385	3.851707	1.304994	-0.000154
 563	5.5919e+01	17.6113	64.850530	0.000152	1.520411	0.515129	-0.000061
 564	5.6019e+01	17.5631	64.777861	0.000182	1.824493	0.618155	-0.000073
 565	5.6118e+01	17.5343	64.652710	0.000314	3.142182	1.064600	-0.000126
 566	5.6218e+01	17.4910	64.539670	0.000284	2.838100	0.961574	-0.000114
 567	5.6317e+01	17.4460	64.442779	0.000243	2.432657	0.824207	-0.000097
 568	5.6416e+01	17.4075	64.337814	0.000264	2.635379	0.892890	-0.000105
 569	5.6516e+01	17.3594	64.240922	0.000243	2.432657	0.824207	-0.000097
 570	5.6615e+01	17.3353	64.139994	0.000253	2.534018	0.858548	-0.000101
 571	5.6715e+01	17.2872	64.063288	0.000193	1.925854	0.652497	-0.000077
 572	5.6815e+01	17.2503	63.974471	0.000223	2.229936	0.755523	-0.000089
 573	5.6914e+01	17.1990	63.869506	0.000264	2.635379	0.892890	-0.000105
 574	5.7014e+01	17.1701	63.768578	0.000253	2.534018	0.858548	-0.000101
 575	5.7113e+01	17.1268	63.663612	0.000264	2.635379	0.892890	-0.000105
 576	5.7212e+01	17.0738	63.582869	0.000203	2.027214	0.686839	-0.000081
 577	5.7312e+01	17.0386	63.445607	0.000345	3.446264	1.167626	-0.000138
 578	5.7411e+01	17.0065	63.328530	0.000294	2.939461	0.995916	-0.000118
 579	5.7511e+01	16.9664	63.243750	0.000213	2.128575	0.721181	-0.000085
 580	5.7611e+01	16.9247	63.138784	0.000264	2.635379	0.892890	-0.000105
 581	5.7710e+01	16.8878	63.037856	0.000253	2.534018	0.858548	-0.000101
 582	5.7809e+01	16.8428	62.940965	0.000243	2.432657	0.824207	-0.000097
 583	5.7909e+01	16.8011	62.831962	0.000274	2.736739	0.927232	-0.000110
 584	5.8008e+01	16.7674	62.726997	0.000264	2.635379	0.892890	-0.000105
 585	5.8108e+01	16.7241	62.638180	0.000223	2.229936	0.755523	-0.000089
 586	5.8208e+01	16.6840	62.521103	0.000294	2.939461	0.995916	-0.000118
 587	5.8307e+01	16.6471	62.432286	0.000223	2.229936	0.755523	-0.000089
 588	5.8407e+01	16.6038	62.327320	0.000264	2.635379	0.892890	-0.000105
 589	5.8506e+01	16.5717	62.226392	0.000253	2.534018	0.858548	-0.000101
 590	5.8605e+01	16.5284	62.137575	0.000223	2.229936	0.755523	-0.000089
 591	5.8705e+01	16.4915	62.028572	0.000274	2.736739	0.927232	-0.000110
 592	5.8804e+01	16.4434	61.923607	0.000264	2.635379	0.892890	-0.000105
 593	5.8904e+01	16.3985	61.863049	0.000152	1.520411	0.515129	-0.000061
 594	5.9004e+01	16.3760	61.713675	0.000375	3.750346	1.270652	-0.000150
 595	5.9103e+01	16.3263	61.628896	0.000213	2.128575	0.721181	-0.000085
 596	5.9203e+01	16.2910	61.540079	0.000223	2.229936	0.755523	-0.000089
 597	5.9302e+01	16.2493	61.382630	0.000395	3.953068	1.339336	-0.000158
 598	5.9401e+01	16.2108	61.350333	0.000081	0.810886	0.274736	-0.000032
 599	5.9501e+01	16.1691	61.249405	0.000253	2.534018	0.858548	-0.000101
 600	5.9600e+01	16.1274	61.116179	0.000334	3.344904	1.133284	-0.000134
 601	5.9700e+01	16.0872	61.023325	0.000233	2.331296	0.789865	-0.000093
 602	5.9800e+01	16.0520	60.869914	0.000385	3.851707	1.304994	-0.000154
 603	5.9899e+01	16.0070	60.764949	0.000264	2.635379	0.892890	-0.000105
 604	5.9998e+01	15.9685	60.684206	0.000203	2.027214	0.686839	-0.000081
 605	6.0098e+01	15.9284	60.583277	0.000253	2.534018	0.858548	-0.000101
 606	6.0197e+01	15.8947	60.458126	0.000314	3.142182	1.064600	-0.000126
 607	6.0297e+01	15.8578	60.377384	0.000203	2.027214	0.686839	-0.000081
 608	6.0397e+01	15.8081	60.284529	0.000233	2.331296	0.789865	-0.000093
 609	6.0496e+01	15.7728	60.175527	0.000274	2.736739	0.927232	-0.000110
 610	6.0596e+01	15.7183	60.038264	0.000345	3.446264	1.167626	-0.000138
 611	6.0695e+01	15.6862	59.921187	0.000294	2.939461	0.995916	-0.000118
 612	6.0794e+01	15.6525	59.816222	0.000264	2.635379	0.892890	-0.000105
 613	6.0894e+01	15.6172	59.731442	0.000213	2.128575	0.721181	-0.000085
 614	6.0993e+01	15.5803	59.622439	0.000274	2.736739	0.927232	-0.000110
 615	6.1093e+01	15.5338	59.497288	0.000314	3.142182	1.064600	-0.000126
 616	6.1193e+01	15.4921	59.412508	0.000213	2.128575	0.721181	-0.000085
 617	6.1292e+01	15.4504	59.275245	0.000345	3.446264	1.167626	-0.000138
 618	6.1392e+01	15.4183	59.178354	0.000243	2.432657	0.824207	-0.000097
 619	6.1491e+01	15.3669	59.069352	0.000274	2.736739	0.927232	-0.000110
 620	6.1590e+01	15.3349	58.932089	0.000345	3.446264	1.167626	-0.000138
 621	6.1690e+01	15.2819	58.859420	0.000182	1.824493	0.618155	-0.000073
 622	6.1789e+01	15.2498	58.718121	0.000355	3.547625	1.201968	-0.000142
 623	6.1889e+01	15.2081	58.625267	0.000233	2.331296	0.789865	-0.000093
 624	6.1989e+01	15.1712	58.520301	0.000264	2.635379	0.892890	-0.000105
 625	6.2088e+01	15.1343	58.370927	0.000375	3.750346	1.270652	-0.000150
 626	6.2188e+01	15.0958	58.245776	0.000314	3.142182	1.064600	-0.000126
 627	6.2287e+01	15.0525	58.136773	0.000274	2.736739	0.927232	-0.000110
 628	6.2386e+01	15.0140	58.023733	0.000284	2.838100	0.961574	-0.000114
 629	6.2486e+01	14.9787	57.930879	0.000233	2.331296	0.789865	-0.000093
 630	6.2586e+01	14.9338	57.793617	0.000345	3.446264	1.167626	-0.000138
 631	6.2685e+01	14.8953	57.745171	0.000122	1.216329	0.412103	-0.000049
 632	6.2785e+01	14.8440	57.652317	0.000233	2.331296	0.789865	-0.000093
 633	6.2884e+01	14.8135	57.506980	0.000365	3.648986	1.236310	-0.000146
 634	6.2983e+01	14.7750	57.361643	0.000365	3.648986	1.236310	-0.000146
 635	6.3083e+01	14.7349	57.264752	0.000243	2.432657	0.824207	-0.000097
 636	6.3182e+01	14.6900	57.188046	0.000193	1.925854	0.652497	-0.000077
 637	6.3282e+01	14.6515	57.026561	0.000405	4.054429	1.373678	-0.000162
 638	6.3382e+01	14.6097	56.929670	0.000243	2.432657	0.824207	-0.000097
 639	6.3481e+01	14.5712	56.808556	0.000304	3.040821	1.030258	-0.000122
 640	6.3581e+01	14.5327	56.731850	0.000193	1.925854	0.652497	-0.000077
 641	6.3680e+01	14.4975	56.634959	0.000243	2.432657	0.824207	-0.000097
 642	6.3779e+01	14.4557	56.489622	0.000365	3.648986	1.236310	-0.000146
 643	6.3879e+01	14.4188	56.380619	0.000274	2.736739	0.927232	-0.000110
 644	6.3978e+01	14.3755	56.251431	0.000324	3.243543	1.098942	-0.000130
 645	6.4078e+01	14.3402	56.182799	0.000172	1.723132	0.583813	-0.000069
 646	6.4177e+01	14.2985	56.061685	0.000304	3.040821	1.030258	-0.000122
 647	6.4277e+01	14.2504	55.908274	0.000385	3.851707	1.304994	-0.000154
 648	6.4376e+01	14.2119	55.799272	0.000274	2.736739	0.927232	-0.000110
 649	6.4476e+01	14.1846	55.722566	0.000193	1.925854	0.652497	-0.000077
 650	6.4576e+01	14.1413	55.581266	0.000355	3.547625	1.201968	-0.000142
 651	6.4675e+01	14.0996	55.456115	0.000314	3.142182	1.064600	-0.000126
 652	6.4775e+01	14.0483	55.379409	0.000193	1.925854	0.652497	-0.000077
 653	6.4874e+01	14.0194	55.270407	0.000274	2.736739	0.927232	-0.000110
 654	6.4974e+01	13.9841	55.121033	0.000375	3.750346	1.270652	-0.000150
 655	6.5073e+01	13.9296	55.044327	0.000193	1.925854	0.652497	-0.000077
 656	6.5172e+01	13.8943	54.939362	0.000264	2.635379	0.892890	-0.000105
 657	6.5272e+01	13.8654	54.810173	0.000324	3.243543	1.098942	-0.000130
 658	6.5371e+01	13.8140	54.693096	0.000294	2.939461	0.995916	-0.000118
 659	6.5471e+01	13.7723	54.543722	0.000375	3.750346	1.270652	-0.000150
 660	6.5570e+01	13.7435	54.446831	0.000243	2.432657	0.824207	-0.000097
 661	6.5670e+01	13.6969	54.353977	0.000233	2.331296	0.789865	-0.000093
 662	6.5769e+01	13.6568	54.216714	0.000345	3.446264	1.167626	-0.000138
 663	6.5869e+01	13.6199	54.115786	0.000253	2.534018	0.858548	-0.000101
 664	6.5969e+01	13.5782	54.018895	0.000243	2.432657	0.824207	-0.000097
 665	6.6068e+01	13.5381	53.909892	0.000274	2.736739	0.927232	-0.000110
 666	6.6168e+01	13.5044	53.764555	0.000365	3.648986	1.236310	-0.000146
 667	6.6267e+01	13.4499	53.639404	0.000314	3.142182	1.064600	-0.000126
 668	6.6367e+01	13.4146	53.554624	0.000213	2.128575	0.721181	-0.000085
 669	6.6466e+01	13.3793	53.385064	0.000426	4.257150	1.442361	-0.000170
 670	6.6566e+01	13.3328	53.300285	0.000213	2.128575	0.721181	-0.000085
 671	6.6665e+01	13.2991	53.167059	0.000334	3.344904	1.133284	-0.000134
 672	6.6764e+01	13.2622	53.074205	0.000233	2.331296	0.789865	-0.000093
 673	6.6864e+01	13.2189	52.928868	0.000365	3.648986	1.236310	-0.000146
 674	6.6963e+01	13.1804	52.831977	0.000243	2.432657	0.824207	-0.000097
 675	6.7063e+01	13.1306	52.731048	0.000253	2.534018	0.858548	-0.000101
 676	6.7162e+01	13.0970	52.585712	0.000365	3.648986	1.236310	-0.000146
 677	6.7262e+01	13.0569	52.452486	0.000334	3.344904	1.133284	-0.000134
 678	6.7362e+01	13.0151	52.367706	0.000213	2.128575	0.721181	-0.000085
 679	6.7461e+01	12.9847	52.270815	0.000243	2.432657	0.824207	-0.000097
 680	6.7561e+01	12.9413	52.089144	0.000456	4.561232	1.545387	-0.000183
 681	6.7660e+01	12.9044	52.012438	0.000193	1.925854	0.652497	-0.000077
 682	6.7760e+01	12.8659	51.903436	0.000274	2.736739	0.927232	-0.000110
 683	6.7859e+01	12.8290	51.745987	0.000395	3.953068	1.339336	-0.000158
 684	6.7959e+01	12.7922	51.632948	0.000284	2.838100	0.961574	-0.000114
 685	6.8058e+01	12.7537	51.507796	0.000314	3.142182	1.064600	-0.000126
 686	6.8157e+01	12.7151	51.427054	0.000203	2.027214	0.686839	-0.000081
 687	6.8257e+01	12.6558	51.301902	0.000314	3.142182	1.064600	-0.000126
 688	6.8356e+01	12.6349	51.196937	0.000264	2.635379	0.892890	-0.000105
 689	6.8456e+01	12.5804	51.091971	0.000264	2.635379	0.892890	-0.000105
 690	6.8555e+01	12.5483	50.950672	0.000355	3.547625	1.201968	-0.000142
 691	6.8655e+01	12.5018	50.853780	0.000243	2.432657	0.824207	-0.000097
 692	6.8754e+01	12.4649	50.712481	0.000355	3.547625	1.201968	-0.000142
 693	6.8854e+01	12.4280	50.607515	0.000264	2.635379	0.892890	-0.000105
 694	6.8954e+01	12.3831	50.474290	0.000334	3.344904	1.133284	-0.000134
 695	6.9053e+01	12.3430	50.332990	0.000355	3.547625	1.201968	-0.000142
 696	6.9153e+01	12.2980	50.248210	0.000213	2.128575	0.721181	-0.000085
 697	6.9252e+01	12.2644	50.147282	0.000253	2.534018	0.858548	-0.000101
 698	6.9352e+01	12.2291	49.977722	0.000426	4.257150	1.442361	-0.000170
 699	6.9451e+01	12.1777	49.929276	0.000122	1.216329	0.412103	-0.000049
 700	6.9550e+01	12.1473	49.783939	0.000365	3.648986	1.236310	-0.000146
 701	6.9650e+01	12.1071	49.670900	0.000284	2.838100	0.961574	-0.000114
 702	6.9749e+01	12.0654	49.501340	0.000426	4.257150	1.442361	-0.000170
 703	6.9849e+01	12.0301	49.452894	0.000122	1.216329	0.412103	-0.000049
 704	6.9948e+01	11.9820	49.291409	0.000405	4.054429	1.373678	-0.000162
 705	7.0048e+01	11.9515	49.194518	0.000243	2.432657	0.824207	-0.000097
 706	7.0147e+01	11.9114	49.024958	0.000426	4.257150	1.442361	-0.000170
 707	7.0247e+01	11.8633	48.944215	0.000203	2.027214	0.686839	-0.000081
 708	7.0347e+01	11.8312	48.819064	0.000314	3.142182	1.064600	-0.000126
 709	7.0446e+01	11.7975	48.701987	0.000294	2.939461	0.995916	-0.000118
 710	7.0546e+01	11.7382	48.572799	0.000324	3.243543	1.098942	-0.000130
 711	7.0645e+01	11.7093	48.459759	0.000284	2.838100	0.961574	-0.000114
 712	7.0745e+01	11.6692	48.326533	0.000334	3.344904	1.133284	-0.000134
 713	7.0844e+01	11.6259	48.221568	0.000264	2.635379	0.892890	-0.000105
 714	7.0944e+01	11.5890	48.100454	0.000304	3.040821	1.030258	-0.000122
 715	7.1043e+01	11.5425	47.955117	0.000365	3.648986	1.236310	-0.000146
 716	7.1142e+01	11.5056	47.862263	0.000233	2.331296	0.789865	-0.000093
 717	7.1242e+01	11.4831	47.761334	0.000253	2.534018	0.858548	-0.000101
 718	7.1341e+01	11.4334	47.615997	0.000365	3.648986	1.236310	-0.000146
 719	7.1441e+01	11.3901	47.498921	0.000294	2.939461	0.995916	-0.000118
 720	7.1540e+01	11.3548	47.389918	0.000274	2.736739	0.927232	-0.000110
 721	7.1640e+01	11.3082	47.252655	0.000345	3.446264	1.167626	-0.000138
 722	7.1740e+01	11.2633	47.119430	0.000334	3.344904	1.133284	-0.000134
 723	7.1839e+01	11.2280	46.986204	0.000334	3.344904	1.133284	-0.000134
 724	7.1939e+01	11.1927	46.869127	0.000294	2.939461	0.995916	-0.000118
 725	7.2038e+01	11.1446	46.739939	0.000324	3.243543	1.098942	-0.000130
 726	7.2138e+01	11.1125	46.618825	0.000304	3.040821	1.030258	-0.000122
 727	7.2237e+01	11.0692	46.477525	0.000355	3.547625	1.201968	-0.000142
 728	7.2337e+01	11.0307	46.380634	0.000243	2.432657	0.824207	-0.000097
 729	7.2436e+01	10.9890	46.243371	0.000345	3.446264	1.167626	-0.000138
 730	7.2535e+01	10.9489	46.138406	0.000264	2.635379	0.892890	-0.000105
 731	7.2635e+01	10.9120	46.009217	0.000324	3.243543	1.098942	-0.000130
 732	7.2734e+01	10.8623	45.859843	0.000375	3.750346	1.270652	-0.000150
 733	7.2834e+01	10.8302	45.771026	0.000223	2.229936	0.755523	-0.000089
 734	7.2933e+01	10.7949	45.645875	0.000314	3.142182	1.064600	-0.000126
 735	7.3033e+01	10.7548	45.488427	0.000395	3.953068	1.339336	-0.000158
 736	7.3132e+01	10.7115	45.363276	0.000314	3.142182	1.064600	-0.000126
 737	7.3232e+01	10.6778	45.246199	0.000294	2.939461	0.995916	-0.000118
 738	7.3332e+01	10.6264	45.088750	0.000395	3.953068	1.339336	-0.000158
 739	7.3431e+01	10.5944	45.003971	0.000213	2.128575	0.721181	-0.000085
 740	7.3531e+01	10.5542	44.866708	0.000345	3.446264	1.167626	-0.000138
 741	7.3630e+01	10.5190	44.745594	0.000304	3.040821	1.030258	-0.000122
 742	7.3730e+01	10.4756	44.596220	0.000375	3.750346	1.270652	-0.000150
 743	7.3829e+01	10.4307	44.507403	0.000223	2.229936	0.755523	-0.000089
 744	7.3928e+01	10.3890	44.366103	0.000355	3.547625	1.201968	-0.000142
 745	7.4028e+01	10.3553	44.228841	0.000345	3.446264	1.167626	-0.000138
 746	7.4127e+01	10.3120	44.103689	0.000314	3.142182	1.064600	-0.000126
 747	7.4227e+01	10.2655	43.966427	0.000345	3.446264	1.167626	-0.000138
 748	7.4326e+01	10.2414	43.861461	0.000264	2.635379	0.892890	-0.000105
 749	7.4426e+01	10.1965	43.728236	0.000334	3.344904	1.133284	-0.000134
 750	7.4525e+01	10.1484	43.611159	0.000294	2.939461	0.995916	-0.000118
 751	7.4625e+01	10.1163	43.453711	0.000395	3.953068	1.339336	-0.000158
 752	7.4725e+01	10.0842	43.332596	0.000304	3.040821	1.030258	-0.000122
 753	7.4824e+01	10.0345	43.207445	0.000314	3.142182	1.064600	-0.000126
 754	7.4924e+01	9.9896	43.110554	0.000243	2.432657	0.824207	-0.000097
 755	7.5023e+01	9.9639	42.969254	0.000355	3.547625	1.201968	-0.000142
 756	7.5123e+01	9.9142	42.819880	0.000375	3.750346	1.270652	-0.000150
 757	7.5222e+01	9.8676	42.690692	0.000324	3.243543	1.098942	-0.000130
 758	7.5322e+01	9.8323	42.569578	0.000304	3.040821	1.030258	-0.000122
 759	7.5421e+01	9.8051	42.432315	0.000345	3.446264	1.167626	-0.000138
 760	7.5520e+01	9.7585	42.351572	0.000203	2.027214	0.686839	-0.000081
 761	7.5620e+01	9.7168	42.157790	0.000487	4.865314	1.648413	-0.000195
 762	7.5719e+01	9.6896	42.036676	0.000304	3.040821	1.030258	-0.000122
 763	7.5819e+01	9.6398	41.939785	0.000243	2.432657	0.824207	-0.000097
 764	7.5918e+01	9.5981	41.778299	0.000405	4.054429	1.373678	-0.000162
 765	7.6018e+01	9.5596	41.665259	0.000284	2.838100	0.961574	-0.000114
 766	7.6118e+01	9.5163	41.532034	0.000334	3.344904	1.133284	-0.000134
 767	7.6217e+01	9.4746	41.398808	0.000334	3.344904	1.133284	-0.000134
 768	7.6317e+01	9.4393	41.237323	0.000405	4.054429	1.373678	-0.000162
 769	7.6416e+01	9.3960	41.160617	0.000193	1.925854	0.652497	-0.000077
 770	7.6516e+01	9.3543	41.031429	0.000324	3.243543	1.098942	-0.000130
 771	7.6615e+01	9.3190	40.861869	0.000426	4.257150	1.442361	-0.000170
 772	7.6715e+01	9.2709	40.716532	0.000365	3.648986	1.236310	-0.000146
 773	7.6814e+01	9.2404	40.567158	0.000375	3.750346	1.270652	-0.000150
 774	7.6913e+01	9.1923	40.458156	0.000274	2.736739	0.927232	-0.000110
 775	7.7013e+01	9.1570	40.337042	0.000304	3.040821	1.030258	-0.000122
 776	7.7112e+01	9.1201	40.211891	0.000314	3.142182	1.064600	-0.000126
 777	7.7212e+01	9.0719	40.054442	0.000395	3.953068	1.339336	-0.000158
 778	7.7311e+01	9.0382	39.905068	0.000375	3.750346	1.270652	-0.000150
 779	7.7411e+01	8.9965	39.787991	0.000294	2.939461	0.995916	-0.000118
 780	7.7510e+01	8.9612	39.662840	0.000314	3.142182	1.064600	-0.000126
 781	7.7610e+01	8.9147	39.509429	0.000385	3.851707	1.304994	-0.000154
 782	7.7710e+01	8.8794	39.380241	0.000324	3.243543	1.098942	-0.000130
 783	7.7809e+01	8.8393	39.242978	0.000345	3.446264	1.167626	-0.000138
 784	7.7909e+01	8.7928	39.125901	0.000294	2.939461	0.995916	-0.000118
 785	7.8008e+01	8.7559	38.992676	0.000334	3.344904	1.133284	-0.000134
 786	7.8108e+01	8.7158	38.815042	0.000446	4.459871	1.511045	-0.000179
 787	7.8207e+01	8.6789	38.685853	0.000324	3.243543	1.098942	-0.000130
 788	7.8306e+01	8.6388	38.584925	0.000253	2.534018	0.858548	-0.000101
 789	7.8406e+01	8.5939	38.387105	0.000497	4.966675	1.682755	-0.000199
 790	7.8505e+01	8.5538	38.249843	0.000345	3.446264	1.167626	-0.000138
 791	7.8605e+01	8.5233	38.124691	0.000314	3.142182	1.064600	-0.000126
 792	7.8704e+01	8.4864	37.967243	0.000395	3.953068	1.339336	-0.000158
 793	7.8804e+01	8.4335	37.846129	0.000304	3.040821	1.030258	-0.000122
 794	7.8903e+01	8.4046	37.745201	0.000253	2.534018	0.858548	-0.000101
 795	7.9003e+01	8.3613	37.551418	0.000487	4.865314	1.648413	-0.000195
 796	7.9103e+01	8.3196	37.418193	0.000334	3.344904	1.133284	-0.000134
 797	7.9202e+01	8.2778	37.305153	0.000284	2.838100	0.961574	-0.000114
 798	7.9302e+01	8.2474	37.167890	0.000345	3.446264	1.167626	-0.000138
 799	7.9401e+01	8.1992	37.026590	0.000355	3.547625	1.201968	-0.000142
 800	7.9501e+01	8.1623	36.865105	0.000405	4.054429	1.373678	-0.000162
 801	7.9600e+01	8.1126	36.723805	0.000355	3.547625	1.201968	-0.000142
 802	7.9700e+01	8.0773	36.582505	0.000355	3.547625	1.201968	-0.000142
 803	7.9799e+01	8.0372	36.437169	0.000365	3.648986	1.236310	-0.000146
 804	7.9898e+01	7.9971	36.328166	0.000274	2.736739	0.927232	-0.000110
 805	7.9998e+01	7.9730	36.166681	0.000405	4.054429	1.373678	-0.000162
 806	8.0097e+01	7.9217	36.049604	0.000294	2.939461	0.995916	-0.000118
 807	8.0197e+01	7.8800	35.912341	0.000345	3.446264	1.167626	-0.000138
 808	8.0296e+01	7.8383	35.750856	0.000405	4.054429	1.373678	-0.000162
 809	8.0396e+01	7.8126	35.621667	0.000324	3.243543	1.098942	-0.000130
 810	8.0496e+01	7.7597	35.444033	0.000446	4.459871	1.511045	-0.000179
 811	8.0595e+01	7.7148	35.310808	0.000334	3.344904	1.133284	-0.000134
 812	8.0695e+01	7.6907	35.157397	0.000385	3.851707	1.304994	-0.000154
 813	8.0794e+01	7.6394	35.048394	0.000274	2.736739	0.927232	-0.000110
 814	8.0894e+01	7.6009	34.894983	0.000385	3.851707	1.304994	-0.000154
 815	8.0993e+01	7.5591	34.733497	0.000405	4.054429	1.373678	-0.000162
 816	8.1093e+01	7.5287	34.612383	0.000304	3.040821	1.030258	-0.000122
 817	8.1192e+01	7.4918	34.487232	0.000314	3.142182	1.064600	-0.000126
 818	8.1291e+01	7.4436	34.341895	0.000365	3.648986	1.236310	-0.000146
 819	8.1391e+01	7.4083	34.220781	0.000304	3.040821	1.030258	-0.000122
 820	8.1490e+01	7.3586	34.031036	0.000476	4.763954	1.614071	-0.000191
 821	8.1590e+01	7.3313	33.901847	0.000324	3.243543	1.098942	-0.000130
 822	8.1689e+01	7.2928	33.768622	0.000334	3.344904	1.133284	-0.000134
 823	8.1789e+01	7.2399	33.635396	0.000334	3.344904	1.133284	-0.000134
 824	8.1888e+01	7.2126	33.481985	0.000385	3.851707	1.304994	-0.000154
 825	8.1988e+01	7.1613	33.348760	0.000334	3.344904	1.133284	-0.000134
 826	8.2088e+01	7.1212	33.195349	0.000385	3.851707	1.304994	-0.000154
 827	8.2187e+01	7.0811	33.025789	0.000426	4.257150	1.442361	-0.000170
 828	8.2287e+01	7.0426	32.860266	0.000416	4.155789	1.408020	-0.000166
 829	8.2386e+01	6.9977	32.763375	0.000243	2.432657	0.824207	-0.000097
 830	8.2486e+01	6.9640	32.597853	0.000416	4.155789	1.408020	-0.000166
 831	8.2585e+01	6.9207	32.436367	0.000405	4.054429	1.373678	-0.000162
 832	8.2684e+01	6.8886	32.307179	0.000324	3.243543	1.098942	-0.000130
 833	8.2784e+01	6.8501	32.109359	0.000497	4.966675	1.682755	-0.000199
 834	8.2883e+01	6.8164	31.992282	0.000294	2.939461	0.995916	-0.000118
 835	8.2983e+01	6.7602	31.855020	0.000345	3.446264	1.167626	-0.000138
 836	8.3082e+01	6.7282	31.705646	0.000375	3.750346	1.270652	-0.000150
 837	8.3182e+01	6.6929	31.523974	0.000456	4.561232	1.545387	-0.000183
 838	8.3281e+01	6.6511	31.402860	0.000304	3.040821	1.030258	-0.000122
 839	8.3381e+01	6.6062	31.281746	0.000304	3.040821	1.030258	-0.000122
 840	8.3481e+01	6.5709	31.112187	0.000426	4.257150	1.442361	-0.000170
 841	8.3580e+01	6.5196	30.962813	0.000375	3.750346	1.270652	-0.000150
 842	8.3680e+01	6.4955	30.833624	0.000324	3.243543	1.098942	-0.000130
 843	8.3779e+01	6.4538	30.680213	0.000385	3.851707	1.304994	-0.000154
 844	8.3879e+01	6.4073	30.518728	0.000405	4.054429	1.373678	-0.000162
 845	8.3978e+01	6.3640	30.377428	0.000355	3.547625	1.201968	-0.000142
 846	8.4078e+01	6.3239	30.228054	0.000375	3.750346	1.270652	-0.000150
 847	8.4177e+01	6.2822	30.098865	0.000324	3.243543	1.098942	-0.000130
 848	8.4276e+01	6.2501	29.933343	0.000416	4.155789	1.408020	-0.000166
 849	8.4376e+01	6.2116	29.771858	0.000405	4.054429	1.373678	-0.000162
 850	8.4475e+01	6.1619	29.626521	0.000365	3.648986	1.236310	-0.000146
 851	8.4575e+01	6.1346	29.513481	0.000284	2.838100	0.961574	-0.000114
 852	8.4674e+01	6.0977	29.343921	0.000426	4.257150	1.442361	-0.000170
 853	8.4774e+01	6.0560	29.182436	0.000405	4.054429	1.373678	-0.000162
 854	8.4874e+01	6.0046	29.008839	0.000436	4.358511	1.476703	-0.000174
 855	8.4973e+01	5.9742	28.895799	0.000284	2.838100	0.961574	-0.000114
 856	8.5073e+01	5.9292	28.750462	0.000365	3.648986	1.236310	-0.000146
 857	8.5172e+01	5.8891	28.572828	0.000446	4.459871	1.511045	-0.000179
 858	8.5272e+01	5.8458	28.439603	0.000334	3.344904	1.133284	-0.000134
 859	8.5371e+01	5.8153	28.241783	0.000497	4.966675	1.682755	-0.000199
 860	8.5471e+01	5.7736	28.152966	0.000223	2.229936	0.755523	-0.000089
 861	8.5570e+01	5.7335	27.971295	0.000456	4.561232	1.545387	-0.000183
 862	8.5669e+01	5.6870	27.854218	0.000294	2.939461	0.995916	-0.000118
 863	8.5769e+01	5.6517	27.680621	0.000436	4.358511	1.476703	-0.000174
 864	8.5868e+01	5.6148	27.502987	0.000446	4.459871	1.511045	-0.000179
 865	8.5968e+01	5.5827	27.393985	0.000274	2.736739	0.927232	-0.000110
 866	8.6067e+01	5.5330	27.204239	0.000476	4.763954	1.614071	-0.000191
 867	8.6167e+01	5.4881	27.075051	0.000324	3.243543	1.098942	-0.000130
 868	8.6266e+01	5.4512	26.901454	0.000436	4.358511	1.476703	-0.000174
 869	8.6366e+01	5.4191	26.820711	0.000203	2.027214	0.686839	-0.000081
 870	8.6466e+01	5.3694	26.610780	0.000527	5.270757	1.785781	-0.000211
 871	8.6565e+01	5.3309	26.445258	0.000416	4.155789	1.408020	-0.000166
 872	8.6665e+01	5.3004	26.295884	0.000375	3.750346	1.270652	-0.000150
 873	8.6764e+01	5.2587	26.162658	0.000334	3.344904	1.133284	-0.000134
 874	8.6864e+01	5.2170	25.993098	0.000426	4.257150	1.442361	-0.000170
 875	8.6963e+01	5.1640	25.827576	0.000416	4.155789	1.408020	-0.000166
 876	8.7063e+01	5.1368	25.710499	0.000294	2.939461	0.995916	-0.000118
 877	8.7162e+01	5.0966	25.553051	0.000395	3.953068	1.339336	-0.000158
 878	8.7261e+01	5.0517	25.399639	0.000385	3.851707	1.304994	-0.000154
 879	8.7361e+01	5.0164	25.250265	0.000375	3.750346	1.270652	-0.000150
 880	8.7460e+01	4.9747	25.084743	0.000416	4.155789	1.408020	-0.000166
 881	8.7560e+01	4.9298	24.927295	0.000395	3.953068	1.339336	-0.000158
 882	8.7659e+01	4.8897	24.806181	0.000304	3.040821	1.030258	-0.000122
 883	8.7759e+01	4.8576	24.652769	0.000385	3.851707	1.304994	-0.000154
 884	8.7859e+01	4.8127	24.463024	0.000476	4.763954	1.614071	-0.000191
 885	8.7958e+01	4.7726	24.273279	0.000476	4.763954	1.614071	-0.000191
 886	8.8058e+01	4.7389	24.164276	0.000274	2.736739	0.927232	-0.000110
 887	8.8157e+01	4.6956	24.039125	0.000314	3.142182	1.064600	-0.000126
 888	8.8257e+01	4.6603	23.853417	0.000466	4.662593	1.579729	-0.000187
 889	8.8356e+01	4.6138	23.679820	0.000436	4.358511	1.476703	-0.000174
 890	8.8456e+01	4.5817	23.538520	0.000355	3.547625	1.201968	-0.000142
 891	8.8555e+01	4.5464	23.352812	0.000466	4.662593	1.579729	-0.000187
 892	8.8654e+01	4.4967	23.223623	0.000324	3.243543	1.098942	-0.000130
 893	8.8754e+01	4.4534	23.041952	0.000456	4.561232	1.545387	-0.000183
 894	8.8853e+01	4.4197	22.872393	0.000426	4.257150	1.442361	-0.000170
 895	8.8953e+01	4.3844	22.731093	0.000355	3.547625	1.201968	-0.000142
 896	8.9052e+01	4.3394	22.593830	0.000345	3.446264	1.167626	-0.000138
 897	8.9152e+01	4.3026	22.383899	0.000527	5.270757	1.785781	-0.000211
 898	8.9251e+01	4.2592	22.230488	0.000385	3.851707	1.304994	-0.000154
 899	8.9351e+01	4.2047	22.097262	0.000334	3.344904	1.133284	-0.000134
 900	8.9451e+01	4.1774	21.935777	0.000405	4.054429	1.373678	-0.000162
 901	8.9550e+01	4.1421	21.713735	0.000557	5.574839	1.888807	-0.000223
 902	8.9650e+01	4.0956	21.596658	0.000294	2.939461	0.995916	-0.000118
 903	8.9749e+01	4.0555	21.443246	0.000385	3.851707	1.304994	-0.000154
 904	8.9849e+01	4.0202	21.277724	0.000416	4.155789	1.408020	-0.000166
 905	8.9948e+01	3.9737	21.108164	0.000426	4.257150	1.442361	-0.000170
 906	9.0047e+01	3.9448	20.962827	0.000365	3.648986	1.236310	-0.000146
 907	9.0147e+01	3.9079	20.781156	0.000456	4.561232	1.545387	-0.000183
 908	9.0246e+01	3.8630	20.595448	0.000466	4.662593	1.579729	-0.000187
 909	9.0346e+01	3.8245	20.417814	0.000446	4.459871	1.511045	-0.000179
 910	9.0445e+01	3.7748	20.248254	0.000426	4.257150	1.442361	-0.000170
 911	9.0545e+01	3.7314	20.110992	0.000345	3.446264	1.167626	-0.000138
 912	9.0644e+01	3.6994	19.925283	0.000466	4.662593	1.579729	-0.000187
 913	9.0744e+01	3.6577	19.824355	0.000253	2.534018	0.858548	-0.000101
 914	9.0844e+01	3.6208	19.598275	0.000568	5.676200	1.923149	-0.000227
 915	9.0943e+01	3.5855	19.473124	0.000314	3.142182	1.064600	-0.000126
 916	9.1043e+01	3.5373	19.263193	0.000527	5.270757	1.785781	-0.000211
 917	9.1142e+01	3.5052	19.101708	0.000405	4.054429	1.373678	-0.000162
 918	9.1242e+01	3.4571	18.972519	0.000324	3.243543	1.098942	-0.000130
 919	9.1341e+01	3.4218	18.802960	0.000426	4.257150	1.442361	-0.000170
 920	9.1441e+01	3.3817	18.669734	0.000334	3.344904	1.133284	-0.000134
 921	9.1540e+01	3.3416	18.475952	0.000487	4.865314	1.648413	-0.000195
 922	9.1639e+01	3.3015	18.310429	0.000416	4.155789	1.408020	-0.000166
 923	9.1739e+01	3.2646	18.157018	0.000385	3.851707	1.304994	-0.000154
 924	9.1838e+01	3.2277	17.934976	0.000557	5.574839	1.888807	-0.000223
 925	9.1938e+01	3.1780	17.773490	0.000405	4.054429	1.373678	-0.000162
 926	9.2037e+01	3.1411	17.660450	0.000284	2.838100	0.961574	-0.000114
 927	9.2137e+01	3.0994	17.442445	0.000547	5.473479	1.854465	-0.000219
 928	9.2237e+01	3.0641	17.305182	0.000345	3.446264	1.167626	-0.000138
 929	9.2336e+01	3.0144	17.131586	0.000436	4.358511	1.476703	-0.000174
 930	9.2436e+01	2.9742	16.966063	0.000416	4.155789	1.408020	-0.000166
 931	9.2535e+01	2.9518	16.808615	0.000395	3.953068	1.339336	-0.000158
 932	9.2635e+01	2.8972	16.618869	0.000476	4.763954	1.614071	-0.000191
 933	9.2734e+01	2.8571	16.489681	0.000324	3.243543	1.098942	-0.000130
 934	9.2834e+01	2.8218	16.287824	0.000507	5.068036	1.717097	-0.000203
 935	9.2933e+01	2.7833	16.110190	0.000446	4.459871	1.511045	-0.000179
 936	9.3032e+01	2.7577	15.964853	0.000365	3.648986	1.236310	-0.000146
 937	9.3132e+01	2.6951	15.771071	0.000487	4.865314	1.648413	-0.000195
 938	9.3231e+01	2.6582	15.597474	0.000436	4.358511	1.476703	-0.000174
 939	9.3331e+01	2.6181	15.427914	0.000426	4.257150	1.442361	-0.000170
 940	9.3430e+01	2.5780	15.286614	0.000355	3.547625	1.201968	-0.000142
 941	9.3530e+01	2.5411	15.113018	0.000436	4.358511	1.476703	-0.000174
 942	9.3629e+01	2.5058	14.907124	0.000517	5.169396	1.751439	-0.000207
 943	9.3729e+01	2.4561	14.705267	0.000507	5.068036	1.717097	-0.000203
 944	9.3829e+01	2.4256	14.547819	0.000395	3.953068	1.339336	-0.000158
 945	9.3928e+01	2.3855	14.390370	0.000395	3.953068	1.339336	-0.000158
 946	9.4028e+01	2.3406	14.180439	0.000527	5.270757	1.785781	-0.000211
 947	9.4127e+01	2.3069	14.002805	0.000446	4.459871	1.511045	-0.000179
 948	9.4227e+01	2.2684	13.829208	0.000436	4.358511	1.476703	-0.000174
 949	9.4326e+01	2.2331	13.639463	0.000476	4.763954	1.614071	-0.000191
 950	9.4425e+01	2.1753	13.518349	0.000304	3.040821	1.030258	-0.000122
 951	9.4525e+01	2.1433	13.288232	0.000578	5.777561	1.957491	-0.000231
 952	9.4624e+01	2.1096	13.106561	0.000456	4.561232	1.545387	-0.000183
 953	9.4724e+01	2.0711	12.949113	0.000395	3.953068	1.339336	-0.000158
 954	9.4823e+01	2.0342	12.803776	0.000365	3.648986	1.236310	-0.000146
 955	9.4923e+01	1.9925	12.565585	0.000598	5.980282	2.026174	-0.000239
 956	9.5022e+01	1.9459	12.375840	0.000476	4.763954	1.614071	-0.000191
 957	9.5122e+01	1.9058	12.230503	0.000365	3.648986	1.236310	-0.000146
 958	9.5222e+01	1.8625	12.012497	0.000547	5.473479	1.854465	-0.000219
 959	9.5321e+01	1.8224	11.859086	0.000385	3.851707	1.304994	-0.000154
 960	9.5421e+01	1.7855	11.669341	0.000476	4.763954	1.614071	-0.000191
 961	9.5520e+01	1.7438	11.455373	0.000537	5.372118	1.820123	-0.000215
 962	9.5620e+01	1.7085	11.289850	0.000416	4.155789	1.408020	-0.000166
 963	9.5719e+01	1.6748	11.108179	0.000456	4.561232	1.545387	-0.000183
 964	9.5819e+01	1.6187	10.914396	0.000487	4.865314	1.648413	-0.000195
 965	9.5918e+01	1.5850	10.773097	0.000355	3.547625	1.201968	-0.000142
 966	9.6017e+01	1.5465	10.563166	0.000527	5.270757	1.785781	-0.000211
 967	9.6117e+01	1.5000	10.333049	0.000578	5.777561	1.957491	-0.000231
 968	9.6216e+01	1.4679	10.191749	0.000355	3.547625	1.201968	-0.000142
 969	9.6316e+01	1.4294	9.993930	0.000497	4.966675	1.682755	-0.000199
 970	9.6415e+01	1.3861	9.836481	0.000395	3.953068	1.339336	-0.000158
 971	9.6515e+01	1.3540	9.622513	0.000537	5.372118	1.820123	-0.000215
 972	9.6615e+01	1.3074	9.432768	0.000476	4.763954	1.614071	-0.000191
 973	9.6714e+01	1.2673	9.247059	0.000466	4.662593	1.579729	-0.000187
 974	9.6814e+01	1.2272	9.065388	0.000456	4.561232	1.545387	-0.000183
 975	9.6913e+01	1.1919	8.875643	0.000476	4.763954	1.614071	-0.000191
 976	9.7013e+01	1.1486	8.722232	0.000385	3.851707	1.304994	-0.000154
 977	9.7112e+01	1.1053	8.540561	0.000456	4.561232	1.545387	-0.000183
 978	9.7212e+01	1.0764	8.326592	0.000537	5.372118	1.820123	-0.000215
 979	9.7311e+01	1.0283	8.140884	0.000466	4.662593	1.579729	-0.000187
 980	9.7410e+01	0.9946	7.955176	0.000466	4.662593	1.579729	-0.000187
 981	9.7510e+01	0.9545	7.737171	0.000547	5.473479	1.854465	-0.000219
 982	9.7609e+01	0.9032	7.567611	0.000426	4.257150	1.442361	-0.000170
 983	9.7709e+01	0.8679	7.353643	0.000537	5.372118	1.820123	-0.000215
 984	9.7808e+01	0.8406	7.200232	0.000385	3.851707	1.304994	-0.000154
 985	9.7908e+01	0.7861	7.002412	0.000497	4.966675	1.682755	-0.000199
 986	9.8007e+01	0.7572	6.800555	0.000507	5.068036	1.717097	-0.000203
 987	9.8107e+01	0.7123	6.618884	0.000456	4.561232	1.545387	-0.000183
 988	9.8207e+01	0.6738	6.441250	0.000446	4.459871	1.511045	-0.000179
 989	9.8306e+01	0.6289	6.203059	0.000598	5.980282	2.026174	-0.000239
 990	9.8406e+01	0.5871	6.045611	0.000395	3.953068	1.339336	-0.000158
 991	9.8505e+01	0.5470	5.876051	0.000426	4.257150	1.442361	-0.000170
 992	9.8605e+01	0.5118	5.662083	0.000537	5.372118	1.820123	-0.000215
 993	9.8704e+01	0.4604	5.444078	0.000547	5.473479	1.854465	-0.000219
 994	9.8803e+01	0.4364	5.250295	0.000487	4.865314	1.648413	-0.000195
 995	9.8903e+01	0.3914	5.068624	0.000456	4.561232	1.545387	-0.000183
 996	9.9002e+01	0.3401	4.882916	0.000466	4.662593	1.579729	-0.000187
 997	9.9102e+01	0.3016	4.701245	0.000456	4.561232	1.545387	-0.000183
 998	9.9201e+01	0.2711	4.491314	0.000527	5.270757	1.785781	-0.000211
 999	9.9301e+01	0.2374	4.269271	0.000557	5.574839	1.888807	-0.000223
1000	9.9400e+01	0.1893	4.091637	0.000446	4.459871	1.511045	-0.000179
1001	9.9500e+01	0.1428	3.922077	0.000426	4.257150	1.442361	-0.000170
1002	9.9600e+01	0.1059	3.695998	0.000568	5.676200	1.923149	-0.000227
1003	9.9699e+01	0.0754	3.482030	0.000537	5.372118	1.820123	-0.000215
1004	9.9799e+01	0.0369	3.304396	0.000446	4.459871	1.511045	-0.000179
1005	9.9898e+01	0.0000	3.146947	0.000395	3.953068	1.339336	-0.000158
1006	9.9998e+01	-0.0369	2.973350	0.000436	4.358511	1.476703	-0.000174
1007	1.0010e+02	-0.0754	2.719011	0.000639	6.385725	2.163542	-0.000256
1008	1.0020e+02	-0.1203	2.533303	0.000466	4.662593	1.579729	-0.000187
1009	1.0030e+02	-0.1668	2.363743	0.000426	4.257150	1.442361	-0.000170
1010	1.0040e+02	-0.1925	2.165923	0.000497	4.966675	1.682755	-0.000199
1011	1.0050e+02	-0.2342	1.947918	0.000547	5.473479	1.854465	-0.000219
1012	1.0059e+02	-0.2791	1.786433	0.000405	4.054429	1.373678	-0.000162
1013	1.0069e+02	-0.3241	1.572464	0.000537	5.372118	1.820123	-0.000215
1014	1.0079e+02	-0.3610	1.342348	0.000578	5.777561	1.957491	-0.000231
1015	1.0089e+02	-0.3995	1.160677	0.000456	4.561232	1.545387	-0.000183
1016	1.0099e+02	-0.4428	0.950745	0.000527	5.270757	1.785781	-0.000211
1017	1.0109e+02	-0.4765	0.736777	0.000537	5.372118	1.820123	-0.000215
1018	1.0119e+02	-0.5166	0.575292	0.000405	4.054429	1.373678	-0.000162
1019	1.0129e+02	-0.5583	0.337101	0.000598	5.980282	2.026174	-0.000239
1020	1.0139e+02	-0.5968	0.135244	0.000507	5.068036	1.717097	-0.000203
1021	1.0149e+02	-0.6417	-0.058538	0.000487	4.865314	1.648413	-0.000195
1022	1.0159e+02	-0.6786	-0.236172	0.000446	4.459871	1.511045	-0.000179
1023	1.0169e+02	-0.7155	-0.482438	0.000618	6.183004	2.094858	-0.000248
1024	1.0179e+02	-0.7524	-0.664109	0.000456	4.561232	1.545387	-0.000183
1025	1.0189e+02	-0.7989	-0.861928	0.000497	4.966675	1.682755	-0.000199
1026	1.0199e+02	-0.8406	-1.043600	0.000456	4.561232	1.545387	-0.000183
1027	1.0209e+02	-0.8775	-1.265642	0.000557	5.574839	1.888807	-0.000223
1028	1.0219e+02	-0.9096	-1.447313	0.000456	4.561232	1.545387	-0.000183
1029	1.0229e+02	-0.9545	-1.693578	0.000618	6.183004	2.094858	-0.000248
1030	1.0239e+02	-0.9978	-1.834878	0.000355	3.547625	1.201968	-0.000142
1031	1.0248e+02	-1.0476	-2.069032	0.000588	5.878921	1.991833	-0.000235
1032	1.0258e+02	-1.0780	-2.234555	0.000416	4.155789	1.408020	-0.000166
1033	1.0268e+02	-1.1182	-2.424300	0.000476	4.763954	1.614071	-0.000191
1034	1.0278e+02	-1.1550	-2.622120	0.000497	4.966675	1.682755	-0.000199
1035	1.0288e+02	-1.1952	-2.864348	0.000608	6.081643	2.060516	-0.000243
1036	1.0298e+02	-1.2321	-3.041982	0.000446	4.459871	1.511045	-0.000179
1037	1.0308e+02	-1.2770	-3.239801	0.000497	4.966675	1.682755	-0.000199
1038	1.0318e+02	-1.3091	-3.425510	0.000466	4.662593	1.579729	-0.000187
1039	1.0328e+02	-1.3588	-3.659664	0.000588	5.878921	1.991833	-0.000235
1040	1.0338e+02	-1.3957	-3.829223	0.000426	4.257150	1.442361	-0.000170
1041	1.0348e+02	-1.4406	-3.990709	0.000405	4.054429	1.373678	-0.000162
1042	1.0358e+02	-1.4711	-4.216788	0.000568	5.676200	1.923149	-0.000227
1043	1.0368e+02	-1.5064	-4.414608	0.000497	4.966675	1.682755	-0.000199
1044	1.0378e+02	-1.5673	-4.648762	0.000588	5.878921	1.991833	-0.000235
1045	1.0388e+02	-1.5930	-4.818322	0.000426	4.257150	1.442361	-0.000170
1046	1.0398e+02	-1.6395	-5.052475	0.000588	5.878921	1.991833	-0.000235
1047	1.0408e+02	-1.6780	-5.205887	0.000385	3.851707	1.304994	-0.000154
1048	1.0418e+02	-1.7117	-5.419855	0.000537	5.372118	1.820123	-0.000215
1049	1.0428e+02	-1.7438	-5.629786	0.000527	5.270757	1.785781	-0.000211
1050	1.0438e+02	-1.8016	-5.827605	0.000497	4.966675	1.682755	-0.000199
1051	1.0447e+02	-1.8320	-6.005239	0.000446	4.459871	1.511045	-0.000179
1052	1.0457e+02	-1.8786	-6.227282	0.000557	5.574839	1.888807	-0.000223
1053	1.0467e+02	-1.9155	-6.384730	0.000395	3.953068	1.339336	-0.000158
1054	1.0477e+02	-1.9459	-6.570438	0.000466	4.662593	1.579729	-0.000187
1055	1.0487e+02	-2.0021	-6.772295	0.000507	5.068036	1.717097	-0.000203
1056	1.0497e+02	-2.0278	-7.010486	0.000598	5.980282	2.026174	-0.000239
1057	1.0507e+02	-2.0791	-7.151786	0.000355	3.547625	1.201968	-0.000142
1058	1.0517e+02	-2.1176	-7.389977	0.000598	5.980282	2.026174	-0.000239
1059	1.0527e+02	-2.1449	-7.587797	0.000497	4.966675	1.682755	-0.000199
1060	1.0537e+02	-2.1818	-7.789653	0.000507	5.068036	1.717097	-0.000203
1061	1.0547e+02	-2.2347	-7.959213	0.000426	4.257150	1.442361	-0.000170
1062	1.0557e+02	-2.2716	-8.181256	0.000557	5.574839	1.888807	-0.000223
1063	1.0567e+02	-2.3069	-8.358890	0.000446	4.459871	1.511045	-0.000179
1064	1.0577e+02	-2.3550	-8.548635	0.000476	4.763954	1.614071	-0.000191
1065	1.0587e+02	-2.3887	-8.742417	0.000487	4.865314	1.648413	-0.000195
1066	1.0597e+02	-2.4336	-8.932163	0.000476	4.763954	1.614071	-0.000191
1067	1.0607e+02	-2.4737	-9.121908	0.000476	4.763954	1.614071	-0.000191
1068	1.0617e+02	-2.5154	-9.319728	0.000497	4.966675	1.682755	-0.000199
1069	1.0627e+02	-2.5555	-9.501399	0.000456	4.561232	1.545387	-0.000183
1070	1.0637e+02	-2.5973	-9.670959	0.000426	4.257150	1.442361	-0.000170
1071	1.0647e+02	-2.6293	-9.884927	0.000537	5.372118	1.820123	-0.000215
1072	1.0656e+02	-2.6727	-10.082747	0.000497	4.966675	1.682755	-0.000199
1073	1.0666e+02	-2.7079	-10.276529	0.000487	4.865314	1.648413	-0.000195
1074	1.0676e+02	-2.7384	-10.506646	0.000578	5.777561	1.957491	-0.000231
1075	1.0686e+02	-2.7914	-10.680243	0.000436	4.358511	1.476703	-0.000174
1076	1.0696e+02	-2.8331	-10.841728	0.000405	4.054429	1.373678	-0.000162
1077	1.0706e+02	-2.8796	-10.991102	0.000375	3.750346	1.270652	-0.000150
1078	1.0716e+02	-2.9069	-11.205070	0.000537	5.372118	1.820123	-0.000215
1079	1.0726e+02	-2.9534	-11.406927	0.000507	5.068036	1.717097	-0.000203
1080	1.0736e+02	-2.9887	-11.588598	0.000456	4.561232	1.545387	-0.000183
1081	1.0746e+02	-3.0256	-11.766232	0.000446	4.459871	1.511045	-0.000179
1082	1.0756e+02	-3.0673	-11.996349	0.000578	5.777561	1.957491	-0.000231
1083	1.0766e+02	-3.1042	-12.169946	0.000436	4.358511	1.476703	-0.000174
1084	1.0776e+02	-3.1459	-12.371802	0.000507	5.068036	1.717097	-0.000203
1085	1.0786e+02	-3.1892	-12.565585	0.000487	4.865314	1.648413	-0.000195
1086	1.0796e+02	-3.2357	-12.694773	0.000324	3.243543	1.098942	-0.000130
1087	1.0806e+02	-3.2662	-12.924890	0.000578	5.777561	1.957491	-0.000231
1088	1.0816e+02	-3.3031	-13.102524	0.000446	4.459871	1.511045	-0.000179
1089	1.0826e+02	-3.3512	-13.239787	0.000345	3.446264	1.167626	-0.000138
1090	1.0836e+02	-3.3897	-13.417421	0.000446	4.459871	1.511045	-0.000179
1091	1.0845e+02	-3.4234	-13.582943	0.000416	4.155789	1.408020	-0.000166
1092	1.0855e+02	-3.4700	-13.821134	0.000598	5.980282	2.026174	-0.000239
1093	1.0865e+02	-3.5052	-13.970508	0.000375	3.750346	1.270652	-0.000150
1094	1.0875e+02	-3.5438	-14.152179	0.000456	4.561232	1.545387	-0.000183
1095	1.0885e+02	-3.5774	-14.329813	0.000446	4.459871	1.511045	-0.000179
1096	1.0895e+02	-3.6304	-14.527633	0.000497	4.966675	1.682755	-0.000199
1097	1.0905e+02	-3.6593	-14.709304	0.000456	4.561232	1.545387	-0.000183
1098	1.0915e+02	-3.6994	-14.874827	0.000416	4.155789	1.408020	-0.000166
1099	1.0925e+02	-3.7475	-15.020164	0.000365	3.648986	1.236310	-0.000146
1100	1.0935e+02	-3.7892	-15.209909	0.000476	4.763954	1.614071	-0.000191
1101	1.0945e+02	-3.8309	-15.419840	0.000527	5.270757	1.785781	-0.000211
1102	1.0955e+02	-3.8614	-15.573251	0.000385	3.851707	1.304994	-0.000154
1103	1.0965e+02	-3.9031	-15.750885	0.000446	4.459871	1.511045	-0.000179
1104	1.0975e+02	-3.9464	-15.912371	0.000405	4.054429	1.373678	-0.000162
1105	1.0985e+02	-3.9865	-16.130376	0.000547	5.473479	1.854465	-0.000219
1106	1.0995e+02	-4.0266	-16.295898	0.000416	4.155789	1.408020	-0.000166
1107	1.1005e+02	-4.0603	-16.473532	0.000446	4.459871	1.511045	-0.000179
1108	1.1015e+02	-4.1068	-16.655203	0.000456	4.561232	1.545387	-0.000183
1109	1.1025e+02	-4.1453	-16.857060	0.000507	5.068036	1.717097	-0.000203
1110	1.1035e+02	-4.1790	-16.994323	0.000345	3.446264	1.167626	-0.000138
1111	1.1044e+02	-4.2272	-17.175994	0.000456	4.561232	1.545387	-0.000183
1112	1.1054e+02	-4.2641	-17.329405	0.000385	3.851707	1.304994	-0.000154
1113	1.1064e+02	-4.2977	-17.498965	0.000426	4.257150	1.442361	-0.000170
1114	1.1074e+02	-4.3523	-17.672562	0.000436	4.358511	1.476703	-0.000174
1115	1.1084e+02	-4.3796	-17.870381	0.000497	4.966675	1.682755	-0.000199
1116	1.1094e+02	-4.4261	-18.039941	0.000426	4.257150	1.442361	-0.000170
1117	1.1104e+02	-4.4646	-18.213538	0.000436	4.358511	1.476703	-0.000174
1118	1.1114e+02	-4.5015	-18.415395	0.000507	5.068036	1.717097	-0.000203
1119	1.1124e+02	-4.5384	-18.560732	0.000365	3.648986	1.236310	-0.000146
1120	1.1134e+02	-4.5897	-18.710106	0.000375	3.750346	1.270652	-0.000150
1121	1.1144e+02	-4.6170	-18.895814	0.000466	4.662593	1.579729	-0.000187
1122	1.1154e+02	-4.6667	-19.057299	0.000405	4.054429	1.373678	-0.000162
1123	1.1164e+02	-4.7004	-19.243007	0.000466	4.662593	1.579729	-0.000187
1124	1.1174e+02	-4.7501	-19.428716	0.000466	4.662593	1.579729	-0.000187
1125	1.1184e+02	-4.7822	-19.557904	0.000324	3.243543	1.098942	-0.000130
1126	1.1194e+02	-4.8287	-19.763798	0.000517	5.169396	1.751439	-0.000207
1127	1.1204e+02	-4.8624	-19.941432	0.000446	4.459871	1.511045	-0.000179
1128	1.1214e+02	-4.8913	-20.102917	0.000405	4.054429	1.373678	-0.000162
1129	1.1224e+02	-4.9507	-20.268440	0.000416	4.155789	1.408020	-0.000166
1130	1.1234e+02	-4.9779	-20.417814	0.000375	3.750346	1.270652	-0.000150
1131	1.1244e+02	-5.0245	-20.603522	0.000466	4.662593	1.579729	-0.000187
1132	1.1253e+02	-5.0565	-20.740785	0.000345	3.446264	1.167626	-0.000138
1133	1.1263e+02	-5.1127	-20.910345	0.000426	4.257150	1.442361	-0.000170
1134	1.1273e+02	-5.1432	-21.132387	0.000557	5.574839	1.888807	-0.000223
1135	1.1283e+02	-5.1801	-21.257538	0.000314	3.142182	1.064600	-0.000126
1136	1.1293e+02	-5.2202	-21.459395	0.000507	5.068036	1.717097	-0.000203
1137	1.1303e+02	-5.2651	-21.596658	0.000345	3.446264	1.167626	-0.000138
1138	1.1313e+02	-5.3036	-21.766217	0.000426	4.257150	1.442361	-0.000170
1139	1.1323e+02	-5.3325	-21.931740	0.000416	4.155789	1.408020	-0.000166
1140	1.1333e+02	-5.3774	-22.073040	0.000355	3.547625	1.201968	-0.000142
1141	1.1343e+02	-5.4191	-22.234525	0.000405	4.054429	1.373678	-0.000162
1142	1.1353e+02	-5.4608	-22.379862	0.000365	3.648986	1.236310	-0.000146
1143	1.1363e+02	-5.4993	-22.593830	0.000537	5.372118	1.820123	-0.000215
1144	1.1373e+02	-5.5362	-22.739167	0.000365	3.648986	1.236310	-0.000146
1145	1.1383e+02	-5.5731	-22.860281	0.000304	3.040821	1.030258	-0.000122
1146	1.1393e+02	-5.6244	-23.050026	0.000476	4.763954	1.614071	-0.000191
1147	1.1403e+02	-5.6613	-23.235735	0.000466	4.662593	1.579729	-0.000187
1148	1.1413e+02	-5.6918	-23.372997	0.000345	3.446264	1.167626	-0.000138
1149	1.1423e+02	-5.7383	-23.554668	0.000456	4.561232	1.545387	-0.000183
1150	1.1433e+02	-5.7817	-23.691931	0.000345	3.446264	1.167626	-0.000138
1151	1.1442e+02	-5.8186	-23.881676	0.000476	4.763954	1.614071	-0.000191
1152	1.1452e+02	-5.8667	-24.027013	0.000365	3.648986	1.236310	-0.000146
1153	1.1462e+02	-5.8859	-24.192536	0.000416	4.155789	1.408020	-0.000166
1154	1.1472e+02	-5.9357	-24.341910	0.000375	3.750346	1.270652	-0.000150
1155	1.1482e+02	-5.9774	-24.495321	0.000385	3.851707	1.304994	-0.000154
1156	1.1492e+02	-6.0207	-24.668918	0.000436	4.358511	1.476703	-0.000174
1157	1.1502e+02	-6.0544	-24.838478	0.000426	4.257150	1.442361	-0.000170
1158	1.1512e+02	-6.0929	-24.991889	0.000385	3.851707	1.304994	-0.000154
1159	1.1522e+02	-6.1330	-25.133189	0.000355	3.547625	1.201968	-0.000142
1160	1.1532e+02	-6.1811	-25.286600	0.000385	3.851707	1.304994	-0.000154
1161	1.1542e+02	-6.2132	-25.452122	0.000416	4.155789	1.408020	-0.000166
1162	1.1552e+02	-6.2533	-25.621682	0.000426	4.257150	1.442361	-0.000170
1163	1.1562e+02	-6.2950	-25.714536	0.000233	2.331296	0.789865	-0.000093
1164	1.1572e+02	-6.3431	-25.928504	0.000537	5.372118	1.820123	-0.000215
1165	1.1582e+02	-6.3688	-26.069804	0.000355	3.547625	1.201968	-0.000142
1166	1.1592e+02	-6.4201	-26.207067	0.000345	3.446264	1.167626	-0.000138
1167	1.1602e+02	-6.4506	-26.368552	0.000405	4.054429	1.373678	-0.000162
1168	1.1612e+02	-6.4939	-26.526000	0.000395	3.953068	1.339336	-0.000158
1169	1.1622e+02	-6.5308	-26.671337	0.000365	3.648986	1.236310	-0.000146
1170	1.1632e+02	-6.5677	-26.873194	0.000507	5.068036	1.717097	-0.000203
1171	1.1642e+02	-6.6078	-26.978160	0.000264	2.635379	0.892890	-0.000105
1172	1.1651e+02	-6.6560	-27.139645	0.000405	4.054429	1.373678	-0.000162
1173	1.1661e+02	-6.6961	-27.284982	0.000365	3.648986	1.236310	-0.000146
1174	1.1671e+02	-6.7346	-27.442430	0.000395	3.953068	1.339336	-0.000158
1175	1.1681e+02	-6.7715	-27.628138	0.000466	4.662593	1.579729	-0.000187
1176	1.1691e+02	-6.8132	-27.725030	0.000243	2.432657	0.824207	-0.000097
1177	1.1701e+02	-6.8517	-27.902664	0.000446	4.459871	1.511045	-0.000179
1178	1.1711e+02	-6.8886	-28.035889	0.000334	3.344904	1.133284	-0.000134
1179	1.1721e+02	-6.9255	-28.185263	0.000375	3.750346	1.270652	-0.000150
1180	1.1731e+02	-6.9720	-28.379046	0.000487	4.865314	1.648413	-0.000195
1181	1.1741e+02	-7.0105	-28.500160	0.000304	3.040821	1.030258	-0.000122
1182	1.1751e+02	-7.0394	-28.649534	0.000375	3.750346	1.270652	-0.000150
1183	1.1761e+02	-7.0987	-28.811019	0.000405	4.054429	1.373678	-0.000162
1184	1.1771e+02	-7.1324	-28.972505	0.000405	4.054429	1.373678	-0.000162
1185	1.1781e+02	-7.1773	-29.113804	0.000355	3.547625	1.201968	-0.000142
1186	1.1791e+02	-7.2062	-29.271253	0.000395	3.953068	1.339336	-0.000158
1187	1.1801e+02	-7.2527	-29.428701	0.000395	3.953068	1.339336	-0.000158
1188	1.1811e+02	-7.2944	-29.561926	0.000334	3.344904	1.133284	-0.000134
1189	1.1821e+02	-7.3249	-29.707263	0.000365	3.648986	1.236310	-0.000146
1190	1.1831e+02	-7.3731	-29.880860	0.000436	4.358511	1.476703	-0.000174
1191	1.1841e+02	-7.4116	-30.026197	0.000365	3.648986	1.236310	-0.000146
1192	1.1850e+02	-7.4468	-30.143274	0.000294	2.939461	0.995916	-0.000118
1193	1.1860e+02	-7.4950	-30.308797	0.000416	4.155789	1.408020	-0.000166
1194	1.1870e+02	-7.5222	-30.429911	0.000304	3.040821	1.030258	-0.000122
1195	1.1880e+02	-7.5720	-30.595433	0.000416	4.155789	1.408020	-0.000166
1196	1.1890e+02	-7.6073	-30.764993	0.000426	4.257150	1.442361	-0.000170
1197	1.1900e+02	-7.6522	-30.914367	0.000375	3.750346	1.270652	-0.000150
1198	1.1910e+02	-7.6907	-31.011258	0.000243	2.432657	0.824207	-0.000097
1199	1.1920e+02	-7.7276	-31.164669	0.000385	3.851707	1.304994	-0.000154
1200	1.1930e+02	-7.7693	-31.310006	0.000365	3.648986	1.236310	-0.000146
1201	1.1940e+02	-7.8030	-31.483603	0.000436	4.358511	1.476703	-0.000174
1202	1.1950e+02	-7.8527	-31.576457	0.000233	2.331296	0.789865	-0.000093
1203	1.1960e+02	-7.8928	-31.778314	0.000507	5.068036	1.717097	-0.000203
1204	1.1970e+02	-7.9345	-31.867131	0.000223	2.229936	0.755523	-0.000089
1205	1.1980e+02	-7.9730	-32.040728	0.000436	4.358511	1.476703	-0.000174
1206	1.1990e+02	-8.0051	-32.165879	0.000314	3.142182	1.064600	-0.000126
1207	1.2000e+02	-8.0452	-32.323327	0.000395	3.953068	1.339336	-0.000158
1208	1.2010e+02	-8.0853	-32.472701	0.000375	3.750346	1.270652	-0.000150
1209	1.2020e+02	-8.1286	-32.569593	0.000243	2.432657	0.824207	-0.000097
1210	1.2030e+02	-8.1768	-32.755301	0.000466	4.662593	1.579729	-0.000187
1211	1.2039e+02	-8.2057	-32.900638	0.000365	3.648986	1.236310	-0.000146
1212	1.2049e+02	-8.2522	-33.037900	0.000345	3.446264	1.167626	-0.000138
1213	1.2059e+02	-8.2955	-33.154977	0.000294	2.939461	0.995916	-0.000118
1214	1.2069e+02	-8.3228	-33.312426	0.000395	3.953068	1.339336	-0.000158
1215	1.2079e+02	-8.3693	-33.433540	0.000304	3.040821	1.030258	-0.000122
1216	1.2089e+02	-8.4110	-33.574839	0.000355	3.547625	1.201968	-0.000142
1217	1.2099e+02	-8.4431	-33.732288	0.000395	3.953068	1.339336	-0.000158
1218	1.2109e+02	-8.4832	-33.857439	0.000314	3.142182	1.064600	-0.000126
1219	1.2119e+02	-8.5265	-33.982590	0.000314	3.142182	1.064600	-0.000126
1220	1.2129e+02	-8.5666	-34.156187	0.000436	4.358511	1.476703	-0.000174
1221	1.2139e+02	-8.6003	-34.301524	0.000365	3.648986	1.236310	-0.000146
1222	1.2149e+02	-8.6484	-34.390341	0.000223	2.229936	0.755523	-0.000089
1223	1.2159e+02	-8.6949	-34.535678	0.000365	3.648986	1.236310	-0.000146
1224	1.2169e+02	-8.7318	-34.685052	0.000375	3.750346	1.270652	-0.000150
1225	1.2179e+02	-8.7575	-34.834426	0.000375	3.750346	1.270652	-0.000150
1226	1.2189e+02	-8.7992	-34.987837	0.000385	3.851707	1.304994	-0.000154
1227	1.2199e+02	-8.8425	-35.121062	0.000334	3.344904	1.133284	-0.000134
1228	1.2209e+02	-8.8874	-35.278511	0.000395	3.953068	1.339336	-0.000158
1229	1.2219e+02	-8.9195	-35.439996	0.000405	4.054429	1.373678	-0.000162
1230	1.2229e+02	-8.9596	-35.536887	0.000243	2.432657	0.824207	-0.000097
1231	1.2239e+02	-9.0062	-35.658001	0.000304	3.040821	1.030258	-0.000122
1232	1.2248e+02	-9.0431	-35.799301	0.000355	3.547625	1.201968	-0.000142
1233	1.2258e+02	-9.0800	-35.972898	0.000436	4.358511	1.476703	-0.000174
1234	1.2268e+02	-9.1201	-36.106123	0.000334	3.344904	1.133284	-0.000134
1235	1.2278e+02	-9.1634	-36.223200	0.000294	2.939461	0.995916	-0.000118
1236	1.2288e+02	-9.2163	-36.328166	0.000264	2.635379	0.892890	-0.000105
1237	1.2298e+02	-9.2372	-36.493689	0.000416	4.155789	1.408020	-0.000166
1238	1.2308e+02	-9.2773	-36.622877	0.000324	3.243543	1.098942	-0.000130
1239	1.2318e+02	-9.3254	-36.792437	0.000426	4.257150	1.442361	-0.000170
1240	1.2328e+02	-9.3687	-36.913551	0.000304	3.040821	1.030258	-0.000122
1241	1.2338e+02	-9.3992	-37.062925	0.000375	3.750346	1.270652	-0.000150
1242	1.2348e+02	-9.4441	-37.184039	0.000304	3.040821	1.030258	-0.000122
1243	1.2358e+02	-9.4778	-37.297079	0.000284	2.838100	0.961574	-0.000114
1244	1.2368e+02	-9.5243	-37.474712	0.000446	4.459871	1.511045	-0.000179
1245	1.2378e+02	-9.5676	-37.575641	0.000253	2.534018	0.858548	-0.000101
1246	1.2388e+02	-9.5917	-37.741163	0.000416	4.155789	1.408020	-0.000166
1247	1.2398e+02	-9.6318	-37.870352	0.000324	3.243543	1.098942	-0.000130
1248	1.2408e+02	-9.6831	-37.971280	0.000253	2.534018	0.858548	-0.000101
1249	1.2418e+02	-9.7217	-38.100469	0.000324	3.243543	1.098942	-0.000130
1250	1.2428e+02	-9.7666	-38.241768	0.000355	3.547625	1.201968	-0.000142
1251	1.2438e+02	-9.7970	-38.427477	0.000466	4.662593	1.579729	-0.000187
1252	1.2447e+02	-9.8388	-38.524368	0.000243	2.432657	0.824207	-0.000097
1253	1.2457e+02	-9.8853	-38.681816	0.000395	3.953068	1.339336	-0.000158
1254	1.2467e+02	-9.9254	-38.790819	0.000274	2.736739	0.927232	-0.000110
1255	1.2477e+02	-9.9575	-38.940193	0.000375	3.750346	1.270652	-0.000150
1256	1.2487e+02	-10.0024	-39.016898	0.000193	1.925854	0.652497	-0.000077
1257	1.2497e+02	-10.0345	-39.194532	0.000446	4.459871	1.511045	-0.000179
1258	1.2507e+02	-10.0634	-39.368129	0.000436	4.358511	1.476703	-0.000174
1259	1.2517e+02	-10.1163	-39.465020	0.000243	2.432657	0.824207	-0.000097
1260	1.2527e+02	-10.1628	-39.582097	0.000294	2.939461	0.995916	-0.000118
1261	1.2537e+02	-10.2029	-39.735509	0.000385	3.851707	1.304994	-0.000154
1262	1.2547e+02	-10.2430	-39.876808	0.000355	3.547625	1.201968	-0.000142
1263	1.2557e+02	-10.2815	-39.981774	0.000264	2.635379	0.892890	-0.000105
1264	1.2567e+02	-10.3152	-40.082702	0.000253	2.534018	0.858548	-0.000101
1265	1.2577e+02	-10.3585	-40.203816	0.000304	3.040821	1.030258	-0.000122
1266	1.2587e+02	-10.4002	-40.373376	0.000426	4.257150	1.442361	-0.000170
1267	1.2597e+02	-10.4355	-40.490453	0.000294	2.939461	0.995916	-0.000118
1268	1.2607e+02	-10.4805	-40.611567	0.000304	3.040821	1.030258	-0.000122
1269	1.2617e+02	-10.5174	-40.777090	0.000416	4.155789	1.408020	-0.000166
1270	1.2627e+02	-10.5526	-40.902241	0.000314	3.142182	1.064600	-0.000126
1271	1.2636e+02	-10.5976	-41.031429	0.000324	3.243543	1.098942	-0.000130
1272	1.2646e+02	-10.6345	-41.213100	0.000456	4.561232	1.545387	-0.000183
1273	1.2656e+02	-10.6746	-41.253472	0.000101	1.013607	0.343419	-0.000041
1274	1.2666e+02	-10.7147	-41.414957	0.000405	4.054429	1.373678	-0.000162
1275	1.2676e+02	-10.7548	-41.560294	0.000365	3.648986	1.236310	-0.000146
1276	1.2686e+02	-10.8013	-41.693519	0.000334	3.344904	1.133284	-0.000134
1277	1.2696e+02	-10.8398	-41.806559	0.000284	2.838100	0.961574	-0.000114
1278	1.2706e+02	-10.8879	-41.927673	0.000304	3.040821	1.030258	-0.000122
1279	1.2716e+02	-10.9136	-42.085122	0.000395	3.953068	1.339336	-0.000158
1280	1.2726e+02	-10.9585	-42.234496	0.000375	3.750346	1.270652	-0.000150
1281	1.2736e+02	-10.9938	-42.359647	0.000314	3.142182	1.064600	-0.000126
1282	1.2746e+02	-11.0307	-42.488835	0.000324	3.243543	1.098942	-0.000130
1283	1.2756e+02	-11.0692	-42.613986	0.000314	3.142182	1.064600	-0.000126
1284	1.2766e+02	-11.1205	-42.743175	0.000324	3.243543	1.098942	-0.000130
1285	1.2776e+02	-11.1606	-42.888512	0.000365	3.648986	1.236310	-0.000146
1286	1.2786e+02	-11.1943	-43.021737	0.000334	3.344904	1.133284	-0.000134
1287	1.2796e+02	-11.2360	-43.130740	0.000274	2.736739	0.927232	-0.000110
1288	1.2806e+02	-11.2745	-43.296262	0.000416	4.155789	1.408020	-0.000166
1289	1.2816e+02	-11.3163	-43.417376	0.000304	3.040821	1.030258	-0.000122
1290	1.2826e+02	-11.3564	-43.498119	0.000203	2.027214	0.686839	-0.000081
1291	1.2835e+02	-11.3965	-43.663642	0.000416	4.155789	1.408020	-0.000166
1292	1.2845e+02	-11.4302	-43.800904	0.000345	3.446264	1.167626	-0.000138
1293	1.2855e+02	-11.4799	-43.893758	0.000233	2.331296	0.789865	-0.000093
1294	1.2865e+02	-11.5184	-44.043132	0.000375	3.750346	1.270652	-0.000150
1295	1.2875e+02	-11.5489	-44.168284	0.000314	3.142182	1.064600	-0.000126
1296	1.2885e+02	-11.5954	-44.313620	0.000365	3.648986	1.236310	-0.000146
1297	1.2895e+02	-11.6291	-44.454920	0.000355	3.547625	1.201968	-0.000142
1298	1.2905e+02	-11.6788	-44.588146	0.000334	3.344904	1.133284	-0.000134
1299	1.2915e+02	-11.7205	-44.713297	0.000314	3.142182	1.064600	-0.000126
1300	1.2925e+02	-11.7542	-44.814225	0.000253	2.534018	0.858548	-0.000101
1301	1.2935e+02	-11.7879	-44.939376	0.000314	3.142182	1.064600	-0.000126
1302	1.2945e+02	-11.8408	-45.108936	0.000426	4.257150	1.442361	-0.000170
1303	1.2955e+02	-11.8665	-45.226013	0.000294	2.939461	0.995916	-0.000118
1304	1.2965e+02	-11.9130	-45.310793	0.000213	2.128575	0.721181	-0.000085
1305	1.2975e+02	-11.9612	-45.504575	0.000487	4.865314	1.648413	-0.000195
1306	1.2985e+02	-11.9900	-45.597430	0.000233	2.331296	0.789865	-0.000093
1307	1.2995e+02	-12.0253	-45.771026	0.000436	4.358511	1.476703	-0.000174
1308	1.3005e+02	-12.0799	-45.867918	0.000243	2.432657	0.824207	-0.000097
1309	1.3015e+02	-12.1055	-45.968846	0.000253	2.534018	0.858548	-0.000101
1310	1.3025e+02	-12.1456	-46.089960	0.000304	3.040821	1.030258	-0.000122
1311	1.3034e+02	-12.1906	-46.231260	0.000355	3.547625	1.201968	-0.000142
1312	1.3044e+02	-12.2419	-46.364485	0.000334	3.344904	1.133284	-0.000134
1313	1.3054e+02	-12.2708	-46.461377	0.000243	2.432657	0.824207	-0.000097
1314	1.3064e+02	-12.3045	-46.626899	0.000416	4.155789	1.408020	-0.000166
1315	1.3074e+02	-12.3462	-46.707642	0.000203	2.027214	0.686839	-0.000081
1316	1.3084e+02	-12.3847	-46.869127	0.000405	4.054429	1.373678	-0.000162
1317	1.3094e+02	-12.4376	-46.994279	0.000314	3.142182	1.064600	-0.000126
1318	1.3104e+02	-12.4729	-47.147690	0.000385	3.851707	1.304994	-0.000154
1319	1.3114e+02	-12.5146	-47.236507	0.000223	2.229936	0.755523	-0.000089
1320	1.3124e+02	-12.5499	-47.361658	0.000314	3.142182	1.064600	-0.000126
1321	1.3134e+02	-12.5900	-47.498921	0.000345	3.446264	1.167626	-0.000138
1322	1.3144e+02	-12.6365	-47.644257	0.000365	3.648986	1.236310	-0.000146
1323	1.3154e+02	-12.6734	-47.749223	0.000264	2.635379	0.892890	-0.000105
1324	1.3164e+02	-12.7039	-47.886486	0.000345	3.446264	1.167626	-0.000138
1325	1.3174e+02	-12.7472	-47.979340	0.000233	2.331296	0.789865	-0.000093
1326	1.3184e+02	-12.8002	-48.148899	0.000426	4.257150	1.442361	-0.000170
1327	1.3194e+02	-12.8226	-48.225605	0.000193	1.925854	0.652497	-0.000077
1328	1.3204e+02	-12.8724	-48.358830	0.000334	3.344904	1.133284	-0.000134
1329	1.3214e+02	-12.9061	-48.492056	0.000334	3.344904	1.133284	-0.000134
1330	1.3224e+02	-12.9462	-48.625281	0.000334	3.344904	1.133284	-0.000134
1331	1.3234e+02	-12.9879	-48.710061	0.000213	2.128575	0.721181	-0.000085
1332	1.3243e+02	-13.0216	-48.883658	0.000436	4.358511	1.476703	-0.000174
1333	1.3253e+02	-13.0633	-48.960364	0.000193	1.925854	0.652497	-0.000077
1334	1.3263e+02	-13.1002	-49.077441	0.000294	2.939461	0.995916	-0.000118
1335	1.3273e+02	-13.1515	-49.210666	0.000334	3.344904	1.133284	-0.000134
1336	1.3283e+02	-13.1804	-49.331780	0.000304	3.040821	1.030258	-0.000122
1337	1.3293e+02	-13.2237	-49.469043	0.000345	3.446264	1.167626	-0.000138
1338	1.3303e+02	-13.2686	-49.565934	0.000243	2.432657	0.824207	-0.000097
1339	1.3313e+02	-13.3071	-49.735494	0.000426	4.257150	1.442361	-0.000170
1340	1.3323e+02	-13.3456	-49.832385	0.000243	2.432657	0.824207	-0.000097
1341	1.3333e+02	-13.3905	-49.973685	0.000355	3.547625	1.201968	-0.000142
1342	1.3343e+02	-13.4274	-50.106910	0.000334	3.344904	1.133284	-0.000134
1343	1.3353e+02	-13.4579	-50.195727	0.000223	2.229936	0.755523	-0.000089
1344	1.3363e+02	-13.5012	-50.332990	0.000345	3.446264	1.167626	-0.000138
1345	1.3373e+02	-13.5381	-50.450067	0.000294	2.939461	0.995916	-0.000118
1346	1.3383e+02	-13.5846	-50.563107	0.000284	2.838100	0.961574	-0.000114
1347	1.3393e+02	-13.6264	-50.704406	0.000355	3.547625	1.201968	-0.000142
1348	1.3403e+02	-13.6697	-50.825520	0.000304	3.040821	1.030258	-0.000122
1349	1.3413e+02	-13.7082	-50.938560	0.000284	2.838100	0.961574	-0.000114
1350	1.3423e+02	-13.7419	-51.075823	0.000345	3.446264	1.167626	-0.000138
1351	1.3432e+02	-13.7852	-51.188863	0.000284	2.838100	0.961574	-0.000114
1352	1.3442e+02	-13.8333	-51.277680	0.000223	2.229936	0.755523	-0.000089
1353	1.3452e+02	-13.8606	-51.447239	0.000426	4.257150	1.442361	-0.000170
1354	1.3462e+02	-13.9007	-51.576428	0.000324	3.243543	1.098942	-0.000130
1355	1.3472e+02	-13.9520	-51.689467	0.000284	2.838100	0.961574	-0.000114
1356	1.3482e+02	-13.9793	-51.806544	0.000294	2.939461	0.995916	-0.000118
1357	1.3492e+02	-14.0370	-51.887287	0.000203	2.027214	0.686839	-0.000081
1358	1.3502e+02	-14.0611	-52.068958	0.000456	4.561232	1.545387	-0.000183
1359	1.3512e+02	-14.1044	-52.157775	0.000223	2.229936	0.755523	-0.000089
1360	1.3522e+02	-14.1461	-52.282926	0.000314	3.142182	1.064600	-0.000126
1361	1.3532e+02	-14.1814	-52.395966	0.000284	2.838100	0.961574	-0.000114
1362	1.3542e+02	-14.2279	-52.517080	0.000304	3.040821	1.030258	-0.000122
1363	1.3552e+02	-14.2600	-52.650306	0.000334	3.344904	1.133284	-0.000134
1364	1.3562e+02	-14.3065	-52.783531	0.000334	3.344904	1.133284	-0.000134
1365	1.3572e+02	-14.3450	-52.831977	0.000122	1.216329	0.412103	-0.000049
1366	1.3582e+02	-14.3852	-52.997499	0.000416	4.155789	1.408020	-0.000166
1367	1.3592e+02	-14.4237	-53.126688	0.000324	3.243543	1.098942	-0.000130
1368	1.3602e+02	-14.4638	-53.223579	0.000243	2.432657	0.824207	-0.000097
1369	1.3612e+02	-14.5055	-53.368916	0.000365	3.648986	1.236310	-0.000146
1370	1.3622e+02	-14.5408	-53.485993	0.000294	2.939461	0.995916	-0.000118
1371	1.3631e+02	-14.5793	-53.590958	0.000264	2.635379	0.892890	-0.000105
1372	1.3641e+02	-14.6194	-53.732258	0.000355	3.547625	1.201968	-0.000142
1373	1.3651e+02	-14.6611	-53.804927	0.000182	1.824493	0.618155	-0.000073
1374	1.3661e+02	-14.7012	-53.946226	0.000355	3.547625	1.201968	-0.000142
1375	1.3671e+02	-14.7509	-54.031006	0.000213	2.128575	0.721181	-0.000085
1376	1.3681e+02	-14.7830	-54.196529	0.000416	4.155789	1.408020	-0.000166
1377	1.3691e+02	-14.8215	-54.313606	0.000294	2.939461	0.995916	-0.000118
1378	1.3701e+02	-14.8584	-54.418571	0.000264	2.635379	0.892890	-0.000105
1379	1.3711e+02	-14.9033	-54.507388	0.000223	2.229936	0.755523	-0.000089
1380	1.3721e+02	-14.9386	-54.664836	0.000395	3.953068	1.339336	-0.000158
1381	1.3731e+02	-14.9771	-54.745579	0.000203	2.027214	0.686839	-0.000081
1382	1.3741e+02	-15.0156	-54.870730	0.000314	3.142182	1.064600	-0.000126
1383	1.3751e+02	-15.0573	-54.991844	0.000304	3.040821	1.030258	-0.000122
1384	1.3761e+02	-15.0942	-55.104884	0.000284	2.838100	0.961574	-0.000114
1385	1.3771e+02	-15.1456	-55.209850	0.000264	2.635379	0.892890	-0.000105
1386	1.3781e+02	-15.1809	-55.359224	0.000375	3.750346	1.270652	-0.000150
1387	1.3791e+02	-15.2242	-55.431892	0.000182	1.824493	0.618155	-0.000073
1388	1.3801e+02	-15.2579	-55.557043	0.000314	3.142182	1.064600	-0.000126
1389	1.3811e+02	-15.2964	-55.714492	0.000395	3.953068	1.339336	-0.000158
1390	1.3821e+02	-15.3333	-55.843680	0.000324	3.243543	1.098942	-0.000130
1391	1.3831e+02	-15.3846	-55.932497	0.000223	2.229936	0.755523	-0.000089
1392	1.3840e+02	-15.4215	-56.045537	0.000284	2.838100	0.961574	-0.000114
1393	1.3850e+02	-15.4584	-56.126280	0.000203	2.027214	0.686839	-0.000081
1394	1.3860e+02	-15.4953	-56.271616	0.000365	3.648986	1.236310	-0.000146
1395	1.3870e+02	-15.5418	-56.392731	0.000304	3.040821	1.030258	-0.000122
1396	1.3880e+02	-15.5691	-56.509807	0.000294	2.939461	0.995916	-0.000118
1397	1.3890e+02	-15.6268	-56.651107	0.000355	3.547625	1.201968	-0.000142
1398	1.3900e+02	-15.6509	-56.792407	0.000355	3.547625	1.201968	-0.000142
1399	1.3910e+02	-15.7022	-56.885261	0.000233	2.331296	0.789865	-0.000093
1400	1.3920e+02	-15.7375	-57.002338	0.000294	2.939461	0.995916	-0.000118
1401	1.3930e+02	-15.7889	-57.119415	0.000294	2.939461	0.995916	-0.000118
1402	1.3940e+02	-15.8193	-57.212269	0.000233	2.331296	0.789865	-0.000093
1403	1.3950e+02	-15.8578	-57.329346	0.000294	2.939461	0.995916	-0.000118
1404	1.3960e+02	-15.8867	-57.462572	0.000334	3.344904	1.133284	-0.000134
1405	1.3970e+02	-15.9445	-57.579648	0.000294	2.939461	0.995916	-0.000118
1406	1.3980e+02	-15.9750	-57.704800	0.000314	3.142182	1.064600	-0.000126
1407	1.3990e+02	-16.0135	-57.838025	0.000334	3.344904	1.133284	-0.000134
1408	1.4000e+02	-16.0568	-57.918768	0.000203	2.027214	0.686839	-0.000081
1409	1.4010e+02	-16.0905	-58.076216	0.000395	3.953068	1.339336	-0.000158
1410	1.4020e+02	-16.1386	-58.169070	0.000233	2.331296	0.789865	-0.000093
1411	1.4029e+02	-16.1739	-58.257887	0.000223	2.229936	0.755523	-0.000089
1412	1.4039e+02	-16.2236	-58.403224	0.000365	3.648986	1.236310	-0.000146
1413	1.4049e+02	-16.2589	-58.548561	0.000365	3.648986	1.236310	-0.000146
1414	1.4059e+02	-16.2942	-58.633341	0.000213	2.128575	0.721181	-0.000085
1415	1.4069e+02	-16.3375	-58.774641	0.000355	3.547625	1.201968	-0.000142
1416	1.4079e+02	-16.3760	-58.887680	0.000284	2.838100	0.961574	-0.000114
1417	1.4089e+02	-16.4161	-59.000720	0.000284	2.838100	0.961574	-0.000114
1418	1.4099e+02	-16.4610	-59.093574	0.000233	2.331296	0.789865	-0.000093
1419	1.4109e+02	-16.4947	-59.255060	0.000405	4.054429	1.373678	-0.000162
1420	1.4119e+02	-16.5348	-59.347914	0.000233	2.331296	0.789865	-0.000093
1421	1.4129e+02	-16.5765	-59.501325	0.000385	3.851707	1.304994	-0.000154
1422	1.4139e+02	-16.6215	-59.590142	0.000223	2.229936	0.755523	-0.000089
1423	1.4149e+02	-16.6535	-59.682996	0.000233	2.331296	0.789865	-0.000093
1424	1.4159e+02	-16.6872	-59.824296	0.000355	3.547625	1.201968	-0.000142
1425	1.4169e+02	-16.7386	-59.937336	0.000284	2.838100	0.961574	-0.000114
1426	1.4179e+02	-16.7755	-60.066524	0.000324	3.243543	1.098942	-0.000130
1427	1.4189e+02	-16.8124	-60.215898	0.000375	3.750346	1.270652	-0.000150
1428	1.4199e+02	-16.8509	-60.304715	0.000223	2.229936	0.755523	-0.000089
1429	1.4209e+02	-16.8926	-60.405643	0.000253	2.534018	0.858548	-0.000101
1430	1.4219e+02	-16.9327	-60.555018	0.000375	3.750346	1.270652	-0.000150
1431	1.4228e+02	-16.9648	-60.611537	0.000142	1.419050	0.480787	-0.000057
1432	1.4238e+02	-17.0049	-60.793209	0.000456	4.561232	1.545387	-0.000183
1433	1.4248e+02	-17.0530	-60.910285	0.000294	2.939461	0.995916	-0.000118
1434	1.4258e+02	-17.0867	-61.019288	0.000274	2.736739	0.927232	-0.000110
1435	1.4268e+02	-17.1348	-61.140402	0.000304	3.040821	1.030258	-0.000122
1436	1.4278e+02	-17.1685	-61.233256	0.000233	2.331296	0.789865	-0.000093
1437	1.4288e+02	-17.2182	-61.358408	0.000314	3.142182	1.064600	-0.000126
1438	1.4298e+02	-17.2503	-61.515856	0.000395	3.953068	1.339336	-0.000158
1439	1.4308e+02	-17.2984	-61.649081	0.000334	3.344904	1.133284	-0.000134
1440	1.4318e+02	-17.3321	-61.766158	0.000294	2.939461	0.995916	-0.000118
1441	1.4328e+02	-17.3851	-61.875161	0.000274	2.736739	0.927232	-0.000110
1442	1.4338e+02	-17.4107	-61.943792	0.000172	1.723132	0.583813	-0.000069
1443	1.4348e+02	-17.4541	-62.097203	0.000385	3.851707	1.304994	-0.000154
1444	1.4358e+02	-17.4926	-62.198132	0.000253	2.534018	0.858548	-0.000101
1445	1.4368e+02	-17.5327	-62.371729	0.000436	4.358511	1.476703	-0.000174
1446	1.4378e+02	-17.5680	-62.444397	0.000182	1.824493	0.618155	-0.000073
1447	1.4388e+02	-17.6081	-62.609920	0.000416	4.155789	1.408020	-0.000166
1448	1.4398e+02	-17.6514	-62.747182	0.000345	3.446264	1.167626	-0.000138
1449	1.4408e+02	-17.6835	-62.864259	0.000294	2.939461	0.995916	-0.000118
1450	1.4418e+02	-17.7316	-62.957113	0.000233	2.331296	0.789865	-0.000093
1451	1.4428e+02	-17.7701	-63.098413	0.000355	3.547625	1.201968	-0.000142
1452	1.4437e+02	-17.8086	-63.223564	0.000314	3.142182	1.064600	-0.000126
1453	1.4447e+02	-17.8439	-63.308344	0.000213	2.128575	0.721181	-0.000085
1454	1.4457e+02	-17.9000	-63.453681	0.000365	3.648986	1.236310	-0.000146
1455	1.4467e+02	-17.9353	-63.574795	0.000304	3.040821	1.030258	-0.000122
1456	1.4477e+02	-17.9658	-63.744355	0.000426	4.257150	1.442361	-0.000170
1457	1.4487e+02	-18.0027	-63.833172	0.000223	2.229936	0.755523	-0.000089
1458	1.4497e+02	-18.0524	-64.002731	0.000426	4.257150	1.442361	-0.000170
1459	1.4507e+02	-18.0845	-64.111734	0.000274	2.736739	0.927232	-0.000110
1460	1.4517e+02	-18.1342	-64.232848	0.000304	3.040821	1.030258	-0.000122
1461	1.4527e+02	-18.1679	-64.374148	0.000355	3.547625	1.201968	-0.000142
1462	1.4537e+02	-18.2113	-64.438742	0.000162	1.621771	0.549471	-0.000065
1463	1.4547e+02	-18.2481	-64.636562	0.000497	4.966675	1.682755	-0.000199
1464	1.4557e+02	-18.2802	-64.777861	0.000355	3.547625	1.201968	-0.000142
1465	1.4567e+02	-18.3268	-64.850530	0.000182	1.824493	0.618155	-0.000073
1466	1.4577e+02	-18.3685	-65.012015	0.000405	4.054429	1.373678	-0.000162
1467	1.4587e+02	-18.4038	-65.100832	0.000223	2.229936	0.755523	-0.000089
1468	1.4597e+02	-18.4455	-65.270392	0.000426	4.257150	1.442361	-0.000170
1469	1.4607e+02	-18.4808	-65.395543	0.000314	3.142182	1.064600	-0.000126
1470	1.4617e+02	-18.5257	-65.500509	0.000264	2.635379	0.892890	-0.000105
1471	1.4626e+02	-18.5642	-65.637771	0.000345	3.446264	1.167626	-0.000138
1472	1.4636e+02	-18.6091	-65.766960	0.000324	3.243543	1.098942	-0.000130
1473	1.4646e+02	-18.6508	-65.880000	0.000284	2.838100	0.961574	-0.000114
1474	1.4656e+02	-18.6845	-66.017262	0.000345	3.446264	1.167626	-0.000138
1475	1.4666e+02	-18.7310	-66.138376	0.000304	3.040821	1.030258	-0.000122
1476	1.4676e+02	-18.7679	-66.239305	0.000253	2.534018	0.858548	-0.000101
1477	1.4686e+02	-18.8064	-66.404827	0.000416	4.155789	1.408020	-0.000166
1478	1.4696e+02	-18.8417	-66.558238	0.000385	3.851707	1.304994	-0.000154
1479	1.4706e+02	-18.8882	-66.687427	0.000324	3.243543	1.098942	-0.000130
1480	1.4716e+02	-18.9283	-66.808541	0.000304	3.040821	1.030258	-0.000122
1481	1.4726e+02	-18.9652	-66.905432	0.000243	2.432657	0.824207	-0.000097
1482	1.4736e+02	-19.0053	-67.050769	0.000365	3.648986	1.236310	-0.000146
1483	1.4746e+02	-19.0406	-67.204180	0.000385	3.851707	1.304994	-0.000154
1484	1.4756e+02	-19.0904	-67.329331	0.000314	3.142182	1.064600	-0.000126
1485	1.4766e+02	-19.1337	-67.434297	0.000264	2.635379	0.892890	-0.000105
1486	1.4776e+02	-19.1706	-67.575597	0.000355	3.547625	1.201968	-0.000142
1487	1.4786e+02	-19.2059	-67.692673	0.000294	2.939461	0.995916	-0.000118
1488	1.4796e+02	-19.2508	-67.858196	0.000416	4.155789	1.408020	-0.000166
1489	1.4806e+02	-19.2861	-68.007570	0.000375	3.750346	1.270652	-0.000150
1490	1.4816e+02	-19.3150	-68.080239	0.000182	1.824493	0.618155	-0.000073
1491	1.4825e+02	-19.3615	-68.205390	0.000314	3.142182	1.064600	-0.000126
1492	1.4835e+02	-19.4000	-68.358801	0.000385	3.851707	1.304994	-0.000154
1493	1.4845e+02	-19.4481	-68.504138	0.000365	3.648986	1.236310	-0.000146
1494	1.4855e+02	-19.4834	-68.649475	0.000365	3.648986	1.236310	-0.000146
1495	1.4865e+02	-19.5235	-68.790774	0.000355	3.547625	1.201968	-0.000142
1496	1.4875e+02	-19.5588	-68.924000	0.000334	3.344904	1.133284	-0.000134
1497	1.4885e+02	-19.6037	-69.028965	0.000264	2.635379	0.892890	-0.000105
1498	1.4895e+02	-19.6406	-69.162191	0.000334	3.344904	1.133284	-0.000134
1499	1.4905e+02	-19.6791	-69.315602	0.000385	3.851707	1.304994	-0.000154
1500	1.4915e+02	-19.7176	-69.444790	0.000324	3.243543	1.098942	-0.000130
1501	1.4925e+02	-19.7593	-69.594164	0.000375	3.750346	1.270652	-0.000150
1502	1.4935e+02	-19.8043	-69.707204	0.000284	2.838100	0.961574	-0.000114
1503	1.4945e+02	-19.8395	-69.892912	0.000466	4.662593	1.579729	-0.000187
1504	1.4955e+02	-19.8813	-69.985767	0.000233	2.331296	0.789865	-0.000093
1505	1.4965e+02	-19.9166	-70.163401	0.000446	4.459871	1.511045	-0.000179
1506	1.4975e+02	-19.9583	-70.276440	0.000284	2.838100	0.961574	-0.000114
1507	1.4985e+02	-19.9952	-70.429852	0.000385	3.851707	1.304994	-0.000154
1508	1.4995e+02	-19.9518	-70.405629	0.000061	0.608164	0.206052	0.000024
1509	1.5005e+02	-19.9230	-70.341035	0.000162	1.621771	0.549471	0.000065
1510	1.5015e+02	-19.8780	-70.264329	0.000193	1.925854	0.652497	0.000077
1511	1.5025e+02	-19.8444	-70.211846	0.000132	1.317689	0.446445	0.000053
1512	1.5034e+02	-19.7978	-70.207809	0.000010	0.101361	0.034342	0.000004
1513	1.5044e+02	-19.7609	-70.171475	0.000091	0.912246	0.309077	0.000037
1514	1.5054e+02	-19.7192	-70.078621	0.000233	2.331296	0.789865	0.000093
1515	1.5064e+02	-19.6759	-70.014027	0.000162	1.621771	0.549471	0.000065
1516	1.5074e+02	-19.6342	-69.945395	0.000172	1.723132	0.583813	0.000069
1517	1.5084e+02	-19.6021	-69.925210	0.000051	0.506804	0.171710	0.000020
1518	1.5094e+02	-19.5620	-69.868690	0.000142	1.419050	0.480787	0.000057
1519	1.5104e+02	-19.5251	-69.804095	0.000162	1.621771	0.549471	0.000065
1520	1.5114e+02	-19.4850	-69.739501	0.000162	1.621771	0.549471	0.000065
1521	1.5124e+02	-19.4385	-69.674907	0.000162	1.621771	0.549471	0.000065
1522	1.5134e+02	-19.4080	-69.614350	0.000152	1.520411	0.515129	0.000061
1523	1.5144e+02	-19.3615	-69.573979	0.000101	1.013607	0.343419	0.000041
1524	1.5154e+02	-19.3246	-69.485162	0.000223	2.229936	0.755523	0.000089
1525	1.5164e+02	-19.2909	-69.388270	0.000243	2.432657	0.824207	0.000097
1526	1.5174e+02	-19.2444	-69.360011	0.000071	0.709525	0.240394	0.000028
1527	1.5184e+02	-19.2027	-69.287342	0.000182	1.824493	0.618155	0.000073
1528	1.5194e+02	-19.1610	-69.174302	0.000284	2.838100	0.961574	0.000114
1529	1.5204e+02	-19.1176	-69.133931	0.000101	1.013607	0.343419	0.000041
1530	1.5214e+02	-19.0840	-69.069337	0.000162	1.621771	0.549471	0.000065
1531	1.5224e+02	-19.0438	-68.948223	0.000304	3.040821	1.030258	0.000122
1532	1.5233e+02	-19.0053	-68.919963	0.000071	0.709525	0.240394	0.000028
1533	1.5243e+02	-18.9717	-68.851331	0.000172	1.723132	0.583813	0.000069
1534	1.5253e+02	-18.9251	-68.774626	0.000193	1.925854	0.652497	0.000077
1535	1.5263e+02	-18.8834	-68.710032	0.000162	1.621771	0.549471	0.000065
1536	1.5273e+02	-18.8385	-68.629289	0.000203	2.027214	0.686839	0.000081
1537	1.5283e+02	-18.8016	-68.512212	0.000294	2.939461	0.995916	0.000118
1538	1.5293e+02	-18.7599	-68.467804	0.000111	1.114968	0.377761	0.000045
1539	1.5303e+02	-18.7246	-68.391098	0.000193	1.925854	0.652497	0.000077
1540	1.5313e+02	-18.6797	-68.346689	0.000111	1.114968	0.377761	0.000045
1541	1.5323e+02	-18.6492	-68.241724	0.000264	2.635379	0.892890	0.000105
1542	1.5333e+02	-18.6011	-68.128684	0.000284	2.838100	0.961574	0.000114
1543	1.5343e+02	-18.5674	-68.060053	0.000172	1.723132	0.583813	0.000069
1544	1.5353e+02	-18.5337	-67.979310	0.000203	2.027214	0.686839	0.000081
1545	1.5363e+02	-18.4856	-67.894530	0.000213	2.128575	0.721181	0.000085
1546	1.5373e+02	-18.4567	-67.813788	0.000203	2.027214	0.686839	0.000081
1547	1.5383e+02	-18.4118	-67.741119	0.000182	1.824493	0.618155	0.000073
1548	1.5393e+02	-18.3781	-67.620005	0.000304	3.040821	1.030258	0.000122
1549	1.5403e+02	-18.3219	-67.591745	0.000071	0.709525	0.240394	0.000028
1550	1.5413e+02	-18.2899	-67.502928	0.000223	2.229936	0.755523	0.000089
1551	1.5422e+02	-18.2465	-67.434297	0.000172	1.723132	0.583813	0.000069
1552	1.5432e+02	-18.2032	-67.276849	0.000395	3.953068	1.339336	0.000158
1553	1.5442e+02	-18.1631	-67.232440	0.000111	1.114968	0.377761	0.000045
1554	1.5452e+02	-18.1342	-67.135549	0.000243	2.432657	0.824207	0.000097
1555	1.5462e+02	-18.0813	-67.070955	0.000162	1.621771	0.549471	0.000065
1556	1.5472e+02	-18.0428	-66.986175	0.000213	2.128575	0.721181	0.000085
1557	1.5482e+02	-18.0123	-66.873135	0.000284	2.838100	0.961574	0.000114
1558	1.5492e+02	-17.9642	-66.772207	0.000253	2.534018	0.858548	0.000101
1559	1.5502e+02	-17.9257	-66.707612	0.000162	1.621771	0.549471	0.000065
1560	1.5512e+02	-17.8888	-66.626870	0.000203	2.027214	0.686839	0.000081
1561	1.5522e+02	-17.8503	-66.586498	0.000101	1.013607	0.343419	0.000041
1562	1.5532e+02	-17.8102	-66.481533	0.000264	2.635379	0.892890	0.000105
1563	1.5542e+02	-17.7589	-66.384642	0.000243	2.432657	0.824207	0.000097
1564	1.5552e+02	-17.7284	-66.295825	0.000223	2.229936	0.755523	0.000089
1565	1.5562e+02	-17.6867	-66.263527	0.000081	0.810886	0.274736	0.000032
1566	1.5572e+02	-17.6530	-66.158562	0.000264	2.635379	0.892890	0.000105
1567	1.5582e+02	-17.6145	-66.037448	0.000304	3.040821	1.030258	0.000122
1568	1.5592e+02	-17.5696	-65.940557	0.000243	2.432657	0.824207	0.000097
1569	1.5602e+02	-17.5359	-65.859814	0.000203	2.027214	0.686839	0.000081
1570	1.5612e+02	-17.4910	-65.799257	0.000152	1.520411	0.515129	0.000061
1571	1.5622e+02	-17.4589	-65.690254	0.000274	2.736739	0.927232	0.000110
1572	1.5631e+02	-17.4156	-65.573177	0.000294	2.939461	0.995916	0.000118
1573	1.5641e+02	-17.3706	-65.544917	0.000071	0.709525	0.240394	0.000028
1574	1.5651e+02	-17.3321	-65.395543	0.000375	3.750346	1.270652	0.000150
1575	1.5661e+02	-17.2888	-65.351135	0.000111	1.114968	0.377761	0.000045
1576	1.5671e+02	-17.2471	-65.254244	0.000243	2.432657	0.824207	0.000097
1577	1.5681e+02	-17.2182	-65.137167	0.000294	2.939461	0.995916	0.000118
1578	1.5691e+02	-17.1813	-65.068535	0.000172	1.723132	0.583813	0.000069
1579	1.5701e+02	-17.1316	-64.967607	0.000253	2.534018	0.858548	0.000101
1580	1.5711e+02	-17.0899	-64.919161	0.000122	1.216329	0.412103	0.000049
1581	1.5721e+02	-17.0450	-64.785936	0.000334	3.344904	1.133284	0.000134
1582	1.5731e+02	-17.0129	-64.701156	0.000213	2.128575	0.721181	0.000085
1583	1.5741e+02	-16.9792	-64.604265	0.000243	2.432657	0.824207	0.000097
1584	1.5751e+02	-16.9343	-64.515448	0.000223	2.229936	0.755523	0.000089
1585	1.5761e+02	-16.8813	-64.422594	0.000233	2.331296	0.789865	0.000093
1586	1.5771e+02	-16.8573	-64.317628	0.000264	2.635379	0.892890	0.000105
1587	1.5781e+02	-16.8140	-64.228811	0.000223	2.229936	0.755523	0.000089
1588	1.5791e+02	-16.7706	-64.131920	0.000243	2.432657	0.824207	0.000097
1589	1.5801e+02	-16.7386	-64.022917	0.000274	2.736739	0.927232	0.000110
1590	1.5811e+02	-16.6920	-63.994657	0.000071	0.709525	0.240394	0.000028
1591	1.5821e+02	-16.6503	-63.853357	0.000355	3.547625	1.201968	0.000142
1592	1.5830e+02	-16.6150	-63.760503	0.000233	2.331296	0.789865	0.000093
1593	1.5840e+02	-16.5797	-63.675723	0.000213	2.128575	0.721181	0.000085
1594	1.5850e+02	-16.5300	-63.607092	0.000172	1.723132	0.583813	0.000069
1595	1.5860e+02	-16.4851	-63.522312	0.000213	2.128575	0.721181	0.000085
1596	1.5870e+02	-16.4546	-63.397161	0.000314	3.142182	1.064600	0.000126
1597	1.5880e+02	-16.4145	-63.368901	0.000071	0.709525	0.240394	0.000028
1598	1.5890e+02	-16.3712	-63.231638	0.000345	3.446264	1.167626	0.000138
1599	1.5900e+02	-16.3311	-63.098413	0.000334	3.344904	1.133284	0.000134
1600	1.5910e+02	-16.2910	-63.045930	0.000132	1.317689	0.446445	0.000053
1601	1.5920e+02	-16.2509	-62.916742	0.000324	3.243543	1.098942	0.000130
1602	1.5930e+02	-16.2172	-62.835999	0.000203	2.027214	0.686839	0.000081
1603	1.5940e+02	-16.1755	-62.726997	0.000274	2.736739	0.927232	0.000110
1604	1.5950e+02	-16.1338	-62.646254	0.000203	2.027214	0.686839	0.000081
1605	1.5960e+02	-16.1065	-62.565511	0.000203	2.027214	0.686839	0.000081
1606	1.5970e+02	-16.0487	-62.484768	0.000203	2.027214	0.686839	0.000081
1607	1.5980e+02	-16.0102	-62.351543	0.000334	3.344904	1.133284	0.000134
1608	1.5990e+02	-15.9782	-62.266763	0.000213	2.128575	0.721181	0.000085
1609	1.6000e+02	-15.9413	-62.177946	0.000223	2.229936	0.755523	0.000089
1610	1.6010e+02	-15.8963	-62.097203	0.000203	2.027214	0.686839	0.000081
1611	1.6019e+02	-15.8514	-61.988201	0.000274	2.736739	0.927232	0.000110
1612	1.6029e+02	-15.8113	-61.879198	0.000274	2.736739	0.927232	0.000110
1613	1.6039e+02	-15.7760	-61.802492	0.000193	1.925854	0.652497	0.000077
1614	1.6049e+02	-15.7359	-61.713675	0.000223	2.229936	0.755523	0.000089
1615	1.6059e+02	-15.6910	-61.641007	0.000182	1.824493	0.618155	0.000073
1616	1.6069e+02	-15.6573	-61.515856	0.000314	3.142182	1.064600	0.000126
1617	1.6079e+02	-15.6236	-61.427039	0.000223	2.229936	0.755523	0.000089
1618	1.6089e+02	-15.5803	-61.305925	0.000304	3.040821	1.030258	0.000122
1619	1.6099e+02	-15.5434	-61.245368	0.000152	1.520411	0.515129	0.000061
1620	1.6109e+02	-15.5017	-61.168662	0.000193	1.925854	0.652497	0.000077
1621	1.6119e+02	-15.4616	-61.071771	0.000243	2.432657	0.824207	0.000097
1622	1.6129e+02	-15.4151	-60.970842	0.000253	2.534018	0.858548	0.000101
1623	1.6139e+02	-15.3750	-60.849728	0.000304	3.040821	1.030258	0.000122
1624	1.6149e+02	-15.3333	-60.748800	0.000253	2.534018	0.858548	0.000101
1625	1.6159e+02	-15.2948	-60.639797	0.000274	2.736739	0.927232	0.000110
1626	1.6169e+02	-15.2595	-60.595389	0.000111	1.114968	0.377761	0.000045
1627	1.6179e+02	-15.2226	-60.437941	0.000395	3.953068	1.339336	0.000158
1628	1.6189e+02	-15.1857	-60.373346	0.000162	1.621771	0.549471	0.000065
1629	1.6199e+02	-15.1440	-60.284529	0.000223	2.229936	0.755523	0.000089
1630	1.6209e+02	-15.1039	-60.199750	0.000213	2.128575	0.721181	0.000085
1631	1.6219e+02	-15.0605	-60.078635	0.000304	3.040821	1.030258	0.000122
1632	1.6228e+02	-15.0140	-60.018078	0.000152	1.520411	0.515129	0.000061
1633	1.6238e+02	-14.9771	-59.888890	0.000324	3.243543	1.098942	0.000130
1634	1.6248e+02	-14.9370	-59.804110	0.000213	2.128575	0.721181	0.000085
1635	1.6258e+02	-14.8985	-59.707219	0.000243	2.432657	0.824207	0.000097
1636	1.6268e+02	-14.8584	-59.594179	0.000284	2.838100	0.961574	0.000114
1637	1.6278e+02	-14.8215	-59.489214	0.000264	2.635379	0.892890	0.000105
1638	1.6288e+02	-14.7782	-59.420582	0.000172	1.723132	0.583813	0.000069
1639	1.6298e+02	-14.7381	-59.307543	0.000284	2.838100	0.961574	0.000114
1640	1.6308e+02	-14.7028	-59.202577	0.000264	2.635379	0.892890	0.000105
1641	1.6318e+02	-14.6627	-59.081463	0.000304	3.040821	1.030258	0.000122
1642	1.6328e+02	-14.6210	-59.069352	0.000030	0.304082	0.103026	0.000012
1643	1.6338e+02	-14.5841	-58.891718	0.000446	4.459871	1.511045	0.000179
1644	1.6348e+02	-14.5456	-58.798863	0.000233	2.331296	0.789865	0.000093
1645	1.6358e+02	-14.4991	-58.718121	0.000203	2.027214	0.686839	0.000081
1646	1.6368e+02	-14.4622	-58.613155	0.000264	2.635379	0.892890	0.000105
1647	1.6378e+02	-14.4269	-58.483967	0.000324	3.243543	1.098942	0.000130
1648	1.6388e+02	-14.3852	-58.415336	0.000172	1.723132	0.583813	0.000069
1649	1.6398e+02	-14.3402	-58.326519	0.000223	2.229936	0.755523	0.000089
1650	1.6408e+02	-14.3049	-58.213479	0.000284	2.838100	0.961574	0.000114
1651	1.6418e+02	-14.2520	-58.116588	0.000243	2.432657	0.824207	0.000097
1652	1.6427e+02	-14.2231	-57.999511	0.000294	2.939461	0.995916	0.000118
1653	1.6437e+02	-14.1846	-57.914731	0.000213	2.128575	0.721181	0.000085
1654	1.6447e+02	-14.1365	-57.821877	0.000233	2.331296	0.789865	0.000093
1655	1.6457e+02	-14.1092	-57.704800	0.000294	2.939461	0.995916	0.000118
1656	1.6467e+02	-14.0611	-57.603871	0.000253	2.534018	0.858548	0.000101
1657	1.6477e+02	-14.0354	-57.450460	0.000385	3.851707	1.304994	0.000154
1658	1.6487e+02	-13.9809	-57.369717	0.000203	2.027214	0.686839	0.000081
1659	1.6497e+02	-13.9568	-57.309160	0.000152	1.520411	0.515129	0.000061
1660	1.6507e+02	-13.9087	-57.175935	0.000334	3.344904	1.133284	0.000134
1661	1.6517e+02	-13.8718	-57.079044	0.000243	2.432657	0.824207	0.000097
1662	1.6527e+02	-13.8237	-56.994264	0.000213	2.128575	0.721181	0.000085
1663	1.6537e+02	-13.7836	-56.889298	0.000264	2.635379	0.892890	0.000105
1664	1.6547e+02	-13.7499	-56.800481	0.000223	2.229936	0.755523	0.000089
1665	1.6557e+02	-13.7050	-56.683404	0.000294	2.939461	0.995916	0.000118
1666	1.6567e+02	-13.6681	-56.562290	0.000304	3.040821	1.030258	0.000122
1667	1.6577e+02	-13.6215	-56.453288	0.000274	2.736739	0.927232	0.000110
1668	1.6587e+02	-13.5782	-56.388693	0.000162	1.621771	0.549471	0.000065
1669	1.6597e+02	-13.5558	-56.263542	0.000314	3.142182	1.064600	0.000126
1670	1.6607e+02	-13.5060	-56.134354	0.000324	3.243543	1.098942	0.000130
1671	1.6616e+02	-13.4643	-56.049574	0.000213	2.128575	0.721181	0.000085
1672	1.6626e+02	-13.4274	-55.940571	0.000274	2.736739	0.927232	0.000110
1673	1.6636e+02	-13.3793	-55.871940	0.000172	1.723132	0.583813	0.000069
1674	1.6646e+02	-13.3360	-55.754863	0.000294	2.939461	0.995916	0.000118
1675	1.6656e+02	-13.3071	-55.637786	0.000294	2.939461	0.995916	0.000118
1676	1.6666e+02	-13.2670	-55.508598	0.000324	3.243543	1.098942	0.000130
1677	1.6676e+02	-13.2205	-55.391521	0.000294	2.939461	0.995916	0.000118
1678	1.6686e+02	-13.1820	-55.347112	0.000111	1.114968	0.377761	0.000045
1679	1.6696e+02	-13.1483	-55.225998	0.000304	3.040821	1.030258	0.000122
1680	1.6706e+02	-13.1050	-55.125070	0.000253	2.534018	0.858548	0.000101
1681	1.6716e+02	-13.0665	-54.983770	0.000355	3.547625	1.201968	0.000142
1682	1.6726e+02	-13.0344	-54.903027	0.000203	2.027214	0.686839	0.000081
1683	1.6736e+02	-12.9895	-54.822285	0.000203	2.027214	0.686839	0.000081
1684	1.6746e+02	-12.9558	-54.693096	0.000324	3.243543	1.098942	0.000130
1685	1.6756e+02	-12.9044	-54.563908	0.000324	3.243543	1.098942	0.000130
1686	1.6766e+02	-12.8643	-54.483165	0.000203	2.027214	0.686839	0.000081
1687	1.6776e+02	-12.8290	-54.434720	0.000122	1.216329	0.412103	0.000049
1688	1.6786e+02	-12.7922	-54.249011	0.000466	4.662593	1.579729	0.000187
1689	1.6796e+02	-12.7424	-54.176343	0.000182	1.824493	0.618155	0.000073
1690	1.6806e+02	-12.7168	-54.059266	0.000294	2.939461	0.995916	0.000118
1691	1.6816e+02	-12.6702	-53.966412	0.000233	2.331296	0.789865	0.000093
1692	1.6825e+02	-12.6237	-53.861446	0.000264	2.635379	0.892890	0.000105
1693	1.6835e+02	-12.5916	-53.728221	0.000334	3.344904	1.133284	0.000134
1694	1.6845e+02	-12.5403	-53.647478	0.000203	2.027214	0.686839	0.000081
1695	1.6855e+02	-12.5114	-53.506179	0.000355	3.547625	1.201968	0.000142
1696	1.6865e+02	-12.4745	-53.457733	0.000122	1.216329	0.412103	0.000049
1697	1.6875e+02	-12.4360	-53.332582	0.000314	3.142182	1.064600	0.000126
1698	1.6885e+02	-12.3879	-53.163022	0.000426	4.257150	1.442361	0.000170
1699	1.6895e+02	-12.3446	-53.062094	0.000253	2.534018	0.858548	0.000101
1700	1.6905e+02	-12.3109	-52.985388	0.000193	1.925854	0.652497	0.000077
1701	1.6915e+02	-12.2708	-52.844088	0.000355	3.547625	1.201968	0.000142
1702	1.6925e+02	-12.2275	-52.731048	0.000284	2.838100	0.961574	0.000114
1703	1.6935e+02	-12.1874	-52.605897	0.000314	3.142182	1.064600	0.000126
1704	1.6945e+02	-12.1585	-52.484783	0.000304	3.040821	1.030258	0.000122
1705	1.6955e+02	-12.1104	-52.383855	0.000253	2.534018	0.858548	0.000101
1706	1.6965e+02	-12.0735	-52.303112	0.000203	2.027214	0.686839	0.000081
1707	1.6975e+02	-12.0301	-52.169887	0.000334	3.344904	1.133284	0.000134
1708	1.6985e+02	-11.9884	-52.089144	0.000203	2.027214	0.686839	0.000081
1709	1.6995e+02	-11.9563	-51.963993	0.000314	3.142182	1.064600	0.000126
1710	1.7005e+02	-11.9211	-51.830767	0.000334	3.344904	1.133284	0.000134
1711	1.7015e+02	-11.8713	-51.745987	0.000213	2.128575	0.721181	0.000085
1712	1.7024e+02	-11.8312	-51.560279	0.000466	4.662593	1.579729	0.000187
1713	1.7034e+02	-11.7975	-51.503759	0.000142	1.419050	0.480787	0.000057
1714	1.7044e+02	-11.7526	-51.386682	0.000294	2.939461	0.995916	0.000118
1715	1.7054e+02	-11.7061	-51.253457	0.000334	3.344904	1.133284	0.000134
1716	1.7064e+02	-11.6724	-51.116194	0.000345	3.446264	1.167626	0.000138
1717	1.7074e+02	-11.6339	-51.027377	0.000223	2.229936	0.755523	0.000089
1718	1.7084e+02	-11.5906	-50.890115	0.000345	3.446264	1.167626	0.000138
1719	1.7094e+02	-11.5537	-50.801298	0.000223	2.229936	0.755523	0.000089
1720	1.7104e+02	-11.5072	-50.655961	0.000365	3.648986	1.236310	0.000146
1721	1.7114e+02	-11.4751	-50.575218	0.000203	2.027214	0.686839	0.000081
1722	1.7124e+02	-11.4286	-50.458141	0.000294	2.939461	0.995916	0.000118
1723	1.7134e+02	-11.3901	-50.312804	0.000365	3.648986	1.236310	0.000146
1724	1.7144e+02	-11.3532	-50.223987	0.000223	2.229936	0.755523	0.000089
1725	1.7154e+02	-11.3179	-50.094799	0.000324	3.243543	1.098942	0.000130
1726	1.7164e+02	-11.2697	-49.981759	0.000284	2.838100	0.961574	0.000114
1727	1.7174e+02	-11.2473	-49.888905	0.000233	2.331296	0.789865	0.000093
1728	1.7184e+02	-11.1991	-49.755679	0.000334	3.344904	1.133284	0.000134
1729	1.7194e+02	-11.1606	-49.634565	0.000304	3.040821	1.030258	0.000122
1730	1.7204e+02	-11.1125	-49.574008	0.000152	1.520411	0.515129	0.000061
1731	1.7213e+02	-11.0756	-49.400411	0.000436	4.358511	1.476703	0.000174
1732	1.7223e+02	-11.0371	-49.299483	0.000253	2.534018	0.858548	0.000101
1733	1.7233e+02	-10.9986	-49.178369	0.000304	3.040821	1.030258	0.000122
1734	1.7243e+02	-10.9553	-49.057255	0.000304	3.040821	1.030258	0.000122
1735	1.7253e+02	-10.9088	-48.972475	0.000213	2.128575	0.721181	0.000085
1736	1.7263e+02	-10.8783	-48.839250	0.000334	3.344904	1.133284	0.000134
1737	1.7273e+02	-10.8334	-48.750433	0.000223	2.229936	0.755523	0.000089
1738	1.7283e+02	-10.7901	-48.584910	0.000416	4.155789	1.408020	0.000166
1739	1.7293e+02	-10.7564	-48.455722	0.000324	3.243543	1.098942	0.000130
1740	1.7303e+02	-10.7259	-48.383053	0.000182	1.824493	0.618155	0.000073
1741	1.7313e+02	-10.6794	-48.241754	0.000355	3.547625	1.201968	0.000142
1742	1.7323e+02	-10.6393	-48.132751	0.000274	2.736739	0.927232	0.000110
1743	1.7333e+02	-10.5960	-48.011637	0.000304	3.040821	1.030258	0.000122
1744	1.7343e+02	-10.5510	-47.882448	0.000324	3.243543	1.098942	0.000130
1745	1.7353e+02	-10.5190	-47.781520	0.000253	2.534018	0.858548	0.000101
1746	1.7363e+02	-10.4692	-47.660406	0.000304	3.040821	1.030258	0.000122
1747	1.7373e+02	-10.4420	-47.547366	0.000284	2.838100	0.961574	0.000114
1748	1.7383e+02	-10.3970	-47.410104	0.000345	3.446264	1.167626	0.000138
1749	1.7393e+02	-10.3569	-47.309175	0.000253	2.534018	0.858548	0.000101
1750	1.7403e+02	-10.3184	-47.192098	0.000294	2.939461	0.995916	0.000118
1751	1.7413e+02	-10.2783	-47.075021	0.000294	2.939461	0.995916	0.000118
1752	1.7422e+02	-10.2462	-46.937759	0.000345	3.446264	1.167626	0.000138
1753	1.7432e+02	-10.1917	-46.844905	0.000233	2.331296	0.789865	0.000093
1754	1.7442e+02	-10.1548	-46.723790	0.000304	3.040821	1.030258	0.000122
1755	1.7452e+02	-10.1131	-46.582491	0.000355	3.547625	1.201968	0.000142
1756	1.7462e+02	-10.0906	-46.465414	0.000294	2.939461	0.995916	0.000118
1757	1.7472e+02	-10.0377	-46.324114	0.000355	3.547625	1.201968	0.000142
1758	1.7482e+02	-9.9992	-46.211074	0.000284	2.838100	0.961574	0.000114
1759	1.7492e+02	-9.9623	-46.093997	0.000294	2.939461	0.995916	0.000118
1760	1.7502e+02	-9.9190	-45.984995	0.000274	2.736739	0.927232	0.000110
1761	1.7512e+02	-9.8805	-45.884066	0.000253	2.534018	0.858548	0.000101
1762	1.7522e+02	-9.8388	-45.718544	0.000416	4.155789	1.408020	0.000166
1763	1.7532e+02	-9.8067	-45.597430	0.000304	3.040821	1.030258	0.000122
1764	1.7542e+02	-9.7602	-45.480353	0.000294	2.939461	0.995916	0.000118
1765	1.7552e+02	-9.7136	-45.371350	0.000274	2.736739	0.927232	0.000110
1766	1.7562e+02	-9.6815	-45.185642	0.000466	4.662593	1.579729	0.000187
1767	1.7572e+02	-9.6366	-45.117010	0.000172	1.723132	0.583813	0.000069
1768	1.7582e+02	-9.5965	-44.991859	0.000314	3.142182	1.064600	0.000126
1769	1.7592e+02	-9.5628	-44.911117	0.000203	2.027214	0.686839	0.000081
1770	1.7602e+02	-9.5243	-44.737520	0.000436	4.358511	1.476703	0.000174
1771	1.7612e+02	-9.4810	-44.604294	0.000334	3.344904	1.133284	0.000134
1772	1.7621e+02	-9.4329	-44.503366	0.000253	2.534018	0.858548	0.000101
1773	1.7631e+02	-9.3992	-44.374177	0.000324	3.243543	1.098942	0.000130
1774	1.7641e+02	-9.3607	-44.277286	0.000243	2.432657	0.824207	0.000097
1775	1.7651e+02	-9.3334	-44.156172	0.000304	3.040821	1.030258	0.000122
1776	1.7661e+02	-9.2853	-44.035058	0.000304	3.040821	1.030258	0.000122
1777	1.7671e+02	-9.2388	-43.869535	0.000416	4.155789	1.408020	0.000166
1778	1.7681e+02	-9.2019	-43.796867	0.000182	1.824493	0.618155	0.000073
1779	1.7691e+02	-9.1698	-43.631344	0.000416	4.155789	1.408020	0.000166
1780	1.7701e+02	-9.1281	-43.534453	0.000243	2.432657	0.824207	0.000097
1781	1.7711e+02	-9.0832	-43.425451	0.000274	2.736739	0.927232	0.000110
1782	1.7721e+02	-9.0511	-43.268002	0.000395	3.953068	1.339336	0.000158
1783	1.7731e+02	-9.0030	-43.154962	0.000284	2.838100	0.961574	0.000114
1784	1.7741e+02	-8.9661	-42.989440	0.000416	4.155789	1.408020	0.000166
1785	1.7751e+02	-8.9372	-42.836029	0.000385	3.851707	1.304994	0.000154
1786	1.7761e+02	-8.8874	-42.767397	0.000172	1.723132	0.583813	0.000069
1787	1.7771e+02	-8.8506	-42.597838	0.000426	4.257150	1.442361	0.000170
1788	1.7781e+02	-8.8088	-42.565541	0.000081	0.810886	0.274736	0.000032
1789	1.7791e+02	-8.7703	-42.408092	0.000395	3.953068	1.339336	0.000158
1790	1.7801e+02	-8.7222	-42.250644	0.000395	3.953068	1.339336	0.000158
1791	1.7810e+02	-8.6757	-42.121456	0.000324	3.243543	1.098942	0.000130
1792	1.7820e+02	-8.6500	-42.020527	0.000253	2.534018	0.858548	0.000101
1793	1.7830e+02	-8.6067	-41.875190	0.000365	3.648986	1.236310	0.000146
1794	1.7840e+02	-8.5650	-41.774262	0.000253	2.534018	0.858548	0.000101
1795	1.7850e+02	-8.5281	-41.620851	0.000385	3.851707	1.304994	0.000154
1796	1.7860e+02	-8.4992	-41.479551	0.000355	3.547625	1.201968	0.000142
1797	1.7870e+02	-8.4479	-41.366511	0.000284	2.838100	0.961574	0.000114
1798	1.7880e+02	-8.4030	-41.233286	0.000334	3.344904	1.133284	0.000134
1799	1.7890e+02	-8.3693	-41.156580	0.000193	1.925854	0.652497	0.000077
1800	1.7900e+02	-8.3276	-41.023355	0.000334	3.344904	1.133284	0.000134
1801	1.7910e+02	-8.2827	-40.910315	0.000284	2.838100	0.961574	0.000114
1802	1.7920e+02	-8.2506	-40.781127	0.000324	3.243543	1.098942	0.000130
1803	1.7930e+02	-8.2073	-40.635790	0.000365	3.648986	1.236310	0.000146
1804	1.7940e+02	-8.1720	-40.486416	0.000375	3.750346	1.270652	0.000150
1805	1.7950e+02	-8.1319	-40.353190	0.000334	3.344904	1.133284	0.000134
1806	1.7960e+02	-8.0821	-40.248225	0.000264	2.635379	0.892890	0.000105
1807	1.7970e+02	-8.0500	-40.094814	0.000385	3.851707	1.304994	0.000154
1808	1.7980e+02	-8.0051	-40.014071	0.000203	2.027214	0.686839	0.000081
1809	1.7990e+02	-7.9666	-39.836437	0.000446	4.459871	1.511045	0.000179
1810	1.8000e+02	-7.9281	-39.735509	0.000253	2.534018	0.858548	0.000101
1811	1.8009e+02	-7.8832	-39.610357	0.000314	3.142182	1.064600	0.000126
1812	1.8019e+02	-7.8479	-39.460983	0.000375	3.750346	1.270652	0.000150
1813	1.8029e+02	-7.8078	-39.307572	0.000385	3.851707	1.304994	0.000154
1814	1.8039e+02	-7.7613	-39.206644	0.000253	2.534018	0.858548	0.000101
1815	1.8049e+02	-7.7276	-39.061307	0.000365	3.648986	1.236310	0.000146
1816	1.8059e+02	-7.6859	-38.972490	0.000223	2.229936	0.755523	0.000089
1817	1.8069e+02	-7.6538	-38.827153	0.000365	3.648986	1.236310	0.000146
1818	1.8079e+02	-7.6041	-38.677779	0.000375	3.750346	1.270652	0.000150
1819	1.8089e+02	-7.5656	-38.556665	0.000304	3.040821	1.030258	0.000122
1820	1.8099e+02	-7.5319	-38.431514	0.000314	3.142182	1.064600	0.000126
1821	1.8109e+02	-7.4805	-38.274065	0.000395	3.953068	1.339336	0.000158
1822	1.8119e+02	-7.4485	-38.156988	0.000294	2.939461	0.995916	0.000118
1823	1.8129e+02	-7.4164	-38.031837	0.000314	3.142182	1.064600	0.000126
1824	1.8139e+02	-7.3666	-37.882463	0.000375	3.750346	1.270652	0.000150
1825	1.8149e+02	-7.3281	-37.761349	0.000304	3.040821	1.030258	0.000122
1826	1.8159e+02	-7.2912	-37.616012	0.000365	3.648986	1.236310	0.000146
1827	1.8169e+02	-7.2543	-37.478750	0.000345	3.446264	1.167626	0.000138
1828	1.8179e+02	-7.2110	-37.313227	0.000416	4.155789	1.408020	0.000166
1829	1.8189e+02	-7.1741	-37.200187	0.000284	2.838100	0.961574	0.000114
1830	1.8199e+02	-7.1308	-37.014479	0.000466	4.662593	1.579729	0.000187
1831	1.8209e+02	-7.0907	-36.933736	0.000203	2.027214	0.686839	0.000081
1832	1.8218e+02	-7.0538	-36.804548	0.000324	3.243543	1.098942	0.000130
1833	1.8228e+02	-7.0073	-36.679397	0.000314	3.142182	1.064600	0.000126
1834	1.8238e+02	-6.9768	-36.521948	0.000395	3.953068	1.339336	0.000158
1835	1.8248e+02	-6.9303	-36.364500	0.000395	3.953068	1.339336	0.000158
1836	1.8258e+02	-6.8886	-36.211089	0.000385	3.851707	1.304994	0.000154
1837	1.8268e+02	-6.8501	-36.126309	0.000213	2.128575	0.721181	0.000085
1838	1.8278e+02	-6.8100	-35.968861	0.000395	3.953068	1.339336	0.000158
1839	1.8288e+02	-6.7747	-35.847747	0.000304	3.040821	1.030258	0.000122
1840	1.8298e+02	-6.7330	-35.690298	0.000395	3.953068	1.339336	0.000158
1841	1.8308e+02	-6.7009	-35.565147	0.000314	3.142182	1.064600	0.000126
1842	1.8318e+02	-6.6511	-35.448070	0.000294	2.939461	0.995916	0.000118
1843	1.8328e+02	-6.6126	-35.282548	0.000416	4.155789	1.408020	0.000166
1844	1.8338e+02	-6.5758	-35.161434	0.000304	3.040821	1.030258	0.000122
1845	1.8348e+02	-6.5437	-34.975725	0.000466	4.662593	1.579729	0.000187
1846	1.8358e+02	-6.4907	-34.862686	0.000284	2.838100	0.961574	0.000114
1847	1.8368e+02	-6.4538	-34.757720	0.000264	2.635379	0.892890	0.000105
1848	1.8378e+02	-6.4185	-34.612383	0.000365	3.648986	1.236310	0.000146
1849	1.8388e+02	-6.3800	-34.467046	0.000365	3.648986	1.236310	0.000146
1850	1.8398e+02	-6.3319	-34.337858	0.000324	3.243543	1.098942	0.000130
1851	1.8407e+02	-6.3062	-34.220781	0.000294	2.939461	0.995916	0.000118
1852	1.8417e+02	-6.2565	-34.026999	0.000487	4.865314	1.648413	0.000195
1853	1.8427e+02	-6.2180	-33.922033	0.000264	2.635379	0.892890	0.000105
1854	1.8437e+02	-6.1859	-33.748436	0.000436	4.358511	1.476703	0.000174
1855	1.8447e+02	-6.1362	-33.643471	0.000264	2.635379	0.892890	0.000105
1856	1.8457e+02	-6.0977	-33.498134	0.000365	3.648986	1.236310	0.000146
1857	1.8467e+02	-6.0528	-33.352797	0.000365	3.648986	1.236310	0.000146
1858	1.8477e+02	-6.0239	-33.183237	0.000426	4.257150	1.442361	0.000170
1859	1.8487e+02	-5.9790	-33.037900	0.000365	3.648986	1.236310	0.000146
1860	1.8497e+02	-5.9341	-32.932935	0.000264	2.635379	0.892890	0.000105
1861	1.8507e+02	-5.8972	-32.795672	0.000345	3.446264	1.167626	0.000138
1862	1.8517e+02	-5.8603	-32.577667	0.000547	5.473479	1.854465	0.000219
1863	1.8527e+02	-5.8282	-32.468664	0.000274	2.736739	0.927232	0.000110
1864	1.8537e+02	-5.7833	-32.315253	0.000385	3.851707	1.304994	0.000154
1865	1.8547e+02	-5.7335	-32.173953	0.000355	3.547625	1.201968	0.000142
1866	1.8557e+02	-5.6966	-32.024579	0.000375	3.750346	1.270652	0.000150
1867	1.8567e+02	-5.6629	-31.879242	0.000365	3.648986	1.236310	0.000146
1868	1.8577e+02	-5.6148	-31.705646	0.000436	4.358511	1.476703	0.000174
1869	1.8587e+02	-5.5715	-31.604717	0.000253	2.534018	0.858548	0.000101
1870	1.8597e+02	-5.5362	-31.427083	0.000446	4.459871	1.511045	0.000179
1871	1.8606e+02	-5.5041	-31.269635	0.000395	3.953068	1.339336	0.000158
1872	1.8616e+02	-5.4592	-31.120261	0.000375	3.750346	1.270652	0.000150
1873	1.8626e+02	-5.4287	-30.995110	0.000314	3.142182	1.064600	0.000126
1874	1.8636e+02	-5.3854	-30.833624	0.000405	4.054429	1.373678	0.000162
1875	1.8646e+02	-5.3453	-30.704436	0.000324	3.243543	1.098942	0.000130
1876	1.8656e+02	-5.2972	-30.534876	0.000426	4.257150	1.442361	0.000170
1877	1.8666e+02	-5.2507	-30.409725	0.000314	3.142182	1.064600	0.000126
1878	1.8676e+02	-5.2234	-30.224017	0.000466	4.662593	1.579729	0.000187
1879	1.8686e+02	-5.1801	-30.110977	0.000284	2.838100	0.961574	0.000114
1880	1.8696e+02	-5.1384	-29.925269	0.000466	4.662593	1.579729	0.000187
1881	1.8706e+02	-5.0950	-29.771858	0.000385	3.851707	1.304994	0.000154
1882	1.8716e+02	-5.0614	-29.654781	0.000294	2.939461	0.995916	0.000118
1883	1.8726e+02	-5.0148	-29.493295	0.000405	4.054429	1.373678	0.000162
1884	1.8736e+02	-4.9763	-29.303550	0.000476	4.763954	1.614071	0.000191
1885	1.8746e+02	-4.9426	-29.138027	0.000416	4.155789	1.408020	0.000166
1886	1.8756e+02	-4.9073	-29.000765	0.000345	3.446264	1.167626	0.000138
1887	1.8766e+02	-4.8608	-28.847353	0.000385	3.851707	1.304994	0.000154
1888	1.8776e+02	-4.8287	-28.693942	0.000385	3.851707	1.304994	0.000154
1889	1.8786e+02	-4.7806	-28.560717	0.000334	3.344904	1.133284	0.000134
1890	1.8796e+02	-4.7421	-28.383083	0.000446	4.459871	1.511045	0.000179
1891	1.8806e+02	-4.7068	-28.197375	0.000466	4.662593	1.579729	0.000187
1892	1.8815e+02	-4.6667	-28.076260	0.000304	3.040821	1.030258	0.000122
1893	1.8825e+02	-4.6170	-27.926886	0.000375	3.750346	1.270652	0.000150
1894	1.8835e+02	-4.5817	-27.757327	0.000426	4.257150	1.442361	0.000170
1895	1.8845e+02	-4.5464	-27.607953	0.000375	3.750346	1.270652	0.000150
1896	1.8855e+02	-4.5047	-27.450504	0.000395	3.953068	1.339336	0.000158
1897	1.8865e+02	-4.4614	-27.293056	0.000395	3.953068	1.339336	0.000158
1898	1.8875e+02	-4.4213	-27.127534	0.000416	4.155789	1.408020	0.000166
1899	1.8885e+02	-4.3892	-26.945862	0.000456	4.561232	1.545387	0.000183
1900	1.8895e+02	-4.3507	-26.828786	0.000294	2.939461	0.995916	0.000118
1901	1.8905e+02	-4.3154	-26.691523	0.000345	3.446264	1.167626	0.000138
1902	1.8915e+02	-4.2689	-26.509852	0.000456	4.561232	1.545387	0.000183
1903	1.8925e+02	-4.2175	-26.364515	0.000365	3.648986	1.236310	0.000146
1904	1.8935e+02	-4.1790	-26.194955	0.000426	4.257150	1.442361	0.000170
1905	1.8945e+02	-4.1421	-26.021358	0.000436	4.358511	1.476703	0.000174
1906	1.8955e+02	-4.1068	-25.880059	0.000355	3.547625	1.201968	0.000142
1907	1.8965e+02	-4.0683	-25.714536	0.000416	4.155789	1.408020	0.000166
1908	1.8975e+02	-4.0379	-25.561125	0.000385	3.851707	1.304994	0.000154
1909	1.8985e+02	-3.9833	-25.399639	0.000405	4.054429	1.373678	0.000162
1910	1.8995e+02	-3.9464	-25.242191	0.000395	3.953068	1.339336	0.000158
1911	1.9004e+02	-3.9015	-25.052446	0.000476	4.763954	1.614071	0.000191
1912	1.9014e+02	-3.8646	-24.874812	0.000446	4.459871	1.511045	0.000179
1913	1.9024e+02	-3.8293	-24.757735	0.000294	2.939461	0.995916	0.000118
1914	1.9034e+02	-3.7828	-24.551841	0.000517	5.169396	1.751439	0.000207
1915	1.9044e+02	-3.7539	-24.394393	0.000395	3.953068	1.339336	0.000158
1916	1.9054e+02	-3.7042	-24.249056	0.000365	3.648986	1.236310	0.000146
1917	1.9064e+02	-3.6641	-24.067385	0.000456	4.561232	1.545387	0.000183
1918	1.9074e+02	-3.6191	-23.922048	0.000365	3.648986	1.236310	0.000146
1919	1.9084e+02	-3.5951	-23.748451	0.000436	4.358511	1.476703	0.000174
1920	1.9094e+02	-3.5502	-23.599077	0.000375	3.750346	1.270652	0.000150
1921	1.9104e+02	-3.5052	-23.409332	0.000476	4.763954	1.614071	0.000191
1922	1.9114e+02	-3.4635	-23.251883	0.000395	3.953068	1.339336	0.000158
1923	1.9124e+02	-3.4315	-23.102509	0.000375	3.750346	1.270652	0.000150
1924	1.9134e+02	-3.3913	-22.892578	0.000527	5.270757	1.785781	0.000211
1925	1.9144e+02	-3.3448	-22.714944	0.000446	4.459871	1.511045	0.000179
1926	1.9154e+02	-3.3095	-22.561533	0.000385	3.851707	1.304994	0.000154
1927	1.9164e+02	-3.2726	-22.383899	0.000446	4.459871	1.511045	0.000179
1928	1.9174e+02	-3.2293	-22.226451	0.000395	3.953068	1.339336	0.000158
1929	1.9184e+02	-3.1908	-22.073040	0.000385	3.851707	1.304994	0.000154
1930	1.9194e+02	-3.1523	-21.891369	0.000456	4.561232	1.545387	0.000183
1931	1.9203e+02	-3.1122	-21.737957	0.000385	3.851707	1.304994	0.000154
1932	1.9213e+02	-3.0785	-21.519952	0.000547	5.473479	1.854465	0.000219
1933	1.9223e+02	-3.0320	-21.402875	0.000294	2.939461	0.995916	0.000118
1934	1.9233e+02	-2.9951	-21.201018	0.000507	5.068036	1.717097	0.000203
1935	1.9243e+02	-2.9534	-21.031459	0.000426	4.257150	1.442361	0.000170
1936	1.9253e+02	-2.9101	-20.861899	0.000426	4.257150	1.442361	0.000170
1937	1.9263e+02	-2.8652	-20.692339	0.000426	4.257150	1.442361	0.000170
1938	1.9273e+02	-2.8234	-20.494520	0.000497	4.966675	1.682755	0.000199
1939	1.9283e+02	-2.8010	-20.341108	0.000385	3.851707	1.304994	0.000154
1940	1.9293e+02	-2.7545	-20.155400	0.000466	4.662593	1.579729	0.000187
1941	1.9303e+02	-2.7112	-20.006026	0.000375	3.750346	1.270652	0.000150
1942	1.9313e+02	-2.6710	-19.840504	0.000416	4.155789	1.408020	0.000166
1943	1.9323e+02	-2.6293	-19.634610	0.000517	5.169396	1.751439	0.000207
1944	1.9333e+02	-2.5924	-19.436790	0.000497	4.966675	1.682755	0.000199
1945	1.9343e+02	-2.5507	-19.279342	0.000395	3.953068	1.339336	0.000158
1946	1.9353e+02	-2.5138	-19.105745	0.000436	4.358511	1.476703	0.000174
1947	1.9363e+02	-2.4673	-18.932148	0.000436	4.358511	1.476703	0.000174
1948	1.9373e+02	-2.4288	-18.758551	0.000436	4.358511	1.476703	0.000174
1949	1.9383e+02	-2.3935	-18.556694	0.000507	5.068036	1.717097	0.000203
1950	1.9393e+02	-2.3582	-18.395209	0.000405	4.054429	1.373678	0.000162
1951	1.9403e+02	-2.3117	-18.209501	0.000466	4.662593	1.579729	0.000187
1952	1.9412e+02	-2.2684	-18.015718	0.000487	4.865314	1.648413	0.000195
1953	1.9422e+02	-2.2427	-17.866344	0.000375	3.750346	1.270652	0.000150
1954	1.9432e+02	-2.1962	-17.676599	0.000476	4.763954	1.614071	0.000191
1955	1.9442e+02	-2.1465	-17.527225	0.000375	3.750346	1.270652	0.000150
1956	1.9452e+02	-2.1160	-17.313257	0.000537	5.372118	1.820123	0.000215
1957	1.9462e+02	-2.0743	-17.167920	0.000365	3.648986	1.236310	0.000146
1958	1.9472e+02	-2.0390	-16.974137	0.000487	4.865314	1.648413	0.000195
1959	1.9482e+02	-2.0021	-16.760169	0.000537	5.372118	1.820123	0.000215
1960	1.9492e+02	-1.9588	-16.622906	0.000345	3.446264	1.167626	0.000138
1961	1.9502e+02	-1.9122	-16.421050	0.000507	5.068036	1.717097	0.000203
1962	1.9512e+02	-1.8753	-16.211119	0.000527	5.270757	1.785781	0.000211
1963	1.9522e+02	-1.8401	-16.021373	0.000476	4.763954	1.614071	0.000191
1964	1.9532e+02	-1.7935	-15.815479	0.000517	5.169396	1.751439	0.000207
1965	1.9542e+02	-1.7502	-15.702439	0.000284	2.838100	0.961574	0.000114
1966	1.9552e+02	-1.7213	-15.516731	0.000466	4.662593	1.579729	0.000187
1967	1.9562e+02	-1.6796	-15.343134	0.000436	4.358511	1.476703	0.000174
1968	1.9572e+02	-1.6235	-15.133203	0.000527	5.270757	1.785781	0.000211
1969	1.9582e+02	-1.5914	-14.931347	0.000507	5.068036	1.717097	0.000203
1970	1.9592e+02	-1.5561	-14.737564	0.000487	4.865314	1.648413	0.000195
1971	1.9601e+02	-1.5208	-14.559930	0.000446	4.459871	1.511045	0.000179
1972	1.9611e+02	-1.4791	-14.345962	0.000537	5.372118	1.820123	0.000215
1973	1.9621e+02	-1.4390	-14.164291	0.000456	4.561232	1.545387	0.000183
1974	1.9631e+02	-1.3925	-13.974545	0.000476	4.763954	1.614071	0.000191
1975	1.9641e+02	-1.3556	-13.792874	0.000456	4.561232	1.545387	0.000183
1976	1.9651e+02	-1.3074	-13.591017	0.000507	5.068036	1.717097	0.000203
1977	1.9661e+02	-1.2786	-13.437606	0.000385	3.851707	1.304994	0.000154
1978	1.9671e+02	-1.2353	-13.195378	0.000608	6.081643	2.060516	0.000243
1979	1.9681e+02	-1.2016	-13.041967	0.000385	3.851707	1.304994	0.000154
1980	1.9691e+02	-1.1567	-12.864333	0.000446	4.459871	1.511045	0.000179
1981	1.9701e+02	-1.1149	-12.654402	0.000527	5.270757	1.785781	0.000211
1982	1.9711e+02	-1.0732	-12.424285	0.000578	5.777561	1.957491	0.000231
1983	1.9721e+02	-1.0395	-12.246651	0.000446	4.459871	1.511045	0.000179
1984	1.9731e+02	-0.9898	-12.036720	0.000527	5.270757	1.785781	0.000211
1985	1.9741e+02	-0.9497	-11.863123	0.000436	4.358511	1.476703	0.000174
1986	1.9751e+02	-0.9192	-11.661267	0.000507	5.068036	1.717097	0.000203
1987	1.9761e+02	-0.8775	-11.471521	0.000476	4.763954	1.614071	0.000191
1988	1.9771e+02	-0.8342	-11.233330	0.000598	5.980282	2.026174	0.000239
1989	1.9781e+02	-0.7941	-11.059733	0.000436	4.358511	1.476703	0.000174
1990	1.9791e+02	-0.7556	-10.833654	0.000568	5.676200	1.923149	0.000227
1991	1.9800e+02	-0.7171	-10.664094	0.000426	4.257150	1.442361	0.000170
1992	1.9810e+02	-0.6722	-10.482423	0.000456	4.561232	1.545387	0.000183
1993	1.9820e+02	-0.6289	-10.256343	0.000568	5.676200	1.923149	0.000227
1994	1.9830e+02	-0.6016	-10.050449	0.000517	5.169396	1.751439	0.000207
1995	1.9840e+02	-0.5583	-9.848593	0.000507	5.068036	1.717097	0.000203
1996	1.9850e+02	-0.5118	-9.666922	0.000456	4.561232	1.545387	0.000183
1997	1.9860e+02	-0.4877	-9.485250	0.000456	4.561232	1.545387	0.000183
1998	1.9870e+02	-0.4380	-9.238985	0.000618	6.183004	2.094858	0.000248
1999	1.9880e+02	-0.4027	-9.049240	0.000476	4.763954	1.614071	0.000191
2000	1.9890e+02	-0.3610	-8.843346	0.000517	5.169396	1.751439	0.000207
2001	1.9900e+02	-0.3257	-8.657638	0.000466	4.662593	1.579729	0.000187
2002	1.9910e+02	-0.2775	-8.467892	0.000476	4.763954	1.614071	0.000191
2003	1.9920e+02	-0.2390	-8.229701	0.000598	5.980282	2.026174	0.000239
2004	1.9930e+02	-0.2021	-8.043993	0.000466	4.662593	1.579729	0.000187
2005	1.9940e+02	-0.1684	-7.854248	0.000476	4.763954	1.614071	0.000191
2006	1.9950e+02	-0.1267	-7.676614	0.000446	4.459871	1.511045	0.000179
2007	1.9960e+02	-0.0770	-7.430348	0.000618	6.183004	2.094858	0.000248
2008	1.9970e+02	-0.0385	-7.204269	0.000568	5.676200	1.923149	0.000227
2009	1.9980e+02	0.0032	-7.034709	0.000568	5.676200	1.923149	0.000170

Center data before PMax,+/-Pr and +/-Vc Calc.

PMax (uC/cm2):	7.04e+01
Pr (uC/cm2):	3.15e+00
-Pr (uC/cm2):	-7.03e+00
PLoss (uC/cm2):	-4.43e+00
Vc:	5.61e-01
-Vc:	-6.28e-01
C (Max-Eff) (nF):	3.52e-01
K (Eff):	1.19e+03
Vert. (+/-Pr) Shift (uC/cm2):	-1.94e+00
Horiz. Shift (+/-Vc):	-3.35e-02
Offset (uC/cm2):	2.60e+00

A (Loop Area - uC/cm2·Volts):	3.97e-02



Hysteresis Version: 5.48.1 - Radiant Technologies, Inc., 1999 - 9/12/24

