»»»»»»»»»»»»»»»»»»»»»»»»»»»»»»»»»»»» Hysteresis ««««««««««««««««««««««««««««««««««««
»»»  Executed Version:	5.48.1
»»»  Vision Version:	5.48.4 (R)
»»»  Vision Compiled:	9/18/24
»»»  Driver Version:	5.47.0
»»»  Windows Version:	Windows 8 or 8.1
»»»  Processor Information:	x86 (AMD or Intel) - 32 Processors
»»»  Tester Name:	PMF21124-494 (100V)
»»»  Tester S/N:	PMF21124-494
»»»  Internal Amp Type:	100V RevK 270k
»»»  Internal Amp S/N:	iAB2-596/K     
»»»  Execution Count:	1
»»»»»»»»»»»»»»»»»»»»»»»»»»»»»»»»»»»»»»»»»»««««««««««««««««««««««««««««««««««««««««««

Stored:	6/13/2025 - 11:7:46
Configured:	06/13/25 10:12:58 AM
Executed:	06/13/25 11:07:14 AM

»»»»»»»»»»»»»»»»»»»»»»»»»»»»»»»»»»» Sample Info ««««««««««««««««««««««««««««««««««««
Sample Name:	
Lot Name:	
Wafer Name:	
Die Row/Column:	0/0
Capacitor Number:	0
Sample Area (cm2):	1.00e-04
Sample Thickness (microns):	3.00e-01

Amplifier:	Internal

»»»»»»»»»»»»»»»»»»»»»»»»»»»»»»»»»»» Tester Info «««««««««««««««««««««««««««««««««««
Tester Name:	PMF21124-494 (100V)
Tester Serial Number:	PMF21124-494
Return Signal Amp. Level:	0.19 [Index: 3]

»»»»»»»»»»»»»»»»»»»»»»»»»»»»»»»» Hysteresis Info ««««««««««««««««««««««««««««««««««
Task Name:	Hyst-1704
Volts:	20.00
Field:	666.67 (kV/cm)
DCBias:	0.00
DCField:	0.00 (kV/cm)
Hysteresis Period (ms):	2.00e+02
Preset:	Enabled
Preset Delay (ms):	1.00e+03
Profile:	Standard Bipolar

»»»»»»»»»»»»»»»»»»»»»»»»»»»»»»»»»»»»»» Data «««««««««««««««««««««««««««««««««««««««
Points:	2009

Valid Data

Point	Time (ms)	Drive Voltage	Measured Polarization (uC/cm2)	Capacitance (uF)	Normalized Capacitance (uF/cm2)	Dielectric Constant	Instantaneous Current (mA)
   1	0.0000e+00	-0.0032	-2.410170	0.000274	2.735971	0.926972	0.000110
   2	9.9500e-02	0.0385	-2.301167	0.000274	2.735971	0.926972	0.000110
   3	1.9900e-01	0.0674	-2.127571	0.000436	4.357287	1.476289	0.000174
   4	2.9850e-01	0.1155	-1.990308	0.000345	3.445297	1.167298	0.000138
   5	3.9800e-01	0.1684	-1.820748	0.000426	4.255955	1.441957	0.000170
   6	4.9750e-01	0.1877	-1.614854	0.000517	5.167945	1.750947	0.000207
   7	5.9700e-01	0.2246	-1.481629	0.000334	3.343965	1.132966	0.000134
   8	6.9650e-01	0.2647	-1.320143	0.000405	4.053290	1.373292	0.000162
   9	7.9600e-01	0.3064	-1.138472	0.000456	4.559952	1.544953	0.000183
  10	8.9550e-01	0.3529	-0.944690	0.000486	4.863948	1.647950	0.000195
  11	9.9500e-01	0.3834	-0.763019	0.000456	4.559952	1.544953	0.000183
  12	1.0945e+00	0.4364	-0.593459	0.000426	4.255955	1.441957	0.000170
  13	1.1940e+00	0.4588	-0.399676	0.000486	4.863948	1.647950	0.000195
  14	1.2935e+00	0.5053	-0.262414	0.000345	3.445297	1.167298	0.000138
  15	1.3930e+00	0.5486	-0.080743	0.000456	4.559952	1.544953	0.000183
  16	1.4925e+00	0.5855	0.076706	0.000395	3.951958	1.338960	0.000158
  17	1.5920e+00	0.6273	0.282600	0.000517	5.167945	1.750947	0.000207
  18	1.6915e+00	0.6690	0.431974	0.000375	3.749294	1.270295	0.000150
  19	1.7910e+00	0.6994	0.633830	0.000507	5.066613	1.716615	0.000203
  20	1.8905e+00	0.7444	0.795316	0.000405	4.053290	1.373292	0.000162
  21	1.9900e+00	0.7989	0.952764	0.000395	3.951958	1.338960	0.000158
  22	2.0895e+00	0.8390	1.154621	0.000507	5.066613	1.716615	0.000203
  23	2.1890e+00	0.8727	1.316106	0.000405	4.053290	1.373292	0.000162
  24	2.2885e+00	0.9128	1.538149	0.000557	5.573274	1.888276	0.000223
  25	2.3880e+00	0.9513	1.671374	0.000334	3.343965	1.132966	0.000134
  26	2.4875e+00	0.9850	1.865157	0.000486	4.863948	1.647950	0.000195
  27	2.5870e+00	1.0267	2.038754	0.000436	4.357287	1.476289	0.000174
  28	2.6865e+00	1.0652	2.264833	0.000567	5.674606	1.922609	0.000227
  29	2.7860e+00	1.1021	2.410170	0.000365	3.647961	1.235963	0.000146
  30	2.8855e+00	1.1422	2.527247	0.000294	2.938635	0.995637	0.000118
  31	2.9850e+00	1.1919	2.757364	0.000578	5.775939	1.956941	0.000231
  32	3.0845e+00	1.2256	2.939035	0.000456	4.559952	1.544953	0.000183
  33	3.1840e+00	1.2641	3.088409	0.000375	3.749294	1.270295	0.000150
  34	3.2835e+00	1.3123	3.257969	0.000426	4.255955	1.441957	0.000170
  35	3.3830e+00	1.3492	3.467900	0.000527	5.269277	1.785280	0.000211
  36	3.4825e+00	1.3909	3.617274	0.000375	3.749294	1.270295	0.000150
  37	3.5820e+00	1.4181	3.823168	0.000517	5.167945	1.750947	0.000207
  38	3.6815e+00	1.4647	3.964467	0.000355	3.546629	1.201630	0.000142
  39	3.7810e+00	1.5144	4.158250	0.000486	4.863948	1.647950	0.000195
  40	3.8805e+00	1.5449	4.327810	0.000426	4.255955	1.441957	0.000170
  41	3.9800e+00	1.5818	4.513518	0.000466	4.661284	1.579286	0.000187
  42	4.0795e+00	1.6235	4.675003	0.000405	4.053290	1.373292	0.000162
  43	4.1790e+00	1.6652	4.852637	0.000446	4.458619	1.510621	0.000179
  44	4.2785e+00	1.7133	5.050457	0.000497	4.965281	1.682283	0.000199
  45	4.3780e+00	1.7454	5.187719	0.000345	3.445297	1.167298	0.000138
  46	4.4775e+00	1.7839	5.393613	0.000517	5.167945	1.750947	0.000207
  47	4.5770e+00	1.8224	5.563173	0.000426	4.255955	1.441957	0.000170
  48	4.6765e+00	1.8641	5.684287	0.000304	3.039968	1.029969	0.000122
  49	4.7760e+00	1.8978	5.882107	0.000497	4.965281	1.682283	0.000199
  50	4.8755e+00	1.9491	6.075889	0.000486	4.863948	1.647950	0.000195
  51	4.9750e+00	1.9844	6.257560	0.000456	4.559952	1.544953	0.000183
  52	5.0745e+00	2.0229	6.427120	0.000426	4.255955	1.441957	0.000170
  53	5.1740e+00	2.0614	6.608791	0.000456	4.559952	1.544953	0.000183
  54	5.2735e+00	2.0999	6.790462	0.000456	4.559952	1.544953	0.000183
  55	5.3730e+00	2.1433	6.955985	0.000415	4.154623	1.407624	0.000166
  56	5.4725e+00	2.1802	7.153805	0.000497	4.965281	1.682283	0.000199
  57	5.5720e+00	2.2203	7.347587	0.000486	4.863948	1.647950	0.000195
  58	5.6715e+00	2.2636	7.480813	0.000334	3.343965	1.132966	0.000134
  59	5.7710e+00	2.3021	7.670558	0.000476	4.762616	1.613618	0.000191
  60	5.8705e+00	2.3422	7.823969	0.000385	3.850626	1.304627	0.000154
  61	5.9700e+00	2.3887	8.001603	0.000446	4.458619	1.510621	0.000179
  62	6.0695e+00	2.4256	8.183274	0.000456	4.559952	1.544953	0.000183
  63	6.1690e+00	2.4625	8.340722	0.000395	3.951958	1.338960	0.000158
  64	6.2685e+00	2.5042	8.518356	0.000446	4.458619	1.510621	0.000179
  65	6.3680e+00	2.5443	8.716176	0.000497	4.965281	1.682283	0.000199
  66	6.4675e+00	2.5892	8.881699	0.000415	4.154623	1.407624	0.000166
  67	6.5670e+00	2.6197	9.006850	0.000314	3.141300	1.064301	0.000126
  68	6.6665e+00	2.6598	9.220818	0.000537	5.370610	1.819612	0.000215
  69	6.7660e+00	2.6935	9.386341	0.000415	4.154623	1.407624	0.000166
  70	6.8655e+00	2.7448	9.584160	0.000497	4.965281	1.682283	0.000199
  71	6.9650e+00	2.7882	9.749683	0.000415	4.154623	1.407624	0.000166
  72	7.0645e+00	2.8186	9.895020	0.000365	3.647961	1.235963	0.000146
  73	7.1640e+00	2.8539	10.068617	0.000436	4.357287	1.476289	0.000174
  74	7.2635e+00	2.9069	10.254325	0.000466	4.661284	1.579286	0.000187
  75	7.3630e+00	2.9325	10.411773	0.000395	3.951958	1.338960	0.000158
  76	7.4625e+00	2.9823	10.589407	0.000446	4.458619	1.510621	0.000179
  77	7.5620e+00	3.0256	10.738781	0.000375	3.749294	1.270295	0.000150
  78	7.6615e+00	3.0593	10.948712	0.000527	5.269277	1.785280	0.000211
  79	7.7610e+00	3.1026	11.085975	0.000345	3.445297	1.167298	0.000138
  80	7.8605e+00	3.1379	11.295906	0.000527	5.269277	1.785280	0.000211
  81	7.9600e+00	3.1812	11.477577	0.000456	4.559952	1.544953	0.000183
  82	8.0595e+00	3.2165	11.643099	0.000415	4.154623	1.407624	0.000166
  83	8.1590e+00	3.2646	11.792473	0.000375	3.749294	1.270295	0.000150
  84	8.2585e+00	3.2983	11.941848	0.000375	3.749294	1.270295	0.000150
  85	8.3580e+00	3.3352	12.131593	0.000476	4.762616	1.613618	0.000191
  86	8.4575e+00	3.3769	12.305190	0.000436	4.357287	1.476289	0.000174
  87	8.5570e+00	3.4202	12.486861	0.000456	4.559952	1.544953	0.000183
  88	8.6565e+00	3.4651	12.636235	0.000375	3.749294	1.270295	0.000150
  89	8.7560e+00	3.5069	12.813869	0.000446	4.458619	1.510621	0.000179
  90	8.8555e+00	3.5357	12.947094	0.000334	3.343965	1.132966	0.000134
  91	8.9550e+00	3.5742	13.152988	0.000517	5.167945	1.750947	0.000207
  92	9.0545e+00	3.6175	13.298325	0.000365	3.647961	1.235963	0.000146
  93	9.1540e+00	3.6609	13.484033	0.000466	4.661284	1.579286	0.000187
  94	9.2535e+00	3.6929	13.653593	0.000426	4.255955	1.441957	0.000170
  95	9.3530e+00	3.7379	13.819116	0.000415	4.154623	1.407624	0.000166
  96	9.4525e+00	3.7748	14.037121	0.000547	5.471942	1.853944	0.000219
  97	9.5520e+00	3.8165	14.158235	0.000304	3.039968	1.029969	0.000122
  98	9.6515e+00	3.8566	14.335869	0.000446	4.458619	1.510621	0.000179
  99	9.7510e+00	3.8919	14.497354	0.000405	4.053290	1.373292	0.000162
 100	9.8505e+00	3.9368	14.642691	0.000365	3.647961	1.235963	0.000146
 101	9.9500e+00	3.9769	14.836474	0.000486	4.863948	1.647950	0.000195
 102	1.0050e+01	4.0170	15.001996	0.000415	4.154623	1.407624	0.000166
 103	1.0149e+01	4.0555	15.163482	0.000405	4.053290	1.373292	0.000162
 104	1.0248e+01	4.0908	15.320930	0.000395	3.951958	1.338960	0.000158
 105	1.0348e+01	4.1341	15.502601	0.000456	4.559952	1.544953	0.000183
 106	1.0447e+01	4.1806	15.684272	0.000456	4.559952	1.544953	0.000183
 107	1.0547e+01	4.2207	15.817498	0.000334	3.343965	1.132966	0.000134
 108	1.0646e+01	4.2560	16.011280	0.000486	4.863948	1.647950	0.000195
 109	1.0746e+01	4.3042	16.172766	0.000405	4.053290	1.373292	0.000162
 110	1.0845e+01	4.3330	16.334251	0.000405	4.053290	1.373292	0.000162
 111	1.0945e+01	4.3651	16.511885	0.000446	4.458619	1.510621	0.000179
 112	1.1044e+01	4.4148	16.673371	0.000405	4.053290	1.373292	0.000162
 113	1.1144e+01	4.4614	16.810633	0.000345	3.445297	1.167298	0.000138
 114	1.1243e+01	4.5047	16.984230	0.000436	4.357287	1.476289	0.000174
 115	1.1343e+01	4.5352	17.125530	0.000355	3.546629	1.201630	0.000142
 116	1.1443e+01	4.5817	17.323349	0.000497	4.965281	1.682283	0.000199
 117	1.1542e+01	4.6186	17.521169	0.000497	4.965281	1.682283	0.000199
 118	1.1642e+01	4.6523	17.666506	0.000365	3.647961	1.235963	0.000146
 119	1.1741e+01	4.6972	17.848177	0.000456	4.559952	1.544953	0.000183
 120	1.1841e+01	4.7325	17.993514	0.000365	3.647961	1.235963	0.000146
 121	1.1940e+01	4.7646	18.142888	0.000375	3.749294	1.270295	0.000150
 122	1.2040e+01	4.8175	18.324559	0.000456	4.559952	1.544953	0.000183
 123	1.2139e+01	4.8464	18.457785	0.000334	3.343965	1.132966	0.000134
 124	1.2239e+01	4.9025	18.623307	0.000415	4.154623	1.407624	0.000166
 125	1.2338e+01	4.9346	18.780755	0.000395	3.951958	1.338960	0.000158
 126	1.2438e+01	4.9747	18.946278	0.000415	4.154623	1.407624	0.000166
 127	1.2537e+01	5.0116	19.099689	0.000385	3.850626	1.304627	0.000154
 128	1.2636e+01	5.0517	19.265212	0.000415	4.154623	1.407624	0.000166
 129	1.2736e+01	5.0966	19.446883	0.000456	4.559952	1.544953	0.000183
 130	1.2835e+01	5.1303	19.543774	0.000243	2.431974	0.823975	0.000097
 131	1.2935e+01	5.1688	19.733519	0.000476	4.762616	1.613618	0.000191
 132	1.3034e+01	5.2138	19.923265	0.000476	4.762616	1.613618	0.000191
 133	1.3134e+01	5.2539	20.088787	0.000415	4.154623	1.407624	0.000166
 134	1.3233e+01	5.2876	20.234124	0.000365	3.647961	1.235963	0.000146
 135	1.3333e+01	5.3421	20.395610	0.000405	4.053290	1.373292	0.000162
 136	1.3432e+01	5.3774	20.565169	0.000426	4.255955	1.441957	0.000170
 137	1.3532e+01	5.4111	20.726655	0.000405	4.053290	1.373292	0.000162
 138	1.3632e+01	5.4464	20.900252	0.000436	4.357287	1.476289	0.000174
 139	1.3731e+01	5.4977	21.049626	0.000375	3.749294	1.270295	0.000150
 140	1.3831e+01	5.5330	21.207074	0.000395	3.951958	1.338960	0.000158
 141	1.3930e+01	5.5651	21.344337	0.000345	3.445297	1.167298	0.000138
 142	1.4030e+01	5.6180	21.513896	0.000426	4.255955	1.441957	0.000170
 143	1.4129e+01	5.6501	21.707679	0.000486	4.863948	1.647950	0.000195
 144	1.4229e+01	5.6886	21.844941	0.000345	3.445297	1.167298	0.000138
 145	1.4328e+01	5.7335	21.994316	0.000375	3.749294	1.270295	0.000150
 146	1.4428e+01	5.7688	22.131578	0.000345	3.445297	1.167298	0.000138
 147	1.4527e+01	5.8121	22.293064	0.000405	4.053290	1.373292	0.000162
 148	1.4627e+01	5.8442	22.470698	0.000446	4.458619	1.510621	0.000179
 149	1.4726e+01	5.8972	22.628146	0.000395	3.951958	1.338960	0.000158
 150	1.4825e+01	5.9260	22.805780	0.000446	4.458619	1.510621	0.000179
 151	1.4925e+01	5.9742	22.939005	0.000334	3.343965	1.132966	0.000134
 152	1.5024e+01	6.0079	23.120676	0.000456	4.559952	1.544953	0.000183
 153	1.5124e+01	6.0399	23.274088	0.000385	3.850626	1.304627	0.000154
 154	1.5223e+01	6.0913	23.415387	0.000355	3.546629	1.201630	0.000142
 155	1.5323e+01	6.1330	23.584947	0.000426	4.255955	1.441957	0.000170
 156	1.5422e+01	6.1667	23.754507	0.000426	4.255955	1.441957	0.000170
 157	1.5522e+01	6.2116	23.911955	0.000395	3.951958	1.338960	0.000158
 158	1.5621e+01	6.2469	24.065366	0.000385	3.850626	1.304627	0.000154
 159	1.5721e+01	6.2870	24.222814	0.000395	3.951958	1.338960	0.000158
 160	1.5820e+01	6.3223	24.356040	0.000334	3.343965	1.132966	0.000134
 161	1.5920e+01	6.3720	24.533674	0.000446	4.458619	1.510621	0.000179
 162	1.6020e+01	6.4009	24.666899	0.000334	3.343965	1.132966	0.000134
 163	1.6119e+01	6.4554	24.832422	0.000415	4.154623	1.407624	0.000166
 164	1.6218e+01	6.4859	24.961610	0.000324	3.242632	1.098634	0.000130
 165	1.6318e+01	6.5228	25.135207	0.000436	4.357287	1.476289	0.000174
 166	1.6418e+01	6.5645	25.304767	0.000426	4.255955	1.441957	0.000170
 167	1.6517e+01	6.5982	25.458178	0.000385	3.850626	1.304627	0.000154
 168	1.6616e+01	6.6479	25.631775	0.000436	4.357287	1.476289	0.000174
 169	1.6716e+01	6.6897	25.700406	0.000172	1.722648	0.583649	0.000069
 170	1.6816e+01	6.7265	25.910337	0.000527	5.269277	1.785280	0.000211
 171	1.6915e+01	6.7618	26.059711	0.000375	3.749294	1.270295	0.000150
 172	1.7015e+01	6.7971	26.213122	0.000385	3.850626	1.304627	0.000154
 173	1.7114e+01	6.8437	26.394793	0.000456	4.559952	1.544953	0.000183
 174	1.7213e+01	6.8950	26.495722	0.000253	2.533306	0.858307	0.000101
 175	1.7313e+01	6.9319	26.681430	0.000466	4.661284	1.579286	0.000187
 176	1.7413e+01	6.9624	26.822730	0.000355	3.546629	1.201630	0.000142
 177	1.7512e+01	7.0025	26.988252	0.000415	4.154623	1.407624	0.000166
 178	1.7611e+01	7.0570	27.153775	0.000415	4.154623	1.407624	0.000166
 179	1.7711e+01	7.0795	27.291038	0.000345	3.445297	1.167298	0.000138
 180	1.7811e+01	7.1276	27.440412	0.000375	3.749294	1.270295	0.000150
 181	1.7910e+01	7.1629	27.609971	0.000426	4.255955	1.441957	0.000170
 182	1.8009e+01	7.2046	27.710900	0.000253	2.533306	0.858307	0.000101
 183	1.8109e+01	7.2495	27.860274	0.000375	3.749294	1.270295	0.000150
 184	1.8209e+01	7.2816	28.054056	0.000486	4.863948	1.647950	0.000195
 185	1.8308e+01	7.3281	28.215542	0.000405	4.053290	1.373292	0.000162
 186	1.8407e+01	7.3698	28.332619	0.000294	2.938635	0.995637	0.000118
 187	1.8507e+01	7.4051	28.481993	0.000375	3.749294	1.270295	0.000150
 188	1.8607e+01	7.4468	28.619255	0.000345	3.445297	1.167298	0.000138
 189	1.8706e+01	7.4821	28.821112	0.000507	5.066613	1.716615	0.000203
 190	1.8805e+01	7.5319	28.926078	0.000263	2.634639	0.892640	0.000105
 191	1.8905e+01	7.5591	29.079489	0.000385	3.850626	1.304627	0.000154
 192	1.9005e+01	7.6041	29.228863	0.000375	3.749294	1.270295	0.000150
 193	1.9104e+01	7.6458	29.434757	0.000517	5.167945	1.750947	0.000207
 194	1.9203e+01	7.6746	29.555871	0.000304	3.039968	1.029969	0.000122
 195	1.9303e+01	7.7276	29.721393	0.000415	4.154623	1.407624	0.000166
 196	1.9402e+01	7.7565	29.838470	0.000294	2.938635	0.995637	0.000118
 197	1.9502e+01	7.7950	29.991881	0.000385	3.850626	1.304627	0.000154
 198	1.9602e+01	7.8415	30.121070	0.000324	3.242632	1.098634	0.000130
 199	1.9701e+01	7.8768	30.314852	0.000486	4.863948	1.647950	0.000195
 200	1.9800e+01	7.9249	30.431929	0.000294	2.938635	0.995637	0.000118
 201	1.9900e+01	7.9618	30.597452	0.000415	4.154623	1.407624	0.000166
 202	2.0000e+01	8.0019	30.734714	0.000345	3.445297	1.167298	0.000138
 203	2.0099e+01	8.0484	30.876014	0.000355	3.546629	1.201630	0.000142
 204	2.0198e+01	8.0757	31.037500	0.000405	4.053290	1.373292	0.000162
 205	2.0298e+01	8.1286	31.166688	0.000324	3.242632	1.098634	0.000130
 206	2.0398e+01	8.1671	31.324136	0.000395	3.951958	1.338960	0.000158
 207	2.0497e+01	8.1992	31.481584	0.000395	3.951958	1.338960	0.000158
 208	2.0596e+01	8.2345	31.634996	0.000385	3.850626	1.304627	0.000154
 209	2.0696e+01	8.2762	31.727850	0.000233	2.330642	0.789643	0.000093
 210	2.0796e+01	8.3179	31.933744	0.000517	5.167945	1.750947	0.000207
 211	2.0895e+01	8.3597	32.050821	0.000294	2.938635	0.995637	0.000118
 212	2.0994e+01	8.3966	32.216343	0.000415	4.154623	1.407624	0.000166
 213	2.1094e+01	8.4367	32.345532	0.000324	3.242632	1.098634	0.000130
 214	2.1194e+01	8.4752	32.498943	0.000385	3.850626	1.304627	0.000154
 215	2.1293e+01	8.5201	32.644280	0.000365	3.647961	1.235963	0.000146
 216	2.1392e+01	8.5634	32.793654	0.000375	3.749294	1.270295	0.000150
 217	2.1492e+01	8.5923	32.947065	0.000385	3.850626	1.304627	0.000154
 218	2.1591e+01	8.6324	33.108550	0.000405	4.053290	1.373292	0.000162
 219	2.1691e+01	8.6789	33.225627	0.000294	2.938635	0.995637	0.000118
 220	2.1791e+01	8.7238	33.383075	0.000395	3.951958	1.338960	0.000158
 221	2.1890e+01	8.7623	33.524375	0.000355	3.546629	1.201630	0.000142
 222	2.1989e+01	8.8040	33.669712	0.000365	3.647961	1.235963	0.000146
 223	2.2089e+01	8.8265	33.811012	0.000355	3.546629	1.201630	0.000142
 224	2.2189e+01	8.8762	33.956349	0.000365	3.647961	1.235963	0.000146
 225	2.2288e+01	8.9195	34.089574	0.000334	3.343965	1.132966	0.000134
 226	2.2387e+01	8.9596	34.226837	0.000345	3.445297	1.167298	0.000138
 227	2.2487e+01	9.0014	34.380248	0.000385	3.850626	1.304627	0.000154
 228	2.2587e+01	9.0302	34.541733	0.000405	4.053290	1.373292	0.000162
 229	2.2686e+01	9.0719	34.683033	0.000355	3.546629	1.201630	0.000142
 230	2.2785e+01	9.1136	34.840481	0.000395	3.951958	1.338960	0.000158
 231	2.2885e+01	9.1505	34.961595	0.000304	3.039968	1.029969	0.000122
 232	2.2985e+01	9.1971	35.106932	0.000365	3.647961	1.235963	0.000146
 233	2.3084e+01	9.2372	35.240158	0.000334	3.343965	1.132966	0.000134
 234	2.3183e+01	9.2725	35.425866	0.000466	4.661284	1.579286	0.000187
 235	2.3283e+01	9.3174	35.538906	0.000284	2.837303	0.961304	0.000114
 236	2.3383e+01	9.3671	35.704428	0.000415	4.154623	1.407624	0.000166
 237	2.3482e+01	9.3944	35.845728	0.000355	3.546629	1.201630	0.000142
 238	2.3581e+01	9.4393	35.978954	0.000334	3.343965	1.132966	0.000134
 239	2.3681e+01	9.4826	36.083919	0.000263	2.634639	0.892640	0.000105
 240	2.3780e+01	9.5179	36.225219	0.000355	3.546629	1.201630	0.000142
 241	2.3880e+01	9.5516	36.406890	0.000456	4.559952	1.544953	0.000183
 242	2.3980e+01	9.5853	36.564338	0.000395	3.951958	1.338960	0.000158
 243	2.4079e+01	9.6334	36.677378	0.000284	2.837303	0.961304	0.000114
 244	2.4178e+01	9.6799	36.790418	0.000284	2.837303	0.961304	0.000114
 245	2.4278e+01	9.7168	36.935755	0.000365	3.647961	1.235963	0.000146
 246	2.4378e+01	9.7521	37.101277	0.000415	4.154623	1.407624	0.000166
 247	2.4477e+01	9.7874	37.222392	0.000304	3.039968	1.029969	0.000122
 248	2.4576e+01	9.8307	37.383877	0.000405	4.053290	1.373292	0.000162
 249	2.4676e+01	9.8708	37.509028	0.000314	3.141300	1.064301	0.000126
 250	2.4776e+01	9.9126	37.634179	0.000314	3.141300	1.064301	0.000126
 251	2.4875e+01	9.9511	37.791628	0.000395	3.951958	1.338960	0.000158
 252	2.4974e+01	9.9960	37.932927	0.000355	3.546629	1.201630	0.000142
 253	2.5074e+01	10.0329	38.058079	0.000314	3.141300	1.064301	0.000126
 254	2.5174e+01	10.0617	38.223601	0.000415	4.154623	1.407624	0.000166
 255	2.5273e+01	10.1083	38.332604	0.000274	2.735971	0.926972	0.000110
 256	2.5372e+01	10.1596	38.486015	0.000385	3.850626	1.304627	0.000154
 257	2.5472e+01	10.1901	38.615203	0.000324	3.242632	1.098634	0.000130
 258	2.5572e+01	10.2302	38.744392	0.000324	3.242632	1.098634	0.000130
 259	2.5671e+01	10.2735	38.926063	0.000456	4.559952	1.544953	0.000183
 260	2.5770e+01	10.3248	39.059288	0.000334	3.343965	1.132966	0.000134
 261	2.5870e+01	10.3553	39.168291	0.000274	2.735971	0.926972	0.000110
 262	2.5970e+01	10.3954	39.321702	0.000385	3.850626	1.304627	0.000154
 263	2.6069e+01	10.4243	39.450890	0.000324	3.242632	1.098634	0.000130
 264	2.6169e+01	10.4837	39.604302	0.000385	3.850626	1.304627	0.000154
 265	2.6268e+01	10.5125	39.713304	0.000274	2.735971	0.926972	0.000110
 266	2.6367e+01	10.5526	39.882864	0.000426	4.255955	1.441957	0.000170
 267	2.6467e+01	10.5863	39.991867	0.000274	2.735971	0.926972	0.000110
 268	2.6567e+01	10.6329	40.157389	0.000415	4.154623	1.407624	0.000166
 269	2.6666e+01	10.6746	40.310800	0.000385	3.850626	1.304627	0.000154
 270	2.6765e+01	10.7099	40.431914	0.000304	3.039968	1.029969	0.000122
 271	2.6865e+01	10.7484	40.553028	0.000304	3.039968	1.029969	0.000122
 272	2.6965e+01	10.7901	40.690291	0.000345	3.445297	1.167298	0.000138
 273	2.7064e+01	10.8350	40.847739	0.000395	3.951958	1.338960	0.000158
 274	2.7163e+01	10.8655	40.985002	0.000345	3.445297	1.167298	0.000138
 275	2.7263e+01	10.9184	41.085930	0.000253	2.533306	0.858307	0.000101
 276	2.7363e+01	10.9601	41.223193	0.000345	3.445297	1.167298	0.000138
 277	2.7462e+01	10.9954	41.421013	0.000497	4.965281	1.682283	0.000199
 278	2.7561e+01	11.0195	41.461384	0.000101	1.013323	0.343323	0.000041
 279	2.7661e+01	11.0692	41.659204	0.000497	4.965281	1.682283	0.000199
 280	2.7761e+01	11.1109	41.764169	0.000263	2.634639	0.892640	0.000105
 281	2.7860e+01	11.1510	41.933729	0.000426	4.255955	1.441957	0.000170
 282	2.7959e+01	11.1847	42.022546	0.000223	2.229310	0.755311	0.000089
 283	2.8059e+01	11.2280	42.196143	0.000436	4.357287	1.476289	0.000174
 284	2.8159e+01	11.2745	42.321294	0.000314	3.141300	1.064301	0.000126
 285	2.8258e+01	11.3066	42.438371	0.000294	2.938635	0.995637	0.000118
 286	2.8358e+01	11.3419	42.583708	0.000365	3.647961	1.235963	0.000146
 287	2.8457e+01	11.3917	42.720970	0.000345	3.445297	1.167298	0.000138
 288	2.8556e+01	11.4334	42.866307	0.000365	3.647961	1.235963	0.000146
 289	2.8656e+01	11.4638	43.027793	0.000405	4.053290	1.373292	0.000162
 290	2.8756e+01	11.5088	43.088350	0.000152	1.519984	0.514984	0.000061
 291	2.8855e+01	11.5569	43.261947	0.000436	4.357287	1.476289	0.000174
 292	2.8954e+01	11.5842	43.419395	0.000395	3.951958	1.338960	0.000158
 293	2.9054e+01	11.6323	43.504175	0.000213	2.127977	0.720978	0.000085
 294	2.9154e+01	11.6708	43.637400	0.000334	3.343965	1.132966	0.000134
 295	2.9253e+01	11.7109	43.806960	0.000426	4.255955	1.441957	0.000170
 296	2.9352e+01	11.7430	43.944223	0.000345	3.445297	1.167298	0.000138
 297	2.9452e+01	11.7847	44.069374	0.000314	3.141300	1.064301	0.000126
 298	2.9552e+01	11.8280	44.178376	0.000274	2.735971	0.926972	0.000110
 299	2.9651e+01	11.8633	44.319676	0.000355	3.546629	1.201630	0.000142
 300	2.9750e+01	11.9114	44.428679	0.000274	2.735971	0.926972	0.000110
 301	2.9850e+01	11.9451	44.610350	0.000456	4.559952	1.544953	0.000183
 302	2.9950e+01	11.9836	44.707241	0.000243	2.431974	0.823975	0.000097
 303	3.0049e+01	12.0269	44.856615	0.000375	3.749294	1.270295	0.000150
 304	3.0148e+01	12.0751	44.973692	0.000294	2.938635	0.995637	0.000118
 305	3.0248e+01	12.1023	45.127103	0.000385	3.850626	1.304627	0.000154
 306	3.0348e+01	12.1505	45.244180	0.000294	2.938635	0.995637	0.000118
 307	3.0447e+01	12.1841	45.337034	0.000233	2.330642	0.789643	0.000093
 308	3.0547e+01	12.2355	45.506594	0.000426	4.255955	1.441957	0.000170
 309	3.0646e+01	12.2644	45.627708	0.000304	3.039968	1.029969	0.000122
 310	3.0745e+01	12.3045	45.773045	0.000365	3.647961	1.235963	0.000146
 311	3.0845e+01	12.3430	45.902233	0.000324	3.242632	1.098634	0.000130
 312	3.0945e+01	12.3863	46.063719	0.000405	4.053290	1.373292	0.000162
 313	3.1044e+01	12.4264	46.160610	0.000243	2.431974	0.823975	0.000097
 314	3.1143e+01	12.4665	46.322095	0.000405	4.053290	1.373292	0.000162
 315	3.1243e+01	12.5050	46.414950	0.000233	2.330642	0.789643	0.000093
 316	3.1343e+01	12.5515	46.548175	0.000334	3.343965	1.132966	0.000134
 317	3.1442e+01	12.5964	46.677363	0.000324	3.242632	1.098634	0.000130
 318	3.1541e+01	12.6253	46.818663	0.000355	3.546629	1.201630	0.000142
 319	3.1641e+01	12.6670	46.919592	0.000253	2.533306	0.858307	0.000101
 320	3.1741e+01	12.7039	47.085114	0.000415	4.154623	1.407624	0.000166
 321	3.1840e+01	12.7376	47.206228	0.000304	3.039968	1.029969	0.000122
 322	3.1939e+01	12.7809	47.343491	0.000345	3.445297	1.167298	0.000138
 323	3.2039e+01	12.8194	47.436345	0.000233	2.330642	0.789643	0.000093
 324	3.2139e+01	12.8659	47.605905	0.000426	4.255955	1.441957	0.000170
 325	3.2238e+01	12.9012	47.690684	0.000213	2.127977	0.720978	0.000085
 326	3.2337e+01	12.9430	47.848133	0.000395	3.951958	1.338960	0.000158
 327	3.2437e+01	12.9766	47.945024	0.000243	2.431974	0.823975	0.000097
 328	3.2536e+01	13.0216	48.098435	0.000385	3.850626	1.304627	0.000154
 329	3.2636e+01	13.0713	48.239735	0.000355	3.546629	1.201630	0.000142
 330	3.2736e+01	13.0889	48.352775	0.000284	2.837303	0.961304	0.000114
 331	3.2835e+01	13.1419	48.441592	0.000223	2.229310	0.755311	0.000089
 332	3.2934e+01	13.1820	48.595003	0.000385	3.850626	1.304627	0.000154
 333	3.3034e+01	13.2076	48.699968	0.000263	2.634639	0.892640	0.000105
 334	3.3133e+01	13.2606	48.873565	0.000436	4.357287	1.476289	0.000174
 335	3.3233e+01	13.2991	48.978531	0.000263	2.634639	0.892640	0.000105
 336	3.3333e+01	13.3440	49.103682	0.000314	3.141300	1.064301	0.000126
 337	3.3432e+01	13.3761	49.228833	0.000314	3.141300	1.064301	0.000126
 338	3.3532e+01	13.4210	49.345910	0.000294	2.938635	0.995637	0.000118
 339	3.3631e+01	13.4547	49.450876	0.000263	2.634639	0.892640	0.000105
 340	3.3730e+01	13.4948	49.616398	0.000415	4.154623	1.407624	0.000166
 341	3.3830e+01	13.5365	49.753661	0.000345	3.445297	1.167298	0.000138
 342	3.3929e+01	13.5782	49.898998	0.000365	3.647961	1.235963	0.000146
 343	3.4029e+01	13.6167	49.967629	0.000172	1.722648	0.583649	0.000069
 344	3.4129e+01	13.6536	50.104892	0.000345	3.445297	1.167298	0.000138
 345	3.4228e+01	13.6921	50.262340	0.000395	3.951958	1.338960	0.000158
 346	3.4328e+01	13.7386	50.347120	0.000213	2.127977	0.720978	0.000085
 347	3.4427e+01	13.7804	50.464197	0.000294	2.938635	0.995637	0.000118
 348	3.4526e+01	13.8253	50.662016	0.000497	4.965281	1.682283	0.000199
 349	3.4626e+01	13.8558	50.746796	0.000213	2.127977	0.720978	0.000085
 350	3.4725e+01	13.8959	50.855799	0.000274	2.735971	0.926972	0.000110
 351	3.4825e+01	13.9360	50.980950	0.000314	3.141300	1.064301	0.000126
 352	3.4925e+01	13.9873	51.114176	0.000334	3.343965	1.132966	0.000134
 353	3.5024e+01	14.0178	51.287772	0.000436	4.357287	1.476289	0.000174
 354	3.5123e+01	14.0579	51.364478	0.000193	1.925313	0.652314	0.000077
 355	3.5223e+01	14.0980	51.497703	0.000334	3.343965	1.132966	0.000134
 356	3.5322e+01	14.1413	51.606706	0.000274	2.735971	0.926972	0.000110
 357	3.5422e+01	14.1750	51.715709	0.000274	2.735971	0.926972	0.000110
 358	3.5522e+01	14.2199	51.885269	0.000426	4.255955	1.441957	0.000170
 359	3.5621e+01	14.2536	51.990234	0.000263	2.634639	0.892640	0.000105
 360	3.5721e+01	14.2921	52.103274	0.000284	2.837303	0.961304	0.000114
 361	3.5820e+01	14.3386	52.220351	0.000294	2.938635	0.995637	0.000118
 362	3.5919e+01	14.3723	52.365688	0.000365	3.647961	1.235963	0.000146
 363	3.6019e+01	14.4172	52.506987	0.000355	3.546629	1.201630	0.000142
 364	3.6118e+01	14.4606	52.603879	0.000243	2.431974	0.823975	0.000097
 365	3.6218e+01	14.4958	52.753253	0.000375	3.749294	1.270295	0.000150
 366	3.6318e+01	14.5327	52.886478	0.000334	3.343965	1.132966	0.000134
 367	3.6417e+01	14.5712	52.979332	0.000233	2.330642	0.789643	0.000093
 368	3.6517e+01	14.6146	53.108521	0.000324	3.242632	1.098634	0.000130
 369	3.6616e+01	14.6595	53.213486	0.000263	2.634639	0.892640	0.000105
 370	3.6715e+01	14.6916	53.354786	0.000355	3.546629	1.201630	0.000142
 371	3.6815e+01	14.7269	53.479937	0.000314	3.141300	1.064301	0.000126
 372	3.6914e+01	14.7686	53.617200	0.000345	3.445297	1.167298	0.000138
 373	3.7014e+01	14.8087	53.734277	0.000294	2.938635	0.995637	0.000118
 374	3.7114e+01	14.8504	53.819057	0.000213	2.127977	0.720978	0.000085
 375	3.7213e+01	14.8937	53.956319	0.000345	3.445297	1.167298	0.000138
 376	3.7313e+01	14.9402	54.049173	0.000233	2.330642	0.789643	0.000093
 377	3.7412e+01	14.9771	54.210659	0.000405	4.053290	1.373292	0.000162
 378	3.7511e+01	15.0188	54.327736	0.000294	2.938635	0.995637	0.000118
 379	3.7611e+01	15.0605	54.464998	0.000345	3.445297	1.167298	0.000138
 380	3.7711e+01	15.0910	54.590149	0.000314	3.141300	1.064301	0.000126
 381	3.7810e+01	15.1311	54.707226	0.000294	2.938635	0.995637	0.000118
 382	3.7910e+01	15.1793	54.820266	0.000284	2.837303	0.961304	0.000114
 383	3.8009e+01	15.2065	54.945417	0.000314	3.141300	1.064301	0.000126
 384	3.8108e+01	15.2611	55.070569	0.000314	3.141300	1.064301	0.000126
 385	3.8208e+01	15.2948	55.131126	0.000152	1.519984	0.514984	0.000061
 386	3.8307e+01	15.3365	55.304722	0.000436	4.357287	1.476289	0.000174
 387	3.8407e+01	15.3766	55.409688	0.000263	2.634639	0.892640	0.000105
 388	3.8507e+01	15.4215	55.534839	0.000314	3.141300	1.064301	0.000126
 389	3.8606e+01	15.4536	55.647879	0.000284	2.837303	0.961304	0.000114
 390	3.8706e+01	15.4857	55.764956	0.000294	2.938635	0.995637	0.000118
 391	3.8805e+01	15.5258	55.894144	0.000324	3.242632	1.098634	0.000130
 392	3.8904e+01	15.5643	56.035444	0.000355	3.546629	1.201630	0.000142
 393	3.9004e+01	15.6156	56.172707	0.000345	3.445297	1.167298	0.000138
 394	3.9103e+01	15.6557	56.249412	0.000193	1.925313	0.652314	0.000077
 395	3.9203e+01	15.6878	56.358415	0.000274	2.735971	0.926972	0.000110
 396	3.9303e+01	15.7375	56.511826	0.000385	3.850626	1.304627	0.000154
 397	3.9402e+01	15.7664	56.628903	0.000294	2.938635	0.995637	0.000118
 398	3.9502e+01	15.8129	56.741943	0.000284	2.837303	0.961304	0.000114
 399	3.9601e+01	15.8498	56.871131	0.000324	3.242632	1.098634	0.000130
 400	3.9700e+01	15.8979	56.992245	0.000304	3.039968	1.029969	0.000122
 401	3.9800e+01	15.9220	57.101248	0.000274	2.735971	0.926972	0.000110
 402	3.9900e+01	15.9637	57.214288	0.000284	2.837303	0.961304	0.000114
 403	3.9999e+01	16.0167	57.351550	0.000345	3.445297	1.167298	0.000138
 404	4.0099e+01	16.0471	57.468627	0.000294	2.938635	0.995637	0.000118
 405	4.0198e+01	16.0856	57.573593	0.000263	2.634639	0.892640	0.000105
 406	4.0297e+01	16.1257	57.714893	0.000355	3.546629	1.201630	0.000142
 407	4.0397e+01	16.1739	57.836007	0.000304	3.039968	1.029969	0.000122
 408	4.0496e+01	16.2092	57.904638	0.000172	1.722648	0.583649	0.000069
 409	4.0596e+01	16.2509	58.062086	0.000395	3.951958	1.338960	0.000158
 410	4.0696e+01	16.2846	58.191275	0.000324	3.242632	1.098634	0.000130
 411	4.0795e+01	16.3375	58.272017	0.000203	2.026645	0.686646	0.000081
 412	4.0895e+01	16.3600	58.389094	0.000294	2.938635	0.995637	0.000118
 413	4.0994e+01	16.4113	58.538468	0.000375	3.749294	1.270295	0.000150
 414	4.1093e+01	16.4530	58.663619	0.000314	3.141300	1.064301	0.000126
 415	4.1193e+01	16.4899	58.740325	0.000193	1.925313	0.652314	0.000077
 416	4.1292e+01	16.5284	58.881625	0.000355	3.546629	1.201630	0.000142
 417	4.1392e+01	16.5685	58.998702	0.000294	2.938635	0.995637	0.000118
 418	4.1492e+01	16.6054	59.099630	0.000253	2.533306	0.858307	0.000101
 419	4.1591e+01	16.6391	59.176336	0.000193	1.925313	0.652314	0.000077
 420	4.1691e+01	16.6888	59.349932	0.000436	4.357287	1.476289	0.000174
 421	4.1790e+01	16.7289	59.438749	0.000223	2.229310	0.755311	0.000089
 422	4.1889e+01	16.7658	59.527566	0.000223	2.229310	0.755311	0.000089
 423	4.1989e+01	16.8124	59.697126	0.000426	4.255955	1.441957	0.000170
 424	4.2089e+01	16.8509	59.810166	0.000284	2.837303	0.961304	0.000114
 425	4.2188e+01	16.8894	59.890909	0.000203	2.026645	0.686646	0.000081
 426	4.2288e+01	16.9231	60.016060	0.000314	3.141300	1.064301	0.000126
 427	4.2387e+01	16.9712	60.092765	0.000193	1.925313	0.652314	0.000077
 428	4.2486e+01	17.0001	60.225991	0.000334	3.343965	1.132966	0.000134
 429	4.2586e+01	17.0402	60.379402	0.000385	3.850626	1.304627	0.000154
 430	4.2685e+01	17.0947	60.480330	0.000253	2.533306	0.858307	0.000101
 431	4.2785e+01	17.1204	60.593370	0.000284	2.837303	0.961304	0.000114
 432	4.2885e+01	17.1621	60.702373	0.000274	2.735971	0.926972	0.000110
 433	4.2984e+01	17.2134	60.815413	0.000284	2.837303	0.961304	0.000114
 434	4.3084e+01	17.2439	60.976898	0.000405	4.053290	1.373292	0.000162
 435	4.3183e+01	17.2792	61.041492	0.000162	1.621316	0.549317	0.000065
 436	4.3282e+01	17.3209	61.158569	0.000294	2.938635	0.995637	0.000118
 437	4.3382e+01	17.3594	61.287758	0.000324	3.242632	1.098634	0.000130
 438	4.3481e+01	17.4059	61.420983	0.000334	3.343965	1.132966	0.000134
 439	4.3581e+01	17.4412	61.517874	0.000243	2.431974	0.823975	0.000097
 440	4.3681e+01	17.4797	61.618803	0.000253	2.533306	0.858307	0.000101
 441	4.3780e+01	17.5150	61.752028	0.000334	3.343965	1.132966	0.000134
 442	4.3880e+01	17.5712	61.877179	0.000314	3.141300	1.064301	0.000126
 443	4.3979e+01	17.6032	61.994256	0.000294	2.938635	0.995637	0.000118
 444	4.4078e+01	17.6401	62.107296	0.000284	2.837303	0.961304	0.000114
 445	4.4178e+01	17.6819	62.188039	0.000203	2.026645	0.686646	0.000081
 446	4.4278e+01	17.7236	62.317227	0.000324	3.242632	1.098634	0.000130
 447	4.4377e+01	17.7621	62.430267	0.000284	2.837303	0.961304	0.000114
 448	4.4477e+01	17.8038	62.543307	0.000284	2.837303	0.961304	0.000114
 449	4.4576e+01	17.8391	62.652310	0.000274	2.735971	0.926972	0.000110
 450	4.4675e+01	17.8776	62.757275	0.000263	2.634639	0.892640	0.000105
 451	4.4775e+01	17.9209	62.846092	0.000223	2.229310	0.755311	0.000089
 452	4.4874e+01	17.9578	63.031800	0.000466	4.661284	1.579286	0.000187
 453	4.4974e+01	18.0027	63.120617	0.000223	2.229310	0.755311	0.000089
 454	4.5074e+01	18.0396	63.217509	0.000243	2.431974	0.823975	0.000097
 455	4.5173e+01	18.0781	63.326511	0.000274	2.735971	0.926972	0.000110
 456	4.5273e+01	18.1198	63.443588	0.000294	2.938635	0.995637	0.000118
 457	4.5372e+01	18.1615	63.568739	0.000314	3.141300	1.064301	0.000126
 458	4.5471e+01	18.2080	63.661593	0.000233	2.330642	0.789643	0.000093
 459	4.5571e+01	18.2401	63.782708	0.000304	3.039968	1.029969	0.000122
 460	4.5670e+01	18.2754	63.883636	0.000253	2.533306	0.858307	0.000101
 461	4.5770e+01	18.3268	63.996676	0.000284	2.837303	0.961304	0.000114
 462	4.5870e+01	18.3653	64.133938	0.000345	3.445297	1.167298	0.000138
 463	4.5969e+01	18.4038	64.242941	0.000274	2.735971	0.926972	0.000110
 464	4.6069e+01	18.4374	64.327721	0.000213	2.127977	0.720978	0.000085
 465	4.6168e+01	18.4792	64.448835	0.000304	3.039968	1.029969	0.000122
 466	4.6267e+01	18.5193	64.573986	0.000314	3.141300	1.064301	0.000126
 467	4.6367e+01	18.5610	64.699137	0.000314	3.141300	1.064301	0.000126
 468	4.6467e+01	18.6043	64.804103	0.000263	2.634639	0.892640	0.000105
 469	4.6566e+01	18.6380	64.896957	0.000233	2.330642	0.789643	0.000093
 470	4.6666e+01	18.6781	65.018071	0.000304	3.039968	1.029969	0.000122
 471	4.6765e+01	18.7246	65.098814	0.000203	2.026645	0.686646	0.000081
 472	4.6864e+01	18.7551	65.240114	0.000355	3.546629	1.201630	0.000142
 473	4.6964e+01	18.8000	65.324893	0.000213	2.127977	0.720978	0.000085
 474	4.7063e+01	18.8433	65.462156	0.000345	3.445297	1.167298	0.000138
 475	4.7163e+01	18.8786	65.555010	0.000233	2.330642	0.789643	0.000093
 476	4.7263e+01	18.9235	65.676124	0.000304	3.039968	1.029969	0.000122
 477	4.7362e+01	18.9556	65.785127	0.000274	2.735971	0.926972	0.000110
 478	4.7462e+01	19.0005	65.873944	0.000223	2.229310	0.755311	0.000089
 479	4.7561e+01	19.0422	65.986984	0.000284	2.837303	0.961304	0.000114
 480	4.7660e+01	19.0743	66.112135	0.000314	3.141300	1.064301	0.000126
 481	4.7760e+01	19.1192	66.188840	0.000193	1.925313	0.652314	0.000077
 482	4.7859e+01	19.1513	66.297843	0.000274	2.735971	0.926972	0.000110
 483	4.7959e+01	19.1979	66.431069	0.000334	3.343965	1.132966	0.000134
 484	4.8059e+01	19.2348	66.564294	0.000334	3.343965	1.132966	0.000134
 485	4.8158e+01	19.2749	66.649074	0.000213	2.127977	0.720978	0.000085
 486	4.8258e+01	19.3150	66.733854	0.000213	2.127977	0.720978	0.000085
 487	4.8357e+01	19.3470	66.871116	0.000345	3.445297	1.167298	0.000138
 488	4.8456e+01	19.3855	66.955896	0.000213	2.127977	0.720978	0.000085
 489	4.8556e+01	19.4369	67.068936	0.000284	2.837303	0.961304	0.000114
 490	4.8656e+01	19.4706	67.210236	0.000355	3.546629	1.201630	0.000142
 491	4.8755e+01	19.5139	67.299053	0.000223	2.229310	0.755311	0.000089
 492	4.8855e+01	19.5604	67.432278	0.000334	3.343965	1.132966	0.000134
 493	4.8954e+01	19.5973	67.513021	0.000203	2.026645	0.686646	0.000081
 494	4.9053e+01	19.6310	67.577615	0.000162	1.621316	0.549317	0.000065
 495	4.9153e+01	19.6679	67.731026	0.000385	3.850626	1.304627	0.000154
 496	4.9252e+01	19.7176	67.844066	0.000284	2.837303	0.961304	0.000114
 497	4.9352e+01	19.7577	67.953069	0.000274	2.735971	0.926972	0.000110
 498	4.9452e+01	19.7962	68.070146	0.000294	2.938635	0.995637	0.000118
 499	4.9551e+01	19.8331	68.187223	0.000294	2.938635	0.995637	0.000118
 500	4.9651e+01	19.8748	68.259891	0.000182	1.823981	0.617981	0.000073
 501	4.9750e+01	19.9166	68.409265	0.000375	3.749294	1.270295	0.000150
 502	4.9849e+01	19.9551	68.530379	0.000304	3.039968	1.029969	0.000122
 503	4.9949e+01	19.9871	68.582862	0.000132	1.317319	0.446320	0.000053
 504	5.0048e+01	19.9551	68.518268	0.000162	1.621316	0.549317	-0.000065
 505	5.0148e+01	19.9214	68.445599	0.000182	1.823981	0.617981	-0.000073
 506	5.0248e+01	19.8700	68.328522	0.000294	2.938635	0.995637	-0.000118
 507	5.0347e+01	19.8347	68.231631	0.000243	2.431974	0.823975	-0.000097
 508	5.0447e+01	19.7898	68.179148	0.000132	1.317319	0.446320	-0.000053
 509	5.0546e+01	19.7577	68.078220	0.000253	2.533306	0.858307	-0.000101
 510	5.0645e+01	19.7128	67.977292	0.000253	2.533306	0.858307	-0.000101
 511	5.0745e+01	19.6711	67.900586	0.000193	1.925313	0.652314	-0.000077
 512	5.0844e+01	19.6342	67.819843	0.000203	2.026645	0.686646	-0.000081
 513	5.0944e+01	19.5941	67.726989	0.000233	2.330642	0.789643	-0.000093
 514	5.1044e+01	19.5476	67.650284	0.000193	1.925313	0.652314	-0.000077
 515	5.1143e+01	19.5203	67.533207	0.000294	2.938635	0.995637	-0.000118
 516	5.1242e+01	19.4770	67.436315	0.000243	2.431974	0.823975	-0.000097
 517	5.1342e+01	19.4337	67.355573	0.000203	2.026645	0.686646	-0.000081
 518	5.1441e+01	19.3936	67.250607	0.000263	2.634639	0.892640	-0.000105
 519	5.1541e+01	19.3583	67.206199	0.000111	1.114655	0.377655	-0.000045
 520	5.1641e+01	19.3198	67.081047	0.000314	3.141300	1.064301	-0.000126
 521	5.1740e+01	19.2765	66.980119	0.000253	2.533306	0.858307	-0.000101
 522	5.1840e+01	19.2396	66.911488	0.000172	1.722648	0.583649	-0.000069
 523	5.1939e+01	19.1946	66.798448	0.000284	2.837303	0.961304	-0.000114
 524	5.2038e+01	19.1577	66.685408	0.000284	2.837303	0.961304	-0.000114
 525	5.2138e+01	19.1144	66.616777	0.000172	1.722648	0.583649	-0.000069
 526	5.2237e+01	19.0727	66.527960	0.000223	2.229310	0.755311	-0.000089
 527	5.2337e+01	19.0390	66.447217	0.000203	2.026645	0.686646	-0.000081
 528	5.2437e+01	18.9957	66.338214	0.000274	2.735971	0.926972	-0.000110
 529	5.2536e+01	18.9540	66.249397	0.000223	2.229310	0.755311	-0.000089
 530	5.2636e+01	18.9316	66.172692	0.000193	1.925313	0.652314	-0.000077
 531	5.2735e+01	18.8786	66.071763	0.000253	2.533306	0.858307	-0.000101
 532	5.2834e+01	18.8417	65.974872	0.000243	2.431974	0.823975	-0.000097
 533	5.2934e+01	18.7984	65.853758	0.000304	3.039968	1.029969	-0.000122
 534	5.3033e+01	18.7631	65.777053	0.000193	1.925313	0.652314	-0.000077
 535	5.3133e+01	18.7166	65.647864	0.000324	3.242632	1.098634	-0.000130
 536	5.3233e+01	18.6845	65.534824	0.000284	2.837303	0.961304	-0.000114
 537	5.3332e+01	18.6460	65.462156	0.000182	1.823981	0.617981	-0.000073
 538	5.3431e+01	18.6027	65.385450	0.000193	1.925313	0.652314	-0.000077
 539	5.3531e+01	18.5642	65.312782	0.000182	1.823981	0.617981	-0.000073
 540	5.3630e+01	18.5177	65.179556	0.000334	3.343965	1.132966	-0.000134
 541	5.3730e+01	18.4759	65.106888	0.000182	1.823981	0.617981	-0.000073
 542	5.3830e+01	18.4326	64.997885	0.000274	2.735971	0.926972	-0.000110
 543	5.3929e+01	18.3989	64.896957	0.000253	2.533306	0.858307	-0.000101
 544	5.4029e+01	18.3620	64.779880	0.000294	2.938635	0.995637	-0.000118
 545	5.4128e+01	18.3139	64.670877	0.000274	2.735971	0.926972	-0.000110
 546	5.4227e+01	18.2866	64.622432	0.000122	1.215987	0.411988	-0.000049
 547	5.4327e+01	18.2481	64.497281	0.000314	3.141300	1.064301	-0.000126
 548	5.4426e+01	18.1952	64.400389	0.000243	2.431974	0.823975	-0.000097
 549	5.4526e+01	18.1599	64.295424	0.000263	2.634639	0.892640	-0.000105
 550	5.4626e+01	18.1166	64.194495	0.000253	2.533306	0.858307	-0.000101
 551	5.4725e+01	18.0765	64.089530	0.000263	2.634639	0.892640	-0.000105
 552	5.4825e+01	18.0508	63.980527	0.000274	2.735971	0.926972	-0.000110
 553	5.4924e+01	17.9963	63.919970	0.000152	1.519984	0.514984	-0.000061
 554	5.5023e+01	17.9642	63.827116	0.000233	2.330642	0.789643	-0.000093
 555	5.5123e+01	17.9257	63.710039	0.000294	2.938635	0.995637	-0.000118
 556	5.5222e+01	17.8776	63.625259	0.000213	2.127977	0.720978	-0.000085
 557	5.5322e+01	17.8407	63.520294	0.000263	2.634639	0.892640	-0.000105
 558	5.5422e+01	17.7942	63.415328	0.000263	2.634639	0.892640	-0.000105
 559	5.5521e+01	17.7573	63.338623	0.000193	1.925313	0.652314	-0.000077
 560	5.5620e+01	17.7155	63.213471	0.000314	3.141300	1.064301	-0.000126
 561	5.5720e+01	17.6835	63.116580	0.000243	2.431974	0.823975	-0.000097
 562	5.5819e+01	17.6466	63.015652	0.000253	2.533306	0.858307	-0.000101
 563	5.5919e+01	17.5968	62.910686	0.000263	2.634639	0.892640	-0.000105
 564	5.6019e+01	17.5663	62.801684	0.000274	2.735971	0.926972	-0.000110
 565	5.6118e+01	17.5278	62.716904	0.000213	2.127977	0.720978	-0.000085
 566	5.6218e+01	17.4926	62.603864	0.000284	2.837303	0.961304	-0.000114
 567	5.6317e+01	17.4380	62.490824	0.000284	2.837303	0.961304	-0.000114
 568	5.6416e+01	17.4011	62.369710	0.000304	3.039968	1.029969	-0.000122
 569	5.6516e+01	17.3530	62.280893	0.000223	2.229310	0.755311	-0.000089
 570	5.6615e+01	17.3193	62.192076	0.000223	2.229310	0.755311	-0.000089
 571	5.6715e+01	17.2856	62.103259	0.000223	2.229310	0.755311	-0.000089
 572	5.6815e+01	17.2471	61.974071	0.000324	3.242632	1.098634	-0.000130
 573	5.6914e+01	17.1990	61.905439	0.000172	1.722648	0.583649	-0.000069
 574	5.7014e+01	17.1653	61.723768	0.000456	4.559952	1.544953	-0.000183
 575	5.7113e+01	17.1284	61.683397	0.000101	1.013323	0.343323	-0.000041
 576	5.7212e+01	17.0803	61.562283	0.000304	3.039968	1.029969	-0.000122
 577	5.7312e+01	17.0418	61.493652	0.000172	1.722648	0.583649	-0.000069
 578	5.7411e+01	17.0017	61.360426	0.000334	3.343965	1.132966	-0.000134
 579	5.7511e+01	16.9632	61.311980	0.000122	1.215987	0.411988	-0.000049
 580	5.7611e+01	16.9407	61.162606	0.000375	3.749294	1.270295	-0.000150
 581	5.7710e+01	16.8910	61.077827	0.000213	2.127977	0.720978	-0.000085
 582	5.7809e+01	16.8444	60.944601	0.000334	3.343965	1.132966	-0.000134
 583	5.7909e+01	16.7995	60.871933	0.000182	1.823981	0.617981	-0.000073
 584	5.8008e+01	16.7739	60.766967	0.000263	2.634639	0.892640	-0.000105
 585	5.8108e+01	16.7225	60.633742	0.000334	3.343965	1.132966	-0.000134
 586	5.8208e+01	16.6856	60.565110	0.000172	1.722648	0.583649	-0.000069
 587	5.8307e+01	16.6439	60.476293	0.000223	2.229310	0.755311	-0.000089
 588	5.8407e+01	16.6054	60.322882	0.000385	3.850626	1.304627	-0.000154
 589	5.8506e+01	16.5653	60.230028	0.000233	2.330642	0.789643	-0.000093
 590	5.8605e+01	16.5316	60.121025	0.000274	2.735971	0.926972	-0.000110
 591	5.8705e+01	16.4819	60.024134	0.000243	2.431974	0.823975	-0.000097
 592	5.8804e+01	16.4562	59.886872	0.000345	3.445297	1.167298	-0.000138
 593	5.8904e+01	16.4017	59.814203	0.000182	1.823981	0.617981	-0.000073
 594	5.9004e+01	16.3600	59.685015	0.000324	3.242632	1.098634	-0.000130
 595	5.9103e+01	16.3263	59.567938	0.000294	2.938635	0.995637	-0.000118
 596	5.9203e+01	16.2878	59.454898	0.000284	2.837303	0.961304	-0.000114
 597	5.9302e+01	16.2493	59.349932	0.000263	2.634639	0.892640	-0.000105
 598	5.9401e+01	16.2092	59.293413	0.000142	1.418652	0.480652	-0.000057
 599	5.9501e+01	16.1642	59.204596	0.000223	2.229310	0.755311	-0.000089
 600	5.9600e+01	16.1290	59.051184	0.000385	3.850626	1.304627	-0.000154
 601	5.9700e+01	16.0840	58.970442	0.000203	2.026645	0.686646	-0.000081
 602	5.9800e+01	16.0520	58.897773	0.000182	1.823981	0.617981	-0.000073
 603	5.9899e+01	16.0118	58.760511	0.000345	3.445297	1.167298	-0.000138
 604	5.9998e+01	15.9653	58.647471	0.000284	2.837303	0.961304	-0.000114
 605	6.0098e+01	15.9300	58.542505	0.000263	2.634639	0.892640	-0.000105
 606	6.0197e+01	15.8915	58.445614	0.000243	2.431974	0.823975	-0.000097
 607	6.0297e+01	15.8498	58.324500	0.000304	3.039968	1.029969	-0.000122
 608	6.0397e+01	15.8113	58.199349	0.000314	3.141300	1.064301	-0.000126
 609	6.0496e+01	15.7680	58.122643	0.000193	1.925313	0.652314	-0.000077
 610	6.0596e+01	15.7375	58.005566	0.000294	2.938635	0.995637	-0.000118
 611	6.0695e+01	15.6958	57.872341	0.000334	3.343965	1.132966	-0.000134
 612	6.0794e+01	15.6429	57.795635	0.000193	1.925313	0.652314	-0.000077
 613	6.0894e+01	15.6076	57.722967	0.000182	1.823981	0.617981	-0.000073
 614	6.0993e+01	15.5707	57.609927	0.000284	2.837303	0.961304	-0.000114
 615	6.1093e+01	15.5210	57.460553	0.000375	3.749294	1.270295	-0.000150
 616	6.1193e+01	15.4889	57.339439	0.000304	3.039968	1.029969	-0.000122
 617	6.1292e+01	15.4552	57.262733	0.000193	1.925313	0.652314	-0.000077
 618	6.1392e+01	15.3990	57.145656	0.000294	2.938635	0.995637	-0.000118
 619	6.1491e+01	15.3750	57.056839	0.000223	2.229310	0.755311	-0.000089
 620	6.1590e+01	15.3349	56.907465	0.000375	3.749294	1.270295	-0.000150
 621	6.1690e+01	15.2915	56.770203	0.000345	3.445297	1.167298	-0.000138
 622	6.1789e+01	15.2546	56.705609	0.000162	1.621316	0.549317	-0.000065
 623	6.1889e+01	15.2049	56.600643	0.000263	2.634639	0.892640	-0.000105
 624	6.1989e+01	15.1632	56.483566	0.000294	2.938635	0.995637	-0.000118
 625	6.2088e+01	15.1279	56.350341	0.000334	3.343965	1.132966	-0.000134
 626	6.2188e+01	15.0942	56.241338	0.000274	2.735971	0.926972	-0.000110
 627	6.2287e+01	15.0525	56.124261	0.000294	2.938635	0.995637	-0.000118
 628	6.2386e+01	15.0172	56.007184	0.000294	2.938635	0.995637	-0.000118
 629	6.2486e+01	14.9739	55.922404	0.000213	2.127977	0.720978	-0.000085
 630	6.2586e+01	14.9322	55.797253	0.000314	3.141300	1.064301	-0.000126
 631	6.2685e+01	14.8969	55.732659	0.000162	1.621316	0.549317	-0.000065
 632	6.2785e+01	14.8568	55.623656	0.000274	2.735971	0.926972	-0.000110
 633	6.2884e+01	14.8135	55.494468	0.000324	3.242632	1.098634	-0.000130
 634	6.2983e+01	14.7766	55.381428	0.000284	2.837303	0.961304	-0.000114
 635	6.3083e+01	14.7269	55.280500	0.000253	2.533306	0.858307	-0.000101
 636	6.3182e+01	14.6884	55.171497	0.000274	2.735971	0.926972	-0.000110
 637	6.3282e+01	14.6547	55.062494	0.000274	2.735971	0.926972	-0.000110
 638	6.3382e+01	14.6194	54.969640	0.000233	2.330642	0.789643	-0.000093
 639	6.3481e+01	14.5793	54.816229	0.000385	3.850626	1.304627	-0.000154
 640	6.3581e+01	14.5392	54.735486	0.000203	2.026645	0.686646	-0.000081
 641	6.3680e+01	14.4894	54.602261	0.000334	3.343965	1.132966	-0.000134
 642	6.3779e+01	14.4461	54.489221	0.000284	2.837303	0.961304	-0.000114
 643	6.3879e+01	14.4221	54.400404	0.000223	2.229310	0.755311	-0.000089
 644	6.3978e+01	14.3739	54.295439	0.000263	2.634639	0.892640	-0.000105
 645	6.4078e+01	14.3354	54.166250	0.000324	3.242632	1.098634	-0.000130
 646	6.4177e+01	14.2937	54.041099	0.000314	3.141300	1.064301	-0.000126
 647	6.4277e+01	14.2552	53.956319	0.000213	2.127977	0.720978	-0.000085
 648	6.4376e+01	14.2199	53.819057	0.000345	3.445297	1.167298	-0.000138
 649	6.4476e+01	14.1718	53.714091	0.000263	2.634639	0.892640	-0.000105
 650	6.4576e+01	14.1397	53.584903	0.000324	3.242632	1.098634	-0.000130
 651	6.4675e+01	14.1044	53.459751	0.000314	3.141300	1.064301	-0.000126
 652	6.4775e+01	14.0611	53.358823	0.000253	2.533306	0.858307	-0.000101
 653	6.4874e+01	14.0066	53.253858	0.000263	2.634639	0.892640	-0.000105
 654	6.4974e+01	13.9761	53.144855	0.000274	2.735971	0.926972	-0.000110
 655	6.5073e+01	13.9312	53.007592	0.000345	3.445297	1.167298	-0.000138
 656	6.5172e+01	13.8927	52.938961	0.000172	1.722648	0.583649	-0.000069
 657	6.5272e+01	13.8526	52.781513	0.000395	3.951958	1.338960	-0.000158
 658	6.5371e+01	13.8124	52.688659	0.000233	2.330642	0.789643	-0.000093
 659	6.5471e+01	13.7820	52.539284	0.000375	3.749294	1.270295	-0.000150
 660	6.5570e+01	13.7290	52.434319	0.000263	2.634639	0.892640	-0.000105
 661	6.5670e+01	13.6889	52.301093	0.000334	3.343965	1.132966	-0.000134
 662	6.5769e+01	13.6536	52.224388	0.000193	1.925313	0.652314	-0.000077
 663	6.5869e+01	13.6231	52.079051	0.000365	3.647961	1.235963	-0.000146
 664	6.5969e+01	13.5782	51.974085	0.000263	2.634639	0.892640	-0.000105
 665	6.6068e+01	13.5413	51.861046	0.000284	2.837303	0.961304	-0.000114
 666	6.6168e+01	13.4980	51.711672	0.000375	3.749294	1.270295	-0.000150
 667	6.6267e+01	13.4547	51.675337	0.000091	0.911990	0.308991	-0.000037
 668	6.6367e+01	13.4178	51.517889	0.000395	3.951958	1.338960	-0.000158
 669	6.6466e+01	13.3873	51.396775	0.000304	3.039968	1.029969	-0.000122
 670	6.6566e+01	13.3360	51.311995	0.000213	2.127977	0.720978	-0.000085
 671	6.6665e+01	13.2911	51.178770	0.000334	3.343965	1.132966	-0.000134
 672	6.6764e+01	13.2622	51.073804	0.000263	2.634639	0.892640	-0.000105
 673	6.6864e+01	13.2189	50.928467	0.000365	3.647961	1.235963	-0.000146
 674	6.6963e+01	13.1820	50.835613	0.000233	2.330642	0.789643	-0.000093
 675	6.7063e+01	13.1435	50.734685	0.000253	2.533306	0.858307	-0.000101
 676	6.7162e+01	13.1146	50.589348	0.000365	3.647961	1.235963	-0.000146
 677	6.7262e+01	13.0569	50.460160	0.000324	3.242632	1.098634	-0.000130
 678	6.7362e+01	13.0312	50.379417	0.000203	2.026645	0.686646	-0.000081
 679	6.7461e+01	12.9750	50.246191	0.000334	3.343965	1.132966	-0.000134
 680	6.7561e+01	12.9510	50.112966	0.000334	3.343965	1.132966	-0.000134
 681	6.7660e+01	12.8932	50.012038	0.000253	2.533306	0.858307	-0.000101
 682	6.7760e+01	12.8643	49.882849	0.000324	3.242632	1.098634	-0.000130
 683	6.7859e+01	12.8274	49.781921	0.000253	2.533306	0.858307	-0.000101
 684	6.7959e+01	12.7857	49.640621	0.000355	3.546629	1.201630	-0.000142
 685	6.8058e+01	12.7424	49.539693	0.000253	2.533306	0.858307	-0.000101
 686	6.8157e+01	12.7087	49.418579	0.000304	3.039968	1.029969	-0.000122
 687	6.8257e+01	12.6622	49.249019	0.000426	4.255955	1.441957	-0.000170
 688	6.8356e+01	12.6317	49.196536	0.000132	1.317319	0.446320	-0.000053
 689	6.8456e+01	12.5756	49.022939	0.000436	4.357287	1.476289	-0.000174
 690	6.8555e+01	12.5467	48.942197	0.000203	2.026645	0.686646	-0.000081
 691	6.8655e+01	12.5050	48.817045	0.000314	3.141300	1.064301	-0.000126
 692	6.8754e+01	12.4649	48.699968	0.000294	2.938635	0.995637	-0.000118
 693	6.8854e+01	12.4232	48.586929	0.000284	2.837303	0.961304	-0.000114
 694	6.8954e+01	12.3863	48.469852	0.000294	2.938635	0.995637	-0.000118
 695	6.9053e+01	12.3462	48.360849	0.000274	2.735971	0.926972	-0.000110
 696	6.9153e+01	12.3013	48.247809	0.000284	2.837303	0.961304	-0.000114
 697	6.9252e+01	12.2740	48.110547	0.000345	3.445297	1.167298	-0.000138
 698	6.9352e+01	12.2226	47.985395	0.000314	3.141300	1.064301	-0.000126
 699	6.9451e+01	12.1841	47.848133	0.000345	3.445297	1.167298	-0.000138
 700	6.9550e+01	12.1456	47.771427	0.000193	1.925313	0.652314	-0.000077
 701	6.9650e+01	12.1071	47.658387	0.000284	2.837303	0.961304	-0.000114
 702	6.9749e+01	12.0654	47.513051	0.000365	3.647961	1.235963	-0.000146
 703	6.9849e+01	12.0189	47.359639	0.000385	3.850626	1.304627	-0.000154
 704	6.9948e+01	11.9884	47.266785	0.000233	2.330642	0.789643	-0.000093
 705	7.0048e+01	11.9371	47.125485	0.000355	3.546629	1.201630	-0.000142
 706	7.0147e+01	11.9050	46.972074	0.000385	3.850626	1.304627	-0.000154
 707	7.0247e+01	11.8681	46.863072	0.000274	2.735971	0.926972	-0.000110
 708	7.0347e+01	11.8232	46.750032	0.000284	2.837303	0.961304	-0.000114
 709	7.0446e+01	11.8007	46.657178	0.000233	2.330642	0.789643	-0.000093
 710	7.0546e+01	11.7494	46.491655	0.000415	4.154623	1.407624	-0.000166
 711	7.0645e+01	11.7093	46.370541	0.000304	3.039968	1.029969	-0.000122
 712	7.0745e+01	11.6628	46.273650	0.000243	2.431974	0.823975	-0.000097
 713	7.0844e+01	11.6355	46.136387	0.000345	3.445297	1.167298	-0.000138
 714	7.0944e+01	11.5810	45.999125	0.000345	3.445297	1.167298	-0.000138
 715	7.1043e+01	11.5521	45.906270	0.000233	2.330642	0.789643	-0.000093
 716	7.1142e+01	11.5023	45.805342	0.000253	2.533306	0.858307	-0.000101
 717	7.1242e+01	11.4606	45.672117	0.000334	3.343965	1.132966	-0.000134
 718	7.1341e+01	11.4302	45.482371	0.000476	4.762616	1.613618	-0.000191
 719	7.1441e+01	11.3852	45.425851	0.000142	1.418652	0.480652	-0.000057
 720	7.1540e+01	11.3548	45.264366	0.000405	4.053290	1.373292	-0.000162
 721	7.1640e+01	11.3098	45.155363	0.000274	2.735971	0.926972	-0.000110
 722	7.1740e+01	11.2649	45.022138	0.000334	3.343965	1.132966	-0.000134
 723	7.1839e+01	11.2296	44.917172	0.000263	2.634639	0.892640	-0.000105
 724	7.1939e+01	11.1959	44.816244	0.000253	2.533306	0.858307	-0.000101
 725	7.2038e+01	11.1382	44.658796	0.000395	3.951958	1.338960	-0.000158
 726	7.2138e+01	11.1045	44.545756	0.000284	2.837303	0.961304	-0.000114
 727	7.2237e+01	11.0644	44.396382	0.000375	3.749294	1.270295	-0.000150
 728	7.2337e+01	11.0259	44.279305	0.000294	2.938635	0.995637	-0.000118
 729	7.2436e+01	10.9906	44.174339	0.000263	2.634639	0.892640	-0.000105
 730	7.2535e+01	10.9441	44.016891	0.000395	3.951958	1.338960	-0.000158
 731	7.2635e+01	10.9120	43.899814	0.000294	2.938635	0.995637	-0.000118
 732	7.2734e+01	10.8655	43.762551	0.000345	3.445297	1.167298	-0.000138
 733	7.2834e+01	10.8254	43.665660	0.000243	2.431974	0.823975	-0.000097
 734	7.2933e+01	10.7853	43.564732	0.000253	2.533306	0.858307	-0.000101
 735	7.3033e+01	10.7516	43.435543	0.000324	3.242632	1.098634	-0.000130
 736	7.3132e+01	10.7163	43.294244	0.000355	3.546629	1.201630	-0.000142
 737	7.3232e+01	10.6730	43.169092	0.000314	3.141300	1.064301	-0.000126
 738	7.3332e+01	10.6296	43.015681	0.000385	3.850626	1.304627	-0.000154
 739	7.3431e+01	10.5927	42.898604	0.000294	2.938635	0.995637	-0.000118
 740	7.3531e+01	10.5559	42.769416	0.000324	3.242632	1.098634	-0.000130
 741	7.3630e+01	10.5061	42.652339	0.000294	2.938635	0.995637	-0.000118
 742	7.3730e+01	10.4740	42.527188	0.000314	3.141300	1.064301	-0.000126
 743	7.3829e+01	10.4339	42.369740	0.000395	3.951958	1.338960	-0.000158
 744	7.3928e+01	10.3954	42.284960	0.000213	2.127977	0.720978	-0.000085
 745	7.4028e+01	10.3489	42.147697	0.000345	3.445297	1.167298	-0.000138
 746	7.4127e+01	10.3120	42.010434	0.000345	3.445297	1.167298	-0.000138
 747	7.4227e+01	10.2719	41.889320	0.000304	3.039968	1.029969	-0.000122
 748	7.4326e+01	10.2350	41.739946	0.000375	3.749294	1.270295	-0.000150
 749	7.4426e+01	10.1885	41.610758	0.000324	3.242632	1.098634	-0.000130
 750	7.4525e+01	10.1564	41.497718	0.000284	2.837303	0.961304	-0.000114
 751	7.4625e+01	10.1179	41.380641	0.000294	2.938635	0.995637	-0.000118
 752	7.4725e+01	10.0730	41.271639	0.000274	2.735971	0.926972	-0.000110
 753	7.4824e+01	10.0281	41.118227	0.000385	3.850626	1.304627	-0.000154
 754	7.4924e+01	9.9944	40.989039	0.000324	3.242632	1.098634	-0.000130
 755	7.5023e+01	9.9462	40.851777	0.000345	3.445297	1.167298	-0.000138
 756	7.5123e+01	9.9142	40.722588	0.000324	3.242632	1.098634	-0.000130
 757	7.5222e+01	9.8708	40.609548	0.000284	2.837303	0.961304	-0.000114
 758	7.5322e+01	9.8307	40.460174	0.000375	3.749294	1.270295	-0.000150
 759	7.5421e+01	9.7970	40.359246	0.000253	2.533306	0.858307	-0.000101
 760	7.5520e+01	9.7650	40.205835	0.000385	3.850626	1.304627	-0.000154
 761	7.5620e+01	9.7104	40.072609	0.000334	3.343965	1.132966	-0.000134
 762	7.5719e+01	9.6703	39.903050	0.000426	4.255955	1.441957	-0.000170
 763	7.5819e+01	9.6382	39.794047	0.000274	2.735971	0.926972	-0.000110
 764	7.5918e+01	9.5997	39.693119	0.000253	2.533306	0.858307	-0.000101
 765	7.6018e+01	9.5532	39.523559	0.000426	4.255955	1.441957	-0.000170
 766	7.6118e+01	9.5051	39.414556	0.000274	2.735971	0.926972	-0.000110
 767	7.6217e+01	9.4746	39.273256	0.000355	3.546629	1.201630	-0.000142
 768	7.6317e+01	9.4377	39.148105	0.000314	3.141300	1.064301	-0.000126
 769	7.6416e+01	9.3976	39.026991	0.000304	3.039968	1.029969	-0.000122
 770	7.6516e+01	9.3559	38.873580	0.000385	3.850626	1.304627	-0.000154
 771	7.6615e+01	9.3126	38.764577	0.000274	2.735971	0.926972	-0.000110
 772	7.6715e+01	9.2789	38.590981	0.000436	4.357287	1.476289	-0.000174
 773	7.6814e+01	9.2436	38.453718	0.000345	3.445297	1.167298	-0.000138
 774	7.6913e+01	9.2035	38.368938	0.000213	2.127977	0.720978	-0.000085
 775	7.7013e+01	9.1570	38.219564	0.000375	3.749294	1.270295	-0.000150
 776	7.7112e+01	9.1120	38.066153	0.000385	3.850626	1.304627	-0.000154
 777	7.7212e+01	9.0767	37.920816	0.000365	3.647961	1.235963	-0.000146
 778	7.7311e+01	9.0318	37.799702	0.000304	3.039968	1.029969	-0.000122
 779	7.7411e+01	8.9949	37.662439	0.000345	3.445297	1.167298	-0.000138
 780	7.7510e+01	8.9596	37.557474	0.000263	2.634639	0.892640	-0.000105
 781	7.7610e+01	8.9131	37.412137	0.000365	3.647961	1.235963	-0.000146
 782	7.7710e+01	8.8794	37.282949	0.000324	3.242632	1.098634	-0.000130
 783	7.7809e+01	8.8393	37.161834	0.000304	3.039968	1.029969	-0.000122
 784	7.7909e+01	8.7992	37.000349	0.000405	4.053290	1.373292	-0.000162
 785	7.8008e+01	8.7511	36.891346	0.000274	2.735971	0.926972	-0.000110
 786	7.8108e+01	8.7078	36.762158	0.000324	3.242632	1.098634	-0.000130
 787	7.8207e+01	8.6789	36.596635	0.000415	4.154623	1.407624	-0.000166
 788	7.8306e+01	8.6420	36.459373	0.000345	3.445297	1.167298	-0.000138
 789	7.8406e+01	8.5987	36.346333	0.000284	2.837303	0.961304	-0.000114
 790	7.8505e+01	8.5666	36.205033	0.000355	3.546629	1.201630	-0.000142
 791	7.8605e+01	8.5217	36.035474	0.000426	4.255955	1.441957	-0.000170
 792	7.8704e+01	8.4816	35.930508	0.000263	2.634639	0.892640	-0.000105
 793	7.8804e+01	8.4335	35.777097	0.000385	3.850626	1.304627	-0.000154
 794	7.8903e+01	8.4014	35.660020	0.000294	2.938635	0.995637	-0.000118
 795	7.9003e+01	8.3613	35.526794	0.000334	3.343965	1.132966	-0.000134
 796	7.9103e+01	8.3212	35.393569	0.000334	3.343965	1.132966	-0.000134
 797	7.9202e+01	8.2730	35.191712	0.000507	5.066613	1.716615	-0.000203
 798	7.9302e+01	8.2393	35.102895	0.000223	2.229310	0.755311	-0.000089
 799	7.9401e+01	8.1896	34.929298	0.000436	4.357287	1.476289	-0.000174
 800	7.9501e+01	8.1543	34.800110	0.000324	3.242632	1.098634	-0.000130
 801	7.9600e+01	8.1174	34.650736	0.000375	3.749294	1.270295	-0.000150
 802	7.9700e+01	8.0805	34.525585	0.000314	3.141300	1.064301	-0.000126
 803	7.9799e+01	8.0356	34.424656	0.000253	2.533306	0.858307	-0.000101
 804	7.9898e+01	7.9923	34.251060	0.000436	4.357287	1.476289	-0.000174
 805	7.9998e+01	7.9666	34.121871	0.000324	3.242632	1.098634	-0.000130
 806	8.0097e+01	7.9201	33.996720	0.000314	3.141300	1.064301	-0.000126
 807	8.0197e+01	7.8880	33.835235	0.000405	4.053290	1.373292	-0.000162
 808	8.0296e+01	7.8383	33.742380	0.000233	2.330642	0.789643	-0.000093
 809	8.0396e+01	7.7982	33.548598	0.000486	4.863948	1.647950	-0.000195
 810	8.0496e+01	7.7661	33.419410	0.000324	3.242632	1.098634	-0.000130
 811	8.0595e+01	7.7164	33.278110	0.000355	3.546629	1.201630	-0.000142
 812	8.0695e+01	7.6795	33.132773	0.000365	3.647961	1.235963	-0.000146
 813	8.0794e+01	7.6329	32.979362	0.000385	3.850626	1.304627	-0.000154
 814	8.0894e+01	7.6041	32.838062	0.000355	3.546629	1.201630	-0.000142
 815	8.0993e+01	7.5607	32.737134	0.000253	2.533306	0.858307	-0.000101
 816	8.1093e+01	7.5206	32.583723	0.000385	3.850626	1.304627	-0.000154
 817	8.1192e+01	7.4854	32.466646	0.000294	2.938635	0.995637	-0.000118
 818	8.1291e+01	7.4501	32.301123	0.000415	4.154623	1.407624	-0.000166
 819	8.1391e+01	7.3987	32.167898	0.000334	3.343965	1.132966	-0.000134
 820	8.1490e+01	7.3634	32.002375	0.000415	4.154623	1.407624	-0.000166
 821	8.1590e+01	7.3362	31.869150	0.000334	3.343965	1.132966	-0.000134
 822	8.1689e+01	7.2880	31.743998	0.000314	3.141300	1.064301	-0.000126
 823	8.1789e+01	7.2431	31.626921	0.000294	2.938635	0.995637	-0.000118
 824	8.1888e+01	7.2062	31.457362	0.000426	4.255955	1.441957	-0.000170
 825	8.1988e+01	7.1677	31.316062	0.000355	3.546629	1.201630	-0.000142
 826	8.2088e+01	7.1356	31.182836	0.000334	3.343965	1.132966	-0.000134
 827	8.2187e+01	7.0779	31.009240	0.000436	4.357287	1.476289	-0.000174
 828	8.2287e+01	7.0490	30.904274	0.000263	2.634639	0.892640	-0.000105
 829	8.2386e+01	7.0057	30.734714	0.000426	4.255955	1.441957	-0.000170
 830	8.2486e+01	6.9640	30.601489	0.000334	3.343965	1.132966	-0.000134
 831	8.2585e+01	6.9223	30.427892	0.000436	4.357287	1.476289	-0.000174
 832	8.2684e+01	6.8902	30.314852	0.000284	2.837303	0.961304	-0.000114
 833	8.2784e+01	6.8437	30.149330	0.000415	4.154623	1.407624	-0.000166
 834	8.2883e+01	6.8003	29.987844	0.000405	4.053290	1.373292	-0.000162
 835	8.2983e+01	6.7650	29.854619	0.000334	3.343965	1.132966	-0.000134
 836	8.3082e+01	6.7185	29.709282	0.000365	3.647961	1.235963	-0.000146
 837	8.3182e+01	6.6832	29.592205	0.000294	2.938635	0.995637	-0.000118
 838	8.3281e+01	6.6463	29.446868	0.000365	3.647961	1.235963	-0.000146
 839	8.3381e+01	6.6159	29.285383	0.000405	4.053290	1.373292	-0.000162
 840	8.3481e+01	6.5597	29.156194	0.000324	3.242632	1.098634	-0.000130
 841	8.3580e+01	6.5244	29.043154	0.000284	2.837303	0.961304	-0.000114
 842	8.3680e+01	6.4955	28.857446	0.000466	4.661284	1.579286	-0.000187
 843	8.3779e+01	6.4458	28.736332	0.000304	3.039968	1.029969	-0.000122
 844	8.3879e+01	6.4121	28.586958	0.000375	3.749294	1.270295	-0.000150
 845	8.3978e+01	6.3704	28.409324	0.000446	4.458619	1.510621	-0.000179
 846	8.4078e+01	6.3335	28.239764	0.000426	4.255955	1.441957	-0.000170
 847	8.4177e+01	6.2822	28.118650	0.000304	3.039968	1.029969	-0.000122
 848	8.4276e+01	6.2469	28.009648	0.000274	2.735971	0.926972	-0.000110
 849	8.4376e+01	6.2164	27.827977	0.000456	4.559952	1.544953	-0.000183
 850	8.4475e+01	6.1731	27.706863	0.000304	3.039968	1.029969	-0.000122
 851	8.4575e+01	6.1266	27.541340	0.000415	4.154623	1.407624	-0.000166
 852	8.4674e+01	6.0897	27.408115	0.000334	3.343965	1.132966	-0.000134
 853	8.4774e+01	6.0431	27.287000	0.000304	3.039968	1.029969	-0.000122
 854	8.4874e+01	6.0127	27.093218	0.000486	4.863948	1.647950	-0.000195
 855	8.4973e+01	5.9742	26.964030	0.000324	3.242632	1.098634	-0.000130
 856	8.5073e+01	5.9276	26.762173	0.000507	5.066613	1.716615	-0.000203
 857	8.5172e+01	5.8907	26.608762	0.000385	3.850626	1.304627	-0.000154
 858	8.5272e+01	5.8522	26.495722	0.000284	2.837303	0.961304	-0.000114
 859	8.5371e+01	5.8105	26.326162	0.000426	4.255955	1.441957	-0.000170
 860	8.5471e+01	5.7656	26.180825	0.000365	3.647961	1.235963	-0.000146
 861	8.5570e+01	5.7383	26.031451	0.000375	3.749294	1.270295	-0.000150
 862	8.5669e+01	5.6918	25.906300	0.000314	3.141300	1.064301	-0.000126
 863	8.5769e+01	5.6501	25.769037	0.000345	3.445297	1.167298	-0.000138
 864	8.5868e+01	5.6052	25.607552	0.000405	4.053290	1.373292	-0.000162
 865	8.5968e+01	5.5667	25.450104	0.000395	3.951958	1.338960	-0.000158
 866	8.6067e+01	5.5330	25.292655	0.000395	3.951958	1.338960	-0.000158
 867	8.6167e+01	5.4881	25.135207	0.000395	3.951958	1.338960	-0.000158
 868	8.6266e+01	5.4544	24.957573	0.000446	4.458619	1.510621	-0.000179
 869	8.6366e+01	5.4047	24.844533	0.000284	2.837303	0.961304	-0.000114
 870	8.6466e+01	5.3742	24.719382	0.000314	3.141300	1.064301	-0.000126
 871	8.6565e+01	5.3277	24.525600	0.000486	4.863948	1.647950	-0.000195
 872	8.6665e+01	5.2972	24.400448	0.000314	3.141300	1.064301	-0.000126
 873	8.6764e+01	5.2603	24.238963	0.000405	4.053290	1.373292	-0.000162
 874	8.6864e+01	5.2089	24.085552	0.000385	3.850626	1.304627	-0.000154
 875	8.6963e+01	5.1704	23.948289	0.000345	3.445297	1.167298	-0.000138
 876	8.7063e+01	5.1464	23.742395	0.000517	5.167945	1.750947	-0.000207
 877	8.7162e+01	5.0886	23.621281	0.000304	3.039968	1.029969	-0.000122
 878	8.7261e+01	5.0565	23.475944	0.000365	3.647961	1.235963	-0.000146
 879	8.7361e+01	5.0196	23.290236	0.000466	4.661284	1.579286	-0.000187
 880	8.7460e+01	4.9699	23.169122	0.000304	3.039968	1.029969	-0.000122
 881	8.7560e+01	4.9266	22.979377	0.000476	4.762616	1.613618	-0.000191
 882	8.7659e+01	4.8945	22.817891	0.000405	4.053290	1.373292	-0.000162
 883	8.7759e+01	4.8528	22.676591	0.000355	3.546629	1.201630	-0.000142
 884	8.7859e+01	4.8191	22.551440	0.000314	3.141300	1.064301	-0.000126
 885	8.7958e+01	4.7806	22.402066	0.000375	3.749294	1.270295	-0.000150
 886	8.8058e+01	4.7277	22.236544	0.000415	4.154623	1.407624	-0.000166
 887	8.8157e+01	4.6940	22.071021	0.000415	4.154623	1.407624	-0.000166
 888	8.8257e+01	4.6651	21.937796	0.000334	3.343965	1.132966	-0.000134
 889	8.8356e+01	4.6058	21.772273	0.000415	4.154623	1.407624	-0.000166
 890	8.8456e+01	4.5769	21.610788	0.000405	4.053290	1.373292	-0.000162
 891	8.8555e+01	4.5304	21.465451	0.000365	3.647961	1.235963	-0.000146
 892	8.8654e+01	4.4967	21.279742	0.000466	4.661284	1.579286	-0.000187
 893	8.8754e+01	4.4534	21.134406	0.000365	3.647961	1.235963	-0.000146
 894	8.8853e+01	4.4084	20.968883	0.000415	4.154623	1.407624	-0.000166
 895	8.8953e+01	4.3780	20.819509	0.000375	3.749294	1.270295	-0.000150
 896	8.9052e+01	4.3362	20.662061	0.000395	3.951958	1.338960	-0.000158
 897	8.9152e+01	4.2993	20.528835	0.000334	3.343965	1.132966	-0.000134
 898	8.9251e+01	4.2576	20.322941	0.000517	5.167945	1.750947	-0.000207
 899	8.9351e+01	4.2159	20.226050	0.000243	2.431974	0.823975	-0.000097
 900	8.9451e+01	4.1774	20.020156	0.000517	5.167945	1.750947	-0.000207
 901	8.9550e+01	4.1421	19.862708	0.000395	3.951958	1.338960	-0.000158
 902	8.9650e+01	4.0860	19.761779	0.000253	2.533306	0.858307	-0.000101
 903	8.9749e+01	4.0523	19.563960	0.000497	4.965281	1.682283	-0.000199
 904	8.9849e+01	4.0250	19.386326	0.000446	4.458619	1.510621	-0.000179
 905	8.9948e+01	3.9833	19.176395	0.000527	5.269277	1.785280	-0.000211
 906	9.0047e+01	3.9352	19.071429	0.000263	2.634639	0.892640	-0.000105
 907	9.0147e+01	3.9015	18.909944	0.000405	4.053290	1.373292	-0.000162
 908	9.0246e+01	3.8566	18.764607	0.000365	3.647961	1.235963	-0.000146
 909	9.0346e+01	3.8197	18.570824	0.000486	4.863948	1.647950	-0.000195
 910	9.0445e+01	3.7748	18.421450	0.000375	3.749294	1.270295	-0.000150
 911	9.0545e+01	3.7443	18.259965	0.000405	4.053290	1.373292	-0.000162
 912	9.0644e+01	3.6897	18.086368	0.000436	4.357287	1.476289	-0.000174
 913	9.0744e+01	3.6641	17.973328	0.000284	2.837303	0.961304	-0.000114
 914	9.0844e+01	3.6111	17.787620	0.000466	4.661284	1.579286	-0.000187
 915	9.0943e+01	3.5790	17.642283	0.000365	3.647961	1.235963	-0.000146
 916	9.1043e+01	3.5373	17.452538	0.000476	4.762616	1.613618	-0.000191
 917	9.1142e+01	3.4972	17.327387	0.000314	3.141300	1.064301	-0.000126
 918	9.1242e+01	3.4619	17.157827	0.000426	4.255955	1.441957	-0.000170
 919	9.1341e+01	3.4186	16.972119	0.000466	4.661284	1.579286	-0.000187
 920	9.1441e+01	3.3737	16.786410	0.000466	4.661284	1.579286	-0.000187
 921	9.1540e+01	3.3400	16.649148	0.000345	3.445297	1.167298	-0.000138
 922	9.1639e+01	3.3063	16.491699	0.000395	3.951958	1.338960	-0.000158
 923	9.1739e+01	3.2614	16.338288	0.000385	3.850626	1.304627	-0.000154
 924	9.1838e+01	3.2229	16.156617	0.000456	4.559952	1.544953	-0.000183
 925	9.1938e+01	3.1844	15.978983	0.000446	4.458619	1.510621	-0.000179
 926	9.2037e+01	3.1427	15.789238	0.000476	4.762616	1.613618	-0.000191
 927	9.2137e+01	3.1010	15.664087	0.000314	3.141300	1.064301	-0.000126
 928	9.2237e+01	3.0609	15.514713	0.000375	3.749294	1.270295	-0.000150
 929	9.2336e+01	3.0240	15.345153	0.000426	4.255955	1.441957	-0.000170
 930	9.2436e+01	2.9726	15.155408	0.000476	4.762616	1.613618	-0.000191
 931	9.2535e+01	2.9390	14.973736	0.000456	4.559952	1.544953	-0.000183
 932	9.2635e+01	2.9053	14.876845	0.000243	2.431974	0.823975	-0.000097
 933	9.2734e+01	2.8620	14.666914	0.000527	5.269277	1.785280	-0.000211
 934	9.2834e+01	2.8251	14.493317	0.000436	4.357287	1.476289	-0.000174
 935	9.2933e+01	2.7833	14.327795	0.000415	4.154623	1.407624	-0.000166
 936	9.3032e+01	2.7529	14.150161	0.000446	4.458619	1.510621	-0.000179
 937	9.3132e+01	2.6951	13.976564	0.000436	4.357287	1.476289	-0.000174
 938	9.3231e+01	2.6694	13.831227	0.000365	3.647961	1.235963	-0.000146
 939	9.3331e+01	2.6149	13.625333	0.000517	5.167945	1.750947	-0.000207
 940	9.3430e+01	2.5892	13.484033	0.000355	3.546629	1.201630	-0.000142
 941	9.3530e+01	2.5347	13.298325	0.000466	4.661284	1.579286	-0.000187
 942	9.3629e+01	2.5106	13.136840	0.000405	4.053290	1.373292	-0.000162
 943	9.3729e+01	2.4657	12.983429	0.000385	3.850626	1.304627	-0.000154
 944	9.3829e+01	2.4288	12.801757	0.000456	4.559952	1.544953	-0.000183
 945	9.3928e+01	2.3807	12.656421	0.000365	3.647961	1.235963	-0.000146
 946	9.4028e+01	2.3390	12.462638	0.000486	4.863948	1.647950	-0.000195
 947	9.4127e+01	2.3085	12.293078	0.000426	4.255955	1.441957	-0.000170
 948	9.4227e+01	2.2588	12.107370	0.000466	4.661284	1.579286	-0.000187
 949	9.4326e+01	2.2267	11.949922	0.000395	3.951958	1.338960	-0.000158
 950	9.4425e+01	2.1785	11.780362	0.000426	4.255955	1.441957	-0.000170
 951	9.4525e+01	2.1336	11.610802	0.000426	4.255955	1.441957	-0.000170
 952	9.4624e+01	2.1048	11.449317	0.000405	4.053290	1.373292	-0.000162
 953	9.4724e+01	2.0614	11.271683	0.000446	4.458619	1.510621	-0.000179
 954	9.4823e+01	2.0342	11.118272	0.000385	3.850626	1.304627	-0.000154
 955	9.4923e+01	1.9812	10.876044	0.000608	6.079935	2.059938	-0.000243
 956	9.5022e+01	1.9507	10.763004	0.000284	2.837303	0.961304	-0.000114
 957	9.5122e+01	1.9042	10.593444	0.000426	4.255955	1.441957	-0.000170
 958	9.5222e+01	1.8625	10.391587	0.000507	5.066613	1.716615	-0.000203
 959	9.5321e+01	1.8304	10.250288	0.000355	3.546629	1.201630	-0.000142
 960	9.5421e+01	1.7855	10.080728	0.000426	4.255955	1.441957	-0.000170
 961	9.5520e+01	1.7406	9.886945	0.000486	4.863948	1.647950	-0.000195
 962	9.5620e+01	1.7021	9.721423	0.000415	4.154623	1.407624	-0.000166
 963	9.5719e+01	1.6668	9.563975	0.000395	3.951958	1.338960	-0.000158
 964	9.5819e+01	1.6299	9.329821	0.000588	5.877271	1.991273	-0.000235
 965	9.5918e+01	1.5802	9.176410	0.000385	3.850626	1.304627	-0.000154
 966	9.6017e+01	1.5465	8.962441	0.000537	5.370610	1.819612	-0.000215
 967	9.6117e+01	1.5080	8.857476	0.000263	2.634639	0.892640	-0.000105
 968	9.6216e+01	1.4631	8.663693	0.000486	4.863948	1.647950	-0.000195
 969	9.6316e+01	1.4246	8.453762	0.000527	5.269277	1.785280	-0.000211
 970	9.6415e+01	1.3893	8.324574	0.000324	3.242632	1.098634	-0.000130
 971	9.6515e+01	1.3411	8.122717	0.000507	5.066613	1.716615	-0.000203
 972	9.6615e+01	1.3091	7.912786	0.000527	5.269277	1.785280	-0.000211
 973	9.6714e+01	1.2738	7.767449	0.000365	3.647961	1.235963	-0.000146
 974	9.6814e+01	1.2288	7.593852	0.000436	4.357287	1.476289	-0.000174
 975	9.6913e+01	1.2016	7.387958	0.000517	5.167945	1.750947	-0.000207
 976	9.7013e+01	1.1518	7.218399	0.000426	4.255955	1.441957	-0.000170
 977	9.7112e+01	1.1085	7.044802	0.000436	4.357287	1.476289	-0.000174
 978	9.7212e+01	1.0668	6.871205	0.000436	4.357287	1.476289	-0.000174
 979	9.7311e+01	1.0315	6.697608	0.000436	4.357287	1.476289	-0.000174
 980	9.7410e+01	0.9834	6.507863	0.000476	4.762616	1.613618	-0.000191
 981	9.7510e+01	0.9449	6.358489	0.000375	3.749294	1.270295	-0.000150
 982	9.7609e+01	0.9096	6.152595	0.000517	5.167945	1.750947	-0.000207
 983	9.7709e+01	0.8679	5.995147	0.000395	3.951958	1.338960	-0.000158
 984	9.7808e+01	0.8278	5.793290	0.000507	5.066613	1.716615	-0.000203
 985	9.7908e+01	0.7861	5.595470	0.000497	4.965281	1.682283	-0.000199
 986	9.8007e+01	0.7476	5.474356	0.000304	3.039968	1.029969	-0.000122
 987	9.8107e+01	0.7075	5.244239	0.000578	5.775939	1.956941	-0.000231
 988	9.8207e+01	0.6658	5.078717	0.000415	4.154623	1.407624	-0.000166
 989	9.8306e+01	0.6273	4.844563	0.000588	5.877271	1.991273	-0.000235
 990	9.8406e+01	0.5984	4.707300	0.000345	3.445297	1.167298	-0.000138
 991	9.8505e+01	0.5390	4.521592	0.000466	4.661284	1.579286	-0.000187
 992	9.8605e+01	0.5182	4.335884	0.000466	4.661284	1.579286	-0.000187
 993	9.8704e+01	0.4652	4.182473	0.000385	3.850626	1.304627	-0.000154
 994	9.8803e+01	0.4315	3.980616	0.000507	5.066613	1.716615	-0.000203
 995	9.8903e+01	0.3930	3.770685	0.000527	5.269277	1.785280	-0.000211
 996	9.9002e+01	0.3481	3.568828	0.000507	5.066613	1.716615	-0.000203
 997	9.9102e+01	0.3176	3.423491	0.000365	3.647961	1.235963	-0.000146
 998	9.9201e+01	0.2727	3.249894	0.000436	4.357287	1.476289	-0.000174
 999	9.9301e+01	0.2471	3.052075	0.000497	4.965281	1.682283	-0.000199
1000	9.9400e+01	0.1957	2.882515	0.000426	4.255955	1.441957	-0.000170
1001	9.9500e+01	0.1524	2.688732	0.000486	4.863948	1.647950	-0.000195
1002	9.9600e+01	0.1027	2.531284	0.000395	3.951958	1.338960	-0.000158
1003	9.9699e+01	0.0722	2.325390	0.000517	5.167945	1.750947	-0.000207
1004	9.9799e+01	0.0289	2.123533	0.000507	5.066613	1.716615	-0.000203
1005	9.9898e+01	0.0048	2.022605	0.000253	2.533306	0.858307	-0.000101
1006	9.9998e+01	-0.0401	1.808637	0.000537	5.370610	1.819612	-0.000215
1007	1.0010e+02	-0.0834	1.614854	0.000486	4.863948	1.647950	-0.000195
1008	1.0020e+02	-0.1219	1.461443	0.000385	3.850626	1.304627	-0.000154
1009	1.0030e+02	-0.1588	1.243438	0.000547	5.471942	1.853944	-0.000219
1010	1.0040e+02	-0.2005	1.061767	0.000456	4.559952	1.544953	-0.000183
1011	1.0050e+02	-0.2390	0.863947	0.000497	4.965281	1.682283	-0.000199
1012	1.0059e+02	-0.2856	0.690350	0.000436	4.357287	1.476289	-0.000174
1013	1.0069e+02	-0.3273	0.520791	0.000426	4.255955	1.441957	-0.000170
1014	1.0079e+02	-0.3593	0.302785	0.000547	5.471942	1.853944	-0.000219
1015	1.0089e+02	-0.3978	0.153411	0.000375	3.749294	1.270295	-0.000150
1016	1.0099e+02	-0.4460	-0.028260	0.000456	4.559952	1.544953	-0.000183
1017	1.0109e+02	-0.4813	-0.234154	0.000517	5.167945	1.750947	-0.000207
1018	1.0119e+02	-0.5150	-0.436011	0.000507	5.066613	1.716615	-0.000203
1019	1.0129e+02	-0.5631	-0.645942	0.000527	5.269277	1.785280	-0.000211
1020	1.0139e+02	-0.5968	-0.819539	0.000436	4.357287	1.476289	-0.000174
1021	1.0149e+02	-0.6369	-0.993135	0.000436	4.357287	1.476289	-0.000174
1022	1.0159e+02	-0.6818	-1.170769	0.000446	4.458619	1.510621	-0.000179
1023	1.0169e+02	-0.7107	-1.348403	0.000446	4.458619	1.510621	-0.000179
1024	1.0179e+02	-0.7588	-1.570446	0.000557	5.573274	1.888276	-0.000223
1025	1.0189e+02	-0.7893	-1.780377	0.000527	5.269277	1.785280	-0.000211
1026	1.0199e+02	-0.8358	-1.917639	0.000345	3.445297	1.167298	-0.000138
1027	1.0209e+02	-0.8727	-2.131608	0.000537	5.370610	1.819612	-0.000215
1028	1.0219e+02	-0.9160	-2.272907	0.000355	3.546629	1.201630	-0.000142
1029	1.0229e+02	-0.9593	-2.474764	0.000507	5.066613	1.716615	-0.000203
1030	1.0239e+02	-1.0010	-2.652398	0.000446	4.458619	1.510621	-0.000179
1031	1.0248e+02	-1.0315	-2.894626	0.000608	6.079935	2.059938	-0.000243
1032	1.0258e+02	-1.0716	-3.056112	0.000405	4.053290	1.373292	-0.000162
1033	1.0268e+02	-1.1214	-3.253931	0.000497	4.965281	1.682283	-0.000199
1034	1.0278e+02	-1.1502	-3.431565	0.000446	4.458619	1.510621	-0.000179
1035	1.0288e+02	-1.2016	-3.629385	0.000497	4.965281	1.682283	-0.000199
1036	1.0298e+02	-1.2337	-3.794908	0.000415	4.154623	1.407624	-0.000166
1037	1.0308e+02	-1.2786	-3.988690	0.000486	4.863948	1.647950	-0.000195
1038	1.0318e+02	-1.3139	-4.174398	0.000466	4.661284	1.579286	-0.000187
1039	1.0328e+02	-1.3636	-4.343958	0.000426	4.255955	1.441957	-0.000170
1040	1.0338e+02	-1.3925	-4.541778	0.000497	4.965281	1.682283	-0.000199
1041	1.0348e+02	-1.4358	-4.719412	0.000446	4.458619	1.510621	-0.000179
1042	1.0358e+02	-1.4695	-4.929343	0.000527	5.269277	1.785280	-0.000211
1043	1.0368e+02	-1.5144	-5.098902	0.000426	4.255955	1.441957	-0.000170
1044	1.0378e+02	-1.5513	-5.304796	0.000517	5.167945	1.750947	-0.000207
1045	1.0388e+02	-1.5930	-5.478393	0.000436	4.357287	1.476289	-0.000174
1046	1.0398e+02	-1.6315	-5.692361	0.000537	5.370610	1.819612	-0.000215
1047	1.0408e+02	-1.6764	-5.857884	0.000415	4.154623	1.407624	-0.000166
1048	1.0418e+02	-1.7117	-6.007258	0.000375	3.749294	1.270295	-0.000150
1049	1.0428e+02	-1.7582	-6.253523	0.000618	6.181268	2.094270	-0.000248
1050	1.0438e+02	-1.7935	-6.406934	0.000385	3.850626	1.304627	-0.000154
1051	1.0447e+02	-1.8288	-6.580531	0.000436	4.357287	1.476289	-0.000174
1052	1.0457e+02	-1.8802	-6.774314	0.000486	4.863948	1.647950	-0.000195
1053	1.0467e+02	-1.9122	-6.951948	0.000446	4.458619	1.510621	-0.000179
1054	1.0477e+02	-1.9556	-7.129582	0.000446	4.458619	1.510621	-0.000179
1055	1.0487e+02	-1.9909	-7.303179	0.000436	4.357287	1.476289	-0.000174
1056	1.0497e+02	-2.0374	-7.488887	0.000466	4.661284	1.579286	-0.000187
1057	1.0507e+02	-2.0807	-7.674595	0.000466	4.661284	1.579286	-0.000187
1058	1.0517e+02	-2.1224	-7.856266	0.000456	4.559952	1.544953	-0.000183
1059	1.0527e+02	-2.1384	-8.013714	0.000395	3.951958	1.338960	-0.000158
1060	1.0537e+02	-2.1962	-8.239794	0.000567	5.674606	1.922609	-0.000227
1061	1.0547e+02	-2.2347	-8.397242	0.000395	3.951958	1.338960	-0.000158
1062	1.0557e+02	-2.2796	-8.607173	0.000527	5.269277	1.785280	-0.000211
1063	1.0567e+02	-2.3133	-8.764622	0.000395	3.951958	1.338960	-0.000158
1064	1.0577e+02	-2.3534	-8.958404	0.000486	4.863948	1.647950	-0.000195
1065	1.0587e+02	-2.3871	-9.132001	0.000436	4.357287	1.476289	-0.000174
1066	1.0597e+02	-2.4240	-9.313672	0.000456	4.559952	1.544953	-0.000183
1067	1.0607e+02	-2.4817	-9.483232	0.000426	4.255955	1.441957	-0.000170
1068	1.0617e+02	-2.5106	-9.664903	0.000456	4.559952	1.544953	-0.000183
1069	1.0627e+02	-2.5491	-9.834463	0.000426	4.255955	1.441957	-0.000170
1070	1.0637e+02	-2.5876	-10.024208	0.000476	4.762616	1.613618	-0.000191
1071	1.0647e+02	-2.6342	-10.165508	0.000355	3.546629	1.201630	-0.000142
1072	1.0656e+02	-2.6759	-10.383513	0.000547	5.471942	1.853944	-0.000219
1073	1.0666e+02	-2.7015	-10.549036	0.000415	4.154623	1.407624	-0.000166
1074	1.0676e+02	-2.7545	-10.758967	0.000527	5.269277	1.785280	-0.000211
1075	1.0686e+02	-2.7833	-10.912378	0.000385	3.850626	1.304627	-0.000154
1076	1.0696e+02	-2.8299	-11.085975	0.000436	4.357287	1.476289	-0.000174
1077	1.0706e+02	-2.8684	-11.259572	0.000436	4.357287	1.476289	-0.000174
1078	1.0716e+02	-2.9181	-11.433168	0.000436	4.357287	1.476289	-0.000174
1079	1.0726e+02	-2.9454	-11.626951	0.000486	4.863948	1.647950	-0.000195
1080	1.0736e+02	-2.9951	-11.744028	0.000294	2.938635	0.995637	-0.000118
1081	1.0746e+02	-3.0352	-11.957996	0.000537	5.370610	1.819612	-0.000215
1082	1.0756e+02	-3.0737	-12.131593	0.000436	4.357287	1.476289	-0.000174
1083	1.0766e+02	-3.1122	-12.317301	0.000466	4.661284	1.579286	-0.000187
1084	1.0776e+02	-3.1459	-12.478787	0.000405	4.053290	1.373292	-0.000162
1085	1.0786e+02	-3.1892	-12.680643	0.000507	5.066613	1.716615	-0.000203
1086	1.0796e+02	-3.2293	-12.834055	0.000385	3.850626	1.304627	-0.000154
1087	1.0806e+02	-3.2710	-12.999577	0.000415	4.154623	1.407624	-0.000166
1088	1.0816e+02	-3.3079	-13.152988	0.000385	3.850626	1.304627	-0.000154
1089	1.0826e+02	-3.3480	-13.342734	0.000476	4.762616	1.613618	-0.000191
1090	1.0836e+02	-3.3930	-13.556702	0.000537	5.370610	1.819612	-0.000215
1091	1.0845e+02	-3.4347	-13.669742	0.000284	2.837303	0.961304	-0.000114
1092	1.0855e+02	-3.4619	-13.855450	0.000466	4.661284	1.579286	-0.000187
1093	1.0865e+02	-3.5085	-14.020972	0.000415	4.154623	1.407624	-0.000166
1094	1.0875e+02	-3.5438	-14.194569	0.000436	4.357287	1.476289	-0.000174
1095	1.0885e+02	-3.5839	-14.376240	0.000456	4.559952	1.544953	-0.000183
1096	1.0895e+02	-3.6400	-14.529652	0.000385	3.850626	1.304627	-0.000154
1097	1.0905e+02	-3.6657	-14.723434	0.000486	4.863948	1.647950	-0.000195
1098	1.0915e+02	-3.7058	-14.901068	0.000446	4.458619	1.510621	-0.000179
1099	1.0925e+02	-3.7411	-15.006034	0.000263	2.634639	0.892640	-0.000105
1100	1.0935e+02	-3.7908	-15.220002	0.000537	5.370610	1.819612	-0.000215
1101	1.0945e+02	-3.8213	-15.417821	0.000497	4.965281	1.682283	-0.000199
1102	1.0955e+02	-3.8582	-15.555084	0.000345	3.445297	1.167298	-0.000138
1103	1.0965e+02	-3.9063	-15.732718	0.000446	4.458619	1.510621	-0.000179
1104	1.0975e+02	-3.9432	-15.906315	0.000436	4.357287	1.476289	-0.000174
1105	1.0985e+02	-3.9817	-16.079912	0.000436	4.357287	1.476289	-0.000174
1106	1.0995e+02	-4.0202	-16.217174	0.000345	3.445297	1.167298	-0.000138
1107	1.1005e+02	-4.0683	-16.394808	0.000446	4.458619	1.510621	-0.000179
1108	1.1015e+02	-4.1133	-16.576479	0.000456	4.559952	1.544953	-0.000183
1109	1.1025e+02	-4.1534	-16.725853	0.000375	3.749294	1.270295	-0.000150
1110	1.1035e+02	-4.1790	-16.887339	0.000405	4.053290	1.373292	-0.000162
1111	1.1044e+02	-4.2368	-17.093233	0.000517	5.167945	1.750947	-0.000207
1112	1.1054e+02	-4.2657	-17.202235	0.000274	2.735971	0.926972	-0.000110
1113	1.1064e+02	-4.3058	-17.383906	0.000456	4.559952	1.544953	-0.000183
1114	1.1074e+02	-4.3411	-17.537318	0.000385	3.850626	1.304627	-0.000154
1115	1.1084e+02	-4.3860	-17.666506	0.000324	3.242632	1.098634	-0.000130
1116	1.1094e+02	-4.4261	-17.872400	0.000517	5.167945	1.750947	-0.000207
1117	1.1104e+02	-4.4694	-18.041960	0.000426	4.255955	1.441957	-0.000170
1118	1.1114e+02	-4.5111	-18.150962	0.000274	2.735971	0.926972	-0.000110
1119	1.1124e+02	-4.5400	-18.348782	0.000497	4.965281	1.682283	-0.000199
1120	1.1134e+02	-4.5833	-18.530453	0.000456	4.559952	1.544953	-0.000183
1121	1.1144e+02	-4.6250	-18.691938	0.000405	4.053290	1.373292	-0.000162
1122	1.1154e+02	-4.6651	-18.853424	0.000405	4.053290	1.373292	-0.000162
1123	1.1164e+02	-4.7132	-19.002798	0.000375	3.749294	1.270295	-0.000150
1124	1.1174e+02	-4.7469	-19.136023	0.000334	3.343965	1.132966	-0.000134
1125	1.1184e+02	-4.7822	-19.317695	0.000456	4.559952	1.544953	-0.000183
1126	1.1194e+02	-4.8207	-19.479180	0.000405	4.053290	1.373292	-0.000162
1127	1.1204e+02	-4.8608	-19.668925	0.000476	4.762616	1.613618	-0.000191
1128	1.1214e+02	-4.9057	-19.830411	0.000405	4.053290	1.373292	-0.000162
1129	1.1224e+02	-4.9539	-19.931339	0.000253	2.533306	0.858307	-0.000101
1130	1.1234e+02	-4.9811	-20.108973	0.000446	4.458619	1.510621	-0.000179
1131	1.1244e+02	-5.0212	-20.294681	0.000466	4.661284	1.579286	-0.000187
1132	1.1253e+02	-5.0581	-20.431944	0.000345	3.445297	1.167298	-0.000138
1133	1.1263e+02	-5.1095	-20.617652	0.000466	4.661284	1.579286	-0.000187
1134	1.1273e+02	-5.1496	-20.771063	0.000385	3.850626	1.304627	-0.000154
1135	1.1283e+02	-5.1849	-20.896215	0.000314	3.141300	1.064301	-0.000126
1136	1.1293e+02	-5.2314	-21.061737	0.000415	4.154623	1.407624	-0.000166
1137	1.1303e+02	-5.2571	-21.255520	0.000486	4.863948	1.647950	-0.000195
1138	1.1313e+02	-5.3020	-21.380671	0.000314	3.141300	1.064301	-0.000126
1139	1.1323e+02	-5.3453	-21.546193	0.000415	4.154623	1.407624	-0.000166
1140	1.1333e+02	-5.3822	-21.723827	0.000446	4.458619	1.510621	-0.000179
1141	1.1343e+02	-5.4207	-21.848979	0.000314	3.141300	1.064301	-0.000126
1142	1.1353e+02	-5.4656	-21.998353	0.000375	3.749294	1.270295	-0.000150
1143	1.1363e+02	-5.4977	-22.155801	0.000395	3.951958	1.338960	-0.000158
1144	1.1373e+02	-5.5458	-22.297101	0.000355	3.546629	1.201630	-0.000142
1145	1.1383e+02	-5.5843	-22.462623	0.000415	4.154623	1.407624	-0.000166
1146	1.1393e+02	-5.6148	-22.620072	0.000395	3.951958	1.338960	-0.000158
1147	1.1403e+02	-5.6501	-22.773483	0.000385	3.850626	1.304627	-0.000154
1148	1.1413e+02	-5.6918	-22.951117	0.000446	4.458619	1.510621	-0.000179
1149	1.1423e+02	-5.7415	-23.104528	0.000385	3.850626	1.304627	-0.000154
1150	1.1433e+02	-5.7801	-23.229679	0.000314	3.141300	1.064301	-0.000126
1151	1.1442e+02	-5.8105	-23.403276	0.000436	4.357287	1.476289	-0.000174
1152	1.1452e+02	-5.8571	-23.584947	0.000456	4.559952	1.544953	-0.000183
1153	1.1462e+02	-5.9068	-23.706061	0.000304	3.039968	1.029969	-0.000122
1154	1.1472e+02	-5.9389	-23.815064	0.000274	2.735971	0.926972	-0.000110
1155	1.1482e+02	-5.9918	-24.029032	0.000537	5.370610	1.819612	-0.000215
1156	1.1492e+02	-6.0175	-24.129960	0.000253	2.533306	0.858307	-0.000101
1157	1.1502e+02	-6.0640	-24.279334	0.000375	3.749294	1.270295	-0.000150
1158	1.1512e+02	-6.0945	-24.469080	0.000476	4.762616	1.613618	-0.000191
1159	1.1522e+02	-6.1394	-24.574045	0.000263	2.634639	0.892640	-0.000105
1160	1.1532e+02	-6.1827	-24.755716	0.000456	4.559952	1.544953	-0.000183
1161	1.1542e+02	-6.2228	-24.897016	0.000355	3.546629	1.201630	-0.000142
1162	1.1552e+02	-6.2549	-25.058502	0.000405	4.053290	1.373292	-0.000162
1163	1.1562e+02	-6.3046	-25.147319	0.000223	2.229310	0.755311	-0.000089
1164	1.1572e+02	-6.3415	-25.369361	0.000557	5.573274	1.888276	-0.000223
1165	1.1582e+02	-6.3672	-25.498549	0.000324	3.242632	1.098634	-0.000130
1166	1.1592e+02	-6.4201	-25.639849	0.000355	3.546629	1.201630	-0.000142
1167	1.1602e+02	-6.4506	-25.821520	0.000456	4.559952	1.544953	-0.000183
1168	1.1612e+02	-6.4859	-25.938597	0.000294	2.938635	0.995637	-0.000118
1169	1.1622e+02	-6.5372	-26.112194	0.000436	4.357287	1.476289	-0.000174
1170	1.1632e+02	-6.5854	-26.237345	0.000314	3.141300	1.064301	-0.000126
1171	1.1642e+02	-6.6207	-26.398831	0.000405	4.053290	1.373292	-0.000162
1172	1.1651e+02	-6.6415	-26.552242	0.000385	3.850626	1.304627	-0.000154
1173	1.1661e+02	-6.7009	-26.665282	0.000284	2.837303	0.961304	-0.000114
1174	1.1671e+02	-6.7362	-26.810618	0.000365	3.647961	1.235963	-0.000146
1175	1.1681e+02	-6.7747	-26.976141	0.000415	4.154623	1.407624	-0.000166
1176	1.1691e+02	-6.8052	-27.137626	0.000405	4.053290	1.373292	-0.000162
1177	1.1701e+02	-6.8581	-27.234518	0.000243	2.431974	0.823975	-0.000097
1178	1.1711e+02	-6.8918	-27.408115	0.000436	4.357287	1.476289	-0.000174
1179	1.1721e+02	-6.9367	-27.565563	0.000395	3.951958	1.338960	-0.000158
1180	1.1731e+02	-6.9656	-27.698788	0.000334	3.343965	1.132966	-0.000134
1181	1.1741e+02	-7.0153	-27.868348	0.000426	4.255955	1.441957	-0.000170
1182	1.1751e+02	-7.0522	-27.977351	0.000274	2.735971	0.926972	-0.000110
1183	1.1761e+02	-7.1051	-28.159022	0.000456	4.559952	1.544953	-0.000183
1184	1.1771e+02	-7.1356	-28.300322	0.000355	3.546629	1.201630	-0.000142
1185	1.1781e+02	-7.1757	-28.421436	0.000304	3.039968	1.029969	-0.000122
1186	1.1791e+02	-7.2126	-28.566772	0.000365	3.647961	1.235963	-0.000146
1187	1.1801e+02	-7.2543	-28.708072	0.000355	3.546629	1.201630	-0.000142
1188	1.1811e+02	-7.2848	-28.849372	0.000355	3.546629	1.201630	-0.000142
1189	1.1821e+02	-7.3346	-29.002783	0.000385	3.850626	1.304627	-0.000154
1190	1.1831e+02	-7.3634	-29.140046	0.000345	3.445297	1.167298	-0.000138
1191	1.1841e+02	-7.4100	-29.313643	0.000436	4.357287	1.476289	-0.000174
1192	1.1850e+02	-7.4501	-29.463017	0.000375	3.749294	1.270295	-0.000150
1193	1.1860e+02	-7.5030	-29.580094	0.000294	2.938635	0.995637	-0.000118
1194	1.1870e+02	-7.5271	-29.757728	0.000446	4.458619	1.510621	-0.000179
1195	1.1880e+02	-7.5768	-29.903064	0.000365	3.647961	1.235963	-0.000146
1196	1.1890e+02	-7.6089	-30.032253	0.000324	3.242632	1.098634	-0.000130
1197	1.1900e+02	-7.6538	-30.165478	0.000334	3.343965	1.132966	-0.000134
1198	1.1910e+02	-7.6875	-30.318889	0.000385	3.850626	1.304627	-0.000154
1199	1.1920e+02	-7.7276	-30.448078	0.000324	3.242632	1.098634	-0.000130
1200	1.1930e+02	-7.7677	-30.573229	0.000314	3.141300	1.064301	-0.000126
1201	1.1940e+02	-7.7998	-30.726640	0.000385	3.850626	1.304627	-0.000154
1202	1.1950e+02	-7.8431	-30.859866	0.000334	3.343965	1.132966	-0.000134
1203	1.1960e+02	-7.8816	-30.980980	0.000304	3.039968	1.029969	-0.000122
1204	1.1970e+02	-7.9249	-31.166688	0.000466	4.661284	1.579286	-0.000187
1205	1.1980e+02	-7.9682	-31.307988	0.000355	3.546629	1.201630	-0.000142
1206	1.1990e+02	-8.0035	-31.412953	0.000263	2.634639	0.892640	-0.000105
1207	1.2000e+02	-8.0436	-31.590587	0.000446	4.458619	1.510621	-0.000179
1208	1.2010e+02	-8.0853	-31.715738	0.000314	3.141300	1.064301	-0.000126
1209	1.2020e+02	-8.1270	-31.828778	0.000284	2.837303	0.961304	-0.000114
1210	1.2030e+02	-8.1704	-31.986226	0.000395	3.951958	1.338960	-0.000158
1211	1.2039e+02	-8.2121	-32.139638	0.000385	3.850626	1.304627	-0.000154
1212	1.2049e+02	-8.2458	-32.260752	0.000304	3.039968	1.029969	-0.000122
1213	1.2059e+02	-8.2859	-32.385903	0.000314	3.141300	1.064301	-0.000126
1214	1.2069e+02	-8.3212	-32.579685	0.000486	4.863948	1.647950	-0.000195
1215	1.2079e+02	-8.3613	-32.672540	0.000233	2.330642	0.789643	-0.000093
1216	1.2089e+02	-8.4142	-32.838062	0.000415	4.154623	1.407624	-0.000166
1217	1.2099e+02	-8.4495	-32.971288	0.000334	3.343965	1.132966	-0.000134
1218	1.2109e+02	-8.4896	-33.128736	0.000395	3.951958	1.338960	-0.000158
1219	1.2119e+02	-8.5217	-33.225627	0.000243	2.431974	0.823975	-0.000097
1220	1.2129e+02	-8.5602	-33.395187	0.000426	4.255955	1.441957	-0.000170
1221	1.2139e+02	-8.6083	-33.512264	0.000294	2.938635	0.995637	-0.000118
1222	1.2149e+02	-8.6388	-33.637415	0.000314	3.141300	1.064301	-0.000126
1223	1.2159e+02	-8.6837	-33.815049	0.000446	4.458619	1.510621	-0.000179
1224	1.2169e+02	-8.7238	-33.911940	0.000243	2.431974	0.823975	-0.000097
1225	1.2179e+02	-8.7671	-34.065351	0.000385	3.850626	1.304627	-0.000154
1226	1.2189e+02	-8.8040	-34.202614	0.000345	3.445297	1.167298	-0.000138
1227	1.2199e+02	-8.8441	-34.311617	0.000274	2.735971	0.926972	-0.000110
1228	1.2209e+02	-8.8955	-34.452916	0.000355	3.546629	1.201630	-0.000142
1229	1.2219e+02	-8.9195	-34.614402	0.000405	4.053290	1.373292	-0.000162
1230	1.2229e+02	-8.9693	-34.759739	0.000365	3.647961	1.235963	-0.000146
1231	1.2239e+02	-9.0094	-34.860667	0.000253	2.533306	0.858307	-0.000101
1232	1.2248e+02	-9.0350	-35.018115	0.000395	3.951958	1.338960	-0.000158
1233	1.2258e+02	-9.0816	-35.155378	0.000345	3.445297	1.167298	-0.000138
1234	1.2268e+02	-9.1233	-35.260344	0.000263	2.634639	0.892640	-0.000105
1235	1.2278e+02	-9.1730	-35.454126	0.000486	4.863948	1.647950	-0.000195
1236	1.2288e+02	-9.2067	-35.559092	0.000263	2.634639	0.892640	-0.000105
1237	1.2298e+02	-9.2404	-35.676169	0.000294	2.938635	0.995637	-0.000118
1238	1.2308e+02	-9.2821	-35.833617	0.000395	3.951958	1.338960	-0.000158
1239	1.2318e+02	-9.3270	-35.954731	0.000304	3.039968	1.029969	-0.000122
1240	1.2328e+02	-9.3575	-36.104105	0.000375	3.749294	1.270295	-0.000150
1241	1.2338e+02	-9.4024	-36.225219	0.000304	3.039968	1.029969	-0.000122
1242	1.2348e+02	-9.4441	-36.358444	0.000334	3.343965	1.132966	-0.000134
1243	1.2358e+02	-9.4794	-36.475521	0.000294	2.938635	0.995637	-0.000118
1244	1.2368e+02	-9.5291	-36.637007	0.000405	4.053290	1.373292	-0.000162
1245	1.2378e+02	-9.5628	-36.774269	0.000345	3.445297	1.167298	-0.000138
1246	1.2388e+02	-9.5965	-36.903458	0.000324	3.242632	1.098634	-0.000130
1247	1.2398e+02	-9.6334	-37.028609	0.000314	3.141300	1.064301	-0.000126
1248	1.2408e+02	-9.6848	-37.117426	0.000223	2.229310	0.755311	-0.000089
1249	1.2418e+02	-9.7184	-37.295060	0.000446	4.458619	1.510621	-0.000179
1250	1.2428e+02	-9.7618	-37.444434	0.000375	3.749294	1.270295	-0.000150
1251	1.2438e+02	-9.8083	-37.553437	0.000274	2.735971	0.926972	-0.000110
1252	1.2447e+02	-9.8468	-37.718959	0.000415	4.154623	1.407624	-0.000166
1253	1.2457e+02	-9.8789	-37.823925	0.000263	2.634639	0.892640	-0.000105
1254	1.2467e+02	-9.9174	-37.965224	0.000355	3.546629	1.201630	-0.000142
1255	1.2477e+02	-9.9591	-38.090376	0.000314	3.141300	1.064301	-0.000126
1256	1.2487e+02	-9.9992	-38.215527	0.000314	3.141300	1.064301	-0.000126
1257	1.2497e+02	-10.0329	-38.372975	0.000395	3.951958	1.338960	-0.000158
1258	1.2507e+02	-10.0858	-38.494089	0.000304	3.039968	1.029969	-0.000122
1259	1.2517e+02	-10.1243	-38.611166	0.000294	2.938635	0.995637	-0.000118
1260	1.2527e+02	-10.1676	-38.752466	0.000355	3.546629	1.201630	-0.000142
1261	1.2537e+02	-10.2045	-38.885691	0.000334	3.343965	1.132966	-0.000134
1262	1.2547e+02	-10.2414	-38.962397	0.000193	1.925313	0.652314	-0.000077
1263	1.2557e+02	-10.2815	-39.196551	0.000588	5.877271	1.991273	-0.000235
1264	1.2567e+02	-10.3232	-39.273256	0.000193	1.925313	0.652314	-0.000077
1265	1.2577e+02	-10.3409	-39.394371	0.000304	3.039968	1.029969	-0.000122
1266	1.2587e+02	-10.4002	-39.519522	0.000314	3.141300	1.064301	-0.000126
1267	1.2597e+02	-10.4436	-39.656784	0.000345	3.445297	1.167298	-0.000138
1268	1.2607e+02	-10.4805	-39.765787	0.000274	2.735971	0.926972	-0.000110
1269	1.2617e+02	-10.5222	-39.923235	0.000395	3.951958	1.338960	-0.000158
1270	1.2627e+02	-10.5575	-40.044349	0.000304	3.039968	1.029969	-0.000122
1271	1.2636e+02	-10.5960	-40.185649	0.000355	3.546629	1.201630	-0.000142
1272	1.2646e+02	-10.6473	-40.286578	0.000253	2.533306	0.858307	-0.000101
1273	1.2656e+02	-10.6730	-40.411729	0.000314	3.141300	1.064301	-0.000126
1274	1.2666e+02	-10.7179	-40.544954	0.000334	3.343965	1.132966	-0.000134
1275	1.2676e+02	-10.7660	-40.670105	0.000314	3.141300	1.064301	-0.000126
1276	1.2686e+02	-10.7965	-40.795257	0.000314	3.141300	1.064301	-0.000126
1277	1.2696e+02	-10.8334	-40.952705	0.000395	3.951958	1.338960	-0.000158
1278	1.2706e+02	-10.8799	-41.057670	0.000263	2.634639	0.892640	-0.000105
1279	1.2716e+02	-10.9168	-41.182822	0.000314	3.141300	1.064301	-0.000126
1280	1.2726e+02	-10.9633	-41.320084	0.000345	3.445297	1.167298	-0.000138
1281	1.2736e+02	-10.9890	-41.465421	0.000365	3.647961	1.235963	-0.000146
1282	1.2746e+02	-11.0387	-41.582498	0.000294	2.938635	0.995637	-0.000118
1283	1.2756e+02	-11.0772	-41.731872	0.000375	3.749294	1.270295	-0.000150
1284	1.2766e+02	-11.1077	-41.832801	0.000253	2.533306	0.858307	-0.000101
1285	1.2776e+02	-11.1606	-41.974100	0.000355	3.546629	1.201630	-0.000142
1286	1.2786e+02	-11.1991	-42.079066	0.000263	2.634639	0.892640	-0.000105
1287	1.2796e+02	-11.2312	-42.232477	0.000385	3.850626	1.304627	-0.000154
1288	1.2806e+02	-11.2762	-42.349554	0.000294	2.938635	0.995637	-0.000118
1289	1.2816e+02	-11.3195	-42.470668	0.000304	3.039968	1.029969	-0.000122
1290	1.2826e+02	-11.3580	-42.595819	0.000314	3.141300	1.064301	-0.000126
1291	1.2835e+02	-11.3949	-42.712896	0.000294	2.938635	0.995637	-0.000118
1292	1.2845e+02	-11.4334	-42.829973	0.000294	2.938635	0.995637	-0.000118
1293	1.2855e+02	-11.4687	-42.991458	0.000405	4.053290	1.373292	-0.000162
1294	1.2865e+02	-11.5136	-43.096424	0.000263	2.634639	0.892640	-0.000105
1295	1.2875e+02	-11.5569	-43.237724	0.000355	3.546629	1.201630	-0.000142
1296	1.2885e+02	-11.6034	-43.362875	0.000314	3.141300	1.064301	-0.000126
1297	1.2895e+02	-11.6323	-43.512249	0.000375	3.749294	1.270295	-0.000150
1298	1.2905e+02	-11.6740	-43.597029	0.000213	2.127977	0.720978	-0.000085
1299	1.2915e+02	-11.7189	-43.718143	0.000304	3.039968	1.029969	-0.000122
1300	1.2925e+02	-11.7574	-43.875591	0.000395	3.951958	1.338960	-0.000158
1301	1.2935e+02	-11.7895	-43.968445	0.000233	2.330642	0.789643	-0.000093
1302	1.2945e+02	-11.8408	-44.097634	0.000324	3.242632	1.098634	-0.000130
1303	1.2955e+02	-11.8809	-44.198562	0.000253	2.533306	0.858307	-0.000101
1304	1.2965e+02	-11.9178	-44.356010	0.000395	3.951958	1.338960	-0.000158
1305	1.2975e+02	-11.9515	-44.517496	0.000405	4.053290	1.373292	-0.000162
1306	1.2985e+02	-11.9884	-44.590164	0.000182	1.823981	0.617981	-0.000073
1307	1.2995e+02	-12.0317	-44.711278	0.000304	3.039968	1.029969	-0.000122
1308	1.3005e+02	-12.0751	-44.844504	0.000334	3.343965	1.132966	-0.000134
1309	1.3015e+02	-12.1152	-44.989841	0.000365	3.647961	1.235963	-0.000146
1310	1.3025e+02	-12.1521	-45.102880	0.000284	2.837303	0.961304	-0.000114
1311	1.3034e+02	-12.1858	-45.215920	0.000284	2.837303	0.961304	-0.000114
1312	1.3044e+02	-12.2323	-45.369331	0.000385	3.850626	1.304627	-0.000154
1313	1.3054e+02	-12.2708	-45.466223	0.000243	2.431974	0.823975	-0.000097
1314	1.3064e+02	-12.3221	-45.623671	0.000395	3.951958	1.338960	-0.000158
1315	1.3074e+02	-12.3558	-45.736711	0.000284	2.837303	0.961304	-0.000114
1316	1.3084e+02	-12.3943	-45.841676	0.000263	2.634639	0.892640	-0.000105
1317	1.3094e+02	-12.4296	-45.970865	0.000324	3.242632	1.098634	-0.000130
1318	1.3104e+02	-12.4729	-46.075830	0.000263	2.634639	0.892640	-0.000105
1319	1.3114e+02	-12.5178	-46.233278	0.000395	3.951958	1.338960	-0.000158
1320	1.3124e+02	-12.5515	-46.350355	0.000294	2.938635	0.995637	-0.000118
1321	1.3134e+02	-12.5916	-46.439172	0.000223	2.229310	0.755311	-0.000089
1322	1.3144e+02	-12.6301	-46.588546	0.000375	3.749294	1.270295	-0.000150
1323	1.3154e+02	-12.6702	-46.717735	0.000324	3.242632	1.098634	-0.000130
1324	1.3164e+02	-12.7151	-46.810589	0.000233	2.330642	0.789643	-0.000093
1325	1.3174e+02	-12.7488	-46.959963	0.000375	3.749294	1.270295	-0.000150
1326	1.3184e+02	-12.7873	-47.081077	0.000304	3.039968	1.029969	-0.000122
1327	1.3194e+02	-12.8339	-47.173931	0.000233	2.330642	0.789643	-0.000093
1328	1.3204e+02	-12.8595	-47.299082	0.000314	3.141300	1.064301	-0.000126
1329	1.3214e+02	-12.9125	-47.428271	0.000324	3.242632	1.098634	-0.000130
1330	1.3224e+02	-12.9413	-47.513051	0.000213	2.127977	0.720978	-0.000085
1331	1.3234e+02	-12.9911	-47.638202	0.000314	3.141300	1.064301	-0.000126
1332	1.3243e+02	-13.0264	-47.787576	0.000375	3.749294	1.270295	-0.000150
1333	1.3253e+02	-13.0697	-47.908690	0.000304	3.039968	1.029969	-0.000122
1334	1.3263e+02	-13.1002	-48.017692	0.000274	2.735971	0.926972	-0.000110
1335	1.3273e+02	-13.1531	-48.130732	0.000284	2.837303	0.961304	-0.000114
1336	1.3283e+02	-13.1740	-48.219549	0.000223	2.229310	0.755311	-0.000089
1337	1.3293e+02	-13.2221	-48.409295	0.000476	4.762616	1.613618	-0.000191
1338	1.3303e+02	-13.2734	-48.494074	0.000213	2.127977	0.720978	-0.000085
1339	1.3313e+02	-13.3087	-48.647486	0.000385	3.850626	1.304627	-0.000154
1340	1.3323e+02	-13.3456	-48.736303	0.000223	2.229310	0.755311	-0.000089
1341	1.3333e+02	-13.3873	-48.821082	0.000213	2.127977	0.720978	-0.000085
1342	1.3343e+02	-13.4290	-48.954308	0.000334	3.343965	1.132966	-0.000134
1343	1.3353e+02	-13.4723	-49.144053	0.000476	4.762616	1.613618	-0.000191
1344	1.3363e+02	-13.5060	-49.240945	0.000243	2.431974	0.823975	-0.000097
1345	1.3373e+02	-13.5558	-49.337836	0.000243	2.431974	0.823975	-0.000097
1346	1.3383e+02	-13.5782	-49.471061	0.000334	3.343965	1.132966	-0.000134
1347	1.3393e+02	-13.6231	-49.600250	0.000324	3.242632	1.098634	-0.000130
1348	1.3403e+02	-13.6616	-49.693104	0.000233	2.330642	0.789643	-0.000093
1349	1.3413e+02	-13.7082	-49.846515	0.000385	3.850626	1.304627	-0.000154
1350	1.3423e+02	-13.7451	-49.947443	0.000253	2.533306	0.858307	-0.000101
1351	1.3432e+02	-13.7900	-50.056446	0.000274	2.735971	0.926972	-0.000110
1352	1.3442e+02	-13.8221	-50.173523	0.000294	2.938635	0.995637	-0.000118
1353	1.3452e+02	-13.8718	-50.254266	0.000203	2.026645	0.686646	-0.000081
1354	1.3462e+02	-13.8991	-50.407677	0.000385	3.850626	1.304627	-0.000154
1355	1.3472e+02	-13.9584	-50.512642	0.000263	2.634639	0.892640	-0.000105
1356	1.3482e+02	-13.9841	-50.657979	0.000365	3.647961	1.235963	-0.000146
1357	1.3492e+02	-14.0258	-50.795242	0.000345	3.445297	1.167298	-0.000138
1358	1.3502e+02	-14.0659	-50.908282	0.000284	2.837303	0.961304	-0.000114
1359	1.3512e+02	-14.1124	-51.013247	0.000263	2.634639	0.892640	-0.000105
1360	1.3522e+02	-14.1445	-51.130324	0.000294	2.938635	0.995637	-0.000118
1361	1.3532e+02	-14.1878	-51.259512	0.000324	3.242632	1.098634	-0.000130
1362	1.3542e+02	-14.2279	-51.372552	0.000284	2.837303	0.961304	-0.000114
1363	1.3552e+02	-14.2680	-51.501741	0.000324	3.242632	1.098634	-0.000130
1364	1.3562e+02	-14.3017	-51.634966	0.000334	3.343965	1.132966	-0.000134
1365	1.3572e+02	-14.3450	-51.703597	0.000172	1.722648	0.583649	-0.000069
1366	1.3582e+02	-14.3755	-51.820674	0.000294	2.938635	0.995637	-0.000118
1367	1.3592e+02	-14.4269	-51.966011	0.000365	3.647961	1.235963	-0.000146
1368	1.3602e+02	-14.4606	-52.058865	0.000233	2.330642	0.789643	-0.000093
1369	1.3612e+02	-14.4991	-52.208239	0.000375	3.749294	1.270295	-0.000150
1370	1.3622e+02	-14.5504	-52.321279	0.000284	2.837303	0.961304	-0.000114
1371	1.3631e+02	-14.5793	-52.426245	0.000263	2.634639	0.892640	-0.000105
1372	1.3641e+02	-14.6210	-52.527173	0.000253	2.533306	0.858307	-0.000101
1373	1.3651e+02	-14.6579	-52.668473	0.000355	3.546629	1.201630	-0.000142
1374	1.3661e+02	-14.6851	-52.745178	0.000193	1.925313	0.652314	-0.000077
1375	1.3671e+02	-14.7477	-52.878404	0.000334	3.343965	1.132966	-0.000134
1376	1.3681e+02	-14.7798	-53.015667	0.000345	3.445297	1.167298	-0.000138
1377	1.3691e+02	-14.8231	-53.124669	0.000274	2.735971	0.926972	-0.000110
1378	1.3701e+02	-14.8632	-53.201375	0.000193	1.925313	0.652314	-0.000077
1379	1.3711e+02	-14.9081	-53.374972	0.000436	4.357287	1.476289	-0.000174
1380	1.3721e+02	-14.9354	-53.447640	0.000182	1.823981	0.617981	-0.000073
1381	1.3731e+02	-14.9819	-53.617200	0.000426	4.255955	1.441957	-0.000170
1382	1.3741e+02	-15.0156	-53.722165	0.000263	2.634639	0.892640	-0.000105
1383	1.3751e+02	-15.0670	-53.827131	0.000263	2.634639	0.892640	-0.000105
1384	1.3761e+02	-15.1055	-53.932096	0.000263	2.634639	0.892640	-0.000105
1385	1.3771e+02	-15.1375	-54.028988	0.000243	2.431974	0.823975	-0.000097
1386	1.3781e+02	-15.1841	-54.166250	0.000345	3.445297	1.167298	-0.000138
1387	1.3791e+02	-15.2194	-54.271216	0.000263	2.634639	0.892640	-0.000105
1388	1.3801e+02	-15.2563	-54.404441	0.000334	3.343965	1.132966	-0.000134
1389	1.3811e+02	-15.3028	-54.513444	0.000274	2.735971	0.926972	-0.000110
1390	1.3821e+02	-15.3397	-54.590149	0.000193	1.925313	0.652314	-0.000077
1391	1.3831e+02	-15.3782	-54.755672	0.000415	4.154623	1.407624	-0.000166
1392	1.3840e+02	-15.4199	-54.884860	0.000324	3.242632	1.098634	-0.000130
1393	1.3850e+02	-15.4520	-54.993863	0.000274	2.735971	0.926972	-0.000110
1394	1.3860e+02	-15.4889	-55.119014	0.000314	3.141300	1.064301	-0.000126
1395	1.3870e+02	-15.5434	-55.203794	0.000213	2.127977	0.720978	-0.000085
1396	1.3880e+02	-15.5771	-55.296648	0.000233	2.330642	0.789643	-0.000093
1397	1.3890e+02	-15.6156	-55.470245	0.000436	4.357287	1.476289	-0.000174
1398	1.3900e+02	-15.6637	-55.587322	0.000294	2.938635	0.995637	-0.000118
1399	1.3910e+02	-15.7006	-55.643842	0.000142	1.418652	0.480652	-0.000057
1400	1.3920e+02	-15.7407	-55.797253	0.000385	3.850626	1.304627	-0.000154
1401	1.3930e+02	-15.7744	-55.914330	0.000294	2.938635	0.995637	-0.000118
1402	1.3940e+02	-15.8242	-56.011221	0.000243	2.431974	0.823975	-0.000097
1403	1.3950e+02	-15.8659	-56.172707	0.000405	4.053290	1.373292	-0.000162
1404	1.3960e+02	-15.9012	-56.293821	0.000304	3.039968	1.029969	-0.000122
1405	1.3970e+02	-15.9413	-56.334192	0.000101	1.013323	0.343323	-0.000041
1406	1.3980e+02	-15.9750	-56.483566	0.000375	3.749294	1.270295	-0.000150
1407	1.3990e+02	-16.0151	-56.584495	0.000253	2.533306	0.858307	-0.000101
1408	1.4000e+02	-16.0584	-56.733869	0.000375	3.749294	1.270295	-0.000150
1409	1.4010e+02	-16.0985	-56.846908	0.000284	2.837303	0.961304	-0.000114
1410	1.4020e+02	-16.1354	-56.951874	0.000263	2.634639	0.892640	-0.000105
1411	1.4029e+02	-16.1787	-57.056839	0.000263	2.634639	0.892640	-0.000105
1412	1.4039e+02	-16.2236	-57.190065	0.000334	3.343965	1.132966	-0.000134
1413	1.4049e+02	-16.2573	-57.262733	0.000182	1.823981	0.617981	-0.000073
1414	1.4059e+02	-16.2926	-57.460553	0.000497	4.965281	1.682283	-0.000199
1415	1.4069e+02	-16.3487	-57.545333	0.000213	2.127977	0.720978	-0.000085
1416	1.4079e+02	-16.3808	-57.666447	0.000304	3.039968	1.029969	-0.000122
1417	1.4089e+02	-16.4209	-57.767375	0.000253	2.533306	0.858307	-0.000101
1418	1.4099e+02	-16.4578	-57.908675	0.000355	3.546629	1.201630	-0.000142
1419	1.4109e+02	-16.4963	-57.965195	0.000142	1.418652	0.480652	-0.000057
1420	1.4119e+02	-16.5316	-58.106495	0.000355	3.546629	1.201630	-0.000142
1421	1.4129e+02	-16.5749	-58.219534	0.000284	2.837303	0.961304	-0.000114
1422	1.4139e+02	-16.6118	-58.381020	0.000405	4.053290	1.373292	-0.000162
1423	1.4149e+02	-16.6551	-58.473874	0.000233	2.330642	0.789643	-0.000093
1424	1.4159e+02	-16.6936	-58.550580	0.000193	1.925313	0.652314	-0.000077
1425	1.4169e+02	-16.7354	-58.675731	0.000314	3.141300	1.064301	-0.000126
1426	1.4179e+02	-16.7739	-58.829142	0.000385	3.850626	1.304627	-0.000154
1427	1.4189e+02	-16.8140	-58.909885	0.000203	2.026645	0.686646	-0.000081
1428	1.4199e+02	-16.8557	-59.051184	0.000355	3.546629	1.201630	-0.000142
1429	1.4209e+02	-16.8878	-59.188447	0.000345	3.445297	1.167298	-0.000138
1430	1.4219e+02	-16.9343	-59.269190	0.000203	2.026645	0.686646	-0.000081
1431	1.4228e+02	-16.9808	-59.345895	0.000193	1.925313	0.652314	-0.000077
1432	1.4238e+02	-17.0161	-59.499307	0.000385	3.850626	1.304627	-0.000154
1433	1.4248e+02	-17.0610	-59.600235	0.000253	2.533306	0.858307	-0.000101
1434	1.4258e+02	-17.0979	-59.729423	0.000324	3.242632	1.098634	-0.000130
1435	1.4268e+02	-17.1412	-59.858612	0.000324	3.242632	1.098634	-0.000130
1436	1.4278e+02	-17.1717	-59.999911	0.000355	3.546629	1.201630	-0.000142
1437	1.4288e+02	-17.2102	-60.096803	0.000243	2.431974	0.823975	-0.000097
1438	1.4298e+02	-17.2519	-60.217917	0.000304	3.039968	1.029969	-0.000122
1439	1.4308e+02	-17.2904	-60.339031	0.000304	3.039968	1.029969	-0.000122
1440	1.4318e+02	-17.3257	-60.427848	0.000223	2.229310	0.755311	-0.000089
1441	1.4328e+02	-17.3835	-60.573185	0.000365	3.647961	1.235963	-0.000146
1442	1.4338e+02	-17.4091	-60.670076	0.000243	2.431974	0.823975	-0.000097
1443	1.4348e+02	-17.4621	-60.795227	0.000314	3.141300	1.064301	-0.000126
1444	1.4358e+02	-17.4910	-60.920378	0.000314	3.141300	1.064301	-0.000126
1445	1.4368e+02	-17.5343	-60.993047	0.000182	1.823981	0.617981	-0.000073
1446	1.4378e+02	-17.5680	-61.158569	0.000415	4.154623	1.407624	-0.000166
1447	1.4388e+02	-17.6049	-61.275646	0.000294	2.938635	0.995637	-0.000118
1448	1.4398e+02	-17.6498	-61.364463	0.000223	2.229310	0.755311	-0.000089
1449	1.4408e+02	-17.6915	-61.513837	0.000375	3.749294	1.270295	-0.000150
1450	1.4418e+02	-17.7252	-61.590543	0.000193	1.925313	0.652314	-0.000077
1451	1.4428e+02	-17.7653	-61.723768	0.000334	3.343965	1.132966	-0.000134
1452	1.4437e+02	-17.8166	-61.873142	0.000375	3.749294	1.270295	-0.000150
1453	1.4447e+02	-17.8551	-61.990219	0.000294	2.938635	0.995637	-0.000118
1454	1.4457e+02	-17.8840	-62.074999	0.000213	2.127977	0.720978	-0.000085
1455	1.4467e+02	-17.9289	-62.196113	0.000304	3.039968	1.029969	-0.000122
1456	1.4477e+02	-17.9722	-62.341450	0.000365	3.647961	1.235963	-0.000146
1457	1.4487e+02	-18.0043	-62.438341	0.000243	2.431974	0.823975	-0.000097
1458	1.4497e+02	-18.0524	-62.575604	0.000345	3.445297	1.167298	-0.000138
1459	1.4507e+02	-18.0941	-62.700755	0.000314	3.141300	1.064301	-0.000126
1460	1.4517e+02	-18.1310	-62.797646	0.000243	2.431974	0.823975	-0.000097
1461	1.4527e+02	-18.1727	-62.914723	0.000294	2.938635	0.995637	-0.000118
1462	1.4537e+02	-18.2048	-63.027763	0.000284	2.837303	0.961304	-0.000114
1463	1.4547e+02	-18.2514	-63.160989	0.000334	3.343965	1.132966	-0.000134
1464	1.4557e+02	-18.2818	-63.278066	0.000294	2.938635	0.995637	-0.000118
1465	1.4567e+02	-18.3348	-63.411291	0.000334	3.343965	1.132966	-0.000134
1466	1.4577e+02	-18.3717	-63.568739	0.000395	3.951958	1.338960	-0.000158
1467	1.4587e+02	-18.4118	-63.633334	0.000162	1.621316	0.549317	-0.000065
1468	1.4597e+02	-18.4535	-63.778670	0.000365	3.647961	1.235963	-0.000146
1469	1.4607e+02	-18.4872	-63.867487	0.000223	2.229310	0.755311	-0.000089
1470	1.4617e+02	-18.5353	-64.016861	0.000375	3.749294	1.270295	-0.000150
1471	1.4626e+02	-18.5722	-64.125864	0.000274	2.735971	0.926972	-0.000110
1472	1.4636e+02	-18.6171	-64.242941	0.000294	2.938635	0.995637	-0.000118
1473	1.4646e+02	-18.6460	-64.364055	0.000304	3.039968	1.029969	-0.000122
1474	1.4656e+02	-18.6973	-64.521503	0.000395	3.951958	1.338960	-0.000158
1475	1.4666e+02	-18.7358	-64.634543	0.000284	2.837303	0.961304	-0.000114
1476	1.4676e+02	-18.7727	-64.719323	0.000213	2.127977	0.720978	-0.000085
1477	1.4686e+02	-18.8016	-64.844474	0.000314	3.141300	1.064301	-0.000126
1478	1.4696e+02	-18.8433	-64.973663	0.000324	3.242632	1.098634	-0.000130
1479	1.4706e+02	-18.8866	-65.094777	0.000304	3.039968	1.029969	-0.000122
1480	1.4716e+02	-18.9332	-65.228002	0.000334	3.343965	1.132966	-0.000134
1481	1.4726e+02	-18.9652	-65.353153	0.000314	3.141300	1.064301	-0.000126
1482	1.4736e+02	-19.0118	-65.450045	0.000243	2.431974	0.823975	-0.000097
1483	1.4746e+02	-19.0422	-65.611530	0.000405	4.053290	1.373292	-0.000162
1484	1.4756e+02	-19.0872	-65.744755	0.000334	3.343965	1.132966	-0.000134
1485	1.4766e+02	-19.1225	-65.809350	0.000162	1.621316	0.549317	-0.000065
1486	1.4776e+02	-19.1690	-65.962761	0.000385	3.850626	1.304627	-0.000154
1487	1.4786e+02	-19.2123	-66.091949	0.000324	3.242632	1.098634	-0.000130
1488	1.4796e+02	-19.2492	-66.176729	0.000213	2.127977	0.720978	-0.000085
1489	1.4806e+02	-19.2877	-66.366474	0.000476	4.762616	1.613618	-0.000191
1490	1.4816e+02	-19.3182	-66.459329	0.000233	2.330642	0.789643	-0.000093
1491	1.4825e+02	-19.3551	-66.572368	0.000284	2.837303	0.961304	-0.000114
1492	1.4835e+02	-19.4128	-66.701557	0.000324	3.242632	1.098634	-0.000130
1493	1.4845e+02	-19.4481	-66.826708	0.000314	3.141300	1.064301	-0.000126
1494	1.4855e+02	-19.4802	-67.004342	0.000446	4.458619	1.510621	-0.000179
1495	1.4865e+02	-19.5315	-67.085085	0.000203	2.026645	0.686646	-0.000081
1496	1.4875e+02	-19.5620	-67.246570	0.000405	4.053290	1.373292	-0.000162
1497	1.4885e+02	-19.5989	-67.335387	0.000223	2.229310	0.755311	-0.000089
1498	1.4895e+02	-19.6374	-67.452464	0.000294	2.938635	0.995637	-0.000118
1499	1.4905e+02	-19.6823	-67.589727	0.000345	3.445297	1.167298	-0.000138
1500	1.4915e+02	-19.7160	-67.726989	0.000345	3.445297	1.167298	-0.000138
1501	1.4925e+02	-19.7641	-67.835992	0.000274	2.735971	0.926972	-0.000110
1502	1.4935e+02	-19.8026	-67.969217	0.000334	3.343965	1.132966	-0.000134
1503	1.4945e+02	-19.8460	-68.102443	0.000334	3.343965	1.132966	-0.000134
1504	1.4955e+02	-19.8845	-68.231631	0.000324	3.242632	1.098634	-0.000130
1505	1.4965e+02	-19.9278	-68.344671	0.000284	2.837303	0.961304	-0.000114
1506	1.4975e+02	-19.9615	-68.514231	0.000426	4.255955	1.441957	-0.000170
1507	1.4985e+02	-20.0048	-68.582862	0.000172	1.722648	0.583649	-0.000069
1508	1.4995e+02	-19.9647	-68.522305	0.000152	1.519984	0.514984	0.000061
1509	1.5005e+02	-19.9262	-68.514231	0.000020	0.202665	0.068665	0.000008
1510	1.5015e+02	-19.8764	-68.437525	0.000193	1.925313	0.652314	0.000077
1511	1.5025e+02	-19.8460	-68.401191	0.000091	0.911990	0.308991	0.000037
1512	1.5034e+02	-19.7978	-68.344671	0.000142	1.418652	0.480652	0.000057
1513	1.5044e+02	-19.7690	-68.243743	0.000253	2.533306	0.858307	0.000101
1514	1.5054e+02	-19.7208	-68.171074	0.000182	1.823981	0.617981	0.000073
1515	1.5064e+02	-19.6839	-68.114554	0.000142	1.418652	0.480652	0.000057
1516	1.5074e+02	-19.6390	-68.082257	0.000081	0.810658	0.274658	0.000032
1517	1.5084e+02	-19.5957	-68.005552	0.000193	1.925313	0.652314	0.000077
1518	1.5094e+02	-19.5636	-67.916735	0.000223	2.229310	0.755311	0.000089
1519	1.5104e+02	-19.5219	-67.856177	0.000152	1.519984	0.514984	0.000061
1520	1.5114e+02	-19.4786	-67.735063	0.000304	3.039968	1.029969	0.000122
1521	1.5124e+02	-19.4465	-67.714878	0.000051	0.506661	0.171661	0.000020
1522	1.5134e+02	-19.4032	-67.634135	0.000203	2.026645	0.686646	0.000081
1523	1.5144e+02	-19.3679	-67.557429	0.000193	1.925313	0.652314	0.000077
1524	1.5154e+02	-19.3214	-67.521095	0.000091	0.911990	0.308991	0.000037
1525	1.5164e+02	-19.2925	-67.399981	0.000304	3.039968	1.029969	0.000122
1526	1.5174e+02	-19.2476	-67.355573	0.000111	1.114655	0.377655	0.000045
1527	1.5184e+02	-19.2043	-67.246570	0.000274	2.735971	0.926972	0.000110
1528	1.5194e+02	-19.1481	-67.202161	0.000111	1.114655	0.377655	0.000045
1529	1.5204e+02	-19.1305	-67.121419	0.000203	2.026645	0.686646	0.000081
1530	1.5214e+02	-19.0791	-67.072973	0.000122	1.215987	0.411988	0.000049
1531	1.5224e+02	-19.0471	-66.968008	0.000263	2.634639	0.892640	0.000105
1532	1.5233e+02	-19.0021	-66.879191	0.000223	2.229310	0.755311	0.000089
1533	1.5243e+02	-18.9620	-66.794411	0.000213	2.127977	0.720978	0.000085
1534	1.5253e+02	-18.9251	-66.717705	0.000193	1.925313	0.652314	0.000077
1535	1.5263e+02	-18.8850	-66.665222	0.000132	1.317319	0.446320	0.000053
1536	1.5273e+02	-18.8353	-66.560257	0.000263	2.634639	0.892640	0.000105
1537	1.5283e+02	-18.8064	-66.495663	0.000162	1.621316	0.549317	0.000065
1538	1.5293e+02	-18.7663	-66.422994	0.000182	1.823981	0.617981	0.000073
1539	1.5303e+02	-18.7294	-66.293806	0.000324	3.242632	1.098634	0.000130
1540	1.5313e+02	-18.6893	-66.245360	0.000122	1.215987	0.411988	0.000049
1541	1.5323e+02	-18.6572	-66.164618	0.000203	2.026645	0.686646	0.000081
1542	1.5333e+02	-18.6107	-66.067726	0.000243	2.431974	0.823975	0.000097
1543	1.5343e+02	-18.5690	-65.991021	0.000193	1.925313	0.652314	0.000077
1544	1.5353e+02	-18.5353	-65.861832	0.000324	3.242632	1.098634	0.000130
1545	1.5363e+02	-18.4904	-65.841647	0.000051	0.506661	0.171661	0.000020
1546	1.5373e+02	-18.4503	-65.724570	0.000294	2.938635	0.995637	0.000118
1547	1.5383e+02	-18.4182	-65.631716	0.000233	2.330642	0.789643	0.000093
1548	1.5393e+02	-18.3637	-65.575196	0.000142	1.418652	0.480652	0.000057
1549	1.5403e+02	-18.3284	-65.482342	0.000233	2.330642	0.789643	0.000093
1550	1.5413e+02	-18.2963	-65.405636	0.000193	1.925313	0.652314	0.000077
1551	1.5422e+02	-18.2465	-65.312782	0.000233	2.330642	0.789643	0.000093
1552	1.5432e+02	-18.2096	-65.219928	0.000233	2.330642	0.789643	0.000093
1553	1.5442e+02	-18.1599	-65.143222	0.000193	1.925313	0.652314	0.000077
1554	1.5452e+02	-18.1375	-65.030182	0.000284	2.837303	0.961304	0.000114
1555	1.5462e+02	-18.0893	-64.965588	0.000162	1.621316	0.549317	0.000065
1556	1.5472e+02	-18.0492	-64.856586	0.000274	2.735971	0.926972	0.000110
1557	1.5482e+02	-18.0123	-64.804103	0.000132	1.317319	0.446320	0.000053
1558	1.5492e+02	-17.9690	-64.719323	0.000213	2.127977	0.720978	0.000085
1559	1.5502e+02	-17.9321	-64.614357	0.000263	2.634639	0.892640	0.000105
1560	1.5512e+02	-17.8920	-64.509392	0.000263	2.634639	0.892640	0.000105
1561	1.5522e+02	-17.8583	-64.436724	0.000182	1.823981	0.617981	0.000073
1562	1.5532e+02	-17.8118	-64.347907	0.000223	2.229310	0.755311	0.000089
1563	1.5542e+02	-17.7749	-64.275238	0.000182	1.823981	0.617981	0.000073
1564	1.5552e+02	-17.7268	-64.158161	0.000294	2.938635	0.995637	0.000118
1565	1.5562e+02	-17.6931	-64.073381	0.000213	2.127977	0.720978	0.000085
1566	1.5572e+02	-17.6482	-63.968416	0.000263	2.634639	0.892640	0.000105
1567	1.5582e+02	-17.6129	-63.899784	0.000172	1.722648	0.583649	0.000069
1568	1.5592e+02	-17.5663	-63.827116	0.000182	1.823981	0.617981	0.000073
1569	1.5602e+02	-17.5359	-63.746373	0.000203	2.026645	0.686646	0.000081
1570	1.5612e+02	-17.4926	-63.637371	0.000274	2.735971	0.926972	0.000110
1571	1.5622e+02	-17.4460	-63.512219	0.000314	3.141300	1.064301	0.000126
1572	1.5631e+02	-17.4156	-63.443588	0.000172	1.722648	0.583649	0.000069
1573	1.5641e+02	-17.3562	-63.314400	0.000324	3.242632	1.098634	0.000130
1574	1.5651e+02	-17.3385	-63.269991	0.000111	1.114655	0.377655	0.000045
1575	1.5661e+02	-17.3033	-63.165026	0.000263	2.634639	0.892640	0.000105
1576	1.5671e+02	-17.2487	-63.076209	0.000223	2.229310	0.755311	0.000089
1577	1.5681e+02	-17.2118	-63.003540	0.000182	1.823981	0.617981	0.000073
1578	1.5691e+02	-17.1813	-62.898575	0.000263	2.634639	0.892640	0.000105
1579	1.5701e+02	-17.1412	-62.773424	0.000314	3.141300	1.064301	0.000126
1580	1.5711e+02	-17.0979	-62.708829	0.000162	1.621316	0.549317	0.000065
1581	1.5721e+02	-17.0610	-62.591752	0.000294	2.938635	0.995637	0.000118
1582	1.5731e+02	-17.0129	-62.519084	0.000182	1.823981	0.617981	0.000073
1583	1.5741e+02	-16.9744	-62.450453	0.000172	1.722648	0.583649	0.000069
1584	1.5751e+02	-16.9327	-62.305116	0.000365	3.647961	1.235963	0.000146
1585	1.5761e+02	-16.8942	-62.264744	0.000101	1.013323	0.343323	0.000041
1586	1.5771e+02	-16.8589	-62.119408	0.000365	3.647961	1.235963	0.000146
1587	1.5781e+02	-16.8188	-62.042702	0.000193	1.925313	0.652314	0.000077
1588	1.5791e+02	-16.7690	-61.974071	0.000172	1.722648	0.583649	0.000069
1589	1.5801e+02	-16.7354	-61.889291	0.000213	2.127977	0.720978	0.000085
1590	1.5811e+02	-16.7001	-61.760103	0.000324	3.242632	1.098634	0.000130
1591	1.5821e+02	-16.6519	-61.655137	0.000263	2.634639	0.892640	0.000105
1592	1.5830e+02	-16.6102	-61.606691	0.000122	1.215987	0.411988	0.000049
1593	1.5840e+02	-16.5781	-61.489614	0.000294	2.938635	0.995637	0.000118
1594	1.5850e+02	-16.5412	-61.396760	0.000233	2.330642	0.789643	0.000093
1595	1.5860e+02	-16.4867	-61.291795	0.000263	2.634639	0.892640	0.000105
1596	1.5870e+02	-16.4578	-61.186829	0.000263	2.634639	0.892640	0.000105
1597	1.5880e+02	-16.4257	-61.093975	0.000233	2.330642	0.789643	0.000093
1598	1.5890e+02	-16.3792	-61.005158	0.000223	2.229310	0.755311	0.000089
1599	1.5900e+02	-16.3327	-60.904230	0.000253	2.533306	0.858307	0.000101
1600	1.5910e+02	-16.2942	-60.843673	0.000152	1.519984	0.514984	0.000061
1601	1.5920e+02	-16.2637	-60.706410	0.000345	3.445297	1.167298	0.000138
1602	1.5930e+02	-16.2204	-60.581259	0.000314	3.141300	1.064301	0.000126
1603	1.5940e+02	-16.1755	-60.532813	0.000122	1.215987	0.411988	0.000049
1604	1.5950e+02	-16.1402	-60.411699	0.000304	3.039968	1.029969	0.000122
1605	1.5960e+02	-16.0953	-60.359216	0.000132	1.317319	0.446320	0.000053
1606	1.5970e+02	-16.0536	-60.230028	0.000324	3.242632	1.098634	0.000130
1607	1.5980e+02	-16.0070	-60.169471	0.000152	1.519984	0.514984	0.000061
1608	1.5990e+02	-15.9750	-60.032208	0.000345	3.445297	1.167298	0.000138
1609	1.6000e+02	-15.9381	-59.911094	0.000304	3.039968	1.029969	0.000122
1610	1.6010e+02	-15.8979	-59.838426	0.000182	1.823981	0.617981	0.000073
1611	1.6019e+02	-15.8594	-59.781906	0.000142	1.418652	0.480652	0.000057
1612	1.6029e+02	-15.8225	-59.656755	0.000314	3.141300	1.064301	0.000126
1613	1.6039e+02	-15.7824	-59.584086	0.000182	1.823981	0.617981	0.000073
1614	1.6049e+02	-15.7407	-59.438749	0.000365	3.647961	1.235963	0.000146
1615	1.6059e+02	-15.6990	-59.374155	0.000162	1.621316	0.549317	0.000065
1616	1.6069e+02	-15.6621	-59.265153	0.000274	2.735971	0.926972	0.000110
1617	1.6079e+02	-15.6156	-59.152113	0.000284	2.837303	0.961304	0.000114
1618	1.6089e+02	-15.5787	-59.059259	0.000233	2.330642	0.789643	0.000093
1619	1.6099e+02	-15.5402	-58.950256	0.000274	2.735971	0.926972	0.000110
1620	1.6109e+02	-15.5001	-58.853365	0.000243	2.431974	0.823975	0.000097
1621	1.6119e+02	-15.4584	-58.776659	0.000193	1.925313	0.652314	0.000077
1622	1.6129e+02	-15.4183	-58.659582	0.000294	2.938635	0.995637	0.000118
1623	1.6139e+02	-15.3782	-58.586914	0.000182	1.823981	0.617981	0.000073
1624	1.6149e+02	-15.3397	-58.445614	0.000355	3.546629	1.201630	0.000142
1625	1.6159e+02	-15.3044	-58.348723	0.000243	2.431974	0.823975	0.000097
1626	1.6169e+02	-15.2563	-58.267980	0.000203	2.026645	0.686646	0.000081
1627	1.6179e+02	-15.2242	-58.207423	0.000152	1.519984	0.514984	0.000061
1628	1.6189e+02	-15.1793	-58.062086	0.000365	3.647961	1.235963	0.000146
1629	1.6199e+02	-15.1440	-57.981343	0.000203	2.026645	0.686646	0.000081
1630	1.6209e+02	-15.1055	-57.876378	0.000263	2.634639	0.892640	0.000105
1631	1.6219e+02	-15.0654	-57.763338	0.000284	2.837303	0.961304	0.000114
1632	1.6228e+02	-15.0236	-57.678558	0.000213	2.127977	0.720978	0.000085
1633	1.6238e+02	-14.9803	-57.569556	0.000274	2.735971	0.926972	0.000110
1634	1.6248e+02	-14.9418	-57.480739	0.000223	2.229310	0.755311	0.000089
1635	1.6258e+02	-14.8953	-57.371736	0.000274	2.735971	0.926972	0.000110
1636	1.6268e+02	-14.8632	-57.250622	0.000304	3.039968	1.029969	0.000122
1637	1.6278e+02	-14.8279	-57.149694	0.000253	2.533306	0.858307	0.000101
1638	1.6288e+02	-14.7782	-57.044728	0.000263	2.634639	0.892640	0.000105
1639	1.6298e+02	-14.7397	-56.951874	0.000233	2.330642	0.789643	0.000093
1640	1.6308e+02	-14.7060	-56.867094	0.000213	2.127977	0.720978	0.000085
1641	1.6318e+02	-14.6627	-56.733869	0.000334	3.343965	1.132966	0.000134
1642	1.6328e+02	-14.6226	-56.624866	0.000274	2.735971	0.926972	0.000110
1643	1.6338e+02	-14.5857	-56.511826	0.000284	2.837303	0.961304	0.000114
1644	1.6348e+02	-14.5456	-56.427046	0.000213	2.127977	0.720978	0.000085
1645	1.6358e+02	-14.5039	-56.354378	0.000182	1.823981	0.617981	0.000073
1646	1.6368e+02	-14.4686	-56.253449	0.000253	2.533306	0.858307	0.000101
1647	1.6378e+02	-14.4188	-56.136372	0.000294	2.938635	0.995637	0.000118
1648	1.6388e+02	-14.3900	-56.047555	0.000223	2.229310	0.755311	0.000089
1649	1.6398e+02	-14.3450	-55.934516	0.000284	2.837303	0.961304	0.000114
1650	1.6408e+02	-14.3049	-55.833587	0.000253	2.533306	0.858307	0.000101
1651	1.6418e+02	-14.2729	-55.752845	0.000203	2.026645	0.686646	0.000081
1652	1.6427e+02	-14.2263	-55.583285	0.000426	4.255955	1.441957	0.000170
1653	1.6437e+02	-14.1798	-55.502542	0.000203	2.026645	0.686646	0.000081
1654	1.6447e+02	-14.1381	-55.377391	0.000314	3.141300	1.064301	0.000126
1655	1.6457e+02	-14.1060	-55.292611	0.000213	2.127977	0.720978	0.000085
1656	1.6467e+02	-14.0579	-55.179571	0.000284	2.837303	0.961304	0.000114
1657	1.6477e+02	-14.0242	-55.090754	0.000223	2.229310	0.755311	0.000089
1658	1.6487e+02	-13.9825	-55.005974	0.000213	2.127977	0.720978	0.000085
1659	1.6497e+02	-13.9472	-54.896972	0.000274	2.735971	0.926972	0.000110
1660	1.6507e+02	-13.9007	-54.796043	0.000253	2.533306	0.858307	0.000101
1661	1.6517e+02	-13.8750	-54.670892	0.000314	3.141300	1.064301	0.000126
1662	1.6527e+02	-13.8285	-54.565927	0.000263	2.634639	0.892640	0.000105
1663	1.6537e+02	-13.7820	-54.485184	0.000203	2.026645	0.686646	0.000081
1664	1.6547e+02	-13.7354	-54.372144	0.000284	2.837303	0.961304	0.000114
1665	1.6557e+02	-13.7034	-54.206622	0.000415	4.154623	1.407624	0.000166
1666	1.6567e+02	-13.6584	-54.178362	0.000071	0.709326	0.240326	0.000028
1667	1.6577e+02	-13.6312	-54.045136	0.000334	3.343965	1.132966	0.000134
1668	1.6587e+02	-13.5895	-53.944208	0.000253	2.533306	0.858307	0.000101
1669	1.6597e+02	-13.5574	-53.859428	0.000213	2.127977	0.720978	0.000085
1670	1.6607e+02	-13.5141	-53.697942	0.000405	4.053290	1.373292	0.000162
1671	1.6616e+02	-13.4691	-53.629311	0.000172	1.722648	0.583649	0.000069
1672	1.6626e+02	-13.4194	-53.516271	0.000284	2.837303	0.961304	0.000114
1673	1.6636e+02	-13.3986	-53.391120	0.000314	3.141300	1.064301	0.000126
1674	1.6646e+02	-13.3392	-53.298266	0.000233	2.330642	0.789643	0.000093
1675	1.6656e+02	-13.3103	-53.201375	0.000243	2.431974	0.823975	0.000097
1676	1.6666e+02	-13.2654	-53.039889	0.000405	4.053290	1.373292	0.000162
1677	1.6676e+02	-13.2333	-52.987407	0.000132	1.317319	0.446320	0.000053
1678	1.6686e+02	-13.1884	-52.882441	0.000263	2.634639	0.892640	0.000105
1679	1.6696e+02	-13.1499	-52.733067	0.000375	3.749294	1.270295	0.000150
1680	1.6706e+02	-13.1082	-52.644250	0.000223	2.229310	0.755311	0.000089
1681	1.6716e+02	-13.0745	-52.519099	0.000314	3.141300	1.064301	0.000126
1682	1.6726e+02	-13.0328	-52.434319	0.000213	2.127977	0.720978	0.000085
1683	1.6736e+02	-12.9847	-52.349539	0.000213	2.127977	0.720978	0.000085
1684	1.6746e+02	-12.9462	-52.200165	0.000375	3.749294	1.270295	0.000150
1685	1.6756e+02	-12.9125	-52.099237	0.000253	2.533306	0.858307	0.000101
1686	1.6766e+02	-12.8692	-52.018494	0.000203	2.026645	0.686646	0.000081
1687	1.6776e+02	-12.8274	-51.913528	0.000263	2.634639	0.892640	0.000105
1688	1.6786e+02	-12.7938	-51.820674	0.000233	2.330642	0.789643	0.000093
1689	1.6796e+02	-12.7537	-51.675337	0.000365	3.647961	1.235963	0.000146
1690	1.6806e+02	-12.7055	-51.582483	0.000233	2.330642	0.789643	0.000093
1691	1.6816e+02	-12.6718	-51.433109	0.000375	3.749294	1.270295	0.000150
1692	1.6825e+02	-12.6349	-51.340255	0.000233	2.330642	0.789643	0.000093
1693	1.6835e+02	-12.5836	-51.251438	0.000223	2.229310	0.755311	0.000089
1694	1.6845e+02	-12.5531	-51.110138	0.000355	3.546629	1.201630	0.000142
1695	1.6855e+02	-12.5082	-50.989024	0.000304	3.039968	1.029969	0.000122
1696	1.6865e+02	-12.4825	-50.888096	0.000253	2.533306	0.858307	0.000101
1697	1.6875e+02	-12.4328	-50.819465	0.000172	1.722648	0.583649	0.000069
1698	1.6885e+02	-12.3927	-50.670091	0.000375	3.749294	1.270295	0.000150
1699	1.6895e+02	-12.3478	-50.569162	0.000253	2.533306	0.858307	0.000101
1700	1.6905e+02	-12.3093	-50.452085	0.000294	2.938635	0.995637	0.000118
1701	1.6915e+02	-12.2708	-50.330971	0.000304	3.039968	1.029969	0.000122
1702	1.6925e+02	-12.2419	-50.254266	0.000193	1.925313	0.652314	0.000077
1703	1.6935e+02	-12.1970	-50.133152	0.000304	3.039968	1.029969	0.000122
1704	1.6945e+02	-12.1569	-50.012038	0.000304	3.039968	1.029969	0.000122
1705	1.6955e+02	-12.1152	-49.915146	0.000243	2.431974	0.823975	0.000097
1706	1.6965e+02	-12.0815	-49.777884	0.000345	3.445297	1.167298	0.000138
1707	1.6975e+02	-12.0301	-49.664844	0.000284	2.837303	0.961304	0.000114
1708	1.6985e+02	-11.9997	-49.563915	0.000253	2.533306	0.858307	0.000101
1709	1.6995e+02	-11.9563	-49.450876	0.000284	2.837303	0.961304	0.000114
1710	1.7005e+02	-11.9162	-49.333799	0.000294	2.938635	0.995637	0.000118
1711	1.7015e+02	-11.8826	-49.220759	0.000284	2.837303	0.961304	0.000114
1712	1.7024e+02	-11.8280	-49.107719	0.000284	2.837303	0.961304	0.000114
1713	1.7034e+02	-11.7911	-49.018902	0.000223	2.229310	0.755311	0.000089
1714	1.7044e+02	-11.7526	-48.893751	0.000314	3.141300	1.064301	0.000126
1715	1.7054e+02	-11.7189	-48.768600	0.000314	3.141300	1.064301	0.000126
1716	1.7064e+02	-11.6692	-48.643449	0.000314	3.141300	1.064301	0.000126
1717	1.7074e+02	-11.6307	-48.534446	0.000274	2.735971	0.926972	0.000110
1718	1.7084e+02	-11.5986	-48.445629	0.000223	2.229310	0.755311	0.000089
1719	1.7094e+02	-11.5553	-48.332589	0.000284	2.837303	0.961304	0.000114
1720	1.7104e+02	-11.5184	-48.223586	0.000274	2.735971	0.926972	0.000110
1721	1.7114e+02	-11.4671	-48.078250	0.000365	3.647961	1.235963	0.000146
1722	1.7124e+02	-11.4398	-47.969247	0.000274	2.735971	0.926972	0.000110
1723	1.7134e+02	-11.3965	-47.876393	0.000233	2.330642	0.789643	0.000093
1724	1.7144e+02	-11.3612	-47.779501	0.000243	2.431974	0.823975	0.000097
1725	1.7154e+02	-11.3195	-47.613979	0.000415	4.154623	1.407624	0.000166
1726	1.7164e+02	-11.2778	-47.521125	0.000233	2.330642	0.789643	0.000093
1727	1.7174e+02	-11.2409	-47.432308	0.000223	2.229310	0.755311	0.000089
1728	1.7184e+02	-11.1959	-47.270822	0.000405	4.053290	1.373292	0.000162
1729	1.7194e+02	-11.1542	-47.145671	0.000314	3.141300	1.064301	0.000126
1730	1.7204e+02	-11.1157	-47.068966	0.000193	1.925313	0.652314	0.000077
1731	1.7213e+02	-11.0708	-46.951889	0.000294	2.938635	0.995637	0.000118
1732	1.7223e+02	-11.0419	-46.846923	0.000263	2.634639	0.892640	0.000105
1733	1.7233e+02	-10.9954	-46.701586	0.000365	3.647961	1.235963	0.000146
1734	1.7243e+02	-10.9585	-46.588546	0.000284	2.837303	0.961304	0.000114
1735	1.7253e+02	-10.9152	-46.467432	0.000304	3.039968	1.029969	0.000122
1736	1.7263e+02	-10.8735	-46.342281	0.000314	3.141300	1.064301	0.000126
1737	1.7273e+02	-10.8398	-46.217130	0.000314	3.141300	1.064301	0.000126
1738	1.7283e+02	-10.8013	-46.116202	0.000253	2.533306	0.858307	0.000101
1739	1.7293e+02	-10.7580	-45.995087	0.000304	3.039968	1.029969	0.000122
1740	1.7303e+02	-10.7147	-45.873973	0.000304	3.039968	1.029969	0.000122
1741	1.7313e+02	-10.6778	-45.736711	0.000345	3.445297	1.167298	0.000138
1742	1.7323e+02	-10.6441	-45.643857	0.000233	2.330642	0.789643	0.000093
1743	1.7333e+02	-10.5927	-45.538891	0.000263	2.634639	0.892640	0.000105
1744	1.7343e+02	-10.5526	-45.450074	0.000223	2.229310	0.755311	0.000089
1745	1.7353e+02	-10.5174	-45.349146	0.000253	2.533306	0.858307	0.000101
1746	1.7363e+02	-10.4869	-45.211883	0.000345	3.445297	1.167298	0.000138
1747	1.7373e+02	-10.4339	-45.058472	0.000385	3.850626	1.304627	0.000154
1748	1.7383e+02	-10.4002	-44.949469	0.000274	2.735971	0.926972	0.000110
1749	1.7393e+02	-10.3585	-44.820281	0.000324	3.242632	1.098634	0.000130
1750	1.7403e+02	-10.3216	-44.711278	0.000274	2.735971	0.926972	0.000110
1751	1.7413e+02	-10.2831	-44.598238	0.000284	2.837303	0.961304	0.000114
1752	1.7422e+02	-10.2350	-44.489236	0.000274	2.735971	0.926972	0.000110
1753	1.7432e+02	-10.2013	-44.351973	0.000345	3.445297	1.167298	0.000138
1754	1.7442e+02	-10.1740	-44.202599	0.000375	3.749294	1.270295	0.000150
1755	1.7452e+02	-10.1275	-44.101671	0.000253	2.533306	0.858307	0.000101
1756	1.7462e+02	-10.0842	-43.956334	0.000365	3.647961	1.235963	0.000146
1757	1.7472e+02	-10.0521	-43.875591	0.000203	2.026645	0.686646	0.000081
1758	1.7482e+02	-10.0056	-43.738329	0.000345	3.445297	1.167298	0.000138
1759	1.7492e+02	-9.9623	-43.665660	0.000182	1.823981	0.617981	0.000073
1760	1.7502e+02	-9.9206	-43.512249	0.000385	3.850626	1.304627	0.000154
1761	1.7512e+02	-9.8805	-43.383061	0.000324	3.242632	1.098634	0.000130
1762	1.7522e+02	-9.8436	-43.221575	0.000405	4.053290	1.373292	0.000162
1763	1.7532e+02	-9.8067	-43.144870	0.000193	1.925313	0.652314	0.000077
1764	1.7542e+02	-9.7634	-42.999533	0.000365	3.647961	1.235963	0.000146
1765	1.7552e+02	-9.7281	-42.866307	0.000334	3.343965	1.132966	0.000134
1766	1.7562e+02	-9.6735	-42.785565	0.000203	2.026645	0.686646	0.000081
1767	1.7572e+02	-9.6318	-42.632153	0.000385	3.850626	1.304627	0.000154
1768	1.7582e+02	-9.6013	-42.543336	0.000223	2.229310	0.755311	0.000089
1769	1.7592e+02	-9.5628	-42.418185	0.000314	3.141300	1.064301	0.000126
1770	1.7602e+02	-9.5227	-42.276885	0.000355	3.546629	1.201630	0.000142
1771	1.7612e+02	-9.4858	-42.143660	0.000334	3.343965	1.132966	0.000134
1772	1.7621e+02	-9.4473	-42.042732	0.000253	2.533306	0.858307	0.000101
1773	1.7631e+02	-9.4072	-41.925655	0.000294	2.938635	0.995637	0.000118
1774	1.7641e+02	-9.3623	-41.756095	0.000426	4.255955	1.441957	0.000170
1775	1.7651e+02	-9.3222	-41.610758	0.000365	3.647961	1.235963	0.000146
1776	1.7661e+02	-9.2869	-41.550201	0.000152	1.519984	0.514984	0.000061
1777	1.7671e+02	-9.2452	-41.425050	0.000314	3.141300	1.064301	0.000126
1778	1.7681e+02	-9.1955	-41.291824	0.000334	3.343965	1.132966	0.000134
1779	1.7691e+02	-9.1650	-41.166673	0.000314	3.141300	1.064301	0.000126
1780	1.7701e+02	-9.1265	-41.041522	0.000314	3.141300	1.064301	0.000126
1781	1.7711e+02	-9.0767	-40.948668	0.000233	2.330642	0.789643	0.000093
1782	1.7721e+02	-9.0479	-40.811405	0.000345	3.445297	1.167298	0.000138
1783	1.7731e+02	-9.0030	-40.682217	0.000324	3.242632	1.098634	0.000130
1784	1.7741e+02	-8.9612	-40.553028	0.000324	3.242632	1.098634	0.000130
1785	1.7751e+02	-8.9276	-40.427877	0.000314	3.141300	1.064301	0.000126
1786	1.7761e+02	-8.8810	-40.322912	0.000263	2.634639	0.892640	0.000105
1787	1.7771e+02	-8.8425	-40.145278	0.000446	4.458619	1.510621	0.000179
1788	1.7781e+02	-8.8072	-40.048387	0.000243	2.431974	0.823975	0.000097
1789	1.7791e+02	-8.7623	-39.899012	0.000375	3.749294	1.270295	0.000150
1790	1.7801e+02	-8.7254	-39.810196	0.000223	2.229310	0.755311	0.000089
1791	1.7810e+02	-8.6901	-39.685044	0.000314	3.141300	1.064301	0.000126
1792	1.7820e+02	-8.6452	-39.511447	0.000436	4.357287	1.476289	0.000174
1793	1.7830e+02	-8.6131	-39.422630	0.000223	2.229310	0.755311	0.000089
1794	1.7840e+02	-8.5730	-39.321702	0.000253	2.533306	0.858307	0.000101
1795	1.7850e+02	-8.5297	-39.164254	0.000395	3.951958	1.338960	0.000158
1796	1.7860e+02	-8.4880	-39.018917	0.000365	3.647961	1.235963	0.000146
1797	1.7870e+02	-8.4399	-38.905877	0.000284	2.837303	0.961304	0.000114
1798	1.7880e+02	-8.4030	-38.784763	0.000304	3.039968	1.029969	0.000122
1799	1.7890e+02	-8.3629	-38.647500	0.000345	3.445297	1.167298	0.000138
1800	1.7900e+02	-8.3308	-38.534461	0.000284	2.837303	0.961304	0.000114
1801	1.7910e+02	-8.2859	-38.368938	0.000415	4.154623	1.407624	0.000166
1802	1.7920e+02	-8.2522	-38.239750	0.000324	3.242632	1.098634	0.000130
1803	1.7930e+02	-8.2121	-38.142858	0.000243	2.431974	0.823975	0.000097
1804	1.7940e+02	-8.1655	-38.025782	0.000294	2.938635	0.995637	0.000118
1805	1.7950e+02	-8.1303	-37.888519	0.000345	3.445297	1.167298	0.000138
1806	1.7960e+02	-8.0950	-37.739145	0.000375	3.749294	1.270295	0.000150
1807	1.7970e+02	-8.0468	-37.581697	0.000395	3.951958	1.338960	0.000158
1808	1.7980e+02	-8.0067	-37.500954	0.000203	2.026645	0.686646	0.000081
1809	1.7990e+02	-7.9811	-37.339468	0.000405	4.053290	1.373292	0.000162
1810	1.8000e+02	-7.9281	-37.254689	0.000213	2.127977	0.720978	0.000085
1811	1.8009e+02	-7.8816	-37.048795	0.000517	5.167945	1.750947	0.000207
1812	1.8019e+02	-7.8495	-36.947866	0.000253	2.533306	0.858307	0.000101
1813	1.8029e+02	-7.8094	-36.834826	0.000284	2.837303	0.961304	0.000114
1814	1.8039e+02	-7.7725	-36.649118	0.000466	4.661284	1.579286	0.000187
1815	1.8049e+02	-7.7180	-36.560301	0.000223	2.229310	0.755311	0.000089
1816	1.8059e+02	-7.6827	-36.435150	0.000314	3.141300	1.064301	0.000126
1817	1.8069e+02	-7.6570	-36.322110	0.000284	2.837303	0.961304	0.000114
1818	1.8079e+02	-7.6137	-36.180810	0.000355	3.546629	1.201630	0.000142
1819	1.8089e+02	-7.5624	-36.051622	0.000324	3.242632	1.098634	0.000130
1820	1.8099e+02	-7.5271	-35.918397	0.000334	3.343965	1.132966	0.000134
1821	1.8109e+02	-7.4902	-35.821505	0.000243	2.431974	0.823975	0.000097
1822	1.8119e+02	-7.4517	-35.668094	0.000385	3.850626	1.304627	0.000154
1823	1.8129e+02	-7.4100	-35.490460	0.000446	4.458619	1.510621	0.000179
1824	1.8139e+02	-7.3714	-35.381458	0.000274	2.735971	0.926972	0.000110
1825	1.8149e+02	-7.3281	-35.280529	0.000253	2.533306	0.858307	0.000101
1826	1.8159e+02	-7.2944	-35.106932	0.000436	4.357287	1.476289	0.000174
1827	1.8169e+02	-7.2527	-34.997930	0.000274	2.735971	0.926972	0.000110
1828	1.8179e+02	-7.2078	-34.832407	0.000415	4.154623	1.407624	0.000166
1829	1.8189e+02	-7.1773	-34.683033	0.000375	3.749294	1.270295	0.000150
1830	1.8199e+02	-7.1324	-34.569993	0.000284	2.837303	0.961304	0.000114
1831	1.8209e+02	-7.0875	-34.460991	0.000274	2.735971	0.926972	0.000110
1832	1.8218e+02	-7.0458	-34.311617	0.000375	3.749294	1.270295	0.000150
1833	1.8228e+02	-7.0185	-34.206651	0.000263	2.634639	0.892640	0.000105
1834	1.8238e+02	-6.9704	-34.037091	0.000426	4.255955	1.441957	0.000170
1835	1.8248e+02	-6.9271	-33.883680	0.000385	3.850626	1.304627	0.000154
1836	1.8258e+02	-6.8918	-33.750455	0.000334	3.343965	1.132966	0.000134
1837	1.8268e+02	-6.8517	-33.609155	0.000355	3.546629	1.201630	0.000142
1838	1.8278e+02	-6.8148	-33.524375	0.000213	2.127977	0.720978	0.000085
1839	1.8288e+02	-6.7763	-33.346741	0.000446	4.458619	1.510621	0.000179
1840	1.8298e+02	-6.7362	-33.197367	0.000375	3.749294	1.270295	0.000150
1841	1.8308e+02	-6.6961	-33.092402	0.000263	2.634639	0.892640	0.000105
1842	1.8318e+02	-6.6431	-32.918805	0.000436	4.357287	1.476289	0.000174
1843	1.8328e+02	-6.6143	-32.797691	0.000304	3.039968	1.029969	0.000122
1844	1.8338e+02	-6.5758	-32.648317	0.000375	3.749294	1.270295	0.000150
1845	1.8348e+02	-6.5244	-32.511054	0.000345	3.445297	1.167298	0.000138
1846	1.8358e+02	-6.4955	-32.369754	0.000355	3.546629	1.201630	0.000142
1847	1.8368e+02	-6.4522	-32.232492	0.000345	3.445297	1.167298	0.000138
1848	1.8378e+02	-6.4201	-32.163860	0.000172	1.722648	0.583649	0.000069
1849	1.8388e+02	-6.3784	-32.014486	0.000375	3.749294	1.270295	0.000150
1850	1.8398e+02	-6.3447	-31.820704	0.000486	4.863948	1.647950	0.000195
1851	1.8407e+02	-6.3046	-31.743998	0.000193	1.925313	0.652314	0.000077
1852	1.8417e+02	-6.2565	-31.586550	0.000395	3.951958	1.338960	0.000158
1853	1.8427e+02	-6.2148	-31.437176	0.000375	3.749294	1.270295	0.000150
1854	1.8437e+02	-6.1827	-31.287802	0.000375	3.749294	1.270295	0.000150
1855	1.8447e+02	-6.1346	-31.142465	0.000365	3.647961	1.235963	0.000146
1856	1.8457e+02	-6.1041	-31.009240	0.000334	3.343965	1.132966	0.000134
1857	1.8467e+02	-6.0560	-30.871977	0.000345	3.445297	1.167298	0.000138
1858	1.8477e+02	-6.0111	-30.771049	0.000253	2.533306	0.858307	0.000101
1859	1.8487e+02	-5.9774	-30.597452	0.000436	4.357287	1.476289	0.000174
1860	1.8497e+02	-5.9373	-30.440003	0.000395	3.951958	1.338960	0.000158
1861	1.8507e+02	-5.9020	-30.298704	0.000355	3.546629	1.201630	0.000142
1862	1.8517e+02	-5.8538	-30.181627	0.000294	2.938635	0.995637	0.000118
1863	1.8527e+02	-5.8169	-30.044364	0.000345	3.445297	1.167298	0.000138
1864	1.8537e+02	-5.7784	-29.878842	0.000415	4.154623	1.407624	0.000166
1865	1.8547e+02	-5.7367	-29.773876	0.000263	2.634639	0.892640	0.000105
1866	1.8557e+02	-5.7014	-29.576056	0.000497	4.965281	1.682283	0.000199
1867	1.8567e+02	-5.6533	-29.467054	0.000274	2.735971	0.926972	0.000110
1868	1.8577e+02	-5.6276	-29.305568	0.000405	4.053290	1.373292	0.000162
1869	1.8587e+02	-5.5827	-29.168306	0.000345	3.445297	1.167298	0.000138
1870	1.8597e+02	-5.5378	-29.018932	0.000375	3.749294	1.270295	0.000150
1871	1.8606e+02	-5.5121	-28.873595	0.000365	3.647961	1.235963	0.000146
1872	1.8616e+02	-5.4576	-28.736332	0.000345	3.445297	1.167298	0.000138
1873	1.8626e+02	-5.4223	-28.586958	0.000375	3.749294	1.270295	0.000150
1874	1.8636e+02	-5.3838	-28.445658	0.000355	3.546629	1.201630	0.000142
1875	1.8646e+02	-5.3469	-28.320507	0.000314	3.141300	1.064301	0.000126
1876	1.8656e+02	-5.3036	-28.179207	0.000355	3.546629	1.201630	0.000142
1877	1.8666e+02	-5.2603	-28.029833	0.000375	3.749294	1.270295	0.000150
1878	1.8676e+02	-5.2282	-27.852199	0.000446	4.458619	1.510621	0.000179
1879	1.8686e+02	-5.1785	-27.714937	0.000345	3.445297	1.167298	0.000138
1880	1.8696e+02	-5.1480	-27.573637	0.000355	3.546629	1.201630	0.000142
1881	1.8706e+02	-5.0999	-27.444449	0.000324	3.242632	1.098634	0.000130
1882	1.8716e+02	-5.0662	-27.278926	0.000415	4.154623	1.407624	0.000166
1883	1.8726e+02	-5.0196	-27.177998	0.000253	2.533306	0.858307	0.000101
1884	1.8736e+02	-4.9763	-27.004401	0.000436	4.357287	1.476289	0.000174
1885	1.8746e+02	-4.9378	-26.859064	0.000365	3.647961	1.235963	0.000146
1886	1.8756e+02	-4.8993	-26.681430	0.000446	4.458619	1.510621	0.000179
1887	1.8766e+02	-4.8576	-26.540130	0.000355	3.546629	1.201630	0.000142
1888	1.8776e+02	-4.8319	-26.386719	0.000385	3.850626	1.304627	0.000154
1889	1.8786e+02	-4.7710	-26.257531	0.000324	3.242632	1.098634	0.000130
1890	1.8796e+02	-4.7485	-26.083934	0.000436	4.357287	1.476289	0.000174
1891	1.8806e+02	-4.7052	-25.978968	0.000263	2.634639	0.892640	0.000105
1892	1.8815e+02	-4.6699	-25.785186	0.000486	4.863948	1.647950	0.000195
1893	1.8825e+02	-4.6218	-25.639849	0.000365	3.647961	1.235963	0.000146
1894	1.8835e+02	-4.5865	-25.498549	0.000355	3.546629	1.201630	0.000142
1895	1.8845e+02	-4.5416	-25.324952	0.000436	4.357287	1.476289	0.000174
1896	1.8855e+02	-4.5031	-25.183653	0.000355	3.546629	1.201630	0.000142
1897	1.8865e+02	-4.4662	-25.070613	0.000284	2.837303	0.961304	0.000114
1898	1.8875e+02	-4.4197	-24.921239	0.000375	3.749294	1.270295	0.000150
1899	1.8885e+02	-4.3924	-24.735531	0.000466	4.661284	1.579286	0.000187
1900	1.8895e+02	-4.3523	-24.622491	0.000284	2.837303	0.961304	0.000114
1901	1.8905e+02	-4.2961	-24.428708	0.000486	4.863948	1.647950	0.000195
1902	1.8915e+02	-4.2608	-24.291446	0.000345	3.445297	1.167298	0.000138
1903	1.8925e+02	-4.2272	-24.089589	0.000507	5.066613	1.716615	0.000203
1904	1.8935e+02	-4.1854	-23.956363	0.000334	3.343965	1.132966	0.000134
1905	1.8945e+02	-4.1453	-23.794878	0.000405	4.053290	1.373292	0.000162
1906	1.8955e+02	-4.1100	-23.689913	0.000263	2.634639	0.892640	0.000105
1907	1.8965e+02	-4.0571	-23.479981	0.000527	5.269277	1.785280	0.000211
1908	1.8975e+02	-4.0218	-23.379053	0.000253	2.533306	0.858307	0.000101
1909	1.8985e+02	-3.9833	-23.173159	0.000517	5.167945	1.750947	0.000207
1910	1.8995e+02	-3.9352	-23.068194	0.000263	2.634639	0.892640	0.000105
1911	1.9004e+02	-3.9031	-22.906708	0.000405	4.053290	1.373292	0.000162
1912	1.9014e+02	-3.8678	-22.761371	0.000365	3.647961	1.235963	0.000146
1913	1.9024e+02	-3.8325	-22.567589	0.000486	4.863948	1.647950	0.000195
1914	1.9034e+02	-3.7892	-22.466660	0.000253	2.533306	0.858307	0.000101
1915	1.9044e+02	-3.7427	-22.313249	0.000385	3.850626	1.304627	0.000154
1916	1.9054e+02	-3.7122	-22.058910	0.000638	6.383932	2.162935	0.000256
1917	1.9064e+02	-3.6689	-21.953944	0.000263	2.634639	0.892640	0.000105
1918	1.9074e+02	-3.6256	-21.796496	0.000395	3.951958	1.338960	0.000158
1919	1.9084e+02	-3.5887	-21.630973	0.000415	4.154623	1.407624	0.000166
1920	1.9094e+02	-3.5486	-21.465451	0.000415	4.154623	1.407624	0.000166
1921	1.9104e+02	-3.5052	-21.308002	0.000395	3.951958	1.338960	0.000158
1922	1.9114e+02	-3.4716	-21.190925	0.000294	2.938635	0.995637	0.000118
1923	1.9124e+02	-3.4298	-20.997143	0.000486	4.863948	1.647950	0.000195
1924	1.9134e+02	-3.3946	-20.827583	0.000426	4.255955	1.441957	0.000170
1925	1.9144e+02	-3.3496	-20.674172	0.000385	3.850626	1.304627	0.000154
1926	1.9154e+02	-3.3015	-20.484427	0.000476	4.762616	1.613618	0.000191
1927	1.9164e+02	-3.2710	-20.367350	0.000294	2.938635	0.995637	0.000118
1928	1.9174e+02	-3.2341	-20.222013	0.000365	3.647961	1.235963	0.000146
1929	1.9184e+02	-3.1908	-20.052453	0.000426	4.255955	1.441957	0.000170
1930	1.9194e+02	-3.1459	-19.870782	0.000456	4.559952	1.544953	0.000183
1931	1.9203e+02	-3.1058	-19.721408	0.000375	3.749294	1.270295	0.000150
1932	1.9213e+02	-3.0561	-19.555886	0.000415	4.154623	1.407624	0.000166
1933	1.9223e+02	-3.0256	-19.406511	0.000375	3.749294	1.270295	0.000150
1934	1.9233e+02	-2.9903	-19.196580	0.000527	5.269277	1.785280	0.000211
1935	1.9243e+02	-2.9534	-19.067392	0.000324	3.242632	1.098634	0.000130
1936	1.9253e+02	-2.9117	-18.901870	0.000415	4.154623	1.407624	0.000166
1937	1.9263e+02	-2.8748	-18.740384	0.000405	4.053290	1.373292	0.000162
1938	1.9273e+02	-2.8299	-18.586973	0.000385	3.850626	1.304627	0.000154
1939	1.9283e+02	-2.7898	-18.401265	0.000466	4.661284	1.579286	0.000187
1940	1.9293e+02	-2.7432	-18.223631	0.000446	4.458619	1.510621	0.000179
1941	1.9303e+02	-2.7095	-18.058108	0.000415	4.154623	1.407624	0.000166
1942	1.9313e+02	-2.6791	-17.900660	0.000395	3.951958	1.338960	0.000158
1943	1.9323e+02	-2.6325	-17.751286	0.000375	3.749294	1.270295	0.000150
1944	1.9333e+02	-2.5860	-17.581726	0.000426	4.255955	1.441957	0.000170
1945	1.9343e+02	-2.5588	-17.404092	0.000446	4.458619	1.510621	0.000179
1946	1.9353e+02	-2.4994	-17.246644	0.000395	3.951958	1.338960	0.000158
1947	1.9363e+02	-2.4705	-17.044787	0.000507	5.066613	1.716615	0.000203
1948	1.9373e+02	-2.4272	-16.895413	0.000375	3.749294	1.270295	0.000150
1949	1.9383e+02	-2.3887	-16.746039	0.000375	3.749294	1.270295	0.000150
1950	1.9393e+02	-2.3614	-16.588591	0.000395	3.951958	1.338960	0.000158
1951	1.9403e+02	-2.3133	-16.394808	0.000486	4.863948	1.647950	0.000195
1952	1.9412e+02	-2.2604	-16.241397	0.000385	3.850626	1.304627	0.000154
1953	1.9422e+02	-2.2299	-16.075875	0.000415	4.154623	1.407624	0.000166
1954	1.9432e+02	-2.1914	-15.902278	0.000436	4.357287	1.476289	0.000174
1955	1.9442e+02	-2.1529	-15.716569	0.000466	4.661284	1.579286	0.000187
1956	1.9452e+02	-2.1304	-15.538935	0.000446	4.458619	1.510621	0.000179
1957	1.9462e+02	-2.0839	-15.337079	0.000507	5.066613	1.716615	0.000203
1958	1.9472e+02	-2.0310	-15.203853	0.000334	3.343965	1.132966	0.000134
1959	1.9482e+02	-1.9909	-15.022182	0.000456	4.559952	1.544953	0.000183
1960	1.9492e+02	-1.9475	-14.864734	0.000395	3.951958	1.338960	0.000158
1961	1.9502e+02	-1.9090	-14.695174	0.000426	4.255955	1.441957	0.000170
1962	1.9512e+02	-1.8737	-14.509466	0.000466	4.661284	1.579286	0.000187
1963	1.9522e+02	-1.8385	-14.331832	0.000446	4.458619	1.510621	0.000179
1964	1.9532e+02	-1.7903	-14.154198	0.000446	4.458619	1.510621	0.000179
1965	1.9542e+02	-1.7550	-13.972527	0.000456	4.559952	1.544953	0.000183
1966	1.9552e+02	-1.7149	-13.774707	0.000497	4.965281	1.682283	0.000199
1967	1.9562e+02	-1.6764	-13.653593	0.000304	3.039968	1.029969	0.000122
1968	1.9572e+02	-1.6219	-13.423476	0.000578	5.775939	1.956941	0.000231
1969	1.9582e+02	-1.5898	-13.221620	0.000507	5.066613	1.716615	0.000203
1970	1.9592e+02	-1.5513	-13.096468	0.000314	3.141300	1.064301	0.000126
1971	1.9601e+02	-1.5048	-12.959206	0.000345	3.445297	1.167298	0.000138
1972	1.9611e+02	-1.4695	-12.733126	0.000567	5.674606	1.922609	0.000227
1973	1.9621e+02	-1.4374	-12.567604	0.000415	4.154623	1.407624	0.000166
1974	1.9631e+02	-1.3957	-12.373821	0.000486	4.863948	1.647950	0.000195
1975	1.9641e+02	-1.3572	-12.240596	0.000334	3.343965	1.132966	0.000134
1976	1.9651e+02	-1.3219	-12.038739	0.000507	5.066613	1.716615	0.000203
1977	1.9661e+02	-1.2754	-11.873216	0.000415	4.154623	1.407624	0.000166
1978	1.9671e+02	-1.2304	-11.675397	0.000497	4.965281	1.682283	0.000199
1979	1.9681e+02	-1.2064	-11.485651	0.000476	4.762616	1.613618	0.000191
1980	1.9691e+02	-1.1663	-11.308017	0.000446	4.458619	1.510621	0.000179
1981	1.9701e+02	-1.1069	-11.150569	0.000395	3.951958	1.338960	0.000158
1982	1.9711e+02	-1.0684	-10.900266	0.000628	6.282600	2.128603	0.000252
1983	1.9721e+02	-1.0411	-10.758967	0.000355	3.546629	1.201630	0.000142
1984	1.9731e+02	-0.9946	-10.597481	0.000405	4.053290	1.373292	0.000162
1985	1.9741e+02	-0.9609	-10.391587	0.000517	5.167945	1.750947	0.000207
1986	1.9751e+02	-0.9256	-10.181656	0.000527	5.269277	1.785280	0.000211
1987	1.9761e+02	-0.8791	-10.044394	0.000345	3.445297	1.167298	0.000138
1988	1.9771e+02	-0.8406	-9.858685	0.000466	4.661284	1.579286	0.000187
1989	1.9781e+02	-0.7909	-9.677014	0.000456	4.559952	1.544953	0.000183
1990	1.9791e+02	-0.7620	-9.483232	0.000486	4.863948	1.647950	0.000195
1991	1.9800e+02	-0.7203	-9.293486	0.000476	4.762616	1.613618	0.000191
1992	1.9810e+02	-0.6802	-9.115852	0.000446	4.458619	1.510621	0.000179
1993	1.9820e+02	-0.6337	-8.946293	0.000426	4.255955	1.441957	0.000170
1994	1.9830e+02	-0.5984	-8.760585	0.000466	4.661284	1.579286	0.000187
1995	1.9840e+02	-0.5519	-8.562765	0.000497	4.965281	1.682283	0.000199
1996	1.9850e+02	-0.5101	-8.421465	0.000355	3.546629	1.201630	0.000142
1997	1.9860e+02	-0.4925	-8.211534	0.000527	5.269277	1.785280	0.000211
1998	1.9870e+02	-0.4396	-8.021789	0.000476	4.762616	1.613618	0.000191
1999	1.9880e+02	-0.3914	-7.815895	0.000517	5.167945	1.750947	0.000207
2000	1.9890e+02	-0.3545	-7.630187	0.000466	4.661284	1.579286	0.000187
2001	1.9900e+02	-0.3225	-7.480813	0.000375	3.749294	1.270295	0.000150
2002	1.9910e+02	-0.2856	-7.262807	0.000547	5.471942	1.853944	0.000219
2003	1.9920e+02	-0.2406	-7.056913	0.000517	5.167945	1.750947	0.000207
2004	1.9930e+02	-0.2005	-6.871205	0.000466	4.661284	1.579286	0.000187
2005	1.9940e+02	-0.1636	-6.729905	0.000355	3.546629	1.201630	0.000142
2006	1.9950e+02	-0.1123	-6.511900	0.000547	5.471942	1.853944	0.000219
2007	1.9960e+02	-0.0866	-6.342340	0.000426	4.255955	1.441957	0.000170
2008	1.9970e+02	-0.0433	-6.128372	0.000537	5.370610	1.819612	0.000215
2009	1.9980e+02	0.0128	-5.930552	0.000537	5.370610	1.819612	0.000199

Center data before PMax,+/-Pr and +/-Vc Calc.

PMax (uC/cm2):	6.86e+01
Pr (uC/cm2):	2.00e+00
-Pr (uC/cm2):	-5.93e+00
PLoss (uC/cm2):	-3.52e+00
Vc:	5.68e-01
-Vc:	-4.38e-01
C (Max-Eff) (nF):	3.43e-01
K (Eff):	1.16e+03
Vert. (+/-Pr) Shift (uC/cm2):	-1.97e+00
Horiz. Shift (+/-Vc):	6.45e-02
Offset (uC/cm2):	2.45e+00

A (Loop Area - uC/cm2·Volts):	5.85e-02



Hysteresis Version: 5.48.1 - Radiant Technologies, Inc., 1999 - 9/12/24

