»»»»»»»»»»»»»»»»»»»»»»»»»»»»»»»»»»»» Hysteresis ««««««««««««««««««««««««««««««««««««
»»»  Executed Version:	5.48.1
»»»  Vision Version:	5.48.4 (R)
»»»  Vision Compiled:	9/18/24
»»»  Driver Version:	5.47.0
»»»  Windows Version:	Windows 8 or 8.1
»»»  Processor Information:	x86 (AMD or Intel) - 32 Processors
»»»  Tester Name:	PMF21124-494 (100V)
»»»  Tester S/N:	PMF21124-494
»»»  Internal Amp Type:	100V RevK 270k
»»»  Internal Amp S/N:	iAB2-596/K     
»»»  Execution Count:	1
»»»»»»»»»»»»»»»»»»»»»»»»»»»»»»»»»»»»»»»»»»««««««««««««««««««««««««««««««««««««««««««

Stored:	6/13/2025 - 11:3:6
Configured:	06/13/25 10:12:58 AM
Executed:	06/13/25 11:02:35 AM

»»»»»»»»»»»»»»»»»»»»»»»»»»»»»»»»»»» Sample Info ««««««««««««««««««««««««««««««««««««
Sample Name:	
Lot Name:	
Wafer Name:	
Die Row/Column:	0/0
Capacitor Number:	0
Sample Area (cm2):	1.00e-04
Sample Thickness (microns):	3.00e-01

Amplifier:	Internal

»»»»»»»»»»»»»»»»»»»»»»»»»»»»»»»»»»» Tester Info «««««««««««««««««««««««««««««««««««
Tester Name:	PMF21124-494 (100V)
Tester Serial Number:	PMF21124-494
Return Signal Amp. Level:	0.19 [Index: 3]

»»»»»»»»»»»»»»»»»»»»»»»»»»»»»»»» Hysteresis Info ««««««««««««««««««««««««««««««««««
Task Name:	Hyst-1704
Volts:	20.00
Field:	666.67 (kV/cm)
DCBias:	0.00
DCField:	0.00 (kV/cm)
Hysteresis Period (ms):	2.00e+02
Preset:	Enabled
Preset Delay (ms):	1.00e+03
Profile:	Standard Bipolar

»»»»»»»»»»»»»»»»»»»»»»»»»»»»»»»»»»»»»» Data «««««««««««««««««««««««««««««««««««««««
Points:	2009

Valid Data

Point	Time (ms)	Drive Voltage	Measured Polarization (uC/cm2)	Capacitance (uF)	Normalized Capacitance (uF/cm2)	Dielectric Constant	Instantaneous Current (mA)
   1	0.0000e+00	0.0000	-2.930961	0.000284	2.836905	0.961169	0.000114
   2	9.9500e-02	0.0273	-2.817921	0.000284	2.836905	0.961169	0.000114
   3	1.9900e-01	0.0674	-2.660472	0.000395	3.951403	1.338772	0.000158
   4	2.9850e-01	0.1107	-2.490913	0.000426	4.255358	1.441754	0.000170
   5	3.9800e-01	0.1572	-2.268870	0.000557	5.572492	1.888011	0.000223
   6	4.9750e-01	0.1925	-2.151793	0.000294	2.938223	0.995497	0.000118
   7	5.9700e-01	0.2310	-2.022605	0.000324	3.242177	1.098479	0.000130
   8	6.9650e-01	0.2727	-1.844971	0.000446	4.457994	1.510409	0.000179
   9	7.9600e-01	0.3096	-1.695597	0.000375	3.748767	1.270117	0.000150
  10	8.9550e-01	0.3481	-1.522000	0.000436	4.356676	1.476082	0.000174
  11	9.9500e-01	0.3834	-1.324181	0.000496	4.964584	1.682047	0.000199
  12	1.0945e+00	0.4347	-1.194992	0.000324	3.242177	1.098479	0.000130
  13	1.1940e+00	0.4781	-1.049655	0.000365	3.647449	1.235789	0.000146
  14	1.2935e+00	0.5085	-0.835687	0.000537	5.369856	1.819356	0.000215
  15	1.3930e+00	0.5438	-0.706499	0.000324	3.242177	1.098479	0.000130
  16	1.4925e+00	0.5920	-0.561162	0.000365	3.647449	1.235789	0.000146
  17	1.5920e+00	0.6321	-0.343157	0.000547	5.471174	1.853684	0.000219
  18	1.6915e+00	0.6674	-0.197820	0.000365	3.647449	1.235789	0.000146
  19	1.7910e+00	0.7059	-0.056520	0.000355	3.546131	1.201462	0.000142
  20	1.8905e+00	0.7396	0.125151	0.000456	4.559312	1.544737	0.000183
  21	1.9900e+00	0.7989	0.262414	0.000344	3.444813	1.167134	0.000138
  22	2.0895e+00	0.8182	0.431974	0.000426	4.255358	1.441754	0.000170
  23	2.1890e+00	0.8647	0.593459	0.000405	4.052721	1.373099	0.000162
  24	2.2885e+00	0.9112	0.795316	0.000507	5.065902	1.716374	0.000203
  25	2.3880e+00	0.9433	0.960838	0.000415	4.154039	1.407427	0.000166
  26	2.4875e+00	0.9866	1.118287	0.000395	3.951403	1.338772	0.000158
  27	2.5870e+00	1.0299	1.320143	0.000507	5.065902	1.716374	0.000203
  28	2.6865e+00	1.0668	1.457406	0.000344	3.444813	1.167134	0.000138
  29	2.7860e+00	1.1053	1.631003	0.000436	4.356676	1.476082	0.000174
  30	2.8855e+00	1.1374	1.788451	0.000395	3.951403	1.338772	0.000158
  31	2.9850e+00	1.1903	1.962048	0.000436	4.356676	1.476082	0.000174
  32	3.0845e+00	1.2288	2.131608	0.000426	4.255358	1.441754	0.000170
  33	3.1840e+00	1.2641	2.325390	0.000486	4.863266	1.647719	0.000195
  34	3.2835e+00	1.3058	2.466690	0.000355	3.546131	1.201462	0.000142
  35	3.3830e+00	1.3492	2.660472	0.000486	4.863266	1.647719	0.000195
  36	3.4825e+00	1.3925	2.769475	0.000274	2.735587	0.926842	0.000110
  37	3.5820e+00	1.4294	2.959220	0.000476	4.761948	1.613392	0.000191
  38	3.6815e+00	1.4599	3.128780	0.000426	4.255358	1.441754	0.000170
  39	3.7810e+00	1.5080	3.294303	0.000415	4.154039	1.407427	0.000166
  40	3.8805e+00	1.5433	3.435603	0.000355	3.546131	1.201462	0.000142
  41	3.9800e+00	1.5754	3.633422	0.000496	4.964584	1.682047	0.000199
  42	4.0795e+00	1.6315	3.754536	0.000304	3.039541	1.029824	0.000122
  43	4.1790e+00	1.6684	3.992727	0.000598	5.977764	2.025321	0.000239
  44	4.2785e+00	1.7101	4.150176	0.000395	3.951403	1.338772	0.000158
  45	4.3780e+00	1.7374	4.291475	0.000355	3.546131	1.201462	0.000142
  46	4.4775e+00	1.7823	4.432775	0.000355	3.546131	1.201462	0.000142
  47	4.5770e+00	1.8224	4.578112	0.000365	3.647449	1.235789	0.000146
  48	4.6765e+00	1.8609	4.800154	0.000557	5.572492	1.888011	0.000223
  49	4.7760e+00	1.9058	5.010085	0.000527	5.268538	1.785029	0.000211
  50	4.8755e+00	1.9395	5.102940	0.000233	2.330315	0.789532	0.000093
  51	4.9750e+00	1.9941	5.272499	0.000426	4.255358	1.441754	0.000170
  52	5.0745e+00	2.0294	5.442059	0.000426	4.255358	1.441754	0.000170
  53	5.1740e+00	2.0759	5.583359	0.000355	3.546131	1.201462	0.000142
  54	5.2735e+00	2.1048	5.748881	0.000415	4.154039	1.407427	0.000166
  55	5.3730e+00	2.1465	5.946701	0.000496	4.964584	1.682047	0.000199
  56	5.4725e+00	2.1882	6.088001	0.000355	3.546131	1.201462	0.000142
  57	5.5720e+00	2.2203	6.289857	0.000507	5.065902	1.716374	0.000203
  58	5.6715e+00	2.2652	6.471529	0.000456	4.559312	1.544737	0.000183
  59	5.7710e+00	2.3149	6.628977	0.000395	3.951403	1.338772	0.000158
  60	5.8705e+00	2.3454	6.790462	0.000405	4.052721	1.373099	0.000162
  61	5.9700e+00	2.3823	6.960022	0.000426	4.255358	1.441754	0.000170
  62	6.0695e+00	2.4352	7.117470	0.000395	3.951403	1.338772	0.000158
  63	6.1690e+00	2.4657	7.295104	0.000446	4.457994	1.510409	0.000179
  64	6.2685e+00	2.4994	7.476775	0.000456	4.559312	1.544737	0.000183
  65	6.3680e+00	2.5427	7.581741	0.000263	2.634269	0.892514	0.000105
  66	6.4675e+00	2.5844	7.767449	0.000466	4.660630	1.579064	0.000187
  67	6.5670e+00	2.6197	7.945083	0.000446	4.457994	1.510409	0.000179
  68	6.6665e+00	2.6598	8.130791	0.000466	4.660630	1.579064	0.000187
  69	6.7660e+00	2.7095	8.312462	0.000456	4.559312	1.544737	0.000183
  70	6.8655e+00	2.7368	8.461837	0.000375	3.748767	1.270117	0.000150
  71	6.9650e+00	2.7769	8.635433	0.000436	4.356676	1.476082	0.000174
  72	7.0645e+00	2.8202	8.813067	0.000446	4.457994	1.510409	0.000179
  73	7.1640e+00	2.8587	8.998776	0.000466	4.660630	1.579064	0.000187
  74	7.2635e+00	2.8988	9.115852	0.000294	2.938223	0.995497	0.000118
  75	7.3630e+00	2.9454	9.297524	0.000456	4.559312	1.544737	0.000183
  76	7.4625e+00	2.9807	9.446898	0.000375	3.748767	1.270117	0.000150
  77	7.5620e+00	3.0111	9.572049	0.000314	3.140859	1.064152	0.000126
  78	7.6615e+00	3.0513	9.745646	0.000436	4.356676	1.476082	0.000174
  79	7.7610e+00	3.1106	9.963651	0.000547	5.471174	1.853684	0.000219
  80	7.8605e+00	3.1459	10.100914	0.000344	3.444813	1.167134	0.000138
  81	7.9600e+00	3.1780	10.254325	0.000385	3.850085	1.304444	0.000154
  82	8.0595e+00	3.2261	10.452144	0.000496	4.964584	1.682047	0.000199
  83	8.1590e+00	3.2582	10.605556	0.000385	3.850085	1.304444	0.000154
  84	8.2585e+00	3.2999	10.767041	0.000405	4.052721	1.373099	0.000162
  85	8.3580e+00	3.3336	10.928526	0.000405	4.052721	1.373099	0.000162
  86	8.4575e+00	3.3737	11.110198	0.000456	4.559312	1.544737	0.000183
  87	8.5570e+00	3.4186	11.263609	0.000385	3.850085	1.304444	0.000154
  88	8.6565e+00	3.4571	11.433168	0.000426	4.255358	1.441754	0.000170
  89	8.7560e+00	3.4844	11.606765	0.000436	4.356676	1.476082	0.000174
  90	8.8555e+00	3.5389	11.772288	0.000415	4.154039	1.407427	0.000166
  91	8.9550e+00	3.5806	11.893402	0.000304	3.039541	1.029824	0.000122
  92	9.0545e+00	3.6191	12.038739	0.000365	3.647449	1.235789	0.000146
  93	9.1540e+00	3.6512	12.268856	0.000578	5.775128	1.956666	0.000231
  94	9.2535e+00	3.6929	12.410155	0.000355	3.546131	1.201462	0.000142
  95	9.3530e+00	3.7330	12.579715	0.000426	4.255358	1.441754	0.000170
  96	9.4525e+00	3.7732	12.745238	0.000415	4.154039	1.407427	0.000166
  97	9.5520e+00	3.8133	12.914797	0.000426	4.255358	1.441754	0.000170
  98	9.6515e+00	3.8566	13.076283	0.000405	4.052721	1.373099	0.000162
  99	9.7510e+00	3.8935	13.225657	0.000375	3.748767	1.270117	0.000150
 100	9.8505e+00	3.9400	13.383105	0.000395	3.951403	1.338772	0.000158
 101	9.9500e+00	3.9833	13.548628	0.000415	4.154039	1.407427	0.000166
 102	1.0050e+01	4.0186	13.750484	0.000507	5.065902	1.716374	0.000203
 103	1.0149e+01	4.0619	13.936193	0.000466	4.660630	1.579064	0.000187
 104	1.0248e+01	4.1004	14.012898	0.000193	1.925043	0.652222	0.000077
 105	1.0348e+01	4.1389	14.210718	0.000496	4.964584	1.682047	0.000199
 106	1.0447e+01	4.1806	14.343943	0.000334	3.343495	1.132807	0.000134
 107	1.0547e+01	4.2207	14.553874	0.000527	5.268538	1.785029	0.000211
 108	1.0646e+01	4.2608	14.695174	0.000355	3.546131	1.201462	0.000142
 109	1.0746e+01	4.2897	14.852622	0.000395	3.951403	1.338772	0.000158
 110	1.0845e+01	4.3378	15.042368	0.000476	4.761948	1.613392	0.000191
 111	1.0945e+01	4.3731	15.127148	0.000213	2.127679	0.720877	0.000085
 112	1.1044e+01	4.4148	15.324967	0.000496	4.964584	1.682047	0.000199
 113	1.1144e+01	4.4485	15.498564	0.000436	4.356676	1.476082	0.000174
 114	1.1243e+01	4.4951	15.631790	0.000334	3.343495	1.132807	0.000134
 115	1.1343e+01	4.5287	15.785201	0.000385	3.850085	1.304444	0.000154
 116	1.1443e+01	4.5721	15.995132	0.000527	5.268538	1.785029	0.000211
 117	1.1542e+01	4.6202	16.100097	0.000263	2.634269	0.892514	0.000105
 118	1.1642e+01	4.6571	16.285806	0.000466	4.660630	1.579064	0.000187
 119	1.1741e+01	4.6924	16.459402	0.000436	4.356676	1.476082	0.000174
 120	1.1841e+01	4.7309	16.616851	0.000395	3.951403	1.338772	0.000158
 121	1.1940e+01	4.7742	16.766225	0.000375	3.748767	1.270117	0.000150
 122	1.2040e+01	4.8127	16.943859	0.000446	4.457994	1.510409	0.000179
 123	1.2139e+01	4.8592	17.069010	0.000314	3.140859	1.064152	0.000126
 124	1.2239e+01	4.8833	17.222421	0.000385	3.850085	1.304444	0.000154
 125	1.2338e+01	4.9314	17.383906	0.000405	4.052721	1.373099	0.000162
 126	1.2438e+01	4.9779	17.505021	0.000304	3.039541	1.029824	0.000122
 127	1.2537e+01	5.0116	17.678617	0.000436	4.356676	1.476082	0.000174
 128	1.2636e+01	5.0533	17.888548	0.000527	5.268538	1.785029	0.000211
 129	1.2736e+01	5.0870	18.037922	0.000375	3.748767	1.270117	0.000150
 130	1.2835e+01	5.1384	18.179222	0.000355	3.546131	1.201462	0.000142
 131	1.2935e+01	5.1720	18.324559	0.000365	3.647449	1.235789	0.000146
 132	1.3034e+01	5.2122	18.502193	0.000446	4.457994	1.510409	0.000179
 133	1.3134e+01	5.2555	18.655604	0.000385	3.850085	1.304444	0.000154
 134	1.3233e+01	5.2940	18.804978	0.000375	3.748767	1.270117	0.000150
 135	1.3333e+01	5.3437	18.954352	0.000375	3.748767	1.270117	0.000150
 136	1.3432e+01	5.3710	19.071429	0.000294	2.938223	0.995497	0.000118
 137	1.3532e+01	5.4079	19.216766	0.000365	3.647449	1.235789	0.000146
 138	1.3632e+01	5.4464	19.434771	0.000547	5.471174	1.853684	0.000219
 139	1.3731e+01	5.4993	19.584145	0.000375	3.748767	1.270117	0.000150
 140	1.3831e+01	5.5378	19.725445	0.000355	3.546131	1.201462	0.000142
 141	1.3930e+01	5.5763	19.890968	0.000415	4.154039	1.407427	0.000166
 142	1.4030e+01	5.6052	20.020156	0.000324	3.242177	1.098479	0.000130
 143	1.4129e+01	5.6485	20.217976	0.000496	4.964584	1.682047	0.000199
 144	1.4229e+01	5.6966	20.314867	0.000243	2.431633	0.823860	0.000097
 145	1.4328e+01	5.7223	20.460204	0.000365	3.647449	1.235789	0.000146
 146	1.4428e+01	5.7752	20.629764	0.000426	4.255358	1.441754	0.000170
 147	1.4527e+01	5.8121	20.803360	0.000436	4.356676	1.476082	0.000174
 148	1.4627e+01	5.8490	20.952734	0.000375	3.748767	1.270117	0.000150
 149	1.4726e+01	5.8940	21.094034	0.000355	3.546131	1.201462	0.000142
 150	1.4825e+01	5.9276	21.215148	0.000304	3.039541	1.029824	0.000122
 151	1.4925e+01	5.9774	21.380671	0.000415	4.154039	1.407427	0.000166
 152	1.5024e+01	6.0143	21.526008	0.000365	3.647449	1.235789	0.000146
 153	1.5124e+01	6.0447	21.683456	0.000395	3.951403	1.338772	0.000158
 154	1.5223e+01	6.0865	21.836867	0.000385	3.850085	1.304444	0.000154
 155	1.5323e+01	6.1266	21.962018	0.000314	3.140859	1.064152	0.000126
 156	1.5422e+01	6.1731	22.131578	0.000426	4.255358	1.441754	0.000170
 157	1.5522e+01	6.2052	22.276915	0.000365	3.647449	1.235789	0.000146
 158	1.5621e+01	6.2533	22.458586	0.000456	4.559312	1.544737	0.000183
 159	1.5721e+01	6.2854	22.571626	0.000284	2.836905	0.961169	0.000114
 160	1.5820e+01	6.3303	22.704851	0.000334	3.343495	1.132807	0.000134
 161	1.5920e+01	6.3624	22.886522	0.000456	4.559312	1.544737	0.000183
 162	1.6020e+01	6.4041	23.031859	0.000365	3.647449	1.235789	0.000146
 163	1.6119e+01	6.4490	23.177196	0.000365	3.647449	1.235789	0.000146
 164	1.6218e+01	6.4891	23.318496	0.000355	3.546131	1.201462	0.000142
 165	1.6318e+01	6.5276	23.427499	0.000274	2.735587	0.926842	0.000110
 166	1.6418e+01	6.5613	23.625318	0.000496	4.964584	1.682047	0.000199
 167	1.6517e+01	6.6062	23.738358	0.000284	2.836905	0.961169	0.000114
 168	1.6616e+01	6.6447	23.907918	0.000426	4.255358	1.441754	0.000170
 169	1.6716e+01	6.6752	24.069403	0.000405	4.052721	1.373099	0.000162
 170	1.6816e+01	6.7233	24.186480	0.000294	2.938223	0.995497	0.000118
 171	1.6915e+01	6.7634	24.339891	0.000385	3.850085	1.304444	0.000154
 172	1.7015e+01	6.8052	24.493303	0.000385	3.850085	1.304444	0.000154
 173	1.7114e+01	6.8517	24.634602	0.000355	3.546131	1.201462	0.000142
 174	1.7213e+01	6.8870	24.755716	0.000304	3.039541	1.029824	0.000122
 175	1.7313e+01	6.9158	24.905090	0.000375	3.748767	1.270117	0.000150
 176	1.7413e+01	6.9592	25.054464	0.000375	3.748767	1.270117	0.000150
 177	1.7512e+01	7.0073	25.191727	0.000344	3.444813	1.167134	0.000138
 178	1.7611e+01	7.0442	25.345138	0.000385	3.850085	1.304444	0.000154
 179	1.7711e+01	7.0795	25.490475	0.000365	3.647449	1.235789	0.000146
 180	1.7811e+01	7.1292	25.651960	0.000405	4.052721	1.373099	0.000162
 181	1.7910e+01	7.1709	25.744815	0.000233	2.330315	0.789532	0.000093
 182	1.8009e+01	7.2014	25.906300	0.000405	4.052721	1.373099	0.000162
 183	1.8109e+01	7.2399	26.055674	0.000375	3.748767	1.270117	0.000150
 184	1.8209e+01	7.2848	26.209085	0.000385	3.850085	1.304444	0.000154
 185	1.8308e+01	7.3249	26.386719	0.000446	4.457994	1.510409	0.000179
 186	1.8407e+01	7.3698	26.463425	0.000193	1.925043	0.652222	0.000077
 187	1.8507e+01	7.4019	26.624910	0.000405	4.052721	1.373099	0.000162
 188	1.8607e+01	7.4501	26.790433	0.000415	4.154039	1.407427	0.000166
 189	1.8706e+01	7.4966	26.891361	0.000253	2.532951	0.858187	0.000101
 190	1.8805e+01	7.5319	27.036698	0.000365	3.647449	1.235789	0.000146
 191	1.8905e+01	7.5672	27.210295	0.000436	4.356676	1.476082	0.000174
 192	1.9005e+01	7.6009	27.327372	0.000294	2.938223	0.995497	0.000118
 193	1.9104e+01	7.6426	27.513080	0.000466	4.660630	1.579064	0.000187
 194	1.9203e+01	7.6795	27.626120	0.000284	2.836905	0.961169	0.000114
 195	1.9303e+01	7.7164	27.807791	0.000456	4.559312	1.544737	0.000183
 196	1.9402e+01	7.7565	27.896608	0.000223	2.228997	0.755205	0.000089
 197	1.9502e+01	7.8062	28.058093	0.000405	4.052721	1.373099	0.000162
 198	1.9602e+01	7.8415	28.207467	0.000375	3.748767	1.270117	0.000150
 199	1.9701e+01	7.8848	28.368953	0.000405	4.052721	1.373099	0.000162
 200	1.9800e+01	7.9185	28.477955	0.000274	2.735587	0.926842	0.000110
 201	1.9900e+01	7.9538	28.635404	0.000395	3.951403	1.338772	0.000158
 202	2.0000e+01	8.0003	28.768629	0.000334	3.343495	1.132807	0.000134
 203	2.0099e+01	8.0468	28.922040	0.000385	3.850085	1.304444	0.000154
 204	2.0198e+01	8.0725	29.035080	0.000284	2.836905	0.961169	0.000114
 205	2.0298e+01	8.1238	29.188491	0.000385	3.850085	1.304444	0.000154
 206	2.0398e+01	8.1607	29.313643	0.000314	3.140859	1.064152	0.000126
 207	2.0497e+01	8.1976	29.475128	0.000405	4.052721	1.373099	0.000162
 208	2.0596e+01	8.2345	29.608354	0.000334	3.343495	1.132807	0.000134
 209	2.0696e+01	8.2730	29.765802	0.000395	3.951403	1.338772	0.000158
 210	2.0796e+01	8.3179	29.886916	0.000304	3.039541	1.029824	0.000122
 211	2.0895e+01	8.3564	30.032253	0.000365	3.647449	1.235789	0.000146
 212	2.0994e+01	8.4046	30.157404	0.000314	3.140859	1.064152	0.000126
 213	2.1094e+01	8.4399	30.343112	0.000466	4.660630	1.579064	0.000187
 214	2.1194e+01	8.4752	30.476338	0.000334	3.343495	1.132807	0.000134
 215	2.1293e+01	8.5153	30.540932	0.000162	1.621089	0.549240	0.000065
 216	2.1392e+01	8.5538	30.734714	0.000486	4.863266	1.647719	0.000195
 217	2.1492e+01	8.5955	30.839680	0.000263	2.634269	0.892514	0.000105
 218	2.1591e+01	8.6404	30.993091	0.000385	3.850085	1.304444	0.000154
 219	2.1691e+01	8.6773	31.158614	0.000415	4.154039	1.407427	0.000166
 220	2.1791e+01	8.7142	31.283765	0.000314	3.140859	1.064152	0.000126
 221	2.1890e+01	8.7431	31.425065	0.000355	3.546131	1.201462	0.000142
 222	2.1989e+01	8.8008	31.558290	0.000334	3.343495	1.132807	0.000134
 223	2.2089e+01	8.8345	31.748035	0.000476	4.761948	1.613392	0.000191
 224	2.2189e+01	8.8826	31.828778	0.000203	2.026361	0.686550	0.000081
 225	2.2288e+01	8.9131	31.978152	0.000375	3.748767	1.270117	0.000150
 226	2.2387e+01	8.9580	32.103303	0.000314	3.140859	1.064152	0.000126
 227	2.2487e+01	9.0062	32.244603	0.000355	3.546131	1.201462	0.000142
 228	2.2587e+01	9.0415	32.365717	0.000304	3.039541	1.029824	0.000122
 229	2.2686e+01	9.0719	32.543351	0.000446	4.457994	1.510409	0.000179
 230	2.2785e+01	9.1169	32.664465	0.000304	3.039541	1.029824	0.000122
 231	2.2885e+01	9.1505	32.777505	0.000284	2.836905	0.961169	0.000114
 232	2.2985e+01	9.1971	32.975325	0.000496	4.964584	1.682047	0.000199
 233	2.3084e+01	9.2372	33.068179	0.000233	2.330315	0.789532	0.000093
 234	2.3183e+01	9.2757	33.253887	0.000466	4.660630	1.579064	0.000187
 235	2.3283e+01	9.3094	33.346741	0.000233	2.330315	0.789532	0.000093
 236	2.3383e+01	9.3623	33.492078	0.000365	3.647449	1.235789	0.000146
 237	2.3482e+01	9.3928	33.677786	0.000466	4.660630	1.579064	0.000187
 238	2.3581e+01	9.4377	33.774678	0.000243	2.431633	0.823860	0.000097
 239	2.3681e+01	9.4714	33.899829	0.000314	3.140859	1.064152	0.000126
 240	2.3780e+01	9.5083	34.065351	0.000415	4.154039	1.407427	0.000166
 241	2.3880e+01	9.5564	34.182428	0.000294	2.938223	0.995497	0.000118
 242	2.3980e+01	9.5917	34.323728	0.000355	3.546131	1.201462	0.000142
 243	2.4079e+01	9.6398	34.444842	0.000304	3.039541	1.029824	0.000122
 244	2.4178e+01	9.6703	34.594216	0.000375	3.748767	1.270117	0.000150
 245	2.4278e+01	9.7088	34.719367	0.000314	3.140859	1.064152	0.000126
 246	2.4378e+01	9.7537	34.848556	0.000324	3.242177	1.098479	0.000130
 247	2.4477e+01	9.7970	35.034264	0.000466	4.660630	1.579064	0.000187
 248	2.4576e+01	9.8339	35.147304	0.000284	2.836905	0.961169	0.000114
 249	2.4676e+01	9.8741	35.268418	0.000304	3.039541	1.029824	0.000122
 250	2.4776e+01	9.9174	35.409718	0.000355	3.546131	1.201462	0.000142
 251	2.4875e+01	9.9559	35.542943	0.000334	3.343495	1.132807	0.000134
 252	2.4974e+01	9.9912	35.728651	0.000466	4.660630	1.579064	0.000187
 253	2.5074e+01	10.0329	35.853802	0.000314	3.140859	1.064152	0.000126
 254	2.5174e+01	10.0666	35.946657	0.000233	2.330315	0.789532	0.000093
 255	2.5273e+01	10.1147	36.104105	0.000395	3.951403	1.338772	0.000158
 256	2.5372e+01	10.1564	36.269627	0.000415	4.154039	1.407427	0.000166
 257	2.5472e+01	10.1885	36.402853	0.000334	3.343495	1.132807	0.000134
 258	2.5572e+01	10.2286	36.519930	0.000294	2.938223	0.995497	0.000118
 259	2.5671e+01	10.2719	36.637007	0.000294	2.938223	0.995497	0.000118
 260	2.5770e+01	10.3104	36.790418	0.000385	3.850085	1.304444	0.000154
 261	2.5870e+01	10.3505	36.915569	0.000314	3.140859	1.064152	0.000126
 262	2.5970e+01	10.3970	37.068980	0.000385	3.850085	1.304444	0.000154
 263	2.6069e+01	10.4339	37.206243	0.000344	3.444813	1.167134	0.000138
 264	2.6169e+01	10.4708	37.347543	0.000355	3.546131	1.201462	0.000142
 265	2.6268e+01	10.5093	37.484805	0.000344	3.444813	1.167134	0.000138
 266	2.6367e+01	10.5494	37.609957	0.000314	3.140859	1.064152	0.000126
 267	2.6467e+01	10.5895	37.731071	0.000304	3.039541	1.029824	0.000122
 268	2.6567e+01	10.6361	37.860259	0.000324	3.242177	1.098479	0.000130
 269	2.6666e+01	10.6778	38.017707	0.000395	3.951403	1.338772	0.000158
 270	2.6765e+01	10.7083	38.163044	0.000365	3.647449	1.235789	0.000146
 271	2.6865e+01	10.7516	38.255898	0.000233	2.330315	0.789532	0.000093
 272	2.6965e+01	10.7997	38.425458	0.000426	4.255358	1.441754	0.000170
 273	2.7064e+01	10.8238	38.574832	0.000375	3.748767	1.270117	0.000150
 274	2.7163e+01	10.8687	38.695946	0.000304	3.039541	1.029824	0.000122
 275	2.7263e+01	10.9056	38.825134	0.000324	3.242177	1.098479	0.000130
 276	2.7363e+01	10.9473	38.905877	0.000203	2.026361	0.686550	0.000081
 277	2.7462e+01	10.9922	39.071400	0.000415	4.154039	1.407427	0.000166
 278	2.7561e+01	11.0307	39.216737	0.000365	3.647449	1.235789	0.000146
 279	2.7661e+01	11.0612	39.337851	0.000304	3.039541	1.029824	0.000122
 280	2.7761e+01	11.1109	39.434742	0.000243	2.431633	0.823860	0.000097
 281	2.7860e+01	11.1446	39.620450	0.000466	4.660630	1.579064	0.000187
 282	2.7959e+01	11.1959	39.737527	0.000294	2.938223	0.995497	0.000118
 283	2.8059e+01	11.2232	39.842493	0.000263	2.634269	0.892514	0.000105
 284	2.8159e+01	11.2697	40.008015	0.000415	4.154039	1.407427	0.000166
 285	2.8258e+01	11.3066	40.137204	0.000324	3.242177	1.098479	0.000130
 286	2.8358e+01	11.3516	40.282540	0.000365	3.647449	1.235789	0.000146
 287	2.8457e+01	11.4029	40.383469	0.000253	2.532951	0.858187	0.000101
 288	2.8556e+01	11.4382	40.520731	0.000344	3.444813	1.167134	0.000138
 289	2.8656e+01	11.4703	40.625697	0.000263	2.634269	0.892514	0.000105
 290	2.8756e+01	11.5120	40.791219	0.000415	4.154039	1.407427	0.000166
 291	2.8855e+01	11.5425	40.920408	0.000324	3.242177	1.098479	0.000130
 292	2.8954e+01	11.5858	41.037485	0.000294	2.938223	0.995497	0.000118
 293	2.9054e+01	11.6227	41.146487	0.000274	2.735587	0.926842	0.000110
 294	2.9154e+01	11.6676	41.283750	0.000344	3.444813	1.167134	0.000138
 295	2.9253e+01	11.7045	41.437161	0.000385	3.850085	1.304444	0.000154
 296	2.9352e+01	11.7462	41.534052	0.000243	2.431633	0.823860	0.000097
 297	2.9452e+01	11.7863	41.715724	0.000456	4.559312	1.544737	0.000183
 298	2.9552e+01	11.8264	41.832801	0.000294	2.938223	0.995497	0.000118
 299	2.9651e+01	11.8601	41.953915	0.000304	3.039541	1.029824	0.000122
 300	2.9750e+01	11.9114	42.079066	0.000314	3.140859	1.064152	0.000126
 301	2.9850e+01	11.9435	42.228440	0.000375	3.748767	1.270117	0.000150
 302	2.9950e+01	11.9932	42.365702	0.000344	3.444813	1.167134	0.000138
 303	3.0049e+01	12.0301	42.470668	0.000263	2.634269	0.892514	0.000105
 304	3.0148e+01	12.0686	42.607931	0.000344	3.444813	1.167134	0.000138
 305	3.0248e+01	12.1168	42.745193	0.000344	3.444813	1.167134	0.000138
 306	3.0348e+01	12.1360	42.854196	0.000274	2.735587	0.926842	0.000110
 307	3.0447e+01	12.1841	42.963199	0.000274	2.735587	0.926842	0.000110
 308	3.0547e+01	12.2162	43.084313	0.000304	3.039541	1.029824	0.000122
 309	3.0646e+01	12.2628	43.221575	0.000344	3.444813	1.167134	0.000138
 310	3.0745e+01	12.3029	43.334615	0.000284	2.836905	0.961169	0.000114
 311	3.0845e+01	12.3446	43.463803	0.000324	3.242177	1.098479	0.000130
 312	3.0945e+01	12.3767	43.613177	0.000375	3.748767	1.270117	0.000150
 313	3.1044e+01	12.4296	43.710069	0.000243	2.431633	0.823860	0.000097
 314	3.1143e+01	12.4633	43.847331	0.000344	3.444813	1.167134	0.000138
 315	3.1243e+01	12.5098	43.996705	0.000375	3.748767	1.270117	0.000150
 316	3.1343e+01	12.5531	44.093597	0.000243	2.431633	0.823860	0.000097
 317	3.1442e+01	12.5852	44.226822	0.000334	3.343495	1.132807	0.000134
 318	3.1541e+01	12.6317	44.339862	0.000284	2.836905	0.961169	0.000114
 319	3.1641e+01	12.6558	44.509422	0.000426	4.255358	1.441754	0.000170
 320	3.1741e+01	12.6959	44.622461	0.000284	2.836905	0.961169	0.000114
 321	3.1840e+01	12.7408	44.755687	0.000334	3.343495	1.132807	0.000134
 322	3.1939e+01	12.7793	44.860652	0.000263	2.634269	0.892514	0.000105
 323	3.2039e+01	12.8178	44.989841	0.000324	3.242177	1.098479	0.000130
 324	3.2139e+01	12.8708	45.086732	0.000243	2.431633	0.823860	0.000097
 325	3.2238e+01	12.8900	45.203809	0.000294	2.938223	0.995497	0.000118
 326	3.2337e+01	12.9349	45.345109	0.000355	3.546131	1.201462	0.000142
 327	3.2437e+01	12.9815	45.466223	0.000304	3.039541	1.029824	0.000122
 328	3.2536e+01	13.0200	45.599448	0.000334	3.343495	1.132807	0.000134
 329	3.2636e+01	13.0649	45.712488	0.000284	2.836905	0.961169	0.000114
 330	3.2736e+01	13.0954	45.825528	0.000284	2.836905	0.961169	0.000114
 331	3.2835e+01	13.1371	45.950679	0.000314	3.140859	1.064152	0.000126
 332	3.2934e+01	13.1740	46.067756	0.000294	2.938223	0.995497	0.000118
 333	3.3034e+01	13.2189	46.200981	0.000334	3.343495	1.132807	0.000134
 334	3.3133e+01	13.2558	46.346318	0.000365	3.647449	1.235789	0.000146
 335	3.3233e+01	13.3023	46.459358	0.000284	2.836905	0.961169	0.000114
 336	3.3333e+01	13.3440	46.556249	0.000243	2.431633	0.823860	0.000097
 337	3.3432e+01	13.3793	46.701586	0.000365	3.647449	1.235789	0.000146
 338	3.3532e+01	13.4194	46.834812	0.000334	3.343495	1.132807	0.000134
 339	3.3631e+01	13.4627	46.927666	0.000233	2.330315	0.789532	0.000093
 340	3.3730e+01	13.4932	47.044743	0.000294	2.938223	0.995497	0.000118
 341	3.3830e+01	13.5317	47.210265	0.000415	4.154039	1.407427	0.000166
 342	3.3929e+01	13.5830	47.274859	0.000162	1.621089	0.549240	0.000065
 343	3.4029e+01	13.6183	47.408085	0.000334	3.343495	1.132807	0.000134
 344	3.4129e+01	13.6600	47.496902	0.000223	2.228997	0.755205	0.000089
 345	3.4228e+01	13.7034	47.654350	0.000395	3.951403	1.338772	0.000158
 346	3.4328e+01	13.7290	47.735093	0.000203	2.026361	0.686550	0.000081
 347	3.4427e+01	13.7739	47.880430	0.000365	3.647449	1.235789	0.000146
 348	3.4526e+01	13.8173	48.013655	0.000334	3.343495	1.132807	0.000134
 349	3.4626e+01	13.8622	48.102472	0.000223	2.228997	0.755205	0.000089
 350	3.4725e+01	13.9007	48.247809	0.000365	3.647449	1.235789	0.000146
 351	3.4825e+01	13.9247	48.328552	0.000203	2.026361	0.686550	0.000081
 352	3.4925e+01	13.9729	48.453703	0.000314	3.140859	1.064152	0.000126
 353	3.5024e+01	14.0242	48.582891	0.000324	3.242177	1.098479	0.000130
 354	3.5123e+01	14.0547	48.744377	0.000405	4.052721	1.373099	0.000162
 355	3.5223e+01	14.0980	48.796860	0.000132	1.317134	0.446257	0.000053
 356	3.5322e+01	14.1301	48.930085	0.000334	3.343495	1.132807	0.000134
 357	3.5422e+01	14.1766	49.043125	0.000284	2.836905	0.961169	0.000114
 358	3.5522e+01	14.2103	49.216722	0.000436	4.356676	1.476082	0.000174
 359	3.5621e+01	14.2632	49.313613	0.000243	2.431633	0.823860	0.000097
 360	3.5721e+01	14.2873	49.462987	0.000375	3.748767	1.270117	0.000150
 361	3.5820e+01	14.3322	49.563915	0.000253	2.532951	0.858187	0.000101
 362	3.5919e+01	14.3803	49.672918	0.000274	2.735587	0.926842	0.000110
 363	3.6019e+01	14.4172	49.777884	0.000263	2.634269	0.892514	0.000105
 364	3.6118e+01	14.4557	49.947443	0.000426	4.255358	1.441754	0.000170
 365	3.6218e+01	14.4862	50.016075	0.000172	1.722407	0.583567	0.000069
 366	3.6318e+01	14.5343	50.141226	0.000314	3.140859	1.064152	0.000126
 367	3.6417e+01	14.5793	50.234080	0.000233	2.330315	0.789532	0.000093
 368	3.6517e+01	14.6130	50.379417	0.000365	3.647449	1.235789	0.000146
 369	3.6616e+01	14.6482	50.480345	0.000253	2.532951	0.858187	0.000101
 370	3.6715e+01	14.6964	50.613571	0.000334	3.343495	1.132807	0.000134
 371	3.6815e+01	14.7413	50.738722	0.000314	3.140859	1.064152	0.000126
 372	3.6914e+01	14.7686	50.831576	0.000233	2.330315	0.789532	0.000093
 373	3.7014e+01	14.8167	50.944616	0.000284	2.836905	0.961169	0.000114
 374	3.7114e+01	14.8504	51.061693	0.000294	2.938223	0.995497	0.000118
 375	3.7213e+01	14.8953	51.198955	0.000344	3.444813	1.167134	0.000138
 376	3.7313e+01	14.9338	51.311995	0.000284	2.836905	0.961169	0.000114
 377	3.7412e+01	14.9707	51.441184	0.000324	3.242177	1.098479	0.000130
 378	3.7511e+01	15.0172	51.538075	0.000243	2.431633	0.823860	0.000097
 379	3.7611e+01	15.0541	51.667263	0.000324	3.242177	1.098479	0.000130
 380	3.7711e+01	15.0974	51.796452	0.000324	3.242177	1.098479	0.000130
 381	3.7810e+01	15.1311	51.877194	0.000203	2.026361	0.686550	0.000081
 382	3.7910e+01	15.1680	52.006383	0.000324	3.242177	1.098479	0.000130
 383	3.8009e+01	15.2129	52.127497	0.000304	3.039541	1.029824	0.000122
 384	3.8108e+01	15.2530	52.248611	0.000304	3.039541	1.029824	0.000122
 385	3.8208e+01	15.2948	52.353576	0.000263	2.634269	0.892514	0.000105
 386	3.8307e+01	15.3349	52.430282	0.000193	1.925043	0.652222	0.000077
 387	3.8407e+01	15.3702	52.575619	0.000365	3.647449	1.235789	0.000146
 388	3.8507e+01	15.4151	52.684621	0.000274	2.735587	0.926842	0.000110
 389	3.8606e+01	15.4536	52.793624	0.000274	2.735587	0.926842	0.000110
 390	3.8706e+01	15.4889	52.934924	0.000355	3.546131	1.201462	0.000142
 391	3.8805e+01	15.5290	53.072186	0.000344	3.444813	1.167134	0.000138
 392	3.8904e+01	15.5739	53.169078	0.000243	2.431633	0.823860	0.000097
 393	3.9004e+01	15.6124	53.274043	0.000263	2.634269	0.892514	0.000105
 394	3.9103e+01	15.6509	53.370934	0.000243	2.431633	0.823860	0.000097
 395	3.9203e+01	15.6910	53.532420	0.000405	4.052721	1.373099	0.000162
 396	3.9303e+01	15.7295	53.633348	0.000253	2.532951	0.858187	0.000101
 397	3.9402e+01	15.7776	53.718128	0.000213	2.127679	0.720877	0.000085
 398	3.9502e+01	15.8049	53.875576	0.000395	3.951403	1.338772	0.000158
 399	3.9601e+01	15.8466	53.952282	0.000193	1.925043	0.652222	0.000077
 400	3.9700e+01	15.8931	54.097619	0.000365	3.647449	1.235789	0.000146
 401	3.9800e+01	15.9332	54.222770	0.000314	3.140859	1.064152	0.000126
 402	3.9900e+01	15.9717	54.299476	0.000193	1.925043	0.652222	0.000077
 403	3.9999e+01	16.0086	54.456924	0.000395	3.951403	1.338772	0.000158
 404	4.0099e+01	16.0520	54.565927	0.000274	2.735587	0.926842	0.000110
 405	4.0198e+01	16.0840	54.646669	0.000203	2.026361	0.686550	0.000081
 406	4.0297e+01	16.1290	54.808155	0.000405	4.052721	1.373099	0.000162
 407	4.0397e+01	16.1723	54.921195	0.000284	2.836905	0.961169	0.000114
 408	4.0496e+01	16.2028	54.981752	0.000152	1.519771	0.514912	0.000061
 409	4.0596e+01	16.2461	55.163423	0.000456	4.559312	1.544737	0.000183
 410	4.0696e+01	16.2942	55.272425	0.000274	2.735587	0.926842	0.000110
 411	4.0795e+01	16.3247	55.365280	0.000233	2.330315	0.789532	0.000093
 412	4.0895e+01	16.3632	55.470245	0.000263	2.634269	0.892514	0.000105
 413	4.0994e+01	16.4081	55.631730	0.000405	4.052721	1.373099	0.000162
 414	4.1093e+01	16.4562	55.720547	0.000223	2.228997	0.755205	0.000089
 415	4.1193e+01	16.4835	55.829550	0.000274	2.735587	0.926842	0.000110
 416	4.1292e+01	16.5268	55.942590	0.000284	2.836905	0.961169	0.000114
 417	4.1392e+01	16.5605	56.027370	0.000213	2.127679	0.720877	0.000085
 418	4.1492e+01	16.6006	56.172707	0.000365	3.647449	1.235789	0.000146
 419	4.1591e+01	16.6423	56.309969	0.000344	3.444813	1.167134	0.000138
 420	4.1691e+01	16.6888	56.447232	0.000344	3.444813	1.167134	0.000138
 421	4.1790e+01	16.7193	56.523937	0.000193	1.925043	0.652222	0.000077
 422	4.1889e+01	16.7658	56.649089	0.000314	3.140859	1.064152	0.000126
 423	4.1989e+01	16.8011	56.741943	0.000233	2.330315	0.789532	0.000093
 424	4.2089e+01	16.8541	56.859020	0.000294	2.938223	0.995497	0.000118
 425	4.2188e+01	16.8878	57.000319	0.000355	3.546131	1.201462	0.000142
 426	4.2288e+01	16.9247	57.117396	0.000294	2.938223	0.995497	0.000118
 427	4.2387e+01	16.9696	57.246585	0.000324	3.242177	1.098479	0.000130
 428	4.2486e+01	17.0065	57.371736	0.000314	3.140859	1.064152	0.000126
 429	4.2586e+01	17.0418	57.464590	0.000233	2.330315	0.789532	0.000093
 430	4.2685e+01	17.0867	57.553407	0.000223	2.228997	0.755205	0.000089
 431	4.2785e+01	17.1236	57.710855	0.000395	3.951403	1.338772	0.000158
 432	4.2885e+01	17.1653	57.807747	0.000243	2.431633	0.823860	0.000097
 433	4.2984e+01	17.2086	57.892526	0.000213	2.127679	0.720877	0.000085
 434	4.3084e+01	17.2519	58.013641	0.000304	3.039541	1.029824	0.000122
 435	4.3183e+01	17.2776	58.150903	0.000344	3.444813	1.167134	0.000138
 436	4.3282e+01	17.3305	58.267980	0.000294	2.938223	0.995497	0.000118
 437	4.3382e+01	17.3658	58.340649	0.000182	1.823725	0.617895	0.000073
 438	4.3481e+01	17.4059	58.498097	0.000395	3.951403	1.338772	0.000158
 439	4.3581e+01	17.4412	58.594988	0.000243	2.431633	0.823860	0.000097
 440	4.3681e+01	17.4893	58.716102	0.000304	3.039541	1.029824	0.000122
 441	4.3780e+01	17.5311	58.788771	0.000182	1.823725	0.617895	0.000073
 442	4.3880e+01	17.5647	58.921996	0.000334	3.343495	1.132807	0.000134
 443	4.3979e+01	17.6129	59.022924	0.000253	2.532951	0.858187	0.000101
 444	4.4078e+01	17.6466	59.156150	0.000334	3.343495	1.132807	0.000134
 445	4.4178e+01	17.6867	59.269190	0.000284	2.836905	0.961169	0.000114
 446	4.4278e+01	17.7155	59.370118	0.000253	2.532951	0.858187	0.000101
 447	4.4377e+01	17.7621	59.479121	0.000274	2.735587	0.926842	0.000110
 448	4.4477e+01	17.8070	59.588123	0.000274	2.735587	0.926842	0.000110
 449	4.4576e+01	17.8487	59.697126	0.000274	2.735587	0.926842	0.000110
 450	4.4675e+01	17.8824	59.822277	0.000314	3.140859	1.064152	0.000126
 451	4.4775e+01	17.9209	59.951466	0.000324	3.242177	1.098479	0.000130
 452	4.4874e+01	17.9626	60.028171	0.000193	1.925043	0.652222	0.000077
 453	4.4974e+01	17.9995	60.157360	0.000324	3.242177	1.098479	0.000130
 454	4.5074e+01	18.0492	60.274437	0.000294	2.938223	0.995497	0.000118
 455	4.5173e+01	18.0781	60.375365	0.000253	2.532951	0.858187	0.000101
 456	4.5273e+01	18.1182	60.488405	0.000284	2.836905	0.961169	0.000114
 457	4.5372e+01	18.1631	60.589333	0.000253	2.532951	0.858187	0.000101
 458	4.5471e+01	18.2048	60.726596	0.000344	3.444813	1.167134	0.000138
 459	4.5571e+01	18.2401	60.827524	0.000253	2.532951	0.858187	0.000101
 460	4.5670e+01	18.2754	60.952675	0.000314	3.140859	1.064152	0.000126
 461	4.5770e+01	18.3187	61.061678	0.000274	2.735587	0.926842	0.000110
 462	4.5870e+01	18.3717	61.162606	0.000253	2.532951	0.858187	0.000101
 463	4.5969e+01	18.3989	61.287758	0.000314	3.140859	1.064152	0.000126
 464	4.6069e+01	18.4391	61.416946	0.000324	3.242177	1.098479	0.000130
 465	4.6168e+01	18.4888	61.481540	0.000162	1.621089	0.549240	0.000065
 466	4.6267e+01	18.5128	61.630914	0.000375	3.748767	1.270117	0.000150
 467	4.6367e+01	18.5610	61.715694	0.000213	2.127679	0.720877	0.000085
 468	4.6467e+01	18.5995	61.836808	0.000304	3.039541	1.029824	0.000122
 469	4.6566e+01	18.6412	61.941774	0.000263	2.634269	0.892514	0.000105
 470	4.6666e+01	18.6797	62.070962	0.000324	3.242177	1.098479	0.000130
 471	4.6765e+01	18.7134	62.151705	0.000203	2.026361	0.686550	0.000081
 472	4.6864e+01	18.7551	62.268782	0.000294	2.938223	0.995497	0.000118
 473	4.6964e+01	18.7936	62.385859	0.000294	2.938223	0.995497	0.000118
 474	4.7063e+01	18.8321	62.478713	0.000233	2.330315	0.789532	0.000093
 475	4.7163e+01	18.8786	62.571567	0.000233	2.330315	0.789532	0.000093
 476	4.7263e+01	18.9187	62.680569	0.000274	2.735587	0.926842	0.000110
 477	4.7362e+01	18.9572	62.813795	0.000334	3.343495	1.132807	0.000134
 478	4.7462e+01	19.0070	62.938946	0.000314	3.140859	1.064152	0.000126
 479	4.7561e+01	19.0342	62.991429	0.000132	1.317134	0.446257	0.000053
 480	4.7660e+01	19.0711	63.132729	0.000355	3.546131	1.201462	0.000142
 481	4.7760e+01	19.1144	63.197323	0.000162	1.621089	0.549240	0.000065
 482	4.7859e+01	19.1529	63.358808	0.000405	4.052721	1.373099	0.000162
 483	4.7959e+01	19.2027	63.463774	0.000263	2.634269	0.892514	0.000105
 484	4.8059e+01	19.2444	63.532405	0.000172	1.722407	0.583567	0.000069
 485	4.8158e+01	19.2781	63.661593	0.000324	3.242177	1.098479	0.000130
 486	4.8258e+01	19.3150	63.750410	0.000223	2.228997	0.755205	0.000089
 487	4.8357e+01	19.3599	63.883636	0.000334	3.343495	1.132807	0.000134
 488	4.8456e+01	19.3920	63.980527	0.000243	2.431633	0.823860	0.000097
 489	4.8556e+01	19.4417	64.085493	0.000263	2.634269	0.892514	0.000105
 490	4.8656e+01	19.4738	64.206607	0.000304	3.039541	1.029824	0.000122
 491	4.8755e+01	19.5139	64.267164	0.000152	1.519771	0.514912	0.000061
 492	4.8855e+01	19.5492	64.400389	0.000334	3.343495	1.132807	0.000134
 493	4.8954e+01	19.5989	64.517466	0.000294	2.938223	0.995497	0.000118
 494	4.9053e+01	19.6326	64.622432	0.000263	2.634269	0.892514	0.000105
 495	4.9153e+01	19.6711	64.719323	0.000243	2.431633	0.823860	0.000097
 496	4.9252e+01	19.7192	64.856586	0.000344	3.444813	1.167134	0.000138
 497	4.9352e+01	19.7449	64.925217	0.000172	1.722407	0.583567	0.000069
 498	4.9452e+01	19.7994	65.066517	0.000355	3.546131	1.201462	0.000142
 499	4.9551e+01	19.8331	65.155334	0.000223	2.228997	0.755205	0.000089
 500	4.9651e+01	19.8764	65.268373	0.000284	2.836905	0.961169	0.000114
 501	4.9750e+01	19.9149	65.357190	0.000223	2.228997	0.755205	0.000089
 502	4.9849e+01	19.9518	65.474267	0.000294	2.938223	0.995497	0.000118
 503	4.9949e+01	19.9952	65.575196	0.000253	2.532951	0.858187	0.000101
 504	5.0048e+01	19.9534	65.494453	0.000203	2.026361	0.686550	-0.000081
 505	5.0148e+01	19.9117	65.429859	0.000162	1.621089	0.549240	-0.000065
 506	5.0248e+01	19.8780	65.349116	0.000203	2.026361	0.686550	-0.000081
 507	5.0347e+01	19.8363	65.260299	0.000223	2.228997	0.755205	-0.000089
 508	5.0447e+01	19.7850	65.139185	0.000304	3.039541	1.029824	-0.000122
 509	5.0546e+01	19.7513	65.094777	0.000111	1.114498	0.377602	-0.000045
 510	5.0645e+01	19.7112	64.981737	0.000284	2.836905	0.961169	-0.000114
 511	5.0745e+01	19.6791	64.921180	0.000152	1.519771	0.514912	-0.000061
 512	5.0844e+01	19.6294	64.848511	0.000182	1.823725	0.617895	-0.000073
 513	5.0944e+01	19.6021	64.755657	0.000233	2.330315	0.789532	-0.000093
 514	5.1044e+01	19.5556	64.650692	0.000263	2.634269	0.892514	-0.000105
 515	5.1143e+01	19.5187	64.565912	0.000213	2.127679	0.720877	-0.000085
 516	5.1242e+01	19.4706	64.448835	0.000294	2.938223	0.995497	-0.000118
 517	5.1342e+01	19.4321	64.355981	0.000233	2.330315	0.789532	-0.000093
 518	5.1441e+01	19.3936	64.267164	0.000223	2.228997	0.755205	-0.000089
 519	5.1541e+01	19.3487	64.210644	0.000142	1.418453	0.480585	-0.000057
 520	5.1641e+01	19.3150	64.129901	0.000203	2.026361	0.686550	-0.000081
 521	5.1740e+01	19.2781	64.008787	0.000304	3.039541	1.029824	-0.000122
 522	5.1840e+01	19.2380	63.948230	0.000152	1.519771	0.514912	-0.000061
 523	5.1939e+01	19.2043	63.851339	0.000243	2.431633	0.823860	-0.000097
 524	5.2038e+01	19.1594	63.754448	0.000243	2.431633	0.823860	-0.000097
 525	5.2138e+01	19.1241	63.665631	0.000223	2.228997	0.755205	-0.000089
 526	5.2237e+01	19.0775	63.584888	0.000203	2.026361	0.686550	-0.000081
 527	5.2337e+01	19.0310	63.463774	0.000304	3.039541	1.029824	-0.000122
 528	5.2437e+01	19.0005	63.415328	0.000122	1.215816	0.411930	-0.000049
 529	5.2536e+01	18.9476	63.302288	0.000284	2.836905	0.961169	-0.000114
 530	5.2636e+01	18.9187	63.237694	0.000162	1.621089	0.549240	-0.000065
 531	5.2735e+01	18.8802	63.128692	0.000274	2.735587	0.926842	-0.000110
 532	5.2834e+01	18.8449	63.056023	0.000182	1.823725	0.617895	-0.000073
 533	5.2934e+01	18.7984	62.930872	0.000314	3.140859	1.064152	-0.000126
 534	5.3033e+01	18.7487	62.833981	0.000243	2.431633	0.823860	-0.000097
 535	5.3133e+01	18.7150	62.741127	0.000233	2.330315	0.789532	-0.000093
 536	5.3233e+01	18.6781	62.652310	0.000223	2.228997	0.755205	-0.000089
 537	5.3332e+01	18.6364	62.563493	0.000223	2.228997	0.755205	-0.000089
 538	5.3431e+01	18.5995	62.450453	0.000284	2.836905	0.961169	-0.000114
 539	5.3531e+01	18.5642	62.365673	0.000213	2.127679	0.720877	-0.000085
 540	5.3630e+01	18.5193	62.280893	0.000213	2.127679	0.720877	-0.000085
 541	5.3730e+01	18.4759	62.131519	0.000375	3.748767	1.270117	-0.000150
 542	5.3830e+01	18.4439	62.091148	0.000101	1.013180	0.343275	-0.000041
 543	5.3929e+01	18.4022	61.978108	0.000284	2.836905	0.961169	-0.000114
 544	5.4029e+01	18.3620	61.889291	0.000223	2.228997	0.755205	-0.000089
 545	5.4128e+01	18.3268	61.804511	0.000213	2.127679	0.720877	-0.000085
 546	5.4227e+01	18.2834	61.756065	0.000122	1.215816	0.411930	-0.000049
 547	5.4327e+01	18.2433	61.594580	0.000405	4.052721	1.373099	-0.000162
 548	5.4426e+01	18.2000	61.517874	0.000193	1.925043	0.652222	-0.000077
 549	5.4526e+01	18.1599	61.408872	0.000274	2.735587	0.926842	-0.000110
 550	5.4626e+01	18.1134	61.328129	0.000203	2.026361	0.686550	-0.000081
 551	5.4725e+01	18.0813	61.247386	0.000203	2.026361	0.686550	-0.000081
 552	5.4825e+01	18.0476	61.146458	0.000253	2.532951	0.858187	-0.000101
 553	5.4924e+01	17.9931	61.013232	0.000334	3.343495	1.132807	-0.000134
 554	5.5023e+01	17.9546	60.928453	0.000213	2.127679	0.720877	-0.000085
 555	5.5123e+01	17.9225	60.831561	0.000243	2.431633	0.823860	-0.000097
 556	5.5222e+01	17.8760	60.730633	0.000253	2.532951	0.858187	-0.000101
 557	5.5322e+01	17.8439	60.657964	0.000182	1.823725	0.617895	-0.000073
 558	5.5422e+01	17.8006	60.561073	0.000243	2.431633	0.823860	-0.000097
 559	5.5521e+01	17.7685	60.443996	0.000294	2.938223	0.995497	-0.000118
 560	5.5620e+01	17.7204	60.347105	0.000243	2.431633	0.823860	-0.000097
 561	5.5720e+01	17.6851	60.246177	0.000253	2.532951	0.858187	-0.000101
 562	5.5819e+01	17.6450	60.157360	0.000223	2.228997	0.755205	-0.000089
 563	5.5919e+01	17.6016	60.080654	0.000193	1.925043	0.652222	-0.000077
 564	5.6019e+01	17.5583	59.967614	0.000284	2.836905	0.961169	-0.000114
 565	5.6118e+01	17.5166	59.878797	0.000223	2.228997	0.755205	-0.000089
 566	5.6218e+01	17.4845	59.794017	0.000213	2.127679	0.720877	-0.000085
 567	5.6317e+01	17.4508	59.672903	0.000304	3.039541	1.029824	-0.000122
 568	5.6416e+01	17.4059	59.571975	0.000253	2.532951	0.858187	-0.000101
 569	5.6516e+01	17.3610	59.519492	0.000132	1.317134	0.446257	-0.000053
 570	5.6615e+01	17.3161	59.414527	0.000263	2.634269	0.892514	-0.000105
 571	5.6715e+01	17.2840	59.257078	0.000395	3.951403	1.338772	-0.000158
 572	5.6815e+01	17.2375	59.160187	0.000243	2.431633	0.823860	-0.000097
 573	5.6914e+01	17.2022	59.115779	0.000111	1.114498	0.377602	-0.000045
 574	5.7014e+01	17.1621	58.982553	0.000334	3.343495	1.132807	-0.000134
 575	5.7113e+01	17.1220	58.934108	0.000122	1.215816	0.411930	-0.000049
 576	5.7212e+01	17.0883	58.825105	0.000274	2.735587	0.926842	-0.000110
 577	5.7312e+01	17.0434	58.712065	0.000284	2.836905	0.961169	-0.000114
 578	5.7411e+01	17.0001	58.562691	0.000375	3.748767	1.270117	-0.000150
 579	5.7511e+01	16.9680	58.498097	0.000162	1.621089	0.549240	-0.000065
 580	5.7611e+01	16.9231	58.417354	0.000203	2.026361	0.686550	-0.000081
 581	5.7710e+01	16.8813	58.328537	0.000223	2.228997	0.755205	-0.000089
 582	5.7809e+01	16.8557	58.215497	0.000284	2.836905	0.961169	-0.000114
 583	5.7909e+01	16.8043	58.130717	0.000213	2.127679	0.720877	-0.000085
 584	5.8008e+01	16.7642	58.029789	0.000253	2.532951	0.858187	-0.000101
 585	5.8108e+01	16.7273	57.916749	0.000284	2.836905	0.961169	-0.000114
 586	5.8208e+01	16.6920	57.876378	0.000101	1.013180	0.343275	-0.000041
 587	5.8307e+01	16.6423	57.747190	0.000324	3.242177	1.098479	-0.000130
 588	5.8407e+01	16.6102	57.634150	0.000284	2.836905	0.961169	-0.000114
 589	5.8506e+01	16.5701	57.525147	0.000274	2.735587	0.926842	-0.000110
 590	5.8605e+01	16.5348	57.468627	0.000142	1.418453	0.480585	-0.000057
 591	5.8705e+01	16.4851	57.339439	0.000324	3.242177	1.098479	-0.000130
 592	5.8804e+01	16.4482	57.234473	0.000263	2.634269	0.892514	-0.000105
 593	5.8904e+01	16.4017	57.137582	0.000243	2.431633	0.823860	-0.000097
 594	5.9004e+01	16.3696	57.040691	0.000243	2.431633	0.823860	-0.000097
 595	5.9103e+01	16.3295	56.939762	0.000253	2.532951	0.858187	-0.000101
 596	5.9203e+01	16.2910	56.830760	0.000274	2.735587	0.926842	-0.000110
 597	5.9302e+01	16.2429	56.770203	0.000152	1.519771	0.514912	-0.000061
 598	5.9401e+01	16.1995	56.665237	0.000263	2.634269	0.892514	-0.000105
 599	5.9501e+01	16.1642	56.560272	0.000263	2.634269	0.892514	-0.000105
 600	5.9600e+01	16.1290	56.455306	0.000263	2.634269	0.892514	-0.000105
 601	5.9700e+01	16.0840	56.354378	0.000253	2.532951	0.858187	-0.000101
 602	5.9800e+01	16.0487	56.269598	0.000213	2.127679	0.720877	-0.000085
 603	5.9899e+01	16.0086	56.176744	0.000233	2.330315	0.789532	-0.000093
 604	5.9998e+01	15.9637	56.083890	0.000233	2.330315	0.789532	-0.000093
 605	6.0098e+01	15.9300	55.986998	0.000243	2.431633	0.823860	-0.000097
 606	6.0197e+01	15.8899	55.882033	0.000263	2.634269	0.892514	-0.000105
 607	6.0297e+01	15.8482	55.768993	0.000284	2.836905	0.961169	-0.000114
 608	6.0397e+01	15.8033	55.651916	0.000294	2.938223	0.995497	-0.000118
 609	6.0496e+01	15.7696	55.555025	0.000243	2.431633	0.823860	-0.000097
 610	6.0596e+01	15.7311	55.454096	0.000253	2.532951	0.858187	-0.000101
 611	6.0695e+01	15.6878	55.357205	0.000243	2.431633	0.823860	-0.000097
 612	6.0794e+01	15.6493	55.264351	0.000233	2.330315	0.789532	-0.000093
 613	6.0894e+01	15.6156	55.151311	0.000284	2.836905	0.961169	-0.000114
 614	6.0993e+01	15.5739	55.034234	0.000294	2.938223	0.995497	-0.000118
 615	6.1093e+01	15.5322	54.929269	0.000263	2.634269	0.892514	-0.000105
 616	6.1193e+01	15.4857	54.808155	0.000304	3.039541	1.029824	-0.000122
 617	6.1292e+01	15.4488	54.743561	0.000162	1.621089	0.549240	-0.000065
 618	6.1392e+01	15.4119	54.606298	0.000344	3.444813	1.167134	-0.000138
 619	6.1491e+01	15.3798	54.529592	0.000193	1.925043	0.652222	-0.000077
 620	6.1590e+01	15.3300	54.424627	0.000263	2.634269	0.892514	-0.000105
 621	6.1690e+01	15.2851	54.303513	0.000304	3.039541	1.029824	-0.000122
 622	6.1789e+01	15.2402	54.202584	0.000253	2.532951	0.858187	-0.000101
 623	6.1889e+01	15.2145	54.089545	0.000284	2.836905	0.961169	-0.000114
 624	6.1989e+01	15.1616	54.037062	0.000132	1.317134	0.446257	-0.000053
 625	6.2088e+01	15.1359	53.940171	0.000243	2.431633	0.823860	-0.000097
 626	6.2188e+01	15.0990	53.843279	0.000243	2.431633	0.823860	-0.000097
 627	6.2287e+01	15.0445	53.693905	0.000375	3.748767	1.270117	-0.000150
 628	6.2386e+01	15.0076	53.617200	0.000193	1.925043	0.652222	-0.000077
 629	6.2486e+01	14.9739	53.500123	0.000294	2.938223	0.995497	-0.000118
 630	6.2586e+01	14.9386	53.366897	0.000334	3.343495	1.132807	-0.000134
 631	6.2685e+01	14.9001	53.278080	0.000223	2.228997	0.755205	-0.000089
 632	6.2785e+01	14.8472	53.185226	0.000233	2.330315	0.789532	-0.000093
 633	6.2884e+01	14.8167	53.060075	0.000314	3.140859	1.064152	-0.000126
 634	6.2983e+01	14.7782	52.942998	0.000294	2.938223	0.995497	-0.000118
 635	6.3083e+01	14.7285	52.878404	0.000162	1.621089	0.549240	-0.000065
 636	6.3182e+01	14.6948	52.773438	0.000263	2.634269	0.892514	-0.000105
 637	6.3282e+01	14.6531	52.644250	0.000324	3.242177	1.098479	-0.000130
 638	6.3382e+01	14.6178	52.555433	0.000223	2.228997	0.755205	-0.000089
 639	6.3481e+01	14.5664	52.426245	0.000324	3.242177	1.098479	-0.000130
 640	6.3581e+01	14.5408	52.309168	0.000294	2.938223	0.995497	-0.000118
 641	6.3680e+01	14.4958	52.212276	0.000243	2.431633	0.823860	-0.000097
 642	6.3779e+01	14.4541	52.123460	0.000223	2.228997	0.755205	-0.000089
 643	6.3879e+01	14.4172	51.994271	0.000324	3.242177	1.098479	-0.000130
 644	6.3978e+01	14.3771	51.897380	0.000243	2.431633	0.823860	-0.000097
 645	6.4078e+01	14.3467	51.752043	0.000365	3.647449	1.235789	-0.000146
 646	6.4177e+01	14.2921	51.651115	0.000253	2.532951	0.858187	-0.000101
 647	6.4277e+01	14.2504	51.530001	0.000304	3.039541	1.029824	-0.000122
 648	6.4376e+01	14.2135	51.469444	0.000152	1.519771	0.514912	-0.000061
 649	6.4476e+01	14.1702	51.307958	0.000405	4.052721	1.373099	-0.000162
 650	6.4576e+01	14.1445	51.219141	0.000223	2.228997	0.755205	-0.000089
 651	6.4675e+01	14.0996	51.130324	0.000223	2.228997	0.755205	-0.000089
 652	6.4775e+01	14.0531	51.033433	0.000243	2.431633	0.823860	-0.000097
 653	6.4874e+01	14.0226	50.912319	0.000304	3.039541	1.029824	-0.000122
 654	6.4974e+01	13.9761	50.791205	0.000304	3.039541	1.029824	-0.000122
 655	6.5073e+01	13.9344	50.702388	0.000223	2.228997	0.755205	-0.000089
 656	6.5172e+01	13.8991	50.544939	0.000395	3.951403	1.338772	-0.000158
 657	6.5272e+01	13.8590	50.456122	0.000223	2.228997	0.755205	-0.000089
 658	6.5371e+01	13.8205	50.339046	0.000294	2.938223	0.995497	-0.000118
 659	6.5471e+01	13.7804	50.234080	0.000263	2.634269	0.892514	-0.000105
 660	6.5570e+01	13.7290	50.121040	0.000284	2.836905	0.961169	-0.000114
 661	6.5670e+01	13.7001	50.024149	0.000243	2.431633	0.823860	-0.000097
 662	6.5769e+01	13.6568	49.894961	0.000324	3.242177	1.098479	-0.000130
 663	6.5869e+01	13.6167	49.810181	0.000213	2.127679	0.720877	-0.000085
 664	6.5969e+01	13.5766	49.680992	0.000324	3.242177	1.098479	-0.000130
 665	6.6068e+01	13.5365	49.600250	0.000203	2.026361	0.686550	-0.000081
 666	6.6168e+01	13.5012	49.438764	0.000405	4.052721	1.373099	-0.000162
 667	6.6267e+01	13.4627	49.317650	0.000304	3.039541	1.029824	-0.000122
 668	6.6367e+01	13.4162	49.249019	0.000172	1.722407	0.583567	-0.000069
 669	6.6466e+01	13.3825	49.107719	0.000355	3.546131	1.201462	-0.000142
 670	6.6566e+01	13.3408	48.970457	0.000344	3.444813	1.167134	-0.000138
 671	6.6665e+01	13.2975	48.849342	0.000304	3.039541	1.029824	-0.000122
 672	6.6764e+01	13.2622	48.764563	0.000213	2.127679	0.720877	-0.000085
 673	6.6864e+01	13.2189	48.663634	0.000253	2.532951	0.858187	-0.000101
 674	6.6963e+01	13.1756	48.550594	0.000284	2.836905	0.961169	-0.000114
 675	6.7063e+01	13.1306	48.417369	0.000334	3.343495	1.132807	-0.000134
 676	6.7162e+01	13.1050	48.292218	0.000314	3.140859	1.064152	-0.000126
 677	6.7262e+01	13.0617	48.195326	0.000243	2.431633	0.823860	-0.000097
 678	6.7362e+01	13.0216	48.062101	0.000334	3.343495	1.132807	-0.000134
 679	6.7461e+01	12.9718	47.949061	0.000284	2.836905	0.961169	-0.000114
 680	6.7561e+01	12.9397	47.848133	0.000253	2.532951	0.858187	-0.000101
 681	6.7660e+01	12.9028	47.743167	0.000263	2.634269	0.892514	-0.000105
 682	6.7760e+01	12.8643	47.601867	0.000355	3.546131	1.201462	-0.000142
 683	6.7859e+01	12.8242	47.525162	0.000193	1.925043	0.652222	-0.000077
 684	6.7959e+01	12.7825	47.363676	0.000405	4.052721	1.373099	-0.000162
 685	6.8058e+01	12.7488	47.266785	0.000243	2.431633	0.823860	-0.000097
 686	6.8157e+01	12.7087	47.133560	0.000334	3.343495	1.132807	-0.000134
 687	6.8257e+01	12.6702	47.060891	0.000182	1.823725	0.617895	-0.000073
 688	6.8356e+01	12.6285	46.911517	0.000375	3.748767	1.270117	-0.000150
 689	6.8456e+01	12.5788	46.806552	0.000263	2.634269	0.892514	-0.000105
 690	6.8555e+01	12.5515	46.665252	0.000355	3.546131	1.201462	-0.000142
 691	6.8655e+01	12.5050	46.580472	0.000213	2.127679	0.720877	-0.000085
 692	6.8754e+01	12.4569	46.455321	0.000314	3.140859	1.064152	-0.000126
 693	6.8854e+01	12.4216	46.338244	0.000294	2.938223	0.995497	-0.000118
 694	6.8954e+01	12.3847	46.209056	0.000324	3.242177	1.098479	-0.000130
 695	6.9053e+01	12.3446	46.128313	0.000203	2.026361	0.686550	-0.000081
 696	6.9153e+01	12.3013	46.043533	0.000213	2.127679	0.720877	-0.000085
 697	6.9252e+01	12.2692	45.882048	0.000405	4.052721	1.373099	-0.000162
 698	6.9352e+01	12.2259	45.724599	0.000395	3.951403	1.338772	-0.000158
 699	6.9451e+01	12.1777	45.647894	0.000193	1.925043	0.652222	-0.000077
 700	6.9550e+01	12.1392	45.518705	0.000324	3.242177	1.098479	-0.000130
 701	6.9650e+01	12.1071	45.381443	0.000344	3.444813	1.167134	-0.000138
 702	6.9749e+01	12.0622	45.276477	0.000263	2.634269	0.892514	-0.000105
 703	6.9849e+01	12.0334	45.143252	0.000334	3.343495	1.132807	-0.000134
 704	6.9948e+01	11.9932	45.026175	0.000294	2.938223	0.995497	-0.000118
 705	7.0048e+01	11.9387	44.929284	0.000243	2.431633	0.823860	-0.000097
 706	7.0147e+01	11.9050	44.812207	0.000294	2.938223	0.995497	-0.000118
 707	7.0247e+01	11.8681	44.654758	0.000395	3.951403	1.338772	-0.000158
 708	7.0347e+01	11.8232	44.529607	0.000314	3.140859	1.064152	-0.000126
 709	7.0446e+01	11.7815	44.444827	0.000213	2.127679	0.720877	-0.000085
 710	7.0546e+01	11.7510	44.323713	0.000304	3.039541	1.029824	-0.000122
 711	7.0645e+01	11.7077	44.202599	0.000304	3.039541	1.029824	-0.000122
 712	7.0745e+01	11.6708	44.101671	0.000253	2.532951	0.858187	-0.000101
 713	7.0844e+01	11.6339	43.948260	0.000385	3.850085	1.304444	-0.000154
 714	7.0944e+01	11.5858	43.806960	0.000355	3.546131	1.201462	-0.000142
 715	7.1043e+01	11.5521	43.714106	0.000233	2.330315	0.789532	-0.000093
 716	7.1142e+01	11.5120	43.633363	0.000203	2.026361	0.686550	-0.000081
 717	7.1242e+01	11.4735	43.488026	0.000365	3.647449	1.235789	-0.000146
 718	7.1341e+01	11.4253	43.334615	0.000385	3.850085	1.304444	-0.000154
 719	7.1441e+01	11.3949	43.241761	0.000233	2.330315	0.789532	-0.000093
 720	7.1540e+01	11.3483	43.104498	0.000344	3.444813	1.167134	-0.000138
 721	7.1640e+01	11.2922	43.003570	0.000253	2.532951	0.858187	-0.000101
 722	7.1740e+01	11.2745	42.862270	0.000355	3.546131	1.201462	-0.000142
 723	7.1839e+01	11.2312	42.777490	0.000213	2.127679	0.720877	-0.000085
 724	7.1939e+01	11.1895	42.632153	0.000365	3.647449	1.235789	-0.000146
 725	7.2038e+01	11.1398	42.494891	0.000344	3.444813	1.167134	-0.000138
 726	7.2138e+01	11.1109	42.381851	0.000284	2.836905	0.961169	-0.000114
 727	7.2237e+01	11.0644	42.280923	0.000253	2.532951	0.858187	-0.000101
 728	7.2337e+01	11.0355	42.196143	0.000213	2.127679	0.720877	-0.000085
 729	7.2436e+01	10.9858	42.026583	0.000426	4.255358	1.441754	-0.000170
 730	7.2535e+01	10.9457	41.921618	0.000263	2.634269	0.892514	-0.000105
 731	7.2635e+01	10.9136	41.804541	0.000294	2.938223	0.995497	-0.000118
 732	7.2734e+01	10.8591	41.683426	0.000304	3.039541	1.029824	-0.000122
 733	7.2834e+01	10.8286	41.542127	0.000355	3.546131	1.201462	-0.000142
 734	7.2933e+01	10.7820	41.433124	0.000274	2.735587	0.926842	-0.000110
 735	7.3033e+01	10.7484	41.283750	0.000375	3.748767	1.270117	-0.000150
 736	7.3132e+01	10.7131	41.194933	0.000223	2.228997	0.755205	-0.000089
 737	7.3232e+01	10.6810	41.033448	0.000405	4.052721	1.373099	-0.000162
 738	7.3332e+01	10.6296	40.976928	0.000142	1.418453	0.480585	-0.000057
 739	7.3431e+01	10.5944	40.867925	0.000274	2.735587	0.926842	-0.000110
 740	7.3531e+01	10.5414	40.710477	0.000395	3.951403	1.338772	-0.000158
 741	7.3630e+01	10.5061	40.585326	0.000314	3.140859	1.064152	-0.000126
 742	7.3730e+01	10.4676	40.448063	0.000344	3.444813	1.167134	-0.000138
 743	7.3829e+01	10.4291	40.326949	0.000304	3.039541	1.029824	-0.000122
 744	7.3928e+01	10.3922	40.226020	0.000253	2.532951	0.858187	-0.000101
 745	7.4028e+01	10.3489	40.092795	0.000334	3.343495	1.132807	-0.000134
 746	7.4127e+01	10.3024	39.975718	0.000294	2.938223	0.995497	-0.000118
 747	7.4227e+01	10.2655	39.826344	0.000375	3.748767	1.270117	-0.000150
 748	7.4326e+01	10.2254	39.733490	0.000233	2.330315	0.789532	-0.000093
 749	7.4426e+01	10.1917	39.588153	0.000365	3.647449	1.235789	-0.000146
 750	7.4525e+01	10.1580	39.463002	0.000314	3.140859	1.064152	-0.000126
 751	7.4625e+01	10.1163	39.358036	0.000263	2.634269	0.892514	-0.000105
 752	7.4725e+01	10.0714	39.216737	0.000355	3.546131	1.201462	-0.000142
 753	7.4824e+01	10.0329	39.095622	0.000304	3.039541	1.029824	-0.000122
 754	7.4924e+01	9.9976	38.974508	0.000304	3.039541	1.029824	-0.000122
 755	7.5023e+01	9.9478	38.825134	0.000375	3.748767	1.270117	-0.000150
 756	7.5123e+01	9.9077	38.748429	0.000193	1.925043	0.652222	-0.000077
 757	7.5222e+01	9.8724	38.619240	0.000324	3.242177	1.098479	-0.000130
 758	7.5322e+01	9.8307	38.486015	0.000334	3.343495	1.132807	-0.000134
 759	7.5421e+01	9.7938	38.364901	0.000304	3.039541	1.029824	-0.000122
 760	7.5520e+01	9.7521	38.247824	0.000294	2.938223	0.995497	-0.000118
 761	7.5620e+01	9.7104	38.098450	0.000375	3.748767	1.270117	-0.000150
 762	7.5719e+01	9.6735	37.989447	0.000274	2.735587	0.926842	-0.000110
 763	7.5819e+01	9.6398	37.908705	0.000203	2.026361	0.686550	-0.000081
 764	7.5918e+01	9.6029	37.771442	0.000344	3.444813	1.167134	-0.000138
 765	7.6018e+01	9.5596	37.609957	0.000405	4.052721	1.373099	-0.000162
 766	7.6118e+01	9.5099	37.484805	0.000314	3.140859	1.064152	-0.000126
 767	7.6217e+01	9.4730	37.391951	0.000233	2.330315	0.789532	-0.000093
 768	7.6317e+01	9.4345	37.266800	0.000314	3.140859	1.064152	-0.000126
 769	7.6416e+01	9.3896	37.129537	0.000344	3.444813	1.167134	-0.000138
 770	7.6516e+01	9.3543	36.980163	0.000375	3.748767	1.270117	-0.000150
 771	7.6615e+01	9.3174	36.871161	0.000274	2.735587	0.926842	-0.000110
 772	7.6715e+01	9.2821	36.754084	0.000294	2.938223	0.995497	-0.000118
 773	7.6814e+01	9.2308	36.657193	0.000243	2.431633	0.823860	-0.000097
 774	7.6913e+01	9.2019	36.499744	0.000395	3.951403	1.338772	-0.000158
 775	7.7013e+01	9.1473	36.366519	0.000334	3.343495	1.132807	-0.000134
 776	7.7112e+01	9.1153	36.269627	0.000243	2.431633	0.823860	-0.000097
 777	7.7212e+01	9.0751	36.104105	0.000415	4.154039	1.407427	-0.000166
 778	7.7311e+01	9.0399	35.974917	0.000324	3.242177	1.098479	-0.000130
 779	7.7411e+01	9.0062	35.841691	0.000334	3.343495	1.132807	-0.000134
 780	7.7510e+01	8.9468	35.769023	0.000182	1.823725	0.617895	-0.000073
 781	7.7610e+01	8.9131	35.619649	0.000375	3.748767	1.270117	-0.000150
 782	7.7710e+01	8.8762	35.478349	0.000355	3.546131	1.201462	-0.000142
 783	7.7809e+01	8.8345	35.361272	0.000294	2.938223	0.995497	-0.000118
 784	7.7909e+01	8.8008	35.228046	0.000334	3.343495	1.132807	-0.000134
 785	7.8008e+01	8.7591	35.098858	0.000324	3.242177	1.098479	-0.000130
 786	7.8108e+01	8.7238	34.965633	0.000334	3.343495	1.132807	-0.000134
 787	7.8207e+01	8.6789	34.787999	0.000446	4.457994	1.510409	-0.000179
 788	7.8306e+01	8.6452	34.703219	0.000213	2.127679	0.720877	-0.000085
 789	7.8406e+01	8.5987	34.586142	0.000294	2.938223	0.995497	-0.000118
 790	7.8505e+01	8.5490	34.489251	0.000243	2.431633	0.823860	-0.000097
 791	7.8605e+01	8.5233	34.347951	0.000355	3.546131	1.201462	-0.000142
 792	7.8704e+01	8.4864	34.210688	0.000344	3.444813	1.167134	-0.000138
 793	7.8804e+01	8.4383	34.061314	0.000375	3.748767	1.270117	-0.000150
 794	7.8903e+01	8.4046	33.956349	0.000263	2.634269	0.892514	-0.000105
 795	7.9003e+01	8.3613	33.819086	0.000344	3.444813	1.167134	-0.000138
 796	7.9103e+01	8.3179	33.641452	0.000446	4.457994	1.510409	-0.000179
 797	7.9202e+01	8.2762	33.552635	0.000223	2.228997	0.755205	-0.000089
 798	7.9302e+01	8.2329	33.407298	0.000365	3.647449	1.235789	-0.000146
 799	7.9401e+01	8.1992	33.249850	0.000395	3.951403	1.338772	-0.000158
 800	7.9501e+01	8.1559	33.116624	0.000334	3.343495	1.132807	-0.000134
 801	7.9600e+01	8.1174	33.011659	0.000263	2.634269	0.892514	-0.000105
 802	7.9700e+01	8.0789	32.898619	0.000284	2.836905	0.961169	-0.000114
 803	7.9799e+01	8.0388	32.777505	0.000304	3.039541	1.029824	-0.000122
 804	7.9898e+01	8.0019	32.620057	0.000395	3.951403	1.338772	-0.000158
 805	7.9998e+01	7.9586	32.498943	0.000304	3.039541	1.029824	-0.000122
 806	8.0097e+01	7.9105	32.349569	0.000375	3.748767	1.270117	-0.000150
 807	8.0197e+01	7.8752	32.252677	0.000243	2.431633	0.823860	-0.000097
 808	8.0296e+01	7.8367	32.115415	0.000344	3.444813	1.167134	-0.000138
 809	8.0396e+01	7.7966	31.937781	0.000446	4.457994	1.510409	-0.000179
 810	8.0496e+01	7.7565	31.848964	0.000223	2.228997	0.755205	-0.000089
 811	8.0595e+01	7.7099	31.671330	0.000446	4.457994	1.510409	-0.000179
 812	8.0695e+01	7.6795	31.550216	0.000304	3.039541	1.029824	-0.000122
 813	8.0794e+01	7.6426	31.412953	0.000344	3.444813	1.167134	-0.000138
 814	8.0894e+01	7.6041	31.291839	0.000304	3.039541	1.029824	-0.000122
 815	8.0993e+01	7.5656	31.118242	0.000436	4.356676	1.476082	-0.000174
 816	8.1093e+01	7.5239	30.985017	0.000334	3.343495	1.132807	-0.000134
 817	8.1192e+01	7.4837	30.876014	0.000274	2.735587	0.926842	-0.000110
 818	8.1291e+01	7.4468	30.758937	0.000294	2.938223	0.995497	-0.000118
 819	8.1391e+01	7.4019	30.573229	0.000466	4.660630	1.579064	-0.000187
 820	8.1490e+01	7.3698	30.484412	0.000223	2.228997	0.755205	-0.000089
 821	8.1590e+01	7.3297	30.326964	0.000395	3.951403	1.338772	-0.000158
 822	8.1689e+01	7.2784	30.217961	0.000274	2.735587	0.926842	-0.000110
 823	8.1789e+01	7.2431	30.056476	0.000405	4.052721	1.373099	-0.000162
 824	8.1888e+01	7.1982	29.870767	0.000466	4.660630	1.579064	-0.000187
 825	8.1988e+01	7.1709	29.769839	0.000253	2.532951	0.858187	-0.000101
 826	8.2088e+01	7.1260	29.628539	0.000355	3.546131	1.201462	-0.000142
 827	8.2187e+01	7.0715	29.499351	0.000324	3.242177	1.098479	-0.000130
 828	8.2287e+01	7.0378	29.362088	0.000344	3.444813	1.167134	-0.000138
 829	8.2386e+01	7.0041	29.232900	0.000324	3.242177	1.098479	-0.000130
 830	8.2486e+01	6.9640	29.095637	0.000344	3.444813	1.167134	-0.000138
 831	8.2585e+01	6.9271	28.942226	0.000385	3.850085	1.304444	-0.000154
 832	8.2684e+01	6.8854	28.796889	0.000365	3.647449	1.235789	-0.000146
 833	8.2784e+01	6.8437	28.639441	0.000395	3.951403	1.338772	-0.000158
 834	8.2883e+01	6.8019	28.518327	0.000304	3.039541	1.029824	-0.000122
 835	8.2983e+01	6.7618	28.385101	0.000334	3.343495	1.132807	-0.000134
 836	8.3082e+01	6.7249	28.207467	0.000446	4.457994	1.510409	-0.000179
 837	8.3182e+01	6.6800	28.062131	0.000365	3.647449	1.235789	-0.000146
 838	8.3281e+01	6.6415	27.961202	0.000253	2.532951	0.858187	-0.000101
 839	8.3381e+01	6.6030	27.848162	0.000284	2.836905	0.961169	-0.000114
 840	8.3481e+01	6.5677	27.690714	0.000395	3.951403	1.338772	-0.000158
 841	8.3580e+01	6.5276	27.509043	0.000456	4.559312	1.544737	-0.000183
 842	8.3680e+01	6.4923	27.375817	0.000334	3.343495	1.132807	-0.000134
 843	8.3779e+01	6.4554	27.242592	0.000334	3.343495	1.132807	-0.000134
 844	8.3879e+01	6.4169	27.133589	0.000274	2.735587	0.926842	-0.000110
 845	8.3978e+01	6.3640	26.931733	0.000507	5.065902	1.716374	-0.000203
 846	8.4078e+01	6.3319	26.818693	0.000284	2.836905	0.961169	-0.000114
 847	8.4177e+01	6.2934	26.717764	0.000253	2.532951	0.858187	-0.000101
 848	8.4276e+01	6.2533	26.556279	0.000405	4.052721	1.373099	-0.000162
 849	8.4376e+01	6.2132	26.346348	0.000527	5.268538	1.785029	-0.000211
 850	8.4475e+01	6.1667	26.205048	0.000355	3.546131	1.201462	-0.000142
 851	8.4575e+01	6.1394	26.104120	0.000253	2.532951	0.858187	-0.000101
 852	8.4674e+01	6.0833	25.914374	0.000476	4.761948	1.613392	-0.000191
 853	8.4774e+01	6.0496	25.785186	0.000324	3.242177	1.098479	-0.000130
 854	8.4874e+01	6.0062	25.639849	0.000365	3.647449	1.235789	-0.000146
 855	8.4973e+01	5.9645	25.502586	0.000344	3.444813	1.167134	-0.000138
 856	8.5073e+01	5.9325	25.365324	0.000344	3.444813	1.167134	-0.000138
 857	8.5172e+01	5.8923	25.211913	0.000385	3.850085	1.304444	-0.000154
 858	8.5272e+01	5.8522	25.050427	0.000405	4.052721	1.373099	-0.000162
 859	8.5371e+01	5.8169	24.937387	0.000284	2.836905	0.961169	-0.000114
 860	8.5471e+01	5.7736	24.767828	0.000426	4.255358	1.441754	-0.000170
 861	8.5570e+01	5.7319	24.674974	0.000233	2.330315	0.789532	-0.000093
 862	8.5669e+01	5.6902	24.505414	0.000426	4.255358	1.441754	-0.000170
 863	8.5769e+01	5.6437	24.360077	0.000365	3.647449	1.235789	-0.000146
 864	8.5868e+01	5.6052	24.194554	0.000415	4.154039	1.407427	-0.000166
 865	8.5968e+01	5.5811	24.069403	0.000314	3.140859	1.064152	-0.000126
 866	8.6067e+01	5.5314	23.903881	0.000415	4.154039	1.407427	-0.000166
 867	8.6167e+01	5.4961	23.778729	0.000314	3.140859	1.064152	-0.000126
 868	8.6266e+01	5.4512	23.645504	0.000334	3.343495	1.132807	-0.000134
 869	8.6366e+01	5.4175	23.463833	0.000456	4.559312	1.544737	-0.000183
 870	8.6466e+01	5.3694	23.322533	0.000355	3.546131	1.201462	-0.000142
 871	8.6565e+01	5.3405	23.185271	0.000344	3.444813	1.167134	-0.000138
 872	8.6665e+01	5.2940	23.035897	0.000375	3.748767	1.270117	-0.000150
 873	8.6764e+01	5.2490	22.894597	0.000355	3.546131	1.201462	-0.000142
 874	8.6864e+01	5.2057	22.708889	0.000466	4.660630	1.579064	-0.000187
 875	8.6963e+01	5.1720	22.559515	0.000375	3.748767	1.270117	-0.000150
 876	8.7063e+01	5.1335	22.454549	0.000263	2.634269	0.892514	-0.000105
 877	8.7162e+01	5.0934	22.264804	0.000476	4.761948	1.613392	-0.000191
 878	8.7261e+01	5.0501	22.159838	0.000263	2.634269	0.892514	-0.000105
 879	8.7361e+01	5.0116	21.994316	0.000415	4.154039	1.407427	-0.000166
 880	8.7460e+01	4.9747	21.824756	0.000426	4.255358	1.441754	-0.000170
 881	8.7560e+01	4.9234	21.711716	0.000284	2.836905	0.961169	-0.000114
 882	8.7659e+01	4.8993	21.538119	0.000436	4.356676	1.476082	-0.000174
 883	8.7759e+01	4.8576	21.364522	0.000436	4.356676	1.476082	-0.000174
 884	8.7859e+01	4.8143	21.223223	0.000355	3.546131	1.201462	-0.000142
 885	8.7958e+01	4.7678	21.057700	0.000415	4.154039	1.407427	-0.000166
 886	8.8058e+01	4.7341	20.932549	0.000314	3.140859	1.064152	-0.000126
 887	8.8157e+01	4.6876	20.791249	0.000355	3.546131	1.201462	-0.000142
 888	8.8257e+01	4.6523	20.617652	0.000436	4.356676	1.476082	-0.000174
 889	8.8356e+01	4.6154	20.484427	0.000334	3.343495	1.132807	-0.000134
 890	8.8456e+01	4.5705	20.351201	0.000334	3.343495	1.132807	-0.000134
 891	8.8555e+01	4.5368	20.201827	0.000375	3.748767	1.270117	-0.000150
 892	8.8654e+01	4.4967	20.040342	0.000405	4.052721	1.373099	-0.000162
 893	8.8754e+01	4.4453	19.854634	0.000466	4.660630	1.579064	-0.000187
 894	8.8853e+01	4.4148	19.705260	0.000375	3.748767	1.270117	-0.000150
 895	8.8953e+01	4.3828	19.608368	0.000243	2.431633	0.823860	-0.000097
 896	8.9052e+01	4.3378	19.414586	0.000486	4.863266	1.647719	-0.000195
 897	8.9152e+01	4.2993	19.265212	0.000375	3.748767	1.270117	-0.000150
 898	8.9251e+01	4.2512	19.131986	0.000334	3.343495	1.132807	-0.000134
 899	8.9351e+01	4.2127	18.962427	0.000426	4.255358	1.441754	-0.000170
 900	8.9451e+01	4.1726	18.796904	0.000415	4.154039	1.407427	-0.000166
 901	8.9550e+01	4.1373	18.663679	0.000334	3.343495	1.132807	-0.000134
 902	8.9650e+01	4.0988	18.526416	0.000344	3.444813	1.167134	-0.000138
 903	8.9749e+01	4.0555	18.360893	0.000415	4.154039	1.407427	-0.000166
 904	8.9849e+01	4.0202	18.255928	0.000263	2.634269	0.892514	-0.000105
 905	8.9948e+01	3.9705	18.062145	0.000486	4.863266	1.647719	-0.000195
 906	9.0047e+01	3.9320	17.912771	0.000375	3.748767	1.270117	-0.000150
 907	9.0147e+01	3.8903	17.787620	0.000314	3.140859	1.064152	-0.000126
 908	9.0246e+01	3.8502	17.585763	0.000507	5.065902	1.716374	-0.000203
 909	9.0346e+01	3.8101	17.448501	0.000344	3.444813	1.167134	-0.000138
 910	9.0445e+01	3.7764	17.282978	0.000415	4.154039	1.407427	-0.000166
 911	9.0545e+01	3.7443	17.145715	0.000344	3.444813	1.167134	-0.000138
 912	9.0644e+01	3.7026	17.000379	0.000365	3.647449	1.235789	-0.000146
 913	9.0744e+01	3.6641	16.859079	0.000355	3.546131	1.201462	-0.000142
 914	9.0844e+01	3.6240	16.685482	0.000436	4.356676	1.476082	-0.000174
 915	9.0943e+01	3.5790	16.556294	0.000324	3.242177	1.098479	-0.000130
 916	9.1043e+01	3.5357	16.394808	0.000405	4.052721	1.373099	-0.000162
 917	9.1142e+01	3.4972	16.225249	0.000426	4.255358	1.441754	-0.000170
 918	9.1242e+01	3.4523	16.092023	0.000334	3.343495	1.132807	-0.000134
 919	9.1341e+01	3.4202	15.882092	0.000527	5.268538	1.785029	-0.000211
 920	9.1441e+01	3.3737	15.736755	0.000365	3.647449	1.235789	-0.000146
 921	9.1540e+01	3.3496	15.631790	0.000263	2.634269	0.892514	-0.000105
 922	9.1639e+01	3.3079	15.429933	0.000507	5.065902	1.716374	-0.000203
 923	9.1739e+01	3.2662	15.292670	0.000344	3.444813	1.167134	-0.000138
 924	9.1838e+01	3.2149	15.135222	0.000395	3.951403	1.338772	-0.000158
 925	9.1938e+01	3.1732	15.014108	0.000304	3.039541	1.029824	-0.000122
 926	9.2037e+01	3.1427	14.844548	0.000426	4.255358	1.441754	-0.000170
 927	9.2137e+01	3.1026	14.662877	0.000456	4.559312	1.544737	-0.000183
 928	9.2237e+01	3.0609	14.561949	0.000253	2.532951	0.858187	-0.000101
 929	9.2336e+01	3.0224	14.376240	0.000466	4.660630	1.579064	-0.000187
 930	9.2436e+01	2.9823	14.182458	0.000486	4.863266	1.647719	-0.000195
 931	9.2535e+01	2.9374	14.065381	0.000294	2.938223	0.995497	-0.000118
 932	9.2635e+01	2.8972	13.883710	0.000456	4.559312	1.544737	-0.000183
 933	9.2734e+01	2.8652	13.718187	0.000415	4.154039	1.407427	-0.000166
 934	9.2834e+01	2.8186	13.572850	0.000365	3.647449	1.235789	-0.000146
 935	9.2933e+01	2.7769	13.395216	0.000446	4.457994	1.510409	-0.000179
 936	9.3032e+01	2.7384	13.290251	0.000263	2.634269	0.892514	-0.000105
 937	9.3132e+01	2.7047	13.112617	0.000446	4.457994	1.510409	-0.000179
 938	9.3231e+01	2.6630	12.967280	0.000365	3.647449	1.235789	-0.000146
 939	9.3331e+01	2.6245	12.789646	0.000446	4.457994	1.510409	-0.000179
 940	9.3430e+01	2.5796	12.624123	0.000415	4.154039	1.407427	-0.000166
 941	9.3530e+01	2.5443	12.474749	0.000375	3.748767	1.270117	-0.000150
 942	9.3629e+01	2.5010	12.305190	0.000426	4.255358	1.441754	-0.000170
 943	9.3729e+01	2.4593	12.123519	0.000456	4.559312	1.544737	-0.000183
 944	9.3829e+01	2.4256	12.006442	0.000294	2.938223	0.995497	-0.000118
 945	9.3928e+01	2.3759	11.808622	0.000496	4.964584	1.682047	-0.000199
 946	9.4028e+01	2.3374	11.671359	0.000344	3.444813	1.167134	-0.000138
 947	9.4127e+01	2.2957	11.489688	0.000456	4.559312	1.544737	-0.000183
 948	9.4227e+01	2.2572	11.348389	0.000355	3.546131	1.201462	-0.000142
 949	9.4326e+01	2.2299	11.194977	0.000385	3.850085	1.304444	-0.000154
 950	9.4425e+01	2.1705	11.033492	0.000405	4.052721	1.373099	-0.000162
 951	9.4525e+01	2.1449	10.851821	0.000456	4.559312	1.544737	-0.000183
 952	9.4624e+01	2.0967	10.678224	0.000436	4.356676	1.476082	-0.000174
 953	9.4724e+01	2.0743	10.540961	0.000344	3.444813	1.167134	-0.000138
 954	9.4823e+01	2.0294	10.343142	0.000496	4.964584	1.682047	-0.000199
 955	9.4923e+01	1.9989	10.181656	0.000405	4.052721	1.373099	-0.000162
 956	9.5022e+01	1.9411	10.036319	0.000365	3.647449	1.235789	-0.000146
 957	9.5122e+01	1.9090	9.866760	0.000426	4.255358	1.441754	-0.000170
 958	9.5222e+01	1.8705	9.709311	0.000395	3.951403	1.338772	-0.000158
 959	9.5321e+01	1.8208	9.559937	0.000375	3.748767	1.270117	-0.000150
 960	9.5421e+01	1.7839	9.382303	0.000446	4.457994	1.510409	-0.000179
 961	9.5520e+01	1.7518	9.212744	0.000426	4.255358	1.441754	-0.000170
 962	9.5620e+01	1.7101	9.031073	0.000456	4.559312	1.544737	-0.000183
 963	9.5719e+01	1.6732	8.881699	0.000375	3.748767	1.270117	-0.000150
 964	9.5819e+01	1.6283	8.704065	0.000446	4.457994	1.510409	-0.000179
 965	9.5918e+01	1.5930	8.554691	0.000375	3.748767	1.270117	-0.000150
 966	9.6017e+01	1.5497	8.381094	0.000436	4.356676	1.476082	-0.000174
 967	9.6117e+01	1.5048	8.259980	0.000304	3.039541	1.029824	-0.000122
 968	9.6216e+01	1.4679	8.090420	0.000426	4.255358	1.441754	-0.000170
 969	9.6316e+01	1.4230	7.876452	0.000537	5.369856	1.819356	-0.000215
 970	9.6415e+01	1.3893	7.714966	0.000405	4.052721	1.373099	-0.000162
 971	9.6515e+01	1.3460	7.533295	0.000456	4.559312	1.544737	-0.000183
 972	9.6615e+01	1.3107	7.391996	0.000355	3.546131	1.201462	-0.000142
 973	9.6714e+01	1.2625	7.242622	0.000375	3.748767	1.270117	-0.000150
 974	9.6814e+01	1.2321	7.032690	0.000527	5.268538	1.785029	-0.000211
 975	9.6913e+01	1.1903	6.838908	0.000486	4.863266	1.647719	-0.000195
 976	9.7013e+01	1.1518	6.697608	0.000355	3.546131	1.201462	-0.000142
 977	9.7112e+01	1.1069	6.532086	0.000415	4.154039	1.407427	-0.000166
 978	9.7212e+01	1.0684	6.378674	0.000385	3.850085	1.304444	-0.000154
 979	9.7311e+01	1.0235	6.160669	0.000547	5.471174	1.853684	-0.000219
 980	9.7410e+01	0.9962	6.031481	0.000324	3.242177	1.098479	-0.000130
 981	9.7510e+01	0.9481	5.849810	0.000456	4.559312	1.544737	-0.000183
 982	9.7609e+01	0.9080	5.651990	0.000496	4.964584	1.682047	-0.000199
 983	9.7709e+01	0.8711	5.510690	0.000355	3.546131	1.201462	-0.000142
 984	9.7808e+01	0.8342	5.296722	0.000537	5.369856	1.819356	-0.000215
 985	9.7908e+01	0.7861	5.119088	0.000446	4.457994	1.510409	-0.000179
 986	9.8007e+01	0.7492	4.973751	0.000365	3.647449	1.235789	-0.000146
 987	9.8107e+01	0.7075	4.771894	0.000507	5.065902	1.716374	-0.000203
 988	9.8207e+01	0.6738	4.602335	0.000426	4.255358	1.441754	-0.000170
 989	9.8306e+01	0.6257	4.436812	0.000415	4.154039	1.407427	-0.000166
 990	9.8406e+01	0.5871	4.263215	0.000436	4.356676	1.476082	-0.000174
 991	9.8505e+01	0.5374	4.077507	0.000466	4.660630	1.579064	-0.000187
 992	9.8605e+01	0.5166	3.887762	0.000476	4.761948	1.613392	-0.000191
 993	9.8704e+01	0.4732	3.726276	0.000405	4.052721	1.373099	-0.000162
 994	9.8803e+01	0.4251	3.520382	0.000517	5.167220	1.750701	-0.000207
 995	9.8903e+01	0.3978	3.354860	0.000415	4.154039	1.407427	-0.000166
 996	9.9002e+01	0.3449	3.197412	0.000395	3.951403	1.338772	-0.000158
 997	9.9102e+01	0.3096	2.995555	0.000507	5.065902	1.716374	-0.000203
 998	9.9201e+01	0.2759	2.866366	0.000324	3.242177	1.098479	-0.000130
 999	9.9301e+01	0.2246	2.644324	0.000557	5.572492	1.888011	-0.000223
1000	9.9400e+01	0.1973	2.507061	0.000344	3.444813	1.167134	-0.000138
1001	9.9500e+01	0.1428	2.333464	0.000436	4.356676	1.476082	-0.000174
1002	9.9600e+01	0.1091	2.155830	0.000446	4.457994	1.510409	-0.000179
1003	9.9699e+01	0.0722	1.929751	0.000567	5.673810	1.922339	-0.000227
1004	9.9799e+01	0.0337	1.804600	0.000314	3.140859	1.064152	-0.000126
1005	9.9898e+01	0.0080	1.643114	0.000405	4.052721	1.373099	-0.000162
1006	9.9998e+01	-0.0433	1.469517	0.000436	4.356676	1.476082	-0.000174
1007	1.0010e+02	-0.0802	1.251512	0.000547	5.471174	1.853684	-0.000219
1008	1.0020e+02	-0.1219	1.102138	0.000375	3.748767	1.270117	-0.000150
1009	1.0030e+02	-0.1636	0.924504	0.000446	4.457994	1.510409	-0.000179
1010	1.0040e+02	-0.2005	0.750907	0.000436	4.356676	1.476082	-0.000174
1011	1.0050e+02	-0.2438	0.540976	0.000527	5.268538	1.785029	-0.000211
1012	1.0059e+02	-0.2839	0.339119	0.000507	5.065902	1.716374	-0.000203
1013	1.0069e+02	-0.3208	0.201857	0.000344	3.444813	1.167134	-0.000138
1014	1.0079e+02	-0.3674	0.016149	0.000466	4.660630	1.579064	-0.000187
1015	1.0089e+02	-0.4011	-0.161485	0.000446	4.457994	1.510409	-0.000179
1016	1.0099e+02	-0.4364	-0.359305	0.000496	4.964584	1.682047	-0.000199
1017	1.0109e+02	-0.4765	-0.569236	0.000527	5.268538	1.785029	-0.000211
1018	1.0119e+02	-0.5246	-0.750907	0.000456	4.559312	1.544737	-0.000183
1019	1.0129e+02	-0.5535	-0.904318	0.000385	3.850085	1.304444	-0.000154
1020	1.0139e+02	-0.5904	-1.094064	0.000476	4.761948	1.613392	-0.000191
1021	1.0149e+02	-0.6369	-1.275735	0.000456	4.559312	1.544737	-0.000183
1022	1.0159e+02	-0.6770	-1.437220	0.000405	4.052721	1.373099	-0.000162
1023	1.0169e+02	-0.7139	-1.643114	0.000517	5.167220	1.750701	-0.000207
1024	1.0179e+02	-0.7604	-1.796525	0.000385	3.850085	1.304444	-0.000154
1025	1.0189e+02	-0.7941	-1.990308	0.000486	4.863266	1.647719	-0.000195
1026	1.0199e+02	-0.8422	-2.196202	0.000517	5.167220	1.750701	-0.000207
1027	1.0209e+02	-0.8791	-2.345576	0.000375	3.748767	1.270117	-0.000150
1028	1.0219e+02	-0.9144	-2.531284	0.000466	4.660630	1.579064	-0.000187
1029	1.0229e+02	-0.9545	-2.725067	0.000486	4.863266	1.647719	-0.000195
1030	1.0239e+02	-0.9962	-2.930961	0.000517	5.167220	1.750701	-0.000207
1031	1.0248e+02	-1.0411	-3.048037	0.000294	2.938223	0.995497	-0.000118
1032	1.0258e+02	-1.0813	-3.270080	0.000557	5.572492	1.888011	-0.000223
1033	1.0268e+02	-1.1198	-3.411380	0.000355	3.546131	1.201462	-0.000142
1034	1.0278e+02	-1.1567	-3.617274	0.000517	5.167220	1.750701	-0.000207
1035	1.0288e+02	-1.1968	-3.782796	0.000415	4.154039	1.407427	-0.000166
1036	1.0298e+02	-1.2385	-3.992727	0.000527	5.268538	1.785029	-0.000211
1037	1.0308e+02	-1.2738	-4.154213	0.000405	4.052721	1.373099	-0.000162
1038	1.0318e+02	-1.3171	-4.343958	0.000476	4.761948	1.613392	-0.000191
1039	1.0328e+02	-1.3588	-4.521592	0.000446	4.457994	1.510409	-0.000179
1040	1.0338e+02	-1.3925	-4.703263	0.000456	4.559312	1.544737	-0.000183
1041	1.0348e+02	-1.4390	-4.901083	0.000496	4.964584	1.682047	-0.000199
1042	1.0358e+02	-1.4759	-5.046420	0.000365	3.647449	1.235789	-0.000146
1043	1.0368e+02	-1.5160	-5.220017	0.000436	4.356676	1.476082	-0.000174
1044	1.0378e+02	-1.5593	-5.413799	0.000486	4.863266	1.647719	-0.000195
1045	1.0388e+02	-1.5962	-5.591433	0.000446	4.457994	1.510409	-0.000179
1046	1.0398e+02	-1.6363	-5.760993	0.000426	4.255358	1.441754	-0.000170
1047	1.0408e+02	-1.6764	-5.946701	0.000466	4.660630	1.579064	-0.000187
1048	1.0418e+02	-1.7149	-6.152595	0.000517	5.167220	1.750701	-0.000207
1049	1.0428e+02	-1.7454	-6.330229	0.000446	4.457994	1.510409	-0.000179
1050	1.0438e+02	-1.7935	-6.455380	0.000314	3.140859	1.064152	-0.000126
1051	1.0447e+02	-1.8304	-6.677423	0.000557	5.572492	1.888011	-0.000223
1052	1.0457e+02	-1.8770	-6.895428	0.000547	5.471174	1.853684	-0.000219
1053	1.0467e+02	-1.9155	-7.032690	0.000344	3.444813	1.167134	-0.000138
1054	1.0477e+02	-1.9636	-7.178027	0.000365	3.647449	1.235789	-0.000146
1055	1.0487e+02	-1.9860	-7.343550	0.000415	4.154039	1.407427	-0.000166
1056	1.0497e+02	-2.0438	-7.561555	0.000547	5.471174	1.853684	-0.000219
1057	1.0507e+02	-2.0727	-7.727078	0.000415	4.154039	1.407427	-0.000166
1058	1.0517e+02	-2.1031	-7.916823	0.000476	4.761948	1.613392	-0.000191
1059	1.0527e+02	-2.1465	-8.090420	0.000436	4.356676	1.476082	-0.000174
1060	1.0537e+02	-2.1882	-8.272091	0.000456	4.559312	1.544737	-0.000183
1061	1.0547e+02	-2.2331	-8.393205	0.000304	3.039541	1.029824	-0.000122
1062	1.0557e+02	-2.2716	-8.570839	0.000446	4.457994	1.510409	-0.000179
1063	1.0567e+02	-2.3101	-8.764622	0.000486	4.863266	1.647719	-0.000195
1064	1.0577e+02	-2.3534	-8.958404	0.000486	4.863266	1.647719	-0.000195
1065	1.0587e+02	-2.3887	-9.160261	0.000507	5.065902	1.716374	-0.000203
1066	1.0597e+02	-2.4256	-9.317709	0.000395	3.951403	1.338772	-0.000158
1067	1.0607e+02	-2.4753	-9.418638	0.000253	2.532951	0.858187	-0.000101
1068	1.0617e+02	-2.5170	-9.588197	0.000426	4.255358	1.441754	-0.000170
1069	1.0627e+02	-2.5491	-9.765831	0.000446	4.457994	1.510409	-0.000179
1070	1.0637e+02	-2.5956	-9.971725	0.000517	5.167220	1.750701	-0.000207
1071	1.0647e+02	-2.6293	-10.113025	0.000355	3.546131	1.201462	-0.000142
1072	1.0656e+02	-2.6743	-10.322956	0.000527	5.268538	1.785029	-0.000211
1073	1.0666e+02	-2.7112	-10.488479	0.000415	4.154039	1.407427	-0.000166
1074	1.0676e+02	-2.7529	-10.605556	0.000294	2.938223	0.995497	-0.000118
1075	1.0686e+02	-2.7898	-10.795301	0.000476	4.761948	1.613392	-0.000191
1076	1.0696e+02	-2.8315	-10.948712	0.000385	3.850085	1.304444	-0.000154
1077	1.0706e+02	-2.8796	-11.118272	0.000426	4.255358	1.441754	-0.000170
1078	1.0716e+02	-2.9133	-11.316091	0.000496	4.964584	1.682047	-0.000199
1079	1.0726e+02	-2.9566	-11.493725	0.000446	4.457994	1.510409	-0.000179
1080	1.0736e+02	-2.9903	-11.643099	0.000375	3.748767	1.270117	-0.000150
1081	1.0746e+02	-3.0288	-11.796511	0.000385	3.850085	1.304444	-0.000154
1082	1.0756e+02	-3.0689	-11.957996	0.000405	4.052721	1.373099	-0.000162
1083	1.0766e+02	-3.1090	-12.167927	0.000527	5.268538	1.785029	-0.000211
1084	1.0776e+02	-3.1475	-12.285004	0.000294	2.938223	0.995497	-0.000118
1085	1.0786e+02	-3.1876	-12.490898	0.000517	5.167220	1.750701	-0.000207
1086	1.0796e+02	-3.2261	-12.636235	0.000365	3.647449	1.235789	-0.000146
1087	1.0806e+02	-3.2662	-12.777535	0.000355	3.546131	1.201462	-0.000142
1088	1.0816e+02	-3.3063	-12.943057	0.000415	4.154039	1.407427	-0.000166
1089	1.0826e+02	-3.3561	-13.120691	0.000446	4.457994	1.510409	-0.000179
1090	1.0836e+02	-3.3865	-13.261991	0.000355	3.546131	1.201462	-0.000142
1091	1.0845e+02	-3.4347	-13.435588	0.000436	4.356676	1.476082	-0.000174
1092	1.0855e+02	-3.4635	-13.593036	0.000395	3.951403	1.338772	-0.000158
1093	1.0865e+02	-3.5020	-13.750484	0.000395	3.951403	1.338772	-0.000158
1094	1.0875e+02	-3.5438	-13.911970	0.000405	4.052721	1.373099	-0.000162
1095	1.0885e+02	-3.5935	-14.061344	0.000375	3.748767	1.270117	-0.000150
1096	1.0895e+02	-3.6320	-14.230903	0.000426	4.255358	1.441754	-0.000170
1097	1.0905e+02	-3.6705	-14.392389	0.000405	4.052721	1.373099	-0.000162
1098	1.0915e+02	-3.7122	-14.529652	0.000344	3.444813	1.167134	-0.000138
1099	1.0925e+02	-3.7443	-14.735545	0.000517	5.167220	1.750701	-0.000207
1100	1.0935e+02	-3.7860	-14.852622	0.000294	2.938223	0.995497	-0.000118
1101	1.0945e+02	-3.8245	-15.010071	0.000395	3.951403	1.338772	-0.000158
1102	1.0955e+02	-3.8662	-15.179630	0.000426	4.255358	1.441754	-0.000170
1103	1.0965e+02	-3.9047	-15.369376	0.000476	4.761948	1.613392	-0.000191
1104	1.0975e+02	-3.9400	-15.470304	0.000253	2.532951	0.858187	-0.000101
1105	1.0985e+02	-3.9897	-15.623715	0.000385	3.850085	1.304444	-0.000154
1106	1.0995e+02	-4.0282	-15.813461	0.000476	4.761948	1.613392	-0.000191
1107	1.1005e+02	-4.0635	-15.918426	0.000263	2.634269	0.892514	-0.000105
1108	1.1015e+02	-4.1229	-16.120283	0.000507	5.065902	1.716374	-0.000203
1109	1.1025e+02	-4.1453	-16.261583	0.000355	3.546131	1.201462	-0.000142
1110	1.1035e+02	-4.1903	-16.447291	0.000466	4.660630	1.579064	-0.000187
1111	1.1044e+02	-4.2272	-16.580516	0.000334	3.343495	1.132807	-0.000134
1112	1.1054e+02	-4.2641	-16.713742	0.000334	3.343495	1.132807	-0.000134
1113	1.1064e+02	-4.3138	-16.891376	0.000446	4.457994	1.510409	-0.000179
1114	1.1074e+02	-4.3427	-17.064973	0.000436	4.356676	1.476082	-0.000174
1115	1.1084e+02	-4.3844	-17.178013	0.000284	2.836905	0.961169	-0.000114
1116	1.1094e+02	-4.4325	-17.396018	0.000547	5.471174	1.853684	-0.000219
1117	1.1104e+02	-4.4694	-17.513095	0.000294	2.938223	0.995497	-0.000118
1118	1.1114e+02	-4.5095	-17.646320	0.000334	3.343495	1.132807	-0.000134
1119	1.1124e+02	-4.5512	-17.823954	0.000446	4.457994	1.510409	-0.000179
1120	1.1134e+02	-4.5881	-17.961217	0.000344	3.444813	1.167134	-0.000138
1121	1.1144e+02	-4.6202	-18.122702	0.000405	4.052721	1.373099	-0.000162
1122	1.1154e+02	-4.6683	-18.264002	0.000355	3.546131	1.201462	-0.000142
1123	1.1164e+02	-4.7116	-18.405302	0.000355	3.546131	1.201462	-0.000142
1124	1.1174e+02	-4.7453	-18.538527	0.000334	3.343495	1.132807	-0.000134
1125	1.1184e+02	-4.7870	-18.736347	0.000496	4.964584	1.682047	-0.000199
1126	1.1194e+02	-4.8207	-18.869572	0.000334	3.343495	1.132807	-0.000134
1127	1.1204e+02	-4.8624	-19.027021	0.000395	3.951403	1.338772	-0.000158
1128	1.1214e+02	-4.8977	-19.200618	0.000436	4.356676	1.476082	-0.000174
1129	1.1224e+02	-4.9442	-19.309620	0.000274	2.735587	0.926842	-0.000110
1130	1.1234e+02	-4.9892	-19.463031	0.000385	3.850085	1.304444	-0.000154
1131	1.1244e+02	-5.0261	-19.616443	0.000385	3.850085	1.304444	-0.000154
1132	1.1253e+02	-5.0614	-19.777928	0.000405	4.052721	1.373099	-0.000162
1133	1.1263e+02	-5.1063	-19.923265	0.000365	3.647449	1.235789	-0.000146
1134	1.1273e+02	-5.1416	-20.088787	0.000415	4.154039	1.407427	-0.000166
1135	1.1283e+02	-5.1833	-20.209902	0.000304	3.039541	1.029824	-0.000122
1136	1.1293e+02	-5.2154	-20.363313	0.000385	3.850085	1.304444	-0.000154
1137	1.1303e+02	-5.2619	-20.549021	0.000466	4.660630	1.579064	-0.000187
1138	1.1313e+02	-5.2988	-20.649949	0.000253	2.532951	0.858187	-0.000101
1139	1.1323e+02	-5.3565	-20.851806	0.000507	5.065902	1.716374	-0.000203
1140	1.1333e+02	-5.3758	-20.968883	0.000294	2.938223	0.995497	-0.000118
1141	1.1343e+02	-5.4207	-21.106146	0.000344	3.444813	1.167134	-0.000138
1142	1.1353e+02	-5.4608	-21.243408	0.000344	3.444813	1.167134	-0.000138
1143	1.1363e+02	-5.5041	-21.384708	0.000355	3.546131	1.201462	-0.000142
1144	1.1373e+02	-5.5426	-21.497748	0.000284	2.836905	0.961169	-0.000114
1145	1.1383e+02	-5.5779	-21.679419	0.000456	4.559312	1.544737	-0.000183
1146	1.1393e+02	-5.6228	-21.844941	0.000415	4.154039	1.407427	-0.000166
1147	1.1403e+02	-5.6694	-22.014501	0.000426	4.255358	1.441754	-0.000170
1148	1.1413e+02	-5.7079	-22.151764	0.000344	3.444813	1.167134	-0.000138
1149	1.1423e+02	-5.7432	-22.272878	0.000304	3.039541	1.029824	-0.000122
1150	1.1433e+02	-5.7768	-22.438400	0.000415	4.154039	1.407427	-0.000166
1151	1.1442e+02	-5.8153	-22.591812	0.000385	3.850085	1.304444	-0.000154
1152	1.1452e+02	-5.8587	-22.708889	0.000294	2.938223	0.995497	-0.000118
1153	1.1462e+02	-5.9052	-22.886522	0.000446	4.457994	1.510409	-0.000179
1154	1.1472e+02	-5.9341	-22.995525	0.000274	2.735587	0.926842	-0.000110
1155	1.1482e+02	-5.9790	-23.193345	0.000496	4.964584	1.682047	-0.000199
1156	1.1492e+02	-6.0191	-23.314459	0.000304	3.039541	1.029824	-0.000122
1157	1.1502e+02	-6.0576	-23.451722	0.000344	3.444813	1.167134	-0.000138
1158	1.1512e+02	-6.0961	-23.580910	0.000324	3.242177	1.098479	-0.000130
1159	1.1522e+02	-6.1426	-23.742395	0.000405	4.052721	1.373099	-0.000162
1160	1.1532e+02	-6.1779	-23.871584	0.000324	3.242177	1.098479	-0.000130
1161	1.1542e+02	-6.2196	-24.029032	0.000395	3.951403	1.338772	-0.000158
1162	1.1552e+02	-6.2533	-24.174369	0.000365	3.647449	1.235789	-0.000146
1163	1.1562e+02	-6.2998	-24.299520	0.000314	3.140859	1.064152	-0.000126
1164	1.1572e+02	-6.3335	-24.473117	0.000436	4.356676	1.476082	-0.000174
1165	1.1582e+02	-6.3832	-24.610379	0.000344	3.444813	1.167134	-0.000138
1166	1.1592e+02	-6.4185	-24.719382	0.000274	2.735587	0.926842	-0.000110
1167	1.1602e+02	-6.4618	-24.897016	0.000446	4.457994	1.510409	-0.000179
1168	1.1612e+02	-6.4827	-25.014093	0.000294	2.938223	0.995497	-0.000118
1169	1.1622e+02	-6.5308	-25.191727	0.000446	4.457994	1.510409	-0.000179
1170	1.1632e+02	-6.5806	-25.328990	0.000344	3.444813	1.167134	-0.000138
1171	1.1642e+02	-6.6110	-25.450104	0.000304	3.039541	1.029824	-0.000122
1172	1.1651e+02	-6.6608	-25.623701	0.000436	4.356676	1.476082	-0.000174
1173	1.1661e+02	-6.6913	-25.716555	0.000233	2.330315	0.789532	-0.000093
1174	1.1671e+02	-6.7346	-25.874003	0.000395	3.951403	1.338772	-0.000158
1175	1.1681e+02	-6.7795	-26.019340	0.000365	3.647449	1.235789	-0.000146
1176	1.1691e+02	-6.8148	-26.180825	0.000405	4.052721	1.373099	-0.000162
1177	1.1701e+02	-6.8517	-26.330199	0.000375	3.748767	1.270117	-0.000150
1178	1.1711e+02	-6.8966	-26.459388	0.000324	3.242177	1.098479	-0.000130
1179	1.1721e+02	-6.9239	-26.632984	0.000436	4.356676	1.476082	-0.000174
1180	1.1731e+02	-6.9688	-26.754099	0.000304	3.039541	1.029824	-0.000122
1181	1.1741e+02	-7.0185	-26.887324	0.000334	3.343495	1.132807	-0.000134
1182	1.1751e+02	-7.0458	-27.040735	0.000385	3.850085	1.304444	-0.000154
1183	1.1761e+02	-7.0955	-27.182035	0.000355	3.546131	1.201462	-0.000142
1184	1.1771e+02	-7.1276	-27.295075	0.000284	2.836905	0.961169	-0.000114
1185	1.1781e+02	-7.1741	-27.460597	0.000415	4.154039	1.407427	-0.000166
1186	1.1791e+02	-7.2207	-27.593823	0.000334	3.343495	1.132807	-0.000134
1187	1.1801e+02	-7.2479	-27.723011	0.000324	3.242177	1.098479	-0.000130
1188	1.1811e+02	-7.2832	-27.888534	0.000415	4.154039	1.407427	-0.000166
1189	1.1821e+02	-7.3346	-28.037908	0.000375	3.748767	1.270117	-0.000150
1190	1.1831e+02	-7.3634	-28.183245	0.000365	3.647449	1.235789	-0.000146
1191	1.1841e+02	-7.4051	-28.300322	0.000294	2.938223	0.995497	-0.000118
1192	1.1850e+02	-7.4468	-28.473918	0.000436	4.356676	1.476082	-0.000174
1193	1.1860e+02	-7.4902	-28.566772	0.000233	2.330315	0.789532	-0.000093
1194	1.1870e+02	-7.5383	-28.772666	0.000517	5.167220	1.750701	-0.000207
1195	1.1880e+02	-7.5640	-28.865521	0.000233	2.330315	0.789532	-0.000093
1196	1.1890e+02	-7.6105	-29.006820	0.000355	3.546131	1.201462	-0.000142
1197	1.1900e+02	-7.6570	-29.119860	0.000284	2.836905	0.961169	-0.000114
1198	1.1910e+02	-7.6859	-29.297494	0.000446	4.457994	1.510409	-0.000179
1199	1.1920e+02	-7.7372	-29.378237	0.000203	2.026361	0.686550	-0.000081
1200	1.1930e+02	-7.7757	-29.559908	0.000456	4.559312	1.544737	-0.000183
1201	1.1940e+02	-7.8158	-29.693133	0.000334	3.343495	1.132807	-0.000134
1202	1.1950e+02	-7.8527	-29.830396	0.000344	3.444813	1.167134	-0.000138
1203	1.1960e+02	-7.8896	-29.951510	0.000304	3.039541	1.029824	-0.000122
1204	1.1970e+02	-7.9297	-30.104921	0.000385	3.850085	1.304444	-0.000154
1205	1.1980e+02	-7.9714	-30.242184	0.000344	3.444813	1.167134	-0.000138
1206	1.1990e+02	-8.0147	-30.359261	0.000294	2.938223	0.995497	-0.000118
1207	1.2000e+02	-8.0581	-30.536895	0.000446	4.457994	1.510409	-0.000179
1208	1.2010e+02	-8.0853	-30.597452	0.000152	1.519771	0.514912	-0.000061
1209	1.2020e+02	-8.1206	-30.791234	0.000486	4.863266	1.647719	-0.000195
1210	1.2030e+02	-8.1671	-30.932534	0.000355	3.546131	1.201462	-0.000142
1211	1.2039e+02	-8.2121	-31.057685	0.000314	3.140859	1.064152	-0.000126
1212	1.2049e+02	-8.2458	-31.170725	0.000284	2.836905	0.961169	-0.000114
1213	1.2059e+02	-8.2859	-31.324136	0.000385	3.850085	1.304444	-0.000154
1214	1.2069e+02	-8.3340	-31.481584	0.000395	3.951403	1.338772	-0.000158
1215	1.2079e+02	-8.3709	-31.602699	0.000304	3.039541	1.029824	-0.000122
1216	1.2089e+02	-8.3998	-31.703627	0.000253	2.532951	0.858187	-0.000101
1217	1.2099e+02	-8.4463	-31.861075	0.000395	3.951403	1.338772	-0.000158
1218	1.2109e+02	-8.4848	-32.014486	0.000385	3.850085	1.304444	-0.000154
1219	1.2119e+02	-8.5169	-32.135600	0.000304	3.039541	1.029824	-0.000122
1220	1.2129e+02	-8.5682	-32.276900	0.000355	3.546131	1.201462	-0.000142
1221	1.2139e+02	-8.6035	-32.438386	0.000405	4.052721	1.373099	-0.000162
1222	1.2149e+02	-8.6468	-32.531240	0.000233	2.330315	0.789532	-0.000093
1223	1.2159e+02	-8.6885	-32.676577	0.000365	3.647449	1.235789	-0.000146
1224	1.2169e+02	-8.7350	-32.834025	0.000395	3.951403	1.338772	-0.000158
1225	1.2179e+02	-8.7687	-32.955139	0.000304	3.039541	1.029824	-0.000122
1226	1.2189e+02	-8.8072	-33.047993	0.000233	2.330315	0.789532	-0.000093
1227	1.2199e+02	-8.8489	-33.189293	0.000355	3.546131	1.201462	-0.000142
1228	1.2209e+02	-8.8874	-33.342704	0.000385	3.850085	1.304444	-0.000154
1229	1.2219e+02	-8.9260	-33.427484	0.000213	2.127679	0.720877	-0.000085
1230	1.2229e+02	-8.9677	-33.572821	0.000365	3.647449	1.235789	-0.000146
1231	1.2239e+02	-8.9981	-33.706046	0.000334	3.343495	1.132807	-0.000134
1232	1.2248e+02	-9.0463	-33.843309	0.000344	3.444813	1.167134	-0.000138
1233	1.2258e+02	-9.0896	-33.992683	0.000375	3.748767	1.270117	-0.000150
1234	1.2268e+02	-9.1265	-34.109760	0.000294	2.938223	0.995497	-0.000118
1235	1.2278e+02	-9.1682	-34.230874	0.000304	3.039541	1.029824	-0.000122
1236	1.2288e+02	-9.1987	-34.392359	0.000405	4.052721	1.373099	-0.000162
1237	1.2298e+02	-9.2388	-34.517511	0.000314	3.140859	1.064152	-0.000126
1238	1.2308e+02	-9.2821	-34.630550	0.000284	2.836905	0.961169	-0.000114
1239	1.2318e+02	-9.3270	-34.771850	0.000355	3.546131	1.201462	-0.000142
1240	1.2328e+02	-9.3591	-34.917187	0.000365	3.647449	1.235789	-0.000146
1241	1.2338e+02	-9.3960	-35.006004	0.000223	2.228997	0.755205	-0.000089
1242	1.2348e+02	-9.4505	-35.139229	0.000334	3.343495	1.132807	-0.000134
1243	1.2358e+02	-9.4922	-35.252269	0.000284	2.836905	0.961169	-0.000114
1244	1.2368e+02	-9.5179	-35.393569	0.000355	3.546131	1.201462	-0.000142
1245	1.2378e+02	-9.5676	-35.502572	0.000274	2.735587	0.926842	-0.000110
1246	1.2388e+02	-9.6061	-35.647909	0.000365	3.647449	1.235789	-0.000146
1247	1.2398e+02	-9.6398	-35.797283	0.000375	3.748767	1.270117	-0.000150
1248	1.2408e+02	-9.6864	-35.886100	0.000223	2.228997	0.755205	-0.000089
1249	1.2418e+02	-9.7249	-36.011251	0.000314	3.140859	1.064152	-0.000126
1250	1.2428e+02	-9.7521	-36.180810	0.000426	4.255358	1.441754	-0.000170
1251	1.2438e+02	-9.8067	-36.253479	0.000182	1.823725	0.617895	-0.000073
1252	1.2447e+02	-9.8388	-36.427076	0.000436	4.356676	1.476082	-0.000174
1253	1.2457e+02	-9.8837	-36.495707	0.000172	1.722407	0.583567	-0.000069
1254	1.2467e+02	-9.9206	-36.657193	0.000405	4.052721	1.373099	-0.000162
1255	1.2477e+02	-9.9655	-36.790418	0.000334	3.343495	1.132807	-0.000134
1256	1.2487e+02	-10.0104	-36.919606	0.000324	3.242177	1.098479	-0.000130
1257	1.2497e+02	-10.0297	-37.052832	0.000334	3.343495	1.132807	-0.000134
1258	1.2507e+02	-10.0762	-37.153760	0.000253	2.532951	0.858187	-0.000101
1259	1.2517e+02	-10.1227	-37.282949	0.000324	3.242177	1.098479	-0.000130
1260	1.2527e+02	-10.1628	-37.412137	0.000324	3.242177	1.098479	-0.000130
1261	1.2537e+02	-10.1949	-37.525177	0.000284	2.836905	0.961169	-0.000114
1262	1.2547e+02	-10.2430	-37.626105	0.000253	2.532951	0.858187	-0.000101
1263	1.2557e+02	-10.2735	-37.759331	0.000334	3.343495	1.132807	-0.000134
1264	1.2567e+02	-10.3297	-37.900630	0.000355	3.546131	1.201462	-0.000142
1265	1.2577e+02	-10.3585	-38.005596	0.000263	2.634269	0.892514	-0.000105
1266	1.2587e+02	-10.4034	-38.142858	0.000344	3.444813	1.167134	-0.000138
1267	1.2597e+02	-10.4468	-38.276084	0.000334	3.343495	1.132807	-0.000134
1268	1.2607e+02	-10.4885	-38.405272	0.000324	3.242177	1.098479	-0.000130
1269	1.2617e+02	-10.5157	-38.538498	0.000334	3.343495	1.132807	-0.000134
1270	1.2627e+02	-10.5639	-38.659612	0.000304	3.039541	1.029824	-0.000122
1271	1.2636e+02	-10.6024	-38.768614	0.000274	2.735587	0.926842	-0.000110
1272	1.2646e+02	-10.6329	-38.897803	0.000324	3.242177	1.098479	-0.000130
1273	1.2656e+02	-10.6858	-38.978546	0.000203	2.026361	0.686550	-0.000081
1274	1.2666e+02	-10.7066	-39.140031	0.000405	4.052721	1.373099	-0.000162
1275	1.2676e+02	-10.7580	-39.253071	0.000284	2.836905	0.961169	-0.000114
1276	1.2686e+02	-10.7933	-39.362073	0.000274	2.735587	0.926842	-0.000110
1277	1.2696e+02	-10.8350	-39.475113	0.000284	2.836905	0.961169	-0.000114
1278	1.2706e+02	-10.8815	-39.620450	0.000365	3.647449	1.235789	-0.000146
1279	1.2716e+02	-10.9104	-39.705230	0.000213	2.127679	0.720877	-0.000085
1280	1.2726e+02	-10.9665	-39.830381	0.000314	3.140859	1.064152	-0.000126
1281	1.2736e+02	-11.0002	-39.939384	0.000274	2.735587	0.926842	-0.000110
1282	1.2746e+02	-11.0355	-40.080684	0.000355	3.546131	1.201462	-0.000142
1283	1.2756e+02	-11.0852	-40.242169	0.000405	4.052721	1.373099	-0.000162
1284	1.2766e+02	-11.1221	-40.310800	0.000172	1.722407	0.583567	-0.000069
1285	1.2776e+02	-11.1639	-40.504583	0.000486	4.863266	1.647719	-0.000195
1286	1.2786e+02	-11.1911	-40.597437	0.000233	2.330315	0.789532	-0.000093
1287	1.2796e+02	-11.2344	-40.726625	0.000324	3.242177	1.098479	-0.000130
1288	1.2806e+02	-11.2713	-40.827554	0.000253	2.532951	0.858187	-0.000101
1289	1.2816e+02	-11.3179	-40.940594	0.000284	2.836905	0.961169	-0.000114
1290	1.2826e+02	-11.3564	-41.122265	0.000456	4.559312	1.544737	-0.000183
1291	1.2835e+02	-11.4013	-41.186859	0.000162	1.621089	0.549240	-0.000065
1292	1.2845e+02	-11.4334	-41.263564	0.000193	1.925043	0.652222	-0.000077
1293	1.2855e+02	-11.4735	-41.433124	0.000426	4.255358	1.441754	-0.000170
1294	1.2865e+02	-11.5216	-41.530015	0.000243	2.431633	0.823860	-0.000097
1295	1.2875e+02	-11.5649	-41.630944	0.000253	2.532951	0.858187	-0.000101
1296	1.2885e+02	-11.5970	-41.764169	0.000334	3.343495	1.132807	-0.000134
1297	1.2895e+02	-11.6451	-41.905469	0.000355	3.546131	1.201462	-0.000142
1298	1.2905e+02	-11.6708	-42.006397	0.000253	2.532951	0.858187	-0.000101
1299	1.2915e+02	-11.7189	-42.123474	0.000294	2.938223	0.995497	-0.000118
1300	1.2925e+02	-11.7606	-42.256700	0.000334	3.343495	1.132807	-0.000134
1301	1.2935e+02	-11.7959	-42.389925	0.000334	3.343495	1.132807	-0.000134
1302	1.2945e+02	-11.8344	-42.515076	0.000314	3.140859	1.064152	-0.000126
1303	1.2955e+02	-11.8729	-42.611968	0.000243	2.431633	0.823860	-0.000097
1304	1.2965e+02	-11.9130	-42.733082	0.000304	3.039541	1.029824	-0.000122
1305	1.2975e+02	-11.9596	-42.809787	0.000193	1.925043	0.652222	-0.000077
1306	1.2985e+02	-11.9948	-42.971273	0.000405	4.052721	1.373099	-0.000162
1307	1.2995e+02	-12.0334	-43.080275	0.000274	2.735587	0.926842	-0.000110
1308	1.3005e+02	-12.0735	-43.225612	0.000365	3.647449	1.235789	-0.000146
1309	1.3015e+02	-12.1071	-43.350764	0.000314	3.140859	1.064152	-0.000126
1310	1.3025e+02	-12.1553	-43.447655	0.000243	2.431633	0.823860	-0.000097
1311	1.3034e+02	-12.1954	-43.576843	0.000324	3.242177	1.098479	-0.000130
1312	1.3044e+02	-12.2275	-43.661623	0.000213	2.127679	0.720877	-0.000085
1313	1.3054e+02	-12.2708	-43.778700	0.000294	2.938223	0.995497	-0.000118
1314	1.3064e+02	-12.3141	-43.940185	0.000405	4.052721	1.373099	-0.000162
1315	1.3074e+02	-12.3526	-44.004780	0.000162	1.621089	0.549240	-0.000065
1316	1.3084e+02	-12.3943	-44.182414	0.000446	4.457994	1.510409	-0.000179
1317	1.3094e+02	-12.4312	-44.287379	0.000263	2.634269	0.892514	-0.000105
1318	1.3104e+02	-12.4729	-44.372159	0.000213	2.127679	0.720877	-0.000085
1319	1.3114e+02	-12.5194	-44.525570	0.000385	3.850085	1.304444	-0.000154
1320	1.3124e+02	-12.5515	-44.626498	0.000253	2.532951	0.858187	-0.000101
1321	1.3134e+02	-12.5948	-44.759724	0.000334	3.343495	1.132807	-0.000134
1322	1.3144e+02	-12.6430	-44.880838	0.000304	3.039541	1.029824	-0.000122
1323	1.3154e+02	-12.6766	-44.997915	0.000294	2.938223	0.995497	-0.000118
1324	1.3164e+02	-12.7087	-45.086732	0.000223	2.228997	0.755205	-0.000089
1325	1.3174e+02	-12.7472	-45.260329	0.000436	4.356676	1.476082	-0.000174
1326	1.3184e+02	-12.7905	-45.369331	0.000274	2.735587	0.926842	-0.000110
1327	1.3194e+02	-12.8387	-45.466223	0.000243	2.431633	0.823860	-0.000097
1328	1.3204e+02	-12.8724	-45.579262	0.000284	2.836905	0.961169	-0.000114
1329	1.3214e+02	-12.9044	-45.664042	0.000213	2.127679	0.720877	-0.000085
1330	1.3224e+02	-12.9494	-45.825528	0.000405	4.052721	1.373099	-0.000162
1331	1.3234e+02	-12.9927	-45.950679	0.000314	3.140859	1.064152	-0.000126
1332	1.3243e+02	-13.0248	-46.059682	0.000274	2.735587	0.926842	-0.000110
1333	1.3253e+02	-13.0633	-46.120239	0.000152	1.519771	0.514912	-0.000061
1334	1.3263e+02	-13.1114	-46.293836	0.000436	4.356676	1.476082	-0.000174
1335	1.3273e+02	-13.1435	-46.406875	0.000284	2.836905	0.961169	-0.000114
1336	1.3283e+02	-13.1884	-46.491655	0.000213	2.127679	0.720877	-0.000085
1337	1.3293e+02	-13.2269	-46.628918	0.000344	3.444813	1.167134	-0.000138
1338	1.3303e+02	-13.2670	-46.729846	0.000253	2.532951	0.858187	-0.000101
1339	1.3313e+02	-13.3071	-46.875183	0.000365	3.647449	1.235789	-0.000146
1340	1.3323e+02	-13.3392	-46.947851	0.000182	1.823725	0.617895	-0.000073
1341	1.3333e+02	-13.3937	-47.121448	0.000436	4.356676	1.476082	-0.000174
1342	1.3343e+02	-13.4387	-47.230451	0.000274	2.735587	0.926842	-0.000110
1343	1.3353e+02	-13.4756	-47.375788	0.000365	3.647449	1.235789	-0.000146
1344	1.3363e+02	-13.5108	-47.444419	0.000172	1.722407	0.583567	-0.000069
1345	1.3373e+02	-13.5445	-47.626090	0.000456	4.559312	1.544737	-0.000183
1346	1.3383e+02	-13.5862	-47.702796	0.000193	1.925043	0.652222	-0.000077
1347	1.3393e+02	-13.6296	-47.819873	0.000294	2.938223	0.995497	-0.000118
1348	1.3403e+02	-13.6713	-47.936950	0.000294	2.938223	0.995497	-0.000118
1349	1.3413e+02	-13.7050	-48.070175	0.000334	3.343495	1.132807	-0.000134
1350	1.3423e+02	-13.7419	-48.175141	0.000263	2.634269	0.892514	-0.000105
1351	1.3432e+02	-13.7755	-48.296255	0.000304	3.039541	1.029824	-0.000122
1352	1.3442e+02	-13.8205	-48.417369	0.000304	3.039541	1.029824	-0.000122
1353	1.3452e+02	-13.8638	-48.510223	0.000233	2.330315	0.789532	-0.000093
1354	1.3462e+02	-13.9087	-48.615189	0.000263	2.634269	0.892514	-0.000105
1355	1.3472e+02	-13.9504	-48.784748	0.000426	4.255358	1.441754	-0.000170
1356	1.3482e+02	-13.9761	-48.861454	0.000193	1.925043	0.652222	-0.000077
1357	1.3492e+02	-14.0322	-48.954308	0.000233	2.330315	0.789532	-0.000093
1358	1.3502e+02	-14.0595	-49.107719	0.000385	3.850085	1.304444	-0.000154
1359	1.3512e+02	-14.0996	-49.204610	0.000243	2.431633	0.823860	-0.000097
1360	1.3522e+02	-14.1509	-49.362059	0.000395	3.951403	1.338772	-0.000158
1361	1.3532e+02	-14.1910	-49.475098	0.000284	2.836905	0.961169	-0.000114
1362	1.3542e+02	-14.2231	-49.539693	0.000162	1.621089	0.549240	-0.000065
1363	1.3552e+02	-14.2680	-49.709252	0.000426	4.255358	1.441754	-0.000170
1364	1.3562e+02	-14.3001	-49.842478	0.000334	3.343495	1.132807	-0.000134
1365	1.3572e+02	-14.3338	-49.894961	0.000132	1.317134	0.446257	-0.000053
1366	1.3582e+02	-14.3836	-50.020112	0.000314	3.140859	1.064152	-0.000126
1367	1.3592e+02	-14.4285	-50.112966	0.000233	2.330315	0.789532	-0.000093
1368	1.3602e+02	-14.4622	-50.266377	0.000385	3.850085	1.304444	-0.000154
1369	1.3612e+02	-14.5007	-50.379417	0.000284	2.836905	0.961169	-0.000114
1370	1.3622e+02	-14.5472	-50.464197	0.000213	2.127679	0.720877	-0.000085
1371	1.3631e+02	-14.5809	-50.585311	0.000304	3.039541	1.029824	-0.000122
1372	1.3641e+02	-14.6226	-50.690276	0.000263	2.634269	0.892514	-0.000105
1373	1.3651e+02	-14.6691	-50.795242	0.000263	2.634269	0.892514	-0.000105
1374	1.3661e+02	-14.7012	-50.916356	0.000304	3.039541	1.029824	-0.000122
1375	1.3671e+02	-14.7349	-51.045544	0.000324	3.242177	1.098479	-0.000130
1376	1.3681e+02	-14.7926	-51.186844	0.000355	3.546131	1.201462	-0.000142
1377	1.3691e+02	-14.8263	-51.303921	0.000294	2.938223	0.995497	-0.000118
1378	1.3701e+02	-14.8568	-51.404849	0.000253	2.532951	0.858187	-0.000101
1379	1.3711e+02	-14.9081	-51.513852	0.000274	2.735587	0.926842	-0.000110
1380	1.3721e+02	-14.9418	-51.639003	0.000314	3.140859	1.064152	-0.000126
1381	1.3731e+02	-14.9916	-51.711672	0.000182	1.823725	0.617895	-0.000073
1382	1.3741e+02	-15.0268	-51.901417	0.000476	4.761948	1.613392	-0.000191
1383	1.3751e+02	-15.0573	-51.978123	0.000193	1.925043	0.652222	-0.000077
1384	1.3761e+02	-15.1055	-52.054828	0.000193	1.925043	0.652222	-0.000077
1385	1.3771e+02	-15.1391	-52.216314	0.000405	4.052721	1.373099	-0.000162
1386	1.3781e+02	-15.1825	-52.365688	0.000375	3.748767	1.270117	-0.000150
1387	1.3791e+02	-15.2161	-52.402022	0.000091	0.911862	0.308947	-0.000037
1388	1.3801e+02	-15.2595	-52.527173	0.000314	3.140859	1.064152	-0.000126
1389	1.3811e+02	-15.2996	-52.624064	0.000243	2.431633	0.823860	-0.000097
1390	1.3821e+02	-15.3413	-52.761327	0.000344	3.444813	1.167134	-0.000138
1391	1.3831e+02	-15.3750	-52.886478	0.000314	3.140859	1.064152	-0.000126
1392	1.3840e+02	-15.4215	-53.007592	0.000304	3.039541	1.029824	-0.000122
1393	1.3850e+02	-15.4616	-53.128706	0.000304	3.039541	1.029824	-0.000122
1394	1.3860e+02	-15.4985	-53.229635	0.000253	2.532951	0.858187	-0.000101
1395	1.3870e+02	-15.5450	-53.338637	0.000274	2.735587	0.926842	-0.000110
1396	1.3880e+02	-15.5819	-53.463789	0.000314	3.140859	1.064152	-0.000126
1397	1.3890e+02	-15.6300	-53.536457	0.000182	1.823725	0.617895	-0.000073
1398	1.3900e+02	-15.6637	-53.633348	0.000243	2.431633	0.823860	-0.000097
1399	1.3910e+02	-15.7038	-53.750425	0.000294	2.938223	0.995497	-0.000118
1400	1.3920e+02	-15.7407	-53.867502	0.000294	2.938223	0.995497	-0.000118
1401	1.3930e+02	-15.7760	-53.984579	0.000294	2.938223	0.995497	-0.000118
1402	1.3940e+02	-15.8097	-54.085507	0.000253	2.532951	0.858187	-0.000101
1403	1.3950e+02	-15.8562	-54.202584	0.000294	2.938223	0.995497	-0.000118
1404	1.3960e+02	-15.8979	-54.315624	0.000284	2.836905	0.961169	-0.000114
1405	1.3970e+02	-15.9348	-54.412515	0.000243	2.431633	0.823860	-0.000097
1406	1.3980e+02	-15.9766	-54.521518	0.000274	2.735587	0.926842	-0.000110
1407	1.3990e+02	-16.0135	-54.666855	0.000365	3.647449	1.235789	-0.000146
1408	1.4000e+02	-16.0632	-54.723375	0.000142	1.418453	0.480585	-0.000057
1409	1.4010e+02	-16.1017	-54.860638	0.000344	3.444813	1.167134	-0.000138
1410	1.4020e+02	-16.1322	-54.985789	0.000314	3.140859	1.064152	-0.000126
1411	1.4029e+02	-16.1819	-55.050383	0.000162	1.621089	0.549240	-0.000065
1412	1.4039e+02	-16.2236	-55.159386	0.000274	2.735587	0.926842	-0.000110
1413	1.4049e+02	-16.2541	-55.280500	0.000304	3.039541	1.029824	-0.000122
1414	1.4059e+02	-16.2990	-55.417762	0.000344	3.444813	1.167134	-0.000138
1415	1.4069e+02	-16.3407	-55.466208	0.000122	1.215816	0.411930	-0.000049
1416	1.4079e+02	-16.3776	-55.555025	0.000223	2.228997	0.755205	-0.000089
1417	1.4089e+02	-16.4145	-55.732659	0.000446	4.457994	1.510409	-0.000179
1418	1.4099e+02	-16.4546	-55.869921	0.000344	3.444813	1.167134	-0.000138
1419	1.4109e+02	-16.4931	-55.934516	0.000162	1.621089	0.549240	-0.000065
1420	1.4119e+02	-16.5412	-56.067741	0.000334	3.343495	1.132807	-0.000134
1421	1.4129e+02	-16.5781	-56.164632	0.000243	2.431633	0.823860	-0.000097
1422	1.4139e+02	-16.6134	-56.273635	0.000274	2.735587	0.926842	-0.000110
1423	1.4149e+02	-16.6519	-56.374563	0.000253	2.532951	0.858187	-0.000101
1424	1.4159e+02	-16.6936	-56.548160	0.000436	4.356676	1.476082	-0.000174
1425	1.4169e+02	-16.7338	-56.584495	0.000091	0.911862	0.308947	-0.000037
1426	1.4179e+02	-16.7771	-56.685423	0.000253	2.532951	0.858187	-0.000101
1427	1.4189e+02	-16.8188	-56.798463	0.000284	2.836905	0.961169	-0.000114
1428	1.4199e+02	-16.8509	-56.879205	0.000203	2.026361	0.686550	-0.000081
1429	1.4209e+02	-16.9022	-57.028579	0.000375	3.748767	1.270117	-0.000150
1430	1.4219e+02	-16.9359	-57.121434	0.000233	2.330315	0.789532	-0.000093
1431	1.4228e+02	-16.9856	-57.246585	0.000314	3.140859	1.064152	-0.000126
1432	1.4238e+02	-17.0081	-57.307142	0.000152	1.519771	0.514912	-0.000061
1433	1.4248e+02	-17.0482	-57.432293	0.000314	3.140859	1.064152	-0.000126
1434	1.4258e+02	-17.0931	-57.521110	0.000223	2.228997	0.755205	-0.000089
1435	1.4268e+02	-17.1364	-57.634150	0.000284	2.836905	0.961169	-0.000114
1436	1.4278e+02	-17.1845	-57.787561	0.000385	3.850085	1.304444	-0.000154
1437	1.4288e+02	-17.2150	-57.876378	0.000223	2.228997	0.755205	-0.000089
1438	1.4298e+02	-17.2599	-57.993455	0.000294	2.938223	0.995497	-0.000118
1439	1.4308e+02	-17.2920	-58.078235	0.000213	2.127679	0.720877	-0.000085
1440	1.4318e+02	-17.3305	-58.154940	0.000193	1.925043	0.652222	-0.000077
1441	1.4328e+02	-17.3754	-58.296240	0.000355	3.546131	1.201462	-0.000142
1442	1.4338e+02	-17.4156	-58.372946	0.000193	1.925043	0.652222	-0.000077
1443	1.4348e+02	-17.4557	-58.542505	0.000426	4.255358	1.441754	-0.000170
1444	1.4358e+02	-17.4910	-58.619211	0.000193	1.925043	0.652222	-0.000077
1445	1.4368e+02	-17.5455	-58.716102	0.000243	2.431633	0.823860	-0.000097
1446	1.4378e+02	-17.5631	-58.804919	0.000223	2.228997	0.755205	-0.000089
1447	1.4388e+02	-17.6097	-58.962367	0.000395	3.951403	1.338772	-0.000158
1448	1.4398e+02	-17.6546	-59.071370	0.000274	2.735587	0.926842	-0.000110
1449	1.4408e+02	-17.6915	-59.144039	0.000182	1.823725	0.617895	-0.000073
1450	1.4418e+02	-17.7316	-59.261115	0.000294	2.938223	0.995497	-0.000118
1451	1.4428e+02	-17.7733	-59.378192	0.000294	2.938223	0.995497	-0.000118
1452	1.4437e+02	-17.8086	-59.450861	0.000182	1.823725	0.617895	-0.000073
1453	1.4447e+02	-17.8519	-59.592161	0.000355	3.546131	1.201462	-0.000142
1454	1.4457e+02	-17.8840	-59.697126	0.000263	2.634269	0.892514	-0.000105
1455	1.4467e+02	-17.9353	-59.818240	0.000304	3.039541	1.029824	-0.000122
1456	1.4477e+02	-17.9738	-59.911094	0.000233	2.330315	0.789532	-0.000093
1457	1.4487e+02	-18.0107	-60.040283	0.000324	3.242177	1.098479	-0.000130
1458	1.4497e+02	-18.0572	-60.116988	0.000193	1.925043	0.652222	-0.000077
1459	1.4507e+02	-18.0941	-60.205805	0.000223	2.228997	0.755205	-0.000089
1460	1.4517e+02	-18.1294	-60.322882	0.000294	2.938223	0.995497	-0.000118
1461	1.4527e+02	-18.1711	-60.435922	0.000284	2.836905	0.961169	-0.000114
1462	1.4537e+02	-18.2016	-60.565110	0.000324	3.242177	1.098479	-0.000130
1463	1.4547e+02	-18.2498	-60.653927	0.000223	2.228997	0.755205	-0.000089
1464	1.4557e+02	-18.2899	-60.766967	0.000284	2.836905	0.961169	-0.000114
1465	1.4567e+02	-18.3252	-60.884044	0.000294	2.938223	0.995497	-0.000118
1466	1.4577e+02	-18.3685	-60.989010	0.000263	2.634269	0.892514	-0.000105
1467	1.4587e+02	-18.4102	-61.098012	0.000274	2.735587	0.926842	-0.000110
1468	1.4597e+02	-18.4535	-61.227201	0.000324	3.242177	1.098479	-0.000130
1469	1.4607e+02	-18.4872	-61.311980	0.000213	2.127679	0.720877	-0.000085
1470	1.4617e+02	-18.5257	-61.425020	0.000284	2.836905	0.961169	-0.000114
1471	1.4626e+02	-18.5658	-61.534023	0.000274	2.735587	0.926842	-0.000110
1472	1.4636e+02	-18.6171	-61.622840	0.000223	2.228997	0.755205	-0.000089
1473	1.4646e+02	-18.6476	-61.768177	0.000365	3.647449	1.235789	-0.000146
1474	1.4656e+02	-18.6925	-61.844882	0.000193	1.925043	0.652222	-0.000077
1475	1.4666e+02	-18.7310	-61.986182	0.000355	3.546131	1.201462	-0.000142
1476	1.4676e+02	-18.7711	-62.054813	0.000172	1.722407	0.583567	-0.000069
1477	1.4686e+02	-18.8112	-62.139593	0.000213	2.127679	0.720877	-0.000085
1478	1.4696e+02	-18.8481	-62.272819	0.000334	3.343495	1.132807	-0.000134
1479	1.4706e+02	-18.8898	-62.434304	0.000405	4.052721	1.373099	-0.000162
1480	1.4716e+02	-18.9283	-62.519084	0.000213	2.127679	0.720877	-0.000085
1481	1.4726e+02	-18.9701	-62.652310	0.000334	3.343495	1.132807	-0.000134
1482	1.4736e+02	-19.0086	-62.785535	0.000334	3.343495	1.132807	-0.000134
1483	1.4746e+02	-19.0438	-62.882426	0.000243	2.431633	0.823860	-0.000097
1484	1.4756e+02	-19.0888	-63.019689	0.000344	3.444813	1.167134	-0.000138
1485	1.4766e+02	-19.1209	-63.056023	0.000091	0.911862	0.308947	-0.000037
1486	1.4776e+02	-19.1658	-63.209434	0.000385	3.850085	1.304444	-0.000154
1487	1.4786e+02	-19.2107	-63.286140	0.000193	1.925043	0.652222	-0.000077
1488	1.4796e+02	-19.2524	-63.455700	0.000426	4.255358	1.441754	-0.000170
1489	1.4806e+02	-19.2861	-63.508182	0.000132	1.317134	0.446257	-0.000053
1490	1.4816e+02	-19.3294	-63.661593	0.000385	3.850085	1.304444	-0.000154
1491	1.4825e+02	-19.3679	-63.774633	0.000284	2.836905	0.961169	-0.000114
1492	1.4835e+02	-19.4112	-63.843265	0.000172	1.722407	0.583567	-0.000069
1493	1.4845e+02	-19.4513	-63.972453	0.000324	3.242177	1.098479	-0.000130
1494	1.4855e+02	-19.4818	-64.097604	0.000314	3.140859	1.064152	-0.000126
1495	1.4865e+02	-19.5203	-64.198533	0.000253	2.532951	0.858187	-0.000101
1496	1.4875e+02	-19.5684	-64.315609	0.000294	2.938223	0.995497	-0.000118
1497	1.4885e+02	-19.6117	-64.432686	0.000294	2.938223	0.995497	-0.000118
1498	1.4895e+02	-19.6470	-64.573986	0.000355	3.546131	1.201462	-0.000142
1499	1.4905e+02	-19.6775	-64.666840	0.000233	2.330315	0.789532	-0.000093
1500	1.4915e+02	-19.7256	-64.759694	0.000233	2.330315	0.789532	-0.000093
1501	1.4925e+02	-19.7690	-64.909068	0.000375	3.748767	1.270117	-0.000150
1502	1.4935e+02	-19.8026	-65.022108	0.000284	2.836905	0.961169	-0.000114
1503	1.4945e+02	-19.8412	-65.086702	0.000162	1.621089	0.549240	-0.000065
1504	1.4955e+02	-19.8748	-65.236076	0.000375	3.748767	1.270117	-0.000150
1505	1.4965e+02	-19.9310	-65.361228	0.000314	3.140859	1.064152	-0.000126
1506	1.4975e+02	-19.9583	-65.462156	0.000253	2.532951	0.858187	-0.000101
1507	1.4985e+02	-20.0112	-65.575196	0.000284	2.836905	0.961169	-0.000114
1508	1.4995e+02	-19.9615	-65.510602	0.000162	1.621089	0.549240	0.000065
1509	1.5005e+02	-19.9198	-65.458119	0.000132	1.317134	0.446257	0.000053
1510	1.5015e+02	-19.8732	-65.397562	0.000152	1.519771	0.514912	0.000061
1511	1.5025e+02	-19.8412	-65.328931	0.000172	1.722407	0.583567	0.000069
1512	1.5034e+02	-19.8075	-65.232039	0.000243	2.431633	0.823860	0.000097
1513	1.5044e+02	-19.7561	-65.236076	-0.000010	-0.101318	-0.034327	-0.000004
1514	1.5054e+02	-19.7273	-65.147259	0.000223	2.228997	0.755205	0.000089
1515	1.5064e+02	-19.6823	-65.090740	0.000142	1.418453	0.480585	0.000057
1516	1.5074e+02	-19.6406	-64.965588	0.000314	3.140859	1.064152	0.000126
1517	1.5084e+02	-19.6053	-64.949440	0.000041	0.405272	0.137310	0.000016
1518	1.5094e+02	-19.5652	-64.884846	0.000162	1.621089	0.549240	0.000065
1519	1.5104e+02	-19.5315	-64.840437	0.000111	1.114498	0.377602	0.000045
1520	1.5114e+02	-19.4786	-64.727397	0.000284	2.836905	0.961169	0.000114
1521	1.5124e+02	-19.4433	-64.674915	0.000132	1.317134	0.446257	0.000053
1522	1.5134e+02	-19.4096	-64.573986	0.000253	2.532951	0.858187	0.000101
1523	1.5144e+02	-19.3695	-64.501318	0.000182	1.823725	0.617895	0.000073
1524	1.5154e+02	-19.3262	-64.436724	0.000162	1.621089	0.549240	0.000065
1525	1.5164e+02	-19.2893	-64.351944	0.000213	2.127679	0.720877	0.000085
1526	1.5174e+02	-19.2476	-64.311572	0.000101	1.013180	0.343275	0.000041
1527	1.5184e+02	-19.2139	-64.222755	0.000223	2.228997	0.755205	0.000089
1528	1.5194e+02	-19.1690	-64.166235	0.000142	1.418453	0.480585	0.000057
1529	1.5204e+02	-19.1209	-64.041084	0.000314	3.140859	1.064152	0.000126
1530	1.5214e+02	-19.0791	-64.004750	0.000091	0.911862	0.308947	0.000037
1531	1.5224e+02	-19.0567	-63.919970	0.000213	2.127679	0.720877	0.000085
1532	1.5233e+02	-19.0102	-63.867487	0.000132	1.317134	0.446257	0.000053
1533	1.5243e+02	-18.9717	-63.750410	0.000294	2.938223	0.995497	0.000118
1534	1.5253e+02	-18.9316	-63.649482	0.000253	2.532951	0.858187	0.000101
1535	1.5263e+02	-18.8850	-63.637371	0.000030	0.303954	0.102982	0.000012
1536	1.5273e+02	-18.8401	-63.512219	0.000314	3.140859	1.064152	0.000126
1537	1.5283e+02	-18.8112	-63.399180	0.000284	2.836905	0.961169	0.000114
1538	1.5293e+02	-18.7695	-63.378994	0.000051	0.506590	0.171637	0.000020
1539	1.5303e+02	-18.7214	-63.265954	0.000284	2.836905	0.961169	0.000114
1540	1.5313e+02	-18.6893	-63.205397	0.000152	1.519771	0.514912	0.000061
1541	1.5323e+02	-18.6492	-63.160989	0.000111	1.114498	0.377602	0.000045
1542	1.5333e+02	-18.6043	-63.019689	0.000355	3.546131	1.201462	0.000142
1543	1.5343e+02	-18.5674	-62.955095	0.000162	1.621089	0.549240	0.000065
1544	1.5353e+02	-18.5289	-62.886463	0.000172	1.722407	0.583567	0.000069
1545	1.5363e+02	-18.4920	-62.785535	0.000253	2.532951	0.858187	0.000101
1546	1.5373e+02	-18.4487	-62.696718	0.000223	2.228997	0.755205	0.000089
1547	1.5383e+02	-18.4134	-62.656347	0.000101	1.013180	0.343275	0.000041
1548	1.5393e+02	-18.3765	-62.551381	0.000263	2.634269	0.892514	0.000105
1549	1.5403e+02	-18.3332	-62.438341	0.000284	2.836905	0.961169	0.000114
1550	1.5413e+02	-18.2818	-62.365673	0.000182	1.823725	0.617895	0.000073
1551	1.5422e+02	-18.2481	-62.284930	0.000203	2.026361	0.686550	0.000081
1552	1.5432e+02	-18.2032	-62.252633	0.000081	0.810544	0.274620	0.000032
1553	1.5442e+02	-18.1744	-62.123445	0.000324	3.242177	1.098479	0.000130
1554	1.5452e+02	-18.1310	-62.079036	0.000111	1.114498	0.377602	0.000045
1555	1.5462e+02	-18.0909	-61.937736	0.000355	3.546131	1.201462	0.000142
1556	1.5472e+02	-18.0556	-61.885254	0.000132	1.317134	0.446257	0.000053
1557	1.5482e+02	-18.0123	-61.784325	0.000253	2.532951	0.858187	0.000101
1558	1.5492e+02	-17.9626	-61.735880	0.000122	1.215816	0.411930	0.000049
1559	1.5502e+02	-17.9225	-61.610728	0.000314	3.140859	1.064152	0.000126
1560	1.5512e+02	-17.8824	-61.546134	0.000162	1.621089	0.549240	0.000065
1561	1.5522e+02	-17.8551	-61.469429	0.000193	1.925043	0.652222	0.000077
1562	1.5532e+02	-17.8134	-61.368500	0.000253	2.532951	0.858187	0.000101
1563	1.5542e+02	-17.7685	-61.267572	0.000253	2.532951	0.858187	0.000101
1564	1.5552e+02	-17.7316	-61.158569	0.000274	2.735587	0.926842	0.000110
1565	1.5562e+02	-17.6963	-61.102049	0.000142	1.418453	0.480585	0.000057
1566	1.5572e+02	-17.6514	-61.061678	0.000101	1.013180	0.343275	0.000041
1567	1.5582e+02	-17.6065	-60.916341	0.000365	3.647449	1.235789	0.000146
1568	1.5592e+02	-17.5647	-60.831561	0.000213	2.127679	0.720877	0.000085
1569	1.5602e+02	-17.5262	-60.742744	0.000223	2.228997	0.755205	0.000089
1570	1.5612e+02	-17.5006	-60.601445	0.000355	3.546131	1.201462	0.000142
1571	1.5622e+02	-17.4524	-60.581259	0.000051	0.506590	0.171637	0.000020
1572	1.5631e+02	-17.4204	-60.492442	0.000223	2.228997	0.755205	0.000089
1573	1.5641e+02	-17.3706	-60.383439	0.000274	2.735587	0.926842	0.000110
1574	1.5651e+02	-17.3369	-60.278474	0.000263	2.634269	0.892514	0.000105
1575	1.5661e+02	-17.2952	-60.197731	0.000203	2.026361	0.686550	0.000081
1576	1.5671e+02	-17.2599	-60.100840	0.000243	2.431633	0.823860	0.000097
1577	1.5681e+02	-17.2102	-60.003948	0.000243	2.431633	0.823860	0.000097
1578	1.5691e+02	-17.1701	-59.963577	0.000101	1.013180	0.343275	0.000041
1579	1.5701e+02	-17.1332	-59.826315	0.000344	3.444813	1.167134	0.000138
1580	1.5711e+02	-17.0963	-59.709238	0.000294	2.938223	0.995497	0.000118
1581	1.5721e+02	-17.0514	-59.664829	0.000111	1.114498	0.377602	0.000045
1582	1.5731e+02	-17.0129	-59.559864	0.000263	2.634269	0.892514	0.000105
1583	1.5741e+02	-16.9696	-59.467009	0.000233	2.330315	0.789532	0.000093
1584	1.5751e+02	-16.9359	-59.353970	0.000284	2.836905	0.961169	0.000114
1585	1.5761e+02	-16.8862	-59.305524	0.000122	1.215816	0.411930	0.000049
1586	1.5771e+02	-16.8509	-59.224781	0.000203	2.026361	0.686550	0.000081
1587	1.5781e+02	-16.8092	-59.131927	0.000233	2.330315	0.789532	0.000093
1588	1.5791e+02	-16.7755	-59.002739	0.000324	3.242177	1.098479	0.000130
1589	1.5801e+02	-16.7321	-58.893736	0.000274	2.735587	0.926842	0.000110
1590	1.5811e+02	-16.6904	-58.833179	0.000152	1.519771	0.514912	0.000061
1591	1.5821e+02	-16.6503	-58.728214	0.000263	2.634269	0.892514	0.000105
1592	1.5830e+02	-16.6118	-58.631322	0.000243	2.431633	0.823860	0.000097
1593	1.5840e+02	-16.5701	-58.542505	0.000223	2.228997	0.755205	0.000089
1594	1.5850e+02	-16.5316	-58.405243	0.000344	3.444813	1.167134	0.000138
1595	1.5860e+02	-16.4819	-58.356797	0.000122	1.215816	0.411930	0.000049
1596	1.5870e+02	-16.4578	-58.280092	0.000193	1.925043	0.652222	0.000077
1597	1.5880e+02	-16.4129	-58.154940	0.000314	3.140859	1.064152	0.000126
1598	1.5890e+02	-16.3776	-58.086309	0.000172	1.722407	0.583567	0.000069
1599	1.5900e+02	-16.3327	-57.940972	0.000365	3.647449	1.235789	0.000146
1600	1.5910e+02	-16.2958	-57.892526	0.000122	1.215816	0.411930	0.000049
1601	1.5920e+02	-16.2493	-57.755264	0.000344	3.444813	1.167134	0.000138
1602	1.5930e+02	-16.2204	-57.646261	0.000274	2.735587	0.926842	0.000110
1603	1.5940e+02	-16.1771	-57.589741	0.000142	1.418453	0.480585	0.000057
1604	1.5950e+02	-16.1402	-57.484776	0.000263	2.634269	0.892514	0.000105
1605	1.5960e+02	-16.1017	-57.375773	0.000274	2.735587	0.926842	0.000110
1606	1.5970e+02	-16.0584	-57.307142	0.000172	1.722407	0.583567	0.000069
1607	1.5980e+02	-16.0183	-57.194102	0.000284	2.836905	0.961169	0.000114
1608	1.5990e+02	-15.9717	-57.064914	0.000324	3.242177	1.098479	0.000130
1609	1.6000e+02	-15.9364	-57.036654	0.000071	0.709226	0.240292	0.000028
1610	1.6010e+02	-15.9044	-56.915540	0.000304	3.039541	1.029824	0.000122
1611	1.6019e+02	-15.8659	-56.790388	0.000314	3.140859	1.064152	0.000126
1612	1.6029e+02	-15.8145	-56.693497	0.000243	2.431633	0.823860	0.000097
1613	1.6039e+02	-15.7648	-56.580457	0.000284	2.836905	0.961169	0.000114
1614	1.6049e+02	-15.7455	-56.499715	0.000203	2.026361	0.686550	0.000081
1615	1.6059e+02	-15.7135	-56.410898	0.000223	2.228997	0.755205	0.000089
1616	1.6069e+02	-15.6557	-56.322081	0.000223	2.228997	0.755205	0.000089
1617	1.6079e+02	-15.6316	-56.225189	0.000243	2.431633	0.823860	0.000097
1618	1.6089e+02	-15.5803	-56.116187	0.000274	2.735587	0.926842	0.000110
1619	1.6099e+02	-15.5386	-56.031407	0.000213	2.127679	0.720877	0.000085
1620	1.6109e+02	-15.4969	-55.914330	0.000294	2.938223	0.995497	0.000118
1621	1.6119e+02	-15.4584	-55.805327	0.000274	2.735587	0.926842	0.000110
1622	1.6129e+02	-15.4247	-55.732659	0.000182	1.823725	0.617895	0.000073
1623	1.6139e+02	-15.3910	-55.627693	0.000263	2.634269	0.892514	0.000105
1624	1.6149e+02	-15.3509	-55.567136	0.000152	1.519771	0.514912	0.000061
1625	1.6159e+02	-15.3012	-55.433911	0.000334	3.343495	1.132807	0.000134
1626	1.6169e+02	-15.2723	-55.369317	0.000162	1.621089	0.549240	0.000065
1627	1.6179e+02	-15.2210	-55.219943	0.000375	3.748767	1.270117	0.000150
1628	1.6189e+02	-15.1841	-55.102866	0.000294	2.938223	0.995497	0.000118
1629	1.6199e+02	-15.1391	-55.010012	0.000233	2.330315	0.789532	0.000093
1630	1.6209e+02	-15.0974	-54.949455	0.000152	1.519771	0.514912	0.000061
1631	1.6219e+02	-15.0654	-54.844489	0.000263	2.634269	0.892514	0.000105
1632	1.6228e+02	-15.0268	-54.711264	0.000334	3.343495	1.132807	0.000134
1633	1.6238e+02	-14.9851	-54.654744	0.000142	1.418453	0.480585	0.000057
1634	1.6248e+02	-14.9402	-54.529592	0.000314	3.140859	1.064152	0.000126
1635	1.6258e+02	-14.9146	-54.436738	0.000233	2.330315	0.789532	0.000093
1636	1.6268e+02	-14.8680	-54.331773	0.000263	2.634269	0.892514	0.000105
1637	1.6278e+02	-14.8215	-54.230844	0.000253	2.532951	0.858187	0.000101
1638	1.6288e+02	-14.7798	-54.137990	0.000233	2.330315	0.789532	0.000093
1639	1.6298e+02	-14.7429	-54.041099	0.000243	2.431633	0.823860	0.000097
1640	1.6308e+02	-14.7076	-53.940171	0.000253	2.532951	0.858187	0.000101
1641	1.6318e+02	-14.6595	-53.802908	0.000344	3.444813	1.167134	0.000138
1642	1.6328e+02	-14.6194	-53.754462	0.000122	1.215816	0.411930	0.000049
1643	1.6338e+02	-14.5729	-53.597014	0.000395	3.951403	1.338772	0.000158
1644	1.6348e+02	-14.5408	-53.504160	0.000233	2.330315	0.789532	0.000093
1645	1.6358e+02	-14.5087	-53.443603	0.000152	1.519771	0.514912	0.000061
1646	1.6368e+02	-14.4654	-53.370934	0.000182	1.823725	0.617895	0.000073
1647	1.6378e+02	-14.4269	-53.221560	0.000375	3.748767	1.270117	0.000150
1648	1.6388e+02	-14.3852	-53.124669	0.000243	2.431633	0.823860	0.000097
1649	1.6398e+02	-14.3402	-53.015667	0.000274	2.735587	0.926842	0.000110
1650	1.6408e+02	-14.3082	-52.922812	0.000233	2.330315	0.789532	0.000093
1651	1.6418e+02	-14.2632	-52.821884	0.000253	2.532951	0.858187	0.000101
1652	1.6427e+02	-14.2215	-52.672510	0.000375	3.748767	1.270117	0.000150
1653	1.6437e+02	-14.1894	-52.579656	0.000233	2.330315	0.789532	0.000093
1654	1.6447e+02	-14.1477	-52.494876	0.000213	2.127679	0.720877	0.000085
1655	1.6457e+02	-14.1076	-52.446430	0.000122	1.215816	0.411930	0.000049
1656	1.6467e+02	-14.0595	-52.325316	0.000304	3.039541	1.029824	0.000122
1657	1.6477e+02	-14.0226	-52.228425	0.000243	2.431633	0.823860	0.000097
1658	1.6487e+02	-13.9873	-52.115385	0.000284	2.836905	0.961169	0.000114
1659	1.6497e+02	-13.9456	-51.982160	0.000334	3.343495	1.132807	0.000134
1660	1.6507e+02	-13.9103	-51.913528	0.000172	1.722407	0.583567	0.000069
1661	1.6517e+02	-13.8654	-51.800489	0.000284	2.836905	0.961169	0.000114
1662	1.6527e+02	-13.8397	-51.715709	0.000213	2.127679	0.720877	0.000085
1663	1.6537e+02	-13.7852	-51.598632	0.000294	2.938223	0.995497	0.000118
1664	1.6547e+02	-13.7370	-51.530001	0.000172	1.722407	0.583567	0.000069
1665	1.6557e+02	-13.7066	-51.396775	0.000334	3.343495	1.132807	0.000134
1666	1.6567e+02	-13.6665	-51.311995	0.000213	2.127679	0.720877	0.000085
1667	1.6577e+02	-13.6312	-51.198955	0.000284	2.836905	0.961169	0.000114
1668	1.6587e+02	-13.5814	-51.126287	0.000182	1.823725	0.617895	0.000073
1669	1.6597e+02	-13.5461	-51.005173	0.000304	3.039541	1.029824	0.000122
1670	1.6607e+02	-13.5076	-50.892133	0.000284	2.836905	0.961169	0.000114
1671	1.6616e+02	-13.4723	-50.791205	0.000253	2.532951	0.858187	0.000101
1672	1.6626e+02	-13.4210	-50.678165	0.000284	2.836905	0.961169	0.000114
1673	1.6636e+02	-13.3841	-50.605496	0.000182	1.823725	0.617895	0.000073
1674	1.6646e+02	-13.3520	-50.488420	0.000294	2.938223	0.995497	0.000118
1675	1.6656e+02	-13.3007	-50.395565	0.000233	2.330315	0.789532	0.000093
1676	1.6666e+02	-13.2718	-50.282526	0.000284	2.836905	0.961169	0.000114
1677	1.6676e+02	-13.2221	-50.197746	0.000213	2.127679	0.720877	0.000085
1678	1.6686e+02	-13.1820	-50.112966	0.000213	2.127679	0.720877	0.000085
1679	1.6696e+02	-13.1467	-49.995889	0.000294	2.938223	0.995497	0.000118
1680	1.6706e+02	-13.1082	-49.894961	0.000253	2.532951	0.858187	0.000101
1681	1.6716e+02	-13.0681	-49.802106	0.000233	2.330315	0.789532	0.000093
1682	1.6726e+02	-13.0264	-49.656770	0.000365	3.647449	1.235789	0.000146
1683	1.6736e+02	-12.9879	-49.531618	0.000314	3.140859	1.064152	0.000126
1684	1.6746e+02	-12.9494	-49.499321	0.000081	0.810544	0.274620	0.000032
1685	1.6756e+02	-12.9061	-49.370133	0.000324	3.242177	1.098479	0.000130
1686	1.6766e+02	-12.8676	-49.253056	0.000294	2.938223	0.995497	0.000118
1687	1.6776e+02	-12.8274	-49.160202	0.000233	2.330315	0.789532	0.000093
1688	1.6786e+02	-12.7922	-49.059273	0.000253	2.532951	0.858187	0.000101
1689	1.6796e+02	-12.7585	-48.970457	0.000223	2.228997	0.755205	0.000089
1690	1.6806e+02	-12.7168	-48.845305	0.000314	3.140859	1.064152	0.000126
1691	1.6816e+02	-12.6734	-48.748414	0.000243	2.431633	0.823860	0.000097
1692	1.6825e+02	-12.6253	-48.651523	0.000243	2.431633	0.823860	0.000097
1693	1.6835e+02	-12.5948	-48.534446	0.000294	2.938223	0.995497	0.000118
1694	1.6845e+02	-12.5467	-48.449666	0.000213	2.127679	0.720877	0.000085
1695	1.6855e+02	-12.5050	-48.348738	0.000253	2.532951	0.858187	0.000101
1696	1.6865e+02	-12.4697	-48.263958	0.000213	2.127679	0.720877	0.000085
1697	1.6875e+02	-12.4376	-48.146881	0.000294	2.938223	0.995497	0.000118
1698	1.6885e+02	-12.3927	-48.017692	0.000324	3.242177	1.098479	0.000130
1699	1.6895e+02	-12.3526	-47.908690	0.000274	2.735587	0.926842	0.000110
1700	1.6905e+02	-12.3141	-47.836021	0.000182	1.823725	0.617895	0.000073
1701	1.6915e+02	-12.2740	-47.731056	0.000263	2.634269	0.892514	0.000105
1702	1.6925e+02	-12.2275	-47.593793	0.000344	3.444813	1.167134	0.000138
1703	1.6935e+02	-12.1970	-47.509013	0.000213	2.127679	0.720877	0.000085
1704	1.6945e+02	-12.1617	-47.379825	0.000324	3.242177	1.098479	0.000130
1705	1.6955e+02	-12.1071	-47.291008	0.000223	2.228997	0.755205	0.000089
1706	1.6965e+02	-12.0702	-47.173931	0.000294	2.938223	0.995497	0.000118
1707	1.6975e+02	-12.0301	-47.016483	0.000395	3.951403	1.338772	0.000158
1708	1.6985e+02	-11.9900	-46.931703	0.000213	2.127679	0.720877	0.000085
1709	1.6995e+02	-11.9547	-46.854997	0.000193	1.925043	0.652222	0.000077
1710	1.7005e+02	-11.9146	-46.750032	0.000263	2.634269	0.892514	0.000105
1711	1.7015e+02	-11.8777	-46.584509	0.000415	4.154039	1.407427	0.000166
1712	1.7024e+02	-11.8248	-46.564324	0.000051	0.506590	0.171637	0.000020
1713	1.7034e+02	-11.8007	-46.435135	0.000324	3.242177	1.098479	0.000130
1714	1.7044e+02	-11.7526	-46.297873	0.000344	3.444813	1.167134	0.000138
1715	1.7054e+02	-11.7205	-46.188870	0.000274	2.735587	0.926842	0.000110
1716	1.7064e+02	-11.6676	-46.096016	0.000233	2.330315	0.789532	0.000093
1717	1.7074e+02	-11.6371	-45.962790	0.000334	3.343495	1.132807	0.000134
1718	1.7084e+02	-11.6050	-45.853788	0.000274	2.735587	0.926842	0.000110
1719	1.7094e+02	-11.5505	-45.789194	0.000162	1.621089	0.549240	0.000065
1720	1.7104e+02	-11.5232	-45.635782	0.000385	3.850085	1.304444	0.000154
1721	1.7114e+02	-11.4783	-45.571188	0.000162	1.621089	0.549240	0.000065
1722	1.7124e+02	-11.4366	-45.474297	0.000243	2.431633	0.823860	0.000097
1723	1.7134e+02	-11.3933	-45.304737	0.000426	4.255358	1.441754	0.000170
1724	1.7144e+02	-11.3596	-45.228032	0.000193	1.925043	0.652222	0.000077
1725	1.7154e+02	-11.3098	-45.086732	0.000355	3.546131	1.201462	0.000142
1726	1.7164e+02	-11.2745	-44.989841	0.000243	2.431633	0.823860	0.000097
1727	1.7174e+02	-11.2409	-44.872764	0.000294	2.938223	0.995497	0.000118
1728	1.7184e+02	-11.1975	-44.775872	0.000243	2.431633	0.823860	0.000097
1729	1.7194e+02	-11.1574	-44.666870	0.000274	2.735587	0.926842	0.000110
1730	1.7204e+02	-11.1173	-44.525570	0.000355	3.546131	1.201462	0.000142
1731	1.7213e+02	-11.0788	-44.420605	0.000263	2.634269	0.892514	0.000105
1732	1.7223e+02	-11.0371	-44.331788	0.000223	2.228997	0.755205	0.000089
1733	1.7233e+02	-11.0018	-44.206636	0.000314	3.140859	1.064152	0.000126
1734	1.7243e+02	-10.9537	-44.113782	0.000233	2.330315	0.789532	0.000093
1735	1.7253e+02	-10.9264	-44.000742	0.000284	2.836905	0.961169	0.000114
1736	1.7263e+02	-10.8751	-43.911925	0.000223	2.228997	0.755205	0.000089
1737	1.7273e+02	-10.8446	-43.746403	0.000415	4.154039	1.407427	0.000166
1738	1.7283e+02	-10.7997	-43.665660	0.000203	2.026361	0.686550	0.000081
1739	1.7293e+02	-10.7564	-43.556657	0.000274	2.735587	0.926842	0.000110
1740	1.7303e+02	-10.7227	-43.427469	0.000324	3.242177	1.098479	0.000130
1741	1.7313e+02	-10.6681	-43.298281	0.000324	3.242177	1.098479	0.000130
1742	1.7323e+02	-10.6329	-43.177167	0.000304	3.039541	1.029824	0.000122
1743	1.7333e+02	-10.5911	-43.080275	0.000243	2.431633	0.823860	0.000097
1744	1.7343e+02	-10.5542	-42.947050	0.000334	3.343495	1.132807	0.000134
1745	1.7353e+02	-10.5190	-42.878419	0.000172	1.722407	0.583567	0.000069
1746	1.7363e+02	-10.4788	-42.741156	0.000344	3.444813	1.167134	0.000138
1747	1.7373e+02	-10.4387	-42.571596	0.000426	4.255358	1.441754	0.000170
1748	1.7383e+02	-10.4051	-42.535262	0.000091	0.911862	0.308947	0.000037
1749	1.7393e+02	-10.3633	-42.398000	0.000344	3.444813	1.167134	0.000138
1750	1.7403e+02	-10.3168	-42.264774	0.000334	3.343495	1.132807	0.000134
1751	1.7413e+02	-10.2799	-42.163846	0.000253	2.532951	0.858187	0.000101
1752	1.7422e+02	-10.2430	-42.050806	0.000284	2.836905	0.961169	0.000114
1753	1.7432e+02	-10.1981	-41.869135	0.000456	4.559312	1.544737	0.000183
1754	1.7442e+02	-10.1580	-41.808578	0.000152	1.519771	0.514912	0.000061
1755	1.7452e+02	-10.1179	-41.703612	0.000263	2.634269	0.892514	0.000105
1756	1.7462e+02	-10.0810	-41.614795	0.000223	2.228997	0.755205	0.000089
1757	1.7472e+02	-10.0409	-41.485607	0.000324	3.242177	1.098479	0.000130
1758	1.7482e+02	-10.0008	-41.312010	0.000436	4.356676	1.476082	0.000174
1759	1.7492e+02	-9.9639	-41.215119	0.000243	2.431633	0.823860	0.000097
1760	1.7502e+02	-9.9270	-41.122265	0.000233	2.330315	0.789532	0.000093
1761	1.7512e+02	-9.8885	-40.976928	0.000365	3.647449	1.235789	0.000146
1762	1.7522e+02	-9.8356	-40.839665	0.000344	3.444813	1.167134	0.000138
1763	1.7532e+02	-9.8051	-40.714514	0.000314	3.140859	1.064152	0.000126
1764	1.7542e+02	-9.7682	-40.585326	0.000324	3.242177	1.098479	0.000130
1765	1.7552e+02	-9.7217	-40.512657	0.000182	1.823725	0.617895	0.000073
1766	1.7562e+02	-9.6799	-40.423840	0.000223	2.228997	0.755205	0.000089
1767	1.7572e+02	-9.6366	-40.238132	0.000466	4.660630	1.579064	0.000187
1768	1.7582e+02	-9.6029	-40.161426	0.000193	1.925043	0.652222	0.000077
1769	1.7592e+02	-9.5692	-40.008015	0.000385	3.850085	1.304444	0.000154
1770	1.7602e+02	-9.5211	-39.858641	0.000375	3.748767	1.270117	0.000150
1771	1.7612e+02	-9.4810	-39.785973	0.000182	1.823725	0.617895	0.000073
1772	1.7621e+02	-9.4473	-39.632562	0.000385	3.850085	1.304444	0.000154
1773	1.7631e+02	-9.3944	-39.539707	0.000233	2.330315	0.789532	0.000093
1774	1.7641e+02	-9.3655	-39.362073	0.000446	4.457994	1.510409	0.000179
1775	1.7651e+02	-9.3238	-39.293442	0.000172	1.722407	0.583567	0.000069
1776	1.7661e+02	-9.2885	-39.156180	0.000344	3.444813	1.167134	0.000138
1777	1.7671e+02	-9.2420	-39.006806	0.000375	3.748767	1.270117	0.000150
1778	1.7681e+02	-9.1987	-38.897803	0.000274	2.735587	0.926842	0.000110
1779	1.7691e+02	-9.1682	-38.804949	0.000233	2.330315	0.789532	0.000093
1780	1.7701e+02	-9.1249	-38.695946	0.000274	2.735587	0.926842	0.000110
1781	1.7711e+02	-9.0896	-38.566758	0.000324	3.242177	1.098479	0.000130
1782	1.7721e+02	-9.0479	-38.433532	0.000334	3.343495	1.132807	0.000134
1783	1.7731e+02	-9.0126	-38.316455	0.000294	2.938223	0.995497	0.000118
1784	1.7741e+02	-8.9645	-38.179193	0.000344	3.444813	1.167134	0.000138
1785	1.7751e+02	-8.9292	-38.041930	0.000344	3.444813	1.167134	0.000138
1786	1.7761e+02	-8.8891	-37.936965	0.000263	2.634269	0.892514	0.000105
1787	1.7771e+02	-8.8377	-37.819888	0.000294	2.938223	0.995497	0.000118
1788	1.7781e+02	-8.8040	-37.714922	0.000263	2.634269	0.892514	0.000105
1789	1.7791e+02	-8.7655	-37.569585	0.000365	3.647449	1.235789	0.000146
1790	1.7801e+02	-8.7254	-37.448471	0.000304	3.039541	1.029824	0.000122
1791	1.7810e+02	-8.6773	-37.331394	0.000294	2.938223	0.995497	0.000118
1792	1.7820e+02	-8.6388	-37.210280	0.000304	3.039541	1.029824	0.000122
1793	1.7830e+02	-8.6003	-37.117426	0.000233	2.330315	0.789532	0.000093
1794	1.7840e+02	-8.5730	-36.939792	0.000446	4.457994	1.510409	0.000179
1795	1.7850e+02	-8.5377	-36.826752	0.000284	2.836905	0.961169	0.000114
1796	1.7860e+02	-8.4864	-36.709675	0.000294	2.938223	0.995497	0.000118
1797	1.7870e+02	-8.4463	-36.580487	0.000324	3.242177	1.098479	0.000130
1798	1.7880e+02	-8.4142	-36.443224	0.000344	3.444813	1.167134	0.000138
1799	1.7890e+02	-8.3709	-36.322110	0.000304	3.039541	1.029824	0.000122
1800	1.7900e+02	-8.3292	-36.196959	0.000314	3.140859	1.064152	0.000126
1801	1.7910e+02	-8.2827	-36.067771	0.000324	3.242177	1.098479	0.000130
1802	1.7920e+02	-8.2425	-35.954731	0.000284	2.836905	0.961169	0.000114
1803	1.7930e+02	-8.2105	-35.801320	0.000385	3.850085	1.304444	0.000154
1804	1.7940e+02	-8.1688	-35.684243	0.000294	2.938223	0.995497	0.000118
1805	1.7950e+02	-8.1254	-35.587352	0.000243	2.431633	0.823860	0.000097
1806	1.7960e+02	-8.0950	-35.425866	0.000405	4.052721	1.373099	0.000162
1807	1.7970e+02	-8.0532	-35.312826	0.000284	2.836905	0.961169	0.000114
1808	1.7980e+02	-8.0035	-35.167489	0.000365	3.647449	1.235789	0.000146
1809	1.7990e+02	-7.9698	-35.050412	0.000294	2.938223	0.995497	0.000118
1810	1.8000e+02	-7.9281	-34.929298	0.000304	3.039541	1.029824	0.000122
1811	1.8009e+02	-7.8928	-34.828370	0.000253	2.532951	0.858187	0.000101
1812	1.8019e+02	-7.8479	-34.678996	0.000375	3.748767	1.270117	0.000150
1813	1.8029e+02	-7.8062	-34.553845	0.000314	3.140859	1.064152	0.000126
1814	1.8039e+02	-7.7661	-34.424656	0.000324	3.242177	1.098479	0.000130
1815	1.8049e+02	-7.7308	-34.303542	0.000304	3.039541	1.029824	0.000122
1816	1.8059e+02	-7.6923	-34.198577	0.000263	2.634269	0.892514	0.000105
1817	1.8069e+02	-7.6474	-34.065351	0.000334	3.343495	1.132807	0.000134
1818	1.8079e+02	-7.6089	-33.924052	0.000355	3.546131	1.201462	0.000142
1819	1.8089e+02	-7.5656	-33.815049	0.000274	2.735587	0.926842	0.000110
1820	1.8099e+02	-7.5222	-33.673749	0.000355	3.546131	1.201462	0.000142
1821	1.8109e+02	-7.4950	-33.540524	0.000334	3.343495	1.132807	0.000134
1822	1.8119e+02	-7.4517	-33.399224	0.000355	3.546131	1.201462	0.000142
1823	1.8129e+02	-7.4164	-33.282147	0.000294	2.938223	0.995497	0.000118
1824	1.8139e+02	-7.3698	-33.181219	0.000253	2.532951	0.858187	0.000101
1825	1.8149e+02	-7.3313	-33.027807	0.000385	3.850085	1.304444	0.000154
1826	1.8159e+02	-7.2928	-32.862285	0.000415	4.154039	1.407427	0.000166
1827	1.8169e+02	-7.2575	-32.785579	0.000193	1.925043	0.652222	0.000077
1828	1.8179e+02	-7.2207	-32.624094	0.000405	4.052721	1.373099	0.000162
1829	1.8189e+02	-7.1661	-32.519128	0.000263	2.634269	0.892514	0.000105
1830	1.8199e+02	-7.1356	-32.414163	0.000263	2.634269	0.892514	0.000105
1831	1.8209e+02	-7.0907	-32.256715	0.000395	3.951403	1.338772	0.000158
1832	1.8218e+02	-7.0474	-32.115415	0.000355	3.546131	1.201462	0.000142
1833	1.8228e+02	-7.0217	-32.022561	0.000233	2.330315	0.789532	0.000093
1834	1.8238e+02	-6.9672	-31.885298	0.000344	3.444813	1.167134	0.000138
1835	1.8248e+02	-6.9319	-31.760147	0.000314	3.140859	1.064152	0.000126
1836	1.8258e+02	-6.8918	-31.630959	0.000324	3.242177	1.098479	0.000130
1837	1.8268e+02	-6.8549	-31.489659	0.000355	3.546131	1.201462	0.000142
1838	1.8278e+02	-6.8132	-31.364508	0.000314	3.140859	1.064152	0.000126
1839	1.8288e+02	-6.7715	-31.263579	0.000253	2.532951	0.858187	0.000101
1840	1.8298e+02	-6.7346	-31.065760	0.000496	4.964584	1.682047	0.000199
1841	1.8308e+02	-6.6993	-31.009240	0.000142	1.418453	0.480585	0.000057
1842	1.8318e+02	-6.6495	-30.892163	0.000294	2.938223	0.995497	0.000118
1843	1.8328e+02	-6.6143	-30.710492	0.000456	4.559312	1.544737	0.000183
1844	1.8338e+02	-6.5677	-30.573229	0.000344	3.444813	1.167134	0.000138
1845	1.8348e+02	-6.5340	-30.476338	0.000243	2.431633	0.823860	0.000097
1846	1.8358e+02	-6.4939	-30.331001	0.000365	3.647449	1.235789	0.000146
1847	1.8368e+02	-6.4506	-30.193738	0.000344	3.444813	1.167134	0.000138
1848	1.8378e+02	-6.4105	-30.048401	0.000365	3.647449	1.235789	0.000146
1849	1.8388e+02	-6.3800	-29.959584	0.000223	2.228997	0.755205	0.000089
1850	1.8398e+02	-6.3431	-29.818285	0.000355	3.546131	1.201462	0.000142
1851	1.8407e+02	-6.2918	-29.701208	0.000294	2.938223	0.995497	0.000118
1852	1.8417e+02	-6.2597	-29.584131	0.000294	2.938223	0.995497	0.000118
1853	1.8427e+02	-6.2100	-29.414571	0.000426	4.255358	1.441754	0.000170
1854	1.8437e+02	-6.1763	-29.301531	0.000284	2.836905	0.961169	0.000114
1855	1.8447e+02	-6.1346	-29.144083	0.000395	3.951403	1.338772	0.000158
1856	1.8457e+02	-6.1041	-29.010857	0.000334	3.343495	1.132807	0.000134
1857	1.8467e+02	-6.0608	-28.865521	0.000365	3.647449	1.235789	0.000146
1858	1.8477e+02	-6.0207	-28.732295	0.000334	3.343495	1.132807	0.000134
1859	1.8487e+02	-5.9677	-28.671738	0.000152	1.519771	0.514912	0.000061
1860	1.8497e+02	-5.9469	-28.494104	0.000446	4.457994	1.510409	0.000179
1861	1.8507e+02	-5.9100	-28.401250	0.000233	2.330315	0.789532	0.000093
1862	1.8517e+02	-5.8554	-28.239764	0.000405	4.052721	1.373099	0.000162
1863	1.8527e+02	-5.8186	-28.102502	0.000344	3.444813	1.167134	0.000138
1864	1.8537e+02	-5.7704	-27.965239	0.000344	3.444813	1.167134	0.000138
1865	1.8547e+02	-5.7383	-27.840088	0.000314	3.140859	1.064152	0.000126
1866	1.8557e+02	-5.6998	-27.714937	0.000314	3.140859	1.064152	0.000126
1867	1.8567e+02	-5.6565	-27.577674	0.000344	3.444813	1.167134	0.000138
1868	1.8577e+02	-5.6180	-27.416189	0.000405	4.052721	1.373099	0.000162
1869	1.8587e+02	-5.5843	-27.266815	0.000375	3.748767	1.270117	0.000150
1870	1.8597e+02	-5.5346	-27.129552	0.000344	3.444813	1.167134	0.000138
1871	1.8606e+02	-5.5105	-27.024587	0.000263	2.634269	0.892514	0.000105
1872	1.8616e+02	-5.4576	-26.855027	0.000426	4.255358	1.441754	0.000170
1873	1.8626e+02	-5.4207	-26.733913	0.000304	3.039541	1.029824	0.000122
1874	1.8636e+02	-5.3758	-26.564353	0.000426	4.255358	1.441754	0.000170
1875	1.8646e+02	-5.3405	-26.463425	0.000253	2.532951	0.858187	0.000101
1876	1.8656e+02	-5.2972	-26.342311	0.000304	3.039541	1.029824	0.000122
1877	1.8666e+02	-5.2603	-26.144491	0.000496	4.964584	1.682047	0.000199
1878	1.8676e+02	-5.2170	-26.059711	0.000213	2.127679	0.720877	0.000085
1879	1.8686e+02	-5.1817	-25.898226	0.000405	4.052721	1.373099	0.000162
1880	1.8696e+02	-5.1480	-25.744815	0.000385	3.850085	1.304444	0.000154
1881	1.8706e+02	-5.1063	-25.615626	0.000324	3.242177	1.098479	0.000130
1882	1.8716e+02	-5.0662	-25.498549	0.000294	2.938223	0.995497	0.000118
1883	1.8726e+02	-5.0229	-25.377435	0.000304	3.039541	1.029824	0.000122
1884	1.8736e+02	-4.9827	-25.276507	0.000253	2.532951	0.858187	0.000101
1885	1.8746e+02	-4.9426	-25.054464	0.000557	5.572492	1.888011	0.000223
1886	1.8756e+02	-4.9009	-24.953536	0.000253	2.532951	0.858187	0.000101
1887	1.8766e+02	-4.8640	-24.788013	0.000415	4.154039	1.407427	0.000166
1888	1.8776e+02	-4.8255	-24.634602	0.000385	3.850085	1.304444	0.000154
1889	1.8786e+02	-4.7870	-24.485228	0.000375	3.748767	1.270117	0.000150
1890	1.8796e+02	-4.7453	-24.364114	0.000304	3.039541	1.029824	0.000122
1891	1.8806e+02	-4.6940	-24.238963	0.000314	3.140859	1.064152	0.000126
1892	1.8815e+02	-4.6651	-24.109775	0.000324	3.242177	1.098479	0.000130
1893	1.8825e+02	-4.6234	-23.956363	0.000385	3.850085	1.304444	0.000154
1894	1.8835e+02	-4.5801	-23.806989	0.000375	3.748767	1.270117	0.000150
1895	1.8845e+02	-4.5384	-23.661653	0.000365	3.647449	1.235789	0.000146
1896	1.8855e+02	-4.5063	-23.528427	0.000334	3.343495	1.132807	0.000134
1897	1.8865e+02	-4.4662	-23.350793	0.000446	4.457994	1.510409	0.000179
1898	1.8875e+02	-4.4261	-23.266013	0.000213	2.127679	0.720877	0.000085
1899	1.8885e+02	-4.3796	-23.072231	0.000486	4.863266	1.647719	0.000195
1900	1.8895e+02	-4.3459	-22.959191	0.000284	2.836905	0.961169	0.000114
1901	1.8905e+02	-4.3058	-22.793668	0.000415	4.154039	1.407427	0.000166
1902	1.8915e+02	-4.2641	-22.660443	0.000334	3.343495	1.132807	0.000134
1903	1.8925e+02	-4.2159	-22.486846	0.000436	4.356676	1.476082	0.000174
1904	1.8935e+02	-4.1870	-22.357658	0.000324	3.242177	1.098479	0.000130
1905	1.8945e+02	-4.1534	-22.171949	0.000466	4.660630	1.579064	0.000187
1906	1.8955e+02	-4.1020	-22.079095	0.000233	2.330315	0.789532	0.000093
1907	1.8965e+02	-4.0748	-21.933758	0.000365	3.647449	1.235789	0.000146
1908	1.8975e+02	-4.0282	-21.768236	0.000415	4.154039	1.407427	0.000166
1909	1.8985e+02	-3.9929	-21.586565	0.000456	4.559312	1.544737	0.000183
1910	1.8995e+02	-3.9432	-21.477562	0.000274	2.735587	0.926842	0.000110
1911	1.9004e+02	-3.9095	-21.295891	0.000456	4.559312	1.544737	0.000183
1912	1.9014e+02	-3.8662	-21.162666	0.000334	3.343495	1.132807	0.000134
1913	1.9024e+02	-3.8293	-21.013292	0.000375	3.748767	1.270117	0.000150
1914	1.9034e+02	-3.7892	-20.847769	0.000415	4.154039	1.407427	0.000166
1915	1.9044e+02	-3.7475	-20.690321	0.000395	3.951403	1.338772	0.000158
1916	1.9054e+02	-3.6994	-20.508650	0.000456	4.559312	1.544737	0.000183
1917	1.9064e+02	-3.6785	-20.423870	0.000213	2.127679	0.720877	0.000085
1918	1.9074e+02	-3.6304	-20.226050	0.000496	4.964584	1.682047	0.000199
1919	1.9084e+02	-3.5887	-20.117047	0.000274	2.735587	0.926842	0.000110
1920	1.9094e+02	-3.5405	-19.931339	0.000466	4.660630	1.579064	0.000187
1921	1.9104e+02	-3.5036	-19.753705	0.000446	4.457994	1.510409	0.000179
1922	1.9114e+02	-3.4635	-19.640665	0.000284	2.836905	0.961169	0.000114
1923	1.9124e+02	-3.4347	-19.519551	0.000304	3.039541	1.029824	0.000122
1924	1.9134e+02	-3.3865	-19.329806	0.000476	4.761948	1.613392	0.000191
1925	1.9144e+02	-3.3496	-19.168320	0.000405	4.052721	1.373099	0.000162
1926	1.9154e+02	-3.3063	-19.022984	0.000365	3.647449	1.235789	0.000146
1927	1.9164e+02	-3.2694	-18.881684	0.000355	3.546131	1.201462	0.000142
1928	1.9174e+02	-3.2293	-18.708087	0.000436	4.356676	1.476082	0.000174
1929	1.9184e+02	-3.1924	-18.562750	0.000365	3.647449	1.235789	0.000146
1930	1.9194e+02	-3.1443	-18.373005	0.000476	4.761948	1.613392	0.000191
1931	1.9203e+02	-3.1202	-18.243816	0.000324	3.242177	1.098479	0.000130
1932	1.9213e+02	-3.0657	-18.041960	0.000507	5.065902	1.716374	0.000203
1933	1.9223e+02	-3.0240	-17.936994	0.000263	2.634269	0.892514	0.000105
1934	1.9233e+02	-2.9919	-17.771472	0.000415	4.154039	1.407427	0.000166
1935	1.9243e+02	-2.9518	-17.609986	0.000405	4.052721	1.373099	0.000162
1936	1.9253e+02	-2.9117	-17.468686	0.000355	3.546131	1.201462	0.000142
1937	1.9263e+02	-2.8732	-17.299127	0.000426	4.255358	1.441754	0.000170
1938	1.9273e+02	-2.8299	-17.137641	0.000405	4.052721	1.373099	0.000162
1939	1.9283e+02	-2.7849	-16.939822	0.000496	4.964584	1.682047	0.000199
1940	1.9293e+02	-2.7464	-16.786410	0.000385	3.850085	1.304444	0.000154
1941	1.9303e+02	-2.7176	-16.665296	0.000304	3.039541	1.029824	0.000122
1942	1.9313e+02	-2.6630	-16.443254	0.000557	5.572492	1.888011	0.000223
1943	1.9323e+02	-2.6309	-16.322140	0.000304	3.039541	1.029824	0.000122
1944	1.9333e+02	-2.5956	-16.156617	0.000415	4.154039	1.407427	0.000166
1945	1.9343e+02	-2.5555	-15.991095	0.000415	4.154039	1.407427	0.000166
1946	1.9353e+02	-2.5154	-15.825572	0.000415	4.154039	1.407427	0.000166
1947	1.9363e+02	-2.4721	-15.611604	0.000537	5.369856	1.819356	0.000215
1948	1.9373e+02	-2.4384	-15.478378	0.000334	3.343495	1.132807	0.000134
1949	1.9383e+02	-2.3903	-15.361301	0.000294	2.938223	0.995497	0.000118
1950	1.9393e+02	-2.3566	-15.195779	0.000415	4.154039	1.407427	0.000166
1951	1.9403e+02	-2.3037	-14.993922	0.000507	5.065902	1.716374	0.000203
1952	1.9412e+02	-2.2716	-14.876845	0.000294	2.938223	0.995497	0.000118
1953	1.9422e+02	-2.2315	-14.691137	0.000466	4.660630	1.579064	0.000187
1954	1.9432e+02	-2.1978	-14.529652	0.000405	4.052721	1.373099	0.000162
1955	1.9442e+02	-2.1625	-14.360092	0.000426	4.255358	1.441754	0.000170
1956	1.9452e+02	-2.1128	-14.218792	0.000355	3.546131	1.201462	0.000142
1957	1.9462e+02	-2.0743	-14.041158	0.000446	4.457994	1.510409	0.000179
1958	1.9472e+02	-2.0310	-13.859487	0.000456	4.559312	1.544737	0.000183
1959	1.9482e+02	-1.9957	-13.673779	0.000466	4.660630	1.579064	0.000187
1960	1.9492e+02	-1.9540	-13.544590	0.000324	3.242177	1.098479	0.000130
1961	1.9502e+02	-1.9106	-13.350808	0.000486	4.863266	1.647719	0.000195
1962	1.9512e+02	-1.8737	-13.201434	0.000375	3.748767	1.270117	0.000150
1963	1.9522e+02	-1.8368	-12.999577	0.000507	5.065902	1.716374	0.000203
1964	1.9532e+02	-1.7967	-12.862314	0.000344	3.444813	1.167134	0.000138
1965	1.9542e+02	-1.7550	-12.668532	0.000486	4.863266	1.647719	0.000195
1966	1.9552e+02	-1.7117	-12.535306	0.000334	3.343495	1.132807	0.000134
1967	1.9562e+02	-1.6812	-12.321338	0.000537	5.369856	1.819356	0.000215
1968	1.9572e+02	-1.6331	-12.180039	0.000355	3.546131	1.201462	0.000142
1969	1.9582e+02	-1.5898	-12.014516	0.000415	4.154039	1.407427	0.000166
1970	1.9592e+02	-1.5545	-11.804585	0.000527	5.268538	1.785029	0.000211
1971	1.9601e+02	-1.5288	-11.659248	0.000365	3.647449	1.235789	0.000146
1972	1.9611e+02	-1.4823	-11.481614	0.000446	4.457994	1.510409	0.000179
1973	1.9621e+02	-1.4310	-11.348389	0.000334	3.343495	1.132807	0.000134
1974	1.9631e+02	-1.3973	-11.122309	0.000567	5.673810	1.922339	0.000227
1975	1.9641e+02	-1.3492	-10.956786	0.000415	4.154039	1.407427	0.000166
1976	1.9651e+02	-1.3155	-10.819524	0.000344	3.444813	1.167134	0.000138
1977	1.9661e+02	-1.2770	-10.609593	0.000527	5.268538	1.785029	0.000211
1978	1.9671e+02	-1.2337	-10.435996	0.000436	4.356676	1.476082	0.000174
1979	1.9681e+02	-1.1968	-10.310845	0.000314	3.140859	1.064152	0.000126
1980	1.9691e+02	-1.1518	-10.125136	0.000466	4.660630	1.579064	0.000187
1981	1.9701e+02	-1.1198	-9.923280	0.000507	5.065902	1.716374	0.000203
1982	1.9711e+02	-1.0732	-9.761794	0.000405	4.052721	1.373099	0.000162
1983	1.9721e+02	-1.0411	-9.580123	0.000456	4.559312	1.544737	0.000183
1984	1.9731e+02	-0.9882	-9.362118	0.000547	5.471174	1.853684	0.000219
1985	1.9741e+02	-0.9593	-9.261189	0.000253	2.532951	0.858187	0.000101
1986	1.9751e+02	-0.9160	-9.047221	0.000537	5.369856	1.819356	0.000215
1987	1.9761e+02	-0.8759	-8.913996	0.000334	3.343495	1.132807	0.000134
1988	1.9771e+02	-0.8438	-8.691953	0.000557	5.572492	1.888011	0.000223
1989	1.9781e+02	-0.7989	-8.578913	0.000284	2.836905	0.961169	0.000114
1990	1.9791e+02	-0.7636	-8.385131	0.000486	4.863266	1.647719	0.000195
1991	1.9800e+02	-0.7283	-8.207497	0.000446	4.457994	1.510409	0.000179
1992	1.9810e+02	-0.6802	-8.017752	0.000476	4.761948	1.613392	0.000191
1993	1.9820e+02	-0.6417	-7.836080	0.000456	4.559312	1.544737	0.000183
1994	1.9830e+02	-0.6048	-7.670558	0.000415	4.154039	1.407427	0.000166
1995	1.9840e+02	-0.5519	-7.513110	0.000395	3.951403	1.338772	0.000158
1996	1.9850e+02	-0.5166	-7.303179	0.000527	5.268538	1.785029	0.000211
1997	1.9860e+02	-0.4781	-7.137656	0.000415	4.154039	1.407427	0.000166
1998	1.9870e+02	-0.4315	-6.927725	0.000527	5.268538	1.785029	0.000211
1999	1.9880e+02	-0.4043	-6.778351	0.000375	3.748767	1.270117	0.000150
2000	1.9890e+02	-0.3626	-6.612828	0.000415	4.154039	1.407427	0.000166
2001	1.9900e+02	-0.3144	-6.390786	0.000557	5.572492	1.888011	0.000223
2002	1.9910e+02	-0.2759	-6.269672	0.000304	3.039541	1.029824	0.000122
2003	1.9920e+02	-0.2326	-6.051666	0.000547	5.471174	1.853684	0.000219
2004	1.9930e+02	-0.1989	-5.906330	0.000365	3.647449	1.235789	0.000146
2005	1.9940e+02	-0.1652	-5.720621	0.000466	4.660630	1.579064	0.000187
2006	1.9950e+02	-0.1203	-5.530876	0.000476	4.761948	1.613392	0.000191
2007	1.9960e+02	-0.0786	-5.373428	0.000395	3.951403	1.338772	0.000158
2008	1.9970e+02	-0.0497	-5.155422	0.000547	5.471174	1.853684	0.000219
2009	1.9980e+02	-0.0016	-4.985863	0.000547	5.471174	1.853684	0.000170

Center data before PMax,+/-Pr and +/-Vc Calc.

PMax (uC/cm2):	6.56e+01
Pr (uC/cm2):	1.62e+00
-Pr (uC/cm2):	-4.99e+00
PLoss (uC/cm2):	-2.05e+00
Vc:	7.16e-01
-Vc:	-3.70e-01
C (Max-Eff) (nF):	3.28e-01
K (Eff):	1.11e+03
Vert. (+/-Pr) Shift (uC/cm2):	-1.68e+00
Horiz. Shift (+/-Vc):	1.73e-01
Offset (uC/cm2):	2.91e+00

A (Loop Area - uC/cm2·Volts):	4.21e-02



Hysteresis Version: 5.48.1 - Radiant Technologies, Inc., 1999 - 9/12/24

