»»»»»»»»»»»»»»»»»»»»»»»»»»»»»»»»»»»» Hysteresis ««««««««««««««««««««««««««««««««««««
»»»  Executed Version:	5.48.1
»»»  Vision Version:	5.48.4 (R)
»»»  Vision Compiled:	9/18/24
»»»  Driver Version:	5.47.0
»»»  Windows Version:	Windows 8 or 8.1
»»»  Processor Information:	x86 (AMD or Intel) - 32 Processors
»»»  Tester Name:	PMF21124-494 (100V)
»»»  Tester S/N:	PMF21124-494
»»»  Internal Amp Type:	100V RevK 270k
»»»  Internal Amp S/N:	iAB2-596/K     
»»»  Execution Count:	1
»»»»»»»»»»»»»»»»»»»»»»»»»»»»»»»»»»»»»»»»»»««««««««««««««««««««««««««««««««««««««««««

Stored:	6/13/2025 - 11:15:35
Configured:	06/13/25 10:12:58 AM
Executed:	06/13/25 11:15:00 AM

»»»»»»»»»»»»»»»»»»»»»»»»»»»»»»»»»»» Sample Info ««««««««««««««««««««««««««««««««««««
Sample Name:	
Lot Name:	
Wafer Name:	
Die Row/Column:	0/0
Capacitor Number:	0
Sample Area (cm2):	1.00e-04
Sample Thickness (microns):	3.00e-01

Amplifier:	Internal

»»»»»»»»»»»»»»»»»»»»»»»»»»»»»»»»»»» Tester Info «««««««««««««««««««««««««««««««««««
Tester Name:	PMF21124-494 (100V)
Tester Serial Number:	PMF21124-494
Return Signal Amp. Level:	0.19 [Index: 3]

»»»»»»»»»»»»»»»»»»»»»»»»»»»»»»»» Hysteresis Info ««««««««««««««««««««««««««««««««««
Task Name:	Hyst-1704
Volts:	20.00
Field:	666.67 (kV/cm)
DCBias:	0.00
DCField:	0.00 (kV/cm)
Hysteresis Period (ms):	2.00e+02
Preset:	Enabled
Preset Delay (ms):	1.00e+03
Profile:	Standard Bipolar

»»»»»»»»»»»»»»»»»»»»»»»»»»»»»»»»»»»»»» Data «««««««««««««««««««««««««««««««««««««««
Points:	2009

Valid Data

Point	Time (ms)	Drive Voltage	Measured Polarization (uC/cm2)	Capacitance (uF)	Normalized Capacitance (uF/cm2)	Dielectric Constant	Instantaneous Current (mA)
   1	0.0000e+00	0.0016	-2.301167	0.000243	2.432901	0.824289	0.000097
   2	9.9500e-02	0.0289	-2.204276	0.000243	2.432901	0.824289	0.000097
   3	1.9900e-01	0.0690	-2.006456	0.000497	4.967173	1.682924	0.000199
   4	2.9850e-01	0.1171	-1.865157	0.000355	3.547981	1.202088	0.000142
   5	3.9800e-01	0.1508	-1.667337	0.000497	4.967173	1.682924	0.000199
   6	4.9750e-01	0.1845	-1.534112	0.000335	3.345239	1.133398	0.000134
   7	5.9700e-01	0.2278	-1.368589	0.000416	4.156206	1.408161	0.000166
   8	6.9650e-01	0.2647	-1.170769	0.000497	4.967173	1.682924	0.000199
   9	7.9600e-01	0.3112	-1.017358	0.000385	3.852093	1.305125	0.000154
  10	8.9550e-01	0.3497	-0.839724	0.000446	4.460319	1.511197	0.000179
  11	9.9500e-01	0.3898	-0.694387	0.000365	3.649352	1.236434	0.000146
  12	1.0945e+00	0.4283	-0.524828	0.000426	4.257577	1.442506	0.000170
  13	1.1940e+00	0.4668	-0.359305	0.000416	4.156206	1.408161	0.000166
  14	1.2935e+00	0.5085	-0.226080	0.000335	3.345239	1.133398	0.000134
  15	1.3930e+00	0.5567	-0.052483	0.000436	4.358948	1.476852	0.000174
  16	1.4925e+00	0.5936	0.145337	0.000497	4.967173	1.682924	0.000199
  17	1.5920e+00	0.6305	0.327008	0.000456	4.561690	1.545542	0.000183
  18	1.6915e+00	0.6642	0.488493	0.000405	4.054835	1.373815	0.000162
  19	1.7910e+00	0.7059	0.645942	0.000395	3.953464	1.339470	0.000158
  20	1.8905e+00	0.7524	0.815501	0.000426	4.257577	1.442506	0.000170
  21	1.9900e+00	0.7893	0.981024	0.000416	4.156206	1.408161	0.000166
  22	2.0895e+00	0.8326	1.150584	0.000426	4.257577	1.442506	0.000170
  23	2.1890e+00	0.8679	1.308032	0.000395	3.953464	1.339470	0.000158
  24	2.2885e+00	0.9048	1.445295	0.000345	3.446610	1.167743	0.000138
  25	2.3880e+00	0.9449	1.602743	0.000395	3.953464	1.339470	0.000158
  26	2.4875e+00	0.9834	1.772303	0.000426	4.257577	1.442506	0.000170
  27	2.5870e+00	1.0299	1.953974	0.000456	4.561690	1.545542	0.000183
  28	2.6865e+00	1.0636	2.131608	0.000446	4.460319	1.511197	0.000179
  29	2.7860e+00	1.1037	2.285019	0.000385	3.852093	1.305125	0.000154
  30	2.8855e+00	1.1406	2.478801	0.000487	4.865802	1.648578	0.000195
  31	2.9850e+00	1.1968	2.616064	0.000345	3.446610	1.167743	0.000138
  32	3.0845e+00	1.2304	2.785624	0.000426	4.257577	1.442506	0.000170
  33	3.1840e+00	1.2657	2.963258	0.000446	4.460319	1.511197	0.000179
  34	3.2835e+00	1.3123	3.112632	0.000375	3.750723	1.270779	0.000150
  35	3.3830e+00	1.3508	3.338711	0.000568	5.676769	1.923342	0.000227
  36	3.4825e+00	1.3957	3.459825	0.000304	3.041126	1.030362	0.000122
  37	3.5820e+00	1.4326	3.653608	0.000487	4.865802	1.648578	0.000195
  38	3.6815e+00	1.4679	3.811056	0.000395	3.953464	1.339470	0.000158
  39	3.7810e+00	1.4967	3.992727	0.000456	4.561690	1.545542	0.000183
  40	3.8805e+00	1.5513	4.158250	0.000416	4.156206	1.408161	0.000166
  41	3.9800e+00	1.5818	4.311661	0.000385	3.852093	1.305125	0.000154
  42	4.0795e+00	1.6235	4.469109	0.000395	3.953464	1.339470	0.000158
  43	4.1790e+00	1.6636	4.675003	0.000517	5.169915	1.751615	0.000207
  44	4.2785e+00	1.7005	4.844563	0.000426	4.257577	1.442506	0.000170
  45	4.3780e+00	1.7454	4.969714	0.000314	3.142497	1.064707	0.000126
  46	4.4775e+00	1.7887	5.163497	0.000487	4.865802	1.648578	0.000195
  47	4.5770e+00	1.8336	5.345168	0.000456	4.561690	1.545542	0.000183
  48	4.6765e+00	1.8673	5.506653	0.000405	4.054835	1.373815	0.000162
  49	4.7760e+00	1.9026	5.692361	0.000466	4.663061	1.579888	0.000187
  50	4.8755e+00	1.9395	5.805401	0.000284	2.838385	0.961671	0.000114
  51	4.9750e+00	1.9925	6.019369	0.000537	5.372657	1.820305	0.000215
  52	5.0745e+00	2.0197	6.168743	0.000375	3.750723	1.270779	0.000150
  53	5.1740e+00	2.0534	6.362526	0.000487	4.865802	1.648578	0.000195
  54	5.2735e+00	2.0983	6.511900	0.000375	3.750723	1.270779	0.000150
  55	5.3730e+00	2.1417	6.689534	0.000446	4.460319	1.511197	0.000179
  56	5.4725e+00	2.1834	6.838908	0.000375	3.750723	1.270779	0.000150
  57	5.5720e+00	2.2154	7.052876	0.000537	5.372657	1.820305	0.000215
  58	5.6715e+00	2.2636	7.182064	0.000324	3.243868	1.099052	0.000130
  59	5.7710e+00	2.3005	7.383921	0.000507	5.068544	1.717269	0.000203
  60	5.8705e+00	2.3486	7.525221	0.000355	3.547981	1.202088	0.000142
  61	5.9700e+00	2.3791	7.710929	0.000466	4.663061	1.579888	0.000187
  62	6.0695e+00	2.4240	7.884526	0.000436	4.358948	1.476852	0.000174
  63	6.1690e+00	2.4641	8.037937	0.000385	3.852093	1.305125	0.000154
  64	6.2685e+00	2.5058	8.235757	0.000497	4.967173	1.682924	0.000199
  65	6.3680e+00	2.5475	8.377057	0.000355	3.547981	1.202088	0.000142
  66	6.4675e+00	2.5876	8.591025	0.000537	5.372657	1.820305	0.000215
  67	6.5670e+00	2.6277	8.671768	0.000203	2.027418	0.686908	0.000081
  68	6.6665e+00	2.6694	8.905921	0.000588	5.879511	1.992032	0.000235
  69	6.7660e+00	2.6967	9.010887	0.000264	2.635643	0.892980	0.000105
  70	6.8655e+00	2.7448	9.269264	0.000649	6.487736	2.198105	0.000260
  71	6.9650e+00	2.7801	9.410563	0.000355	3.547981	1.202088	0.000142
  72	7.0645e+00	2.8267	9.563975	0.000385	3.852093	1.305125	0.000154
  73	7.1640e+00	2.8603	9.729497	0.000416	4.156206	1.408161	0.000166
  74	7.2635e+00	2.9037	9.882908	0.000385	3.852093	1.305125	0.000154
  75	7.3630e+00	2.9390	10.117062	0.000588	5.879511	1.992032	0.000235
  76	7.4625e+00	2.9871	10.230102	0.000284	2.838385	0.961671	0.000114
  77	7.5620e+00	3.0176	10.391587	0.000405	4.054835	1.373815	0.000162
  78	7.6615e+00	3.0577	10.581333	0.000476	4.764431	1.614233	0.000191
  79	7.7610e+00	3.1058	10.742818	0.000405	4.054835	1.373815	0.000162
  80	7.8605e+00	3.1379	10.872007	0.000324	3.243868	1.099052	0.000130
  81	7.9600e+00	3.1716	11.069826	0.000497	4.967173	1.682924	0.000199
  82	8.0595e+00	3.2165	11.251497	0.000456	4.561690	1.545542	0.000183
  83	8.1590e+00	3.2630	11.380686	0.000324	3.243868	1.099052	0.000130
  84	8.2585e+00	3.3031	11.578505	0.000497	4.967173	1.682924	0.000199
  85	8.3580e+00	3.3432	11.739991	0.000405	4.054835	1.373815	0.000162
  86	8.4575e+00	3.3833	11.933773	0.000487	4.865802	1.648578	0.000195
  87	8.5570e+00	3.4234	12.071036	0.000345	3.446610	1.167743	0.000138
  88	8.6565e+00	3.4555	12.256744	0.000466	4.663061	1.579888	0.000187
  89	8.7560e+00	3.5036	12.438415	0.000456	4.561690	1.545542	0.000183
  90	8.8555e+00	3.5438	12.563566	0.000314	3.142497	1.064707	0.000126
  91	8.9550e+00	3.5871	12.737163	0.000436	4.358948	1.476852	0.000174
  92	9.0545e+00	3.6143	12.951131	0.000537	5.372657	1.820305	0.000215
  93	9.1540e+00	3.6577	13.072246	0.000304	3.041126	1.030362	0.000122
  94	9.2535e+00	3.6994	13.221620	0.000375	3.750723	1.270779	0.000150
  95	9.3530e+00	3.7459	13.439625	0.000547	5.474028	1.854651	0.000219
  96	9.4525e+00	3.7796	13.576887	0.000345	3.446610	1.167743	0.000138
  97	9.5520e+00	3.8181	13.742410	0.000416	4.156206	1.408161	0.000166
  98	9.6515e+00	3.8518	13.859487	0.000294	2.939756	0.996016	0.000118
  99	9.7510e+00	3.8967	14.065381	0.000517	5.169915	1.751615	0.000207
 100	9.8505e+00	3.9320	14.255126	0.000476	4.764431	1.614233	0.000191
 101	9.9500e+00	3.9737	14.424686	0.000426	4.257577	1.442506	0.000170
 102	1.0050e+01	4.0138	14.549837	0.000314	3.142497	1.064707	0.000126
 103	1.0149e+01	4.0523	14.759768	0.000527	5.271286	1.785960	0.000211
 104	1.0248e+01	4.0924	14.860697	0.000253	2.534272	0.858635	0.000101
 105	1.0348e+01	4.1389	15.062553	0.000507	5.068544	1.717269	0.000203
 106	1.0447e+01	4.1822	15.256336	0.000487	4.865802	1.648578	0.000195
 107	1.0547e+01	4.2255	15.433970	0.000446	4.460319	1.511197	0.000179
 108	1.0646e+01	4.2544	15.591418	0.000395	3.953464	1.339470	0.000158
 109	1.0746e+01	4.2945	15.688309	0.000243	2.432901	0.824289	0.000097
 110	1.0845e+01	4.3378	15.886129	0.000497	4.967173	1.682924	0.000199
 111	1.0945e+01	4.3683	16.055689	0.000426	4.257577	1.442506	0.000170
 112	1.1044e+01	4.4165	16.225249	0.000426	4.257577	1.442506	0.000170
 113	1.1144e+01	4.4582	16.386734	0.000405	4.054835	1.373815	0.000162
 114	1.1243e+01	4.4935	16.584554	0.000497	4.967173	1.682924	0.000199
 115	1.1343e+01	4.5320	16.750076	0.000416	4.156206	1.408161	0.000166
 116	1.1443e+01	4.5865	16.883302	0.000335	3.345239	1.133398	0.000134
 117	1.1542e+01	4.6138	17.000379	0.000294	2.939756	0.996016	0.000118
 118	1.1642e+01	4.6555	17.246644	0.000618	6.183624	2.095068	0.000248
 119	1.1741e+01	4.6972	17.391981	0.000365	3.649352	1.236434	0.000146
 120	1.1841e+01	4.7325	17.545392	0.000385	3.852093	1.305125	0.000154
 121	1.1940e+01	4.7742	17.743212	0.000497	4.967173	1.682924	0.000199
 122	1.2040e+01	4.8111	17.880474	0.000345	3.446610	1.167743	0.000138
 123	1.2139e+01	4.8480	18.017737	0.000345	3.446610	1.167743	0.000138
 124	1.2239e+01	4.8817	18.183259	0.000416	4.156206	1.408161	0.000166
 125	1.2338e+01	4.9330	18.316485	0.000335	3.345239	1.133398	0.000134
 126	1.2438e+01	4.9763	18.465859	0.000375	3.750723	1.270779	0.000150
 127	1.2537e+01	5.0116	18.667716	0.000507	5.068544	1.717269	0.000203
 128	1.2636e+01	5.0662	18.849387	0.000456	4.561690	1.545542	0.000183
 129	1.2736e+01	5.0854	18.954352	0.000264	2.635643	0.892980	0.000105
 130	1.2835e+01	5.1255	19.103726	0.000375	3.750723	1.270779	0.000150
 131	1.2935e+01	5.1672	19.305583	0.000507	5.068544	1.717269	0.000203
 132	1.3034e+01	5.2186	19.450920	0.000365	3.649352	1.236434	0.000146
 133	1.3134e+01	5.2474	19.604331	0.000385	3.852093	1.305125	0.000154
 134	1.3233e+01	5.2924	19.737557	0.000335	3.345239	1.133398	0.000134
 135	1.3333e+01	5.3453	19.919228	0.000456	4.561690	1.545542	0.000183
 136	1.3432e+01	5.3662	20.076676	0.000395	3.953464	1.339470	0.000158
 137	1.3532e+01	5.4079	20.217976	0.000355	3.547981	1.202088	0.000142
 138	1.3632e+01	5.4608	20.383498	0.000416	4.156206	1.408161	0.000166
 139	1.3731e+01	5.4993	20.528835	0.000365	3.649352	1.236434	0.000146
 140	1.3831e+01	5.5394	20.674172	0.000365	3.649352	1.236434	0.000146
 141	1.3930e+01	5.5619	20.867955	0.000487	4.865802	1.648578	0.000195
 142	1.4030e+01	5.6052	21.005217	0.000345	3.446610	1.167743	0.000138
 143	1.4129e+01	5.6533	21.154591	0.000375	3.750723	1.270779	0.000150
 144	1.4229e+01	5.6886	21.356448	0.000507	5.068544	1.717269	0.000203
 145	1.4328e+01	5.7335	21.477562	0.000304	3.041126	1.030362	0.000122
 146	1.4428e+01	5.7656	21.606750	0.000324	3.243868	1.099052	0.000130
 147	1.4527e+01	5.8169	21.760162	0.000385	3.852093	1.305125	0.000154
 148	1.4627e+01	5.8458	21.905499	0.000365	3.649352	1.236434	0.000146
 149	1.4726e+01	5.8956	22.135615	0.000578	5.778140	1.957687	0.000231
 150	1.4825e+01	5.9357	22.236544	0.000253	2.534272	0.858635	0.000101
 151	1.4925e+01	5.9742	22.373806	0.000345	3.446610	1.167743	0.000138
 152	1.5024e+01	6.0111	22.507032	0.000335	3.345239	1.133398	0.000134
 153	1.5124e+01	6.0431	22.668517	0.000405	4.054835	1.373815	0.000162
 154	1.5223e+01	6.1041	22.854225	0.000466	4.663061	1.579888	0.000187
 155	1.5323e+01	6.1234	23.019748	0.000416	4.156206	1.408161	0.000166
 156	1.5422e+01	6.1667	23.161048	0.000355	3.547981	1.202088	0.000142
 157	1.5522e+01	6.2116	23.286199	0.000314	3.142497	1.064707	0.000126
 158	1.5621e+01	6.2629	23.500167	0.000537	5.372657	1.820305	0.000215
 159	1.5721e+01	6.2998	23.629355	0.000324	3.243868	1.099052	0.000130
 160	1.5820e+01	6.3319	23.734321	0.000264	2.635643	0.892980	0.000105
 161	1.5920e+01	6.3704	23.895806	0.000405	4.054835	1.373815	0.000162
 162	1.6020e+01	6.4169	24.073440	0.000446	4.460319	1.511197	0.000179
 163	1.6119e+01	6.4554	24.202629	0.000324	3.243868	1.099052	0.000130
 164	1.6218e+01	6.4907	24.380263	0.000446	4.460319	1.511197	0.000179
 165	1.6318e+01	6.5276	24.497340	0.000294	2.939756	0.996016	0.000118
 166	1.6418e+01	6.5709	24.642677	0.000365	3.649352	1.236434	0.000146
 167	1.6517e+01	6.5998	24.808199	0.000416	4.156206	1.408161	0.000166
 168	1.6616e+01	6.6431	24.949499	0.000355	3.547981	1.202088	0.000142
 169	1.6716e+01	6.6913	25.119059	0.000426	4.257577	1.442506	0.000170
 170	1.6816e+01	6.7298	25.240173	0.000304	3.041126	1.030362	0.000122
 171	1.6915e+01	6.7699	25.401658	0.000405	4.054835	1.373815	0.000162
 172	1.7015e+01	6.8132	25.526809	0.000314	3.142497	1.064707	0.000126
 173	1.7114e+01	6.8404	25.688295	0.000405	4.054835	1.373815	0.000162
 174	1.7213e+01	6.8902	25.869966	0.000456	4.561690	1.545542	0.000183
 175	1.7313e+01	6.9239	25.991080	0.000304	3.041126	1.030362	0.000122
 176	1.7413e+01	6.9720	26.176788	0.000466	4.663061	1.579888	0.000187
 177	1.7512e+01	7.0073	26.265605	0.000223	2.230159	0.755598	0.000089
 178	1.7611e+01	7.0442	26.443239	0.000446	4.460319	1.511197	0.000179
 179	1.7711e+01	7.0875	26.580502	0.000345	3.446610	1.167743	0.000138
 180	1.7811e+01	7.1260	26.685467	0.000264	2.635643	0.892980	0.000105
 181	1.7910e+01	7.1613	26.850990	0.000416	4.156206	1.408161	0.000166
 182	1.8009e+01	7.2030	27.000364	0.000375	3.750723	1.270779	0.000150
 183	1.8109e+01	7.2415	27.153775	0.000385	3.852093	1.305125	0.000154
 184	1.8209e+01	7.2800	27.295075	0.000355	3.547981	1.202088	0.000142
 185	1.8308e+01	7.3394	27.480783	0.000466	4.663061	1.579888	0.000187
 186	1.8407e+01	7.3602	27.597860	0.000294	2.939756	0.996016	0.000118
 187	1.8507e+01	7.4067	27.735123	0.000345	3.446610	1.167743	0.000138
 188	1.8607e+01	7.4452	27.868348	0.000335	3.345239	1.133398	0.000134
 189	1.8706e+01	7.4854	28.029833	0.000405	4.054835	1.373815	0.000162
 190	1.8805e+01	7.5174	28.150948	0.000304	3.041126	1.030362	0.000122
 191	1.8905e+01	7.5688	28.284173	0.000335	3.345239	1.133398	0.000134
 192	1.9005e+01	7.6057	28.457770	0.000436	4.358948	1.476852	0.000174
 193	1.9104e+01	7.6442	28.582921	0.000314	3.142497	1.064707	0.000126
 194	1.9203e+01	7.6875	28.695961	0.000284	2.838385	0.961671	0.000114
 195	1.9303e+01	7.7228	28.861483	0.000416	4.156206	1.408161	0.000166
 196	1.9402e+01	7.7597	28.994709	0.000335	3.345239	1.133398	0.000134
 197	1.9502e+01	7.8014	29.172343	0.000446	4.460319	1.511197	0.000179
 198	1.9602e+01	7.8415	29.273271	0.000253	2.534272	0.858635	0.000101
 199	1.9701e+01	7.8832	29.442831	0.000426	4.257577	1.442506	0.000170
 200	1.9800e+01	7.9201	29.572019	0.000324	3.243868	1.099052	0.000130
 201	1.9900e+01	7.9650	29.709282	0.000345	3.446610	1.167743	0.000138
 202	2.0000e+01	7.9987	29.870767	0.000405	4.054835	1.373815	0.000162
 203	2.0099e+01	8.0356	29.971696	0.000253	2.534272	0.858635	0.000101
 204	2.0198e+01	8.0869	30.137218	0.000416	4.156206	1.408161	0.000166
 205	2.0298e+01	8.1206	30.326964	0.000476	4.764431	1.614233	0.000191
 206	2.0398e+01	8.1639	30.391558	0.000162	1.621934	0.549526	0.000065
 207	2.0497e+01	8.2040	30.557080	0.000416	4.156206	1.408161	0.000166
 208	2.0596e+01	8.2409	30.702417	0.000365	3.649352	1.236434	0.000146
 209	2.0696e+01	8.2746	30.847754	0.000365	3.649352	1.236434	0.000146
 210	2.0796e+01	8.3260	31.037500	0.000476	4.764431	1.614233	0.000191
 211	2.0895e+01	8.3613	31.122279	0.000213	2.128789	0.721253	0.000085
 212	2.0994e+01	8.3982	31.283765	0.000405	4.054835	1.373815	0.000162
 213	2.1094e+01	8.4383	31.408916	0.000314	3.142497	1.064707	0.000126
 214	2.1194e+01	8.4768	31.521956	0.000284	2.838385	0.961671	0.000114
 215	2.1293e+01	8.5265	31.707664	0.000466	4.663061	1.579888	0.000187
 216	2.1392e+01	8.5634	31.857038	0.000375	3.750723	1.270779	0.000150
 217	2.1492e+01	8.6147	31.982189	0.000314	3.142497	1.064707	0.000126
 218	2.1591e+01	8.6388	32.135600	0.000385	3.852093	1.305125	0.000154
 219	2.1691e+01	8.6805	32.272863	0.000345	3.446610	1.167743	0.000138
 220	2.1791e+01	8.7174	32.426274	0.000385	3.852093	1.305125	0.000154
 221	2.1890e+01	8.7671	32.539314	0.000284	2.838385	0.961671	0.000114
 222	2.1989e+01	8.7944	32.664465	0.000314	3.142497	1.064707	0.000126
 223	2.2089e+01	8.8425	32.813839	0.000375	3.750723	1.270779	0.000150
 224	2.2189e+01	8.8826	32.959176	0.000365	3.649352	1.236434	0.000146
 225	2.2288e+01	8.9260	33.140847	0.000456	4.561690	1.545542	0.000183
 226	2.2387e+01	8.9628	33.241776	0.000253	2.534272	0.858635	0.000101
 227	2.2487e+01	8.9997	33.411335	0.000426	4.257577	1.442506	0.000170
 228	2.2587e+01	9.0270	33.556672	0.000365	3.649352	1.236434	0.000146
 229	2.2686e+01	9.0719	33.677786	0.000304	3.041126	1.030362	0.000122
 230	2.2785e+01	9.1217	33.823123	0.000365	3.649352	1.236434	0.000146
 231	2.2885e+01	9.1554	33.972497	0.000375	3.750723	1.270779	0.000150
 232	2.2985e+01	9.1858	34.089574	0.000294	2.939756	0.996016	0.000118
 233	2.3084e+01	9.2324	34.230874	0.000355	3.547981	1.202088	0.000142
 234	2.3183e+01	9.2805	34.416582	0.000466	4.663061	1.579888	0.000187
 235	2.3283e+01	9.3110	34.529622	0.000284	2.838385	0.961671	0.000114
 236	2.3383e+01	9.3639	34.654773	0.000314	3.142497	1.064707	0.000126
 237	2.3482e+01	9.3944	34.836444	0.000456	4.561690	1.545542	0.000183
 238	2.3581e+01	9.4393	34.953521	0.000294	2.939756	0.996016	0.000118
 239	2.3681e+01	9.4778	35.062524	0.000274	2.737014	0.927325	0.000110
 240	2.3780e+01	9.5067	35.224009	0.000405	4.054835	1.373815	0.000162
 241	2.3880e+01	9.5644	35.333012	0.000274	2.737014	0.927325	0.000110
 242	2.3980e+01	9.5981	35.534869	0.000507	5.068544	1.717269	0.000203
 243	2.4079e+01	9.6350	35.660020	0.000314	3.142497	1.064707	0.000126
 244	2.4178e+01	9.6719	35.785171	0.000314	3.142497	1.064707	0.000126
 245	2.4278e+01	9.7184	35.906285	0.000304	3.041126	1.030362	0.000122
 246	2.4378e+01	9.7602	36.051622	0.000365	3.649352	1.236434	0.000146
 247	2.4477e+01	9.7938	36.144476	0.000233	2.331530	0.789944	0.000093
 248	2.4576e+01	9.8323	36.334222	0.000476	4.764431	1.614233	0.000191
 249	2.4676e+01	9.8789	36.451299	0.000294	2.939756	0.996016	0.000118
 250	2.4776e+01	9.9158	36.616821	0.000416	4.156206	1.408161	0.000166
 251	2.4875e+01	9.9430	36.713712	0.000243	2.432901	0.824289	0.000097
 252	2.4974e+01	9.9928	36.891346	0.000446	4.460319	1.511197	0.000179
 253	2.5074e+01	10.0361	37.012460	0.000304	3.041126	1.030362	0.000122
 254	2.5174e+01	10.0826	37.133575	0.000304	3.041126	1.030362	0.000122
 255	2.5273e+01	10.1083	37.291023	0.000395	3.953464	1.339470	0.000158
 256	2.5372e+01	10.1452	37.428285	0.000345	3.446610	1.167743	0.000138
 257	2.5472e+01	10.1949	37.557474	0.000324	3.243868	1.099052	0.000130
 258	2.5572e+01	10.2238	37.690699	0.000335	3.345239	1.133398	0.000134
 259	2.5671e+01	10.2783	37.811813	0.000304	3.041126	1.030362	0.000122
 260	2.5770e+01	10.3056	37.969262	0.000395	3.953464	1.339470	0.000158
 261	2.5870e+01	10.3553	38.086339	0.000294	2.939756	0.996016	0.000118
 262	2.5970e+01	10.3922	38.223601	0.000345	3.446610	1.167743	0.000138
 263	2.6069e+01	10.4323	38.356827	0.000335	3.345239	1.133398	0.000134
 264	2.6169e+01	10.4756	38.570795	0.000537	5.372657	1.820305	0.000215
 265	2.6268e+01	10.5077	38.619240	0.000122	1.216451	0.412145	0.000049
 266	2.6367e+01	10.5559	38.800912	0.000456	4.561690	1.545542	0.000183
 267	2.6467e+01	10.5944	38.966434	0.000416	4.156206	1.408161	0.000166
 268	2.6567e+01	10.6361	39.071400	0.000264	2.635643	0.892980	0.000105
 269	2.6666e+01	10.6810	39.253071	0.000456	4.561690	1.545542	0.000183
 270	2.6765e+01	10.7034	39.317665	0.000162	1.621934	0.549526	0.000065
 271	2.6865e+01	10.7564	39.467039	0.000375	3.750723	1.270779	0.000150
 272	2.6965e+01	10.7981	39.616413	0.000375	3.750723	1.270779	0.000150
 273	2.7064e+01	10.8173	39.765787	0.000375	3.750723	1.270779	0.000150
 274	2.7163e+01	10.8687	39.890938	0.000314	3.142497	1.064707	0.000126
 275	2.7263e+01	10.9072	40.020127	0.000324	3.243868	1.099052	0.000130
 276	2.7363e+01	10.9505	40.169501	0.000375	3.750723	1.270779	0.000150
 277	2.7462e+01	10.9906	40.294652	0.000314	3.142497	1.064707	0.000126
 278	2.7561e+01	11.0307	40.435952	0.000355	3.547981	1.202088	0.000142
 279	2.7661e+01	11.0660	40.569177	0.000335	3.345239	1.133398	0.000134
 280	2.7761e+01	11.1141	40.718551	0.000375	3.750723	1.270779	0.000150
 281	2.7860e+01	11.1430	40.807368	0.000223	2.230159	0.755598	0.000089
 282	2.7959e+01	11.1911	41.009225	0.000507	5.068544	1.717269	0.000203
 283	2.8059e+01	11.2216	41.077856	0.000172	1.723305	0.583872	0.000069
 284	2.8159e+01	11.2601	41.259527	0.000456	4.561690	1.545542	0.000183
 285	2.8258e+01	11.3066	41.384678	0.000314	3.142497	1.064707	0.000126
 286	2.8358e+01	11.3516	41.513867	0.000324	3.243868	1.099052	0.000130
 287	2.8457e+01	11.3949	41.667278	0.000385	3.852093	1.305125	0.000154
 288	2.8556e+01	11.4221	41.812615	0.000365	3.649352	1.236434	0.000146
 289	2.8656e+01	11.4638	41.941803	0.000324	3.243868	1.099052	0.000130
 290	2.8756e+01	11.5104	42.042732	0.000253	2.534272	0.858635	0.000101
 291	2.8855e+01	11.5569	42.188068	0.000365	3.649352	1.236434	0.000146
 292	2.8954e+01	11.5938	42.305145	0.000294	2.939756	0.996016	0.000118
 293	2.9054e+01	11.6259	42.422222	0.000294	2.939756	0.996016	0.000118
 294	2.9154e+01	11.6628	42.547374	0.000314	3.142497	1.064707	0.000126
 295	2.9253e+01	11.7141	42.688673	0.000355	3.547981	1.202088	0.000142
 296	2.9352e+01	11.7542	42.825936	0.000345	3.446610	1.167743	0.000138
 297	2.9452e+01	11.7895	42.963199	0.000345	3.446610	1.167743	0.000138
 298	2.9552e+01	11.8312	43.060090	0.000243	2.432901	0.824289	0.000097
 299	2.9651e+01	11.8874	43.213501	0.000385	3.852093	1.305125	0.000154
 300	2.9750e+01	11.9034	43.334615	0.000304	3.041126	1.030362	0.000122
 301	2.9850e+01	11.9419	43.475915	0.000355	3.547981	1.202088	0.000142
 302	2.9950e+01	11.9852	43.572806	0.000243	2.432901	0.824289	0.000097
 303	3.0049e+01	12.0301	43.774663	0.000507	5.068544	1.717269	0.000203
 304	3.0148e+01	12.0574	43.859443	0.000213	2.128789	0.721253	0.000085
 305	3.0248e+01	12.1055	43.996705	0.000345	3.446610	1.167743	0.000138
 306	3.0348e+01	12.1424	44.133968	0.000345	3.446610	1.167743	0.000138
 307	3.0447e+01	12.1793	44.247008	0.000284	2.838385	0.961671	0.000114
 308	3.0547e+01	12.2323	44.360047	0.000284	2.838385	0.961671	0.000114
 309	3.0646e+01	12.2612	44.529607	0.000426	4.257577	1.442506	0.000170
 310	3.0745e+01	12.3013	44.630536	0.000253	2.534272	0.858635	0.000101
 311	3.0845e+01	12.3414	44.771835	0.000355	3.547981	1.202088	0.000142
 312	3.0945e+01	12.3799	44.896987	0.000314	3.142497	1.064707	0.000126
 313	3.1044e+01	12.4168	45.010026	0.000284	2.838385	0.961671	0.000114
 314	3.1143e+01	12.4617	45.151326	0.000355	3.547981	1.202088	0.000142
 315	3.1243e+01	12.5098	45.256292	0.000264	2.635643	0.892980	0.000105
 316	3.1343e+01	12.5451	45.353183	0.000243	2.432901	0.824289	0.000097
 317	3.1442e+01	12.5836	45.498520	0.000365	3.649352	1.236434	0.000146
 318	3.1541e+01	12.6349	45.647894	0.000375	3.750723	1.270779	0.000150
 319	3.1641e+01	12.6622	45.744785	0.000243	2.432901	0.824289	0.000097
 320	3.1741e+01	12.7055	45.890122	0.000365	3.649352	1.236434	0.000146
 321	3.1840e+01	12.7456	46.043533	0.000385	3.852093	1.305125	0.000154
 322	3.1939e+01	12.7857	46.112164	0.000172	1.723305	0.583872	0.000069
 323	3.2039e+01	12.8242	46.281724	0.000426	4.257577	1.442506	0.000170
 324	3.2139e+01	12.8611	46.378615	0.000243	2.432901	0.824289	0.000097
 325	3.2238e+01	12.9061	46.479544	0.000253	2.534272	0.858635	0.000101
 326	3.2337e+01	12.9430	46.628918	0.000375	3.750723	1.270779	0.000150
 327	3.2437e+01	12.9782	46.758106	0.000324	3.243868	1.099052	0.000130
 328	3.2536e+01	13.0151	46.867109	0.000274	2.737014	0.927325	0.000110
 329	3.2636e+01	13.0649	46.996297	0.000324	3.243868	1.099052	0.000130
 330	3.2736e+01	13.0921	47.133560	0.000345	3.446610	1.167743	0.000138
 331	3.2835e+01	13.1339	47.250637	0.000294	2.939756	0.996016	0.000118
 332	3.2934e+01	13.1852	47.319268	0.000172	1.723305	0.583872	0.000069
 333	3.3034e+01	13.2157	47.456531	0.000345	3.446610	1.167743	0.000138
 334	3.3133e+01	13.2670	47.585719	0.000324	3.243868	1.099052	0.000130
 335	3.3233e+01	13.2879	47.739130	0.000385	3.852093	1.305125	0.000154
 336	3.3333e+01	13.3360	47.844096	0.000264	2.635643	0.892980	0.000105
 337	3.3432e+01	13.3793	47.932913	0.000223	2.230159	0.755598	0.000089
 338	3.3532e+01	13.4226	48.114584	0.000456	4.561690	1.545542	0.000183
 339	3.3631e+01	13.4611	48.219549	0.000264	2.635643	0.892980	0.000105
 340	3.3730e+01	13.5044	48.332589	0.000284	2.838385	0.961671	0.000114
 341	3.3830e+01	13.5349	48.502149	0.000426	4.257577	1.442506	0.000170
 342	3.3929e+01	13.5750	48.562706	0.000152	1.520563	0.515181	0.000061
 343	3.4029e+01	13.6135	48.724191	0.000405	4.054835	1.373815	0.000162
 344	3.4129e+01	13.6649	48.800897	0.000193	1.926047	0.652562	0.000077
 345	3.4228e+01	13.6921	48.950271	0.000375	3.750723	1.270779	0.000150
 346	3.4328e+01	13.7451	49.055236	0.000264	2.635643	0.892980	0.000105
 347	3.4427e+01	13.7836	49.176350	0.000304	3.041126	1.030362	0.000122
 348	3.4526e+01	13.8140	49.325724	0.000375	3.750723	1.270779	0.000150
 349	3.4626e+01	13.8542	49.390319	0.000162	1.621934	0.549526	0.000065
 350	3.4725e+01	13.8894	49.543730	0.000385	3.852093	1.305125	0.000154
 351	3.4825e+01	13.9263	49.685030	0.000355	3.547981	1.202088	0.000142
 352	3.4925e+01	13.9825	49.781921	0.000243	2.432901	0.824289	0.000097
 353	3.5024e+01	14.0274	49.894961	0.000284	2.838385	0.961671	0.000114
 354	3.5123e+01	14.0595	49.995889	0.000253	2.534272	0.858635	0.000101
 355	3.5223e+01	14.0964	50.096817	0.000253	2.534272	0.858635	0.000101
 356	3.5322e+01	14.1317	50.270414	0.000436	4.358948	1.476852	0.000174
 357	3.5422e+01	14.1750	50.371343	0.000253	2.534272	0.858635	0.000101
 358	3.5522e+01	14.2087	50.496494	0.000314	3.142497	1.064707	0.000126
 359	3.5621e+01	14.2552	50.633756	0.000345	3.446610	1.167743	0.000138
 360	3.5721e+01	14.2937	50.698351	0.000162	1.621934	0.549526	0.000065
 361	3.5820e+01	14.3338	50.799279	0.000253	2.534272	0.858635	0.000101
 362	3.5919e+01	14.3787	50.912319	0.000284	2.838385	0.961671	0.000114
 363	3.6019e+01	14.4269	51.049581	0.000345	3.446610	1.167743	0.000138
 364	3.6118e+01	14.4573	51.182807	0.000335	3.345239	1.133398	0.000134
 365	3.6218e+01	14.5023	51.324107	0.000355	3.547981	1.202088	0.000142
 366	3.6318e+01	14.5424	51.457332	0.000335	3.345239	1.133398	0.000134
 367	3.6417e+01	14.5825	51.546149	0.000223	2.230159	0.755598	0.000089
 368	3.6517e+01	14.6081	51.651115	0.000264	2.635643	0.892980	0.000105
 369	3.6616e+01	14.6515	51.739932	0.000223	2.230159	0.755598	0.000089
 370	3.6715e+01	14.6932	51.861046	0.000304	3.041126	1.030362	0.000122
 371	3.6815e+01	14.7333	51.998308	0.000345	3.446610	1.167743	0.000138
 372	3.6914e+01	14.7814	52.115385	0.000294	2.939756	0.996016	0.000118
 373	3.7014e+01	14.8071	52.224388	0.000274	2.737014	0.927325	0.000110
 374	3.7114e+01	14.8536	52.333391	0.000274	2.737014	0.927325	0.000110
 375	3.7213e+01	14.8921	52.470653	0.000345	3.446610	1.167743	0.000138
 376	3.7313e+01	14.9370	52.591767	0.000304	3.041126	1.030362	0.000122
 377	3.7412e+01	14.9723	52.688659	0.000243	2.432901	0.824289	0.000097
 378	3.7511e+01	15.0172	52.805735	0.000294	2.939756	0.996016	0.000118
 379	3.7611e+01	15.0605	52.914738	0.000274	2.737014	0.927325	0.000110
 380	3.7711e+01	15.0958	53.043926	0.000324	3.243868	1.099052	0.000130
 381	3.7810e+01	15.1327	53.148892	0.000264	2.635643	0.892980	0.000105
 382	3.7910e+01	15.1680	53.286155	0.000345	3.446610	1.167743	0.000138
 383	3.8009e+01	15.2194	53.383046	0.000243	2.432901	0.824289	0.000097
 384	3.8108e+01	15.2546	53.512234	0.000324	3.243868	1.099052	0.000130
 385	3.8208e+01	15.2867	53.625274	0.000284	2.838385	0.961671	0.000114
 386	3.8307e+01	15.3284	53.726202	0.000253	2.534272	0.858635	0.000101
 387	3.8407e+01	15.3750	53.819057	0.000233	2.331530	0.789944	0.000093
 388	3.8507e+01	15.4167	53.976505	0.000395	3.953464	1.339470	0.000158
 389	3.8606e+01	15.4584	54.101656	0.000314	3.142497	1.064707	0.000126
 390	3.8706e+01	15.4889	54.230844	0.000324	3.243868	1.099052	0.000130
 391	3.8805e+01	15.5258	54.351958	0.000304	3.041126	1.030362	0.000122
 392	3.8904e+01	15.5771	54.428664	0.000193	1.926047	0.652562	0.000077
 393	3.9004e+01	15.6076	54.586112	0.000395	3.953464	1.339470	0.000158
 394	3.9103e+01	15.6477	54.674929	0.000223	2.230159	0.755598	0.000089
 395	3.9203e+01	15.6878	54.787969	0.000284	2.838385	0.961671	0.000114
 396	3.9303e+01	15.7343	54.921195	0.000335	3.345239	1.133398	0.000134
 397	3.9402e+01	15.7680	55.066531	0.000365	3.649352	1.236434	0.000146
 398	3.9502e+01	15.8065	55.139200	0.000182	1.824676	0.618217	0.000073
 399	3.9601e+01	15.8482	55.280500	0.000355	3.547981	1.202088	0.000142
 400	3.9700e+01	15.8899	55.397577	0.000294	2.939756	0.996016	0.000118
 401	3.9800e+01	15.9268	55.506579	0.000274	2.737014	0.927325	0.000110
 402	3.9900e+01	15.9685	55.587322	0.000203	2.027418	0.686908	0.000081
 403	3.9999e+01	16.0102	55.712473	0.000314	3.142497	1.064707	0.000126
 404	4.0099e+01	16.0487	55.833587	0.000304	3.041126	1.030362	0.000122
 405	4.0198e+01	16.0872	55.974887	0.000355	3.547981	1.202088	0.000142
 406	4.0297e+01	16.1274	56.055630	0.000203	2.027418	0.686908	0.000081
 407	4.0397e+01	16.1771	56.176744	0.000304	3.041126	1.030362	0.000122
 408	4.0496e+01	16.2124	56.305932	0.000324	3.243868	1.099052	0.000130
 409	4.0596e+01	16.2493	56.427046	0.000304	3.041126	1.030362	0.000122
 410	4.0696e+01	16.2798	56.523937	0.000243	2.432901	0.824289	0.000097
 411	4.0795e+01	16.3247	56.685423	0.000405	4.054835	1.373815	0.000162
 412	4.0895e+01	16.3680	56.762128	0.000193	1.926047	0.652562	0.000077
 413	4.0994e+01	16.4049	56.915540	0.000385	3.852093	1.305125	0.000154
 414	4.1093e+01	16.4498	57.000319	0.000213	2.128789	0.721253	0.000085
 415	4.1193e+01	16.4819	57.129508	0.000324	3.243868	1.099052	0.000130
 416	4.1292e+01	16.5252	57.210251	0.000203	2.027418	0.686908	0.000081
 417	4.1392e+01	16.5621	57.343476	0.000335	3.345239	1.133398	0.000134
 418	4.1492e+01	16.6054	57.460553	0.000294	2.939756	0.996016	0.000118
 419	4.1591e+01	16.6519	57.601853	0.000355	3.547981	1.202088	0.000142
 420	4.1691e+01	16.6888	57.702781	0.000253	2.534272	0.858635	0.000101
 421	4.1790e+01	16.7257	57.827932	0.000314	3.142497	1.064707	0.000126
 422	4.1889e+01	16.7642	57.896564	0.000172	1.723305	0.583872	0.000069
 423	4.1989e+01	16.7979	58.049975	0.000385	3.852093	1.305125	0.000154
 424	4.2089e+01	16.8428	58.150903	0.000253	2.534272	0.858635	0.000101
 425	4.2188e+01	16.8765	58.272017	0.000304	3.041126	1.030362	0.000122
 426	4.2288e+01	16.9182	58.348723	0.000193	1.926047	0.652562	0.000077
 427	4.2387e+01	16.9728	58.510208	0.000405	4.054835	1.373815	0.000162
 428	4.2486e+01	17.0065	58.594988	0.000213	2.128789	0.721253	0.000085
 429	4.2586e+01	17.0353	58.708028	0.000284	2.838385	0.961671	0.000114
 430	4.2685e+01	17.0803	58.812993	0.000264	2.635643	0.892980	0.000105
 431	4.2785e+01	17.1284	58.946219	0.000335	3.345239	1.133398	0.000134
 432	4.2885e+01	17.1685	59.063296	0.000294	2.939756	0.996016	0.000118
 433	4.2984e+01	17.2006	59.172299	0.000274	2.737014	0.927325	0.000110
 434	4.3084e+01	17.2391	59.297450	0.000314	3.142497	1.064707	0.000126
 435	4.3183e+01	17.2872	59.394341	0.000243	2.432901	0.824289	0.000097
 436	4.3282e+01	17.3273	59.535641	0.000355	3.547981	1.202088	0.000142
 437	4.3382e+01	17.3642	59.608309	0.000182	1.824676	0.618217	0.000073
 438	4.3481e+01	17.4075	59.721349	0.000284	2.838385	0.961671	0.000114
 439	4.3581e+01	17.4476	59.870723	0.000375	3.750723	1.270779	0.000150
 440	4.3681e+01	17.4813	59.979726	0.000274	2.737014	0.927325	0.000110
 441	4.3780e+01	17.5311	60.104877	0.000314	3.142497	1.064707	0.000126
 442	4.3880e+01	17.5696	60.181582	0.000193	1.926047	0.652562	0.000077
 443	4.3979e+01	17.6049	60.359216	0.000446	4.460319	1.511197	0.000179
 444	4.4078e+01	17.6450	60.431885	0.000182	1.824676	0.618217	0.000073
 445	4.4178e+01	17.6915	60.557036	0.000314	3.142497	1.064707	0.000126
 446	4.4278e+01	17.7123	60.637779	0.000203	2.027418	0.686908	0.000081
 447	4.4377e+01	17.7621	60.762930	0.000314	3.142497	1.064707	0.000126
 448	4.4477e+01	17.8006	60.888081	0.000314	3.142497	1.064707	0.000126
 449	4.4576e+01	17.8455	61.005158	0.000294	2.939756	0.996016	0.000118
 450	4.4675e+01	17.8824	61.085901	0.000203	2.027418	0.686908	0.000081
 451	4.4775e+01	17.9273	61.227201	0.000355	3.547981	1.202088	0.000142
 452	4.4874e+01	17.9658	61.320055	0.000233	2.331530	0.789944	0.000093
 453	4.4974e+01	17.9995	61.469429	0.000375	3.750723	1.270779	0.000150
 454	4.5074e+01	18.0396	61.542097	0.000182	1.824676	0.618217	0.000073
 455	4.5173e+01	18.0813	61.687434	0.000365	3.649352	1.236434	0.000146
 456	4.5273e+01	18.1150	61.812585	0.000314	3.142497	1.064707	0.000126
 457	4.5372e+01	18.1583	61.905439	0.000233	2.331530	0.789944	0.000093
 458	4.5471e+01	18.2000	61.994256	0.000223	2.230159	0.755598	0.000089
 459	4.5571e+01	18.2417	62.111333	0.000294	2.939756	0.996016	0.000118
 460	4.5670e+01	18.2850	62.236485	0.000314	3.142497	1.064707	0.000126
 461	4.5770e+01	18.3219	62.333376	0.000243	2.432901	0.824289	0.000097
 462	4.5870e+01	18.3588	62.426230	0.000233	2.331530	0.789944	0.000093
 463	4.5969e+01	18.3973	62.567530	0.000355	3.547981	1.202088	0.000142
 464	4.6069e+01	18.4374	62.668458	0.000253	2.534272	0.858635	0.000101
 465	4.6168e+01	18.4808	62.749201	0.000203	2.027418	0.686908	0.000081
 466	4.6267e+01	18.5225	62.878389	0.000324	3.243868	1.099052	0.000130
 467	4.6367e+01	18.5674	62.999503	0.000304	3.041126	1.030362	0.000122
 468	4.6467e+01	18.5947	63.076209	0.000193	1.926047	0.652562	0.000077
 469	4.6566e+01	18.6380	63.213471	0.000345	3.446610	1.167743	0.000138
 470	4.6666e+01	18.6813	63.290177	0.000193	1.926047	0.652562	0.000077
 471	4.6765e+01	18.7310	63.419365	0.000324	3.243868	1.099052	0.000130
 472	4.6864e+01	18.7599	63.504145	0.000213	2.128789	0.721253	0.000085
 473	4.6964e+01	18.8016	63.649482	0.000365	3.649352	1.236434	0.000146
 474	4.7063e+01	18.8449	63.746373	0.000243	2.432901	0.824289	0.000097
 475	4.7163e+01	18.8786	63.823079	0.000193	1.926047	0.652562	0.000077
 476	4.7263e+01	18.9139	63.952267	0.000324	3.243868	1.099052	0.000130
 477	4.7362e+01	18.9476	64.069344	0.000294	2.939756	0.996016	0.000118
 478	4.7462e+01	18.9973	64.146050	0.000193	1.926047	0.652562	0.000077
 479	4.7561e+01	19.0422	64.267164	0.000304	3.041126	1.030362	0.000122
 480	4.7660e+01	19.0872	64.376166	0.000274	2.737014	0.927325	0.000110
 481	4.7760e+01	19.1176	64.481132	0.000264	2.635643	0.892980	0.000105
 482	4.7859e+01	19.1577	64.573986	0.000233	2.331530	0.789944	0.000093
 483	4.7959e+01	19.1962	64.703174	0.000324	3.243868	1.099052	0.000130
 484	4.8059e+01	19.2444	64.816214	0.000284	2.838385	0.961671	0.000114
 485	4.8158e+01	19.2861	64.921180	0.000264	2.635643	0.892980	0.000105
 486	4.8258e+01	19.3134	65.001923	0.000203	2.027418	0.686908	0.000081
 487	4.8357e+01	19.3535	65.118999	0.000294	2.939756	0.996016	0.000118
 488	4.8456e+01	19.3952	65.219928	0.000253	2.534272	0.858635	0.000101
 489	4.8556e+01	19.4433	65.324893	0.000264	2.635643	0.892980	0.000105
 490	4.8656e+01	19.4706	65.405636	0.000203	2.027418	0.686908	0.000081
 491	4.8755e+01	19.5059	65.518676	0.000284	2.838385	0.961671	0.000114
 492	4.8855e+01	19.5588	65.639790	0.000304	3.041126	1.030362	0.000122
 493	4.8954e+01	19.5973	65.744755	0.000264	2.635643	0.892980	0.000105
 494	4.9053e+01	19.6406	65.829535	0.000213	2.128789	0.721253	0.000085
 495	4.9153e+01	19.6727	65.910278	0.000203	2.027418	0.686908	0.000081
 496	4.9252e+01	19.7128	66.035429	0.000314	3.142497	1.064707	0.000126
 497	4.9352e+01	19.7513	66.132321	0.000243	2.432901	0.824289	0.000097
 498	4.9452e+01	19.7962	66.261509	0.000324	3.243868	1.099052	0.000130
 499	4.9551e+01	19.8347	66.378586	0.000294	2.939756	0.996016	0.000118
 500	4.9651e+01	19.8829	66.406846	0.000071	0.709596	0.240418	0.000028
 501	4.9750e+01	19.9214	66.548146	0.000355	3.547981	1.202088	0.000142
 502	4.9849e+01	19.9486	66.661185	0.000284	2.838385	0.961671	0.000114
 503	4.9949e+01	19.9919	66.810559	0.000375	3.750723	1.270779	0.000150
 504	5.0048e+01	19.9502	66.701557	0.000274	2.737014	0.927325	-0.000110
 505	5.0148e+01	19.9149	66.628888	0.000182	1.824676	0.618217	-0.000073
 506	5.0248e+01	19.8780	66.527960	0.000253	2.534272	0.858635	-0.000101
 507	5.0347e+01	19.8331	66.435106	0.000233	2.331530	0.789944	-0.000093
 508	5.0447e+01	19.7930	66.338214	0.000243	2.432901	0.824289	-0.000097
 509	5.0546e+01	19.7497	66.257472	0.000203	2.027418	0.686908	-0.000081
 510	5.0645e+01	19.7112	66.156543	0.000253	2.534272	0.858635	-0.000101
 511	5.0745e+01	19.6711	66.104061	0.000132	1.317821	0.446490	-0.000053
 512	5.0844e+01	19.6326	65.970835	0.000335	3.345239	1.133398	-0.000134
 513	5.0944e+01	19.5893	65.938538	0.000081	0.810967	0.274763	-0.000032
 514	5.1044e+01	19.5556	65.837610	0.000253	2.534272	0.858635	-0.000101
 515	5.1143e+01	19.5155	65.720533	0.000294	2.939756	0.996016	-0.000118
 516	5.1242e+01	19.4690	65.623641	0.000243	2.432901	0.824289	-0.000097
 517	5.1342e+01	19.4369	65.542899	0.000203	2.027418	0.686908	-0.000081
 518	5.1441e+01	19.3904	65.437933	0.000264	2.635643	0.892980	-0.000105
 519	5.1541e+01	19.3583	65.357190	0.000203	2.027418	0.686908	-0.000081
 520	5.1641e+01	19.3134	65.284522	0.000182	1.824676	0.618217	-0.000073
 521	5.1740e+01	19.2829	65.183594	0.000253	2.534272	0.858635	-0.000101
 522	5.1840e+01	19.2396	65.054405	0.000324	3.243868	1.099052	-0.000130
 523	5.1939e+01	19.2059	65.026145	0.000071	0.709596	0.240418	-0.000028
 524	5.2038e+01	19.1545	64.925217	0.000253	2.534272	0.858635	-0.000101
 525	5.2138e+01	19.1080	64.812177	0.000284	2.838385	0.961671	-0.000114
 526	5.2237e+01	19.0856	64.707212	0.000264	2.635643	0.892980	-0.000105
 527	5.2337e+01	19.0342	64.654729	0.000132	1.317821	0.446490	-0.000053
 528	5.2437e+01	18.9989	64.489206	0.000416	4.156206	1.408161	-0.000166
 529	5.2536e+01	18.9540	64.424612	0.000162	1.621934	0.549526	-0.000065
 530	5.2636e+01	18.9203	64.323684	0.000253	2.534272	0.858635	-0.000101
 531	5.2735e+01	18.8802	64.263127	0.000152	1.520563	0.515181	-0.000061
 532	5.2834e+01	18.8465	64.113753	0.000375	3.750723	1.270779	-0.000150
 533	5.2934e+01	18.7920	64.073381	0.000101	1.013709	0.343454	-0.000041
 534	5.3033e+01	18.7583	63.948230	0.000314	3.142497	1.064707	-0.000126
 535	5.3133e+01	18.7230	63.859413	0.000223	2.230159	0.755598	-0.000089
 536	5.3233e+01	18.6781	63.778670	0.000203	2.027418	0.686908	-0.000081
 537	5.3332e+01	18.6348	63.669668	0.000274	2.737014	0.927325	-0.000110
 538	5.3431e+01	18.5963	63.584888	0.000213	2.128789	0.721253	-0.000085
 539	5.3531e+01	18.5562	63.483959	0.000253	2.534272	0.858635	-0.000101
 540	5.3630e+01	18.5209	63.362845	0.000304	3.041126	1.030362	-0.000122
 541	5.3730e+01	18.4808	63.261917	0.000253	2.534272	0.858635	-0.000101
 542	5.3830e+01	18.4423	63.169063	0.000233	2.331530	0.789944	-0.000093
 543	5.3929e+01	18.4054	63.108506	0.000152	1.520563	0.515181	-0.000061
 544	5.4029e+01	18.3556	62.995466	0.000284	2.838385	0.961671	-0.000114
 545	5.4128e+01	18.3235	62.890501	0.000264	2.635643	0.892980	-0.000105
 546	5.4227e+01	18.2850	62.809758	0.000203	2.027418	0.686908	-0.000081
 547	5.4327e+01	18.2369	62.676532	0.000335	3.345239	1.133398	-0.000134
 548	5.4426e+01	18.2032	62.587715	0.000223	2.230159	0.755598	-0.000089
 549	5.4526e+01	18.1647	62.511010	0.000193	1.926047	0.652562	-0.000077
 550	5.4626e+01	18.1278	62.434304	0.000193	1.926047	0.652562	-0.000077
 551	5.4725e+01	18.0877	62.305116	0.000324	3.243868	1.099052	-0.000130
 552	5.4825e+01	18.0460	62.224373	0.000203	2.027418	0.686908	-0.000081
 553	5.4924e+01	17.9979	62.107296	0.000294	2.939756	0.996016	-0.000118
 554	5.5023e+01	17.9610	62.030591	0.000193	1.926047	0.652562	-0.000077
 555	5.5123e+01	17.9177	61.909477	0.000304	3.041126	1.030362	-0.000122
 556	5.5222e+01	17.8824	61.832771	0.000193	1.926047	0.652562	-0.000077
 557	5.5322e+01	17.8471	61.719731	0.000284	2.838385	0.961671	-0.000114
 558	5.5422e+01	17.8022	61.651100	0.000172	1.723305	0.583872	-0.000069
 559	5.5521e+01	17.7605	61.542097	0.000274	2.737014	0.927325	-0.000110
 560	5.5620e+01	17.7220	61.453280	0.000223	2.230159	0.755598	-0.000089
 561	5.5720e+01	17.6722	61.352352	0.000253	2.534272	0.858635	-0.000101
 562	5.5819e+01	17.6466	61.259498	0.000233	2.331530	0.789944	-0.000093
 563	5.5919e+01	17.6049	61.162606	0.000243	2.432901	0.824289	-0.000097
 564	5.6019e+01	17.5696	61.037455	0.000314	3.142497	1.064707	-0.000126
 565	5.6118e+01	17.5246	60.952675	0.000213	2.128789	0.721253	-0.000085
 566	5.6218e+01	17.4765	60.863858	0.000223	2.230159	0.755598	-0.000089
 567	5.6317e+01	17.4380	60.783116	0.000203	2.027418	0.686908	-0.000081
 568	5.6416e+01	17.4059	60.698336	0.000213	2.128789	0.721253	-0.000085
 569	5.6516e+01	17.3626	60.577222	0.000304	3.041126	1.030362	-0.000122
 570	5.6615e+01	17.3337	60.508590	0.000172	1.723305	0.583872	-0.000069
 571	5.6715e+01	17.2808	60.387476	0.000304	3.041126	1.030362	-0.000122
 572	5.6815e+01	17.2551	60.270399	0.000294	2.939756	0.996016	-0.000118
 573	5.6914e+01	17.2022	60.213880	0.000142	1.419192	0.480835	-0.000057
 574	5.7014e+01	17.1717	60.084691	0.000324	3.243868	1.099052	-0.000130
 575	5.7113e+01	17.1204	60.016060	0.000172	1.723305	0.583872	-0.000069
 576	5.7212e+01	17.0867	59.886872	0.000324	3.243868	1.099052	-0.000130
 577	5.7312e+01	17.0530	59.794017	0.000233	2.331530	0.789944	-0.000093
 578	5.7411e+01	16.9968	59.701163	0.000233	2.331530	0.789944	-0.000093
 579	5.7511e+01	16.9696	59.612346	0.000223	2.230159	0.755598	-0.000089
 580	5.7611e+01	16.9247	59.483158	0.000324	3.243868	1.099052	-0.000130
 581	5.7710e+01	16.8813	59.414527	0.000172	1.723305	0.583872	-0.000069
 582	5.7809e+01	16.8509	59.281301	0.000335	3.345239	1.133398	-0.000134
 583	5.7909e+01	16.8075	59.180373	0.000253	2.534272	0.858635	-0.000101
 584	5.8008e+01	16.7642	59.115779	0.000162	1.621934	0.549526	-0.000065
 585	5.8108e+01	16.7305	59.018887	0.000243	2.432901	0.824289	-0.000097
 586	5.8208e+01	16.6888	58.921996	0.000243	2.432901	0.824289	-0.000097
 587	5.8307e+01	16.6503	58.821068	0.000253	2.534272	0.858635	-0.000101
 588	5.8407e+01	16.6038	58.732251	0.000223	2.230159	0.755598	-0.000089
 589	5.8506e+01	16.5653	58.619211	0.000284	2.838385	0.961671	-0.000114
 590	5.8605e+01	16.5284	58.518283	0.000253	2.534272	0.858635	-0.000101
 591	5.8705e+01	16.4883	58.417354	0.000253	2.534272	0.858635	-0.000101
 592	5.8804e+01	16.4562	58.320463	0.000243	2.432901	0.824289	-0.000097
 593	5.8904e+01	16.4001	58.219534	0.000253	2.534272	0.858635	-0.000101
 594	5.9004e+01	16.3728	58.114569	0.000264	2.635643	0.892980	-0.000105
 595	5.9103e+01	16.3279	58.029789	0.000213	2.128789	0.721253	-0.000085
 596	5.9203e+01	16.2830	57.904638	0.000314	3.142497	1.064707	-0.000126
 597	5.9302e+01	16.2509	57.815821	0.000223	2.230159	0.755598	-0.000089
 598	5.9401e+01	16.1995	57.739115	0.000193	1.926047	0.652562	-0.000077
 599	5.9501e+01	16.1626	57.613964	0.000314	3.142497	1.064707	-0.000126
 600	5.9600e+01	16.1306	57.521110	0.000233	2.331530	0.789944	-0.000093
 601	5.9700e+01	16.0937	57.387885	0.000335	3.345239	1.133398	-0.000134
 602	5.9800e+01	16.0375	57.327327	0.000152	1.520563	0.515181	-0.000061
 603	5.9899e+01	16.0167	57.206213	0.000304	3.041126	1.030362	-0.000122
 604	5.9998e+01	15.9733	57.113359	0.000233	2.331530	0.789944	-0.000093
 605	6.0098e+01	15.9284	57.032617	0.000203	2.027418	0.686908	-0.000081
 606	6.0197e+01	15.8931	56.887280	0.000365	3.649352	1.236434	-0.000146
 607	6.0297e+01	15.8450	56.806537	0.000203	2.027418	0.686908	-0.000081
 608	6.0397e+01	15.8129	56.737906	0.000172	1.723305	0.583872	-0.000069
 609	6.0496e+01	15.7760	56.600643	0.000345	3.446610	1.167743	-0.000138
 610	6.0596e+01	15.7391	56.527975	0.000182	1.824676	0.618217	-0.000073
 611	6.0695e+01	15.6878	56.418972	0.000274	2.737014	0.927325	-0.000110
 612	6.0794e+01	15.6557	56.309969	0.000274	2.737014	0.927325	-0.000110
 613	6.0894e+01	15.6028	56.188855	0.000304	3.041126	1.030362	-0.000122
 614	6.0993e+01	15.5691	56.132335	0.000142	1.419192	0.480835	-0.000057
 615	6.1093e+01	15.5322	56.031407	0.000253	2.534272	0.858635	-0.000101
 616	6.1193e+01	15.4873	55.926441	0.000264	2.635643	0.892980	-0.000105
 617	6.1292e+01	15.4536	55.813402	0.000284	2.838385	0.961671	-0.000114
 618	6.1392e+01	15.4087	55.724585	0.000223	2.230159	0.755598	-0.000089
 619	6.1491e+01	15.3798	55.611545	0.000284	2.838385	0.961671	-0.000114
 620	6.1590e+01	15.3349	55.538876	0.000182	1.824676	0.618217	-0.000073
 621	6.1690e+01	15.2932	55.417762	0.000304	3.041126	1.030362	-0.000122
 622	6.1789e+01	15.2530	55.296648	0.000304	3.041126	1.030362	-0.000122
 623	6.1889e+01	15.2081	55.207831	0.000223	2.230159	0.755598	-0.000089
 624	6.1989e+01	15.1744	55.106903	0.000253	2.534272	0.858635	-0.000101
 625	6.2088e+01	15.1311	54.977714	0.000324	3.243868	1.099052	-0.000130
 626	6.2188e+01	15.0878	54.888897	0.000223	2.230159	0.755598	-0.000089
 627	6.2287e+01	15.0589	54.792006	0.000243	2.432901	0.824289	-0.000097
 628	6.2386e+01	15.0188	54.678966	0.000284	2.838385	0.961671	-0.000114
 629	6.2486e+01	14.9723	54.545741	0.000335	3.345239	1.133398	-0.000134
 630	6.2586e+01	14.9306	54.432701	0.000284	2.838385	0.961671	-0.000114
 631	6.2685e+01	14.8809	54.364070	0.000172	1.723305	0.583872	-0.000069
 632	6.2785e+01	14.8632	54.234882	0.000324	3.243868	1.099052	-0.000130
 633	6.2884e+01	14.8231	54.162213	0.000182	1.824676	0.618217	-0.000073
 634	6.2983e+01	14.7798	54.041099	0.000304	3.041126	1.030362	-0.000122
 635	6.3083e+01	14.7333	53.940171	0.000253	2.534272	0.858635	-0.000101
 636	6.3182e+01	14.6916	53.835205	0.000264	2.635643	0.892980	-0.000105
 637	6.3282e+01	14.6563	53.710054	0.000314	3.142497	1.064707	-0.000126
 638	6.3382e+01	14.6178	53.609125	0.000253	2.534272	0.858635	-0.000101
 639	6.3481e+01	14.5793	53.544531	0.000162	1.621934	0.549526	-0.000065
 640	6.3581e+01	14.5440	53.411306	0.000335	3.345239	1.133398	-0.000134
 641	6.3680e+01	14.4926	53.253858	0.000395	3.953464	1.339470	-0.000158
 642	6.3779e+01	14.4541	53.161003	0.000233	2.331530	0.789944	-0.000093
 643	6.3879e+01	14.4156	53.047964	0.000284	2.838385	0.961671	-0.000114
 644	6.3978e+01	14.3755	52.951072	0.000243	2.432901	0.824289	-0.000097
 645	6.4078e+01	14.3290	52.825921	0.000314	3.142497	1.064707	-0.000126
 646	6.4177e+01	14.2985	52.712881	0.000284	2.838385	0.961671	-0.000114
 647	6.4277e+01	14.2568	52.636176	0.000193	1.926047	0.652562	-0.000077
 648	6.4376e+01	14.2183	52.527173	0.000274	2.737014	0.927325	-0.000110
 649	6.4476e+01	14.1766	52.434319	0.000233	2.331530	0.789944	-0.000093
 650	6.4576e+01	14.1397	52.293019	0.000355	3.547981	1.202088	-0.000142
 651	6.4675e+01	14.0916	52.196128	0.000243	2.432901	0.824289	-0.000097
 652	6.4775e+01	14.0579	52.119422	0.000193	1.926047	0.652562	-0.000077
 653	6.4874e+01	14.0274	51.945826	0.000436	4.358948	1.476852	-0.000174
 654	6.4974e+01	13.9841	51.812600	0.000335	3.345239	1.133398	-0.000134
 655	6.5073e+01	13.9344	51.768192	0.000112	1.115080	0.377799	-0.000045
 656	6.5172e+01	13.8943	51.618818	0.000375	3.750723	1.270779	-0.000150
 657	6.5272e+01	13.8558	51.534038	0.000213	2.128789	0.721253	-0.000085
 658	6.5371e+01	13.8124	51.392738	0.000355	3.547981	1.202088	-0.000142
 659	6.5471e+01	13.7723	51.295847	0.000243	2.432901	0.824289	-0.000097
 660	6.5570e+01	13.7370	51.170695	0.000314	3.142497	1.064707	-0.000126
 661	6.5670e+01	13.6985	51.065730	0.000264	2.635643	0.892980	-0.000105
 662	6.5769e+01	13.6665	50.948653	0.000294	2.939756	0.996016	-0.000118
 663	6.5869e+01	13.6215	50.839650	0.000274	2.737014	0.927325	-0.000110
 664	6.5969e+01	13.5782	50.746796	0.000233	2.331530	0.789944	-0.000093
 665	6.6068e+01	13.5333	50.629719	0.000294	2.939756	0.996016	-0.000118
 666	6.6168e+01	13.4964	50.496494	0.000335	3.345239	1.133398	-0.000134
 667	6.6267e+01	13.4579	50.391528	0.000264	2.635643	0.892980	-0.000105
 668	6.6367e+01	13.4194	50.282526	0.000274	2.737014	0.927325	-0.000110
 669	6.6466e+01	13.3873	50.157374	0.000314	3.142497	1.064707	-0.000126
 670	6.6566e+01	13.3408	50.064520	0.000233	2.331530	0.789944	-0.000093
 671	6.6665e+01	13.3023	49.923221	0.000355	3.547981	1.202088	-0.000142
 672	6.6764e+01	13.2654	49.806144	0.000294	2.939756	0.996016	-0.000118
 673	6.6864e+01	13.2109	49.725401	0.000203	2.027418	0.686908	-0.000081
 674	6.6963e+01	13.1708	49.596213	0.000324	3.243868	1.099052	-0.000130
 675	6.7063e+01	13.1419	49.467024	0.000324	3.243868	1.099052	-0.000130
 676	6.7162e+01	13.1082	49.374170	0.000233	2.331530	0.789944	-0.000093
 677	6.7262e+01	13.0585	49.220759	0.000385	3.852093	1.305125	-0.000154
 678	6.7362e+01	13.0167	49.111756	0.000274	2.737014	0.927325	-0.000110
 679	6.7461e+01	12.9782	49.018902	0.000233	2.331530	0.789944	-0.000093
 680	6.7561e+01	12.9413	48.905862	0.000284	2.838385	0.961671	-0.000114
 681	6.7660e+01	12.9044	48.788785	0.000294	2.939756	0.996016	-0.000118
 682	6.7760e+01	12.8627	48.695931	0.000233	2.331530	0.789944	-0.000093
 683	6.7859e+01	12.8130	48.534446	0.000405	4.054835	1.373815	-0.000162
 684	6.7959e+01	12.7857	48.473889	0.000152	1.520563	0.515181	-0.000061
 685	6.8058e+01	12.7424	48.312403	0.000405	4.054835	1.373815	-0.000162
 686	6.8157e+01	12.7103	48.207438	0.000264	2.635643	0.892980	-0.000105
 687	6.8257e+01	12.6702	48.106509	0.000253	2.534272	0.858635	-0.000101
 688	6.8356e+01	12.6269	47.989433	0.000294	2.939756	0.996016	-0.000118
 689	6.8456e+01	12.5900	47.856207	0.000335	3.345239	1.133398	-0.000134
 690	6.8555e+01	12.5435	47.751242	0.000264	2.635643	0.892980	-0.000105
 691	6.8655e+01	12.5018	47.597830	0.000385	3.852093	1.305125	-0.000154
 692	6.8754e+01	12.4745	47.492865	0.000264	2.635643	0.892980	-0.000105
 693	6.8854e+01	12.4296	47.395974	0.000243	2.432901	0.824289	-0.000097
 694	6.8954e+01	12.3767	47.274859	0.000304	3.041126	1.030362	-0.000122
 695	6.9053e+01	12.3494	47.105300	0.000426	4.257577	1.442506	-0.000170
 696	6.9153e+01	12.3045	47.004371	0.000253	2.534272	0.858635	-0.000101
 697	6.9252e+01	12.2644	46.923629	0.000203	2.027418	0.686908	-0.000081
 698	6.9352e+01	12.2162	46.729846	0.000487	4.865802	1.648578	-0.000195
 699	6.9451e+01	12.1825	46.616806	0.000284	2.838385	0.961671	-0.000114
 700	6.9550e+01	12.1537	46.483581	0.000335	3.345239	1.133398	-0.000134
 701	6.9650e+01	12.1055	46.390727	0.000233	2.331530	0.789944	-0.000093
 702	6.9749e+01	12.0654	46.309984	0.000203	2.027418	0.686908	-0.000081
 703	6.9849e+01	12.0285	46.176759	0.000335	3.345239	1.133398	-0.000134
 704	6.9948e+01	11.9884	46.027385	0.000375	3.750723	1.270779	-0.000150
 705	7.0048e+01	11.9515	45.926456	0.000253	2.534272	0.858635	-0.000101
 706	7.0147e+01	11.9050	45.833602	0.000233	2.331530	0.789944	-0.000093
 707	7.0247e+01	11.8649	45.680191	0.000385	3.852093	1.305125	-0.000154
 708	7.0347e+01	11.8360	45.563114	0.000294	2.939756	0.996016	-0.000118
 709	7.0446e+01	11.7863	45.421814	0.000355	3.547981	1.202088	-0.000142
 710	7.0546e+01	11.7526	45.324923	0.000243	2.432901	0.824289	-0.000097
 711	7.0645e+01	11.7093	45.167475	0.000395	3.953464	1.339470	-0.000158
 712	7.0745e+01	11.6740	45.074621	0.000233	2.331530	0.789944	-0.000093
 713	7.0844e+01	11.6291	44.977729	0.000243	2.432901	0.824289	-0.000097
 714	7.0944e+01	11.5826	44.848541	0.000324	3.243868	1.099052	-0.000130
 715	7.1043e+01	11.5537	44.719353	0.000324	3.243868	1.099052	-0.000130
 716	7.1142e+01	11.5152	44.602276	0.000294	2.939756	0.996016	-0.000118
 717	7.1242e+01	11.4719	44.456939	0.000365	3.649352	1.236434	-0.000146
 718	7.1341e+01	11.4302	44.372159	0.000213	2.128789	0.721253	-0.000085
 719	7.1441e+01	11.3917	44.234896	0.000345	3.446610	1.167743	-0.000138
 720	7.1540e+01	11.3516	44.117819	0.000294	2.939756	0.996016	-0.000118
 721	7.1640e+01	11.3130	43.996705	0.000304	3.041126	1.030362	-0.000122
 722	7.1740e+01	11.2729	43.871554	0.000314	3.142497	1.064707	-0.000126
 723	7.1839e+01	11.2216	43.742366	0.000324	3.243868	1.099052	-0.000130
 724	7.1939e+01	11.1911	43.617215	0.000314	3.142497	1.064707	-0.000126
 725	7.2038e+01	11.1478	43.488026	0.000324	3.243868	1.099052	-0.000130
 726	7.2138e+01	11.1141	43.370949	0.000294	2.939756	0.996016	-0.000118
 727	7.2237e+01	11.0612	43.294244	0.000193	1.926047	0.652562	-0.000077
 728	7.2337e+01	11.0275	43.144870	0.000375	3.750723	1.270779	-0.000150
 729	7.2436e+01	10.9890	42.995496	0.000375	3.750723	1.270779	-0.000150
 730	7.2535e+01	10.9601	42.906679	0.000223	2.230159	0.755598	-0.000089
 731	7.2635e+01	10.9024	42.777490	0.000324	3.243868	1.099052	-0.000130
 732	7.2734e+01	10.8655	42.644265	0.000335	3.345239	1.133398	-0.000134
 733	7.2834e+01	10.8382	42.502965	0.000355	3.547981	1.202088	-0.000142
 734	7.2933e+01	10.7885	42.430297	0.000182	1.824676	0.618217	-0.000073
 735	7.3033e+01	10.7532	42.301108	0.000324	3.243868	1.099052	-0.000130
 736	7.3132e+01	10.7195	42.167883	0.000335	3.345239	1.133398	-0.000134
 737	7.3232e+01	10.6762	42.030620	0.000345	3.446610	1.167743	-0.000138
 738	7.3332e+01	10.6393	41.917580	0.000284	2.838385	0.961671	-0.000114
 739	7.3431e+01	10.5944	41.804541	0.000284	2.838385	0.961671	-0.000114
 740	7.3531e+01	10.5478	41.695538	0.000274	2.737014	0.927325	-0.000110
 741	7.3630e+01	10.5125	41.566350	0.000324	3.243868	1.099052	-0.000130
 742	7.3730e+01	10.4724	41.449273	0.000294	2.939756	0.996016	-0.000118
 743	7.3829e+01	10.4243	41.312010	0.000345	3.446610	1.167743	-0.000138
 744	7.3928e+01	10.3874	41.186859	0.000314	3.142497	1.064707	-0.000126
 745	7.4028e+01	10.3505	41.081893	0.000264	2.635643	0.892980	-0.000105
 746	7.4127e+01	10.3072	40.908296	0.000436	4.358948	1.476852	-0.000174
 747	7.4227e+01	10.2703	40.815442	0.000233	2.331530	0.789944	-0.000093
 748	7.4326e+01	10.2334	40.686254	0.000324	3.243868	1.099052	-0.000130
 749	7.4426e+01	10.1869	40.577251	0.000274	2.737014	0.927325	-0.000110
 750	7.4525e+01	10.1420	40.464212	0.000284	2.838385	0.961671	-0.000114
 751	7.4625e+01	10.1163	40.347135	0.000294	2.939756	0.996016	-0.000118
 752	7.4725e+01	10.0762	40.173538	0.000436	4.358948	1.476852	-0.000174
 753	7.4824e+01	10.0361	40.052424	0.000304	3.041126	1.030362	-0.000122
 754	7.4924e+01	10.0024	39.955532	0.000243	2.432901	0.824289	-0.000097
 755	7.5023e+01	9.9575	39.826344	0.000324	3.243868	1.099052	-0.000130
 756	7.5123e+01	9.9158	39.668896	0.000395	3.953464	1.339470	-0.000158
 757	7.5222e+01	9.8660	39.592190	0.000193	1.926047	0.652562	-0.000077
 758	7.5322e+01	9.8307	39.446853	0.000365	3.649352	1.236434	-0.000146
 759	7.5421e+01	9.7954	39.309591	0.000345	3.446610	1.167743	-0.000138
 760	7.5520e+01	9.7505	39.196551	0.000284	2.838385	0.961671	-0.000114
 761	7.5620e+01	9.7184	39.039103	0.000395	3.953464	1.339470	-0.000158
 762	7.5719e+01	9.6735	38.978546	0.000152	1.520563	0.515181	-0.000061
 763	7.5819e+01	9.6286	38.833209	0.000365	3.649352	1.236434	-0.000146
 764	7.5918e+01	9.6013	38.667686	0.000416	4.156206	1.408161	-0.000166
 765	7.6018e+01	9.5596	38.574832	0.000233	2.331530	0.789944	-0.000093
 766	7.6118e+01	9.5131	38.425458	0.000375	3.750723	1.270779	-0.000150
 767	7.6217e+01	9.4794	38.316455	0.000274	2.737014	0.927325	-0.000110
 768	7.6317e+01	9.4361	38.243787	0.000182	1.824676	0.618217	-0.000073
 769	7.6416e+01	9.4024	38.086339	0.000395	3.953464	1.339470	-0.000158
 770	7.6516e+01	9.3527	37.916779	0.000426	4.257577	1.442506	-0.000170
 771	7.6615e+01	9.3126	37.791628	0.000314	3.142497	1.064707	-0.000126
 772	7.6715e+01	9.2789	37.710885	0.000203	2.027418	0.686908	-0.000081
 773	7.6814e+01	9.2372	37.561511	0.000375	3.750723	1.270779	-0.000150
 774	7.6913e+01	9.1987	37.444434	0.000294	2.939756	0.996016	-0.000118
 775	7.7013e+01	9.1570	37.307171	0.000345	3.446610	1.167743	-0.000138
 776	7.7112e+01	9.1153	37.177983	0.000324	3.243868	1.099052	-0.000130
 777	7.7212e+01	9.0687	37.073017	0.000264	2.635643	0.892980	-0.000105
 778	7.7311e+01	9.0366	36.923643	0.000375	3.750723	1.270779	-0.000150
 779	7.7411e+01	8.9965	36.794455	0.000324	3.243868	1.099052	-0.000130
 780	7.7510e+01	8.9580	36.717750	0.000193	1.926047	0.652562	-0.000077
 781	7.7610e+01	8.9179	36.556264	0.000405	4.054835	1.373815	-0.000162
 782	7.7710e+01	8.8826	36.455336	0.000253	2.534272	0.858635	-0.000101
 783	7.7809e+01	8.8361	36.309999	0.000365	3.649352	1.236434	-0.000146
 784	7.7909e+01	8.7944	36.205033	0.000264	2.635643	0.892980	-0.000105
 785	7.8008e+01	8.7495	36.063734	0.000355	3.547981	1.202088	-0.000142
 786	7.8108e+01	8.7206	35.914360	0.000375	3.750723	1.270779	-0.000150
 787	7.8207e+01	8.6805	35.797283	0.000294	2.939756	0.996016	-0.000118
 788	7.8306e+01	8.6404	35.672131	0.000314	3.142497	1.064707	-0.000126
 789	7.8406e+01	8.6067	35.530832	0.000355	3.547981	1.202088	-0.000142
 790	7.8505e+01	8.5618	35.429903	0.000253	2.534272	0.858635	-0.000101
 791	7.8605e+01	8.5169	35.268418	0.000405	4.054835	1.373815	-0.000162
 792	7.8704e+01	8.4848	35.159415	0.000274	2.737014	0.927325	-0.000110
 793	7.8804e+01	8.4431	35.010041	0.000375	3.750723	1.270779	-0.000150
 794	7.8903e+01	8.4014	34.897001	0.000284	2.838385	0.961671	-0.000114
 795	7.9003e+01	8.3597	34.759739	0.000345	3.446610	1.167743	-0.000138
 796	7.9103e+01	8.3196	34.630550	0.000324	3.243868	1.099052	-0.000130
 797	7.9202e+01	8.2875	34.489251	0.000355	3.547981	1.202088	-0.000142
 798	7.9302e+01	8.2297	34.331802	0.000395	3.953464	1.339470	-0.000158
 799	7.9401e+01	8.2008	34.214725	0.000294	2.939756	0.996016	-0.000118
 800	7.9501e+01	8.1639	34.065351	0.000375	3.750723	1.270779	-0.000150
 801	7.9600e+01	8.1142	33.915977	0.000375	3.750723	1.270779	-0.000150
 802	7.9700e+01	8.0805	33.827160	0.000223	2.230159	0.755598	-0.000089
 803	7.9799e+01	8.0388	33.681823	0.000365	3.649352	1.236434	-0.000146
 804	7.9898e+01	7.9955	33.544561	0.000345	3.446610	1.167743	-0.000138
 805	7.9998e+01	7.9570	33.387113	0.000395	3.953464	1.339470	-0.000158
 806	8.0097e+01	7.9137	33.278110	0.000274	2.737014	0.927325	-0.000110
 807	8.0197e+01	7.8784	33.132773	0.000365	3.649352	1.236434	-0.000146
 808	8.0296e+01	7.8463	33.003585	0.000324	3.243868	1.099052	-0.000130
 809	8.0396e+01	7.8062	32.870359	0.000335	3.345239	1.133398	-0.000134
 810	8.0496e+01	7.7565	32.708874	0.000405	4.054835	1.373815	-0.000162
 811	8.0595e+01	7.7292	32.624094	0.000213	2.128789	0.721253	-0.000085
 812	8.0695e+01	7.6795	32.438386	0.000466	4.663061	1.579888	-0.000187
 813	8.0794e+01	7.6426	32.325346	0.000284	2.838385	0.961671	-0.000114
 814	8.0894e+01	7.6073	32.147712	0.000446	4.460319	1.511197	-0.000179
 815	8.0993e+01	7.5672	32.058895	0.000223	2.230159	0.755598	-0.000089
 816	8.1093e+01	7.5255	31.877224	0.000456	4.561690	1.545542	-0.000183
 817	8.1192e+01	7.4805	31.776295	0.000253	2.534272	0.858635	-0.000101
 818	8.1291e+01	7.4388	31.651144	0.000314	3.142497	1.064707	-0.000126
 819	8.1391e+01	7.3987	31.509844	0.000355	3.547981	1.202088	-0.000142
 820	8.1490e+01	7.3618	31.328173	0.000456	4.561690	1.545542	-0.000183
 821	8.1590e+01	7.3153	31.239356	0.000223	2.230159	0.755598	-0.000089
 822	8.1689e+01	7.2832	31.085945	0.000385	3.852093	1.305125	-0.000154
 823	8.1789e+01	7.2447	30.944645	0.000355	3.547981	1.202088	-0.000142
 824	8.1888e+01	7.2030	30.799309	0.000365	3.649352	1.236434	-0.000146
 825	8.1988e+01	7.1693	30.645897	0.000385	3.852093	1.305125	-0.000154
 826	8.2088e+01	7.1228	30.516709	0.000324	3.243868	1.099052	-0.000130
 827	8.2187e+01	7.0731	30.379446	0.000345	3.446610	1.167743	-0.000138
 828	8.2287e+01	7.0474	30.250258	0.000324	3.243868	1.099052	-0.000130
 829	8.2386e+01	7.0025	30.125107	0.000314	3.142497	1.064707	-0.000126
 830	8.2486e+01	6.9688	29.959584	0.000416	4.156206	1.408161	-0.000166
 831	8.2585e+01	6.9223	29.814247	0.000365	3.649352	1.236434	-0.000146
 832	8.2684e+01	6.8918	29.652762	0.000405	4.054835	1.373815	-0.000162
 833	8.2784e+01	6.8437	29.499351	0.000385	3.852093	1.305125	-0.000154
 834	8.2883e+01	6.8036	29.386311	0.000284	2.838385	0.961671	-0.000114
 835	8.2983e+01	6.7667	29.265197	0.000304	3.041126	1.030362	-0.000122
 836	8.3082e+01	6.7314	29.075452	0.000476	4.764431	1.614233	-0.000191
 837	8.3182e+01	6.6961	28.930115	0.000365	3.649352	1.236434	-0.000146
 838	8.3281e+01	6.6479	28.821112	0.000274	2.737014	0.927325	-0.000110
 839	8.3381e+01	6.6030	28.667701	0.000385	3.852093	1.305125	-0.000154
 840	8.3481e+01	6.5677	28.538513	0.000324	3.243868	1.099052	-0.000130
 841	8.3580e+01	6.5244	28.385101	0.000385	3.852093	1.305125	-0.000154
 842	8.3680e+01	6.4843	28.280136	0.000264	2.635643	0.892980	-0.000105
 843	8.3779e+01	6.4490	28.114613	0.000416	4.156206	1.408161	-0.000166
 844	8.3879e+01	6.4169	27.941016	0.000436	4.358948	1.476852	-0.000174
 845	8.3978e+01	6.3736	27.799717	0.000355	3.547981	1.202088	-0.000142
 846	8.4078e+01	6.3271	27.654380	0.000365	3.649352	1.236434	-0.000146
 847	8.4177e+01	6.2886	27.488857	0.000416	4.156206	1.408161	-0.000166
 848	8.4276e+01	6.2517	27.379855	0.000274	2.737014	0.927325	-0.000110
 849	8.4376e+01	6.2084	27.218369	0.000405	4.054835	1.373815	-0.000162
 850	8.4475e+01	6.1667	27.105329	0.000284	2.838385	0.961671	-0.000114
 851	8.4575e+01	6.1282	26.951918	0.000385	3.852093	1.305125	-0.000154
 852	8.4674e+01	6.0881	26.810618	0.000355	3.547981	1.202088	-0.000142
 853	8.4774e+01	6.0560	26.632984	0.000446	4.460319	1.511197	-0.000179
 854	8.4874e+01	6.0095	26.515908	0.000294	2.939756	0.996016	-0.000118
 855	8.4973e+01	5.9710	26.338274	0.000446	4.460319	1.511197	-0.000179
 856	8.5073e+01	5.9341	26.180825	0.000395	3.953464	1.339470	-0.000158
 857	8.5172e+01	5.8843	26.023377	0.000395	3.953464	1.339470	-0.000158
 858	8.5272e+01	5.8554	25.930523	0.000233	2.331530	0.789944	-0.000093
 859	8.5371e+01	5.8089	25.712518	0.000547	5.474028	1.854651	-0.000219
 860	8.5471e+01	5.7736	25.615626	0.000243	2.432901	0.824289	-0.000097
 861	8.5570e+01	5.7303	25.470289	0.000365	3.649352	1.236434	-0.000146
 862	8.5669e+01	5.6998	25.296693	0.000436	4.358948	1.476852	-0.000174
 863	8.5769e+01	5.6501	25.131170	0.000416	4.156206	1.408161	-0.000166
 864	8.5868e+01	5.6036	24.969685	0.000405	4.054835	1.373815	-0.000162
 865	8.5968e+01	5.5683	24.844533	0.000314	3.142497	1.064707	-0.000126
 866	8.6067e+01	5.5346	24.695159	0.000375	3.750723	1.270779	-0.000150
 867	8.6167e+01	5.4897	24.537711	0.000395	3.953464	1.339470	-0.000158
 868	8.6266e+01	5.4576	24.404486	0.000335	3.345239	1.133398	-0.000134
 869	8.6366e+01	5.4175	24.247037	0.000395	3.953464	1.339470	-0.000158
 870	8.6466e+01	5.3742	24.129960	0.000294	2.939756	0.996016	-0.000118
 871	8.6565e+01	5.3293	23.924066	0.000517	5.169915	1.751615	-0.000207
 872	8.6665e+01	5.2972	23.806989	0.000294	2.939756	0.996016	-0.000118
 873	8.6764e+01	5.2507	23.645504	0.000405	4.054835	1.373815	-0.000162
 874	8.6864e+01	5.2154	23.467870	0.000446	4.460319	1.511197	-0.000179
 875	8.6963e+01	5.1753	23.306385	0.000405	4.054835	1.373815	-0.000162
 876	8.7063e+01	5.1351	23.177196	0.000324	3.243868	1.099052	-0.000130
 877	8.7162e+01	5.0870	23.043971	0.000335	3.345239	1.133398	-0.000134
 878	8.7261e+01	5.0501	22.862300	0.000456	4.561690	1.545542	-0.000183
 879	8.7361e+01	5.0180	22.753297	0.000274	2.737014	0.927325	-0.000110
 880	8.7460e+01	4.9747	22.567589	0.000466	4.663061	1.579888	-0.000187
 881	8.7560e+01	4.9394	22.450512	0.000294	2.939756	0.996016	-0.000118
 882	8.7659e+01	4.9025	22.289026	0.000405	4.054835	1.373815	-0.000162
 883	8.7759e+01	4.8592	22.147727	0.000355	3.547981	1.202088	-0.000142
 884	8.7859e+01	4.8159	21.970093	0.000446	4.460319	1.511197	-0.000179
 885	8.7958e+01	4.7614	21.824756	0.000365	3.649352	1.236434	-0.000146
 886	8.8058e+01	4.7405	21.667308	0.000395	3.953464	1.339470	-0.000158
 887	8.8157e+01	4.6940	21.562342	0.000264	2.635643	0.892980	-0.000105
 888	8.8257e+01	4.6635	21.392782	0.000426	4.257577	1.442506	-0.000170
 889	8.8356e+01	4.6250	21.199000	0.000487	4.865802	1.648578	-0.000195
 890	8.8456e+01	4.5817	21.081923	0.000294	2.939756	0.996016	-0.000118
 891	8.8555e+01	4.5320	20.900252	0.000456	4.561690	1.545542	-0.000183
 892	8.8654e+01	4.4983	20.758952	0.000355	3.547981	1.202088	-0.000142
 893	8.8754e+01	4.4598	20.605541	0.000385	3.852093	1.305125	-0.000154
 894	8.8853e+01	4.4116	20.480390	0.000314	3.142497	1.064707	-0.000126
 895	8.8953e+01	4.3780	20.306793	0.000436	4.358948	1.476852	-0.000174
 896	8.9052e+01	4.3394	20.125122	0.000456	4.561690	1.545542	-0.000183
 897	8.9152e+01	4.2977	19.971710	0.000385	3.852093	1.305125	-0.000154
 898	8.9251e+01	4.2576	19.846559	0.000314	3.142497	1.064707	-0.000126
 899	8.9351e+01	4.2127	19.656814	0.000476	4.764431	1.614233	-0.000191
 900	8.9451e+01	4.1758	19.543774	0.000284	2.838385	0.961671	-0.000114
 901	8.9550e+01	4.1293	19.378252	0.000416	4.156206	1.408161	-0.000166
 902	8.9650e+01	4.0956	19.204655	0.000436	4.358948	1.476852	-0.000174
 903	8.9749e+01	4.0555	19.095652	0.000274	2.737014	0.927325	-0.000110
 904	8.9849e+01	4.0218	18.881684	0.000537	5.372657	1.820305	-0.000215
 905	8.9948e+01	3.9817	18.748458	0.000335	3.345239	1.133398	-0.000134
 906	9.0047e+01	3.9384	18.631381	0.000294	2.939756	0.996016	-0.000118
 907	9.0147e+01	3.8967	18.453747	0.000446	4.460319	1.511197	-0.000179
 908	9.0246e+01	3.8598	18.280151	0.000436	4.358948	1.476852	-0.000174
 909	9.0346e+01	3.8133	18.130777	0.000375	3.750723	1.270779	-0.000150
 910	9.0445e+01	3.7764	17.973328	0.000395	3.953464	1.339470	-0.000158
 911	9.0545e+01	3.7379	17.832029	0.000355	3.547981	1.202088	-0.000142
 912	9.0644e+01	3.6978	17.662469	0.000426	4.257577	1.442506	-0.000170
 913	9.0744e+01	3.6577	17.529243	0.000335	3.345239	1.133398	-0.000134
 914	9.0844e+01	3.6240	17.400055	0.000324	3.243868	1.099052	-0.000130
 915	9.0943e+01	3.5758	17.230495	0.000426	4.257577	1.442506	-0.000170
 916	9.1043e+01	3.5438	17.024601	0.000517	5.169915	1.751615	-0.000207
 917	9.1142e+01	3.4988	16.875227	0.000375	3.750723	1.270779	-0.000150
 918	9.1242e+01	3.4587	16.742002	0.000335	3.345239	1.133398	-0.000134
 919	9.1341e+01	3.4266	16.564368	0.000446	4.460319	1.511197	-0.000179
 920	9.1441e+01	3.3833	16.402883	0.000405	4.054835	1.373815	-0.000162
 921	9.1540e+01	3.3336	16.257546	0.000365	3.649352	1.236434	-0.000146
 922	9.1639e+01	3.3063	16.128357	0.000324	3.243868	1.099052	-0.000130
 923	9.1739e+01	3.2598	15.958798	0.000426	4.257577	1.442506	-0.000170
 924	9.1838e+01	3.2197	15.777126	0.000456	4.561690	1.545542	-0.000183
 925	9.1938e+01	3.1716	15.643901	0.000335	3.345239	1.133398	-0.000134
 926	9.2037e+01	3.1347	15.494527	0.000375	3.750723	1.270779	-0.000150
 927	9.2137e+01	3.0978	15.284596	0.000527	5.271286	1.785960	-0.000211
 928	9.2237e+01	3.0577	15.167519	0.000294	2.939756	0.996016	-0.000118
 929	9.2336e+01	3.0176	15.006034	0.000405	4.054835	1.373815	-0.000162
 930	9.2436e+01	2.9807	14.788028	0.000547	5.474028	1.854651	-0.000219
 931	9.2535e+01	2.9406	14.666914	0.000304	3.041126	1.030362	-0.000122
 932	9.2635e+01	2.9005	14.537726	0.000324	3.243868	1.099052	-0.000130
 933	9.2734e+01	2.8620	14.339906	0.000497	4.967173	1.682924	-0.000199
 934	9.2834e+01	2.8299	14.186495	0.000385	3.852093	1.305125	-0.000154
 935	9.2933e+01	2.7785	14.041158	0.000365	3.649352	1.236434	-0.000146
 936	9.3032e+01	2.7464	13.855450	0.000466	4.663061	1.579888	-0.000187
 937	9.3132e+01	2.7031	13.693964	0.000405	4.054835	1.373815	-0.000162
 938	9.3231e+01	2.6566	13.544590	0.000375	3.750723	1.270779	-0.000150
 939	9.3331e+01	2.6245	13.391179	0.000385	3.852093	1.305125	-0.000154
 940	9.3430e+01	2.5748	13.237768	0.000385	3.852093	1.305125	-0.000154
 941	9.3530e+01	2.5395	13.072246	0.000416	4.156206	1.408161	-0.000166
 942	9.3629e+01	2.4962	12.854240	0.000547	5.474028	1.854651	-0.000219
 943	9.3729e+01	2.4641	12.741200	0.000284	2.838385	0.961671	-0.000114
 944	9.3829e+01	2.4192	12.583752	0.000395	3.953464	1.339470	-0.000158
 945	9.3928e+01	2.3791	12.426304	0.000395	3.953464	1.339470	-0.000158
 946	9.4028e+01	2.3438	12.280967	0.000365	3.649352	1.236434	-0.000146
 947	9.4127e+01	2.2924	12.099296	0.000456	4.561690	1.545542	-0.000183
 948	9.4227e+01	2.2668	11.962033	0.000345	3.446610	1.167743	-0.000138
 949	9.4326e+01	2.2203	11.776325	0.000466	4.663061	1.579888	-0.000187
 950	9.4425e+01	2.1978	11.667322	0.000274	2.737014	0.927325	-0.000110
 951	9.4525e+01	2.1368	11.461428	0.000517	5.169915	1.751615	-0.000207
 952	9.4624e+01	2.1015	11.308017	0.000385	3.852093	1.305125	-0.000154
 953	9.4724e+01	2.0630	11.138458	0.000426	4.257577	1.442506	-0.000170
 954	9.4823e+01	2.0229	10.964861	0.000436	4.358948	1.476852	-0.000174
 955	9.4923e+01	1.9780	10.791264	0.000436	4.358948	1.476852	-0.000174
 956	9.5022e+01	1.9427	10.625741	0.000416	4.156206	1.408161	-0.000166
 957	9.5122e+01	1.9122	10.468293	0.000395	3.953464	1.339470	-0.000158
 958	9.5222e+01	1.8593	10.294696	0.000436	4.358948	1.476852	-0.000174
 959	9.5321e+01	1.8176	10.157434	0.000345	3.446610	1.167743	-0.000138
 960	9.5421e+01	1.7839	9.919243	0.000598	5.980882	2.026378	-0.000239
 961	9.5520e+01	1.7406	9.826388	0.000233	2.331530	0.789944	-0.000093
 962	9.5620e+01	1.7085	9.632606	0.000487	4.865802	1.648578	-0.000195
 963	9.5719e+01	1.6668	9.479195	0.000385	3.852093	1.305125	-0.000154
 964	9.5819e+01	1.6267	9.309635	0.000426	4.257577	1.442506	-0.000170
 965	9.5918e+01	1.5834	9.123927	0.000466	4.663061	1.579888	-0.000187
 966	9.6017e+01	1.5417	8.926107	0.000497	4.967173	1.682924	-0.000199
 967	9.6117e+01	1.5064	8.804993	0.000304	3.041126	1.030362	-0.000122
 968	9.6216e+01	1.4679	8.647545	0.000395	3.953464	1.339470	-0.000158
 969	9.6316e+01	1.4246	8.457799	0.000476	4.764431	1.614233	-0.000191
 970	9.6415e+01	1.3828	8.296314	0.000405	4.054835	1.373815	-0.000162
 971	9.6515e+01	1.3540	8.102531	0.000487	4.865802	1.648578	-0.000195
 972	9.6615e+01	1.2962	7.912786	0.000476	4.764431	1.614233	-0.000191
 973	9.6714e+01	1.2722	7.763412	0.000375	3.750723	1.270779	-0.000150
 974	9.6814e+01	1.2144	7.573667	0.000476	4.764431	1.614233	-0.000191
 975	9.6913e+01	1.1919	7.387958	0.000466	4.663061	1.579888	-0.000187
 976	9.7013e+01	1.1406	7.218399	0.000426	4.257577	1.442506	-0.000170
 977	9.7112e+01	1.1149	7.044802	0.000436	4.358948	1.476852	-0.000174
 978	9.7212e+01	1.0652	6.887354	0.000395	3.953464	1.339470	-0.000158
 979	9.7311e+01	1.0299	6.701645	0.000466	4.663061	1.579888	-0.000187
 980	9.7410e+01	0.9882	6.548234	0.000385	3.852093	1.305125	-0.000154
 981	9.7510e+01	0.9545	6.390786	0.000395	3.953464	1.339470	-0.000158
 982	9.7609e+01	0.9080	6.188929	0.000507	5.068544	1.717269	-0.000203
 983	9.7709e+01	0.8727	6.007258	0.000456	4.561690	1.545542	-0.000183
 984	9.7808e+01	0.8310	5.821550	0.000466	4.663061	1.579888	-0.000187
 985	9.7908e+01	0.7925	5.664101	0.000395	3.953464	1.339470	-0.000158
 986	9.8007e+01	0.7460	5.490505	0.000436	4.358948	1.476852	-0.000174
 987	9.8107e+01	0.7091	5.288648	0.000507	5.068544	1.717269	-0.000203
 988	9.8207e+01	0.6706	5.119088	0.000426	4.257577	1.442506	-0.000170
 989	9.8306e+01	0.6337	4.929343	0.000476	4.764431	1.614233	-0.000191
 990	9.8406e+01	0.5888	4.763820	0.000416	4.156206	1.408161	-0.000166
 991	9.8505e+01	0.5438	4.594260	0.000426	4.257577	1.442506	-0.000170
 992	9.8605e+01	0.5118	4.436812	0.000395	3.953464	1.339470	-0.000158
 993	9.8704e+01	0.4652	4.243030	0.000487	4.865802	1.648578	-0.000195
 994	9.8803e+01	0.4315	4.061359	0.000456	4.561690	1.545542	-0.000183
 995	9.8903e+01	0.3946	3.883725	0.000446	4.460319	1.511197	-0.000179
 996	9.9002e+01	0.3577	3.685905	0.000497	4.967173	1.682924	-0.000199
 997	9.9102e+01	0.3112	3.512308	0.000436	4.358948	1.476852	-0.000174
 998	9.9201e+01	0.2711	3.342748	0.000426	4.257577	1.442506	-0.000170
 999	9.9301e+01	0.2214	3.144929	0.000497	4.967173	1.682924	-0.000199
1000	9.9400e+01	0.1973	3.019778	0.000314	3.142497	1.064707	-0.000126
1001	9.9500e+01	0.1572	2.801772	0.000547	5.474028	1.854651	-0.000219
1002	9.9600e+01	0.1091	2.628175	0.000436	4.358948	1.476852	-0.000174
1003	9.9699e+01	0.0690	2.438430	0.000476	4.764431	1.614233	-0.000191
1004	9.9799e+01	0.0369	2.264833	0.000436	4.358948	1.476852	-0.000174
1005	9.9898e+01	0.0000	2.095273	0.000426	4.257577	1.442506	-0.000170
1006	9.9998e+01	-0.0433	1.941862	0.000385	3.852093	1.305125	-0.000154
1007	1.0010e+02	-0.0770	1.731931	0.000527	5.271286	1.785960	-0.000211
1008	1.0020e+02	-0.1251	1.542186	0.000476	4.764431	1.614233	-0.000191
1009	1.0030e+02	-0.1556	1.404923	0.000345	3.446610	1.167743	-0.000138
1010	1.0040e+02	-0.1957	1.219215	0.000466	4.663061	1.579888	-0.000187
1011	1.0050e+02	-0.2406	1.017358	0.000507	5.068544	1.717269	-0.000203
1012	1.0059e+02	-0.2759	0.835687	0.000456	4.561690	1.545542	-0.000183
1013	1.0069e+02	-0.3289	0.649979	0.000466	4.663061	1.579888	-0.000187
1014	1.0079e+02	-0.3561	0.557125	0.000233	2.331530	0.789944	-0.000093
1015	1.0089e+02	-0.4027	0.274525	0.000710	7.095962	2.404177	-0.000284
1016	1.0099e+02	-0.4412	0.056520	0.000547	5.474028	1.854651	-0.000219
1017	1.0109e+02	-0.4797	-0.048446	0.000264	2.635643	0.892980	-0.000105
1018	1.0119e+02	-0.5214	-0.246265	0.000497	4.967173	1.682924	-0.000199
1019	1.0129e+02	-0.5567	-0.464271	0.000547	5.474028	1.854651	-0.000219
1020	1.0139e+02	-0.6032	-0.629793	0.000416	4.156206	1.408161	-0.000166
1021	1.0149e+02	-0.6465	-0.787241	0.000395	3.953464	1.339470	-0.000158
1022	1.0159e+02	-0.6658	-0.997173	0.000527	5.271286	1.785960	-0.000211
1023	1.0169e+02	-0.7251	-1.190955	0.000487	4.865802	1.648578	-0.000195
1024	1.0179e+02	-0.7540	-1.384738	0.000487	4.865802	1.648578	-0.000195
1025	1.0189e+02	-0.7909	-1.550260	0.000416	4.156206	1.408161	-0.000166
1026	1.0199e+02	-0.8374	-1.731931	0.000456	4.561690	1.545542	-0.000183
1027	1.0209e+02	-0.8775	-1.913602	0.000456	4.561690	1.545542	-0.000183
1028	1.0219e+02	-0.9160	-2.107385	0.000487	4.865802	1.648578	-0.000195
1029	1.0229e+02	-0.9497	-2.280982	0.000436	4.358948	1.476852	-0.000174
1030	1.0239e+02	-0.9962	-2.511098	0.000578	5.778140	1.957687	-0.000231
1031	1.0248e+02	-1.0379	-2.708918	0.000497	4.967173	1.682924	-0.000199
1032	1.0258e+02	-1.0893	-2.870404	0.000405	4.054835	1.373815	-0.000162
1033	1.0268e+02	-1.1101	-3.031889	0.000405	4.054835	1.373815	-0.000162
1034	1.0278e+02	-1.1518	-3.233746	0.000507	5.068544	1.717269	-0.000203
1035	1.0288e+02	-1.1935	-3.415417	0.000456	4.561690	1.545542	-0.000183
1036	1.0298e+02	-1.2353	-3.601125	0.000466	4.663061	1.579888	-0.000187
1037	1.0308e+02	-1.2802	-3.807019	0.000517	5.169915	1.751615	-0.000207
1038	1.0318e+02	-1.3155	-3.968504	0.000405	4.054835	1.373815	-0.000162
1039	1.0328e+02	-1.3636	-4.190547	0.000558	5.575398	1.888996	-0.000223
1040	1.0338e+02	-1.3989	-4.352032	0.000405	4.054835	1.373815	-0.000162
1041	1.0348e+02	-1.4310	-4.525629	0.000436	4.358948	1.476852	-0.000174
1042	1.0358e+02	-1.4759	-4.739597	0.000537	5.372657	1.820305	-0.000215
1043	1.0368e+02	-1.5096	-4.921268	0.000456	4.561690	1.545542	-0.000183
1044	1.0378e+02	-1.5545	-5.106977	0.000466	4.663061	1.579888	-0.000187
1045	1.0388e+02	-1.6010	-5.220017	0.000284	2.838385	0.961671	-0.000114
1046	1.0398e+02	-1.6347	-5.429948	0.000527	5.271286	1.785960	-0.000211
1047	1.0408e+02	-1.6716	-5.611619	0.000456	4.561690	1.545542	-0.000183
1048	1.0418e+02	-1.7117	-5.801364	0.000476	4.764431	1.614233	-0.000191
1049	1.0428e+02	-1.7598	-5.987072	0.000466	4.663061	1.579888	-0.000187
1050	1.0438e+02	-1.7919	-6.124335	0.000345	3.446610	1.167743	-0.000138
1051	1.0447e+02	-1.8304	-6.398860	0.000689	6.893220	2.335486	-0.000276
1052	1.0457e+02	-1.8721	-6.511900	0.000284	2.838385	0.961671	-0.000114
1053	1.0467e+02	-1.9122	-6.729905	0.000547	5.474028	1.854651	-0.000219
1054	1.0477e+02	-1.9540	-6.879279	0.000375	3.750723	1.270779	-0.000150
1055	1.0487e+02	-1.9941	-7.052876	0.000436	4.358948	1.476852	-0.000174
1056	1.0497e+02	-2.0342	-7.278956	0.000568	5.676769	1.923342	-0.000227
1057	1.0507e+02	-2.0695	-7.428330	0.000375	3.750723	1.270779	-0.000150
1058	1.0517e+02	-2.1096	-7.610001	0.000456	4.561690	1.545542	-0.000183
1059	1.0527e+02	-2.1577	-7.775523	0.000416	4.156206	1.408161	-0.000166
1060	1.0537e+02	-2.1930	-7.949120	0.000436	4.358948	1.476852	-0.000174
1061	1.0547e+02	-2.2331	-8.146940	0.000497	4.967173	1.682924	-0.000199
1062	1.0557e+02	-2.2716	-8.320537	0.000436	4.358948	1.476852	-0.000174
1063	1.0567e+02	-2.3133	-8.494134	0.000436	4.358948	1.476852	-0.000174
1064	1.0577e+02	-2.3486	-8.671768	0.000446	4.460319	1.511197	-0.000179
1065	1.0587e+02	-2.3919	-8.841327	0.000426	4.257577	1.442506	-0.000170
1066	1.0597e+02	-2.4352	-9.027036	0.000466	4.663061	1.579888	-0.000187
1067	1.0607e+02	-2.4689	-9.180447	0.000385	3.852093	1.305125	-0.000154
1068	1.0617e+02	-2.5058	-9.386341	0.000517	5.169915	1.751615	-0.000207
1069	1.0627e+02	-2.5475	-9.551863	0.000416	4.156206	1.408161	-0.000166
1070	1.0637e+02	-2.5956	-9.737571	0.000466	4.663061	1.579888	-0.000187
1071	1.0647e+02	-2.6325	-9.895020	0.000395	3.953464	1.339470	-0.000158
1072	1.0656e+02	-2.6710	-10.092839	0.000497	4.967173	1.682924	-0.000199
1073	1.0666e+02	-2.7095	-10.258362	0.000416	4.156206	1.408161	-0.000166
1074	1.0676e+02	-2.7529	-10.427922	0.000426	4.257577	1.442506	-0.000170
1075	1.0686e+02	-2.8010	-10.593444	0.000416	4.156206	1.408161	-0.000166
1076	1.0696e+02	-2.8315	-10.746855	0.000385	3.852093	1.305125	-0.000154
1077	1.0706e+02	-2.8652	-10.928526	0.000456	4.561690	1.545542	-0.000183
1078	1.0716e+02	-2.9133	-11.106160	0.000446	4.460319	1.511197	-0.000179
1079	1.0726e+02	-2.9518	-11.271683	0.000416	4.156206	1.408161	-0.000166
1080	1.0736e+02	-2.9903	-11.449317	0.000446	4.460319	1.511197	-0.000179
1081	1.0746e+02	-3.0304	-11.622914	0.000436	4.358948	1.476852	-0.000174
1082	1.0756e+02	-3.0753	-11.768251	0.000365	3.649352	1.236434	-0.000146
1083	1.0766e+02	-3.1026	-11.949922	0.000456	4.561690	1.545542	-0.000183
1084	1.0776e+02	-3.1475	-12.131593	0.000456	4.561690	1.545542	-0.000183
1085	1.0786e+02	-3.1876	-12.276930	0.000365	3.649352	1.236434	-0.000146
1086	1.0796e+02	-3.2245	-12.462638	0.000466	4.663061	1.579888	-0.000187
1087	1.0806e+02	-3.2758	-12.644309	0.000456	4.561690	1.545542	-0.000183
1088	1.0816e+02	-3.3079	-12.769460	0.000314	3.142497	1.064707	-0.000126
1089	1.0826e+02	-3.3545	-12.914797	0.000365	3.649352	1.236434	-0.000146
1090	1.0836e+02	-3.3881	-13.124728	0.000527	5.271286	1.785960	-0.000211
1091	1.0845e+02	-3.4298	-13.302362	0.000446	4.460319	1.511197	-0.000179
1092	1.0855e+02	-3.4651	-13.439625	0.000345	3.446610	1.167743	-0.000138
1093	1.0865e+02	-3.5004	-13.617259	0.000446	4.460319	1.511197	-0.000179
1094	1.0875e+02	-3.5518	-13.794893	0.000446	4.460319	1.511197	-0.000179
1095	1.0885e+02	-3.5823	-13.988675	0.000487	4.865802	1.648578	-0.000195
1096	1.0895e+02	-3.6256	-14.085567	0.000243	2.432901	0.824289	-0.000097
1097	1.0905e+02	-3.6641	-14.299535	0.000537	5.372657	1.820305	-0.000215
1098	1.0915e+02	-3.7106	-14.436797	0.000345	3.446610	1.167743	-0.000138
1099	1.0925e+02	-3.7395	-14.614431	0.000446	4.460319	1.511197	-0.000179
1100	1.0935e+02	-3.7892	-14.751694	0.000345	3.446610	1.167743	-0.000138
1101	1.0945e+02	-3.8277	-14.945477	0.000487	4.865802	1.648578	-0.000195
1102	1.0955e+02	-3.8694	-15.094851	0.000375	3.750723	1.270779	-0.000150
1103	1.0965e+02	-3.9111	-15.284596	0.000476	4.764431	1.614233	-0.000191
1104	1.0975e+02	-3.9512	-15.446081	0.000405	4.054835	1.373815	-0.000162
1105	1.0985e+02	-3.9833	-15.575270	0.000324	3.243868	1.099052	-0.000130
1106	1.0995e+02	-4.0218	-15.736755	0.000405	4.054835	1.373815	-0.000162
1107	1.1005e+02	-4.0651	-15.894203	0.000395	3.953464	1.339470	-0.000158
1108	1.1015e+02	-4.1020	-16.051652	0.000395	3.953464	1.339470	-0.000158
1109	1.1025e+02	-4.1405	-16.241397	0.000476	4.764431	1.614233	-0.000191
1110	1.1035e+02	-4.1887	-16.382697	0.000355	3.547981	1.202088	-0.000142
1111	1.1044e+02	-4.2239	-16.528034	0.000365	3.649352	1.236434	-0.000146
1112	1.1054e+02	-4.2608	-16.681445	0.000385	3.852093	1.305125	-0.000154
1113	1.1064e+02	-4.3074	-16.859079	0.000446	4.460319	1.511197	-0.000179
1114	1.1074e+02	-4.3475	-17.032676	0.000436	4.358948	1.476852	-0.000174
1115	1.1084e+02	-4.3828	-17.169938	0.000345	3.446610	1.167743	-0.000138
1116	1.1094e+02	-4.4181	-17.311238	0.000355	3.547981	1.202088	-0.000142
1117	1.1104e+02	-4.4614	-17.452538	0.000355	3.547981	1.202088	-0.000142
1118	1.1114e+02	-4.5063	-17.601912	0.000375	3.750723	1.270779	-0.000150
1119	1.1124e+02	-4.5320	-17.811843	0.000527	5.271286	1.785960	-0.000211
1120	1.1134e+02	-4.5833	-17.928920	0.000294	2.939756	0.996016	-0.000118
1121	1.1144e+02	-4.6282	-18.094442	0.000416	4.156206	1.408161	-0.000166
1122	1.1154e+02	-4.6635	-18.251891	0.000395	3.953464	1.339470	-0.000158
1123	1.1164e+02	-4.7068	-18.413376	0.000405	4.054835	1.373815	-0.000162
1124	1.1174e+02	-4.7421	-18.554676	0.000355	3.547981	1.202088	-0.000142
1125	1.1184e+02	-4.7854	-18.736347	0.000456	4.561690	1.545542	-0.000183
1126	1.1194e+02	-4.8191	-18.841312	0.000264	2.635643	0.892980	-0.000105
1127	1.1204e+02	-4.8608	-18.998761	0.000395	3.953464	1.339470	-0.000158
1128	1.1214e+02	-4.9073	-19.188506	0.000476	4.764431	1.614233	-0.000191
1129	1.1224e+02	-4.9410	-19.313657	0.000314	3.142497	1.064707	-0.000126
1130	1.1234e+02	-4.9908	-19.467069	0.000385	3.852093	1.305125	-0.000154
1131	1.1244e+02	-5.0148	-19.677000	0.000527	5.271286	1.785960	-0.000211
1132	1.1253e+02	-5.0646	-19.798114	0.000304	3.041126	1.030362	-0.000122
1133	1.1263e+02	-5.1095	-19.959599	0.000405	4.054835	1.373815	-0.000162
1134	1.1273e+02	-5.1384	-20.108973	0.000375	3.750723	1.270779	-0.000150
1135	1.1283e+02	-5.1801	-20.266421	0.000395	3.953464	1.339470	-0.000158
1136	1.1293e+02	-5.2250	-20.391573	0.000314	3.142497	1.064707	-0.000126
1137	1.1303e+02	-5.2539	-20.557095	0.000416	4.156206	1.408161	-0.000166
1138	1.1313e+02	-5.2988	-20.718581	0.000405	4.054835	1.373815	-0.000162
1139	1.1323e+02	-5.3437	-20.876029	0.000395	3.953464	1.339470	-0.000158
1140	1.1333e+02	-5.3774	-21.045589	0.000426	4.257577	1.442506	-0.000170
1141	1.1343e+02	-5.4127	-21.194963	0.000375	3.750723	1.270779	-0.000150
1142	1.1353e+02	-5.4544	-21.320114	0.000314	3.142497	1.064707	-0.000126
1143	1.1363e+02	-5.5009	-21.461414	0.000355	3.547981	1.202088	-0.000142
1144	1.1373e+02	-5.5378	-21.647122	0.000466	4.663061	1.579888	-0.000187
1145	1.1383e+02	-5.5859	-21.788422	0.000355	3.547981	1.202088	-0.000142
1146	1.1393e+02	-5.6260	-21.917610	0.000324	3.243868	1.099052	-0.000130
1147	1.1403e+02	-5.6710	-22.079095	0.000405	4.054835	1.373815	-0.000162
1148	1.1413e+02	-5.6966	-22.264804	0.000466	4.663061	1.579888	-0.000187
1149	1.1423e+02	-5.7367	-22.410140	0.000365	3.649352	1.236434	-0.000146
1150	1.1433e+02	-5.7897	-22.551440	0.000355	3.547981	1.202088	-0.000142
1151	1.1442e+02	-5.8121	-22.696777	0.000365	3.649352	1.236434	-0.000146
1152	1.1452e+02	-5.8538	-22.842114	0.000365	3.649352	1.236434	-0.000146
1153	1.1462e+02	-5.8972	-23.003599	0.000405	4.054835	1.373815	-0.000162
1154	1.1472e+02	-5.9405	-23.108565	0.000264	2.635643	0.892980	-0.000105
1155	1.1482e+02	-5.9822	-23.294273	0.000466	4.663061	1.579888	-0.000187
1156	1.1492e+02	-6.0159	-23.419424	0.000314	3.142497	1.064707	-0.000126
1157	1.1502e+02	-6.0592	-23.617244	0.000497	4.967173	1.682924	-0.000199
1158	1.1512e+02	-6.0977	-23.754507	0.000345	3.446610	1.167743	-0.000138
1159	1.1522e+02	-6.1330	-23.899844	0.000365	3.649352	1.236434	-0.000146
1160	1.1532e+02	-6.1763	-24.037106	0.000345	3.446610	1.167743	-0.000138
1161	1.1542e+02	-6.2260	-24.166295	0.000324	3.243868	1.099052	-0.000130
1162	1.1552e+02	-6.2565	-24.356040	0.000476	4.764431	1.614233	-0.000191
1163	1.1562e+02	-6.3030	-24.509451	0.000385	3.852093	1.305125	-0.000154
1164	1.1572e+02	-6.3383	-24.614417	0.000264	2.635643	0.892980	-0.000105
1165	1.1582e+02	-6.3688	-24.792051	0.000446	4.460319	1.511197	-0.000179
1166	1.1592e+02	-6.4137	-24.929313	0.000345	3.446610	1.167743	-0.000138
1167	1.1602e+02	-6.4618	-25.066576	0.000345	3.446610	1.167743	-0.000138
1168	1.1612e+02	-6.4891	-25.215950	0.000375	3.750723	1.270779	-0.000150
1169	1.1622e+02	-6.5324	-25.337064	0.000304	3.041126	1.030362	-0.000122
1170	1.1632e+02	-6.5725	-25.506624	0.000426	4.257577	1.442506	-0.000170
1171	1.1642e+02	-6.6094	-25.631775	0.000314	3.142497	1.064707	-0.000126
1172	1.1651e+02	-6.6511	-25.797297	0.000416	4.156206	1.408161	-0.000166
1173	1.1661e+02	-6.6897	-25.902263	0.000264	2.635643	0.892980	-0.000105
1174	1.1671e+02	-6.7314	-26.120268	0.000547	5.474028	1.854651	-0.000219
1175	1.1681e+02	-6.7683	-26.217159	0.000243	2.432901	0.824289	-0.000097
1176	1.1691e+02	-6.8116	-26.410942	0.000487	4.865802	1.648578	-0.000195
1177	1.1701e+02	-6.8517	-26.536093	0.000314	3.142497	1.064707	-0.000126
1178	1.1711e+02	-6.8934	-26.705653	0.000426	4.257577	1.442506	-0.000170
1179	1.1721e+02	-6.9399	-26.842916	0.000345	3.446610	1.167743	-0.000138
1180	1.1731e+02	-6.9672	-26.976141	0.000335	3.345239	1.133398	-0.000134
1181	1.1741e+02	-7.0073	-27.105329	0.000324	3.243868	1.099052	-0.000130
1182	1.1751e+02	-7.0490	-27.282963	0.000446	4.460319	1.511197	-0.000179
1183	1.1761e+02	-7.0971	-27.383892	0.000253	2.534272	0.858635	-0.000101
1184	1.1771e+02	-7.1260	-27.561526	0.000446	4.460319	1.511197	-0.000179
1185	1.1781e+02	-7.1693	-27.670528	0.000274	2.737014	0.927325	-0.000110
1186	1.1791e+02	-7.2046	-27.803754	0.000335	3.345239	1.133398	-0.000134
1187	1.1801e+02	-7.2511	-27.965239	0.000405	4.054835	1.373815	-0.000162
1188	1.1811e+02	-7.2896	-28.130762	0.000416	4.156206	1.408161	-0.000166
1189	1.1821e+02	-7.3346	-28.259950	0.000324	3.243868	1.099052	-0.000130
1190	1.1831e+02	-7.3618	-28.377027	0.000294	2.939756	0.996016	-0.000118
1191	1.1841e+02	-7.4148	-28.550624	0.000436	4.358948	1.476852	-0.000174
1192	1.1850e+02	-7.4533	-28.704035	0.000385	3.852093	1.305125	-0.000154
1193	1.1860e+02	-7.4950	-28.825149	0.000304	3.041126	1.030362	-0.000122
1194	1.1870e+02	-7.5319	-28.974523	0.000375	3.750723	1.270779	-0.000150
1195	1.1880e+02	-7.5704	-29.123897	0.000375	3.750723	1.270779	-0.000150
1196	1.1890e+02	-7.6121	-29.232900	0.000274	2.737014	0.927325	-0.000110
1197	1.1900e+02	-7.6570	-29.450905	0.000547	5.474028	1.854651	-0.000219
1198	1.1910e+02	-7.6939	-29.547796	0.000243	2.432901	0.824289	-0.000097
1199	1.1920e+02	-7.7276	-29.656799	0.000274	2.737014	0.927325	-0.000110
1200	1.1930e+02	-7.7661	-29.846545	0.000476	4.764431	1.614233	-0.000191
1201	1.1940e+02	-7.8126	-29.975733	0.000324	3.243868	1.099052	-0.000130
1202	1.1950e+02	-7.8447	-30.117033	0.000355	3.547981	1.202088	-0.000142
1203	1.1960e+02	-7.8800	-30.286592	0.000426	4.257577	1.442506	-0.000170
1204	1.1970e+02	-7.9313	-30.371372	0.000213	2.128789	0.721253	-0.000085
1205	1.1980e+02	-7.9666	-30.520746	0.000375	3.750723	1.270779	-0.000150
1206	1.1990e+02	-8.0019	-30.670120	0.000375	3.750723	1.270779	-0.000150
1207	1.2000e+02	-8.0549	-30.823531	0.000385	3.852093	1.305125	-0.000154
1208	1.2010e+02	-8.0885	-30.956757	0.000335	3.345239	1.133398	-0.000134
1209	1.2020e+02	-8.1286	-31.094019	0.000345	3.446610	1.167743	-0.000138
1210	1.2030e+02	-8.1623	-31.247431	0.000385	3.852093	1.305125	-0.000154
1211	1.2039e+02	-8.2121	-31.408916	0.000405	4.054835	1.373815	-0.000162
1212	1.2049e+02	-8.2442	-31.521956	0.000284	2.838385	0.961671	-0.000114
1213	1.2059e+02	-8.2907	-31.667293	0.000365	3.649352	1.236434	-0.000146
1214	1.2069e+02	-8.3308	-31.804555	0.000345	3.446610	1.167743	-0.000138
1215	1.2079e+02	-8.3645	-31.953929	0.000375	3.750723	1.270779	-0.000150
1216	1.2089e+02	-8.4094	-32.054858	0.000253	2.534272	0.858635	-0.000101
1217	1.2099e+02	-8.4431	-32.228455	0.000436	4.358948	1.476852	-0.000174
1218	1.2109e+02	-8.4880	-32.349569	0.000304	3.041126	1.030362	-0.000122
1219	1.2119e+02	-8.5329	-32.486831	0.000345	3.446610	1.167743	-0.000138
1220	1.2129e+02	-8.5570	-32.595834	0.000274	2.737014	0.927325	-0.000110
1221	1.2139e+02	-8.6067	-32.745208	0.000375	3.750723	1.270779	-0.000150
1222	1.2149e+02	-8.6468	-32.886508	0.000355	3.547981	1.202088	-0.000142
1223	1.2159e+02	-8.6869	-33.023770	0.000345	3.446610	1.167743	-0.000138
1224	1.2169e+02	-8.7254	-33.120662	0.000243	2.432901	0.824289	-0.000097
1225	1.2179e+02	-8.7655	-33.270036	0.000375	3.750723	1.270779	-0.000150
1226	1.2189e+02	-8.8104	-33.391150	0.000304	3.041126	1.030362	-0.000122
1227	1.2199e+02	-8.8409	-33.528412	0.000345	3.446610	1.167743	-0.000138
1228	1.2209e+02	-8.8891	-33.669712	0.000355	3.547981	1.202088	-0.000142
1229	1.2219e+02	-8.9276	-33.831197	0.000405	4.054835	1.373815	-0.000162
1230	1.2229e+02	-8.9580	-33.936163	0.000264	2.635643	0.892980	-0.000105
1231	1.2239e+02	-9.0078	-34.089574	0.000385	3.852093	1.305125	-0.000154
1232	1.2248e+02	-9.0431	-34.190503	0.000253	2.534272	0.858635	-0.000101
1233	1.2258e+02	-9.0928	-34.360062	0.000426	4.257577	1.442506	-0.000170
1234	1.2268e+02	-9.1265	-34.477139	0.000294	2.939756	0.996016	-0.000118
1235	1.2278e+02	-9.1618	-34.574030	0.000243	2.432901	0.824289	-0.000097
1236	1.2288e+02	-9.2003	-34.759739	0.000466	4.663061	1.579888	-0.000187
1237	1.2298e+02	-9.2500	-34.868741	0.000274	2.737014	0.927325	-0.000110
1238	1.2308e+02	-9.2837	-35.022153	0.000385	3.852093	1.305125	-0.000154
1239	1.2318e+02	-9.3254	-35.110970	0.000223	2.230159	0.755598	-0.000089
1240	1.2328e+02	-9.3623	-35.268418	0.000395	3.953464	1.339470	-0.000158
1241	1.2338e+02	-9.4024	-35.413755	0.000365	3.649352	1.236434	-0.000146
1242	1.2348e+02	-9.4457	-35.478349	0.000162	1.621934	0.549526	-0.000065
1243	1.2358e+02	-9.4955	-35.627723	0.000375	3.750723	1.270779	-0.000150
1244	1.2368e+02	-9.5291	-35.740763	0.000284	2.838385	0.961671	-0.000114
1245	1.2378e+02	-9.5612	-35.906285	0.000416	4.156206	1.408161	-0.000166
1246	1.2388e+02	-9.5917	-36.031436	0.000314	3.142497	1.064707	-0.000126
1247	1.2398e+02	-9.6366	-36.152551	0.000304	3.041126	1.030362	-0.000122
1248	1.2408e+02	-9.6831	-36.318073	0.000416	4.156206	1.408161	-0.000166
1249	1.2418e+02	-9.7265	-36.402853	0.000213	2.128789	0.721253	-0.000085
1250	1.2428e+02	-9.7585	-36.568376	0.000416	4.156206	1.408161	-0.000166
1251	1.2438e+02	-9.8035	-36.681415	0.000284	2.838385	0.961671	-0.000114
1252	1.2447e+02	-9.8275	-36.806567	0.000314	3.142497	1.064707	-0.000126
1253	1.2457e+02	-9.8757	-36.899421	0.000233	2.331530	0.789944	-0.000093
1254	1.2467e+02	-9.9206	-37.052832	0.000385	3.852093	1.305125	-0.000154
1255	1.2477e+02	-9.9639	-37.206243	0.000385	3.852093	1.305125	-0.000154
1256	1.2487e+02	-9.9928	-37.291023	0.000213	2.128789	0.721253	-0.000085
1257	1.2497e+02	-10.0425	-37.444434	0.000385	3.852093	1.305125	-0.000154
1258	1.2507e+02	-10.0762	-37.597845	0.000385	3.852093	1.305125	-0.000154
1259	1.2517e+02	-10.1195	-37.694736	0.000243	2.432901	0.824289	-0.000097
1260	1.2527e+02	-10.1612	-37.787591	0.000233	2.331530	0.789944	-0.000093
1261	1.2537e+02	-10.1837	-37.912742	0.000314	3.142497	1.064707	-0.000126
1262	1.2547e+02	-10.2414	-38.086339	0.000436	4.358948	1.476852	-0.000174
1263	1.2557e+02	-10.2831	-38.191304	0.000264	2.635643	0.892980	-0.000105
1264	1.2567e+02	-10.3313	-38.328567	0.000345	3.446610	1.167743	-0.000138
1265	1.2577e+02	-10.3569	-38.445644	0.000294	2.939756	0.996016	-0.000118
1266	1.2587e+02	-10.3970	-38.546572	0.000253	2.534272	0.858635	-0.000101
1267	1.2597e+02	-10.4371	-38.708057	0.000405	4.054835	1.373815	-0.000162
1268	1.2607e+02	-10.4756	-38.837246	0.000324	3.243868	1.099052	-0.000130
1269	1.2617e+02	-10.5141	-38.934137	0.000243	2.432901	0.824289	-0.000097
1270	1.2627e+02	-10.5575	-39.075437	0.000355	3.547981	1.202088	-0.000142
1271	1.2636e+02	-10.5960	-39.180402	0.000264	2.635643	0.892980	-0.000105
1272	1.2646e+02	-10.6441	-39.277294	0.000243	2.432901	0.824289	-0.000097
1273	1.2656e+02	-10.6810	-39.434742	0.000395	3.953464	1.339470	-0.000158
1274	1.2666e+02	-10.7115	-39.543745	0.000274	2.737014	0.927325	-0.000110
1275	1.2676e+02	-10.7596	-39.648710	0.000264	2.635643	0.892980	-0.000105
1276	1.2686e+02	-10.7997	-39.798084	0.000375	3.750723	1.270779	-0.000150
1277	1.2696e+02	-10.8334	-39.927272	0.000324	3.243868	1.099052	-0.000130
1278	1.2706e+02	-10.8831	-40.028201	0.000253	2.534272	0.858635	-0.000101
1279	1.2716e+02	-10.9168	-40.133166	0.000264	2.635643	0.892980	-0.000105
1280	1.2726e+02	-10.9585	-40.294652	0.000405	4.054835	1.373815	-0.000162
1281	1.2736e+02	-10.9938	-40.395580	0.000253	2.534272	0.858635	-0.000101
1282	1.2746e+02	-11.0323	-40.512657	0.000294	2.939756	0.996016	-0.000118
1283	1.2756e+02	-11.0756	-40.645883	0.000335	3.345239	1.133398	-0.000134
1284	1.2766e+02	-11.1173	-40.795257	0.000375	3.750723	1.270779	-0.000150
1285	1.2776e+02	-11.1623	-40.896185	0.000253	2.534272	0.858635	-0.000101
1286	1.2786e+02	-11.1991	-40.989039	0.000233	2.331530	0.789944	-0.000093
1287	1.2796e+02	-11.2441	-41.154562	0.000416	4.156206	1.408161	-0.000166
1288	1.2806e+02	-11.2729	-41.247416	0.000233	2.331530	0.789944	-0.000093
1289	1.2816e+02	-11.3195	-41.348344	0.000253	2.534272	0.858635	-0.000101
1290	1.2826e+02	-11.3499	-41.449273	0.000253	2.534272	0.858635	-0.000101
1291	1.2835e+02	-11.3965	-41.602684	0.000385	3.852093	1.305125	-0.000154
1292	1.2845e+02	-11.4382	-41.711686	0.000274	2.737014	0.927325	-0.000110
1293	1.2855e+02	-11.4831	-41.844912	0.000335	3.345239	1.133398	-0.000134
1294	1.2865e+02	-11.5104	-41.966026	0.000304	3.041126	1.030362	-0.000122
1295	1.2875e+02	-11.5569	-42.079066	0.000284	2.838385	0.961671	-0.000114
1296	1.2885e+02	-11.5922	-42.184031	0.000264	2.635643	0.892980	-0.000105
1297	1.2895e+02	-11.6355	-42.329368	0.000365	3.649352	1.236434	-0.000146
1298	1.2905e+02	-11.6676	-42.442408	0.000284	2.838385	0.961671	-0.000114
1299	1.2915e+02	-11.7173	-42.559485	0.000294	2.939756	0.996016	-0.000118
1300	1.2925e+02	-11.7606	-42.672525	0.000284	2.838385	0.961671	-0.000114
1301	1.2935e+02	-11.7975	-42.785565	0.000284	2.838385	0.961671	-0.000114
1302	1.2945e+02	-11.8408	-42.947050	0.000405	4.054835	1.373815	-0.000162
1303	1.2955e+02	-11.8697	-43.068164	0.000304	3.041126	1.030362	-0.000122
1304	1.2965e+02	-11.9066	-43.165055	0.000243	2.432901	0.824289	-0.000097
1305	1.2975e+02	-11.9547	-43.274058	0.000274	2.737014	0.927325	-0.000110
1306	1.2985e+02	-11.9804	-43.387098	0.000284	2.838385	0.961671	-0.000114
1307	1.2995e+02	-12.0382	-43.524360	0.000345	3.446610	1.167743	-0.000138
1308	1.3005e+02	-12.0735	-43.649512	0.000314	3.142497	1.064707	-0.000126
1309	1.3015e+02	-12.1184	-43.758514	0.000274	2.737014	0.927325	-0.000110
1310	1.3025e+02	-12.1537	-43.875591	0.000294	2.939756	0.996016	-0.000118
1311	1.3034e+02	-12.1986	-44.012854	0.000345	3.446610	1.167743	-0.000138
1312	1.3044e+02	-12.2451	-44.097634	0.000213	2.128789	0.721253	-0.000085
1313	1.3054e+02	-12.2740	-44.214711	0.000294	2.939756	0.996016	-0.000118
1314	1.3064e+02	-12.3141	-44.360047	0.000365	3.649352	1.236434	-0.000146
1315	1.3074e+02	-12.3558	-44.473087	0.000284	2.838385	0.961671	-0.000114
1316	1.3084e+02	-12.3879	-44.618424	0.000365	3.649352	1.236434	-0.000146
1317	1.3094e+02	-12.4344	-44.731464	0.000284	2.838385	0.961671	-0.000114
1318	1.3104e+02	-12.4681	-44.876801	0.000365	3.649352	1.236434	-0.000146
1319	1.3114e+02	-12.5146	-44.969655	0.000233	2.331530	0.789944	-0.000093
1320	1.3124e+02	-12.5403	-45.127103	0.000395	3.953464	1.339470	-0.000158
1321	1.3134e+02	-12.5996	-45.175549	0.000122	1.216451	0.412145	-0.000049
1322	1.3144e+02	-12.6398	-45.341071	0.000416	4.156206	1.408161	-0.000166
1323	1.3154e+02	-12.6654	-45.482371	0.000355	3.547981	1.202088	-0.000142
1324	1.3164e+02	-12.7087	-45.530817	0.000122	1.216451	0.412145	-0.000049
1325	1.3174e+02	-12.7488	-45.668079	0.000345	3.446610	1.167743	-0.000138
1326	1.3184e+02	-12.7922	-45.809379	0.000355	3.547981	1.202088	-0.000142
1327	1.3194e+02	-12.8258	-45.938568	0.000324	3.243868	1.099052	-0.000130
1328	1.3204e+02	-12.8756	-46.039496	0.000253	2.534272	0.858635	-0.000101
1329	1.3214e+02	-12.9077	-46.160610	0.000304	3.041126	1.030362	-0.000122
1330	1.3224e+02	-12.9510	-46.301910	0.000355	3.547981	1.202088	-0.000142
1331	1.3234e+02	-12.9847	-46.394764	0.000233	2.331530	0.789944	-0.000093
1332	1.3243e+02	-13.0200	-46.495692	0.000253	2.534272	0.858635	-0.000101
1333	1.3253e+02	-13.0745	-46.653141	0.000395	3.953464	1.339470	-0.000158
1334	1.3263e+02	-13.1098	-46.770218	0.000294	2.939756	0.996016	-0.000118
1335	1.3273e+02	-13.1403	-46.871146	0.000253	2.534272	0.858635	-0.000101
1336	1.3283e+02	-13.1884	-47.004371	0.000335	3.345239	1.133398	-0.000134
1337	1.3293e+02	-13.2221	-47.105300	0.000253	2.534272	0.858635	-0.000101
1338	1.3303e+02	-13.2606	-47.230451	0.000314	3.142497	1.064707	-0.000126
1339	1.3313e+02	-13.3007	-47.363676	0.000335	3.345239	1.133398	-0.000134
1340	1.3323e+02	-13.3440	-47.448456	0.000213	2.128789	0.721253	-0.000085
1341	1.3333e+02	-13.3841	-47.589756	0.000355	3.547981	1.202088	-0.000142
1342	1.3343e+02	-13.4274	-47.686647	0.000243	2.432901	0.824289	-0.000097
1343	1.3353e+02	-13.4804	-47.791613	0.000264	2.635643	0.892980	-0.000105
1344	1.3363e+02	-13.5012	-47.916764	0.000314	3.142497	1.064707	-0.000126
1345	1.3373e+02	-13.5477	-48.041915	0.000314	3.142497	1.064707	-0.000126
1346	1.3383e+02	-13.5846	-48.150918	0.000274	2.737014	0.927325	-0.000110
1347	1.3393e+02	-13.6344	-48.304329	0.000385	3.852093	1.305125	-0.000154
1348	1.3403e+02	-13.6713	-48.413332	0.000274	2.737014	0.927325	-0.000110
1349	1.3413e+02	-13.6985	-48.522334	0.000274	2.737014	0.927325	-0.000110
1350	1.3423e+02	-13.7435	-48.611151	0.000223	2.230159	0.755598	-0.000089
1351	1.3432e+02	-13.7884	-48.752451	0.000355	3.547981	1.202088	-0.000142
1352	1.3442e+02	-13.8124	-48.877602	0.000314	3.142497	1.064707	-0.000126
1353	1.3452e+02	-13.8686	-48.978531	0.000253	2.534272	0.858635	-0.000101
1354	1.3462e+02	-13.9023	-49.099645	0.000304	3.041126	1.030362	-0.000122
1355	1.3472e+02	-13.9408	-49.208648	0.000274	2.737014	0.927325	-0.000110
1356	1.3482e+02	-13.9809	-49.353984	0.000365	3.649352	1.236434	-0.000146
1357	1.3492e+02	-14.0290	-49.467024	0.000284	2.838385	0.961671	-0.000114
1358	1.3502e+02	-14.0627	-49.608324	0.000355	3.547981	1.202088	-0.000142
1359	1.3512e+02	-14.1044	-49.709252	0.000253	2.534272	0.858635	-0.000101
1360	1.3522e+02	-14.1381	-49.814218	0.000264	2.635643	0.892980	-0.000105
1361	1.3532e+02	-14.1798	-49.951480	0.000345	3.446610	1.167743	-0.000138
1362	1.3542e+02	-14.2183	-50.076632	0.000314	3.142497	1.064707	-0.000126
1363	1.3552e+02	-14.2632	-50.169486	0.000233	2.331530	0.789944	-0.000093
1364	1.3562e+02	-14.3098	-50.274451	0.000264	2.635643	0.892980	-0.000105
1365	1.3572e+02	-14.3370	-50.427863	0.000385	3.852093	1.305125	-0.000154
1366	1.3582e+02	-14.3787	-50.536865	0.000274	2.737014	0.927325	-0.000110
1367	1.3592e+02	-14.4365	-50.670091	0.000335	3.345239	1.133398	-0.000134
1368	1.3602e+02	-14.4638	-50.738722	0.000172	1.723305	0.583872	-0.000069
1369	1.3612e+02	-14.5055	-50.888096	0.000375	3.750723	1.270779	-0.000150
1370	1.3622e+02	-14.5472	-51.033433	0.000365	3.649352	1.236434	-0.000146
1371	1.3631e+02	-14.5809	-51.106101	0.000182	1.824676	0.618217	-0.000073
1372	1.3641e+02	-14.6178	-51.247401	0.000355	3.547981	1.202088	-0.000142
1373	1.3651e+02	-14.6659	-51.380627	0.000335	3.345239	1.133398	-0.000134
1374	1.3661e+02	-14.6948	-51.465406	0.000213	2.128789	0.721253	-0.000085
1375	1.3671e+02	-14.7445	-51.570372	0.000264	2.635643	0.892980	-0.000105
1376	1.3681e+02	-14.7782	-51.707635	0.000345	3.446610	1.167743	-0.000138
1377	1.3691e+02	-14.8199	-51.804526	0.000243	2.432901	0.824289	-0.000097
1378	1.3701e+02	-14.8664	-51.937751	0.000335	3.345239	1.133398	-0.000134
1379	1.3711e+02	-14.9097	-52.058865	0.000304	3.041126	1.030362	-0.000122
1380	1.3721e+02	-14.9386	-52.196128	0.000345	3.446610	1.167743	-0.000138
1381	1.3731e+02	-14.9835	-52.260722	0.000162	1.621934	0.549526	-0.000065
1382	1.3741e+02	-15.0156	-52.422208	0.000405	4.054835	1.373815	-0.000162
1383	1.3751e+02	-15.0718	-52.527173	0.000264	2.635643	0.892980	-0.000105
1384	1.3761e+02	-15.0974	-52.620027	0.000233	2.331530	0.789944	-0.000093
1385	1.3771e+02	-15.1504	-52.724993	0.000264	2.635643	0.892980	-0.000105
1386	1.3781e+02	-15.1905	-52.858218	0.000335	3.345239	1.133398	-0.000134
1387	1.3791e+02	-15.2194	-52.991444	0.000335	3.345239	1.133398	-0.000134
1388	1.3801e+02	-15.2595	-53.076224	0.000213	2.128789	0.721253	-0.000085
1389	1.3811e+02	-15.2980	-53.221560	0.000365	3.649352	1.236434	-0.000146
1390	1.3821e+02	-15.3397	-53.318452	0.000243	2.432901	0.824289	-0.000097
1391	1.3831e+02	-15.3846	-53.411306	0.000233	2.331530	0.789944	-0.000093
1392	1.3840e+02	-15.4215	-53.528383	0.000294	2.939756	0.996016	-0.000118
1393	1.3850e+02	-15.4632	-53.645460	0.000294	2.939756	0.996016	-0.000118
1394	1.3860e+02	-15.4905	-53.766574	0.000304	3.041126	1.030362	-0.000122
1395	1.3870e+02	-15.5370	-53.855391	0.000223	2.230159	0.755598	-0.000089
1396	1.3880e+02	-15.5867	-53.976505	0.000304	3.041126	1.030362	-0.000122
1397	1.3890e+02	-15.6268	-54.069359	0.000233	2.331530	0.789944	-0.000093
1398	1.3900e+02	-15.6589	-54.210659	0.000355	3.547981	1.202088	-0.000142
1399	1.3910e+02	-15.6894	-54.351958	0.000355	3.547981	1.202088	-0.000142
1400	1.3920e+02	-15.7391	-54.400404	0.000122	1.216451	0.412145	-0.000049
1401	1.3930e+02	-15.7760	-54.549778	0.000375	3.750723	1.270779	-0.000150
1402	1.3940e+02	-15.8209	-54.687041	0.000345	3.446610	1.167743	-0.000138
1403	1.3950e+02	-15.8578	-54.796043	0.000274	2.737014	0.927325	-0.000110
1404	1.3960e+02	-15.8979	-54.888897	0.000233	2.331530	0.789944	-0.000093
1405	1.3970e+02	-15.9413	-55.014049	0.000314	3.142497	1.064707	-0.000126
1406	1.3980e+02	-15.9669	-55.131126	0.000294	2.939756	0.996016	-0.000118
1407	1.3990e+02	-16.0151	-55.248203	0.000294	2.939756	0.996016	-0.000118
1408	1.4000e+02	-16.0568	-55.328945	0.000203	2.027418	0.686908	-0.000081
1409	1.4010e+02	-16.0889	-55.446022	0.000294	2.939756	0.996016	-0.000118
1410	1.4020e+02	-16.1370	-55.534839	0.000223	2.230159	0.755598	-0.000089
1411	1.4029e+02	-16.1755	-55.651916	0.000294	2.939756	0.996016	-0.000118
1412	1.4039e+02	-16.2156	-55.785142	0.000335	3.345239	1.133398	-0.000134
1413	1.4049e+02	-16.2637	-55.918367	0.000335	3.345239	1.133398	-0.000134
1414	1.4059e+02	-16.2958	-55.966813	0.000122	1.216451	0.412145	-0.000049
1415	1.4069e+02	-16.3359	-56.079853	0.000284	2.838385	0.961671	-0.000114
1416	1.4079e+02	-16.3760	-56.217115	0.000345	3.446610	1.167743	-0.000138
1417	1.4089e+02	-16.4145	-56.322081	0.000264	2.635643	0.892980	-0.000105
1418	1.4099e+02	-16.4530	-56.435120	0.000284	2.838385	0.961671	-0.000114
1419	1.4109e+02	-16.4915	-56.556235	0.000304	3.041126	1.030362	-0.000122
1420	1.4119e+02	-16.5348	-56.628903	0.000182	1.824676	0.618217	-0.000073
1421	1.4129e+02	-16.5749	-56.754054	0.000314	3.142497	1.064707	-0.000126
1422	1.4139e+02	-16.6215	-56.879205	0.000314	3.142497	1.064707	-0.000126
1423	1.4149e+02	-16.6535	-57.004357	0.000314	3.142497	1.064707	-0.000126
1424	1.4159e+02	-16.6953	-57.113359	0.000274	2.737014	0.927325	-0.000110
1425	1.4169e+02	-16.7305	-57.230436	0.000294	2.939756	0.996016	-0.000118
1426	1.4179e+02	-16.7771	-57.299068	0.000172	1.723305	0.583872	-0.000069
1427	1.4189e+02	-16.8140	-57.444404	0.000365	3.649352	1.236434	-0.000146
1428	1.4199e+02	-16.8541	-57.553407	0.000274	2.737014	0.927325	-0.000110
1429	1.4209e+02	-16.8829	-57.674521	0.000304	3.041126	1.030362	-0.000122
1430	1.4219e+02	-16.9327	-57.755264	0.000203	2.027418	0.686908	-0.000081
1431	1.4228e+02	-16.9712	-57.856192	0.000253	2.534272	0.858635	-0.000101
1432	1.4238e+02	-17.0177	-58.017678	0.000405	4.054835	1.373815	-0.000162
1433	1.4248e+02	-17.0434	-58.094383	0.000193	1.926047	0.652562	-0.000077
1434	1.4258e+02	-17.0963	-58.223572	0.000324	3.243868	1.099052	-0.000130
1435	1.4268e+02	-17.1396	-58.292203	0.000172	1.723305	0.583872	-0.000069
1436	1.4278e+02	-17.1701	-58.477911	0.000466	4.663061	1.579888	-0.000187
1437	1.4288e+02	-17.2118	-58.562691	0.000213	2.128789	0.721253	-0.000085
1438	1.4298e+02	-17.2599	-58.687842	0.000314	3.142497	1.064707	-0.000126
1439	1.4308e+02	-17.2856	-58.817031	0.000324	3.243868	1.099052	-0.000130
1440	1.4318e+02	-17.3209	-58.905848	0.000223	2.230159	0.755598	-0.000089
1441	1.4328e+02	-17.3803	-59.006776	0.000253	2.534272	0.858635	-0.000101
1442	1.4338e+02	-17.4236	-59.115779	0.000274	2.737014	0.927325	-0.000110
1443	1.4348e+02	-17.4460	-59.184410	0.000172	1.723305	0.583872	-0.000069
1444	1.4358e+02	-17.4877	-59.317635	0.000335	3.345239	1.133398	-0.000134
1445	1.4368e+02	-17.5343	-59.446824	0.000324	3.243868	1.099052	-0.000130
1446	1.4378e+02	-17.5696	-59.584086	0.000345	3.446610	1.167743	-0.000138
1447	1.4388e+02	-17.6097	-59.664829	0.000203	2.027418	0.686908	-0.000081
1448	1.4398e+02	-17.6498	-59.785943	0.000304	3.041126	1.030362	-0.000122
1449	1.4408e+02	-17.6851	-59.886872	0.000253	2.534272	0.858635	-0.000101
1450	1.4418e+02	-17.7332	-59.975689	0.000223	2.230159	0.755598	-0.000089
1451	1.4428e+02	-17.7685	-60.100840	0.000314	3.142497	1.064707	-0.000126
1452	1.4437e+02	-17.8134	-60.230028	0.000324	3.243868	1.099052	-0.000130
1453	1.4447e+02	-17.8567	-60.322882	0.000233	2.331530	0.789944	-0.000093
1454	1.4457e+02	-17.8920	-60.435922	0.000284	2.838385	0.961671	-0.000114
1455	1.4467e+02	-17.9305	-60.528776	0.000233	2.331530	0.789944	-0.000093
1456	1.4477e+02	-17.9706	-60.649890	0.000304	3.041126	1.030362	-0.000122
1457	1.4487e+02	-18.0171	-60.779079	0.000324	3.243868	1.099052	-0.000130
1458	1.4497e+02	-18.0524	-60.908267	0.000324	3.243868	1.099052	-0.000130
1459	1.4507e+02	-18.0861	-61.025344	0.000294	2.939756	0.996016	-0.000118
1460	1.4517e+02	-18.1278	-61.142421	0.000294	2.939756	0.996016	-0.000118
1461	1.4527e+02	-18.1744	-61.239312	0.000243	2.432901	0.824289	-0.000097
1462	1.4537e+02	-18.2064	-61.328129	0.000223	2.230159	0.755598	-0.000089
1463	1.4547e+02	-18.2449	-61.469429	0.000355	3.547981	1.202088	-0.000142
1464	1.4557e+02	-18.2931	-61.602654	0.000335	3.345239	1.133398	-0.000134
1465	1.4567e+02	-18.3332	-61.715694	0.000284	2.838385	0.961671	-0.000114
1466	1.4577e+02	-18.3717	-61.816622	0.000253	2.534272	0.858635	-0.000101
1467	1.4587e+02	-18.4054	-61.933699	0.000294	2.939756	0.996016	-0.000118
1468	1.4597e+02	-18.4503	-62.026553	0.000233	2.331530	0.789944	-0.000093
1469	1.4607e+02	-18.4824	-62.179965	0.000385	3.852093	1.305125	-0.000154
1470	1.4617e+02	-18.5321	-62.256670	0.000193	1.926047	0.652562	-0.000077
1471	1.4626e+02	-18.5706	-62.373747	0.000294	2.939756	0.996016	-0.000118
1472	1.4636e+02	-18.6027	-62.527158	0.000385	3.852093	1.305125	-0.000154
1473	1.4646e+02	-18.6412	-62.628087	0.000253	2.534272	0.858635	-0.000101
1474	1.4656e+02	-18.6893	-62.700755	0.000182	1.824676	0.618217	-0.000073
1475	1.4666e+02	-18.7262	-62.838018	0.000345	3.446610	1.167743	-0.000138
1476	1.4676e+02	-18.7663	-62.971243	0.000335	3.345239	1.133398	-0.000134
1477	1.4686e+02	-18.8016	-63.080246	0.000274	2.737014	0.927325	-0.000110
1478	1.4696e+02	-18.8449	-63.189249	0.000274	2.737014	0.927325	-0.000110
1479	1.4706e+02	-18.8866	-63.342660	0.000385	3.852093	1.305125	-0.000154
1480	1.4716e+02	-18.9203	-63.459737	0.000294	2.939756	0.996016	-0.000118
1481	1.4726e+02	-18.9604	-63.601036	0.000355	3.547981	1.202088	-0.000142
1482	1.4736e+02	-19.0166	-63.726188	0.000314	3.142497	1.064707	-0.000126
1483	1.4746e+02	-19.0455	-63.815005	0.000223	2.230159	0.755598	-0.000089
1484	1.4756e+02	-19.0840	-63.903822	0.000223	2.230159	0.755598	-0.000089
1485	1.4766e+02	-19.1321	-64.077418	0.000436	4.358948	1.476852	-0.000174
1486	1.4776e+02	-19.1626	-64.190458	0.000284	2.838385	0.961671	-0.000114
1487	1.4786e+02	-19.2059	-64.267164	0.000193	1.926047	0.652562	-0.000077
1488	1.4796e+02	-19.2428	-64.464983	0.000497	4.967173	1.682924	-0.000199
1489	1.4806e+02	-19.2909	-64.541689	0.000193	1.926047	0.652562	-0.000077
1490	1.4816e+02	-19.3166	-64.654729	0.000284	2.838385	0.961671	-0.000114
1491	1.4825e+02	-19.3663	-64.800066	0.000365	3.649352	1.236434	-0.000146
1492	1.4835e+02	-19.3984	-64.925217	0.000314	3.142497	1.064707	-0.000126
1493	1.4845e+02	-19.4417	-65.042294	0.000294	2.939756	0.996016	-0.000118
1494	1.4855e+02	-19.4866	-65.191668	0.000375	3.750723	1.270779	-0.000150
1495	1.4865e+02	-19.5283	-65.308745	0.000294	2.939756	0.996016	-0.000118
1496	1.4875e+02	-19.5556	-65.425822	0.000294	2.939756	0.996016	-0.000118
1497	1.4885e+02	-19.6069	-65.571159	0.000365	3.649352	1.236434	-0.000146
1498	1.4895e+02	-19.6358	-65.623641	0.000132	1.317821	0.446490	-0.000053
1499	1.4905e+02	-19.6775	-65.752830	0.000324	3.243868	1.099052	-0.000130
1500	1.4915e+02	-19.7208	-65.898167	0.000365	3.649352	1.236434	-0.000146
1501	1.4925e+02	-19.7609	-66.043504	0.000365	3.649352	1.236434	-0.000146
1502	1.4935e+02	-19.8010	-66.172692	0.000324	3.243868	1.099052	-0.000130
1503	1.4945e+02	-19.8379	-66.293806	0.000304	3.041126	1.030362	-0.000122
1504	1.4955e+02	-19.8732	-66.455291	0.000405	4.054835	1.373815	-0.000162
1505	1.4965e+02	-19.9198	-66.568331	0.000284	2.838385	0.961671	-0.000114
1506	1.4975e+02	-19.9631	-66.689445	0.000304	3.041126	1.030362	-0.000122
1507	1.4985e+02	-19.9968	-66.810559	0.000304	3.041126	1.030362	-0.000122
1508	1.4995e+02	-19.9615	-66.758077	0.000132	1.317821	0.446490	0.000053
1509	1.5005e+02	-19.9182	-66.729817	0.000071	0.709596	0.240418	0.000028
1510	1.5015e+02	-19.8877	-66.693482	0.000091	0.912338	0.309108	0.000037
1511	1.5025e+02	-19.8283	-66.624851	0.000172	1.723305	0.583872	0.000069
1512	1.5034e+02	-19.8010	-66.531997	0.000233	2.331530	0.789944	0.000093
1513	1.5044e+02	-19.7674	-66.515848	0.000041	0.405484	0.137382	0.000016
1514	1.5054e+02	-19.7080	-66.435106	0.000203	2.027418	0.686908	0.000081
1515	1.5064e+02	-19.6839	-66.334177	0.000253	2.534272	0.858635	0.000101
1516	1.5074e+02	-19.6342	-66.309954	0.000061	0.608225	0.206072	0.000024
1517	1.5084e+02	-19.6117	-66.301880	0.000020	0.202742	0.068691	0.000008
1518	1.5094e+02	-19.5556	-66.209026	0.000233	2.331530	0.789944	0.000093
1519	1.5104e+02	-19.5251	-66.091949	0.000294	2.939756	0.996016	0.000118
1520	1.5114e+02	-19.4834	-66.071763	0.000051	0.506854	0.171727	0.000020
1521	1.5124e+02	-19.4513	-66.019281	0.000132	1.317821	0.446490	0.000053
1522	1.5134e+02	-19.4064	-65.930464	0.000223	2.230159	0.755598	0.000089
1523	1.5144e+02	-19.3679	-65.873944	0.000142	1.419192	0.480835	0.000057
1524	1.5154e+02	-19.3198	-65.845684	0.000071	0.709596	0.240418	0.000028
1525	1.5164e+02	-19.2877	-65.736681	0.000274	2.737014	0.927325	0.000110
1526	1.5174e+02	-19.2444	-65.696310	0.000101	1.013709	0.343454	0.000041
1527	1.5184e+02	-19.2075	-65.611530	0.000213	2.128789	0.721253	0.000085
1528	1.5194e+02	-19.1754	-65.583270	0.000071	0.709596	0.240418	0.000028
1529	1.5204e+02	-19.1241	-65.474267	0.000274	2.737014	0.927325	0.000110
1530	1.5214e+02	-19.0888	-65.409673	0.000162	1.621934	0.549526	0.000065
1531	1.5224e+02	-19.0406	-65.361228	0.000122	1.216451	0.412145	0.000049
1532	1.5233e+02	-19.0053	-65.292596	0.000172	1.723305	0.583872	0.000069
1533	1.5243e+02	-18.9668	-65.195705	0.000243	2.432901	0.824289	0.000097
1534	1.5253e+02	-18.9299	-65.118999	0.000193	1.926047	0.652562	0.000077
1535	1.5263e+02	-18.8866	-65.001923	0.000294	2.939756	0.996016	0.000118
1536	1.5273e+02	-18.8481	-64.981737	0.000051	0.506854	0.171727	0.000020
1537	1.5283e+02	-18.8064	-64.905031	0.000193	1.926047	0.652562	0.000077
1538	1.5293e+02	-18.7599	-64.836400	0.000172	1.723305	0.583872	0.000069
1539	1.5303e+02	-18.7294	-64.739509	0.000243	2.432901	0.824289	0.000097
1540	1.5313e+02	-18.6813	-64.678952	0.000152	1.520563	0.515181	0.000061
1541	1.5323e+02	-18.6508	-64.578023	0.000253	2.534272	0.858635	0.000101
1542	1.5333e+02	-18.6123	-64.533615	0.000112	1.115080	0.377799	0.000045
1543	1.5343e+02	-18.5754	-64.452872	0.000203	2.027418	0.686908	0.000081
1544	1.5353e+02	-18.5305	-64.380204	0.000182	1.824676	0.618217	0.000073
1545	1.5363e+02	-18.4856	-64.291387	0.000223	2.230159	0.755598	0.000089
1546	1.5373e+02	-18.4503	-64.202570	0.000223	2.230159	0.755598	0.000089
1547	1.5383e+02	-18.4038	-64.117790	0.000213	2.128789	0.721253	0.000085
1548	1.5393e+02	-18.3701	-64.041084	0.000193	1.926047	0.652562	0.000077
1549	1.5403e+02	-18.3332	-63.956304	0.000213	2.128789	0.721253	0.000085
1550	1.5413e+02	-18.2883	-63.899784	0.000142	1.419192	0.480835	0.000057
1551	1.5422e+02	-18.2498	-63.806930	0.000233	2.331530	0.789944	0.000093
1552	1.5432e+02	-18.2129	-63.738299	0.000172	1.723305	0.583872	0.000069
1553	1.5442e+02	-18.1647	-63.641408	0.000243	2.432901	0.824289	0.000097
1554	1.5452e+02	-18.1230	-63.548554	0.000233	2.331530	0.789944	0.000093
1555	1.5462e+02	-18.0909	-63.435514	0.000284	2.838385	0.961671	0.000114
1556	1.5472e+02	-18.0476	-63.399180	0.000091	0.912338	0.309108	0.000037
1557	1.5482e+02	-18.0107	-63.282103	0.000294	2.939756	0.996016	0.000118
1558	1.5492e+02	-17.9722	-63.221546	0.000152	1.520563	0.515181	0.000061
1559	1.5502e+02	-17.9241	-63.136766	0.000213	2.128789	0.721253	0.000085
1560	1.5512e+02	-17.8824	-63.023726	0.000284	2.838385	0.961671	0.000114
1561	1.5522e+02	-17.8519	-62.942983	0.000203	2.027418	0.686908	0.000081
1562	1.5532e+02	-17.8118	-62.870315	0.000182	1.824676	0.618217	0.000073
1563	1.5542e+02	-17.7621	-62.789572	0.000203	2.027418	0.686908	0.000081
1564	1.5552e+02	-17.7220	-62.741127	0.000122	1.216451	0.412145	0.000049
1565	1.5562e+02	-17.6963	-62.587715	0.000385	3.852093	1.305125	0.000154
1566	1.5572e+02	-17.6466	-62.543307	0.000112	1.115080	0.377799	0.000045
1567	1.5582e+02	-17.6145	-62.442378	0.000253	2.534272	0.858635	0.000101
1568	1.5592e+02	-17.5712	-62.381821	0.000152	1.520563	0.515181	0.000061
1569	1.5602e+02	-17.5359	-62.244559	0.000345	3.446610	1.167743	0.000138
1570	1.5612e+02	-17.4910	-62.163816	0.000203	2.027418	0.686908	0.000081
1571	1.5622e+02	-17.4492	-62.131519	0.000081	0.810967	0.274763	0.000032
1572	1.5631e+02	-17.4188	-62.002331	0.000324	3.243868	1.099052	0.000130
1573	1.5641e+02	-17.3674	-61.929662	0.000182	1.824676	0.618217	0.000073
1574	1.5651e+02	-17.3385	-61.828734	0.000253	2.534272	0.858635	0.000101
1575	1.5661e+02	-17.2920	-61.727805	0.000253	2.534272	0.858635	0.000101
1576	1.5671e+02	-17.2551	-61.626877	0.000253	2.534272	0.858635	0.000101
1577	1.5681e+02	-17.2038	-61.554209	0.000182	1.824676	0.618217	0.000073
1578	1.5691e+02	-17.1861	-61.433095	0.000304	3.041126	1.030362	0.000122
1579	1.5701e+02	-17.1412	-61.376575	0.000142	1.419192	0.480835	0.000057
1580	1.5711e+02	-17.0963	-61.283721	0.000233	2.331530	0.789944	0.000093
1581	1.5721e+02	-17.0434	-61.182792	0.000253	2.534272	0.858635	0.000101
1582	1.5731e+02	-17.0113	-61.126272	0.000142	1.419192	0.480835	0.000057
1583	1.5741e+02	-16.9696	-61.013232	0.000284	2.838385	0.961671	0.000114
1584	1.5751e+02	-16.9343	-60.944601	0.000172	1.723305	0.583872	0.000069
1585	1.5761e+02	-16.8910	-60.847710	0.000243	2.432901	0.824289	0.000097
1586	1.5771e+02	-16.8621	-60.746781	0.000253	2.534272	0.858635	0.000101
1587	1.5781e+02	-16.8124	-60.629705	0.000294	2.939756	0.996016	0.000118
1588	1.5791e+02	-16.7706	-60.557036	0.000182	1.824676	0.618217	0.000073
1589	1.5801e+02	-16.7338	-60.448033	0.000274	2.737014	0.927325	0.000110
1590	1.5811e+02	-16.6904	-60.355179	0.000233	2.331530	0.789944	0.000093
1591	1.5821e+02	-16.6535	-60.270399	0.000213	2.128789	0.721253	0.000085
1592	1.5830e+02	-16.6134	-60.201768	0.000172	1.723305	0.583872	0.000069
1593	1.5840e+02	-16.5669	-60.096803	0.000264	2.635643	0.892980	0.000105
1594	1.5850e+02	-16.5300	-60.016060	0.000203	2.027418	0.686908	0.000081
1595	1.5860e+02	-16.4915	-59.911094	0.000264	2.635643	0.892980	0.000105
1596	1.5870e+02	-16.4530	-59.818240	0.000233	2.331530	0.789944	0.000093
1597	1.5880e+02	-16.4161	-59.753646	0.000162	1.621934	0.549526	0.000065
1598	1.5890e+02	-16.3680	-59.600235	0.000385	3.852093	1.305125	0.000154
1599	1.5900e+02	-16.3279	-59.527566	0.000182	1.824676	0.618217	0.000073
1600	1.5910e+02	-16.2990	-59.462972	0.000162	1.621934	0.549526	0.000065
1601	1.5920e+02	-16.2541	-59.358007	0.000264	2.635643	0.892980	0.000105
1602	1.5930e+02	-16.2188	-59.269190	0.000223	2.230159	0.755598	0.000089
1603	1.5940e+02	-16.1723	-59.127890	0.000355	3.547981	1.202088	0.000142
1604	1.5950e+02	-16.1418	-59.035036	0.000233	2.331530	0.789944	0.000093
1605	1.5960e+02	-16.1017	-58.950256	0.000213	2.128789	0.721253	0.000085
1606	1.5970e+02	-16.0471	-58.865476	0.000213	2.128789	0.721253	0.000085
1607	1.5980e+02	-16.0231	-58.776659	0.000223	2.230159	0.755598	0.000089
1608	1.5990e+02	-15.9798	-58.663619	0.000284	2.838385	0.961671	0.000114
1609	1.6000e+02	-15.9445	-58.578840	0.000213	2.128789	0.721253	0.000085
1610	1.6010e+02	-15.8979	-58.461763	0.000294	2.939756	0.996016	0.000118
1611	1.6019e+02	-15.8562	-58.409280	0.000132	1.317821	0.446490	0.000053
1612	1.6029e+02	-15.8193	-58.239720	0.000426	4.257577	1.442506	0.000170
1613	1.6039e+02	-15.7648	-58.195312	0.000112	1.115080	0.377799	0.000045
1614	1.6049e+02	-15.7407	-58.090346	0.000264	2.635643	0.892980	0.000105
1615	1.6059e+02	-15.6942	-57.949046	0.000355	3.547981	1.202088	0.000142
1616	1.6069e+02	-15.6525	-57.880415	0.000172	1.723305	0.583872	0.000069
1617	1.6079e+02	-15.6156	-57.739115	0.000355	3.547981	1.202088	0.000142
1618	1.6089e+02	-15.5755	-57.670484	0.000172	1.723305	0.583872	0.000069
1619	1.6099e+02	-15.5370	-57.557444	0.000284	2.838385	0.961671	0.000114
1620	1.6109e+02	-15.4985	-57.476702	0.000203	2.027418	0.686908	0.000081
1621	1.6119e+02	-15.4632	-57.371736	0.000264	2.635643	0.892980	0.000105
1622	1.6129e+02	-15.4231	-57.282919	0.000223	2.230159	0.755598	0.000089
1623	1.6139e+02	-15.3782	-57.186028	0.000243	2.432901	0.824289	0.000097
1624	1.6149e+02	-15.3445	-57.072988	0.000284	2.838385	0.961671	0.000114
1625	1.6159e+02	-15.2964	-56.972060	0.000253	2.534272	0.858635	0.000101
1626	1.6169e+02	-15.2627	-56.919577	0.000132	1.317821	0.446490	0.000053
1627	1.6179e+02	-15.2306	-56.798463	0.000304	3.041126	1.030362	0.000122
1628	1.6189e+02	-15.1744	-56.677349	0.000304	3.041126	1.030362	0.000122
1629	1.6199e+02	-15.1456	-56.568346	0.000274	2.737014	0.927325	0.000110
1630	1.6209e+02	-15.1039	-56.495678	0.000182	1.824676	0.618217	0.000073
1631	1.6219e+02	-15.0637	-56.402823	0.000233	2.331530	0.789944	0.000093
1632	1.6228e+02	-15.0268	-56.257487	0.000365	3.649352	1.236434	0.000146
1633	1.6238e+02	-14.9803	-56.237301	0.000051	0.506854	0.171727	0.000020
1634	1.6248e+02	-14.9418	-56.108112	0.000324	3.243868	1.099052	0.000130
1635	1.6258e+02	-14.9001	-55.982961	0.000314	3.142497	1.064707	0.000126
1636	1.6268e+02	-14.8568	-55.906256	0.000193	1.926047	0.652562	0.000077
1637	1.6278e+02	-14.8151	-55.768993	0.000345	3.446610	1.167743	0.000138
1638	1.6288e+02	-14.7766	-55.728622	0.000101	1.013709	0.343454	0.000041
1639	1.6298e+02	-14.7397	-55.615582	0.000284	2.838385	0.961671	0.000114
1640	1.6308e+02	-14.7028	-55.506579	0.000274	2.737014	0.927325	0.000110
1641	1.6318e+02	-14.6659	-55.385465	0.000304	3.041126	1.030362	0.000122
1642	1.6328e+02	-14.6226	-55.268388	0.000294	2.939756	0.996016	0.000118
1643	1.6338e+02	-14.5809	-55.191683	0.000193	1.926047	0.652562	0.000077
1644	1.6348e+02	-14.5520	-55.098829	0.000233	2.331530	0.789944	0.000093
1645	1.6358e+02	-14.5055	-55.014049	0.000213	2.128789	0.721253	0.000085
1646	1.6368e+02	-14.4606	-54.937343	0.000193	1.926047	0.652562	0.000077
1647	1.6378e+02	-14.4269	-54.783932	0.000385	3.852093	1.305125	0.000154
1648	1.6388e+02	-14.3787	-54.759709	0.000061	0.608225	0.206072	0.000024
1649	1.6398e+02	-14.3418	-54.574001	0.000466	4.663061	1.579888	0.000187
1650	1.6408e+02	-14.3049	-54.493258	0.000203	2.027418	0.686908	0.000081
1651	1.6418e+02	-14.2648	-54.404441	0.000223	2.230159	0.755598	0.000089
1652	1.6427e+02	-14.2247	-54.339847	0.000162	1.621934	0.549526	0.000065
1653	1.6437e+02	-14.1846	-54.214696	0.000314	3.142497	1.064707	0.000126
1654	1.6447e+02	-14.1493	-54.113767	0.000253	2.534272	0.858635	0.000101
1655	1.6457e+02	-14.1076	-54.004765	0.000274	2.737014	0.927325	0.000110
1656	1.6467e+02	-14.0675	-53.928059	0.000193	1.926047	0.652562	0.000077
1657	1.6477e+02	-14.0258	-53.806945	0.000304	3.041126	1.030362	0.000122
1658	1.6487e+02	-13.9857	-53.706017	0.000253	2.534272	0.858635	0.000101
1659	1.6497e+02	-13.9472	-53.625274	0.000203	2.027418	0.686908	0.000081
1660	1.6507e+02	-13.9071	-53.528383	0.000243	2.432901	0.824289	0.000097
1661	1.6517e+02	-13.8654	-53.439566	0.000223	2.230159	0.755598	0.000089
1662	1.6527e+02	-13.8205	-53.310377	0.000324	3.243868	1.099052	0.000130
1663	1.6537e+02	-13.7868	-53.201375	0.000274	2.737014	0.927325	0.000110
1664	1.6547e+02	-13.7515	-53.112558	0.000223	2.230159	0.755598	0.000089
1665	1.6557e+02	-13.7066	-52.991444	0.000304	3.041126	1.030362	0.000122
1666	1.6567e+02	-13.6665	-52.902627	0.000223	2.230159	0.755598	0.000089
1667	1.6577e+02	-13.6296	-52.817847	0.000213	2.128789	0.721253	0.000085
1668	1.6587e+02	-13.5830	-52.688659	0.000324	3.243868	1.099052	0.000130
1669	1.6597e+02	-13.5542	-52.611953	0.000193	1.926047	0.652562	0.000077
1670	1.6607e+02	-13.4996	-52.502950	0.000274	2.737014	0.927325	0.000110
1671	1.6616e+02	-13.4675	-52.349539	0.000385	3.852093	1.305125	0.000154
1672	1.6626e+02	-13.4210	-52.333391	0.000041	0.405484	0.137382	0.000016
1673	1.6636e+02	-13.3889	-52.220351	0.000284	2.838385	0.961671	0.000114
1674	1.6646e+02	-13.3408	-52.091162	0.000324	3.243868	1.099052	0.000130
1675	1.6656e+02	-13.3135	-51.990234	0.000253	2.534272	0.858635	0.000101
1676	1.6666e+02	-13.2670	-51.897380	0.000233	2.331530	0.789944	0.000093
1677	1.6676e+02	-13.2301	-51.780303	0.000294	2.939756	0.996016	0.000118
1678	1.6686e+02	-13.1900	-51.679375	0.000253	2.534272	0.858635	0.000101
1679	1.6696e+02	-13.1563	-51.602669	0.000193	1.926047	0.652562	0.000077
1680	1.6706e+02	-13.1146	-51.497703	0.000264	2.635643	0.892980	0.000105
1681	1.6716e+02	-13.0697	-51.388701	0.000274	2.737014	0.927325	0.000110
1682	1.6726e+02	-13.0280	-51.267587	0.000304	3.041126	1.030362	0.000122
1683	1.6736e+02	-12.9847	-51.134361	0.000335	3.345239	1.133398	0.000134
1684	1.6746e+02	-12.9510	-51.061693	0.000182	1.824676	0.618217	0.000073
1685	1.6756e+02	-12.9044	-50.964802	0.000243	2.432901	0.824289	0.000097
1686	1.6766e+02	-12.8708	-50.847725	0.000294	2.939756	0.996016	0.000118
1687	1.6776e+02	-12.8339	-50.742759	0.000264	2.635643	0.892980	0.000105
1688	1.6786e+02	-12.7873	-50.653942	0.000223	2.230159	0.755598	0.000089
1689	1.6796e+02	-12.7520	-50.573199	0.000203	2.027418	0.686908	0.000081
1690	1.6806e+02	-12.7168	-50.456122	0.000294	2.939756	0.996016	0.000118
1691	1.6816e+02	-12.6750	-50.314823	0.000355	3.547981	1.202088	0.000142
1692	1.6825e+02	-12.6285	-50.189671	0.000314	3.142497	1.064707	0.000126
1693	1.6835e+02	-12.5852	-50.096817	0.000233	2.331530	0.789944	0.000093
1694	1.6845e+02	-12.5579	-49.983778	0.000284	2.838385	0.961671	0.000114
1695	1.6855e+02	-12.5162	-49.971666	0.000030	0.304113	0.103036	0.000012
1696	1.6865e+02	-12.4729	-49.789995	0.000456	4.561690	1.545542	0.000183
1697	1.6875e+02	-12.4280	-49.725401	0.000162	1.621934	0.549526	0.000065
1698	1.6885e+02	-12.3943	-49.636584	0.000223	2.230159	0.755598	0.000089
1699	1.6895e+02	-12.3542	-49.567953	0.000172	1.723305	0.583872	0.000069
1700	1.6905e+02	-12.3109	-49.390319	0.000446	4.460319	1.511197	0.000179
1701	1.6915e+02	-12.2579	-49.337836	0.000132	1.317821	0.446490	0.000053
1702	1.6925e+02	-12.2371	-49.236907	0.000253	2.534272	0.858635	0.000101
1703	1.6935e+02	-12.1954	-49.091571	0.000365	3.649352	1.236434	0.000146
1704	1.6945e+02	-12.1569	-48.990642	0.000253	2.534272	0.858635	0.000101
1705	1.6955e+02	-12.1104	-48.897788	0.000233	2.331530	0.789944	0.000093
1706	1.6965e+02	-12.0702	-48.776674	0.000304	3.041126	1.030362	0.000122
1707	1.6975e+02	-12.0301	-48.695931	0.000203	2.027418	0.686908	0.000081
1708	1.6985e+02	-11.9916	-48.574817	0.000304	3.041126	1.030362	0.000122
1709	1.6995e+02	-11.9563	-48.477926	0.000243	2.432901	0.824289	0.000097
1710	1.7005e+02	-11.9178	-48.393146	0.000213	2.128789	0.721253	0.000085
1711	1.7015e+02	-11.8665	-48.259921	0.000335	3.345239	1.133398	0.000134
1712	1.7024e+02	-11.8296	-48.167066	0.000233	2.331530	0.789944	0.000093
1713	1.7034e+02	-11.7943	-48.037878	0.000324	3.243868	1.099052	0.000130
1714	1.7044e+02	-11.7494	-47.973284	0.000162	1.621934	0.549526	0.000065
1715	1.7054e+02	-11.7173	-47.868318	0.000264	2.635643	0.892980	0.000105
1716	1.7064e+02	-11.6692	-47.771427	0.000243	2.432901	0.824289	0.000097
1717	1.7074e+02	-11.6355	-47.589756	0.000456	4.561690	1.545542	0.000183
1718	1.7084e+02	-11.6002	-47.488828	0.000253	2.534272	0.858635	0.000101
1719	1.7094e+02	-11.5473	-47.432308	0.000142	1.419192	0.480835	0.000057
1720	1.7104e+02	-11.5152	-47.278897	0.000385	3.852093	1.305125	0.000154
1721	1.7114e+02	-11.4767	-47.177968	0.000253	2.534272	0.858635	0.000101
1722	1.7124e+02	-11.4318	-47.068966	0.000274	2.737014	0.927325	0.000110
1723	1.7134e+02	-11.3965	-46.976111	0.000233	2.331530	0.789944	0.000093
1724	1.7144e+02	-11.3499	-46.850960	0.000314	3.142497	1.064707	0.000126
1725	1.7154e+02	-11.3130	-46.717735	0.000335	3.345239	1.133398	0.000134
1726	1.7164e+02	-11.2762	-46.596621	0.000304	3.041126	1.030362	0.000122
1727	1.7174e+02	-11.2377	-46.532027	0.000162	1.621934	0.549526	0.000065
1728	1.7184e+02	-11.1959	-46.394764	0.000345	3.446610	1.167743	0.000138
1729	1.7194e+02	-11.1446	-46.277687	0.000294	2.939756	0.996016	0.000118
1730	1.7204e+02	-11.1109	-46.180796	0.000243	2.432901	0.824289	0.000097
1731	1.7213e+02	-11.0836	-46.035459	0.000365	3.649352	1.236434	0.000146
1732	1.7223e+02	-11.0371	-45.938568	0.000243	2.432901	0.824289	0.000097
1733	1.7233e+02	-11.0050	-45.817453	0.000304	3.041126	1.030362	0.000122
1734	1.7243e+02	-10.9569	-45.720562	0.000243	2.432901	0.824289	0.000097
1735	1.7253e+02	-10.9200	-45.603485	0.000294	2.939756	0.996016	0.000118
1736	1.7263e+02	-10.8895	-45.482371	0.000304	3.041126	1.030362	0.000122
1737	1.7273e+02	-10.8382	-45.385480	0.000243	2.432901	0.824289	0.000097
1738	1.7283e+02	-10.7965	-45.300700	0.000213	2.128789	0.721253	0.000085
1739	1.7293e+02	-10.7580	-45.139215	0.000405	4.054835	1.373815	0.000162
1740	1.7303e+02	-10.7195	-45.062509	0.000193	1.926047	0.652562	0.000077
1741	1.7313e+02	-10.6810	-44.945432	0.000294	2.939756	0.996016	0.000118
1742	1.7323e+02	-10.6425	-44.800095	0.000365	3.649352	1.236434	0.000146
1743	1.7333e+02	-10.5960	-44.703204	0.000243	2.432901	0.824289	0.000097
1744	1.7343e+02	-10.5639	-44.574016	0.000324	3.243868	1.099052	0.000130
1745	1.7353e+02	-10.5174	-44.444827	0.000324	3.243868	1.099052	0.000130
1746	1.7363e+02	-10.4772	-44.335825	0.000274	2.737014	0.927325	0.000110
1747	1.7373e+02	-10.4387	-44.202599	0.000335	3.345239	1.133398	0.000134
1748	1.7383e+02	-10.3906	-44.158191	0.000112	1.115080	0.377799	0.000045
1749	1.7393e+02	-10.3585	-43.972482	0.000466	4.663061	1.579888	0.000187
1750	1.7403e+02	-10.3120	-43.871554	0.000253	2.534272	0.858635	0.000101
1751	1.7413e+02	-10.2799	-43.746403	0.000314	3.142497	1.064707	0.000126
1752	1.7422e+02	-10.2350	-43.621252	0.000314	3.142497	1.064707	0.000126
1753	1.7432e+02	-10.2077	-43.548583	0.000182	1.824676	0.618217	0.000073
1754	1.7442e+02	-10.1628	-43.383061	0.000416	4.156206	1.408161	0.000166
1755	1.7452e+02	-10.1259	-43.282132	0.000253	2.534272	0.858635	0.000101
1756	1.7462e+02	-10.0810	-43.201390	0.000203	2.027418	0.686908	0.000081
1757	1.7472e+02	-10.0361	-43.027793	0.000436	4.358948	1.476852	0.000174
1758	1.7482e+02	-10.0024	-42.926864	0.000253	2.534272	0.858635	0.000101
1759	1.7492e+02	-9.9591	-42.838047	0.000223	2.230159	0.755598	0.000089
1760	1.7502e+02	-9.9206	-42.712896	0.000314	3.142497	1.064707	0.000126
1761	1.7512e+02	-9.8885	-42.583708	0.000324	3.243868	1.099052	0.000130
1762	1.7522e+02	-9.8307	-42.474705	0.000274	2.737014	0.927325	0.000110
1763	1.7532e+02	-9.8099	-42.301108	0.000436	4.358948	1.476852	0.000174
1764	1.7542e+02	-9.7618	-42.175957	0.000314	3.142497	1.064707	0.000126
1765	1.7552e+02	-9.7184	-42.095214	0.000203	2.027418	0.686908	0.000081
1766	1.7562e+02	-9.6864	-41.957952	0.000345	3.446610	1.167743	0.000138
1767	1.7572e+02	-9.6414	-41.865098	0.000233	2.331530	0.789944	0.000093
1768	1.7582e+02	-9.6029	-41.703612	0.000405	4.054835	1.373815	0.000162
1769	1.7592e+02	-9.5644	-41.630944	0.000182	1.824676	0.618217	0.000073
1770	1.7602e+02	-9.5115	-41.477533	0.000385	3.852093	1.305125	0.000154
1771	1.7612e+02	-9.4810	-41.421013	0.000142	1.419192	0.480835	0.000057
1772	1.7621e+02	-9.4361	-41.255490	0.000416	4.156206	1.408161	0.000166
1773	1.7631e+02	-9.4056	-41.122265	0.000335	3.345239	1.133398	0.000134
1774	1.7641e+02	-9.3703	-40.997113	0.000314	3.142497	1.064707	0.000126
1775	1.7651e+02	-9.3286	-40.863888	0.000335	3.345239	1.133398	0.000134
1776	1.7661e+02	-9.2821	-40.779108	0.000213	2.128789	0.721253	0.000085
1777	1.7671e+02	-9.2388	-40.649920	0.000324	3.243868	1.099052	0.000130
1778	1.7681e+02	-9.2083	-40.528806	0.000304	3.041126	1.030362	0.000122
1779	1.7691e+02	-9.1682	-40.391543	0.000345	3.446610	1.167743	0.000138
1780	1.7701e+02	-9.1185	-40.286578	0.000264	2.635643	0.892980	0.000105
1781	1.7711e+02	-9.0784	-40.149315	0.000345	3.446610	1.167743	0.000138
1782	1.7721e+02	-9.0431	-39.995904	0.000385	3.852093	1.305125	0.000154
1783	1.7731e+02	-9.0062	-39.882864	0.000284	2.838385	0.961671	0.000114
1784	1.7741e+02	-8.9580	-39.781936	0.000253	2.534272	0.858635	0.000101
1785	1.7751e+02	-8.9292	-39.664859	0.000294	2.939756	0.996016	0.000118
1786	1.7761e+02	-8.8858	-39.503373	0.000405	4.054835	1.373815	0.000162
1787	1.7771e+02	-8.8393	-39.374185	0.000324	3.243868	1.099052	0.000130
1788	1.7781e+02	-8.8056	-39.265182	0.000274	2.737014	0.927325	0.000110
1789	1.7791e+02	-8.7607	-39.111771	0.000385	3.852093	1.305125	0.000154
1790	1.7801e+02	-8.7254	-39.022954	0.000223	2.230159	0.755598	0.000089
1791	1.7810e+02	-8.6853	-38.881654	0.000355	3.547981	1.202088	0.000142
1792	1.7820e+02	-8.6500	-38.724206	0.000395	3.953464	1.339470	0.000158
1793	1.7830e+02	-8.6051	-38.599055	0.000314	3.142497	1.064707	0.000126
1794	1.7840e+02	-8.5698	-38.510238	0.000223	2.230159	0.755598	0.000089
1795	1.7850e+02	-8.5281	-38.360864	0.000375	3.750723	1.270779	0.000150
1796	1.7860e+02	-8.4832	-38.227638	0.000335	3.345239	1.133398	0.000134
1797	1.7870e+02	-8.4447	-38.114599	0.000284	2.838385	0.961671	0.000114
1798	1.7880e+02	-8.4030	-37.973299	0.000355	3.547981	1.202088	0.000142
1799	1.7890e+02	-8.3629	-37.880445	0.000233	2.331530	0.789944	0.000093
1800	1.7900e+02	-8.3244	-37.702811	0.000446	4.460319	1.511197	0.000179
1801	1.7910e+02	-8.2891	-37.642254	0.000152	1.520563	0.515181	0.000061
1802	1.7920e+02	-8.2506	-37.500954	0.000355	3.547981	1.202088	0.000142
1803	1.7930e+02	-8.2040	-37.359654	0.000355	3.547981	1.202088	0.000142
1804	1.7940e+02	-8.1591	-37.218354	0.000355	3.547981	1.202088	0.000142
1805	1.7950e+02	-8.1174	-37.089166	0.000324	3.243868	1.099052	0.000130
1806	1.7960e+02	-8.0837	-37.024572	0.000162	1.621934	0.549526	0.000065
1807	1.7970e+02	-8.0516	-36.863086	0.000405	4.054835	1.373815	0.000162
1808	1.7980e+02	-8.0099	-36.729861	0.000335	3.345239	1.133398	0.000134
1809	1.7990e+02	-7.9746	-36.596635	0.000335	3.345239	1.133398	0.000134
1810	1.8000e+02	-7.9345	-36.471484	0.000314	3.142497	1.064707	0.000126
1811	1.8009e+02	-7.8848	-36.338259	0.000335	3.345239	1.133398	0.000134
1812	1.8019e+02	-7.8463	-36.241368	0.000243	2.432901	0.824289	0.000097
1813	1.8029e+02	-7.8126	-36.079882	0.000405	4.054835	1.373815	0.000162
1814	1.8039e+02	-7.7613	-35.958768	0.000304	3.041126	1.030362	0.000122
1815	1.8049e+02	-7.7308	-35.849765	0.000274	2.737014	0.927325	0.000110
1816	1.8059e+02	-7.6843	-35.704428	0.000365	3.649352	1.236434	0.000146
1817	1.8069e+02	-7.6442	-35.607537	0.000243	2.432901	0.824289	0.000097
1818	1.8079e+02	-7.6057	-35.466237	0.000355	3.547981	1.202088	0.000142
1819	1.8089e+02	-7.5736	-35.337049	0.000324	3.243868	1.099052	0.000130
1820	1.8099e+02	-7.5239	-35.215935	0.000304	3.041126	1.030362	0.000122
1821	1.8109e+02	-7.4966	-35.070598	0.000365	3.649352	1.236434	0.000146
1822	1.8119e+02	-7.4452	-34.897001	0.000436	4.358948	1.476852	0.000174
1823	1.8129e+02	-7.4116	-34.848556	0.000122	1.216451	0.412145	0.000049
1824	1.8139e+02	-7.3666	-34.683033	0.000416	4.156206	1.408161	0.000166
1825	1.8149e+02	-7.3362	-34.549808	0.000335	3.345239	1.133398	0.000134
1826	1.8159e+02	-7.2944	-34.400434	0.000375	3.750723	1.270779	0.000150
1827	1.8169e+02	-7.2479	-34.267208	0.000335	3.345239	1.133398	0.000134
1828	1.8179e+02	-7.2158	-34.142057	0.000314	3.142497	1.064707	0.000126
1829	1.8189e+02	-7.1709	-34.037091	0.000264	2.635643	0.892980	0.000105
1830	1.8199e+02	-7.1244	-33.911940	0.000314	3.142497	1.064707	0.000126
1831	1.8209e+02	-7.0875	-33.798900	0.000284	2.838385	0.961671	0.000114
1832	1.8218e+02	-7.0490	-33.641452	0.000395	3.953464	1.339470	0.000158
1833	1.8228e+02	-7.0105	-33.536487	0.000264	2.635643	0.892980	0.000105
1834	1.8238e+02	-6.9720	-33.395187	0.000355	3.547981	1.202088	0.000142
1835	1.8248e+02	-6.9287	-33.221590	0.000436	4.358948	1.476852	0.000174
1836	1.8258e+02	-6.8902	-33.120662	0.000253	2.534272	0.858635	0.000101
1837	1.8268e+02	-6.8533	-33.007622	0.000284	2.838385	0.961671	0.000114
1838	1.8278e+02	-6.8100	-32.842099	0.000416	4.156206	1.408161	0.000166
1839	1.8288e+02	-6.7667	-32.745208	0.000243	2.432901	0.824289	0.000097
1840	1.8298e+02	-6.7426	-32.571611	0.000436	4.358948	1.476852	0.000174
1841	1.8308e+02	-6.6897	-32.502980	0.000172	1.723305	0.583872	0.000069
1842	1.8318e+02	-6.6511	-32.341494	0.000405	4.054835	1.373815	0.000162
1843	1.8328e+02	-6.6126	-32.192120	0.000375	3.750723	1.270779	0.000150
1844	1.8338e+02	-6.5725	-32.066969	0.000314	3.142497	1.064707	0.000126
1845	1.8348e+02	-6.5180	-31.949892	0.000294	2.939756	0.996016	0.000118
1846	1.8358e+02	-6.4923	-31.800518	0.000375	3.750723	1.270779	0.000150
1847	1.8368e+02	-6.4538	-31.671330	0.000324	3.243868	1.099052	0.000130
1848	1.8378e+02	-6.4217	-31.530030	0.000355	3.547981	1.202088	0.000142
1849	1.8388e+02	-6.3832	-31.416990	0.000284	2.838385	0.961671	0.000114
1850	1.8398e+02	-6.3415	-31.259542	0.000395	3.953464	1.339470	0.000158
1851	1.8407e+02	-6.2886	-31.154576	0.000264	2.635643	0.892980	0.000105
1852	1.8417e+02	-6.2629	-31.001165	0.000385	3.852093	1.305125	0.000154
1853	1.8427e+02	-6.2180	-30.859866	0.000355	3.547981	1.202088	0.000142
1854	1.8437e+02	-6.1859	-30.742789	0.000294	2.939756	0.996016	0.000118
1855	1.8447e+02	-6.1410	-30.613600	0.000324	3.243868	1.099052	0.000130
1856	1.8457e+02	-6.1041	-30.460189	0.000385	3.852093	1.305125	0.000154
1857	1.8467e+02	-6.0608	-30.326964	0.000335	3.345239	1.133398	0.000134
1858	1.8477e+02	-6.0143	-30.197775	0.000324	3.243868	1.099052	0.000130
1859	1.8487e+02	-5.9726	-30.040327	0.000395	3.953464	1.339470	0.000158
1860	1.8497e+02	-5.9341	-29.919213	0.000304	3.041126	1.030362	0.000122
1861	1.8507e+02	-5.9036	-29.785987	0.000335	3.345239	1.133398	0.000134
1862	1.8517e+02	-5.8571	-29.640651	0.000365	3.649352	1.236434	0.000146
1863	1.8527e+02	-5.8137	-29.519537	0.000304	3.041126	1.030362	0.000122
1864	1.8537e+02	-5.7817	-29.402460	0.000294	2.939756	0.996016	0.000118
1865	1.8547e+02	-5.7464	-29.269234	0.000335	3.345239	1.133398	0.000134
1866	1.8557e+02	-5.7063	-29.071414	0.000497	4.967173	1.682924	0.000199
1867	1.8567e+02	-5.6581	-29.010857	0.000152	1.520563	0.515181	0.000061
1868	1.8577e+02	-5.6148	-28.869558	0.000355	3.547981	1.202088	0.000142
1869	1.8587e+02	-5.5763	-28.732295	0.000345	3.446610	1.167743	0.000138
1870	1.8597e+02	-5.5394	-28.578884	0.000385	3.852093	1.305125	0.000154
1871	1.8606e+02	-5.4945	-28.421436	0.000395	3.953464	1.339470	0.000158
1872	1.8616e+02	-5.4624	-28.300322	0.000304	3.041126	1.030362	0.000122
1873	1.8626e+02	-5.4207	-28.159022	0.000355	3.547981	1.202088	0.000142
1874	1.8636e+02	-5.3870	-28.037908	0.000304	3.041126	1.030362	0.000122
1875	1.8646e+02	-5.3389	-27.908719	0.000324	3.243868	1.099052	0.000130
1876	1.8656e+02	-5.2940	-27.747234	0.000405	4.054835	1.373815	0.000162
1877	1.8666e+02	-5.2571	-27.597860	0.000375	3.750723	1.270779	0.000150
1878	1.8676e+02	-5.2186	-27.513080	0.000213	2.128789	0.721253	0.000085
1879	1.8686e+02	-5.1801	-27.347557	0.000416	4.156206	1.408161	0.000166
1880	1.8696e+02	-5.1368	-27.186072	0.000405	4.054835	1.373815	0.000162
1881	1.8706e+02	-5.1063	-27.052847	0.000335	3.345239	1.133398	0.000134
1882	1.8716e+02	-5.0565	-26.935770	0.000294	2.939756	0.996016	0.000118
1883	1.8726e+02	-5.0196	-26.758136	0.000446	4.460319	1.511197	0.000179
1884	1.8736e+02	-4.9827	-26.620873	0.000345	3.446610	1.167743	0.000138
1885	1.8746e+02	-4.9426	-26.451313	0.000426	4.257577	1.442506	0.000170
1886	1.8756e+02	-4.9009	-26.322125	0.000324	3.243868	1.099052	0.000130
1887	1.8766e+02	-4.8592	-26.205048	0.000294	2.939756	0.996016	0.000118
1888	1.8776e+02	-4.8271	-26.027414	0.000446	4.460319	1.511197	0.000179
1889	1.8786e+02	-4.7726	-25.906300	0.000304	3.041126	1.030362	0.000122
1890	1.8796e+02	-4.7405	-25.765000	0.000355	3.547981	1.202088	0.000142
1891	1.8806e+02	-4.7036	-25.591403	0.000436	4.358948	1.476852	0.000174
1892	1.8815e+02	-4.6603	-25.454141	0.000345	3.446610	1.167743	0.000138
1893	1.8825e+02	-4.6186	-25.328990	0.000314	3.142497	1.064707	0.000126
1894	1.8835e+02	-4.5897	-25.155393	0.000436	4.358948	1.476852	0.000174
1895	1.8845e+02	-4.5464	-25.046390	0.000274	2.737014	0.927325	0.000110
1896	1.8855e+02	-4.4951	-24.856645	0.000476	4.764431	1.614233	0.000191
1897	1.8865e+02	-4.4662	-24.711308	0.000365	3.649352	1.236434	0.000146
1898	1.8875e+02	-4.4197	-24.598268	0.000284	2.838385	0.961671	0.000114
1899	1.8885e+02	-4.3908	-24.420634	0.000446	4.460319	1.511197	0.000179
1900	1.8895e+02	-4.3378	-24.291446	0.000324	3.243868	1.099052	0.000130
1901	1.8905e+02	-4.3058	-24.117849	0.000436	4.358948	1.476852	0.000174
1902	1.8915e+02	-4.2657	-23.968475	0.000375	3.750723	1.270779	0.000150
1903	1.8925e+02	-4.2368	-23.782767	0.000466	4.663061	1.579888	0.000187
1904	1.8935e+02	-4.1758	-23.677801	0.000264	2.635643	0.892980	0.000105
1905	1.8945e+02	-4.1518	-23.556687	0.000304	3.041126	1.030362	0.000122
1906	1.8955e+02	-4.1020	-23.395202	0.000405	4.054835	1.373815	0.000162
1907	1.8965e+02	-4.0587	-23.221605	0.000436	4.358948	1.476852	0.000174
1908	1.8975e+02	-4.0314	-23.084342	0.000345	3.446610	1.167743	0.000138
1909	1.8985e+02	-3.9865	-22.947080	0.000345	3.446610	1.167743	0.000138
1910	1.8995e+02	-3.9448	-22.749260	0.000497	4.967173	1.682924	0.000199
1911	1.9004e+02	-3.9031	-22.624109	0.000314	3.142497	1.064707	0.000126
1912	1.9014e+02	-3.8598	-22.450512	0.000436	4.358948	1.476852	0.000174
1913	1.9024e+02	-3.8245	-22.280952	0.000426	4.257577	1.442506	0.000170
1914	1.9034e+02	-3.7796	-22.135615	0.000365	3.649352	1.236434	0.000146
1915	1.9044e+02	-3.7379	-22.014501	0.000304	3.041126	1.030362	0.000122
1916	1.9054e+02	-3.7170	-21.796496	0.000547	5.474028	1.854651	0.000219
1917	1.9064e+02	-3.6609	-21.675382	0.000304	3.041126	1.030362	0.000122
1918	1.9074e+02	-3.6272	-21.538119	0.000345	3.446610	1.167743	0.000138
1919	1.9084e+02	-3.5855	-21.344337	0.000487	4.865802	1.648578	0.000195
1920	1.9094e+02	-3.5470	-21.186888	0.000395	3.953464	1.339470	0.000158
1921	1.9104e+02	-3.5020	-21.021366	0.000416	4.156206	1.408161	0.000166
1922	1.9114e+02	-3.4700	-20.920437	0.000253	2.534272	0.858635	0.000101
1923	1.9124e+02	-3.4234	-20.775101	0.000365	3.649352	1.236434	0.000146
1924	1.9134e+02	-3.3881	-20.557095	0.000547	5.474028	1.854651	0.000219
1925	1.9144e+02	-3.3480	-20.419833	0.000345	3.446610	1.167743	0.000138
1926	1.9154e+02	-3.3095	-20.262384	0.000395	3.953464	1.339470	0.000158
1927	1.9164e+02	-3.2678	-20.113010	0.000375	3.750723	1.270779	0.000150
1928	1.9174e+02	-3.2245	-19.907116	0.000517	5.169915	1.751615	0.000207
1929	1.9184e+02	-3.1972	-19.810225	0.000243	2.432901	0.824289	0.000097
1930	1.9194e+02	-3.1475	-19.628554	0.000456	4.561690	1.545542	0.000183
1931	1.9203e+02	-3.1058	-19.442846	0.000466	4.663061	1.579888	0.000187
1932	1.9213e+02	-3.0561	-19.257137	0.000466	4.663061	1.579888	0.000187
1933	1.9223e+02	-3.0384	-19.148135	0.000274	2.737014	0.927325	0.000110
1934	1.9233e+02	-2.9791	-18.982612	0.000416	4.156206	1.408161	0.000166
1935	1.9243e+02	-2.9550	-18.833238	0.000375	3.750723	1.270779	0.000150
1936	1.9253e+02	-2.9101	-18.663679	0.000426	4.257577	1.442506	0.000170
1937	1.9263e+02	-2.8700	-18.526416	0.000345	3.446610	1.167743	0.000138
1938	1.9273e+02	-2.8315	-18.288225	0.000598	5.980882	2.026378	0.000239
1939	1.9283e+02	-2.7914	-18.191334	0.000243	2.432901	0.824289	0.000097
1940	1.9293e+02	-2.7545	-18.005625	0.000466	4.663061	1.579888	0.000187
1941	1.9303e+02	-2.7079	-17.848177	0.000395	3.953464	1.339470	0.000158
1942	1.9313e+02	-2.6646	-17.690729	0.000395	3.953464	1.339470	0.000158
1943	1.9323e+02	-2.6261	-17.496946	0.000487	4.865802	1.648578	0.000195
1944	1.9333e+02	-2.5956	-17.359684	0.000345	3.446610	1.167743	0.000138
1945	1.9343e+02	-2.5475	-17.141678	0.000547	5.474028	1.854651	0.000219
1946	1.9353e+02	-2.5074	-17.000379	0.000355	3.547981	1.202088	0.000142
1947	1.9363e+02	-2.4641	-16.842930	0.000395	3.953464	1.339470	0.000158
1948	1.9373e+02	-2.4320	-16.669333	0.000436	4.358948	1.476852	0.000174
1949	1.9383e+02	-2.3855	-16.463440	0.000517	5.169915	1.751615	0.000207
1950	1.9393e+02	-2.3534	-16.330214	0.000335	3.345239	1.133398	0.000134
1951	1.9403e+02	-2.3117	-16.168729	0.000405	4.054835	1.373815	0.000162
1952	1.9412e+02	-2.2700	-15.970909	0.000497	4.967173	1.682924	0.000199
1953	1.9422e+02	-2.2331	-15.789238	0.000456	4.561690	1.545542	0.000183
1954	1.9432e+02	-2.1914	-15.639864	0.000375	3.750723	1.270779	0.000150
1955	1.9442e+02	-2.1577	-15.458193	0.000456	4.561690	1.545542	0.000183
1956	1.9452e+02	-2.1160	-15.300744	0.000395	3.953464	1.339470	0.000158
1957	1.9462e+02	-2.0791	-15.131185	0.000426	4.257577	1.442506	0.000170
1958	1.9472e+02	-2.0390	-14.949514	0.000456	4.561690	1.545542	0.000183
1959	1.9482e+02	-1.9941	-14.751694	0.000497	4.967173	1.682924	0.000199
1960	1.9492e+02	-1.9524	-14.642691	0.000274	2.737014	0.927325	0.000110
1961	1.9502e+02	-1.9171	-14.396426	0.000618	6.183624	2.095068	0.000248
1962	1.9512e+02	-1.8753	-14.247052	0.000375	3.750723	1.270779	0.000150
1963	1.9522e+02	-1.8368	-14.105752	0.000355	3.547981	1.202088	0.000142
1964	1.9532e+02	-1.7887	-13.907933	0.000497	4.967173	1.682924	0.000199
1965	1.9542e+02	-1.7486	-13.746447	0.000405	4.054835	1.373815	0.000162
1966	1.9552e+02	-1.7149	-13.568813	0.000446	4.460319	1.511197	0.000179
1967	1.9562e+02	-1.6764	-13.399254	0.000426	4.257577	1.442506	0.000170
1968	1.9572e+02	-1.6283	-13.201434	0.000497	4.967173	1.682924	0.000199
1969	1.9582e+02	-1.5962	-13.023800	0.000446	4.460319	1.511197	0.000179
1970	1.9592e+02	-1.5593	-12.850203	0.000436	4.358948	1.476852	0.000174
1971	1.9601e+02	-1.5208	-12.688718	0.000405	4.054835	1.373815	0.000162
1972	1.9611e+02	-1.4743	-12.498972	0.000476	4.764431	1.614233	0.000191
1973	1.9621e+02	-1.4310	-12.365747	0.000335	3.345239	1.133398	0.000134
1974	1.9631e+02	-1.4021	-12.171964	0.000487	4.865802	1.648578	0.000195
1975	1.9641e+02	-1.3604	-11.998367	0.000436	4.358948	1.476852	0.000174
1976	1.9651e+02	-1.3042	-11.869179	0.000324	3.243868	1.099052	0.000130
1977	1.9661e+02	-1.2641	-11.655211	0.000537	5.372657	1.820305	0.000215
1978	1.9671e+02	-1.2433	-11.493725	0.000405	4.054835	1.373815	0.000162
1979	1.9681e+02	-1.1984	-11.291869	0.000507	5.068544	1.717269	0.000203
1980	1.9691e+02	-1.1567	-11.130383	0.000405	4.054835	1.373815	0.000162
1981	1.9701e+02	-1.1117	-10.928526	0.000507	5.068544	1.717269	0.000203
1982	1.9711e+02	-1.0716	-10.783190	0.000365	3.649352	1.236434	0.000146
1983	1.9721e+02	-1.0411	-10.625741	0.000395	3.953464	1.339470	0.000158
1984	1.9731e+02	-0.9930	-10.407736	0.000547	5.474028	1.854651	0.000219
1985	1.9741e+02	-0.9625	-10.246251	0.000405	4.054835	1.373815	0.000162
1986	1.9751e+02	-0.9256	-10.092839	0.000385	3.852093	1.305125	0.000154
1987	1.9761e+02	-0.8711	-9.882908	0.000527	5.271286	1.785960	0.000211
1988	1.9771e+02	-0.8406	-9.729497	0.000385	3.852093	1.305125	0.000154
1989	1.9781e+02	-0.8053	-9.519566	0.000527	5.271286	1.785960	0.000211
1990	1.9791e+02	-0.7508	-9.317709	0.000507	5.068544	1.717269	0.000203
1991	1.9800e+02	-0.7219	-9.184484	0.000335	3.345239	1.133398	0.000134
1992	1.9810e+02	-0.6818	-8.994738	0.000476	4.764431	1.614233	0.000191
1993	1.9820e+02	-0.6385	-8.817104	0.000446	4.460319	1.511197	0.000179
1994	1.9830e+02	-0.5984	-8.611211	0.000517	5.169915	1.751615	0.000207
1995	1.9840e+02	-0.5551	-8.469911	0.000355	3.547981	1.202088	0.000142
1996	1.9850e+02	-0.5198	-8.276128	0.000487	4.865802	1.648578	0.000195
1997	1.9860e+02	-0.4716	-8.074271	0.000507	5.068544	1.717269	0.000203
1998	1.9870e+02	-0.4412	-7.884526	0.000476	4.764431	1.614233	0.000191
1999	1.9880e+02	-0.3995	-7.674595	0.000527	5.271286	1.785960	0.000211
2000	1.9890e+02	-0.3642	-7.537332	0.000345	3.446610	1.167743	0.000138
2001	1.9900e+02	-0.3321	-7.363736	0.000436	4.358948	1.476852	0.000174
2002	1.9910e+02	-0.2807	-7.190139	0.000436	4.358948	1.476852	0.000174
2003	1.9920e+02	-0.2438	-7.048839	0.000355	3.547981	1.202088	0.000142
2004	1.9930e+02	-0.2069	-6.842945	0.000517	5.169915	1.751615	0.000207
2005	1.9940e+02	-0.1540	-6.669348	0.000436	4.358948	1.476852	0.000174
2006	1.9950e+02	-0.1123	-6.447306	0.000558	5.575398	1.888996	0.000223
2007	1.9960e+02	-0.0818	-6.322155	0.000314	3.142497	1.064707	0.000126
2008	1.9970e+02	-0.0369	-6.152595	0.000426	4.257577	1.442506	0.000170
2009	1.9980e+02	-0.0064	-5.946701	0.000426	4.257577	1.442506	0.000207

Center data before PMax,+/-Pr and +/-Vc Calc.

PMax (uC/cm2):	6.68e+01
Pr (uC/cm2):	2.10e+00
-Pr (uC/cm2):	-5.95e+00
PLoss (uC/cm2):	-3.65e+00
Vc:	5.66e-01
-Vc:	-4.62e-01
C (Max-Eff) (nF):	3.34e-01
K (Eff):	1.13e+03
Vert. (+/-Pr) Shift (uC/cm2):	-1.93e+00
Horiz. Shift (+/-Vc):	5.23e-02
Offset (uC/cm2):	2.29e+00

A (Loop Area - uC/cm2·Volts):	1.39e-02



Hysteresis Version: 5.48.1 - Radiant Technologies, Inc., 1999 - 9/12/24

