»»»»»»»»»»»»»»»»»»»»»»»»»»»»»»»»»»»» Hysteresis ««««««««««««««««««««««««««««««««««««
»»»  Executed Version:	5.48.1
»»»  Vision Version:	5.48.4 (R)
»»»  Vision Compiled:	9/18/24
»»»  Driver Version:	5.47.0
»»»  Windows Version:	Windows 8 or 8.1
»»»  Processor Information:	x86 (AMD or Intel) - 32 Processors
»»»  Tester Name:	PMF21124-494 (100V)
»»»  Tester S/N:	PMF21124-494
»»»  Internal Amp Type:	100V RevK 270k
»»»  Internal Amp S/N:	iAB2-596/K     
»»»  Execution Count:	1
»»»»»»»»»»»»»»»»»»»»»»»»»»»»»»»»»»»»»»»»»»««««««««««««««««««««««««««««««««««««««««««

Stored:	6/13/2025 - 11:29:27
Configured:	06/13/25 10:12:58 AM
Executed:	06/13/25 11:28:50 AM

»»»»»»»»»»»»»»»»»»»»»»»»»»»»»»»»»»» Sample Info ««««««««««««««««««««««««««««««««««««
Sample Name:	
Lot Name:	
Wafer Name:	
Die Row/Column:	0/0
Capacitor Number:	0
Sample Area (cm2):	1.00e-04
Sample Thickness (microns):	3.00e-01

Amplifier:	Internal

»»»»»»»»»»»»»»»»»»»»»»»»»»»»»»»»»»» Tester Info «««««««««««««««««««««««««««««««««««
Tester Name:	PMF21124-494 (100V)
Tester Serial Number:	PMF21124-494
Return Signal Amp. Level:	0.19 [Index: 3]

»»»»»»»»»»»»»»»»»»»»»»»»»»»»»»»» Hysteresis Info ««««««««««««««««««««««««««««««««««
Task Name:	Hyst-1704
Volts:	20.00
Field:	666.67 (kV/cm)
DCBias:	0.00
DCField:	0.00 (kV/cm)
Hysteresis Period (ms):	2.00e+02
Preset:	Enabled
Preset Delay (ms):	1.00e+03
Profile:	Standard Bipolar

»»»»»»»»»»»»»»»»»»»»»»»»»»»»»»»»»»»»»» Data «««««««««««««««««««««««««««««««««««««««
Points:	2009

Valid Data

Point	Time (ms)	Drive Voltage	Measured Polarization (uC/cm2)	Capacitance (uF)	Normalized Capacitance (uF/cm2)	Dielectric Constant	Instantaneous Current (mA)
   1	0.0000e+00	-0.0016	-3.364953	0.000294	2.938812	0.995697	0.000118
   2	9.9500e-02	0.0337	-3.247876	0.000294	2.938812	0.995697	0.000118
   3	1.9900e-01	0.0754	-3.029870	0.000547	5.472271	1.854056	0.000219
   4	2.9850e-01	0.1107	-2.815902	0.000537	5.370933	1.819721	0.000215
   5	3.9800e-01	0.1508	-2.565600	0.000628	6.282978	2.128731	0.000252
   6	4.9750e-01	0.1973	-2.359706	0.000517	5.168256	1.751053	0.000207
   7	5.9700e-01	0.2294	-2.194183	0.000415	4.154873	1.407709	0.000166
   8	6.9650e-01	0.2711	-1.947918	0.000618	6.181640	2.094396	0.000248
   9	7.9600e-01	0.3096	-1.770284	0.000446	4.458888	1.510712	0.000179
  10	8.9550e-01	0.3593	-1.515944	0.000638	6.384316	2.163065	0.000256
  11	9.9500e-01	0.3882	-1.318125	0.000497	4.965579	1.682384	0.000199
  12	1.0945e+00	0.4251	-1.132417	0.000466	4.661564	1.579381	0.000187
  13	1.1940e+00	0.4684	-0.942671	0.000476	4.762903	1.613715	0.000191
  14	1.2935e+00	0.5150	-0.765037	0.000446	4.458888	1.510712	0.000179
  15	1.3930e+00	0.5503	-0.538958	0.000567	5.674948	1.922724	0.000227
  16	1.4925e+00	0.5839	-0.324989	0.000537	5.370933	1.819721	0.000215
  17	1.5920e+00	0.6257	-0.119096	0.000517	5.168256	1.751053	0.000207
  18	1.6915e+00	0.6738	0.143318	0.000659	6.586993	2.231734	0.000264
  19	1.7910e+00	0.7107	0.405732	0.000659	6.586993	2.231734	0.000264
  20	1.8905e+00	0.7508	0.635849	0.000578	5.776286	1.957059	0.000231
  21	1.9900e+00	0.7845	0.793297	0.000395	3.952196	1.339040	0.000158
  22	2.0895e+00	0.8246	1.047637	0.000638	6.384316	2.163065	0.000256
  23	2.1890e+00	0.8743	1.245456	0.000497	4.965579	1.682384	0.000199
  24	2.2885e+00	0.9096	1.423090	0.000446	4.458888	1.510712	0.000179
  25	2.3880e+00	0.9545	1.653207	0.000578	5.776286	1.957059	0.000231
  26	2.4875e+00	0.9946	1.867175	0.000537	5.370933	1.819721	0.000215
  27	2.5870e+00	1.0203	2.093255	0.000567	5.674948	1.922724	0.000227
  28	2.6865e+00	1.0652	2.287037	0.000486	4.864241	1.648049	0.000195
  29	2.7860e+00	1.1037	2.464671	0.000446	4.458888	1.510712	0.000179
  30	2.8855e+00	1.1486	2.686714	0.000557	5.573610	1.888390	0.000223
  31	2.9850e+00	1.1903	2.916831	0.000578	5.776286	1.957059	0.000231
  32	3.0845e+00	1.2321	3.090427	0.000436	4.357549	1.476378	0.000174
  33	3.1840e+00	1.2609	3.300358	0.000527	5.269594	1.785387	0.000211
  34	3.2835e+00	1.3171	3.518364	0.000547	5.472271	1.854056	0.000219
  35	3.3830e+00	1.3492	3.736369	0.000547	5.472271	1.854056	0.000219
  36	3.4825e+00	1.3893	4.006857	0.000679	6.789670	2.300402	0.000272
  37	3.5820e+00	1.4278	4.204677	0.000497	4.965579	1.682384	0.000199
  38	3.6815e+00	1.4647	4.410571	0.000517	5.168256	1.751053	0.000207
  39	3.7810e+00	1.5096	4.644725	0.000588	5.877625	1.991393	0.000235
  40	3.8805e+00	1.5449	4.862730	0.000547	5.472271	1.854056	0.000219
  41	3.9800e+00	1.5818	5.080735	0.000547	5.472271	1.854056	0.000219
  42	4.0795e+00	1.6235	5.242221	0.000405	4.053534	1.373375	0.000162
  43	4.1790e+00	1.6716	5.460226	0.000547	5.472271	1.854056	0.000219
  44	4.2785e+00	1.7005	5.694380	0.000588	5.877625	1.991393	0.000235
  45	4.3780e+00	1.7454	5.851828	0.000395	3.952196	1.339040	0.000158
  46	4.4775e+00	1.7903	6.045611	0.000486	4.864241	1.648049	0.000195
  47	4.5770e+00	1.8288	6.231319	0.000466	4.661564	1.579381	0.000187
  48	4.6765e+00	1.8721	6.429139	0.000497	4.965579	1.682384	0.000199
  49	4.7760e+00	1.9042	6.614847	0.000466	4.661564	1.579381	0.000187
  50	4.8755e+00	1.9491	6.861112	0.000618	6.181640	2.094396	0.000248
  51	4.9750e+00	1.9892	7.054895	0.000486	4.864241	1.648049	0.000195
  52	5.0745e+00	2.0245	7.276937	0.000557	5.573610	1.888390	0.000223
  53	5.1740e+00	2.0679	7.511091	0.000588	5.877625	1.991393	0.000235
  54	5.2735e+00	2.0983	7.704874	0.000486	4.864241	1.648049	0.000195
  55	5.3730e+00	2.1433	7.934990	0.000578	5.776286	1.957059	0.000231
  56	5.4725e+00	2.1946	8.144921	0.000527	5.269594	1.785387	0.000211
  57	5.5720e+00	2.2315	8.371001	0.000567	5.674948	1.922724	0.000227
  58	5.6715e+00	2.2700	8.584969	0.000537	5.370933	1.819721	0.000215
  59	5.7710e+00	2.3085	8.794900	0.000527	5.269594	1.785387	0.000211
  60	5.8705e+00	2.3406	8.976571	0.000456	4.560226	1.545046	0.000183
  61	5.9700e+00	2.3839	9.194577	0.000547	5.472271	1.854056	0.000219
  62	6.0695e+00	2.4320	9.360099	0.000415	4.154873	1.407709	0.000166
  63	6.1690e+00	2.4625	9.537733	0.000446	4.458888	1.510712	0.000179
  64	6.2685e+00	2.5074	9.739590	0.000507	5.066918	1.716718	0.000203
  65	6.3680e+00	2.5491	9.937410	0.000497	4.965579	1.682384	0.000199
  66	6.4675e+00	2.5940	10.151378	0.000537	5.370933	1.819721	0.000215
  67	6.5670e+00	2.6245	10.357272	0.000517	5.168256	1.751053	0.000207
  68	6.6665e+00	2.6630	10.559129	0.000507	5.066918	1.716718	0.000203
  69	6.7660e+00	2.6983	10.712540	0.000385	3.850857	1.304706	0.000154
  70	6.8655e+00	2.7497	10.978991	0.000669	6.688331	2.266068	0.000268
  71	6.9650e+00	2.7801	11.225256	0.000618	6.181640	2.094396	0.000248
  72	7.0645e+00	2.8267	11.406927	0.000456	4.560226	1.545046	0.000183
  73	7.1640e+00	2.8539	11.588598	0.000456	4.560226	1.545046	0.000183
  74	7.2635e+00	2.8988	11.826789	0.000598	5.978963	2.025727	0.000239
  75	7.3630e+00	2.9502	12.056906	0.000578	5.776286	1.957059	0.000231
  76	7.4625e+00	2.9791	12.210317	0.000385	3.850857	1.304706	0.000154
  77	7.5620e+00	3.0176	12.428322	0.000547	5.472271	1.854056	0.000219
  78	7.6615e+00	3.0657	12.614031	0.000466	4.661564	1.579381	0.000187
  79	7.7610e+00	3.0994	12.803776	0.000476	4.762903	1.613715	0.000191
  80	7.8605e+00	3.1443	13.029856	0.000567	5.674948	1.922724	0.000227
  81	7.9600e+00	3.1748	13.126747	0.000243	2.432121	0.824025	0.000097
  82	8.0595e+00	3.2229	13.360901	0.000588	5.877625	1.991393	0.000235
  83	8.1590e+00	3.2614	13.586980	0.000567	5.674948	1.922724	0.000227
  84	8.2585e+00	3.3015	13.732317	0.000365	3.648181	1.236037	0.000146
  85	8.3580e+00	3.3304	13.962434	0.000578	5.776286	1.957059	0.000231
  86	8.4575e+00	3.3801	14.140068	0.000446	4.458888	1.510712	0.000179
  87	8.5570e+00	3.4202	14.321739	0.000456	4.560226	1.545046	0.000183
  88	8.6565e+00	3.4555	14.535707	0.000537	5.370933	1.819721	0.000215
  89	8.7560e+00	3.4892	14.802158	0.000669	6.688331	2.266068	0.000268
  90	8.8555e+00	3.5405	14.967681	0.000415	4.154873	1.407709	0.000166
  91	8.9550e+00	3.5726	15.193760	0.000567	5.674948	1.922724	0.000227
  92	9.0545e+00	3.6159	15.403691	0.000527	5.269594	1.785387	0.000211
  93	9.1540e+00	3.6705	15.621697	0.000547	5.472271	1.854056	0.000219
  94	9.2535e+00	3.6913	15.791256	0.000426	4.256211	1.442043	0.000170
  95	9.3530e+00	3.7427	15.960816	0.000426	4.256211	1.442043	0.000170
  96	9.4525e+00	3.7812	16.170747	0.000527	5.269594	1.785387	0.000211
  97	9.5520e+00	3.8165	16.368567	0.000497	4.965579	1.682384	0.000199
  98	9.6515e+00	3.8630	16.501792	0.000334	3.344166	1.133034	0.000134
  99	9.7510e+00	3.8967	16.675389	0.000436	4.357549	1.476378	0.000174
 100	9.8505e+00	3.9352	16.893394	0.000547	5.472271	1.854056	0.000219
 101	9.9500e+00	3.9785	17.107363	0.000537	5.370933	1.819721	0.000215
 102	1.0050e+01	4.0186	17.268848	0.000405	4.053534	1.373375	0.000162
 103	1.0149e+01	4.0619	17.474742	0.000517	5.168256	1.751053	0.000207
 104	1.0248e+01	4.0988	17.672562	0.000497	4.965579	1.682384	0.000199
 105	1.0348e+01	4.1389	17.918827	0.000618	6.181640	2.094396	0.000248
 106	1.0447e+01	4.1774	18.084350	0.000415	4.154873	1.407709	0.000166
 107	1.0547e+01	4.2143	18.282169	0.000497	4.965579	1.682384	0.000199
 108	1.0646e+01	4.2592	18.516323	0.000588	5.877625	1.991393	0.000235
 109	1.0746e+01	4.2929	18.697994	0.000456	4.560226	1.545046	0.000183
 110	1.0845e+01	4.3507	18.867554	0.000426	4.256211	1.442043	0.000170
 111	1.0945e+01	4.3763	19.053262	0.000466	4.661564	1.579381	0.000187
 112	1.1044e+01	4.4229	19.234933	0.000456	4.560226	1.545046	0.000183
 113	1.1144e+01	4.4630	19.461013	0.000567	5.674948	1.922724	0.000227
 114	1.1243e+01	4.5015	19.674981	0.000537	5.370933	1.819721	0.000215
 115	1.1343e+01	4.5480	19.783984	0.000274	2.736136	0.927028	0.000110
 116	1.1443e+01	4.5769	19.953543	0.000426	4.256211	1.442043	0.000170
 117	1.1542e+01	4.6154	20.155400	0.000507	5.066918	1.716718	0.000203
 118	1.1642e+01	4.6555	20.353220	0.000497	4.965579	1.682384	0.000199
 119	1.1741e+01	4.6988	20.547002	0.000486	4.864241	1.648049	0.000195
 120	1.1841e+01	4.7485	20.724636	0.000446	4.458888	1.510712	0.000179
 121	1.1940e+01	4.7742	20.938605	0.000537	5.370933	1.819721	0.000215
 122	1.2040e+01	4.8095	21.144498	0.000517	5.168256	1.751053	0.000207
 123	1.2139e+01	4.8496	21.374615	0.000578	5.776286	1.957059	0.000231
 124	1.2239e+01	4.8945	21.536101	0.000405	4.053534	1.373375	0.000162
 125	1.2338e+01	4.9394	21.721809	0.000466	4.661564	1.579381	0.000187
 126	1.2438e+01	4.9715	21.943851	0.000557	5.573610	1.888390	0.000223
 127	1.2537e+01	5.0148	22.105337	0.000405	4.053534	1.373375	0.000162
 128	1.2636e+01	5.0501	22.307194	0.000507	5.066918	1.716718	0.000203
 129	1.2736e+01	5.0886	22.517125	0.000527	5.269594	1.785387	0.000211
 130	1.2835e+01	5.1351	22.674573	0.000395	3.952196	1.339040	0.000158
 131	1.2935e+01	5.1737	22.860281	0.000466	4.661564	1.579381	0.000187
 132	1.3034e+01	5.2154	23.037915	0.000446	4.458888	1.510712	0.000179
 133	1.3134e+01	5.2619	23.239772	0.000507	5.066918	1.716718	0.000203
 134	1.3233e+01	5.2892	23.389146	0.000375	3.749519	1.270371	0.000150
 135	1.3333e+01	5.3373	23.566780	0.000446	4.458888	1.510712	0.000179
 136	1.3432e+01	5.3710	23.768637	0.000507	5.066918	1.716718	0.000203
 137	1.3532e+01	5.4063	23.909936	0.000355	3.546842	1.201703	0.000142
 138	1.3632e+01	5.4528	24.156202	0.000618	6.181640	2.094396	0.000248
 139	1.3731e+01	5.4929	24.329799	0.000436	4.357549	1.476378	0.000174
 140	1.3831e+01	5.5330	24.535692	0.000517	5.168256	1.751053	0.000207
 141	1.3930e+01	5.5683	24.729475	0.000486	4.864241	1.648049	0.000195
 142	1.4030e+01	5.6148	24.894998	0.000415	4.154873	1.407709	0.000166
 143	1.4129e+01	5.6501	25.088780	0.000486	4.864241	1.648049	0.000195
 144	1.4229e+01	5.6982	25.238154	0.000375	3.749519	1.270371	0.000150
 145	1.4328e+01	5.7271	25.431937	0.000486	4.864241	1.648049	0.000195
 146	1.4428e+01	5.7720	25.613608	0.000456	4.560226	1.545046	0.000183
 147	1.4527e+01	5.8121	25.811427	0.000497	4.965579	1.682384	0.000199
 148	1.4627e+01	5.8522	25.976950	0.000415	4.154873	1.407709	0.000166
 149	1.4726e+01	5.8907	26.150547	0.000436	4.357549	1.476378	0.000174
 150	1.4825e+01	5.9341	26.356441	0.000517	5.168256	1.751053	0.000207
 151	1.4925e+01	5.9758	26.465443	0.000274	2.736136	0.927028	0.000110
 152	1.5024e+01	6.0127	26.663263	0.000497	4.965579	1.682384	0.000199
 153	1.5124e+01	6.0512	26.812637	0.000375	3.749519	1.270371	0.000150
 154	1.5223e+01	6.0849	27.026605	0.000537	5.370933	1.819721	0.000215
 155	1.5323e+01	6.1330	27.216351	0.000476	4.762903	1.613715	0.000191
 156	1.5422e+01	6.1667	27.381873	0.000415	4.154873	1.407709	0.000166
 157	1.5522e+01	6.2004	27.628138	0.000618	6.181640	2.094396	0.000248
 158	1.5621e+01	6.2485	27.801735	0.000436	4.357549	1.476378	0.000174
 159	1.5721e+01	6.2822	27.991481	0.000476	4.762903	1.613715	0.000191
 160	1.5820e+01	6.3335	28.157003	0.000415	4.154873	1.407709	0.000166
 161	1.5920e+01	6.3752	28.314451	0.000395	3.952196	1.339040	0.000158
 162	1.6020e+01	6.4201	28.447677	0.000334	3.344166	1.133034	0.000134
 163	1.6119e+01	6.4506	28.657608	0.000527	5.269594	1.785387	0.000211
 164	1.6218e+01	6.4875	28.847353	0.000476	4.762903	1.613715	0.000191
 165	1.6318e+01	6.5260	28.992690	0.000365	3.648181	1.236037	0.000146
 166	1.6418e+01	6.5725	29.178399	0.000466	4.661564	1.579381	0.000187
 167	1.6517e+01	6.6094	29.372181	0.000486	4.864241	1.648049	0.000195
 168	1.6616e+01	6.6367	29.493295	0.000304	3.040151	1.030031	0.000122
 169	1.6716e+01	6.6945	29.622483	0.000324	3.242827	1.098700	0.000130
 170	1.6816e+01	6.7249	29.860674	0.000598	5.978963	2.025727	0.000239
 171	1.6915e+01	6.7731	30.022160	0.000405	4.053534	1.373375	0.000162
 172	1.7015e+01	6.8180	30.203831	0.000456	4.560226	1.545046	0.000183
 173	1.7114e+01	6.8421	30.365316	0.000405	4.053534	1.373375	0.000162
 174	1.7213e+01	6.8886	30.567173	0.000507	5.066918	1.716718	0.000203
 175	1.7313e+01	6.9255	30.756919	0.000476	4.762903	1.613715	0.000191
 176	1.7413e+01	6.9640	30.898218	0.000355	3.546842	1.201703	0.000142
 177	1.7512e+01	7.0105	31.087964	0.000476	4.762903	1.613715	0.000191
 178	1.7611e+01	7.0506	31.257523	0.000426	4.256211	1.442043	0.000170
 179	1.7711e+01	7.0827	31.419009	0.000405	4.053534	1.373375	0.000162
 180	1.7811e+01	7.1276	31.608754	0.000476	4.762903	1.613715	0.000191
 181	1.7910e+01	7.1613	31.778314	0.000426	4.256211	1.442043	0.000170
 182	1.8009e+01	7.1998	31.947874	0.000426	4.256211	1.442043	0.000170
 183	1.8109e+01	7.2511	32.133582	0.000466	4.661564	1.579381	0.000187
 184	1.8209e+01	7.2768	32.278919	0.000365	3.648181	1.236037	0.000146
 185	1.8308e+01	7.3281	32.476738	0.000497	4.965579	1.682384	0.000199
 186	1.8407e+01	7.3747	32.585741	0.000274	2.736136	0.927028	0.000110
 187	1.8507e+01	7.4132	32.727041	0.000355	3.546842	1.201703	0.000142
 188	1.8607e+01	7.4340	32.884489	0.000395	3.952196	1.339040	0.000158
 189	1.8706e+01	7.4789	33.122680	0.000598	5.978963	2.025727	0.000239
 190	1.8805e+01	7.5303	33.276091	0.000385	3.850857	1.304706	0.000154
 191	1.8905e+01	7.5640	33.449688	0.000436	4.357549	1.476378	0.000174
 192	1.9005e+01	7.5960	33.623285	0.000436	4.357549	1.476378	0.000174
 193	1.9104e+01	7.6442	33.800919	0.000446	4.458888	1.510712	0.000179
 194	1.9203e+01	7.6923	33.970479	0.000426	4.256211	1.442043	0.000170
 195	1.9303e+01	7.7292	34.127927	0.000395	3.952196	1.339040	0.000158
 196	1.9402e+01	7.7597	34.305561	0.000446	4.458888	1.510712	0.000179
 197	1.9502e+01	7.8030	34.438786	0.000334	3.344166	1.133034	0.000134
 198	1.9602e+01	7.8479	34.648717	0.000527	5.269594	1.785387	0.000211
 199	1.9701e+01	7.8816	34.834426	0.000466	4.661564	1.579381	0.000187
 200	1.9800e+01	7.9217	34.979763	0.000365	3.648181	1.236037	0.000146
 201	1.9900e+01	7.9602	35.161434	0.000456	4.560226	1.545046	0.000183
 202	2.0000e+01	8.0083	35.282548	0.000304	3.040151	1.030031	0.000122
 203	2.0099e+01	8.0436	35.419810	0.000345	3.445504	1.167368	0.000138
 204	2.0198e+01	8.0789	35.557073	0.000345	3.445504	1.167368	0.000138
 205	2.0298e+01	8.1206	35.730670	0.000436	4.357549	1.476378	0.000174
 206	2.0398e+01	8.1623	35.932527	0.000507	5.066918	1.716718	0.000203
 207	2.0497e+01	8.1912	36.077864	0.000365	3.648181	1.236037	0.000146
 208	2.0596e+01	8.2361	36.263572	0.000466	4.661564	1.579381	0.000187
 209	2.0696e+01	8.2810	36.437169	0.000436	4.357549	1.476378	0.000174
 210	2.0796e+01	8.3212	36.586543	0.000375	3.749519	1.270371	0.000150
 211	2.0895e+01	8.3661	36.752065	0.000415	4.154873	1.407709	0.000166
 212	2.0994e+01	8.4030	36.909513	0.000395	3.952196	1.339040	0.000158
 213	2.1094e+01	8.4415	37.070999	0.000405	4.053534	1.373375	0.000162
 214	2.1194e+01	8.4848	37.216336	0.000365	3.648181	1.236037	0.000146
 215	2.1293e+01	8.5201	37.369747	0.000385	3.850857	1.304706	0.000154
 216	2.1392e+01	8.5618	37.567567	0.000497	4.965579	1.682384	0.000199
 217	2.1492e+01	8.6003	37.708866	0.000355	3.546842	1.201703	0.000142
 218	2.1591e+01	8.6436	37.858240	0.000375	3.749519	1.270371	0.000150
 219	2.1691e+01	8.6821	38.052023	0.000486	4.864241	1.648049	0.000195
 220	2.1791e+01	8.7286	38.181211	0.000324	3.242827	1.098700	0.000130
 221	2.1890e+01	8.7575	38.310400	0.000324	3.242827	1.098700	0.000130
 222	2.1989e+01	8.7944	38.475922	0.000415	4.154873	1.407709	0.000166
 223	2.2089e+01	8.8409	38.653556	0.000446	4.458888	1.510712	0.000179
 224	2.2189e+01	8.8794	38.851376	0.000497	4.965579	1.682384	0.000199
 225	2.2288e+01	8.9227	38.996713	0.000365	3.648181	1.236037	0.000146
 226	2.2387e+01	8.9516	39.146087	0.000375	3.749519	1.270371	0.000150
 227	2.2487e+01	8.9949	39.315646	0.000426	4.256211	1.442043	0.000170
 228	2.2587e+01	9.0366	39.428686	0.000284	2.837474	0.961362	0.000114
 229	2.2686e+01	9.0848	39.650729	0.000557	5.573610	1.888390	0.000223
 230	2.2785e+01	9.1185	39.796066	0.000365	3.648181	1.236037	0.000146
 231	2.2885e+01	9.1538	39.945440	0.000375	3.749519	1.270371	0.000150
 232	2.2985e+01	9.1971	40.123074	0.000446	4.458888	1.510712	0.000179
 233	2.3084e+01	9.2324	40.276485	0.000385	3.850857	1.304706	0.000154
 234	2.3183e+01	9.2741	40.417784	0.000355	3.546842	1.201703	0.000142
 235	2.3283e+01	9.3126	40.615604	0.000497	4.965579	1.682384	0.000199
 236	2.3383e+01	9.3559	40.748830	0.000334	3.344166	1.133034	0.000134
 237	2.3482e+01	9.4008	40.910315	0.000405	4.053534	1.373375	0.000162
 238	2.3581e+01	9.4393	41.011243	0.000253	2.533459	0.858359	0.000101
 239	2.3681e+01	9.4778	41.156580	0.000365	3.648181	1.236037	0.000146
 240	2.3780e+01	9.5131	41.293843	0.000345	3.445504	1.167368	0.000138
 241	2.3880e+01	9.5564	41.487625	0.000486	4.864241	1.648049	0.000195
 242	2.3980e+01	9.5917	41.669297	0.000456	4.560226	1.545046	0.000183
 243	2.4079e+01	9.6350	41.814633	0.000365	3.648181	1.236037	0.000146
 244	2.4178e+01	9.6687	41.955933	0.000355	3.546842	1.201703	0.000142
 245	2.4278e+01	9.7120	42.133567	0.000446	4.458888	1.510712	0.000179
 246	2.4378e+01	9.7585	42.278904	0.000365	3.648181	1.236037	0.000146
 247	2.4477e+01	9.7874	42.444427	0.000415	4.154873	1.407709	0.000166
 248	2.4576e+01	9.8291	42.593801	0.000375	3.749519	1.270371	0.000150
 249	2.4676e+01	9.8724	42.771435	0.000446	4.458888	1.510712	0.000179
 250	2.4776e+01	9.9158	42.916771	0.000365	3.648181	1.236037	0.000146
 251	2.4875e+01	9.9559	43.054034	0.000345	3.445504	1.167368	0.000138
 252	2.4974e+01	9.9912	43.199371	0.000365	3.648181	1.236037	0.000146
 253	2.5074e+01	10.0345	43.324522	0.000314	3.141489	1.064365	0.000126
 254	2.5174e+01	10.0746	43.445636	0.000304	3.040151	1.030031	0.000122
 255	2.5273e+01	10.1179	43.623270	0.000446	4.458888	1.510712	0.000179
 256	2.5372e+01	10.1484	43.760533	0.000345	3.445504	1.167368	0.000138
 257	2.5472e+01	10.1917	43.930093	0.000426	4.256211	1.442043	0.000170
 258	2.5572e+01	10.2398	44.103689	0.000436	4.357549	1.476378	0.000174
 259	2.5671e+01	10.2767	44.289398	0.000466	4.661564	1.579381	0.000187
 260	2.5770e+01	10.3056	44.462994	0.000436	4.357549	1.476378	0.000174
 261	2.5870e+01	10.3425	44.571997	0.000274	2.736136	0.927028	0.000110
 262	2.5970e+01	10.3922	44.761742	0.000476	4.762903	1.613715	0.000191
 263	2.6069e+01	10.4275	44.923228	0.000405	4.053534	1.373375	0.000162
 264	2.6169e+01	10.4788	45.056453	0.000334	3.344166	1.133034	0.000134
 265	2.6268e+01	10.5190	45.205827	0.000375	3.749519	1.270371	0.000150
 266	2.6367e+01	10.5430	45.351164	0.000365	3.648181	1.236037	0.000146
 267	2.6467e+01	10.5944	45.500538	0.000375	3.749519	1.270371	0.000150
 268	2.6567e+01	10.6377	45.653949	0.000385	3.850857	1.304706	0.000154
 269	2.6666e+01	10.6730	45.823509	0.000426	4.256211	1.442043	0.000170
 270	2.6765e+01	10.7147	45.936549	0.000284	2.837474	0.961362	0.000114
 271	2.6865e+01	10.7580	46.033440	0.000243	2.432121	0.824025	0.000097
 272	2.6965e+01	10.7949	46.219148	0.000466	4.661564	1.579381	0.000187
 273	2.7064e+01	10.8334	46.348337	0.000324	3.242827	1.098700	0.000130
 274	2.7163e+01	10.8799	46.501748	0.000385	3.850857	1.304706	0.000154
 275	2.7263e+01	10.9104	46.687456	0.000466	4.661564	1.579381	0.000187
 276	2.7363e+01	10.9505	46.881239	0.000486	4.864241	1.648049	0.000195
 277	2.7462e+01	10.9890	47.026576	0.000365	3.648181	1.236037	0.000146
 278	2.7561e+01	11.0355	47.204210	0.000446	4.458888	1.510712	0.000179
 279	2.7661e+01	11.0628	47.361658	0.000395	3.952196	1.339040	0.000158
 280	2.7761e+01	11.1125	47.498921	0.000345	3.445504	1.167368	0.000138
 281	2.7860e+01	11.1430	47.640220	0.000355	3.546842	1.201703	0.000142
 282	2.7959e+01	11.1879	47.785557	0.000365	3.648181	1.236037	0.000146
 283	2.8059e+01	11.2216	47.943005	0.000395	3.952196	1.339040	0.000158
 284	2.8159e+01	11.2649	48.084305	0.000355	3.546842	1.201703	0.000142
 285	2.8258e+01	11.3050	48.233679	0.000375	3.749519	1.270371	0.000150
 286	2.8358e+01	11.3532	48.366905	0.000334	3.344166	1.133034	0.000134
 287	2.8457e+01	11.3949	48.548576	0.000456	4.560226	1.545046	0.000183
 288	2.8556e+01	11.4350	48.653541	0.000263	2.634797	0.892693	0.000105
 289	2.8656e+01	11.4590	48.790804	0.000345	3.445504	1.167368	0.000138
 290	2.8756e+01	11.5056	48.919992	0.000324	3.242827	1.098700	0.000130
 291	2.8855e+01	11.5441	49.093589	0.000436	4.357549	1.476378	0.000174
 292	2.8954e+01	11.5922	49.242963	0.000375	3.749519	1.270371	0.000150
 293	2.9054e+01	11.6403	49.428671	0.000466	4.661564	1.579381	0.000187
 294	2.9154e+01	11.6708	49.610343	0.000456	4.560226	1.545046	0.000183
 295	2.9253e+01	11.7189	49.792014	0.000456	4.560226	1.545046	0.000183
 296	2.9352e+01	11.7510	49.880831	0.000223	2.229444	0.755356	0.000089
 297	2.9452e+01	11.7911	49.993870	0.000284	2.837474	0.961362	0.000114
 298	2.9552e+01	11.8248	50.207839	0.000537	5.370933	1.819721	0.000215
 299	2.9651e+01	11.8681	50.300693	0.000233	2.330782	0.789690	0.000093
 300	2.9750e+01	11.9066	50.490438	0.000476	4.762903	1.613715	0.000191
 301	2.9850e+01	11.9467	50.647886	0.000395	3.952196	1.339040	0.000158
 302	2.9950e+01	11.9900	50.805335	0.000395	3.952196	1.339040	0.000158
 303	3.0049e+01	12.0269	50.950672	0.000365	3.648181	1.236037	0.000146
 304	3.0148e+01	12.0719	51.055637	0.000263	2.634797	0.892693	0.000105
 305	3.0248e+01	12.1120	51.217123	0.000405	4.053534	1.373375	0.000162
 306	3.0348e+01	12.1473	51.309977	0.000233	2.330782	0.789690	0.000093
 307	3.0447e+01	12.1777	51.479536	0.000426	4.256211	1.442043	0.000170
 308	3.0547e+01	12.2210	51.653133	0.000436	4.357549	1.476378	0.000174
 309	3.0646e+01	12.2740	51.786359	0.000334	3.344166	1.133034	0.000134
 310	3.0745e+01	12.3045	51.959956	0.000436	4.357549	1.476378	0.000174
 311	3.0845e+01	12.3510	52.093181	0.000334	3.344166	1.133034	0.000134
 312	3.0945e+01	12.3879	52.222369	0.000324	3.242827	1.098700	0.000130
 313	3.1044e+01	12.4184	52.355595	0.000334	3.344166	1.133034	0.000134
 314	3.1143e+01	12.4681	52.480746	0.000314	3.141489	1.064365	0.000126
 315	3.1243e+01	12.4890	52.670491	0.000476	4.762903	1.613715	0.000191
 316	3.1343e+01	12.5531	52.815828	0.000365	3.648181	1.236037	0.000146
 317	3.1442e+01	12.5820	52.945017	0.000324	3.242827	1.098700	0.000130
 318	3.1541e+01	12.6269	53.126688	0.000456	4.560226	1.545046	0.000183
 319	3.1641e+01	12.6654	53.203393	0.000193	1.925429	0.652353	0.000077
 320	3.1741e+01	12.7055	53.393139	0.000476	4.762903	1.613715	0.000191
 321	3.1840e+01	12.7424	53.514253	0.000304	3.040151	1.030031	0.000122
 322	3.1939e+01	12.7889	53.643441	0.000324	3.242827	1.098700	0.000130
 323	3.2039e+01	12.8274	53.764555	0.000304	3.040151	1.030031	0.000122
 324	3.2139e+01	12.8659	53.938152	0.000436	4.357549	1.476378	0.000174
 325	3.2238e+01	12.9061	54.079452	0.000355	3.546842	1.201703	0.000142
 326	3.2337e+01	12.9494	54.212677	0.000334	3.344166	1.133034	0.000134
 327	3.2437e+01	12.9750	54.362051	0.000375	3.749519	1.270371	0.000150
 328	3.2536e+01	13.0151	54.527574	0.000415	4.154873	1.407709	0.000166
 329	3.2636e+01	13.0569	54.632539	0.000263	2.634797	0.892693	0.000105
 330	3.2736e+01	13.1050	54.806136	0.000436	4.357549	1.476378	0.000174
 331	3.2835e+01	13.1387	54.935325	0.000324	3.242827	1.098700	0.000130
 332	3.2934e+01	13.1804	55.092773	0.000395	3.952196	1.339040	0.000158
 333	3.3034e+01	13.2141	55.246184	0.000385	3.850857	1.304706	0.000154
 334	3.3133e+01	13.2622	55.399595	0.000385	3.850857	1.304706	0.000154
 335	3.3233e+01	13.2975	55.508598	0.000274	2.736136	0.927028	0.000110
 336	3.3333e+01	13.3328	55.682195	0.000436	4.357549	1.476378	0.000174
 337	3.3432e+01	13.3841	55.803309	0.000304	3.040151	1.030031	0.000122
 338	3.3532e+01	13.4130	55.924423	0.000304	3.040151	1.030031	0.000122
 339	3.3631e+01	13.4595	56.021314	0.000243	2.432121	0.824025	0.000097
 340	3.3730e+01	13.5012	56.215097	0.000486	4.864241	1.648049	0.000195
 341	3.3830e+01	13.5365	56.311988	0.000243	2.432121	0.824025	0.000097
 342	3.3929e+01	13.5782	56.445213	0.000334	3.344166	1.133034	0.000134
 343	3.4029e+01	13.6183	56.598624	0.000385	3.850857	1.304706	0.000154
 344	3.4129e+01	13.6616	56.743961	0.000365	3.648181	1.236037	0.000146
 345	3.4228e+01	13.7001	56.885261	0.000355	3.546842	1.201703	0.000142
 346	3.4328e+01	13.7467	57.022524	0.000345	3.445504	1.167368	0.000138
 347	3.4427e+01	13.7772	57.192083	0.000426	4.256211	1.442043	0.000170
 348	3.4526e+01	13.8157	57.288975	0.000243	2.432121	0.824025	0.000097
 349	3.4626e+01	13.8574	57.458534	0.000426	4.256211	1.442043	0.000170
 350	3.4725e+01	13.9023	57.579648	0.000304	3.040151	1.030031	0.000122
 351	3.4825e+01	13.9408	57.692688	0.000284	2.837474	0.961362	0.000114
 352	3.4925e+01	13.9841	57.829951	0.000345	3.445504	1.167368	0.000138
 353	3.5024e+01	14.0146	58.011622	0.000456	4.560226	1.545046	0.000183
 354	3.5123e+01	14.0515	58.124662	0.000284	2.837474	0.961362	0.000114
 355	3.5223e+01	14.0964	58.249813	0.000314	3.141489	1.064365	0.000126
 356	3.5322e+01	14.1445	58.358816	0.000274	2.736136	0.927028	0.000110
 357	3.5422e+01	14.1750	58.544524	0.000466	4.661564	1.579381	0.000187
 358	3.5522e+01	14.2183	58.657564	0.000284	2.837474	0.961362	0.000114
 359	3.5621e+01	14.2600	58.766566	0.000274	2.736136	0.927028	0.000110
 360	3.5721e+01	14.2905	58.911903	0.000365	3.648181	1.236037	0.000146
 361	3.5820e+01	14.3418	59.045129	0.000334	3.344166	1.133034	0.000134
 362	3.5919e+01	14.3755	59.166243	0.000304	3.040151	1.030031	0.000122
 363	3.6019e+01	14.4204	59.315617	0.000375	3.749519	1.270371	0.000150
 364	3.6118e+01	14.4525	59.448842	0.000334	3.344166	1.133034	0.000134
 365	3.6218e+01	14.4958	59.590142	0.000355	3.546842	1.201703	0.000142
 366	3.6318e+01	14.5343	59.719330	0.000324	3.242827	1.098700	0.000130
 367	3.6417e+01	14.5777	59.852556	0.000334	3.344166	1.133034	0.000134
 368	3.6517e+01	14.6114	59.957521	0.000263	2.634797	0.892693	0.000105
 369	3.6616e+01	14.6531	60.119007	0.000405	4.053534	1.373375	0.000162
 370	3.6715e+01	14.6948	60.223972	0.000263	2.634797	0.892693	0.000105
 371	3.6815e+01	14.7381	60.361235	0.000345	3.445504	1.167368	0.000138
 372	3.6914e+01	14.7766	60.514646	0.000385	3.850857	1.304706	0.000154
 373	3.7014e+01	14.8183	60.595389	0.000203	2.026767	0.686687	0.000081
 374	3.7114e+01	14.8456	60.740726	0.000365	3.648181	1.236037	0.000146
 375	3.7213e+01	14.8841	60.910285	0.000426	4.256211	1.442043	0.000170
 376	3.7313e+01	14.9402	61.023325	0.000284	2.837474	0.961362	0.000114
 377	3.7412e+01	14.9659	61.116179	0.000233	2.330782	0.789690	0.000093
 378	3.7511e+01	15.0092	61.277665	0.000405	4.053534	1.373375	0.000162
 379	3.7611e+01	15.0557	61.394742	0.000294	2.938812	0.995697	0.000118
 380	3.7711e+01	15.0814	61.519893	0.000314	3.141489	1.064365	0.000126
 381	3.7810e+01	15.1231	61.657156	0.000345	3.445504	1.167368	0.000138
 382	3.7910e+01	15.1841	61.782307	0.000314	3.141489	1.064365	0.000126
 383	3.8009e+01	15.2065	61.895347	0.000284	2.837474	0.961362	0.000114
 384	3.8108e+01	15.2498	62.044721	0.000375	3.749519	1.270371	0.000150
 385	3.8208e+01	15.2915	62.145649	0.000253	2.533459	0.858359	0.000101
 386	3.8307e+01	15.3300	62.303097	0.000395	3.952196	1.339040	0.000158
 387	3.8407e+01	15.3750	62.452471	0.000375	3.749519	1.270371	0.000150
 388	3.8507e+01	15.4215	62.521103	0.000172	1.722752	0.583684	0.000069
 389	3.8606e+01	15.4584	62.670477	0.000375	3.749519	1.270371	0.000150
 390	3.8706e+01	15.4953	62.799665	0.000324	3.242827	1.098700	0.000130
 391	3.8805e+01	15.5322	62.916742	0.000294	2.938812	0.995697	0.000118
 392	3.8904e+01	15.5803	63.049967	0.000334	3.344166	1.133034	0.000134
 393	3.9004e+01	15.6220	63.163007	0.000284	2.837474	0.961362	0.000114
 394	3.9103e+01	15.6509	63.296233	0.000334	3.344166	1.133034	0.000134
 395	3.9203e+01	15.6862	63.425421	0.000324	3.242827	1.098700	0.000130
 396	3.9303e+01	15.7247	63.574795	0.000375	3.749519	1.270371	0.000150
 397	3.9402e+01	15.7776	63.683798	0.000274	2.736136	0.927028	0.000110
 398	3.9502e+01	15.8145	63.825097	0.000355	3.546842	1.201703	0.000142
 399	3.9601e+01	15.8482	63.946212	0.000304	3.040151	1.030031	0.000122
 400	3.9700e+01	15.8803	64.095586	0.000375	3.749519	1.270371	0.000150
 401	3.9800e+01	15.9268	64.200551	0.000263	2.634797	0.892693	0.000105
 402	3.9900e+01	15.9733	64.349925	0.000375	3.749519	1.270371	0.000150
 403	3.9999e+01	16.0070	64.491225	0.000355	3.546842	1.201703	0.000142
 404	4.0099e+01	16.0439	64.604265	0.000284	2.837474	0.961362	0.000114
 405	4.0198e+01	16.0953	64.737490	0.000334	3.344166	1.133034	0.000134
 406	4.0297e+01	16.1290	64.842456	0.000263	2.634797	0.892693	0.000105
 407	4.0397e+01	16.1626	64.963570	0.000304	3.040151	1.030031	0.000122
 408	4.0496e+01	16.2124	65.084684	0.000304	3.040151	1.030031	0.000122
 409	4.0596e+01	16.2445	65.213872	0.000324	3.242827	1.098700	0.000130
 410	4.0696e+01	16.2910	65.318838	0.000263	2.634797	0.892693	0.000105
 411	4.0795e+01	16.3327	65.431877	0.000284	2.837474	0.961362	0.000114
 412	4.0895e+01	16.3632	65.528769	0.000243	2.432121	0.824025	0.000097
 413	4.0994e+01	16.4049	65.714477	0.000466	4.661564	1.579381	0.000187
 414	4.1093e+01	16.4450	65.815405	0.000253	2.533459	0.858359	0.000101
 415	4.1193e+01	16.4819	65.956705	0.000355	3.546842	1.201703	0.000142
 416	4.1292e+01	16.5300	66.073782	0.000294	2.938812	0.995697	0.000118
 417	4.1392e+01	16.5733	66.231230	0.000395	3.952196	1.339040	0.000158
 418	4.1492e+01	16.6134	66.344270	0.000284	2.837474	0.961362	0.000114
 419	4.1591e+01	16.6487	66.477496	0.000334	3.344166	1.133034	0.000134
 420	4.1691e+01	16.6824	66.578424	0.000253	2.533459	0.858359	0.000101
 421	4.1790e+01	16.7321	66.679352	0.000253	2.533459	0.858359	0.000101
 422	4.1889e+01	16.7723	66.824689	0.000365	3.648181	1.236037	0.000146
 423	4.1989e+01	16.7995	66.961952	0.000345	3.445504	1.167368	0.000138
 424	4.2089e+01	16.8541	67.062880	0.000253	2.533459	0.858359	0.000101
 425	4.2188e+01	16.8894	67.216291	0.000385	3.850857	1.304706	0.000154
 426	4.2288e+01	16.9279	67.325294	0.000274	2.736136	0.927028	0.000110
 427	4.2387e+01	16.9648	67.426223	0.000253	2.533459	0.858359	0.000101
 428	4.2486e+01	17.0065	67.523114	0.000243	2.432121	0.824025	0.000097
 429	4.2586e+01	17.0386	67.676525	0.000385	3.850857	1.304706	0.000154
 430	4.2685e+01	17.0915	67.781490	0.000263	2.634797	0.892693	0.000105
 431	4.2785e+01	17.1220	67.910679	0.000324	3.242827	1.098700	0.000130
 432	4.2885e+01	17.1669	68.060053	0.000375	3.749519	1.270371	0.000150
 433	4.2984e+01	17.2086	68.152907	0.000233	2.330782	0.789690	0.000093
 434	4.3084e+01	17.2503	68.278058	0.000314	3.141489	1.064365	0.000126
 435	4.3183e+01	17.2840	68.419358	0.000355	3.546842	1.201703	0.000142
 436	4.3282e+01	17.3257	68.548546	0.000324	3.242827	1.098700	0.000130
 437	4.3382e+01	17.3514	68.601029	0.000132	1.317399	0.446347	0.000053
 438	4.3481e+01	17.4059	68.802886	0.000507	5.066918	1.716718	0.000203
 439	4.3581e+01	17.4460	68.907851	0.000263	2.634797	0.892693	0.000105
 440	4.3681e+01	17.4877	69.012817	0.000263	2.634797	0.892693	0.000105
 441	4.3780e+01	17.5198	69.121820	0.000274	2.736136	0.927028	0.000110
 442	4.3880e+01	17.5663	69.291379	0.000426	4.256211	1.442043	0.000170
 443	4.3979e+01	17.6113	69.424605	0.000334	3.344166	1.133034	0.000134
 444	4.4078e+01	17.6434	69.509385	0.000213	2.128105	0.721022	0.000085
 445	4.4178e+01	17.6931	69.654721	0.000365	3.648181	1.236037	0.000146
 446	4.4278e+01	17.7236	69.747576	0.000233	2.330782	0.789690	0.000093
 447	4.4377e+01	17.7685	69.900987	0.000385	3.850857	1.304706	0.000154
 448	4.4477e+01	17.7958	69.981729	0.000203	2.026767	0.686687	0.000081
 449	4.4576e+01	17.8407	70.114955	0.000334	3.344166	1.133034	0.000134
 450	4.4675e+01	17.8904	70.260292	0.000365	3.648181	1.236037	0.000146
 451	4.4775e+01	17.9193	70.361220	0.000253	2.533459	0.858359	0.000101
 452	4.4874e+01	17.9578	70.490409	0.000324	3.242827	1.098700	0.000130
 453	4.4974e+01	18.0059	70.627671	0.000345	3.445504	1.167368	0.000138
 454	4.5074e+01	18.0524	70.748785	0.000304	3.040151	1.030031	0.000122
 455	4.5173e+01	18.0797	70.865862	0.000294	2.938812	0.995697	0.000118
 456	4.5273e+01	18.1214	70.974865	0.000274	2.736136	0.927028	0.000110
 457	4.5372e+01	18.1663	71.108090	0.000334	3.344166	1.133034	0.000134
 458	4.5471e+01	18.1952	71.213056	0.000263	2.634797	0.892693	0.000105
 459	4.5571e+01	18.2433	71.362430	0.000375	3.749519	1.270371	0.000150
 460	4.5670e+01	18.2931	71.471433	0.000274	2.736136	0.927028	0.000110
 461	4.5770e+01	18.3187	71.604658	0.000334	3.344166	1.133034	0.000134
 462	4.5870e+01	18.3604	71.677326	0.000182	1.824090	0.618019	0.000073
 463	4.5969e+01	18.4006	71.830738	0.000385	3.850857	1.304706	0.000154
 464	4.6069e+01	18.4423	71.927629	0.000243	2.432121	0.824025	0.000097
 465	4.6168e+01	18.4840	72.064891	0.000345	3.445504	1.167368	0.000138
 466	4.6267e+01	18.5193	72.198117	0.000334	3.344166	1.133034	0.000134
 467	4.6367e+01	18.5578	72.299045	0.000253	2.533459	0.858359	0.000101
 468	4.6467e+01	18.5882	72.448419	0.000375	3.749519	1.270371	0.000150
 469	4.6566e+01	18.6428	72.549348	0.000253	2.533459	0.858359	0.000101
 470	4.6666e+01	18.6749	72.686610	0.000345	3.445504	1.167368	0.000138
 471	4.6765e+01	18.7198	72.811762	0.000314	3.141489	1.064365	0.000126
 472	4.6864e+01	18.7615	72.912690	0.000253	2.533459	0.858359	0.000101
 473	4.6964e+01	18.7952	73.017656	0.000263	2.634797	0.892693	0.000105
 474	4.7063e+01	18.8385	73.167030	0.000375	3.749519	1.270371	0.000150
 475	4.7163e+01	18.8722	73.259884	0.000233	2.330782	0.789690	0.000093
 476	4.7263e+01	18.9123	73.380998	0.000304	3.040151	1.030031	0.000122
 477	4.7362e+01	18.9524	73.494038	0.000284	2.837474	0.961362	0.000114
 478	4.7462e+01	19.0070	73.623226	0.000324	3.242827	1.098700	0.000130
 479	4.7561e+01	19.0374	73.716080	0.000233	2.330782	0.789690	0.000093
 480	4.7660e+01	19.0727	73.873528	0.000395	3.952196	1.339040	0.000158
 481	4.7760e+01	19.1241	73.950234	0.000193	1.925429	0.652353	0.000077
 482	4.7859e+01	19.1561	74.075385	0.000314	3.141489	1.064365	0.000126
 483	4.7959e+01	19.2027	74.208611	0.000334	3.344166	1.133034	0.000134
 484	4.8059e+01	19.2364	74.289353	0.000203	2.026767	0.686687	0.000081
 485	4.8158e+01	19.2781	74.426616	0.000345	3.445504	1.167368	0.000138
 486	4.8258e+01	19.3118	74.575990	0.000375	3.749519	1.270371	0.000150
 487	4.8357e+01	19.3615	74.640584	0.000162	1.621414	0.549350	0.000065
 488	4.8456e+01	19.3968	74.785921	0.000365	3.648181	1.236037	0.000146
 489	4.8556e+01	19.4401	74.907035	0.000304	3.040151	1.030031	0.000122
 490	4.8656e+01	19.4706	74.999889	0.000233	2.330782	0.789690	0.000093
 491	4.8755e+01	19.5155	75.129078	0.000324	3.242827	1.098700	0.000130
 492	4.8855e+01	19.5540	75.266340	0.000345	3.445504	1.167368	0.000138
 493	4.8954e+01	19.5989	75.387454	0.000304	3.040151	1.030031	0.000122
 494	4.9053e+01	19.6342	75.484345	0.000243	2.432121	0.824025	0.000097
 495	4.9153e+01	19.6775	75.569125	0.000213	2.128105	0.721022	0.000085
 496	4.9252e+01	19.7160	75.694277	0.000314	3.141489	1.064365	0.000126
 497	4.9352e+01	19.7545	75.847688	0.000385	3.850857	1.304706	0.000154
 498	4.9452e+01	19.7962	75.964765	0.000294	2.938812	0.995697	0.000118
 499	4.9551e+01	19.8379	76.041470	0.000193	1.925429	0.652353	0.000077
 500	4.9651e+01	19.8684	76.150473	0.000274	2.736136	0.927028	0.000110
 501	4.9750e+01	19.9133	76.287735	0.000345	3.445504	1.167368	0.000138
 502	4.9849e+01	19.9454	76.396738	0.000274	2.736136	0.927028	0.000110
 503	4.9949e+01	19.9952	76.505741	0.000274	2.736136	0.927028	0.000110
 504	5.0048e+01	19.9502	76.416924	0.000223	2.229444	0.755356	-0.000089
 505	5.0148e+01	19.9085	76.352330	0.000162	1.621414	0.549350	-0.000065
 506	5.0248e+01	19.8732	76.215067	0.000345	3.445504	1.167368	-0.000138
 507	5.0347e+01	19.8395	76.162584	0.000132	1.317399	0.446347	-0.000053
 508	5.0447e+01	19.7946	76.073767	0.000223	2.229444	0.755356	-0.000089
 509	5.0546e+01	19.7593	75.972839	0.000253	2.533459	0.858359	-0.000101
 510	5.0645e+01	19.7192	75.888059	0.000213	2.128105	0.721022	-0.000085
 511	5.0745e+01	19.6695	75.795205	0.000233	2.330782	0.789690	-0.000093
 512	5.0844e+01	19.6358	75.666017	0.000324	3.242827	1.098700	-0.000130
 513	5.0944e+01	19.6021	75.565088	0.000253	2.533459	0.858359	-0.000101
 514	5.1044e+01	19.5476	75.484345	0.000203	2.026767	0.686687	-0.000081
 515	5.1143e+01	19.5155	75.407640	0.000193	1.925429	0.652353	-0.000077
 516	5.1242e+01	19.4818	75.322860	0.000213	2.128105	0.721022	-0.000085
 517	5.1342e+01	19.4353	75.217895	0.000263	2.634797	0.892693	-0.000105
 518	5.1441e+01	19.3920	75.088706	0.000324	3.242827	1.098700	-0.000130
 519	5.1541e+01	19.3567	74.975666	0.000284	2.837474	0.961362	-0.000114
 520	5.1641e+01	19.3246	74.882812	0.000233	2.330782	0.789690	-0.000093
 521	5.1740e+01	19.2797	74.793995	0.000223	2.229444	0.755356	-0.000089
 522	5.1840e+01	19.2396	74.705178	0.000223	2.229444	0.755356	-0.000089
 523	5.1939e+01	19.1930	74.592138	0.000284	2.837474	0.961362	-0.000114
 524	5.2038e+01	19.1610	74.499284	0.000233	2.330782	0.789690	-0.000093
 525	5.2138e+01	19.1160	74.426616	0.000182	1.824090	0.618019	-0.000073
 526	5.2237e+01	19.0775	74.349910	0.000193	1.925429	0.652353	-0.000077
 527	5.2337e+01	19.0390	74.204573	0.000365	3.648181	1.236037	-0.000146
 528	5.2437e+01	18.9989	74.099608	0.000263	2.634797	0.892693	-0.000105
 529	5.2536e+01	18.9556	74.018865	0.000203	2.026767	0.686687	-0.000081
 530	5.2636e+01	18.9283	73.901788	0.000294	2.938812	0.995697	-0.000118
 531	5.2735e+01	18.8722	73.812971	0.000223	2.229444	0.755356	-0.000089
 532	5.2834e+01	18.8417	73.671672	0.000355	3.546842	1.201703	-0.000142
 533	5.2934e+01	18.7952	73.574780	0.000243	2.432121	0.824025	-0.000097
 534	5.3033e+01	18.7583	73.481926	0.000233	2.330782	0.789690	-0.000093
 535	5.3133e+01	18.7246	73.425406	0.000142	1.418737	0.480681	-0.000057
 536	5.3233e+01	18.6845	73.304292	0.000304	3.040151	1.030031	-0.000122
 537	5.3332e+01	18.6364	73.199327	0.000263	2.634797	0.892693	-0.000105
 538	5.3431e+01	18.5931	73.066101	0.000334	3.344166	1.133034	-0.000134
 539	5.3531e+01	18.5626	72.949024	0.000294	2.938812	0.995697	-0.000118
 540	5.3630e+01	18.5209	72.884430	0.000162	1.621414	0.549350	-0.000065
 541	5.3730e+01	18.4759	72.743130	0.000355	3.546842	1.201703	-0.000142
 542	5.3830e+01	18.4423	72.686610	0.000142	1.418737	0.480681	-0.000057
 543	5.3929e+01	18.3957	72.549348	0.000345	3.445504	1.167368	-0.000138
 544	5.4029e+01	18.3637	72.444382	0.000263	2.634797	0.892693	-0.000105
 545	5.4128e+01	18.3187	72.351528	0.000233	2.330782	0.789690	-0.000093
 546	5.4227e+01	18.2802	72.210228	0.000355	3.546842	1.201703	-0.000142
 547	5.4327e+01	18.2465	72.105263	0.000263	2.634797	0.892693	-0.000105
 548	5.4426e+01	18.1984	72.028557	0.000193	1.925429	0.652353	-0.000077
 549	5.4526e+01	18.1615	71.911480	0.000294	2.938812	0.995697	-0.000118
 550	5.4626e+01	18.1230	71.802478	0.000274	2.736136	0.927028	-0.000110
 551	5.4725e+01	18.0781	71.697512	0.000263	2.634797	0.892693	-0.000105
 552	5.4825e+01	18.0476	71.596584	0.000253	2.533459	0.858359	-0.000101
 553	5.4924e+01	18.0043	71.483544	0.000284	2.837474	0.961362	-0.000114
 554	5.5023e+01	17.9578	71.366467	0.000294	2.938812	0.995697	-0.000118
 555	5.5123e+01	17.9193	71.229204	0.000345	3.445504	1.167368	-0.000138
 556	5.5222e+01	17.8792	71.156536	0.000182	1.824090	0.618019	-0.000073
 557	5.5322e+01	17.8439	71.043496	0.000284	2.837474	0.961362	-0.000114
 558	5.5422e+01	17.7990	70.942568	0.000253	2.533459	0.858359	-0.000101
 559	5.5521e+01	17.7653	70.801268	0.000355	3.546842	1.201703	-0.000142
 560	5.5620e+01	17.7252	70.720525	0.000203	2.026767	0.686687	-0.000081
 561	5.5720e+01	17.6851	70.599411	0.000304	3.040151	1.030031	-0.000122
 562	5.5819e+01	17.6417	70.550966	0.000122	1.216060	0.412012	-0.000049
 563	5.5919e+01	17.6097	70.389480	0.000405	4.053534	1.373375	-0.000162
 564	5.6019e+01	17.5599	70.256255	0.000334	3.344166	1.133034	-0.000134
 565	5.6118e+01	17.5311	70.195698	0.000152	1.520075	0.515015	-0.000061
 566	5.6218e+01	17.4845	70.074584	0.000304	3.040151	1.030031	-0.000122
 567	5.6317e+01	17.4541	69.961544	0.000284	2.837474	0.961362	-0.000114
 568	5.6416e+01	17.4027	69.848504	0.000284	2.837474	0.961362	-0.000114
 569	5.6516e+01	17.3674	69.707204	0.000355	3.546842	1.201703	-0.000142
 570	5.6615e+01	17.3321	69.642610	0.000162	1.621414	0.549350	-0.000065
 571	5.6715e+01	17.2920	69.537645	0.000263	2.634797	0.892693	-0.000105
 572	5.6815e+01	17.2471	69.428642	0.000274	2.736136	0.927028	-0.000110
 573	5.6914e+01	17.2118	69.327713	0.000253	2.533459	0.858359	-0.000101
 574	5.7014e+01	17.1685	69.234859	0.000233	2.330782	0.789690	-0.000093
 575	5.7113e+01	17.1220	69.069337	0.000415	4.154873	1.407709	-0.000166
 576	5.7212e+01	17.0771	68.968408	0.000253	2.533459	0.858359	-0.000101
 577	5.7312e+01	17.0402	68.867480	0.000253	2.533459	0.858359	-0.000101
 578	5.7411e+01	17.0113	68.762514	0.000263	2.634797	0.892693	-0.000105
 579	5.7511e+01	16.9616	68.665623	0.000243	2.432121	0.824025	-0.000097
 580	5.7611e+01	16.9182	68.552583	0.000284	2.837474	0.961362	-0.000114
 581	5.7710e+01	16.8942	68.399172	0.000385	3.850857	1.304706	-0.000154
 582	5.7809e+01	16.8428	68.330541	0.000172	1.722752	0.583684	-0.000069
 583	5.7909e+01	16.7979	68.197315	0.000334	3.344166	1.133034	-0.000134
 584	5.8008e+01	16.7658	68.092350	0.000263	2.634797	0.892693	-0.000105
 585	5.8108e+01	16.7225	67.955087	0.000345	3.445504	1.167368	-0.000138
 586	5.8208e+01	16.6824	67.846085	0.000274	2.736136	0.927028	-0.000110
 587	5.8307e+01	16.6584	67.708822	0.000345	3.445504	1.167368	-0.000138
 588	5.8407e+01	16.6054	67.620005	0.000223	2.229444	0.755356	-0.000089
 589	5.8506e+01	16.5653	67.527151	0.000233	2.330782	0.789690	-0.000093
 590	5.8605e+01	16.5300	67.377777	0.000375	3.749519	1.270371	-0.000150
 591	5.8705e+01	16.4835	67.288960	0.000223	2.229444	0.755356	-0.000089
 592	5.8804e+01	16.4466	67.192069	0.000243	2.432121	0.824025	-0.000097
 593	5.8904e+01	16.4145	67.103252	0.000223	2.229444	0.755356	-0.000089
 594	5.9004e+01	16.3712	66.961952	0.000355	3.546842	1.201703	-0.000142
 595	5.9103e+01	16.3279	66.840838	0.000304	3.040151	1.030031	-0.000122
 596	5.9203e+01	16.2878	66.735872	0.000263	2.634797	0.892693	-0.000105
 597	5.9302e+01	16.2525	66.626870	0.000274	2.736136	0.927028	-0.000110
 598	5.9401e+01	16.2011	66.521904	0.000263	2.634797	0.892693	-0.000105
 599	5.9501e+01	16.1594	66.420976	0.000253	2.533459	0.858359	-0.000101
 600	5.9600e+01	16.1241	66.271602	0.000375	3.749519	1.270371	-0.000150
 601	5.9700e+01	16.0889	66.190859	0.000203	2.026767	0.686687	-0.000081
 602	5.9800e+01	16.0487	66.069745	0.000304	3.040151	1.030031	-0.000122
 603	5.9899e+01	16.0102	65.940557	0.000324	3.242827	1.098700	-0.000130
 604	5.9998e+01	15.9750	65.762923	0.000446	4.458888	1.510712	-0.000179
 605	6.0098e+01	15.9268	65.670068	0.000233	2.330782	0.789690	-0.000093
 606	6.0197e+01	15.8883	65.581251	0.000223	2.229444	0.755356	-0.000089
 607	6.0297e+01	15.8594	65.480323	0.000253	2.533459	0.858359	-0.000101
 608	6.0397e+01	15.8081	65.379395	0.000253	2.533459	0.858359	-0.000101
 609	6.0496e+01	15.7648	65.298652	0.000203	2.026767	0.686687	-0.000081
 610	6.0596e+01	15.7327	65.125055	0.000436	4.357549	1.476378	-0.000174
 611	6.0695e+01	15.6878	65.052387	0.000182	1.824090	0.618019	-0.000073
 612	6.0794e+01	15.6509	64.923198	0.000324	3.242827	1.098700	-0.000130
 613	6.0894e+01	15.6028	64.830344	0.000233	2.330782	0.789690	-0.000093
 614	6.0993e+01	15.5627	64.705193	0.000314	3.141489	1.064365	-0.000126
 615	6.1093e+01	15.5306	64.580042	0.000314	3.141489	1.064365	-0.000126
 616	6.1193e+01	15.4985	64.491225	0.000223	2.229444	0.755356	-0.000089
 617	6.1292e+01	15.4520	64.341851	0.000375	3.749519	1.270371	-0.000150
 618	6.1392e+01	15.4038	64.244960	0.000243	2.432121	0.824025	-0.000097
 619	6.1491e+01	15.3702	64.107697	0.000345	3.445504	1.167368	-0.000138
 620	6.1590e+01	15.3333	64.022917	0.000213	2.128105	0.721022	-0.000085
 621	6.1690e+01	15.3012	63.873543	0.000375	3.749519	1.270371	-0.000150
 622	6.1789e+01	15.2514	63.744355	0.000324	3.242827	1.098700	-0.000130
 623	6.1889e+01	15.2210	63.639389	0.000263	2.634797	0.892693	-0.000105
 624	6.1989e+01	15.1825	63.550572	0.000223	2.229444	0.755356	-0.000089
 625	6.2088e+01	15.1327	63.433495	0.000294	2.938812	0.995697	-0.000118
 626	6.2188e+01	15.1022	63.308344	0.000314	3.141489	1.064365	-0.000126
 627	6.2287e+01	15.0477	63.207416	0.000253	2.533459	0.858359	-0.000101
 628	6.2386e+01	15.0188	63.086302	0.000304	3.040151	1.030031	-0.000122
 629	6.2486e+01	14.9771	62.985373	0.000253	2.533459	0.858359	-0.000101
 630	6.2586e+01	14.9258	62.888482	0.000243	2.432121	0.824025	-0.000097
 631	6.2685e+01	14.8873	62.779479	0.000274	2.736136	0.927028	-0.000110
 632	6.2785e+01	14.8584	62.638180	0.000355	3.546842	1.201703	-0.000142
 633	6.2884e+01	14.8087	62.537251	0.000253	2.533459	0.858359	-0.000101
 634	6.2983e+01	14.7830	62.420174	0.000294	2.938812	0.995697	-0.000118
 635	6.3083e+01	14.7333	62.323283	0.000243	2.432121	0.824025	-0.000097
 636	6.3182e+01	14.6948	62.190057	0.000334	3.344166	1.133034	-0.000134
 637	6.3282e+01	14.6499	62.036646	0.000385	3.850857	1.304706	-0.000154
 638	6.3382e+01	14.6194	61.943792	0.000233	2.330782	0.789690	-0.000093
 639	6.3481e+01	14.5664	61.798455	0.000365	3.648181	1.236037	-0.000146
 640	6.3581e+01	14.5295	61.697527	0.000253	2.533459	0.858359	-0.000101
 641	6.3680e+01	14.4975	61.596599	0.000253	2.533459	0.858359	-0.000101
 642	6.3779e+01	14.4541	61.487596	0.000274	2.736136	0.927028	-0.000110
 643	6.3879e+01	14.4172	61.338222	0.000375	3.749519	1.270371	-0.000150
 644	6.3978e+01	14.3755	61.213071	0.000314	3.141489	1.064365	-0.000126
 645	6.4078e+01	14.3338	61.124254	0.000223	2.229444	0.755356	-0.000089
 646	6.4177e+01	14.2953	61.007177	0.000294	2.938812	0.995697	-0.000118
 647	6.4277e+01	14.2568	60.849728	0.000395	3.952196	1.339040	-0.000158
 648	6.4376e+01	14.2135	60.736689	0.000284	2.837474	0.961362	-0.000114
 649	6.4476e+01	14.1750	60.643834	0.000233	2.330782	0.789690	-0.000093
 650	6.4576e+01	14.1365	60.510609	0.000334	3.344166	1.133034	-0.000134
 651	6.4675e+01	14.0932	60.413718	0.000243	2.432121	0.824025	-0.000097
 652	6.4775e+01	14.0547	60.236084	0.000446	4.458888	1.510712	-0.000179
 653	6.4874e+01	14.0194	60.163415	0.000182	1.824090	0.618019	-0.000073
 654	6.4974e+01	13.9777	60.022116	0.000355	3.546842	1.201703	-0.000142
 655	6.5073e+01	13.9440	59.896964	0.000314	3.141489	1.064365	-0.000126
 656	6.5172e+01	13.8991	59.779887	0.000294	2.938812	0.995697	-0.000118
 657	6.5272e+01	13.8542	59.646662	0.000334	3.344166	1.133034	-0.000134
 658	6.5371e+01	13.8157	59.541696	0.000263	2.634797	0.892693	-0.000105
 659	6.5471e+01	13.7755	59.420582	0.000304	3.040151	1.030031	-0.000122
 660	6.5570e+01	13.7403	59.299468	0.000304	3.040151	1.030031	-0.000122
 661	6.5670e+01	13.7034	59.166243	0.000334	3.344166	1.133034	-0.000134
 662	6.5769e+01	13.6649	59.069352	0.000243	2.432121	0.824025	-0.000097
 663	6.5869e+01	13.6055	58.915940	0.000385	3.850857	1.304706	-0.000154
 664	6.5969e+01	13.5830	58.810975	0.000263	2.634797	0.892693	-0.000105
 665	6.6068e+01	13.5477	58.701972	0.000274	2.736136	0.927028	-0.000110
 666	6.6168e+01	13.4980	58.560672	0.000355	3.546842	1.201703	-0.000142
 667	6.6267e+01	13.4579	58.451670	0.000274	2.736136	0.927028	-0.000110
 668	6.6367e+01	13.4162	58.334593	0.000294	2.938812	0.995697	-0.000118
 669	6.6466e+01	13.3761	58.201367	0.000334	3.344166	1.133034	-0.000134
 670	6.6566e+01	13.3424	58.092365	0.000274	2.736136	0.927028	-0.000110
 671	6.6665e+01	13.3007	57.938954	0.000385	3.850857	1.304706	-0.000154
 672	6.6764e+01	13.2574	57.833988	0.000263	2.634797	0.892693	-0.000105
 673	6.6864e+01	13.2205	57.708837	0.000314	3.141489	1.064365	-0.000126
 674	6.6963e+01	13.1820	57.611946	0.000243	2.432121	0.824025	-0.000097
 675	6.7063e+01	13.1387	57.502943	0.000274	2.736136	0.927028	-0.000110
 676	6.7162e+01	13.1002	57.325309	0.000446	4.458888	1.510712	-0.000179
 677	6.7262e+01	13.0536	57.220343	0.000263	2.634797	0.892693	-0.000105
 678	6.7362e+01	13.0264	57.070969	0.000375	3.749519	1.270371	-0.000150
 679	6.7461e+01	12.9766	56.957930	0.000284	2.837474	0.961362	-0.000114
 680	6.7561e+01	12.9430	56.820667	0.000345	3.445504	1.167368	-0.000138
 681	6.7660e+01	12.9044	56.727813	0.000233	2.330782	0.789690	-0.000093
 682	6.7760e+01	12.8563	56.602662	0.000314	3.141489	1.064365	-0.000126
 683	6.7859e+01	12.8258	56.457325	0.000365	3.648181	1.236037	-0.000146
 684	6.7959e+01	12.7841	56.328136	0.000324	3.242827	1.098700	-0.000130
 685	6.8058e+01	12.7408	56.194911	0.000334	3.344166	1.133034	-0.000134
 686	6.8157e+01	12.7039	56.077834	0.000294	2.938812	0.995697	-0.000118
 687	6.8257e+01	12.6766	55.944608	0.000334	3.344166	1.133034	-0.000134
 688	6.8356e+01	12.6301	55.819457	0.000314	3.141489	1.064365	-0.000126
 689	6.8456e+01	12.5868	55.702380	0.000294	2.938812	0.995697	-0.000118
 690	6.8555e+01	12.5483	55.581266	0.000304	3.040151	1.030031	-0.000122
 691	6.8655e+01	12.5066	55.464189	0.000294	2.938812	0.995697	-0.000118
 692	6.8754e+01	12.4665	55.294630	0.000426	4.256211	1.442043	-0.000170
 693	6.8854e+01	12.4296	55.181590	0.000284	2.837474	0.961362	-0.000114
 694	6.8954e+01	12.3911	55.044327	0.000345	3.445504	1.167368	-0.000138
 695	6.9053e+01	12.3414	54.915139	0.000324	3.242827	1.098700	-0.000130
 696	6.9153e+01	12.3141	54.773839	0.000355	3.546842	1.201703	-0.000142
 697	6.9252e+01	12.2628	54.640614	0.000334	3.344166	1.133034	-0.000134
 698	6.9352e+01	12.2194	54.511425	0.000324	3.242827	1.098700	-0.000130
 699	6.9451e+01	12.1906	54.362051	0.000375	3.749519	1.270371	-0.000150
 700	6.9550e+01	12.1473	54.261123	0.000253	2.533459	0.858359	-0.000101
 701	6.9650e+01	12.1007	54.091563	0.000426	4.256211	1.442043	-0.000170
 702	6.9749e+01	12.0686	54.010820	0.000203	2.026767	0.686687	-0.000081
 703	6.9849e+01	12.0317	53.861446	0.000375	3.749519	1.270371	-0.000150
 704	6.9948e+01	11.9852	53.736295	0.000314	3.141489	1.064365	-0.000126
 705	7.0048e+01	11.9435	53.578847	0.000395	3.952196	1.339040	-0.000158
 706	7.0147e+01	11.9098	53.465807	0.000284	2.837474	0.961362	-0.000114
 707	7.0247e+01	11.8633	53.328545	0.000345	3.445504	1.167368	-0.000138
 708	7.0347e+01	11.8248	53.203393	0.000314	3.141489	1.064365	-0.000126
 709	7.0446e+01	11.7911	53.070168	0.000334	3.344166	1.133034	-0.000134
 710	7.0546e+01	11.7510	52.912720	0.000395	3.952196	1.339040	-0.000158
 711	7.0645e+01	11.7109	52.771420	0.000355	3.546842	1.201703	-0.000142
 712	7.0745e+01	11.6692	52.646269	0.000314	3.141489	1.064365	-0.000126
 713	7.0844e+01	11.6307	52.492857	0.000385	3.850857	1.304706	-0.000154
 714	7.0944e+01	11.5874	52.343483	0.000375	3.749519	1.270371	-0.000150
 715	7.1043e+01	11.5473	52.242555	0.000253	2.533459	0.858359	-0.000101
 716	7.1142e+01	11.5152	52.129515	0.000284	2.837474	0.961362	-0.000114
 717	7.1242e+01	11.4719	51.980141	0.000375	3.749519	1.270371	-0.000150
 718	7.1341e+01	11.4302	51.806544	0.000436	4.357549	1.476378	-0.000174
 719	7.1441e+01	11.3965	51.665245	0.000355	3.546842	1.201703	-0.000142
 720	7.1540e+01	11.3483	51.548168	0.000294	2.938812	0.995697	-0.000118
 721	7.1640e+01	11.3163	51.427054	0.000304	3.040151	1.030031	-0.000122
 722	7.1740e+01	11.2681	51.261531	0.000415	4.154873	1.407709	-0.000166
 723	7.1839e+01	11.2200	51.124268	0.000345	3.445504	1.167368	-0.000138
 724	7.1939e+01	11.1879	51.031414	0.000233	2.330782	0.789690	-0.000093
 725	7.2038e+01	11.1526	50.934523	0.000243	2.432121	0.824025	-0.000097
 726	7.2138e+01	11.1157	50.781112	0.000385	3.850857	1.304706	-0.000154
 727	7.2237e+01	11.0708	50.611552	0.000426	4.256211	1.442043	-0.000170
 728	7.2337e+01	11.0371	50.470252	0.000355	3.546842	1.201703	-0.000142
 729	7.2436e+01	10.9954	50.385473	0.000213	2.128105	0.721022	-0.000085
 730	7.2535e+01	10.9473	50.203801	0.000456	4.560226	1.545046	-0.000183
 731	7.2635e+01	10.9120	50.054427	0.000375	3.749519	1.270371	-0.000150
 732	7.2734e+01	10.8751	49.925239	0.000324	3.242827	1.098700	-0.000130
 733	7.2834e+01	10.8334	49.792014	0.000334	3.344166	1.133034	-0.000134
 734	7.2933e+01	10.8013	49.638602	0.000385	3.850857	1.304706	-0.000154
 735	7.3033e+01	10.7564	49.497303	0.000355	3.546842	1.201703	-0.000142
 736	7.3132e+01	10.7131	49.364077	0.000334	3.344166	1.133034	-0.000134
 737	7.3232e+01	10.6681	49.222777	0.000355	3.546842	1.201703	-0.000142
 738	7.3332e+01	10.6296	49.101663	0.000304	3.040151	1.030031	-0.000122
 739	7.3431e+01	10.5879	48.948252	0.000385	3.850857	1.304706	-0.000154
 740	7.3531e+01	10.5607	48.802915	0.000365	3.648181	1.236037	-0.000146
 741	7.3630e+01	10.5190	48.681801	0.000304	3.040151	1.030031	-0.000122
 742	7.3730e+01	10.4660	48.560687	0.000304	3.040151	1.030031	-0.000122
 743	7.3829e+01	10.4291	48.447647	0.000284	2.837474	0.961362	-0.000114
 744	7.3928e+01	10.3826	48.257902	0.000476	4.762903	1.613715	-0.000191
 745	7.4028e+01	10.3505	48.144862	0.000284	2.837474	0.961362	-0.000114
 746	7.4127e+01	10.3232	47.999525	0.000365	3.648181	1.236037	-0.000146
 747	7.4227e+01	10.2735	47.870337	0.000324	3.242827	1.098700	-0.000130
 748	7.4326e+01	10.2318	47.664443	0.000517	5.168256	1.751053	-0.000207
 749	7.4426e+01	10.1933	47.547366	0.000294	2.938812	0.995697	-0.000118
 750	7.4525e+01	10.1580	47.365695	0.000456	4.560226	1.545046	-0.000183
 751	7.4625e+01	10.1211	47.228432	0.000345	3.445504	1.167368	-0.000138
 752	7.4725e+01	10.0762	47.087133	0.000355	3.546842	1.201703	-0.000142
 753	7.4824e+01	10.0377	46.957944	0.000324	3.242827	1.098700	-0.000130
 754	7.4924e+01	9.9880	46.796459	0.000405	4.053534	1.373375	-0.000162
 755	7.5023e+01	9.9591	46.659196	0.000345	3.445504	1.167368	-0.000138
 756	7.5123e+01	9.9126	46.542119	0.000294	2.938812	0.995697	-0.000118
 757	7.5222e+01	9.8757	46.421005	0.000304	3.040151	1.030031	-0.000122
 758	7.5322e+01	9.8339	46.267594	0.000385	3.850857	1.304706	-0.000154
 759	7.5421e+01	9.7938	46.138406	0.000324	3.242827	1.098700	-0.000130
 760	7.5520e+01	9.7553	45.980957	0.000395	3.952196	1.339040	-0.000158
 761	7.5620e+01	9.7008	45.892141	0.000223	2.229444	0.755356	-0.000089
 762	7.5719e+01	9.6751	45.738729	0.000385	3.850857	1.304706	-0.000154
 763	7.5819e+01	9.6350	45.585318	0.000385	3.850857	1.304706	-0.000154
 764	7.5918e+01	9.5949	45.464204	0.000304	3.040151	1.030031	-0.000122
 765	7.6018e+01	9.5564	45.318867	0.000365	3.648181	1.236037	-0.000146
 766	7.6118e+01	9.5115	45.092788	0.000567	5.674948	1.922724	-0.000227
 767	7.6217e+01	9.4650	45.008008	0.000213	2.128105	0.721022	-0.000085
 768	7.6317e+01	9.4313	44.818262	0.000476	4.762903	1.613715	-0.000191
 769	7.6416e+01	9.3960	44.668888	0.000375	3.749519	1.270371	-0.000150
 770	7.6516e+01	9.3623	44.555849	0.000284	2.837474	0.961362	-0.000114
 771	7.6615e+01	9.3238	44.410512	0.000365	3.648181	1.236037	-0.000146
 772	7.6715e+01	9.2885	44.273249	0.000345	3.445504	1.167368	-0.000138
 773	7.6814e+01	9.2324	44.099652	0.000436	4.357549	1.476378	-0.000174
 774	7.6913e+01	9.1987	43.950278	0.000375	3.749519	1.270371	-0.000150
 775	7.7013e+01	9.1538	43.861461	0.000223	2.229444	0.755356	-0.000089
 776	7.7112e+01	9.1249	43.699976	0.000405	4.053534	1.373375	-0.000162
 777	7.7212e+01	9.0751	43.570787	0.000324	3.242827	1.098700	-0.000130
 778	7.7311e+01	9.0366	43.405265	0.000415	4.154873	1.407709	-0.000166
 779	7.7411e+01	8.9949	43.251854	0.000385	3.850857	1.304706	-0.000154
 780	7.7510e+01	8.9596	43.163037	0.000223	2.229444	0.755356	-0.000089
 781	7.7610e+01	8.9115	42.977328	0.000466	4.661564	1.579381	-0.000187
 782	7.7710e+01	8.8826	42.827954	0.000375	3.749519	1.270371	-0.000150
 783	7.7809e+01	8.8345	42.678580	0.000375	3.749519	1.270371	-0.000150
 784	7.7909e+01	8.8008	42.513058	0.000415	4.154873	1.407709	-0.000166
 785	7.8008e+01	8.7559	42.359647	0.000385	3.850857	1.304706	-0.000154
 786	7.8108e+01	8.7238	42.206236	0.000385	3.850857	1.304706	-0.000154
 787	7.8207e+01	8.6725	42.060899	0.000365	3.648181	1.236037	-0.000146
 788	7.8306e+01	8.6372	41.907488	0.000385	3.850857	1.304706	-0.000154
 789	7.8406e+01	8.5971	41.746002	0.000405	4.053534	1.373375	-0.000162
 790	7.8505e+01	8.5570	41.628925	0.000294	2.938812	0.995697	-0.000118
 791	7.8605e+01	8.5153	41.475514	0.000385	3.850857	1.304706	-0.000154
 792	7.8704e+01	8.4832	41.342289	0.000334	3.344166	1.133034	-0.000134
 793	7.8804e+01	8.4399	41.200989	0.000355	3.546842	1.201703	-0.000142
 794	7.8903e+01	8.3998	41.091986	0.000274	2.736136	0.927028	-0.000110
 795	7.9003e+01	8.3581	40.918389	0.000436	4.357549	1.476378	-0.000174
 796	7.9103e+01	8.3179	40.809387	0.000274	2.736136	0.927028	-0.000110
 797	7.9202e+01	8.2827	40.655975	0.000385	3.850857	1.304706	-0.000154
 798	7.9302e+01	8.2377	40.534861	0.000304	3.040151	1.030031	-0.000122
 799	7.9401e+01	8.1976	40.373376	0.000405	4.053534	1.373375	-0.000162
 800	7.9501e+01	8.1720	40.139222	0.000588	5.877625	1.991393	-0.000235
 801	7.9600e+01	8.1254	39.997922	0.000355	3.546842	1.201703	-0.000142
 802	7.9700e+01	8.0757	39.852585	0.000365	3.648181	1.236037	-0.000146
 803	7.9799e+01	8.0372	39.691100	0.000405	4.053534	1.373375	-0.000162
 804	7.9898e+01	8.0019	39.561912	0.000324	3.242827	1.098700	-0.000130
 805	7.9998e+01	7.9602	39.372166	0.000476	4.762903	1.613715	-0.000191
 806	8.0097e+01	7.9233	39.279312	0.000233	2.330782	0.789690	-0.000093
 807	8.0197e+01	7.8800	39.097641	0.000456	4.560226	1.545046	-0.000183
 808	8.0296e+01	7.8399	38.956341	0.000355	3.546842	1.201703	-0.000142
 809	8.0396e+01	7.8014	38.847339	0.000274	2.736136	0.927028	-0.000110
 810	8.0496e+01	7.7597	38.673742	0.000436	4.357549	1.476378	-0.000174
 811	8.0595e+01	7.7228	38.528405	0.000365	3.648181	1.236037	-0.000146
 812	8.0695e+01	7.6843	38.387105	0.000355	3.546842	1.201703	-0.000142
 813	8.0794e+01	7.6442	38.245805	0.000355	3.546842	1.201703	-0.000142
 814	8.0894e+01	7.6089	38.080283	0.000415	4.154873	1.407709	-0.000166
 815	8.0993e+01	7.5624	37.947057	0.000334	3.344166	1.133034	-0.000134
 816	8.1093e+01	7.5222	37.801720	0.000365	3.648181	1.236037	-0.000146
 817	8.1192e+01	7.4854	37.616012	0.000466	4.661564	1.579381	-0.000187
 818	8.1291e+01	7.4468	37.430304	0.000466	4.661564	1.579381	-0.000187
 819	8.1391e+01	7.3923	37.248633	0.000456	4.560226	1.545046	-0.000183
 820	8.1490e+01	7.3666	37.099259	0.000375	3.749519	1.270371	-0.000150
 821	8.1590e+01	7.3217	36.974108	0.000314	3.141489	1.064365	-0.000126
 822	8.1689e+01	7.2784	36.792437	0.000456	4.560226	1.545046	-0.000183
 823	8.1789e+01	7.2463	36.626914	0.000415	4.154873	1.407709	-0.000166
 824	8.1888e+01	7.1998	36.477540	0.000375	3.749519	1.270371	-0.000150
 825	8.1988e+01	7.1757	36.324129	0.000385	3.850857	1.304706	-0.000154
 826	8.2088e+01	7.1180	36.207052	0.000294	2.938812	0.995697	-0.000118
 827	8.2187e+01	7.0907	36.069789	0.000345	3.445504	1.167368	-0.000138
 828	8.2287e+01	7.0442	35.892155	0.000446	4.458888	1.510712	-0.000179
 829	8.2386e+01	7.0073	35.779115	0.000284	2.837474	0.961362	-0.000114
 830	8.2486e+01	6.9656	35.613593	0.000415	4.154873	1.407709	-0.000166
 831	8.2585e+01	6.9223	35.452107	0.000405	4.053534	1.373375	-0.000162
 832	8.2684e+01	6.8806	35.298696	0.000385	3.850857	1.304706	-0.000154
 833	8.2784e+01	6.8404	35.117025	0.000456	4.560226	1.545046	-0.000183
 834	8.2883e+01	6.8036	34.935354	0.000456	4.560226	1.545046	-0.000183
 835	8.2983e+01	6.7667	34.781943	0.000385	3.850857	1.304706	-0.000154
 836	8.3082e+01	6.7362	34.620458	0.000405	4.053534	1.373375	-0.000162
 837	8.3182e+01	6.6880	34.458972	0.000405	4.053534	1.373375	-0.000162
 838	8.3281e+01	6.6511	34.285375	0.000436	4.357549	1.476378	-0.000174
 839	8.3381e+01	6.6159	34.119853	0.000415	4.154873	1.407709	-0.000166
 840	8.3481e+01	6.5661	33.978553	0.000355	3.546842	1.201703	-0.000142
 841	8.3580e+01	6.5244	33.829179	0.000375	3.749519	1.270371	-0.000150
 842	8.3680e+01	6.4779	33.675768	0.000385	3.850857	1.304706	-0.000154
 843	8.3779e+01	6.4474	33.546579	0.000324	3.242827	1.098700	-0.000130
 844	8.3879e+01	6.4025	33.344723	0.000507	5.066918	1.716718	-0.000203
 845	8.3978e+01	6.3704	33.211497	0.000334	3.344166	1.133034	-0.000134
 846	8.4078e+01	6.3271	33.066160	0.000365	3.648181	1.236037	-0.000146
 847	8.4177e+01	6.2902	32.916786	0.000375	3.749519	1.270371	-0.000150
 848	8.4276e+01	6.2533	32.771449	0.000365	3.648181	1.236037	-0.000146
 849	8.4376e+01	6.2180	32.593815	0.000446	4.458888	1.510712	-0.000179
 850	8.4475e+01	6.1731	32.404070	0.000476	4.762903	1.613715	-0.000191
 851	8.4575e+01	6.1410	32.238547	0.000415	4.154873	1.407709	-0.000166
 852	8.4674e+01	6.0897	32.064951	0.000436	4.357549	1.476378	-0.000174
 853	8.4774e+01	6.0576	31.895391	0.000426	4.256211	1.442043	-0.000170
 854	8.4874e+01	6.0079	31.701608	0.000486	4.864241	1.648049	-0.000195
 855	8.4973e+01	5.9694	31.528012	0.000436	4.357549	1.476378	-0.000174
 856	8.5073e+01	5.9276	31.406897	0.000304	3.040151	1.030031	-0.000122
 857	8.5172e+01	5.8907	31.221189	0.000466	4.661564	1.579381	-0.000187
 858	8.5272e+01	5.8490	31.043555	0.000446	4.458888	1.510712	-0.000179
 859	8.5371e+01	5.8073	30.902256	0.000355	3.546842	1.201703	-0.000142
 860	8.5471e+01	5.7656	30.732696	0.000426	4.256211	1.442043	-0.000170
 861	8.5570e+01	5.7303	30.575248	0.000395	3.952196	1.339040	-0.000158
 862	8.5669e+01	5.6950	30.450096	0.000314	3.141489	1.064365	-0.000126
 863	8.5769e+01	5.6549	30.268425	0.000456	4.560226	1.545046	-0.000183
 864	8.5868e+01	5.6068	30.110977	0.000395	3.952196	1.339040	-0.000158
 865	8.5968e+01	5.5875	29.949491	0.000405	4.053534	1.373375	-0.000162
 866	8.6067e+01	5.5362	29.727449	0.000557	5.573610	1.888390	-0.000223
 867	8.6167e+01	5.4977	29.598261	0.000324	3.242827	1.098700	-0.000130
 868	8.6266e+01	5.4512	29.436775	0.000405	4.053534	1.373375	-0.000162
 869	8.6366e+01	5.4255	29.271253	0.000415	4.154873	1.407709	-0.000166
 870	8.6466e+01	5.3742	29.081507	0.000476	4.762903	1.613715	-0.000191
 871	8.6565e+01	5.3309	28.879651	0.000507	5.066918	1.716718	-0.000203
 872	8.6665e+01	5.2972	28.665682	0.000537	5.370933	1.819721	-0.000215
 873	8.6764e+01	5.2523	28.540531	0.000314	3.141489	1.064365	-0.000126
 874	8.6864e+01	5.2154	28.362897	0.000446	4.458888	1.510712	-0.000179
 875	8.6963e+01	5.1753	28.181226	0.000456	4.560226	1.545046	-0.000183
 876	8.7063e+01	5.1335	28.019741	0.000405	4.053534	1.373375	-0.000162
 877	8.7162e+01	5.0999	27.797698	0.000557	5.573610	1.888390	-0.000223
 878	8.7261e+01	5.0485	27.684658	0.000284	2.837474	0.961362	-0.000114
 879	8.7361e+01	5.0132	27.515099	0.000426	4.256211	1.442043	-0.000170
 880	8.7460e+01	4.9747	27.393985	0.000304	3.040151	1.030031	-0.000122
 881	8.7560e+01	4.9330	27.159831	0.000588	5.877625	1.991393	-0.000235
 882	8.7659e+01	4.8945	27.022568	0.000345	3.445504	1.167368	-0.000138
 883	8.7759e+01	4.8464	26.836860	0.000466	4.661564	1.579381	-0.000187
 884	8.7859e+01	4.8207	26.659226	0.000446	4.458888	1.510712	-0.000179
 885	8.7958e+01	4.7694	26.493703	0.000415	4.154873	1.407709	-0.000166
 886	8.8058e+01	4.7277	26.328181	0.000415	4.154873	1.407709	-0.000166
 887	8.8157e+01	4.6940	26.162658	0.000415	4.154873	1.407709	-0.000166
 888	8.8257e+01	4.6587	25.936579	0.000567	5.674948	1.922724	-0.000227
 889	8.8356e+01	4.6138	25.734722	0.000507	5.066918	1.716718	-0.000203
 890	8.8456e+01	4.5721	25.569199	0.000415	4.154873	1.407709	-0.000166
 891	8.8555e+01	4.5416	25.395602	0.000436	4.357549	1.476378	-0.000174
 892	8.8654e+01	4.4919	25.181634	0.000537	5.370933	1.819721	-0.000215
 893	8.8754e+01	4.4582	25.020149	0.000405	4.053534	1.373375	-0.000162
 894	8.8853e+01	4.4148	24.890960	0.000324	3.242827	1.098700	-0.000130
 895	8.8953e+01	4.3699	24.717364	0.000436	4.357549	1.476378	-0.000174
 896	8.9052e+01	4.3443	24.543767	0.000436	4.357549	1.476378	-0.000174
 897	8.9152e+01	4.2929	24.418616	0.000314	3.141489	1.064365	-0.000126
 898	8.9251e+01	4.2592	24.236944	0.000456	4.560226	1.545046	-0.000183
 899	8.9351e+01	4.2207	24.035088	0.000507	5.066918	1.716718	-0.000203
 900	8.9451e+01	4.1774	23.897825	0.000345	3.445504	1.167368	-0.000138
 901	8.9550e+01	4.1421	23.716154	0.000456	4.560226	1.545046	-0.000183
 902	8.9650e+01	4.0988	23.510260	0.000517	5.168256	1.751053	-0.000207
 903	8.9749e+01	4.0571	23.324552	0.000466	4.661564	1.579381	-0.000187
 904	8.9849e+01	4.0202	23.114621	0.000527	5.269594	1.785387	-0.000211
 905	8.9948e+01	3.9753	22.928912	0.000466	4.661564	1.579381	-0.000187
 906	9.0047e+01	3.9416	22.727056	0.000507	5.066918	1.716718	-0.000203
 907	9.0147e+01	3.9047	22.581719	0.000365	3.648181	1.236037	-0.000146
 908	9.0246e+01	3.8582	22.363713	0.000547	5.472271	1.854056	-0.000219
 909	9.0346e+01	3.8165	22.194154	0.000426	4.256211	1.442043	-0.000170
 910	9.0445e+01	3.7748	22.000371	0.000486	4.864241	1.648049	-0.000195
 911	9.0545e+01	3.7475	21.814663	0.000466	4.661564	1.579381	-0.000187
 912	9.0644e+01	3.6978	21.616843	0.000497	4.965579	1.682384	-0.000199
 913	9.0744e+01	3.6641	21.479581	0.000345	3.445504	1.167368	-0.000138
 914	9.0844e+01	3.6208	21.318095	0.000405	4.053534	1.373375	-0.000162
 915	9.0943e+01	3.5839	21.136424	0.000456	4.560226	1.545046	-0.000183
 916	9.1043e+01	3.5454	20.954753	0.000456	4.560226	1.545046	-0.000183
 917	9.1142e+01	3.5020	20.793268	0.000405	4.053534	1.373375	-0.000162
 918	9.1242e+01	3.4619	20.619671	0.000436	4.357549	1.476378	-0.000174
 919	9.1341e+01	3.4202	20.425888	0.000486	4.864241	1.648049	-0.000195
 920	9.1441e+01	3.3801	20.264403	0.000405	4.053534	1.373375	-0.000162
 921	9.1540e+01	3.3368	20.054472	0.000527	5.269594	1.785387	-0.000211
 922	9.1639e+01	3.3031	19.860689	0.000486	4.864241	1.648049	-0.000195
 923	9.1739e+01	3.2630	19.646721	0.000537	5.370933	1.819721	-0.000215
 924	9.1838e+01	3.2229	19.461013	0.000466	4.661564	1.579381	-0.000187
 925	9.1938e+01	3.1796	19.291453	0.000426	4.256211	1.442043	-0.000170
 926	9.2037e+01	3.1459	19.053262	0.000598	5.978963	2.025727	-0.000239
 927	9.2137e+01	3.0978	18.879665	0.000436	4.357549	1.476378	-0.000174
 928	9.2237e+01	3.0657	18.702031	0.000446	4.458888	1.510712	-0.000179
 929	9.2336e+01	3.0176	18.484026	0.000547	5.472271	1.854056	-0.000219
 930	9.2436e+01	2.9759	18.350800	0.000334	3.344166	1.133034	-0.000134
 931	9.2535e+01	2.9438	18.185278	0.000415	4.154873	1.407709	-0.000166
 932	9.2635e+01	2.9037	18.019755	0.000415	4.154873	1.407709	-0.000166
 933	9.2734e+01	2.8571	17.838084	0.000456	4.560226	1.545046	-0.000183
 934	9.2834e+01	2.8234	17.656413	0.000456	4.560226	1.545046	-0.000183
 935	9.2933e+01	2.7849	17.446482	0.000527	5.269594	1.785387	-0.000211
 936	9.3032e+01	2.7513	17.313257	0.000334	3.344166	1.133034	-0.000134
 937	9.3132e+01	2.6999	17.107363	0.000517	5.168256	1.751053	-0.000207
 938	9.3231e+01	2.6646	16.941840	0.000415	4.154873	1.407709	-0.000166
 939	9.3331e+01	2.6181	16.699612	0.000608	6.080301	2.060062	-0.000243
 940	9.3430e+01	2.5892	16.513904	0.000466	4.661564	1.579381	-0.000187
 941	9.3530e+01	2.5475	16.316084	0.000497	4.965579	1.682384	-0.000199
 942	9.3629e+01	2.5058	16.118264	0.000497	4.965579	1.682384	-0.000199
 943	9.3729e+01	2.4625	15.892185	0.000567	5.674948	1.922724	-0.000227
 944	9.3829e+01	2.4208	15.742811	0.000375	3.749519	1.270371	-0.000150
 945	9.3928e+01	2.3839	15.516731	0.000567	5.674948	1.922724	-0.000227
 946	9.4028e+01	2.3502	15.335060	0.000456	4.560226	1.545046	-0.000183
 947	9.4127e+01	2.2973	15.149352	0.000466	4.661564	1.579381	-0.000187
 948	9.4227e+01	2.2668	14.943458	0.000517	5.168256	1.751053	-0.000207
 949	9.4326e+01	2.2267	14.757750	0.000466	4.661564	1.579381	-0.000187
 950	9.4425e+01	2.1850	14.644710	0.000284	2.837474	0.961362	-0.000114
 951	9.4525e+01	2.1497	14.446890	0.000497	4.965579	1.682384	-0.000199
 952	9.4624e+01	2.1096	14.196588	0.000628	6.282978	2.128731	-0.000252
 953	9.4724e+01	2.0663	14.075474	0.000304	3.040151	1.030031	-0.000122
 954	9.4823e+01	2.0310	13.873617	0.000507	5.066918	1.716718	-0.000203
 955	9.4923e+01	1.9844	13.687909	0.000466	4.661564	1.579381	-0.000187
 956	9.5022e+01	1.9491	13.490089	0.000497	4.965579	1.682384	-0.000199
 957	9.5122e+01	1.9010	13.300344	0.000476	4.762903	1.613715	-0.000191
 958	9.5222e+01	1.8609	13.082338	0.000547	5.472271	1.854056	-0.000219
 959	9.5321e+01	1.8288	12.872407	0.000527	5.269594	1.785387	-0.000211
 960	9.5421e+01	1.7855	12.686699	0.000466	4.661564	1.579381	-0.000187
 961	9.5520e+01	1.7454	12.416211	0.000679	6.789670	2.300402	-0.000272
 962	9.5620e+01	1.7005	12.262800	0.000385	3.850857	1.304706	-0.000154
 963	9.5719e+01	1.6668	12.081129	0.000456	4.560226	1.545046	-0.000183
 964	9.5819e+01	1.6219	11.859086	0.000557	5.573610	1.888390	-0.000223
 965	9.5918e+01	1.5850	11.689527	0.000426	4.256211	1.442043	-0.000170
 966	9.6017e+01	1.5561	11.435187	0.000638	6.384316	2.163065	-0.000256
 967	9.6117e+01	1.5096	11.285813	0.000375	3.749519	1.270371	-0.000150
 968	9.6216e+01	1.4663	11.148550	0.000345	3.445504	1.167368	-0.000138
 969	9.6316e+01	1.4278	10.954768	0.000486	4.864241	1.648049	-0.000195
 970	9.6415e+01	1.3893	10.773097	0.000456	4.560226	1.545046	-0.000183
 971	9.6515e+01	1.3476	10.538943	0.000588	5.877625	1.991393	-0.000235
 972	9.6615e+01	1.3074	10.349197	0.000476	4.762903	1.613715	-0.000191
 973	9.6714e+01	1.2786	10.163489	0.000466	4.661564	1.579381	-0.000187
 974	9.6814e+01	1.2272	9.985855	0.000446	4.458888	1.510712	-0.000179
 975	9.6913e+01	1.1887	9.763813	0.000557	5.573610	1.888390	-0.000223
 976	9.7013e+01	1.1438	9.529659	0.000588	5.877625	1.991393	-0.000235
 977	9.7112e+01	1.1085	9.299542	0.000578	5.776286	1.957059	-0.000231
 978	9.7212e+01	1.0700	9.117871	0.000456	4.560226	1.545046	-0.000183
 979	9.7311e+01	1.0315	8.895829	0.000557	5.573610	1.888390	-0.000223
 980	9.7410e+01	0.9930	8.677823	0.000547	5.472271	1.854056	-0.000219
 981	9.7510e+01	0.9433	8.471929	0.000517	5.168256	1.751053	-0.000207
 982	9.7609e+01	0.9112	8.302370	0.000426	4.256211	1.442043	-0.000170
 983	9.7709e+01	0.8663	8.076290	0.000567	5.674948	1.922724	-0.000227
 984	9.7808e+01	0.8342	7.878470	0.000497	4.965579	1.682384	-0.000199
 985	9.7908e+01	0.7909	7.652391	0.000567	5.674948	1.922724	-0.000227
 986	9.8007e+01	0.7460	7.490905	0.000405	4.053534	1.373375	-0.000162
 987	9.8107e+01	0.7091	7.276937	0.000537	5.370933	1.819721	-0.000215
 988	9.8207e+01	0.6658	7.087192	0.000476	4.762903	1.613715	-0.000191
 989	9.8306e+01	0.6337	6.905521	0.000456	4.560226	1.545046	-0.000183
 990	9.8406e+01	0.5904	6.691552	0.000537	5.370933	1.819721	-0.000215
 991	9.8505e+01	0.5503	6.465473	0.000567	5.674948	1.922724	-0.000227
 992	9.8605e+01	0.5053	6.275728	0.000476	4.762903	1.613715	-0.000191
 993	9.8704e+01	0.4668	6.045611	0.000578	5.776286	1.957059	-0.000231
 994	9.8803e+01	0.4380	5.839717	0.000517	5.168256	1.751053	-0.000207
 995	9.8903e+01	0.3978	5.593452	0.000618	6.181640	2.094396	-0.000248
 996	9.9002e+01	0.3497	5.351223	0.000608	6.080301	2.060062	-0.000243
 997	9.9102e+01	0.3273	5.161478	0.000476	4.762903	1.613715	-0.000191
 998	9.9201e+01	0.2759	4.915213	0.000618	6.181640	2.094396	-0.000248
 999	9.9301e+01	0.2294	4.765839	0.000375	3.749519	1.270371	-0.000150
1000	9.9400e+01	0.1925	4.551871	0.000537	5.370933	1.819721	-0.000215
1001	9.9500e+01	0.1556	4.366162	0.000466	4.661564	1.579381	-0.000187
1002	9.9600e+01	0.1027	4.083563	0.000709	7.093685	2.403405	-0.000284
1003	9.9699e+01	0.0738	3.885743	0.000497	4.965579	1.682384	-0.000199
1004	9.9799e+01	0.0289	3.695998	0.000476	4.762903	1.613715	-0.000191
1005	9.9898e+01	0.0064	3.586995	0.000274	2.736136	0.927028	-0.000110
1006	9.9998e+01	-0.0433	3.360916	0.000567	5.674948	1.922724	-0.000227
1007	1.0010e+02	-0.0770	3.163096	0.000497	4.965579	1.682384	-0.000199
1008	1.0020e+02	-0.1123	2.908756	0.000638	6.384316	2.163065	-0.000256
1009	1.0030e+02	-0.1572	2.731122	0.000446	4.458888	1.510712	-0.000179
1010	1.0040e+02	-0.2053	2.488894	0.000608	6.080301	2.060062	-0.000243
1011	1.0050e+02	-0.2390	2.283000	0.000517	5.168256	1.751053	-0.000207
1012	1.0059e+02	-0.2759	1.992326	0.000730	7.296362	2.472074	-0.000292
1013	1.0069e+02	-0.3176	1.782395	0.000527	5.269594	1.785387	-0.000211
1014	1.0079e+02	-0.3658	1.620910	0.000405	4.053534	1.373375	-0.000162
1015	1.0089e+02	-0.4011	1.362533	0.000649	6.485655	2.197399	-0.000260
1016	1.0099e+02	-0.4267	1.132417	0.000578	5.776286	1.957059	-0.000231
1017	1.0109e+02	-0.4732	0.934597	0.000497	4.965579	1.682384	-0.000199
1018	1.0119e+02	-0.5198	0.684295	0.000628	6.282978	2.128731	-0.000252
1019	1.0129e+02	-0.5567	0.494549	0.000476	4.762903	1.613715	-0.000191
1020	1.0139e+02	-0.5968	0.260395	0.000588	5.877625	1.991393	-0.000235
1021	1.0149e+02	-0.6305	0.090836	0.000426	4.256211	1.442043	-0.000170
1022	1.0159e+02	-0.6738	-0.139281	0.000578	5.776286	1.957059	-0.000231
1023	1.0169e+02	-0.7219	-0.316915	0.000446	4.458888	1.510712	-0.000179
1024	1.0179e+02	-0.7556	-0.575292	0.000649	6.485655	2.197399	-0.000260
1025	1.0189e+02	-0.7989	-0.813483	0.000598	5.978963	2.025727	-0.000239
1026	1.0199e+02	-0.8422	-0.999191	0.000466	4.661564	1.579381	-0.000187
1027	1.0209e+02	-0.8855	-1.221234	0.000557	5.573610	1.888390	-0.000223
1028	1.0219e+02	-0.9112	-1.471536	0.000628	6.282978	2.128731	-0.000252
1029	1.0229e+02	-0.9593	-1.705690	0.000588	5.877625	1.991393	-0.000235
1030	1.0239e+02	-0.9930	-1.927732	0.000557	5.573610	1.888390	-0.000223
1031	1.0248e+02	-1.0395	-2.234555	0.000770	7.701715	2.609412	-0.000308
1032	1.0258e+02	-1.0636	-2.412189	0.000446	4.458888	1.510712	-0.000179
1033	1.0268e+02	-1.1133	-2.634231	0.000557	5.573610	1.888390	-0.000223
1034	1.0278e+02	-1.1599	-2.848199	0.000537	5.370933	1.819721	-0.000215
1035	1.0288e+02	-1.1935	-3.062167	0.000537	5.370933	1.819721	-0.000215
1036	1.0298e+02	-1.2272	-3.264024	0.000507	5.066918	1.716718	-0.000203
1037	1.0308e+02	-1.2673	-3.486067	0.000557	5.573610	1.888390	-0.000223
1038	1.0318e+02	-1.3203	-3.687923	0.000507	5.066918	1.716718	-0.000203
1039	1.0328e+02	-1.3540	-3.918040	0.000578	5.776286	1.957059	-0.000231
1040	1.0338e+02	-1.3989	-4.123934	0.000517	5.168256	1.751053	-0.000207
1041	1.0348e+02	-1.4374	-4.362125	0.000598	5.978963	2.025727	-0.000239
1042	1.0358e+02	-1.4839	-4.608390	0.000618	6.181640	2.094396	-0.000248
1043	1.0368e+02	-1.5144	-4.822359	0.000537	5.370933	1.819721	-0.000215
1044	1.0378e+02	-1.5497	-5.056513	0.000588	5.877625	1.991393	-0.000235
1045	1.0388e+02	-1.5978	-5.250295	0.000486	4.864241	1.648049	-0.000195
1046	1.0398e+02	-1.6347	-5.508672	0.000649	6.485655	2.197399	-0.000260
1047	1.0408e+02	-1.6684	-5.706491	0.000497	4.965579	1.682384	-0.000199
1048	1.0418e+02	-1.7069	-5.960831	0.000638	6.384316	2.163065	-0.000256
1049	1.0428e+02	-1.7518	-6.190948	0.000578	5.776286	1.957059	-0.000231
1050	1.0438e+02	-1.7839	-6.412990	0.000557	5.573610	1.888390	-0.000223
1051	1.0447e+02	-1.8240	-6.655218	0.000608	6.080301	2.060062	-0.000243
1052	1.0457e+02	-1.8705	-6.889372	0.000588	5.877625	1.991393	-0.000235
1053	1.0467e+02	-1.9074	-7.095266	0.000517	5.168256	1.751053	-0.000207
1054	1.0477e+02	-1.9475	-7.325383	0.000578	5.776286	1.957059	-0.000231
1055	1.0487e+02	-1.9844	-7.511091	0.000466	4.661564	1.579381	-0.000187
1056	1.0497e+02	-2.0390	-7.757356	0.000618	6.181640	2.094396	-0.000248
1057	1.0507e+02	-2.0823	-7.967287	0.000527	5.269594	1.785387	-0.000211
1058	1.0517e+02	-2.1208	-8.157033	0.000476	4.762903	1.613715	-0.000191
1059	1.0527e+02	-2.1513	-8.383112	0.000567	5.674948	1.922724	-0.000227
1060	1.0537e+02	-2.1850	-8.629378	0.000618	6.181640	2.094396	-0.000248
1061	1.0547e+02	-2.2315	-8.835272	0.000517	5.168256	1.751053	-0.000207
1062	1.0557e+02	-2.2812	-9.045203	0.000527	5.269594	1.785387	-0.000211
1063	1.0567e+02	-2.3101	-9.279356	0.000588	5.877625	1.991393	-0.000235
1064	1.0577e+02	-2.3454	-9.469102	0.000476	4.762903	1.613715	-0.000191
1065	1.0587e+02	-2.3903	-9.727479	0.000649	6.485655	2.197399	-0.000260
1066	1.0597e+02	-2.4240	-9.945484	0.000547	5.472271	1.854056	-0.000219
1067	1.0607e+02	-2.4689	-10.159452	0.000537	5.370933	1.819721	-0.000215
1068	1.0617e+02	-2.5090	-10.438014	0.000699	6.992346	2.369071	-0.000280
1069	1.0627e+02	-2.5475	-10.619686	0.000456	4.560226	1.545046	-0.000183
1070	1.0637e+02	-2.5876	-10.805394	0.000466	4.661564	1.579381	-0.000187
1071	1.0647e+02	-2.6229	-11.007251	0.000507	5.066918	1.716718	-0.000203
1072	1.0656e+02	-2.6678	-11.205070	0.000497	4.965579	1.682384	-0.000199
1073	1.0666e+02	-2.7112	-11.427113	0.000557	5.573610	1.888390	-0.000223
1074	1.0676e+02	-2.7432	-11.641081	0.000537	5.370933	1.819721	-0.000215
1075	1.0686e+02	-2.7833	-11.887346	0.000618	6.181640	2.094396	-0.000248
1076	1.0696e+02	-2.8379	-12.060943	0.000436	4.357549	1.476378	-0.000174
1077	1.0706e+02	-2.8764	-12.287023	0.000567	5.674948	1.922724	-0.000227
1078	1.0716e+02	-2.9149	-12.480805	0.000486	4.864241	1.648049	-0.000195
1079	1.0726e+02	-2.9566	-12.735145	0.000638	6.384316	2.163065	-0.000256
1080	1.0736e+02	-2.9887	-12.912779	0.000446	4.458888	1.510712	-0.000179
1081	1.0746e+02	-3.0352	-13.118673	0.000517	5.168256	1.751053	-0.000207
1082	1.0756e+02	-3.0625	-13.336678	0.000547	5.472271	1.854056	-0.000219
1083	1.0766e+02	-3.1154	-13.591017	0.000638	6.384316	2.163065	-0.000256
1084	1.0776e+02	-3.1491	-13.792874	0.000507	5.066918	1.716718	-0.000203
1085	1.0786e+02	-3.1892	-13.998768	0.000517	5.168256	1.751053	-0.000207
1086	1.0796e+02	-3.2293	-14.220811	0.000557	5.573610	1.888390	-0.000223
1087	1.0806e+02	-3.2630	-14.438816	0.000547	5.472271	1.854056	-0.000219
1088	1.0816e+02	-3.3015	-14.616450	0.000446	4.458888	1.510712	-0.000179
1089	1.0826e+02	-3.3480	-14.834455	0.000547	5.472271	1.854056	-0.000219
1090	1.0836e+02	-3.3930	-15.060535	0.000567	5.674948	1.922724	-0.000227
1091	1.0845e+02	-3.4234	-15.234132	0.000436	4.357549	1.476378	-0.000174
1092	1.0855e+02	-3.4619	-15.427914	0.000486	4.864241	1.648049	-0.000195
1093	1.0865e+02	-3.5052	-15.629771	0.000507	5.066918	1.716718	-0.000203
1094	1.0875e+02	-3.5486	-15.823554	0.000486	4.864241	1.648049	-0.000195
1095	1.0885e+02	-3.5903	-16.057707	0.000588	5.877625	1.991393	-0.000235
1096	1.0895e+02	-3.6256	-16.227267	0.000426	4.256211	1.442043	-0.000170
1097	1.0905e+02	-3.6689	-16.485644	0.000649	6.485655	2.197399	-0.000260
1098	1.0915e+02	-3.7074	-16.671352	0.000466	4.661564	1.579381	-0.000187
1099	1.0925e+02	-3.7395	-16.857060	0.000466	4.661564	1.579381	-0.000187
1100	1.0935e+02	-3.7828	-17.058917	0.000507	5.066918	1.716718	-0.000203
1101	1.0945e+02	-3.8309	-17.252700	0.000486	4.864241	1.648049	-0.000195
1102	1.0955e+02	-3.8566	-17.458593	0.000517	5.168256	1.751053	-0.000207
1103	1.0965e+02	-3.9015	-17.676599	0.000547	5.472271	1.854056	-0.000219
1104	1.0975e+02	-3.9464	-17.866344	0.000476	4.762903	1.613715	-0.000191
1105	1.0985e+02	-3.9865	-18.039941	0.000436	4.357549	1.476378	-0.000174
1106	1.0995e+02	-4.0186	-18.241798	0.000507	5.066918	1.716718	-0.000203
1107	1.1005e+02	-4.0667	-18.427506	0.000466	4.661564	1.579381	-0.000187
1108	1.1015e+02	-4.0972	-18.621289	0.000486	4.864241	1.648049	-0.000195
1109	1.1025e+02	-4.1389	-18.823145	0.000507	5.066918	1.716718	-0.000203
1110	1.1035e+02	-4.1838	-19.000779	0.000446	4.458888	1.510712	-0.000179
1111	1.1044e+02	-4.2239	-19.202636	0.000507	5.066918	1.716718	-0.000203
1112	1.1054e+02	-4.2560	-19.396419	0.000486	4.864241	1.648049	-0.000195
1113	1.1064e+02	-4.2977	-19.610387	0.000537	5.370933	1.819721	-0.000215
1114	1.1074e+02	-4.3587	-19.775909	0.000415	4.154873	1.407709	-0.000166
1115	1.1084e+02	-4.3828	-19.985840	0.000527	5.269594	1.785387	-0.000211
1116	1.1094e+02	-4.4197	-20.187697	0.000507	5.066918	1.716718	-0.000203
1117	1.1104e+02	-4.4678	-20.361294	0.000436	4.357549	1.476378	-0.000174
1118	1.1114e+02	-4.5095	-20.551039	0.000476	4.762903	1.613715	-0.000191
1119	1.1124e+02	-4.5368	-20.760971	0.000527	5.269594	1.785387	-0.000211
1120	1.1134e+02	-4.5737	-20.962827	0.000507	5.066918	1.716718	-0.000203
1121	1.1144e+02	-4.6170	-21.132387	0.000426	4.256211	1.442043	-0.000170
1122	1.1154e+02	-4.6555	-21.326170	0.000486	4.864241	1.648049	-0.000195
1123	1.1164e+02	-4.7004	-21.447284	0.000304	3.040151	1.030031	-0.000122
1124	1.1174e+02	-4.7453	-21.685475	0.000598	5.978963	2.025727	-0.000239
1125	1.1184e+02	-4.7822	-21.867146	0.000456	4.560226	1.545046	-0.000183
1126	1.1194e+02	-4.8143	-22.012483	0.000365	3.648181	1.236037	-0.000146
1127	1.1204e+02	-4.8560	-22.254711	0.000608	6.080301	2.060062	-0.000243
1128	1.1214e+02	-4.9041	-22.428308	0.000436	4.357549	1.476378	-0.000174
1129	1.1224e+02	-4.9458	-22.557496	0.000324	3.242827	1.098700	-0.000130
1130	1.1234e+02	-4.9827	-22.791650	0.000588	5.877625	1.991393	-0.000235
1131	1.1244e+02	-5.0116	-22.949098	0.000395	3.952196	1.339040	-0.000158
1132	1.1253e+02	-5.0646	-23.114621	0.000415	4.154873	1.407709	-0.000166
1133	1.1263e+02	-5.1015	-23.344737	0.000578	5.776286	1.957059	-0.000231
1134	1.1273e+02	-5.1480	-23.510260	0.000415	4.154873	1.407709	-0.000166
1135	1.1283e+02	-5.1817	-23.655597	0.000365	3.648181	1.236037	-0.000146
1136	1.1293e+02	-5.2122	-23.857454	0.000507	5.066918	1.716718	-0.000203
1137	1.1303e+02	-5.2571	-24.059310	0.000507	5.066918	1.716718	-0.000203
1138	1.1313e+02	-5.2892	-24.277316	0.000547	5.472271	1.854056	-0.000219
1139	1.1323e+02	-5.3341	-24.398430	0.000304	3.040151	1.030031	-0.000122
1140	1.1333e+02	-5.3742	-24.559915	0.000405	4.053534	1.373375	-0.000162
1141	1.1343e+02	-5.4255	-24.785995	0.000567	5.674948	1.922724	-0.000227
1142	1.1353e+02	-5.4528	-24.979777	0.000486	4.864241	1.648049	-0.000195
1143	1.1363e+02	-5.5009	-25.108966	0.000324	3.242827	1.098700	-0.000130
1144	1.1373e+02	-5.5410	-25.266414	0.000395	3.952196	1.339040	-0.000158
1145	1.1383e+02	-5.5827	-25.504605	0.000598	5.978963	2.025727	-0.000239
1146	1.1393e+02	-5.6228	-25.645905	0.000355	3.546842	1.201703	-0.000142
1147	1.1403e+02	-5.6662	-25.843724	0.000497	4.965579	1.682384	-0.000199
1148	1.1413e+02	-5.6950	-25.997136	0.000385	3.850857	1.304706	-0.000154
1149	1.1423e+02	-5.7448	-26.198992	0.000507	5.066918	1.716718	-0.000203
1150	1.1433e+02	-5.7833	-26.336255	0.000345	3.445504	1.167368	-0.000138
1151	1.1442e+02	-5.8250	-26.566372	0.000578	5.776286	1.957059	-0.000231
1152	1.1452e+02	-5.8571	-26.707671	0.000355	3.546842	1.201703	-0.000142
1153	1.1462e+02	-5.8956	-26.873194	0.000415	4.154873	1.407709	-0.000166
1154	1.1472e+02	-5.9292	-27.083125	0.000527	5.269594	1.785387	-0.000211
1155	1.1482e+02	-5.9758	-27.256722	0.000436	4.357549	1.476378	-0.000174
1156	1.1492e+02	-6.0223	-27.450504	0.000486	4.864241	1.648049	-0.000195
1157	1.1502e+02	-6.0528	-27.579693	0.000324	3.242827	1.098700	-0.000130
1158	1.1512e+02	-6.0945	-27.773475	0.000486	4.864241	1.648049	-0.000195
1159	1.1522e+02	-6.1458	-27.898627	0.000314	3.141489	1.064365	-0.000126
1160	1.1532e+02	-6.1747	-28.108558	0.000527	5.269594	1.785387	-0.000211
1161	1.1542e+02	-6.2132	-28.257932	0.000375	3.749519	1.270371	-0.000150
1162	1.1552e+02	-6.2581	-28.431528	0.000436	4.357549	1.476378	-0.000174
1163	1.1562e+02	-6.2902	-28.601088	0.000426	4.256211	1.442043	-0.000170
1164	1.1572e+02	-6.3367	-28.778722	0.000446	4.458888	1.510712	-0.000179
1165	1.1582e+02	-6.3752	-28.956356	0.000446	4.458888	1.510712	-0.000179
1166	1.1592e+02	-6.4169	-29.142064	0.000466	4.661564	1.579381	-0.000187
1167	1.1602e+02	-6.4618	-29.263178	0.000304	3.040151	1.030031	-0.000122
1168	1.1612e+02	-6.4907	-29.436775	0.000436	4.357549	1.476378	-0.000174
1169	1.1622e+02	-6.5372	-29.578075	0.000355	3.546842	1.201703	-0.000142
1170	1.1632e+02	-6.5677	-29.788006	0.000527	5.269594	1.785387	-0.000211
1171	1.1642e+02	-6.6110	-29.961603	0.000436	4.357549	1.476378	-0.000174
1172	1.1651e+02	-6.6479	-30.127125	0.000415	4.154873	1.407709	-0.000166
1173	1.1661e+02	-6.6897	-30.312834	0.000466	4.661564	1.579381	-0.000187
1174	1.1671e+02	-6.7298	-30.454133	0.000355	3.546842	1.201703	-0.000142
1175	1.1681e+02	-6.7634	-30.647916	0.000486	4.864241	1.648049	-0.000195
1176	1.1691e+02	-6.8132	-30.785179	0.000345	3.445504	1.167368	-0.000138
1177	1.1701e+02	-6.8533	-30.966850	0.000456	4.560226	1.545046	-0.000183
1178	1.1711e+02	-6.8918	-31.124298	0.000395	3.952196	1.339040	-0.000158
1179	1.1721e+02	-6.9271	-31.265598	0.000355	3.546842	1.201703	-0.000142
1180	1.1731e+02	-6.9688	-31.459380	0.000486	4.864241	1.648049	-0.000195
1181	1.1741e+02	-7.0121	-31.584531	0.000314	3.141489	1.064365	-0.000126
1182	1.1751e+02	-7.0490	-31.798500	0.000537	5.370933	1.819721	-0.000215
1183	1.1761e+02	-7.0955	-31.964022	0.000415	4.154873	1.407709	-0.000166
1184	1.1771e+02	-7.1244	-32.073025	0.000274	2.736136	0.927028	-0.000110
1185	1.1781e+02	-7.1805	-32.254696	0.000456	4.560226	1.545046	-0.000183
1186	1.1791e+02	-7.2078	-32.424256	0.000426	4.256211	1.442043	-0.000170
1187	1.1801e+02	-7.2447	-32.585741	0.000405	4.053534	1.373375	-0.000162
1188	1.1811e+02	-7.2912	-32.799709	0.000537	5.370933	1.819721	-0.000215
1189	1.1821e+02	-7.3329	-32.961195	0.000405	4.053534	1.373375	-0.000162
1190	1.1831e+02	-7.3763	-33.130754	0.000426	4.256211	1.442043	-0.000170
1191	1.1841e+02	-7.4003	-33.276091	0.000365	3.648181	1.236037	-0.000146
1192	1.1850e+02	-7.4485	-33.445651	0.000426	4.256211	1.442043	-0.000170
1193	1.1860e+02	-7.4741	-33.574839	0.000324	3.242827	1.098700	-0.000130
1194	1.1870e+02	-7.5351	-33.752473	0.000446	4.458888	1.510712	-0.000179
1195	1.1880e+02	-7.5656	-33.909922	0.000395	3.952196	1.339040	-0.000158
1196	1.1890e+02	-7.6057	-34.091593	0.000456	4.560226	1.545046	-0.000183
1197	1.1900e+02	-7.6506	-34.249041	0.000395	3.952196	1.339040	-0.000158
1198	1.1910e+02	-7.6811	-34.402452	0.000385	3.850857	1.304706	-0.000154
1199	1.1920e+02	-7.7276	-34.547789	0.000365	3.648181	1.236037	-0.000146
1200	1.1930e+02	-7.7693	-34.749646	0.000507	5.066918	1.716718	-0.000203
1201	1.1940e+02	-7.8030	-34.911131	0.000405	4.053534	1.373375	-0.000162
1202	1.1950e+02	-7.8543	-35.068580	0.000395	3.952196	1.339040	-0.000158
1203	1.1960e+02	-7.8928	-35.226028	0.000395	3.952196	1.339040	-0.000158
1204	1.1970e+02	-7.9281	-35.379439	0.000385	3.850857	1.304706	-0.000154
1205	1.1980e+02	-7.9714	-35.536887	0.000395	3.952196	1.339040	-0.000158
1206	1.1990e+02	-8.0003	-35.686261	0.000375	3.749519	1.270371	-0.000150
1207	1.2000e+02	-8.0356	-35.859858	0.000436	4.357549	1.476378	-0.000174
1208	1.2010e+02	-8.0918	-36.045566	0.000466	4.661564	1.579381	-0.000187
1209	1.2020e+02	-8.1110	-36.251460	0.000517	5.168256	1.751053	-0.000207
1210	1.2030e+02	-8.1688	-36.368537	0.000294	2.938812	0.995697	-0.000118
1211	1.2039e+02	-8.2073	-36.513874	0.000365	3.648181	1.236037	-0.000146
1212	1.2049e+02	-8.2377	-36.647100	0.000334	3.344166	1.133034	-0.000134
1213	1.2059e+02	-8.2907	-36.836845	0.000476	4.762903	1.613715	-0.000191
1214	1.2069e+02	-8.3292	-37.006405	0.000426	4.256211	1.442043	-0.000170
1215	1.2079e+02	-8.3548	-37.099259	0.000233	2.330782	0.789690	-0.000093
1216	1.2089e+02	-8.3998	-37.313227	0.000537	5.370933	1.819721	-0.000215
1217	1.2099e+02	-8.4415	-37.482787	0.000426	4.256211	1.442043	-0.000170
1218	1.2109e+02	-8.4832	-37.616012	0.000334	3.344166	1.133034	-0.000134
1219	1.2119e+02	-8.5233	-37.749238	0.000334	3.344166	1.133034	-0.000134
1220	1.2129e+02	-8.5634	-37.955132	0.000517	5.168256	1.751053	-0.000207
1221	1.2139e+02	-8.6067	-38.076246	0.000304	3.040151	1.030031	-0.000122
1222	1.2149e+02	-8.6468	-38.290214	0.000537	5.370933	1.819721	-0.000215
1223	1.2159e+02	-8.6837	-38.415365	0.000314	3.141489	1.064365	-0.000126
1224	1.2169e+02	-8.7286	-38.580888	0.000415	4.154873	1.407709	-0.000166
1225	1.2179e+02	-8.7559	-38.714113	0.000334	3.344166	1.133034	-0.000134
1226	1.2189e+02	-8.7976	-38.928081	0.000537	5.370933	1.819721	-0.000215
1227	1.2199e+02	-8.8473	-39.053233	0.000314	3.141489	1.064365	-0.000126
1228	1.2209e+02	-8.8730	-39.222792	0.000426	4.256211	1.442043	-0.000170
1229	1.2219e+02	-8.9292	-39.327758	0.000263	2.634797	0.892693	-0.000105
1230	1.2229e+02	-8.9596	-39.485206	0.000395	3.952196	1.339040	-0.000158
1231	1.2239e+02	-8.9997	-39.642654	0.000395	3.952196	1.339040	-0.000158
1232	1.2248e+02	-9.0511	-39.816251	0.000436	4.357549	1.476378	-0.000174
1233	1.2258e+02	-9.0880	-39.973700	0.000395	3.952196	1.339040	-0.000158
1234	1.2268e+02	-9.1201	-40.086739	0.000284	2.837474	0.961362	-0.000114
1235	1.2278e+02	-9.1586	-40.260336	0.000436	4.357549	1.476378	-0.000174
1236	1.2288e+02	-9.1955	-40.421822	0.000405	4.053534	1.373375	-0.000162
1237	1.2298e+02	-9.2500	-40.555047	0.000334	3.344166	1.133034	-0.000134
1238	1.2308e+02	-9.2853	-40.769015	0.000537	5.370933	1.819721	-0.000215
1239	1.2318e+02	-9.3142	-40.906278	0.000345	3.445504	1.167368	-0.000138
1240	1.2328e+02	-9.3671	-41.019318	0.000284	2.837474	0.961362	-0.000114
1241	1.2338e+02	-9.4040	-41.148506	0.000324	3.242827	1.098700	-0.000130
1242	1.2348e+02	-9.4377	-41.382660	0.000588	5.877625	1.991393	-0.000235
1243	1.2358e+02	-9.4730	-41.495700	0.000284	2.837474	0.961362	-0.000114
1244	1.2368e+02	-9.5211	-41.669297	0.000436	4.357549	1.476378	-0.000174
1245	1.2378e+02	-9.5564	-41.786373	0.000294	2.938812	0.995697	-0.000118
1246	1.2388e+02	-9.5949	-41.972082	0.000466	4.661564	1.579381	-0.000187
1247	1.2398e+02	-9.6350	-42.109344	0.000345	3.445504	1.167368	-0.000138
1248	1.2408e+02	-9.6799	-42.210273	0.000253	2.533459	0.858359	-0.000101
1249	1.2418e+02	-9.7249	-42.391944	0.000456	4.560226	1.545046	-0.000183
1250	1.2428e+02	-9.7585	-42.509021	0.000294	2.938812	0.995697	-0.000118
1251	1.2438e+02	-9.8019	-42.710878	0.000507	5.066918	1.716718	-0.000203
1252	1.2447e+02	-9.8307	-42.799695	0.000223	2.229444	0.755356	-0.000089
1253	1.2457e+02	-9.8805	-42.993477	0.000486	4.864241	1.648049	-0.000195
1254	1.2467e+02	-9.9158	-43.134777	0.000355	3.546842	1.201703	-0.000142
1255	1.2477e+02	-9.9591	-43.284151	0.000375	3.749519	1.270371	-0.000150
1256	1.2487e+02	-10.0072	-43.437562	0.000385	3.850857	1.304706	-0.000154
1257	1.2497e+02	-10.0393	-43.611159	0.000436	4.357549	1.476378	-0.000174
1258	1.2507e+02	-10.0778	-43.728236	0.000294	2.938812	0.995697	-0.000118
1259	1.2517e+02	-10.1163	-43.853387	0.000314	3.141489	1.064365	-0.000126
1260	1.2527e+02	-10.1516	-44.043132	0.000476	4.762903	1.613715	-0.000191
1261	1.2537e+02	-10.1997	-44.224803	0.000456	4.560226	1.545046	-0.000183
1262	1.2547e+02	-10.2270	-44.366103	0.000355	3.546842	1.201703	-0.000142
1263	1.2557e+02	-10.2687	-44.535663	0.000426	4.256211	1.442043	-0.000170
1264	1.2567e+02	-10.3168	-44.620443	0.000213	2.128105	0.721022	-0.000085
1265	1.2577e+02	-10.3537	-44.785965	0.000415	4.154873	1.407709	-0.000166
1266	1.2587e+02	-10.4051	-44.882857	0.000243	2.432121	0.824025	-0.000097
1267	1.2597e+02	-10.4371	-45.016082	0.000334	3.344166	1.133034	-0.000134
1268	1.2607e+02	-10.4869	-45.213902	0.000497	4.965579	1.682384	-0.000199
1269	1.2617e+02	-10.5141	-45.383461	0.000426	4.256211	1.442043	-0.000170
1270	1.2627e+02	-10.5526	-45.500538	0.000294	2.938812	0.995697	-0.000118
1271	1.2636e+02	-10.6024	-45.649912	0.000375	3.749519	1.270371	-0.000150
1272	1.2646e+02	-10.6409	-45.754878	0.000263	2.634797	0.892693	-0.000105
1273	1.2656e+02	-10.6778	-45.932512	0.000446	4.458888	1.510712	-0.000179
1274	1.2666e+02	-10.7147	-46.037477	0.000263	2.634797	0.892693	-0.000105
1275	1.2676e+02	-10.7596	-46.198963	0.000405	4.053534	1.373375	-0.000162
1276	1.2686e+02	-10.8013	-46.348337	0.000375	3.749519	1.270371	-0.000150
1277	1.2696e+02	-10.8366	-46.534045	0.000466	4.661564	1.579381	-0.000187
1278	1.2706e+02	-10.8799	-46.675345	0.000355	3.546842	1.201703	-0.000142
1279	1.2716e+02	-10.9152	-46.788385	0.000284	2.837474	0.961362	-0.000114
1280	1.2726e+02	-10.9617	-46.953907	0.000415	4.154873	1.407709	-0.000166
1281	1.2736e+02	-11.0002	-47.054836	0.000253	2.533459	0.858359	-0.000101
1282	1.2746e+02	-11.0371	-47.204210	0.000375	3.749519	1.270371	-0.000150
1283	1.2756e+02	-11.0708	-47.333398	0.000324	3.242827	1.098700	-0.000130
1284	1.2766e+02	-11.1221	-47.462586	0.000324	3.242827	1.098700	-0.000130
1285	1.2776e+02	-11.1558	-47.644257	0.000456	4.560226	1.545046	-0.000183
1286	1.2786e+02	-11.1959	-47.749223	0.000263	2.634797	0.892693	-0.000105
1287	1.2796e+02	-11.2296	-47.862263	0.000284	2.837474	0.961362	-0.000114
1288	1.2806e+02	-11.2842	-48.056045	0.000486	4.864241	1.648049	-0.000195
1289	1.2816e+02	-11.3211	-48.165048	0.000274	2.736136	0.927028	-0.000110
1290	1.2826e+02	-11.3628	-48.338645	0.000436	4.357549	1.476378	-0.000174
1291	1.2835e+02	-11.3949	-48.455722	0.000294	2.938812	0.995697	-0.000118
1292	1.2845e+02	-11.4430	-48.584910	0.000324	3.242827	1.098700	-0.000130
1293	1.2855e+02	-11.4847	-48.746395	0.000405	4.053534	1.373375	-0.000162
1294	1.2865e+02	-11.5168	-48.875584	0.000324	3.242827	1.098700	-0.000130
1295	1.2875e+02	-11.5585	-49.028995	0.000385	3.850857	1.304706	-0.000154
1296	1.2885e+02	-11.5906	-49.178369	0.000375	3.749519	1.270371	-0.000150
1297	1.2895e+02	-11.6339	-49.299483	0.000304	3.040151	1.030031	-0.000122
1298	1.2905e+02	-11.6708	-49.424634	0.000314	3.141489	1.064365	-0.000126
1299	1.2915e+02	-11.7141	-49.537674	0.000284	2.837474	0.961362	-0.000114
1300	1.2925e+02	-11.7526	-49.683011	0.000365	3.648181	1.236037	-0.000146
1301	1.2935e+02	-11.7863	-49.808162	0.000314	3.141489	1.064365	-0.000126
1302	1.2945e+02	-11.8296	-49.913128	0.000263	2.634797	0.892693	-0.000105
1303	1.2955e+02	-11.8665	-50.066539	0.000385	3.850857	1.304706	-0.000154
1304	1.2965e+02	-11.9194	-50.191690	0.000314	3.141489	1.064365	-0.000126
1305	1.2975e+02	-11.9563	-50.381435	0.000476	4.762903	1.613715	-0.000191
1306	1.2985e+02	-11.9932	-50.498512	0.000294	2.938812	0.995697	-0.000118
1307	1.2995e+02	-12.0398	-50.647886	0.000375	3.749519	1.270371	-0.000150
1308	1.3005e+02	-12.0702	-50.712481	0.000162	1.621414	0.549350	-0.000065
1309	1.3015e+02	-12.1216	-50.910300	0.000497	4.965579	1.682384	-0.000199
1310	1.3025e+02	-12.1473	-51.051600	0.000355	3.546842	1.201703	-0.000142
1311	1.3034e+02	-12.1906	-51.168677	0.000294	2.938812	0.995697	-0.000118
1312	1.3044e+02	-12.2387	-51.350348	0.000456	4.560226	1.545046	-0.000183
1313	1.3054e+02	-12.2579	-51.467425	0.000294	2.938812	0.995697	-0.000118
1314	1.3064e+02	-12.2997	-51.632948	0.000415	4.154873	1.407709	-0.000166
1315	1.3074e+02	-12.3462	-51.701579	0.000172	1.722752	0.583684	-0.000069
1316	1.3084e+02	-12.3911	-51.871139	0.000426	4.256211	1.442043	-0.000170
1317	1.3094e+02	-12.4312	-51.988215	0.000294	2.938812	0.995697	-0.000118
1318	1.3104e+02	-12.4665	-52.125478	0.000345	3.445504	1.167368	-0.000138
1319	1.3114e+02	-12.5114	-52.254666	0.000324	3.242827	1.098700	-0.000130
1320	1.3124e+02	-12.5563	-52.367706	0.000284	2.837474	0.961362	-0.000114
1321	1.3134e+02	-12.5964	-52.545340	0.000446	4.458888	1.510712	-0.000179
1322	1.3144e+02	-12.6301	-52.690677	0.000365	3.648181	1.236037	-0.000146
1323	1.3154e+02	-12.6718	-52.759308	0.000172	1.722752	0.583684	-0.000069
1324	1.3164e+02	-12.7087	-52.904645	0.000365	3.648181	1.236037	-0.000146
1325	1.3174e+02	-12.7472	-53.062094	0.000395	3.952196	1.339040	-0.000158
1326	1.3184e+02	-12.7841	-53.219542	0.000395	3.952196	1.339040	-0.000158
1327	1.3194e+02	-12.8339	-53.328545	0.000274	2.736136	0.927028	-0.000110
1328	1.3204e+02	-12.8676	-53.445621	0.000294	2.938812	0.995697	-0.000118
1329	1.3214e+02	-12.9141	-53.635367	0.000476	4.762903	1.613715	-0.000191
1330	1.3224e+02	-12.9413	-53.732258	0.000243	2.432121	0.824025	-0.000097
1331	1.3234e+02	-12.9847	-53.804927	0.000182	1.824090	0.618019	-0.000073
1332	1.3243e+02	-13.0280	-54.002746	0.000497	4.965579	1.682384	-0.000199
1333	1.3253e+02	-13.0649	-54.131935	0.000324	3.242827	1.098700	-0.000130
1334	1.3263e+02	-13.1050	-54.240937	0.000274	2.736136	0.927028	-0.000110
1335	1.3273e+02	-13.1435	-54.394348	0.000385	3.850857	1.304706	-0.000154
1336	1.3283e+02	-13.1948	-54.507388	0.000284	2.837474	0.961362	-0.000114
1337	1.3293e+02	-13.2205	-54.640614	0.000334	3.344166	1.133034	-0.000134
1338	1.3303e+02	-13.2750	-54.789988	0.000375	3.749519	1.270371	-0.000150
1339	1.3313e+02	-13.3007	-54.903027	0.000284	2.837474	0.961362	-0.000114
1340	1.3323e+02	-13.3408	-55.028179	0.000314	3.141489	1.064365	-0.000126
1341	1.3333e+02	-13.3889	-55.161404	0.000334	3.344166	1.133034	-0.000134
1342	1.3343e+02	-13.4371	-55.310778	0.000375	3.749519	1.270371	-0.000150
1343	1.3353e+02	-13.4691	-55.399595	0.000223	2.229444	0.755356	-0.000089
1344	1.3363e+02	-13.5012	-55.593378	0.000486	4.864241	1.648049	-0.000195
1345	1.3373e+02	-13.5445	-55.674120	0.000203	2.026767	0.686687	-0.000081
1346	1.3383e+02	-13.5798	-55.871940	0.000497	4.965579	1.682384	-0.000199
1347	1.3393e+02	-13.6071	-55.980943	0.000274	2.736136	0.927028	-0.000110
1348	1.3403e+02	-13.6729	-56.057648	0.000193	1.925429	0.652353	-0.000077
1349	1.3413e+02	-13.7082	-56.186837	0.000324	3.242827	1.098700	-0.000130
1350	1.3423e+02	-13.7419	-56.364471	0.000446	4.458888	1.510712	-0.000179
1351	1.3432e+02	-13.7804	-56.485585	0.000304	3.040151	1.030031	-0.000122
1352	1.3442e+02	-13.8253	-56.574402	0.000223	2.229444	0.755356	-0.000089
1353	1.3452e+02	-13.8702	-56.747999	0.000436	4.357549	1.476378	-0.000174
1354	1.3462e+02	-13.9007	-56.877187	0.000324	3.242827	1.098700	-0.000130
1355	1.3472e+02	-13.9456	-56.986190	0.000274	2.736136	0.927028	-0.000110
1356	1.3482e+02	-13.9873	-57.143638	0.000395	3.952196	1.339040	-0.000158
1357	1.3492e+02	-14.0130	-57.288975	0.000365	3.648181	1.236037	-0.000146
1358	1.3502e+02	-14.0627	-57.385866	0.000243	2.432121	0.824025	-0.000097
1359	1.3512e+02	-14.1076	-57.519091	0.000334	3.344166	1.133034	-0.000134
1360	1.3522e+02	-14.1461	-57.620020	0.000253	2.533459	0.858359	-0.000101
1361	1.3532e+02	-14.1878	-57.785542	0.000415	4.154873	1.407709	-0.000166
1362	1.3542e+02	-14.2215	-57.951065	0.000415	4.154873	1.407709	-0.000166
1363	1.3552e+02	-14.2536	-58.056030	0.000263	2.634797	0.892693	-0.000105
1364	1.3562e+02	-14.3001	-58.217516	0.000405	4.053534	1.373375	-0.000162
1365	1.3572e+02	-14.3370	-58.358816	0.000355	3.546842	1.201703	-0.000142
1366	1.3582e+02	-14.3755	-58.447633	0.000223	2.229444	0.755356	-0.000089
1367	1.3592e+02	-14.4140	-58.544524	0.000243	2.432121	0.824025	-0.000097
1368	1.3602e+02	-14.4590	-58.673712	0.000324	3.242827	1.098700	-0.000130
1369	1.3612e+02	-14.5087	-58.770604	0.000243	2.432121	0.824025	-0.000097
1370	1.3622e+02	-14.5440	-58.944200	0.000436	4.357549	1.476378	-0.000174
1371	1.3631e+02	-14.5793	-59.037054	0.000233	2.330782	0.789690	-0.000093
1372	1.3641e+02	-14.6242	-59.194503	0.000395	3.952196	1.339040	-0.000158
1373	1.3651e+02	-14.6675	-59.339840	0.000365	3.648181	1.236037	-0.000146
1374	1.3661e+02	-14.6964	-59.485177	0.000365	3.648181	1.236037	-0.000146
1375	1.3671e+02	-14.7349	-59.573994	0.000223	2.229444	0.755356	-0.000089
1376	1.3681e+02	-14.7894	-59.723368	0.000375	3.749519	1.270371	-0.000150
1377	1.3691e+02	-14.8183	-59.864667	0.000355	3.546842	1.201703	-0.000142
1378	1.3701e+02	-14.8632	-60.001930	0.000345	3.445504	1.167368	-0.000138
1379	1.3711e+02	-14.8905	-60.127081	0.000314	3.141489	1.064365	-0.000126
1380	1.3721e+02	-14.9290	-60.328938	0.000507	5.066918	1.716718	-0.000203
1381	1.3731e+02	-14.9803	-60.429866	0.000253	2.533459	0.858359	-0.000101
1382	1.3741e+02	-15.0204	-60.575203	0.000365	3.648181	1.236037	-0.000146
1383	1.3751e+02	-15.0605	-60.724577	0.000375	3.749519	1.270371	-0.000150
1384	1.3761e+02	-15.0878	-60.797246	0.000182	1.824090	0.618019	-0.000073
1385	1.3771e+02	-15.1407	-60.910285	0.000284	2.837474	0.961362	-0.000114
1386	1.3781e+02	-15.1841	-61.051585	0.000355	3.546842	1.201703	-0.000142
1387	1.3791e+02	-15.2161	-61.152514	0.000253	2.533459	0.858359	-0.000101
1388	1.3801e+02	-15.2514	-61.289776	0.000345	3.445504	1.167368	-0.000138
1389	1.3811e+02	-15.3012	-61.406853	0.000294	2.938812	0.995697	-0.000118
1390	1.3821e+02	-15.3493	-61.576413	0.000426	4.256211	1.442043	-0.000170
1391	1.3831e+02	-15.3814	-61.681378	0.000263	2.634797	0.892693	-0.000105
1392	1.3840e+02	-15.4215	-61.810567	0.000324	3.242827	1.098700	-0.000130
1393	1.3850e+02	-15.4664	-61.931681	0.000304	3.040151	1.030031	-0.000122
1394	1.3860e+02	-15.4985	-62.072981	0.000355	3.546842	1.201703	-0.000142
1395	1.3870e+02	-15.5418	-62.222355	0.000375	3.749519	1.270371	-0.000150
1396	1.3880e+02	-15.5707	-62.387877	0.000415	4.154873	1.407709	-0.000166
1397	1.3890e+02	-15.6204	-62.488806	0.000253	2.533459	0.858359	-0.000101
1398	1.3900e+02	-15.6493	-62.626068	0.000345	3.445504	1.167368	-0.000138
1399	1.3910e+02	-15.6910	-62.739108	0.000284	2.837474	0.961362	-0.000114
1400	1.3920e+02	-15.7359	-62.827925	0.000223	2.229444	0.755356	-0.000089
1401	1.3930e+02	-15.7776	-62.961150	0.000334	3.344166	1.133034	-0.000134
1402	1.3940e+02	-15.8145	-63.094376	0.000334	3.344166	1.133034	-0.000134
1403	1.3950e+02	-15.8610	-63.223564	0.000324	3.242827	1.098700	-0.000130
1404	1.3960e+02	-15.8963	-63.316418	0.000233	2.330782	0.789690	-0.000093
1405	1.3970e+02	-15.9429	-63.461755	0.000365	3.648181	1.236037	-0.000146
1406	1.3980e+02	-15.9685	-63.534424	0.000182	1.824090	0.618019	-0.000073
1407	1.3990e+02	-16.0167	-63.691872	0.000395	3.952196	1.339040	-0.000158
1408	1.4000e+02	-16.0455	-63.817023	0.000314	3.141489	1.064365	-0.000126
1409	1.4010e+02	-16.0953	-63.962360	0.000365	3.648181	1.236037	-0.000146
1410	1.4020e+02	-16.1386	-64.071363	0.000274	2.736136	0.927028	-0.000110
1411	1.4029e+02	-16.1739	-64.244960	0.000436	4.357549	1.476378	-0.000174
1412	1.4039e+02	-16.2188	-64.366074	0.000304	3.040151	1.030031	-0.000122
1413	1.4049e+02	-16.2557	-64.471039	0.000263	2.634797	0.892693	-0.000105
1414	1.4059e+02	-16.2942	-64.664822	0.000486	4.864241	1.648049	-0.000195
1415	1.4069e+02	-16.3407	-64.753639	0.000223	2.229444	0.755356	-0.000089
1416	1.4079e+02	-16.3808	-64.858604	0.000263	2.634797	0.892693	-0.000105
1417	1.4089e+02	-16.4113	-65.040275	0.000456	4.560226	1.545046	-0.000183
1418	1.4099e+02	-16.4530	-65.169464	0.000324	3.242827	1.098700	-0.000130
1419	1.4109e+02	-16.4915	-65.262318	0.000233	2.330782	0.789690	-0.000093
1420	1.4119e+02	-16.5348	-65.391506	0.000324	3.242827	1.098700	-0.000130
1421	1.4129e+02	-16.5765	-65.480323	0.000223	2.229444	0.755356	-0.000089
1422	1.4139e+02	-16.6070	-65.605474	0.000314	3.141489	1.064365	-0.000126
1423	1.4149e+02	-16.6503	-65.750811	0.000365	3.648181	1.236037	-0.000146
1424	1.4159e+02	-16.6920	-65.827517	0.000193	1.925429	0.652353	-0.000077
1425	1.4169e+02	-16.7386	-65.997076	0.000426	4.256211	1.442043	-0.000170
1426	1.4179e+02	-16.7755	-66.142413	0.000365	3.648181	1.236037	-0.000146
1427	1.4189e+02	-16.8043	-66.267565	0.000314	3.141489	1.064365	-0.000126
1428	1.4199e+02	-16.8477	-66.453273	0.000466	4.661564	1.579381	-0.000187
1429	1.4209e+02	-16.8749	-66.534016	0.000203	2.026767	0.686687	-0.000081
1430	1.4219e+02	-16.9359	-66.679352	0.000365	3.648181	1.236037	-0.000146
1431	1.4228e+02	-16.9696	-66.780281	0.000253	2.533459	0.858359	-0.000101
1432	1.4238e+02	-17.0097	-66.909469	0.000324	3.242827	1.098700	-0.000130
1433	1.4248e+02	-17.0546	-67.026546	0.000294	2.938812	0.995697	-0.000118
1434	1.4258e+02	-17.0963	-67.163809	0.000345	3.445504	1.167368	-0.000138
1435	1.4268e+02	-17.1332	-67.313183	0.000375	3.749519	1.270371	-0.000150
1436	1.4278e+02	-17.1733	-67.385851	0.000182	1.824090	0.618019	-0.000073
1437	1.4288e+02	-17.2086	-67.515040	0.000324	3.242827	1.098700	-0.000130
1438	1.4298e+02	-17.2583	-67.636154	0.000304	3.040151	1.030031	-0.000122
1439	1.4308e+02	-17.2824	-67.720933	0.000213	2.128105	0.721022	-0.000085
1440	1.4318e+02	-17.3321	-67.870307	0.000375	3.749519	1.270371	-0.000150
1441	1.4328e+02	-17.3803	-68.019681	0.000375	3.749519	1.270371	-0.000150
1442	1.4338e+02	-17.4043	-68.084276	0.000162	1.621414	0.549350	-0.000065
1443	1.4348e+02	-17.4589	-68.237687	0.000385	3.850857	1.304706	-0.000154
1444	1.4358e+02	-17.4765	-68.387061	0.000375	3.749519	1.270371	-0.000150
1445	1.4368e+02	-17.5295	-68.556621	0.000426	4.256211	1.442043	-0.000170
1446	1.4378e+02	-17.5728	-68.665623	0.000274	2.736136	0.927028	-0.000110
1447	1.4388e+02	-17.5952	-68.774626	0.000274	2.736136	0.927028	-0.000110
1448	1.4398e+02	-17.6482	-68.948223	0.000436	4.357549	1.476378	-0.000174
1449	1.4408e+02	-17.6883	-69.077411	0.000324	3.242827	1.098700	-0.000130
1450	1.4418e+02	-17.7300	-69.186414	0.000274	2.736136	0.927028	-0.000110
1451	1.4428e+02	-17.7621	-69.299454	0.000284	2.837474	0.961362	-0.000114
1452	1.4437e+02	-17.8086	-69.432679	0.000334	3.344166	1.133034	-0.000134
1453	1.4447e+02	-17.8519	-69.505347	0.000182	1.824090	0.618019	-0.000073
1454	1.4457e+02	-17.8888	-69.666833	0.000405	4.053534	1.373375	-0.000162
1455	1.4467e+02	-17.9289	-69.751613	0.000213	2.128105	0.721022	-0.000085
1456	1.4477e+02	-17.9738	-69.884838	0.000334	3.344166	1.133034	-0.000134
1457	1.4487e+02	-18.0107	-70.046324	0.000405	4.053534	1.373375	-0.000162
1458	1.4497e+02	-18.0476	-70.114955	0.000172	1.722752	0.583684	-0.000069
1459	1.4507e+02	-18.0909	-70.276440	0.000405	4.053534	1.373375	-0.000162
1460	1.4517e+02	-18.1310	-70.409666	0.000334	3.344166	1.133034	-0.000134
1461	1.4527e+02	-18.1792	-70.530780	0.000304	3.040151	1.030031	-0.000122
1462	1.4537e+02	-18.2080	-70.680154	0.000375	3.749519	1.270371	-0.000150
1463	1.4547e+02	-18.2369	-70.793194	0.000284	2.837474	0.961362	-0.000114
1464	1.4557e+02	-18.2818	-70.922382	0.000324	3.242827	1.098700	-0.000130
1465	1.4567e+02	-18.3284	-71.059645	0.000345	3.445504	1.167368	-0.000138
1466	1.4577e+02	-18.3637	-71.160573	0.000253	2.533459	0.858359	-0.000101
1467	1.4587e+02	-18.4102	-71.309947	0.000375	3.749519	1.270371	-0.000150
1468	1.4597e+02	-18.4391	-71.422987	0.000284	2.837474	0.961362	-0.000114
1469	1.4607e+02	-18.4856	-71.580435	0.000395	3.952196	1.339040	-0.000158
1470	1.4617e+02	-18.5273	-71.693475	0.000284	2.837474	0.961362	-0.000114
1471	1.4626e+02	-18.5642	-71.794403	0.000253	2.533459	0.858359	-0.000101
1472	1.4636e+02	-18.6075	-71.895332	0.000253	2.533459	0.858359	-0.000101
1473	1.4646e+02	-18.6476	-72.052780	0.000395	3.952196	1.339040	-0.000158
1474	1.4656e+02	-18.6893	-72.125449	0.000182	1.824090	0.618019	-0.000073
1475	1.4666e+02	-18.7230	-72.286934	0.000405	4.053534	1.373375	-0.000162
1476	1.4676e+02	-18.7615	-72.440345	0.000385	3.850857	1.304706	-0.000154
1477	1.4686e+02	-18.8096	-72.553385	0.000284	2.837474	0.961362	-0.000114
1478	1.4696e+02	-18.8369	-72.743130	0.000476	4.762903	1.613715	-0.000191
1479	1.4706e+02	-18.8898	-72.848096	0.000263	2.634797	0.892693	-0.000105
1480	1.4716e+02	-18.9155	-72.961136	0.000284	2.837474	0.961362	-0.000114
1481	1.4726e+02	-18.9636	-73.106473	0.000365	3.648181	1.236037	-0.000146
1482	1.4736e+02	-19.0037	-73.223549	0.000294	2.938812	0.995697	-0.000118
1483	1.4746e+02	-19.0406	-73.320441	0.000243	2.432121	0.824025	-0.000097
1484	1.4756e+02	-19.0823	-73.449629	0.000324	3.242827	1.098700	-0.000130
1485	1.4766e+02	-19.1225	-73.603040	0.000385	3.850857	1.304706	-0.000154
1486	1.4776e+02	-19.1642	-73.780674	0.000446	4.458888	1.510712	-0.000179
1487	1.4786e+02	-19.2027	-73.869491	0.000223	2.229444	0.755356	-0.000089
1488	1.4796e+02	-19.2460	-73.990605	0.000304	3.040151	1.030031	-0.000122
1489	1.4806e+02	-19.2893	-74.107682	0.000294	2.938812	0.995697	-0.000118
1490	1.4816e+02	-19.3246	-74.232833	0.000314	3.141489	1.064365	-0.000126
1491	1.4825e+02	-19.3615	-74.362022	0.000324	3.242827	1.098700	-0.000130
1492	1.4835e+02	-19.3952	-74.487173	0.000314	3.141489	1.064365	-0.000126
1493	1.4845e+02	-19.4417	-74.636547	0.000375	3.749519	1.270371	-0.000150
1494	1.4855e+02	-19.4834	-74.789958	0.000385	3.850857	1.304706	-0.000154
1495	1.4865e+02	-19.5187	-74.931258	0.000355	3.546842	1.201703	-0.000142
1496	1.4875e+02	-19.5524	-75.052372	0.000304	3.040151	1.030031	-0.000122
1497	1.4885e+02	-19.6037	-75.157337	0.000263	2.634797	0.892693	-0.000105
1498	1.4895e+02	-19.6358	-75.330934	0.000436	4.357549	1.476378	-0.000174
1499	1.4905e+02	-19.6855	-75.435900	0.000263	2.634797	0.892693	-0.000105
1500	1.4915e+02	-19.7208	-75.585274	0.000375	3.749519	1.270371	-0.000150
1501	1.4925e+02	-19.7593	-75.762908	0.000446	4.458888	1.510712	-0.000179
1502	1.4935e+02	-19.7994	-75.843651	0.000203	2.026767	0.686687	-0.000081
1503	1.4945e+02	-19.8492	-76.013210	0.000426	4.256211	1.442043	-0.000170
1504	1.4955e+02	-19.8764	-76.134324	0.000304	3.040151	1.030031	-0.000122
1505	1.4965e+02	-19.9214	-76.255438	0.000304	3.040151	1.030031	-0.000122
1506	1.4975e+02	-19.9631	-76.412887	0.000395	3.952196	1.339040	-0.000158
1507	1.4985e+02	-19.9968	-76.505741	0.000233	2.330782	0.789690	-0.000093
1508	1.4995e+02	-19.9583	-76.449221	0.000142	1.418737	0.480681	0.000057
1509	1.5005e+02	-19.9198	-76.392701	0.000142	1.418737	0.480681	0.000057
1510	1.5015e+02	-19.8700	-76.372515	0.000051	0.506692	0.171672	0.000020
1511	1.5025e+02	-19.8363	-76.287735	0.000213	2.128105	0.721022	0.000085
1512	1.5034e+02	-19.7962	-76.235253	0.000132	1.317399	0.446347	0.000053
1513	1.5044e+02	-19.7545	-76.215067	0.000051	0.506692	0.171672	0.000020
1514	1.5054e+02	-19.7192	-76.170659	0.000111	1.114722	0.377678	0.000045
1515	1.5064e+02	-19.6823	-76.081842	0.000223	2.229444	0.755356	0.000089
1516	1.5074e+02	-19.6438	-75.997062	0.000213	2.128105	0.721022	0.000085
1517	1.5084e+02	-19.6069	-75.928430	0.000172	1.722752	0.583684	0.000069
1518	1.5094e+02	-19.5556	-75.859799	0.000172	1.722752	0.583684	0.000069
1519	1.5104e+02	-19.5123	-75.770982	0.000223	2.229444	0.755356	0.000089
1520	1.5114e+02	-19.4818	-75.734648	0.000091	0.912045	0.309009	0.000037
1521	1.5124e+02	-19.4449	-75.653905	0.000203	2.026767	0.686687	0.000081
1522	1.5134e+02	-19.4080	-75.597385	0.000142	1.418737	0.480681	0.000057
1523	1.5144e+02	-19.3647	-75.480308	0.000294	2.938812	0.995697	0.000118
1524	1.5154e+02	-19.3166	-75.431863	0.000122	1.216060	0.412012	0.000049
1525	1.5164e+02	-19.2829	-75.359194	0.000182	1.824090	0.618019	0.000073
1526	1.5174e+02	-19.2476	-75.282489	0.000193	1.925429	0.652353	0.000077
1527	1.5184e+02	-19.2043	-75.221932	0.000152	1.520075	0.515015	0.000061
1528	1.5194e+02	-19.1577	-75.137152	0.000213	2.128105	0.721022	0.000085
1529	1.5204e+02	-19.1257	-75.052372	0.000213	2.128105	0.721022	0.000085
1530	1.5214e+02	-19.0936	-75.012001	0.000101	1.013384	0.343344	0.000041
1531	1.5224e+02	-19.0390	-74.902998	0.000274	2.736136	0.927028	0.000110
1532	1.5233e+02	-19.0086	-74.830329	0.000182	1.824090	0.618019	0.000073
1533	1.5243e+02	-18.9684	-74.785921	0.000111	1.114722	0.377678	0.000045
1534	1.5253e+02	-18.9283	-74.717290	0.000172	1.722752	0.583684	0.000069
1535	1.5263e+02	-18.8947	-74.616361	0.000253	2.533459	0.858359	0.000101
1536	1.5273e+02	-18.8481	-74.527544	0.000223	2.229444	0.755356	0.000089
1537	1.5283e+02	-18.8032	-74.462950	0.000162	1.621414	0.549350	0.000065
1538	1.5293e+02	-18.7775	-74.357985	0.000263	2.634797	0.892693	0.000105
1539	1.5303e+02	-18.7262	-74.297428	0.000152	1.520075	0.515015	0.000061
1540	1.5313e+02	-18.6893	-74.152091	0.000365	3.648181	1.236037	0.000146
1541	1.5323e+02	-18.6492	-74.111719	0.000101	1.013384	0.343344	0.000041
1542	1.5333e+02	-18.6155	-74.014828	0.000243	2.432121	0.824025	0.000097
1543	1.5343e+02	-18.5610	-73.913900	0.000253	2.533459	0.858359	0.000101
1544	1.5353e+02	-18.5161	-73.841231	0.000182	1.824090	0.618019	0.000073
1545	1.5363e+02	-18.4824	-73.800860	0.000101	1.013384	0.343344	0.000041
1546	1.5373e+02	-18.4455	-73.728191	0.000182	1.824090	0.618019	0.000073
1547	1.5383e+02	-18.4054	-73.671672	0.000142	1.418737	0.480681	0.000057
1548	1.5393e+02	-18.3653	-73.574780	0.000243	2.432121	0.824025	0.000097
1549	1.5403e+02	-18.3268	-73.490000	0.000213	2.128105	0.721022	0.000085
1550	1.5413e+02	-18.2834	-73.393109	0.000243	2.432121	0.824025	0.000097
1551	1.5422e+02	-18.2417	-73.284106	0.000274	2.736136	0.927028	0.000110
1552	1.5432e+02	-18.2161	-73.247772	0.000091	0.912045	0.309009	0.000037
1553	1.5442e+02	-18.1711	-73.110510	0.000345	3.445504	1.167368	0.000138
1554	1.5452e+02	-18.1375	-73.041878	0.000172	1.722752	0.583684	0.000069
1555	1.5462e+02	-18.0877	-72.932876	0.000274	2.736136	0.927028	0.000110
1556	1.5472e+02	-18.0444	-72.840022	0.000233	2.330782	0.789690	0.000093
1557	1.5482e+02	-18.0123	-72.743130	0.000243	2.432121	0.824025	0.000097
1558	1.5492e+02	-17.9738	-72.642202	0.000253	2.533459	0.858359	0.000101
1559	1.5502e+02	-17.9257	-72.537236	0.000263	2.634797	0.892693	0.000105
1560	1.5512e+02	-17.8952	-72.428234	0.000274	2.736136	0.927028	0.000110
1561	1.5522e+02	-17.8503	-72.424197	0.000010	0.101338	0.034334	0.000004
1562	1.5532e+02	-17.8102	-72.359602	0.000162	1.621414	0.549350	0.000065
1563	1.5542e+02	-17.7685	-72.230414	0.000324	3.242827	1.098700	0.000130
1564	1.5552e+02	-17.7268	-72.157746	0.000182	1.824090	0.618019	0.000073
1565	1.5562e+02	-17.6867	-72.081040	0.000193	1.925429	0.652353	0.000077
1566	1.5572e+02	-17.6482	-71.976075	0.000263	2.634797	0.892693	0.000105
1567	1.5582e+02	-17.6065	-71.907443	0.000172	1.722752	0.583684	0.000069
1568	1.5592e+02	-17.5663	-71.802478	0.000263	2.634797	0.892693	0.000105
1569	1.5602e+02	-17.5278	-71.721735	0.000203	2.026767	0.686687	0.000081
1570	1.5612e+02	-17.4893	-71.604658	0.000294	2.938812	0.995697	0.000118
1571	1.5622e+02	-17.4460	-71.515841	0.000223	2.229444	0.755356	0.000089
1572	1.5631e+02	-17.4107	-71.378578	0.000345	3.445504	1.167368	0.000138
1573	1.5641e+02	-17.3706	-71.350318	0.000071	0.709368	0.240341	0.000028
1574	1.5651e+02	-17.3369	-71.213056	0.000345	3.445504	1.167368	0.000138
1575	1.5661e+02	-17.2920	-71.120202	0.000233	2.330782	0.789690	0.000093
1576	1.5671e+02	-17.2519	-71.027348	0.000233	2.330782	0.789690	0.000093
1577	1.5681e+02	-17.2086	-70.926419	0.000253	2.533459	0.858359	0.000101
1578	1.5691e+02	-17.1685	-70.837602	0.000223	2.229444	0.755356	0.000089
1579	1.5701e+02	-17.1236	-70.773008	0.000162	1.621414	0.549350	0.000065
1580	1.5711e+02	-17.0931	-70.651894	0.000304	3.040151	1.030031	0.000122
1581	1.5721e+02	-17.0546	-70.619597	0.000081	0.810707	0.274675	0.000032
1582	1.5731e+02	-17.0049	-70.478297	0.000355	3.546842	1.201703	0.000142
1583	1.5741e+02	-16.9728	-70.369294	0.000274	2.736136	0.927028	0.000110
1584	1.5751e+02	-16.9359	-70.320849	0.000122	1.216060	0.412012	0.000049
1585	1.5761e+02	-16.8942	-70.183586	0.000345	3.445504	1.167368	0.000138
1586	1.5771e+02	-16.8605	-70.114955	0.000172	1.722752	0.583684	0.000069
1587	1.5781e+02	-16.8140	-70.014027	0.000253	2.533459	0.858359	0.000101
1588	1.5791e+02	-16.7674	-69.909061	0.000263	2.634797	0.892693	0.000105
1589	1.5801e+02	-16.7257	-69.820244	0.000223	2.229444	0.755356	0.000089
1590	1.5811e+02	-16.6969	-69.723353	0.000243	2.432121	0.824025	0.000097
1591	1.5821e+02	-16.6648	-69.578016	0.000365	3.648181	1.236037	0.000146
1592	1.5830e+02	-16.6118	-69.497273	0.000203	2.026767	0.686687	0.000081
1593	1.5840e+02	-16.5621	-69.432679	0.000162	1.621414	0.549350	0.000065
1594	1.5850e+02	-16.5380	-69.275231	0.000395	3.952196	1.339040	0.000158
1595	1.5860e+02	-16.4851	-69.214674	0.000152	1.520075	0.515015	0.000061
1596	1.5870e+02	-16.4466	-69.150079	0.000162	1.621414	0.549350	0.000065
1597	1.5880e+02	-16.4049	-69.008780	0.000355	3.546842	1.201703	0.000142
1598	1.5890e+02	-16.3744	-68.956297	0.000132	1.317399	0.446347	0.000053
1599	1.5900e+02	-16.3263	-68.823071	0.000334	3.344166	1.133034	0.000134
1600	1.5910e+02	-16.2910	-68.742329	0.000203	2.026767	0.686687	0.000081
1601	1.5920e+02	-16.2525	-68.673697	0.000172	1.722752	0.583684	0.000069
1602	1.5930e+02	-16.2204	-68.572769	0.000253	2.533459	0.858359	0.000101
1603	1.5940e+02	-16.1787	-68.471841	0.000253	2.533459	0.858359	0.000101
1604	1.5950e+02	-16.1386	-68.362838	0.000274	2.736136	0.927028	0.000110
1605	1.5960e+02	-16.1081	-68.233650	0.000324	3.242827	1.098700	0.000130
1606	1.5970e+02	-16.0616	-68.169056	0.000162	1.621414	0.549350	0.000065
1607	1.5980e+02	-16.0151	-68.031793	0.000345	3.445504	1.167368	0.000138
1608	1.5990e+02	-15.9717	-67.878382	0.000385	3.850857	1.304706	0.000154
1609	1.6000e+02	-15.9381	-67.793602	0.000213	2.128105	0.721022	0.000085
1610	1.6010e+02	-15.9012	-67.688636	0.000263	2.634797	0.892693	0.000105
1611	1.6019e+02	-15.8482	-67.547337	0.000355	3.546842	1.201703	0.000142
1612	1.6029e+02	-15.8161	-67.527151	0.000051	0.506692	0.171672	0.000020
1613	1.6039e+02	-15.7776	-67.422185	0.000263	2.634797	0.892693	0.000105
1614	1.6049e+02	-15.7343	-67.321257	0.000253	2.533459	0.858359	0.000101
1615	1.6059e+02	-15.7006	-67.204180	0.000294	2.938812	0.995697	0.000118
1616	1.6069e+02	-15.6605	-67.123437	0.000203	2.026767	0.686687	0.000081
1617	1.6079e+02	-15.6124	-67.018472	0.000263	2.634797	0.892693	0.000105
1618	1.6089e+02	-15.5787	-66.909469	0.000274	2.736136	0.927028	0.000110
1619	1.6099e+02	-15.5370	-66.784318	0.000314	3.141489	1.064365	0.000126
1620	1.6109e+02	-15.4985	-66.679352	0.000263	2.634797	0.892693	0.000105
1621	1.6119e+02	-15.4584	-66.582461	0.000243	2.432121	0.824025	0.000097
1622	1.6129e+02	-15.4279	-66.497681	0.000213	2.128105	0.721022	0.000085
1623	1.6139e+02	-15.3782	-66.376567	0.000304	3.040151	1.030031	0.000122
1624	1.6149e+02	-15.3445	-66.263527	0.000284	2.837474	0.961362	0.000114
1625	1.6159e+02	-15.3028	-66.089931	0.000436	4.357549	1.476378	0.000174
1626	1.6169e+02	-15.2595	-65.980928	0.000274	2.736136	0.927028	0.000110
1627	1.6179e+02	-15.2113	-65.932482	0.000122	1.216060	0.412012	0.000049
1628	1.6189e+02	-15.1664	-65.795220	0.000345	3.445504	1.167368	0.000138
1629	1.6199e+02	-15.1375	-65.718514	0.000193	1.925429	0.652353	0.000077
1630	1.6209e+02	-15.1055	-65.605474	0.000284	2.837474	0.961362	0.000114
1631	1.6219e+02	-15.0573	-65.516657	0.000223	2.229444	0.755356	0.000089
1632	1.6228e+02	-15.0140	-65.395543	0.000304	3.040151	1.030031	0.000122
1633	1.6238e+02	-14.9835	-65.330949	0.000162	1.621414	0.549350	0.000065
1634	1.6248e+02	-14.9402	-65.185612	0.000365	3.648181	1.236037	0.000146
1635	1.6258e+02	-14.8969	-65.112944	0.000182	1.824090	0.618019	0.000073
1636	1.6268e+02	-14.8520	-64.927236	0.000466	4.661564	1.579381	0.000187
1637	1.6278e+02	-14.8183	-64.874753	0.000132	1.317399	0.446347	0.000053
1638	1.6288e+02	-14.7894	-64.713267	0.000405	4.053534	1.373375	0.000162
1639	1.6298e+02	-14.7413	-64.612339	0.000253	2.533459	0.858359	0.000101
1640	1.6308e+02	-14.7044	-64.507373	0.000263	2.634797	0.892693	0.000105
1641	1.6318e+02	-14.6627	-64.414519	0.000233	2.330782	0.789690	0.000093
1642	1.6328e+02	-14.6242	-64.277257	0.000345	3.445504	1.167368	0.000138
1643	1.6338e+02	-14.5729	-64.144031	0.000334	3.344166	1.133034	0.000134
1644	1.6348e+02	-14.5456	-64.079437	0.000162	1.621414	0.549350	0.000065
1645	1.6358e+02	-14.5039	-63.970434	0.000274	2.736136	0.927028	0.000110
1646	1.6368e+02	-14.4654	-63.893729	0.000193	1.925429	0.652353	0.000077
1647	1.6378e+02	-14.4156	-63.812986	0.000203	2.026767	0.686687	0.000081
1648	1.6388e+02	-14.3803	-63.671686	0.000355	3.546842	1.201703	0.000142
1649	1.6398e+02	-14.3402	-63.554609	0.000294	2.938812	0.995697	0.000118
1650	1.6408e+02	-14.3001	-63.421384	0.000334	3.344166	1.133034	0.000134
1651	1.6418e+02	-14.2584	-63.352753	0.000172	1.722752	0.583684	0.000069
1652	1.6427e+02	-14.2215	-63.187230	0.000415	4.154873	1.407709	0.000166
1653	1.6437e+02	-14.1830	-63.126673	0.000152	1.520075	0.515015	0.000061
1654	1.6447e+02	-14.1445	-62.985373	0.000355	3.546842	1.201703	0.000142
1655	1.6457e+02	-14.1092	-62.896556	0.000223	2.229444	0.755356	0.000089
1656	1.6467e+02	-14.0643	-62.767368	0.000324	3.242827	1.098700	0.000130
1657	1.6477e+02	-14.0258	-62.634142	0.000334	3.344166	1.133034	0.000134
1658	1.6487e+02	-13.9857	-62.525140	0.000274	2.736136	0.927028	0.000110
1659	1.6497e+02	-13.9424	-62.395951	0.000324	3.242827	1.098700	0.000130
1660	1.6507e+02	-13.9039	-62.266763	0.000324	3.242827	1.098700	0.000130
1661	1.6517e+02	-13.8606	-62.173909	0.000233	2.330782	0.789690	0.000093
1662	1.6527e+02	-13.8205	-62.097203	0.000193	1.925429	0.652353	0.000077
1663	1.6537e+02	-13.7755	-61.996275	0.000253	2.533459	0.858359	0.000101
1664	1.6547e+02	-13.7451	-61.826715	0.000426	4.256211	1.442043	0.000170
1665	1.6557e+02	-13.7050	-61.754047	0.000182	1.824090	0.618019	0.000073
1666	1.6567e+02	-13.6681	-61.628896	0.000314	3.141489	1.064365	0.000126
1667	1.6577e+02	-13.6247	-61.552190	0.000193	1.925429	0.652353	0.000077
1668	1.6587e+02	-13.5862	-61.414927	0.000345	3.445504	1.167368	0.000138
1669	1.6597e+02	-13.5526	-61.297850	0.000294	2.938812	0.995697	0.000118
1670	1.6607e+02	-13.5125	-61.192885	0.000263	2.634797	0.892693	0.000105
1671	1.6616e+02	-13.4579	-61.095994	0.000243	2.432121	0.824025	0.000097
1672	1.6626e+02	-13.4178	-60.958731	0.000345	3.445504	1.167368	0.000138
1673	1.6636e+02	-13.3873	-60.845691	0.000284	2.837474	0.961362	0.000114
1674	1.6646e+02	-13.3440	-60.716503	0.000324	3.242827	1.098700	0.000130
1675	1.6656e+02	-13.3103	-60.615575	0.000253	2.533459	0.858359	0.000101
1676	1.6666e+02	-13.2638	-60.510609	0.000263	2.634797	0.892693	0.000105
1677	1.6676e+02	-13.2253	-60.365272	0.000365	3.648181	1.236037	0.000146
1678	1.6686e+02	-13.1884	-60.191675	0.000436	4.357549	1.476378	0.000174
1679	1.6696e+02	-13.1371	-60.135155	0.000142	1.418737	0.480681	0.000057
1680	1.6706e+02	-13.1002	-60.030190	0.000263	2.634797	0.892693	0.000105
1681	1.6716e+02	-13.0665	-59.937336	0.000233	2.330782	0.789690	0.000093
1682	1.6726e+02	-13.0280	-59.796036	0.000355	3.546842	1.201703	0.000142
1683	1.6736e+02	-12.9815	-59.691070	0.000263	2.634797	0.892693	0.000105
1684	1.6746e+02	-12.9574	-59.582068	0.000274	2.736136	0.927028	0.000110
1685	1.6756e+02	-12.9012	-59.456917	0.000314	3.141489	1.064365	0.000126
1686	1.6766e+02	-12.8692	-59.376174	0.000203	2.026767	0.686687	0.000081
1687	1.6776e+02	-12.8339	-59.242948	0.000334	3.344166	1.133034	0.000134
1688	1.6786e+02	-12.7905	-59.113760	0.000324	3.242827	1.098700	0.000130
1689	1.6796e+02	-12.7504	-58.972460	0.000355	3.546842	1.201703	0.000142
1690	1.6806e+02	-12.7200	-58.891718	0.000203	2.026767	0.686687	0.000081
1691	1.6816e+02	-12.6638	-58.750418	0.000355	3.546842	1.201703	0.000142
1692	1.6825e+02	-12.6269	-58.673712	0.000193	1.925429	0.652353	0.000077
1693	1.6835e+02	-12.5900	-58.548561	0.000314	3.141489	1.064365	0.000126
1694	1.6845e+02	-12.5531	-58.439558	0.000274	2.736136	0.927028	0.000110
1695	1.6855e+02	-12.5210	-58.326519	0.000284	2.837474	0.961362	0.000114
1696	1.6865e+02	-12.4665	-58.213479	0.000284	2.837474	0.961362	0.000114
1697	1.6875e+02	-12.4328	-58.047956	0.000415	4.154873	1.407709	0.000166
1698	1.6885e+02	-12.3879	-57.967213	0.000203	2.026767	0.686687	0.000081
1699	1.6895e+02	-12.3494	-57.874359	0.000233	2.330782	0.789690	0.000093
1700	1.6905e+02	-12.3141	-57.720948	0.000385	3.850857	1.304706	0.000154
1701	1.6915e+02	-12.2724	-57.599834	0.000304	3.040151	1.030031	0.000122
1702	1.6925e+02	-12.2243	-57.438349	0.000405	4.053534	1.373375	0.000162
1703	1.6935e+02	-12.1890	-57.361643	0.000193	1.925429	0.652353	0.000077
1704	1.6945e+02	-12.1440	-57.212269	0.000375	3.749519	1.270371	0.000150
1705	1.6955e+02	-12.1184	-57.139601	0.000182	1.824090	0.618019	0.000073
1706	1.6965e+02	-12.0702	-57.022524	0.000294	2.938812	0.995697	0.000118
1707	1.6975e+02	-12.0350	-56.929670	0.000233	2.330782	0.789690	0.000093
1708	1.6985e+02	-11.9916	-56.768184	0.000405	4.053534	1.373375	0.000162
1709	1.6995e+02	-11.9547	-56.630922	0.000345	3.445504	1.167368	0.000138
1710	1.7005e+02	-11.9082	-56.538067	0.000233	2.330782	0.789690	0.000093
1711	1.7015e+02	-11.8617	-56.437139	0.000253	2.533459	0.858359	0.000101
1712	1.7024e+02	-11.8248	-56.328136	0.000274	2.736136	0.927028	0.000110
1713	1.7034e+02	-11.7975	-56.146465	0.000456	4.560226	1.545046	0.000183
1714	1.7044e+02	-11.7510	-56.061685	0.000213	2.128105	0.721022	0.000085
1715	1.7054e+02	-11.7077	-55.944608	0.000294	2.938812	0.995697	0.000118
1716	1.7064e+02	-11.6692	-55.843680	0.000253	2.533459	0.858359	0.000101
1717	1.7074e+02	-11.6387	-55.694306	0.000375	3.749519	1.270371	0.000150
1718	1.7084e+02	-11.5938	-55.621638	0.000182	1.824090	0.618019	0.000073
1719	1.7094e+02	-11.5633	-55.488412	0.000334	3.344166	1.133034	0.000134
1720	1.7104e+02	-11.5136	-55.359224	0.000324	3.242827	1.098700	0.000130
1721	1.7114e+02	-11.4767	-55.250221	0.000274	2.736136	0.927028	0.000110
1722	1.7124e+02	-11.4302	-55.129107	0.000304	3.040151	1.030031	0.000122
1723	1.7134e+02	-11.3933	-55.060476	0.000172	1.722752	0.583684	0.000069
1724	1.7144e+02	-11.3499	-54.923213	0.000345	3.445504	1.167368	0.000138
1725	1.7154e+02	-11.3179	-54.781913	0.000355	3.546842	1.201703	0.000142
1726	1.7164e+02	-11.2713	-54.628502	0.000385	3.850857	1.304706	0.000154
1727	1.7174e+02	-11.2312	-54.507388	0.000304	3.040151	1.030031	0.000122
1728	1.7184e+02	-11.1959	-54.414534	0.000233	2.330782	0.789690	0.000093
1729	1.7194e+02	-11.1623	-54.329754	0.000213	2.128105	0.721022	0.000085
1730	1.7204e+02	-11.1254	-54.172306	0.000395	3.952196	1.339040	0.000158
1731	1.7213e+02	-11.0692	-54.022932	0.000375	3.749519	1.270371	0.000150
1732	1.7223e+02	-11.0371	-53.909892	0.000284	2.837474	0.961362	0.000114
1733	1.7233e+02	-11.0034	-53.792815	0.000294	2.938812	0.995697	0.000118
1734	1.7243e+02	-10.9553	-53.671701	0.000304	3.040151	1.030031	0.000122
1735	1.7253e+02	-10.9104	-53.530401	0.000355	3.546842	1.201703	0.000142
1736	1.7263e+02	-10.8671	-53.368916	0.000405	4.053534	1.373375	0.000162
1737	1.7273e+02	-10.8302	-53.328545	0.000101	1.013384	0.343344	0.000041
1738	1.7283e+02	-10.8013	-53.130725	0.000497	4.965579	1.682384	0.000199
1739	1.7293e+02	-10.7644	-53.041908	0.000223	2.229444	0.755356	0.000089
1740	1.7303e+02	-10.7163	-52.916757	0.000314	3.141489	1.064365	0.000126
1741	1.7313e+02	-10.6778	-52.775457	0.000355	3.546842	1.201703	0.000142
1742	1.7323e+02	-10.6409	-52.682603	0.000233	2.330782	0.789690	0.000093
1743	1.7333e+02	-10.6024	-52.525155	0.000395	3.952196	1.339040	0.000158
1744	1.7343e+02	-10.5462	-52.424226	0.000253	2.533459	0.858359	0.000101
1745	1.7353e+02	-10.5093	-52.315223	0.000274	2.736136	0.927028	0.000110
1746	1.7363e+02	-10.4805	-52.194109	0.000304	3.040151	1.030031	0.000122
1747	1.7373e+02	-10.4355	-52.032624	0.000405	4.053534	1.373375	0.000162
1748	1.7383e+02	-10.3954	-51.907473	0.000314	3.141489	1.064365	0.000126
1749	1.7393e+02	-10.3569	-51.802507	0.000263	2.634797	0.892693	0.000105
1750	1.7403e+02	-10.3184	-51.653133	0.000375	3.749519	1.270371	0.000150
1751	1.7413e+02	-10.2751	-51.532019	0.000304	3.040151	1.030031	0.000122
1752	1.7422e+02	-10.2446	-51.394757	0.000345	3.445504	1.167368	0.000138
1753	1.7432e+02	-10.1981	-51.281717	0.000284	2.837474	0.961362	0.000114
1754	1.7442e+02	-10.1596	-51.180788	0.000253	2.533459	0.858359	0.000101
1755	1.7452e+02	-10.1275	-51.067749	0.000284	2.837474	0.961362	0.000114
1756	1.7462e+02	-10.0826	-50.894152	0.000436	4.357549	1.476378	0.000174
1757	1.7472e+02	-10.0425	-50.760926	0.000334	3.344166	1.133034	0.000134
1758	1.7482e+02	-10.0024	-50.635775	0.000314	3.141489	1.064365	0.000126
1759	1.7492e+02	-9.9559	-50.510624	0.000314	3.141489	1.064365	0.000126
1760	1.7502e+02	-9.9126	-50.361250	0.000375	3.749519	1.270371	0.000150
1761	1.7512e+02	-9.8773	-50.256284	0.000263	2.634797	0.892693	0.000105
1762	1.7522e+02	-9.8307	-50.135170	0.000304	3.040151	1.030031	0.000122
1763	1.7532e+02	-9.7954	-50.010019	0.000314	3.141489	1.064365	0.000126
1764	1.7542e+02	-9.7650	-49.848534	0.000405	4.053534	1.373375	0.000162
1765	1.7552e+02	-9.7152	-49.719345	0.000324	3.242827	1.098700	0.000130
1766	1.7562e+02	-9.6783	-49.582083	0.000345	3.445504	1.167368	0.000138
1767	1.7572e+02	-9.6398	-49.428671	0.000385	3.850857	1.304706	0.000154
1768	1.7582e+02	-9.6029	-49.311594	0.000294	2.938812	0.995697	0.000118
1769	1.7592e+02	-9.5612	-49.202592	0.000274	2.736136	0.927028	0.000110
1770	1.7602e+02	-9.5195	-49.069366	0.000334	3.344166	1.133034	0.000134
1771	1.7612e+02	-9.4874	-48.960364	0.000274	2.736136	0.927028	0.000110
1772	1.7621e+02	-9.4457	-48.819064	0.000355	3.546842	1.201703	0.000142
1773	1.7631e+02	-9.4008	-48.706024	0.000284	2.837474	0.961362	0.000114
1774	1.7641e+02	-9.3575	-48.524353	0.000456	4.560226	1.545046	0.000183
1775	1.7651e+02	-9.3190	-48.374979	0.000375	3.749519	1.270371	0.000150
1776	1.7661e+02	-9.2789	-48.253865	0.000304	3.040151	1.030031	0.000122
1777	1.7671e+02	-9.2404	-48.136788	0.000294	2.938812	0.995697	0.000118
1778	1.7681e+02	-9.1955	-48.015674	0.000304	3.040151	1.030031	0.000122
1779	1.7691e+02	-9.1666	-47.886486	0.000324	3.242827	1.098700	0.000130
1780	1.7701e+02	-9.1233	-47.745186	0.000355	3.546842	1.201703	0.000142
1781	1.7711e+02	-9.0864	-47.636183	0.000274	2.736136	0.927028	0.000110
1782	1.7721e+02	-9.0399	-47.430289	0.000517	5.168256	1.751053	0.000207
1783	1.7731e+02	-8.9917	-47.256692	0.000436	4.357549	1.476378	0.000174
1784	1.7741e+02	-8.9645	-47.167875	0.000223	2.229444	0.755356	0.000089
1785	1.7751e+02	-8.9276	-47.058873	0.000274	2.736136	0.927028	0.000110
1786	1.7761e+02	-8.8858	-46.917573	0.000355	3.546842	1.201703	0.000142
1787	1.7771e+02	-8.8361	-46.727828	0.000476	4.762903	1.613715	0.000191
1788	1.7781e+02	-8.8056	-46.630936	0.000243	2.432121	0.824025	0.000097
1789	1.7791e+02	-8.7687	-46.497711	0.000334	3.344166	1.133034	0.000134
1790	1.7801e+02	-8.7238	-46.392745	0.000263	2.634797	0.892693	0.000105
1791	1.7810e+02	-8.6805	-46.231260	0.000405	4.053534	1.373375	0.000162
1792	1.7820e+02	-8.6404	-46.029403	0.000507	5.066918	1.716718	0.000203
1793	1.7830e+02	-8.5987	-45.940586	0.000223	2.229444	0.755356	0.000089
1794	1.7840e+02	-8.5666	-45.843695	0.000243	2.432121	0.824025	0.000097
1795	1.7850e+02	-8.5233	-45.690284	0.000385	3.850857	1.304706	0.000154
1796	1.7860e+02	-8.4864	-45.557058	0.000334	3.344166	1.133034	0.000134
1797	1.7870e+02	-8.4431	-45.371350	0.000466	4.661564	1.579381	0.000187
1798	1.7880e+02	-8.4046	-45.254273	0.000294	2.938812	0.995697	0.000118
1799	1.7890e+02	-8.3709	-45.088750	0.000415	4.154873	1.407709	0.000166
1800	1.7900e+02	-8.3324	-44.947451	0.000355	3.546842	1.201703	0.000142
1801	1.7910e+02	-8.2875	-44.810188	0.000345	3.445504	1.167368	0.000138
1802	1.7920e+02	-8.2409	-44.701185	0.000274	2.736136	0.927028	0.000110
1803	1.7930e+02	-8.2040	-44.495292	0.000517	5.168256	1.751053	0.000207
1804	1.7940e+02	-8.1736	-44.362066	0.000334	3.344166	1.133034	0.000134
1805	1.7950e+02	-8.1335	-44.232878	0.000324	3.242827	1.098700	0.000130
1806	1.7960e+02	-8.0869	-44.075429	0.000395	3.952196	1.339040	0.000158
1807	1.7970e+02	-8.0500	-43.917981	0.000395	3.952196	1.339040	0.000158
1808	1.7980e+02	-8.0019	-43.800904	0.000294	2.938812	0.995697	0.000118
1809	1.7990e+02	-7.9570	-43.611159	0.000476	4.762903	1.613715	0.000191
1810	1.8000e+02	-7.9169	-43.506193	0.000263	2.634797	0.892693	0.000105
1811	1.8009e+02	-7.8768	-43.372968	0.000334	3.344166	1.133034	0.000134
1812	1.8019e+02	-7.8447	-43.227631	0.000365	3.648181	1.236037	0.000146
1813	1.8029e+02	-7.8094	-43.102480	0.000314	3.141489	1.064365	0.000126
1814	1.8039e+02	-7.7661	-42.953106	0.000375	3.749519	1.270371	0.000150
1815	1.8049e+02	-7.7324	-42.815843	0.000345	3.445504	1.167368	0.000138
1816	1.8059e+02	-7.6811	-42.650321	0.000415	4.154873	1.407709	0.000166
1817	1.8069e+02	-7.6458	-42.472687	0.000446	4.458888	1.510712	0.000179
1818	1.8079e+02	-7.6153	-42.339461	0.000334	3.344166	1.133034	0.000134
1819	1.8089e+02	-7.5672	-42.202198	0.000345	3.445504	1.167368	0.000138
1820	1.8099e+02	-7.5335	-42.056862	0.000365	3.648181	1.236037	0.000146
1821	1.8109e+02	-7.4998	-41.895376	0.000405	4.053534	1.373375	0.000162
1822	1.8119e+02	-7.4468	-41.741965	0.000385	3.850857	1.304706	0.000154
1823	1.8129e+02	-7.4051	-41.620851	0.000304	3.040151	1.030031	0.000122
1824	1.8139e+02	-7.3779	-41.455328	0.000415	4.154873	1.407709	0.000166
1825	1.8149e+02	-7.3249	-41.318066	0.000345	3.445504	1.167368	0.000138
1826	1.8159e+02	-7.2864	-41.136395	0.000456	4.560226	1.545046	0.000183
1827	1.8169e+02	-7.2543	-41.027392	0.000274	2.736136	0.927028	0.000110
1828	1.8179e+02	-7.1998	-40.902241	0.000314	3.141489	1.064365	0.000126
1829	1.8189e+02	-7.1741	-40.748830	0.000385	3.850857	1.304706	0.000154
1830	1.8199e+02	-7.1260	-40.587344	0.000405	4.053534	1.373375	0.000162
1831	1.8209e+02	-7.0939	-40.470267	0.000294	2.938812	0.995697	0.000118
1832	1.8218e+02	-7.0506	-40.296670	0.000436	4.357549	1.476378	0.000174
1833	1.8228e+02	-7.0073	-40.127111	0.000426	4.256211	1.442043	0.000170
1834	1.8238e+02	-6.9704	-39.957551	0.000426	4.256211	1.442043	0.000170
1835	1.8248e+02	-6.9383	-39.812214	0.000365	3.648181	1.236037	0.000146
1836	1.8258e+02	-6.8902	-39.638617	0.000436	4.357549	1.476378	0.000174
1837	1.8268e+02	-6.8501	-39.505392	0.000334	3.344166	1.133034	0.000134
1838	1.8278e+02	-6.8100	-39.335832	0.000426	4.256211	1.442043	0.000170
1839	1.8288e+02	-6.7747	-39.154161	0.000456	4.560226	1.545046	0.000183
1840	1.8298e+02	-6.7314	-39.024973	0.000324	3.242827	1.098700	0.000130
1841	1.8308e+02	-6.6977	-38.895784	0.000324	3.242827	1.098700	0.000130
1842	1.8318e+02	-6.6415	-38.706039	0.000476	4.762903	1.613715	0.000191
1843	1.8328e+02	-6.6175	-38.568776	0.000345	3.445504	1.167368	0.000138
1844	1.8338e+02	-6.5693	-38.447662	0.000304	3.040151	1.030031	0.000122
1845	1.8348e+02	-6.5260	-38.294251	0.000385	3.850857	1.304706	0.000154
1846	1.8358e+02	-6.4907	-38.177174	0.000294	2.938812	0.995697	0.000118
1847	1.8368e+02	-6.4538	-38.011652	0.000415	4.154873	1.407709	0.000166
1848	1.8378e+02	-6.4153	-37.850166	0.000405	4.053534	1.373375	0.000162
1849	1.8388e+02	-6.3704	-37.676569	0.000436	4.357549	1.476378	0.000174
1850	1.8398e+02	-6.3351	-37.539307	0.000345	3.445504	1.167368	0.000138
1851	1.8407e+02	-6.2902	-37.365710	0.000436	4.357549	1.476378	0.000174
1852	1.8417e+02	-6.2597	-37.192113	0.000436	4.357549	1.476378	0.000174
1853	1.8427e+02	-6.2212	-37.066962	0.000314	3.141489	1.064365	0.000126
1854	1.8437e+02	-6.1699	-36.852994	0.000537	5.370933	1.819721	0.000215
1855	1.8447e+02	-6.1298	-36.723805	0.000324	3.242827	1.098700	0.000130
1856	1.8457e+02	-6.1089	-36.578468	0.000365	3.648181	1.236037	0.000146
1857	1.8467e+02	-6.0688	-36.408909	0.000426	4.256211	1.442043	0.000170
1858	1.8477e+02	-6.0095	-36.231275	0.000446	4.458888	1.510712	0.000179
1859	1.8487e+02	-5.9726	-36.077864	0.000385	3.850857	1.304706	0.000154
1860	1.8497e+02	-5.9325	-35.940601	0.000345	3.445504	1.167368	0.000138
1861	1.8507e+02	-5.8956	-35.811413	0.000324	3.242827	1.098700	0.000130
1862	1.8517e+02	-5.8619	-35.653964	0.000395	3.952196	1.339040	0.000158
1863	1.8527e+02	-5.8073	-35.496516	0.000395	3.952196	1.339040	0.000158
1864	1.8537e+02	-5.7752	-35.322919	0.000436	4.357549	1.476378	0.000174
1865	1.8547e+02	-5.7367	-35.217954	0.000263	2.634797	0.892693	0.000105
1866	1.8557e+02	-5.7014	-35.040320	0.000446	4.458888	1.510712	0.000179
1867	1.8567e+02	-5.6597	-34.866723	0.000436	4.357549	1.476378	0.000174
1868	1.8577e+02	-5.6212	-34.717349	0.000375	3.749519	1.270371	0.000150
1869	1.8587e+02	-5.5843	-34.527603	0.000476	4.762903	1.613715	0.000191
1870	1.8597e+02	-5.5394	-34.341895	0.000466	4.661564	1.579381	0.000187
1871	1.8606e+02	-5.5025	-34.172335	0.000426	4.256211	1.442043	0.000170
1872	1.8616e+02	-5.4640	-34.035073	0.000345	3.445504	1.167368	0.000138
1873	1.8626e+02	-5.4223	-33.845327	0.000476	4.762903	1.613715	0.000191
1874	1.8636e+02	-5.3742	-33.716139	0.000324	3.242827	1.098700	0.000130
1875	1.8646e+02	-5.3405	-33.538505	0.000446	4.458888	1.510712	0.000179
1876	1.8656e+02	-5.2956	-33.401243	0.000345	3.445504	1.167368	0.000138
1877	1.8666e+02	-5.2523	-33.251869	0.000375	3.749519	1.270371	0.000150
1878	1.8676e+02	-5.2154	-33.102494	0.000375	3.749519	1.270371	0.000150
1879	1.8686e+02	-5.1753	-32.932935	0.000426	4.256211	1.442043	0.000170
1880	1.8696e+02	-5.1416	-32.771449	0.000405	4.053534	1.373375	0.000162
1881	1.8706e+02	-5.0999	-32.626112	0.000365	3.648181	1.236037	0.000146
1882	1.8716e+02	-5.0646	-32.460590	0.000415	4.154873	1.407709	0.000166
1883	1.8726e+02	-5.0341	-32.311216	0.000375	3.749519	1.270371	0.000150
1884	1.8736e+02	-4.9763	-32.093211	0.000547	5.472271	1.854056	0.000219
1885	1.8746e+02	-4.9346	-31.964022	0.000324	3.242827	1.098700	0.000130
1886	1.8756e+02	-4.9025	-31.762165	0.000507	5.066918	1.716718	0.000203
1887	1.8766e+02	-4.8656	-31.532049	0.000578	5.776286	1.957059	0.000231
1888	1.8776e+02	-4.8255	-31.427083	0.000263	2.634797	0.892693	0.000105
1889	1.8786e+02	-4.7902	-31.261561	0.000415	4.154873	1.407709	0.000166
1890	1.8796e+02	-4.7469	-31.108149	0.000385	3.850857	1.304706	0.000154
1891	1.8806e+02	-4.7020	-30.882070	0.000567	5.674948	1.922724	0.000227
1892	1.8815e+02	-4.6635	-30.740770	0.000355	3.546842	1.201703	0.000142
1893	1.8825e+02	-4.6218	-30.534876	0.000517	5.168256	1.751053	0.000207
1894	1.8835e+02	-4.5817	-30.401651	0.000334	3.344166	1.133034	0.000134
1895	1.8845e+02	-4.5528	-30.240165	0.000405	4.053534	1.373375	0.000162
1896	1.8855e+02	-4.5095	-30.102903	0.000345	3.445504	1.167368	0.000138
1897	1.8865e+02	-4.4598	-29.929306	0.000436	4.357549	1.476378	0.000174
1898	1.8875e+02	-4.4148	-29.747635	0.000456	4.560226	1.545046	0.000183
1899	1.8885e+02	-4.3780	-29.582112	0.000415	4.154873	1.407709	0.000166
1900	1.8895e+02	-4.3459	-29.428701	0.000385	3.850857	1.304706	0.000154
1901	1.8905e+02	-4.3074	-29.247030	0.000456	4.560226	1.545046	0.000183
1902	1.8915e+02	-4.2576	-29.073433	0.000436	4.357549	1.476378	0.000174
1903	1.8925e+02	-4.2239	-28.883688	0.000476	4.762903	1.613715	0.000191
1904	1.8935e+02	-4.1887	-28.677794	0.000517	5.168256	1.751053	0.000207
1905	1.8945e+02	-4.1437	-28.447677	0.000578	5.776286	1.957059	0.000231
1906	1.8955e+02	-4.1020	-28.326563	0.000304	3.040151	1.030031	0.000122
1907	1.8965e+02	-4.0651	-28.128743	0.000497	4.965579	1.682384	0.000199
1908	1.8975e+02	-4.0282	-27.967258	0.000405	4.053534	1.373375	0.000162
1909	1.8985e+02	-3.9833	-27.753290	0.000537	5.370933	1.819721	0.000215
1910	1.8995e+02	-3.9432	-27.607953	0.000365	3.648181	1.236037	0.000146
1911	1.9004e+02	-3.9047	-27.422245	0.000466	4.661564	1.579381	0.000187
1912	1.9014e+02	-3.8518	-27.329390	0.000233	2.330782	0.789690	0.000093
1913	1.9024e+02	-3.8245	-27.111385	0.000547	5.472271	1.854056	0.000219
1914	1.9034e+02	-3.7828	-26.957974	0.000385	3.850857	1.304706	0.000154
1915	1.9044e+02	-3.7411	-26.776303	0.000456	4.560226	1.545046	0.000183
1916	1.9054e+02	-3.7026	-26.614817	0.000405	4.053534	1.373375	0.000162
1917	1.9064e+02	-3.6625	-26.384701	0.000578	5.776286	1.957059	0.000231
1918	1.9074e+02	-3.6272	-26.219178	0.000415	4.154873	1.407709	0.000166
1919	1.9084e+02	-3.5855	-26.057693	0.000405	4.053534	1.373375	0.000162
1920	1.9094e+02	-3.5486	-25.843724	0.000537	5.370933	1.819721	0.000215
1921	1.9104e+02	-3.4940	-25.629756	0.000537	5.370933	1.819721	0.000215
1922	1.9114e+02	-3.4684	-25.472308	0.000395	3.952196	1.339040	0.000158
1923	1.9124e+02	-3.4250	-25.274488	0.000497	4.965579	1.682384	0.000199
1924	1.9134e+02	-3.3897	-25.064557	0.000527	5.269594	1.785387	0.000211
1925	1.9144e+02	-3.3464	-24.878849	0.000466	4.661564	1.579381	0.000187
1926	1.9154e+02	-3.3047	-24.709289	0.000426	4.256211	1.442043	0.000170
1927	1.9164e+02	-3.2694	-24.491284	0.000547	5.472271	1.854056	0.000219
1928	1.9174e+02	-3.2261	-24.337873	0.000385	3.850857	1.304706	0.000154
1929	1.9184e+02	-3.1828	-24.144090	0.000486	4.864241	1.648049	0.000195
1930	1.9194e+02	-3.1459	-23.970493	0.000436	4.357549	1.476378	0.000174
1931	1.9203e+02	-3.1058	-23.788822	0.000456	4.560226	1.545046	0.000183
1932	1.9213e+02	-3.0689	-23.623300	0.000415	4.154873	1.407709	0.000166
1933	1.9223e+02	-3.0256	-23.421443	0.000507	5.066918	1.716718	0.000203
1934	1.9233e+02	-2.9919	-23.255920	0.000415	4.154873	1.407709	0.000166
1935	1.9243e+02	-2.9390	-23.078286	0.000446	4.458888	1.510712	0.000179
1936	1.9253e+02	-2.9085	-22.848170	0.000578	5.776286	1.957059	0.000231
1937	1.9263e+02	-2.8652	-22.638239	0.000527	5.269594	1.785387	0.000211
1938	1.9273e+02	-2.8218	-22.424270	0.000537	5.370933	1.819721	0.000215
1939	1.9283e+02	-2.7994	-22.238562	0.000466	4.661564	1.579381	0.000187
1940	1.9293e+02	-2.7561	-22.000371	0.000598	5.978963	2.025727	0.000239
1941	1.9303e+02	-2.7095	-21.778329	0.000557	5.573610	1.888390	0.000223
1942	1.9313e+02	-2.6710	-21.604732	0.000436	4.357549	1.476378	0.000174
1943	1.9323e+02	-2.6277	-21.443246	0.000405	4.053534	1.373375	0.000162
1944	1.9333e+02	-2.5940	-21.217167	0.000567	5.674948	1.922724	0.000227
1945	1.9343e+02	-2.5571	-21.051644	0.000415	4.154873	1.407709	0.000166
1946	1.9353e+02	-2.5042	-20.857862	0.000486	4.864241	1.648049	0.000195
1947	1.9363e+02	-2.4657	-20.635819	0.000557	5.573610	1.888390	0.000223
1948	1.9373e+02	-2.4384	-20.490482	0.000365	3.648181	1.236037	0.000146
1949	1.9383e+02	-2.3839	-20.276514	0.000537	5.370933	1.819721	0.000215
1950	1.9393e+02	-2.3438	-20.050435	0.000567	5.674948	1.922724	0.000227
1951	1.9403e+02	-2.3133	-19.876838	0.000436	4.357549	1.476378	0.000174
1952	1.9412e+02	-2.2716	-19.699204	0.000446	4.458888	1.510712	0.000179
1953	1.9422e+02	-2.2267	-19.481199	0.000547	5.472271	1.854056	0.000219
1954	1.9432e+02	-2.1882	-19.287416	0.000486	4.864241	1.648049	0.000195
1955	1.9442e+02	-2.1481	-19.025002	0.000659	6.586993	2.231734	0.000264
1956	1.9452e+02	-2.1112	-18.815071	0.000527	5.269594	1.785387	0.000211
1957	1.9462e+02	-2.0695	-18.617251	0.000497	4.965579	1.682384	0.000199
1958	1.9472e+02	-2.0294	-18.407320	0.000527	5.269594	1.785387	0.000211
1959	1.9482e+02	-1.9844	-18.213538	0.000486	4.864241	1.648049	0.000195
1960	1.9492e+02	-1.9459	-17.975347	0.000598	5.978963	2.025727	0.000239
1961	1.9502e+02	-1.9155	-17.765416	0.000527	5.269594	1.785387	0.000211
1962	1.9512e+02	-1.8721	-17.571633	0.000486	4.864241	1.648049	0.000195
1963	1.9522e+02	-1.8320	-17.377851	0.000486	4.864241	1.648049	0.000195
1964	1.9532e+02	-1.7935	-17.123511	0.000638	6.384316	2.163065	0.000256
1965	1.9542e+02	-1.7502	-16.941840	0.000456	4.560226	1.545046	0.000183
1966	1.9552e+02	-1.7085	-16.731909	0.000527	5.269594	1.785387	0.000211
1967	1.9562e+02	-1.6748	-16.538127	0.000486	4.864241	1.648049	0.000195
1968	1.9572e+02	-1.6315	-16.308010	0.000578	5.776286	1.957059	0.000231
1969	1.9582e+02	-1.5882	-16.126339	0.000456	4.560226	1.545046	0.000183
1970	1.9592e+02	-1.5529	-15.896222	0.000578	5.776286	1.957059	0.000231
1971	1.9601e+02	-1.5128	-15.637845	0.000649	6.485655	2.197399	0.000260
1972	1.9611e+02	-1.4775	-15.391580	0.000618	6.181640	2.094396	0.000248
1973	1.9621e+02	-1.4262	-15.173575	0.000547	5.472271	1.854056	0.000219
1974	1.9631e+02	-1.3973	-14.975755	0.000497	4.965579	1.682384	0.000199
1975	1.9641e+02	-1.3556	-14.749675	0.000567	5.674948	1.922724	0.000227
1976	1.9651e+02	-1.3187	-14.527633	0.000557	5.573610	1.888390	0.000223
1977	1.9661e+02	-1.2770	-14.273293	0.000638	6.384316	2.163065	0.000256
1978	1.9671e+02	-1.2288	-14.075474	0.000497	4.965579	1.682384	0.000199
1979	1.9681e+02	-1.1984	-13.853431	0.000557	5.573610	1.888390	0.000223
1980	1.9691e+02	-1.1534	-13.627352	0.000567	5.674948	1.922724	0.000227
1981	1.9701e+02	-1.1165	-13.465866	0.000405	4.053534	1.373375	0.000162
1982	1.9711e+02	-1.0684	-13.264009	0.000507	5.066918	1.716718	0.000203
1983	1.9721e+02	-1.0395	-13.037930	0.000567	5.674948	1.922724	0.000227
1984	1.9731e+02	-1.0042	-12.787627	0.000628	6.282978	2.128731	0.000252
1985	1.9741e+02	-0.9545	-12.597882	0.000476	4.762903	1.613715	0.000191
1986	1.9751e+02	-0.9176	-12.375840	0.000557	5.573610	1.888390	0.000223
1987	1.9761e+02	-0.8775	-12.161871	0.000537	5.370933	1.819721	0.000215
1988	1.9771e+02	-0.8358	-11.939829	0.000557	5.573610	1.888390	0.000223
1989	1.9781e+02	-0.8037	-11.701638	0.000598	5.978963	2.025727	0.000239
1990	1.9791e+02	-0.7492	-11.431150	0.000679	6.789670	2.300402	0.000272
1991	1.9800e+02	-0.7219	-11.213145	0.000547	5.472271	1.854056	0.000219
1992	1.9810e+02	-0.6770	-10.974954	0.000598	5.978963	2.025727	0.000239
1993	1.9820e+02	-0.6417	-10.724651	0.000628	6.282978	2.128731	0.000252
1994	1.9830e+02	-0.5952	-10.530869	0.000486	4.864241	1.648049	0.000195
1995	1.9840e+02	-0.5535	-10.280566	0.000628	6.282978	2.128731	0.000252
1996	1.9850e+02	-0.5166	-10.066598	0.000537	5.370933	1.819721	0.000215
1997	1.9860e+02	-0.4716	-9.864741	0.000507	5.066918	1.716718	0.000203
1998	1.9870e+02	-0.4299	-9.646736	0.000547	5.472271	1.854056	0.000219
1999	1.9880e+02	-0.3946	-9.412582	0.000588	5.877625	1.991393	0.000235
2000	1.9890e+02	-0.3577	-9.182465	0.000578	5.776286	1.957059	0.000231
2001	1.9900e+02	-0.3160	-8.960423	0.000557	5.573610	1.888390	0.000223
2002	1.9910e+02	-0.2759	-8.726269	0.000588	5.877625	1.991393	0.000235
2003	1.9920e+02	-0.2390	-8.520375	0.000517	5.168256	1.751053	0.000207
2004	1.9930e+02	-0.2005	-8.286221	0.000588	5.877625	1.991393	0.000235
2005	1.9940e+02	-0.1508	-8.064179	0.000557	5.573610	1.888390	0.000223
2006	1.9950e+02	-0.1235	-7.813876	0.000628	6.282978	2.128731	0.000252
2007	1.9960e+02	-0.0818	-7.555500	0.000649	6.485655	2.197399	0.000260
2008	1.9970e+02	-0.0433	-7.301160	0.000638	6.384316	2.163065	0.000256
2009	1.9980e+02	0.0096	-7.087192	0.000638	6.384316	2.163065	0.000215

Center data before PMax,+/-Pr and +/-Vc Calc.

PMax (uC/cm2):	7.65e+01
Pr (uC/cm2):	3.56e+00
-Pr (uC/cm2):	-7.09e+00
PLoss (uC/cm2):	-3.72e+00
Vc:	6.47e-01
-Vc:	-6.48e-01
C (Max-Eff) (nF):	3.83e-01
K (Eff):	1.30e+03
Vert. (+/-Pr) Shift (uC/cm2):	-1.76e+00
Horiz. Shift (+/-Vc):	-3.41e-05
Offset (uC/cm2):	3.43e+00

A (Loop Area - uC/cm2·Volts):	5.47e-02



Hysteresis Version: 5.48.1 - Radiant Technologies, Inc., 1999 - 9/12/24

