»»»»»»»»»»»»»»»»»»»»»»»»»»»»»»»»»»»» Hysteresis ««««««««««««««««««««««««««««««««««««
»»»  Executed Version:	5.48.1
»»»  Vision Version:	5.48.4 (R)
»»»  Vision Compiled:	9/18/24
»»»  Driver Version:	5.47.0
»»»  Windows Version:	Windows 8 or 8.1
»»»  Processor Information:	x86 (AMD or Intel) - 32 Processors
»»»  Tester Name:	PMF21124-494 (100V)
»»»  Tester S/N:	PMF21124-494
»»»  Internal Amp Type:	100V RevK 270k
»»»  Internal Amp S/N:	iAB2-596/K     
»»»  Execution Count:	1
»»»»»»»»»»»»»»»»»»»»»»»»»»»»»»»»»»»»»»»»»»««««««««««««««««««««««««««««««««««««««««««

Stored:	6/13/2025 - 11:40:20
Configured:	06/13/25 10:12:58 AM
Executed:	06/13/25 11:39:49 AM

»»»»»»»»»»»»»»»»»»»»»»»»»»»»»»»»»»» Sample Info ««««««««««««««««««««««««««««««««««««
Sample Name:	
Lot Name:	
Wafer Name:	
Die Row/Column:	0/0
Capacitor Number:	0
Sample Area (cm2):	1.00e-04
Sample Thickness (microns):	3.00e-01

Amplifier:	Internal

»»»»»»»»»»»»»»»»»»»»»»»»»»»»»»»»»»» Tester Info «««««««««««««««««««««««««««««««««««
Tester Name:	PMF21124-494 (100V)
Tester Serial Number:	PMF21124-494
Return Signal Amp. Level:	0.19 [Index: 3]

»»»»»»»»»»»»»»»»»»»»»»»»»»»»»»»» Hysteresis Info ««««««««««««««««««««««««««««««««««
Task Name:	Hyst-1704
Volts:	20.00
Field:	666.67 (kV/cm)
DCBias:	0.00
DCField:	0.00 (kV/cm)
Hysteresis Period (ms):	2.00e+02
Preset:	Enabled
Preset Delay (ms):	1.00e+03
Profile:	Standard Bipolar

»»»»»»»»»»»»»»»»»»»»»»»»»»»»»»»»»»»»»» Data «««««««««««««««««««««««««««««««««««««««
Points:	2009

Valid Data

Point	Time (ms)	Drive Voltage	Measured Polarization (uC/cm2)	Capacitance (uF)	Normalized Capacitance (uF/cm2)	Dielectric Constant	Instantaneous Current (mA)
   1	0.0000e+00	0.0128	-1.612836	0.000193	1.926124	0.652588	0.000077
   2	9.9500e-02	0.0337	-1.536130	0.000193	1.926124	0.652588	0.000077
   3	1.9900e-01	0.0754	-1.354459	0.000456	4.561873	1.545604	0.000183
   4	2.9850e-01	0.1187	-1.201048	0.000385	3.852248	1.305177	0.000154
   5	3.9800e-01	0.1492	-1.047637	0.000385	3.852248	1.305177	0.000154
   6	4.9750e-01	0.2021	-0.853854	0.000487	4.865998	1.648645	0.000195
   7	5.9700e-01	0.2310	-0.744852	0.000274	2.737124	0.927363	0.000110
   8	6.9650e-01	0.2679	-0.571255	0.000436	4.359123	1.476911	0.000174
   9	7.9600e-01	0.3128	-0.466289	0.000264	2.635749	0.893016	0.000105
  10	8.9550e-01	0.3529	-0.244247	0.000558	5.575622	1.889072	0.000223
  11	9.9500e-01	0.3930	-0.082761	0.000405	4.054998	1.373870	0.000162
  12	1.0945e+00	0.4331	0.046427	0.000324	3.243998	1.099096	0.000130
  13	1.1940e+00	0.4749	0.264432	0.000547	5.474247	1.854725	0.000219
  14	1.2935e+00	0.5134	0.429955	0.000416	4.156373	1.408217	0.000166
  15	1.3930e+00	0.5486	0.595478	0.000416	4.156373	1.408217	0.000166
  16	1.4925e+00	0.5904	0.809446	0.000537	5.372872	1.820378	0.000215
  17	1.5920e+00	0.6240	0.946708	0.000345	3.446748	1.167790	0.000138
  18	1.6915e+00	0.6658	1.116268	0.000426	4.257748	1.442564	0.000170
  19	1.7910e+00	0.6978	1.261605	0.000365	3.649498	1.236483	0.000146
  20	1.8905e+00	0.7524	1.447313	0.000466	4.663248	1.579951	0.000187
  21	1.9900e+00	0.7893	1.608799	0.000405	4.054998	1.373870	0.000162
  22	2.0895e+00	0.8278	1.766247	0.000395	3.953623	1.339524	0.000158
  23	2.1890e+00	0.8711	1.935807	0.000426	4.257748	1.442564	0.000170
  24	2.2885e+00	0.8984	2.093255	0.000395	3.953623	1.339524	0.000158
  25	2.3880e+00	0.9481	2.234555	0.000355	3.548123	1.202137	0.000142
  26	2.4875e+00	0.9882	2.392003	0.000395	3.953623	1.339524	0.000158
  27	2.5870e+00	1.0315	2.577711	0.000466	4.663248	1.579951	0.000187
  28	2.6865e+00	1.0716	2.723048	0.000365	3.649498	1.236483	0.000146
  29	2.7860e+00	1.1069	2.912793	0.000476	4.764623	1.614298	0.000191
  30	2.8855e+00	1.1534	3.086390	0.000436	4.359123	1.476911	0.000174
  31	2.9850e+00	1.1952	3.276136	0.000476	4.764623	1.614298	0.000191
  32	3.0845e+00	1.2240	3.433584	0.000395	3.953623	1.339524	0.000158
  33	3.1840e+00	1.2738	3.619292	0.000466	4.663248	1.579951	0.000187
  34	3.2835e+00	1.3123	3.788852	0.000426	4.257748	1.442564	0.000170
  35	3.3830e+00	1.3556	3.958412	0.000426	4.257748	1.442564	0.000170
  36	3.4825e+00	1.3828	4.091637	0.000335	3.345373	1.133443	0.000134
  37	3.5820e+00	1.4230	4.285420	0.000487	4.865998	1.648645	0.000195
  38	3.6815e+00	1.4695	4.446905	0.000405	4.054998	1.373870	0.000162
  39	3.7810e+00	1.5048	4.551871	0.000264	2.635749	0.893016	0.000105
  40	3.8805e+00	1.5449	4.757764	0.000517	5.170122	1.751685	0.000207
  41	3.9800e+00	1.5786	4.878879	0.000304	3.041248	1.030403	0.000122
  42	4.0795e+00	1.6267	5.072661	0.000487	4.865998	1.648645	0.000195
  43	4.1790e+00	1.6668	5.238184	0.000416	4.156373	1.408217	0.000166
  44	4.2785e+00	1.7101	5.415818	0.000446	4.460498	1.511258	0.000179
  45	4.3780e+00	1.7518	5.565192	0.000375	3.750873	1.270830	0.000150
  46	4.4775e+00	1.7807	5.754937	0.000476	4.764623	1.614298	0.000191
  47	4.5770e+00	1.8352	5.896237	0.000355	3.548123	1.202137	0.000142
  48	4.6765e+00	1.8641	6.106168	0.000527	5.271497	1.786032	0.000211
  49	4.7760e+00	1.9058	6.215170	0.000274	2.737124	0.927363	0.000110
  50	4.8755e+00	1.9427	6.400879	0.000466	4.663248	1.579951	0.000187
  51	4.9750e+00	1.9876	6.578513	0.000446	4.460498	1.511258	0.000179
  52	5.0745e+00	2.0229	6.748072	0.000426	4.257748	1.442564	0.000170
  53	5.1740e+00	2.0646	6.905521	0.000395	3.953623	1.339524	0.000158
  54	5.2735e+00	2.0999	7.058932	0.000385	3.852248	1.305177	0.000154
  55	5.3730e+00	2.1368	7.236566	0.000446	4.460498	1.511258	0.000179
  56	5.4725e+00	2.1866	7.414200	0.000446	4.460498	1.511258	0.000179
  57	5.5720e+00	2.2187	7.559537	0.000365	3.649498	1.236483	0.000146
  58	5.6715e+00	2.2716	7.729096	0.000426	4.257748	1.442564	0.000170
  59	5.7710e+00	2.3021	7.886545	0.000395	3.953623	1.339524	0.000158
  60	5.8705e+00	2.3438	8.084364	0.000497	4.967372	1.682991	0.000199
  61	5.9700e+00	2.3759	8.169144	0.000213	2.128874	0.721282	0.000085
  62	6.0695e+00	2.4320	8.350815	0.000456	4.561873	1.545604	0.000183
  63	6.1690e+00	2.4593	8.552672	0.000507	5.068747	1.717338	0.000203
  64	6.2685e+00	2.5106	8.685898	0.000335	3.345373	1.133443	0.000134
  65	6.3680e+00	2.5363	8.855457	0.000426	4.257748	1.442564	0.000170
  66	6.4675e+00	2.5860	9.025017	0.000426	4.257748	1.442564	0.000170
  67	6.5670e+00	2.6213	9.186502	0.000405	4.054998	1.373870	0.000162
  68	6.6665e+00	2.6598	9.376248	0.000476	4.764623	1.614298	0.000191
  69	6.7660e+00	2.7047	9.509473	0.000335	3.345373	1.133443	0.000134
  70	6.8655e+00	2.7352	9.703256	0.000487	4.865998	1.648645	0.000195
  71	6.9650e+00	2.7769	9.820333	0.000294	2.939874	0.996056	0.000118
  72	7.0645e+00	2.8299	9.985855	0.000416	4.156373	1.408217	0.000166
  73	7.1640e+00	2.8636	10.147341	0.000405	4.054998	1.373870	0.000162
  74	7.2635e+00	2.9005	10.320938	0.000436	4.359123	1.476911	0.000174
  75	7.3630e+00	2.9438	10.506646	0.000466	4.663248	1.579951	0.000187
  76	7.4625e+00	2.9871	10.635834	0.000324	3.243998	1.099096	0.000130
  77	7.5620e+00	3.0224	10.821542	0.000466	4.663248	1.579951	0.000187
  78	7.6615e+00	3.0657	10.962842	0.000355	3.548123	1.202137	0.000142
  79	7.7610e+00	3.1026	11.132402	0.000426	4.257748	1.442564	0.000170
  80	7.8605e+00	3.1475	11.297924	0.000416	4.156373	1.408217	0.000166
  81	7.9600e+00	3.1876	11.463447	0.000416	4.156373	1.408217	0.000166
  82	8.0595e+00	3.2293	11.604747	0.000355	3.548123	1.202137	0.000142
  83	8.1590e+00	3.2646	11.778344	0.000436	4.359123	1.476911	0.000174
  84	8.2585e+00	3.3079	11.939829	0.000405	4.054998	1.373870	0.000162
  85	8.3580e+00	3.3432	12.109389	0.000426	4.257748	1.442564	0.000170
  86	8.4575e+00	3.3737	12.246651	0.000345	3.446748	1.167790	0.000138
  87	8.5570e+00	3.4234	12.448508	0.000507	5.068747	1.717338	0.000203
  88	8.6565e+00	3.4555	12.557511	0.000274	2.737124	0.927363	0.000110
  89	8.7560e+00	3.4972	12.743219	0.000466	4.663248	1.579951	0.000187
  90	8.8555e+00	3.5389	12.880482	0.000345	3.446748	1.167790	0.000138
  91	8.9550e+00	3.5806	13.054078	0.000436	4.359123	1.476911	0.000174
  92	9.0545e+00	3.6159	13.259972	0.000517	5.170122	1.751685	0.000207
  93	9.1540e+00	3.6593	13.381086	0.000304	3.041248	1.030403	0.000122
  94	9.2535e+00	3.6978	13.530460	0.000375	3.750873	1.270830	0.000150
  95	9.3530e+00	3.7443	13.671760	0.000355	3.548123	1.202137	0.000142
  96	9.4525e+00	3.7860	13.841320	0.000426	4.257748	1.442564	0.000170
  97	9.5520e+00	3.8229	14.010880	0.000426	4.257748	1.442564	0.000170
  98	9.6515e+00	3.8566	14.140068	0.000324	3.243998	1.099096	0.000130
  99	9.7510e+00	3.8871	14.337888	0.000497	4.967372	1.682991	0.000199
 100	9.8505e+00	3.9448	14.495336	0.000395	3.953623	1.339524	0.000158
 101	9.9500e+00	3.9769	14.632598	0.000345	3.446748	1.167790	0.000138
 102	1.0050e+01	4.0202	14.790047	0.000395	3.953623	1.339524	0.000158
 103	1.0149e+01	4.0555	14.943458	0.000385	3.852248	1.305177	0.000154
 104	1.0248e+01	4.1036	15.113018	0.000426	4.257748	1.442564	0.000170
 105	1.0348e+01	4.1357	15.262392	0.000375	3.750873	1.270830	0.000150
 106	1.0447e+01	4.1742	15.427914	0.000416	4.156373	1.408217	0.000166
 107	1.0547e+01	4.2095	15.585363	0.000395	3.953623	1.339524	0.000158
 108	1.0646e+01	4.2528	15.710514	0.000314	3.142623	1.064750	0.000126
 109	1.0746e+01	4.2993	15.871999	0.000405	4.054998	1.373870	0.000162
 110	1.0845e+01	4.3378	16.025410	0.000385	3.852248	1.305177	0.000154
 111	1.0945e+01	4.3699	16.219193	0.000487	4.865998	1.648645	0.000195
 112	1.1044e+01	4.4277	16.336270	0.000294	2.939874	0.996056	0.000118
 113	1.1144e+01	4.4582	16.485644	0.000375	3.750873	1.270830	0.000150
 114	1.1243e+01	4.4983	16.667315	0.000456	4.561873	1.545604	0.000183
 115	1.1343e+01	4.5384	16.816689	0.000375	3.750873	1.270830	0.000150
 116	1.1443e+01	4.5817	16.949914	0.000335	3.345373	1.133443	0.000134
 117	1.1542e+01	4.6218	17.115437	0.000416	4.156373	1.408217	0.000166
 118	1.1642e+01	4.6587	17.268848	0.000385	3.852248	1.305177	0.000154
 119	1.1741e+01	4.6940	17.450519	0.000456	4.561873	1.545604	0.000183
 120	1.1841e+01	4.7389	17.571633	0.000304	3.041248	1.030403	0.000122
 121	1.1940e+01	4.7806	17.712933	0.000355	3.548123	1.202137	0.000142
 122	1.2040e+01	4.8207	17.878456	0.000416	4.156373	1.408217	0.000166
 123	1.2139e+01	4.8624	18.035904	0.000395	3.953623	1.339524	0.000158
 124	1.2239e+01	4.8961	18.217575	0.000456	4.561873	1.545604	0.000183
 125	1.2338e+01	4.9330	18.346763	0.000324	3.243998	1.099096	0.000130
 126	1.2438e+01	4.9731	18.488063	0.000355	3.548123	1.202137	0.000142
 127	1.2537e+01	5.0148	18.637437	0.000375	3.750873	1.270830	0.000150
 128	1.2636e+01	5.0581	18.786811	0.000375	3.750873	1.270830	0.000150
 129	1.2736e+01	5.0902	18.960408	0.000436	4.359123	1.476911	0.000174
 130	1.2835e+01	5.1400	19.134005	0.000436	4.359123	1.476911	0.000174
 131	1.2935e+01	5.1753	19.307602	0.000436	4.359123	1.476911	0.000174
 132	1.3034e+01	5.2089	19.392382	0.000213	2.128874	0.721282	0.000085
 133	1.3134e+01	5.2667	19.578090	0.000466	4.663248	1.579951	0.000187
 134	1.3233e+01	5.2892	19.674981	0.000243	2.432999	0.824322	0.000097
 135	1.3333e+01	5.3277	19.860689	0.000466	4.663248	1.579951	0.000187
 136	1.3432e+01	5.3838	19.985840	0.000314	3.142623	1.064750	0.000126
 137	1.3532e+01	5.4095	20.151363	0.000416	4.156373	1.408217	0.000166
 138	1.3632e+01	5.4528	20.288626	0.000345	3.446748	1.167790	0.000138
 139	1.3731e+01	5.4913	20.458185	0.000426	4.257748	1.442564	0.000170
 140	1.3831e+01	5.5362	20.587374	0.000324	3.243998	1.099096	0.000130
 141	1.3930e+01	5.5763	20.756933	0.000426	4.257748	1.442564	0.000170
 142	1.4030e+01	5.6068	20.894196	0.000345	3.446748	1.167790	0.000138
 143	1.4129e+01	5.6565	21.043570	0.000375	3.750873	1.270830	0.000150
 144	1.4229e+01	5.6950	21.213130	0.000426	4.257748	1.442564	0.000170
 145	1.4328e+01	5.7319	21.362504	0.000375	3.750873	1.270830	0.000150
 146	1.4428e+01	5.7752	21.519952	0.000395	3.953623	1.339524	0.000158
 147	1.4527e+01	5.8105	21.669326	0.000375	3.750873	1.270830	0.000150
 148	1.4627e+01	5.8522	21.802552	0.000335	3.345373	1.133443	0.000134
 149	1.4726e+01	5.9004	21.927703	0.000314	3.142623	1.064750	0.000126
 150	1.4825e+01	5.9373	22.105337	0.000446	4.460498	1.511258	0.000179
 151	1.4925e+01	5.9629	22.258748	0.000385	3.852248	1.305177	0.000154
 152	1.5024e+01	6.0079	22.396011	0.000345	3.446748	1.167790	0.000138
 153	1.5124e+01	6.0464	22.561533	0.000416	4.156373	1.408217	0.000166
 154	1.5223e+01	6.0945	22.690721	0.000324	3.243998	1.099096	0.000130
 155	1.5323e+01	6.1314	22.852207	0.000405	4.054998	1.373870	0.000162
 156	1.5422e+01	6.1779	22.981395	0.000324	3.243998	1.099096	0.000130
 157	1.5522e+01	6.2100	23.118658	0.000345	3.446748	1.167790	0.000138
 158	1.5621e+01	6.2517	23.288218	0.000426	4.257748	1.442564	0.000170
 159	1.5721e+01	6.2902	23.457777	0.000426	4.257748	1.442564	0.000170
 160	1.5820e+01	6.3271	23.586966	0.000324	3.243998	1.099096	0.000130
 161	1.5920e+01	6.3656	23.736340	0.000375	3.750873	1.270830	0.000150
 162	1.6020e+01	6.4105	23.869565	0.000335	3.345373	1.133443	0.000134
 163	1.6119e+01	6.4490	23.978568	0.000274	2.737124	0.927363	0.000110
 164	1.6218e+01	6.4907	24.119867	0.000355	3.548123	1.202137	0.000142
 165	1.6318e+01	6.5405	24.293464	0.000436	4.359123	1.476911	0.000174
 166	1.6418e+01	6.5725	24.438801	0.000365	3.649498	1.236483	0.000146
 167	1.6517e+01	6.6094	24.555878	0.000294	2.939874	0.996056	0.000118
 168	1.6616e+01	6.6495	24.685066	0.000324	3.243998	1.099096	0.000130
 169	1.6716e+01	6.6816	24.846552	0.000405	4.054998	1.373870	0.000162
 170	1.6816e+01	6.7249	25.044372	0.000497	4.967372	1.682991	0.000199
 171	1.6915e+01	6.7715	25.141263	0.000243	2.432999	0.824322	0.000097
 172	1.7015e+01	6.8100	25.290637	0.000375	3.750873	1.270830	0.000150
 173	1.7114e+01	6.8469	25.427899	0.000345	3.446748	1.167790	0.000138
 174	1.7213e+01	6.8902	25.577273	0.000375	3.750873	1.270830	0.000150
 175	1.7313e+01	6.9207	25.746833	0.000426	4.257748	1.442564	0.000170
 176	1.7413e+01	6.9656	25.880059	0.000335	3.345373	1.133443	0.000134
 177	1.7512e+01	7.0025	26.017321	0.000345	3.446748	1.167790	0.000138
 178	1.7611e+01	7.0458	26.186881	0.000426	4.257748	1.442564	0.000170
 179	1.7711e+01	7.0779	26.303958	0.000294	2.939874	0.996056	0.000118
 180	1.7811e+01	7.1196	26.441221	0.000345	3.446748	1.167790	0.000138
 181	1.7910e+01	7.1645	26.635003	0.000487	4.865998	1.648645	0.000195
 182	1.8009e+01	7.2062	26.764191	0.000324	3.243998	1.099096	0.000130
 183	1.8109e+01	7.2447	26.889343	0.000314	3.142623	1.064750	0.000126
 184	1.8209e+01	7.2816	27.006420	0.000294	2.939874	0.996056	0.000118
 185	1.8308e+01	7.3313	27.143682	0.000345	3.446748	1.167790	0.000138
 186	1.8407e+01	7.3682	27.284982	0.000355	3.548123	1.202137	0.000142
 187	1.8507e+01	7.4003	27.442430	0.000395	3.953623	1.339524	0.000158
 188	1.8607e+01	7.4468	27.571619	0.000324	3.243998	1.099096	0.000130
 189	1.8706e+01	7.4821	27.753290	0.000456	4.561873	1.545604	0.000183
 190	1.8805e+01	7.5271	27.870367	0.000294	2.939874	0.996056	0.000118
 191	1.8905e+01	7.5704	28.015703	0.000365	3.649498	1.236483	0.000146
 192	1.9005e+01	7.5960	28.165077	0.000375	3.750873	1.270830	0.000150
 193	1.9104e+01	7.6442	28.298303	0.000335	3.345373	1.133443	0.000134
 194	1.9203e+01	7.6795	28.431528	0.000335	3.345373	1.133443	0.000134
 195	1.9303e+01	7.7276	28.560717	0.000324	3.243998	1.099096	0.000130
 196	1.9402e+01	7.7645	28.730276	0.000426	4.257748	1.442564	0.000170
 197	1.9502e+01	7.8062	28.851391	0.000304	3.041248	1.030403	0.000122
 198	1.9602e+01	7.8335	29.000765	0.000375	3.750873	1.270830	0.000150
 199	1.9701e+01	7.8896	29.133990	0.000335	3.345373	1.133443	0.000134
 200	1.9800e+01	7.9297	29.303550	0.000426	4.257748	1.442564	0.000170
 201	1.9900e+01	7.9602	29.420627	0.000294	2.939874	0.996056	0.000118
 202	2.0000e+01	8.0019	29.557889	0.000345	3.446748	1.167790	0.000138
 203	2.0099e+01	8.0452	29.699189	0.000355	3.548123	1.202137	0.000142
 204	2.0198e+01	8.0741	29.796080	0.000243	2.432999	0.824322	0.000097
 205	2.0298e+01	8.1158	29.965640	0.000426	4.257748	1.442564	0.000170
 206	2.0398e+01	8.1607	30.102903	0.000345	3.446748	1.167790	0.000138
 207	2.0497e+01	8.1864	30.211905	0.000274	2.737124	0.927363	0.000110
 208	2.0596e+01	8.2425	30.389539	0.000446	4.460498	1.511258	0.000179
 209	2.0696e+01	8.2794	30.498542	0.000274	2.737124	0.927363	0.000110
 210	2.0796e+01	8.3228	30.684250	0.000466	4.663248	1.579951	0.000187
 211	2.0895e+01	8.3661	30.801327	0.000294	2.939874	0.996056	0.000118
 212	2.0994e+01	8.4014	30.946664	0.000365	3.649498	1.236483	0.000146
 213	2.1094e+01	8.4415	31.096038	0.000375	3.750873	1.270830	0.000150
 214	2.1194e+01	8.4816	31.269635	0.000436	4.359123	1.476911	0.000174
 215	2.1293e+01	8.5153	31.366526	0.000243	2.432999	0.824322	0.000097
 216	2.1392e+01	8.5602	31.499752	0.000335	3.345373	1.133443	0.000134
 217	2.1492e+01	8.6019	31.645088	0.000365	3.649498	1.236483	0.000146
 218	2.1591e+01	8.6404	31.758128	0.000284	2.838499	0.961709	0.000114
 219	2.1691e+01	8.6741	31.879242	0.000304	3.041248	1.030403	0.000122
 220	2.1791e+01	8.7206	32.048802	0.000426	4.257748	1.442564	0.000170
 221	2.1890e+01	8.7575	32.194139	0.000365	3.649498	1.236483	0.000146
 222	2.1989e+01	8.8024	32.295067	0.000253	2.534374	0.858669	0.000101
 223	2.2089e+01	8.8361	32.432330	0.000345	3.446748	1.167790	0.000138
 224	2.2189e+01	8.8907	32.589778	0.000395	3.953623	1.339524	0.000158
 225	2.2288e+01	8.9115	32.706855	0.000294	2.939874	0.996056	0.000118
 226	2.2387e+01	8.9548	32.848155	0.000355	3.548123	1.202137	0.000142
 227	2.2487e+01	8.9981	32.985418	0.000345	3.446748	1.167790	0.000138
 228	2.2587e+01	9.0447	33.118643	0.000335	3.345373	1.133443	0.000134
 229	2.2686e+01	9.0703	33.276091	0.000395	3.953623	1.339524	0.000158
 230	2.2785e+01	9.1136	33.377020	0.000253	2.534374	0.858669	0.000101
 231	2.2885e+01	9.1634	33.530431	0.000385	3.852248	1.305177	0.000154
 232	2.2985e+01	9.2003	33.691916	0.000405	4.054998	1.373870	0.000162
 233	2.3084e+01	9.2516	33.804956	0.000284	2.838499	0.961709	0.000114
 234	2.3183e+01	9.2821	33.950293	0.000365	3.649498	1.236483	0.000146
 235	2.3283e+01	9.3206	34.071407	0.000304	3.041248	1.030403	0.000122
 236	2.3383e+01	9.3527	34.200595	0.000324	3.243998	1.099096	0.000130
 237	2.3482e+01	9.3992	34.366118	0.000416	4.156373	1.408217	0.000166
 238	2.3581e+01	9.4409	34.434749	0.000172	1.723374	0.583895	0.000069
 239	2.3681e+01	9.4762	34.572012	0.000345	3.446748	1.167790	0.000138
 240	2.3780e+01	9.5259	34.725423	0.000385	3.852248	1.305177	0.000154
 241	2.3880e+01	9.5548	34.846537	0.000304	3.041248	1.030403	0.000122
 242	2.3980e+01	9.5997	35.012060	0.000416	4.156373	1.408217	0.000166
 243	2.4079e+01	9.6366	35.092802	0.000203	2.027499	0.686935	0.000081
 244	2.4178e+01	9.6767	35.294659	0.000507	5.068747	1.717338	0.000203
 245	2.4278e+01	9.7136	35.379439	0.000213	2.128874	0.721282	0.000085
 246	2.4378e+01	9.7505	35.516702	0.000345	3.446748	1.167790	0.000138
 247	2.4477e+01	9.8019	35.666076	0.000375	3.750873	1.270830	0.000150
 248	2.4576e+01	9.8323	35.775078	0.000274	2.737124	0.927363	0.000110
 249	2.4676e+01	9.8741	35.936564	0.000405	4.054998	1.373870	0.000162
 250	2.4776e+01	9.9222	36.053641	0.000294	2.939874	0.996056	0.000118
 251	2.4875e+01	9.9591	36.194940	0.000355	3.548123	1.202137	0.000142
 252	2.4974e+01	9.9863	36.263572	0.000172	1.723374	0.583895	0.000069
 253	2.5074e+01	10.0313	36.437169	0.000436	4.359123	1.476911	0.000174
 254	2.5174e+01	10.0730	36.554246	0.000294	2.939874	0.996056	0.000118
 255	2.5273e+01	10.1227	36.711694	0.000395	3.953623	1.339524	0.000158
 256	2.5372e+01	10.1580	36.848956	0.000345	3.446748	1.167790	0.000138
 257	2.5472e+01	10.1917	36.986219	0.000345	3.446748	1.167790	0.000138
 258	2.5572e+01	10.2270	37.038702	0.000132	1.317874	0.446508	0.000053
 259	2.5671e+01	10.2719	37.252670	0.000537	5.372872	1.820378	0.000215
 260	2.5770e+01	10.3120	37.333413	0.000203	2.027499	0.686935	0.000081
 261	2.5870e+01	10.3553	37.450490	0.000294	2.939874	0.996056	0.000118
 262	2.5970e+01	10.3842	37.571604	0.000304	3.041248	1.030403	0.000122
 263	2.6069e+01	10.4355	37.757312	0.000466	4.663248	1.579951	0.000187
 264	2.6169e+01	10.4724	37.874389	0.000294	2.939874	0.996056	0.000118
 265	2.6268e+01	10.5190	37.991466	0.000294	2.939874	0.996056	0.000118
 266	2.6367e+01	10.5542	38.120654	0.000324	3.243998	1.099096	0.000130
 267	2.6467e+01	10.5911	38.217545	0.000243	2.432999	0.824322	0.000097
 268	2.6567e+01	10.6329	38.338660	0.000304	3.041248	1.030403	0.000122
 269	2.6666e+01	10.6649	38.500145	0.000405	4.054998	1.373870	0.000162
 270	2.6765e+01	10.7115	38.617222	0.000294	2.939874	0.996056	0.000118
 271	2.6865e+01	10.7564	38.770633	0.000385	3.852248	1.305177	0.000154
 272	2.6965e+01	10.7885	38.891747	0.000304	3.041248	1.030403	0.000122
 273	2.7064e+01	10.8254	39.049195	0.000395	3.953623	1.339524	0.000158
 274	2.7163e+01	10.8687	39.174347	0.000314	3.142623	1.064750	0.000126
 275	2.7263e+01	10.9136	39.279312	0.000264	2.635749	0.893016	0.000105
 276	2.7363e+01	10.9649	39.412538	0.000335	3.345373	1.133443	0.000134
 277	2.7462e+01	10.9858	39.513466	0.000253	2.534374	0.858669	0.000101
 278	2.7561e+01	11.0339	39.678989	0.000416	4.156373	1.408217	0.000166
 279	2.7661e+01	11.0644	39.739546	0.000152	1.520624	0.515201	0.000061
 280	2.7761e+01	11.1029	39.905068	0.000416	4.156373	1.408217	0.000166
 281	2.7860e+01	11.1478	40.014071	0.000274	2.737124	0.927363	0.000110
 282	2.7959e+01	11.1975	40.155371	0.000355	3.548123	1.202137	0.000142
 283	2.8059e+01	11.2360	40.284559	0.000324	3.243998	1.099096	0.000130
 284	2.8159e+01	11.2842	40.389524	0.000264	2.635749	0.893016	0.000105
 285	2.8258e+01	11.3147	40.510639	0.000304	3.041248	1.030403	0.000122
 286	2.8358e+01	11.3499	40.591381	0.000203	2.027499	0.686935	0.000081
 287	2.8457e+01	11.3949	40.744792	0.000385	3.852248	1.305177	0.000154
 288	2.8556e+01	11.4302	40.930501	0.000466	4.663248	1.579951	0.000187
 289	2.8656e+01	11.4622	41.047578	0.000294	2.939874	0.996056	0.000118
 290	2.8756e+01	11.5184	41.164655	0.000294	2.939874	0.996056	0.000118
 291	2.8855e+01	11.5537	41.261546	0.000243	2.432999	0.824322	0.000097
 292	2.8954e+01	11.5890	41.386697	0.000314	3.142623	1.064750	0.000126
 293	2.9054e+01	11.6275	41.532034	0.000365	3.649498	1.236483	0.000146
 294	2.9154e+01	11.6644	41.645074	0.000284	2.838499	0.961709	0.000114
 295	2.9253e+01	11.7125	41.778299	0.000335	3.345373	1.133443	0.000134
 296	2.9352e+01	11.7510	41.947859	0.000426	4.257748	1.442564	0.000170
 297	2.9452e+01	11.7847	42.020527	0.000182	1.824749	0.618242	0.000073
 298	2.9552e+01	11.8344	42.161827	0.000355	3.548123	1.202137	0.000142
 299	2.9651e+01	11.8649	42.286978	0.000314	3.142623	1.064750	0.000126
 300	2.9750e+01	11.9098	42.436352	0.000375	3.750873	1.270830	0.000150
 301	2.9850e+01	11.9563	42.517095	0.000203	2.027499	0.686935	0.000081
 302	2.9950e+01	11.9868	42.609949	0.000233	2.331624	0.789976	0.000093
 303	3.0049e+01	12.0317	42.747212	0.000345	3.446748	1.167790	0.000138
 304	3.0148e+01	12.0606	42.827954	0.000203	2.027499	0.686935	0.000081
 305	3.0248e+01	12.1136	42.985403	0.000395	3.953623	1.339524	0.000158
 306	3.0348e+01	12.1456	43.118628	0.000335	3.345373	1.133443	0.000134
 307	3.0447e+01	12.1890	43.247817	0.000324	3.243998	1.099096	0.000130
 308	3.0547e+01	12.2291	43.360856	0.000284	2.838499	0.961709	0.000114
 309	3.0646e+01	12.2660	43.498119	0.000345	3.446748	1.167790	0.000138
 310	3.0745e+01	12.3013	43.599047	0.000253	2.534374	0.858669	0.000101
 311	3.0845e+01	12.3446	43.732273	0.000335	3.345373	1.133443	0.000134
 312	3.0945e+01	12.3847	43.893758	0.000405	4.054998	1.373870	0.000162
 313	3.1044e+01	12.4216	44.018910	0.000314	3.142623	1.064750	0.000126
 314	3.1143e+01	12.4649	44.091578	0.000182	1.824749	0.618242	0.000073
 315	3.1243e+01	12.5050	44.204618	0.000284	2.838499	0.961709	0.000114
 316	3.1343e+01	12.5371	44.370140	0.000416	4.156373	1.408217	0.000166
 317	3.1442e+01	12.5804	44.462994	0.000233	2.331624	0.789976	0.000093
 318	3.1541e+01	12.6221	44.576034	0.000284	2.838499	0.961709	0.000114
 319	3.1641e+01	12.6590	44.693111	0.000294	2.939874	0.996056	0.000118
 320	3.1741e+01	12.7023	44.830374	0.000345	3.446748	1.167790	0.000138
 321	3.1840e+01	12.7424	44.975711	0.000365	3.649498	1.236483	0.000146
 322	3.1939e+01	12.7841	45.072602	0.000243	2.432999	0.824322	0.000097
 323	3.2039e+01	12.8242	45.189679	0.000294	2.939874	0.996056	0.000118
 324	3.2139e+01	12.8643	45.322904	0.000335	3.345373	1.133443	0.000134
 325	3.2238e+01	12.9012	45.464204	0.000355	3.548123	1.202137	0.000142
 326	3.2337e+01	12.9413	45.536873	0.000182	1.824749	0.618242	0.000073
 327	3.2437e+01	12.9879	45.645875	0.000274	2.737124	0.927363	0.000110
 328	3.2536e+01	13.0248	45.787175	0.000355	3.548123	1.202137	0.000142
 329	3.2636e+01	13.0552	45.884066	0.000243	2.432999	0.824322	0.000097
 330	3.2736e+01	13.0970	46.005180	0.000304	3.041248	1.030403	0.000122
 331	3.2835e+01	13.1355	46.118220	0.000284	2.838499	0.961709	0.000114
 332	3.2934e+01	13.1804	46.263557	0.000365	3.649498	1.236483	0.000146
 333	3.3034e+01	13.2141	46.348337	0.000213	2.128874	0.721282	0.000085
 334	3.3133e+01	13.2622	46.493674	0.000365	3.649498	1.236483	0.000146
 335	3.3233e+01	13.3023	46.618825	0.000314	3.142623	1.064750	0.000126
 336	3.3333e+01	13.3440	46.715716	0.000243	2.432999	0.824322	0.000097
 337	3.3432e+01	13.3777	46.808570	0.000233	2.331624	0.789976	0.000093
 338	3.3532e+01	13.4210	46.945833	0.000345	3.446748	1.167790	0.000138
 339	3.3631e+01	13.4627	47.087133	0.000355	3.548123	1.202137	0.000142
 340	3.3730e+01	13.4932	47.192098	0.000264	2.635749	0.893016	0.000105
 341	3.3830e+01	13.5429	47.337435	0.000365	3.649498	1.236483	0.000146
 342	3.3929e+01	13.5734	47.414141	0.000193	1.926124	0.652588	0.000077
 343	3.4029e+01	13.6264	47.595812	0.000456	4.561873	1.545604	0.000183
 344	3.4129e+01	13.6600	47.656369	0.000152	1.520624	0.515201	0.000061
 345	3.4228e+01	13.6953	47.769409	0.000284	2.838499	0.961709	0.000114
 346	3.4328e+01	13.7451	47.926857	0.000395	3.953623	1.339524	0.000158
 347	3.4427e+01	13.7820	48.064120	0.000345	3.446748	1.167790	0.000138
 348	3.4526e+01	13.8237	48.156974	0.000233	2.331624	0.789976	0.000093
 349	3.4626e+01	13.8606	48.261939	0.000264	2.635749	0.893016	0.000105
 350	3.4725e+01	13.8975	48.391128	0.000324	3.243998	1.099096	0.000130
 351	3.4825e+01	13.9424	48.504167	0.000284	2.838499	0.961709	0.000114
 352	3.4925e+01	13.9793	48.629319	0.000314	3.142623	1.064750	0.000126
 353	3.5024e+01	14.0210	48.734284	0.000264	2.635749	0.893016	0.000105
 354	3.5123e+01	14.0579	48.823101	0.000223	2.230249	0.755629	0.000089
 355	3.5223e+01	14.1012	48.899807	0.000193	1.926124	0.652588	0.000077
 356	3.5322e+01	14.1397	49.061292	0.000405	4.054998	1.373870	0.000162
 357	3.5422e+01	14.1830	49.190480	0.000324	3.243998	1.099096	0.000130
 358	3.5522e+01	14.2183	49.307557	0.000294	2.939874	0.996056	0.000118
 359	3.5621e+01	14.2472	49.408486	0.000253	2.534374	0.858669	0.000101
 360	3.5721e+01	14.3001	49.569971	0.000405	4.054998	1.373870	0.000162
 361	3.5820e+01	14.3402	49.642640	0.000182	1.824749	0.618242	0.000073
 362	3.5919e+01	14.3787	49.783939	0.000355	3.548123	1.202137	0.000142
 363	3.6019e+01	14.4188	49.868719	0.000213	2.128874	0.721282	0.000085
 364	3.6118e+01	14.4509	50.026167	0.000395	3.953623	1.339524	0.000158
 365	3.6218e+01	14.4975	50.143244	0.000294	2.939874	0.996056	0.000118
 366	3.6318e+01	14.5327	50.232061	0.000223	2.230249	0.755629	0.000089
 367	3.6417e+01	14.5761	50.349138	0.000294	2.939874	0.996056	0.000118
 368	3.6517e+01	14.6114	50.502550	0.000385	3.852248	1.305177	0.000154
 369	3.6616e+01	14.6515	50.591367	0.000223	2.230249	0.755629	0.000089
 370	3.6715e+01	14.6948	50.704406	0.000284	2.838499	0.961709	0.000114
 371	3.6815e+01	14.7301	50.764963	0.000152	1.520624	0.515201	0.000061
 372	3.6914e+01	14.7830	50.869929	0.000264	2.635749	0.893016	0.000105
 373	3.7014e+01	14.8087	50.987006	0.000294	2.939874	0.996056	0.000118
 374	3.7114e+01	14.8504	51.160603	0.000436	4.359123	1.476911	0.000174
 375	3.7213e+01	14.8937	51.257494	0.000243	2.432999	0.824322	0.000097
 376	3.7313e+01	14.9338	51.386682	0.000324	3.243998	1.099096	0.000130
 377	3.7412e+01	14.9803	51.532019	0.000365	3.649498	1.236483	0.000146
 378	3.7511e+01	15.0220	51.636985	0.000264	2.635749	0.893016	0.000105
 379	3.7611e+01	15.0557	51.733876	0.000243	2.432999	0.824322	0.000097
 380	3.7711e+01	15.0894	51.850953	0.000294	2.939874	0.996056	0.000118
 381	3.7810e+01	15.1215	51.963993	0.000284	2.838499	0.961709	0.000114
 382	3.7910e+01	15.1776	52.077032	0.000284	2.838499	0.961709	0.000114
 383	3.8009e+01	15.2129	52.194109	0.000294	2.939874	0.996056	0.000118
 384	3.8108e+01	15.2579	52.307149	0.000284	2.838499	0.961709	0.000114
 385	3.8208e+01	15.2915	52.420189	0.000284	2.838499	0.961709	0.000114
 386	3.8307e+01	15.3268	52.545340	0.000314	3.142623	1.064750	0.000126
 387	3.8407e+01	15.3750	52.634157	0.000223	2.230249	0.755629	0.000089
 388	3.8507e+01	15.4087	52.718937	0.000213	2.128874	0.721282	0.000085
 389	3.8606e+01	15.4568	52.783531	0.000162	1.621999	0.549548	0.000065
 390	3.8706e+01	15.4857	52.932905	0.000375	3.750873	1.270830	0.000150
 391	3.8805e+01	15.5290	53.066131	0.000335	3.345373	1.133443	0.000134
 392	3.8904e+01	15.5755	53.195319	0.000324	3.243998	1.099096	0.000130
 393	3.9004e+01	15.6188	53.292210	0.000243	2.432999	0.824322	0.000097
 394	3.9103e+01	15.6509	53.433510	0.000355	3.548123	1.202137	0.000142
 395	3.9203e+01	15.6862	53.510216	0.000193	1.926124	0.652588	0.000077
 396	3.9303e+01	15.7391	53.623255	0.000284	2.838499	0.961709	0.000114
 397	3.9402e+01	15.7760	53.732258	0.000274	2.737124	0.927363	0.000110
 398	3.9502e+01	15.8113	53.857409	0.000314	3.142623	1.064750	0.000126
 399	3.9601e+01	15.8482	53.986598	0.000324	3.243998	1.099096	0.000130
 400	3.9700e+01	15.8771	54.111749	0.000314	3.142623	1.064750	0.000126
 401	3.9800e+01	15.9220	54.204603	0.000233	2.331624	0.789976	0.000093
 402	3.9900e+01	15.9605	54.329754	0.000314	3.142623	1.064750	0.000126
 403	3.9999e+01	16.0070	54.434720	0.000264	2.635749	0.893016	0.000105
 404	4.0099e+01	16.0552	54.495277	0.000152	1.520624	0.515201	0.000061
 405	4.0198e+01	16.0905	54.648688	0.000385	3.852248	1.305177	0.000154
 406	4.0297e+01	16.1241	54.680985	0.000081	0.811000	0.274774	0.000032
 407	4.0397e+01	16.1675	54.773839	0.000233	2.331624	0.789976	0.000093
 408	4.0496e+01	16.2011	54.911102	0.000345	3.446748	1.167790	0.000138
 409	4.0596e+01	16.2509	55.024142	0.000284	2.838499	0.961709	0.000114
 410	4.0696e+01	16.2878	55.165441	0.000355	3.548123	1.202137	0.000142
 411	4.0795e+01	16.3295	55.266370	0.000253	2.534374	0.858669	0.000101
 412	4.0895e+01	16.3616	55.423818	0.000395	3.953623	1.339524	0.000158
 413	4.0994e+01	16.4113	55.492449	0.000172	1.723374	0.583895	0.000069
 414	4.1093e+01	16.4450	55.617600	0.000314	3.142623	1.064750	0.000126
 415	4.1193e+01	16.4883	55.722566	0.000264	2.635749	0.893016	0.000105
 416	4.1292e+01	16.5332	55.827532	0.000264	2.635749	0.893016	0.000105
 417	4.1392e+01	16.5605	55.956720	0.000324	3.243998	1.099096	0.000130
 418	4.1492e+01	16.6038	56.037463	0.000203	2.027499	0.686935	0.000081
 419	4.1591e+01	16.6423	56.170688	0.000335	3.345373	1.133443	0.000134
 420	4.1691e+01	16.6904	56.259505	0.000223	2.230249	0.755629	0.000089
 421	4.1790e+01	16.7305	56.352359	0.000233	2.331624	0.789976	0.000093
 422	4.1889e+01	16.7755	56.485585	0.000335	3.345373	1.133443	0.000134
 423	4.1989e+01	16.8156	56.534030	0.000122	1.216499	0.412161	0.000049
 424	4.2089e+01	16.8509	56.634959	0.000253	2.534374	0.858669	0.000101
 425	4.2188e+01	16.8797	56.752036	0.000294	2.939874	0.996056	0.000118
 426	4.2288e+01	16.9295	56.840853	0.000223	2.230249	0.755629	0.000089
 427	4.2387e+01	16.9696	56.966004	0.000314	3.142623	1.064750	0.000126
 428	4.2486e+01	17.0081	57.119415	0.000385	3.852248	1.305177	0.000154
 429	4.2586e+01	17.0434	57.252640	0.000335	3.345373	1.133443	0.000134
 430	4.2685e+01	17.0867	57.317235	0.000162	1.621999	0.549548	0.000065
 431	4.2785e+01	17.1268	57.454497	0.000345	3.446748	1.167790	0.000138
 432	4.2885e+01	17.1765	57.563500	0.000274	2.737124	0.927363	0.000110
 433	4.2984e+01	17.2038	57.632131	0.000172	1.723374	0.583895	0.000069
 434	4.3084e+01	17.2439	57.793617	0.000405	4.054998	1.373870	0.000162
 435	4.3183e+01	17.2904	57.890508	0.000243	2.432999	0.824322	0.000097
 436	4.3282e+01	17.3225	58.011622	0.000304	3.041248	1.030403	0.000122
 437	4.3382e+01	17.3578	58.100439	0.000223	2.230249	0.755629	0.000089
 438	4.3481e+01	17.4107	58.209442	0.000274	2.737124	0.927363	0.000110
 439	4.3581e+01	17.4460	58.282110	0.000182	1.824749	0.618242	0.000073
 440	4.3681e+01	17.4829	58.362853	0.000203	2.027499	0.686935	0.000081
 441	4.3780e+01	17.5278	58.471855	0.000274	2.737124	0.927363	0.000110
 442	4.3880e+01	17.5599	58.564710	0.000233	2.331624	0.789976	0.000093
 443	4.3979e+01	17.5984	58.645452	0.000203	2.027499	0.686935	0.000081
 444	4.4078e+01	17.6369	58.754455	0.000274	2.737124	0.927363	0.000110
 445	4.4178e+01	17.6899	58.883643	0.000324	3.243998	1.099096	0.000130
 446	4.4278e+01	17.7284	58.980535	0.000243	2.432999	0.824322	0.000097
 447	4.4377e+01	17.7685	59.105686	0.000314	3.142623	1.064750	0.000126
 448	4.4477e+01	17.8022	59.230837	0.000314	3.142623	1.064750	0.000126
 449	4.4576e+01	17.8455	59.307543	0.000193	1.926124	0.652588	0.000077
 450	4.4675e+01	17.8904	59.485177	0.000446	4.460498	1.511258	0.000179
 451	4.4775e+01	17.9193	59.573994	0.000223	2.230249	0.755629	0.000089
 452	4.4874e+01	17.9626	59.699145	0.000314	3.142623	1.064750	0.000126
 453	4.4974e+01	17.9995	59.775850	0.000193	1.926124	0.652588	0.000077
 454	4.5074e+01	18.0396	59.896964	0.000304	3.041248	1.030403	0.000122
 455	4.5173e+01	18.0957	59.977707	0.000203	2.027499	0.686935	0.000081
 456	4.5273e+01	18.1230	60.054413	0.000193	1.926124	0.652588	0.000077
 457	4.5372e+01	18.1615	60.131118	0.000193	1.926124	0.652588	0.000077
 458	4.5471e+01	18.2048	60.203787	0.000182	1.824749	0.618242	0.000073
 459	4.5571e+01	18.2417	60.332975	0.000324	3.243998	1.099096	0.000130
 460	4.5670e+01	18.2866	60.441978	0.000274	2.737124	0.927363	0.000110
 461	4.5770e+01	18.3171	60.567129	0.000314	3.142623	1.064750	0.000126
 462	4.5870e+01	18.3572	60.651909	0.000213	2.128874	0.721282	0.000085
 463	4.5969e+01	18.3973	60.777060	0.000314	3.142623	1.064750	0.000126
 464	4.6069e+01	18.4358	60.886063	0.000274	2.737124	0.927363	0.000110
 465	4.6168e+01	18.4808	61.015251	0.000324	3.243998	1.099096	0.000130
 466	4.6267e+01	18.5241	61.120217	0.000264	2.635749	0.893016	0.000105
 467	4.6367e+01	18.5530	61.221145	0.000253	2.534374	0.858669	0.000101
 468	4.6467e+01	18.5995	61.326110	0.000264	2.635749	0.893016	0.000105
 469	4.6566e+01	18.6476	61.447225	0.000304	3.041248	1.030403	0.000122
 470	4.6666e+01	18.6797	61.532004	0.000213	2.128874	0.721282	0.000085
 471	4.6765e+01	18.7166	61.636970	0.000264	2.635749	0.893016	0.000105
 472	4.6864e+01	18.7647	61.741935	0.000264	2.635749	0.893016	0.000105
 473	4.6964e+01	18.8032	61.798455	0.000142	1.419249	0.480855	0.000057
 474	4.7063e+01	18.8433	61.879198	0.000203	2.027499	0.686935	0.000081
 475	4.7163e+01	18.8786	61.988201	0.000274	2.737124	0.927363	0.000110
 476	4.7263e+01	18.9251	62.093166	0.000264	2.635749	0.893016	0.000105
 477	4.7362e+01	18.9620	62.177946	0.000213	2.128874	0.721282	0.000085
 478	4.7462e+01	18.9989	62.311172	0.000335	3.345373	1.133443	0.000134
 479	4.7561e+01	19.0390	62.404026	0.000233	2.331624	0.789976	0.000093
 480	4.7660e+01	19.0807	62.476694	0.000182	1.824749	0.618242	0.000073
 481	4.7760e+01	19.1225	62.622031	0.000365	3.649498	1.236483	0.000146
 482	4.7859e+01	19.1594	62.763331	0.000355	3.548123	1.202137	0.000142
 483	4.7959e+01	19.1995	62.852148	0.000223	2.230249	0.755629	0.000089
 484	4.8059e+01	19.2428	62.949039	0.000243	2.432999	0.824322	0.000097
 485	4.8158e+01	19.2716	63.066116	0.000294	2.939874	0.996056	0.000118
 486	4.8258e+01	19.3182	63.154933	0.000223	2.230249	0.755629	0.000089
 487	4.8357e+01	19.3503	63.276047	0.000304	3.041248	1.030403	0.000122
 488	4.8456e+01	19.4000	63.332567	0.000142	1.419249	0.480855	0.000057
 489	4.8556e+01	19.4353	63.449644	0.000294	2.939874	0.996056	0.000118
 490	4.8656e+01	19.4786	63.510201	0.000152	1.520624	0.515201	0.000061
 491	4.8755e+01	19.5187	63.611129	0.000253	2.534374	0.858669	0.000101
 492	4.8855e+01	19.5652	63.699946	0.000223	2.230249	0.755629	0.000089
 493	4.8954e+01	19.6005	63.788763	0.000223	2.230249	0.755629	0.000089
 494	4.9053e+01	19.6294	63.885654	0.000243	2.432999	0.824322	0.000097
 495	4.9153e+01	19.6775	64.010806	0.000314	3.142623	1.064750	0.000126
 496	4.9252e+01	19.7144	64.095586	0.000213	2.128874	0.721282	0.000085
 497	4.9352e+01	19.7529	64.240922	0.000365	3.649498	1.236483	0.000146
 498	4.9452e+01	19.7882	64.345888	0.000264	2.635749	0.893016	0.000105
 499	4.9551e+01	19.8395	64.450853	0.000264	2.635749	0.893016	0.000105
 500	4.9651e+01	19.8764	64.543708	0.000233	2.331624	0.789976	0.000093
 501	4.9750e+01	19.9182	64.648673	0.000264	2.635749	0.893016	0.000105
 502	4.9849e+01	19.9438	64.769787	0.000304	3.041248	1.030403	0.000122
 503	4.9949e+01	19.9919	64.862641	0.000233	2.331624	0.789976	0.000093
 504	5.0048e+01	19.9502	64.781899	0.000203	2.027499	0.686935	-0.000081
 505	5.0148e+01	19.9182	64.741527	0.000101	1.013749	0.343468	-0.000041
 506	5.0248e+01	19.8797	64.588116	0.000385	3.852248	1.305177	-0.000154
 507	5.0347e+01	19.8412	64.495262	0.000233	2.331624	0.789976	-0.000093
 508	5.0447e+01	19.8026	64.418556	0.000193	1.926124	0.652588	-0.000077
 509	5.0546e+01	19.7561	64.297442	0.000304	3.041248	1.030403	-0.000122
 510	5.0645e+01	19.7176	64.244960	0.000132	1.317874	0.446508	-0.000053
 511	5.0745e+01	19.6679	64.156143	0.000223	2.230249	0.755629	-0.000089
 512	5.0844e+01	19.6358	64.083474	0.000182	1.824749	0.618242	-0.000073
 513	5.0944e+01	19.5957	64.022917	0.000152	1.520624	0.515201	-0.000061
 514	5.1044e+01	19.5540	63.930063	0.000233	2.331624	0.789976	-0.000093
 515	5.1143e+01	19.5171	63.881617	0.000122	1.216499	0.412161	-0.000049
 516	5.1242e+01	19.4722	63.812986	0.000172	1.723374	0.583895	-0.000069
 517	5.1342e+01	19.4369	63.760503	0.000132	1.317874	0.446508	-0.000053
 518	5.1441e+01	19.3952	63.663612	0.000243	2.432999	0.824322	-0.000097
 519	5.1541e+01	19.3535	63.590944	0.000182	1.824749	0.618242	-0.000073
 520	5.1641e+01	19.3198	63.457718	0.000335	3.345373	1.133443	-0.000134
 521	5.1740e+01	19.2733	63.417347	0.000101	1.013749	0.343468	-0.000041
 522	5.1840e+01	19.2412	63.340641	0.000193	1.926124	0.652588	-0.000077
 523	5.1939e+01	19.1995	63.227601	0.000284	2.838499	0.961709	-0.000114
 524	5.2038e+01	19.1610	63.106487	0.000304	3.041248	1.030403	-0.000122
 525	5.2138e+01	19.1225	63.013633	0.000233	2.331624	0.789976	-0.000093
 526	5.2237e+01	19.0743	62.953076	0.000152	1.520624	0.515201	-0.000061
 527	5.2337e+01	19.0438	62.852148	0.000253	2.534374	0.858669	-0.000101
 528	5.2437e+01	18.9973	62.779479	0.000182	1.824749	0.618242	-0.000073
 529	5.2536e+01	18.9572	62.686625	0.000233	2.331624	0.789976	-0.000093
 530	5.2636e+01	18.9219	62.601845	0.000213	2.128874	0.721282	-0.000085
 531	5.2735e+01	18.8818	62.529177	0.000182	1.824749	0.618242	-0.000073
 532	5.2834e+01	18.8401	62.500917	0.000071	0.709625	0.240427	-0.000028
 533	5.2934e+01	18.7920	62.399989	0.000253	2.534374	0.858669	-0.000101
 534	5.3033e+01	18.7583	62.295023	0.000264	2.635749	0.893016	-0.000105
 535	5.3133e+01	18.7198	62.222355	0.000182	1.824749	0.618242	-0.000073
 536	5.3233e+01	18.6861	62.169872	0.000132	1.317874	0.446508	-0.000053
 537	5.3332e+01	18.6332	62.024535	0.000365	3.649498	1.236483	-0.000146
 538	5.3431e+01	18.6107	61.972052	0.000132	1.317874	0.446508	-0.000053
 539	5.3531e+01	18.5610	61.895347	0.000193	1.926124	0.652588	-0.000077
 540	5.3630e+01	18.5193	61.798455	0.000243	2.432999	0.824322	-0.000097
 541	5.3730e+01	18.4727	61.685416	0.000284	2.838499	0.961709	-0.000114
 542	5.3830e+01	18.4391	61.560264	0.000314	3.142623	1.064750	-0.000126
 543	5.3929e+01	18.3989	61.467410	0.000233	2.331624	0.789976	-0.000093
 544	5.4029e+01	18.3572	61.358408	0.000274	2.737124	0.927363	-0.000110
 545	5.4128e+01	18.3268	61.257479	0.000253	2.534374	0.858669	-0.000101
 546	5.4227e+01	18.2866	61.209033	0.000122	1.216499	0.412161	-0.000049
 547	5.4327e+01	18.2433	61.120217	0.000223	2.230249	0.755629	-0.000089
 548	5.4426e+01	18.2000	61.019288	0.000253	2.534374	0.858669	-0.000101
 549	5.4526e+01	18.1599	60.999102	0.000051	0.506875	0.171734	-0.000020
 550	5.4626e+01	18.1246	60.898174	0.000253	2.534374	0.858669	-0.000101
 551	5.4725e+01	18.0829	60.793209	0.000264	2.635749	0.893016	-0.000105
 552	5.4825e+01	18.0412	60.700354	0.000233	2.331624	0.789976	-0.000093
 553	5.4924e+01	17.9979	60.635760	0.000162	1.621999	0.549548	-0.000065
 554	5.5023e+01	17.9594	60.555018	0.000203	2.027499	0.686935	-0.000081
 555	5.5123e+01	17.9177	60.437941	0.000294	2.939874	0.996056	-0.000118
 556	5.5222e+01	17.8792	60.377384	0.000152	1.520624	0.515201	-0.000061
 557	5.5322e+01	17.8407	60.296641	0.000203	2.027499	0.686935	-0.000081
 558	5.5422e+01	17.8118	60.147267	0.000375	3.750873	1.270830	-0.000150
 559	5.5521e+01	17.7524	60.030190	0.000294	2.939874	0.996056	-0.000118
 560	5.5620e+01	17.7204	59.933299	0.000243	2.432999	0.824322	-0.000097
 561	5.5720e+01	17.6851	59.848519	0.000213	2.128874	0.721282	-0.000085
 562	5.5819e+01	17.6450	59.751627	0.000243	2.432999	0.824322	-0.000097
 563	5.5919e+01	17.6000	59.658773	0.000233	2.331624	0.789976	-0.000093
 564	5.6019e+01	17.5631	59.622439	0.000091	0.912375	0.309121	-0.000037
 565	5.6118e+01	17.5327	59.460954	0.000405	4.054998	1.373870	-0.000162
 566	5.6218e+01	17.4877	59.440768	0.000051	0.506875	0.171734	-0.000020
 567	5.6317e+01	17.4396	59.351951	0.000223	2.230249	0.755629	-0.000089
 568	5.6416e+01	17.4075	59.267171	0.000213	2.128874	0.721282	-0.000085
 569	5.6516e+01	17.3658	59.158169	0.000274	2.737124	0.927363	-0.000110
 570	5.6615e+01	17.3225	59.093574	0.000162	1.621999	0.549548	-0.000065
 571	5.6715e+01	17.2856	58.980535	0.000284	2.838499	0.961709	-0.000114
 572	5.6815e+01	17.2471	58.919978	0.000152	1.520624	0.515201	-0.000061
 573	5.6914e+01	17.2102	58.806938	0.000284	2.838499	0.961709	-0.000114
 574	5.7014e+01	17.1653	58.697935	0.000274	2.737124	0.927363	-0.000110
 575	5.7113e+01	17.1284	58.597007	0.000253	2.534374	0.858669	-0.000101
 576	5.7212e+01	17.0931	58.508190	0.000223	2.230249	0.755629	-0.000089
 577	5.7312e+01	17.0418	58.366890	0.000355	3.548123	1.202137	-0.000142
 578	5.7411e+01	16.9936	58.269999	0.000243	2.432999	0.824322	-0.000097
 579	5.7511e+01	16.9760	58.169070	0.000253	2.534374	0.858669	-0.000101
 580	5.7611e+01	16.9231	58.080253	0.000223	2.230249	0.755629	-0.000089
 581	5.7710e+01	16.8846	58.007585	0.000182	1.824749	0.618242	-0.000073
 582	5.7809e+01	16.8428	57.942991	0.000162	1.621999	0.549548	-0.000065
 583	5.7909e+01	16.8124	57.858211	0.000213	2.128874	0.721282	-0.000085
 584	5.8008e+01	16.7642	57.737097	0.000304	3.041248	1.030403	-0.000122
 585	5.8108e+01	16.7273	57.660391	0.000193	1.926124	0.652588	-0.000077
 586	5.8208e+01	16.6824	57.567537	0.000233	2.331624	0.789976	-0.000093
 587	5.8307e+01	16.6503	57.462572	0.000264	2.635749	0.893016	-0.000105
 588	5.8407e+01	16.6102	57.389903	0.000182	1.824749	0.618242	-0.000073
 589	5.8506e+01	16.5669	57.284938	0.000264	2.635749	0.893016	-0.000105
 590	5.8605e+01	16.5332	57.216306	0.000172	1.723374	0.583895	-0.000069
 591	5.8705e+01	16.4915	57.131526	0.000213	2.128874	0.721282	-0.000085
 592	5.8804e+01	16.4418	57.022524	0.000274	2.737124	0.927363	-0.000110
 593	5.8904e+01	16.4145	56.897373	0.000314	3.142623	1.064750	-0.000126
 594	5.9004e+01	16.3664	56.804518	0.000233	2.331624	0.789976	-0.000093
 595	5.9103e+01	16.3311	56.626884	0.000446	4.460498	1.511258	-0.000179
 596	5.9203e+01	16.2846	56.558253	0.000172	1.723374	0.583895	-0.000069
 597	5.9302e+01	16.2461	56.453288	0.000264	2.635749	0.893016	-0.000105
 598	5.9401e+01	16.1995	56.376582	0.000193	1.926124	0.652588	-0.000077
 599	5.9501e+01	16.1675	56.247394	0.000324	3.243998	1.099096	-0.000130
 600	5.9600e+01	16.1354	56.194911	0.000132	1.317874	0.446508	-0.000053
 601	5.9700e+01	16.0872	56.130317	0.000162	1.621999	0.549548	-0.000065
 602	5.9800e+01	16.0487	56.073797	0.000142	1.419249	0.480855	-0.000057
 603	5.9899e+01	16.0086	55.964794	0.000274	2.737124	0.927363	-0.000110
 604	5.9998e+01	15.9685	55.847717	0.000294	2.939874	0.996056	-0.000118
 605	6.0098e+01	15.9300	55.787160	0.000152	1.520624	0.515201	-0.000061
 606	6.0197e+01	15.8851	55.682195	0.000264	2.635749	0.893016	-0.000105
 607	6.0297e+01	15.8482	55.569155	0.000284	2.838499	0.961709	-0.000114
 608	6.0397e+01	15.8177	55.488412	0.000203	2.027499	0.686935	-0.000081
 609	6.0496e+01	15.7824	55.351150	0.000345	3.446748	1.167790	-0.000138
 610	6.0596e+01	15.7407	55.290593	0.000152	1.520624	0.515201	-0.000061
 611	6.0695e+01	15.6894	55.165441	0.000314	3.142623	1.064750	-0.000126
 612	6.0794e+01	15.6621	54.995882	0.000426	4.257748	1.442564	-0.000170
 613	6.0894e+01	15.6124	54.886879	0.000274	2.737124	0.927363	-0.000110
 614	6.0993e+01	15.5691	54.794025	0.000233	2.331624	0.789976	-0.000093
 615	6.1093e+01	15.5290	54.689059	0.000264	2.635749	0.893016	-0.000105
 616	6.1193e+01	15.4969	54.616391	0.000182	1.824749	0.618242	-0.000073
 617	6.1292e+01	15.4504	54.535648	0.000203	2.027499	0.686935	-0.000081
 618	6.1392e+01	15.4103	54.450868	0.000213	2.128874	0.721282	-0.000085
 619	6.1491e+01	15.3686	54.378200	0.000182	1.824749	0.618242	-0.000073
 620	6.1590e+01	15.3333	54.240937	0.000345	3.446748	1.167790	-0.000138
 621	6.1690e+01	15.2883	54.152120	0.000223	2.230249	0.755629	-0.000089
 622	6.1789e+01	15.2498	54.035043	0.000294	2.939874	0.996056	-0.000118
 623	6.1889e+01	15.2113	53.958338	0.000193	1.926124	0.652588	-0.000077
 624	6.1989e+01	15.1760	53.857409	0.000253	2.534374	0.858669	-0.000101
 625	6.2088e+01	15.1247	53.740332	0.000294	2.939874	0.996056	-0.000118
 626	6.2188e+01	15.0814	53.655553	0.000213	2.128874	0.721282	-0.000085
 627	6.2287e+01	15.0493	53.574810	0.000203	2.027499	0.686935	-0.000081
 628	6.2386e+01	15.0172	53.457733	0.000294	2.939874	0.996056	-0.000118
 629	6.2486e+01	14.9659	53.344693	0.000284	2.838499	0.961709	-0.000114
 630	6.2586e+01	14.9338	53.235690	0.000274	2.737124	0.927363	-0.000110
 631	6.2685e+01	14.8873	53.102465	0.000335	3.345373	1.133443	-0.000134
 632	6.2785e+01	14.8520	53.017685	0.000213	2.128874	0.721282	-0.000085
 633	6.2884e+01	14.8231	52.932905	0.000213	2.128874	0.721282	-0.000085
 634	6.2983e+01	14.7766	52.844088	0.000223	2.230249	0.755629	-0.000089
 635	6.3083e+01	14.7285	52.735086	0.000274	2.737124	0.927363	-0.000110
 636	6.3182e+01	14.6948	52.609934	0.000314	3.142623	1.064750	-0.000126
 637	6.3282e+01	14.6579	52.533229	0.000193	1.926124	0.652588	-0.000077
 638	6.3382e+01	14.6210	52.428263	0.000264	2.635749	0.893016	-0.000105
 639	6.3481e+01	14.5777	52.315223	0.000284	2.838499	0.961709	-0.000114
 640	6.3581e+01	14.5343	52.214295	0.000253	2.534374	0.858669	-0.000101
 641	6.3680e+01	14.4926	52.137589	0.000193	1.926124	0.652588	-0.000077
 642	6.3779e+01	14.4541	52.036661	0.000253	2.534374	0.858669	-0.000101
 643	6.3879e+01	14.4221	51.915547	0.000304	3.041248	1.030403	-0.000122
 644	6.3978e+01	14.3739	51.794433	0.000304	3.041248	1.030403	-0.000122
 645	6.4078e+01	14.3450	51.733876	0.000152	1.520624	0.515201	-0.000061
 646	6.4177e+01	14.2937	51.608725	0.000314	3.142623	1.064750	-0.000126
 647	6.4277e+01	14.2632	51.552205	0.000142	1.419249	0.480855	-0.000057
 648	6.4376e+01	14.2199	51.427054	0.000314	3.142623	1.064750	-0.000126
 649	6.4476e+01	14.1894	51.309977	0.000294	2.939874	0.996056	-0.000118
 650	6.4576e+01	14.1285	51.192900	0.000294	2.939874	0.996056	-0.000118
 651	6.4675e+01	14.0916	51.083897	0.000274	2.737124	0.927363	-0.000110
 652	6.4775e+01	14.0515	50.987006	0.000243	2.432999	0.824322	-0.000097
 653	6.4874e+01	14.0194	50.886077	0.000253	2.534374	0.858669	-0.000101
 654	6.4974e+01	13.9761	50.789186	0.000243	2.432999	0.824322	-0.000097
 655	6.5073e+01	13.9376	50.643849	0.000365	3.649498	1.236483	-0.000146
 656	6.5172e+01	13.8991	50.559069	0.000213	2.128874	0.721282	-0.000085
 657	6.5272e+01	13.8526	50.482364	0.000193	1.926124	0.652588	-0.000077
 658	6.5371e+01	13.8108	50.345101	0.000345	3.446748	1.167790	-0.000138
 659	6.5471e+01	13.7755	50.264359	0.000203	2.027499	0.686935	-0.000081
 660	6.5570e+01	13.7306	50.123059	0.000355	3.548123	1.202137	-0.000142
 661	6.5670e+01	13.6985	50.046353	0.000193	1.926124	0.652588	-0.000077
 662	6.5769e+01	13.6600	49.945425	0.000253	2.534374	0.858669	-0.000101
 663	6.5869e+01	13.6231	49.816236	0.000324	3.243998	1.099096	-0.000130
 664	6.5969e+01	13.5734	49.735494	0.000203	2.027499	0.686935	-0.000081
 665	6.6068e+01	13.5445	49.658788	0.000193	1.926124	0.652588	-0.000077
 666	6.6168e+01	13.5060	49.521526	0.000345	3.446748	1.167790	-0.000138
 667	6.6267e+01	13.4643	49.376189	0.000365	3.649498	1.236483	-0.000146
 668	6.6367e+01	13.4274	49.291409	0.000213	2.128874	0.721282	-0.000085
 669	6.6466e+01	13.3873	49.182406	0.000274	2.737124	0.927363	-0.000110
 670	6.6566e+01	13.3392	49.097626	0.000213	2.128874	0.721282	-0.000085
 671	6.6665e+01	13.2927	48.940178	0.000395	3.953623	1.339524	-0.000158
 672	6.6764e+01	13.2558	48.879621	0.000152	1.520624	0.515201	-0.000061
 673	6.6864e+01	13.2173	48.766581	0.000284	2.838499	0.961709	-0.000114
 674	6.6963e+01	13.1756	48.665653	0.000253	2.534374	0.858669	-0.000101
 675	6.7063e+01	13.1371	48.536464	0.000324	3.243998	1.099096	-0.000130
 676	6.7162e+01	13.1066	48.419387	0.000294	2.939874	0.996056	-0.000118
 677	6.7262e+01	13.0536	48.318459	0.000253	2.534374	0.858669	-0.000101
 678	6.7362e+01	13.0248	48.197345	0.000304	3.041248	1.030403	-0.000122
 679	6.7461e+01	12.9815	48.108528	0.000223	2.230249	0.755629	-0.000089
 680	6.7561e+01	12.9430	48.047971	0.000152	1.520624	0.515201	-0.000061
 681	6.7660e+01	12.9109	47.951080	0.000243	2.432999	0.824322	-0.000097
 682	6.7760e+01	12.8692	47.870337	0.000203	2.027499	0.686935	-0.000081
 683	6.7859e+01	12.8210	47.753260	0.000294	2.939874	0.996056	-0.000118
 684	6.7959e+01	12.7889	47.636183	0.000294	2.939874	0.996056	-0.000118
 685	6.8058e+01	12.7488	47.474698	0.000405	4.054998	1.373870	-0.000162
 686	6.8157e+01	12.7055	47.361658	0.000284	2.838499	0.961709	-0.000114
 687	6.8257e+01	12.6702	47.236507	0.000314	3.142623	1.064750	-0.000126
 688	6.8356e+01	12.6269	47.099244	0.000345	3.446748	1.167790	-0.000138
 689	6.8456e+01	12.5884	47.022539	0.000193	1.926124	0.652588	-0.000077
 690	6.8555e+01	12.5563	46.925647	0.000243	2.432999	0.824322	-0.000097
 691	6.8655e+01	12.4986	46.824719	0.000253	2.534374	0.858669	-0.000101
 692	6.8754e+01	12.4713	46.711679	0.000284	2.838499	0.961709	-0.000114
 693	6.8854e+01	12.4184	46.634973	0.000193	1.926124	0.652588	-0.000077
 694	6.8954e+01	12.3895	46.517897	0.000294	2.939874	0.996056	-0.000118
 695	6.9053e+01	12.3430	46.392745	0.000314	3.142623	1.064750	-0.000126
 696	6.9153e+01	12.2980	46.263557	0.000324	3.243998	1.099096	-0.000130
 697	6.9252e+01	12.2628	46.190889	0.000182	1.824749	0.618242	-0.000073
 698	6.9352e+01	12.2291	46.061700	0.000324	3.243998	1.099096	-0.000130
 699	6.9451e+01	12.1793	45.980957	0.000203	2.027499	0.686935	-0.000081
 700	6.9550e+01	12.1424	45.875992	0.000264	2.635749	0.893016	-0.000105
 701	6.9650e+01	12.1023	45.754878	0.000304	3.041248	1.030403	-0.000122
 702	6.9749e+01	12.0606	45.629727	0.000314	3.142623	1.064750	-0.000126
 703	6.9849e+01	12.0269	45.500538	0.000324	3.243998	1.099096	-0.000130
 704	6.9948e+01	11.9900	45.391536	0.000274	2.737124	0.927363	-0.000110
 705	7.0048e+01	11.9451	45.238125	0.000385	3.852248	1.305177	-0.000154
 706	7.0147e+01	11.9050	45.141233	0.000243	2.432999	0.824322	-0.000097
 707	7.0247e+01	11.8713	45.068565	0.000182	1.824749	0.618242	-0.000073
 708	7.0347e+01	11.8296	44.931302	0.000345	3.446748	1.167790	-0.000138
 709	7.0446e+01	11.7943	44.798077	0.000335	3.345373	1.133443	-0.000134
 710	7.0546e+01	11.7542	44.668888	0.000324	3.243998	1.099096	-0.000130
 711	7.0645e+01	11.7061	44.559886	0.000274	2.737124	0.927363	-0.000110
 712	7.0745e+01	11.6580	44.471069	0.000223	2.230249	0.755629	-0.000089
 713	7.0844e+01	11.6307	44.390326	0.000203	2.027499	0.686935	-0.000081
 714	7.0944e+01	11.5938	44.277286	0.000284	2.838499	0.961709	-0.000114
 715	7.1043e+01	11.5409	44.188469	0.000223	2.230249	0.755629	-0.000089
 716	7.1142e+01	11.5040	44.055244	0.000335	3.345373	1.133443	-0.000134
 717	7.1242e+01	11.4687	43.946241	0.000274	2.737124	0.927363	-0.000110
 718	7.1341e+01	11.4270	43.861461	0.000213	2.128874	0.721282	-0.000085
 719	7.1441e+01	11.3965	43.756496	0.000264	2.635749	0.893016	-0.000105
 720	7.1540e+01	11.3580	43.607122	0.000375	3.750873	1.270830	-0.000150
 721	7.1640e+01	11.3066	43.441599	0.000416	4.156373	1.408217	-0.000166
 722	7.1740e+01	11.2745	43.332596	0.000274	2.737124	0.927363	-0.000110
 723	7.1839e+01	11.2232	43.219557	0.000284	2.838499	0.961709	-0.000114
 724	7.1939e+01	11.1863	43.114591	0.000264	2.635749	0.893016	-0.000105
 725	7.2038e+01	11.1510	42.989440	0.000314	3.142623	1.064750	-0.000126
 726	7.2138e+01	11.1061	42.904660	0.000213	2.128874	0.721282	-0.000085
 727	7.2237e+01	11.0708	42.767397	0.000345	3.446748	1.167790	-0.000138
 728	7.2337e+01	11.0387	42.646283	0.000304	3.041248	1.030403	-0.000122
 729	7.2436e+01	10.9890	42.537281	0.000274	2.737124	0.927363	-0.000110
 730	7.2535e+01	10.9489	42.424241	0.000284	2.838499	0.961709	-0.000114
 731	7.2635e+01	10.9088	42.307164	0.000294	2.939874	0.996056	-0.000118
 732	7.2734e+01	10.8703	42.206236	0.000253	2.534374	0.858669	-0.000101
 733	7.2834e+01	10.8286	42.117419	0.000223	2.230249	0.755629	-0.000089
 734	7.2933e+01	10.7965	41.980156	0.000345	3.446748	1.167790	-0.000138
 735	7.3033e+01	10.7419	41.895376	0.000213	2.128874	0.721282	-0.000085
 736	7.3132e+01	10.7018	41.754076	0.000355	3.548123	1.202137	-0.000142
 737	7.3232e+01	10.6746	41.677371	0.000193	1.926124	0.652588	-0.000077
 738	7.3332e+01	10.6280	41.499737	0.000446	4.460498	1.511258	-0.000179
 739	7.3431e+01	10.5911	41.362474	0.000345	3.446748	1.167790	-0.000138
 740	7.3531e+01	10.5559	41.241360	0.000304	3.041248	1.030403	-0.000122
 741	7.3630e+01	10.5174	41.112172	0.000324	3.243998	1.099096	-0.000130
 742	7.3730e+01	10.4788	40.999132	0.000284	2.838499	0.961709	-0.000114
 743	7.3829e+01	10.4307	40.878018	0.000304	3.041248	1.030403	-0.000122
 744	7.3928e+01	10.3874	40.756904	0.000304	3.041248	1.030403	-0.000122
 745	7.4028e+01	10.3489	40.692310	0.000162	1.621999	0.549548	-0.000065
 746	7.4127e+01	10.3104	40.567158	0.000314	3.142623	1.064750	-0.000126
 747	7.4227e+01	10.2815	40.490453	0.000193	1.926124	0.652588	-0.000077
 748	7.4326e+01	10.2270	40.300708	0.000476	4.764623	1.614298	-0.000191
 749	7.4426e+01	10.1949	40.211891	0.000223	2.230249	0.755629	-0.000089
 750	7.4525e+01	10.1548	40.147296	0.000162	1.621999	0.549548	-0.000065
 751	7.4625e+01	10.1131	39.993885	0.000385	3.852248	1.305177	-0.000154
 752	7.4725e+01	10.0682	39.852585	0.000355	3.548123	1.202137	-0.000142
 753	7.4824e+01	10.0329	39.787991	0.000162	1.621999	0.549548	-0.000065
 754	7.4924e+01	9.9960	39.594209	0.000487	4.865998	1.648645	-0.000195
 755	7.5023e+01	9.9655	39.493280	0.000253	2.534374	0.858669	-0.000101
 756	7.5123e+01	9.9206	39.376203	0.000294	2.939874	0.996056	-0.000118
 757	7.5222e+01	9.8773	39.214718	0.000405	4.054998	1.373870	-0.000162
 758	7.5322e+01	9.8436	39.097641	0.000294	2.939874	0.996056	-0.000118
 759	7.5421e+01	9.7970	38.968453	0.000324	3.243998	1.099096	-0.000130
 760	7.5520e+01	9.7569	38.887710	0.000203	2.027499	0.686935	-0.000081
 761	7.5620e+01	9.7168	38.722187	0.000416	4.156373	1.408217	-0.000166
 762	7.5719e+01	9.6671	38.629333	0.000233	2.331624	0.789976	-0.000093
 763	7.5819e+01	9.6302	38.508219	0.000304	3.041248	1.030403	-0.000122
 764	7.5918e+01	9.5997	38.411328	0.000243	2.432999	0.824322	-0.000097
 765	7.6018e+01	9.5612	38.322511	0.000223	2.230249	0.755629	-0.000089
 766	7.6118e+01	9.5211	38.156988	0.000416	4.156373	1.408217	-0.000166
 767	7.6217e+01	9.4746	38.043949	0.000284	2.838499	0.961709	-0.000114
 768	7.6317e+01	9.4265	37.951095	0.000233	2.331624	0.789976	-0.000093
 769	7.6416e+01	9.4024	37.785572	0.000416	4.156373	1.408217	-0.000166
 770	7.6516e+01	9.3639	37.696755	0.000223	2.230249	0.755629	-0.000089
 771	7.6615e+01	9.3110	37.575641	0.000304	3.041248	1.030403	-0.000122
 772	7.6715e+01	9.2725	37.446453	0.000324	3.243998	1.099096	-0.000130
 773	7.6814e+01	9.2452	37.329376	0.000294	2.939874	0.996056	-0.000118
 774	7.6913e+01	9.2019	37.180002	0.000375	3.750873	1.270830	-0.000150
 775	7.7013e+01	9.1570	37.038702	0.000355	3.548123	1.202137	-0.000142
 776	7.7112e+01	9.1088	36.897402	0.000355	3.548123	1.202137	-0.000142
 777	7.7212e+01	9.0767	36.752065	0.000365	3.649498	1.236483	-0.000146
 778	7.7311e+01	9.0399	36.630951	0.000304	3.041248	1.030403	-0.000122
 779	7.7411e+01	8.9981	36.509837	0.000304	3.041248	1.030403	-0.000122
 780	7.7510e+01	8.9564	36.437169	0.000182	1.824749	0.618242	-0.000073
 781	7.7610e+01	8.9131	36.316055	0.000304	3.041248	1.030403	-0.000122
 782	7.7710e+01	8.8858	36.190903	0.000314	3.142623	1.064750	-0.000126
 783	7.7809e+01	8.8393	36.081901	0.000274	2.737124	0.927363	-0.000110
 784	7.7909e+01	8.7976	35.952712	0.000324	3.243998	1.099096	-0.000130
 785	7.8008e+01	8.7639	35.815450	0.000345	3.446748	1.167790	-0.000138
 786	7.8108e+01	8.7222	35.694336	0.000304	3.041248	1.030403	-0.000122
 787	7.8207e+01	8.6757	35.561110	0.000335	3.345373	1.133443	-0.000134
 788	7.8306e+01	8.6404	35.456145	0.000264	2.635749	0.893016	-0.000105
 789	7.8406e+01	8.6035	35.322919	0.000335	3.345373	1.133443	-0.000134
 790	7.8505e+01	8.5682	35.189694	0.000335	3.345373	1.133443	-0.000134
 791	7.8605e+01	8.5185	35.060505	0.000324	3.243998	1.099096	-0.000130
 792	7.8704e+01	8.4768	34.923243	0.000345	3.446748	1.167790	-0.000138
 793	7.8804e+01	8.4447	34.794054	0.000324	3.243998	1.099096	-0.000130
 794	7.8903e+01	8.4030	34.644680	0.000375	3.750873	1.270830	-0.000150
 795	7.9003e+01	8.3581	34.487232	0.000395	3.953623	1.339524	-0.000158
 796	7.9103e+01	8.3196	34.398415	0.000223	2.230249	0.755629	-0.000089
 797	7.9202e+01	8.2762	34.240967	0.000395	3.953623	1.339524	-0.000158
 798	7.9302e+01	8.2329	34.168298	0.000182	1.824749	0.618242	-0.000073
 799	7.9401e+01	8.2057	34.002776	0.000416	4.156373	1.408217	-0.000166
 800	7.9501e+01	8.1639	33.913959	0.000223	2.230249	0.755629	-0.000089
 801	7.9600e+01	8.1222	33.760548	0.000385	3.852248	1.305177	-0.000154
 802	7.9700e+01	8.0789	33.667693	0.000233	2.331624	0.789976	-0.000093
 803	7.9799e+01	8.0388	33.502171	0.000416	4.156373	1.408217	-0.000166
 804	7.9898e+01	7.9987	33.433540	0.000172	1.723374	0.583895	-0.000069
 805	7.9998e+01	7.9666	33.263980	0.000426	4.257748	1.442564	-0.000170
 806	8.0097e+01	7.9233	33.142866	0.000304	3.041248	1.030403	-0.000122
 807	8.0197e+01	7.8848	33.013677	0.000324	3.243998	1.099096	-0.000130
 808	8.0296e+01	7.8335	32.860266	0.000385	3.852248	1.305177	-0.000154
 809	8.0396e+01	7.7966	32.755301	0.000264	2.635749	0.893016	-0.000105
 810	8.0496e+01	7.7661	32.614001	0.000355	3.548123	1.202137	-0.000142
 811	8.0595e+01	7.7228	32.428293	0.000466	4.663248	1.579951	-0.000187
 812	8.0695e+01	7.6875	32.299104	0.000324	3.243998	1.099096	-0.000130
 813	8.0794e+01	7.6426	32.157805	0.000355	3.548123	1.202137	-0.000142
 814	8.0894e+01	7.6089	32.056876	0.000253	2.534374	0.858669	-0.000101
 815	8.0993e+01	7.5607	31.939799	0.000294	2.939874	0.996056	-0.000118
 816	8.1093e+01	7.5158	31.846945	0.000233	2.331624	0.789976	-0.000093
 817	8.1192e+01	7.4789	31.713720	0.000335	3.345373	1.133443	-0.000134
 818	8.1291e+01	7.4452	31.592606	0.000304	3.041248	1.030403	-0.000122
 819	8.1391e+01	7.4116	31.463417	0.000324	3.243998	1.099096	-0.000130
 820	8.1490e+01	7.3682	31.285783	0.000446	4.460498	1.511258	-0.000179
 821	8.1590e+01	7.3362	31.229264	0.000142	1.419249	0.480855	-0.000057
 822	8.1689e+01	7.2896	31.043555	0.000466	4.663248	1.579951	-0.000187
 823	8.1789e+01	7.2431	30.950701	0.000233	2.331624	0.789976	-0.000093
 824	8.1888e+01	7.2062	30.797290	0.000385	3.852248	1.305177	-0.000154
 825	8.1988e+01	7.1645	30.619656	0.000446	4.460498	1.511258	-0.000179
 826	8.2088e+01	7.1260	30.538913	0.000203	2.027499	0.686935	-0.000081
 827	8.2187e+01	7.0859	30.389539	0.000375	3.750873	1.270830	-0.000150
 828	8.2287e+01	7.0554	30.236128	0.000385	3.852248	1.305177	-0.000154
 829	8.2386e+01	7.0089	30.119051	0.000294	2.939874	0.996056	-0.000118
 830	8.2486e+01	6.9688	29.897009	0.000558	5.575622	1.889072	-0.000223
 831	8.2585e+01	6.9239	29.812229	0.000213	2.128874	0.721282	-0.000085
 832	8.2684e+01	6.8838	29.679003	0.000335	3.345373	1.133443	-0.000134
 833	8.2784e+01	6.8388	29.545778	0.000335	3.345373	1.133443	-0.000134
 834	8.2883e+01	6.8084	29.408515	0.000345	3.446748	1.167790	-0.000138
 835	8.2983e+01	6.7602	29.303550	0.000264	2.635749	0.893016	-0.000105
 836	8.3082e+01	6.7282	29.162250	0.000355	3.548123	1.202137	-0.000142
 837	8.3182e+01	6.6832	29.041136	0.000304	3.041248	1.030403	-0.000122
 838	8.3281e+01	6.6415	28.899836	0.000355	3.548123	1.202137	-0.000142
 839	8.3381e+01	6.6110	28.774685	0.000314	3.142623	1.064750	-0.000126
 840	8.3481e+01	6.5613	28.653571	0.000304	3.041248	1.030403	-0.000122
 841	8.3580e+01	6.5276	28.508234	0.000365	3.649498	1.236483	-0.000146
 842	8.3680e+01	6.4971	28.338674	0.000426	4.257748	1.442564	-0.000170
 843	8.3779e+01	6.4490	28.229672	0.000274	2.737124	0.927363	-0.000110
 844	8.3879e+01	6.4169	28.100483	0.000324	3.243998	1.099096	-0.000130
 845	8.3978e+01	6.3736	27.938998	0.000405	4.054998	1.373870	-0.000162
 846	8.4078e+01	6.3335	27.850181	0.000223	2.230249	0.755629	-0.000089
 847	8.4177e+01	6.2902	27.672547	0.000446	4.460498	1.511258	-0.000179
 848	8.4276e+01	6.2565	27.474727	0.000497	4.967372	1.682991	-0.000199
 849	8.4376e+01	6.2132	27.353613	0.000304	3.041248	1.030403	-0.000122
 850	8.4475e+01	6.1651	27.212313	0.000355	3.548123	1.202137	-0.000142
 851	8.4575e+01	6.1330	27.091199	0.000304	3.041248	1.030403	-0.000122
 852	8.4674e+01	6.0833	26.949900	0.000355	3.548123	1.202137	-0.000142
 853	8.4774e+01	6.0480	26.881268	0.000172	1.723374	0.583895	-0.000069
 854	8.4874e+01	6.0095	26.715746	0.000416	4.156373	1.408217	-0.000166
 855	8.4973e+01	5.9726	26.582520	0.000335	3.345373	1.133443	-0.000134
 856	8.5073e+01	5.9357	26.457369	0.000314	3.142623	1.064750	-0.000126
 857	8.5172e+01	5.8907	26.291846	0.000416	4.156373	1.408217	-0.000166
 858	8.5272e+01	5.8554	26.198992	0.000233	2.331624	0.789976	-0.000093
 859	8.5371e+01	5.8025	26.049618	0.000375	3.750873	1.270830	-0.000150
 860	8.5471e+01	5.7736	25.924467	0.000314	3.142623	1.064750	-0.000126
 861	8.5570e+01	5.7271	25.742796	0.000456	4.561873	1.545604	-0.000183
 862	8.5669e+01	5.6838	25.589385	0.000385	3.852248	1.305177	-0.000154
 863	8.5769e+01	5.6517	25.456159	0.000335	3.345373	1.133443	-0.000134
 864	8.5868e+01	5.6100	25.274488	0.000456	4.561873	1.545604	-0.000183
 865	8.5968e+01	5.5795	25.197783	0.000193	1.926124	0.652588	-0.000077
 866	8.6067e+01	5.5346	25.032260	0.000416	4.156373	1.408217	-0.000166
 867	8.6167e+01	5.4929	24.882886	0.000375	3.750873	1.270830	-0.000150
 868	8.6266e+01	5.4544	24.749661	0.000335	3.345373	1.133443	-0.000134
 869	8.6366e+01	5.4159	24.636621	0.000284	2.838499	0.961709	-0.000114
 870	8.6466e+01	5.3774	24.495321	0.000355	3.548123	1.202137	-0.000142
 871	8.6565e+01	5.3277	24.374207	0.000304	3.041248	1.030403	-0.000122
 872	8.6665e+01	5.2956	24.192536	0.000456	4.561873	1.545604	-0.000183
 873	8.6764e+01	5.2539	24.119867	0.000182	1.824749	0.618242	-0.000073
 874	8.6864e+01	5.2186	23.942233	0.000446	4.460498	1.511258	-0.000179
 875	8.6963e+01	5.1624	23.792859	0.000375	3.750873	1.270830	-0.000150
 876	8.7063e+01	5.1351	23.635411	0.000395	3.953623	1.339524	-0.000158
 877	8.7162e+01	5.0950	23.469889	0.000416	4.156373	1.408217	-0.000166
 878	8.7261e+01	5.0598	23.352812	0.000294	2.939874	0.996056	-0.000118
 879	8.7361e+01	5.0116	23.183252	0.000426	4.257748	1.442564	-0.000170
 880	8.7460e+01	4.9699	23.066175	0.000294	2.939874	0.996056	-0.000118
 881	8.7560e+01	4.9458	22.904690	0.000405	4.054998	1.373870	-0.000162
 882	8.7659e+01	4.8961	22.759353	0.000365	3.649498	1.236483	-0.000146
 883	8.7759e+01	4.8496	22.593830	0.000416	4.156373	1.408217	-0.000166
 884	8.7859e+01	4.8175	22.436382	0.000395	3.953623	1.339524	-0.000158
 885	8.7958e+01	4.7758	22.303156	0.000335	3.345373	1.133443	-0.000134
 886	8.8058e+01	4.7405	22.214339	0.000223	2.230249	0.755629	-0.000089
 887	8.8157e+01	4.7004	22.036705	0.000446	4.460498	1.511258	-0.000179
 888	8.8257e+01	4.6587	21.960000	0.000193	1.926124	0.652588	-0.000077
 889	8.8356e+01	4.6202	21.754106	0.000517	5.170122	1.751685	-0.000207
 890	8.8456e+01	4.5769	21.645103	0.000274	2.737124	0.927363	-0.000110
 891	8.8555e+01	4.5368	21.511878	0.000335	3.345373	1.133443	-0.000134
 892	8.8654e+01	4.4983	21.334244	0.000446	4.460498	1.511258	-0.000179
 893	8.8754e+01	4.4646	21.217167	0.000294	2.939874	0.996056	-0.000118
 894	8.8853e+01	4.4181	21.039533	0.000446	4.460498	1.511258	-0.000179
 895	8.8953e+01	4.3667	20.910345	0.000324	3.243998	1.099096	-0.000130
 896	8.9052e+01	4.3378	20.765008	0.000365	3.649498	1.236483	-0.000146
 897	8.9152e+01	4.2881	20.615634	0.000375	3.750873	1.270830	-0.000150
 898	8.9251e+01	4.2673	20.454148	0.000405	4.054998	1.373870	-0.000162
 899	8.9351e+01	4.2255	20.292663	0.000405	4.054998	1.373870	-0.000162
 900	8.9451e+01	4.1742	20.115029	0.000446	4.460498	1.511258	-0.000179
 901	8.9550e+01	4.1309	19.981803	0.000335	3.345373	1.133443	-0.000134
 902	8.9650e+01	4.0940	19.824355	0.000395	3.953623	1.339524	-0.000158
 903	8.9749e+01	4.0635	19.711315	0.000284	2.838499	0.961709	-0.000114
 904	8.9849e+01	4.0234	19.565978	0.000365	3.649498	1.236483	-0.000146
 905	8.9948e+01	3.9881	19.408530	0.000395	3.953623	1.339524	-0.000158
 906	9.0047e+01	3.9432	19.267230	0.000355	3.548123	1.202137	-0.000142
 907	9.0147e+01	3.8903	19.142079	0.000314	3.142623	1.064750	-0.000126
 908	9.0246e+01	3.8550	18.984631	0.000395	3.953623	1.339524	-0.000158
 909	9.0346e+01	3.8197	18.835257	0.000375	3.750873	1.270830	-0.000150
 910	9.0445e+01	3.7780	18.637437	0.000497	4.967372	1.682991	-0.000199
 911	9.0545e+01	3.7459	18.512286	0.000314	3.142623	1.064750	-0.000126
 912	9.0644e+01	3.6978	18.370986	0.000355	3.548123	1.202137	-0.000142
 913	9.0744e+01	3.6641	18.205464	0.000416	4.156373	1.408217	-0.000166
 914	9.0844e+01	3.6175	18.072238	0.000335	3.345373	1.133443	-0.000134
 915	9.0943e+01	3.5790	17.902678	0.000426	4.257748	1.442564	-0.000170
 916	9.1043e+01	3.5405	17.708896	0.000487	4.865998	1.648645	-0.000195
 917	9.1142e+01	3.5085	17.563559	0.000365	3.649498	1.236483	-0.000146
 918	9.1242e+01	3.4667	17.422259	0.000355	3.548123	1.202137	-0.000142
 919	9.1341e+01	3.4250	17.248662	0.000436	4.359123	1.476911	-0.000174
 920	9.1441e+01	3.3801	17.123511	0.000314	3.142623	1.064750	-0.000126
 921	9.1540e+01	3.3448	16.953952	0.000426	4.257748	1.442564	-0.000170
 922	9.1639e+01	3.3111	16.828800	0.000314	3.142623	1.064750	-0.000126
 923	9.1739e+01	3.2630	16.691538	0.000345	3.446748	1.167790	-0.000138
 924	9.1838e+01	3.2165	16.534089	0.000395	3.953623	1.339524	-0.000158
 925	9.1938e+01	3.1812	16.404901	0.000324	3.243998	1.099096	-0.000130
 926	9.2037e+01	3.1379	16.235341	0.000426	4.257748	1.442564	-0.000170
 927	9.2137e+01	3.0978	16.098079	0.000345	3.446748	1.167790	-0.000138
 928	9.2237e+01	3.0545	15.940630	0.000395	3.953623	1.339524	-0.000158
 929	9.2336e+01	3.0144	15.779145	0.000405	4.054998	1.373870	-0.000162
 930	9.2436e+01	2.9935	15.649957	0.000324	3.243998	1.099096	-0.000130
 931	9.2535e+01	2.9357	15.500583	0.000375	3.750873	1.270830	-0.000150
 932	9.2635e+01	2.9069	15.318912	0.000456	4.561873	1.545604	-0.000183
 933	9.2734e+01	2.8668	15.181649	0.000345	3.446748	1.167790	-0.000138
 934	9.2834e+01	2.8299	14.991904	0.000476	4.764623	1.614298	-0.000191
 935	9.2933e+01	2.7866	14.814270	0.000446	4.460498	1.511258	-0.000179
 936	9.3032e+01	2.7352	14.656821	0.000395	3.953623	1.339524	-0.000158
 937	9.3132e+01	2.7015	14.471113	0.000466	4.663248	1.579951	-0.000187
 938	9.3231e+01	2.6662	14.325776	0.000365	3.649498	1.236483	-0.000146
 939	9.3331e+01	2.6261	14.212736	0.000284	2.838499	0.961709	-0.000114
 940	9.3430e+01	2.5860	14.047214	0.000416	4.156373	1.408217	-0.000166
 941	9.3530e+01	2.5379	13.873617	0.000436	4.359123	1.476911	-0.000174
 942	9.3629e+01	2.5058	13.724243	0.000375	3.750873	1.270830	-0.000150
 943	9.3729e+01	2.4641	13.611203	0.000284	2.838499	0.961709	-0.000114
 944	9.3829e+01	2.4320	13.421458	0.000476	4.764623	1.614298	-0.000191
 945	9.3928e+01	2.3775	13.268047	0.000385	3.852248	1.305177	-0.000154
 946	9.4028e+01	2.3550	13.102524	0.000416	4.156373	1.408217	-0.000166
 947	9.4127e+01	2.3021	12.941039	0.000405	4.054998	1.373870	-0.000162
 948	9.4227e+01	2.2588	12.791665	0.000375	3.750873	1.270830	-0.000150
 949	9.4326e+01	2.2315	12.634216	0.000395	3.953623	1.339524	-0.000158
 950	9.4425e+01	2.1850	12.460619	0.000436	4.359123	1.476911	-0.000174
 951	9.4525e+01	2.1513	12.311245	0.000375	3.750873	1.270830	-0.000150
 952	9.4624e+01	2.0983	12.081129	0.000578	5.778372	1.957765	-0.000231
 953	9.4724e+01	2.0695	11.968089	0.000284	2.838499	0.961709	-0.000114
 954	9.4823e+01	2.0294	11.782381	0.000466	4.663248	1.579951	-0.000187
 955	9.4923e+01	1.9828	11.637044	0.000365	3.649498	1.236483	-0.000146
 956	9.5022e+01	1.9491	11.463447	0.000436	4.359123	1.476911	-0.000174
 957	9.5122e+01	1.9074	11.293887	0.000426	4.257748	1.442564	-0.000170
 958	9.5222e+01	1.8737	11.184885	0.000274	2.737124	0.927363	-0.000110
 959	9.5321e+01	1.8336	10.974954	0.000527	5.271497	1.786032	-0.000211
 960	9.5421e+01	1.7839	10.837691	0.000345	3.446748	1.167790	-0.000138
 961	9.5520e+01	1.7486	10.676205	0.000405	4.054998	1.373870	-0.000162
 962	9.5620e+01	1.7101	10.534906	0.000355	3.548123	1.202137	-0.000142
 963	9.5719e+01	1.6636	10.389569	0.000365	3.649498	1.236483	-0.000146
 964	9.5819e+01	1.6267	10.191749	0.000497	4.967372	1.682991	-0.000199
 965	9.5918e+01	1.5850	10.018152	0.000436	4.359123	1.476911	-0.000174
 966	9.6017e+01	1.5353	9.868778	0.000375	3.750873	1.270830	-0.000150
 967	9.6117e+01	1.5080	9.723441	0.000365	3.649498	1.236483	-0.000146
 968	9.6216e+01	1.4663	9.557919	0.000416	4.156373	1.408217	-0.000166
 969	9.6316e+01	1.4246	9.352025	0.000517	5.170122	1.751685	-0.000207
 970	9.6415e+01	1.3941	9.162280	0.000476	4.764623	1.614298	-0.000191
 971	9.6515e+01	1.3443	8.988683	0.000436	4.359123	1.476911	-0.000174
 972	9.6615e+01	1.3058	8.807012	0.000456	4.561873	1.545604	-0.000183
 973	9.6714e+01	1.2657	8.669749	0.000345	3.446748	1.167790	-0.000138
 974	9.6814e+01	1.2369	8.512301	0.000395	3.953623	1.339524	-0.000158
 975	9.6913e+01	1.1871	8.391187	0.000304	3.041248	1.030403	-0.000122
 976	9.7013e+01	1.1486	8.169144	0.000558	5.575622	1.889072	-0.000223
 977	9.7112e+01	1.1021	8.011696	0.000395	3.953623	1.339524	-0.000158
 978	9.7212e+01	1.0652	7.882508	0.000324	3.243998	1.099096	-0.000130
 979	9.7311e+01	1.0315	7.741208	0.000355	3.548123	1.202137	-0.000142
 980	9.7410e+01	0.9818	7.579722	0.000405	4.054998	1.373870	-0.000162
 981	9.7510e+01	0.9449	7.345568	0.000588	5.879747	1.992112	-0.000235
 982	9.7609e+01	0.9144	7.216380	0.000324	3.243998	1.099096	-0.000130
 983	9.7709e+01	0.8631	7.038746	0.000446	4.460498	1.511258	-0.000179
 984	9.7808e+01	0.8294	6.844964	0.000487	4.865998	1.648645	-0.000195
 985	9.7908e+01	0.7861	6.655218	0.000476	4.764623	1.614298	-0.000191
 986	9.8007e+01	0.7508	6.493733	0.000405	4.054998	1.373870	-0.000162
 987	9.8107e+01	0.7075	6.287839	0.000517	5.170122	1.751685	-0.000207
 988	9.8207e+01	0.6706	6.138465	0.000375	3.750873	1.270830	-0.000150
 989	9.8306e+01	0.6257	5.940645	0.000497	4.967372	1.682991	-0.000199
 990	9.8406e+01	0.5968	5.795308	0.000365	3.649498	1.236483	-0.000146
 991	9.8505e+01	0.5519	5.593452	0.000507	5.068747	1.717338	-0.000203
 992	9.8605e+01	0.5021	5.488486	0.000264	2.635749	0.893016	-0.000105
 993	9.8704e+01	0.4749	5.306815	0.000456	4.561873	1.545604	-0.000183
 994	9.8803e+01	0.4315	5.121107	0.000466	4.663248	1.579951	-0.000187
 995	9.8903e+01	0.3914	4.971733	0.000375	3.750873	1.270830	-0.000150
 996	9.9002e+01	0.3577	4.769876	0.000507	5.068747	1.717338	-0.000203
 997	9.9102e+01	0.3208	4.640688	0.000324	3.243998	1.099096	-0.000130
 998	9.9201e+01	0.2711	4.491314	0.000375	3.750873	1.270830	-0.000150
 999	9.9301e+01	0.2310	4.301568	0.000476	4.764623	1.614298	-0.000191
1000	9.9400e+01	0.1909	4.099711	0.000507	5.068747	1.717338	-0.000203
1001	9.9500e+01	0.1540	3.946300	0.000385	3.852248	1.305177	-0.000154
1002	9.9600e+01	0.1139	3.744443	0.000507	5.068747	1.717338	-0.000203
1003	9.9699e+01	0.0770	3.546624	0.000497	4.967372	1.682991	-0.000199
1004	9.9799e+01	0.0321	3.373027	0.000436	4.359123	1.476911	-0.000174
1005	9.9898e+01	0.0064	3.219616	0.000385	3.852248	1.305177	-0.000154
1006	9.9998e+01	-0.0305	3.037945	0.000456	4.561873	1.545604	-0.000183
1007	1.0010e+02	-0.0770	2.872422	0.000416	4.156373	1.408217	-0.000166
1008	1.0020e+02	-0.1299	2.698825	0.000436	4.359123	1.476911	-0.000174
1009	1.0030e+02	-0.1572	2.513117	0.000466	4.663248	1.579951	-0.000187
1010	1.0040e+02	-0.1925	2.375854	0.000345	3.446748	1.167790	-0.000138
1011	1.0050e+02	-0.2374	2.206295	0.000426	4.257748	1.442564	-0.000170
1012	1.0059e+02	-0.2775	1.988289	0.000547	5.474247	1.854725	-0.000219
1013	1.0069e+02	-0.3257	1.834878	0.000385	3.852248	1.305177	-0.000154
1014	1.0079e+02	-0.3642	1.689541	0.000365	3.649498	1.236483	-0.000146
1015	1.0089e+02	-0.4059	1.475573	0.000537	5.372872	1.820378	-0.000215
1016	1.0099e+02	-0.4364	1.338310	0.000345	3.446748	1.167790	-0.000138
1017	1.0109e+02	-0.4749	1.104157	0.000588	5.879747	1.992112	-0.000235
1018	1.0119e+02	-0.5278	0.950745	0.000385	3.852248	1.305177	-0.000154
1019	1.0129e+02	-0.5631	0.773111	0.000446	4.460498	1.511258	-0.000179
1020	1.0139e+02	-0.5952	0.599515	0.000436	4.359123	1.476911	-0.000174
1021	1.0149e+02	-0.6305	0.397658	0.000507	5.068747	1.717338	-0.000203
1022	1.0159e+02	-0.6770	0.187727	0.000527	5.271497	1.786032	-0.000211
1023	1.0169e+02	-0.7155	-0.014130	0.000507	5.068747	1.717338	-0.000203
1024	1.0179e+02	-0.7556	-0.171578	0.000395	3.953623	1.339524	-0.000158
1025	1.0189e+02	-0.7925	-0.300767	0.000324	3.243998	1.099096	-0.000130
1026	1.0199e+02	-0.8374	-0.470326	0.000426	4.257748	1.442564	-0.000170
1027	1.0209e+02	-0.8727	-0.631812	0.000405	4.054998	1.373870	-0.000162
1028	1.0219e+02	-0.9128	-0.805409	0.000436	4.359123	1.476911	-0.000174
1029	1.0229e+02	-0.9529	-1.023414	0.000547	5.474247	1.854725	-0.000219
1030	1.0239e+02	-0.9946	-1.176825	0.000385	3.852248	1.305177	-0.000154
1031	1.0248e+02	-1.0379	-1.374645	0.000497	4.967372	1.682991	-0.000199
1032	1.0258e+02	-1.0861	-1.528056	0.000385	3.852248	1.305177	-0.000154
1033	1.0268e+02	-1.1182	-1.693578	0.000416	4.156373	1.408217	-0.000166
1034	1.0278e+02	-1.1470	-1.903510	0.000527	5.271497	1.786032	-0.000211
1035	1.0288e+02	-1.1984	-2.052884	0.000375	3.750873	1.270830	-0.000150
1036	1.0298e+02	-1.2337	-2.226480	0.000436	4.359123	1.476911	-0.000174
1037	1.0308e+02	-1.2641	-2.448523	0.000558	5.575622	1.889072	-0.000223
1038	1.0318e+02	-1.3235	-2.601934	0.000385	3.852248	1.305177	-0.000154
1039	1.0328e+02	-1.3460	-2.819939	0.000547	5.474247	1.854725	-0.000219
1040	1.0338e+02	-1.3957	-2.981425	0.000405	4.054998	1.373870	-0.000162
1041	1.0348e+02	-1.4342	-3.179244	0.000497	4.967372	1.682991	-0.000199
1042	1.0358e+02	-1.4743	-3.368990	0.000476	4.764623	1.614298	-0.000191
1043	1.0368e+02	-1.5144	-3.502215	0.000335	3.345373	1.133443	-0.000134
1044	1.0378e+02	-1.5449	-3.667738	0.000416	4.156373	1.408217	-0.000166
1045	1.0388e+02	-1.5962	-3.857483	0.000476	4.764623	1.614298	-0.000191
1046	1.0398e+02	-1.6267	-4.039154	0.000456	4.561873	1.545604	-0.000183
1047	1.0408e+02	-1.6748	-4.245048	0.000517	5.170122	1.751685	-0.000207
1048	1.0418e+02	-1.7165	-4.374237	0.000324	3.243998	1.099096	-0.000130
1049	1.0428e+02	-1.7582	-4.588205	0.000537	5.372872	1.820378	-0.000215
1050	1.0438e+02	-1.7839	-4.721430	0.000335	3.345373	1.133443	-0.000134
1051	1.0447e+02	-1.8352	-4.943473	0.000558	5.575622	1.889072	-0.000223
1052	1.0457e+02	-1.8737	-5.104958	0.000405	4.054998	1.373870	-0.000162
1053	1.0467e+02	-1.9106	-5.322963	0.000547	5.474247	1.854725	-0.000219
1054	1.0477e+02	-1.9507	-5.427929	0.000264	2.635749	0.893016	-0.000105
1055	1.0487e+02	-1.9957	-5.637860	0.000527	5.271497	1.786032	-0.000211
1056	1.0497e+02	-2.0390	-5.795308	0.000395	3.953623	1.339524	-0.000158
1057	1.0507e+02	-2.0727	-6.029462	0.000588	5.879747	1.992112	-0.000235
1058	1.0517e+02	-2.1096	-6.138465	0.000274	2.737124	0.927363	-0.000110
1059	1.0527e+02	-2.1529	-6.299950	0.000405	4.054998	1.373870	-0.000162
1060	1.0537e+02	-2.1930	-6.526030	0.000568	5.676997	1.923419	-0.000227
1061	1.0547e+02	-2.2379	-6.655218	0.000324	3.243998	1.099096	-0.000130
1062	1.0557e+02	-2.2700	-6.881298	0.000568	5.676997	1.923419	-0.000227
1063	1.0567e+02	-2.3149	-7.067006	0.000466	4.663248	1.579951	-0.000187
1064	1.0577e+02	-2.3454	-7.240603	0.000436	4.359123	1.476911	-0.000174
1065	1.0587e+02	-2.3871	-7.385940	0.000365	3.649498	1.236483	-0.000146
1066	1.0597e+02	-2.4272	-7.603945	0.000547	5.474247	1.854725	-0.000219
1067	1.0607e+02	-2.4657	-7.704874	0.000253	2.534374	0.858669	-0.000101
1068	1.0617e+02	-2.5122	-7.878470	0.000436	4.359123	1.476911	-0.000174
1069	1.0627e+02	-2.5523	-8.116661	0.000598	5.981122	2.026459	-0.000239
1070	1.0637e+02	-2.5924	-8.257961	0.000355	3.548123	1.202137	-0.000142
1071	1.0647e+02	-2.6358	-8.427521	0.000426	4.257748	1.442564	-0.000170
1072	1.0656e+02	-2.6694	-8.564783	0.000345	3.446748	1.167790	-0.000138
1073	1.0666e+02	-2.7095	-8.790863	0.000568	5.676997	1.923419	-0.000227
1074	1.0676e+02	-2.7432	-8.976571	0.000466	4.663248	1.579951	-0.000187
1075	1.0686e+02	-2.7833	-9.142094	0.000416	4.156373	1.408217	-0.000166
1076	1.0696e+02	-2.8299	-9.283394	0.000355	3.548123	1.202137	-0.000142
1077	1.0706e+02	-2.8700	-9.452953	0.000426	4.257748	1.442564	-0.000170
1078	1.0716e+02	-2.9133	-9.626550	0.000436	4.359123	1.476911	-0.000174
1079	1.0726e+02	-2.9502	-9.808221	0.000456	4.561873	1.545604	-0.000183
1080	1.0736e+02	-2.9903	-9.977781	0.000426	4.257748	1.442564	-0.000170
1081	1.0746e+02	-3.0352	-10.127155	0.000375	3.750873	1.270830	-0.000150
1082	1.0756e+02	-3.0609	-10.248269	0.000304	3.041248	1.030403	-0.000122
1083	1.0766e+02	-3.1090	-10.458200	0.000527	5.271497	1.786032	-0.000211
1084	1.0776e+02	-3.1539	-10.631797	0.000436	4.359123	1.476911	-0.000174
1085	1.0786e+02	-3.1908	-10.837691	0.000517	5.170122	1.751685	-0.000207
1086	1.0796e+02	-3.2245	-10.987065	0.000375	3.750873	1.270830	-0.000150
1087	1.0806e+02	-3.2694	-11.172773	0.000466	4.663248	1.579951	-0.000187
1088	1.0816e+02	-3.3111	-11.338296	0.000416	4.156373	1.408217	-0.000166
1089	1.0826e+02	-3.3545	-11.487670	0.000375	3.750873	1.270830	-0.000150
1090	1.0836e+02	-3.3897	-11.612821	0.000314	3.142623	1.064750	-0.000126
1091	1.0845e+02	-3.4218	-11.802566	0.000476	4.764623	1.614298	-0.000191
1092	1.0855e+02	-3.4667	-11.960015	0.000395	3.953623	1.339524	-0.000158
1093	1.0865e+02	-3.5052	-12.101314	0.000355	3.548123	1.202137	-0.000142
1094	1.0875e+02	-3.5438	-12.311245	0.000527	5.271497	1.786032	-0.000211
1095	1.0885e+02	-3.5823	-12.456582	0.000365	3.649498	1.236483	-0.000146
1096	1.0895e+02	-3.6191	-12.626142	0.000426	4.257748	1.442564	-0.000170
1097	1.0905e+02	-3.6657	-12.799739	0.000436	4.359123	1.476911	-0.000174
1098	1.0915e+02	-3.6945	-12.920853	0.000304	3.041248	1.030403	-0.000122
1099	1.0925e+02	-3.7443	-13.130784	0.000527	5.271497	1.786032	-0.000211
1100	1.0935e+02	-3.7876	-13.251898	0.000304	3.041248	1.030403	-0.000122
1101	1.0945e+02	-3.8293	-13.449718	0.000497	4.967372	1.682991	-0.000199
1102	1.0955e+02	-3.8678	-13.611203	0.000405	4.054998	1.373870	-0.000162
1103	1.0965e+02	-3.9015	-13.760577	0.000375	3.750873	1.270830	-0.000150
1104	1.0975e+02	-3.9496	-13.934174	0.000436	4.359123	1.476911	-0.000174
1105	1.0985e+02	-3.9897	-14.043177	0.000274	2.737124	0.927363	-0.000110
1106	1.0995e+02	-4.0186	-14.245033	0.000507	5.068747	1.717338	-0.000203
1107	1.1005e+02	-4.0667	-14.354036	0.000274	2.737124	0.927363	-0.000110
1108	1.1015e+02	-4.1052	-14.543781	0.000476	4.764623	1.614298	-0.000191
1109	1.1025e+02	-4.1437	-14.717378	0.000436	4.359123	1.476911	-0.000174
1110	1.1035e+02	-4.1822	-14.890975	0.000436	4.359123	1.476911	-0.000174
1111	1.1044e+02	-4.2191	-15.036312	0.000365	3.649498	1.236483	-0.000146
1112	1.1054e+02	-4.2641	-15.201835	0.000416	4.156373	1.408217	-0.000166
1113	1.1064e+02	-4.3009	-15.355246	0.000385	3.852248	1.305177	-0.000154
1114	1.1074e+02	-4.3427	-15.549028	0.000487	4.865998	1.648645	-0.000195
1115	1.1084e+02	-4.3780	-15.621697	0.000182	1.824749	0.618242	-0.000073
1116	1.1094e+02	-4.4148	-15.819516	0.000497	4.967372	1.682991	-0.000199
1117	1.1104e+02	-4.4646	-15.997150	0.000446	4.460498	1.511258	-0.000179
1118	1.1114e+02	-4.4999	-16.134413	0.000345	3.446748	1.167790	-0.000138
1119	1.1124e+02	-4.5400	-16.279750	0.000365	3.649498	1.236483	-0.000146
1120	1.1134e+02	-4.5833	-16.433161	0.000385	3.852248	1.305177	-0.000154
1121	1.1144e+02	-4.6266	-16.566387	0.000335	3.345373	1.133443	-0.000134
1122	1.1154e+02	-4.6683	-16.739983	0.000436	4.359123	1.476911	-0.000174
1123	1.1164e+02	-4.7036	-16.925692	0.000466	4.663248	1.579951	-0.000187
1124	1.1174e+02	-4.7373	-17.058917	0.000335	3.345373	1.133443	-0.000134
1125	1.1184e+02	-4.7886	-17.220402	0.000405	4.054998	1.373870	-0.000162
1126	1.1194e+02	-4.8191	-17.369777	0.000375	3.750873	1.270830	-0.000150
1127	1.1204e+02	-4.8528	-17.466668	0.000243	2.432999	0.824322	-0.000097
1128	1.1214e+02	-4.8897	-17.704859	0.000598	5.981122	2.026459	-0.000239
1129	1.1224e+02	-4.9394	-17.854233	0.000375	3.750873	1.270830	-0.000150
1130	1.1234e+02	-4.9763	-17.963235	0.000274	2.737124	0.927363	-0.000110
1131	1.1244e+02	-5.0164	-18.136832	0.000436	4.359123	1.476911	-0.000174
1132	1.1253e+02	-5.0517	-18.314466	0.000446	4.460498	1.511258	-0.000179
1133	1.1263e+02	-5.1015	-18.447692	0.000335	3.345373	1.133443	-0.000134
1134	1.1273e+02	-5.1480	-18.588992	0.000355	3.548123	1.202137	-0.000142
1135	1.1283e+02	-5.1833	-18.742403	0.000385	3.852248	1.305177	-0.000154
1136	1.1293e+02	-5.2170	-18.875628	0.000335	3.345373	1.133443	-0.000134
1137	1.1303e+02	-5.2651	-19.061336	0.000466	4.663248	1.579951	-0.000187
1138	1.1313e+02	-5.2972	-19.158228	0.000243	2.432999	0.824322	-0.000097
1139	1.1323e+02	-5.3437	-19.347973	0.000476	4.764623	1.614298	-0.000191
1140	1.1333e+02	-5.3790	-19.481199	0.000335	3.345373	1.133443	-0.000134
1141	1.1343e+02	-5.4207	-19.674981	0.000487	4.865998	1.648645	-0.000195
1142	1.1353e+02	-5.4544	-19.767835	0.000233	2.331624	0.789976	-0.000093
1143	1.1363e+02	-5.5057	-19.937395	0.000426	4.257748	1.442564	-0.000170
1144	1.1373e+02	-5.5394	-20.086769	0.000375	3.750873	1.270830	-0.000150
1145	1.1383e+02	-5.5843	-20.211920	0.000314	3.142623	1.064750	-0.000126
1146	1.1393e+02	-5.6132	-20.385517	0.000436	4.359123	1.476911	-0.000174
1147	1.1403e+02	-5.6597	-20.542965	0.000395	3.953623	1.339524	-0.000158
1148	1.1413e+02	-5.6918	-20.668116	0.000314	3.142623	1.064750	-0.000126
1149	1.1423e+02	-5.7432	-20.853825	0.000466	4.663248	1.579951	-0.000187
1150	1.1433e+02	-5.7752	-20.999162	0.000365	3.649498	1.236483	-0.000146
1151	1.1442e+02	-5.8105	-21.116238	0.000294	2.939874	0.996056	-0.000118
1152	1.1452e+02	-5.8683	-21.269650	0.000385	3.852248	1.305177	-0.000154
1153	1.1462e+02	-5.8988	-21.423061	0.000385	3.852248	1.305177	-0.000154
1154	1.1472e+02	-5.9373	-21.519952	0.000243	2.432999	0.824322	-0.000097
1155	1.1482e+02	-5.9758	-21.681437	0.000405	4.054998	1.373870	-0.000162
1156	1.1492e+02	-6.0095	-21.855034	0.000436	4.359123	1.476911	-0.000174
1157	1.1502e+02	-6.0544	-21.972111	0.000294	2.939874	0.996056	-0.000118
1158	1.1512e+02	-6.0929	-22.141671	0.000426	4.257748	1.442564	-0.000170
1159	1.1522e+02	-6.1346	-22.262785	0.000304	3.041248	1.030403	-0.000122
1160	1.1532e+02	-6.1843	-22.412159	0.000375	3.750873	1.270830	-0.000150
1161	1.1542e+02	-6.2212	-22.537310	0.000314	3.142623	1.064750	-0.000126
1162	1.1552e+02	-6.2549	-22.658424	0.000304	3.041248	1.030403	-0.000122
1163	1.1562e+02	-6.2982	-22.844133	0.000466	4.663248	1.579951	-0.000187
1164	1.1572e+02	-6.3271	-23.017729	0.000436	4.359123	1.476911	-0.000174
1165	1.1582e+02	-6.3768	-23.122695	0.000264	2.635749	0.893016	-0.000105
1166	1.1592e+02	-6.4105	-23.243809	0.000304	3.041248	1.030403	-0.000122
1167	1.1602e+02	-6.4490	-23.405294	0.000405	4.054998	1.373870	-0.000162
1168	1.1612e+02	-6.5004	-23.546594	0.000355	3.548123	1.202137	-0.000142
1169	1.1622e+02	-6.5260	-23.720191	0.000436	4.359123	1.476911	-0.000174
1170	1.1632e+02	-6.5758	-23.861491	0.000355	3.548123	1.202137	-0.000142
1171	1.1642e+02	-6.6191	-23.998753	0.000345	3.446748	1.167790	-0.000138
1172	1.1651e+02	-6.6544	-24.095645	0.000243	2.432999	0.824322	-0.000097
1173	1.1661e+02	-6.6897	-24.245019	0.000375	3.750873	1.270830	-0.000150
1174	1.1671e+02	-6.7265	-24.402467	0.000395	3.953623	1.339524	-0.000158
1175	1.1681e+02	-6.7715	-24.539730	0.000345	3.446748	1.167790	-0.000138
1176	1.1691e+02	-6.8180	-24.676992	0.000345	3.446748	1.167790	-0.000138
1177	1.1701e+02	-6.8597	-24.810218	0.000335	3.345373	1.133443	-0.000134
1178	1.1711e+02	-6.8950	-24.915183	0.000264	2.635749	0.893016	-0.000105
1179	1.1721e+02	-6.9335	-25.068594	0.000385	3.852248	1.305177	-0.000154
1180	1.1731e+02	-6.9640	-25.209894	0.000355	3.548123	1.202137	-0.000142
1181	1.1741e+02	-7.0041	-25.339082	0.000324	3.243998	1.099096	-0.000130
1182	1.1751e+02	-7.0474	-25.476345	0.000345	3.446748	1.167790	-0.000138
1183	1.1761e+02	-7.0859	-25.641868	0.000416	4.156373	1.408217	-0.000166
1184	1.1771e+02	-7.1292	-25.779130	0.000345	3.446748	1.167790	-0.000138
1185	1.1781e+02	-7.1677	-25.936579	0.000395	3.953623	1.339524	-0.000158
1186	1.1791e+02	-7.2062	-26.037507	0.000253	2.534374	0.858669	-0.000101
1187	1.1801e+02	-7.2495	-26.174770	0.000345	3.446748	1.167790	-0.000138
1188	1.1811e+02	-7.2896	-26.279735	0.000264	2.635749	0.893016	-0.000105
1189	1.1821e+02	-7.3346	-26.457369	0.000446	4.460498	1.511258	-0.000179
1190	1.1831e+02	-7.3666	-26.582520	0.000314	3.142623	1.064750	-0.000126
1191	1.1841e+02	-7.4051	-26.727857	0.000365	3.649498	1.236483	-0.000146
1192	1.1850e+02	-7.4533	-26.869157	0.000355	3.548123	1.202137	-0.000142
1193	1.1860e+02	-7.4854	-26.990271	0.000304	3.041248	1.030403	-0.000122
1194	1.1870e+02	-7.5303	-27.107348	0.000294	2.939874	0.996056	-0.000118
1195	1.1880e+02	-7.5688	-27.256722	0.000375	3.750873	1.270830	-0.000150
1196	1.1890e+02	-7.6105	-27.377836	0.000304	3.041248	1.030403	-0.000122
1197	1.1900e+02	-7.6586	-27.502987	0.000314	3.142623	1.064750	-0.000126
1198	1.1910e+02	-7.6843	-27.660436	0.000395	3.953623	1.339524	-0.000158
1199	1.1920e+02	-7.7324	-27.805772	0.000365	3.649498	1.236483	-0.000146
1200	1.1930e+02	-7.7725	-27.926886	0.000304	3.041248	1.030403	-0.000122
1201	1.1940e+02	-7.8078	-28.084335	0.000395	3.953623	1.339524	-0.000158
1202	1.1950e+02	-7.8415	-28.221597	0.000345	3.446748	1.167790	-0.000138
1203	1.1960e+02	-7.8896	-28.330600	0.000274	2.737124	0.927363	-0.000110
1204	1.1970e+02	-7.9313	-28.500160	0.000426	4.257748	1.442564	-0.000170
1205	1.1980e+02	-7.9698	-28.593014	0.000233	2.331624	0.789976	-0.000093
1206	1.1990e+02	-8.0083	-28.774685	0.000456	4.561873	1.545604	-0.000183
1207	1.2000e+02	-8.0468	-28.920022	0.000365	3.649498	1.236483	-0.000146
1208	1.2010e+02	-8.0901	-29.049210	0.000324	3.243998	1.099096	-0.000130
1209	1.2020e+02	-8.1351	-29.138027	0.000223	2.230249	0.755629	-0.000089
1210	1.2030e+02	-8.1639	-29.251067	0.000284	2.838499	0.961709	-0.000114
1211	1.2039e+02	-8.2089	-29.428701	0.000446	4.460498	1.511258	-0.000179
1212	1.2049e+02	-8.2506	-29.545778	0.000294	2.939874	0.996056	-0.000118
1213	1.2059e+02	-8.2843	-29.638632	0.000233	2.331624	0.789976	-0.000093
1214	1.2069e+02	-8.3179	-29.779932	0.000355	3.548123	1.202137	-0.000142
1215	1.2079e+02	-8.3613	-29.921232	0.000355	3.548123	1.202137	-0.000142
1216	1.2089e+02	-8.4046	-30.034271	0.000284	2.838499	0.961709	-0.000114
1217	1.2099e+02	-8.4495	-30.127125	0.000233	2.331624	0.789976	-0.000093
1218	1.2109e+02	-8.4944	-30.320908	0.000487	4.865998	1.648645	-0.000195
1219	1.2119e+02	-8.5185	-30.417799	0.000243	2.432999	0.824322	-0.000097
1220	1.2129e+02	-8.5650	-30.571210	0.000385	3.852248	1.305177	-0.000154
1221	1.2139e+02	-8.6051	-30.724622	0.000385	3.852248	1.305177	-0.000154
1222	1.2149e+02	-8.6404	-30.829587	0.000264	2.635749	0.893016	-0.000105
1223	1.2159e+02	-8.6901	-30.987035	0.000395	3.953623	1.339524	-0.000158
1224	1.2169e+02	-8.7350	-31.108149	0.000304	3.041248	1.030403	-0.000122
1225	1.2179e+02	-8.7655	-31.209078	0.000253	2.534374	0.858669	-0.000101
1226	1.2189e+02	-8.8072	-31.350378	0.000355	3.548123	1.202137	-0.000142
1227	1.2199e+02	-8.8409	-31.495714	0.000365	3.649498	1.236483	-0.000146
1228	1.2209e+02	-8.8826	-31.612791	0.000294	2.939874	0.996056	-0.000118
1229	1.2219e+02	-8.9276	-31.737943	0.000314	3.142623	1.064750	-0.000126
1230	1.2229e+02	-8.9564	-31.875205	0.000345	3.446748	1.167790	-0.000138
1231	1.2239e+02	-9.0062	-32.004394	0.000324	3.243998	1.099096	-0.000130
1232	1.2248e+02	-9.0511	-32.153768	0.000375	3.750873	1.270830	-0.000150
1233	1.2258e+02	-9.0864	-32.242585	0.000223	2.230249	0.755629	-0.000089
1234	1.2268e+02	-9.1185	-32.351587	0.000274	2.737124	0.927363	-0.000110
1235	1.2278e+02	-9.1746	-32.476738	0.000314	3.142623	1.064750	-0.000126
1236	1.2288e+02	-9.2019	-32.630150	0.000385	3.852248	1.305177	-0.000154
1237	1.2298e+02	-9.2500	-32.767412	0.000345	3.446748	1.167790	-0.000138
1238	1.2308e+02	-9.2805	-32.836044	0.000172	1.723374	0.583895	-0.000069
1239	1.2318e+02	-9.3286	-33.005603	0.000426	4.257748	1.442564	-0.000170
1240	1.2328e+02	-9.3719	-33.122680	0.000294	2.939874	0.996056	-0.000118
1241	1.2338e+02	-9.4024	-33.280128	0.000395	3.953623	1.339524	-0.000158
1242	1.2348e+02	-9.4393	-33.368945	0.000223	2.230249	0.755629	-0.000089
1243	1.2358e+02	-9.4858	-33.481985	0.000284	2.838499	0.961709	-0.000114
1244	1.2368e+02	-9.5211	-33.651545	0.000426	4.257748	1.442564	-0.000170
1245	1.2378e+02	-9.5709	-33.748436	0.000243	2.432999	0.824322	-0.000097
1246	1.2388e+02	-9.5997	-33.889736	0.000355	3.548123	1.202137	-0.000142
1247	1.2398e+02	-9.6382	-34.022961	0.000335	3.345373	1.133443	-0.000134
1248	1.2408e+02	-9.6767	-34.144076	0.000304	3.041248	1.030403	-0.000122
1249	1.2418e+02	-9.7200	-34.301524	0.000395	3.953623	1.339524	-0.000158
1250	1.2428e+02	-9.7505	-34.382267	0.000203	2.027499	0.686935	-0.000081
1251	1.2438e+02	-9.8035	-34.503381	0.000304	3.041248	1.030403	-0.000122
1252	1.2447e+02	-9.8452	-34.636606	0.000335	3.345373	1.133443	-0.000134
1253	1.2457e+02	-9.8821	-34.794054	0.000395	3.953623	1.339524	-0.000158
1254	1.2467e+02	-9.9174	-34.903057	0.000274	2.737124	0.927363	-0.000110
1255	1.2477e+02	-9.9559	-35.028208	0.000314	3.142623	1.064750	-0.000126
1256	1.2487e+02	-9.9880	-35.137211	0.000274	2.737124	0.927363	-0.000110
1257	1.2497e+02	-10.0393	-35.246214	0.000274	2.737124	0.927363	-0.000110
1258	1.2507e+02	-10.0746	-35.379439	0.000335	3.345373	1.133443	-0.000134
1259	1.2517e+02	-10.1227	-35.524776	0.000365	3.649498	1.236483	-0.000146
1260	1.2527e+02	-10.1516	-35.649927	0.000314	3.142623	1.064750	-0.000126
1261	1.2537e+02	-10.1917	-35.730670	0.000203	2.027499	0.686935	-0.000081
1262	1.2547e+02	-10.2350	-35.904267	0.000436	4.359123	1.476911	-0.000174
1263	1.2557e+02	-10.2799	-36.017306	0.000284	2.838499	0.961709	-0.000114
1264	1.2567e+02	-10.3248	-36.146495	0.000324	3.243998	1.099096	-0.000130
1265	1.2577e+02	-10.3537	-36.247423	0.000253	2.534374	0.858669	-0.000101
1266	1.2587e+02	-10.3970	-36.356426	0.000274	2.737124	0.927363	-0.000110
1267	1.2597e+02	-10.4371	-36.497726	0.000355	3.548123	1.202137	-0.000142
1268	1.2607e+02	-10.4788	-36.590580	0.000233	2.331624	0.789976	-0.000093
1269	1.2617e+02	-10.5125	-36.743991	0.000385	3.852248	1.305177	-0.000154
1270	1.2627e+02	-10.5494	-36.824734	0.000203	2.027499	0.686935	-0.000081
1271	1.2636e+02	-10.5927	-36.961996	0.000345	3.446748	1.167790	-0.000138
1272	1.2646e+02	-10.6441	-37.070999	0.000274	2.737124	0.927363	-0.000110
1273	1.2656e+02	-10.6842	-37.200187	0.000324	3.243998	1.099096	-0.000130
1274	1.2666e+02	-10.7163	-37.333413	0.000335	3.345373	1.133443	-0.000134
1275	1.2676e+02	-10.7580	-37.438378	0.000264	2.635749	0.893016	-0.000105
1276	1.2686e+02	-10.8077	-37.579678	0.000355	3.548123	1.202137	-0.000142
1277	1.2696e+02	-10.8366	-37.688681	0.000274	2.737124	0.927363	-0.000110
1278	1.2706e+02	-10.8799	-37.870352	0.000456	4.561873	1.545604	-0.000183
1279	1.2716e+02	-10.9152	-37.918797	0.000122	1.216499	0.412161	-0.000049
1280	1.2726e+02	-10.9681	-38.047986	0.000324	3.243998	1.099096	-0.000130
1281	1.2736e+02	-10.9922	-38.161026	0.000284	2.838499	0.961709	-0.000114
1282	1.2746e+02	-11.0323	-38.342697	0.000456	4.561873	1.545604	-0.000183
1283	1.2756e+02	-11.0692	-38.419402	0.000193	1.926124	0.652588	-0.000077
1284	1.2766e+02	-11.1109	-38.532442	0.000284	2.838499	0.961709	-0.000114
1285	1.2776e+02	-11.1558	-38.641445	0.000274	2.737124	0.927363	-0.000110
1286	1.2786e+02	-11.1975	-38.742373	0.000253	2.534374	0.858669	-0.000101
1287	1.2796e+02	-11.2296	-38.932118	0.000476	4.764623	1.614298	-0.000191
1288	1.2806e+02	-11.2794	-39.008824	0.000193	1.926124	0.652588	-0.000077
1289	1.2816e+02	-11.3130	-39.170309	0.000405	4.054998	1.373870	-0.000162
1290	1.2826e+02	-11.3564	-39.259126	0.000223	2.230249	0.755629	-0.000089
1291	1.2835e+02	-11.3965	-39.380241	0.000304	3.041248	1.030403	-0.000122
1292	1.2845e+02	-11.4430	-39.545763	0.000416	4.156373	1.408217	-0.000166
1293	1.2855e+02	-11.4735	-39.618432	0.000182	1.824749	0.618242	-0.000073
1294	1.2865e+02	-11.5136	-39.731471	0.000284	2.838499	0.961709	-0.000114
1295	1.2875e+02	-11.5537	-39.832400	0.000253	2.534374	0.858669	-0.000101
1296	1.2885e+02	-11.5922	-39.953514	0.000304	3.041248	1.030403	-0.000122
1297	1.2895e+02	-11.6307	-40.106925	0.000385	3.852248	1.305177	-0.000154
1298	1.2905e+02	-11.6660	-40.248225	0.000355	3.548123	1.202137	-0.000142
1299	1.2915e+02	-11.7125	-40.389524	0.000355	3.548123	1.202137	-0.000142
1300	1.2925e+02	-11.7542	-40.482379	0.000233	2.331624	0.789976	-0.000093
1301	1.2935e+02	-11.7911	-40.583307	0.000253	2.534374	0.858669	-0.000101
1302	1.2945e+02	-11.8360	-40.672124	0.000223	2.230249	0.755629	-0.000089
1303	1.2955e+02	-11.8793	-40.785164	0.000284	2.838499	0.961709	-0.000114
1304	1.2965e+02	-11.9114	-40.934538	0.000375	3.750873	1.270830	-0.000150
1305	1.2975e+02	-11.9563	-41.059689	0.000314	3.142623	1.064750	-0.000126
1306	1.2985e+02	-11.9916	-41.160617	0.000253	2.534374	0.858669	-0.000101
1307	1.2995e+02	-12.0366	-41.261546	0.000253	2.534374	0.858669	-0.000101
1308	1.3005e+02	-12.0831	-41.402846	0.000355	3.548123	1.202137	-0.000142
1309	1.3015e+02	-12.0975	-41.507811	0.000264	2.635749	0.893016	-0.000105
1310	1.3025e+02	-12.1617	-41.608739	0.000253	2.534374	0.858669	-0.000101
1311	1.3034e+02	-12.1922	-41.729854	0.000304	3.041248	1.030403	-0.000122
1312	1.3044e+02	-12.2419	-41.883265	0.000385	3.852248	1.305177	-0.000154
1313	1.3054e+02	-12.2708	-41.976119	0.000233	2.331624	0.789976	-0.000093
1314	1.3064e+02	-12.3109	-42.097233	0.000304	3.041248	1.030403	-0.000122
1315	1.3074e+02	-12.3526	-42.218347	0.000304	3.041248	1.030403	-0.000122
1316	1.3084e+02	-12.3895	-42.343498	0.000314	3.142623	1.064750	-0.000126
1317	1.3094e+02	-12.4312	-42.468649	0.000314	3.142623	1.064750	-0.000126
1318	1.3104e+02	-12.4713	-42.557466	0.000223	2.230249	0.755629	-0.000089
1319	1.3114e+02	-12.5050	-42.642246	0.000213	2.128874	0.721282	-0.000085
1320	1.3124e+02	-12.5531	-42.783546	0.000355	3.548123	1.202137	-0.000142
1321	1.3134e+02	-12.5868	-42.920809	0.000345	3.446748	1.167790	-0.000138
1322	1.3144e+02	-12.6285	-43.005588	0.000213	2.128874	0.721282	-0.000085
1323	1.3154e+02	-12.6766	-43.122665	0.000294	2.939874	0.996056	-0.000118
1324	1.3164e+02	-12.7135	-43.251854	0.000324	3.243998	1.099096	-0.000130
1325	1.3174e+02	-12.7537	-43.393153	0.000355	3.548123	1.202137	-0.000142
1326	1.3184e+02	-12.7938	-43.473896	0.000203	2.027499	0.686935	-0.000081
1327	1.3194e+02	-12.8339	-43.566750	0.000233	2.331624	0.789976	-0.000093
1328	1.3204e+02	-12.8740	-43.704013	0.000345	3.446748	1.167790	-0.000138
1329	1.3214e+02	-12.9109	-43.869535	0.000416	4.156373	1.408217	-0.000166
1330	1.3224e+02	-12.9574	-43.942204	0.000182	1.824749	0.618242	-0.000073
1331	1.3234e+02	-12.9927	-44.031021	0.000223	2.230249	0.755629	-0.000089
1332	1.3243e+02	-13.0200	-44.176358	0.000365	3.649498	1.236483	-0.000146
1333	1.3253e+02	-13.0617	-44.281323	0.000264	2.635749	0.893016	-0.000105
1334	1.3263e+02	-13.1002	-44.422623	0.000355	3.548123	1.202137	-0.000142
1335	1.3273e+02	-13.1371	-44.503366	0.000203	2.027499	0.686935	-0.000081
1336	1.3283e+02	-13.1916	-44.640628	0.000345	3.446748	1.167790	-0.000138
1337	1.3293e+02	-13.2269	-44.693111	0.000132	1.317874	0.446508	-0.000053
1338	1.3303e+02	-13.2702	-44.838448	0.000365	3.649498	1.236483	-0.000146
1339	1.3313e+02	-13.3103	-44.995896	0.000395	3.953623	1.339524	-0.000158
1340	1.3323e+02	-13.3456	-45.108936	0.000284	2.838499	0.961709	-0.000114
1341	1.3333e+02	-13.3873	-45.234087	0.000314	3.142623	1.064750	-0.000126
1342	1.3343e+02	-13.4306	-45.339053	0.000264	2.635749	0.893016	-0.000105
1343	1.3353e+02	-13.4627	-45.431907	0.000233	2.331624	0.789976	-0.000093
1344	1.3363e+02	-13.5076	-45.573207	0.000355	3.548123	1.202137	-0.000142
1345	1.3373e+02	-13.5526	-45.682209	0.000274	2.737124	0.927363	-0.000110
1346	1.3383e+02	-13.5846	-45.787175	0.000264	2.635749	0.893016	-0.000105
1347	1.3393e+02	-13.6264	-45.900215	0.000284	2.838499	0.961709	-0.000114
1348	1.3403e+02	-13.6681	-46.045552	0.000365	3.649498	1.236483	-0.000146
1349	1.3413e+02	-13.7018	-46.085923	0.000101	1.013749	0.343468	-0.000041
1350	1.3423e+02	-13.7419	-46.247408	0.000405	4.054998	1.373870	-0.000162
1351	1.3432e+02	-13.7788	-46.364485	0.000294	2.939874	0.996056	-0.000118
1352	1.3442e+02	-13.8237	-46.473488	0.000274	2.737124	0.927363	-0.000110
1353	1.3452e+02	-13.8590	-46.586528	0.000284	2.838499	0.961709	-0.000114
1354	1.3462e+02	-13.9103	-46.679382	0.000233	2.331624	0.789976	-0.000093
1355	1.3472e+02	-13.9424	-46.788385	0.000274	2.737124	0.927363	-0.000110
1356	1.3482e+02	-13.9905	-46.917573	0.000324	3.243998	1.099096	-0.000130
1357	1.3492e+02	-14.0210	-47.022539	0.000264	2.635749	0.893016	-0.000105
1358	1.3502e+02	-14.0659	-47.175950	0.000385	3.852248	1.305177	-0.000154
1359	1.3512e+02	-14.1012	-47.240544	0.000162	1.621999	0.549548	-0.000065
1360	1.3522e+02	-14.1381	-47.365695	0.000314	3.142623	1.064750	-0.000126
1361	1.3532e+02	-14.1878	-47.458549	0.000233	2.331624	0.789976	-0.000093
1362	1.3542e+02	-14.2183	-47.571589	0.000284	2.838499	0.961709	-0.000114
1363	1.3552e+02	-14.2488	-47.716926	0.000365	3.649498	1.236483	-0.000146
1364	1.3562e+02	-14.3017	-47.842077	0.000314	3.142623	1.064750	-0.000126
1365	1.3572e+02	-14.3386	-47.934931	0.000233	2.331624	0.789976	-0.000093
1366	1.3582e+02	-14.3852	-48.023748	0.000223	2.230249	0.755629	-0.000089
1367	1.3592e+02	-14.4140	-48.148899	0.000314	3.142623	1.064750	-0.000126
1368	1.3602e+02	-14.4541	-48.294236	0.000365	3.649498	1.236483	-0.000146
1369	1.3612e+02	-14.5055	-48.350756	0.000142	1.419249	0.480855	-0.000057
1370	1.3622e+02	-14.5440	-48.471870	0.000304	3.041248	1.030403	-0.000122
1371	1.3631e+02	-14.5777	-48.601059	0.000324	3.243998	1.099096	-0.000130
1372	1.3641e+02	-14.6194	-48.730247	0.000324	3.243998	1.099096	-0.000130
1373	1.3651e+02	-14.6595	-48.794841	0.000162	1.621999	0.549548	-0.000065
1374	1.3661e+02	-14.6996	-48.952289	0.000395	3.953623	1.339524	-0.000158
1375	1.3671e+02	-14.7461	-49.061292	0.000274	2.737124	0.927363	-0.000110
1376	1.3681e+02	-14.7798	-49.137998	0.000193	1.926124	0.652588	-0.000077
1377	1.3691e+02	-14.8199	-49.259112	0.000304	3.041248	1.030403	-0.000122
1378	1.3701e+02	-14.8648	-49.392337	0.000335	3.345373	1.133443	-0.000134
1379	1.3711e+02	-14.8969	-49.481154	0.000223	2.230249	0.755629	-0.000089
1380	1.3721e+02	-14.9338	-49.622454	0.000355	3.548123	1.202137	-0.000142
1381	1.3731e+02	-14.9883	-49.707234	0.000213	2.128874	0.721282	-0.000085
1382	1.3741e+02	-15.0204	-49.864682	0.000395	3.953623	1.339524	-0.000158
1383	1.3751e+02	-15.0541	-49.973685	0.000274	2.737124	0.927363	-0.000110
1384	1.3761e+02	-15.0990	-50.074613	0.000253	2.534374	0.858669	-0.000101
1385	1.3771e+02	-15.1552	-50.187653	0.000284	2.838499	0.961709	-0.000114
1386	1.3781e+02	-15.1712	-50.304730	0.000294	2.939874	0.996056	-0.000118
1387	1.3791e+02	-15.2113	-50.421807	0.000294	2.939874	0.996056	-0.000118
1388	1.3801e+02	-15.2482	-50.486401	0.000162	1.621999	0.549548	-0.000065
1389	1.3811e+02	-15.2964	-50.607515	0.000304	3.041248	1.030403	-0.000122
1390	1.3821e+02	-15.3349	-50.704406	0.000243	2.432999	0.824322	-0.000097
1391	1.3831e+02	-15.3830	-50.809372	0.000264	2.635749	0.893016	-0.000105
1392	1.3840e+02	-15.4215	-50.934523	0.000314	3.142623	1.064750	-0.000126
1393	1.3850e+02	-15.4616	-51.083897	0.000375	3.750873	1.270830	-0.000150
1394	1.3860e+02	-15.4985	-51.192900	0.000274	2.737124	0.927363	-0.000110
1395	1.3870e+02	-15.5434	-51.285754	0.000233	2.331624	0.789976	-0.000093
1396	1.3880e+02	-15.5787	-51.402831	0.000294	2.939874	0.996056	-0.000118
1397	1.3890e+02	-15.6124	-51.511833	0.000274	2.737124	0.927363	-0.000110
1398	1.3900e+02	-15.6605	-51.636985	0.000314	3.142623	1.064750	-0.000126
1399	1.3910e+02	-15.7022	-51.741950	0.000264	2.635749	0.893016	-0.000105
1400	1.3920e+02	-15.7391	-51.911510	0.000426	4.257748	1.442564	-0.000170
1401	1.3930e+02	-15.7776	-52.016475	0.000264	2.635749	0.893016	-0.000105
1402	1.3940e+02	-15.8129	-52.113367	0.000243	2.432999	0.824322	-0.000097
1403	1.3950e+02	-15.8546	-52.202184	0.000223	2.230249	0.755629	-0.000089
1404	1.3960e+02	-15.8899	-52.291001	0.000223	2.230249	0.755629	-0.000089
1405	1.3970e+02	-15.9413	-52.428263	0.000345	3.446748	1.167790	-0.000138
1406	1.3980e+02	-15.9798	-52.509006	0.000203	2.027499	0.686935	-0.000081
1407	1.3990e+02	-16.0102	-52.638194	0.000324	3.243998	1.099096	-0.000130
1408	1.4000e+02	-16.0520	-52.743160	0.000264	2.635749	0.893016	-0.000105
1409	1.4010e+02	-16.0889	-52.864274	0.000304	3.041248	1.030403	-0.000122
1410	1.4020e+02	-16.1274	-52.961165	0.000243	2.432999	0.824322	-0.000097
1411	1.4029e+02	-16.1771	-53.074205	0.000284	2.838499	0.961709	-0.000114
1412	1.4039e+02	-16.2140	-53.195319	0.000304	3.041248	1.030403	-0.000122
1413	1.4049e+02	-16.2621	-53.332582	0.000345	3.446748	1.167790	-0.000138
1414	1.4059e+02	-16.2974	-53.429473	0.000243	2.432999	0.824322	-0.000097
1415	1.4069e+02	-16.3375	-53.526364	0.000243	2.432999	0.824322	-0.000097
1416	1.4079e+02	-16.3728	-53.703998	0.000446	4.460498	1.511258	-0.000179
1417	1.4089e+02	-16.4193	-53.800889	0.000243	2.432999	0.824322	-0.000097
1418	1.4099e+02	-16.4530	-53.926041	0.000314	3.142623	1.064750	-0.000126
1419	1.4109e+02	-16.4899	-54.026969	0.000253	2.534374	0.858669	-0.000101
1420	1.4119e+02	-16.5348	-54.172306	0.000365	3.649498	1.236483	-0.000146
1421	1.4129e+02	-16.5653	-54.244974	0.000182	1.824749	0.618242	-0.000073
1422	1.4139e+02	-16.6134	-54.325717	0.000203	2.027499	0.686935	-0.000081
1423	1.4149e+02	-16.6535	-54.454905	0.000324	3.243998	1.099096	-0.000130
1424	1.4159e+02	-16.7049	-54.571982	0.000294	2.939874	0.996056	-0.000118
1425	1.4169e+02	-16.7402	-54.632539	0.000152	1.520624	0.515201	-0.000061
1426	1.4179e+02	-16.7755	-54.794025	0.000405	4.054998	1.373870	-0.000162
1427	1.4189e+02	-16.8124	-54.862656	0.000172	1.723374	0.583895	-0.000069
1428	1.4199e+02	-16.8557	-55.012030	0.000375	3.750873	1.270830	-0.000150
1429	1.4209e+02	-16.8894	-55.125070	0.000284	2.838499	0.961709	-0.000114
1430	1.4219e+02	-16.9407	-55.230035	0.000264	2.635749	0.893016	-0.000105
1431	1.4228e+02	-16.9680	-55.335001	0.000264	2.635749	0.893016	-0.000105
1432	1.4238e+02	-17.0177	-55.464189	0.000324	3.243998	1.099096	-0.000130
1433	1.4248e+02	-17.0530	-55.609526	0.000365	3.649498	1.236483	-0.000146
1434	1.4258e+02	-17.0915	-55.783123	0.000436	4.359123	1.476911	-0.000174
1435	1.4268e+02	-17.1220	-55.847717	0.000162	1.621999	0.549548	-0.000065
1436	1.4278e+02	-17.1733	-55.960757	0.000284	2.838499	0.961709	-0.000114
1437	1.4288e+02	-17.2134	-56.118205	0.000395	3.953623	1.339524	-0.000158
1438	1.4298e+02	-17.2471	-56.219134	0.000253	2.534374	0.858669	-0.000101
1439	1.4308e+02	-17.2888	-56.303914	0.000213	2.128874	0.721282	-0.000085
1440	1.4318e+02	-17.3257	-56.380619	0.000193	1.926124	0.652588	-0.000077
1441	1.4328e+02	-17.3706	-56.493659	0.000284	2.838499	0.961709	-0.000114
1442	1.4338e+02	-17.4107	-56.602662	0.000274	2.737124	0.927363	-0.000110
1443	1.4348e+02	-17.4476	-56.687441	0.000213	2.128874	0.721282	-0.000085
1444	1.4358e+02	-17.4829	-56.824704	0.000345	3.446748	1.167790	-0.000138
1445	1.4368e+02	-17.5391	-56.990227	0.000416	4.156373	1.408217	-0.000166
1446	1.4378e+02	-17.5647	-57.103266	0.000284	2.838499	0.961709	-0.000114
1447	1.4388e+02	-17.6097	-57.224381	0.000304	3.041248	1.030403	-0.000122
1448	1.4398e+02	-17.6578	-57.345495	0.000304	3.041248	1.030403	-0.000122
1449	1.4408e+02	-17.6867	-57.490831	0.000365	3.649498	1.236483	-0.000146
1450	1.4418e+02	-17.7236	-57.615983	0.000314	3.142623	1.064750	-0.000126
1451	1.4428e+02	-17.7685	-57.737097	0.000304	3.041248	1.030403	-0.000122
1452	1.4437e+02	-17.8118	-57.858211	0.000304	3.041248	1.030403	-0.000122
1453	1.4447e+02	-17.8455	-57.979325	0.000304	3.041248	1.030403	-0.000122
1454	1.4457e+02	-17.8920	-58.100439	0.000304	3.041248	1.030403	-0.000122
1455	1.4467e+02	-17.9225	-58.249813	0.000375	3.750873	1.270830	-0.000150
1456	1.4477e+02	-17.9642	-58.290184	0.000101	1.013749	0.343468	-0.000041
1457	1.4487e+02	-18.0139	-58.451670	0.000405	4.054998	1.373870	-0.000162
1458	1.4497e+02	-18.0476	-58.540487	0.000223	2.230249	0.755629	-0.000089
1459	1.4507e+02	-18.0877	-58.641415	0.000253	2.534374	0.858669	-0.000101
1460	1.4517e+02	-18.1359	-58.802901	0.000405	4.054998	1.373870	-0.000162
1461	1.4527e+02	-18.1711	-58.915940	0.000284	2.838499	0.961709	-0.000114
1462	1.4537e+02	-18.2161	-59.028980	0.000284	2.838499	0.961709	-0.000114
1463	1.4547e+02	-18.2449	-59.137983	0.000274	2.737124	0.927363	-0.000110
1464	1.4557e+02	-18.2883	-59.279283	0.000355	3.548123	1.202137	-0.000142
1465	1.4567e+02	-18.3268	-59.428657	0.000375	3.750873	1.270830	-0.000150
1466	1.4577e+02	-18.3604	-59.525548	0.000243	2.432999	0.824322	-0.000097
1467	1.4587e+02	-18.4054	-59.695108	0.000426	4.257748	1.442564	-0.000170
1468	1.4597e+02	-18.4342	-59.804110	0.000274	2.737124	0.927363	-0.000110
1469	1.4607e+02	-18.4872	-59.925224	0.000304	3.041248	1.030403	-0.000122
1470	1.4617e+02	-18.5337	-60.042301	0.000294	2.939874	0.996056	-0.000118
1471	1.4626e+02	-18.5626	-60.187638	0.000365	3.649498	1.236483	-0.000146
1472	1.4636e+02	-18.6011	-60.292604	0.000264	2.635749	0.893016	-0.000105
1473	1.4646e+02	-18.6444	-60.421792	0.000324	3.243998	1.099096	-0.000130
1474	1.4656e+02	-18.6845	-60.502535	0.000203	2.027499	0.686935	-0.000081
1475	1.4666e+02	-18.7262	-60.659983	0.000395	3.953623	1.339524	-0.000158
1476	1.4676e+02	-18.7567	-60.728614	0.000172	1.723374	0.583895	-0.000069
1477	1.4686e+02	-18.8048	-60.877988	0.000375	3.750873	1.270830	-0.000150
1478	1.4696e+02	-18.8481	-60.991028	0.000284	2.838499	0.961709	-0.000114
1479	1.4706e+02	-18.8834	-61.128291	0.000345	3.446748	1.167790	-0.000138
1480	1.4716e+02	-18.9283	-61.253442	0.000314	3.142623	1.064750	-0.000126
1481	1.4726e+02	-18.9684	-61.386667	0.000335	3.345373	1.133443	-0.000134
1482	1.4736e+02	-19.0134	-61.499707	0.000284	2.838499	0.961709	-0.000114
1483	1.4746e+02	-19.0358	-61.632933	0.000335	3.345373	1.133443	-0.000134
1484	1.4756e+02	-19.0872	-61.798455	0.000416	4.156373	1.408217	-0.000166
1485	1.4766e+02	-19.1192	-61.943792	0.000365	3.649498	1.236483	-0.000146
1486	1.4776e+02	-19.1577	-62.113352	0.000426	4.257748	1.442564	-0.000170
1487	1.4786e+02	-19.2027	-62.177946	0.000162	1.621999	0.549548	-0.000065
1488	1.4796e+02	-19.2460	-62.363654	0.000466	4.663248	1.579951	-0.000187
1489	1.4806e+02	-19.2845	-62.456508	0.000233	2.331624	0.789976	-0.000093
1490	1.4816e+02	-19.3214	-62.569548	0.000284	2.838499	0.961709	-0.000114
1491	1.4825e+02	-19.3663	-62.666439	0.000243	2.432999	0.824322	-0.000097
1492	1.4835e+02	-19.4016	-62.815814	0.000375	3.750873	1.270830	-0.000150
1493	1.4845e+02	-19.4449	-62.961150	0.000365	3.649498	1.236483	-0.000146
1494	1.4855e+02	-19.4882	-63.062079	0.000253	2.534374	0.858669	-0.000101
1495	1.4865e+02	-19.5155	-63.195304	0.000335	3.345373	1.133443	-0.000134
1496	1.4875e+02	-19.5588	-63.320455	0.000314	3.142623	1.064750	-0.000126
1497	1.4885e+02	-19.6150	-63.457718	0.000345	3.446748	1.167790	-0.000138
1498	1.4895e+02	-19.6470	-63.586906	0.000324	3.243998	1.099096	-0.000130
1499	1.4905e+02	-19.6695	-63.695909	0.000274	2.737124	0.927363	-0.000110
1500	1.4915e+02	-19.7224	-63.865469	0.000426	4.257748	1.442564	-0.000170
1501	1.4925e+02	-19.7513	-64.014843	0.000375	3.750873	1.270830	-0.000150
1502	1.4935e+02	-19.8075	-64.164217	0.000375	3.750873	1.270830	-0.000150
1503	1.4945e+02	-19.8331	-64.317628	0.000385	3.852248	1.305177	-0.000154
1504	1.4955e+02	-19.8716	-64.462965	0.000365	3.649498	1.236483	-0.000146
1505	1.4965e+02	-19.9262	-64.588116	0.000314	3.142623	1.064750	-0.000126
1506	1.4975e+02	-19.9615	-64.705193	0.000294	2.939874	0.996056	-0.000118
1507	1.4985e+02	-19.9984	-64.862641	0.000395	3.953623	1.339524	-0.000158
1508	1.4995e+02	-19.9647	-64.850530	0.000030	0.304125	0.103040	0.000012
1509	1.5005e+02	-19.9246	-64.842456	0.000020	0.202750	0.068694	0.000008
1510	1.5015e+02	-19.8780	-64.769787	0.000182	1.824749	0.618242	0.000073
1511	1.5025e+02	-19.8283	-64.693082	0.000193	1.926124	0.652588	0.000077
1512	1.5034e+02	-19.7962	-64.644636	0.000122	1.216499	0.412161	0.000049
1513	1.5044e+02	-19.7577	-64.596190	0.000122	1.216499	0.412161	0.000049
1514	1.5054e+02	-19.7208	-64.515448	0.000203	2.027499	0.686935	0.000081
1515	1.5064e+02	-19.6807	-64.539670	-0.000061	-0.608250	-0.206081	-0.000024
1516	1.5074e+02	-19.6358	-64.499299	0.000101	1.013749	0.343468	0.000041
1517	1.5084e+02	-19.6005	-64.426631	0.000182	1.824749	0.618242	0.000073
1518	1.5094e+02	-19.5524	-64.426631	0.000000	0.000000	0.000000	0.000000
1519	1.5104e+02	-19.5155	-64.309554	0.000294	2.939874	0.996056	0.000118
1520	1.5114e+02	-19.4786	-64.285331	0.000061	0.608250	0.206081	0.000024
1521	1.5124e+02	-19.4465	-64.244960	0.000101	1.013749	0.343468	0.000041
1522	1.5134e+02	-19.4096	-64.188440	0.000142	1.419249	0.480855	0.000057
1523	1.5144e+02	-19.3535	-64.152105	0.000091	0.912375	0.309121	0.000037
1524	1.5154e+02	-19.3310	-64.087511	0.000162	1.621999	0.549548	0.000065
1525	1.5164e+02	-19.2893	-64.043103	0.000112	1.115124	0.377814	0.000045
1526	1.5174e+02	-19.2428	-63.930063	0.000284	2.838499	0.961709	0.000114
1527	1.5184e+02	-19.2123	-63.889692	0.000101	1.013749	0.343468	0.000041
1528	1.5194e+02	-19.1626	-63.772615	0.000294	2.939874	0.996056	0.000118
1529	1.5204e+02	-19.1241	-63.720132	0.000132	1.317874	0.446508	0.000053
1530	1.5214e+02	-19.0840	-63.663612	0.000142	1.419249	0.480855	0.000057
1531	1.5224e+02	-19.0422	-63.586906	0.000193	1.926124	0.652588	0.000077
1532	1.5233e+02	-19.0021	-63.550572	0.000091	0.912375	0.309121	0.000037
1533	1.5243e+02	-18.9684	-63.449644	0.000253	2.534374	0.858669	0.000101
1534	1.5253e+02	-18.9283	-63.376975	0.000182	1.824749	0.618242	0.000073
1535	1.5263e+02	-18.8866	-63.352753	0.000061	0.608250	0.206081	0.000024
1536	1.5273e+02	-18.8449	-63.276047	0.000193	1.926124	0.652588	0.000077
1537	1.5283e+02	-18.7984	-63.199341	0.000193	1.926124	0.652588	0.000077
1538	1.5293e+02	-18.7711	-63.130710	0.000172	1.723374	0.583895	0.000069
1539	1.5303e+02	-18.7278	-63.086302	0.000112	1.115124	0.377814	0.000045
1540	1.5313e+02	-18.6845	-63.049967	0.000091	0.912375	0.309121	0.000037
1541	1.5323e+02	-18.6540	-62.953076	0.000243	2.432999	0.824322	0.000097
1542	1.5333e+02	-18.5979	-62.864259	0.000223	2.230249	0.755629	0.000089
1543	1.5343e+02	-18.5690	-62.795628	0.000172	1.723374	0.583895	0.000069
1544	1.5353e+02	-18.5321	-62.735071	0.000152	1.520624	0.515201	0.000061
1545	1.5363e+02	-18.4856	-62.613957	0.000304	3.041248	1.030403	0.000122
1546	1.5373e+02	-18.4487	-62.525140	0.000223	2.230249	0.755629	0.000089
1547	1.5383e+02	-18.4150	-62.460546	0.000162	1.621999	0.549548	0.000065
1548	1.5393e+02	-18.3749	-62.387877	0.000182	1.824749	0.618242	0.000073
1549	1.5403e+02	-18.3268	-62.339431	0.000122	1.216499	0.412161	0.000049
1550	1.5413e+02	-18.2866	-62.274837	0.000162	1.621999	0.549548	0.000065
1551	1.5422e+02	-18.2530	-62.202169	0.000182	1.824749	0.618242	0.000073
1552	1.5432e+02	-18.2016	-62.129500	0.000182	1.824749	0.618242	0.000073
1553	1.5442e+02	-18.1663	-62.056832	0.000182	1.824749	0.618242	0.000073
1554	1.5452e+02	-18.1182	-61.992238	0.000162	1.621999	0.549548	0.000065
1555	1.5462e+02	-18.0877	-61.899384	0.000233	2.331624	0.789976	0.000093
1556	1.5472e+02	-18.0476	-61.846901	0.000132	1.317874	0.446508	0.000053
1557	1.5482e+02	-17.9995	-61.754047	0.000233	2.331624	0.789976	0.000093
1558	1.5492e+02	-17.9658	-61.669267	0.000213	2.128874	0.721282	0.000085
1559	1.5502e+02	-17.9305	-61.568339	0.000253	2.534374	0.858669	0.000101
1560	1.5512e+02	-17.8952	-61.503744	0.000162	1.621999	0.549548	0.000065
1561	1.5522e+02	-17.8519	-61.423002	0.000203	2.027499	0.686935	0.000081
1562	1.5532e+02	-17.8150	-61.293813	0.000324	3.243998	1.099096	0.000130
1563	1.5542e+02	-17.7669	-61.249405	0.000112	1.115124	0.377814	0.000045
1564	1.5552e+02	-17.7364	-61.180774	0.000172	1.723374	0.583895	0.000069
1565	1.5562e+02	-17.6995	-61.075808	0.000264	2.635749	0.893016	0.000105
1566	1.5572e+02	-17.6466	-60.991028	0.000213	2.128874	0.721282	0.000085
1567	1.5582e+02	-17.6016	-60.934508	0.000142	1.419249	0.480855	0.000057
1568	1.5592e+02	-17.5680	-60.882025	0.000132	1.317874	0.446508	0.000053
1569	1.5602e+02	-17.5246	-60.813394	0.000172	1.723374	0.583895	0.000069
1570	1.5612e+02	-17.4910	-60.704392	0.000274	2.737124	0.927363	0.000110
1571	1.5622e+02	-17.4444	-60.647872	0.000142	1.419249	0.480855	0.000057
1572	1.5631e+02	-17.4059	-60.542906	0.000264	2.635749	0.893016	0.000105
1573	1.5641e+02	-17.3738	-60.486386	0.000142	1.419249	0.480855	0.000057
1574	1.5651e+02	-17.3353	-60.389495	0.000243	2.432999	0.824322	0.000097
1575	1.5661e+02	-17.2984	-60.316826	0.000182	1.824749	0.618242	0.000073
1576	1.5671e+02	-17.2567	-60.219935	0.000243	2.432999	0.824322	0.000097
1577	1.5681e+02	-17.2134	-60.114970	0.000264	2.635749	0.893016	0.000105
1578	1.5691e+02	-17.1749	-60.038264	0.000193	1.926124	0.652588	0.000077
1579	1.5701e+02	-17.1316	-59.937336	0.000253	2.534374	0.858669	0.000101
1580	1.5711e+02	-17.1011	-59.901002	0.000091	0.912375	0.309121	0.000037
1581	1.5721e+02	-17.0578	-59.767776	0.000335	3.345373	1.133443	0.000134
1582	1.5731e+02	-17.0145	-59.695108	0.000182	1.824749	0.618242	0.000073
1583	1.5741e+02	-16.9824	-59.582068	0.000284	2.838499	0.961709	0.000114
1584	1.5751e+02	-16.9311	-59.521511	0.000152	1.520624	0.515201	0.000061
1585	1.5761e+02	-16.8797	-59.460954	0.000152	1.520624	0.515201	0.000061
1586	1.5771e+02	-16.8460	-59.420582	0.000101	1.013749	0.343468	0.000041
1587	1.5781e+02	-16.8108	-59.291394	0.000324	3.243998	1.099096	0.000130
1588	1.5791e+02	-16.7723	-59.226800	0.000162	1.621999	0.549548	0.000065
1589	1.5801e+02	-16.7386	-59.142020	0.000213	2.128874	0.721282	0.000085
1590	1.5811e+02	-16.6969	-59.024943	0.000294	2.939874	0.996056	0.000118
1591	1.5821e+02	-16.6535	-58.980535	0.000112	1.115124	0.377814	0.000045
1592	1.5830e+02	-16.6086	-58.911903	0.000172	1.723374	0.583895	0.000069
1593	1.5840e+02	-16.5717	-58.823086	0.000223	2.230249	0.755629	0.000089
1594	1.5850e+02	-16.5364	-58.693898	0.000324	3.243998	1.099096	0.000130
1595	1.5860e+02	-16.4947	-58.564710	0.000324	3.243998	1.099096	0.000130
1596	1.5870e+02	-16.4594	-58.488004	0.000193	1.926124	0.652588	0.000077
1597	1.5880e+02	-16.4177	-58.403224	0.000213	2.128874	0.721282	0.000085
1598	1.5890e+02	-16.3792	-58.306333	0.000243	2.432999	0.824322	0.000097
1599	1.5900e+02	-16.3295	-58.201367	0.000264	2.635749	0.893016	0.000105
1600	1.5910e+02	-16.2878	-58.185219	0.000041	0.405500	0.137387	0.000016
1601	1.5920e+02	-16.2396	-58.092365	0.000233	2.331624	0.789976	0.000093
1602	1.5930e+02	-16.2092	-58.035845	0.000142	1.419249	0.480855	0.000057
1603	1.5940e+02	-16.1707	-57.951065	0.000213	2.128874	0.721282	0.000085
1604	1.5950e+02	-16.1402	-57.858211	0.000233	2.331624	0.789976	0.000093
1605	1.5960e+02	-16.0872	-57.769394	0.000223	2.230249	0.755629	0.000089
1606	1.5970e+02	-16.0487	-57.708837	0.000152	1.520624	0.515201	0.000061
1607	1.5980e+02	-16.0167	-57.563500	0.000365	3.649498	1.236483	0.000146
1608	1.5990e+02	-15.9766	-57.494869	0.000172	1.723374	0.583895	0.000069
1609	1.6000e+02	-15.9348	-57.422200	0.000182	1.824749	0.618242	0.000073
1610	1.6010e+02	-15.8979	-57.272826	0.000375	3.750873	1.270830	0.000150
1611	1.6019e+02	-15.8578	-57.220343	0.000132	1.317874	0.446508	0.000053
1612	1.6029e+02	-15.8129	-57.054821	0.000416	4.156373	1.408217	0.000166
1613	1.6039e+02	-15.7792	-56.994264	0.000152	1.520624	0.515201	0.000061
1614	1.6049e+02	-15.7375	-56.909484	0.000213	2.128874	0.721282	0.000085
1615	1.6059e+02	-15.6926	-56.812593	0.000243	2.432999	0.824322	0.000097
1616	1.6069e+02	-15.6557	-56.752036	0.000152	1.520624	0.515201	0.000061
1617	1.6079e+02	-15.6108	-56.663219	0.000223	2.230249	0.755629	0.000089
1618	1.6089e+02	-15.5771	-56.638996	0.000061	0.608250	0.206081	0.000024
1619	1.6099e+02	-15.5370	-56.529993	0.000274	2.737124	0.927363	0.000110
1620	1.6109e+02	-15.4953	-56.449250	0.000203	2.027499	0.686935	0.000081
1621	1.6119e+02	-15.4536	-56.340248	0.000274	2.737124	0.927363	0.000110
1622	1.6129e+02	-15.4183	-56.271616	0.000172	1.723374	0.583895	0.000069
1623	1.6139e+02	-15.3830	-56.178762	0.000233	2.331624	0.789976	0.000093
1624	1.6149e+02	-15.3381	-56.073797	0.000264	2.635749	0.893016	0.000105
1625	1.6159e+02	-15.3028	-55.980943	0.000233	2.331624	0.789976	0.000093
1626	1.6169e+02	-15.2595	-55.892126	0.000223	2.230249	0.755629	0.000089
1627	1.6179e+02	-15.2145	-55.779086	0.000284	2.838499	0.961709	0.000114
1628	1.6189e+02	-15.1728	-55.666046	0.000284	2.838499	0.961709	0.000114
1629	1.6199e+02	-15.1375	-55.544932	0.000304	3.041248	1.030403	0.000122
1630	1.6209e+02	-15.1039	-55.472264	0.000182	1.824749	0.618242	0.000073
1631	1.6219e+02	-15.0686	-55.363261	0.000274	2.737124	0.927363	0.000110
1632	1.6228e+02	-15.0236	-55.266370	0.000243	2.432999	0.824322	0.000097
1633	1.6238e+02	-14.9707	-55.205813	0.000152	1.520624	0.515201	0.000061
1634	1.6248e+02	-14.9386	-55.169478	0.000091	0.912375	0.309121	0.000037
1635	1.6258e+02	-14.8953	-55.036253	0.000335	3.345373	1.133443	0.000134
1636	1.6268e+02	-14.8600	-54.979733	0.000142	1.419249	0.480855	0.000057
1637	1.6278e+02	-14.8199	-54.862656	0.000294	2.939874	0.996056	0.000118
1638	1.6288e+02	-14.7750	-54.753653	0.000274	2.737124	0.927363	0.000110
1639	1.6298e+02	-14.7365	-54.689059	0.000162	1.621999	0.549548	0.000065
1640	1.6308e+02	-14.7108	-54.624465	0.000162	1.621999	0.549548	0.000065
1641	1.6318e+02	-14.6675	-54.495277	0.000324	3.243998	1.099096	0.000130
1642	1.6328e+02	-14.6210	-54.446831	0.000122	1.216499	0.412161	0.000049
1643	1.6338e+02	-14.5729	-54.329754	0.000294	2.939874	0.996056	0.000118
1644	1.6348e+02	-14.5327	-54.269197	0.000152	1.520624	0.515201	0.000061
1645	1.6358e+02	-14.5087	-54.115786	0.000385	3.852248	1.305177	0.000154
1646	1.6368e+02	-14.4573	-54.026969	0.000223	2.230249	0.755629	0.000089
1647	1.6378e+02	-14.4204	-53.901818	0.000314	3.142623	1.064750	0.000126
1648	1.6388e+02	-14.3803	-53.788778	0.000284	2.838499	0.961709	0.000114
1649	1.6398e+02	-14.3418	-53.720147	0.000172	1.723374	0.583895	0.000069
1650	1.6408e+02	-14.2969	-53.611144	0.000274	2.737124	0.927363	0.000110
1651	1.6418e+02	-14.2552	-53.562698	0.000122	1.216499	0.412161	0.000049
1652	1.6427e+02	-14.2247	-53.481956	0.000203	2.027499	0.686935	0.000081
1653	1.6437e+02	-14.1846	-53.421399	0.000152	1.520624	0.515201	0.000061
1654	1.6447e+02	-14.1477	-53.304322	0.000294	2.939874	0.996056	0.000118
1655	1.6457e+02	-14.1108	-53.195319	0.000274	2.737124	0.927363	0.000110
1656	1.6467e+02	-14.0595	-53.106502	0.000223	2.230249	0.755629	0.000089
1657	1.6477e+02	-14.0162	-53.005574	0.000253	2.534374	0.858669	0.000101
1658	1.6487e+02	-13.9873	-52.936942	0.000172	1.723374	0.583895	0.000069
1659	1.6497e+02	-13.9456	-52.827940	0.000274	2.737124	0.927363	0.000110
1660	1.6507e+02	-13.8975	-52.706826	0.000304	3.041248	1.030403	0.000122
1661	1.6517e+02	-13.8654	-52.642231	0.000162	1.621999	0.549548	0.000065
1662	1.6527e+02	-13.8365	-52.496895	0.000365	3.649498	1.236483	0.000146
1663	1.6537e+02	-13.7852	-52.375780	0.000304	3.041248	1.030403	0.000122
1664	1.6547e+02	-13.7451	-52.307149	0.000172	1.723374	0.583895	0.000069
1665	1.6557e+02	-13.6985	-52.242555	0.000162	1.621999	0.549548	0.000065
1666	1.6567e+02	-13.6633	-52.105292	0.000345	3.446748	1.167790	0.000138
1667	1.6577e+02	-13.6280	-52.020513	0.000213	2.128874	0.721282	0.000085
1668	1.6587e+02	-13.5798	-51.899398	0.000304	3.041248	1.030403	0.000122
1669	1.6597e+02	-13.5413	-51.863064	0.000091	0.912375	0.309121	0.000037
1670	1.6607e+02	-13.4996	-51.737913	0.000314	3.142623	1.064750	0.000126
1671	1.6616e+02	-13.4627	-51.669282	0.000172	1.723374	0.583895	0.000069
1672	1.6626e+02	-13.4354	-51.580465	0.000223	2.230249	0.755629	0.000089
1673	1.6636e+02	-13.3841	-51.467425	0.000284	2.838499	0.961709	0.000114
1674	1.6646e+02	-13.3360	-51.366497	0.000253	2.534374	0.858669	0.000101
1675	1.6656e+02	-13.3023	-51.273642	0.000233	2.331624	0.789976	0.000093
1676	1.6666e+02	-13.2654	-51.176751	0.000243	2.432999	0.824322	0.000097
1677	1.6676e+02	-13.2205	-51.059674	0.000294	2.939874	0.996056	0.000118
1678	1.6686e+02	-13.1820	-50.950672	0.000274	2.737124	0.927363	0.000110
1679	1.6696e+02	-13.1435	-50.853780	0.000243	2.432999	0.824322	0.000097
1680	1.6706e+02	-13.1114	-50.728629	0.000314	3.142623	1.064750	0.000126
1681	1.6716e+02	-13.0665	-50.659998	0.000172	1.723374	0.583895	0.000069
1682	1.6726e+02	-13.0264	-50.571181	0.000223	2.230249	0.755629	0.000089
1683	1.6736e+02	-12.9943	-50.466215	0.000264	2.635749	0.893016	0.000105
1684	1.6746e+02	-12.9430	-50.389510	0.000193	1.926124	0.652588	0.000077
1685	1.6756e+02	-12.9093	-50.280507	0.000274	2.737124	0.927363	0.000110
1686	1.6766e+02	-12.8595	-50.171504	0.000274	2.737124	0.927363	0.000110
1687	1.6776e+02	-12.8290	-50.078650	0.000233	2.331624	0.789976	0.000093
1688	1.6786e+02	-12.7777	-49.989833	0.000223	2.230249	0.755629	0.000089
1689	1.6796e+02	-12.7504	-49.888905	0.000253	2.534374	0.858669	0.000101
1690	1.6806e+02	-12.7087	-49.792014	0.000243	2.432999	0.824322	0.000097
1691	1.6816e+02	-12.6686	-49.711271	0.000203	2.027499	0.686935	0.000081
1692	1.6825e+02	-12.6317	-49.574008	0.000345	3.446748	1.167790	0.000138
1693	1.6835e+02	-12.5964	-49.533637	0.000101	1.013749	0.343468	0.000041
1694	1.6845e+02	-12.5451	-49.400411	0.000335	3.345373	1.133443	0.000134
1695	1.6855e+02	-12.5226	-49.251037	0.000375	3.750873	1.270830	0.000150
1696	1.6865e+02	-12.4697	-49.137998	0.000284	2.838499	0.961709	0.000114
1697	1.6875e+02	-12.4392	-49.008809	0.000324	3.243998	1.099096	0.000130
1698	1.6885e+02	-12.3927	-48.960364	0.000122	1.216499	0.412161	0.000049
1699	1.6895e+02	-12.3478	-48.867510	0.000233	2.331624	0.789976	0.000093
1700	1.6905e+02	-12.3045	-48.738321	0.000324	3.243998	1.099096	0.000130
1701	1.6915e+02	-12.2676	-48.645467	0.000233	2.331624	0.789976	0.000093
1702	1.6925e+02	-12.2339	-48.560687	0.000213	2.128874	0.721282	0.000085
1703	1.6935e+02	-12.1906	-48.419387	0.000355	3.548123	1.202137	0.000142
1704	1.6945e+02	-12.1505	-48.346719	0.000182	1.824749	0.618242	0.000073
1705	1.6955e+02	-12.1168	-48.261939	0.000213	2.128874	0.721282	0.000085
1706	1.6965e+02	-12.0767	-48.156974	0.000264	2.635749	0.893016	0.000105
1707	1.6975e+02	-12.0414	-48.035860	0.000304	3.041248	1.030403	0.000122
1708	1.6985e+02	-11.9948	-47.947043	0.000223	2.230249	0.755629	0.000089
1709	1.6995e+02	-11.9515	-47.825929	0.000304	3.041248	1.030403	0.000122
1710	1.7005e+02	-11.9130	-47.668480	0.000395	3.953623	1.339524	0.000158
1711	1.7015e+02	-11.8713	-47.567552	0.000253	2.534374	0.858669	0.000101
1712	1.7024e+02	-11.8360	-47.511032	0.000142	1.419249	0.480855	0.000057
1713	1.7034e+02	-11.7911	-47.349547	0.000405	4.054998	1.373870	0.000162
1714	1.7044e+02	-11.7414	-47.288989	0.000152	1.520624	0.515201	0.000061
1715	1.7054e+02	-11.7109	-47.232470	0.000142	1.419249	0.480855	0.000057
1716	1.7064e+02	-11.6724	-47.103281	0.000324	3.243998	1.099096	0.000130
1717	1.7074e+02	-11.6403	-46.990241	0.000284	2.838499	0.961709	0.000114
1718	1.7084e+02	-11.5874	-46.945833	0.000112	1.115124	0.377814	0.000045
1719	1.7094e+02	-11.5521	-46.836830	0.000274	2.737124	0.927363	0.000110
1720	1.7104e+02	-11.5152	-46.651122	0.000466	4.663248	1.579951	0.000187
1721	1.7114e+02	-11.4687	-46.647085	0.000010	0.101375	0.034347	0.000004
1722	1.7124e+02	-11.4366	-46.449265	0.000497	4.967372	1.682991	0.000199
1723	1.7134e+02	-11.3949	-46.364485	0.000213	2.128874	0.721282	0.000085
1724	1.7144e+02	-11.3419	-46.263557	0.000253	2.534374	0.858669	0.000101
1725	1.7154e+02	-11.3243	-46.158591	0.000264	2.635749	0.893016	0.000105
1726	1.7164e+02	-11.2681	-45.997106	0.000405	4.054998	1.373870	0.000162
1727	1.7174e+02	-11.2377	-45.900215	0.000243	2.432999	0.824322	0.000097
1728	1.7184e+02	-11.1975	-45.823509	0.000193	1.926124	0.652588	0.000077
1729	1.7194e+02	-11.1574	-45.702395	0.000304	3.041248	1.030403	0.000122
1730	1.7204e+02	-11.1077	-45.589355	0.000284	2.838499	0.961709	0.000114
1731	1.7213e+02	-11.0772	-45.553021	0.000091	0.912375	0.309121	0.000037
1732	1.7223e+02	-11.0355	-45.375387	0.000446	4.460498	1.511258	0.000179
1733	1.7233e+02	-11.0002	-45.339053	0.000091	0.912375	0.309121	0.000037
1734	1.7243e+02	-10.9553	-45.238125	0.000253	2.534374	0.858669	0.000101
1735	1.7253e+02	-10.9088	-45.121048	0.000294	2.939874	0.996056	0.000118
1736	1.7263e+02	-10.8735	-45.020119	0.000253	2.534374	0.858669	0.000101
1737	1.7273e+02	-10.8318	-44.894968	0.000314	3.142623	1.064750	0.000126
1738	1.7283e+02	-10.7901	-44.785965	0.000274	2.737124	0.927363	0.000110
1739	1.7293e+02	-10.7532	-44.660814	0.000314	3.142623	1.064750	0.000126
1740	1.7303e+02	-10.7211	-44.567960	0.000233	2.331624	0.789976	0.000093
1741	1.7313e+02	-10.6778	-44.414549	0.000385	3.852248	1.305177	0.000154
1742	1.7323e+02	-10.6377	-44.366103	0.000122	1.216499	0.412161	0.000049
1743	1.7333e+02	-10.6024	-44.188469	0.000446	4.460498	1.511258	0.000179
1744	1.7343e+02	-10.5591	-44.075429	0.000284	2.838499	0.961709	0.000114
1745	1.7353e+02	-10.5109	-43.962390	0.000284	2.838499	0.961709	0.000114
1746	1.7363e+02	-10.4837	-43.873573	0.000223	2.230249	0.755629	0.000089
1747	1.7373e+02	-10.4339	-43.776681	0.000243	2.432999	0.824322	0.000097
1748	1.7383e+02	-10.3986	-43.667679	0.000274	2.737124	0.927363	0.000110
1749	1.7393e+02	-10.3585	-43.607122	0.000152	1.520624	0.515201	0.000061
1750	1.7403e+02	-10.3200	-43.473896	0.000335	3.345373	1.133443	0.000134
1751	1.7413e+02	-10.2815	-43.393153	0.000203	2.027499	0.686935	0.000081
1752	1.7422e+02	-10.2462	-43.259928	0.000335	3.345373	1.133443	0.000134
1753	1.7432e+02	-10.2029	-43.167074	0.000233	2.331624	0.789976	0.000093
1754	1.7442e+02	-10.1596	-43.074220	0.000233	2.331624	0.789976	0.000093
1755	1.7452e+02	-10.1227	-42.908697	0.000416	4.156373	1.408217	0.000166
1756	1.7462e+02	-10.0810	-42.787583	0.000304	3.041248	1.030403	0.000122
1757	1.7472e+02	-10.0377	-42.706840	0.000203	2.027499	0.686935	0.000081
1758	1.7482e+02	-9.9944	-42.585726	0.000304	3.041248	1.030403	0.000122
1759	1.7492e+02	-9.9639	-42.456538	0.000324	3.243998	1.099096	0.000130
1760	1.7502e+02	-9.9158	-42.303127	0.000385	3.852248	1.305177	0.000154
1761	1.7512e+02	-9.8757	-42.202198	0.000253	2.534374	0.858669	0.000101
1762	1.7522e+02	-9.8356	-42.109344	0.000233	2.331624	0.789976	0.000093
1763	1.7532e+02	-9.7987	-42.000342	0.000274	2.737124	0.927363	0.000110
1764	1.7542e+02	-9.7585	-41.871153	0.000324	3.243998	1.099096	0.000130
1765	1.7552e+02	-9.7265	-41.782336	0.000223	2.230249	0.755629	0.000089
1766	1.7562e+02	-9.6639	-41.649111	0.000335	3.345373	1.133443	0.000134
1767	1.7572e+02	-9.6382	-41.527997	0.000304	3.041248	1.030403	0.000122
1768	1.7582e+02	-9.6013	-41.483588	0.000112	1.115124	0.377814	0.000045
1769	1.7592e+02	-9.5628	-41.366511	0.000294	2.939874	0.996056	0.000118
1770	1.7602e+02	-9.5179	-41.257509	0.000274	2.737124	0.927363	0.000110
1771	1.7612e+02	-9.4890	-41.132357	0.000314	3.142623	1.064750	0.000126
1772	1.7621e+02	-9.4473	-40.995095	0.000345	3.446748	1.167790	0.000138
1773	1.7631e+02	-9.4040	-40.938575	0.000142	1.419249	0.480855	0.000057
1774	1.7641e+02	-9.3575	-40.769015	0.000426	4.257748	1.442564	0.000170
1775	1.7651e+02	-9.3270	-40.611567	0.000395	3.953623	1.339524	0.000158
1776	1.7661e+02	-9.2821	-40.494490	0.000294	2.939874	0.996056	0.000118
1777	1.7671e+02	-9.2468	-40.385487	0.000274	2.737124	0.927363	0.000110
1778	1.7681e+02	-9.2051	-40.260336	0.000314	3.142623	1.064750	0.000126
1779	1.7691e+02	-9.1682	-40.135185	0.000314	3.142623	1.064750	0.000126
1780	1.7701e+02	-9.1185	-40.018108	0.000294	2.939874	0.996056	0.000118
1781	1.7711e+02	-9.0864	-39.969662	0.000122	1.216499	0.412161	0.000049
1782	1.7721e+02	-9.0350	-39.860660	0.000274	2.737124	0.927363	0.000110
1783	1.7731e+02	-8.9933	-39.743583	0.000294	2.939874	0.996056	0.000118
1784	1.7741e+02	-8.9564	-39.642654	0.000253	2.534374	0.858669	0.000101
1785	1.7751e+02	-8.9340	-39.517503	0.000314	3.142623	1.064750	0.000126
1786	1.7761e+02	-8.8858	-39.388315	0.000324	3.243998	1.099096	0.000130
1787	1.7771e+02	-8.8441	-39.279312	0.000274	2.737124	0.927363	0.000110
1788	1.7781e+02	-8.8008	-39.158198	0.000304	3.041248	1.030403	0.000122
1789	1.7791e+02	-8.7495	-39.049195	0.000274	2.737124	0.927363	0.000110
1790	1.7801e+02	-8.7286	-38.932118	0.000294	2.939874	0.996056	0.000118
1791	1.7810e+02	-8.6789	-38.798893	0.000335	3.345373	1.133443	0.000134
1792	1.7820e+02	-8.6484	-38.706039	0.000233	2.331624	0.789976	0.000093
1793	1.7830e+02	-8.6147	-38.524368	0.000456	4.561873	1.545604	0.000183
1794	1.7840e+02	-8.5698	-38.435551	0.000223	2.230249	0.755629	0.000089
1795	1.7850e+02	-8.5217	-38.294251	0.000355	3.548123	1.202137	0.000142
1796	1.7860e+02	-8.4896	-38.152951	0.000355	3.548123	1.202137	0.000142
1797	1.7870e+02	-8.4463	-38.052023	0.000253	2.534374	0.858669	0.000101
1798	1.7880e+02	-8.4078	-37.991466	0.000152	1.520624	0.515201	0.000061
1799	1.7890e+02	-8.3661	-37.906686	0.000213	2.128874	0.721282	0.000085
1800	1.7900e+02	-8.3244	-37.765386	0.000355	3.548123	1.202137	0.000142
1801	1.7910e+02	-8.2859	-37.636198	0.000324	3.243998	1.099096	0.000130
1802	1.7920e+02	-8.2458	-37.498935	0.000345	3.446748	1.167790	0.000138
1803	1.7930e+02	-8.2105	-37.393970	0.000264	2.635749	0.893016	0.000105
1804	1.7940e+02	-8.1591	-37.289004	0.000264	2.635749	0.893016	0.000105
1805	1.7950e+02	-8.1367	-37.163853	0.000314	3.142623	1.064750	0.000126
1806	1.7960e+02	-8.0869	-37.038702	0.000314	3.142623	1.064750	0.000126
1807	1.7970e+02	-8.0388	-36.893365	0.000365	3.649498	1.236483	0.000146
1808	1.7980e+02	-8.0131	-36.820696	0.000182	1.824749	0.618242	0.000073
1809	1.7990e+02	-7.9698	-36.683434	0.000345	3.446748	1.167790	0.000138
1810	1.8000e+02	-7.9249	-36.509837	0.000436	4.359123	1.476911	0.000174
1811	1.8009e+02	-7.8960	-36.388723	0.000304	3.041248	1.030403	0.000122
1812	1.8019e+02	-7.8527	-36.247423	0.000355	3.548123	1.202137	0.000142
1813	1.8029e+02	-7.8110	-36.138421	0.000274	2.737124	0.927363	0.000110
1814	1.8039e+02	-7.7661	-36.041529	0.000243	2.432999	0.824322	0.000097
1815	1.8049e+02	-7.7260	-35.904267	0.000345	3.446748	1.167790	0.000138
1816	1.8059e+02	-7.6779	-35.859858	0.000112	1.115124	0.377814	0.000045
1817	1.8069e+02	-7.6570	-35.674150	0.000466	4.663248	1.579951	0.000187
1818	1.8079e+02	-7.6057	-35.557073	0.000294	2.939874	0.996056	0.000118
1819	1.8089e+02	-7.5656	-35.452107	0.000264	2.635749	0.893016	0.000105
1820	1.8099e+02	-7.5222	-35.347142	0.000264	2.635749	0.893016	0.000105
1821	1.8109e+02	-7.4886	-35.209879	0.000345	3.446748	1.167790	0.000138
1822	1.8119e+02	-7.4468	-35.125099	0.000213	2.128874	0.721282	0.000085
1823	1.8129e+02	-7.4019	-34.975725	0.000375	3.750873	1.270830	0.000150
1824	1.8139e+02	-7.3731	-34.862686	0.000284	2.838499	0.961709	0.000114
1825	1.8149e+02	-7.3346	-34.729460	0.000335	3.345373	1.133443	0.000134
1826	1.8159e+02	-7.2848	-34.596235	0.000335	3.345373	1.133443	0.000134
1827	1.8169e+02	-7.2479	-34.430712	0.000416	4.156373	1.408217	0.000166
1828	1.8179e+02	-7.2094	-34.317672	0.000284	2.838499	0.961709	0.000114
1829	1.8189e+02	-7.1741	-34.180410	0.000345	3.446748	1.167790	0.000138
1830	1.8199e+02	-7.1324	-34.047184	0.000335	3.345373	1.133443	0.000134
1831	1.8209e+02	-7.0923	-33.926070	0.000304	3.041248	1.030403	0.000122
1832	1.8218e+02	-7.0426	-33.776696	0.000375	3.750873	1.270830	0.000150
1833	1.8228e+02	-7.0073	-33.695953	0.000203	2.027499	0.686935	0.000081
1834	1.8238e+02	-6.9736	-33.574839	0.000304	3.041248	1.030403	0.000122
1835	1.8248e+02	-6.9287	-33.481985	0.000233	2.331624	0.789976	0.000093
1836	1.8258e+02	-6.8854	-33.332611	0.000375	3.750873	1.270830	0.000150
1837	1.8268e+02	-6.8549	-33.199386	0.000335	3.345373	1.133443	0.000134
1838	1.8278e+02	-6.8116	-33.078272	0.000304	3.041248	1.030403	0.000122
1839	1.8288e+02	-6.7715	-32.949083	0.000324	3.243998	1.099096	0.000130
1840	1.8298e+02	-6.7378	-32.823932	0.000314	3.142623	1.064750	0.000126
1841	1.8308e+02	-6.7009	-32.743189	0.000203	2.027499	0.686935	0.000081
1842	1.8318e+02	-6.6608	-32.569593	0.000436	4.359123	1.476911	0.000174
1843	1.8328e+02	-6.6175	-32.379847	0.000476	4.764623	1.614298	0.000191
1844	1.8338e+02	-6.5629	-32.262770	0.000294	2.939874	0.996056	0.000118
1845	1.8348e+02	-6.5292	-32.145693	0.000294	2.939874	0.996056	0.000118
1846	1.8358e+02	-6.4955	-32.024579	0.000304	3.041248	1.030403	0.000122
1847	1.8368e+02	-6.4442	-31.879242	0.000365	3.649498	1.236483	0.000146
1848	1.8378e+02	-6.4185	-31.746017	0.000335	3.345373	1.133443	0.000134
1849	1.8388e+02	-6.3736	-31.685460	0.000152	1.520624	0.515201	0.000061
1850	1.8398e+02	-6.3383	-31.564346	0.000304	3.041248	1.030403	0.000122
1851	1.8407e+02	-6.2950	-31.427083	0.000345	3.446748	1.167790	0.000138
1852	1.8417e+02	-6.2533	-31.301932	0.000314	3.142623	1.064750	0.000126
1853	1.8427e+02	-6.2180	-31.136409	0.000416	4.156373	1.408217	0.000166
1854	1.8437e+02	-6.1731	-31.043555	0.000233	2.331624	0.789976	0.000093
1855	1.8447e+02	-6.1330	-30.906293	0.000345	3.446748	1.167790	0.000138
1856	1.8457e+02	-6.0977	-30.764993	0.000355	3.548123	1.202137	0.000142
1857	1.8467e+02	-6.0624	-30.619656	0.000365	3.649498	1.236483	0.000146
1858	1.8477e+02	-6.0111	-30.490468	0.000324	3.243998	1.099096	0.000130
1859	1.8487e+02	-5.9870	-30.365316	0.000314	3.142623	1.064750	0.000126
1860	1.8497e+02	-5.9405	-30.207868	0.000395	3.953623	1.339524	0.000158
1861	1.8507e+02	-5.8988	-30.050420	0.000395	3.953623	1.339524	0.000158
1862	1.8517e+02	-5.8554	-29.933343	0.000294	2.939874	0.996056	0.000118
1863	1.8527e+02	-5.8169	-29.771858	0.000405	4.054998	1.373870	0.000162
1864	1.8537e+02	-5.7752	-29.650743	0.000304	3.041248	1.030403	0.000122
1865	1.8547e+02	-5.7432	-29.517518	0.000335	3.345373	1.133443	0.000134
1866	1.8557e+02	-5.6934	-29.384292	0.000335	3.345373	1.133443	0.000134
1867	1.8567e+02	-5.6549	-29.303550	0.000203	2.027499	0.686935	0.000081
1868	1.8577e+02	-5.6116	-29.158213	0.000365	3.649498	1.236483	0.000146
1869	1.8587e+02	-5.5843	-29.065359	0.000233	2.331624	0.789976	0.000093
1870	1.8597e+02	-5.5362	-28.891762	0.000436	4.359123	1.476911	0.000174
1871	1.8606e+02	-5.4993	-28.734314	0.000395	3.953623	1.339524	0.000158
1872	1.8616e+02	-5.4608	-28.645497	0.000223	2.230249	0.755629	0.000089
1873	1.8626e+02	-5.4207	-28.467863	0.000446	4.460498	1.511258	0.000179
1874	1.8636e+02	-5.3806	-28.366934	0.000253	2.534374	0.858669	0.000101
1875	1.8646e+02	-5.3405	-28.249857	0.000294	2.939874	0.996056	0.000118
1876	1.8656e+02	-5.2988	-28.043963	0.000517	5.170122	1.751685	0.000207
1877	1.8666e+02	-5.2571	-27.890552	0.000385	3.852248	1.305177	0.000154
1878	1.8676e+02	-5.2250	-27.773475	0.000294	2.939874	0.996056	0.000118
1879	1.8686e+02	-5.1865	-27.603916	0.000426	4.257748	1.442564	0.000170
1880	1.8696e+02	-5.1400	-27.462616	0.000355	3.548123	1.202137	0.000142
1881	1.8706e+02	-5.0966	-27.349576	0.000284	2.838499	0.961709	0.000114
1882	1.8716e+02	-5.0614	-27.200202	0.000375	3.750873	1.270830	0.000150
1883	1.8726e+02	-5.0245	-27.131571	0.000172	1.723374	0.583895	0.000069
1884	1.8736e+02	-4.9860	-26.957974	0.000436	4.359123	1.476911	0.000174
1885	1.8746e+02	-4.9362	-26.808600	0.000375	3.750873	1.270830	0.000150
1886	1.8756e+02	-4.9041	-26.683449	0.000314	3.142623	1.064750	0.000126
1887	1.8766e+02	-4.8640	-26.542149	0.000355	3.548123	1.202137	0.000142
1888	1.8776e+02	-4.8255	-26.388738	0.000385	3.852248	1.305177	0.000154
1889	1.8786e+02	-4.7790	-26.267624	0.000304	3.041248	1.030403	0.000122
1890	1.8796e+02	-4.7421	-26.122287	0.000365	3.649498	1.236483	0.000146
1891	1.8806e+02	-4.7004	-25.985024	0.000345	3.446748	1.167790	0.000138
1892	1.8815e+02	-4.6699	-25.835650	0.000375	3.750873	1.270830	0.000150
1893	1.8825e+02	-4.6170	-25.690313	0.000365	3.649498	1.236483	0.000146
1894	1.8835e+02	-4.5913	-25.536902	0.000385	3.852248	1.305177	0.000154
1895	1.8845e+02	-4.5512	-25.375417	0.000405	4.054998	1.373870	0.000162
1896	1.8855e+02	-4.4983	-25.242191	0.000335	3.345373	1.133443	0.000134
1897	1.8865e+02	-4.4662	-25.076669	0.000416	4.156373	1.408217	0.000166
1898	1.8875e+02	-4.4245	-24.947480	0.000324	3.243998	1.099096	0.000130
1899	1.8885e+02	-4.3763	-24.810218	0.000345	3.446748	1.167790	0.000138
1900	1.8895e+02	-4.3330	-24.741586	0.000172	1.723374	0.583895	0.000069
1901	1.8905e+02	-4.3074	-24.600287	0.000355	3.548123	1.202137	0.000142
1902	1.8915e+02	-4.2657	-24.438801	0.000405	4.054998	1.373870	0.000162
1903	1.8925e+02	-4.2304	-24.253093	0.000466	4.663248	1.579951	0.000187
1904	1.8935e+02	-4.1919	-24.107756	0.000365	3.649498	1.236483	0.000146
1905	1.8945e+02	-4.1373	-23.958382	0.000375	3.750873	1.270830	0.000150
1906	1.8955e+02	-4.1149	-23.841305	0.000294	2.939874	0.996056	0.000118
1907	1.8965e+02	-4.0587	-23.659634	0.000456	4.561873	1.545604	0.000183
1908	1.8975e+02	-4.0266	-23.546594	0.000284	2.838499	0.961709	0.000114
1909	1.8985e+02	-3.9833	-23.397220	0.000375	3.750873	1.270830	0.000150
1910	1.8995e+02	-3.9368	-23.223623	0.000436	4.359123	1.476911	0.000174
1911	1.9004e+02	-3.9095	-23.082324	0.000355	3.548123	1.202137	0.000142
1912	1.9014e+02	-3.8646	-22.864318	0.000547	5.474247	1.854725	0.000219
1913	1.9024e+02	-3.8261	-22.755316	0.000274	2.737124	0.927363	0.000110
1914	1.9034e+02	-3.7828	-22.638239	0.000294	2.939874	0.996056	0.000118
1915	1.9044e+02	-3.7427	-22.428308	0.000527	5.271497	1.786032	0.000211
1916	1.9054e+02	-3.6994	-22.351602	0.000193	1.926124	0.652588	0.000077
1917	1.9064e+02	-3.6673	-22.194154	0.000395	3.953623	1.339524	0.000158
1918	1.9074e+02	-3.6304	-22.040743	0.000385	3.852248	1.305177	0.000154
1919	1.9084e+02	-3.5871	-21.879257	0.000405	4.054998	1.373870	0.000162
1920	1.9094e+02	-3.5470	-21.754106	0.000314	3.142623	1.064750	0.000126
1921	1.9104e+02	-3.5052	-21.600695	0.000385	3.852248	1.305177	0.000154
1922	1.9114e+02	-3.4684	-21.439209	0.000405	4.054998	1.373870	0.000162
1923	1.9124e+02	-3.4347	-21.314058	0.000314	3.142623	1.064750	0.000126
1924	1.9134e+02	-3.3865	-21.120276	0.000487	4.865998	1.648645	0.000195
1925	1.9144e+02	-3.3464	-20.978976	0.000355	3.548123	1.202137	0.000142
1926	1.9154e+02	-3.3031	-20.821528	0.000395	3.953623	1.339524	0.000158
1927	1.9164e+02	-3.2710	-20.700413	0.000304	3.041248	1.030403	0.000122
1928	1.9174e+02	-3.2277	-20.506631	0.000487	4.865998	1.648645	0.000195
1929	1.9184e+02	-3.1908	-20.312848	0.000487	4.865998	1.648645	0.000195
1930	1.9194e+02	-3.1491	-20.163474	0.000375	3.750873	1.270830	0.000150
1931	1.9203e+02	-3.1042	-20.038323	0.000314	3.142623	1.064750	0.000126
1932	1.9213e+02	-3.0673	-19.892986	0.000365	3.649498	1.236483	0.000146
1933	1.9223e+02	-3.0224	-19.699204	0.000487	4.865998	1.648645	0.000195
1934	1.9233e+02	-2.9951	-19.582127	0.000294	2.939874	0.996056	0.000118
1935	1.9243e+02	-2.9470	-19.440827	0.000355	3.548123	1.202137	0.000142
1936	1.9253e+02	-2.9133	-19.291453	0.000375	3.750873	1.270830	0.000150
1937	1.9263e+02	-2.8780	-19.150153	0.000355	3.548123	1.202137	0.000142
1938	1.9273e+02	-2.8315	-18.968482	0.000456	4.561873	1.545604	0.000183
1939	1.9283e+02	-2.7946	-18.806997	0.000405	4.054998	1.373870	0.000162
1940	1.9293e+02	-2.7432	-18.702031	0.000264	2.635749	0.893016	0.000105
1941	1.9303e+02	-2.7063	-18.500175	0.000507	5.068747	1.717338	0.000203
1942	1.9313e+02	-2.6727	-18.330615	0.000426	4.257748	1.442564	0.000170
1943	1.9323e+02	-2.6309	-18.161055	0.000426	4.257748	1.442564	0.000170
1944	1.9333e+02	-2.5956	-18.023793	0.000345	3.446748	1.167790	0.000138
1945	1.9343e+02	-2.5555	-17.838084	0.000466	4.663248	1.579951	0.000187
1946	1.9353e+02	-2.5122	-17.652376	0.000466	4.663248	1.579951	0.000187
1947	1.9363e+02	-2.4673	-17.494928	0.000395	3.953623	1.339524	0.000158
1948	1.9373e+02	-2.4416	-17.301145	0.000487	4.865998	1.648645	0.000195
1949	1.9383e+02	-2.3823	-17.188105	0.000284	2.838499	0.961709	0.000114
1950	1.9393e+02	-2.3454	-17.042769	0.000365	3.649498	1.236483	0.000146
1951	1.9403e+02	-2.3053	-16.925692	0.000294	2.939874	0.996056	0.000118
1952	1.9412e+02	-2.2668	-16.723835	0.000507	5.068747	1.717338	0.000203
1953	1.9422e+02	-2.2315	-16.602721	0.000304	3.041248	1.030403	0.000122
1954	1.9432e+02	-2.1978	-16.437198	0.000416	4.156373	1.408217	0.000166
1955	1.9442e+02	-2.1400	-16.235341	0.000507	5.068747	1.717338	0.000203
1956	1.9452e+02	-2.1144	-16.057707	0.000446	4.460498	1.511258	0.000179
1957	1.9462e+02	-2.0679	-15.928519	0.000324	3.243998	1.099096	0.000130
1958	1.9472e+02	-2.0278	-15.762996	0.000416	4.156373	1.408217	0.000166
1959	1.9482e+02	-1.9828	-15.569214	0.000487	4.865998	1.648645	0.000195
1960	1.9492e+02	-1.9524	-15.427914	0.000355	3.548123	1.202137	0.000142
1961	1.9502e+02	-1.9138	-15.246243	0.000456	4.561873	1.545604	0.000183
1962	1.9512e+02	-1.8737	-15.052461	0.000487	4.865998	1.648645	0.000195
1963	1.9522e+02	-1.8320	-14.931347	0.000304	3.041248	1.030403	0.000122
1964	1.9532e+02	-1.7919	-14.689118	0.000608	6.082497	2.060806	0.000243
1965	1.9542e+02	-1.7566	-14.519559	0.000426	4.257748	1.442564	0.000170
1966	1.9552e+02	-1.7149	-14.374222	0.000365	3.649498	1.236483	0.000146
1967	1.9562e+02	-1.6764	-14.261182	0.000284	2.838499	0.961709	0.000114
1968	1.9572e+02	-1.6315	-14.075474	0.000466	4.663248	1.579951	0.000187
1969	1.9582e+02	-1.5882	-13.942248	0.000335	3.345373	1.133443	0.000134
1970	1.9592e+02	-1.5481	-13.796911	0.000365	3.649498	1.236483	0.000146
1971	1.9601e+02	-1.5080	-13.582943	0.000537	5.372872	1.820378	0.000215
1972	1.9611e+02	-1.4711	-13.433569	0.000375	3.750873	1.270830	0.000150
1973	1.9621e+02	-1.4326	-13.251898	0.000456	4.561873	1.545604	0.000183
1974	1.9631e+02	-1.3909	-13.082338	0.000426	4.257748	1.442564	0.000170
1975	1.9641e+02	-1.3540	-12.900667	0.000456	4.561873	1.545604	0.000183
1976	1.9651e+02	-1.3155	-12.710922	0.000476	4.764623	1.614298	0.000191
1977	1.9661e+02	-1.2770	-12.537325	0.000436	4.359123	1.476911	0.000174
1978	1.9671e+02	-1.2385	-12.331431	0.000517	5.170122	1.751685	0.000207
1979	1.9681e+02	-1.1984	-12.149760	0.000456	4.561873	1.545604	0.000183
1980	1.9691e+02	-1.1550	-11.972126	0.000446	4.460498	1.511258	0.000179
1981	1.9701e+02	-1.1165	-11.798529	0.000436	4.359123	1.476911	0.000174
1982	1.9711e+02	-1.0748	-11.624932	0.000436	4.359123	1.476911	0.000174
1983	1.9721e+02	-1.0347	-11.487670	0.000345	3.446748	1.167790	0.000138
1984	1.9731e+02	-0.9914	-11.322147	0.000416	4.156373	1.408217	0.000166
1985	1.9741e+02	-0.9561	-11.152587	0.000426	4.257748	1.442564	0.000170
1986	1.9751e+02	-0.9192	-10.991102	0.000405	4.054998	1.373870	0.000162
1987	1.9761e+02	-0.8695	-10.821542	0.000426	4.257748	1.442564	0.000170
1988	1.9771e+02	-0.8390	-10.664094	0.000395	3.953623	1.339524	0.000158
1989	1.9781e+02	-0.7941	-10.462237	0.000507	5.068747	1.717338	0.000203
1990	1.9791e+02	-0.7588	-10.288640	0.000436	4.359123	1.476911	0.000174
1991	1.9800e+02	-0.7171	-10.106969	0.000456	4.561873	1.545604	0.000183
1992	1.9810e+02	-0.6738	-9.913187	0.000487	4.865998	1.648645	0.000195
1993	1.9820e+02	-0.6417	-9.747664	0.000416	4.156373	1.408217	0.000166
1994	1.9830e+02	-0.5968	-9.561956	0.000466	4.663248	1.579951	0.000187
1995	1.9840e+02	-0.5519	-9.335876	0.000568	5.676997	1.923419	0.000227
1996	1.9850e+02	-0.5118	-9.202651	0.000335	3.345373	1.133443	0.000134
1997	1.9860e+02	-0.4813	-8.972534	0.000578	5.778372	1.957765	0.000231
1998	1.9870e+02	-0.4380	-8.819123	0.000385	3.852248	1.305177	0.000154
1999	1.9880e+02	-0.3946	-8.641489	0.000446	4.460498	1.511258	0.000179
2000	1.9890e+02	-0.3577	-8.488078	0.000385	3.852248	1.305177	0.000154
2001	1.9900e+02	-0.3208	-8.322555	0.000416	4.156373	1.408217	0.000166
2002	1.9910e+02	-0.2807	-8.124736	0.000497	4.967372	1.682991	0.000199
2003	1.9920e+02	-0.2310	-7.967287	0.000395	3.953623	1.339524	0.000158
2004	1.9930e+02	-0.2069	-7.781579	0.000466	4.663248	1.579951	0.000187
2005	1.9940e+02	-0.1588	-7.603945	0.000446	4.460498	1.511258	0.000179
2006	1.9950e+02	-0.1139	-7.406126	0.000497	4.967372	1.682991	0.000199
2007	1.9960e+02	-0.0786	-7.208306	0.000497	4.967372	1.682991	0.000199
2008	1.9970e+02	-0.0417	-7.071043	0.000345	3.446748	1.167790	0.000138
2009	1.9980e+02	-0.0016	-6.885335	0.000345	3.446748	1.167790	0.000187

Center data before PMax,+/-Pr and +/-Vc Calc.

PMax (uC/cm2):	6.49e+01
Pr (uC/cm2):	3.19e+00
-Pr (uC/cm2):	-6.89e+00
PLoss (uC/cm2):	-5.27e+00
Vc:	4.19e-01
-Vc:	-7.13e-01
C (Max-Eff) (nF):	3.24e-01
K (Eff):	1.10e+03
Vert. (+/-Pr) Shift (uC/cm2):	-1.85e+00
Horiz. Shift (+/-Vc):	-1.47e-01
Offset (uC/cm2):	1.68e+00

A (Loop Area - uC/cm2·Volts):	2.19e-02



Hysteresis Version: 5.48.1 - Radiant Technologies, Inc., 1999 - 9/12/24

