»»»»»»»»»»»»»»»»»»»»»»»»»»»»»»»»»»»» Hysteresis ««««««««««««««««««««««««««««««««««««
»»»  Executed Version:	5.48.1
»»»  Vision Version:	5.48.4 (R)
»»»  Vision Compiled:	9/18/24
»»»  Driver Version:	5.47.0
»»»  Windows Version:	Windows 8 or 8.1
»»»  Processor Information:	x86 (AMD or Intel) - 32 Processors
»»»  Tester Name:	PMF21124-494 (100V)
»»»  Tester S/N:	PMF21124-494
»»»  Internal Amp Type:	100V RevK 270k
»»»  Internal Amp S/N:	iAB2-596/K     
»»»  Execution Count:	1
»»»»»»»»»»»»»»»»»»»»»»»»»»»»»»»»»»»»»»»»»»««««««««««««««««««««««««««««««««««««««««««

Stored:	6/13/2025 - 12:0:26
Configured:	06/13/25 10:12:58 AM
Executed:	06/13/25 11:59:42 AM

»»»»»»»»»»»»»»»»»»»»»»»»»»»»»»»»»»» Sample Info ««««««««««««««««««««««««««««««««««««
Sample Name:	
Lot Name:	
Wafer Name:	
Die Row/Column:	0/0
Capacitor Number:	0
Sample Area (cm2):	1.00e-04
Sample Thickness (microns):	3.00e-01

Amplifier:	Internal

»»»»»»»»»»»»»»»»»»»»»»»»»»»»»»»»»»» Tester Info «««««««««««««««««««««««««««««««««««
Tester Name:	PMF21124-494 (100V)
Tester Serial Number:	PMF21124-494
Return Signal Amp. Level:	0.19 [Index: 3]

»»»»»»»»»»»»»»»»»»»»»»»»»»»»»»»» Hysteresis Info ««««««««««««««««««««««««««««««««««
Task Name:	Hyst-1704
Volts:	20.00
Field:	666.67 (kV/cm)
DCBias:	0.00
DCField:	0.00 (kV/cm)
Hysteresis Period (ms):	2.00e+02
Preset:	Enabled
Preset Delay (ms):	1.00e+03
Profile:	Standard Bipolar

»»»»»»»»»»»»»»»»»»»»»»»»»»»»»»»»»»»»»» Data «««««««««««««««««««««««««««««««««««««««
Points:	2009

Valid Data

Point	Time (ms)	Drive Voltage	Measured Polarization (uC/cm2)	Capacitance (uF)	Normalized Capacitance (uF/cm2)	Dielectric Constant	Instantaneous Current (mA)
   1	0.0000e+00	0.0000	-2.785624	0.000223	2.229891	0.755508	0.000089
   2	9.9500e-02	0.0369	-2.696807	0.000223	2.229891	0.755508	0.000089
   3	1.9900e-01	0.0706	-2.515136	0.000456	4.561141	1.545356	0.000183
   4	2.9850e-01	0.1123	-2.353650	0.000405	4.054347	1.373650	0.000162
   5	3.9800e-01	0.1540	-2.216388	0.000345	3.446195	1.167603	0.000138
   6	4.9750e-01	0.1909	-2.038754	0.000446	4.459782	1.511015	0.000179
   7	5.9700e-01	0.2358	-1.885342	0.000385	3.851630	1.304968	0.000154
   8	6.9650e-01	0.2727	-1.735968	0.000375	3.750271	1.270626	0.000150
   9	7.9600e-01	0.3160	-1.570446	0.000416	4.155706	1.407991	0.000166
  10	8.9550e-01	0.3481	-1.392812	0.000446	4.459782	1.511015	0.000179
  11	9.9500e-01	0.3898	-1.247475	0.000365	3.648913	1.236285	0.000146
  12	1.0945e+00	0.4299	-1.094064	0.000385	3.851630	1.304968	0.000154
  13	1.1940e+00	0.4700	-0.928541	0.000416	4.155706	1.407991	0.000166
  14	1.2935e+00	0.5085	-0.775130	0.000385	3.851630	1.304968	0.000154
  15	1.3930e+00	0.5390	-0.625756	0.000375	3.750271	1.270626	0.000150
  16	1.4925e+00	0.5871	-0.452159	0.000436	4.358423	1.476674	0.000174
  17	1.5920e+00	0.6240	-0.286637	0.000416	4.155706	1.407991	0.000166
  18	1.6915e+00	0.6738	-0.133225	0.000385	3.851630	1.304968	0.000154
  19	1.7910e+00	0.7155	0.012111	0.000365	3.648913	1.236285	0.000146
  20	1.8905e+00	0.7444	0.197820	0.000466	4.662499	1.579698	0.000187
  21	1.9900e+00	0.7989	0.343157	0.000365	3.648913	1.236285	0.000146
  22	2.0895e+00	0.8262	0.512716	0.000426	4.257065	1.442333	0.000170
  23	2.1890e+00	0.8631	0.694387	0.000456	4.561141	1.545356	0.000183
  24	2.2885e+00	0.9080	0.811464	0.000294	2.939402	0.995896	0.000118
  25	2.3880e+00	0.9497	1.001210	0.000476	4.763858	1.614039	0.000191
  26	2.4875e+00	0.9962	1.142509	0.000355	3.547554	1.201944	0.000142
  27	2.5870e+00	1.0299	1.312069	0.000426	4.257065	1.442333	0.000170
  28	2.6865e+00	1.0652	1.485666	0.000436	4.358423	1.476674	0.000174
  29	2.7860e+00	1.0973	1.618891	0.000334	3.344836	1.133261	0.000134
  30	2.8855e+00	1.1534	1.820748	0.000507	5.067934	1.717063	0.000203
  31	2.9850e+00	1.1887	1.949937	0.000324	3.243478	1.098920	0.000130
  32	3.0845e+00	1.2337	2.131608	0.000456	4.561141	1.545356	0.000183
  33	3.1840e+00	1.2689	2.252722	0.000304	3.040760	1.030238	0.000122
  34	3.2835e+00	1.3107	2.438430	0.000466	4.662499	1.579698	0.000187
  35	3.3830e+00	1.3460	2.636250	0.000497	4.966575	1.682721	0.000199
  36	3.4825e+00	1.3957	2.745252	0.000274	2.736684	0.927214	0.000110
  37	3.5820e+00	1.4310	2.943072	0.000497	4.966575	1.682721	0.000199
  38	3.6815e+00	1.4695	3.104557	0.000405	4.054347	1.373650	0.000162
  39	3.7810e+00	1.5016	3.245857	0.000355	3.547554	1.201944	0.000142
  40	3.8805e+00	1.5433	3.415417	0.000426	4.257065	1.442333	0.000170
  41	3.9800e+00	1.5898	3.572865	0.000395	3.952989	1.339309	0.000158
  42	4.0795e+00	1.6283	3.746462	0.000436	4.358423	1.476674	0.000174
  43	4.1790e+00	1.6572	3.911985	0.000416	4.155706	1.407991	0.000166
  44	4.2785e+00	1.7053	4.073470	0.000405	4.054347	1.373650	0.000162
  45	4.3780e+00	1.7518	4.218807	0.000365	3.648913	1.236285	0.000146
  46	4.4775e+00	1.7903	4.388367	0.000426	4.257065	1.442333	0.000170
  47	4.5770e+00	1.8304	4.561963	0.000436	4.358423	1.476674	0.000174
  48	4.6765e+00	1.8625	4.719412	0.000395	3.952989	1.339309	0.000158
  49	4.7760e+00	1.9106	4.856674	0.000345	3.446195	1.167603	0.000138
  50	4.8755e+00	1.9427	5.046420	0.000476	4.763858	1.614039	0.000191
  51	4.9750e+00	1.9828	5.228091	0.000456	4.561141	1.545356	0.000183
  52	5.0745e+00	2.0245	5.365353	0.000345	3.446195	1.167603	0.000138
  53	5.1740e+00	2.0695	5.526839	0.000405	4.054347	1.373650	0.000162
  54	5.2735e+00	2.1080	5.692361	0.000416	4.155706	1.407991	0.000166
  55	5.3730e+00	2.1449	5.882107	0.000476	4.763858	1.614039	0.000191
  56	5.4725e+00	2.1802	6.023407	0.000355	3.547554	1.201944	0.000142
  57	5.5720e+00	2.2283	6.180855	0.000395	3.952989	1.339309	0.000158
  58	5.6715e+00	2.2652	6.334266	0.000385	3.851630	1.304968	0.000154
  59	5.7710e+00	2.3053	6.499789	0.000416	4.155706	1.407991	0.000166
  60	5.8705e+00	2.3454	6.693571	0.000487	4.865217	1.648380	0.000195
  61	5.9700e+00	2.3839	6.838908	0.000365	3.648913	1.236285	0.000146
  62	6.0695e+00	2.4304	6.984245	0.000365	3.648913	1.236285	0.000146
  63	6.1690e+00	2.4561	7.145730	0.000405	4.054347	1.373650	0.000162
  64	6.2685e+00	2.5026	7.282993	0.000345	3.446195	1.167603	0.000138
  65	6.3680e+00	2.5395	7.476775	0.000487	4.865217	1.648380	0.000195
  66	6.4675e+00	2.5796	7.638261	0.000405	4.054347	1.373650	0.000162
  67	6.5670e+00	2.6213	7.823969	0.000466	4.662499	1.579698	0.000187
  68	6.6665e+00	2.6598	7.941046	0.000294	2.939402	0.995896	0.000118
  69	6.7660e+00	2.7079	8.102531	0.000405	4.054347	1.373650	0.000162
  70	6.8655e+00	2.7448	8.292277	0.000476	4.763858	1.614039	0.000191
  71	6.9650e+00	2.7882	8.482022	0.000476	4.763858	1.614039	0.000191
  72	7.0645e+00	2.8202	8.627359	0.000365	3.648913	1.236285	0.000146
  73	7.1640e+00	2.8636	8.768659	0.000355	3.547554	1.201944	0.000142
  74	7.2635e+00	2.9069	8.909959	0.000355	3.547554	1.201944	0.000142
  75	7.3630e+00	2.9454	9.059333	0.000375	3.750271	1.270626	0.000150
  76	7.4625e+00	2.9791	9.220818	0.000405	4.054347	1.373650	0.000162
  77	7.5620e+00	3.0192	9.394415	0.000436	4.358423	1.476674	0.000174
  78	7.6615e+00	3.0641	9.539752	0.000365	3.648913	1.236285	0.000146
  79	7.7610e+00	3.0962	9.709311	0.000426	4.257065	1.442333	0.000170
  80	7.8605e+00	3.1363	9.858685	0.000375	3.750271	1.270626	0.000150
  81	7.9600e+00	3.1844	10.040357	0.000456	4.561141	1.545356	0.000183
  82	8.0595e+00	3.2213	10.217991	0.000446	4.459782	1.511015	0.000179
  83	8.1590e+00	3.2566	10.367365	0.000375	3.750271	1.270626	0.000150
  84	8.2585e+00	3.2935	10.488479	0.000304	3.040760	1.030238	0.000122
  85	8.3580e+00	3.3352	10.637853	0.000375	3.750271	1.270626	0.000150
  86	8.4575e+00	3.3753	10.835672	0.000497	4.966575	1.682721	0.000199
  87	8.5570e+00	3.4154	10.976972	0.000355	3.547554	1.201944	0.000142
  88	8.6565e+00	3.4523	11.085975	0.000274	2.736684	0.927214	0.000110
  89	8.7560e+00	3.5085	11.291869	0.000517	5.169293	1.751404	0.000207
  90	8.8555e+00	3.5341	11.449317	0.000395	3.952989	1.339309	0.000158
  91	8.9550e+00	3.5806	11.590617	0.000355	3.547554	1.201944	0.000142
  92	9.0545e+00	3.6191	11.768251	0.000446	4.459782	1.511015	0.000179
  93	9.1540e+00	3.6528	11.909550	0.000355	3.547554	1.201944	0.000142
  94	9.2535e+00	3.6929	12.066999	0.000395	3.952989	1.339309	0.000158
  95	9.3530e+00	3.7411	12.224447	0.000395	3.952989	1.339309	0.000158
  96	9.4525e+00	3.7796	12.369784	0.000365	3.648913	1.236285	0.000146
  97	9.5520e+00	3.8197	12.547418	0.000446	4.459782	1.511015	0.000179
  98	9.6515e+00	3.8598	12.676606	0.000324	3.243478	1.098920	0.000130
  99	9.7510e+00	3.8951	12.854240	0.000446	4.459782	1.511015	0.000179
 100	9.8505e+00	3.9320	13.007651	0.000385	3.851630	1.304968	0.000154
 101	9.9500e+00	3.9689	13.157025	0.000375	3.750271	1.270626	0.000150
 102	1.0050e+01	4.0218	13.310437	0.000385	3.851630	1.304968	0.000154
 103	1.0149e+01	4.0619	13.435588	0.000314	3.142119	1.064579	0.000126
 104	1.0248e+01	4.1004	13.621296	0.000466	4.662499	1.579698	0.000187
 105	1.0348e+01	4.1421	13.782781	0.000405	4.054347	1.373650	0.000162
 106	1.0447e+01	4.1758	13.928118	0.000365	3.648913	1.236285	0.000146
 107	1.0547e+01	4.2207	14.053270	0.000314	3.142119	1.064579	0.000126
 108	1.0646e+01	4.2673	14.222829	0.000426	4.257065	1.442333	0.000170
 109	1.0746e+01	4.2945	14.376240	0.000385	3.851630	1.304968	0.000154
 110	1.0845e+01	4.3362	14.529652	0.000385	3.851630	1.304968	0.000154
 111	1.0945e+01	4.3828	14.703248	0.000436	4.358423	1.476674	0.000174
 112	1.1044e+01	4.4132	14.796102	0.000233	2.331250	0.789849	0.000093
 113	1.1144e+01	4.4517	15.022182	0.000568	5.676086	1.923110	0.000227
 114	1.1243e+01	4.5047	15.159445	0.000345	3.446195	1.167603	0.000138
 115	1.1343e+01	4.5320	15.288633	0.000324	3.243478	1.098920	0.000130
 116	1.1443e+01	4.5753	15.421859	0.000334	3.344836	1.133261	0.000134
 117	1.1542e+01	4.6138	15.595455	0.000436	4.358423	1.476674	0.000174
 118	1.1642e+01	4.6523	15.744829	0.000375	3.750271	1.270626	0.000150
 119	1.1741e+01	4.6940	15.898241	0.000385	3.851630	1.304968	0.000154
 120	1.1841e+01	4.7277	16.043577	0.000365	3.648913	1.236285	0.000146
 121	1.1940e+01	4.7646	16.168729	0.000314	3.142119	1.064579	0.000126
 122	1.2040e+01	4.8175	16.326177	0.000395	3.952989	1.339309	0.000158
 123	1.2139e+01	4.8480	16.475551	0.000375	3.750271	1.270626	0.000150
 124	1.2239e+01	4.8913	16.653185	0.000446	4.459782	1.511015	0.000179
 125	1.2338e+01	4.9458	16.774299	0.000304	3.040760	1.030238	0.000122
 126	1.2438e+01	4.9731	16.931747	0.000395	3.952989	1.339309	0.000158
 127	1.2537e+01	5.0100	17.060936	0.000324	3.243478	1.098920	0.000130
 128	1.2636e+01	5.0501	17.246644	0.000466	4.662499	1.579698	0.000187
 129	1.2736e+01	5.0918	17.363721	0.000294	2.939402	0.995896	0.000118
 130	1.2835e+01	5.1319	17.537318	0.000436	4.358423	1.476674	0.000174
 131	1.2935e+01	5.1704	17.670543	0.000334	3.344836	1.133261	0.000134
 132	1.3034e+01	5.2186	17.844140	0.000436	4.358423	1.476674	0.000174
 133	1.3134e+01	5.2539	17.924883	0.000203	2.027174	0.686825	0.000081
 134	1.3233e+01	5.2924	18.114628	0.000476	4.763858	1.614039	0.000191
 135	1.3333e+01	5.3341	18.284188	0.000426	4.257065	1.442333	0.000170
 136	1.3432e+01	5.3694	18.405302	0.000304	3.040760	1.030238	0.000122
 137	1.3532e+01	5.4223	18.530453	0.000314	3.142119	1.064579	0.000126
 138	1.3632e+01	5.4544	18.724236	0.000487	4.865217	1.648380	0.000195
 139	1.3731e+01	5.4961	18.853424	0.000324	3.243478	1.098920	0.000130
 140	1.3831e+01	5.5282	19.010872	0.000395	3.952989	1.339309	0.000158
 141	1.3930e+01	5.5635	19.107763	0.000243	2.432608	0.824190	0.000097
 142	1.4030e+01	5.6148	19.253100	0.000365	3.648913	1.236285	0.000146
 143	1.4129e+01	5.6533	19.406511	0.000385	3.851630	1.304968	0.000154
 144	1.4229e+01	5.6886	19.555886	0.000375	3.750271	1.270626	0.000150
 145	1.4328e+01	5.7287	19.717371	0.000405	4.054347	1.373650	0.000162
 146	1.4428e+01	5.7752	19.858671	0.000355	3.547554	1.201944	0.000142
 147	1.4527e+01	5.8089	20.032268	0.000436	4.358423	1.476674	0.000174
 148	1.4627e+01	5.8554	20.141270	0.000274	2.736684	0.927214	0.000110
 149	1.4726e+01	5.8779	20.258347	0.000294	2.939402	0.995896	0.000118
 150	1.4825e+01	5.9357	20.411758	0.000385	3.851630	1.304968	0.000154
 151	1.4925e+01	5.9661	20.549021	0.000345	3.446195	1.167603	0.000138
 152	1.5024e+01	6.0079	20.690321	0.000355	3.547554	1.201944	0.000142
 153	1.5124e+01	6.0576	20.892177	0.000507	5.067934	1.717063	0.000203
 154	1.5223e+01	6.0897	21.017329	0.000314	3.142119	1.064579	0.000126
 155	1.5323e+01	6.1314	21.174777	0.000395	3.952989	1.339309	0.000158
 156	1.5422e+01	6.1715	21.283780	0.000274	2.736684	0.927214	0.000110
 157	1.5522e+01	6.2100	21.429116	0.000365	3.648913	1.236285	0.000146
 158	1.5621e+01	6.2501	21.606750	0.000446	4.459782	1.511015	0.000179
 159	1.5721e+01	6.2950	21.748050	0.000355	3.547554	1.201944	0.000142
 160	1.5820e+01	6.3303	21.905499	0.000395	3.952989	1.339309	0.000158
 161	1.5920e+01	6.3640	22.022575	0.000294	2.939402	0.995896	0.000118
 162	1.6020e+01	6.4121	22.143690	0.000304	3.040760	1.030238	0.000122
 163	1.6119e+01	6.4474	22.301138	0.000395	3.952989	1.339309	0.000158
 164	1.6218e+01	6.4907	22.494920	0.000487	4.865217	1.648380	0.000195
 165	1.6318e+01	6.5180	22.616034	0.000304	3.040760	1.030238	0.000122
 166	1.6418e+01	6.5645	22.741186	0.000314	3.142119	1.064579	0.000126
 167	1.6517e+01	6.6062	22.858263	0.000294	2.939402	0.995896	0.000118
 168	1.6616e+01	6.6479	23.035897	0.000446	4.459782	1.511015	0.000179
 169	1.6716e+01	6.6848	23.148936	0.000284	2.838043	0.961555	0.000114
 170	1.6816e+01	6.7314	23.290236	0.000355	3.547554	1.201944	0.000142
 171	1.6915e+01	6.7795	23.439610	0.000375	3.750271	1.270626	0.000150
 172	1.7015e+01	6.8084	23.576873	0.000345	3.446195	1.167603	0.000138
 173	1.7114e+01	6.8469	23.758544	0.000456	4.561141	1.545356	0.000183
 174	1.7213e+01	6.8838	23.895806	0.000345	3.446195	1.167603	0.000138
 175	1.7313e+01	6.9175	24.024995	0.000324	3.243478	1.098920	0.000130
 176	1.7413e+01	6.9672	24.198592	0.000436	4.358423	1.476674	0.000174
 177	1.7512e+01	7.0073	24.299520	0.000253	2.533967	0.858531	0.000101
 178	1.7611e+01	7.0442	24.477154	0.000446	4.459782	1.511015	0.000179
 179	1.7711e+01	7.0827	24.602305	0.000314	3.142119	1.064579	0.000126
 180	1.7811e+01	7.1260	24.759753	0.000395	3.952989	1.339309	0.000158
 181	1.7910e+01	7.1677	24.905090	0.000365	3.648913	1.236285	0.000146
 182	1.8009e+01	7.2062	24.997944	0.000233	2.331250	0.789849	0.000093
 183	1.8109e+01	7.2527	25.159430	0.000405	4.054347	1.373650	0.000162
 184	1.8209e+01	7.2848	25.333027	0.000436	4.358423	1.476674	0.000174
 185	1.8308e+01	7.3281	25.462215	0.000324	3.243478	1.098920	0.000130
 186	1.8407e+01	7.3634	25.607552	0.000365	3.648913	1.236285	0.000146
 187	1.8507e+01	7.4148	25.752889	0.000365	3.648913	1.236285	0.000146
 188	1.8607e+01	7.4468	25.894189	0.000355	3.547554	1.201944	0.000142
 189	1.8706e+01	7.4837	26.051637	0.000395	3.952989	1.339309	0.000158
 190	1.8805e+01	7.5206	26.160640	0.000274	2.736684	0.927214	0.000110
 191	1.8905e+01	7.5624	26.322125	0.000405	4.054347	1.373650	0.000162
 192	1.9005e+01	7.6041	26.443239	0.000304	3.040760	1.030238	0.000122
 193	1.9104e+01	7.6506	26.576465	0.000334	3.344836	1.133261	0.000134
 194	1.9203e+01	7.6811	26.717764	0.000355	3.547554	1.201944	0.000142
 195	1.9303e+01	7.7180	26.883287	0.000416	4.155706	1.407991	0.000166
 196	1.9402e+01	7.7597	27.028624	0.000365	3.648913	1.236285	0.000146
 197	1.9502e+01	7.8062	27.169924	0.000355	3.547554	1.201944	0.000142
 198	1.9602e+01	7.8399	27.311223	0.000355	3.547554	1.201944	0.000142
 199	1.9701e+01	7.8864	27.428300	0.000294	2.939402	0.995896	0.000118
 200	1.9800e+01	7.9249	27.577674	0.000375	3.750271	1.270626	0.000150
 201	1.9900e+01	7.9618	27.739160	0.000405	4.054347	1.373650	0.000162
 202	2.0000e+01	7.9987	27.860274	0.000304	3.040760	1.030238	0.000122
 203	2.0099e+01	8.0388	27.989462	0.000324	3.243478	1.098920	0.000130
 204	2.0198e+01	8.0789	28.118650	0.000324	3.243478	1.098920	0.000130
 205	2.0298e+01	8.1222	28.288210	0.000426	4.257065	1.442333	0.000170
 206	2.0398e+01	8.1543	28.433547	0.000365	3.648913	1.236285	0.000146
 207	2.0497e+01	8.2008	28.578884	0.000365	3.648913	1.236285	0.000146
 208	2.0596e+01	8.2393	28.704035	0.000314	3.142119	1.064579	0.000126
 209	2.0696e+01	8.2794	28.857446	0.000385	3.851630	1.304968	0.000154
 210	2.0796e+01	8.3292	28.994709	0.000345	3.446195	1.167603	0.000138
 211	2.0895e+01	8.3709	29.127934	0.000334	3.344836	1.133261	0.000134
 212	2.0994e+01	8.3966	29.265197	0.000345	3.446195	1.167603	0.000138
 213	2.1094e+01	8.4383	29.398422	0.000334	3.344836	1.133261	0.000134
 214	2.1194e+01	8.4912	29.567982	0.000426	4.257065	1.442333	0.000170
 215	2.1293e+01	8.5313	29.681022	0.000284	2.838043	0.961555	0.000114
 216	2.1392e+01	8.5586	29.854619	0.000436	4.358423	1.476674	0.000174
 217	2.1492e+01	8.5923	29.967659	0.000284	2.838043	0.961555	0.000114
 218	2.1591e+01	8.6484	30.084736	0.000294	2.939402	0.995896	0.000118
 219	2.1691e+01	8.6853	30.278518	0.000487	4.865217	1.648380	0.000195
 220	2.1791e+01	8.7206	30.375409	0.000243	2.432608	0.824190	0.000097
 221	2.1890e+01	8.7495	30.508635	0.000334	3.344836	1.133261	0.000134
 222	2.1989e+01	8.7896	30.633786	0.000314	3.142119	1.064579	0.000126
 223	2.2089e+01	8.8506	30.815457	0.000456	4.561141	1.545356	0.000183
 224	2.2189e+01	8.8794	30.936571	0.000304	3.040760	1.030238	0.000122
 225	2.2288e+01	8.9211	31.094019	0.000395	3.952989	1.339309	0.000158
 226	2.2387e+01	8.9500	31.239356	0.000365	3.648913	1.236285	0.000146
 227	2.2487e+01	8.9997	31.364508	0.000314	3.142119	1.064579	0.000126
 228	2.2587e+01	9.0366	31.501770	0.000345	3.446195	1.167603	0.000138
 229	2.2686e+01	9.0735	31.639033	0.000345	3.446195	1.167603	0.000138
 230	2.2785e+01	9.1072	31.756110	0.000294	2.939402	0.995896	0.000118
 231	2.2885e+01	9.1554	31.921632	0.000416	4.155706	1.407991	0.000166
 232	2.2985e+01	9.2003	32.062932	0.000355	3.547554	1.201944	0.000142
 233	2.3084e+01	9.2308	32.192120	0.000324	3.243478	1.098920	0.000130
 234	2.3183e+01	9.2805	32.276900	0.000213	2.128532	0.721166	0.000085
 235	2.3283e+01	9.3238	32.438386	0.000405	4.054347	1.373650	0.000162
 236	2.3383e+01	9.3623	32.591797	0.000385	3.851630	1.304968	0.000154
 237	2.3482e+01	9.3944	32.708874	0.000294	2.939402	0.995896	0.000118
 238	2.3581e+01	9.4393	32.874396	0.000416	4.155706	1.407991	0.000166
 239	2.3681e+01	9.4730	32.995510	0.000304	3.040760	1.030238	0.000122
 240	2.3780e+01	9.5211	33.124699	0.000324	3.243478	1.098920	0.000130
 241	2.3880e+01	9.5612	33.286184	0.000405	4.054347	1.373650	0.000162
 242	2.3980e+01	9.5981	33.439595	0.000385	3.851630	1.304968	0.000154
 243	2.4079e+01	9.6366	33.532449	0.000233	2.331250	0.789849	0.000093
 244	2.4178e+01	9.6719	33.637415	0.000264	2.635326	0.892873	0.000105
 245	2.4278e+01	9.7136	33.794863	0.000395	3.952989	1.339309	0.000158
 246	2.4378e+01	9.7634	33.903866	0.000274	2.736684	0.927214	0.000110
 247	2.4477e+01	9.8003	34.073426	0.000426	4.257065	1.442333	0.000170
 248	2.4576e+01	9.8259	34.206651	0.000334	3.344836	1.133261	0.000134
 249	2.4676e+01	9.8821	34.319691	0.000284	2.838043	0.961555	0.000114
 250	2.4776e+01	9.9126	34.436768	0.000294	2.939402	0.995896	0.000118
 251	2.4875e+01	9.9478	34.578068	0.000355	3.547554	1.201944	0.000142
 252	2.4974e+01	9.9992	34.715330	0.000345	3.446195	1.167603	0.000138
 253	2.5074e+01	10.0393	34.864704	0.000375	3.750271	1.270626	0.000150
 254	2.5174e+01	10.0698	34.981781	0.000294	2.939402	0.995896	0.000118
 255	2.5273e+01	10.1211	35.123081	0.000355	3.547554	1.201944	0.000142
 256	2.5372e+01	10.1484	35.244195	0.000304	3.040760	1.030238	0.000122
 257	2.5472e+01	10.1933	35.381458	0.000345	3.446195	1.167603	0.000138
 258	2.5572e+01	10.2334	35.510646	0.000324	3.243478	1.098920	0.000130
 259	2.5671e+01	10.2767	35.676169	0.000416	4.155706	1.407991	0.000166
 260	2.5770e+01	10.3120	35.764986	0.000223	2.229891	0.755508	0.000089
 261	2.5870e+01	10.3553	35.878025	0.000284	2.838043	0.961555	0.000114
 262	2.5970e+01	10.3986	36.035474	0.000395	3.952989	1.339309	0.000158
 263	2.6069e+01	10.4339	36.184848	0.000375	3.750271	1.270626	0.000150
 264	2.6169e+01	10.4724	36.289813	0.000264	2.635326	0.892873	0.000105
 265	2.6268e+01	10.5045	36.423039	0.000334	3.344836	1.133261	0.000134
 266	2.6367e+01	10.5575	36.519930	0.000243	2.432608	0.824190	0.000097
 267	2.6467e+01	10.5911	36.705638	0.000466	4.662499	1.579698	0.000187
 268	2.6567e+01	10.6329	36.806567	0.000253	2.533967	0.858531	0.000101
 269	2.6666e+01	10.6810	36.935755	0.000324	3.243478	1.098920	0.000130
 270	2.6765e+01	10.7083	37.073017	0.000345	3.446195	1.167603	0.000138
 271	2.6865e+01	10.7516	37.202206	0.000324	3.243478	1.098920	0.000130
 272	2.6965e+01	10.7885	37.363691	0.000405	4.054347	1.373650	0.000162
 273	2.7064e+01	10.8318	37.460583	0.000243	2.432608	0.824190	0.000097
 274	2.7163e+01	10.8671	37.589771	0.000324	3.243478	1.098920	0.000130
 275	2.7263e+01	10.9072	37.714922	0.000314	3.142119	1.064579	0.000126
 276	2.7363e+01	10.9569	37.844110	0.000324	3.243478	1.098920	0.000130
 277	2.7462e+01	10.9938	37.981373	0.000345	3.446195	1.167603	0.000138
 278	2.7561e+01	11.0323	38.110561	0.000324	3.243478	1.098920	0.000130
 279	2.7661e+01	11.0708	38.239750	0.000324	3.243478	1.098920	0.000130
 280	2.7761e+01	11.1141	38.356827	0.000294	2.939402	0.995896	0.000118
 281	2.7860e+01	11.1430	38.473904	0.000294	2.939402	0.995896	0.000118
 282	2.7959e+01	11.1927	38.562721	0.000223	2.229891	0.755508	0.000089
 283	2.8059e+01	11.2312	38.736317	0.000436	4.358423	1.476674	0.000174
 284	2.8159e+01	11.2697	38.889729	0.000385	3.851630	1.304968	0.000154
 285	2.8258e+01	11.3098	38.982583	0.000233	2.331250	0.789849	0.000093
 286	2.8358e+01	11.3403	39.115808	0.000334	3.344836	1.133261	0.000134
 287	2.8457e+01	11.3884	39.208662	0.000233	2.331250	0.789849	0.000093
 288	2.8556e+01	11.4334	39.333813	0.000314	3.142119	1.064579	0.000126
 289	2.8656e+01	11.4671	39.475113	0.000355	3.547554	1.201944	0.000142
 290	2.8756e+01	11.5136	39.616413	0.000355	3.547554	1.201944	0.000142
 291	2.8855e+01	11.5569	39.693119	0.000193	1.925815	0.652484	0.000077
 292	2.8954e+01	11.5922	39.850567	0.000395	3.952989	1.339309	0.000158
 293	2.9054e+01	11.6291	39.999941	0.000375	3.750271	1.270626	0.000150
 294	2.9154e+01	11.6644	40.100869	0.000253	2.533967	0.858531	0.000101
 295	2.9253e+01	11.7029	40.201798	0.000253	2.533967	0.858531	0.000101
 296	2.9352e+01	11.7462	40.326949	0.000314	3.142119	1.064579	0.000126
 297	2.9452e+01	11.7927	40.460174	0.000334	3.344836	1.133261	0.000134
 298	2.9552e+01	11.8216	40.540917	0.000203	2.027174	0.686825	0.000081
 299	2.9651e+01	11.8601	40.750848	0.000527	5.270651	1.785745	0.000211
 300	2.9750e+01	11.9098	40.803331	0.000132	1.317663	0.446436	0.000053
 301	2.9850e+01	11.9499	40.944631	0.000355	3.547554	1.201944	0.000142
 302	2.9950e+01	11.9900	41.017299	0.000182	1.824456	0.618143	0.000073
 303	3.0049e+01	12.0334	41.198970	0.000456	4.561141	1.545356	0.000183
 304	3.0148e+01	12.0751	41.287787	0.000223	2.229891	0.755508	0.000089
 305	3.0248e+01	12.0991	41.392753	0.000264	2.635326	0.892873	0.000105
 306	3.0348e+01	12.1408	41.570387	0.000446	4.459782	1.511015	0.000179
 307	3.0447e+01	12.1777	41.663241	0.000233	2.331250	0.789849	0.000093
 308	3.0547e+01	12.2259	41.804541	0.000355	3.547554	1.201944	0.000142
 309	3.0646e+01	12.2740	41.905469	0.000253	2.533967	0.858531	0.000101
 310	3.0745e+01	12.3077	42.018509	0.000284	2.838043	0.961555	0.000114
 311	3.0845e+01	12.3526	42.204217	0.000466	4.662499	1.579698	0.000187
 312	3.0945e+01	12.3943	42.280923	0.000193	1.925815	0.652484	0.000077
 313	3.1044e+01	12.4232	42.381851	0.000253	2.533967	0.858531	0.000101
 314	3.1143e+01	12.4697	42.498928	0.000294	2.939402	0.995896	0.000118
 315	3.1243e+01	12.5002	42.648302	0.000375	3.750271	1.270626	0.000150
 316	3.1343e+01	12.5419	42.765379	0.000294	2.939402	0.995896	0.000118
 317	3.1442e+01	12.5804	42.902641	0.000345	3.446195	1.167603	0.000138
 318	3.1541e+01	12.6253	42.987421	0.000213	2.128532	0.721166	0.000085
 319	3.1641e+01	12.6542	43.108535	0.000304	3.040760	1.030238	0.000122
 320	3.1741e+01	12.7087	43.245798	0.000345	3.446195	1.167603	0.000138
 321	3.1840e+01	12.7472	43.370949	0.000314	3.142119	1.064579	0.000126
 322	3.1939e+01	12.7873	43.455729	0.000213	2.128532	0.721166	0.000085
 323	3.2039e+01	12.8242	43.597029	0.000355	3.547554	1.201944	0.000142
 324	3.2139e+01	12.8676	43.710069	0.000284	2.838043	0.961555	0.000114
 325	3.2238e+01	12.8996	43.831183	0.000304	3.040760	1.030238	0.000122
 326	3.2337e+01	12.9381	43.944223	0.000284	2.838043	0.961555	0.000114
 327	3.2437e+01	12.9831	44.069374	0.000314	3.142119	1.064579	0.000126
 328	3.2536e+01	13.0200	44.182414	0.000284	2.838043	0.961555	0.000114
 329	3.2636e+01	13.0633	44.263156	0.000203	2.027174	0.686825	0.000081
 330	3.2736e+01	13.1034	44.412530	0.000375	3.750271	1.270626	0.000150
 331	3.2835e+01	13.1419	44.553830	0.000355	3.547554	1.201944	0.000142
 332	3.2934e+01	13.1868	44.642647	0.000223	2.229891	0.755508	0.000089
 333	3.3034e+01	13.2221	44.723390	0.000203	2.027174	0.686825	0.000081
 334	3.3133e+01	13.2686	44.905061	0.000456	4.561141	1.545356	0.000183
 335	3.3233e+01	13.2959	44.969655	0.000162	1.621739	0.549460	0.000065
 336	3.3333e+01	13.3424	45.114992	0.000365	3.648913	1.236285	0.000146
 337	3.3432e+01	13.3825	45.260329	0.000365	3.648913	1.236285	0.000146
 338	3.3532e+01	13.4178	45.332997	0.000182	1.824456	0.618143	0.000073
 339	3.3631e+01	13.4563	45.462186	0.000324	3.243478	1.098920	0.000130
 340	3.3730e+01	13.4980	45.583300	0.000304	3.040760	1.030238	0.000122
 341	3.3830e+01	13.5381	45.716525	0.000334	3.344836	1.133261	0.000134
 342	3.3929e+01	13.5782	45.833602	0.000294	2.939402	0.995896	0.000118
 343	3.4029e+01	13.6183	45.934530	0.000253	2.533967	0.858531	0.000101
 344	3.4129e+01	13.6649	46.051607	0.000294	2.939402	0.995896	0.000118
 345	3.4228e+01	13.6985	46.184833	0.000334	3.344836	1.133261	0.000134
 346	3.4328e+01	13.7435	46.297873	0.000284	2.838043	0.961555	0.000114
 347	3.4427e+01	13.7820	46.398801	0.000253	2.533967	0.858531	0.000101
 348	3.4526e+01	13.8173	46.540101	0.000355	3.547554	1.201944	0.000142
 349	3.4626e+01	13.8542	46.673326	0.000334	3.344836	1.133261	0.000134
 350	3.4725e+01	13.8991	46.770218	0.000243	2.432608	0.824190	0.000097
 351	3.4825e+01	13.9408	46.895369	0.000314	3.142119	1.064579	0.000126
 352	3.4925e+01	13.9809	46.988223	0.000233	2.331250	0.789849	0.000093
 353	3.5024e+01	14.0194	47.133560	0.000365	3.648913	1.236285	0.000146
 354	3.5123e+01	14.0595	47.266785	0.000334	3.344836	1.133261	0.000134
 355	3.5223e+01	14.0980	47.363676	0.000243	2.432608	0.824190	0.000097
 356	3.5322e+01	14.1413	47.484791	0.000304	3.040760	1.030238	0.000122
 357	3.5422e+01	14.1718	47.626090	0.000355	3.547554	1.201944	0.000142
 358	3.5522e+01	14.2199	47.751242	0.000314	3.142119	1.064579	0.000126
 359	3.5621e+01	14.2504	47.827947	0.000193	1.925815	0.652484	0.000077
 360	3.5721e+01	14.2969	47.940987	0.000284	2.838043	0.961555	0.000114
 361	3.5820e+01	14.3418	48.074212	0.000334	3.344836	1.133261	0.000134
 362	3.5919e+01	14.3771	48.171104	0.000243	2.432608	0.824190	0.000097
 363	3.6019e+01	14.4076	48.300292	0.000324	3.243478	1.098920	0.000130
 364	3.6118e+01	14.4477	48.441592	0.000355	3.547554	1.201944	0.000142
 365	3.6218e+01	14.4958	48.558669	0.000294	2.939402	0.995896	0.000118
 366	3.6318e+01	14.5360	48.679783	0.000304	3.040760	1.030238	0.000122
 367	3.6417e+01	14.5761	48.788785	0.000274	2.736684	0.927214	0.000110
 368	3.6517e+01	14.6097	48.865491	0.000193	1.925815	0.652484	0.000077
 369	3.6616e+01	14.6531	49.002754	0.000345	3.446195	1.167603	0.000138
 370	3.6715e+01	14.6980	49.148090	0.000365	3.648913	1.236285	0.000146
 371	3.6815e+01	14.7317	49.277279	0.000324	3.243478	1.098920	0.000130
 372	3.6914e+01	14.7782	49.386281	0.000274	2.736684	0.927214	0.000110
 373	3.7014e+01	14.8039	49.471061	0.000213	2.128532	0.721166	0.000085
 374	3.7114e+01	14.8568	49.620435	0.000375	3.750271	1.270626	0.000150
 375	3.7213e+01	14.8905	49.741549	0.000304	3.040760	1.030238	0.000122
 376	3.7313e+01	14.9338	49.842478	0.000253	2.533967	0.858531	0.000101
 377	3.7412e+01	14.9755	49.959555	0.000294	2.939402	0.995896	0.000118
 378	3.7511e+01	15.0124	50.072595	0.000284	2.838043	0.961555	0.000114
 379	3.7611e+01	15.0605	50.209857	0.000345	3.446195	1.167603	0.000138
 380	3.7711e+01	15.1006	50.318860	0.000274	2.736684	0.927214	0.000110
 381	3.7810e+01	15.1263	50.431900	0.000284	2.838043	0.961555	0.000114
 382	3.7910e+01	15.1776	50.528791	0.000243	2.432608	0.824190	0.000097
 383	3.8009e+01	15.2097	50.645868	0.000294	2.939402	0.995896	0.000118
 384	3.8108e+01	15.2530	50.771019	0.000314	3.142119	1.064579	0.000126
 385	3.8208e+01	15.2819	50.875985	0.000264	2.635326	0.892873	0.000105
 386	3.8307e+01	15.3317	51.001136	0.000314	3.142119	1.064579	0.000126
 387	3.8407e+01	15.3637	51.130324	0.000324	3.243478	1.098920	0.000130
 388	3.8507e+01	15.4183	51.267587	0.000345	3.446195	1.167603	0.000138
 389	3.8606e+01	15.4536	51.380627	0.000284	2.838043	0.961555	0.000114
 390	3.8706e+01	15.4969	51.461369	0.000203	2.027174	0.686825	0.000081
 391	3.8805e+01	15.5322	51.634966	0.000436	4.358423	1.476674	0.000174
 392	3.8904e+01	15.5659	51.719746	0.000213	2.128532	0.721166	0.000085
 393	3.9004e+01	15.6092	51.812600	0.000233	2.331250	0.789849	0.000093
 394	3.9103e+01	15.6541	51.961974	0.000375	3.750271	1.270626	0.000150
 395	3.9203e+01	15.6894	52.010420	0.000122	1.216304	0.412095	0.000049
 396	3.9303e+01	15.7327	52.200165	0.000476	4.763858	1.614039	0.000191
 397	3.9402e+01	15.7712	52.305131	0.000264	2.635326	0.892873	0.000105
 398	3.9502e+01	15.8081	52.393948	0.000223	2.229891	0.755508	0.000089
 399	3.9601e+01	15.8514	52.494876	0.000253	2.533967	0.858531	0.000101
 400	3.9700e+01	15.8915	52.628101	0.000334	3.344836	1.133261	0.000134
 401	3.9800e+01	15.9284	52.761327	0.000334	3.344836	1.133261	0.000134
 402	3.9900e+01	15.9685	52.846107	0.000213	2.128532	0.721166	0.000085
 403	3.9999e+01	16.0054	52.975295	0.000324	3.243478	1.098920	0.000130
 404	4.0099e+01	16.0552	53.068149	0.000233	2.331250	0.789849	0.000093
 405	4.0198e+01	16.0856	53.233672	0.000416	4.155706	1.407991	0.000166
 406	4.0297e+01	16.1306	53.286155	0.000132	1.317663	0.446436	0.000053
 407	4.0397e+01	16.1755	53.395157	0.000274	2.736684	0.927214	0.000110
 408	4.0496e+01	16.2092	53.540494	0.000365	3.648913	1.236285	0.000146
 409	4.0596e+01	16.2525	53.641423	0.000253	2.533967	0.858531	0.000101
 410	4.0696e+01	16.2782	53.798871	0.000395	3.952989	1.339309	0.000158
 411	4.0795e+01	16.3231	53.831168	0.000081	0.810869	0.274730	0.000032
 412	4.0895e+01	16.3776	53.968431	0.000345	3.446195	1.167603	0.000138
 413	4.0994e+01	16.4049	54.109730	0.000355	3.547554	1.201944	0.000142
 414	4.1093e+01	16.4450	54.218733	0.000274	2.736684	0.927214	0.000110
 415	4.1193e+01	16.4819	54.315624	0.000243	2.432608	0.824190	0.000097
 416	4.1292e+01	16.5284	54.428664	0.000284	2.838043	0.961555	0.000114
 417	4.1392e+01	16.5797	54.557852	0.000324	3.243478	1.098920	0.000130
 418	4.1492e+01	16.6070	54.662818	0.000264	2.635326	0.892873	0.000105
 419	4.1591e+01	16.6503	54.775858	0.000284	2.838043	0.961555	0.000114
 420	4.1691e+01	16.6904	54.860638	0.000213	2.128532	0.721166	0.000085
 421	4.1790e+01	16.7289	54.969640	0.000274	2.736684	0.927214	0.000110
 422	4.1889e+01	16.7658	55.066531	0.000243	2.432608	0.824190	0.000097
 423	4.1989e+01	16.8108	55.195720	0.000324	3.243478	1.098920	0.000130
 424	4.2089e+01	16.8444	55.320871	0.000314	3.142119	1.064579	0.000126
 425	4.2188e+01	16.8862	55.405651	0.000213	2.128532	0.721166	0.000085
 426	4.2288e+01	16.9214	55.522728	0.000294	2.939402	0.995896	0.000118
 427	4.2387e+01	16.9616	55.627693	0.000264	2.635326	0.892873	0.000105
 428	4.2486e+01	17.0081	55.744770	0.000294	2.939402	0.995896	0.000118
 429	4.2586e+01	17.0434	55.841662	0.000243	2.432608	0.824190	0.000097
 430	4.2685e+01	17.0883	55.962776	0.000304	3.040760	1.030238	0.000122
 431	4.2785e+01	17.1204	56.087927	0.000314	3.142119	1.064579	0.000126
 432	4.2885e+01	17.1605	56.184818	0.000243	2.432608	0.824190	0.000097
 433	4.2984e+01	17.1942	56.297858	0.000284	2.838043	0.961555	0.000114
 434	4.3084e+01	17.2471	56.390712	0.000233	2.331250	0.789849	0.000093
 435	4.3183e+01	17.2824	56.483566	0.000233	2.331250	0.789849	0.000093
 436	4.3282e+01	17.3257	56.645052	0.000405	4.054347	1.373650	0.000162
 437	4.3382e+01	17.3658	56.721757	0.000193	1.925815	0.652484	0.000077
 438	4.3481e+01	17.4091	56.830760	0.000274	2.736684	0.927214	0.000110
 439	4.3581e+01	17.4460	56.915540	0.000213	2.128532	0.721166	0.000085
 440	4.3681e+01	17.4797	57.068951	0.000385	3.851630	1.304968	0.000154
 441	4.3780e+01	17.5327	57.129508	0.000152	1.520380	0.515119	0.000061
 442	4.3880e+01	17.5567	57.226399	0.000243	2.432608	0.824190	0.000097
 443	4.3979e+01	17.6081	57.363662	0.000345	3.446195	1.167603	0.000138
 444	4.4078e+01	17.6498	57.464590	0.000253	2.533967	0.858531	0.000101
 445	4.4178e+01	17.6979	57.565518	0.000253	2.533967	0.858531	0.000101
 446	4.4278e+01	17.7155	57.686633	0.000304	3.040760	1.030238	0.000122
 447	4.4377e+01	17.7589	57.787561	0.000253	2.533967	0.858531	0.000101
 448	4.4477e+01	17.8038	57.872341	0.000213	2.128532	0.721166	0.000085
 449	4.4576e+01	17.8391	57.993455	0.000304	3.040760	1.030238	0.000122
 450	4.4675e+01	17.8776	58.094383	0.000253	2.533967	0.858531	0.000101
 451	4.4775e+01	17.9209	58.215497	0.000304	3.040760	1.030238	0.000122
 452	4.4874e+01	17.9498	58.280092	0.000162	1.621739	0.549460	0.000065
 453	4.4974e+01	18.0075	58.409280	0.000324	3.243478	1.098920	0.000130
 454	4.5074e+01	18.0508	58.481948	0.000182	1.824456	0.618143	0.000073
 455	4.5173e+01	18.0974	58.623248	0.000355	3.547554	1.201944	0.000142
 456	4.5273e+01	18.1214	58.728214	0.000264	2.635326	0.892873	0.000105
 457	4.5372e+01	18.1631	58.812993	0.000213	2.128532	0.721166	0.000085
 458	4.5471e+01	18.1920	58.938145	0.000314	3.142119	1.064579	0.000126
 459	4.5571e+01	18.2369	59.010813	0.000182	1.824456	0.618143	0.000073
 460	4.5670e+01	18.2866	59.160187	0.000375	3.750271	1.270626	0.000150
 461	4.5770e+01	18.3107	59.265153	0.000264	2.635326	0.892873	0.000105
 462	4.5870e+01	18.3620	59.362044	0.000243	2.432608	0.824190	0.000097
 463	4.5969e+01	18.3925	59.430675	0.000172	1.723098	0.583801	0.000069
 464	4.6069e+01	18.4358	59.531604	0.000253	2.533967	0.858531	0.000101
 465	4.6168e+01	18.4759	59.648681	0.000294	2.939402	0.995896	0.000118
 466	4.6267e+01	18.5241	59.781906	0.000334	3.344836	1.133261	0.000134
 467	4.6367e+01	18.5642	59.858612	0.000193	1.925815	0.652484	0.000077
 468	4.6467e+01	18.6043	59.939354	0.000203	2.027174	0.686825	0.000081
 469	4.6566e+01	18.6412	60.028171	0.000223	2.229891	0.755508	0.000089
 470	4.6666e+01	18.6781	60.153322	0.000314	3.142119	1.064579	0.000126
 471	4.6765e+01	18.7182	60.217917	0.000162	1.621739	0.549460	0.000065
 472	4.6864e+01	18.7631	60.339031	0.000304	3.040760	1.030238	0.000122
 473	4.6964e+01	18.7952	60.443996	0.000264	2.635326	0.892873	0.000105
 474	4.7063e+01	18.8465	60.597407	0.000385	3.851630	1.304968	0.000154
 475	4.7163e+01	18.8770	60.629705	0.000081	0.810869	0.274730	0.000032
 476	4.7263e+01	18.9187	60.762930	0.000334	3.344836	1.133261	0.000134
 477	4.7362e+01	18.9620	60.843673	0.000203	2.027174	0.686825	0.000081
 478	4.7462e+01	19.0021	60.944601	0.000253	2.533967	0.858531	0.000101
 479	4.7561e+01	19.0503	61.077827	0.000334	3.344836	1.133261	0.000134
 480	4.7660e+01	19.0759	61.178755	0.000253	2.533967	0.858531	0.000101
 481	4.7760e+01	19.1112	61.259498	0.000203	2.027174	0.686825	0.000081
 482	4.7859e+01	19.1561	61.364463	0.000264	2.635326	0.892873	0.000105
 483	4.7959e+01	19.1930	61.477503	0.000284	2.838043	0.961555	0.000114
 484	4.8059e+01	19.2364	61.606691	0.000324	3.243478	1.098920	0.000130
 485	4.8158e+01	19.2781	61.675323	0.000172	1.723098	0.583801	0.000069
 486	4.8258e+01	19.3150	61.788362	0.000284	2.838043	0.961555	0.000114
 487	4.8357e+01	19.3583	61.909477	0.000304	3.040760	1.030238	0.000122
 488	4.8456e+01	19.4016	62.010405	0.000253	2.533967	0.858531	0.000101
 489	4.8556e+01	19.4289	62.062888	0.000132	1.317663	0.446436	0.000053
 490	4.8656e+01	19.4786	62.167853	0.000264	2.635326	0.892873	0.000105
 491	4.8755e+01	19.5171	62.268782	0.000253	2.533967	0.858531	0.000101
 492	4.8855e+01	19.5508	62.377784	0.000274	2.736684	0.927214	0.000110
 493	4.8954e+01	19.6005	62.466601	0.000223	2.229891	0.755508	0.000089
 494	4.9053e+01	19.6358	62.579641	0.000284	2.838043	0.961555	0.000114
 495	4.9153e+01	19.6743	62.692681	0.000284	2.838043	0.961555	0.000114
 496	4.9252e+01	19.7128	62.769386	0.000193	1.925815	0.652484	0.000077
 497	4.9352e+01	19.7561	62.866278	0.000243	2.432608	0.824190	0.000097
 498	4.9452e+01	19.7930	62.947020	0.000203	2.027174	0.686825	0.000081
 499	4.9551e+01	19.8363	63.064097	0.000294	2.939402	0.995896	0.000118
 500	4.9651e+01	19.8732	63.140803	0.000193	1.925815	0.652484	0.000077
 501	4.9750e+01	19.9149	63.269991	0.000324	3.243478	1.098920	0.000130
 502	4.9849e+01	19.9567	63.399180	0.000324	3.243478	1.098920	0.000130
 503	4.9949e+01	19.9903	63.496071	0.000243	2.432608	0.824190	0.000097
 504	5.0048e+01	19.9454	63.419365	0.000193	1.925815	0.652484	-0.000077
 505	5.0148e+01	19.9149	63.282103	0.000345	3.446195	1.167603	-0.000138
 506	5.0248e+01	19.8797	63.237694	0.000111	1.114945	0.377754	-0.000045
 507	5.0347e+01	19.8379	63.144840	0.000233	2.331250	0.789849	-0.000093
 508	5.0447e+01	19.7882	63.076209	0.000172	1.723098	0.583801	-0.000069
 509	5.0546e+01	19.7561	62.991429	0.000213	2.128532	0.721166	-0.000085
 510	5.0645e+01	19.7176	62.870315	0.000304	3.040760	1.030238	-0.000122
 511	5.0745e+01	19.6759	62.793609	0.000193	1.925815	0.652484	-0.000077
 512	5.0844e+01	19.6310	62.737089	0.000142	1.419022	0.480778	-0.000057
 513	5.0944e+01	19.6005	62.664421	0.000182	1.824456	0.618143	-0.000073
 514	5.1044e+01	19.5556	62.527158	0.000345	3.446195	1.167603	-0.000138
 515	5.1143e+01	19.5091	62.462564	0.000162	1.621739	0.549460	-0.000065
 516	5.1242e+01	19.4658	62.397970	0.000162	1.621739	0.549460	-0.000065
 517	5.1342e+01	19.4353	62.321264	0.000193	1.925815	0.652484	-0.000077
 518	5.1441e+01	19.4000	62.204187	0.000294	2.939402	0.995896	-0.000118
 519	5.1541e+01	19.3679	62.127482	0.000193	1.925815	0.652484	-0.000077
 520	5.1641e+01	19.3166	62.022516	0.000264	2.635326	0.892873	-0.000105
 521	5.1740e+01	19.2781	61.937736	0.000213	2.128532	0.721166	-0.000085
 522	5.1840e+01	19.2380	61.852957	0.000213	2.128532	0.721166	-0.000085
 523	5.1939e+01	19.1946	61.780288	0.000182	1.824456	0.618143	-0.000073
 524	5.2038e+01	19.1577	61.683397	0.000243	2.432608	0.824190	-0.000097
 525	5.2138e+01	19.1225	61.586506	0.000243	2.432608	0.824190	-0.000097
 526	5.2237e+01	19.0743	61.505763	0.000203	2.027174	0.686825	-0.000081
 527	5.2337e+01	19.0422	61.408872	0.000243	2.432608	0.824190	-0.000097
 528	5.2437e+01	18.9973	61.307943	0.000253	2.533967	0.858531	-0.000101
 529	5.2536e+01	18.9652	61.231238	0.000193	1.925815	0.652484	-0.000077
 530	5.2636e+01	18.9251	61.166644	0.000162	1.621739	0.549460	-0.000065
 531	5.2735e+01	18.8770	61.049567	0.000294	2.939402	0.995896	-0.000118
 532	5.2834e+01	18.8353	60.964787	0.000213	2.128532	0.721166	-0.000085
 533	5.2934e+01	18.8016	60.880007	0.000213	2.128532	0.721166	-0.000085
 534	5.3033e+01	18.7535	60.795227	0.000213	2.128532	0.721166	-0.000085
 535	5.3133e+01	18.7182	60.698336	0.000243	2.432608	0.824190	-0.000097
 536	5.3233e+01	18.6733	60.621630	0.000193	1.925815	0.652484	-0.000077
 537	5.3332e+01	18.6364	60.512628	0.000274	2.736684	0.927214	-0.000110
 538	5.3431e+01	18.6043	60.407662	0.000264	2.635326	0.892873	-0.000105
 539	5.3531e+01	18.5642	60.355179	0.000132	1.317663	0.446436	-0.000053
 540	5.3630e+01	18.5145	60.242139	0.000284	2.838043	0.961555	-0.000114
 541	5.3730e+01	18.4759	60.173508	0.000172	1.723098	0.583801	-0.000069
 542	5.3830e+01	18.4455	60.060468	0.000284	2.838043	0.961555	-0.000114
 543	5.3929e+01	18.3989	59.955503	0.000264	2.635326	0.892873	-0.000105
 544	5.4029e+01	18.3508	59.882834	0.000182	1.824456	0.618143	-0.000073
 545	5.4128e+01	18.3268	59.777869	0.000264	2.635326	0.892873	-0.000105
 546	5.4227e+01	18.2818	59.672903	0.000264	2.635326	0.892873	-0.000105
 547	5.4327e+01	18.2401	59.600235	0.000182	1.824456	0.618143	-0.000073
 548	5.4426e+01	18.2000	59.531604	0.000172	1.723098	0.583801	-0.000069
 549	5.4526e+01	18.1647	59.446824	0.000213	2.128532	0.721166	-0.000085
 550	5.4626e+01	18.1166	59.349932	0.000243	2.432608	0.824190	-0.000097
 551	5.4725e+01	18.0733	59.301487	0.000122	1.216304	0.412095	-0.000049
 552	5.4825e+01	18.0380	59.160187	0.000355	3.547554	1.201944	-0.000142
 553	5.4924e+01	18.0059	59.107704	0.000132	1.317663	0.446436	-0.000053
 554	5.5023e+01	17.9706	59.002739	0.000264	2.635326	0.892873	-0.000105
 555	5.5123e+01	17.9209	58.917959	0.000213	2.128532	0.721166	-0.000085
 556	5.5222e+01	17.8856	58.808956	0.000274	2.736684	0.927214	-0.000110
 557	5.5322e+01	17.8519	58.744362	0.000162	1.621739	0.549460	-0.000065
 558	5.5422e+01	17.8038	58.623248	0.000304	3.040760	1.030238	-0.000122
 559	5.5521e+01	17.7653	58.502134	0.000304	3.040760	1.030238	-0.000122
 560	5.5620e+01	17.7268	58.417354	0.000213	2.128532	0.721166	-0.000085
 561	5.5720e+01	17.6947	58.328537	0.000223	2.229891	0.755508	-0.000089
 562	5.5819e+01	17.6417	58.243757	0.000213	2.128532	0.721166	-0.000085
 563	5.5919e+01	17.6000	58.179163	0.000162	1.621739	0.549460	-0.000065
 564	5.6019e+01	17.5696	58.062086	0.000294	2.939402	0.995896	-0.000118
 565	5.6118e+01	17.5278	57.957121	0.000264	2.635326	0.892873	-0.000105
 566	5.6218e+01	17.4845	57.884452	0.000182	1.824456	0.618143	-0.000073
 567	5.6317e+01	17.4476	57.763338	0.000304	3.040760	1.030238	-0.000122
 568	5.6416e+01	17.4107	57.694707	0.000172	1.723098	0.583801	-0.000069
 569	5.6516e+01	17.3706	57.573593	0.000304	3.040760	1.030238	-0.000122
 570	5.6615e+01	17.3305	57.537259	0.000091	0.912228	0.309071	-0.000037
 571	5.6715e+01	17.2888	57.375773	0.000405	4.054347	1.373650	-0.000162
 572	5.6815e+01	17.2423	57.246585	0.000324	3.243478	1.098920	-0.000130
 573	5.6914e+01	17.2166	57.194102	0.000132	1.317663	0.446436	-0.000053
 574	5.7014e+01	17.1701	57.077025	0.000294	2.939402	0.995896	-0.000118
 575	5.7113e+01	17.1252	57.032617	0.000111	1.114945	0.377754	-0.000045
 576	5.7212e+01	17.0835	56.947837	0.000213	2.128532	0.721166	-0.000085
 577	5.7312e+01	17.0434	56.854983	0.000233	2.331250	0.789849	-0.000093
 578	5.7411e+01	17.0049	56.717720	0.000345	3.446195	1.167603	-0.000138
 579	5.7511e+01	16.9728	56.620829	0.000243	2.432608	0.824190	-0.000097
 580	5.7611e+01	16.9198	56.556235	0.000162	1.621739	0.549460	-0.000065
 581	5.7710e+01	16.8878	56.455306	0.000253	2.533967	0.858531	-0.000101
 582	5.7809e+01	16.8428	56.342266	0.000284	2.838043	0.961555	-0.000114
 583	5.7909e+01	16.8075	56.237301	0.000264	2.635326	0.892873	-0.000105
 584	5.8008e+01	16.7626	56.156558	0.000203	2.027174	0.686825	-0.000081
 585	5.8108e+01	16.7289	56.059667	0.000243	2.432608	0.824190	-0.000097
 586	5.8208e+01	16.6888	55.966813	0.000233	2.331250	0.789849	-0.000093
 587	5.8307e+01	16.6423	55.869921	0.000243	2.432608	0.824190	-0.000097
 588	5.8407e+01	16.6070	55.768993	0.000253	2.533967	0.858531	-0.000101
 589	5.8506e+01	16.5685	55.688250	0.000203	2.027174	0.686825	-0.000081
 590	5.8605e+01	16.5284	55.567136	0.000304	3.040760	1.030238	-0.000122
 591	5.8705e+01	16.4851	55.450059	0.000294	2.939402	0.995896	-0.000118
 592	5.8804e+01	16.4530	55.373354	0.000193	1.925815	0.652484	-0.000077
 593	5.8904e+01	16.4017	55.312797	0.000152	1.520380	0.515119	-0.000061
 594	5.9004e+01	16.3632	55.171497	0.000355	3.547554	1.201944	-0.000142
 595	5.9103e+01	16.3279	55.058457	0.000284	2.838043	0.961555	-0.000114
 596	5.9203e+01	16.2878	54.961566	0.000243	2.432608	0.824190	-0.000097
 597	5.9302e+01	16.2477	54.860638	0.000253	2.533967	0.858531	-0.000101
 598	5.9401e+01	16.2108	54.731449	0.000324	3.243478	1.098920	-0.000130
 599	5.9501e+01	16.1723	54.678966	0.000132	1.317663	0.446436	-0.000053
 600	5.9600e+01	16.1306	54.574001	0.000264	2.635326	0.892873	-0.000105
 601	5.9700e+01	16.0937	54.505370	0.000172	1.723098	0.583801	-0.000069
 602	5.9800e+01	16.0503	54.376181	0.000324	3.243478	1.098920	-0.000130
 603	5.9899e+01	16.0135	54.279290	0.000243	2.432608	0.824190	-0.000097
 604	5.9998e+01	15.9669	54.162213	0.000294	2.939402	0.995896	-0.000118
 605	6.0098e+01	15.9397	54.081470	0.000203	2.027174	0.686825	-0.000081
 606	6.0197e+01	15.8931	53.972468	0.000274	2.736684	0.927214	-0.000110
 607	6.0297e+01	15.8546	53.863465	0.000274	2.736684	0.927214	-0.000110
 608	6.0397e+01	15.8129	53.770611	0.000233	2.331250	0.789849	-0.000093
 609	6.0496e+01	15.7760	53.669683	0.000253	2.533967	0.858531	-0.000101
 610	6.0596e+01	15.7263	53.536457	0.000334	3.344836	1.133261	-0.000134
 611	6.0695e+01	15.6974	53.467826	0.000172	1.723098	0.583801	-0.000069
 612	6.0794e+01	15.6525	53.370934	0.000243	2.432608	0.824190	-0.000097
 613	6.0894e+01	15.6028	53.241746	0.000324	3.243478	1.098920	-0.000130
 614	6.0993e+01	15.5723	53.152929	0.000223	2.229891	0.755508	-0.000089
 615	6.1093e+01	15.5354	53.047964	0.000264	2.635326	0.892873	-0.000105
 616	6.1193e+01	15.4937	52.906664	0.000355	3.547554	1.201944	-0.000142
 617	6.1292e+01	15.4504	52.833995	0.000182	1.824456	0.618143	-0.000073
 618	6.1392e+01	15.4135	52.741141	0.000233	2.331250	0.789849	-0.000093
 619	6.1491e+01	15.3766	52.620027	0.000304	3.040760	1.030238	-0.000122
 620	6.1590e+01	15.3333	52.531210	0.000223	2.229891	0.755508	-0.000089
 621	6.1690e+01	15.2851	52.430282	0.000253	2.533967	0.858531	-0.000101
 622	6.1789e+01	15.2546	52.325316	0.000264	2.635326	0.892873	-0.000105
 623	6.1889e+01	15.2145	52.212276	0.000284	2.838043	0.961555	-0.000114
 624	6.1989e+01	15.1744	52.095200	0.000294	2.939402	0.995896	-0.000118
 625	6.2088e+01	15.1311	51.990234	0.000264	2.635326	0.892873	-0.000105
 626	6.2188e+01	15.0830	51.877194	0.000284	2.838043	0.961555	-0.000114
 627	6.2287e+01	15.0605	51.768192	0.000274	2.736684	0.927214	-0.000110
 628	6.2386e+01	15.0188	51.683412	0.000213	2.128532	0.721166	-0.000085
 629	6.2486e+01	14.9707	51.534038	0.000375	3.750271	1.270626	-0.000150
 630	6.2586e+01	14.9434	51.449258	0.000213	2.128532	0.721166	-0.000085
 631	6.2685e+01	14.8921	51.356404	0.000233	2.331250	0.789849	-0.000093
 632	6.2785e+01	14.8504	51.235290	0.000304	3.040760	1.030238	-0.000122
 633	6.2884e+01	14.8087	51.150510	0.000213	2.128532	0.721166	-0.000085
 634	6.2983e+01	14.7766	51.053619	0.000243	2.432608	0.824190	-0.000097
 635	6.3083e+01	14.7413	50.884059	0.000426	4.257065	1.442333	-0.000170
 636	6.3182e+01	14.6996	50.791205	0.000233	2.331250	0.789849	-0.000093
 637	6.3282e+01	14.6563	50.706425	0.000213	2.128532	0.721166	-0.000085
 638	6.3382e+01	14.6146	50.585311	0.000304	3.040760	1.030238	-0.000122
 639	6.3481e+01	14.5793	50.520717	0.000162	1.621739	0.549460	-0.000065
 640	6.3581e+01	14.5343	50.387491	0.000334	3.344836	1.133261	-0.000134
 641	6.3680e+01	14.4958	50.286563	0.000253	2.533967	0.858531	-0.000101
 642	6.3779e+01	14.4509	50.173523	0.000284	2.838043	0.961555	-0.000114
 643	6.3879e+01	14.4172	50.048372	0.000314	3.142119	1.064579	-0.000126
 644	6.3978e+01	14.3836	49.919183	0.000324	3.243478	1.098920	-0.000130
 645	6.4078e+01	14.3306	49.838441	0.000203	2.027174	0.686825	-0.000081
 646	6.4177e+01	14.2905	49.753661	0.000213	2.128532	0.721166	-0.000085
 647	6.4277e+01	14.2584	49.624472	0.000324	3.243478	1.098920	-0.000130
 648	6.4376e+01	14.2135	49.487210	0.000345	3.446195	1.167603	-0.000138
 649	6.4476e+01	14.1878	49.390319	0.000243	2.432608	0.824190	-0.000097
 650	6.4576e+01	14.1381	49.281316	0.000274	2.736684	0.927214	-0.000110
 651	6.4675e+01	14.0996	49.184425	0.000243	2.432608	0.824190	-0.000097
 652	6.4775e+01	14.0579	49.071385	0.000284	2.838043	0.961555	-0.000114
 653	6.4874e+01	14.0274	48.978531	0.000233	2.331250	0.789849	-0.000093
 654	6.4974e+01	13.9729	48.853380	0.000314	3.142119	1.064579	-0.000126
 655	6.5073e+01	13.9360	48.744377	0.000274	2.736684	0.927214	-0.000110
 656	6.5172e+01	13.8943	48.647486	0.000243	2.432608	0.824190	-0.000097
 657	6.5272e+01	13.8558	48.550594	0.000243	2.432608	0.824190	-0.000097
 658	6.5371e+01	13.8124	48.389109	0.000405	4.054347	1.373650	-0.000162
 659	6.5471e+01	13.7772	48.296255	0.000233	2.331250	0.789849	-0.000093
 660	6.5570e+01	13.7354	48.191289	0.000264	2.635326	0.892873	-0.000105
 661	6.5670e+01	13.6921	48.078250	0.000284	2.838043	0.961555	-0.000114
 662	6.5769e+01	13.6616	47.953098	0.000314	3.142119	1.064579	-0.000126
 663	6.5869e+01	13.6119	47.872356	0.000203	2.027174	0.686825	-0.000081
 664	6.5969e+01	13.5846	47.755279	0.000294	2.939402	0.995896	-0.000118
 665	6.6068e+01	13.5365	47.670499	0.000213	2.128532	0.721166	-0.000085
 666	6.6168e+01	13.4964	47.504976	0.000416	4.155706	1.407991	-0.000166
 667	6.6267e+01	13.4611	47.448456	0.000142	1.419022	0.480778	-0.000057
 668	6.6367e+01	13.4178	47.303119	0.000365	3.648913	1.236285	-0.000146
 669	6.6466e+01	13.3793	47.206228	0.000243	2.432608	0.824190	-0.000097
 670	6.6566e+01	13.3424	47.081077	0.000314	3.142119	1.064579	-0.000126
 671	6.6665e+01	13.3007	46.955926	0.000314	3.142119	1.064579	-0.000126
 672	6.6764e+01	13.2686	46.863072	0.000233	2.331250	0.789849	-0.000093
 673	6.6864e+01	13.2189	46.741958	0.000304	3.040760	1.030238	-0.000122
 674	6.6963e+01	13.1675	46.620844	0.000304	3.040760	1.030238	-0.000122
 675	6.7063e+01	13.1467	46.511841	0.000274	2.736684	0.927214	-0.000110
 676	6.7162e+01	13.0954	46.423024	0.000223	2.229891	0.755508	-0.000089
 677	6.7262e+01	13.0569	46.297873	0.000314	3.142119	1.064579	-0.000126
 678	6.7362e+01	13.0264	46.168684	0.000324	3.243478	1.098920	-0.000130
 679	6.7461e+01	12.9847	46.079867	0.000223	2.229891	0.755508	-0.000089
 680	6.7561e+01	12.9430	45.978939	0.000253	2.533967	0.858531	-0.000101
 681	6.7660e+01	12.8964	45.833602	0.000365	3.648913	1.236285	-0.000146
 682	6.7760e+01	12.8595	45.773045	0.000152	1.520380	0.515119	-0.000061
 683	6.7859e+01	12.8274	45.660005	0.000284	2.838043	0.961555	-0.000114
 684	6.7959e+01	12.7857	45.551003	0.000274	2.736684	0.927214	-0.000110
 685	6.8058e+01	12.7440	45.433926	0.000294	2.939402	0.995896	-0.000118
 686	6.8157e+01	12.7039	45.308774	0.000314	3.142119	1.064579	-0.000126
 687	6.8257e+01	12.6670	45.203809	0.000264	2.635326	0.892873	-0.000105
 688	6.8356e+01	12.6237	45.102880	0.000253	2.533967	0.858531	-0.000101
 689	6.8456e+01	12.5852	44.965618	0.000345	3.446195	1.167603	-0.000138
 690	6.8555e+01	12.5515	44.876801	0.000223	2.229891	0.755508	-0.000089
 691	6.8655e+01	12.5050	44.755687	0.000304	3.040760	1.030238	-0.000122
 692	6.8754e+01	12.4729	44.626498	0.000324	3.243478	1.098920	-0.000130
 693	6.8854e+01	12.4264	44.557867	0.000172	1.723098	0.583801	-0.000069
 694	6.8954e+01	12.3911	44.408493	0.000375	3.750271	1.270626	-0.000150
 695	6.9053e+01	12.3398	44.287379	0.000304	3.040760	1.030238	-0.000122
 696	6.9153e+01	12.3093	44.222785	0.000162	1.621739	0.549460	-0.000065
 697	6.9252e+01	12.2644	44.081485	0.000355	3.547554	1.201944	-0.000142
 698	6.9352e+01	12.2275	43.932111	0.000375	3.750271	1.270626	-0.000150
 699	6.9451e+01	12.1890	43.827146	0.000264	2.635326	0.892873	-0.000105
 700	6.9550e+01	12.1521	43.718143	0.000274	2.736684	0.927214	-0.000110
 701	6.9650e+01	12.1120	43.649512	0.000172	1.723098	0.583801	-0.000069
 702	6.9749e+01	12.0670	43.520323	0.000324	3.243478	1.098920	-0.000130
 703	6.9849e+01	12.0189	43.407283	0.000284	2.838043	0.961555	-0.000114
 704	6.9948e+01	11.9916	43.302318	0.000264	2.635326	0.892873	-0.000105
 705	7.0048e+01	11.9435	43.165055	0.000345	3.446195	1.167603	-0.000138
 706	7.0147e+01	11.9050	43.031830	0.000334	3.344836	1.133261	-0.000134
 707	7.0247e+01	11.8713	42.934939	0.000243	2.432608	0.824190	-0.000097
 708	7.0347e+01	11.8200	42.817862	0.000294	2.939402	0.995896	-0.000118
 709	7.0446e+01	11.7959	42.716933	0.000253	2.533967	0.858531	-0.000101
 710	7.0546e+01	11.7510	42.591782	0.000314	3.142119	1.064579	-0.000126
 711	7.0645e+01	11.7013	42.511039	0.000203	2.027174	0.686825	-0.000081
 712	7.0745e+01	11.6692	42.393962	0.000294	2.939402	0.995896	-0.000118
 713	7.0844e+01	11.6227	42.272848	0.000304	3.040760	1.030238	-0.000122
 714	7.0944e+01	11.5938	42.127511	0.000365	3.648913	1.236285	-0.000146
 715	7.1043e+01	11.5505	42.058880	0.000172	1.723098	0.583801	-0.000069
 716	7.1142e+01	11.5136	41.913543	0.000365	3.648913	1.236285	-0.000146
 717	7.1242e+01	11.4622	41.796466	0.000294	2.939402	0.995896	-0.000118
 718	7.1341e+01	11.4350	41.707649	0.000223	2.229891	0.755508	-0.000089
 719	7.1441e+01	11.3917	41.590572	0.000294	2.939402	0.995896	-0.000118
 720	7.1540e+01	11.3548	41.449273	0.000355	3.547554	1.201944	-0.000142
 721	7.1640e+01	11.3066	41.384678	0.000162	1.621739	0.549460	-0.000065
 722	7.1740e+01	11.2729	41.223193	0.000405	4.054347	1.373650	-0.000162
 723	7.1839e+01	11.2328	41.106116	0.000294	2.939402	0.995896	-0.000118
 724	7.1939e+01	11.1943	41.041522	0.000162	1.621739	0.549460	-0.000065
 725	7.2038e+01	11.1430	40.908296	0.000334	3.344836	1.133261	-0.000134
 726	7.2138e+01	11.1221	40.726625	0.000456	4.561141	1.545356	-0.000183
 727	7.2237e+01	11.0628	40.653957	0.000182	1.824456	0.618143	-0.000073
 728	7.2337e+01	11.0307	40.532843	0.000304	3.040760	1.030238	-0.000122
 729	7.2436e+01	10.9858	40.411729	0.000304	3.040760	1.030238	-0.000122
 730	7.2535e+01	10.9553	40.302726	0.000274	2.736684	0.927214	-0.000110
 731	7.2635e+01	10.9120	40.161426	0.000355	3.547554	1.201944	-0.000142
 732	7.2734e+01	10.8703	40.056461	0.000264	2.635326	0.892873	-0.000105
 733	7.2834e+01	10.8270	39.935347	0.000304	3.040760	1.030238	-0.000122
 734	7.2933e+01	10.7965	39.830381	0.000264	2.635326	0.892873	-0.000105
 735	7.3033e+01	10.7548	39.709267	0.000304	3.040760	1.030238	-0.000122
 736	7.3132e+01	10.7131	39.592190	0.000294	2.939402	0.995896	-0.000118
 737	7.3232e+01	10.6698	39.479150	0.000284	2.838043	0.961555	-0.000114
 738	7.3332e+01	10.6313	39.374185	0.000264	2.635326	0.892873	-0.000105
 739	7.3431e+01	10.5960	39.240959	0.000334	3.344836	1.133261	-0.000134
 740	7.3531e+01	10.5559	39.127920	0.000284	2.838043	0.961555	-0.000114
 741	7.3630e+01	10.5109	39.014880	0.000284	2.838043	0.961555	-0.000114
 742	7.3730e+01	10.4772	38.909914	0.000264	2.635326	0.892873	-0.000105
 743	7.3829e+01	10.4243	38.780726	0.000324	3.243478	1.098920	-0.000130
 744	7.3928e+01	10.4018	38.619240	0.000405	4.054347	1.373650	-0.000162
 745	7.4028e+01	10.3505	38.481978	0.000345	3.446195	1.167603	-0.000138
 746	7.4127e+01	10.3136	38.401235	0.000203	2.027174	0.686825	-0.000081
 747	7.4227e+01	10.2719	38.288195	0.000284	2.838043	0.961555	-0.000114
 748	7.4326e+01	10.2270	38.154970	0.000334	3.344836	1.133261	-0.000134
 749	7.4426e+01	10.1933	38.058079	0.000243	2.432608	0.824190	-0.000097
 750	7.4525e+01	10.1500	37.880445	0.000446	4.459782	1.511015	-0.000179
 751	7.4625e+01	10.1147	37.827962	0.000132	1.317663	0.446436	-0.000053
 752	7.4725e+01	10.0682	37.654365	0.000436	4.358423	1.476674	-0.000174
 753	7.4824e+01	10.0409	37.561511	0.000233	2.331250	0.789849	-0.000093
 754	7.4924e+01	9.9880	37.420211	0.000355	3.547554	1.201944	-0.000142
 755	7.5023e+01	9.9559	37.315246	0.000264	2.635326	0.892873	-0.000105
 756	7.5123e+01	9.9158	37.206243	0.000274	2.736684	0.927214	-0.000110
 757	7.5222e+01	9.8773	37.113389	0.000233	2.331250	0.789849	-0.000093
 758	7.5322e+01	9.8404	36.947866	0.000416	4.155706	1.407991	-0.000166
 759	7.5421e+01	9.7874	36.834826	0.000284	2.838043	0.961555	-0.000114
 760	7.5520e+01	9.7553	36.697564	0.000345	3.446195	1.167603	-0.000138
 761	7.5620e+01	9.7152	36.588561	0.000274	2.736684	0.927214	-0.000110
 762	7.5719e+01	9.6655	36.443224	0.000365	3.648913	1.236285	-0.000146
 763	7.5819e+01	9.6463	36.350370	0.000233	2.331250	0.789849	-0.000093
 764	7.5918e+01	9.6029	36.225219	0.000314	3.142119	1.064579	-0.000126
 765	7.6018e+01	9.5532	36.091993	0.000334	3.344836	1.133261	-0.000134
 766	7.6118e+01	9.5211	35.954731	0.000345	3.446195	1.167603	-0.000138
 767	7.6217e+01	9.4714	35.829580	0.000314	3.142119	1.064579	-0.000126
 768	7.6317e+01	9.4457	35.708466	0.000304	3.040760	1.030238	-0.000122
 769	7.6416e+01	9.3960	35.563129	0.000365	3.648913	1.236285	-0.000146
 770	7.6516e+01	9.3639	35.429903	0.000334	3.344836	1.133261	-0.000134
 771	7.6615e+01	9.3222	35.349161	0.000203	2.027174	0.686825	-0.000081
 772	7.6715e+01	9.2725	35.199786	0.000375	3.750271	1.270626	-0.000150
 773	7.6814e+01	9.2356	35.119044	0.000203	2.027174	0.686825	-0.000081
 774	7.6913e+01	9.1987	34.949484	0.000426	4.257065	1.442333	-0.000170
 775	7.7013e+01	9.1586	34.804147	0.000365	3.648913	1.236285	-0.000146
 776	7.7112e+01	9.1185	34.723404	0.000203	2.027174	0.686825	-0.000081
 777	7.7212e+01	9.0719	34.578068	0.000365	3.648913	1.236285	-0.000146
 778	7.7311e+01	9.0318	34.456954	0.000304	3.040760	1.030238	-0.000122
 779	7.7411e+01	9.0014	34.315654	0.000355	3.547554	1.201944	-0.000142
 780	7.7510e+01	8.9645	34.170317	0.000365	3.648913	1.236285	-0.000146
 781	7.7610e+01	8.9179	34.049203	0.000304	3.040760	1.030238	-0.000122
 782	7.7710e+01	8.8730	33.928089	0.000304	3.040760	1.030238	-0.000122
 783	7.7809e+01	8.8409	33.823123	0.000264	2.635326	0.892873	-0.000105
 784	7.7909e+01	8.8024	33.669712	0.000385	3.851630	1.304968	-0.000154
 785	7.8008e+01	8.7655	33.532449	0.000345	3.446195	1.167603	-0.000138
 786	7.8108e+01	8.7110	33.423447	0.000274	2.736684	0.927214	-0.000110
 787	7.8207e+01	8.6853	33.261961	0.000405	4.054347	1.373650	-0.000162
 788	7.8306e+01	8.6340	33.136810	0.000314	3.142119	1.064579	-0.000126
 789	7.8406e+01	8.5987	32.995510	0.000355	3.547554	1.201944	-0.000142
 790	7.8505e+01	8.5682	32.882471	0.000284	2.838043	0.961555	-0.000114
 791	7.8605e+01	8.5169	32.753282	0.000324	3.243478	1.098920	-0.000130
 792	7.8704e+01	8.4928	32.624094	0.000324	3.243478	1.098920	-0.000130
 793	7.8804e+01	8.4399	32.494906	0.000324	3.243478	1.098920	-0.000130
 794	7.8903e+01	8.3982	32.373791	0.000304	3.040760	1.030238	-0.000122
 795	7.9003e+01	8.3645	32.240566	0.000334	3.344836	1.133261	-0.000134
 796	7.9103e+01	8.3308	32.083118	0.000395	3.952989	1.339309	-0.000158
 797	7.9202e+01	8.2714	31.978152	0.000264	2.635326	0.892873	-0.000105
 798	7.9302e+01	8.2393	31.820704	0.000395	3.952989	1.339309	-0.000158
 799	7.9401e+01	8.2008	31.723813	0.000243	2.432608	0.824190	-0.000097
 800	7.9501e+01	8.1607	31.538104	0.000466	4.662499	1.579698	-0.000187
 801	7.9600e+01	8.1174	31.360470	0.000446	4.459782	1.511015	-0.000179
 802	7.9700e+01	8.0709	31.303951	0.000142	1.419022	0.480778	-0.000057
 803	7.9799e+01	8.0452	31.162651	0.000355	3.547554	1.201944	-0.000142
 804	7.9898e+01	8.0051	31.037500	0.000314	3.142119	1.064579	-0.000126
 805	7.9998e+01	7.9618	30.888126	0.000375	3.750271	1.270626	-0.000150
 806	8.0097e+01	7.9153	30.742789	0.000365	3.648913	1.236285	-0.000146
 807	8.0197e+01	7.8864	30.625712	0.000294	2.939402	0.995896	-0.000118
 808	8.0296e+01	7.8463	30.488449	0.000345	3.446195	1.167603	-0.000138
 809	8.0396e+01	7.8046	30.359261	0.000324	3.243478	1.098920	-0.000130
 810	8.0496e+01	7.7565	30.246221	0.000284	2.838043	0.961555	-0.000114
 811	8.0595e+01	7.7276	30.068587	0.000446	4.459782	1.511015	-0.000179
 812	8.0695e+01	7.6843	29.955547	0.000284	2.838043	0.961555	-0.000114
 813	8.0794e+01	7.6474	29.818285	0.000345	3.446195	1.167603	-0.000138
 814	8.0894e+01	7.6041	29.689096	0.000324	3.243478	1.098920	-0.000130
 815	8.0993e+01	7.5656	29.551834	0.000345	3.446195	1.167603	-0.000138
 816	8.1093e+01	7.5255	29.463017	0.000223	2.229891	0.755508	-0.000089
 817	8.1192e+01	7.4950	29.301531	0.000405	4.054347	1.373650	-0.000162
 818	8.1291e+01	7.4452	29.160231	0.000355	3.547554	1.201944	-0.000142
 819	8.1391e+01	7.4019	29.010857	0.000375	3.750271	1.270626	-0.000150
 820	8.1490e+01	7.3554	28.865521	0.000365	3.648913	1.236285	-0.000146
 821	8.1590e+01	7.3297	28.764592	0.000253	2.533967	0.858531	-0.000101
 822	8.1689e+01	7.2736	28.615218	0.000375	3.750271	1.270626	-0.000150
 823	8.1789e+01	7.2415	28.461807	0.000385	3.851630	1.304968	-0.000154
 824	8.1888e+01	7.2110	28.328581	0.000334	3.344836	1.133261	-0.000134
 825	8.1988e+01	7.1597	28.199393	0.000324	3.243478	1.098920	-0.000130
 826	8.2088e+01	7.1196	28.074242	0.000314	3.142119	1.064579	-0.000126
 827	8.2187e+01	7.0779	27.896608	0.000446	4.459782	1.511015	-0.000179
 828	8.2287e+01	7.0490	27.779531	0.000294	2.939402	0.995896	-0.000118
 829	8.2386e+01	7.0057	27.642268	0.000345	3.446195	1.167603	-0.000138
 830	8.2486e+01	6.9640	27.496932	0.000365	3.648913	1.236285	-0.000146
 831	8.2585e+01	6.9191	27.424263	0.000182	1.824456	0.618143	-0.000073
 832	8.2684e+01	6.8838	27.254703	0.000426	4.257065	1.442333	-0.000170
 833	8.2784e+01	6.8453	27.101292	0.000385	3.851630	1.304968	-0.000154
 834	8.2883e+01	6.8084	26.943844	0.000395	3.952989	1.339309	-0.000158
 835	8.2983e+01	6.7667	26.794470	0.000375	3.750271	1.270626	-0.000150
 836	8.3082e+01	6.7298	26.661244	0.000334	3.344836	1.133261	-0.000134
 837	8.3182e+01	6.6816	26.556279	0.000264	2.635326	0.892873	-0.000105
 838	8.3281e+01	6.6544	26.398831	0.000395	3.952989	1.339309	-0.000158
 839	8.3381e+01	6.6078	26.277717	0.000304	3.040760	1.030238	-0.000122
 840	8.3481e+01	6.5613	26.104120	0.000436	4.358423	1.476674	-0.000174
 841	8.3580e+01	6.5308	25.987043	0.000294	2.939402	0.995896	-0.000118
 842	8.3680e+01	6.4827	25.833632	0.000385	3.851630	1.304968	-0.000154
 843	8.3779e+01	6.4458	25.712518	0.000304	3.040760	1.030238	-0.000122
 844	8.3879e+01	6.4121	25.555069	0.000395	3.952989	1.339309	-0.000158
 845	8.3978e+01	6.3704	25.442029	0.000284	2.838043	0.961555	-0.000114
 846	8.4078e+01	6.3255	25.328990	0.000284	2.838043	0.961555	-0.000114
 847	8.4177e+01	6.2918	25.163467	0.000416	4.155706	1.407991	-0.000166
 848	8.4276e+01	6.2421	25.010056	0.000385	3.851630	1.304968	-0.000154
 849	8.4376e+01	6.2148	24.884905	0.000314	3.142119	1.064579	-0.000126
 850	8.4475e+01	6.1747	24.751679	0.000334	3.344836	1.133261	-0.000134
 851	8.4575e+01	6.1330	24.618454	0.000334	3.344836	1.133261	-0.000134
 852	8.4674e+01	6.0945	24.493303	0.000314	3.142119	1.064579	-0.000126
 853	8.4774e+01	6.0496	24.352003	0.000355	3.547554	1.201944	-0.000142
 854	8.4874e+01	6.0062	24.218777	0.000334	3.344836	1.133261	-0.000134
 855	8.4973e+01	5.9758	24.069403	0.000375	3.750271	1.270626	-0.000150
 856	8.5073e+01	5.9357	23.924066	0.000365	3.648913	1.236285	-0.000146
 857	8.5172e+01	5.8907	23.766618	0.000395	3.952989	1.339309	-0.000158
 858	8.5272e+01	5.8474	23.637430	0.000324	3.243478	1.098920	-0.000130
 859	8.5371e+01	5.8057	23.484019	0.000385	3.851630	1.304968	-0.000154
 860	8.5471e+01	5.7752	23.362905	0.000304	3.040760	1.030238	-0.000122
 861	8.5570e+01	5.7335	23.213530	0.000375	3.750271	1.270626	-0.000150
 862	8.5669e+01	5.6966	23.080305	0.000334	3.344836	1.133261	-0.000134
 863	8.5769e+01	5.6533	22.922857	0.000395	3.952989	1.339309	-0.000158
 864	8.5868e+01	5.6036	22.781557	0.000355	3.547554	1.201944	-0.000142
 865	8.5968e+01	5.5731	22.672554	0.000274	2.736684	0.927214	-0.000110
 866	8.6067e+01	5.5330	22.519143	0.000385	3.851630	1.304968	-0.000154
 867	8.6167e+01	5.4897	22.377843	0.000355	3.547554	1.201944	-0.000142
 868	8.6266e+01	5.4464	22.232507	0.000365	3.648913	1.236285	-0.000146
 869	8.6366e+01	5.4207	22.095244	0.000345	3.446195	1.167603	-0.000138
 870	8.6466e+01	5.3774	21.933758	0.000405	4.054347	1.373650	-0.000162
 871	8.6565e+01	5.3309	21.788422	0.000365	3.648913	1.236285	-0.000146
 872	8.6665e+01	5.2972	21.667308	0.000304	3.040760	1.030238	-0.000122
 873	8.6764e+01	5.2587	21.505822	0.000405	4.054347	1.373650	-0.000162
 874	8.6864e+01	5.2154	21.380671	0.000314	3.142119	1.064579	-0.000126
 875	8.6963e+01	5.1769	21.255520	0.000314	3.142119	1.064579	-0.000126
 876	8.7063e+01	5.1368	21.110183	0.000365	3.648913	1.236285	-0.000146
 877	8.7162e+01	5.0886	20.952734	0.000395	3.952989	1.339309	-0.000158
 878	8.7261e+01	5.0565	20.787212	0.000416	4.155706	1.407991	-0.000166
 879	8.7361e+01	5.0116	20.649949	0.000345	3.446195	1.167603	-0.000138
 880	8.7460e+01	4.9795	20.540947	0.000274	2.736684	0.927214	-0.000110
 881	8.7560e+01	4.9426	20.383498	0.000395	3.952989	1.339309	-0.000158
 882	8.7659e+01	4.8945	20.266421	0.000294	2.939402	0.995896	-0.000118
 883	8.7759e+01	4.8512	20.108973	0.000395	3.952989	1.339309	-0.000158
 884	8.7859e+01	4.8143	19.951525	0.000395	3.952989	1.339309	-0.000158
 885	8.7958e+01	4.7742	19.798114	0.000385	3.851630	1.304968	-0.000154
 886	8.8058e+01	4.7357	19.697185	0.000253	2.533967	0.858531	-0.000101
 887	8.8157e+01	4.6940	19.531663	0.000416	4.155706	1.407991	-0.000166
 888	8.8257e+01	4.6555	19.362103	0.000426	4.257065	1.442333	-0.000170
 889	8.8356e+01	4.6106	19.253100	0.000274	2.736684	0.927214	-0.000110
 890	8.8456e+01	4.5833	19.087578	0.000416	4.155706	1.407991	-0.000166
 891	8.8555e+01	4.5336	18.950315	0.000345	3.446195	1.167603	-0.000138
 892	8.8654e+01	4.4983	18.825164	0.000314	3.142119	1.064579	-0.000126
 893	8.8754e+01	4.4598	18.659641	0.000416	4.155706	1.407991	-0.000166
 894	8.8853e+01	4.4213	18.498156	0.000405	4.054347	1.373650	-0.000162
 895	8.8953e+01	4.3796	18.385116	0.000284	2.838043	0.961555	-0.000114
 896	8.9052e+01	4.3459	18.219594	0.000416	4.155706	1.407991	-0.000166
 897	8.9152e+01	4.3042	18.102517	0.000294	2.939402	0.995896	-0.000118
 898	8.9251e+01	4.2624	17.973328	0.000324	3.243478	1.098920	-0.000130
 899	8.9351e+01	4.2159	17.783583	0.000476	4.763858	1.614039	-0.000191
 900	8.9451e+01	4.1806	17.666506	0.000294	2.939402	0.995896	-0.000118
 901	8.9550e+01	4.1453	17.500983	0.000416	4.155706	1.407991	-0.000166
 902	8.9650e+01	4.0924	17.319312	0.000456	4.561141	1.545356	-0.000183
 903	8.9749e+01	4.0539	17.194161	0.000314	3.142119	1.064579	-0.000126
 904	8.9849e+01	4.0170	17.052861	0.000355	3.547554	1.201944	-0.000142
 905	8.9948e+01	3.9817	16.903487	0.000375	3.750271	1.270626	-0.000150
 906	9.0047e+01	3.9400	16.762188	0.000355	3.547554	1.201944	-0.000142
 907	9.0147e+01	3.8903	16.616851	0.000365	3.648913	1.236285	-0.000146
 908	9.0246e+01	3.8630	16.435180	0.000456	4.561141	1.545356	-0.000183
 909	9.0346e+01	3.8165	16.342325	0.000233	2.331250	0.789849	-0.000093
 910	9.0445e+01	3.7812	16.160654	0.000456	4.561141	1.545356	-0.000183
 911	9.0545e+01	3.7395	16.039540	0.000304	3.040760	1.030238	-0.000122
 912	9.0644e+01	3.6994	15.849795	0.000476	4.763858	1.614039	-0.000191
 913	9.0744e+01	3.6673	15.728681	0.000304	3.040760	1.030238	-0.000122
 914	9.0844e+01	3.6191	15.579307	0.000375	3.750271	1.270626	-0.000150
 915	9.0943e+01	3.5694	15.417821	0.000405	4.054347	1.373650	-0.000162
 916	9.1043e+01	3.5341	15.264410	0.000385	3.851630	1.304968	-0.000154
 917	9.1142e+01	3.5052	15.139259	0.000314	3.142119	1.064579	-0.000126
 918	9.1242e+01	3.4571	14.977774	0.000405	4.054347	1.373650	-0.000162
 919	9.1341e+01	3.4186	14.792065	0.000466	4.662499	1.579698	-0.000187
 920	9.1441e+01	3.3817	14.679026	0.000284	2.838043	0.961555	-0.000114
 921	9.1540e+01	3.3352	14.525614	0.000385	3.851630	1.304968	-0.000154
 922	9.1639e+01	3.3031	14.392389	0.000334	3.344836	1.133261	-0.000134
 923	9.1739e+01	3.2646	14.214755	0.000446	4.459782	1.511015	-0.000179
 924	9.1838e+01	3.2213	14.089604	0.000314	3.142119	1.064579	-0.000126
 925	9.1938e+01	3.1796	13.899858	0.000476	4.763858	1.614039	-0.000191
 926	9.2037e+01	3.1379	13.766633	0.000334	3.344836	1.133261	-0.000134
 927	9.2137e+01	3.1010	13.588999	0.000446	4.459782	1.511015	-0.000179
 928	9.2237e+01	3.0561	13.431551	0.000395	3.952989	1.339309	-0.000158
 929	9.2336e+01	3.0160	13.302362	0.000324	3.243478	1.098920	-0.000130
 930	9.2436e+01	2.9919	13.132803	0.000426	4.257065	1.442333	-0.000170
 931	9.2535e+01	2.9422	12.995540	0.000345	3.446195	1.167603	-0.000138
 932	9.2635e+01	2.9037	12.842129	0.000385	3.851630	1.304968	-0.000154
 933	9.2734e+01	2.8571	12.632198	0.000527	5.270651	1.785745	-0.000211
 934	9.2834e+01	2.8186	12.490898	0.000355	3.547554	1.201944	-0.000142
 935	9.2933e+01	2.7817	12.377858	0.000284	2.838043	0.961555	-0.000114
 936	9.3032e+01	2.7432	12.188113	0.000476	4.763858	1.614039	-0.000191
 937	9.3132e+01	2.6935	12.058924	0.000324	3.243478	1.098920	-0.000130
 938	9.3231e+01	2.6662	11.885328	0.000436	4.358423	1.476674	-0.000174
 939	9.3331e+01	2.6261	11.748065	0.000345	3.446195	1.167603	-0.000138
 940	9.3430e+01	2.5908	11.586580	0.000405	4.054347	1.373650	-0.000162
 941	9.3530e+01	2.5475	11.408946	0.000446	4.459782	1.511015	-0.000179
 942	9.3629e+01	2.5042	11.255534	0.000385	3.851630	1.304968	-0.000154
 943	9.3729e+01	2.4609	11.142495	0.000284	2.838043	0.961555	-0.000114
 944	9.3829e+01	2.4192	10.948712	0.000487	4.865217	1.648380	-0.000195
 945	9.3928e+01	2.3967	10.746855	0.000507	5.067934	1.717063	-0.000203
 946	9.4028e+01	2.3422	10.621704	0.000314	3.142119	1.064579	-0.000126
 947	9.4127e+01	2.3053	10.472330	0.000375	3.750271	1.270626	-0.000150
 948	9.4227e+01	2.2700	10.318919	0.000385	3.851630	1.304968	-0.000154
 949	9.4326e+01	2.2315	10.157434	0.000405	4.054347	1.373650	-0.000162
 950	9.4425e+01	2.1914	9.999985	0.000395	3.952989	1.339309	-0.000158
 951	9.4525e+01	2.1497	9.822351	0.000446	4.459782	1.511015	-0.000179
 952	9.4624e+01	2.1112	9.664903	0.000395	3.952989	1.339309	-0.000158
 953	9.4724e+01	2.0566	9.503418	0.000405	4.054347	1.373650	-0.000162
 954	9.4823e+01	2.0261	9.337895	0.000416	4.155706	1.407991	-0.000166
 955	9.4923e+01	1.9780	9.212744	0.000314	3.142119	1.064579	-0.000126
 956	9.5022e+01	1.9459	9.047221	0.000416	4.155706	1.407991	-0.000166
 957	9.5122e+01	1.9090	8.865550	0.000456	4.561141	1.545356	-0.000183
 958	9.5222e+01	1.8657	8.756547	0.000274	2.736684	0.927214	-0.000110
 959	9.5321e+01	1.8240	8.542579	0.000537	5.372010	1.820086	-0.000215
 960	9.5421e+01	1.7791	8.356871	0.000466	4.662499	1.579698	-0.000187
 961	9.5520e+01	1.7422	8.231720	0.000314	3.142119	1.064579	-0.000126
 962	9.5620e+01	1.7053	8.054086	0.000446	4.459782	1.511015	-0.000179
 963	9.5719e+01	1.6716	7.864340	0.000476	4.763858	1.614039	-0.000191
 964	9.5819e+01	1.6203	7.714966	0.000375	3.750271	1.270626	-0.000150
 965	9.5918e+01	1.5850	7.565592	0.000375	3.750271	1.270626	-0.000150
 966	9.6017e+01	1.5497	7.375847	0.000476	4.763858	1.614039	-0.000191
 967	9.6117e+01	1.5064	7.222436	0.000385	3.851630	1.304968	-0.000154
 968	9.6216e+01	1.4775	7.081136	0.000355	3.547554	1.201944	-0.000142
 969	9.6316e+01	1.4374	6.883316	0.000497	4.966575	1.682721	-0.000199
 970	9.6415e+01	1.3925	6.725868	0.000395	3.952989	1.339309	-0.000158
 971	9.6515e+01	1.3443	6.572457	0.000385	3.851630	1.304968	-0.000154
 972	9.6615e+01	1.3058	6.398860	0.000436	4.358423	1.476674	-0.000174
 973	9.6714e+01	1.2706	6.229300	0.000426	4.257065	1.442333	-0.000170
 974	9.6814e+01	1.2304	6.096075	0.000334	3.344836	1.133261	-0.000134
 975	9.6913e+01	1.1839	5.918441	0.000446	4.459782	1.511015	-0.000179
 976	9.7013e+01	1.1502	5.728696	0.000476	4.763858	1.614039	-0.000191
 977	9.7112e+01	1.1101	5.575284	0.000385	3.851630	1.304968	-0.000154
 978	9.7212e+01	1.0732	5.397650	0.000446	4.459782	1.511015	-0.000179
 979	9.7311e+01	1.0299	5.268462	0.000324	3.243478	1.098920	-0.000130
 980	9.7410e+01	0.9882	5.058531	0.000527	5.270651	1.785745	-0.000211
 981	9.7510e+01	0.9497	4.893009	0.000416	4.155706	1.407991	-0.000166
 982	9.7609e+01	0.9032	4.723449	0.000426	4.257065	1.442333	-0.000170
 983	9.7709e+01	0.8583	4.549852	0.000436	4.358423	1.476674	-0.000174
 984	9.7808e+01	0.8246	4.400478	0.000375	3.750271	1.270626	-0.000150
 985	9.7908e+01	0.7845	4.275327	0.000314	3.142119	1.064579	-0.000126
 986	9.8007e+01	0.7540	4.081544	0.000487	4.865217	1.648380	-0.000195
 987	9.8107e+01	0.6994	3.883725	0.000497	4.966575	1.682721	-0.000199
 988	9.8207e+01	0.6690	3.722239	0.000405	4.054347	1.373650	-0.000162
 989	9.8306e+01	0.6321	3.593051	0.000324	3.243478	1.098920	-0.000130
 990	9.8406e+01	0.5791	3.379083	0.000537	5.372010	1.820086	-0.000215
 991	9.8505e+01	0.5503	3.225671	0.000385	3.851630	1.304968	-0.000154
 992	9.8605e+01	0.5118	3.044000	0.000456	4.561141	1.545356	-0.000183
 993	9.8704e+01	0.4749	2.914812	0.000324	3.243478	1.098920	-0.000130
 994	9.8803e+01	0.4380	2.733141	0.000456	4.561141	1.545356	-0.000183
 995	9.8903e+01	0.3882	2.555507	0.000446	4.459782	1.511015	-0.000179
 996	9.9002e+01	0.3449	2.373836	0.000456	4.561141	1.545356	-0.000183
 997	9.9102e+01	0.3128	2.196202	0.000446	4.459782	1.511015	-0.000179
 998	9.9201e+01	0.2727	2.079125	0.000294	2.939402	0.995896	-0.000118
 999	9.9301e+01	0.2246	1.849008	0.000578	5.777445	1.957451	-0.000231
1000	9.9400e+01	0.1909	1.691560	0.000395	3.952989	1.339309	-0.000158
1001	9.9500e+01	0.1508	1.538149	0.000385	3.851630	1.304968	-0.000154
1002	9.9600e+01	0.1171	1.368589	0.000426	4.257065	1.442333	-0.000170
1003	9.9699e+01	0.0754	1.158658	0.000527	5.270651	1.785745	-0.000211
1004	9.9799e+01	0.0321	1.017358	0.000355	3.547554	1.201944	-0.000142
1005	9.9898e+01	0.0032	0.884133	0.000334	3.344836	1.133261	-0.000134
1006	9.9998e+01	-0.0433	0.690350	0.000487	4.865217	1.648380	-0.000195
1007	1.0010e+02	-0.0834	0.536939	0.000385	3.851630	1.304968	-0.000154
1008	1.0020e+02	-0.1267	0.327008	0.000527	5.270651	1.785745	-0.000211
1009	1.0030e+02	-0.1588	0.213968	0.000284	2.838043	0.961555	-0.000114
1010	1.0040e+02	-0.2005	0.044408	0.000426	4.257065	1.442333	-0.000170
1011	1.0050e+02	-0.2342	-0.121114	0.000416	4.155706	1.407991	-0.000166
1012	1.0059e+02	-0.2759	-0.302785	0.000456	4.561141	1.545356	-0.000183
1013	1.0069e+02	-0.3176	-0.472345	0.000426	4.257065	1.442333	-0.000170
1014	1.0079e+02	-0.3642	-0.662090	0.000476	4.763858	1.614039	-0.000191
1015	1.0089e+02	-0.3946	-0.827613	0.000416	4.155706	1.407991	-0.000166
1016	1.0099e+02	-0.4444	-0.960838	0.000334	3.344836	1.133261	-0.000134
1017	1.0109e+02	-0.4749	-1.178844	0.000547	5.473369	1.854428	-0.000219
1018	1.0119e+02	-0.5166	-1.303995	0.000314	3.142119	1.064579	-0.000126
1019	1.0129e+02	-0.5486	-1.461443	0.000395	3.952989	1.339309	-0.000158
1020	1.0139e+02	-0.5952	-1.631003	0.000426	4.257065	1.442333	-0.000170
1021	1.0149e+02	-0.6369	-1.836897	0.000517	5.169293	1.751404	-0.000207
1022	1.0159e+02	-0.6818	-1.953974	0.000294	2.939402	0.995896	-0.000118
1023	1.0169e+02	-0.7187	-2.143719	0.000476	4.763858	1.614039	-0.000191
1024	1.0179e+02	-0.7572	-2.329427	0.000466	4.662499	1.579698	-0.000187
1025	1.0189e+02	-0.7941	-2.515136	0.000466	4.662499	1.579698	-0.000187
1026	1.0199e+02	-0.8406	-2.708918	0.000487	4.865217	1.648380	-0.000195
1027	1.0209e+02	-0.8759	-2.850218	0.000355	3.547554	1.201944	-0.000142
1028	1.0219e+02	-0.9144	-2.987480	0.000345	3.446195	1.167603	-0.000138
1029	1.0229e+02	-0.9609	-3.209523	0.000557	5.574727	1.888769	-0.000223
1030	1.0239e+02	-0.9946	-3.354860	0.000365	3.648913	1.236285	-0.000146
1031	1.0248e+02	-1.0395	-3.496160	0.000355	3.547554	1.201944	-0.000142
1032	1.0258e+02	-1.0748	-3.657645	0.000405	4.054347	1.373650	-0.000162
1033	1.0268e+02	-1.1165	-3.883725	0.000568	5.676086	1.923110	-0.000227
1034	1.0278e+02	-1.1615	-3.996764	0.000284	2.838043	0.961555	-0.000114
1035	1.0288e+02	-1.2032	-4.178435	0.000456	4.561141	1.545356	-0.000183
1036	1.0298e+02	-1.2337	-4.372218	0.000487	4.865217	1.648380	-0.000195
1037	1.0308e+02	-1.2754	-4.521592	0.000375	3.750271	1.270626	-0.000150
1038	1.0318e+02	-1.3074	-4.715375	0.000487	4.865217	1.648380	-0.000195
1039	1.0328e+02	-1.3508	-4.860711	0.000365	3.648913	1.236285	-0.000146
1040	1.0338e+02	-1.3957	-5.018160	0.000395	3.952989	1.339309	-0.000158
1041	1.0348e+02	-1.4326	-5.195794	0.000446	4.459782	1.511015	-0.000179
1042	1.0358e+02	-1.4743	-5.333056	0.000345	3.446195	1.167603	-0.000138
1043	1.0368e+02	-1.5112	-5.506653	0.000436	4.358423	1.476674	-0.000174
1044	1.0378e+02	-1.5449	-5.672176	0.000416	4.155706	1.407991	-0.000166
1045	1.0388e+02	-1.5866	-5.825587	0.000385	3.851630	1.304968	-0.000154
1046	1.0398e+02	-1.6283	-6.031481	0.000517	5.169293	1.751404	-0.000207
1047	1.0408e+02	-1.6684	-6.176818	0.000365	3.648913	1.236285	-0.000146
1048	1.0418e+02	-1.7117	-6.326192	0.000375	3.750271	1.270626	-0.000150
1049	1.0428e+02	-1.7518	-6.491714	0.000416	4.155706	1.407991	-0.000166
1050	1.0438e+02	-1.7871	-6.669348	0.000446	4.459782	1.511015	-0.000179
1051	1.0447e+02	-1.8288	-6.818722	0.000375	3.750271	1.270626	-0.000150
1052	1.0457e+02	-1.8753	-6.984245	0.000416	4.155706	1.407991	-0.000166
1053	1.0467e+02	-1.9058	-7.182064	0.000497	4.966575	1.682721	-0.000199
1054	1.0477e+02	-1.9572	-7.359698	0.000446	4.459782	1.511015	-0.000179
1055	1.0487e+02	-1.9925	-7.472738	0.000284	2.838043	0.961555	-0.000114
1056	1.0497e+02	-2.0294	-7.670558	0.000497	4.966575	1.682721	-0.000199
1057	1.0507e+02	-2.0695	-7.828006	0.000395	3.952989	1.339309	-0.000158
1058	1.0517e+02	-2.1080	-7.961232	0.000334	3.344836	1.133261	-0.000134
1059	1.0527e+02	-2.1497	-8.146940	0.000466	4.662499	1.579698	-0.000187
1060	1.0537e+02	-2.1962	-8.296314	0.000375	3.750271	1.270626	-0.000150
1061	1.0547e+02	-2.2395	-8.445688	0.000375	3.750271	1.270626	-0.000150
1062	1.0557e+02	-2.2748	-8.631396	0.000466	4.662499	1.579698	-0.000187
1063	1.0567e+02	-2.3085	-8.784807	0.000385	3.851630	1.304968	-0.000154
1064	1.0577e+02	-2.3534	-8.938219	0.000385	3.851630	1.304968	-0.000154
1065	1.0587e+02	-2.3983	-9.127964	0.000476	4.763858	1.614039	-0.000191
1066	1.0597e+02	-2.4320	-9.277338	0.000375	3.750271	1.270626	-0.000150
1067	1.0607e+02	-2.4705	-9.426712	0.000375	3.750271	1.270626	-0.000150
1068	1.0617e+02	-2.5090	-9.596272	0.000426	4.257065	1.442333	-0.000170
1069	1.0627e+02	-2.5459	-9.786017	0.000476	4.763858	1.614039	-0.000191
1070	1.0637e+02	-2.5908	-9.915205	0.000324	3.243478	1.098920	-0.000130
1071	1.0647e+02	-2.6309	-10.064579	0.000375	3.750271	1.270626	-0.000150
1072	1.0656e+02	-2.6759	-10.234139	0.000426	4.257065	1.442333	-0.000170
1073	1.0666e+02	-2.7144	-10.427922	0.000487	4.865217	1.648380	-0.000195
1074	1.0676e+02	-2.7432	-10.601518	0.000436	4.358423	1.476674	-0.000174
1075	1.0686e+02	-2.7849	-10.734744	0.000334	3.344836	1.133261	-0.000134
1076	1.0696e+02	-2.8234	-10.888155	0.000385	3.851630	1.304968	-0.000154
1077	1.0706e+02	-2.8700	-11.029455	0.000355	3.547554	1.201944	-0.000142
1078	1.0716e+02	-2.9085	-11.182866	0.000385	3.851630	1.304968	-0.000154
1079	1.0726e+02	-2.9566	-11.376649	0.000487	4.865217	1.648380	-0.000195
1080	1.0736e+02	-2.9983	-11.542171	0.000416	4.155706	1.407991	-0.000166
1081	1.0746e+02	-3.0320	-11.675397	0.000334	3.344836	1.133261	-0.000134
1082	1.0756e+02	-3.0673	-11.828808	0.000385	3.851630	1.304968	-0.000154
1083	1.0766e+02	-3.1138	-12.010479	0.000456	4.561141	1.545356	-0.000183
1084	1.0776e+02	-3.1443	-12.180039	0.000426	4.257065	1.442333	-0.000170
1085	1.0786e+02	-3.1908	-12.317301	0.000345	3.446195	1.167603	-0.000138
1086	1.0796e+02	-3.2309	-12.458601	0.000355	3.547554	1.201944	-0.000142
1087	1.0806e+02	-3.2694	-12.652383	0.000487	4.865217	1.648380	-0.000195
1088	1.0816e+02	-3.3111	-12.781572	0.000324	3.243478	1.098920	-0.000130
1089	1.0826e+02	-3.3480	-12.963243	0.000456	4.561141	1.545356	-0.000183
1090	1.0836e+02	-3.3833	-13.088394	0.000314	3.142119	1.064579	-0.000126
1091	1.0845e+02	-3.4282	-13.261991	0.000436	4.358423	1.476674	-0.000174
1092	1.0855e+02	-3.4651	-13.407328	0.000365	3.648913	1.236285	-0.000146
1093	1.0865e+02	-3.5117	-13.593036	0.000466	4.662499	1.579698	-0.000187
1094	1.0875e+02	-3.5470	-13.718187	0.000314	3.142119	1.064579	-0.000126
1095	1.0885e+02	-3.5935	-13.875636	0.000395	3.952989	1.339309	-0.000158
1096	1.0895e+02	-3.6352	-14.000787	0.000314	3.142119	1.064579	-0.000126
1097	1.0905e+02	-3.6737	-14.194569	0.000487	4.865217	1.648380	-0.000195
1098	1.0915e+02	-3.7026	-14.368166	0.000436	4.358423	1.476674	-0.000174
1099	1.0925e+02	-3.7507	-14.485243	0.000294	2.939402	0.995896	-0.000118
1100	1.0935e+02	-3.7796	-14.654803	0.000426	4.257065	1.442333	-0.000170
1101	1.0945e+02	-3.8245	-14.812251	0.000395	3.952989	1.339309	-0.000158
1102	1.0955e+02	-3.8566	-14.913179	0.000253	2.533967	0.858531	-0.000101
1103	1.0965e+02	-3.9063	-15.151370	0.000598	5.980162	2.026134	-0.000239
1104	1.0975e+02	-3.9480	-15.280559	0.000324	3.243478	1.098920	-0.000130
1105	1.0985e+02	-3.9817	-15.409747	0.000324	3.243478	1.098920	-0.000130
1106	1.0995e+02	-4.0346	-15.563158	0.000385	3.851630	1.304968	-0.000154
1107	1.1005e+02	-4.0587	-15.752904	0.000476	4.763858	1.614039	-0.000191
1108	1.1015e+02	-4.1068	-15.918426	0.000416	4.155706	1.407991	-0.000166
1109	1.1025e+02	-4.1485	-16.011280	0.000233	2.331250	0.789849	-0.000093
1110	1.1035e+02	-4.1790	-16.168729	0.000395	3.952989	1.339309	-0.000158
1111	1.1044e+02	-4.2255	-16.346363	0.000446	4.459782	1.511015	-0.000179
1112	1.1054e+02	-4.2641	-16.528034	0.000456	4.561141	1.545356	-0.000183
1113	1.1064e+02	-4.3058	-16.657222	0.000324	3.243478	1.098920	-0.000130
1114	1.1074e+02	-4.3507	-16.838893	0.000456	4.561141	1.545356	-0.000183
1115	1.1084e+02	-4.3892	-16.984230	0.000365	3.648913	1.236285	-0.000146
1116	1.1094e+02	-4.4197	-17.097270	0.000284	2.838043	0.961555	-0.000114
1117	1.1104e+02	-4.4630	-17.266830	0.000426	4.257065	1.442333	-0.000170
1118	1.1114e+02	-4.5047	-17.396018	0.000324	3.243478	1.098920	-0.000130
1119	1.1124e+02	-4.5464	-17.597875	0.000507	5.067934	1.717063	-0.000203
1120	1.1134e+02	-4.5849	-17.723026	0.000314	3.142119	1.064579	-0.000126
1121	1.1144e+02	-4.6234	-17.872400	0.000375	3.750271	1.270626	-0.000150
1122	1.1154e+02	-4.6635	-18.021774	0.000375	3.750271	1.270626	-0.000150
1123	1.1164e+02	-4.7116	-18.146925	0.000314	3.142119	1.064579	-0.000126
1124	1.1174e+02	-4.7389	-18.292262	0.000365	3.648913	1.236285	-0.000146
1125	1.1184e+02	-4.7854	-18.473933	0.000456	4.561141	1.545356	-0.000183
1126	1.1194e+02	-4.8271	-18.623307	0.000375	3.750271	1.270626	-0.000150
1127	1.1204e+02	-4.8592	-18.809015	0.000466	4.662499	1.579698	-0.000187
1128	1.1214e+02	-4.9025	-18.958389	0.000375	3.750271	1.270626	-0.000150
1129	1.1224e+02	-4.9426	-19.051244	0.000233	2.331250	0.789849	-0.000093
1130	1.1234e+02	-4.9779	-19.240989	0.000476	4.763858	1.614039	-0.000191
1131	1.1244e+02	-5.0261	-19.390363	0.000375	3.750271	1.270626	-0.000150
1132	1.1253e+02	-5.0678	-19.527626	0.000345	3.446195	1.167603	-0.000138
1133	1.1263e+02	-5.1063	-19.664888	0.000345	3.446195	1.167603	-0.000138
1134	1.1273e+02	-5.1351	-19.806188	0.000355	3.547554	1.201944	-0.000142
1135	1.1283e+02	-5.1753	-19.971710	0.000416	4.155706	1.407991	-0.000166
1136	1.1293e+02	-5.2234	-20.161456	0.000476	4.763858	1.614039	-0.000191
1137	1.1303e+02	-5.2603	-20.226050	0.000162	1.621739	0.549460	-0.000065
1138	1.1313e+02	-5.3020	-20.427907	0.000507	5.067934	1.717063	-0.000203
1139	1.1323e+02	-5.3405	-20.573244	0.000365	3.648913	1.236285	-0.000146
1140	1.1333e+02	-5.3790	-20.722618	0.000375	3.750271	1.270626	-0.000150
1141	1.1343e+02	-5.4175	-20.884103	0.000405	4.054347	1.373650	-0.000162
1142	1.1353e+02	-5.4672	-21.029440	0.000365	3.648913	1.236285	-0.000146
1143	1.1363e+02	-5.5057	-21.146517	0.000294	2.939402	0.995896	-0.000118
1144	1.1373e+02	-5.5474	-21.336262	0.000476	4.763858	1.614039	-0.000191
1145	1.1383e+02	-5.5779	-21.445265	0.000274	2.736684	0.927214	-0.000110
1146	1.1393e+02	-5.6164	-21.590602	0.000365	3.648913	1.236285	-0.000146
1147	1.1403e+02	-5.6597	-21.748050	0.000395	3.952989	1.339309	-0.000158
1148	1.1413e+02	-5.7047	-21.885313	0.000345	3.446195	1.167603	-0.000138
1149	1.1423e+02	-5.7480	-22.034687	0.000375	3.750271	1.270626	-0.000150
1150	1.1433e+02	-5.7817	-22.155801	0.000304	3.040760	1.030238	-0.000122
1151	1.1442e+02	-5.8169	-22.305175	0.000375	3.750271	1.270626	-0.000150
1152	1.1452e+02	-5.8506	-22.446475	0.000355	3.547554	1.201944	-0.000142
1153	1.1462e+02	-5.9052	-22.632183	0.000466	4.662499	1.579698	-0.000187
1154	1.1472e+02	-5.9357	-22.712926	0.000203	2.027174	0.686825	-0.000081
1155	1.1482e+02	-5.9758	-22.890560	0.000446	4.459782	1.511015	-0.000179
1156	1.1492e+02	-6.0223	-23.003599	0.000284	2.838043	0.961555	-0.000114
1157	1.1502e+02	-6.0592	-23.169122	0.000416	4.155706	1.407991	-0.000166
1158	1.1512e+02	-6.0977	-23.302347	0.000334	3.344836	1.133261	-0.000134
1159	1.1522e+02	-6.1394	-23.431536	0.000324	3.243478	1.098920	-0.000130
1160	1.1532e+02	-6.1747	-23.572836	0.000355	3.547554	1.201944	-0.000142
1161	1.1542e+02	-6.2244	-23.746432	0.000436	4.358423	1.476674	-0.000174
1162	1.1552e+02	-6.2565	-23.871584	0.000314	3.142119	1.064579	-0.000126
1163	1.1562e+02	-6.3014	-24.012883	0.000355	3.547554	1.201944	-0.000142
1164	1.1572e+02	-6.3351	-24.158220	0.000365	3.648913	1.236285	-0.000146
1165	1.1582e+02	-6.3800	-24.291446	0.000334	3.344836	1.133261	-0.000134
1166	1.1592e+02	-6.4169	-24.473117	0.000456	4.561141	1.545356	-0.000183
1167	1.1602e+02	-6.4554	-24.578082	0.000264	2.635326	0.892873	-0.000105
1168	1.1612e+02	-6.4811	-24.735531	0.000395	3.952989	1.339309	-0.000158
1169	1.1622e+02	-6.5356	-24.888942	0.000385	3.851630	1.304968	-0.000154
1170	1.1632e+02	-6.5661	-24.973722	0.000213	2.128532	0.721166	-0.000085
1171	1.1642e+02	-6.6143	-25.127133	0.000385	3.851630	1.304968	-0.000154
1172	1.1651e+02	-6.6495	-25.272470	0.000365	3.648913	1.236285	-0.000146
1173	1.1661e+02	-6.6897	-25.405695	0.000334	3.344836	1.133261	-0.000134
1174	1.1671e+02	-6.7346	-25.563143	0.000395	3.952989	1.339309	-0.000158
1175	1.1681e+02	-6.7731	-25.728666	0.000416	4.155706	1.407991	-0.000166
1176	1.1691e+02	-6.8019	-25.805372	0.000193	1.925815	0.652484	-0.000077
1177	1.1701e+02	-6.8453	-25.987043	0.000456	4.561141	1.545356	-0.000183
1178	1.1711e+02	-6.8966	-26.096045	0.000274	2.736684	0.927214	-0.000110
1179	1.1721e+02	-6.9319	-26.241382	0.000365	3.648913	1.236285	-0.000146
1180	1.1731e+02	-6.9720	-26.358459	0.000294	2.939402	0.995896	-0.000118
1181	1.1741e+02	-7.0153	-26.487648	0.000324	3.243478	1.098920	-0.000130
1182	1.1751e+02	-7.0458	-26.600687	0.000284	2.838043	0.961555	-0.000114
1183	1.1761e+02	-7.0891	-26.770247	0.000426	4.257065	1.442333	-0.000170
1184	1.1771e+02	-7.1276	-26.919621	0.000375	3.750271	1.270626	-0.000150
1185	1.1781e+02	-7.1709	-27.056884	0.000345	3.446195	1.167603	-0.000138
1186	1.1791e+02	-7.2126	-27.161849	0.000264	2.635326	0.892873	-0.000105
1187	1.1801e+02	-7.2463	-27.303149	0.000355	3.547554	1.201944	-0.000142
1188	1.1811e+02	-7.2832	-27.416189	0.000284	2.838043	0.961555	-0.000114
1189	1.1821e+02	-7.3378	-27.577674	0.000405	4.054347	1.373650	-0.000162
1190	1.1831e+02	-7.3650	-27.718974	0.000355	3.547554	1.201944	-0.000142
1191	1.1841e+02	-7.4116	-27.836051	0.000294	2.939402	0.995896	-0.000118
1192	1.1850e+02	-7.4485	-27.945054	0.000274	2.736684	0.927214	-0.000110
1193	1.1860e+02	-7.4870	-28.114613	0.000426	4.257065	1.442333	-0.000170
1194	1.1870e+02	-7.5287	-28.231690	0.000294	2.939402	0.995896	-0.000118
1195	1.1880e+02	-7.5607	-28.397213	0.000416	4.155706	1.407991	-0.000166
1196	1.1890e+02	-7.6073	-28.502178	0.000264	2.635326	0.892873	-0.000105
1197	1.1900e+02	-7.6394	-28.663664	0.000405	4.054347	1.373650	-0.000162
1198	1.1910e+02	-7.6971	-28.764592	0.000253	2.533967	0.858531	-0.000101
1199	1.1920e+02	-7.7292	-28.938189	0.000436	4.358423	1.476674	-0.000174
1200	1.1930e+02	-7.7709	-29.031043	0.000233	2.331250	0.789849	-0.000093
1201	1.1940e+02	-7.8158	-29.168306	0.000345	3.446195	1.167603	-0.000138
1202	1.1950e+02	-7.8495	-29.305568	0.000345	3.446195	1.167603	-0.000138
1203	1.1960e+02	-7.8784	-29.394385	0.000223	2.229891	0.755508	-0.000089
1204	1.1970e+02	-7.9169	-29.596242	0.000507	5.067934	1.717063	-0.000203
1205	1.1980e+02	-7.9682	-29.628539	0.000081	0.810869	0.274730	-0.000032
1206	1.1990e+02	-8.0099	-29.806173	0.000446	4.459782	1.511015	-0.000179
1207	1.2000e+02	-8.0484	-29.935361	0.000324	3.243478	1.098920	-0.000130
1208	1.2010e+02	-8.0725	-30.068587	0.000334	3.344836	1.133261	-0.000134
1209	1.2020e+02	-8.1286	-30.165478	0.000243	2.432608	0.824190	-0.000097
1210	1.2030e+02	-8.1623	-30.314852	0.000375	3.750271	1.270626	-0.000150
1211	1.2039e+02	-8.2185	-30.476338	0.000405	4.054347	1.373650	-0.000162
1212	1.2049e+02	-8.2474	-30.577266	0.000253	2.533967	0.858531	-0.000101
1213	1.2059e+02	-8.2891	-30.702417	0.000314	3.142119	1.064579	-0.000126
1214	1.2069e+02	-8.3292	-30.876014	0.000436	4.358423	1.476674	-0.000174
1215	1.2079e+02	-8.3661	-30.952720	0.000193	1.925815	0.652484	-0.000077
1216	1.2089e+02	-8.4046	-31.053648	0.000253	2.533967	0.858531	-0.000101
1217	1.2099e+02	-8.4415	-31.190911	0.000345	3.446195	1.167603	-0.000138
1218	1.2109e+02	-8.4768	-31.364508	0.000436	4.358423	1.476674	-0.000174
1219	1.2119e+02	-8.5265	-31.465436	0.000253	2.533967	0.858531	-0.000101
1220	1.2129e+02	-8.5714	-31.598661	0.000334	3.344836	1.133261	-0.000134
1221	1.2139e+02	-8.6035	-31.711701	0.000284	2.838043	0.961555	-0.000114
1222	1.2149e+02	-8.6468	-31.840890	0.000324	3.243478	1.098920	-0.000130
1223	1.2159e+02	-8.6805	-31.941818	0.000253	2.533967	0.858531	-0.000101
1224	1.2169e+02	-8.7190	-32.099266	0.000395	3.952989	1.339309	-0.000158
1225	1.2179e+02	-8.7671	-32.212306	0.000284	2.838043	0.961555	-0.000114
1226	1.2189e+02	-8.8040	-32.317272	0.000264	2.635326	0.892873	-0.000105
1227	1.2199e+02	-8.8409	-32.458571	0.000355	3.547554	1.201944	-0.000142
1228	1.2209e+02	-8.8874	-32.579685	0.000304	3.040760	1.030238	-0.000122
1229	1.2219e+02	-8.9292	-32.720985	0.000355	3.547554	1.201944	-0.000142
1230	1.2229e+02	-8.9709	-32.866322	0.000365	3.648913	1.236285	-0.000146
1231	1.2239e+02	-8.9981	-32.938990	0.000182	1.824456	0.618143	-0.000073
1232	1.2248e+02	-9.0447	-33.080290	0.000355	3.547554	1.201944	-0.000142
1233	1.2258e+02	-9.0864	-33.197367	0.000294	2.939402	0.995896	-0.000118
1234	1.2268e+02	-9.1153	-33.322518	0.000314	3.142119	1.064579	-0.000126
1235	1.2278e+02	-9.1618	-33.504189	0.000456	4.561141	1.545356	-0.000183
1236	1.2288e+02	-9.1987	-33.629341	0.000314	3.142119	1.064579	-0.000126
1237	1.2298e+02	-9.2404	-33.702009	0.000182	1.824456	0.618143	-0.000073
1238	1.2308e+02	-9.2821	-33.815049	0.000284	2.838043	0.961555	-0.000114
1239	1.2318e+02	-9.3190	-33.988646	0.000436	4.358423	1.476674	-0.000174
1240	1.2328e+02	-9.3639	-34.089574	0.000253	2.533967	0.858531	-0.000101
1241	1.2338e+02	-9.4024	-34.218763	0.000324	3.243478	1.098920	-0.000130
1242	1.2348e+02	-9.4457	-34.303542	0.000213	2.128532	0.721166	-0.000085
1243	1.2358e+02	-9.4778	-34.432731	0.000324	3.243478	1.098920	-0.000130
1244	1.2368e+02	-9.5115	-34.557882	0.000314	3.142119	1.064579	-0.000126
1245	1.2378e+02	-9.5644	-34.711293	0.000385	3.851630	1.304968	-0.000154
1246	1.2388e+02	-9.6013	-34.808184	0.000243	2.432608	0.824190	-0.000097
1247	1.2398e+02	-9.6366	-34.929298	0.000304	3.040760	1.030238	-0.000122
1248	1.2408e+02	-9.6719	-35.062524	0.000334	3.344836	1.133261	-0.000134
1249	1.2418e+02	-9.7168	-35.207861	0.000365	3.648913	1.236285	-0.000146
1250	1.2428e+02	-9.7666	-35.288603	0.000203	2.027174	0.686825	-0.000081
1251	1.2438e+02	-9.8003	-35.437978	0.000375	3.750271	1.270626	-0.000150
1252	1.2447e+02	-9.8372	-35.530832	0.000233	2.331250	0.789849	-0.000093
1253	1.2457e+02	-9.8757	-35.651946	0.000304	3.040760	1.030238	-0.000122
1254	1.2467e+02	-9.9190	-35.817468	0.000416	4.155706	1.407991	-0.000166
1255	1.2477e+02	-9.9671	-35.914360	0.000243	2.432608	0.824190	-0.000097
1256	1.2487e+02	-9.9928	-36.047585	0.000334	3.344836	1.133261	-0.000134
1257	1.2497e+02	-10.0377	-36.128328	0.000203	2.027174	0.686825	-0.000081
1258	1.2507e+02	-10.0794	-36.265590	0.000345	3.446195	1.167603	-0.000138
1259	1.2517e+02	-10.1179	-36.419001	0.000385	3.851630	1.304968	-0.000154
1260	1.2527e+02	-10.1644	-36.523967	0.000264	2.635326	0.892873	-0.000105
1261	1.2537e+02	-10.2013	-36.608747	0.000213	2.128532	0.721166	-0.000085
1262	1.2547e+02	-10.2398	-36.794455	0.000466	4.662499	1.579698	-0.000187
1263	1.2557e+02	-10.2783	-36.859049	0.000162	1.621739	0.549460	-0.000065
1264	1.2567e+02	-10.3152	-36.984200	0.000314	3.142119	1.064579	-0.000126
1265	1.2577e+02	-10.3569	-37.133575	0.000375	3.750271	1.270626	-0.000150
1266	1.2587e+02	-10.3970	-37.246614	0.000284	2.838043	0.961555	-0.000114
1267	1.2597e+02	-10.4387	-37.379840	0.000334	3.344836	1.133261	-0.000134
1268	1.2607e+02	-10.4724	-37.464620	0.000213	2.128532	0.721166	-0.000085
1269	1.2617e+02	-10.5093	-37.618031	0.000385	3.851630	1.304968	-0.000154
1270	1.2627e+02	-10.5575	-37.747219	0.000324	3.243478	1.098920	-0.000130
1271	1.2636e+02	-10.5944	-37.840073	0.000233	2.331250	0.789849	-0.000093
1272	1.2646e+02	-10.6329	-37.989447	0.000375	3.750271	1.270626	-0.000150
1273	1.2656e+02	-10.6778	-38.090376	0.000253	2.533967	0.858531	-0.000101
1274	1.2666e+02	-10.7227	-38.203415	0.000284	2.838043	0.961555	-0.000114
1275	1.2676e+02	-10.7516	-38.344715	0.000355	3.547554	1.201944	-0.000142
1276	1.2686e+02	-10.8045	-38.449681	0.000264	2.635326	0.892873	-0.000105
1277	1.2696e+02	-10.8398	-38.595018	0.000365	3.648913	1.236285	-0.000146
1278	1.2706e+02	-10.8767	-38.716132	0.000304	3.040760	1.030238	-0.000122
1279	1.2716e+02	-10.9152	-38.796874	0.000203	2.027174	0.686825	-0.000081
1280	1.2726e+02	-10.9521	-38.954323	0.000395	3.952989	1.339309	-0.000158
1281	1.2736e+02	-10.9922	-39.035065	0.000203	2.027174	0.686825	-0.000081
1282	1.2746e+02	-11.0371	-39.140031	0.000264	2.635326	0.892873	-0.000105
1283	1.2756e+02	-11.0740	-39.289405	0.000375	3.750271	1.270626	-0.000150
1284	1.2766e+02	-11.1125	-39.410519	0.000304	3.040760	1.030238	-0.000122
1285	1.2776e+02	-11.1558	-39.547782	0.000345	3.446195	1.167603	-0.000138
1286	1.2786e+02	-11.2008	-39.612376	0.000162	1.621739	0.549460	-0.000065
1287	1.2796e+02	-11.2377	-39.794047	0.000456	4.561141	1.545356	-0.000183
1288	1.2806e+02	-11.2794	-39.846530	0.000132	1.317663	0.446436	-0.000053
1289	1.2816e+02	-11.3227	-39.999941	0.000385	3.851630	1.304968	-0.000154
1290	1.2826e+02	-11.3532	-40.125092	0.000314	3.142119	1.064579	-0.000126
1291	1.2835e+02	-11.3917	-40.258318	0.000334	3.344836	1.133261	-0.000134
1292	1.2845e+02	-11.4350	-40.367320	0.000274	2.736684	0.927214	-0.000110
1293	1.2855e+02	-11.4719	-40.468249	0.000253	2.533967	0.858531	-0.000101
1294	1.2865e+02	-11.5040	-40.589363	0.000304	3.040760	1.030238	-0.000122
1295	1.2875e+02	-11.5633	-40.702403	0.000284	2.838043	0.961555	-0.000114
1296	1.2885e+02	-11.5938	-40.880036	0.000446	4.459782	1.511015	-0.000179
1297	1.2895e+02	-11.6323	-40.936556	0.000142	1.419022	0.480778	-0.000057
1298	1.2905e+02	-11.6660	-41.061708	0.000314	3.142119	1.064579	-0.000126
1299	1.2915e+02	-11.7093	-41.194933	0.000334	3.344836	1.133261	-0.000134
1300	1.2925e+02	-11.7462	-41.312010	0.000294	2.939402	0.995896	-0.000118
1301	1.2935e+02	-11.7943	-41.404864	0.000233	2.331250	0.789849	-0.000093
1302	1.2945e+02	-11.8280	-41.562312	0.000395	3.952989	1.339309	-0.000158
1303	1.2955e+02	-11.8697	-41.695538	0.000334	3.344836	1.133261	-0.000134
1304	1.2965e+02	-11.9034	-41.788392	0.000233	2.331250	0.789849	-0.000093
1305	1.2975e+02	-11.9515	-41.881246	0.000233	2.331250	0.789849	-0.000093
1306	1.2985e+02	-11.9852	-42.006397	0.000314	3.142119	1.064579	-0.000126
1307	1.2995e+02	-12.0366	-42.103289	0.000243	2.432608	0.824190	-0.000097
1308	1.3005e+02	-12.0831	-42.260737	0.000395	3.952989	1.339309	-0.000158
1309	1.3015e+02	-12.1136	-42.402037	0.000355	3.547554	1.201944	-0.000142
1310	1.3025e+02	-12.1505	-42.462594	0.000152	1.520380	0.515119	-0.000061
1311	1.3034e+02	-12.1938	-42.628116	0.000416	4.155706	1.407991	-0.000166
1312	1.3044e+02	-12.2323	-42.769416	0.000355	3.547554	1.201944	-0.000142
1313	1.3054e+02	-12.2595	-42.854196	0.000213	2.128532	0.721166	-0.000085
1314	1.3064e+02	-12.3141	-42.922827	0.000172	1.723098	0.583801	-0.000069
1315	1.3074e+02	-12.3446	-43.088350	0.000416	4.155706	1.407991	-0.000166
1316	1.3084e+02	-12.3927	-43.185241	0.000243	2.432608	0.824190	-0.000097
1317	1.3094e+02	-12.4232	-43.302318	0.000294	2.939402	0.995896	-0.000118
1318	1.3104e+02	-12.4633	-43.459766	0.000395	3.952989	1.339309	-0.000158
1319	1.3114e+02	-12.5034	-43.520323	0.000152	1.520380	0.515119	-0.000061
1320	1.3124e+02	-12.5499	-43.681809	0.000405	4.054347	1.373650	-0.000162
1321	1.3134e+02	-12.5868	-43.790811	0.000274	2.736684	0.927214	-0.000110
1322	1.3144e+02	-12.6285	-43.871554	0.000203	2.027174	0.686825	-0.000081
1323	1.3154e+02	-12.6606	-43.996705	0.000314	3.142119	1.064579	-0.000126
1324	1.3164e+02	-12.7071	-44.146079	0.000375	3.750271	1.270626	-0.000150
1325	1.3174e+02	-12.7472	-44.263156	0.000294	2.939402	0.995896	-0.000118
1326	1.3184e+02	-12.7809	-44.351973	0.000223	2.229891	0.755508	-0.000089
1327	1.3194e+02	-12.8355	-44.420605	0.000172	1.723098	0.583801	-0.000069
1328	1.3204e+02	-12.8676	-44.557867	0.000345	3.446195	1.167603	-0.000138
1329	1.3214e+02	-12.8996	-44.715315	0.000395	3.952989	1.339309	-0.000158
1330	1.3224e+02	-12.9558	-44.836430	0.000304	3.040760	1.030238	-0.000122
1331	1.3234e+02	-12.9782	-44.929284	0.000233	2.331250	0.789849	-0.000093
1332	1.3243e+02	-13.0183	-44.989841	0.000152	1.520380	0.515119	-0.000061
1333	1.3253e+02	-13.0665	-45.139215	0.000375	3.750271	1.270626	-0.000150
1334	1.3263e+02	-13.1098	-45.223995	0.000213	2.128532	0.721166	-0.000085
1335	1.3273e+02	-13.1515	-45.353183	0.000324	3.243478	1.098920	-0.000130
1336	1.3283e+02	-13.1788	-45.530817	0.000446	4.459782	1.511015	-0.000179
1337	1.3293e+02	-13.2349	-45.631745	0.000253	2.533967	0.858531	-0.000101
1338	1.3303e+02	-13.2654	-45.744785	0.000284	2.838043	0.961555	-0.000114
1339	1.3313e+02	-13.3135	-45.853788	0.000274	2.736684	0.927214	-0.000110
1340	1.3323e+02	-13.3360	-45.926456	0.000182	1.824456	0.618143	-0.000073
1341	1.3333e+02	-13.3921	-46.091979	0.000416	4.155706	1.407991	-0.000166
1342	1.3343e+02	-13.4322	-46.172721	0.000203	2.027174	0.686825	-0.000081
1343	1.3353e+02	-13.4723	-46.309984	0.000345	3.446195	1.167603	-0.000138
1344	1.3363e+02	-13.5012	-46.398801	0.000223	2.229891	0.755508	-0.000089
1345	1.3373e+02	-13.5526	-46.536064	0.000345	3.446195	1.167603	-0.000138
1346	1.3383e+02	-13.5782	-46.632955	0.000243	2.432608	0.824190	-0.000097
1347	1.3393e+02	-13.6280	-46.745995	0.000284	2.838043	0.961555	-0.000114
1348	1.3403e+02	-13.6649	-46.859035	0.000284	2.838043	0.961555	-0.000114
1349	1.3413e+02	-13.7082	-46.988223	0.000324	3.243478	1.098920	-0.000130
1350	1.3423e+02	-13.7419	-47.060891	0.000182	1.824456	0.618143	-0.000073
1351	1.3432e+02	-13.7884	-47.186043	0.000314	3.142119	1.064579	-0.000126
1352	1.3442e+02	-13.8092	-47.286971	0.000253	2.533967	0.858531	-0.000101
1353	1.3452e+02	-13.8638	-47.379825	0.000233	2.331250	0.789849	-0.000093
1354	1.3462e+02	-13.9007	-47.484791	0.000264	2.635326	0.892873	-0.000105
1355	1.3472e+02	-13.9424	-47.634165	0.000375	3.750271	1.270626	-0.000150
1356	1.3482e+02	-13.9889	-47.702796	0.000172	1.723098	0.583801	-0.000069
1357	1.3492e+02	-14.0210	-47.807761	0.000264	2.635326	0.892873	-0.000105
1358	1.3502e+02	-14.0611	-47.940987	0.000334	3.344836	1.133261	-0.000134
1359	1.3512e+02	-14.1044	-48.041915	0.000253	2.533967	0.858531	-0.000101
1360	1.3522e+02	-14.1429	-48.158992	0.000294	2.939402	0.995896	-0.000118
1361	1.3532e+02	-14.1862	-48.259921	0.000253	2.533967	0.858531	-0.000101
1362	1.3542e+02	-14.2199	-48.376998	0.000294	2.939402	0.995896	-0.000118
1363	1.3552e+02	-14.2584	-48.453703	0.000193	1.925815	0.652484	-0.000077
1364	1.3562e+02	-14.3017	-48.599040	0.000365	3.648913	1.236285	-0.000146
1365	1.3572e+02	-14.3386	-48.699968	0.000253	2.533967	0.858531	-0.000101
1366	1.3582e+02	-14.3852	-48.788785	0.000223	2.229891	0.755508	-0.000089
1367	1.3592e+02	-14.4124	-48.885677	0.000243	2.432608	0.824190	-0.000097
1368	1.3602e+02	-14.4622	-49.031014	0.000365	3.648913	1.236285	-0.000146
1369	1.3612e+02	-14.4991	-49.156165	0.000314	3.142119	1.064579	-0.000126
1370	1.3622e+02	-14.5456	-49.244982	0.000223	2.229891	0.755508	-0.000089
1371	1.3631e+02	-14.5793	-49.293427	0.000122	1.216304	0.412095	-0.000049
1372	1.3641e+02	-14.6178	-49.467024	0.000436	4.358423	1.476674	-0.000174
1373	1.3651e+02	-14.6531	-49.559878	0.000233	2.331250	0.789849	-0.000093
1374	1.3661e+02	-14.6996	-49.612361	0.000132	1.317663	0.446436	-0.000053
1375	1.3671e+02	-14.7413	-49.789995	0.000446	4.459782	1.511015	-0.000179
1376	1.3681e+02	-14.7798	-49.882849	0.000233	2.331250	0.789849	-0.000093
1377	1.3691e+02	-14.8167	-49.975703	0.000233	2.331250	0.789849	-0.000093
1378	1.3701e+02	-14.8568	-50.068557	0.000233	2.331250	0.789849	-0.000093
1379	1.3711e+02	-14.9017	-50.157374	0.000223	2.229891	0.755508	-0.000089
1380	1.3721e+02	-14.9450	-50.282526	0.000314	3.142119	1.064579	-0.000126
1381	1.3731e+02	-14.9755	-50.359231	0.000193	1.925815	0.652484	-0.000077
1382	1.3741e+02	-15.0317	-50.488420	0.000324	3.243478	1.098920	-0.000130
1383	1.3751e+02	-15.0654	-50.601459	0.000284	2.838043	0.961555	-0.000114
1384	1.3761e+02	-15.0990	-50.726611	0.000314	3.142119	1.064579	-0.000126
1385	1.3771e+02	-15.1488	-50.823502	0.000243	2.432608	0.824190	-0.000097
1386	1.3781e+02	-15.1696	-50.904245	0.000203	2.027174	0.686825	-0.000081
1387	1.3791e+02	-15.2226	-51.005173	0.000253	2.533967	0.858531	-0.000101
1388	1.3801e+02	-15.2530	-51.098027	0.000233	2.331250	0.789849	-0.000093
1389	1.3811e+02	-15.2996	-51.243364	0.000365	3.648913	1.236285	-0.000146
1390	1.3821e+02	-15.3284	-51.344292	0.000253	2.533967	0.858531	-0.000101
1391	1.3831e+02	-15.3782	-51.481555	0.000345	3.446195	1.167603	-0.000138
1392	1.3840e+02	-15.4167	-51.521926	0.000101	1.013587	0.343413	-0.000041
1393	1.3850e+02	-15.4520	-51.622855	0.000253	2.533967	0.858531	-0.000101
1394	1.3860e+02	-15.4905	-51.743969	0.000304	3.040760	1.030238	-0.000122
1395	1.3870e+02	-15.5354	-51.857009	0.000284	2.838043	0.961555	-0.000114
1396	1.3880e+02	-15.5755	-51.961974	0.000264	2.635326	0.892873	-0.000105
1397	1.3890e+02	-15.6140	-52.046754	0.000213	2.128532	0.721166	-0.000085
1398	1.3900e+02	-15.6477	-52.163831	0.000294	2.939402	0.995896	-0.000118
1399	1.3910e+02	-15.6958	-52.305131	0.000355	3.547554	1.201944	-0.000142
1400	1.3920e+02	-15.7343	-52.357613	0.000132	1.317663	0.446436	-0.000053
1401	1.3930e+02	-15.7792	-52.502950	0.000365	3.648913	1.236285	-0.000146
1402	1.3940e+02	-15.8161	-52.559470	0.000142	1.419022	0.480778	-0.000057
1403	1.3950e+02	-15.8514	-52.700770	0.000355	3.547554	1.201944	-0.000142
1404	1.3960e+02	-15.8883	-52.773438	0.000182	1.824456	0.618143	-0.000073
1405	1.3970e+02	-15.9381	-52.878404	0.000264	2.635326	0.892873	-0.000105
1406	1.3980e+02	-15.9717	-52.963184	0.000213	2.128532	0.721166	-0.000085
1407	1.3990e+02	-16.0183	-53.092372	0.000324	3.243478	1.098920	-0.000130
1408	1.4000e+02	-16.0600	-53.185226	0.000233	2.331250	0.789849	-0.000093
1409	1.4010e+02	-16.0969	-53.302303	0.000294	2.939402	0.995896	-0.000118
1410	1.4020e+02	-16.1338	-53.439566	0.000345	3.446195	1.167603	-0.000138
1411	1.4029e+02	-16.1675	-53.520308	0.000203	2.027174	0.686825	-0.000081
1412	1.4039e+02	-16.2140	-53.588940	0.000172	1.723098	0.583801	-0.000069
1413	1.4049e+02	-16.2557	-53.693905	0.000264	2.635326	0.892873	-0.000105
1414	1.4059e+02	-16.2862	-53.823094	0.000324	3.243478	1.098920	-0.000130
1415	1.4069e+02	-16.3295	-53.895762	0.000182	1.824456	0.618143	-0.000073
1416	1.4079e+02	-16.3776	-54.012839	0.000294	2.939402	0.995896	-0.000118
1417	1.4089e+02	-16.4145	-54.085507	0.000182	1.824456	0.618143	-0.000073
1418	1.4099e+02	-16.4498	-54.194510	0.000274	2.736684	0.927214	-0.000110
1419	1.4109e+02	-16.4931	-54.287364	0.000233	2.331250	0.789849	-0.000093
1420	1.4119e+02	-16.5332	-54.392330	0.000264	2.635326	0.892873	-0.000105
1421	1.4129e+02	-16.5765	-54.513444	0.000304	3.040760	1.030238	-0.000122
1422	1.4139e+02	-16.6070	-54.626484	0.000284	2.838043	0.961555	-0.000114
1423	1.4149e+02	-16.6519	-54.703189	0.000193	1.925815	0.652484	-0.000077
1424	1.4159e+02	-16.6969	-54.812192	0.000274	2.736684	0.927214	-0.000110
1425	1.4169e+02	-16.7338	-54.929269	0.000294	2.939402	0.995896	-0.000118
1426	1.4179e+02	-16.7755	-55.022123	0.000233	2.331250	0.789849	-0.000093
1427	1.4189e+02	-16.8124	-55.139200	0.000294	2.939402	0.995896	-0.000118
1428	1.4199e+02	-16.8557	-55.203794	0.000162	1.621739	0.549460	-0.000065
1429	1.4209e+02	-16.8829	-55.337020	0.000334	3.344836	1.133261	-0.000134
1430	1.4219e+02	-16.9311	-55.478319	0.000355	3.547554	1.201944	-0.000142
1431	1.4228e+02	-16.9776	-55.530802	0.000132	1.317663	0.446436	-0.000053
1432	1.4238e+02	-17.0129	-55.623656	0.000233	2.331250	0.789849	-0.000093
1433	1.4248e+02	-17.0530	-55.732659	0.000274	2.736684	0.927214	-0.000110
1434	1.4258e+02	-17.0915	-55.865884	0.000334	3.344836	1.133261	-0.000134
1435	1.4268e+02	-17.1380	-55.938553	0.000182	1.824456	0.618143	-0.000073
1436	1.4278e+02	-17.1733	-56.063704	0.000314	3.142119	1.064579	-0.000126
1437	1.4288e+02	-17.2166	-56.156558	0.000233	2.331250	0.789849	-0.000093
1438	1.4298e+02	-17.2503	-56.265561	0.000274	2.736684	0.927214	-0.000110
1439	1.4308e+02	-17.2888	-56.362452	0.000243	2.432608	0.824190	-0.000097
1440	1.4318e+02	-17.3225	-56.503752	0.000355	3.547554	1.201944	-0.000142
1441	1.4328e+02	-17.3803	-56.540086	0.000091	0.912228	0.309071	-0.000037
1442	1.4338e+02	-17.3979	-56.697534	0.000395	3.952989	1.339309	-0.000158
1443	1.4348e+02	-17.4524	-56.806537	0.000274	2.736684	0.927214	-0.000110
1444	1.4358e+02	-17.4893	-56.899391	0.000233	2.331250	0.789849	-0.000093
1445	1.4368e+02	-17.5262	-56.996282	0.000243	2.432608	0.824190	-0.000097
1446	1.4378e+02	-17.5583	-57.093174	0.000243	2.432608	0.824190	-0.000097
1447	1.4388e+02	-17.6113	-57.202176	0.000274	2.736684	0.927214	-0.000110
1448	1.4398e+02	-17.6450	-57.307142	0.000264	2.635326	0.892873	-0.000105
1449	1.4408e+02	-17.6867	-57.395959	0.000223	2.229891	0.755508	-0.000089
1450	1.4418e+02	-17.7300	-57.521110	0.000314	3.142119	1.064579	-0.000126
1451	1.4428e+02	-17.7637	-57.609927	0.000223	2.229891	0.755508	-0.000089
1452	1.4437e+02	-17.8006	-57.731041	0.000304	3.040760	1.030238	-0.000122
1453	1.4447e+02	-17.8503	-57.840044	0.000274	2.736684	0.927214	-0.000110
1454	1.4457e+02	-17.8856	-57.949046	0.000274	2.736684	0.927214	-0.000110
1455	1.4467e+02	-17.9257	-58.029789	0.000203	2.027174	0.686825	-0.000081
1456	1.4477e+02	-17.9722	-58.130717	0.000253	2.533967	0.858531	-0.000101
1457	1.4487e+02	-18.0059	-58.251832	0.000304	3.040760	1.030238	-0.000122
1458	1.4497e+02	-18.0460	-58.316426	0.000162	1.621739	0.549460	-0.000065
1459	1.4507e+02	-18.0909	-58.433503	0.000294	2.939402	0.995896	-0.000118
1460	1.4517e+02	-18.1278	-58.562691	0.000324	3.243478	1.098920	-0.000130
1461	1.4527e+02	-18.1631	-58.623248	0.000152	1.520380	0.515119	-0.000061
1462	1.4537e+02	-18.2145	-58.776659	0.000385	3.851630	1.304968	-0.000154
1463	1.4547e+02	-18.2417	-58.877588	0.000253	2.533967	0.858531	-0.000101
1464	1.4557e+02	-18.2915	-58.950256	0.000182	1.824456	0.618143	-0.000073
1465	1.4567e+02	-18.3252	-59.095593	0.000365	3.648913	1.236285	-0.000146
1466	1.4577e+02	-18.3733	-59.200558	0.000264	2.635326	0.892873	-0.000105
1467	1.4587e+02	-18.4022	-59.277264	0.000193	1.925815	0.652484	-0.000077
1468	1.4597e+02	-18.4503	-59.426638	0.000375	3.750271	1.270626	-0.000150
1469	1.4607e+02	-18.4888	-59.499307	0.000182	1.824456	0.618143	-0.000073
1470	1.4617e+02	-18.5273	-59.612346	0.000284	2.838043	0.961555	-0.000114
1471	1.4626e+02	-18.5642	-59.717312	0.000264	2.635326	0.892873	-0.000105
1472	1.4636e+02	-18.6043	-59.838426	0.000304	3.040760	1.030238	-0.000122
1473	1.4646e+02	-18.6572	-59.927243	0.000223	2.229891	0.755508	-0.000089
1474	1.4656e+02	-18.6845	-60.024134	0.000243	2.432608	0.824190	-0.000097
1475	1.4666e+02	-18.7294	-60.125063	0.000253	2.533967	0.858531	-0.000101
1476	1.4676e+02	-18.7519	-60.266362	0.000355	3.547554	1.201944	-0.000142
1477	1.4686e+02	-18.8048	-60.318845	0.000132	1.317663	0.446436	-0.000053
1478	1.4696e+02	-18.8417	-60.460145	0.000355	3.547554	1.201944	-0.000142
1479	1.4706e+02	-18.8770	-60.557036	0.000243	2.432608	0.824190	-0.000097
1480	1.4716e+02	-18.9203	-60.662002	0.000264	2.635326	0.892873	-0.000105
1481	1.4726e+02	-18.9684	-60.738707	0.000193	1.925815	0.652484	-0.000077
1482	1.4736e+02	-19.0021	-60.815413	0.000193	1.925815	0.652484	-0.000077
1483	1.4746e+02	-19.0471	-60.989010	0.000436	4.358423	1.476674	-0.000174
1484	1.4756e+02	-19.0823	-61.093975	0.000264	2.635326	0.892873	-0.000105
1485	1.4766e+02	-19.1209	-61.158569	0.000162	1.621739	0.549460	-0.000065
1486	1.4776e+02	-19.1690	-61.287758	0.000324	3.243478	1.098920	-0.000130
1487	1.4786e+02	-19.1962	-61.388686	0.000253	2.533967	0.858531	-0.000101
1488	1.4796e+02	-19.2492	-61.505763	0.000294	2.939402	0.995896	-0.000118
1489	1.4806e+02	-19.2829	-61.586506	0.000203	2.027174	0.686825	-0.000081
1490	1.4816e+02	-19.3278	-61.731843	0.000365	3.648913	1.236285	-0.000146
1491	1.4825e+02	-19.3647	-61.828734	0.000243	2.432608	0.824190	-0.000097
1492	1.4835e+02	-19.4016	-61.913514	0.000213	2.128532	0.721166	-0.000085
1493	1.4845e+02	-19.4513	-62.026553	0.000284	2.838043	0.961555	-0.000114
1494	1.4855e+02	-19.4834	-62.131519	0.000264	2.635326	0.892873	-0.000105
1495	1.4865e+02	-19.5187	-62.212262	0.000203	2.027174	0.686825	-0.000081
1496	1.4875e+02	-19.5620	-62.325302	0.000284	2.838043	0.961555	-0.000114
1497	1.4885e+02	-19.6117	-62.490824	0.000416	4.155706	1.407991	-0.000166
1498	1.4895e+02	-19.6390	-62.563493	0.000182	1.824456	0.618143	-0.000073
1499	1.4905e+02	-19.6775	-62.688644	0.000314	3.142119	1.064579	-0.000126
1500	1.4915e+02	-19.7096	-62.749201	0.000152	1.520380	0.515119	-0.000061
1501	1.4925e+02	-19.7593	-62.874352	0.000314	3.142119	1.064579	-0.000126
1502	1.4935e+02	-19.7946	-63.027763	0.000385	3.851630	1.304968	-0.000154
1503	1.4945e+02	-19.8412	-63.027763	-0.000000	-0.000000	-0.000000	0.000000
1504	1.4955e+02	-19.8813	-63.197323	0.000426	4.257065	1.442333	-0.000170
1505	1.4965e+02	-19.9214	-63.306326	0.000274	2.736684	0.927214	-0.000110
1506	1.4975e+02	-19.9599	-63.407254	0.000253	2.533967	0.858531	-0.000101
1507	1.4985e+02	-19.9968	-63.496071	0.000223	2.229891	0.755508	-0.000089
1508	1.4995e+02	-19.9599	-63.447625	0.000122	1.216304	0.412095	0.000049
1509	1.5005e+02	-19.9198	-63.342660	0.000264	2.635326	0.892873	0.000105
1510	1.5015e+02	-19.8716	-63.306326	0.000091	0.912228	0.309071	0.000037
1511	1.5025e+02	-19.8444	-63.241731	0.000162	1.621739	0.549460	0.000065
1512	1.5034e+02	-19.7962	-63.132729	0.000274	2.736684	0.927214	0.000110
1513	1.5044e+02	-19.7609	-63.060060	0.000182	1.824456	0.618143	0.000073
1514	1.5054e+02	-19.7224	-63.027763	0.000081	0.810869	0.274730	0.000032
1515	1.5064e+02	-19.6743	-62.926835	0.000253	2.533967	0.858531	0.000101
1516	1.5074e+02	-19.6454	-62.886463	0.000101	1.013587	0.343413	0.000041
1517	1.5084e+02	-19.5925	-62.805721	0.000203	2.027174	0.686825	0.000081
1518	1.5094e+02	-19.5684	-62.700755	0.000264	2.635326	0.892873	0.000105
1519	1.5104e+02	-19.5315	-62.656347	0.000111	1.114945	0.377754	0.000045
1520	1.5114e+02	-19.4818	-62.591752	0.000162	1.621739	0.549460	0.000065
1521	1.5124e+02	-19.4385	-62.515047	0.000193	1.925815	0.652484	0.000077
1522	1.5134e+02	-19.4064	-62.406044	0.000274	2.736684	0.927214	0.000110
1523	1.5144e+02	-19.3663	-62.377784	0.000071	0.709511	0.240389	0.000028
1524	1.5154e+02	-19.3198	-62.268782	0.000274	2.736684	0.927214	0.000110
1525	1.5164e+02	-19.2813	-62.179965	0.000223	2.229891	0.755508	0.000089
1526	1.5174e+02	-19.2364	-62.143630	0.000091	0.912228	0.309071	0.000037
1527	1.5184e+02	-19.2027	-62.050776	0.000233	2.331250	0.789849	0.000093
1528	1.5194e+02	-19.1642	-61.965996	0.000213	2.128532	0.721166	0.000085
1529	1.5204e+02	-19.1225	-61.865068	0.000253	2.533967	0.858531	0.000101
1530	1.5214e+02	-19.0856	-61.784325	0.000203	2.027174	0.686825	0.000081
1531	1.5224e+02	-19.0422	-61.691471	0.000233	2.331250	0.789849	0.000093
1532	1.5233e+02	-19.0053	-61.638988	0.000132	1.317663	0.446436	0.000053
1533	1.5243e+02	-18.9604	-61.521912	0.000294	2.939402	0.995896	0.000118
1534	1.5253e+02	-18.9203	-61.485577	0.000091	0.912228	0.309071	0.000037
1535	1.5263e+02	-18.8882	-61.408872	0.000193	1.925815	0.652484	0.000077
1536	1.5273e+02	-18.8481	-61.303906	0.000264	2.635326	0.892873	0.000105
1537	1.5283e+02	-18.8128	-61.255461	0.000122	1.216304	0.412095	0.000049
1538	1.5293e+02	-18.7711	-61.170681	0.000213	2.128532	0.721166	0.000085
1539	1.5303e+02	-18.7214	-61.089938	0.000203	2.027174	0.686825	0.000081
1540	1.5313e+02	-18.6813	-61.017270	0.000182	1.824456	0.618143	0.000073
1541	1.5323e+02	-18.6444	-60.888081	0.000324	3.243478	1.098920	0.000130
1542	1.5333e+02	-18.6027	-60.815413	0.000182	1.824456	0.618143	0.000073
1543	1.5343e+02	-18.5722	-60.718522	0.000243	2.432608	0.824190	0.000097
1544	1.5353e+02	-18.5273	-60.657964	0.000152	1.520380	0.515119	0.000061
1545	1.5363e+02	-18.4968	-60.577222	0.000203	2.027174	0.686825	0.000081
1546	1.5373e+02	-18.4487	-60.500516	0.000193	1.925815	0.652484	0.000077
1547	1.5383e+02	-18.4086	-60.387476	0.000284	2.838043	0.961555	0.000114
1548	1.5393e+02	-18.3717	-60.322882	0.000162	1.621739	0.549460	0.000065
1549	1.5403e+02	-18.3235	-60.209842	0.000284	2.838043	0.961555	0.000114
1550	1.5413e+02	-18.2883	-60.153322	0.000142	1.419022	0.480778	0.000057
1551	1.5422e+02	-18.2465	-60.040283	0.000284	2.838043	0.961555	0.000114
1552	1.5432e+02	-18.2048	-59.967614	0.000182	1.824456	0.618143	0.000073
1553	1.5442e+02	-18.1663	-59.886872	0.000203	2.027174	0.686825	0.000081
1554	1.5452e+02	-18.1326	-59.822277	0.000162	1.621739	0.549460	0.000065
1555	1.5462e+02	-18.0877	-59.705200	0.000294	2.939402	0.995896	0.000118
1556	1.5472e+02	-18.0460	-59.612346	0.000233	2.331250	0.789849	0.000093
1557	1.5482e+02	-18.0123	-59.527566	0.000213	2.128532	0.721166	0.000085
1558	1.5492e+02	-17.9690	-59.442787	0.000213	2.128532	0.721166	0.000085
1559	1.5502e+02	-17.9257	-59.398378	0.000111	1.114945	0.377754	0.000045
1560	1.5512e+02	-17.8872	-59.301487	0.000243	2.432608	0.824190	0.000097
1561	1.5522e+02	-17.8487	-59.188447	0.000284	2.838043	0.961555	0.000114
1562	1.5532e+02	-17.8198	-59.055222	0.000334	3.344836	1.133261	0.000134
1563	1.5542e+02	-17.7717	-59.002739	0.000132	1.317663	0.446436	0.000053
1564	1.5552e+02	-17.7300	-58.889699	0.000284	2.838043	0.961555	0.000114
1565	1.5562e+02	-17.6931	-58.837216	0.000132	1.317663	0.446436	0.000053
1566	1.5572e+02	-17.6434	-58.699954	0.000345	3.446195	1.167603	0.000138
1567	1.5582e+02	-17.6161	-58.623248	0.000193	1.925815	0.652484	0.000077
1568	1.5592e+02	-17.5647	-58.514245	0.000274	2.736684	0.927214	0.000110
1569	1.5602e+02	-17.5295	-58.445614	0.000172	1.723098	0.583801	0.000069
1570	1.5612e+02	-17.4877	-58.372946	0.000182	1.824456	0.618143	0.000073
1571	1.5622e+02	-17.4412	-58.308351	0.000162	1.621739	0.549460	0.000065
1572	1.5631e+02	-17.4027	-58.187237	0.000304	3.040760	1.030238	0.000122
1573	1.5641e+02	-17.3754	-58.114569	0.000182	1.824456	0.618143	0.000073
1574	1.5651e+02	-17.3273	-57.989418	0.000314	3.142119	1.064579	0.000126
1575	1.5661e+02	-17.2856	-57.924824	0.000162	1.621739	0.549460	0.000065
1576	1.5671e+02	-17.2535	-57.831969	0.000233	2.331250	0.789849	0.000093
1577	1.5681e+02	-17.2086	-57.759301	0.000182	1.824456	0.618143	0.000073
1578	1.5691e+02	-17.1749	-57.622038	0.000345	3.446195	1.167603	0.000138
1579	1.5701e+02	-17.1364	-57.565518	0.000142	1.419022	0.480778	0.000057
1580	1.5711e+02	-17.0963	-57.480739	0.000213	2.128532	0.721166	0.000085
1581	1.5721e+02	-17.0498	-57.383847	0.000243	2.432608	0.824190	0.000097
1582	1.5731e+02	-17.0209	-57.266770	0.000294	2.939402	0.995896	0.000118
1583	1.5741e+02	-16.9744	-57.210251	0.000142	1.419022	0.480778	0.000057
1584	1.5751e+02	-16.9359	-57.113359	0.000243	2.432608	0.824190	0.000097
1585	1.5761e+02	-16.8894	-57.048765	0.000162	1.621739	0.549460	0.000065
1586	1.5771e+02	-16.8541	-56.927651	0.000304	3.040760	1.030238	0.000122
1587	1.5781e+02	-16.8108	-56.798463	0.000324	3.243478	1.098920	0.000130
1588	1.5791e+02	-16.7723	-56.745980	0.000132	1.317663	0.446436	0.000053
1589	1.5801e+02	-16.7370	-56.677349	0.000172	1.723098	0.583801	0.000069
1590	1.5811e+02	-16.6904	-56.556235	0.000304	3.040760	1.030238	0.000122
1591	1.5821e+02	-16.6567	-56.483566	0.000182	1.824456	0.618143	0.000073
1592	1.5830e+02	-16.6182	-56.382638	0.000253	2.533967	0.858531	0.000101
1593	1.5840e+02	-16.5669	-56.301895	0.000203	2.027174	0.686825	0.000081
1594	1.5850e+02	-16.5316	-56.196929	0.000264	2.635326	0.892873	0.000105
1595	1.5860e+02	-16.4931	-56.063704	0.000334	3.344836	1.133261	0.000134
1596	1.5870e+02	-16.4610	-56.011221	0.000132	1.317663	0.446436	0.000053
1597	1.5880e+02	-16.4129	-55.902219	0.000274	2.736684	0.927214	0.000110
1598	1.5890e+02	-16.3696	-55.813402	0.000223	2.229891	0.755508	0.000089
1599	1.5900e+02	-16.3375	-55.773030	0.000101	1.013587	0.343413	0.000041
1600	1.5910e+02	-16.3038	-55.659990	0.000284	2.838043	0.961555	0.000114
1601	1.5920e+02	-16.2605	-55.587322	0.000182	1.824456	0.618143	0.000073
1602	1.5930e+02	-16.2108	-55.490431	0.000243	2.432608	0.824190	0.000097
1603	1.5940e+02	-16.1707	-55.389502	0.000253	2.533967	0.858531	0.000101
1604	1.5950e+02	-16.1241	-55.272425	0.000294	2.939402	0.995896	0.000118
1605	1.5960e+02	-16.0953	-55.175534	0.000243	2.432608	0.824190	0.000097
1606	1.5970e+02	-16.0552	-55.094791	0.000203	2.027174	0.686825	0.000081
1607	1.5980e+02	-16.0118	-54.997900	0.000243	2.432608	0.824190	0.000097
1608	1.5990e+02	-15.9701	-54.892935	0.000264	2.635326	0.892873	0.000105
1609	1.6000e+02	-15.9381	-54.848526	0.000111	1.114945	0.377754	0.000045
1610	1.6010e+02	-15.9012	-54.711264	0.000345	3.446195	1.167603	0.000138
1611	1.6019e+02	-15.8530	-54.606298	0.000264	2.635326	0.892873	0.000105
1612	1.6029e+02	-15.8129	-54.557852	0.000122	1.216304	0.412095	0.000049
1613	1.6039e+02	-15.7680	-54.460961	0.000243	2.432608	0.824190	0.000097
1614	1.6049e+02	-15.7327	-54.372144	0.000223	2.229891	0.755508	0.000089
1615	1.6059e+02	-15.6926	-54.303513	0.000172	1.723098	0.583801	0.000069
1616	1.6069e+02	-15.6525	-54.166250	0.000345	3.446195	1.167603	0.000138
1617	1.6079e+02	-15.6188	-54.081470	0.000213	2.128532	0.721166	0.000085
1618	1.6089e+02	-15.5739	-53.976505	0.000264	2.635326	0.892873	0.000105
1619	1.6099e+02	-15.5450	-53.879614	0.000243	2.432608	0.824190	0.000097
1620	1.6109e+02	-15.4969	-53.839242	0.000101	1.013587	0.343413	0.000041
1621	1.6119e+02	-15.4552	-53.754462	0.000213	2.128532	0.721166	0.000085
1622	1.6129e+02	-15.4183	-53.629311	0.000314	3.142119	1.064579	0.000126
1623	1.6139e+02	-15.3686	-53.532420	0.000243	2.432608	0.824190	0.000097
1624	1.6149e+02	-15.3461	-53.427454	0.000264	2.635326	0.892873	0.000105
1625	1.6159e+02	-15.3076	-53.330563	0.000243	2.432608	0.824190	0.000097
1626	1.6169e+02	-15.2643	-53.233672	0.000243	2.432608	0.824190	0.000097
1627	1.6179e+02	-15.2049	-53.181189	0.000132	1.317663	0.446436	0.000053
1628	1.6189e+02	-15.1776	-53.084298	0.000243	2.432608	0.824190	0.000097
1629	1.6199e+02	-15.1391	-52.971258	0.000284	2.838043	0.961555	0.000114
1630	1.6209e+02	-15.0990	-52.866292	0.000264	2.635326	0.892873	0.000105
1631	1.6219e+02	-15.0589	-52.805735	0.000152	1.520380	0.515119	0.000061
1632	1.6228e+02	-15.0236	-52.708844	0.000243	2.432608	0.824190	0.000097
1633	1.6238e+02	-14.9771	-52.583693	0.000314	3.142119	1.064579	0.000126
1634	1.6248e+02	-14.9386	-52.502950	0.000203	2.027174	0.686825	0.000081
1635	1.6258e+02	-14.8921	-52.406059	0.000243	2.432608	0.824190	0.000097
1636	1.6268e+02	-14.8696	-52.297056	0.000274	2.736684	0.927214	0.000110
1637	1.6278e+02	-14.8215	-52.224388	0.000182	1.824456	0.618143	0.000073
1638	1.6288e+02	-14.7862	-52.119422	0.000264	2.635326	0.892873	0.000105
1639	1.6298e+02	-14.7413	-52.034643	0.000213	2.128532	0.721166	0.000085
1640	1.6308e+02	-14.6932	-51.917566	0.000294	2.939402	0.995896	0.000118
1641	1.6318e+02	-14.6579	-51.844897	0.000182	1.824456	0.618143	0.000073
1642	1.6328e+02	-14.6114	-51.719746	0.000314	3.142119	1.064579	0.000126
1643	1.6338e+02	-14.5809	-51.671300	0.000122	1.216304	0.412095	0.000049
1644	1.6348e+02	-14.5488	-51.570372	0.000253	2.533967	0.858531	0.000101
1645	1.6358e+02	-14.5023	-51.441184	0.000324	3.243478	1.098920	0.000130
1646	1.6368e+02	-14.4590	-51.364478	0.000193	1.925815	0.652484	0.000077
1647	1.6378e+02	-14.4140	-51.279698	0.000213	2.128532	0.721166	0.000085
1648	1.6388e+02	-14.3884	-51.166658	0.000284	2.838043	0.961555	0.000114
1649	1.6398e+02	-14.3402	-51.053619	0.000284	2.838043	0.961555	0.000114
1650	1.6408e+02	-14.3065	-51.001136	0.000132	1.317663	0.446436	0.000053
1651	1.6418e+02	-14.2616	-50.896170	0.000264	2.635326	0.892873	0.000105
1652	1.6427e+02	-14.2087	-50.799279	0.000243	2.432608	0.824190	0.000097
1653	1.6437e+02	-14.1750	-50.714499	0.000213	2.128532	0.721166	0.000085
1654	1.6447e+02	-14.1477	-50.601459	0.000284	2.838043	0.961555	0.000114
1655	1.6457e+02	-14.1076	-50.472271	0.000324	3.243478	1.098920	0.000130
1656	1.6467e+02	-14.0611	-50.415751	0.000142	1.419022	0.480778	0.000057
1657	1.6477e+02	-14.0226	-50.294637	0.000304	3.040760	1.030238	0.000122
1658	1.6487e+02	-13.9793	-50.185634	0.000274	2.736684	0.927214	0.000110
1659	1.6497e+02	-13.9472	-50.125077	0.000152	1.520380	0.515119	0.000061
1660	1.6507e+02	-13.9023	-50.024149	0.000253	2.533967	0.858531	0.000101
1661	1.6517e+02	-13.8654	-49.923221	0.000253	2.533967	0.858531	0.000101
1662	1.6527e+02	-13.8317	-49.794032	0.000324	3.243478	1.098920	0.000130
1663	1.6537e+02	-13.7836	-49.737512	0.000142	1.419022	0.480778	0.000057
1664	1.6547e+02	-13.7419	-49.628510	0.000274	2.736684	0.927214	0.000110
1665	1.6557e+02	-13.7050	-49.527581	0.000253	2.533967	0.858531	0.000101
1666	1.6567e+02	-13.6633	-49.442801	0.000213	2.128532	0.721166	0.000085
1667	1.6577e+02	-13.6183	-49.341873	0.000253	2.533967	0.858531	0.000101
1668	1.6587e+02	-13.5895	-49.220759	0.000304	3.040760	1.030238	0.000122
1669	1.6597e+02	-13.5429	-49.119831	0.000253	2.533967	0.858531	0.000101
1670	1.6607e+02	-13.5141	-49.055236	0.000162	1.621739	0.549460	0.000065
1671	1.6616e+02	-13.4675	-48.897788	0.000395	3.952989	1.339309	0.000158
1672	1.6626e+02	-13.4242	-48.804934	0.000233	2.331250	0.789849	0.000093
1673	1.6636e+02	-13.3986	-48.716117	0.000223	2.229891	0.755508	0.000089
1674	1.6646e+02	-13.3504	-48.663634	0.000132	1.317663	0.446436	0.000053
1675	1.6656e+02	-13.3039	-48.542520	0.000304	3.040760	1.030238	0.000122
1676	1.6666e+02	-13.2686	-48.425443	0.000294	2.939402	0.995896	0.000118
1677	1.6676e+02	-13.2189	-48.356812	0.000172	1.723098	0.583801	0.000069
1678	1.6686e+02	-13.1868	-48.243772	0.000284	2.838043	0.961555	0.000114
1679	1.6696e+02	-13.1435	-48.150918	0.000233	2.331250	0.789849	0.000093
1680	1.6706e+02	-13.1098	-48.017692	0.000334	3.344836	1.133261	0.000134
1681	1.6716e+02	-13.0729	-47.896578	0.000304	3.040760	1.030238	0.000122
1682	1.6726e+02	-13.0151	-47.823910	0.000182	1.824456	0.618143	0.000073
1683	1.6736e+02	-12.9863	-47.698759	0.000314	3.142119	1.064579	0.000126
1684	1.6746e+02	-12.9446	-47.618016	0.000203	2.027174	0.686825	0.000081
1685	1.6756e+02	-12.9077	-47.488828	0.000324	3.243478	1.098920	0.000130
1686	1.6766e+02	-12.8692	-47.367714	0.000304	3.040760	1.030238	0.000122
1687	1.6776e+02	-12.8258	-47.295045	0.000182	1.824456	0.618143	0.000073
1688	1.6786e+02	-12.7841	-47.210265	0.000213	2.128532	0.721166	0.000085
1689	1.6796e+02	-12.7408	-47.121448	0.000223	2.229891	0.755508	0.000089
1690	1.6806e+02	-12.7087	-46.992260	0.000324	3.243478	1.098920	0.000130
1691	1.6816e+02	-12.6766	-46.879220	0.000284	2.838043	0.961555	0.000114
1692	1.6825e+02	-12.6221	-46.854997	0.000061	0.608152	0.206048	0.000024
1693	1.6835e+02	-12.5836	-46.677363	0.000446	4.459782	1.511015	0.000179
1694	1.6845e+02	-12.5483	-46.604695	0.000182	1.824456	0.618143	0.000073
1695	1.6855e+02	-12.5146	-46.487618	0.000294	2.939402	0.995896	0.000118
1696	1.6865e+02	-12.4697	-46.406875	0.000203	2.027174	0.686825	0.000081
1697	1.6875e+02	-12.4344	-46.293836	0.000284	2.838043	0.961555	0.000114
1698	1.6885e+02	-12.3943	-46.152536	0.000355	3.547554	1.201944	0.000142
1699	1.6895e+02	-12.3558	-46.043533	0.000274	2.736684	0.927214	0.000110
1700	1.6905e+02	-12.3141	-45.970865	0.000182	1.824456	0.618143	0.000073
1701	1.6915e+02	-12.2676	-45.857825	0.000284	2.838043	0.961555	0.000114
1702	1.6925e+02	-12.2419	-45.724599	0.000334	3.344836	1.133261	0.000134
1703	1.6935e+02	-12.1954	-45.627708	0.000243	2.432608	0.824190	0.000097
1704	1.6945e+02	-12.1489	-45.490445	0.000345	3.446195	1.167603	0.000138
1705	1.6955e+02	-12.1039	-45.401629	0.000223	2.229891	0.755508	0.000089
1706	1.6965e+02	-12.0751	-45.332997	0.000172	1.723098	0.583801	0.000069
1707	1.6975e+02	-12.0334	-45.228032	0.000264	2.635326	0.892873	0.000105
1708	1.6985e+02	-11.9900	-45.110955	0.000294	2.939402	0.995896	0.000118
1709	1.6995e+02	-11.9515	-44.973692	0.000345	3.446195	1.167603	0.000138
1710	1.7005e+02	-11.9098	-44.901024	0.000182	1.824456	0.618143	0.000073
1711	1.7015e+02	-11.8777	-44.796058	0.000264	2.635326	0.892873	0.000105
1712	1.7024e+02	-11.8360	-44.683018	0.000284	2.838043	0.961555	0.000114
1713	1.7034e+02	-11.7991	-44.586127	0.000243	2.432608	0.824190	0.000097
1714	1.7044e+02	-11.7574	-44.424642	0.000405	4.054347	1.373650	0.000162
1715	1.7054e+02	-11.7157	-44.351973	0.000182	1.824456	0.618143	0.000073
1716	1.7064e+02	-11.6740	-44.218748	0.000334	3.344836	1.133261	0.000134
1717	1.7074e+02	-11.6339	-44.129931	0.000223	2.229891	0.755508	0.000089
1718	1.7084e+02	-11.5938	-43.964408	0.000416	4.155706	1.407991	0.000166
1719	1.7094e+02	-11.5521	-43.907888	0.000142	1.419022	0.480778	0.000057
1720	1.7104e+02	-11.5136	-43.774663	0.000334	3.344836	1.133261	0.000134
1721	1.7114e+02	-11.4751	-43.669697	0.000264	2.635326	0.892873	0.000105
1722	1.7124e+02	-11.4286	-43.524360	0.000365	3.648913	1.236285	0.000146
1723	1.7134e+02	-11.3949	-43.447655	0.000193	1.925815	0.652484	0.000077
1724	1.7144e+02	-11.3499	-43.354801	0.000233	2.331250	0.789849	0.000093
1725	1.7154e+02	-11.3130	-43.241761	0.000284	2.838043	0.961555	0.000114
1726	1.7164e+02	-11.2697	-43.112573	0.000324	3.243478	1.098920	0.000130
1727	1.7174e+02	-11.2328	-43.019718	0.000233	2.331250	0.789849	0.000093
1728	1.7184e+02	-11.1959	-42.910716	0.000274	2.736684	0.927214	0.000110
1729	1.7194e+02	-11.1542	-42.765379	0.000365	3.648913	1.236285	0.000146
1730	1.7204e+02	-11.1077	-42.664450	0.000253	2.533967	0.858531	0.000101
1731	1.7213e+02	-11.0772	-42.551411	0.000284	2.838043	0.961555	0.000114
1732	1.7223e+02	-11.0291	-42.430297	0.000304	3.040760	1.030238	0.000122
1733	1.7233e+02	-10.9970	-42.345517	0.000213	2.128532	0.721166	0.000085
1734	1.7243e+02	-10.9569	-42.179994	0.000416	4.155706	1.407991	0.000166
1735	1.7253e+02	-10.9136	-42.127511	0.000132	1.317663	0.446436	0.000053
1736	1.7263e+02	-10.8655	-41.998323	0.000324	3.243478	1.098920	0.000130
1737	1.7273e+02	-10.8366	-41.889320	0.000274	2.736684	0.927214	0.000110
1738	1.7283e+02	-10.7949	-41.776281	0.000284	2.838043	0.961555	0.000114
1739	1.7293e+02	-10.7564	-41.667278	0.000274	2.736684	0.927214	0.000110
1740	1.7303e+02	-10.7163	-41.566350	0.000253	2.533967	0.858531	0.000101
1741	1.7313e+02	-10.6810	-41.449273	0.000294	2.939402	0.995896	0.000118
1742	1.7323e+02	-10.6313	-41.312010	0.000345	3.446195	1.167603	0.000138
1743	1.7333e+02	-10.6008	-41.231267	0.000203	2.027174	0.686825	0.000081
1744	1.7343e+02	-10.5526	-41.122265	0.000274	2.736684	0.927214	0.000110
1745	1.7353e+02	-10.5157	-40.972891	0.000375	3.750271	1.270626	0.000150
1746	1.7363e+02	-10.4756	-40.851777	0.000304	3.040760	1.030238	0.000122
1747	1.7373e+02	-10.4339	-40.775071	0.000193	1.925815	0.652484	0.000077
1748	1.7383e+02	-10.4034	-40.657994	0.000294	2.939402	0.995896	0.000118
1749	1.7393e+02	-10.3553	-40.516694	0.000355	3.547554	1.201944	0.000142
1750	1.7403e+02	-10.3232	-40.411729	0.000264	2.635326	0.892873	0.000105
1751	1.7413e+02	-10.2751	-40.310800	0.000253	2.533967	0.858531	0.000101
1752	1.7422e+02	-10.2398	-40.165463	0.000365	3.648913	1.236285	0.000146
1753	1.7432e+02	-10.1997	-40.032238	0.000334	3.344836	1.133261	0.000134
1754	1.7442e+02	-10.1548	-39.975718	0.000142	1.419022	0.480778	0.000057
1755	1.7452e+02	-10.1275	-39.858641	0.000294	2.939402	0.995896	0.000118
1756	1.7462e+02	-10.0826	-39.697156	0.000405	4.054347	1.373650	0.000162
1757	1.7472e+02	-10.0393	-39.616413	0.000203	2.027174	0.686825	0.000081
1758	1.7482e+02	-9.9960	-39.454928	0.000405	4.054347	1.373650	0.000162
1759	1.7492e+02	-9.9575	-39.382259	0.000182	1.824456	0.618143	0.000073
1760	1.7502e+02	-9.9158	-39.228848	0.000385	3.851630	1.304968	0.000154
1761	1.7512e+02	-9.8773	-39.172328	0.000142	1.419022	0.480778	0.000057
1762	1.7522e+02	-9.8452	-39.010843	0.000405	4.054347	1.373650	0.000162
1763	1.7532e+02	-9.7938	-38.893766	0.000294	2.939402	0.995896	0.000118
1764	1.7542e+02	-9.7569	-38.792837	0.000253	2.533967	0.858531	0.000101
1765	1.7552e+02	-9.7152	-38.671723	0.000304	3.040760	1.030238	0.000122
1766	1.7562e+02	-9.6719	-38.570795	0.000253	2.533967	0.858531	0.000101
1767	1.7572e+02	-9.6398	-38.453718	0.000294	2.939402	0.995896	0.000118
1768	1.7582e+02	-9.5981	-38.328567	0.000314	3.142119	1.064579	0.000126
1769	1.7592e+02	-9.5484	-38.231675	0.000243	2.432608	0.824190	0.000097
1770	1.7602e+02	-9.5131	-38.098450	0.000334	3.344836	1.133261	0.000134
1771	1.7612e+02	-9.4906	-37.993484	0.000264	2.635326	0.892873	0.000105
1772	1.7621e+02	-9.4473	-37.836036	0.000395	3.952989	1.339309	0.000158
1773	1.7631e+02	-9.3976	-37.803739	0.000081	0.810869	0.274730	0.000032
1774	1.7641e+02	-9.3607	-37.626105	0.000446	4.459782	1.511015	0.000179
1775	1.7651e+02	-9.3286	-37.513065	0.000284	2.838043	0.961555	0.000114
1776	1.7661e+02	-9.2821	-37.424248	0.000223	2.229891	0.755508	0.000089
1777	1.7671e+02	-9.2500	-37.299097	0.000314	3.142119	1.064579	0.000126
1778	1.7681e+02	-9.2067	-37.177983	0.000304	3.040760	1.030238	0.000122
1779	1.7691e+02	-9.1666	-37.048795	0.000324	3.243478	1.098920	0.000130
1780	1.7701e+02	-9.1201	-36.939792	0.000274	2.736684	0.927214	0.000110
1781	1.7711e+02	-9.0832	-36.818678	0.000304	3.040760	1.030238	0.000122
1782	1.7721e+02	-9.0447	-36.709675	0.000274	2.736684	0.927214	0.000110
1783	1.7731e+02	-8.9981	-36.584524	0.000314	3.142119	1.064579	0.000126
1784	1.7741e+02	-8.9628	-36.483596	0.000253	2.533967	0.858531	0.000101
1785	1.7751e+02	-8.9163	-36.350370	0.000334	3.344836	1.133261	0.000134
1786	1.7761e+02	-8.8858	-36.253479	0.000243	2.432608	0.824190	0.000097
1787	1.7771e+02	-8.8425	-36.124291	0.000324	3.243478	1.098920	0.000130
1788	1.7781e+02	-8.8056	-36.007214	0.000294	2.939402	0.995896	0.000118
1789	1.7791e+02	-8.7735	-35.857840	0.000375	3.750271	1.270626	0.000150
1790	1.7801e+02	-8.7286	-35.732688	0.000314	3.142119	1.064579	0.000126
1791	1.7810e+02	-8.6885	-35.660020	0.000182	1.824456	0.618143	0.000073
1792	1.7820e+02	-8.6420	-35.518720	0.000355	3.547554	1.201944	0.000142
1793	1.7830e+02	-8.6003	-35.413755	0.000264	2.635326	0.892873	0.000105
1794	1.7840e+02	-8.5666	-35.308789	0.000264	2.635326	0.892873	0.000105
1795	1.7850e+02	-8.5169	-35.171527	0.000345	3.446195	1.167603	0.000138
1796	1.7860e+02	-8.4896	-35.046375	0.000314	3.142119	1.064579	0.000126
1797	1.7870e+02	-8.4511	-34.949484	0.000243	2.432608	0.824190	0.000097
1798	1.7880e+02	-8.4078	-34.860667	0.000223	2.229891	0.755508	0.000089
1799	1.7890e+02	-8.3597	-34.691107	0.000426	4.257065	1.442333	0.000170
1800	1.7900e+02	-8.3179	-34.602290	0.000223	2.229891	0.755508	0.000089
1801	1.7910e+02	-8.2827	-34.497325	0.000264	2.635326	0.892873	0.000105
1802	1.7920e+02	-8.2506	-34.364099	0.000334	3.344836	1.133261	0.000134
1803	1.7930e+02	-8.2105	-34.267208	0.000243	2.432608	0.824190	0.000097
1804	1.7940e+02	-8.1736	-34.113797	0.000385	3.851630	1.304968	0.000154
1805	1.7950e+02	-8.1238	-34.008831	0.000264	2.635326	0.892873	0.000105
1806	1.7960e+02	-8.0869	-33.899829	0.000274	2.736684	0.927214	0.000110
1807	1.7970e+02	-8.0452	-33.750455	0.000375	3.750271	1.270626	0.000150
1808	1.7980e+02	-8.0067	-33.617229	0.000334	3.344836	1.133261	0.000134
1809	1.7990e+02	-7.9618	-33.479967	0.000345	3.446195	1.167603	0.000138
1810	1.8000e+02	-7.9329	-33.427484	0.000132	1.317663	0.446436	0.000053
1811	1.8009e+02	-7.8848	-33.282147	0.000365	3.648913	1.236285	0.000146
1812	1.8019e+02	-7.8527	-33.156996	0.000314	3.142119	1.064579	0.000126
1813	1.8029e+02	-7.8046	-33.060105	0.000243	2.432608	0.824190	0.000097
1814	1.8039e+02	-7.7709	-32.943028	0.000294	2.939402	0.995896	0.000118
1815	1.8049e+02	-7.7276	-32.793654	0.000375	3.750271	1.270626	0.000150
1816	1.8059e+02	-7.6955	-32.700799	0.000233	2.331250	0.789849	0.000093
1817	1.8069e+02	-7.6329	-32.551425	0.000375	3.750271	1.270626	0.000150
1818	1.8079e+02	-7.6089	-32.438386	0.000284	2.838043	0.961555	0.000114
1819	1.8089e+02	-7.5720	-32.301123	0.000345	3.446195	1.167603	0.000138
1820	1.8099e+02	-7.5271	-32.224417	0.000193	1.925815	0.652484	0.000077
1821	1.8109e+02	-7.4854	-32.066969	0.000395	3.952989	1.339309	0.000158
1822	1.8119e+02	-7.4485	-31.933744	0.000334	3.344836	1.133261	0.000134
1823	1.8129e+02	-7.4164	-31.824741	0.000274	2.736684	0.927214	0.000110
1824	1.8139e+02	-7.3650	-31.675367	0.000375	3.750271	1.270626	0.000150
1825	1.8149e+02	-7.3362	-31.546179	0.000324	3.243478	1.098920	0.000130
1826	1.8159e+02	-7.2961	-31.421027	0.000314	3.142119	1.064579	0.000126
1827	1.8169e+02	-7.2495	-31.320099	0.000253	2.533967	0.858531	0.000101
1828	1.8179e+02	-7.1966	-31.235319	0.000213	2.128532	0.721166	0.000085
1829	1.8189e+02	-7.1597	-31.106131	0.000324	3.243478	1.098920	0.000130
1830	1.8199e+02	-7.1292	-30.985017	0.000304	3.040760	1.030238	0.000122
1831	1.8209e+02	-7.0875	-30.843717	0.000355	3.547554	1.201944	0.000142
1832	1.8218e+02	-7.0634	-30.726640	0.000294	2.939402	0.995896	0.000118
1833	1.8228e+02	-7.0073	-30.553043	0.000436	4.358423	1.476674	0.000174
1834	1.8238e+02	-6.9704	-30.468263	0.000213	2.128532	0.721166	0.000085
1835	1.8248e+02	-6.9271	-30.314852	0.000385	3.851630	1.304968	0.000154
1836	1.8258e+02	-6.8854	-30.209887	0.000264	2.635326	0.892873	0.000105
1837	1.8268e+02	-6.8404	-30.052438	0.000395	3.952989	1.339309	0.000158
1838	1.8278e+02	-6.8148	-29.963621	0.000223	2.229891	0.755508	0.000089
1839	1.8288e+02	-6.7650	-29.810210	0.000385	3.851630	1.304968	0.000154
1840	1.8298e+02	-6.7314	-29.689096	0.000304	3.040760	1.030238	0.000122
1841	1.8308e+02	-6.6816	-29.580094	0.000274	2.736684	0.927214	0.000110
1842	1.8318e+02	-6.6495	-29.463017	0.000294	2.939402	0.995896	0.000118
1843	1.8328e+02	-6.6078	-29.321717	0.000355	3.547554	1.201944	0.000142
1844	1.8338e+02	-6.5725	-29.164269	0.000395	3.952989	1.339309	0.000158
1845	1.8348e+02	-6.5276	-29.047192	0.000294	2.939402	0.995896	0.000118
1846	1.8358e+02	-6.4891	-28.913966	0.000334	3.344836	1.133261	0.000134
1847	1.8368e+02	-6.4522	-28.796889	0.000294	2.939402	0.995896	0.000118
1848	1.8378e+02	-6.4153	-28.699998	0.000243	2.432608	0.824190	0.000097
1849	1.8388e+02	-6.3656	-28.558698	0.000355	3.547554	1.201944	0.000142
1850	1.8398e+02	-6.3431	-28.397213	0.000405	4.054347	1.373650	0.000162
1851	1.8407e+02	-6.2918	-28.272062	0.000314	3.142119	1.064579	0.000126
1852	1.8417e+02	-6.2565	-28.183245	0.000223	2.229891	0.755508	0.000089
1853	1.8427e+02	-6.2148	-28.017722	0.000416	4.155706	1.407991	0.000166
1854	1.8437e+02	-6.1811	-27.876422	0.000355	3.547554	1.201944	0.000142
1855	1.8447e+02	-6.1330	-27.755308	0.000304	3.040760	1.030238	0.000122
1856	1.8457e+02	-6.1089	-27.622083	0.000334	3.344836	1.133261	0.000134
1857	1.8467e+02	-6.0592	-27.521154	0.000253	2.533967	0.858531	0.000101
1858	1.8477e+02	-6.0223	-27.339483	0.000456	4.561141	1.545356	0.000183
1859	1.8487e+02	-5.9726	-27.202221	0.000345	3.446195	1.167603	0.000138
1860	1.8497e+02	-5.9308	-27.085144	0.000294	2.939402	0.995896	0.000118
1861	1.8507e+02	-5.8972	-26.964030	0.000304	3.040760	1.030238	0.000122
1862	1.8517e+02	-5.8603	-26.794470	0.000426	4.257065	1.442333	0.000170
1863	1.8527e+02	-5.8089	-26.681430	0.000284	2.838043	0.961555	0.000114
1864	1.8537e+02	-5.7736	-26.552242	0.000324	3.243478	1.098920	0.000130
1865	1.8547e+02	-5.7367	-26.402868	0.000375	3.750271	1.270626	0.000150
1866	1.8557e+02	-5.6934	-26.285791	0.000294	2.939402	0.995896	0.000118
1867	1.8567e+02	-5.6645	-26.120268	0.000416	4.155706	1.407991	0.000166
1868	1.8577e+02	-5.6212	-26.015303	0.000264	2.635326	0.892873	0.000105
1869	1.8587e+02	-5.5715	-25.894189	0.000304	3.040760	1.030238	0.000122
1870	1.8597e+02	-5.5490	-25.724629	0.000426	4.257065	1.442333	0.000170
1871	1.8606e+02	-5.4977	-25.611589	0.000284	2.838043	0.961555	0.000114
1872	1.8616e+02	-5.4640	-25.478364	0.000334	3.344836	1.133261	0.000134
1873	1.8626e+02	-5.4191	-25.324952	0.000385	3.851630	1.304968	0.000154
1874	1.8636e+02	-5.3822	-25.179616	0.000365	3.648913	1.236285	0.000146
1875	1.8646e+02	-5.3469	-25.070613	0.000274	2.736684	0.927214	0.000110
1876	1.8656e+02	-5.3004	-24.892979	0.000446	4.459782	1.511015	0.000179
1877	1.8666e+02	-5.2619	-24.731494	0.000405	4.054347	1.373650	0.000162
1878	1.8676e+02	-5.2218	-24.606342	0.000314	3.142119	1.064579	0.000126
1879	1.8686e+02	-5.1753	-24.477154	0.000324	3.243478	1.098920	0.000130
1880	1.8696e+02	-5.1416	-24.420634	0.000142	1.419022	0.480778	0.000057
1881	1.8706e+02	-5.0934	-24.206666	0.000537	5.372010	1.820086	0.000215
1882	1.8716e+02	-5.0517	-24.105737	0.000253	2.533967	0.858531	0.000101
1883	1.8726e+02	-5.0132	-23.940215	0.000416	4.155706	1.407991	0.000166
1884	1.8736e+02	-4.9763	-23.782767	0.000395	3.952989	1.339309	0.000158
1885	1.8746e+02	-4.9346	-23.649541	0.000334	3.344836	1.133261	0.000134
1886	1.8756e+02	-4.9073	-23.532464	0.000294	2.939402	0.995896	0.000118
1887	1.8766e+02	-4.8688	-23.370979	0.000405	4.054347	1.373650	0.000162
1888	1.8776e+02	-4.8207	-23.205456	0.000416	4.155706	1.407991	0.000166
1889	1.8786e+02	-4.7902	-23.088379	0.000294	2.939402	0.995896	0.000118
1890	1.8796e+02	-4.7293	-22.939005	0.000375	3.750271	1.270626	0.000150
1891	1.8806e+02	-4.6924	-22.793668	0.000365	3.648913	1.236285	0.000146
1892	1.8815e+02	-4.6523	-22.656406	0.000345	3.446195	1.167603	0.000138
1893	1.8825e+02	-4.6202	-22.519143	0.000345	3.446195	1.167603	0.000138
1894	1.8835e+02	-4.5817	-22.357658	0.000405	4.054347	1.373650	0.000162
1895	1.8845e+02	-4.5432	-22.216358	0.000355	3.547554	1.201944	0.000142
1896	1.8855e+02	-4.5047	-22.091207	0.000314	3.142119	1.064579	0.000126
1897	1.8865e+02	-4.4630	-21.937796	0.000385	3.851630	1.304968	0.000154
1898	1.8875e+02	-4.4229	-21.780347	0.000395	3.952989	1.339309	0.000158
1899	1.8885e+02	-4.3796	-21.594639	0.000466	4.662499	1.579698	0.000187
1900	1.8895e+02	-4.3411	-21.517933	0.000193	1.925815	0.652484	0.000077
1901	1.8905e+02	-4.3009	-21.380671	0.000345	3.446195	1.167603	0.000138
1902	1.8915e+02	-4.2592	-21.235334	0.000365	3.648913	1.236285	0.000146
1903	1.8925e+02	-4.2223	-21.073849	0.000405	4.054347	1.373650	0.000162
1904	1.8935e+02	-4.1854	-20.968883	0.000264	2.635326	0.892873	0.000105
1905	1.8945e+02	-4.1485	-20.787212	0.000456	4.561141	1.545356	0.000183
1906	1.8955e+02	-4.0972	-20.609578	0.000446	4.459782	1.511015	0.000179
1907	1.8965e+02	-4.0603	-20.484427	0.000314	3.142119	1.064579	0.000126
1908	1.8975e+02	-4.0330	-20.343127	0.000355	3.547554	1.201944	0.000142
1909	1.8985e+02	-3.9721	-20.222013	0.000304	3.040760	1.030238	0.000122
1910	1.8995e+02	-3.9368	-20.040342	0.000456	4.561141	1.545356	0.000183
1911	1.9004e+02	-3.9031	-19.919228	0.000304	3.040760	1.030238	0.000122
1912	1.9014e+02	-3.8502	-19.745631	0.000436	4.358423	1.476674	0.000174
1913	1.9024e+02	-3.8261	-19.616443	0.000324	3.243478	1.098920	0.000130
1914	1.9034e+02	-3.7892	-19.446883	0.000426	4.257065	1.442333	0.000170
1915	1.9044e+02	-3.7411	-19.317695	0.000324	3.243478	1.098920	0.000130
1916	1.9054e+02	-3.6994	-19.160246	0.000395	3.952989	1.339309	0.000158
1917	1.9064e+02	-3.6593	-19.010872	0.000375	3.750271	1.270626	0.000150
1918	1.9074e+02	-3.6272	-18.865535	0.000365	3.648913	1.236285	0.000146
1919	1.9084e+02	-3.5839	-18.740384	0.000314	3.142119	1.064579	0.000126
1920	1.9094e+02	-3.5470	-18.574862	0.000416	4.155706	1.407991	0.000166
1921	1.9104e+02	-3.5036	-18.373005	0.000507	5.067934	1.717063	0.000203
1922	1.9114e+02	-3.4684	-18.268039	0.000264	2.635326	0.892873	0.000105
1923	1.9124e+02	-3.4266	-18.078294	0.000476	4.763858	1.614039	0.000191
1924	1.9134e+02	-3.3881	-17.957180	0.000304	3.040760	1.030238	0.000122
1925	1.9144e+02	-3.3528	-17.832029	0.000314	3.142119	1.064579	0.000126
1926	1.9154e+02	-3.3079	-17.650357	0.000456	4.561141	1.545356	0.000183
1927	1.9164e+02	-3.2694	-17.492909	0.000395	3.952989	1.339309	0.000158
1928	1.9174e+02	-3.2309	-17.335461	0.000395	3.952989	1.339309	0.000158
1929	1.9184e+02	-3.1940	-17.206273	0.000324	3.243478	1.098920	0.000130
1930	1.9194e+02	-3.1491	-17.077084	0.000324	3.243478	1.098920	0.000130
1931	1.9203e+02	-3.1106	-16.911562	0.000416	4.155706	1.407991	0.000166
1932	1.9213e+02	-3.0625	-16.742002	0.000426	4.257065	1.442333	0.000170
1933	1.9223e+02	-3.0288	-16.568405	0.000436	4.358423	1.476674	0.000174
1934	1.9233e+02	-2.9855	-16.451328	0.000294	2.939402	0.995896	0.000118
1935	1.9243e+02	-2.9518	-16.334251	0.000294	2.939402	0.995896	0.000118
1936	1.9253e+02	-2.9197	-16.168729	0.000416	4.155706	1.407991	0.000166
1937	1.9263e+02	-2.8700	-16.007243	0.000405	4.054347	1.373650	0.000162
1938	1.9273e+02	-2.8283	-15.853832	0.000385	3.851630	1.304968	0.000154
1939	1.9283e+02	-2.7994	-15.712532	0.000355	3.547554	1.201944	0.000142
1940	1.9293e+02	-2.7513	-15.518750	0.000487	4.865217	1.648380	0.000195
1941	1.9303e+02	-2.7079	-15.389561	0.000324	3.243478	1.098920	0.000130
1942	1.9313e+02	-2.6598	-15.228076	0.000405	4.054347	1.373650	0.000162
1943	1.9323e+02	-2.6342	-15.082739	0.000365	3.648913	1.236285	0.000146
1944	1.9333e+02	-2.5940	-14.945477	0.000345	3.446195	1.167603	0.000138
1945	1.9343e+02	-2.5523	-14.739583	0.000517	5.169293	1.751404	0.000207
1946	1.9353e+02	-2.5090	-14.626543	0.000284	2.838043	0.961555	0.000114
1947	1.9363e+02	-2.4625	-14.424686	0.000507	5.067934	1.717063	0.000203
1948	1.9373e+02	-2.4400	-14.303572	0.000304	3.040760	1.030238	0.000122
1949	1.9383e+02	-2.3983	-14.121901	0.000456	4.561141	1.545356	0.000183
1950	1.9393e+02	-2.3566	-13.964453	0.000395	3.952989	1.339309	0.000158
1951	1.9403e+02	-2.3149	-13.835264	0.000324	3.243478	1.098920	0.000130
1952	1.9412e+02	-2.2796	-13.661667	0.000436	4.358423	1.476674	0.000174
1953	1.9422e+02	-2.2363	-13.528442	0.000334	3.344836	1.133261	0.000134
1954	1.9432e+02	-2.1914	-13.391179	0.000345	3.446195	1.167603	0.000138
1955	1.9442e+02	-2.1529	-13.193360	0.000497	4.966575	1.682721	0.000199
1956	1.9452e+02	-2.1144	-13.031874	0.000405	4.054347	1.373650	0.000162
1957	1.9462e+02	-2.0743	-12.882500	0.000375	3.750271	1.270626	0.000150
1958	1.9472e+02	-2.0342	-12.745238	0.000345	3.446195	1.167603	0.000138
1959	1.9482e+02	-1.9941	-12.583752	0.000405	4.054347	1.373650	0.000162
1960	1.9492e+02	-1.9524	-12.430341	0.000385	3.851630	1.304968	0.000154
1961	1.9502e+02	-1.9203	-12.244633	0.000466	4.662499	1.579698	0.000187
1962	1.9512e+02	-1.8689	-12.058924	0.000466	4.662499	1.579698	0.000187
1963	1.9522e+02	-1.8320	-11.949922	0.000274	2.736684	0.927214	0.000110
1964	1.9532e+02	-1.7935	-11.780362	0.000426	4.257065	1.442333	0.000170
1965	1.9542e+02	-1.7598	-11.635025	0.000365	3.648913	1.236285	0.000146
1966	1.9552e+02	-1.7181	-11.477577	0.000395	3.952989	1.339309	0.000158
1967	1.9562e+02	-1.6716	-11.312054	0.000416	4.155706	1.407991	0.000166
1968	1.9572e+02	-1.6299	-11.126346	0.000466	4.662499	1.579698	0.000187
1969	1.9582e+02	-1.5930	-10.956786	0.000426	4.257065	1.442333	0.000170
1970	1.9592e+02	-1.5465	-10.835672	0.000304	3.040760	1.030238	0.000122
1971	1.9601e+02	-1.5128	-10.678224	0.000395	3.952989	1.339309	0.000158
1972	1.9611e+02	-1.4743	-10.549036	0.000324	3.243478	1.098920	0.000130
1973	1.9621e+02	-1.4374	-10.331030	0.000547	5.473369	1.854428	0.000219
1974	1.9631e+02	-1.3877	-10.165508	0.000416	4.155706	1.407991	0.000166
1975	1.9641e+02	-1.3572	-10.036319	0.000324	3.243478	1.098920	0.000130
1976	1.9651e+02	-1.3058	-9.862723	0.000436	4.358423	1.476674	0.000174
1977	1.9661e+02	-1.2802	-9.721423	0.000355	3.547554	1.201944	0.000142
1978	1.9671e+02	-1.2353	-9.499380	0.000557	5.574727	1.888769	0.000223
1979	1.9681e+02	-1.1984	-9.426712	0.000182	1.824456	0.618143	0.000073
1980	1.9691e+02	-1.1534	-9.220818	0.000517	5.169293	1.751404	0.000207
1981	1.9701e+02	-1.1230	-9.091630	0.000324	3.243478	1.098920	0.000130
1982	1.9711e+02	-1.0780	-8.897847	0.000487	4.865217	1.648380	0.000195
1983	1.9721e+02	-1.0363	-8.716176	0.000456	4.561141	1.545356	0.000183
1984	1.9731e+02	-0.9994	-8.562765	0.000385	3.851630	1.304968	0.000154
1985	1.9741e+02	-0.9513	-8.389168	0.000436	4.358423	1.476674	0.000174
1986	1.9751e+02	-0.9192	-8.211534	0.000446	4.459782	1.511015	0.000179
1987	1.9761e+02	-0.8727	-8.037937	0.000436	4.358423	1.476674	0.000174
1988	1.9771e+02	-0.8438	-7.896638	0.000355	3.547554	1.201944	0.000142
1989	1.9781e+02	-0.7861	-7.739189	0.000395	3.952989	1.339309	0.000158
1990	1.9791e+02	-0.7508	-7.593852	0.000365	3.648913	1.236285	0.000146
1991	1.9800e+02	-0.7155	-7.396033	0.000497	4.966575	1.682721	0.000199
1992	1.9810e+02	-0.6770	-7.250696	0.000365	3.648913	1.236285	0.000146
1993	1.9820e+02	-0.6337	-7.048839	0.000507	5.067934	1.717063	0.000203
1994	1.9830e+02	-0.6016	-6.899465	0.000375	3.750271	1.270626	0.000150
1995	1.9840e+02	-0.5438	-6.725868	0.000436	4.358423	1.476674	0.000174
1996	1.9850e+02	-0.5166	-6.596680	0.000324	3.243478	1.098920	0.000130
1997	1.9860e+02	-0.4813	-6.435194	0.000405	4.054347	1.373650	0.000162
1998	1.9870e+02	-0.4428	-6.253523	0.000456	4.561141	1.545356	0.000183
1999	1.9880e+02	-0.3946	-6.055704	0.000497	4.966575	1.682721	0.000199
2000	1.9890e+02	-0.3626	-5.918441	0.000345	3.446195	1.167603	0.000138
2001	1.9900e+02	-0.3208	-5.744844	0.000436	4.358423	1.476674	0.000174
2002	1.9910e+02	-0.2807	-5.619693	0.000314	3.142119	1.064579	0.000126
2003	1.9920e+02	-0.2454	-5.397650	0.000557	5.574727	1.888769	0.000223
2004	1.9930e+02	-0.1893	-5.236165	0.000405	4.054347	1.373650	0.000162
2005	1.9940e+02	-0.1540	-5.078717	0.000395	3.952989	1.339309	0.000158
2006	1.9950e+02	-0.1139	-4.917231	0.000405	4.054347	1.373650	0.000162
2007	1.9960e+02	-0.0706	-4.788043	0.000324	3.243478	1.098920	0.000130
2008	1.9970e+02	-0.0369	-4.638669	0.000375	3.750271	1.270626	0.000150
2009	1.9980e+02	0.0048	-4.416626	0.000375	3.750271	1.270626	0.000223

Center data before PMax,+/-Pr and +/-Vc Calc.

PMax (uC/cm2):	6.35e+01
Pr (uC/cm2):	8.71e-01
-Pr (uC/cm2):	-4.42e+00
PLoss (uC/cm2):	-1.63e+00
Vc:	7.12e-01
-Vc:	-2.10e-01
C (Max-Eff) (nF):	3.18e-01
K (Eff):	1.08e+03
Vert. (+/-Pr) Shift (uC/cm2):	-1.77e+00
Horiz. Shift (+/-Vc):	2.51e-01
Offset (uC/cm2):	2.76e+00

A (Loop Area - uC/cm2·Volts):	1.01e-03



Hysteresis Version: 5.48.1 - Radiant Technologies, Inc., 1999 - 9/12/24

