»»»»»»»»»»»»»»»»»»»»»»»»»»»»»»»»»»»» Hysteresis ««««««««««««««««««««««««««««««««««««
»»»  Executed Version:	5.48.1
»»»  Vision Version:	5.48.4 (R)
»»»  Vision Compiled:	9/18/24
»»»  Driver Version:	5.47.0
»»»  Windows Version:	Windows 8 or 8.1
»»»  Processor Information:	x86 (AMD or Intel) - 32 Processors
»»»  Tester Name:	PMF21124-494 (100V)
»»»  Tester S/N:	PMF21124-494
»»»  Internal Amp Type:	100V RevK 270k
»»»  Internal Amp S/N:	iAB2-596/K     
»»»  Execution Count:	1
»»»»»»»»»»»»»»»»»»»»»»»»»»»»»»»»»»»»»»»»»»««««««««««««««««««««««««««««««««««««««««««

Stored:	6/13/2025 - 11:35:10
Configured:	06/13/25 10:12:58 AM
Executed:	06/13/25 11:34:40 AM

»»»»»»»»»»»»»»»»»»»»»»»»»»»»»»»»»»» Sample Info ««««««««««««««««««««««««««««««««««««
Sample Name:	
Lot Name:	
Wafer Name:	
Die Row/Column:	0/0
Capacitor Number:	0
Sample Area (cm2):	1.00e-04
Sample Thickness (microns):	3.00e-01

Amplifier:	Internal

»»»»»»»»»»»»»»»»»»»»»»»»»»»»»»»»»»» Tester Info «««««««««««««««««««««««««««««««««««
Tester Name:	PMF21124-494 (100V)
Tester Serial Number:	PMF21124-494
Return Signal Amp. Level:	0.19 [Index: 3]

»»»»»»»»»»»»»»»»»»»»»»»»»»»»»»»» Hysteresis Info ««««««««««««««««««««««««««««««««««
Task Name:	Hyst-1704
Volts:	20.00
Field:	666.67 (kV/cm)
DCBias:	0.00
DCField:	0.00 (kV/cm)
Hysteresis Period (ms):	2.00e+02
Preset:	Enabled
Preset Delay (ms):	1.00e+03
Profile:	Standard Bipolar

»»»»»»»»»»»»»»»»»»»»»»»»»»»»»»»»»»»»»» Data «««««««««««««««««««««««««««««««««««««««
Points:	2009

Valid Data

Point	Time (ms)	Drive Voltage	Measured Polarization (uC/cm2)	Capacitance (uF)	Normalized Capacitance (uF/cm2)	Dielectric Constant	Instantaneous Current (mA)
   1	0.0000e+00	0.0080	-3.031889	0.000314	3.142245	1.064621	0.000126
   2	9.9500e-02	0.0337	-2.906738	0.000314	3.142245	1.064621	0.000126
   3	1.9900e-01	0.0786	-2.712955	0.000487	4.865412	1.648446	0.000195
   4	2.9850e-01	0.1107	-2.559544	0.000385	3.851784	1.305020	0.000154
   5	3.9800e-01	0.1524	-2.349613	0.000527	5.270863	1.785817	0.000211
   6	4.9750e-01	0.1909	-2.167942	0.000456	4.561324	1.545418	0.000183
   7	5.9700e-01	0.2310	-2.014531	0.000385	3.851784	1.305020	0.000154
   8	6.9650e-01	0.2711	-1.784414	0.000578	5.777677	1.957530	0.000231
   9	7.9600e-01	0.3128	-1.586594	0.000497	4.966775	1.682789	0.000199
  10	8.9550e-01	0.3513	-1.388775	0.000497	4.966775	1.682789	0.000199
  11	9.9500e-01	0.3898	-1.174806	0.000537	5.372226	1.820159	0.000215
  12	1.0945e+00	0.4315	-1.037544	0.000345	3.446333	1.167649	0.000138
  13	1.1940e+00	0.4652	-0.843761	0.000487	4.865412	1.648446	0.000195
  14	1.2935e+00	0.5101	-0.633830	0.000527	5.270863	1.785817	0.000211
  15	1.3930e+00	0.5454	-0.464271	0.000426	4.257235	1.442390	0.000170
  16	1.4925e+00	0.5855	-0.234154	0.000578	5.777677	1.957530	0.000231
  17	1.5920e+00	0.6369	-0.064594	0.000426	4.257235	1.442390	0.000170
  18	1.6915e+00	0.6738	0.056520	0.000304	3.040882	1.030279	0.000122
  19	1.7910e+00	0.7059	0.218005	0.000405	4.054510	1.373705	0.000162
  20	1.8905e+00	0.7460	0.440048	0.000557	5.574951	1.888845	0.000223
  21	1.9900e+00	0.7957	0.633830	0.000487	4.865412	1.648446	0.000195
  22	2.0895e+00	0.8326	0.787241	0.000385	3.851784	1.305020	0.000154
  23	2.1890e+00	0.8695	1.025432	0.000598	5.980402	2.026215	0.000239
  24	2.2885e+00	0.9112	1.211141	0.000466	4.662686	1.579761	0.000187
  25	2.3880e+00	0.9545	1.433183	0.000557	5.574951	1.888845	0.000223
  26	2.4875e+00	0.9898	1.635040	0.000507	5.068137	1.717131	0.000203
  27	2.5870e+00	1.0283	1.788451	0.000385	3.851784	1.305020	0.000154
  28	2.6865e+00	1.0764	1.990308	0.000507	5.068137	1.717131	0.000203
  29	2.7860e+00	1.1085	2.188128	0.000497	4.966775	1.682789	0.000199
  30	2.8855e+00	1.1406	2.414207	0.000568	5.676314	1.923187	0.000227
  31	2.9850e+00	1.1903	2.599915	0.000466	4.662686	1.579761	0.000187
  32	3.0845e+00	1.2288	2.745252	0.000365	3.649059	1.236335	0.000146
  33	3.1840e+00	1.2641	2.959220	0.000537	5.372226	1.820159	0.000215
  34	3.2835e+00	1.3058	3.096483	0.000345	3.446333	1.167649	0.000138
  35	3.3830e+00	1.3508	3.282191	0.000466	4.662686	1.579761	0.000187
  36	3.4825e+00	1.3893	3.451751	0.000426	4.257235	1.442390	0.000170
  37	3.5820e+00	1.4262	3.621311	0.000426	4.257235	1.442390	0.000170
  38	3.6815e+00	1.4743	3.835279	0.000537	5.372226	1.820159	0.000215
  39	3.7810e+00	1.5096	4.008876	0.000436	4.358598	1.476733	0.000174
  40	3.8805e+00	1.5433	4.247067	0.000598	5.980402	2.026215	0.000239
  41	3.9800e+00	1.5914	4.440849	0.000487	4.865412	1.648446	0.000195
  42	4.0795e+00	1.6235	4.578112	0.000345	3.446333	1.167649	0.000138
  43	4.1790e+00	1.6652	4.812266	0.000588	5.879039	1.991872	0.000235
  44	4.2785e+00	1.7069	4.989900	0.000446	4.459961	1.511076	0.000179
  45	4.3780e+00	1.7438	5.191757	0.000507	5.068137	1.717131	0.000203
  46	4.4775e+00	1.7807	5.337093	0.000365	3.649059	1.236335	0.000146
  47	4.5770e+00	1.8304	5.567210	0.000578	5.777677	1.957530	0.000231
  48	4.6765e+00	1.8577	5.752918	0.000466	4.662686	1.579761	0.000187
  49	4.7760e+00	1.9010	5.950738	0.000497	4.966775	1.682789	0.000199
  50	4.8755e+00	1.9331	6.124335	0.000436	4.358598	1.476733	0.000174
  51	4.9750e+00	1.9892	6.306006	0.000456	4.561324	1.545418	0.000183
  52	5.0745e+00	2.0294	6.479603	0.000436	4.358598	1.476733	0.000174
  53	5.1740e+00	2.0695	6.673385	0.000487	4.865412	1.648446	0.000195
  54	5.2735e+00	2.1031	6.838908	0.000416	4.155873	1.408048	0.000166
  55	5.3730e+00	2.1368	7.044802	0.000517	5.169500	1.751474	0.000207
  56	5.4725e+00	2.1882	7.206287	0.000405	4.054510	1.373705	0.000162
  57	5.5720e+00	2.2203	7.436404	0.000578	5.777677	1.957530	0.000231
  58	5.6715e+00	2.2652	7.601927	0.000416	4.155873	1.408048	0.000166
  59	5.7710e+00	2.3085	7.783598	0.000456	4.561324	1.545418	0.000183
  60	5.8705e+00	2.3438	7.997566	0.000537	5.372226	1.820159	0.000215
  61	5.9700e+00	2.3759	8.163088	0.000416	4.155873	1.408048	0.000166
  62	6.0695e+00	2.4208	8.340722	0.000446	4.459961	1.511076	0.000179
  63	6.1690e+00	2.4593	8.526431	0.000466	4.662686	1.579761	0.000187
  64	6.2685e+00	2.5042	8.740399	0.000537	5.372226	1.820159	0.000215
  65	6.3680e+00	2.5475	8.881699	0.000355	3.547696	1.201992	0.000142
  66	6.4675e+00	2.5812	9.047221	0.000416	4.155873	1.408048	0.000166
  67	6.5670e+00	2.6277	9.285412	0.000598	5.980402	2.026215	0.000239
  68	6.6665e+00	2.6710	9.454972	0.000426	4.257235	1.442390	0.000170
  69	6.7660e+00	2.7112	9.644717	0.000476	4.764049	1.614104	0.000191
  70	6.8655e+00	2.7416	9.834463	0.000476	4.764049	1.614104	0.000191
  71	6.9650e+00	2.7801	9.971725	0.000345	3.446333	1.167649	0.000138
  72	7.0645e+00	2.8283	10.137248	0.000416	4.155873	1.408048	0.000166
  73	7.1640e+00	2.8652	10.343142	0.000517	5.169500	1.751474	0.000207
  74	7.2635e+00	2.9021	10.512701	0.000426	4.257235	1.442390	0.000170
  75	7.3630e+00	2.9374	10.722633	0.000527	5.270863	1.785817	0.000211
  76	7.4625e+00	2.9855	10.896229	0.000436	4.358598	1.476733	0.000174
  77	7.5620e+00	3.0160	11.069826	0.000436	4.358598	1.476733	0.000174
  78	7.6615e+00	3.0657	11.235349	0.000416	4.155873	1.408048	0.000166
  79	7.7610e+00	3.1106	11.412983	0.000446	4.459961	1.511076	0.000179
  80	7.8605e+00	3.1459	11.582542	0.000426	4.257235	1.442390	0.000170
  81	7.9600e+00	3.1732	11.788436	0.000517	5.169500	1.751474	0.000207
  82	8.0595e+00	3.2213	11.982219	0.000487	4.865412	1.648446	0.000195
  83	8.1590e+00	3.2534	12.151779	0.000426	4.257235	1.442390	0.000170
  84	8.2585e+00	3.3047	12.341524	0.000476	4.764049	1.614104	0.000191
  85	8.3580e+00	3.3416	12.519158	0.000446	4.459961	1.511076	0.000179
  86	8.4575e+00	3.3865	12.684680	0.000416	4.155873	1.408048	0.000166
  87	8.5570e+00	3.4138	12.862314	0.000446	4.459961	1.511076	0.000179
  88	8.6565e+00	3.4587	13.011688	0.000375	3.750422	1.270677	0.000150
  89	8.7560e+00	3.4972	13.193360	0.000456	4.561324	1.545418	0.000183
  90	8.8555e+00	3.5421	13.423476	0.000578	5.777677	1.957530	0.000231
  91	8.9550e+00	3.5871	13.641482	0.000547	5.473588	1.854502	0.000219
  92	9.0545e+00	3.6288	13.770670	0.000324	3.243608	1.098964	0.000130
  93	9.1540e+00	3.6609	13.944267	0.000436	4.358598	1.476733	0.000174
  94	9.2535e+00	3.6962	14.113827	0.000426	4.257235	1.442390	0.000170
  95	9.3530e+00	3.7411	14.356055	0.000608	6.081765	2.060558	0.000243
  96	9.4525e+00	3.7780	14.469094	0.000284	2.838157	0.961594	0.000114
  97	9.5520e+00	3.8101	14.658840	0.000476	4.764049	1.614104	0.000191
  98	9.6515e+00	3.8518	14.864734	0.000517	5.169500	1.751474	0.000207
  99	9.7510e+00	3.9015	15.062553	0.000497	4.966775	1.682789	0.000199
 100	9.8505e+00	3.9416	15.228076	0.000416	4.155873	1.408048	0.000166
 101	9.9500e+00	3.9785	15.389561	0.000405	4.054510	1.373705	0.000162
 102	1.0050e+01	4.0234	15.599492	0.000527	5.270863	1.785817	0.000211
 103	1.0149e+01	4.0555	15.744829	0.000365	3.649059	1.236335	0.000146
 104	1.0248e+01	4.0972	15.898241	0.000385	3.851784	1.305020	0.000154
 105	1.0348e+01	4.1437	16.067800	0.000426	4.257235	1.442390	0.000170
 106	1.0447e+01	4.1790	16.233323	0.000416	4.155873	1.408048	0.000166
 107	1.0547e+01	4.2127	16.390771	0.000395	3.953147	1.339363	0.000158
 108	1.0646e+01	4.2576	16.637036	0.000618	6.183128	2.094900	0.000248
 109	1.0746e+01	4.2929	16.814670	0.000446	4.459961	1.511076	0.000179
 110	1.0845e+01	4.3411	16.968082	0.000385	3.851784	1.305020	0.000154
 111	1.0945e+01	4.3780	17.149753	0.000456	4.561324	1.545418	0.000183
 112	1.1044e+01	4.4116	17.319312	0.000426	4.257235	1.442390	0.000170
 113	1.1144e+01	4.4566	17.525206	0.000517	5.169500	1.751474	0.000207
 114	1.1243e+01	4.4967	17.674580	0.000375	3.750422	1.270677	0.000150
 115	1.1343e+01	4.5384	17.872400	0.000497	4.966775	1.682789	0.000199
 116	1.1443e+01	4.5753	18.025811	0.000385	3.851784	1.305020	0.000154
 117	1.1542e+01	4.6170	18.203445	0.000446	4.459961	1.511076	0.000179
 118	1.1642e+01	4.6507	18.373005	0.000426	4.257235	1.442390	0.000170
 119	1.1741e+01	4.6908	18.534490	0.000405	4.054510	1.373705	0.000162
 120	1.1841e+01	4.7309	18.700013	0.000416	4.155873	1.408048	0.000166
 121	1.1940e+01	4.7758	18.849387	0.000375	3.750422	1.270677	0.000150
 122	1.2040e+01	4.8239	19.014909	0.000416	4.155873	1.408048	0.000166
 123	1.2139e+01	4.8576	19.164283	0.000375	3.750422	1.270677	0.000150
 124	1.2239e+01	4.9073	19.349992	0.000466	4.662686	1.579761	0.000187
 125	1.2338e+01	4.9282	19.535700	0.000466	4.662686	1.579761	0.000187
 126	1.2438e+01	4.9779	19.689111	0.000385	3.851784	1.305020	0.000154
 127	1.2537e+01	5.0100	19.895005	0.000517	5.169500	1.751474	0.000207
 128	1.2636e+01	5.0598	20.113010	0.000547	5.473588	1.854502	0.000219
 129	1.2736e+01	5.0902	20.230087	0.000294	2.939520	0.995936	0.000118
 130	1.2835e+01	5.1384	20.399647	0.000426	4.257235	1.442390	0.000170
 131	1.2935e+01	5.1720	20.573244	0.000436	4.358598	1.476733	0.000174
 132	1.3034e+01	5.2202	20.787212	0.000537	5.372226	1.820159	0.000215
 133	1.3134e+01	5.2539	20.892177	0.000264	2.635431	0.892908	0.000105
 134	1.3233e+01	5.3004	21.094034	0.000507	5.068137	1.717131	0.000203
 135	1.3333e+01	5.3293	21.267631	0.000436	4.358598	1.476733	0.000174
 136	1.3432e+01	5.3774	21.421042	0.000385	3.851784	1.305020	0.000154
 137	1.3532e+01	5.4143	21.606750	0.000466	4.662686	1.579761	0.000187
 138	1.3632e+01	5.4416	21.744013	0.000345	3.446333	1.167649	0.000138
 139	1.3731e+01	5.4929	21.885313	0.000355	3.547696	1.201992	0.000142
 140	1.3831e+01	5.5282	22.066984	0.000456	4.561324	1.545418	0.000183
 141	1.3930e+01	5.5811	22.212321	0.000365	3.649059	1.236335	0.000146
 142	1.4030e+01	5.6116	22.381881	0.000426	4.257235	1.442390	0.000170
 143	1.4129e+01	5.6469	22.607960	0.000568	5.676314	1.923187	0.000227
 144	1.4229e+01	5.6934	22.757334	0.000375	3.750422	1.270677	0.000150
 145	1.4328e+01	5.7367	22.910745	0.000385	3.851784	1.305020	0.000154
 146	1.4428e+01	5.7768	23.100491	0.000476	4.764049	1.614104	0.000191
 147	1.4527e+01	5.8105	23.266013	0.000416	4.155873	1.408048	0.000166
 148	1.4627e+01	5.8426	23.423462	0.000395	3.953147	1.339363	0.000158
 149	1.4726e+01	5.8875	23.568798	0.000365	3.649059	1.236335	0.000146
 150	1.4825e+01	5.9276	23.754507	0.000466	4.662686	1.579761	0.000187
 151	1.4925e+01	5.9677	23.932141	0.000446	4.459961	1.511076	0.000179
 152	1.5024e+01	6.0079	24.061329	0.000324	3.243608	1.098964	0.000130
 153	1.5124e+01	6.0480	24.255112	0.000487	4.865412	1.648446	0.000195
 154	1.5223e+01	6.0865	24.408523	0.000385	3.851784	1.305020	0.000154
 155	1.5323e+01	6.1266	24.598268	0.000476	4.764049	1.614104	0.000191
 156	1.5422e+01	6.1715	24.699196	0.000253	2.534069	0.858566	0.000101
 157	1.5522e+01	6.2164	24.864719	0.000416	4.155873	1.408048	0.000166
 158	1.5621e+01	6.2533	25.030242	0.000416	4.155873	1.408048	0.000166
 159	1.5721e+01	6.2854	25.224024	0.000487	4.865412	1.648446	0.000195
 160	1.5820e+01	6.3351	25.353212	0.000324	3.243608	1.098964	0.000130
 161	1.5920e+01	6.3752	25.555069	0.000507	5.068137	1.717131	0.000203
 162	1.6020e+01	6.4089	25.765000	0.000527	5.270863	1.785817	0.000211
 163	1.6119e+01	6.4410	25.882077	0.000294	2.939520	0.995936	0.000118
 164	1.6218e+01	6.4923	26.047600	0.000416	4.155873	1.408048	0.000166
 165	1.6318e+01	6.5324	26.201011	0.000385	3.851784	1.305020	0.000154
 166	1.6418e+01	6.5709	26.394793	0.000487	4.865412	1.648446	0.000195
 167	1.6517e+01	6.6030	26.528019	0.000334	3.344971	1.133307	0.000134
 168	1.6616e+01	6.6511	26.721801	0.000487	4.865412	1.648446	0.000195
 169	1.6716e+01	6.6848	26.863101	0.000355	3.547696	1.201992	0.000142
 170	1.6816e+01	6.7265	26.988252	0.000314	3.142245	1.064621	0.000126
 171	1.6915e+01	6.7715	27.214332	0.000568	5.676314	1.923187	0.000227
 172	1.7015e+01	6.8084	27.331409	0.000294	2.939520	0.995936	0.000118
 173	1.7114e+01	6.8372	27.484820	0.000385	3.851784	1.305020	0.000154
 174	1.7213e+01	6.8950	27.601897	0.000294	2.939520	0.995936	0.000118
 175	1.7313e+01	6.9255	27.731085	0.000324	3.243608	1.098964	0.000130
 176	1.7413e+01	6.9656	27.912756	0.000456	4.561324	1.545418	0.000183
 177	1.7512e+01	7.0137	28.110576	0.000497	4.966775	1.682789	0.000199
 178	1.7611e+01	7.0506	28.235727	0.000314	3.142245	1.064621	0.000126
 179	1.7711e+01	7.0763	28.397213	0.000405	4.054510	1.373705	0.000162
 180	1.7811e+01	7.1276	28.590995	0.000487	4.865412	1.648446	0.000195
 181	1.7910e+01	7.1709	28.720184	0.000324	3.243608	1.098964	0.000130
 182	1.8009e+01	7.2062	28.905892	0.000466	4.662686	1.579761	0.000187
 183	1.8109e+01	7.2447	29.010857	0.000264	2.635431	0.892908	0.000105
 184	1.8209e+01	7.2784	29.216751	0.000517	5.169500	1.751474	0.000207
 185	1.8308e+01	7.3185	29.370162	0.000385	3.851784	1.305020	0.000154
 186	1.8407e+01	7.3634	29.515499	0.000365	3.649059	1.236335	0.000146
 187	1.8507e+01	7.4019	29.652762	0.000345	3.446333	1.167649	0.000138
 188	1.8607e+01	7.4468	29.830396	0.000446	4.459961	1.511076	0.000179
 189	1.8706e+01	7.4805	29.971696	0.000355	3.547696	1.201992	0.000142
 190	1.8805e+01	7.5287	30.108958	0.000345	3.446333	1.167649	0.000138
 191	1.8905e+01	7.5640	30.274481	0.000416	4.155873	1.408048	0.000166
 192	1.9005e+01	7.6073	30.411744	0.000345	3.446333	1.167649	0.000138
 193	1.9104e+01	7.6426	30.532858	0.000304	3.040882	1.030279	0.000122
 194	1.9203e+01	7.6811	30.722603	0.000476	4.764049	1.614104	0.000191
 195	1.9303e+01	7.7228	30.892163	0.000426	4.257235	1.442390	0.000170
 196	1.9402e+01	7.7645	31.073834	0.000456	4.561324	1.545418	0.000183
 197	1.9502e+01	7.7982	31.219171	0.000365	3.649059	1.236335	0.000146
 198	1.9602e+01	7.8383	31.372582	0.000385	3.851784	1.305020	0.000154
 199	1.9701e+01	7.8768	31.550216	0.000446	4.459961	1.511076	0.000179
 200	1.9800e+01	7.9233	31.663256	0.000284	2.838157	0.961594	0.000114
 201	1.9900e+01	7.9618	31.816667	0.000385	3.851784	1.305020	0.000154
 202	2.0000e+01	8.0035	31.998338	0.000456	4.561324	1.545418	0.000183
 203	2.0099e+01	8.0436	32.147712	0.000375	3.750422	1.270677	0.000150
 204	2.0198e+01	8.0837	32.293049	0.000365	3.649059	1.236335	0.000146
 205	2.0298e+01	8.1190	32.438386	0.000365	3.649059	1.236335	0.000146
 206	2.0398e+01	8.1688	32.599871	0.000405	4.054510	1.373705	0.000162
 207	2.0497e+01	8.2008	32.749245	0.000375	3.750422	1.270677	0.000150
 208	2.0596e+01	8.2425	32.838062	0.000223	2.229980	0.755538	0.000089
 209	2.0696e+01	8.2827	32.975325	0.000345	3.446333	1.167649	0.000138
 210	2.0796e+01	8.3196	33.132773	0.000395	3.953147	1.339363	0.000158
 211	2.0895e+01	8.3548	33.286184	0.000385	3.851784	1.305020	0.000154
 212	2.0994e+01	8.4094	33.455744	0.000426	4.257235	1.442390	0.000170
 213	2.1094e+01	8.4415	33.637415	0.000456	4.561324	1.545418	0.000183
 214	2.1194e+01	8.4784	33.786789	0.000375	3.750422	1.270677	0.000150
 215	2.1293e+01	8.5169	33.964423	0.000446	4.459961	1.511076	0.000179
 216	2.1392e+01	8.5554	34.093611	0.000324	3.243608	1.098964	0.000130
 217	2.1492e+01	8.5987	34.259134	0.000416	4.155873	1.408048	0.000166
 218	2.1591e+01	8.6484	34.436768	0.000446	4.459961	1.511076	0.000179
 219	2.1691e+01	8.6741	34.561919	0.000314	3.142245	1.064621	0.000126
 220	2.1791e+01	8.7222	34.755702	0.000487	4.865412	1.648446	0.000195
 221	2.1890e+01	8.7575	34.860667	0.000264	2.635431	0.892908	0.000105
 222	2.1989e+01	8.8008	35.010041	0.000375	3.750422	1.270677	0.000150
 223	2.2089e+01	8.8457	35.155378	0.000365	3.649059	1.236335	0.000146
 224	2.2189e+01	8.8730	35.252269	0.000243	2.432706	0.824223	0.000097
 225	2.2288e+01	8.9211	35.442015	0.000476	4.764049	1.614104	0.000191
 226	2.2387e+01	8.9548	35.530832	0.000223	2.229980	0.755538	0.000089
 227	2.2487e+01	8.9901	35.692317	0.000405	4.054510	1.373705	0.000162
 228	2.2587e+01	9.0382	35.821505	0.000324	3.243608	1.098964	0.000130
 229	2.2686e+01	9.0816	36.007214	0.000466	4.662686	1.579761	0.000187
 230	2.2785e+01	9.1217	36.152551	0.000365	3.649059	1.236335	0.000146
 231	2.2885e+01	9.1505	36.305962	0.000385	3.851784	1.305020	0.000154
 232	2.2985e+01	9.1939	36.471484	0.000416	4.155873	1.408048	0.000166
 233	2.3084e+01	9.2356	36.580487	0.000274	2.736794	0.927251	0.000110
 234	2.3183e+01	9.2789	36.778307	0.000497	4.966775	1.682789	0.000199
 235	2.3283e+01	9.3142	36.899421	0.000304	3.040882	1.030279	0.000122
 236	2.3383e+01	9.3495	37.105315	0.000517	5.169500	1.751474	0.000207
 237	2.3482e+01	9.3960	37.206243	0.000253	2.534069	0.858566	0.000101
 238	2.3581e+01	9.4233	37.387914	0.000456	4.561324	1.545418	0.000183
 239	2.3681e+01	9.4762	37.492880	0.000264	2.635431	0.892908	0.000105
 240	2.3780e+01	9.5115	37.654365	0.000405	4.054510	1.373705	0.000162
 241	2.3880e+01	9.5612	37.795665	0.000355	3.547696	1.201992	0.000142
 242	2.3980e+01	9.5933	37.932927	0.000345	3.446333	1.167649	0.000138
 243	2.4079e+01	9.6366	38.050004	0.000294	2.939520	0.995936	0.000118
 244	2.4178e+01	9.6735	38.171118	0.000304	3.040882	1.030279	0.000122
 245	2.4278e+01	9.7168	38.296270	0.000314	3.142245	1.064621	0.000126
 246	2.4378e+01	9.7553	38.433532	0.000345	3.446333	1.167649	0.000138
 247	2.4477e+01	9.8019	38.627315	0.000487	4.865412	1.648446	0.000195
 248	2.4576e+01	9.8243	38.776689	0.000375	3.750422	1.270677	0.000150
 249	2.4676e+01	9.8805	38.922026	0.000365	3.649059	1.236335	0.000146
 250	2.4776e+01	9.9142	39.091585	0.000426	4.257235	1.442390	0.000170
 251	2.4875e+01	9.9495	39.200588	0.000274	2.736794	0.927251	0.000110
 252	2.4974e+01	9.9944	39.345925	0.000365	3.649059	1.236335	0.000146
 253	2.5074e+01	10.0313	39.515485	0.000426	4.257235	1.442390	0.000170
 254	2.5174e+01	10.0730	39.656784	0.000355	3.547696	1.201992	0.000142
 255	2.5273e+01	10.1099	39.777898	0.000304	3.040882	1.030279	0.000122
 256	2.5372e+01	10.1612	39.919198	0.000355	3.547696	1.201992	0.000142
 257	2.5472e+01	10.2013	40.052424	0.000334	3.344971	1.133307	0.000134
 258	2.5572e+01	10.2222	40.242169	0.000476	4.764049	1.614104	0.000191
 259	2.5671e+01	10.2767	40.347135	0.000264	2.635431	0.892908	0.000105
 260	2.5770e+01	10.3200	40.512657	0.000416	4.155873	1.408048	0.000166
 261	2.5870e+01	10.3601	40.649920	0.000345	3.446333	1.167649	0.000138
 262	2.5970e+01	10.3970	40.734700	0.000213	2.128618	0.721195	0.000085
 263	2.6069e+01	10.4339	40.888111	0.000385	3.851784	1.305020	0.000154
 264	2.6169e+01	10.4692	41.045559	0.000395	3.953147	1.339363	0.000158
 265	2.6268e+01	10.5206	41.194933	0.000375	3.750422	1.270677	0.000150
 266	2.6367e+01	10.5510	41.344307	0.000375	3.750422	1.270677	0.000150
 267	2.6467e+01	10.5895	41.509830	0.000416	4.155873	1.408048	0.000166
 268	2.6567e+01	10.6329	41.630944	0.000304	3.040882	1.030279	0.000122
 269	2.6666e+01	10.6746	41.844912	0.000537	5.372226	1.820159	0.000215
 270	2.6765e+01	10.7099	41.913543	0.000172	1.723167	0.583825	0.000069
 271	2.6865e+01	10.7500	42.034657	0.000304	3.040882	1.030279	0.000122
 272	2.6965e+01	10.7885	42.236514	0.000507	5.068137	1.717131	0.000203
 273	2.7064e+01	10.8334	42.373777	0.000345	3.446333	1.167649	0.000138
 274	2.7163e+01	10.8735	42.519114	0.000365	3.649059	1.236335	0.000146
 275	2.7263e+01	10.9104	42.632153	0.000284	2.838157	0.961594	0.000114
 276	2.7363e+01	10.9473	42.781527	0.000375	3.750422	1.270677	0.000150
 277	2.7462e+01	10.9954	42.894567	0.000284	2.838157	0.961594	0.000114
 278	2.7561e+01	11.0355	43.031830	0.000345	3.446333	1.167649	0.000138
 279	2.7661e+01	11.0772	43.152944	0.000304	3.040882	1.030279	0.000122
 280	2.7761e+01	11.1109	43.274058	0.000304	3.040882	1.030279	0.000122
 281	2.7860e+01	11.1526	43.407283	0.000334	3.344971	1.133307	0.000134
 282	2.7959e+01	11.1799	43.580880	0.000436	4.358598	1.476733	0.000174
 283	2.8059e+01	11.2216	43.726217	0.000365	3.649059	1.236335	0.000146
 284	2.8159e+01	11.2697	43.924037	0.000497	4.966775	1.682789	0.000199
 285	2.8258e+01	11.3082	44.045151	0.000304	3.040882	1.030279	0.000122
 286	2.8358e+01	11.3516	44.162228	0.000294	2.939520	0.995936	0.000118
 287	2.8457e+01	11.3933	44.295453	0.000334	3.344971	1.133307	0.000134
 288	2.8556e+01	11.4302	44.416567	0.000304	3.040882	1.030279	0.000122
 289	2.8656e+01	11.4671	44.574016	0.000395	3.953147	1.339363	0.000158
 290	2.8756e+01	11.5152	44.695130	0.000304	3.040882	1.030279	0.000122
 291	2.8855e+01	11.5537	44.864689	0.000426	4.257235	1.442390	0.000170
 292	2.8954e+01	11.5890	44.997915	0.000334	3.344971	1.133307	0.000134
 293	2.9054e+01	11.6307	45.114992	0.000294	2.939520	0.995936	0.000118
 294	2.9154e+01	11.6724	45.240143	0.000314	3.142245	1.064621	0.000126
 295	2.9253e+01	11.7077	45.353183	0.000284	2.838157	0.961594	0.000114
 296	2.9352e+01	11.7430	45.466223	0.000284	2.838157	0.961594	0.000114
 297	2.9452e+01	11.7943	45.615597	0.000375	3.750422	1.270677	0.000150
 298	2.9552e+01	11.8216	45.752859	0.000345	3.446333	1.167649	0.000138
 299	2.9651e+01	11.8633	45.906270	0.000385	3.851784	1.305020	0.000154
 300	2.9750e+01	11.8970	46.055644	0.000375	3.750422	1.270677	0.000150
 301	2.9850e+01	11.9419	46.217130	0.000405	4.054510	1.373705	0.000162
 302	2.9950e+01	11.9932	46.362467	0.000365	3.649059	1.236335	0.000146
 303	3.0049e+01	12.0301	46.475507	0.000284	2.838157	0.961594	0.000114
 304	3.0148e+01	12.0719	46.628918	0.000385	3.851784	1.305020	0.000154
 305	3.0248e+01	12.1104	46.766180	0.000345	3.446333	1.167649	0.000138
 306	3.0348e+01	12.1473	46.871146	0.000264	2.635431	0.892908	0.000105
 307	3.0447e+01	12.1874	47.032631	0.000405	4.054510	1.373705	0.000162
 308	3.0547e+01	12.2243	47.125485	0.000233	2.331343	0.789880	0.000093
 309	3.0646e+01	12.2644	47.278897	0.000385	3.851784	1.305020	0.000154
 310	3.0745e+01	12.3141	47.416159	0.000345	3.446333	1.167649	0.000138
 311	3.0845e+01	12.3510	47.541310	0.000314	3.142245	1.064621	0.000126
 312	3.0945e+01	12.3815	47.654350	0.000284	2.838157	0.961594	0.000114
 313	3.1044e+01	12.4296	47.771427	0.000294	2.939520	0.995936	0.000118
 314	3.1143e+01	12.4633	47.892541	0.000304	3.040882	1.030279	0.000122
 315	3.1243e+01	12.5050	48.037878	0.000365	3.649059	1.236335	0.000146
 316	3.1343e+01	12.5515	48.179178	0.000355	3.547696	1.201992	0.000142
 317	3.1442e+01	12.5884	48.316441	0.000345	3.446333	1.167649	0.000138
 318	3.1541e+01	12.6301	48.486000	0.000426	4.257235	1.442390	0.000170
 319	3.1641e+01	12.6638	48.590966	0.000264	2.635431	0.892908	0.000105
 320	3.1741e+01	12.7055	48.748414	0.000395	3.953147	1.339363	0.000158
 321	3.1840e+01	12.7488	48.930085	0.000456	4.561324	1.545418	0.000183
 322	3.1939e+01	12.7825	48.994679	0.000162	1.621804	0.549482	0.000065
 323	3.2039e+01	12.8226	49.156165	0.000405	4.054510	1.373705	0.000162
 324	3.2139e+01	12.8611	49.240945	0.000213	2.128618	0.721195	0.000085
 325	3.2238e+01	12.9028	49.382244	0.000355	3.547696	1.201992	0.000142
 326	3.2337e+01	12.9381	49.551804	0.000426	4.257235	1.442390	0.000170
 327	3.2437e+01	12.9782	49.664844	0.000284	2.838157	0.961594	0.000114
 328	3.2536e+01	13.0232	49.741549	0.000193	1.925892	0.652510	0.000077
 329	3.2636e+01	13.0633	49.890923	0.000375	3.750422	1.270677	0.000150
 330	3.2736e+01	13.0986	50.012038	0.000304	3.040882	1.030279	0.000122
 331	3.2835e+01	13.1387	50.125077	0.000284	2.838157	0.961594	0.000114
 332	3.2934e+01	13.1772	50.270414	0.000365	3.649059	1.236335	0.000146
 333	3.3034e+01	13.2285	50.391528	0.000304	3.040882	1.030279	0.000122
 334	3.3133e+01	13.2574	50.561088	0.000426	4.257235	1.442390	0.000170
 335	3.3233e+01	13.3055	50.698351	0.000345	3.446333	1.167649	0.000138
 336	3.3333e+01	13.3328	50.803316	0.000264	2.635431	0.892908	0.000105
 337	3.3432e+01	13.3857	50.960764	0.000395	3.953147	1.339363	0.000158
 338	3.3532e+01	13.4162	51.093990	0.000334	3.344971	1.133307	0.000134
 339	3.3631e+01	13.4595	51.190881	0.000243	2.432706	0.824223	0.000097
 340	3.3730e+01	13.5028	51.324107	0.000334	3.344971	1.133307	0.000134
 341	3.3830e+01	13.5349	51.477518	0.000385	3.851784	1.305020	0.000154
 342	3.3929e+01	13.5814	51.586520	0.000274	2.736794	0.927251	0.000110
 343	3.4029e+01	13.6215	51.731857	0.000365	3.649059	1.236335	0.000146
 344	3.4129e+01	13.6616	51.857009	0.000314	3.142245	1.064621	0.000126
 345	3.4228e+01	13.6985	51.990234	0.000334	3.344971	1.133307	0.000134
 346	3.4328e+01	13.7403	52.083088	0.000233	2.331343	0.789880	0.000093
 347	3.4427e+01	13.7755	52.171905	0.000223	2.229980	0.755538	0.000089
 348	3.4526e+01	13.8157	52.317242	0.000365	3.649059	1.236335	0.000146
 349	3.4626e+01	13.8509	52.406059	0.000223	2.229980	0.755538	0.000089
 350	3.4725e+01	13.9023	52.559470	0.000385	3.851784	1.305020	0.000154
 351	3.4825e+01	13.9328	52.733067	0.000436	4.358598	1.476733	0.000174
 352	3.4925e+01	13.9825	52.846107	0.000284	2.838157	0.961594	0.000114
 353	3.5024e+01	14.0130	52.955109	0.000274	2.736794	0.927251	0.000110
 354	3.5123e+01	14.0483	53.112558	0.000395	3.953147	1.339363	0.000158
 355	3.5223e+01	14.0980	53.197338	0.000213	2.128618	0.721195	0.000085
 356	3.5322e+01	14.1349	53.338637	0.000355	3.547696	1.201992	0.000142
 357	3.5422e+01	14.1782	53.475900	0.000345	3.446333	1.167649	0.000138
 358	3.5522e+01	14.2199	53.613163	0.000345	3.446333	1.167649	0.000138
 359	3.5621e+01	14.2440	53.697942	0.000213	2.128618	0.721195	0.000085
 360	3.5721e+01	14.3033	53.819057	0.000304	3.040882	1.030279	0.000122
 361	3.5820e+01	14.3338	53.992653	0.000436	4.358598	1.476733	0.000174
 362	3.5919e+01	14.3803	54.109730	0.000294	2.939520	0.995936	0.000118
 363	3.6019e+01	14.4140	54.230844	0.000304	3.040882	1.030279	0.000122
 364	3.6118e+01	14.4557	54.347921	0.000294	2.939520	0.995936	0.000118
 365	3.6218e+01	14.4958	54.452887	0.000264	2.635431	0.892908	0.000105
 366	3.6318e+01	14.5376	54.586112	0.000334	3.344971	1.133307	0.000134
 367	3.6417e+01	14.5809	54.670892	0.000213	2.128618	0.721195	0.000085
 368	3.6517e+01	14.6146	54.836415	0.000416	4.155873	1.408048	0.000166
 369	3.6616e+01	14.6499	54.937343	0.000253	2.534069	0.858566	0.000101
 370	3.6715e+01	14.6868	55.110940	0.000436	4.358598	1.476733	0.000174
 371	3.6815e+01	14.7381	55.187646	0.000193	1.925892	0.652510	0.000077
 372	3.6914e+01	14.7766	55.353168	0.000416	4.155873	1.408048	0.000166
 373	3.7014e+01	14.8135	55.458134	0.000264	2.635431	0.892908	0.000105
 374	3.7114e+01	14.8536	55.579248	0.000304	3.040882	1.030279	0.000122
 375	3.7213e+01	14.8857	55.724585	0.000365	3.649059	1.236335	0.000146
 376	3.7313e+01	14.9274	55.813402	0.000223	2.229980	0.755538	0.000089
 377	3.7412e+01	14.9707	55.942590	0.000324	3.243608	1.098964	0.000130
 378	3.7511e+01	15.0140	56.043518	0.000253	2.534069	0.858566	0.000101
 379	3.7611e+01	15.0509	56.192892	0.000375	3.750422	1.270677	0.000150
 380	3.7711e+01	15.0926	56.342266	0.000375	3.750422	1.270677	0.000150
 381	3.7810e+01	15.1295	56.427046	0.000213	2.128618	0.721195	0.000085
 382	3.7910e+01	15.1793	56.548160	0.000304	3.040882	1.030279	0.000122
 383	3.8009e+01	15.2210	56.649089	0.000253	2.534069	0.858566	0.000101
 384	3.8108e+01	15.2627	56.778277	0.000324	3.243608	1.098964	0.000130
 385	3.8208e+01	15.2899	56.899391	0.000304	3.040882	1.030279	0.000122
 386	3.8307e+01	15.3317	57.040691	0.000355	3.547696	1.201992	0.000142
 387	3.8407e+01	15.3669	57.173916	0.000334	3.344971	1.133307	0.000134
 388	3.8507e+01	15.4215	57.270808	0.000243	2.432706	0.824223	0.000097
 389	3.8606e+01	15.4472	57.375773	0.000264	2.635431	0.892908	0.000105
 390	3.8706e+01	15.4969	57.500924	0.000314	3.142245	1.064621	0.000126
 391	3.8805e+01	15.5370	57.609927	0.000274	2.736794	0.927251	0.000110
 392	3.8904e+01	15.5803	57.743152	0.000334	3.344971	1.133307	0.000134
 393	3.9004e+01	15.6092	57.860229	0.000294	2.939520	0.995936	0.000118
 394	3.9103e+01	15.6429	58.013641	0.000385	3.851784	1.305020	0.000154
 395	3.9203e+01	15.6862	58.114569	0.000253	2.534069	0.858566	0.000101
 396	3.9303e+01	15.7327	58.263943	0.000375	3.750422	1.270677	0.000150
 397	3.9402e+01	15.7728	58.368909	0.000264	2.635431	0.892908	0.000105
 398	3.9502e+01	15.8129	58.510208	0.000355	3.547696	1.201992	0.000142
 399	3.9601e+01	15.8562	58.615174	0.000264	2.635431	0.892908	0.000105
 400	3.9700e+01	15.8931	58.740325	0.000314	3.142245	1.064621	0.000126
 401	3.9800e+01	15.9332	58.849328	0.000274	2.736794	0.927251	0.000110
 402	3.9900e+01	15.9637	58.950256	0.000253	2.534069	0.858566	0.000101
 403	3.9999e+01	16.0135	59.083482	0.000334	3.344971	1.133307	0.000134
 404	4.0099e+01	16.0455	59.172299	0.000223	2.229980	0.755538	0.000089
 405	4.0198e+01	16.0937	59.293413	0.000304	3.040882	1.030279	0.000122
 406	4.0297e+01	16.1338	59.402415	0.000274	2.736794	0.927251	0.000110
 407	4.0397e+01	16.1707	59.543715	0.000355	3.547696	1.201992	0.000142
 408	4.0496e+01	16.2028	59.644643	0.000253	2.534069	0.858566	0.000101
 409	4.0596e+01	16.2509	59.769795	0.000314	3.142245	1.064621	0.000126
 410	4.0696e+01	16.2782	59.854574	0.000213	2.128618	0.721195	0.000085
 411	4.0795e+01	16.3279	60.012023	0.000395	3.953147	1.339363	0.000158
 412	4.0895e+01	16.3696	60.112951	0.000253	2.534069	0.858566	0.000101
 413	4.0994e+01	16.4113	60.242139	0.000324	3.243608	1.098964	0.000130
 414	4.1093e+01	16.4418	60.387476	0.000365	3.649059	1.236335	0.000146
 415	4.1193e+01	16.4835	60.476293	0.000223	2.229980	0.755538	0.000089
 416	4.1292e+01	16.5268	60.593370	0.000294	2.939520	0.995936	0.000118
 417	4.1392e+01	16.5749	60.710447	0.000294	2.939520	0.995936	0.000118
 418	4.1492e+01	16.6118	60.835598	0.000314	3.142245	1.064621	0.000126
 419	4.1591e+01	16.6503	60.912304	0.000193	1.925892	0.652510	0.000077
 420	4.1691e+01	16.6856	61.045529	0.000334	3.344971	1.133307	0.000134
 421	4.1790e+01	16.7209	61.126272	0.000203	2.027255	0.686853	0.000081
 422	4.1889e+01	16.7674	61.299869	0.000436	4.358598	1.476733	0.000174
 423	4.1989e+01	16.8011	61.400797	0.000253	2.534069	0.858566	0.000101
 424	4.2089e+01	16.8557	61.534023	0.000334	3.344971	1.133307	0.000134
 425	4.2188e+01	16.8926	61.634951	0.000253	2.534069	0.858566	0.000101
 426	4.2288e+01	16.9279	61.760103	0.000314	3.142245	1.064621	0.000126
 427	4.2387e+01	16.9616	61.877179	0.000294	2.939520	0.995936	0.000118
 428	4.2486e+01	17.0097	61.998294	0.000304	3.040882	1.030279	0.000122
 429	4.2586e+01	17.0450	62.111333	0.000284	2.838157	0.961594	0.000114
 430	4.2685e+01	17.0771	62.208225	0.000243	2.432706	0.824223	0.000097
 431	4.2785e+01	17.1252	62.393933	0.000466	4.662686	1.579761	0.000187
 432	4.2885e+01	17.1717	62.462564	0.000172	1.723167	0.583825	0.000069
 433	4.2984e+01	17.2070	62.595790	0.000334	3.344971	1.133307	0.000134
 434	4.3084e+01	17.2391	62.729015	0.000334	3.344971	1.133307	0.000134
 435	4.3183e+01	17.2904	62.829943	0.000253	2.534069	0.858566	0.000101
 436	4.3282e+01	17.3385	62.938946	0.000274	2.736794	0.927251	0.000110
 437	4.3382e+01	17.3642	63.039875	0.000253	2.534069	0.858566	0.000101
 438	4.3481e+01	17.3995	63.124654	0.000213	2.128618	0.721195	0.000085
 439	4.3581e+01	17.4460	63.257880	0.000334	3.344971	1.133307	0.000134
 440	4.3681e+01	17.4829	63.370920	0.000284	2.838157	0.961594	0.000114
 441	4.3780e+01	17.5375	63.508182	0.000345	3.446333	1.167649	0.000138
 442	4.3880e+01	17.5615	63.605074	0.000243	2.432706	0.824223	0.000097
 443	4.3979e+01	17.6097	63.714076	0.000274	2.736794	0.927251	0.000110
 444	4.4078e+01	17.6417	63.843265	0.000324	3.243608	1.098964	0.000130
 445	4.4178e+01	17.6883	63.928044	0.000213	2.128618	0.721195	0.000085
 446	4.4278e+01	17.7220	64.057233	0.000324	3.243608	1.098964	0.000130
 447	4.4377e+01	17.7637	64.214681	0.000395	3.953147	1.339363	0.000158
 448	4.4477e+01	17.7990	64.315609	0.000253	2.534069	0.858566	0.000101
 449	4.4576e+01	17.8439	64.416538	0.000253	2.534069	0.858566	0.000101
 450	4.4675e+01	17.8856	64.513429	0.000243	2.432706	0.824223	0.000097
 451	4.4775e+01	17.9257	64.638580	0.000314	3.142245	1.064621	0.000126
 452	4.4874e+01	17.9562	64.767769	0.000324	3.243608	1.098964	0.000130
 453	4.4974e+01	18.0011	64.896957	0.000324	3.243608	1.098964	0.000130
 454	4.5074e+01	18.0508	64.945403	0.000122	1.216353	0.412112	0.000049
 455	4.5173e+01	18.0797	65.082665	0.000345	3.446333	1.167649	0.000138
 456	4.5273e+01	18.1214	65.191668	0.000274	2.736794	0.927251	0.000110
 457	4.5372e+01	18.1567	65.304708	0.000284	2.838157	0.961594	0.000114
 458	4.5471e+01	18.1936	65.405636	0.000253	2.534069	0.858566	0.000101
 459	4.5571e+01	18.2481	65.534824	0.000324	3.243608	1.098964	0.000130
 460	4.5670e+01	18.2722	65.643827	0.000274	2.736794	0.927251	0.000110
 461	4.5770e+01	18.3203	65.805313	0.000405	4.054510	1.373705	0.000162
 462	4.5870e+01	18.3653	65.873944	0.000172	1.723167	0.583825	0.000069
 463	4.5969e+01	18.3957	65.982947	0.000274	2.736794	0.927251	0.000110
 464	4.6069e+01	18.4391	66.112135	0.000324	3.243608	1.098964	0.000130
 465	4.6168e+01	18.4824	66.209026	0.000243	2.432706	0.824223	0.000097
 466	4.6267e+01	18.5177	66.334177	0.000314	3.142245	1.064621	0.000126
 467	4.6367e+01	18.5546	66.406846	0.000182	1.824529	0.618167	0.000073
 468	4.6467e+01	18.5947	66.552183	0.000365	3.649059	1.236335	0.000146
 469	4.6566e+01	18.6460	66.733854	0.000456	4.561324	1.545418	0.000183
 470	4.6666e+01	18.6797	66.794411	0.000152	1.520441	0.515139	0.000061
 471	4.6765e+01	18.7214	66.875154	0.000203	2.027255	0.686853	0.000081
 472	4.6864e+01	18.7503	66.959933	0.000213	2.128618	0.721195	0.000085
 473	4.6964e+01	18.8080	67.068936	0.000274	2.736794	0.927251	0.000110
 474	4.7063e+01	18.8465	67.190050	0.000304	3.040882	1.030279	0.000122
 475	4.7163e+01	18.8754	67.282904	0.000233	2.331343	0.789880	0.000093
 476	4.7263e+01	18.9251	67.412093	0.000324	3.243608	1.098964	0.000130
 477	4.7362e+01	18.9604	67.513021	0.000253	2.534069	0.858566	0.000101
 478	4.7462e+01	19.0005	67.630098	0.000294	2.939520	0.995936	0.000118
 479	4.7561e+01	19.0422	67.735063	0.000264	2.635431	0.892908	0.000105
 480	4.7660e+01	19.0743	67.848103	0.000284	2.838157	0.961594	0.000114
 481	4.7760e+01	19.1112	67.965180	0.000294	2.939520	0.995936	0.000118
 482	4.7859e+01	19.1481	68.070146	0.000264	2.635431	0.892908	0.000105
 483	4.7959e+01	19.1882	68.163000	0.000233	2.331343	0.789880	0.000093
 484	4.8059e+01	19.2444	68.272002	0.000274	2.736794	0.927251	0.000110
 485	4.8158e+01	19.2813	68.417339	0.000365	3.649059	1.236335	0.000146
 486	4.8258e+01	19.3182	68.538453	0.000304	3.040882	1.030279	0.000122
 487	4.8357e+01	19.3438	68.655530	0.000294	2.939520	0.995936	0.000118
 488	4.8456e+01	19.4048	68.732236	0.000193	1.925892	0.652510	0.000077
 489	4.8556e+01	19.4305	68.841239	0.000274	2.736794	0.927251	0.000110
 490	4.8656e+01	19.4754	68.950241	0.000274	2.736794	0.927251	0.000110
 491	4.8755e+01	19.5139	69.022910	0.000182	1.824529	0.618167	0.000073
 492	4.8855e+01	19.5636	69.160172	0.000345	3.446333	1.167649	0.000138
 493	4.8954e+01	19.5989	69.305509	0.000365	3.649059	1.236335	0.000146
 494	4.9053e+01	19.6358	69.349918	0.000111	1.114990	0.377769	0.000045
 495	4.9153e+01	19.6695	69.466995	0.000294	2.939520	0.995936	0.000118
 496	4.9252e+01	19.7176	69.580034	0.000284	2.838157	0.961594	0.000114
 497	4.9352e+01	19.7641	69.697111	0.000294	2.939520	0.995936	0.000118
 498	4.9452e+01	19.7898	69.802077	0.000264	2.635431	0.892908	0.000105
 499	4.9551e+01	19.8428	69.886857	0.000213	2.128618	0.721195	0.000085
 500	4.9651e+01	19.8700	70.044305	0.000395	3.953147	1.339363	0.000158
 501	4.9750e+01	19.9053	70.116973	0.000182	1.824529	0.618167	0.000073
 502	4.9849e+01	19.9486	70.230013	0.000284	2.838157	0.961594	0.000114
 503	4.9949e+01	19.9936	70.395536	0.000416	4.155873	1.408048	0.000166
 504	5.0048e+01	19.9631	70.326905	0.000172	1.723167	0.583825	-0.000069
 505	5.0148e+01	19.9149	70.221939	0.000264	2.635431	0.892908	-0.000105
 506	5.0248e+01	19.8732	70.092751	0.000324	3.243608	1.098964	-0.000130
 507	5.0347e+01	19.8444	69.947414	0.000365	3.649059	1.236335	-0.000146
 508	5.0447e+01	19.7914	69.903005	0.000111	1.114990	0.377769	-0.000045
 509	5.0546e+01	19.7513	69.810151	0.000233	2.331343	0.789880	-0.000093
 510	5.0645e+01	19.7176	69.713260	0.000243	2.432706	0.824223	-0.000097
 511	5.0745e+01	19.6711	69.620406	0.000233	2.331343	0.789880	-0.000093
 512	5.0844e+01	19.6342	69.539663	0.000203	2.027255	0.686853	-0.000081
 513	5.0944e+01	19.5989	69.442772	0.000243	2.432706	0.824223	-0.000097
 514	5.1044e+01	19.5588	69.374141	0.000172	1.723167	0.583825	-0.000069
 515	5.1143e+01	19.5107	69.228804	0.000365	3.649059	1.236335	-0.000146
 516	5.1242e+01	19.4626	69.148061	0.000203	2.027255	0.686853	-0.000081
 517	5.1342e+01	19.4401	69.079430	0.000172	1.723167	0.583825	-0.000069
 518	5.1441e+01	19.3952	69.002724	0.000193	1.925892	0.652510	-0.000077
 519	5.1541e+01	19.3487	68.885647	0.000294	2.939520	0.995936	-0.000118
 520	5.1641e+01	19.3134	68.841239	0.000111	1.114990	0.377769	-0.000045
 521	5.1740e+01	19.2829	68.736273	0.000264	2.635431	0.892908	-0.000105
 522	5.1840e+01	19.2412	68.671679	0.000162	1.621804	0.549482	-0.000065
 523	5.1939e+01	19.1962	68.566713	0.000264	2.635431	0.892908	-0.000105
 524	5.2038e+01	19.1577	68.445599	0.000304	3.040882	1.030279	-0.000122
 525	5.2138e+01	19.1144	68.312374	0.000334	3.344971	1.133307	-0.000134
 526	5.2237e+01	19.0775	68.219520	0.000233	2.331343	0.789880	-0.000093
 527	5.2337e+01	19.0358	68.118591	0.000253	2.534069	0.858566	-0.000101
 528	5.2437e+01	19.0037	68.033811	0.000213	2.128618	0.721195	-0.000085
 529	5.2536e+01	18.9588	67.932883	0.000253	2.534069	0.858566	-0.000101
 530	5.2636e+01	18.9235	67.856177	0.000193	1.925892	0.652510	-0.000077
 531	5.2735e+01	18.8866	67.755249	0.000253	2.534069	0.858566	-0.000101
 532	5.2834e+01	18.8385	67.690655	0.000162	1.621804	0.549482	-0.000065
 533	5.2934e+01	18.8032	67.597801	0.000233	2.331343	0.789880	-0.000093
 534	5.3033e+01	18.7647	67.452464	0.000365	3.649059	1.236335	-0.000146
 535	5.3133e+01	18.7262	67.355573	0.000243	2.432706	0.824223	-0.000097
 536	5.3233e+01	18.6845	67.311164	0.000111	1.114990	0.377769	-0.000045
 537	5.3332e+01	18.6364	67.218310	0.000233	2.331343	0.789880	-0.000093
 538	5.3431e+01	18.6027	67.109307	0.000274	2.736794	0.927251	-0.000110
 539	5.3531e+01	18.5642	67.040676	0.000172	1.723167	0.583825	-0.000069
 540	5.3630e+01	18.5096	66.968008	0.000182	1.824529	0.618167	-0.000073
 541	5.3730e+01	18.4808	66.875154	0.000233	2.331343	0.789880	-0.000093
 542	5.3830e+01	18.4503	66.709631	0.000416	4.155873	1.408048	-0.000166
 543	5.3929e+01	18.4070	66.568331	0.000355	3.547696	1.201992	-0.000142
 544	5.4029e+01	18.3588	66.499700	0.000172	1.723167	0.583825	-0.000069
 545	5.4128e+01	18.3155	66.427031	0.000182	1.824529	0.618167	-0.000073
 546	5.4227e+01	18.2834	66.285732	0.000355	3.547696	1.201992	-0.000142
 547	5.4327e+01	18.2433	66.172692	0.000284	2.838157	0.961594	-0.000114
 548	5.4426e+01	18.2000	66.104061	0.000172	1.723167	0.583825	-0.000069
 549	5.4526e+01	18.1535	66.031392	0.000182	1.824529	0.618167	-0.000073
 550	5.4626e+01	18.1262	65.906241	0.000314	3.142245	1.064621	-0.000126
 551	5.4725e+01	18.0797	65.797238	0.000274	2.736794	0.927251	-0.000110
 552	5.4825e+01	18.0412	65.704384	0.000233	2.331343	0.789880	-0.000093
 553	5.4924e+01	18.0043	65.623641	0.000203	2.027255	0.686853	-0.000081
 554	5.5023e+01	17.9642	65.494453	0.000324	3.243608	1.098964	-0.000130
 555	5.5123e+01	17.9209	65.450045	0.000111	1.114990	0.377769	-0.000045
 556	5.5222e+01	17.8840	65.377376	0.000182	1.824529	0.618167	-0.000073
 557	5.5322e+01	17.8391	65.272411	0.000264	2.635431	0.892908	-0.000105
 558	5.5422e+01	17.8006	65.191668	0.000203	2.027255	0.686853	-0.000081
 559	5.5521e+01	17.7669	65.054405	0.000345	3.446333	1.167649	-0.000138
 560	5.5620e+01	17.7300	64.925217	0.000324	3.243608	1.098964	-0.000130
 561	5.5720e+01	17.6947	64.836400	0.000223	2.229980	0.755538	-0.000089
 562	5.5819e+01	17.6498	64.715286	0.000304	3.040882	1.030279	-0.000122
 563	5.5919e+01	17.6049	64.642617	0.000182	1.824529	0.618167	-0.000073
 564	5.6019e+01	17.5647	64.501318	0.000355	3.547696	1.201992	-0.000142
 565	5.6118e+01	17.5359	64.428649	0.000182	1.824529	0.618167	-0.000073
 566	5.6218e+01	17.4797	64.331758	0.000243	2.432706	0.824223	-0.000097
 567	5.6317e+01	17.4492	64.202570	0.000324	3.243608	1.098964	-0.000130
 568	5.6416e+01	17.4027	64.129901	0.000182	1.824529	0.618167	-0.000073
 569	5.6516e+01	17.3546	63.992639	0.000345	3.446333	1.167649	-0.000138
 570	5.6615e+01	17.3305	63.915933	0.000193	1.925892	0.652510	-0.000077
 571	5.6715e+01	17.2824	63.766559	0.000375	3.750422	1.270677	-0.000150
 572	5.6815e+01	17.2423	63.697928	0.000172	1.723167	0.583825	-0.000069
 573	5.6914e+01	17.1958	63.609111	0.000223	2.229980	0.755538	-0.000089
 574	5.7014e+01	17.1717	63.524331	0.000213	2.128618	0.721195	-0.000085
 575	5.7113e+01	17.1284	63.423402	0.000253	2.534069	0.858566	-0.000101
 576	5.7212e+01	17.0899	63.318437	0.000264	2.635431	0.892908	-0.000105
 577	5.7312e+01	17.0482	63.253843	0.000162	1.621804	0.549482	-0.000065
 578	5.7411e+01	17.0097	63.100432	0.000385	3.851784	1.305020	-0.000154
 579	5.7511e+01	16.9664	62.947020	0.000385	3.851784	1.305020	-0.000154
 580	5.7611e+01	16.9263	62.842055	0.000264	2.635431	0.892908	-0.000105
 581	5.7710e+01	16.8749	62.741127	0.000253	2.534069	0.858566	-0.000101
 582	5.7809e+01	16.8444	62.648272	0.000233	2.331343	0.789880	-0.000093
 583	5.7909e+01	16.8059	62.535233	0.000284	2.838157	0.961594	-0.000114
 584	5.8008e+01	16.7771	62.458527	0.000193	1.925892	0.652510	-0.000077
 585	5.8108e+01	16.7257	62.280893	0.000446	4.459961	1.511076	-0.000179
 586	5.8208e+01	16.6792	62.216299	0.000162	1.621804	0.549482	-0.000065
 587	5.8307e+01	16.6471	62.143630	0.000182	1.824529	0.618167	-0.000073
 588	5.8407e+01	16.6134	62.058851	0.000213	2.128618	0.721195	-0.000085
 589	5.8506e+01	16.5685	61.917551	0.000355	3.547696	1.201992	-0.000142
 590	5.8605e+01	16.5236	61.865068	0.000132	1.317716	0.446454	-0.000053
 591	5.8705e+01	16.4803	61.747991	0.000294	2.939520	0.995936	-0.000118
 592	5.8804e+01	16.4402	61.703583	0.000111	1.114990	0.377769	-0.000045
 593	5.8904e+01	16.4033	61.558246	0.000365	3.649059	1.236335	-0.000146
 594	5.9004e+01	16.3664	61.449243	0.000274	2.736794	0.927251	-0.000110
 595	5.9103e+01	16.3295	61.344278	0.000264	2.635431	0.892908	-0.000105
 596	5.9203e+01	16.2862	61.259498	0.000213	2.128618	0.721195	-0.000085
 597	5.9302e+01	16.2573	61.146458	0.000284	2.838157	0.961594	-0.000114
 598	5.9401e+01	16.2092	61.013232	0.000334	3.344971	1.133307	-0.000134
 599	5.9501e+01	16.1610	60.900193	0.000284	2.838157	0.961594	-0.000114
 600	5.9600e+01	16.1209	60.795227	0.000264	2.635431	0.892908	-0.000105
 601	5.9700e+01	16.0953	60.678150	0.000294	2.939520	0.995936	-0.000118
 602	5.9800e+01	16.0552	60.585296	0.000233	2.331343	0.789880	-0.000093
 603	5.9899e+01	16.0070	60.452071	0.000334	3.344971	1.133307	-0.000134
 604	5.9998e+01	15.9653	60.359216	0.000233	2.331343	0.789880	-0.000093
 605	6.0098e+01	15.9364	60.258288	0.000253	2.534069	0.858566	-0.000101
 606	6.0197e+01	15.8899	60.116988	0.000355	3.547696	1.201992	-0.000142
 607	6.0297e+01	15.8466	60.104877	0.000030	0.304088	0.103028	-0.000012
 608	6.0397e+01	15.7985	59.999911	0.000264	2.635431	0.892908	-0.000105
 609	6.0496e+01	15.7728	59.911094	0.000223	2.229980	0.755538	-0.000089
 610	6.0596e+01	15.7375	59.810166	0.000253	2.534069	0.858566	-0.000101
 611	6.0695e+01	15.6782	59.664829	0.000365	3.649059	1.236335	-0.000146
 612	6.0794e+01	15.6541	59.584086	0.000203	2.027255	0.686853	-0.000081
 613	6.0894e+01	15.6124	59.446824	0.000345	3.446333	1.167649	-0.000138
 614	6.0993e+01	15.5819	59.305524	0.000355	3.547696	1.201992	-0.000142
 615	6.1093e+01	15.5290	59.216707	0.000223	2.229980	0.755538	-0.000089
 616	6.1193e+01	15.4937	59.079444	0.000345	3.446333	1.167649	-0.000138
 617	6.1292e+01	15.4536	58.974479	0.000264	2.635431	0.892908	-0.000105
 618	6.1392e+01	15.4151	58.845291	0.000324	3.243608	1.098964	-0.000130
 619	6.1491e+01	15.3766	58.772622	0.000182	1.824529	0.618167	-0.000073
 620	6.1590e+01	15.3317	58.695916	0.000193	1.925892	0.652510	-0.000077
 621	6.1690e+01	15.2932	58.582877	0.000284	2.838157	0.961594	-0.000114
 622	6.1789e+01	15.2563	58.437540	0.000365	3.649059	1.236335	-0.000146
 623	6.1889e+01	15.2113	58.356797	0.000203	2.027255	0.686853	-0.000081
 624	6.1989e+01	15.1744	58.276054	0.000203	2.027255	0.686853	-0.000081
 625	6.2088e+01	15.1343	58.183200	0.000233	2.331343	0.789880	-0.000093
 626	6.2188e+01	15.0990	58.062086	0.000304	3.040882	1.030279	-0.000122
 627	6.2287e+01	15.0541	57.953084	0.000274	2.736794	0.927251	-0.000110
 628	6.2386e+01	15.0188	57.807747	0.000365	3.649059	1.236335	-0.000146
 629	6.2486e+01	14.9739	57.731041	0.000193	1.925892	0.652510	-0.000077
 630	6.2586e+01	14.9274	57.589741	0.000355	3.547696	1.201992	-0.000142
 631	6.2685e+01	14.8937	57.444404	0.000365	3.649059	1.236335	-0.000146
 632	6.2785e+01	14.8568	57.331365	0.000284	2.838157	0.961594	-0.000114
 633	6.2884e+01	14.8119	57.230436	0.000253	2.534069	0.858566	-0.000101
 634	6.2983e+01	14.7782	57.105285	0.000314	3.142245	1.064621	-0.000126
 635	6.3083e+01	14.7349	57.004357	0.000253	2.534069	0.858566	-0.000101
 636	6.3182e+01	14.6964	56.899391	0.000264	2.635431	0.892908	-0.000105
 637	6.3282e+01	14.6627	56.794426	0.000264	2.635431	0.892908	-0.000105
 638	6.3382e+01	14.6210	56.705609	0.000223	2.229980	0.755538	-0.000089
 639	6.3481e+01	14.5648	56.584495	0.000304	3.040882	1.030279	-0.000122
 640	6.3581e+01	14.5343	56.471455	0.000284	2.838157	0.961594	-0.000114
 641	6.3680e+01	14.4975	56.386675	0.000213	2.128618	0.721195	-0.000085
 642	6.3779e+01	14.4573	56.334192	0.000132	1.317716	0.446454	-0.000053
 643	6.3879e+01	14.4140	56.184818	0.000375	3.750422	1.270677	-0.000150
 644	6.3978e+01	14.3739	56.063704	0.000304	3.040882	1.030279	-0.000122
 645	6.4078e+01	14.3338	55.966813	0.000243	2.432706	0.824223	-0.000097
 646	6.4177e+01	14.2985	55.817439	0.000375	3.750422	1.270677	-0.000150
 647	6.4277e+01	14.2632	55.696325	0.000304	3.040882	1.030279	-0.000122
 648	6.4376e+01	14.2183	55.530802	0.000416	4.155873	1.408048	-0.000166
 649	6.4476e+01	14.1750	55.450059	0.000203	2.027255	0.686853	-0.000081
 650	6.4576e+01	14.1285	55.304722	0.000365	3.649059	1.236335	-0.000146
 651	6.4675e+01	14.0980	55.228017	0.000193	1.925892	0.652510	-0.000077
 652	6.4775e+01	14.0579	55.070569	0.000395	3.953147	1.339363	-0.000158
 653	6.4874e+01	14.0210	54.973677	0.000243	2.432706	0.824223	-0.000097
 654	6.4974e+01	13.9841	54.876786	0.000243	2.432706	0.824223	-0.000097
 655	6.5073e+01	13.9440	54.767783	0.000274	2.736794	0.927251	-0.000110
 656	6.5172e+01	13.8894	54.634558	0.000334	3.344971	1.133307	-0.000134
 657	6.5272e+01	13.8574	54.537667	0.000243	2.432706	0.824223	-0.000097
 658	6.5371e+01	13.8221	54.456924	0.000203	2.027255	0.686853	-0.000081
 659	6.5471e+01	13.7755	54.400404	0.000142	1.419078	0.480797	-0.000057
 660	6.5570e+01	13.7419	54.255067	0.000365	3.649059	1.236335	-0.000146
 661	6.5670e+01	13.6937	54.170287	0.000213	2.128618	0.721195	-0.000085
 662	6.5769e+01	13.6536	54.053210	0.000294	2.939520	0.995936	-0.000118
 663	6.5869e+01	13.6231	53.924022	0.000324	3.243608	1.098964	-0.000130
 664	6.5969e+01	13.5766	53.790797	0.000334	3.344971	1.133307	-0.000134
 665	6.6068e+01	13.5397	53.677757	0.000284	2.838157	0.961594	-0.000114
 666	6.6168e+01	13.4884	53.504160	0.000436	4.358598	1.476733	-0.000174
 667	6.6267e+01	13.4627	53.395157	0.000274	2.736794	0.927251	-0.000110
 668	6.6367e+01	13.4210	53.282117	0.000284	2.838157	0.961594	-0.000114
 669	6.6466e+01	13.3729	53.185226	0.000243	2.432706	0.824223	-0.000097
 670	6.6566e+01	13.3328	53.056038	0.000324	3.243608	1.098964	-0.000130
 671	6.6665e+01	13.2991	52.934924	0.000304	3.040882	1.030279	-0.000122
 672	6.6764e+01	13.2638	52.785550	0.000375	3.750422	1.270677	-0.000150
 673	6.6864e+01	13.2189	52.680584	0.000264	2.635431	0.892908	-0.000105
 674	6.6963e+01	13.1740	52.571582	0.000274	2.736794	0.927251	-0.000110
 675	6.7063e+01	13.1435	52.490839	0.000203	2.027255	0.686853	-0.000081
 676	6.7162e+01	13.0970	52.402022	0.000223	2.229980	0.755538	-0.000089
 677	6.7262e+01	13.0649	52.293019	0.000274	2.736794	0.927251	-0.000110
 678	6.7362e+01	13.0248	52.159794	0.000334	3.344971	1.133307	-0.000134
 679	6.7461e+01	12.9702	52.042717	0.000294	2.939520	0.995936	-0.000118
 680	6.7561e+01	12.9397	51.905454	0.000345	3.446333	1.167649	-0.000138
 681	6.7660e+01	12.9109	51.792414	0.000284	2.838157	0.961594	-0.000114
 682	6.7760e+01	12.8692	51.667263	0.000314	3.142245	1.064621	-0.000126
 683	6.7859e+01	12.8258	51.517889	0.000375	3.750422	1.270677	-0.000150
 684	6.7959e+01	12.7873	51.396775	0.000304	3.040882	1.030279	-0.000122
 685	6.8058e+01	12.7424	51.243364	0.000385	3.851784	1.305020	-0.000154
 686	6.8157e+01	12.7007	51.146473	0.000243	2.432706	0.824223	-0.000097
 687	6.8257e+01	12.6590	51.053619	0.000233	2.331343	0.789880	-0.000093
 688	6.8356e+01	12.6333	50.924430	0.000324	3.243608	1.098964	-0.000130
 689	6.8456e+01	12.5804	50.783130	0.000355	3.547696	1.201992	-0.000142
 690	6.8555e+01	12.5515	50.653942	0.000324	3.243608	1.098964	-0.000130
 691	6.8655e+01	12.5018	50.528791	0.000314	3.142245	1.064621	-0.000126
 692	6.8754e+01	12.4665	50.456122	0.000182	1.824529	0.618167	-0.000073
 693	6.8854e+01	12.4264	50.355194	0.000253	2.534069	0.858566	-0.000101
 694	6.8954e+01	12.3911	50.209857	0.000365	3.649059	1.236335	-0.000146
 695	6.9053e+01	12.3494	50.133152	0.000193	1.925892	0.652510	-0.000077
 696	6.9153e+01	12.3157	49.971666	0.000405	4.054510	1.373705	-0.000162
 697	6.9252e+01	12.2692	49.854589	0.000294	2.939520	0.995936	-0.000118
 698	6.9352e+01	12.2259	49.745587	0.000274	2.736794	0.927251	-0.000110
 699	6.9451e+01	12.1890	49.576027	0.000426	4.257235	1.442390	-0.000170
 700	6.9550e+01	12.1424	49.462987	0.000284	2.838157	0.961594	-0.000114
 701	6.9650e+01	12.0943	49.321687	0.000355	3.547696	1.201992	-0.000142
 702	6.9749e+01	12.0686	49.200573	0.000304	3.040882	1.030279	-0.000122
 703	6.9849e+01	12.0269	49.067348	0.000334	3.344971	1.133307	-0.000134
 704	6.9948e+01	11.9900	48.934122	0.000334	3.344971	1.133307	-0.000134
 705	7.0048e+01	11.9435	48.865491	0.000172	1.723167	0.583825	-0.000069
 706	7.0147e+01	11.9098	48.691894	0.000436	4.358598	1.476733	-0.000174
 707	7.0247e+01	11.8681	48.554632	0.000345	3.446333	1.167649	-0.000138
 708	7.0347e+01	11.8296	48.494074	0.000152	1.520441	0.515139	-0.000061
 709	7.0446e+01	11.7895	48.405257	0.000223	2.229980	0.755538	-0.000089
 710	7.0546e+01	11.7478	48.243772	0.000405	4.054510	1.373705	-0.000162
 711	7.0645e+01	11.7077	48.142844	0.000253	2.534069	0.858566	-0.000101
 712	7.0745e+01	11.6644	48.009618	0.000334	3.344971	1.133307	-0.000134
 713	7.0844e+01	11.6275	47.888504	0.000304	3.040882	1.030279	-0.000122
 714	7.0944e+01	11.5890	47.759316	0.000324	3.243608	1.098964	-0.000130
 715	7.1043e+01	11.5505	47.642239	0.000294	2.939520	0.995936	-0.000118
 716	7.1142e+01	11.5264	47.500939	0.000355	3.547696	1.201992	-0.000142
 717	7.1242e+01	11.4655	47.347528	0.000385	3.851784	1.305020	-0.000154
 718	7.1341e+01	11.4318	47.222377	0.000314	3.142245	1.064621	-0.000126
 719	7.1441e+01	11.4029	47.097226	0.000314	3.142245	1.064621	-0.000126
 720	7.1540e+01	11.3499	46.964000	0.000334	3.344971	1.133307	-0.000134
 721	7.1640e+01	11.3130	46.818663	0.000365	3.649059	1.236335	-0.000146
 722	7.1740e+01	11.2665	46.697549	0.000304	3.040882	1.030279	-0.000122
 723	7.1839e+01	11.2216	46.564324	0.000334	3.344971	1.133307	-0.000134
 724	7.1939e+01	11.1895	46.471469	0.000233	2.331343	0.789880	-0.000093
 725	7.2038e+01	11.1526	46.338244	0.000334	3.344971	1.133307	-0.000134
 726	7.2138e+01	11.1173	46.209056	0.000324	3.243608	1.098964	-0.000130
 727	7.2237e+01	11.0644	46.172721	0.000091	0.912265	0.309084	-0.000037
 728	7.2337e+01	11.0307	45.987013	0.000466	4.662686	1.579761	-0.000187
 729	7.2436e+01	10.9906	45.918382	0.000172	1.723167	0.583825	-0.000069
 730	7.2535e+01	10.9537	45.740748	0.000446	4.459961	1.511076	-0.000179
 731	7.2635e+01	10.9104	45.615597	0.000314	3.142245	1.064621	-0.000126
 732	7.2734e+01	10.8767	45.510631	0.000264	2.635431	0.892908	-0.000105
 733	7.2834e+01	10.8238	45.373369	0.000345	3.446333	1.167649	-0.000138
 734	7.2933e+01	10.7949	45.252254	0.000304	3.040882	1.030279	-0.000122
 735	7.3033e+01	10.7403	45.106918	0.000365	3.649059	1.236335	-0.000146
 736	7.3132e+01	10.7099	44.921209	0.000466	4.662686	1.579761	-0.000187
 737	7.3232e+01	10.6714	44.800095	0.000304	3.040882	1.030279	-0.000122
 738	7.3332e+01	10.6361	44.683018	0.000294	2.939520	0.995936	-0.000118
 739	7.3431e+01	10.5879	44.477124	0.000517	5.169500	1.751474	-0.000207
 740	7.3531e+01	10.5510	44.380233	0.000243	2.432706	0.824223	-0.000097
 741	7.3630e+01	10.5157	44.255082	0.000314	3.142245	1.064621	-0.000126
 742	7.3730e+01	10.4708	44.133968	0.000304	3.040882	1.030279	-0.000122
 743	7.3829e+01	10.4323	44.029002	0.000264	2.635431	0.892908	-0.000105
 744	7.3928e+01	10.4018	43.936148	0.000233	2.331343	0.789880	-0.000093
 745	7.4028e+01	10.3505	43.823108	0.000284	2.838157	0.961594	-0.000114
 746	7.4127e+01	10.3168	43.685846	0.000345	3.446333	1.167649	-0.000138
 747	7.4227e+01	10.2671	43.580880	0.000264	2.635431	0.892908	-0.000105
 748	7.4326e+01	10.2286	43.395172	0.000466	4.662686	1.579761	-0.000187
 749	7.4426e+01	10.1949	43.318466	0.000193	1.925892	0.652510	-0.000077
 750	7.4525e+01	10.1500	43.104498	0.000537	5.372226	1.820159	-0.000215
 751	7.4625e+01	10.1083	43.027793	0.000193	1.925892	0.652510	-0.000077
 752	7.4725e+01	10.0794	42.854196	0.000436	4.358598	1.476733	-0.000174
 753	7.4824e+01	10.0329	42.688673	0.000416	4.155873	1.408048	-0.000166
 754	7.4924e+01	9.9896	42.535262	0.000385	3.851784	1.305020	-0.000154
 755	7.5023e+01	9.9575	42.418185	0.000294	2.939520	0.995936	-0.000118
 756	7.5123e+01	9.9077	42.309183	0.000274	2.736794	0.927251	-0.000110
 757	7.5222e+01	9.8805	42.171920	0.000345	3.446333	1.167649	-0.000138
 758	7.5322e+01	9.8436	41.994286	0.000446	4.459961	1.511076	-0.000179
 759	7.5421e+01	9.7874	41.925655	0.000172	1.723167	0.583825	-0.000069
 760	7.5520e+01	9.7521	41.748021	0.000446	4.459961	1.511076	-0.000179
 761	7.5620e+01	9.7200	41.659204	0.000223	2.229980	0.755538	-0.000089
 762	7.5719e+01	9.6831	41.550201	0.000274	2.736794	0.927251	-0.000110
 763	7.5819e+01	9.6430	41.445235	0.000264	2.635431	0.892908	-0.000105
 764	7.5918e+01	9.5997	41.320084	0.000314	3.142245	1.064621	-0.000126
 765	7.6018e+01	9.5564	41.166673	0.000385	3.851784	1.305020	-0.000154
 766	7.6118e+01	9.5179	41.069782	0.000243	2.432706	0.824223	-0.000097
 767	7.6217e+01	9.4746	40.948668	0.000304	3.040882	1.030279	-0.000122
 768	7.6317e+01	9.4377	40.775071	0.000436	4.358598	1.476733	-0.000174
 769	7.6416e+01	9.4024	40.657994	0.000294	2.939520	0.995936	-0.000118
 770	7.6516e+01	9.3511	40.524769	0.000334	3.344971	1.133307	-0.000134
 771	7.6615e+01	9.3238	40.351172	0.000436	4.358598	1.476733	-0.000174
 772	7.6715e+01	9.2757	40.213909	0.000345	3.446333	1.167649	-0.000138
 773	7.6814e+01	9.2356	40.072609	0.000355	3.547696	1.201992	-0.000142
 774	7.6913e+01	9.2051	39.955532	0.000294	2.939520	0.995936	-0.000118
 775	7.7013e+01	9.1489	39.765787	0.000476	4.764049	1.614104	-0.000191
 776	7.7112e+01	9.1201	39.672933	0.000233	2.331343	0.789880	-0.000093
 777	7.7212e+01	9.0784	39.559893	0.000284	2.838157	0.961594	-0.000114
 778	7.7311e+01	9.0399	39.394371	0.000416	4.155873	1.408048	-0.000166
 779	7.7411e+01	8.9997	39.244997	0.000375	3.750422	1.270677	-0.000150
 780	7.7510e+01	8.9628	39.144068	0.000253	2.534069	0.858566	-0.000101
 781	7.7610e+01	8.9211	39.014880	0.000324	3.243608	1.098964	-0.000130
 782	7.7710e+01	8.8810	38.922026	0.000233	2.331343	0.789880	-0.000093
 783	7.7809e+01	8.8425	38.744392	0.000446	4.459961	1.511076	-0.000179
 784	7.7909e+01	8.7976	38.611166	0.000334	3.344971	1.133307	-0.000134
 785	7.8008e+01	8.7591	38.490052	0.000304	3.040882	1.030279	-0.000122
 786	7.8108e+01	8.7126	38.372975	0.000294	2.939520	0.995936	-0.000118
 787	7.8207e+01	8.6869	38.199378	0.000436	4.358598	1.476733	-0.000174
 788	7.8306e+01	8.6468	38.041930	0.000395	3.953147	1.339363	-0.000158
 789	7.8406e+01	8.6003	37.912742	0.000324	3.243608	1.098964	-0.000130
 790	7.8505e+01	8.5538	37.727033	0.000466	4.662686	1.579761	-0.000187
 791	7.8605e+01	8.5249	37.589771	0.000345	3.446333	1.167649	-0.000138
 792	7.8704e+01	8.4848	37.492880	0.000243	2.432706	0.824223	-0.000097
 793	7.8804e+01	8.4367	37.315246	0.000446	4.459961	1.511076	-0.000179
 794	7.8903e+01	8.3966	37.165872	0.000375	3.750422	1.270677	-0.000150
 795	7.9003e+01	8.3629	37.012460	0.000385	3.851784	1.305020	-0.000154
 796	7.9103e+01	8.3196	36.935755	0.000193	1.925892	0.652510	-0.000077
 797	7.9202e+01	8.2778	36.774269	0.000405	4.054510	1.373705	-0.000162
 798	7.9302e+01	8.2377	36.645081	0.000324	3.243608	1.098964	-0.000130
 799	7.9401e+01	8.2040	36.523967	0.000304	3.040882	1.030279	-0.000122
 800	7.9501e+01	8.1575	36.378630	0.000365	3.649059	1.236335	-0.000146
 801	7.9600e+01	8.1254	36.241368	0.000345	3.446333	1.167649	-0.000138
 802	7.9700e+01	8.0741	36.124291	0.000294	2.939520	0.995936	-0.000118
 803	7.9799e+01	8.0452	35.991065	0.000334	3.344971	1.133307	-0.000134
 804	7.9898e+01	8.0099	35.841691	0.000375	3.750422	1.270677	-0.000150
 805	7.9998e+01	7.9666	35.660020	0.000456	4.561324	1.545418	-0.000183
 806	8.0097e+01	7.9217	35.470275	0.000476	4.764049	1.614104	-0.000191
 807	8.0197e+01	7.8832	35.361272	0.000274	2.736794	0.927251	-0.000110
 808	8.0296e+01	7.8463	35.228046	0.000334	3.344971	1.133307	-0.000134
 809	8.0396e+01	7.8126	35.090784	0.000345	3.446333	1.167649	-0.000138
 810	8.0496e+01	7.7565	34.921224	0.000426	4.257235	1.442390	-0.000170
 811	8.0595e+01	7.7260	34.767813	0.000385	3.851784	1.305020	-0.000154
 812	8.0695e+01	7.6827	34.622476	0.000365	3.649059	1.236335	-0.000146
 813	8.0794e+01	7.6458	34.541733	0.000203	2.027255	0.686853	-0.000081
 814	8.0894e+01	7.6057	34.356025	0.000466	4.662686	1.579761	-0.000187
 815	8.0993e+01	7.5704	34.247022	0.000274	2.736794	0.927251	-0.000110
 816	8.1093e+01	7.5239	34.142057	0.000264	2.635431	0.892908	-0.000105
 817	8.1192e+01	7.4805	33.980572	0.000405	4.054510	1.373705	-0.000162
 818	8.1291e+01	7.4388	33.835235	0.000365	3.649059	1.236335	-0.000146
 819	8.1391e+01	7.4035	33.673749	0.000405	4.054510	1.373705	-0.000162
 820	8.1490e+01	7.3586	33.556672	0.000294	2.939520	0.995936	-0.000118
 821	8.1590e+01	7.3313	33.423447	0.000334	3.344971	1.133307	-0.000134
 822	8.1689e+01	7.2961	33.249850	0.000436	4.358598	1.476733	-0.000174
 823	8.1789e+01	7.2431	33.080290	0.000426	4.257235	1.442390	-0.000170
 824	8.1888e+01	7.1950	32.910731	0.000426	4.257235	1.442390	-0.000170
 825	8.1988e+01	7.1709	32.769431	0.000355	3.547696	1.201992	-0.000142
 826	8.2088e+01	7.1308	32.636205	0.000334	3.344971	1.133307	-0.000134
 827	8.2187e+01	7.0827	32.466646	0.000426	4.257235	1.442390	-0.000170
 828	8.2287e+01	7.0474	32.305160	0.000405	4.054510	1.373705	-0.000162
 829	8.2386e+01	7.0089	32.200195	0.000264	2.635431	0.892908	-0.000105
 830	8.2486e+01	6.9704	32.075043	0.000314	3.142245	1.064621	-0.000126
 831	8.2585e+01	6.9239	31.909521	0.000416	4.155873	1.408048	-0.000166
 832	8.2684e+01	6.8870	31.784370	0.000314	3.142245	1.064621	-0.000126
 833	8.2784e+01	6.8421	31.663256	0.000304	3.040882	1.030279	-0.000122
 834	8.2883e+01	6.8052	31.505807	0.000395	3.953147	1.339363	-0.000158
 835	8.2983e+01	6.7618	31.372582	0.000334	3.344971	1.133307	-0.000134
 836	8.3082e+01	6.7282	31.247431	0.000314	3.142245	1.064621	-0.000126
 837	8.3182e+01	6.6816	31.081908	0.000416	4.155873	1.408048	-0.000166
 838	8.3281e+01	6.6463	30.892163	0.000476	4.764049	1.614104	-0.000191
 839	8.3381e+01	6.6078	30.750863	0.000355	3.547696	1.201992	-0.000142
 840	8.3481e+01	6.5661	30.609563	0.000355	3.547696	1.201992	-0.000142
 841	8.3580e+01	6.5292	30.423855	0.000466	4.662686	1.579761	-0.000187
 842	8.3680e+01	6.4843	30.258332	0.000416	4.155873	1.408048	-0.000166
 843	8.3779e+01	6.4490	30.088773	0.000426	4.257235	1.442390	-0.000170
 844	8.3879e+01	6.4089	29.959584	0.000324	3.243608	1.098964	-0.000130
 845	8.3978e+01	6.3672	29.794062	0.000416	4.155873	1.408048	-0.000166
 846	8.4078e+01	6.3319	29.689096	0.000264	2.635431	0.892908	-0.000105
 847	8.4177e+01	6.2774	29.531648	0.000395	3.953147	1.339363	-0.000158
 848	8.4276e+01	6.2533	29.362088	0.000426	4.257235	1.442390	-0.000170
 849	8.4376e+01	6.2180	29.232900	0.000324	3.243608	1.098964	-0.000130
 850	8.4475e+01	6.1651	29.087563	0.000365	3.649059	1.236335	-0.000146
 851	8.4575e+01	6.1298	28.962412	0.000314	3.142245	1.064621	-0.000126
 852	8.4674e+01	6.0929	28.776704	0.000466	4.662686	1.579761	-0.000187
 853	8.4774e+01	6.0512	28.663664	0.000284	2.838157	0.961594	-0.000114
 854	8.4874e+01	6.0046	28.518327	0.000365	3.649059	1.236335	-0.000146
 855	8.4973e+01	5.9661	28.368953	0.000375	3.750422	1.270677	-0.000150
 856	8.5073e+01	5.9308	28.179207	0.000476	4.764049	1.614104	-0.000191
 857	8.5172e+01	5.8859	28.021759	0.000395	3.953147	1.339363	-0.000158
 858	8.5272e+01	5.8538	27.811828	0.000527	5.270863	1.785817	-0.000211
 859	8.5371e+01	5.8186	27.686677	0.000314	3.142245	1.064621	-0.000126
 860	8.5471e+01	5.7784	27.557489	0.000324	3.243608	1.098964	-0.000130
 861	8.5570e+01	5.7287	27.363706	0.000487	4.865412	1.648446	-0.000195
 862	8.5669e+01	5.6934	27.206258	0.000395	3.953147	1.339363	-0.000158
 863	8.5769e+01	5.6597	27.060921	0.000365	3.649059	1.236335	-0.000146
 864	8.5868e+01	5.6004	26.899435	0.000405	4.054510	1.373705	-0.000162
 865	8.5968e+01	5.5715	26.746024	0.000385	3.851784	1.305020	-0.000154
 866	8.6067e+01	5.5346	26.576465	0.000426	4.257235	1.442390	-0.000170
 867	8.6167e+01	5.4913	26.479573	0.000243	2.432706	0.824223	-0.000097
 868	8.6266e+01	5.4512	26.314051	0.000416	4.155873	1.408048	-0.000166
 869	8.6366e+01	5.4223	26.160640	0.000385	3.851784	1.305020	-0.000154
 870	8.6466e+01	5.3758	26.007228	0.000385	3.851784	1.305020	-0.000154
 871	8.6565e+01	5.3309	25.849780	0.000395	3.953147	1.339363	-0.000158
 872	8.6665e+01	5.2892	25.680220	0.000426	4.257235	1.442390	-0.000170
 873	8.6764e+01	5.2555	25.551032	0.000324	3.243608	1.098964	-0.000130
 874	8.6864e+01	5.2170	25.365324	0.000466	4.662686	1.579761	-0.000187
 875	8.6963e+01	5.1753	25.215950	0.000375	3.750422	1.270677	-0.000150
 876	8.7063e+01	5.1303	25.042353	0.000436	4.358598	1.476733	-0.000174
 877	8.7162e+01	5.0918	24.876830	0.000416	4.155873	1.408048	-0.000166
 878	8.7261e+01	5.0565	24.683048	0.000487	4.865412	1.648446	-0.000195
 879	8.7361e+01	5.0148	24.505414	0.000446	4.459961	1.511076	-0.000179
 880	8.7460e+01	4.9683	24.368151	0.000345	3.446333	1.167649	-0.000138
 881	8.7560e+01	4.9314	24.186480	0.000456	4.561324	1.545418	-0.000183
 882	8.7659e+01	4.8993	24.077478	0.000274	2.736794	0.927251	-0.000110
 883	8.7759e+01	4.8512	23.879658	0.000497	4.966775	1.682789	-0.000199
 884	8.7859e+01	4.8255	23.770655	0.000274	2.736794	0.927251	-0.000110
 885	8.7958e+01	4.7758	23.637430	0.000334	3.344971	1.133307	-0.000134
 886	8.8058e+01	4.7453	23.484019	0.000385	3.851784	1.305020	-0.000154
 887	8.8157e+01	4.6860	23.314459	0.000426	4.257235	1.442390	-0.000170
 888	8.8257e+01	4.6523	23.132788	0.000456	4.561324	1.545418	-0.000183
 889	8.8356e+01	4.6202	22.971302	0.000405	4.054510	1.373705	-0.000162
 890	8.8456e+01	4.5689	22.809817	0.000405	4.054510	1.373705	-0.000162
 891	8.8555e+01	4.5304	22.652369	0.000395	3.953147	1.339363	-0.000158
 892	8.8654e+01	4.4935	22.486846	0.000416	4.155873	1.408048	-0.000166
 893	8.8754e+01	4.4566	22.345546	0.000355	3.547696	1.201992	-0.000142
 894	8.8853e+01	4.4213	22.167912	0.000446	4.459961	1.511076	-0.000179
 895	8.8953e+01	4.3780	21.990278	0.000446	4.459961	1.511076	-0.000179
 896	8.9052e+01	4.3491	21.812644	0.000446	4.459961	1.511076	-0.000179
 897	8.9152e+01	4.3026	21.647122	0.000416	4.155873	1.408048	-0.000166
 898	8.9251e+01	4.2576	21.449302	0.000497	4.966775	1.682789	-0.000199
 899	8.9351e+01	4.2159	21.287817	0.000405	4.054510	1.373705	-0.000162
 900	8.9451e+01	4.1806	21.223223	0.000162	1.621804	0.549482	-0.000065
 901	8.9550e+01	4.1325	21.021366	0.000507	5.068137	1.717131	-0.000203
 902	8.9650e+01	4.0956	20.859880	0.000405	4.054510	1.373705	-0.000162
 903	8.9749e+01	4.0523	20.726655	0.000334	3.344971	1.133307	-0.000134
 904	8.9849e+01	4.0170	20.553058	0.000436	4.358598	1.476733	-0.000174
 905	8.9948e+01	3.9817	20.363313	0.000476	4.764049	1.614104	-0.000191
 906	9.0047e+01	3.9400	20.222013	0.000355	3.547696	1.201992	-0.000142
 907	9.0147e+01	3.8887	20.020156	0.000507	5.068137	1.717131	-0.000203
 908	9.0246e+01	3.8566	19.858671	0.000405	4.054510	1.373705	-0.000162
 909	9.0346e+01	3.8165	19.697185	0.000405	4.054510	1.373705	-0.000162
 910	9.0445e+01	3.7748	19.495328	0.000507	5.068137	1.717131	-0.000203
 911	9.0545e+01	3.7347	19.386326	0.000274	2.736794	0.927251	-0.000110
 912	9.0644e+01	3.6978	19.131986	0.000639	6.385853	2.163586	-0.000256
 913	9.0744e+01	3.6593	18.978575	0.000385	3.851784	1.305020	-0.000154
 914	9.0844e+01	3.6224	18.792867	0.000466	4.662686	1.579761	-0.000187
 915	9.0943e+01	3.5806	18.651567	0.000355	3.547696	1.201992	-0.000142
 916	9.1043e+01	3.5373	18.506230	0.000365	3.649059	1.236335	-0.000146
 917	9.1142e+01	3.5020	18.344745	0.000405	4.054510	1.373705	-0.000162
 918	9.1242e+01	3.4555	18.167111	0.000446	4.459961	1.511076	-0.000179
 919	9.1341e+01	3.4170	17.981403	0.000466	4.662686	1.579761	-0.000187
 920	9.1441e+01	3.3801	17.827991	0.000385	3.851784	1.305020	-0.000154
 921	9.1540e+01	3.3416	17.666506	0.000405	4.054510	1.373705	-0.000162
 922	9.1639e+01	3.2999	17.484835	0.000456	4.561324	1.545418	-0.000183
 923	9.1739e+01	3.2630	17.359684	0.000314	3.142245	1.064621	-0.000126
 924	9.1838e+01	3.2261	17.210310	0.000375	3.750422	1.270677	-0.000150
 925	9.1938e+01	3.1876	17.036713	0.000436	4.358598	1.476733	-0.000174
 926	9.2037e+01	3.1491	16.834856	0.000507	5.068137	1.717131	-0.000203
 927	9.2137e+01	3.1042	16.693556	0.000355	3.547696	1.201992	-0.000142
 928	9.2237e+01	3.0625	16.499774	0.000487	4.865412	1.648446	-0.000195
 929	9.2336e+01	3.0272	16.281768	0.000547	5.473588	1.854502	-0.000219
 930	9.2436e+01	2.9775	16.079912	0.000507	5.068137	1.717131	-0.000203
 931	9.2535e+01	2.9374	15.946686	0.000334	3.344971	1.133307	-0.000134
 932	9.2635e+01	2.9101	15.748867	0.000497	4.966775	1.682789	-0.000199
 933	9.2734e+01	2.8620	15.611604	0.000345	3.446333	1.167649	-0.000138
 934	9.2834e+01	2.8186	15.502601	0.000274	2.736794	0.927251	-0.000110
 935	9.2933e+01	2.7801	15.312856	0.000476	4.764049	1.614104	-0.000191
 936	9.3032e+01	2.7416	15.163482	0.000375	3.750422	1.270677	-0.000150
 937	9.3132e+01	2.7015	14.941439	0.000557	5.574951	1.888845	-0.000223
 938	9.3231e+01	2.6630	14.775917	0.000416	4.155873	1.408048	-0.000166
 939	9.3331e+01	2.6245	14.610394	0.000416	4.155873	1.408048	-0.000166
 940	9.3430e+01	2.5780	14.481206	0.000324	3.243608	1.098964	-0.000130
 941	9.3530e+01	2.5539	14.283386	0.000497	4.966775	1.682789	-0.000199
 942	9.3629e+01	2.4946	14.097678	0.000466	4.662686	1.579761	-0.000187
 943	9.3729e+01	2.4625	13.952341	0.000365	3.649059	1.236335	-0.000146
 944	9.3829e+01	2.4304	13.762596	0.000476	4.764049	1.614104	-0.000191
 945	9.3928e+01	2.3935	13.564776	0.000497	4.966775	1.682789	-0.000199
 946	9.4028e+01	2.3502	13.366956	0.000497	4.966775	1.682789	-0.000199
 947	9.4127e+01	2.3085	13.157025	0.000527	5.270863	1.785817	-0.000211
 948	9.4227e+01	2.2684	12.987466	0.000426	4.257235	1.442390	-0.000170
 949	9.4326e+01	2.2363	12.817906	0.000426	4.257235	1.442390	-0.000170
 950	9.4425e+01	2.1802	12.664495	0.000385	3.851784	1.305020	-0.000154
 951	9.4525e+01	2.1433	12.507047	0.000395	3.953147	1.339363	-0.000158
 952	9.4624e+01	2.1048	12.337487	0.000426	4.257235	1.442390	-0.000170
 953	9.4724e+01	2.0679	12.176001	0.000405	4.054510	1.373705	-0.000162
 954	9.4823e+01	2.0197	11.998367	0.000446	4.459961	1.511076	-0.000179
 955	9.4923e+01	1.9860	11.808622	0.000476	4.764049	1.614104	-0.000191
 956	9.5022e+01	1.9475	11.647137	0.000405	4.054510	1.373705	-0.000162
 957	9.5122e+01	1.9026	11.469503	0.000446	4.459961	1.511076	-0.000179
 958	9.5222e+01	1.8673	11.263609	0.000517	5.169500	1.751474	-0.000207
 959	9.5321e+01	1.8192	11.122309	0.000355	3.547696	1.201992	-0.000142
 960	9.5421e+01	1.7839	10.880081	0.000608	6.081765	2.060558	-0.000243
 961	9.5520e+01	1.7454	10.714558	0.000416	4.155873	1.408048	-0.000166
 962	9.5620e+01	1.7117	10.544999	0.000426	4.257235	1.442390	-0.000170
 963	9.5719e+01	1.6700	10.326993	0.000547	5.473588	1.854502	-0.000219
 964	9.5819e+01	1.6251	10.096876	0.000578	5.777677	1.957530	-0.000231
 965	9.5918e+01	1.5850	9.963651	0.000334	3.344971	1.133307	-0.000134
 966	9.6017e+01	1.5545	9.810240	0.000385	3.851784	1.305020	-0.000154
 967	9.6117e+01	1.5016	9.568012	0.000608	6.081765	2.060558	-0.000243
 968	9.6216e+01	1.4711	9.430749	0.000345	3.446333	1.167649	-0.000138
 969	9.6316e+01	1.4278	9.289449	0.000355	3.547696	1.201992	-0.000142
 970	9.6415e+01	1.3828	9.091630	0.000497	4.966775	1.682789	-0.000199
 971	9.6515e+01	1.3476	8.958404	0.000334	3.344971	1.133307	-0.000134
 972	9.6615e+01	1.2978	8.728287	0.000578	5.777677	1.957530	-0.000231
 973	9.6714e+01	1.2657	8.530468	0.000497	4.966775	1.682789	-0.000199
 974	9.6814e+01	1.2224	8.344760	0.000466	4.662686	1.579761	-0.000187
 975	9.6913e+01	1.1871	8.199423	0.000365	3.649059	1.236335	-0.000146
 976	9.7013e+01	1.1422	7.957195	0.000608	6.081765	2.060558	-0.000243
 977	9.7112e+01	1.1101	7.763412	0.000487	4.865412	1.648446	-0.000195
 978	9.7212e+01	1.0796	7.593852	0.000426	4.257235	1.442390	-0.000170
 979	9.7311e+01	1.0219	7.383921	0.000527	5.270863	1.785817	-0.000211
 980	9.7410e+01	0.9930	7.202250	0.000456	4.561324	1.545418	-0.000183
 981	9.7510e+01	0.9513	7.000393	0.000507	5.068137	1.717131	-0.000203
 982	9.7609e+01	0.9112	6.806611	0.000487	4.865412	1.648446	-0.000195
 983	9.7709e+01	0.8711	6.641088	0.000416	4.155873	1.408048	-0.000166
 984	9.7808e+01	0.8342	6.467491	0.000436	4.358598	1.476733	-0.000174
 985	9.7908e+01	0.7957	6.273709	0.000487	4.865412	1.648446	-0.000195
 986	9.8007e+01	0.7460	6.120298	0.000385	3.851784	1.305020	-0.000154
 987	9.8107e+01	0.6978	5.910367	0.000527	5.270863	1.785817	-0.000211
 988	9.8207e+01	0.6658	5.744844	0.000416	4.155873	1.408048	-0.000166
 989	9.8306e+01	0.6289	5.538950	0.000517	5.169500	1.751474	-0.000207
 990	9.8406e+01	0.5855	5.369391	0.000426	4.257235	1.442390	-0.000170
 991	9.8505e+01	0.5470	5.159459	0.000527	5.270863	1.785817	-0.000211
 992	9.8605e+01	0.5118	4.973751	0.000466	4.662686	1.579761	-0.000187
 993	9.8704e+01	0.4684	4.800154	0.000436	4.358598	1.476733	-0.000174
 994	9.8803e+01	0.4283	4.610409	0.000476	4.764049	1.614104	-0.000191
 995	9.8903e+01	0.3962	4.404515	0.000517	5.169500	1.751474	-0.000207
 996	9.9002e+01	0.3674	4.218807	0.000466	4.662686	1.579761	-0.000187
 997	9.9102e+01	0.3096	3.988690	0.000578	5.777677	1.957530	-0.000231
 998	9.9201e+01	0.2727	3.798945	0.000476	4.764049	1.614104	-0.000191
 999	9.9301e+01	0.2310	3.576902	0.000557	5.574951	1.888845	-0.000223
1000	9.9400e+01	0.1893	3.391194	0.000466	4.662686	1.579761	-0.000187
1001	9.9500e+01	0.1556	3.237783	0.000385	3.851784	1.305020	-0.000154
1002	9.9600e+01	0.1123	2.995555	0.000608	6.081765	2.060558	-0.000243
1003	9.9699e+01	0.0690	2.801772	0.000487	4.865412	1.648446	-0.000195
1004	9.9799e+01	0.0273	2.688732	0.000284	2.838157	0.961594	-0.000114
1005	9.9898e+01	0.0032	2.511098	0.000446	4.459961	1.511076	-0.000179
1006	9.9998e+01	-0.0433	2.301167	0.000527	5.270863	1.785817	-0.000211
1007	1.0010e+02	-0.0834	2.115459	0.000466	4.662686	1.579761	-0.000187
1008	1.0020e+02	-0.1203	1.905528	0.000527	5.270863	1.785817	-0.000211
1009	1.0030e+02	-0.1604	1.744043	0.000405	4.054510	1.373705	-0.000162
1010	1.0040e+02	-0.2037	1.522000	0.000557	5.574951	1.888845	-0.000223
1011	1.0050e+02	-0.2438	1.312069	0.000527	5.270863	1.785817	-0.000211
1012	1.0059e+02	-0.2791	1.106175	0.000517	5.169500	1.751474	-0.000207
1013	1.0069e+02	-0.3192	0.904318	0.000507	5.068137	1.717131	-0.000203
1014	1.0079e+02	-0.3577	0.714573	0.000476	4.764049	1.614104	-0.000191
1015	1.0089e+02	-0.4011	0.472345	0.000608	6.081765	2.060558	-0.000243
1016	1.0099e+02	-0.4364	0.282600	0.000476	4.764049	1.614104	-0.000191
1017	1.0109e+02	-0.4781	0.109003	0.000436	4.358598	1.476733	-0.000174
1018	1.0119e+02	-0.5198	-0.109003	0.000547	5.473588	1.854502	-0.000219
1019	1.0129e+02	-0.5583	-0.314897	0.000517	5.169500	1.751474	-0.000207
1020	1.0139e+02	-0.6032	-0.452159	0.000345	3.446333	1.167649	-0.000138
1021	1.0149e+02	-0.6401	-0.654016	0.000507	5.068137	1.717131	-0.000203
1022	1.0159e+02	-0.6754	-0.851836	0.000497	4.966775	1.682789	-0.000199
1023	1.0169e+02	-0.7123	-1.053692	0.000507	5.068137	1.717131	-0.000203
1024	1.0179e+02	-0.7604	-1.320143	0.000669	6.689941	2.266613	-0.000268
1025	1.0189e+02	-0.7909	-1.453369	0.000334	3.344971	1.133307	-0.000134
1026	1.0199e+02	-0.8358	-1.643114	0.000476	4.764049	1.614104	-0.000191
1027	1.0209e+02	-0.8839	-1.844971	0.000507	5.068137	1.717131	-0.000203
1028	1.0219e+02	-0.9208	-2.079125	0.000588	5.879039	1.991872	-0.000235
1029	1.0229e+02	-0.9625	-2.272907	0.000487	4.865412	1.648446	-0.000195
1030	1.0239e+02	-0.9898	-2.462653	0.000476	4.764049	1.614104	-0.000191
1031	1.0248e+02	-1.0411	-2.680658	0.000547	5.473588	1.854502	-0.000219
1032	1.0258e+02	-1.0732	-2.906738	0.000568	5.676314	1.923187	-0.000227
1033	1.0268e+02	-1.1165	-3.173189	0.000669	6.689941	2.266613	-0.000268
1034	1.0278e+02	-1.1550	-3.318526	0.000365	3.649059	1.236335	-0.000146
1035	1.0288e+02	-1.2016	-3.512308	0.000487	4.865412	1.648446	-0.000195
1036	1.0298e+02	-1.2304	-3.677831	0.000416	4.155873	1.408048	-0.000166
1037	1.0308e+02	-1.2657	-3.887762	0.000527	5.270863	1.785817	-0.000211
1038	1.0318e+02	-1.3139	-4.069433	0.000456	4.561324	1.545418	-0.000183
1039	1.0328e+02	-1.3652	-4.291475	0.000557	5.574951	1.888845	-0.000223
1040	1.0338e+02	-1.3957	-4.473146	0.000456	4.561324	1.545418	-0.000183
1041	1.0348e+02	-1.4326	-4.666929	0.000487	4.865412	1.648446	-0.000195
1042	1.0358e+02	-1.4775	-4.893009	0.000568	5.676314	1.923187	-0.000227
1043	1.0368e+02	-1.5160	-5.086791	0.000487	4.865412	1.648446	-0.000195
1044	1.0378e+02	-1.5561	-5.256351	0.000426	4.257235	1.442390	-0.000170
1045	1.0388e+02	-1.5930	-5.510690	0.000639	6.385853	2.163586	-0.000256
1046	1.0398e+02	-1.6427	-5.660064	0.000375	3.750422	1.270677	-0.000150
1047	1.0408e+02	-1.6700	-5.853847	0.000487	4.865412	1.648446	-0.000195
1048	1.0418e+02	-1.7149	-6.059741	0.000517	5.169500	1.751474	-0.000207
1049	1.0428e+02	-1.7518	-6.269672	0.000527	5.270863	1.785817	-0.000211
1050	1.0438e+02	-1.7983	-6.536123	0.000669	6.689941	2.266613	-0.000268
1051	1.0447e+02	-1.8288	-6.725868	0.000476	4.764049	1.614104	-0.000191
1052	1.0457e+02	-1.8737	-6.923688	0.000497	4.966775	1.682789	-0.000199
1053	1.0467e+02	-1.9187	-7.097285	0.000436	4.358598	1.476733	-0.000174
1054	1.0477e+02	-1.9443	-7.258770	0.000405	4.054510	1.373705	-0.000162
1055	1.0487e+02	-1.9892	-7.444478	0.000466	4.662686	1.579761	-0.000187
1056	1.0497e+02	-2.0342	-7.666521	0.000557	5.574951	1.888845	-0.000223
1057	1.0507e+02	-2.0743	-7.848192	0.000456	4.561324	1.545418	-0.000183
1058	1.0517e+02	-2.1080	-8.058123	0.000527	5.270863	1.785817	-0.000211
1059	1.0527e+02	-2.1577	-8.259980	0.000507	5.068137	1.717131	-0.000203
1060	1.0537e+02	-2.1898	-8.429539	0.000426	4.257235	1.442390	-0.000170
1061	1.0547e+02	-2.2347	-8.667730	0.000598	5.980402	2.026215	-0.000239
1062	1.0557e+02	-2.2748	-8.861513	0.000487	4.865412	1.648446	-0.000195
1063	1.0567e+02	-2.3101	-9.047221	0.000466	4.662686	1.579761	-0.000187
1064	1.0577e+02	-2.3486	-9.232929	0.000466	4.662686	1.579761	-0.000187
1065	1.0587e+02	-2.3903	-9.426712	0.000487	4.865412	1.648446	-0.000195
1066	1.0597e+02	-2.4288	-9.632606	0.000517	5.169500	1.751474	-0.000207
1067	1.0607e+02	-2.4705	-9.814277	0.000456	4.561324	1.545418	-0.000183
1068	1.0617e+02	-2.5106	-10.028245	0.000537	5.372226	1.820159	-0.000215
1069	1.0627e+02	-2.5491	-10.226065	0.000497	4.966775	1.682789	-0.000199
1070	1.0637e+02	-2.5860	-10.431959	0.000517	5.169500	1.751474	-0.000207
1071	1.0647e+02	-2.6261	-10.597481	0.000416	4.155873	1.408048	-0.000166
1072	1.0656e+02	-2.6678	-10.795301	0.000497	4.966775	1.682789	-0.000199
1073	1.0666e+02	-2.7095	-10.952749	0.000395	3.953147	1.339363	-0.000158
1074	1.0676e+02	-2.7448	-11.199015	0.000618	6.183128	2.094900	-0.000248
1075	1.0686e+02	-2.7930	-11.392797	0.000487	4.865412	1.648446	-0.000195
1076	1.0696e+02	-2.8299	-11.513911	0.000304	3.040882	1.030279	-0.000122
1077	1.0706e+02	-2.8748	-11.719805	0.000517	5.169500	1.751474	-0.000207
1078	1.0716e+02	-2.9069	-11.925699	0.000517	5.169500	1.751474	-0.000207
1079	1.0726e+02	-2.9614	-12.151779	0.000568	5.676314	1.923187	-0.000227
1080	1.0736e+02	-2.9967	-12.329413	0.000446	4.459961	1.511076	-0.000179
1081	1.0746e+02	-3.0288	-12.511084	0.000456	4.561324	1.545418	-0.000183
1082	1.0756e+02	-3.0657	-12.672569	0.000405	4.054510	1.373705	-0.000162
1083	1.0766e+02	-3.1122	-12.902686	0.000578	5.777677	1.957530	-0.000231
1084	1.0776e+02	-3.1507	-13.092431	0.000476	4.764049	1.614104	-0.000191
1085	1.0786e+02	-3.1924	-13.286214	0.000487	4.865412	1.648446	-0.000195
1086	1.0796e+02	-3.2277	-13.475959	0.000476	4.764049	1.614104	-0.000191
1087	1.0806e+02	-3.2678	-13.645519	0.000426	4.257235	1.442390	-0.000170
1088	1.0816e+02	-3.3063	-13.867561	0.000557	5.574951	1.888845	-0.000223
1089	1.0826e+02	-3.3448	-14.008861	0.000355	3.547696	1.201992	-0.000142
1090	1.0836e+02	-3.3897	-14.178421	0.000426	4.257235	1.442390	-0.000170
1091	1.0845e+02	-3.4315	-14.360092	0.000456	4.561324	1.545418	-0.000183
1092	1.0855e+02	-3.4684	-14.537726	0.000446	4.459961	1.511076	-0.000179
1093	1.0865e+02	-3.5101	-14.707285	0.000426	4.257235	1.442390	-0.000170
1094	1.0875e+02	-3.5518	-14.921254	0.000537	5.372226	1.820159	-0.000215
1095	1.0885e+02	-3.5935	-15.050442	0.000324	3.243608	1.098964	-0.000130
1096	1.0895e+02	-3.6256	-15.272484	0.000557	5.574951	1.888845	-0.000223
1097	1.0905e+02	-3.6641	-15.446081	0.000436	4.358598	1.476733	-0.000174
1098	1.0915e+02	-3.7026	-15.627752	0.000456	4.561324	1.545418	-0.000183
1099	1.0925e+02	-3.7443	-15.801349	0.000436	4.358598	1.476733	-0.000174
1100	1.0935e+02	-3.7780	-16.003206	0.000507	5.068137	1.717131	-0.000203
1101	1.0945e+02	-3.8213	-16.192951	0.000476	4.764049	1.614104	-0.000191
1102	1.0955e+02	-3.8710	-16.354437	0.000405	4.054510	1.373705	-0.000162
1103	1.0965e+02	-3.9047	-16.560331	0.000517	5.169500	1.751474	-0.000207
1104	1.0975e+02	-3.9480	-16.754113	0.000487	4.865412	1.648446	-0.000195
1105	1.0985e+02	-3.9833	-16.879265	0.000314	3.142245	1.064621	-0.000126
1106	1.0995e+02	-4.0250	-17.036713	0.000395	3.953147	1.339363	-0.000158
1107	1.1005e+02	-4.0619	-17.186087	0.000375	3.750422	1.270677	-0.000150
1108	1.1015e+02	-4.0988	-17.383906	0.000497	4.966775	1.682789	-0.000199
1109	1.1025e+02	-4.1453	-17.589800	0.000517	5.169500	1.751474	-0.000207
1110	1.1035e+02	-4.1887	-17.763397	0.000436	4.358598	1.476733	-0.000174
1111	1.1044e+02	-4.2223	-17.884511	0.000304	3.040882	1.030279	-0.000122
1112	1.1054e+02	-4.2657	-18.078294	0.000487	4.865412	1.648446	-0.000195
1113	1.1064e+02	-4.3026	-18.243816	0.000416	4.155873	1.408048	-0.000166
1114	1.1074e+02	-4.3475	-18.433562	0.000476	4.764049	1.614104	-0.000191
1115	1.1084e+02	-4.3844	-18.603121	0.000426	4.257235	1.442390	-0.000170
1116	1.1094e+02	-4.4293	-18.809015	0.000517	5.169500	1.751474	-0.000207
1117	1.1104e+02	-4.4550	-19.002798	0.000487	4.865412	1.648446	-0.000195
1118	1.1114e+02	-4.5031	-19.144098	0.000355	3.547696	1.201992	-0.000142
1119	1.1124e+02	-4.5416	-19.378252	0.000588	5.879039	1.991872	-0.000235
1120	1.1134e+02	-4.5833	-19.515514	0.000345	3.446333	1.167649	-0.000138
1121	1.1144e+02	-4.6202	-19.668925	0.000385	3.851784	1.305020	-0.000154
1122	1.1154e+02	-4.6667	-19.850596	0.000456	4.561324	1.545418	-0.000183
1123	1.1164e+02	-4.6972	-20.032268	0.000456	4.561324	1.545418	-0.000183
1124	1.1174e+02	-4.7453	-20.145307	0.000284	2.838157	0.961594	-0.000114
1125	1.1184e+02	-4.7870	-20.306793	0.000405	4.054510	1.373705	-0.000162
1126	1.1194e+02	-4.8207	-20.472315	0.000416	4.155873	1.408048	-0.000166
1127	1.1204e+02	-4.8672	-20.666098	0.000487	4.865412	1.648446	-0.000195
1128	1.1214e+02	-4.9106	-20.851806	0.000466	4.662686	1.579761	-0.000187
1129	1.1224e+02	-4.9410	-20.980994	0.000324	3.243608	1.098964	-0.000130
1130	1.1234e+02	-4.9844	-21.174777	0.000487	4.865412	1.648446	-0.000195
1131	1.1244e+02	-5.0277	-21.380671	0.000517	5.169500	1.751474	-0.000207
1132	1.1253e+02	-5.0646	-21.521971	0.000355	3.547696	1.201992	-0.000142
1133	1.1263e+02	-5.0950	-21.707679	0.000466	4.662686	1.579761	-0.000187
1134	1.1273e+02	-5.1335	-21.905499	0.000497	4.966775	1.682789	-0.000199
1135	1.1283e+02	-5.1801	-22.071021	0.000416	4.155873	1.408048	-0.000166
1136	1.1293e+02	-5.2170	-22.228469	0.000395	3.953147	1.339363	-0.000158
1137	1.1303e+02	-5.2651	-22.398029	0.000426	4.257235	1.442390	-0.000170
1138	1.1313e+02	-5.2908	-22.567589	0.000426	4.257235	1.442390	-0.000170
1139	1.1323e+02	-5.3325	-22.676591	0.000274	2.736794	0.927251	-0.000110
1140	1.1333e+02	-5.3822	-22.846151	0.000426	4.257235	1.442390	-0.000170
1141	1.1343e+02	-5.4223	-22.987451	0.000355	3.547696	1.201992	-0.000142
1142	1.1353e+02	-5.4592	-23.177196	0.000476	4.764049	1.614104	-0.000191
1143	1.1363e+02	-5.5009	-23.318496	0.000355	3.547696	1.201992	-0.000142
1144	1.1373e+02	-5.5314	-23.516316	0.000497	4.966775	1.682789	-0.000199
1145	1.1383e+02	-5.5795	-23.653578	0.000345	3.446333	1.167649	-0.000138
1146	1.1393e+02	-5.6180	-23.811027	0.000395	3.953147	1.339363	-0.000158
1147	1.1403e+02	-5.6549	-23.976549	0.000416	4.155873	1.408048	-0.000166
1148	1.1413e+02	-5.7030	-24.154183	0.000446	4.459961	1.511076	-0.000179
1149	1.1423e+02	-5.7303	-24.339891	0.000466	4.662686	1.579761	-0.000187
1150	1.1433e+02	-5.7752	-24.509451	0.000426	4.257235	1.442390	-0.000170
1151	1.1442e+02	-5.8089	-24.679011	0.000426	4.257235	1.442390	-0.000170
1152	1.1452e+02	-5.8554	-24.836459	0.000395	3.953147	1.339363	-0.000158
1153	1.1462e+02	-5.8988	-25.034279	0.000497	4.966775	1.682789	-0.000199
1154	1.1472e+02	-5.9325	-25.147319	0.000284	2.838157	0.961594	-0.000114
1155	1.1482e+02	-5.9742	-25.353212	0.000517	5.169500	1.751474	-0.000207
1156	1.1492e+02	-6.0159	-25.446067	0.000233	2.331343	0.789880	-0.000093
1157	1.1502e+02	-6.0560	-25.567181	0.000304	3.040882	1.030279	-0.000122
1158	1.1512e+02	-6.1041	-25.700406	0.000334	3.344971	1.133307	-0.000134
1159	1.1522e+02	-6.1474	-25.861892	0.000405	4.054510	1.373705	-0.000162
1160	1.1532e+02	-6.1779	-26.023377	0.000405	4.054510	1.373705	-0.000162
1161	1.1542e+02	-6.2196	-26.205048	0.000456	4.561324	1.545418	-0.000183
1162	1.1552e+02	-6.2629	-26.334236	0.000324	3.243608	1.098964	-0.000130
1163	1.1562e+02	-6.2982	-26.507833	0.000436	4.358598	1.476733	-0.000174
1164	1.1572e+02	-6.3383	-26.669319	0.000405	4.054510	1.373705	-0.000162
1165	1.1582e+02	-6.3768	-26.798507	0.000324	3.243608	1.098964	-0.000130
1166	1.1592e+02	-6.4201	-27.000364	0.000507	5.068137	1.717131	-0.000203
1167	1.1602e+02	-6.4522	-27.145701	0.000365	3.649059	1.236335	-0.000146
1168	1.1612e+02	-6.5020	-27.319298	0.000436	4.358598	1.476733	-0.000174
1169	1.1622e+02	-6.5244	-27.452523	0.000334	3.344971	1.133307	-0.000134
1170	1.1632e+02	-6.5709	-27.666491	0.000537	5.372226	1.820159	-0.000215
1171	1.1642e+02	-6.6078	-27.763382	0.000243	2.432706	0.824223	-0.000097
1172	1.1651e+02	-6.6495	-27.957165	0.000487	4.865412	1.648446	-0.000195
1173	1.1661e+02	-6.7025	-28.106539	0.000375	3.750422	1.270677	-0.000150
1174	1.1671e+02	-6.7330	-28.223616	0.000294	2.939520	0.995936	-0.000118
1175	1.1681e+02	-6.7699	-28.364916	0.000355	3.547696	1.201992	-0.000142
1176	1.1691e+02	-6.8132	-28.473918	0.000274	2.736794	0.927251	-0.000110
1177	1.1701e+02	-6.8597	-28.663664	0.000476	4.764049	1.614104	-0.000191
1178	1.1711e+02	-6.8870	-28.821112	0.000395	3.953147	1.339363	-0.000158
1179	1.1721e+02	-6.9287	-28.942226	0.000304	3.040882	1.030279	-0.000122
1180	1.1731e+02	-6.9752	-29.115823	0.000436	4.358598	1.476733	-0.000174
1181	1.1741e+02	-7.0057	-29.293457	0.000446	4.459961	1.511076	-0.000179
1182	1.1751e+02	-7.0538	-29.463017	0.000426	4.257235	1.442390	-0.000170
1183	1.1761e+02	-7.0923	-29.604316	0.000355	3.547696	1.201992	-0.000142
1184	1.1771e+02	-7.1308	-29.822322	0.000547	5.473588	1.854502	-0.000219
1185	1.1781e+02	-7.1677	-29.943436	0.000304	3.040882	1.030279	-0.000122
1186	1.1791e+02	-7.2110	-30.088773	0.000365	3.649059	1.236335	-0.000146
1187	1.1801e+02	-7.2479	-30.290629	0.000507	5.068137	1.717131	-0.000203
1188	1.1811e+02	-7.2961	-30.427892	0.000345	3.446333	1.167649	-0.000138
1189	1.1821e+02	-7.3346	-30.561118	0.000334	3.344971	1.133307	-0.000134
1190	1.1831e+02	-7.3570	-30.702417	0.000355	3.547696	1.201992	-0.000142
1191	1.1841e+02	-7.4067	-30.799309	0.000243	2.432706	0.824223	-0.000097
1192	1.1850e+02	-7.4581	-30.940608	0.000355	3.547696	1.201992	-0.000142
1193	1.1860e+02	-7.4982	-31.130354	0.000476	4.764049	1.614104	-0.000191
1194	1.1870e+02	-7.5367	-31.259542	0.000324	3.243608	1.098964	-0.000130
1195	1.1880e+02	-7.5832	-31.404879	0.000365	3.649059	1.236335	-0.000146
1196	1.1890e+02	-7.6105	-31.578476	0.000436	4.358598	1.476733	-0.000174
1197	1.1900e+02	-7.6554	-31.699590	0.000304	3.040882	1.030279	-0.000122
1198	1.1910e+02	-7.6907	-31.844927	0.000365	3.649059	1.236335	-0.000146
1199	1.1920e+02	-7.7340	-32.030635	0.000466	4.662686	1.579761	-0.000187
1200	1.1930e+02	-7.7709	-32.212306	0.000456	4.561324	1.545418	-0.000183
1201	1.1940e+02	-7.8062	-32.333420	0.000304	3.040882	1.030279	-0.000122
1202	1.1950e+02	-7.8479	-32.502980	0.000426	4.257235	1.442390	-0.000170
1203	1.1960e+02	-7.8880	-32.611982	0.000274	2.736794	0.927251	-0.000110
1204	1.1970e+02	-7.9265	-32.821914	0.000527	5.270863	1.785817	-0.000211
1205	1.1980e+02	-7.9666	-32.866322	0.000111	1.114990	0.377769	-0.000045
1206	1.1990e+02	-8.0131	-33.060105	0.000487	4.865412	1.648446	-0.000195
1207	1.2000e+02	-8.0532	-33.225627	0.000416	4.155873	1.408048	-0.000166
1208	1.2010e+02	-8.0821	-33.362890	0.000345	3.446333	1.167649	-0.000138
1209	1.2020e+02	-8.1335	-33.471892	0.000274	2.736794	0.927251	-0.000110
1210	1.2030e+02	-8.1752	-33.601081	0.000324	3.243608	1.098964	-0.000130
1211	1.2039e+02	-8.2121	-33.758529	0.000395	3.953147	1.339363	-0.000158
1212	1.2049e+02	-8.2490	-33.867532	0.000274	2.736794	0.927251	-0.000110
1213	1.2059e+02	-8.2794	-34.041129	0.000436	4.358598	1.476733	-0.000174
1214	1.2069e+02	-8.3228	-34.146094	0.000264	2.635431	0.892908	-0.000105
1215	1.2079e+02	-8.3613	-34.368137	0.000557	5.574951	1.888845	-0.000223
1216	1.2089e+02	-8.3982	-34.460991	0.000233	2.331343	0.789880	-0.000093
1217	1.2099e+02	-8.4383	-34.654773	0.000487	4.865412	1.648446	-0.000195
1218	1.2109e+02	-8.4848	-34.800110	0.000365	3.649059	1.236335	-0.000146
1219	1.2119e+02	-8.5233	-34.993893	0.000487	4.865412	1.648446	-0.000195
1220	1.2129e+02	-8.5586	-35.110970	0.000294	2.939520	0.995936	-0.000118
1221	1.2139e+02	-8.6131	-35.264381	0.000385	3.851784	1.305020	-0.000154
1222	1.2149e+02	-8.6404	-35.377420	0.000284	2.838157	0.961594	-0.000114
1223	1.2159e+02	-8.6901	-35.534869	0.000395	3.953147	1.339363	-0.000158
1224	1.2169e+02	-8.7222	-35.684243	0.000375	3.750422	1.270677	-0.000150
1225	1.2179e+02	-8.7687	-35.829580	0.000365	3.649059	1.236335	-0.000146
1226	1.2189e+02	-8.8056	-35.918397	0.000223	2.229980	0.755538	-0.000089
1227	1.2199e+02	-8.8441	-36.055659	0.000345	3.446333	1.167649	-0.000138
1228	1.2209e+02	-8.8826	-36.160625	0.000264	2.635431	0.892908	-0.000105
1229	1.2219e+02	-8.9260	-36.293850	0.000334	3.344971	1.133307	-0.000134
1230	1.2229e+02	-8.9725	-36.419001	0.000314	3.142245	1.064621	-0.000126
1231	1.2239e+02	-9.0078	-36.540116	0.000304	3.040882	1.030279	-0.000122
1232	1.2248e+02	-9.0543	-36.713712	0.000436	4.358598	1.476733	-0.000174
1233	1.2258e+02	-9.0800	-36.859049	0.000365	3.649059	1.236335	-0.000146
1234	1.2268e+02	-9.1136	-37.036683	0.000446	4.459961	1.511076	-0.000179
1235	1.2278e+02	-9.1586	-37.210280	0.000436	4.358598	1.476733	-0.000174
1236	1.2288e+02	-9.2019	-37.359654	0.000375	3.750422	1.270677	-0.000150
1237	1.2298e+02	-9.2388	-37.464620	0.000264	2.635431	0.892908	-0.000105
1238	1.2308e+02	-9.2917	-37.642254	0.000446	4.459961	1.511076	-0.000179
1239	1.2318e+02	-9.3158	-37.771442	0.000324	3.243608	1.098964	-0.000130
1240	1.2328e+02	-9.3639	-37.884482	0.000284	2.838157	0.961594	-0.000114
1241	1.2338e+02	-9.4040	-38.054041	0.000426	4.257235	1.442390	-0.000170
1242	1.2348e+02	-9.4441	-38.175156	0.000304	3.040882	1.030279	-0.000122
1243	1.2358e+02	-9.4826	-38.300307	0.000314	3.142245	1.064621	-0.000126
1244	1.2368e+02	-9.5307	-38.425458	0.000314	3.142245	1.064621	-0.000126
1245	1.2378e+02	-9.5596	-38.546572	0.000304	3.040882	1.030279	-0.000122
1246	1.2388e+02	-9.6078	-38.659612	0.000284	2.838157	0.961594	-0.000114
1247	1.2398e+02	-9.6479	-38.841283	0.000456	4.561324	1.545418	-0.000183
1248	1.2408e+02	-9.6848	-38.954323	0.000284	2.838157	0.961594	-0.000114
1249	1.2418e+02	-9.7168	-39.087548	0.000334	3.344971	1.133307	-0.000134
1250	1.2428e+02	-9.7634	-39.244997	0.000395	3.953147	1.339363	-0.000158
1251	1.2438e+02	-9.7987	-39.374185	0.000324	3.243608	1.098964	-0.000130
1252	1.2447e+02	-9.8372	-39.507410	0.000334	3.344971	1.133307	-0.000134
1253	1.2457e+02	-9.8773	-39.717341	0.000527	5.270863	1.785817	-0.000211
1254	1.2467e+02	-9.9206	-39.822307	0.000264	2.635431	0.892908	-0.000105
1255	1.2477e+02	-9.9671	-39.967644	0.000365	3.649059	1.236335	-0.000146
1256	1.2487e+02	-10.0040	-40.100869	0.000334	3.344971	1.133307	-0.000134
1257	1.2497e+02	-10.0329	-40.230058	0.000324	3.243608	1.098964	-0.000130
1258	1.2507e+02	-10.0826	-40.379432	0.000375	3.750422	1.270677	-0.000150
1259	1.2517e+02	-10.1227	-40.520731	0.000355	3.547696	1.201992	-0.000142
1260	1.2527e+02	-10.1612	-40.609548	0.000223	2.229980	0.755538	-0.000089
1261	1.2537e+02	-10.1853	-40.746811	0.000345	3.446333	1.167649	-0.000138
1262	1.2547e+02	-10.2382	-40.843702	0.000243	2.432706	0.824223	-0.000097
1263	1.2557e+02	-10.2767	-41.005188	0.000405	4.054510	1.373705	-0.000162
1264	1.2567e+02	-10.3264	-41.122265	0.000294	2.939520	0.995936	-0.000118
1265	1.2577e+02	-10.3633	-41.251453	0.000324	3.243608	1.098964	-0.000130
1266	1.2587e+02	-10.3938	-41.372567	0.000304	3.040882	1.030279	-0.000122
1267	1.2597e+02	-10.4339	-41.485607	0.000284	2.838157	0.961594	-0.000114
1268	1.2607e+02	-10.4821	-41.659204	0.000436	4.358598	1.476733	-0.000174
1269	1.2617e+02	-10.5157	-41.800503	0.000355	3.547696	1.201992	-0.000142
1270	1.2627e+02	-10.5510	-41.949877	0.000375	3.750422	1.270677	-0.000150
1271	1.2636e+02	-10.5976	-42.070992	0.000304	3.040882	1.030279	-0.000122
1272	1.2646e+02	-10.6280	-42.240551	0.000426	4.257235	1.442390	-0.000170
1273	1.2656e+02	-10.6874	-42.393962	0.000385	3.851784	1.305020	-0.000154
1274	1.2666e+02	-10.7179	-42.450482	0.000142	1.419078	0.480797	-0.000057
1275	1.2676e+02	-10.7484	-42.624079	0.000436	4.358598	1.476733	-0.000174
1276	1.2686e+02	-10.7901	-42.749230	0.000314	3.142245	1.064621	-0.000126
1277	1.2696e+02	-10.8382	-42.854196	0.000264	2.635431	0.892908	-0.000105
1278	1.2706e+02	-10.8735	-42.959161	0.000264	2.635431	0.892908	-0.000105
1279	1.2716e+02	-10.9136	-43.047978	0.000223	2.229980	0.755538	-0.000089
1280	1.2726e+02	-10.9537	-43.197352	0.000375	3.750422	1.270677	-0.000150
1281	1.2736e+02	-11.0082	-43.322504	0.000314	3.142245	1.064621	-0.000126
1282	1.2746e+02	-11.0419	-43.492063	0.000426	4.257235	1.442390	-0.000170
1283	1.2756e+02	-11.0756	-43.597029	0.000264	2.635431	0.892908	-0.000105
1284	1.2766e+02	-11.1125	-43.758514	0.000405	4.054510	1.373705	-0.000162
1285	1.2776e+02	-11.1558	-43.875591	0.000294	2.939520	0.995936	-0.000118
1286	1.2786e+02	-11.2024	-44.004780	0.000324	3.243608	1.098964	-0.000130
1287	1.2796e+02	-11.2377	-44.174339	0.000426	4.257235	1.442390	-0.000170
1288	1.2806e+02	-11.2697	-44.275268	0.000253	2.534069	0.858566	-0.000101
1289	1.2816e+02	-11.3147	-44.412530	0.000345	3.446333	1.167649	-0.000138
1290	1.2826e+02	-11.3548	-44.541719	0.000324	3.243608	1.098964	-0.000130
1291	1.2835e+02	-11.3997	-44.642647	0.000253	2.534069	0.858566	-0.000101
1292	1.2845e+02	-11.4334	-44.792021	0.000375	3.750422	1.270677	-0.000150
1293	1.2855e+02	-11.4671	-44.933321	0.000355	3.547696	1.201992	-0.000142
1294	1.2865e+02	-11.5120	-45.054435	0.000304	3.040882	1.030279	-0.000122
1295	1.2875e+02	-11.5489	-45.167475	0.000284	2.838157	0.961594	-0.000114
1296	1.2885e+02	-11.5986	-45.280514	0.000284	2.838157	0.961594	-0.000114
1297	1.2895e+02	-11.6355	-45.385480	0.000264	2.635431	0.892908	-0.000105
1298	1.2905e+02	-11.6788	-45.510631	0.000314	3.142245	1.064621	-0.000126
1299	1.2915e+02	-11.7173	-45.660005	0.000375	3.750422	1.270677	-0.000150
1300	1.2925e+02	-11.7638	-45.829565	0.000426	4.257235	1.442390	-0.000170
1301	1.2935e+02	-11.7895	-45.902233	0.000182	1.824529	0.618167	-0.000073
1302	1.2945e+02	-11.8232	-46.043533	0.000355	3.547696	1.201992	-0.000142
1303	1.2955e+02	-11.8697	-46.217130	0.000436	4.358598	1.476733	-0.000174
1304	1.2965e+02	-11.9050	-46.358430	0.000355	3.547696	1.201992	-0.000142
1305	1.2975e+02	-11.9515	-46.431098	0.000182	1.824529	0.618167	-0.000073
1306	1.2985e+02	-11.9836	-46.588546	0.000395	3.953147	1.339363	-0.000158
1307	1.2995e+02	-12.0285	-46.737920	0.000375	3.750422	1.270677	-0.000150
1308	1.3005e+02	-12.0702	-46.830775	0.000233	2.331343	0.789880	-0.000093
1309	1.3015e+02	-12.1071	-46.988223	0.000395	3.953147	1.339363	-0.000158
1310	1.3025e+02	-12.1505	-47.044743	0.000142	1.419078	0.480797	-0.000057
1311	1.3034e+02	-12.1906	-47.173931	0.000324	3.243608	1.098964	-0.000130
1312	1.3044e+02	-12.2403	-47.258711	0.000213	2.128618	0.721195	-0.000085
1313	1.3054e+02	-12.2804	-47.391936	0.000334	3.344971	1.133307	-0.000134
1314	1.3064e+02	-12.3045	-47.549385	0.000395	3.953147	1.339363	-0.000158
1315	1.3074e+02	-12.3478	-47.686647	0.000345	3.446333	1.167649	-0.000138
1316	1.3084e+02	-12.3927	-47.831984	0.000365	3.649059	1.236335	-0.000146
1317	1.3094e+02	-12.4264	-47.977321	0.000365	3.649059	1.236335	-0.000146
1318	1.3104e+02	-12.4697	-48.066138	0.000223	2.229980	0.755538	-0.000089
1319	1.3114e+02	-12.5162	-48.195326	0.000324	3.243608	1.098964	-0.000130
1320	1.3124e+02	-12.5515	-48.332589	0.000345	3.446333	1.167649	-0.000138
1321	1.3134e+02	-12.5932	-48.433517	0.000253	2.534069	0.858566	-0.000101
1322	1.3144e+02	-12.6285	-48.574817	0.000355	3.547696	1.201992	-0.000142
1323	1.3154e+02	-12.6718	-48.716117	0.000355	3.547696	1.201992	-0.000142
1324	1.3164e+02	-12.7071	-48.821082	0.000264	2.635431	0.892908	-0.000105
1325	1.3174e+02	-12.7392	-48.934122	0.000284	2.838157	0.961594	-0.000114
1326	1.3184e+02	-12.7905	-49.051199	0.000294	2.939520	0.995936	-0.000118
1327	1.3194e+02	-12.8274	-49.148090	0.000243	2.432706	0.824223	-0.000097
1328	1.3204e+02	-12.8611	-49.285353	0.000345	3.446333	1.167649	-0.000138
1329	1.3214e+02	-12.9061	-49.345910	0.000152	1.520441	0.515139	-0.000061
1330	1.3224e+02	-12.9462	-49.483173	0.000345	3.446333	1.167649	-0.000138
1331	1.3234e+02	-12.9895	-49.632547	0.000375	3.750422	1.270677	-0.000150
1332	1.3243e+02	-13.0312	-49.769809	0.000345	3.446333	1.167649	-0.000138
1333	1.3253e+02	-13.0585	-49.919183	0.000375	3.750422	1.270677	-0.000150
1334	1.3263e+02	-13.1034	-50.044335	0.000314	3.142245	1.064621	-0.000126
1335	1.3273e+02	-13.1547	-50.145263	0.000253	2.534069	0.858566	-0.000101
1336	1.3283e+02	-13.1884	-50.250229	0.000264	2.635431	0.892908	-0.000105
1337	1.3293e+02	-13.2269	-50.387491	0.000345	3.446333	1.167649	-0.000138
1338	1.3303e+02	-13.2670	-50.536865	0.000375	3.750422	1.270677	-0.000150
1339	1.3313e+02	-13.3103	-50.662016	0.000314	3.142245	1.064621	-0.000126
1340	1.3323e+02	-13.3472	-50.811390	0.000375	3.750422	1.270677	-0.000150
1341	1.3333e+02	-13.3873	-50.884059	0.000182	1.824529	0.618167	-0.000073
1342	1.3343e+02	-13.4290	-51.009210	0.000314	3.142245	1.064621	-0.000126
1343	1.3353e+02	-13.4707	-51.150510	0.000355	3.547696	1.201992	-0.000142
1344	1.3363e+02	-13.4948	-51.219141	0.000172	1.723167	0.583825	-0.000069
1345	1.3373e+02	-13.5477	-51.332181	0.000284	2.838157	0.961594	-0.000114
1346	1.3383e+02	-13.5943	-51.481555	0.000375	3.750422	1.270677	-0.000150
1347	1.3393e+02	-13.6280	-51.614780	0.000334	3.344971	1.133307	-0.000134
1348	1.3403e+02	-13.6568	-51.735894	0.000304	3.040882	1.030279	-0.000122
1349	1.3413e+02	-13.7034	-51.828749	0.000233	2.331343	0.789880	-0.000093
1350	1.3423e+02	-13.7370	-51.978123	0.000375	3.750422	1.270677	-0.000150
1351	1.3432e+02	-13.7852	-52.123460	0.000365	3.649059	1.236335	-0.000146
1352	1.3442e+02	-13.8124	-52.244574	0.000304	3.040882	1.030279	-0.000122
1353	1.3452e+02	-13.8654	-52.357613	0.000284	2.838157	0.961594	-0.000114
1354	1.3462e+02	-13.8943	-52.462579	0.000264	2.635431	0.892908	-0.000105
1355	1.3472e+02	-13.9472	-52.603879	0.000355	3.547696	1.201992	-0.000142
1356	1.3482e+02	-13.9809	-52.704807	0.000253	2.534069	0.858566	-0.000101
1357	1.3492e+02	-14.0306	-52.829958	0.000314	3.142245	1.064621	-0.000126
1358	1.3502e+02	-14.0611	-52.947035	0.000294	2.939520	0.995936	-0.000118
1359	1.3512e+02	-14.1108	-53.072186	0.000314	3.142245	1.064621	-0.000126
1360	1.3522e+02	-14.1365	-53.189263	0.000294	2.939520	0.995936	-0.000118
1361	1.3532e+02	-14.1846	-53.318452	0.000324	3.243608	1.098964	-0.000130
1362	1.3542e+02	-14.2183	-53.427454	0.000274	2.736794	0.927251	-0.000110
1363	1.3552e+02	-14.2552	-53.552606	0.000314	3.142245	1.064621	-0.000126
1364	1.3562e+02	-14.2969	-53.677757	0.000314	3.142245	1.064621	-0.000126
1365	1.3572e+02	-14.3402	-53.762537	0.000213	2.128618	0.721195	-0.000085
1366	1.3582e+02	-14.3900	-53.940171	0.000446	4.459961	1.511076	-0.000179
1367	1.3592e+02	-14.4237	-54.069359	0.000324	3.243608	1.098964	-0.000130
1368	1.3602e+02	-14.4541	-54.146065	0.000193	1.925892	0.652510	-0.000077
1369	1.3612e+02	-14.5023	-54.222770	0.000193	1.925892	0.652510	-0.000077
1370	1.3622e+02	-14.5504	-54.380218	0.000395	3.953147	1.339363	-0.000158
1371	1.3631e+02	-14.5793	-54.533630	0.000385	3.851784	1.305020	-0.000154
1372	1.3641e+02	-14.6242	-54.658781	0.000314	3.142245	1.064621	-0.000126
1373	1.3651e+02	-14.6531	-54.767783	0.000274	2.736794	0.927251	-0.000110
1374	1.3661e+02	-14.7076	-54.832378	0.000162	1.621804	0.549482	-0.000065
1375	1.3671e+02	-14.7461	-55.010012	0.000446	4.459961	1.511076	-0.000179
1376	1.3681e+02	-14.7750	-55.139200	0.000324	3.243608	1.098964	-0.000130
1377	1.3691e+02	-14.8231	-55.207831	0.000172	1.723167	0.583825	-0.000069
1378	1.3701e+02	-14.8600	-55.349131	0.000355	3.547696	1.201992	-0.000142
1379	1.3711e+02	-14.8985	-55.417762	0.000172	1.723167	0.583825	-0.000069
1380	1.3721e+02	-14.9466	-55.546951	0.000324	3.243608	1.098964	-0.000130
1381	1.3731e+02	-14.9739	-55.712473	0.000416	4.155873	1.408048	-0.000166
1382	1.3741e+02	-15.0236	-55.841662	0.000324	3.243608	1.098964	-0.000130
1383	1.3751e+02	-15.0605	-55.930479	0.000223	2.229980	0.755538	-0.000089
1384	1.3761e+02	-15.1055	-56.067741	0.000345	3.446333	1.167649	-0.000138
1385	1.3771e+02	-15.1391	-56.152521	0.000213	2.128618	0.721195	-0.000085
1386	1.3781e+02	-15.1760	-56.314006	0.000405	4.054510	1.373705	-0.000162
1387	1.3791e+02	-15.2194	-56.394749	0.000203	2.027255	0.686853	-0.000081
1388	1.3801e+02	-15.2514	-56.507789	0.000284	2.838157	0.961594	-0.000114
1389	1.3811e+02	-15.2948	-56.632940	0.000314	3.142245	1.064621	-0.000126
1390	1.3821e+02	-15.3365	-56.754054	0.000304	3.040882	1.030279	-0.000122
1391	1.3831e+02	-15.3894	-56.879205	0.000314	3.142245	1.064621	-0.000126
1392	1.3840e+02	-15.4135	-56.996282	0.000294	2.939520	0.995936	-0.000118
1393	1.3850e+02	-15.4552	-57.064914	0.000172	1.723167	0.583825	-0.000069
1394	1.3860e+02	-15.4873	-57.210251	0.000365	3.649059	1.236335	-0.000146
1395	1.3870e+02	-15.5402	-57.331365	0.000304	3.040882	1.030279	-0.000122
1396	1.3880e+02	-15.5787	-57.488813	0.000395	3.953147	1.339363	-0.000158
1397	1.3890e+02	-15.6108	-57.557444	0.000172	1.723167	0.583825	-0.000069
1398	1.3900e+02	-15.6557	-57.670484	0.000284	2.838157	0.961594	-0.000114
1399	1.3910e+02	-15.6846	-57.783524	0.000284	2.838157	0.961594	-0.000114
1400	1.3920e+02	-15.7311	-57.896564	0.000284	2.838157	0.961594	-0.000114
1401	1.3930e+02	-15.7792	-57.981343	0.000213	2.128618	0.721195	-0.000085
1402	1.3940e+02	-15.8145	-58.146866	0.000416	4.155873	1.408048	-0.000166
1403	1.3950e+02	-15.8643	-58.263943	0.000294	2.939520	0.995936	-0.000118
1404	1.3960e+02	-15.8996	-58.376983	0.000284	2.838157	0.961594	-0.000114
1405	1.3970e+02	-15.9413	-58.473874	0.000243	2.432706	0.824223	-0.000097
1406	1.3980e+02	-15.9733	-58.603062	0.000324	3.243608	1.098964	-0.000130
1407	1.3990e+02	-16.0183	-58.716102	0.000284	2.838157	0.961594	-0.000114
1408	1.4000e+02	-16.0584	-58.812993	0.000243	2.432706	0.824223	-0.000097
1409	1.4010e+02	-16.0969	-58.970442	0.000395	3.953147	1.339363	-0.000158
1410	1.4020e+02	-16.1274	-59.087519	0.000294	2.939520	0.995936	-0.000118
1411	1.4029e+02	-16.1707	-59.216707	0.000324	3.243608	1.098964	-0.000130
1412	1.4039e+02	-16.2124	-59.321673	0.000264	2.635431	0.892908	-0.000105
1413	1.4049e+02	-16.2461	-59.410490	0.000223	2.229980	0.755538	-0.000089
1414	1.4059e+02	-16.2974	-59.547752	0.000345	3.446333	1.167649	-0.000138
1415	1.4069e+02	-16.3375	-59.664829	0.000294	2.939520	0.995936	-0.000118
1416	1.4079e+02	-16.3760	-59.773832	0.000274	2.736794	0.927251	-0.000110
1417	1.4089e+02	-16.4113	-59.911094	0.000345	3.446333	1.167649	-0.000138
1418	1.4099e+02	-16.4562	-60.040283	0.000324	3.243608	1.098964	-0.000130
1419	1.4109e+02	-16.4867	-60.157360	0.000294	2.939520	0.995936	-0.000118
1420	1.4119e+02	-16.5316	-60.205805	0.000122	1.216353	0.412112	-0.000049
1421	1.4129e+02	-16.5781	-60.339031	0.000334	3.344971	1.133307	-0.000134
1422	1.4139e+02	-16.6102	-60.456108	0.000294	2.939520	0.995936	-0.000118
1423	1.4149e+02	-16.6535	-60.581259	0.000314	3.142245	1.064621	-0.000126
1424	1.4159e+02	-16.6936	-60.678150	0.000243	2.432706	0.824223	-0.000097
1425	1.4169e+02	-16.7338	-60.799264	0.000304	3.040882	1.030279	-0.000122
1426	1.4179e+02	-16.7771	-60.884044	0.000213	2.128618	0.721195	-0.000085
1427	1.4189e+02	-16.8156	-61.053604	0.000426	4.257235	1.442390	-0.000170
1428	1.4199e+02	-16.8525	-61.162606	0.000274	2.736794	0.927251	-0.000110
1429	1.4209e+02	-16.8894	-61.303906	0.000355	3.547696	1.201992	-0.000142
1430	1.4219e+02	-16.9295	-61.368500	0.000162	1.621804	0.549482	-0.000065
1431	1.4228e+02	-16.9696	-61.485577	0.000294	2.939520	0.995936	-0.000118
1432	1.4238e+02	-17.0113	-61.634951	0.000375	3.750422	1.270677	-0.000150
1433	1.4248e+02	-17.0482	-61.723768	0.000223	2.229980	0.755538	-0.000089
1434	1.4258e+02	-17.0915	-61.865068	0.000355	3.547696	1.201992	-0.000142
1435	1.4268e+02	-17.1300	-61.961959	0.000243	2.432706	0.824223	-0.000097
1436	1.4278e+02	-17.1669	-62.070962	0.000274	2.736794	0.927251	-0.000110
1437	1.4288e+02	-17.2038	-62.167853	0.000243	2.432706	0.824223	-0.000097
1438	1.4298e+02	-17.2535	-62.305116	0.000345	3.446333	1.167649	-0.000138
1439	1.4308e+02	-17.2872	-62.393933	0.000223	2.229980	0.755538	-0.000089
1440	1.4318e+02	-17.3337	-62.506973	0.000284	2.838157	0.961594	-0.000114
1441	1.4328e+02	-17.3754	-62.636161	0.000324	3.243608	1.098964	-0.000130
1442	1.4338e+02	-17.4059	-62.712867	0.000193	1.925892	0.652510	-0.000077
1443	1.4348e+02	-17.4541	-62.854166	0.000355	3.547696	1.201992	-0.000142
1444	1.4358e+02	-17.4942	-62.987392	0.000334	3.344971	1.133307	-0.000134
1445	1.4368e+02	-17.5295	-63.108506	0.000304	3.040882	1.030279	-0.000122
1446	1.4378e+02	-17.5663	-63.205397	0.000243	2.432706	0.824223	-0.000097
1447	1.4388e+02	-17.6129	-63.334585	0.000324	3.243608	1.098964	-0.000130
1448	1.4398e+02	-17.6482	-63.435514	0.000253	2.534069	0.858566	-0.000101
1449	1.4408e+02	-17.6883	-63.532405	0.000243	2.432706	0.824223	-0.000097
1450	1.4418e+02	-17.7300	-63.609111	0.000193	1.925892	0.652510	-0.000077
1451	1.4428e+02	-17.7733	-63.742336	0.000334	3.344971	1.133307	-0.000134
1452	1.4437e+02	-17.8006	-63.835190	0.000233	2.331343	0.789880	-0.000093
1453	1.4447e+02	-17.8487	-64.016861	0.000456	4.561324	1.545418	-0.000183
1454	1.4457e+02	-17.8952	-64.109716	0.000233	2.331343	0.789880	-0.000093
1455	1.4467e+02	-17.9369	-64.226792	0.000294	2.939520	0.995936	-0.000118
1456	1.4477e+02	-17.9706	-64.360018	0.000334	3.344971	1.133307	-0.000134
1457	1.4487e+02	-18.0139	-64.477095	0.000294	2.939520	0.995936	-0.000118
1458	1.4497e+02	-18.0492	-64.561875	0.000213	2.128618	0.721195	-0.000085
1459	1.4507e+02	-18.0781	-64.723360	0.000405	4.054510	1.373705	-0.000162
1460	1.4517e+02	-18.1230	-64.828326	0.000264	2.635431	0.892908	-0.000105
1461	1.4527e+02	-18.1631	-64.965588	0.000345	3.446333	1.167649	-0.000138
1462	1.4537e+02	-18.2000	-65.062480	0.000243	2.432706	0.824223	-0.000097
1463	1.4547e+02	-18.2401	-65.175519	0.000284	2.838157	0.961594	-0.000114
1464	1.4557e+02	-18.2866	-65.268373	0.000233	2.331343	0.789880	-0.000093
1465	1.4567e+02	-18.3284	-65.401599	0.000334	3.344971	1.133307	-0.000134
1466	1.4577e+02	-18.3765	-65.498490	0.000243	2.432706	0.824223	-0.000097
1467	1.4587e+02	-18.4150	-65.611530	0.000284	2.838157	0.961594	-0.000114
1468	1.4597e+02	-18.4374	-65.700347	0.000223	2.229980	0.755538	-0.000089
1469	1.4607e+02	-18.4888	-65.809350	0.000274	2.736794	0.927251	-0.000110
1470	1.4617e+02	-18.5321	-65.970835	0.000405	4.054510	1.373705	-0.000162
1471	1.4626e+02	-18.5690	-66.047541	0.000193	1.925892	0.652510	-0.000077
1472	1.4636e+02	-18.6027	-66.188840	0.000355	3.547696	1.201992	-0.000142
1473	1.4646e+02	-18.6524	-66.309954	0.000304	3.040882	1.030279	-0.000122
1474	1.4656e+02	-18.6909	-66.439143	0.000324	3.243608	1.098964	-0.000130
1475	1.4666e+02	-18.7326	-66.572368	0.000334	3.344971	1.133307	-0.000134
1476	1.4676e+02	-18.7759	-66.705594	0.000334	3.344971	1.133307	-0.000134
1477	1.4686e+02	-18.7952	-66.826708	0.000304	3.040882	1.030279	-0.000122
1478	1.4696e+02	-18.8449	-66.955896	0.000324	3.243608	1.098964	-0.000130
1479	1.4706e+02	-18.8898	-67.105270	0.000375	3.750422	1.270677	-0.000150
1480	1.4716e+02	-18.9171	-67.181976	0.000193	1.925892	0.652510	-0.000077
1481	1.4726e+02	-18.9636	-67.295016	0.000284	2.838157	0.961594	-0.000114
1482	1.4736e+02	-19.0150	-67.371721	0.000193	1.925892	0.652510	-0.000077
1483	1.4746e+02	-19.0471	-67.476687	0.000264	2.635431	0.892908	-0.000105
1484	1.4756e+02	-19.0791	-67.613949	0.000345	3.446333	1.167649	-0.000138
1485	1.4766e+02	-19.1353	-67.775435	0.000405	4.054510	1.373705	-0.000162
1486	1.4776e+02	-19.1594	-67.876363	0.000253	2.534069	0.858566	-0.000101
1487	1.4786e+02	-19.2011	-67.961143	0.000213	2.128618	0.721195	-0.000085
1488	1.4796e+02	-19.2412	-68.058034	0.000243	2.432706	0.824223	-0.000097
1489	1.4806e+02	-19.2877	-68.203371	0.000365	3.649059	1.236335	-0.000146
1490	1.4816e+02	-19.3294	-68.328522	0.000314	3.142245	1.064621	-0.000126
1491	1.4825e+02	-19.3695	-68.437525	0.000274	2.736794	0.927251	-0.000110
1492	1.4835e+02	-19.4032	-68.586899	0.000375	3.750422	1.270677	-0.000150
1493	1.4845e+02	-19.4321	-68.724162	0.000345	3.446333	1.167649	-0.000138
1494	1.4855e+02	-19.4770	-68.865461	0.000355	3.547696	1.201992	-0.000142
1495	1.4865e+02	-19.5219	-69.022910	0.000395	3.953147	1.339363	-0.000158
1496	1.4875e+02	-19.5620	-69.107690	0.000213	2.128618	0.721195	-0.000085
1497	1.4885e+02	-19.6005	-69.244952	0.000345	3.446333	1.167649	-0.000138
1498	1.4895e+02	-19.6422	-69.297435	0.000132	1.317716	0.446454	-0.000053
1499	1.4905e+02	-19.6775	-69.422586	0.000314	3.142245	1.064621	-0.000126
1500	1.4915e+02	-19.7208	-69.495255	0.000182	1.824529	0.618167	-0.000073
1501	1.4925e+02	-19.7625	-69.656740	0.000405	4.054510	1.373705	-0.000162
1502	1.4935e+02	-19.7994	-69.761706	0.000264	2.635431	0.892908	-0.000105
1503	1.4945e+02	-19.8444	-69.862634	0.000253	2.534069	0.858566	-0.000101
1504	1.4955e+02	-19.8732	-70.048342	0.000466	4.662686	1.579761	-0.000187
1505	1.4965e+02	-19.9198	-70.121011	0.000182	1.824529	0.618167	-0.000073
1506	1.4975e+02	-19.9647	-70.286533	0.000416	4.155873	1.408048	-0.000166
1507	1.4985e+02	-19.9968	-70.395536	0.000274	2.736794	0.927251	-0.000110
1508	1.4995e+02	-19.9583	-70.314793	0.000203	2.027255	0.686853	0.000081
1509	1.5005e+02	-19.9166	-70.286533	0.000071	0.709539	0.240398	0.000028
1510	1.5015e+02	-19.8845	-70.254236	0.000081	0.810902	0.274741	0.000032
1511	1.5025e+02	-19.8363	-70.225976	0.000071	0.709539	0.240398	0.000028
1512	1.5034e+02	-19.7930	-70.161382	0.000162	1.621804	0.549482	0.000065
1513	1.5044e+02	-19.7561	-70.076602	0.000213	2.128618	0.721195	0.000085
1514	1.5054e+02	-19.7064	-70.032194	0.000111	1.114990	0.377769	0.000045
1515	1.5064e+02	-19.6823	-69.955488	0.000193	1.925892	0.652510	0.000077
1516	1.5074e+02	-19.6406	-69.846485	0.000274	2.736794	0.927251	0.000110
1517	1.5084e+02	-19.6053	-69.777854	0.000172	1.723167	0.583825	0.000069
1518	1.5094e+02	-19.5604	-69.672889	0.000264	2.635431	0.892908	0.000105
1519	1.5104e+02	-19.5235	-69.636554	0.000091	0.912265	0.309084	0.000037
1520	1.5114e+02	-19.4866	-69.584072	0.000132	1.317716	0.446454	0.000053
1521	1.5124e+02	-19.4433	-69.466995	0.000294	2.939520	0.995936	0.000118
1522	1.5134e+02	-19.3984	-69.471032	-0.000010	-0.101363	-0.034343	-0.000004
1523	1.5144e+02	-19.3551	-69.370103	0.000253	2.534069	0.858566	0.000101
1524	1.5154e+02	-19.3198	-69.317621	0.000132	1.317716	0.446454	0.000053
1525	1.5164e+02	-19.2797	-69.293398	0.000061	0.608176	0.206056	0.000024
1526	1.5174e+02	-19.2428	-69.212655	0.000203	2.027255	0.686853	0.000081
1527	1.5184e+02	-19.2059	-69.111727	0.000253	2.534069	0.858566	0.000101
1528	1.5194e+02	-19.1642	-69.051170	0.000152	1.520441	0.515139	0.000061
1529	1.5204e+02	-19.1209	-68.986575	0.000162	1.621804	0.549482	0.000065
1530	1.5214e+02	-19.0888	-68.926018	0.000152	1.520441	0.515139	0.000061
1531	1.5224e+02	-19.0503	-68.841239	0.000213	2.128618	0.721195	0.000085
1532	1.5233e+02	-19.0053	-68.748384	0.000233	2.331343	0.789880	0.000093
1533	1.5243e+02	-18.9684	-68.627270	0.000304	3.040882	1.030279	0.000122
1534	1.5253e+02	-18.9251	-68.582862	0.000111	1.114990	0.377769	0.000045
1535	1.5263e+02	-18.8882	-68.469822	0.000284	2.838157	0.961594	0.000114
1536	1.5273e+02	-18.8578	-68.417339	0.000132	1.317716	0.446454	0.000053
1537	1.5283e+02	-18.8048	-68.344671	0.000182	1.824529	0.618167	0.000073
1538	1.5293e+02	-18.7711	-68.239705	0.000264	2.635431	0.892908	0.000105
1539	1.5303e+02	-18.7182	-68.179148	0.000152	1.520441	0.515139	0.000061
1540	1.5313e+02	-18.6845	-68.114554	0.000162	1.621804	0.549482	0.000065
1541	1.5323e+02	-18.6492	-68.058034	0.000142	1.419078	0.480797	0.000057
1542	1.5333e+02	-18.6075	-67.965180	0.000233	2.331343	0.789880	0.000093
1543	1.5343e+02	-18.5722	-67.936920	0.000071	0.709539	0.240398	0.000028
1544	1.5353e+02	-18.5289	-67.835992	0.000253	2.534069	0.858566	0.000101
1545	1.5363e+02	-18.4824	-67.743138	0.000233	2.331343	0.789880	0.000093
1546	1.5373e+02	-18.4487	-67.638172	0.000264	2.635431	0.892908	0.000105
1547	1.5383e+02	-18.4086	-67.589727	0.000122	1.216353	0.412112	0.000049
1548	1.5393e+02	-18.3588	-67.484761	0.000264	2.635431	0.892908	0.000105
1549	1.5403e+02	-18.3203	-67.375758	0.000274	2.736794	0.927251	0.000110
1550	1.5413e+02	-18.2883	-67.282904	0.000233	2.331343	0.789880	0.000093
1551	1.5422e+02	-18.2610	-67.177939	0.000264	2.635431	0.892908	0.000105
1552	1.5432e+02	-18.2096	-67.109307	0.000172	1.723167	0.583825	0.000069
1553	1.5442e+02	-18.1744	-67.044713	0.000162	1.621804	0.549482	0.000065
1554	1.5452e+02	-18.1262	-66.972045	0.000182	1.824529	0.618167	0.000073
1555	1.5462e+02	-18.0861	-66.846894	0.000314	3.142245	1.064621	0.000126
1556	1.5472e+02	-18.0572	-66.762114	0.000213	2.128618	0.721195	0.000085
1557	1.5482e+02	-18.0059	-66.685408	0.000193	1.925892	0.652510	0.000077
1558	1.5492e+02	-17.9738	-66.636962	0.000122	1.216353	0.412112	0.000049
1559	1.5502e+02	-17.9337	-66.564294	0.000182	1.824529	0.618167	0.000073
1560	1.5512e+02	-17.8872	-66.447217	0.000294	2.939520	0.995936	0.000118
1561	1.5522e+02	-17.8471	-66.410883	0.000091	0.912265	0.309084	0.000037
1562	1.5532e+02	-17.8006	-66.277657	0.000334	3.344971	1.133307	0.000134
1563	1.5542e+02	-17.7669	-66.192878	0.000213	2.128618	0.721195	0.000085
1564	1.5552e+02	-17.7268	-66.120209	0.000182	1.824529	0.618167	0.000073
1565	1.5562e+02	-17.6915	-66.027355	0.000233	2.331343	0.789880	0.000093
1566	1.5572e+02	-17.6482	-65.938538	0.000223	2.229980	0.755538	0.000089
1567	1.5582e+02	-17.6081	-65.833572	0.000264	2.635431	0.892908	0.000105
1568	1.5592e+02	-17.5792	-65.700347	0.000334	3.344971	1.133307	0.000134
1569	1.5602e+02	-17.5391	-65.655939	0.000111	1.114990	0.377769	0.000045
1570	1.5612e+02	-17.4845	-65.510602	0.000365	3.649059	1.236335	0.000146
1571	1.5622e+02	-17.4524	-65.433896	0.000193	1.925892	0.652510	0.000077
1572	1.5631e+02	-17.4188	-65.357190	0.000193	1.925892	0.652510	0.000077
1573	1.5641e+02	-17.3610	-65.361228	-0.000010	-0.101363	-0.034343	-0.000004
1574	1.5651e+02	-17.3225	-65.236076	0.000314	3.142245	1.064621	0.000126
1575	1.5661e+02	-17.2968	-65.127074	0.000274	2.736794	0.927251	0.000110
1576	1.5671e+02	-17.2535	-65.086702	0.000101	1.013627	0.343426	0.000041
1577	1.5681e+02	-17.2054	-64.933291	0.000385	3.851784	1.305020	0.000154
1578	1.5691e+02	-17.1685	-64.884846	0.000122	1.216353	0.412112	0.000049
1579	1.5701e+02	-17.1332	-64.804103	0.000203	2.027255	0.686853	0.000081
1580	1.5711e+02	-17.0883	-64.719323	0.000213	2.128618	0.721195	0.000085
1581	1.5721e+02	-17.0514	-64.626469	0.000233	2.331343	0.789880	0.000093
1582	1.5731e+02	-17.0161	-64.505355	0.000304	3.040882	1.030279	0.000122
1583	1.5741e+02	-16.9728	-64.440761	0.000162	1.621804	0.549482	0.000065
1584	1.5751e+02	-16.9391	-64.311572	0.000324	3.243608	1.098964	0.000130
1585	1.5761e+02	-16.9006	-64.214681	0.000243	2.432706	0.824223	0.000097
1586	1.5771e+02	-16.8589	-64.125864	0.000223	2.229980	0.755538	0.000089
1587	1.5781e+02	-16.8043	-64.020899	0.000264	2.635431	0.892908	0.000105
1588	1.5791e+02	-16.7803	-63.944193	0.000193	1.925892	0.652510	0.000077
1589	1.5801e+02	-16.7370	-63.867487	0.000193	1.925892	0.652510	0.000077
1590	1.5811e+02	-16.6856	-63.815005	0.000132	1.317716	0.446454	0.000053
1591	1.5821e+02	-16.6616	-63.710039	0.000264	2.635431	0.892908	0.000105
1592	1.5830e+02	-16.6086	-63.621222	0.000223	2.229980	0.755538	0.000089
1593	1.5840e+02	-16.5653	-63.508182	0.000284	2.838157	0.961594	0.000114
1594	1.5850e+02	-16.5380	-63.391105	0.000294	2.939520	0.995936	0.000118
1595	1.5860e+02	-16.4979	-63.298251	0.000233	2.331343	0.789880	0.000093
1596	1.5870e+02	-16.4658	-63.233657	0.000162	1.621804	0.549482	0.000065
1597	1.5880e+02	-16.4097	-63.144840	0.000223	2.229980	0.755538	0.000089
1598	1.5890e+02	-16.3680	-63.039875	0.000264	2.635431	0.892908	0.000105
1599	1.5900e+02	-16.3391	-62.894538	0.000365	3.649059	1.236335	0.000146
1600	1.5910e+02	-16.2910	-62.838018	0.000142	1.419078	0.480797	0.000057
1601	1.5920e+02	-16.2541	-62.696718	0.000355	3.547696	1.201992	0.000142
1602	1.5930e+02	-16.2140	-62.632124	0.000162	1.621804	0.549482	0.000065
1603	1.5940e+02	-16.1659	-62.543307	0.000223	2.229980	0.755538	0.000089
1604	1.5950e+02	-16.1370	-62.410081	0.000334	3.344971	1.133307	0.000134
1605	1.5960e+02	-16.1033	-62.321264	0.000223	2.229980	0.755538	0.000089
1606	1.5970e+02	-16.0503	-62.248596	0.000182	1.824529	0.618167	0.000073
1607	1.5980e+02	-16.0199	-62.119408	0.000324	3.243608	1.098964	0.000130
1608	1.5990e+02	-15.9750	-62.038665	0.000203	2.027255	0.686853	0.000081
1609	1.6000e+02	-15.9332	-61.953885	0.000213	2.128618	0.721195	0.000085
1610	1.6010e+02	-15.8915	-61.861031	0.000233	2.331343	0.789880	0.000093
1611	1.6019e+02	-15.8546	-61.788362	0.000182	1.824529	0.618167	0.000073
1612	1.6029e+02	-15.8177	-61.663211	0.000314	3.142245	1.064621	0.000126
1613	1.6039e+02	-15.7792	-61.574394	0.000223	2.229980	0.755538	0.000089
1614	1.6049e+02	-15.7327	-61.493652	0.000203	2.027255	0.686853	0.000081
1615	1.6059e+02	-15.7103	-61.384649	0.000274	2.736794	0.927251	0.000110
1616	1.6069e+02	-15.6637	-61.251423	0.000334	3.344971	1.133307	0.000134
1617	1.6079e+02	-15.6204	-61.178755	0.000182	1.824529	0.618167	0.000073
1618	1.6089e+02	-15.5707	-61.069752	0.000274	2.736794	0.927251	0.000110
1619	1.6099e+02	-15.5290	-60.960750	0.000274	2.736794	0.927251	0.000110
1620	1.6109e+02	-15.4985	-60.888081	0.000182	1.824529	0.618167	0.000073
1621	1.6119e+02	-15.4552	-60.779079	0.000274	2.736794	0.927251	0.000110
1622	1.6129e+02	-15.4199	-60.690262	0.000223	2.229980	0.755538	0.000089
1623	1.6139e+02	-15.3750	-60.581259	0.000274	2.736794	0.927251	0.000110
1624	1.6149e+02	-15.3525	-60.488405	0.000233	2.331343	0.789880	0.000093
1625	1.6159e+02	-15.3028	-60.367291	0.000304	3.040882	1.030279	0.000122
1626	1.6169e+02	-15.2675	-60.286548	0.000203	2.027255	0.686853	0.000081
1627	1.6179e+02	-15.2258	-60.209842	0.000193	1.925892	0.652510	0.000077
1628	1.6189e+02	-15.1841	-60.084691	0.000314	3.142245	1.064621	0.000126
1629	1.6199e+02	-15.1424	-59.991837	0.000233	2.331343	0.789880	0.000093
1630	1.6209e+02	-15.0990	-59.866686	0.000314	3.142245	1.064621	0.000126
1631	1.6219e+02	-15.0605	-59.798055	0.000172	1.723167	0.583825	0.000069
1632	1.6228e+02	-15.0301	-59.693089	0.000264	2.635431	0.892908	0.000105
1633	1.6238e+02	-14.9851	-59.600235	0.000233	2.331343	0.789880	0.000093
1634	1.6248e+02	-14.9306	-59.487195	0.000284	2.838157	0.961594	0.000114
1635	1.6258e+02	-14.8905	-59.398378	0.000223	2.229980	0.755538	0.000089
1636	1.6268e+02	-14.8536	-59.269190	0.000324	3.243608	1.098964	0.000130
1637	1.6278e+02	-14.8119	-59.188447	0.000203	2.027255	0.686853	0.000081
1638	1.6288e+02	-14.7782	-59.111741	0.000193	1.925892	0.652510	0.000077
1639	1.6298e+02	-14.7349	-58.986590	0.000314	3.142245	1.064621	0.000126
1640	1.6308e+02	-14.6980	-58.889699	0.000243	2.432706	0.824223	0.000097
1641	1.6318e+02	-14.6531	-58.812993	0.000193	1.925892	0.652510	0.000077
1642	1.6328e+02	-14.6226	-58.683805	0.000324	3.243608	1.098964	0.000130
1643	1.6338e+02	-14.5809	-58.566728	0.000294	2.939520	0.995936	0.000118
1644	1.6348e+02	-14.5424	-58.465800	0.000253	2.534069	0.858566	0.000101
1645	1.6358e+02	-14.5007	-58.352760	0.000284	2.838157	0.961594	0.000114
1646	1.6368e+02	-14.4622	-58.267980	0.000213	2.128618	0.721195	0.000085
1647	1.6378e+02	-14.4204	-58.142829	0.000314	3.142245	1.064621	0.000126
1648	1.6388e+02	-14.3852	-58.066123	0.000193	1.925892	0.652510	0.000077
1649	1.6398e+02	-14.3434	-57.965195	0.000253	2.534069	0.858566	0.000101
1650	1.6408e+02	-14.3049	-57.836007	0.000324	3.243608	1.098964	0.000130
1651	1.6418e+02	-14.2648	-57.775450	0.000152	1.520441	0.515139	0.000061
1652	1.6427e+02	-14.2263	-57.650298	0.000314	3.142245	1.064621	0.000126
1653	1.6437e+02	-14.1718	-57.541296	0.000274	2.736794	0.927251	0.000110
1654	1.6447e+02	-14.1445	-57.444404	0.000243	2.432706	0.824223	0.000097
1655	1.6457e+02	-14.1060	-57.331365	0.000284	2.838157	0.961594	0.000114
1656	1.6467e+02	-14.0595	-57.242548	0.000223	2.229980	0.755538	0.000089
1657	1.6477e+02	-14.0194	-57.121434	0.000304	3.040882	1.030279	0.000122
1658	1.6487e+02	-13.9889	-57.016468	0.000264	2.635431	0.892908	0.000105
1659	1.6497e+02	-13.9440	-56.915540	0.000253	2.534069	0.858566	0.000101
1660	1.6507e+02	-13.9119	-56.770203	0.000365	3.649059	1.236335	0.000146
1661	1.6517e+02	-13.8590	-56.725794	0.000111	1.114990	0.377769	0.000045
1662	1.6527e+02	-13.8285	-56.572383	0.000385	3.851784	1.305020	0.000154
1663	1.6537e+02	-13.7964	-56.479529	0.000233	2.331343	0.789880	0.000093
1664	1.6547e+02	-13.7435	-56.362452	0.000294	2.939520	0.995936	0.000118
1665	1.6557e+02	-13.7146	-56.314006	0.000122	1.216353	0.412112	0.000049
1666	1.6567e+02	-13.6584	-56.156558	0.000395	3.953147	1.339363	0.000158
1667	1.6577e+02	-13.6215	-56.104075	0.000132	1.317716	0.446454	0.000053
1668	1.6587e+02	-13.5798	-55.974887	0.000324	3.243608	1.098964	0.000130
1669	1.6597e+02	-13.5413	-55.861847	0.000284	2.838157	0.961594	0.000114
1670	1.6607e+02	-13.5012	-55.744770	0.000294	2.939520	0.995936	0.000118
1671	1.6616e+02	-13.4659	-55.651916	0.000233	2.331343	0.789880	0.000093
1672	1.6626e+02	-13.4226	-55.498505	0.000385	3.851784	1.305020	0.000154
1673	1.6636e+02	-13.3873	-55.369317	0.000324	3.243608	1.098964	0.000130
1674	1.6646e+02	-13.3488	-55.320871	0.000122	1.216353	0.412112	0.000049
1675	1.6656e+02	-13.3039	-55.195720	0.000314	3.142245	1.064621	0.000126
1676	1.6666e+02	-13.2654	-55.082680	0.000284	2.838157	0.961594	0.000114
1677	1.6676e+02	-13.2269	-54.977714	0.000264	2.635431	0.892908	0.000105
1678	1.6686e+02	-13.1820	-54.896972	0.000203	2.027255	0.686853	0.000081
1679	1.6696e+02	-13.1451	-54.820266	0.000193	1.925892	0.652510	0.000077
1680	1.6706e+02	-13.1162	-54.691078	0.000324	3.243608	1.098964	0.000130
1681	1.6716e+02	-13.0713	-54.574001	0.000294	2.939520	0.995936	0.000118
1682	1.6726e+02	-13.0264	-54.428664	0.000365	3.649059	1.236335	0.000146
1683	1.6736e+02	-12.9863	-54.351958	0.000193	1.925892	0.652510	0.000077
1684	1.6746e+02	-12.9446	-54.279290	0.000182	1.824529	0.618167	0.000073
1685	1.6756e+02	-12.8900	-54.190473	0.000223	2.229980	0.755538	0.000089
1686	1.6766e+02	-12.8676	-54.033025	0.000395	3.953147	1.339363	0.000158
1687	1.6776e+02	-12.8210	-53.948245	0.000213	2.128618	0.721195	0.000085
1688	1.6786e+02	-12.7922	-53.827131	0.000304	3.040882	1.030279	0.000122
1689	1.6796e+02	-12.7392	-53.706017	0.000304	3.040882	1.030279	0.000122
1690	1.6806e+02	-12.7168	-53.605088	0.000253	2.534069	0.858566	0.000101
1691	1.6816e+02	-12.6702	-53.520308	0.000213	2.128618	0.721195	0.000085
1692	1.6825e+02	-12.6237	-53.415343	0.000264	2.635431	0.892908	0.000105
1693	1.6835e+02	-12.5996	-53.298266	0.000294	2.939520	0.995936	0.000118
1694	1.6845e+02	-12.5483	-53.173115	0.000314	3.142245	1.064621	0.000126
1695	1.6855e+02	-12.5018	-53.108521	0.000162	1.621804	0.549482	0.000065
1696	1.6865e+02	-12.4729	-52.951072	0.000395	3.953147	1.339363	0.000158
1697	1.6875e+02	-12.4344	-52.854181	0.000243	2.432706	0.824223	0.000097
1698	1.6885e+02	-12.3815	-52.777476	0.000193	1.925892	0.652510	0.000077
1699	1.6895e+02	-12.3510	-52.668473	0.000274	2.736794	0.927251	0.000110
1700	1.6905e+02	-12.3077	-52.555433	0.000284	2.838157	0.961594	0.000114
1701	1.6915e+02	-12.2612	-52.486802	0.000172	1.723167	0.583825	0.000069
1702	1.6925e+02	-12.2307	-52.357613	0.000324	3.243608	1.098964	0.000130
1703	1.6935e+02	-12.1874	-52.200165	0.000395	3.953147	1.339363	0.000158
1704	1.6945e+02	-12.1521	-52.054828	0.000365	3.649059	1.236335	0.000146
1705	1.6955e+02	-12.1087	-51.945826	0.000274	2.736794	0.927251	0.000110
1706	1.6965e+02	-12.0751	-51.836823	0.000274	2.736794	0.927251	0.000110
1707	1.6975e+02	-12.0414	-51.723783	0.000284	2.838157	0.961594	0.000114
1708	1.6985e+02	-11.9965	-51.618818	0.000264	2.635431	0.892908	0.000105
1709	1.6995e+02	-11.9547	-51.473481	0.000365	3.649059	1.236335	0.000146
1710	1.7005e+02	-11.9050	-51.400812	0.000182	1.824529	0.618167	0.000073
1711	1.7015e+02	-11.8633	-51.291810	0.000274	2.736794	0.927251	0.000110
1712	1.7024e+02	-11.8328	-51.158584	0.000334	3.344971	1.133307	0.000134
1713	1.7034e+02	-11.7959	-51.085916	0.000182	1.824529	0.618167	0.000073
1714	1.7044e+02	-11.7510	-50.989024	0.000243	2.432706	0.824223	0.000097
1715	1.7054e+02	-11.7077	-50.904245	0.000213	2.128618	0.721195	0.000085
1716	1.7064e+02	-11.6772	-50.746796	0.000395	3.953147	1.339363	0.000158
1717	1.7074e+02	-11.6355	-50.657979	0.000223	2.229980	0.755538	0.000089
1718	1.7084e+02	-11.5874	-50.500531	0.000395	3.953147	1.339363	0.000158
1719	1.7094e+02	-11.5601	-50.407677	0.000233	2.331343	0.789880	0.000093
1720	1.7104e+02	-11.5200	-50.314823	0.000233	2.331343	0.789880	0.000093
1721	1.7114e+02	-11.4815	-50.169486	0.000365	3.649059	1.236335	0.000146
1722	1.7124e+02	-11.4253	-49.995889	0.000436	4.358598	1.476733	0.000174
1723	1.7134e+02	-11.3820	-49.907072	0.000223	2.229980	0.755538	0.000089
1724	1.7144e+02	-11.3499	-49.802106	0.000264	2.635431	0.892908	0.000105
1725	1.7154e+02	-11.3147	-49.693104	0.000274	2.736794	0.927251	0.000110
1726	1.7164e+02	-11.2745	-49.580064	0.000284	2.838157	0.961594	0.000114
1727	1.7174e+02	-11.2360	-49.467024	0.000284	2.838157	0.961594	0.000114
1728	1.7184e+02	-11.1943	-49.353984	0.000284	2.838157	0.961594	0.000114
1729	1.7194e+02	-11.1574	-49.273242	0.000203	2.027255	0.686853	0.000081
1730	1.7204e+02	-11.1157	-49.144053	0.000324	3.243608	1.098964	0.000130
1731	1.7213e+02	-11.0644	-49.039088	0.000264	2.635431	0.892908	0.000105
1732	1.7223e+02	-11.0419	-48.922011	0.000294	2.939520	0.995936	0.000118
1733	1.7233e+02	-10.9922	-48.768600	0.000385	3.851784	1.305020	0.000154
1734	1.7243e+02	-10.9521	-48.671708	0.000243	2.432706	0.824223	0.000097
1735	1.7253e+02	-10.9152	-48.574817	0.000243	2.432706	0.824223	0.000097
1736	1.7263e+02	-10.8735	-48.457740	0.000294	2.939520	0.995936	0.000118
1737	1.7273e+02	-10.8270	-48.328552	0.000324	3.243608	1.098964	0.000130
1738	1.7283e+02	-10.8029	-48.146881	0.000456	4.561324	1.545418	0.000183
1739	1.7293e+02	-10.7564	-48.066138	0.000203	2.027255	0.686853	0.000081
1740	1.7303e+02	-10.7243	-47.936950	0.000324	3.243608	1.098964	0.000130
1741	1.7313e+02	-10.6778	-47.803724	0.000334	3.344971	1.133307	0.000134
1742	1.7323e+02	-10.6409	-47.690684	0.000284	2.838157	0.961594	0.000114
1743	1.7333e+02	-10.5960	-47.589756	0.000253	2.534069	0.858566	0.000101
1744	1.7343e+02	-10.5559	-47.484791	0.000264	2.635431	0.892908	0.000105
1745	1.7353e+02	-10.5125	-47.367714	0.000294	2.939520	0.995936	0.000118
1746	1.7363e+02	-10.4821	-47.295045	0.000182	1.824529	0.618167	0.000073
1747	1.7373e+02	-10.4291	-47.177968	0.000294	2.939520	0.995936	0.000118
1748	1.7383e+02	-10.3954	-47.032631	0.000365	3.649059	1.236335	0.000146
1749	1.7393e+02	-10.3537	-46.955926	0.000193	1.925892	0.652510	0.000077
1750	1.7403e+02	-10.3281	-46.798477	0.000395	3.953147	1.339363	0.000158
1751	1.7413e+02	-10.2767	-46.717735	0.000203	2.027255	0.686853	0.000081
1752	1.7422e+02	-10.2398	-46.604695	0.000284	2.838157	0.961594	0.000114
1753	1.7432e+02	-10.1933	-46.435135	0.000426	4.257235	1.442390	0.000170
1754	1.7442e+02	-10.1692	-46.301910	0.000334	3.344971	1.133307	0.000134
1755	1.7452e+02	-10.1163	-46.180796	0.000304	3.040882	1.030279	0.000122
1756	1.7462e+02	-10.0794	-46.047570	0.000334	3.344971	1.133307	0.000134
1757	1.7472e+02	-10.0361	-45.946642	0.000253	2.534069	0.858566	0.000101
1758	1.7482e+02	-10.0008	-45.801305	0.000365	3.649059	1.236335	0.000146
1759	1.7492e+02	-9.9575	-45.676154	0.000314	3.142245	1.064621	0.000126
1760	1.7502e+02	-9.9222	-45.546965	0.000324	3.243608	1.098964	0.000130
1761	1.7512e+02	-9.8821	-45.405666	0.000355	3.547696	1.201992	0.000142
1762	1.7522e+02	-9.8307	-45.312812	0.000233	2.331343	0.789880	0.000093
1763	1.7532e+02	-9.8003	-45.256292	0.000142	1.419078	0.480797	0.000057
1764	1.7542e+02	-9.7521	-45.102880	0.000385	3.851784	1.305020	0.000154
1765	1.7552e+02	-9.7217	-44.933321	0.000426	4.257235	1.442390	0.000170
1766	1.7562e+02	-9.6799	-44.884875	0.000122	1.216353	0.412112	0.000049
1767	1.7572e+02	-9.6350	-44.731464	0.000385	3.851784	1.305020	0.000154
1768	1.7582e+02	-9.6013	-44.638610	0.000233	2.331343	0.789880	0.000093
1769	1.7592e+02	-9.5628	-44.497310	0.000355	3.547696	1.201992	0.000142
1770	1.7602e+02	-9.5211	-44.299490	0.000497	4.966775	1.682789	0.000199
1771	1.7612e+02	-9.4810	-44.214711	0.000213	2.128618	0.721195	0.000085
1772	1.7621e+02	-9.4409	-44.105708	0.000274	2.736794	0.927251	0.000110
1773	1.7631e+02	-9.4056	-43.940185	0.000416	4.155873	1.408048	0.000166
1774	1.7641e+02	-9.3607	-43.819071	0.000304	3.040882	1.030279	0.000122
1775	1.7651e+02	-9.3350	-43.697957	0.000304	3.040882	1.030279	0.000122
1776	1.7661e+02	-9.2901	-43.536472	0.000405	4.054510	1.373705	0.000162
1777	1.7671e+02	-9.2548	-43.427469	0.000274	2.736794	0.927251	0.000110
1778	1.7681e+02	-9.2051	-43.302318	0.000314	3.142245	1.064621	0.000126
1779	1.7691e+02	-9.1682	-43.221575	0.000203	2.027255	0.686853	0.000081
1780	1.7701e+02	-9.1297	-43.080275	0.000355	3.547696	1.201992	0.000142
1781	1.7711e+02	-9.0816	-43.027793	0.000132	1.317716	0.446454	0.000053
1782	1.7721e+02	-9.0431	-42.813825	0.000537	5.372226	1.820159	0.000215
1783	1.7731e+02	-8.9965	-42.700785	0.000284	2.838157	0.961594	0.000114
1784	1.7741e+02	-8.9661	-42.591782	0.000274	2.736794	0.927251	0.000110
1785	1.7751e+02	-8.9227	-42.466631	0.000314	3.142245	1.064621	0.000126
1786	1.7761e+02	-8.8826	-42.349554	0.000294	2.939520	0.995936	0.000118
1787	1.7771e+02	-8.8441	-42.163846	0.000466	4.662686	1.579761	0.000187
1788	1.7781e+02	-8.8024	-42.038694	0.000314	3.142245	1.064621	0.000126
1789	1.7791e+02	-8.7655	-41.873172	0.000416	4.155873	1.408048	0.000166
1790	1.7801e+02	-8.7254	-41.764169	0.000274	2.736794	0.927251	0.000110
1791	1.7810e+02	-8.6821	-41.626907	0.000345	3.446333	1.167649	0.000138
1792	1.7820e+02	-8.6500	-41.497718	0.000324	3.243608	1.098964	0.000130
1793	1.7830e+02	-8.6035	-41.364493	0.000334	3.344971	1.133307	0.000134
1794	1.7840e+02	-8.5602	-41.263564	0.000253	2.534069	0.858566	0.000101
1795	1.7850e+02	-8.5329	-41.106116	0.000395	3.953147	1.339363	0.000158
1796	1.7860e+02	-8.4832	-41.017299	0.000223	2.229980	0.755538	0.000089
1797	1.7870e+02	-8.4527	-40.896185	0.000304	3.040882	1.030279	0.000122
1798	1.7880e+02	-8.4014	-40.762960	0.000334	3.344971	1.133307	0.000134
1799	1.7890e+02	-8.3677	-40.657994	0.000264	2.635431	0.892908	0.000105
1800	1.7900e+02	-8.3228	-40.512657	0.000365	3.649059	1.236335	0.000146
1801	1.7910e+02	-8.2827	-40.407692	0.000264	2.635431	0.892908	0.000105
1802	1.7920e+02	-8.2490	-40.266392	0.000355	3.547696	1.201992	0.000142
1803	1.7930e+02	-8.2008	-40.108944	0.000395	3.953147	1.339363	0.000158
1804	1.7940e+02	-8.1720	-39.943421	0.000416	4.155873	1.408048	0.000166
1805	1.7950e+02	-8.1303	-39.794047	0.000375	3.750422	1.270677	0.000150
1806	1.7960e+02	-8.0901	-39.628524	0.000416	4.155873	1.408048	0.000166
1807	1.7970e+02	-8.0468	-39.563930	0.000162	1.621804	0.549482	0.000065
1808	1.7980e+02	-8.0067	-39.426668	0.000345	3.446333	1.167649	0.000138
1809	1.7990e+02	-7.9650	-39.277294	0.000375	3.750422	1.270677	0.000150
1810	1.8000e+02	-7.9265	-39.172328	0.000264	2.635431	0.892908	0.000105
1811	1.8009e+02	-7.8880	-39.026991	0.000365	3.649059	1.236335	0.000146
1812	1.8019e+02	-7.8479	-38.909914	0.000294	2.939520	0.995936	0.000118
1813	1.8029e+02	-7.8062	-38.792837	0.000294	2.939520	0.995936	0.000118
1814	1.8039e+02	-7.7629	-38.683835	0.000274	2.736794	0.927251	0.000110
1815	1.8049e+02	-7.7308	-38.546572	0.000345	3.446333	1.167649	0.000138
1816	1.8059e+02	-7.6971	-38.385087	0.000405	4.054510	1.373705	0.000162
1817	1.8069e+02	-7.6442	-38.268010	0.000294	2.939520	0.995936	0.000118
1818	1.8079e+02	-7.6041	-38.098450	0.000426	4.257235	1.442390	0.000170
1819	1.8089e+02	-7.5704	-38.013670	0.000213	2.128618	0.721195	0.000085
1820	1.8099e+02	-7.5319	-37.827962	0.000466	4.662686	1.579761	0.000187
1821	1.8109e+02	-7.4902	-37.674551	0.000385	3.851784	1.305020	0.000154
1822	1.8119e+02	-7.4436	-37.561511	0.000284	2.838157	0.961594	0.000114
1823	1.8129e+02	-7.4148	-37.400025	0.000405	4.054510	1.373705	0.000162
1824	1.8139e+02	-7.3666	-37.234503	0.000416	4.155873	1.408048	0.000166
1825	1.8149e+02	-7.3329	-37.109352	0.000314	3.142245	1.064621	0.000126
1826	1.8159e+02	-7.2928	-36.972089	0.000345	3.446333	1.167649	0.000138
1827	1.8169e+02	-7.2592	-36.846938	0.000314	3.142245	1.064621	0.000126
1828	1.8179e+02	-7.2094	-36.741972	0.000264	2.635431	0.892908	0.000105
1829	1.8189e+02	-7.1645	-36.600673	0.000355	3.547696	1.201992	0.000142
1830	1.8199e+02	-7.1228	-36.467447	0.000334	3.344971	1.133307	0.000134
1831	1.8209e+02	-7.0795	-36.301925	0.000416	4.155873	1.408048	0.000166
1832	1.8218e+02	-7.0458	-36.188885	0.000284	2.838157	0.961594	0.000114
1833	1.8228e+02	-7.0089	-36.071808	0.000294	2.939520	0.995936	0.000118
1834	1.8238e+02	-6.9640	-35.918397	0.000385	3.851784	1.305020	0.000154
1835	1.8248e+02	-6.9287	-35.736726	0.000456	4.561324	1.545418	0.000183
1836	1.8258e+02	-6.8966	-35.660020	0.000193	1.925892	0.652510	0.000077
1837	1.8268e+02	-6.8485	-35.462200	0.000497	4.966775	1.682789	0.000199
1838	1.8278e+02	-6.8052	-35.316863	0.000365	3.649059	1.236335	0.000146
1839	1.8288e+02	-6.7747	-35.135192	0.000456	4.561324	1.545418	0.000183
1840	1.8298e+02	-6.7298	-35.006004	0.000324	3.243608	1.098964	0.000130
1841	1.8308e+02	-6.6816	-34.856630	0.000375	3.750422	1.270677	0.000150
1842	1.8318e+02	-6.6544	-34.727442	0.000324	3.243608	1.098964	0.000130
1843	1.8328e+02	-6.6126	-34.642662	0.000213	2.128618	0.721195	0.000085
1844	1.8338e+02	-6.5725	-34.420619	0.000557	5.574951	1.888845	0.000223
1845	1.8348e+02	-6.5228	-34.323728	0.000243	2.432706	0.824223	0.000097
1846	1.8358e+02	-6.4891	-34.206651	0.000294	2.939520	0.995936	0.000118
1847	1.8368e+02	-6.4522	-34.069388	0.000345	3.446333	1.167649	0.000138
1848	1.8378e+02	-6.4169	-33.944237	0.000314	3.142245	1.064621	0.000126
1849	1.8388e+02	-6.3736	-33.847346	0.000243	2.432706	0.824223	0.000097
1850	1.8398e+02	-6.3447	-33.665675	0.000456	4.561324	1.545418	0.000183
1851	1.8407e+02	-6.3030	-33.508227	0.000395	3.953147	1.339363	0.000158
1852	1.8417e+02	-6.2565	-33.407298	0.000253	2.534069	0.858566	0.000101
1853	1.8427e+02	-6.2116	-33.233701	0.000436	4.358598	1.476733	0.000174
1854	1.8437e+02	-6.1763	-33.096439	0.000345	3.446333	1.167649	0.000138
1855	1.8447e+02	-6.1410	-32.886508	0.000527	5.270863	1.785817	0.000211
1856	1.8457e+02	-6.1041	-32.777505	0.000274	2.736794	0.927251	0.000110
1857	1.8467e+02	-6.0512	-32.603908	0.000436	4.358598	1.476733	0.000174
1858	1.8477e+02	-6.0175	-32.502980	0.000253	2.534069	0.858566	0.000101
1859	1.8487e+02	-5.9774	-32.317272	0.000466	4.662686	1.579761	0.000187
1860	1.8497e+02	-5.9453	-32.192120	0.000314	3.142245	1.064621	0.000126
1861	1.8507e+02	-5.8940	-32.030635	0.000405	4.054510	1.373705	0.000162
1862	1.8517e+02	-5.8619	-31.897409	0.000334	3.344971	1.133307	0.000134
1863	1.8527e+02	-5.8105	-31.788407	0.000274	2.736794	0.927251	0.000110
1864	1.8537e+02	-5.7768	-31.643070	0.000365	3.649059	1.236335	0.000146
1865	1.8547e+02	-5.7383	-31.469473	0.000436	4.358598	1.476733	0.000174
1866	1.8557e+02	-5.6950	-31.328173	0.000355	3.547696	1.201992	0.000142
1867	1.8567e+02	-5.6645	-31.231282	0.000243	2.432706	0.824223	0.000097
1868	1.8577e+02	-5.6132	-31.029425	0.000507	5.068137	1.717131	0.000203
1869	1.8587e+02	-5.5731	-30.892163	0.000345	3.446333	1.167649	0.000138
1870	1.8597e+02	-5.5394	-30.754900	0.000345	3.446333	1.167649	0.000138
1871	1.8606e+02	-5.4897	-30.601489	0.000385	3.851784	1.305020	0.000154
1872	1.8616e+02	-5.4512	-30.431929	0.000426	4.257235	1.442390	0.000170
1873	1.8626e+02	-5.4239	-30.266407	0.000416	4.155873	1.408048	0.000166
1874	1.8636e+02	-5.3806	-30.100884	0.000416	4.155873	1.408048	0.000166
1875	1.8646e+02	-5.3437	-29.943436	0.000395	3.953147	1.339363	0.000158
1876	1.8656e+02	-5.3020	-29.826359	0.000294	2.939520	0.995936	0.000118
1877	1.8666e+02	-5.2683	-29.652762	0.000436	4.358598	1.476733	0.000174
1878	1.8676e+02	-5.2266	-29.547796	0.000264	2.635431	0.892908	0.000105
1879	1.8686e+02	-5.1737	-29.333828	0.000537	5.372226	1.820159	0.000215
1880	1.8696e+02	-5.1287	-29.257123	0.000193	1.925892	0.652510	0.000077
1881	1.8706e+02	-5.1015	-29.087563	0.000426	4.257235	1.442390	0.000170
1882	1.8716e+02	-5.0517	-28.958375	0.000324	3.243608	1.098964	0.000130
1883	1.8726e+02	-5.0245	-28.829186	0.000324	3.243608	1.098964	0.000130
1884	1.8736e+02	-4.9779	-28.635404	0.000487	4.865412	1.648446	0.000195
1885	1.8746e+02	-4.9394	-28.494104	0.000355	3.547696	1.201992	0.000142
1886	1.8756e+02	-4.8961	-28.332619	0.000405	4.054510	1.373705	0.000162
1887	1.8766e+02	-4.8592	-28.187282	0.000365	3.649059	1.236335	0.000146
1888	1.8776e+02	-4.8207	-27.989462	0.000497	4.966775	1.682789	0.000199
1889	1.8786e+02	-4.7838	-27.807791	0.000456	4.561324	1.545418	0.000183
1890	1.8796e+02	-4.7389	-27.698788	0.000274	2.736794	0.927251	0.000110
1891	1.8806e+02	-4.7084	-27.521154	0.000446	4.459961	1.511076	0.000179
1892	1.8815e+02	-4.6571	-27.331409	0.000476	4.764049	1.614104	0.000191
1893	1.8825e+02	-4.6202	-27.173961	0.000395	3.953147	1.339363	0.000158
1894	1.8835e+02	-4.5785	-27.012475	0.000405	4.054510	1.373705	0.000162
1895	1.8845e+02	-4.5432	-26.891361	0.000304	3.040882	1.030279	0.000122
1896	1.8855e+02	-4.5015	-26.713727	0.000446	4.459961	1.511076	0.000179
1897	1.8865e+02	-4.4646	-26.576465	0.000345	3.446333	1.167649	0.000138
1898	1.8875e+02	-4.4213	-26.455350	0.000304	3.040882	1.030279	0.000122
1899	1.8885e+02	-4.3956	-26.261568	0.000487	4.865412	1.648446	0.000195
1900	1.8895e+02	-4.3394	-26.160640	0.000253	2.534069	0.858566	0.000101
1901	1.8905e+02	-4.3058	-25.958783	0.000507	5.068137	1.717131	0.000203
1902	1.8915e+02	-4.2673	-25.837669	0.000304	3.040882	1.030279	0.000122
1903	1.8925e+02	-4.2175	-25.631775	0.000517	5.169500	1.751474	0.000207
1904	1.8935e+02	-4.1983	-25.462215	0.000426	4.257235	1.442390	0.000170
1905	1.8945e+02	-4.1405	-25.337064	0.000314	3.142245	1.064621	0.000126
1906	1.8955e+02	-4.1036	-25.155393	0.000456	4.561324	1.545418	0.000183
1907	1.8965e+02	-4.0635	-25.001982	0.000385	3.851784	1.305020	0.000154
1908	1.8975e+02	-4.0298	-24.824348	0.000446	4.459961	1.511076	0.000179
1909	1.8985e+02	-3.9865	-24.606342	0.000547	5.473588	1.854502	0.000219
1910	1.8995e+02	-3.9560	-24.440820	0.000416	4.155873	1.408048	0.000166
1911	1.9004e+02	-3.9063	-24.307594	0.000334	3.344971	1.133307	0.000134
1912	1.9014e+02	-3.8678	-24.121886	0.000466	4.662686	1.579761	0.000187
1913	1.9024e+02	-3.8197	-23.988661	0.000334	3.344971	1.133307	0.000134
1914	1.9034e+02	-3.7892	-23.855435	0.000334	3.344971	1.133307	0.000134
1915	1.9044e+02	-3.7443	-23.685875	0.000426	4.257235	1.442390	0.000170
1916	1.9054e+02	-3.7026	-23.512279	0.000436	4.358598	1.476733	0.000174
1917	1.9064e+02	-3.6657	-23.354830	0.000395	3.953147	1.339363	0.000158
1918	1.9074e+02	-3.6256	-23.193345	0.000405	4.054510	1.373705	0.000162
1919	1.9084e+02	-3.5871	-23.039934	0.000385	3.851784	1.305020	0.000154
1920	1.9094e+02	-3.5502	-22.862300	0.000446	4.459961	1.511076	0.000179
1921	1.9104e+02	-3.5069	-22.668517	0.000487	4.865412	1.648446	0.000195
1922	1.9114e+02	-3.4732	-22.563552	0.000264	2.635431	0.892908	0.000105
1923	1.9124e+02	-3.4266	-22.373806	0.000476	4.764049	1.614104	0.000191
1924	1.9134e+02	-3.3801	-22.147727	0.000568	5.676314	1.923187	0.000227
1925	1.9144e+02	-3.3528	-21.974130	0.000436	4.358598	1.476733	0.000174
1926	1.9154e+02	-3.3079	-21.796496	0.000446	4.459961	1.511076	0.000179
1927	1.9164e+02	-3.2807	-21.647122	0.000375	3.750422	1.270677	0.000150
1928	1.9174e+02	-3.2293	-21.437191	0.000527	5.270863	1.785817	0.000211
1929	1.9184e+02	-3.1924	-21.271668	0.000416	4.155873	1.408048	0.000166
1930	1.9194e+02	-3.1427	-21.154591	0.000294	2.939520	0.995936	0.000118
1931	1.9203e+02	-3.1058	-20.989069	0.000416	4.155873	1.408048	0.000166
1932	1.9213e+02	-3.0753	-20.803360	0.000466	4.662686	1.579761	0.000187
1933	1.9223e+02	-3.0304	-20.666098	0.000345	3.446333	1.167649	0.000138
1934	1.9233e+02	-2.9871	-20.468278	0.000497	4.966775	1.682789	0.000199
1935	1.9243e+02	-2.9566	-20.306793	0.000405	4.054510	1.373705	0.000162
1936	1.9253e+02	-2.9005	-20.141270	0.000416	4.155873	1.408048	0.000166
1937	1.9263e+02	-2.8668	-19.903079	0.000598	5.980402	2.026215	0.000239
1938	1.9273e+02	-2.8283	-19.693148	0.000527	5.270863	1.785817	0.000211
1939	1.9283e+02	-2.7946	-19.580108	0.000284	2.838157	0.961594	0.000114
1940	1.9293e+02	-2.7464	-19.398437	0.000456	4.561324	1.545418	0.000183
1941	1.9303e+02	-2.7079	-19.176395	0.000557	5.574951	1.888845	0.000223
1942	1.9313e+02	-2.6646	-18.974538	0.000507	5.068137	1.717131	0.000203
1943	1.9323e+02	-2.6277	-18.760570	0.000537	5.372226	1.820159	0.000215
1944	1.9333e+02	-2.5940	-18.574862	0.000466	4.662686	1.579761	0.000187
1945	1.9343e+02	-2.5539	-18.409339	0.000416	4.155873	1.408048	0.000166
1946	1.9353e+02	-2.5058	-18.255928	0.000385	3.851784	1.305020	0.000154
1947	1.9363e+02	-2.4721	-18.082331	0.000436	4.358598	1.476733	0.000174
1948	1.9373e+02	-2.4384	-17.965254	0.000294	2.939520	0.995936	0.000118
1949	1.9383e+02	-2.3839	-17.783583	0.000456	4.561324	1.545418	0.000183
1950	1.9393e+02	-2.3454	-17.585763	0.000497	4.966775	1.682789	0.000199
1951	1.9403e+02	-2.3085	-17.367758	0.000547	5.473588	1.854502	0.000219
1952	1.9412e+02	-2.2716	-17.210310	0.000395	3.953147	1.339363	0.000158
1953	1.9422e+02	-2.2299	-17.044787	0.000416	4.155873	1.408048	0.000166
1954	1.9432e+02	-2.1914	-16.838893	0.000517	5.169500	1.751474	0.000207
1955	1.9442e+02	-2.1513	-16.669333	0.000426	4.257235	1.442390	0.000170
1956	1.9452e+02	-2.1080	-16.475551	0.000487	4.865412	1.648446	0.000195
1957	1.9462e+02	-2.0679	-16.261583	0.000537	5.372226	1.820159	0.000215
1958	1.9472e+02	-2.0245	-16.047615	0.000537	5.372226	1.820159	0.000215
1959	1.9482e+02	-1.9876	-15.861906	0.000466	4.662686	1.579761	0.000187
1960	1.9492e+02	-1.9524	-15.692347	0.000426	4.257235	1.442390	0.000170
1961	1.9502e+02	-1.9090	-15.518750	0.000436	4.358598	1.476733	0.000174
1962	1.9512e+02	-1.8673	-15.256336	0.000659	6.588579	2.232271	0.000264
1963	1.9522e+02	-1.8256	-15.110999	0.000365	3.649059	1.236335	0.000146
1964	1.9532e+02	-1.7887	-14.957588	0.000385	3.851784	1.305020	0.000154
1965	1.9542e+02	-1.7534	-14.747657	0.000527	5.270863	1.785817	0.000211
1966	1.9552e+02	-1.7117	-14.634617	0.000284	2.838157	0.961594	0.000114
1967	1.9562e+02	-1.6668	-14.376240	0.000649	6.487216	2.197928	0.000260
1968	1.9572e+02	-1.6203	-14.202644	0.000436	4.358598	1.476733	0.000174
1969	1.9582e+02	-1.5882	-14.004824	0.000497	4.966775	1.682789	0.000199
1970	1.9592e+02	-1.5529	-13.843338	0.000405	4.054510	1.373705	0.000162
1971	1.9601e+02	-1.5112	-13.633407	0.000527	5.270863	1.785817	0.000211
1972	1.9611e+02	-1.4759	-13.443662	0.000476	4.764049	1.614104	0.000191
1973	1.9621e+02	-1.4406	-13.249879	0.000487	4.865412	1.648446	0.000195
1974	1.9631e+02	-1.3909	-13.043986	0.000517	5.169500	1.751474	0.000207
1975	1.9641e+02	-1.3636	-12.817906	0.000568	5.676314	1.923187	0.000227
1976	1.9651e+02	-1.3155	-12.599901	0.000547	5.473588	1.854502	0.000219
1977	1.9661e+02	-1.2722	-12.394007	0.000517	5.169500	1.751474	0.000207
1978	1.9671e+02	-1.2304	-12.240596	0.000385	3.851784	1.305020	0.000154
1979	1.9681e+02	-1.2032	-12.026627	0.000537	5.372226	1.820159	0.000215
1980	1.9691e+02	-1.1599	-11.861105	0.000416	4.155873	1.408048	0.000166
1981	1.9701e+02	-1.1117	-11.667322	0.000487	4.865412	1.648446	0.000195
1982	1.9711e+02	-1.0780	-11.485651	0.000456	4.561324	1.545418	0.000183
1983	1.9721e+02	-1.0428	-11.287832	0.000497	4.966775	1.682789	0.000199
1984	1.9731e+02	-0.9882	-11.061752	0.000568	5.676314	1.923187	0.000227
1985	1.9741e+02	-0.9657	-10.932564	0.000324	3.243608	1.098964	0.000130
1986	1.9751e+02	-0.9064	-10.718595	0.000537	5.372226	1.820159	0.000215
1987	1.9761e+02	-0.8759	-10.488479	0.000578	5.777677	1.957530	0.000231
1988	1.9771e+02	-0.8310	-10.310845	0.000446	4.459961	1.511076	0.000179
1989	1.9781e+02	-0.8021	-10.072654	0.000598	5.980402	2.026215	0.000239
1990	1.9791e+02	-0.7572	-9.874834	0.000497	4.966775	1.682789	0.000199
1991	1.9800e+02	-0.7155	-9.693163	0.000456	4.561324	1.545418	0.000183
1992	1.9810e+02	-0.6738	-9.475158	0.000547	5.473588	1.854502	0.000219
1993	1.9820e+02	-0.6273	-9.257152	0.000547	5.473588	1.854502	0.000219
1994	1.9830e+02	-0.6016	-9.063370	0.000487	4.865412	1.648446	0.000195
1995	1.9840e+02	-0.5615	-8.817104	0.000618	6.183128	2.094900	0.000248
1996	1.9850e+02	-0.5182	-8.643508	0.000436	4.358598	1.476733	0.000174
1997	1.9860e+02	-0.4684	-8.433577	0.000527	5.270863	1.785817	0.000211
1998	1.9870e+02	-0.4283	-8.255943	0.000446	4.459961	1.511076	0.000179
1999	1.9880e+02	-0.4027	-8.078309	0.000446	4.459961	1.511076	0.000179
2000	1.9890e+02	-0.3642	-7.880489	0.000497	4.966775	1.682789	0.000199
2001	1.9900e+02	-0.3176	-7.654409	0.000568	5.676314	1.923187	0.000227
2002	1.9910e+02	-0.2759	-7.500998	0.000385	3.851784	1.305020	0.000154
2003	1.9920e+02	-0.2294	-7.250696	0.000628	6.284490	2.129243	0.000252
2004	1.9930e+02	-0.2005	-7.113433	0.000345	3.446333	1.167649	0.000138
2005	1.9940e+02	-0.1556	-6.867168	0.000618	6.183128	2.094900	0.000248
2006	1.9950e+02	-0.1155	-6.673385	0.000487	4.865412	1.648446	0.000195
2007	1.9960e+02	-0.0802	-6.443269	0.000578	5.777677	1.957530	0.000231
2008	1.9970e+02	-0.0465	-6.217189	0.000568	5.676314	1.923187	0.000227
2009	1.9980e+02	0.0032	-6.019369	0.000568	5.676314	1.923187	0.000199

Center data before PMax,+/-Pr and +/-Vc Calc.

PMax (uC/cm2):	7.04e+01
Pr (uC/cm2):	2.50e+00
-Pr (uC/cm2):	-6.02e+00
PLoss (uC/cm2):	-2.99e+00
Vc:	6.57e-01
-Vc:	-4.99e-01
C (Max-Eff) (nF):	3.52e-01
K (Eff):	1.19e+03
Vert. (+/-Pr) Shift (uC/cm2):	-1.76e+00
Horiz. Shift (+/-Vc):	7.88e-02
Offset (uC/cm2):	3.00e+00

A (Loop Area - uC/cm2·Volts):	3.67e-02



Hysteresis Version: 5.48.1 - Radiant Technologies, Inc., 1999 - 9/12/24

