»»»»»»»»»»»»»»»»»»»»»»»»»»»»»»»»»»»» Hysteresis ««««««««««««««««««««««««««««««««««««
»»»  Executed Version:	5.48.1
»»»  Vision Version:	5.48.4 (R)
»»»  Vision Compiled:	9/18/24
»»»  Driver Version:	5.47.0
»»»  Windows Version:	Windows 8 or 8.1
»»»  Processor Information:	x86 (AMD or Intel) - 32 Processors
»»»  Tester Name:	PMF21124-494 (100V)
»»»  Tester S/N:	PMF21124-494
»»»  Internal Amp Type:	100V RevK 270k
»»»  Internal Amp S/N:	iAB2-596/K     
»»»  Execution Count:	1
»»»»»»»»»»»»»»»»»»»»»»»»»»»»»»»»»»»»»»»»»»««««««««««««««««««««««««««««««««««««««««««

Stored:	6/13/2025 - 11:49:19
Configured:	06/13/25 10:12:58 AM
Executed:	06/13/25 11:48:49 AM

»»»»»»»»»»»»»»»»»»»»»»»»»»»»»»»»»»» Sample Info ««««««««««««««««««««««««««««««««««««
Sample Name:	
Lot Name:	
Wafer Name:	
Die Row/Column:	0/0
Capacitor Number:	0
Sample Area (cm2):	1.00e-04
Sample Thickness (microns):	3.00e-01

Amplifier:	Internal

»»»»»»»»»»»»»»»»»»»»»»»»»»»»»»»»»»» Tester Info «««««««««««««««««««««««««««««««««««
Tester Name:	PMF21124-494 (100V)
Tester Serial Number:	PMF21124-494
Return Signal Amp. Level:	0.19 [Index: 3]

»»»»»»»»»»»»»»»»»»»»»»»»»»»»»»»» Hysteresis Info ««««««««««««««««««««««««««««««««««
Task Name:	Hyst-1704
Volts:	20.00
Field:	666.67 (kV/cm)
DCBias:	0.00
DCField:	0.00 (kV/cm)
Hysteresis Period (ms):	2.00e+02
Preset:	Enabled
Preset Delay (ms):	1.00e+03
Profile:	Standard Bipolar

»»»»»»»»»»»»»»»»»»»»»»»»»»»»»»»»»»»»»» Data «««««««««««««««««««««««««««««««««««««««
Points:	2009

Valid Data

Point	Time (ms)	Drive Voltage	Measured Polarization (uC/cm2)	Capacitance (uF)	Normalized Capacitance (uF/cm2)	Dielectric Constant	Instantaneous Current (mA)
   1	0.0000e+00	0.0032	-2.775531	0.000253	2.534069	0.858566	0.000101
   2	9.9500e-02	0.0289	-2.674602	0.000253	2.534069	0.858566	0.000101
   3	1.9900e-01	0.0674	-2.492931	0.000456	4.561324	1.545418	0.000183
   4	2.9850e-01	0.1107	-2.299149	0.000487	4.865412	1.648446	0.000195
   5	3.9800e-01	0.1588	-2.109403	0.000476	4.764049	1.614104	0.000191
   6	4.9750e-01	0.1973	-1.988289	0.000304	3.040882	1.030279	0.000122
   7	5.9700e-01	0.2310	-1.818730	0.000426	4.257235	1.442390	0.000170
   8	6.9650e-01	0.2679	-1.608799	0.000527	5.270863	1.785817	0.000211
   9	7.9600e-01	0.3048	-1.487685	0.000304	3.040882	1.030279	0.000122
  10	8.9550e-01	0.3577	-1.334273	0.000385	3.851784	1.305020	0.000154
  11	9.9500e-01	0.3850	-1.128379	0.000517	5.169500	1.751474	0.000207
  12	1.0945e+00	0.4267	-0.966894	0.000405	4.054510	1.373705	0.000162
  13	1.1940e+00	0.4732	-0.801371	0.000416	4.155873	1.408048	0.000166
  14	1.2935e+00	0.5069	-0.635849	0.000416	4.155873	1.408048	0.000166
  15	1.3930e+00	0.5503	-0.446103	0.000476	4.764049	1.614104	0.000191
  16	1.4925e+00	0.5855	-0.300767	0.000365	3.649059	1.236335	0.000146
  17	1.5920e+00	0.6289	-0.127170	0.000436	4.358598	1.476733	0.000174
  18	1.6915e+00	0.6786	0.046427	0.000436	4.358598	1.476733	0.000174
  19	1.7910e+00	0.7155	0.232135	0.000466	4.662686	1.579761	0.000187
  20	1.8905e+00	0.7572	0.393621	0.000405	4.054510	1.373705	0.000162
  21	1.9900e+00	0.7925	0.534920	0.000355	3.547696	1.201992	0.000142
  22	2.0895e+00	0.8326	0.740814	0.000517	5.169500	1.751474	0.000207
  23	2.1890e+00	0.8631	0.886151	0.000365	3.649059	1.236335	0.000146
  24	2.2885e+00	0.9144	1.092045	0.000517	5.169500	1.751474	0.000207
  25	2.3880e+00	0.9449	1.225271	0.000334	3.344971	1.133307	0.000134
  26	2.4875e+00	0.9914	1.419053	0.000487	4.865412	1.648446	0.000195
  27	2.5870e+00	1.0283	1.588613	0.000426	4.257235	1.442390	0.000170
  28	2.6865e+00	1.0652	1.758173	0.000426	4.257235	1.442390	0.000170
  29	2.7860e+00	1.1085	1.951955	0.000487	4.865412	1.648446	0.000195
  30	2.8855e+00	1.1438	2.093255	0.000355	3.547696	1.201992	0.000142
  31	2.9850e+00	1.1919	2.295112	0.000507	5.068137	1.717131	0.000203
  32	3.0845e+00	1.2240	2.456597	0.000405	4.054510	1.373705	0.000162
  33	3.1840e+00	1.2689	2.610008	0.000385	3.851784	1.305020	0.000154
  34	3.2835e+00	1.3026	2.779568	0.000426	4.257235	1.442390	0.000170
  35	3.3830e+00	1.3379	2.949128	0.000426	4.257235	1.442390	0.000170
  36	3.4825e+00	1.3941	3.126762	0.000446	4.459961	1.511076	0.000179
  37	3.5820e+00	1.4230	3.300358	0.000436	4.358598	1.476733	0.000174
  38	3.6815e+00	1.4695	3.449732	0.000375	3.750422	1.270677	0.000150
  39	3.7810e+00	1.5048	3.647552	0.000497	4.966775	1.682789	0.000199
  40	3.8805e+00	1.5481	3.805000	0.000395	3.953147	1.339363	0.000158
  41	3.9800e+00	1.5786	3.970523	0.000416	4.155873	1.408048	0.000166
  42	4.0795e+00	1.6331	4.099711	0.000324	3.243608	1.098964	0.000130
  43	4.1790e+00	1.6732	4.325791	0.000568	5.676314	1.923187	0.000227
  44	4.2785e+00	1.7005	4.438831	0.000284	2.838157	0.961594	0.000114
  45	4.3780e+00	1.7598	4.656836	0.000547	5.473588	1.854502	0.000219
  46	4.4775e+00	1.7887	4.810247	0.000385	3.851784	1.305020	0.000154
  47	4.5770e+00	1.8256	4.939436	0.000324	3.243608	1.098964	0.000130
  48	4.6765e+00	1.8770	5.121107	0.000456	4.561324	1.545418	0.000183
  49	4.7760e+00	1.9042	5.298741	0.000446	4.459961	1.511076	0.000179
  50	4.8755e+00	1.9491	5.476375	0.000446	4.459961	1.511076	0.000179
  51	4.9750e+00	1.9925	5.629786	0.000385	3.851784	1.305020	0.000154
  52	5.0745e+00	2.0229	5.811457	0.000456	4.561324	1.545418	0.000183
  53	5.1740e+00	2.0614	5.968905	0.000395	3.953147	1.339363	0.000158
  54	5.2735e+00	2.1080	6.150576	0.000456	4.561324	1.545418	0.000183
  55	5.3730e+00	2.1497	6.336285	0.000466	4.662686	1.579761	0.000187
  56	5.4725e+00	2.1930	6.465473	0.000324	3.243608	1.098964	0.000130
  57	5.5720e+00	2.2315	6.614847	0.000375	3.750422	1.270677	0.000150
  58	5.6715e+00	2.2588	6.832852	0.000547	5.473588	1.854502	0.000219
  59	5.7710e+00	2.3021	6.986263	0.000385	3.851784	1.305020	0.000154
  60	5.8705e+00	2.3486	7.095266	0.000274	2.736794	0.927251	0.000110
  61	5.9700e+00	2.3887	7.289049	0.000487	4.865412	1.648446	0.000195
  62	6.0695e+00	2.4384	7.470720	0.000456	4.561324	1.545418	0.000183
  63	6.1690e+00	2.4641	7.628168	0.000395	3.953147	1.339363	0.000158
  64	6.2685e+00	2.5058	7.817913	0.000476	4.764049	1.614104	0.000191
  65	6.3680e+00	2.5427	7.963250	0.000365	3.649059	1.236335	0.000146
  66	6.4675e+00	2.5860	8.132810	0.000426	4.257235	1.442390	0.000170
  67	6.5670e+00	2.6165	8.282184	0.000375	3.750422	1.270677	0.000150
  68	6.6665e+00	2.6598	8.411372	0.000324	3.243608	1.098964	0.000130
  69	6.7660e+00	2.7079	8.568821	0.000395	3.953147	1.339363	0.000158
  70	6.8655e+00	2.7529	8.774715	0.000517	5.169500	1.751474	0.000207
  71	6.9650e+00	2.7930	8.936200	0.000405	4.054510	1.373705	0.000162
  72	7.0645e+00	2.8299	9.045203	0.000274	2.736794	0.927251	0.000110
  73	7.1640e+00	2.8636	9.186502	0.000355	3.547696	1.201992	0.000142
  74	7.2635e+00	2.8972	9.368173	0.000456	4.561324	1.545418	0.000183
  75	7.3630e+00	2.9325	9.481213	0.000284	2.838157	0.961594	0.000114
  76	7.4625e+00	2.9839	9.658847	0.000446	4.459961	1.511076	0.000179
  77	7.5620e+00	3.0240	9.792073	0.000334	3.344971	1.133307	0.000134
  78	7.6615e+00	3.0593	9.953558	0.000405	4.054510	1.373705	0.000162
  79	7.7610e+00	3.0946	10.090821	0.000345	3.446333	1.167649	0.000138
  80	7.8605e+00	3.1443	10.220009	0.000324	3.243608	1.098964	0.000130
  81	7.9600e+00	3.1748	10.304789	0.000213	2.128618	0.721195	0.000085
  82	8.0595e+00	3.2261	10.389569	0.000213	2.128618	0.721195	0.000085
  83	8.1590e+00	3.2614	10.530869	0.000355	3.547696	1.201992	0.000142
  84	8.2585e+00	3.3015	10.656020	0.000314	3.142245	1.064621	0.000126
  85	8.3580e+00	3.3368	10.756948	0.000253	2.534069	0.858566	0.000101
  86	8.4575e+00	3.3817	10.898248	0.000355	3.547696	1.201992	0.000142
  87	8.5570e+00	3.4266	11.047622	0.000375	3.750422	1.270677	0.000150
  88	8.6565e+00	3.4539	11.136439	0.000223	2.229980	0.755538	0.000089
  89	8.7560e+00	3.5020	11.241404	0.000264	2.635431	0.892908	0.000105
  90	8.8555e+00	3.5438	11.386741	0.000365	3.649059	1.236335	0.000146
  91	8.9550e+00	3.5774	11.507855	0.000304	3.040882	1.030279	0.000122
  92	9.0545e+00	3.6208	11.641081	0.000334	3.344971	1.133307	0.000134
  93	9.1540e+00	3.6609	11.778344	0.000345	3.446333	1.167649	0.000138
  94	9.2535e+00	3.7010	11.855049	0.000193	1.925892	0.652510	0.000077
  95	9.3530e+00	3.7443	11.943866	0.000223	2.229980	0.755538	0.000089
  96	9.4525e+00	3.7844	12.056906	0.000284	2.838157	0.961594	0.000114
  97	9.5520e+00	3.8133	12.117463	0.000152	1.520441	0.515139	0.000061
  98	9.6515e+00	3.8630	12.190131	0.000182	1.824529	0.618167	0.000073
  99	9.7510e+00	3.8935	12.258763	0.000172	1.723167	0.583825	0.000069
 100	9.8505e+00	3.9448	12.323357	0.000162	1.621804	0.549482	0.000065
 101	9.9500e+00	3.9721	12.363728	0.000101	1.013627	0.343426	0.000041
 102	1.0050e+01	4.0266	12.420248	0.000142	1.419078	0.480797	0.000057
 103	1.0149e+01	4.0587	12.452545	0.000081	0.810902	0.274741	0.000032
 104	1.0248e+01	4.0908	12.452545	0.000000	0.000000	0.000000	0.000000
 105	1.0348e+01	4.1437	12.509065	0.000142	1.419078	0.480797	0.000057
 106	1.0447e+01	4.1838	12.686699	0.000446	4.459961	1.511076	0.000179
 107	1.0547e+01	4.2159	12.888556	0.000507	5.068137	1.717131	0.000203
 108	1.0646e+01	4.2560	13.118673	0.000578	5.777677	1.957530	0.000231
 109	1.0746e+01	4.2993	13.368975	0.000628	6.284490	2.129243	0.000252
 110	1.0845e+01	4.3411	13.611203	0.000608	6.081765	2.060558	0.000243
 111	1.0945e+01	4.3667	13.849394	0.000598	5.980402	2.026215	0.000239
 112	1.1044e+01	4.4229	14.039140	0.000476	4.764049	1.614104	0.000191
 113	1.1144e+01	4.4534	14.176402	0.000345	3.446333	1.167649	0.000138
 114	1.1243e+01	4.4935	14.354036	0.000446	4.459961	1.511076	0.000179
 115	1.1343e+01	4.5336	14.459002	0.000264	2.635431	0.892908	0.000105
 116	1.1443e+01	4.5769	14.596264	0.000345	3.446333	1.167649	0.000138
 117	1.1542e+01	4.6122	14.822344	0.000568	5.676314	1.923187	0.000227
 118	1.1642e+01	4.6587	15.209909	0.000973	9.730824	3.296892	0.000390
 119	1.1741e+01	4.6988	15.536917	0.000821	8.210383	2.781753	0.000329
 120	1.1841e+01	4.7325	15.734737	0.000497	4.966775	1.682789	0.000199
 121	1.1940e+01	4.7710	15.956779	0.000557	5.574951	1.888845	0.000223
 122	1.2040e+01	4.8111	16.106153	0.000375	3.750422	1.270677	0.000150
 123	1.2139e+01	4.8480	16.247453	0.000355	3.547696	1.201992	0.000142
 124	1.2239e+01	4.8977	16.291861	0.000111	1.114990	0.377769	0.000045
 125	1.2338e+01	4.9330	16.372604	0.000203	2.027255	0.686853	0.000081
 126	1.2438e+01	4.9731	16.433161	0.000152	1.520441	0.515139	0.000061
 127	1.2537e+01	5.0052	16.582535	0.000375	3.750422	1.270677	0.000150
 128	1.2636e+01	5.0581	16.748058	0.000416	4.155873	1.408048	0.000166
 129	1.2736e+01	5.0934	17.083140	0.000841	8.413108	2.850438	0.000337
 130	1.2835e+01	5.1368	17.926901	0.002118	21.184814	7.177609	0.000848
 131	1.2935e+01	5.1801	18.383098	0.001145	11.453990	3.880717	0.000458
 132	1.3034e+01	5.2154	18.641474	0.000649	6.487216	2.197928	0.000260
 133	1.3134e+01	5.2490	18.811034	0.000426	4.257235	1.442390	0.000170
 134	1.3233e+01	5.2956	18.968482	0.000395	3.953147	1.339363	0.000158
 135	1.3333e+01	5.3325	19.109782	0.000355	3.547696	1.201992	0.000142
 136	1.3432e+01	5.3710	19.283379	0.000436	4.358598	1.476733	0.000174
 137	1.3532e+01	5.4095	19.481199	0.000497	4.966775	1.682789	0.000199
 138	1.3632e+01	5.4448	19.578090	0.000243	2.432706	0.824223	0.000097
 139	1.3731e+01	5.4913	19.775909	0.000497	4.966775	1.682789	0.000199
 140	1.3831e+01	5.5394	19.941432	0.000416	4.155873	1.408048	0.000166
 141	1.3930e+01	5.5731	20.094843	0.000385	3.851784	1.305020	0.000154
 142	1.4030e+01	5.6132	20.224031	0.000324	3.243608	1.098964	0.000130
 143	1.4129e+01	5.6549	20.381480	0.000395	3.953147	1.339363	0.000158
 144	1.4229e+01	5.6982	20.563151	0.000456	4.561324	1.545418	0.000183
 145	1.4328e+01	5.7287	20.736748	0.000436	4.358598	1.476733	0.000174
 146	1.4428e+01	5.7736	20.869973	0.000334	3.344971	1.133307	0.000134
 147	1.4527e+01	5.8073	21.051644	0.000456	4.561324	1.545418	0.000183
 148	1.4627e+01	5.8522	21.188907	0.000345	3.446333	1.167649	0.000138
 149	1.4726e+01	5.8843	21.374615	0.000466	4.662686	1.579761	0.000187
 150	1.4825e+01	5.9276	21.503804	0.000324	3.243608	1.098964	0.000130
 151	1.4925e+01	5.9677	21.665289	0.000405	4.054510	1.373705	0.000162
 152	1.5024e+01	6.0127	21.806589	0.000355	3.547696	1.201992	0.000142
 153	1.5124e+01	6.0528	21.976148	0.000426	4.257235	1.442390	0.000170
 154	1.5223e+01	6.0881	22.093225	0.000294	2.939520	0.995936	0.000118
 155	1.5323e+01	6.1394	22.299119	0.000517	5.169500	1.751474	0.000207
 156	1.5422e+01	6.1651	22.476753	0.000446	4.459961	1.511076	0.000179
 157	1.5522e+01	6.2084	22.593830	0.000294	2.939520	0.995936	0.000118
 158	1.5621e+01	6.2501	22.783576	0.000476	4.764049	1.614104	0.000191
 159	1.5721e+01	6.2950	22.936987	0.000385	3.851784	1.305020	0.000154
 160	1.5820e+01	6.3287	23.094435	0.000395	3.953147	1.339363	0.000158
 161	1.5920e+01	6.3640	23.199401	0.000264	2.635431	0.892908	0.000105
 162	1.6020e+01	6.4153	23.381072	0.000456	4.561324	1.545418	0.000183
 163	1.6119e+01	6.4602	23.562743	0.000456	4.561324	1.545418	0.000183
 164	1.6218e+01	6.4923	23.663671	0.000253	2.534069	0.858566	0.000101
 165	1.6318e+01	6.5292	23.853417	0.000476	4.764049	1.614104	0.000191
 166	1.6418e+01	6.5613	23.990679	0.000345	3.446333	1.167649	0.000138
 167	1.6517e+01	6.6094	24.152165	0.000405	4.054510	1.373705	0.000162
 168	1.6616e+01	6.6399	24.293464	0.000355	3.547696	1.201992	0.000142
 169	1.6716e+01	6.6784	24.458987	0.000416	4.155873	1.408048	0.000166
 170	1.6816e+01	6.7185	24.620472	0.000405	4.054510	1.373705	0.000162
 171	1.6915e+01	6.7731	24.757735	0.000345	3.446333	1.167649	0.000138
 172	1.7015e+01	6.8052	24.927295	0.000426	4.257235	1.442390	0.000170
 173	1.7114e+01	6.8453	24.991889	0.000162	1.621804	0.549482	0.000065
 174	1.7213e+01	6.8870	25.213931	0.000557	5.574951	1.888845	0.000223
 175	1.7313e+01	6.9207	25.371380	0.000395	3.953147	1.339363	0.000158
 176	1.7413e+01	6.9704	25.508642	0.000345	3.446333	1.167649	0.000138
 177	1.7512e+01	7.0041	25.645905	0.000345	3.446333	1.167649	0.000138
 178	1.7611e+01	7.0281	25.823539	0.000446	4.459961	1.511076	0.000179
 179	1.7711e+01	7.0907	25.968876	0.000365	3.649059	1.236335	0.000146
 180	1.7811e+01	7.1260	26.134398	0.000416	4.155873	1.408048	0.000166
 181	1.7910e+01	7.1661	26.247438	0.000284	2.838157	0.961594	0.000114
 182	1.8009e+01	7.1982	26.412961	0.000416	4.155873	1.408048	0.000166
 183	1.8109e+01	7.2511	26.590595	0.000446	4.459961	1.511076	0.000179
 184	1.8209e+01	7.2864	26.715746	0.000314	3.142245	1.064621	0.000126
 185	1.8308e+01	7.3249	26.869157	0.000385	3.851784	1.305020	0.000154
 186	1.8407e+01	7.3554	27.002382	0.000334	3.344971	1.133307	0.000134
 187	1.8507e+01	7.4083	27.143682	0.000355	3.547696	1.201992	0.000142
 188	1.8607e+01	7.4533	27.317279	0.000436	4.358598	1.476733	0.000174
 189	1.8706e+01	7.4854	27.478764	0.000405	4.054510	1.373705	0.000162
 190	1.8805e+01	7.5206	27.636213	0.000395	3.953147	1.339363	0.000158
 191	1.8905e+01	7.5607	27.741178	0.000264	2.635431	0.892908	0.000105
 192	1.9005e+01	7.6105	27.910738	0.000426	4.257235	1.442390	0.000170
 193	1.9104e+01	7.6378	28.043963	0.000334	3.344971	1.133307	0.000134
 194	1.9203e+01	7.6843	28.205449	0.000405	4.054510	1.373705	0.000162
 195	1.9303e+01	7.7292	28.326563	0.000304	3.040882	1.030279	0.000122
 196	1.9402e+01	7.7645	28.532457	0.000517	5.169500	1.751474	0.000207
 197	1.9502e+01	7.8126	28.685868	0.000385	3.851784	1.305020	0.000154
 198	1.9602e+01	7.8463	28.774685	0.000223	2.229980	0.755538	0.000089
 199	1.9701e+01	7.8768	28.960393	0.000466	4.662686	1.579761	0.000187
 200	1.9800e+01	7.9233	29.105730	0.000365	3.649059	1.236335	0.000146
 201	1.9900e+01	7.9618	29.271253	0.000416	4.155873	1.408048	0.000166
 202	2.0000e+01	8.0051	29.396404	0.000314	3.142245	1.064621	0.000126
 203	2.0099e+01	8.0404	29.557889	0.000405	4.054510	1.373705	0.000162
 204	2.0198e+01	8.0837	29.666892	0.000274	2.736794	0.927251	0.000110
 205	2.0298e+01	8.1254	29.816266	0.000375	3.750422	1.270677	0.000150
 206	2.0398e+01	8.1591	29.969677	0.000385	3.851784	1.305020	0.000154
 207	2.0497e+01	8.1960	30.127125	0.000395	3.953147	1.339363	0.000158
 208	2.0596e+01	8.2442	30.256314	0.000324	3.243608	1.098964	0.000130
 209	2.0696e+01	8.2794	30.413762	0.000395	3.953147	1.339363	0.000158
 210	2.0796e+01	8.3163	30.555062	0.000355	3.547696	1.201992	0.000142
 211	2.0895e+01	8.3629	30.660027	0.000264	2.635431	0.892908	0.000105
 212	2.0994e+01	8.3998	30.793253	0.000334	3.344971	1.133307	0.000134
 213	2.1094e+01	8.4335	30.950701	0.000395	3.953147	1.339363	0.000158
 214	2.1194e+01	8.4736	31.087964	0.000345	3.446333	1.167649	0.000138
 215	2.1293e+01	8.5249	31.217152	0.000324	3.243608	1.098964	0.000130
 216	2.1392e+01	8.5602	31.358452	0.000355	3.547696	1.201992	0.000142
 217	2.1492e+01	8.5907	31.507826	0.000375	3.750422	1.270677	0.000150
 218	2.1591e+01	8.6340	31.673348	0.000416	4.155873	1.408048	0.000166
 219	2.1691e+01	8.6821	31.794463	0.000304	3.040882	1.030279	0.000122
 220	2.1791e+01	8.7238	31.964022	0.000426	4.257235	1.442390	0.000170
 221	2.1890e+01	8.7607	32.113396	0.000375	3.750422	1.270677	0.000150
 222	2.1989e+01	8.7960	32.234510	0.000304	3.040882	1.030279	0.000122
 223	2.2089e+01	8.8361	32.379847	0.000365	3.649059	1.236335	0.000146
 224	2.2189e+01	8.8810	32.509036	0.000324	3.243608	1.098964	0.000130
 225	2.2288e+01	8.9163	32.674558	0.000416	4.155873	1.408048	0.000166
 226	2.2387e+01	8.9612	32.791635	0.000294	2.939520	0.995936	0.000118
 227	2.2487e+01	8.9981	32.989455	0.000497	4.966775	1.682789	0.000199
 228	2.2587e+01	9.0399	33.086346	0.000243	2.432706	0.824223	0.000097
 229	2.2686e+01	9.0864	33.219571	0.000334	3.344971	1.133307	0.000134
 230	2.2785e+01	9.1136	33.364908	0.000365	3.649059	1.236335	0.000146
 231	2.2885e+01	9.1538	33.498134	0.000334	3.344971	1.133307	0.000134
 232	2.2985e+01	9.2019	33.599062	0.000253	2.534069	0.858566	0.000101
 233	2.3084e+01	9.2404	33.748436	0.000375	3.750422	1.270677	0.000150
 234	2.3183e+01	9.2789	33.922033	0.000436	4.358598	1.476733	0.000174
 235	2.3283e+01	9.3126	34.031036	0.000274	2.736794	0.927251	0.000110
 236	2.3383e+01	9.3607	34.180410	0.000375	3.750422	1.270677	0.000150
 237	2.3482e+01	9.3944	34.305561	0.000314	3.142245	1.064621	0.000126
 238	2.3581e+01	9.4425	34.442824	0.000345	3.446333	1.167649	0.000138
 239	2.3681e+01	9.4682	34.551826	0.000274	2.736794	0.927251	0.000110
 240	2.3780e+01	9.5211	34.729460	0.000446	4.459961	1.511076	0.000179
 241	2.3880e+01	9.5500	34.862686	0.000334	3.344971	1.133307	0.000134
 242	2.3980e+01	9.5965	34.979763	0.000294	2.939520	0.995936	0.000118
 243	2.4079e+01	9.6398	35.133174	0.000385	3.851784	1.305020	0.000154
 244	2.4178e+01	9.6719	35.286585	0.000385	3.851784	1.305020	0.000154
 245	2.4278e+01	9.7217	35.387513	0.000253	2.534069	0.858566	0.000101
 246	2.4378e+01	9.7505	35.557073	0.000426	4.257235	1.442390	0.000170
 247	2.4477e+01	9.7922	35.621667	0.000162	1.621804	0.549482	0.000065
 248	2.4576e+01	9.8339	35.791227	0.000426	4.257235	1.442390	0.000170
 249	2.4676e+01	9.8692	35.932527	0.000355	3.547696	1.201992	0.000142
 250	2.4776e+01	9.9126	36.049604	0.000294	2.939520	0.995936	0.000118
 251	2.4875e+01	9.9591	36.194940	0.000365	3.649059	1.236335	0.000146
 252	2.4974e+01	9.9928	36.336240	0.000355	3.547696	1.201992	0.000142
 253	2.5074e+01	10.0393	36.481577	0.000365	3.649059	1.236335	0.000146
 254	2.5174e+01	10.0746	36.602691	0.000304	3.040882	1.030279	0.000122
 255	2.5273e+01	10.1211	36.776288	0.000436	4.358598	1.476733	0.000174
 256	2.5372e+01	10.1644	36.885291	0.000274	2.736794	0.927251	0.000110
 257	2.5472e+01	10.2013	37.034665	0.000375	3.750422	1.270677	0.000150
 258	2.5572e+01	10.2318	37.139630	0.000264	2.635431	0.892908	0.000105
 259	2.5671e+01	10.2703	37.293041	0.000385	3.851784	1.305020	0.000154
 260	2.5770e+01	10.3120	37.418193	0.000314	3.142245	1.064621	0.000126
 261	2.5870e+01	10.3505	37.555455	0.000345	3.446333	1.167649	0.000138
 262	2.5970e+01	10.3890	37.688681	0.000334	3.344971	1.133307	0.000134
 263	2.6069e+01	10.4323	37.813832	0.000314	3.142245	1.064621	0.000126
 264	2.6169e+01	10.4724	37.955132	0.000355	3.547696	1.201992	0.000142
 265	2.6268e+01	10.5077	38.076246	0.000304	3.040882	1.030279	0.000122
 266	2.6367e+01	10.5478	38.229657	0.000385	3.851784	1.305020	0.000154
 267	2.6467e+01	10.5895	38.354808	0.000314	3.142245	1.064621	0.000126
 268	2.6567e+01	10.6393	38.492071	0.000345	3.446333	1.167649	0.000138
 269	2.6666e+01	10.6681	38.633370	0.000355	3.547696	1.201992	0.000142
 270	2.6765e+01	10.7083	38.750447	0.000294	2.939520	0.995936	0.000118
 271	2.6865e+01	10.7548	38.847339	0.000243	2.432706	0.824223	0.000097
 272	2.6965e+01	10.8013	39.008824	0.000405	4.054510	1.373705	0.000162
 273	2.7064e+01	10.8366	39.146087	0.000345	3.446333	1.167649	0.000138
 274	2.7163e+01	10.8783	39.263164	0.000294	2.939520	0.995936	0.000118
 275	2.7263e+01	10.9040	39.412538	0.000375	3.750422	1.270677	0.000150
 276	2.7363e+01	10.9473	39.541726	0.000324	3.243608	1.098964	0.000130
 277	2.7462e+01	10.9954	39.670914	0.000324	3.243608	1.098964	0.000130
 278	2.7561e+01	11.0323	39.787991	0.000294	2.939520	0.995936	0.000118
 279	2.7661e+01	11.0708	39.953514	0.000416	4.155873	1.408048	0.000166
 280	2.7761e+01	11.1141	40.094814	0.000355	3.547696	1.201992	0.000142
 281	2.7860e+01	11.1414	40.183631	0.000223	2.229980	0.755538	0.000089
 282	2.7959e+01	11.1847	40.308782	0.000314	3.142245	1.064621	0.000126
 283	2.8059e+01	11.2232	40.486416	0.000446	4.459961	1.511076	0.000179
 284	2.8159e+01	11.2697	40.559084	0.000182	1.824529	0.618167	0.000073
 285	2.8258e+01	11.3066	40.736718	0.000446	4.459961	1.511076	0.000179
 286	2.8358e+01	11.3451	40.825535	0.000223	2.229980	0.755538	0.000089
 287	2.8457e+01	11.3884	40.991058	0.000416	4.155873	1.408048	0.000166
 288	2.8556e+01	11.4286	41.096023	0.000264	2.635431	0.892908	0.000105
 289	2.8656e+01	11.4687	41.229249	0.000334	3.344971	1.133307	0.000134
 290	2.8756e+01	11.5056	41.342289	0.000284	2.838157	0.961594	0.000114
 291	2.8855e+01	11.5489	41.507811	0.000416	4.155873	1.408048	0.000166
 292	2.8954e+01	11.5874	41.649111	0.000355	3.547696	1.201992	0.000142
 293	2.9054e+01	11.6179	41.778299	0.000324	3.243608	1.098964	0.000130
 294	2.9154e+01	11.6660	41.923636	0.000365	3.649059	1.236335	0.000146
 295	2.9253e+01	11.7173	42.008416	0.000213	2.128618	0.721195	0.000085
 296	2.9352e+01	11.7462	42.169901	0.000405	4.054510	1.373705	0.000162
 297	2.9452e+01	11.7783	42.315238	0.000365	3.649059	1.236335	0.000146
 298	2.9552e+01	11.8360	42.456538	0.000355	3.547696	1.201992	0.000142
 299	2.9651e+01	11.8761	42.557466	0.000253	2.534069	0.858566	0.000101
 300	2.9750e+01	11.9098	42.666469	0.000274	2.736794	0.927251	0.000110
 301	2.9850e+01	11.9419	42.799695	0.000334	3.344971	1.133307	0.000134
 302	2.9950e+01	11.9868	42.932920	0.000334	3.344971	1.133307	0.000134
 303	3.0049e+01	12.0285	43.090368	0.000395	3.953147	1.339363	0.000158
 304	3.0148e+01	12.0606	43.199371	0.000274	2.736794	0.927251	0.000110
 305	3.0248e+01	12.1120	43.308374	0.000274	2.736794	0.927251	0.000110
 306	3.0348e+01	12.1408	43.457748	0.000375	3.750422	1.270677	0.000150
 307	3.0447e+01	12.1809	43.595010	0.000345	3.446333	1.167649	0.000138
 308	3.0547e+01	12.2259	43.724199	0.000324	3.243608	1.098964	0.000130
 309	3.0646e+01	12.2724	43.833201	0.000274	2.736794	0.927251	0.000110
 310	3.0745e+01	12.3045	43.974501	0.000355	3.547696	1.201992	0.000142
 311	3.0845e+01	12.3398	44.091578	0.000294	2.939520	0.995936	0.000118
 312	3.0945e+01	12.3911	44.220766	0.000324	3.243608	1.098964	0.000130
 313	3.1044e+01	12.4248	44.358029	0.000345	3.446333	1.167649	0.000138
 314	3.1143e+01	12.4745	44.483180	0.000314	3.142245	1.064621	0.000126
 315	3.1243e+01	12.4938	44.620443	0.000345	3.446333	1.167649	0.000138
 316	3.1343e+01	12.5531	44.765780	0.000365	3.649059	1.236335	0.000146
 317	3.1442e+01	12.5852	44.826337	0.000152	1.520441	0.515139	0.000061
 318	3.1541e+01	12.6189	45.040305	0.000537	5.372226	1.820159	0.000215
 319	3.1641e+01	12.6718	45.133159	0.000233	2.331343	0.789880	0.000093
 320	3.1741e+01	12.7007	45.266384	0.000334	3.344971	1.133307	0.000134
 321	3.1840e+01	12.7504	45.403647	0.000345	3.446333	1.167649	0.000138
 322	3.1939e+01	12.7761	45.520724	0.000294	2.939520	0.995936	0.000118
 323	3.2039e+01	12.8242	45.670098	0.000375	3.750422	1.270677	0.000150
 324	3.2139e+01	12.8740	45.783138	0.000284	2.838157	0.961594	0.000114
 325	3.2238e+01	12.9125	45.867918	0.000213	2.128618	0.721195	0.000085
 326	3.2337e+01	12.9478	46.017292	0.000375	3.750422	1.270677	0.000150
 327	3.2437e+01	12.9734	46.138406	0.000304	3.040882	1.030279	0.000122
 328	3.2536e+01	13.0183	46.275668	0.000345	3.446333	1.167649	0.000138
 329	3.2636e+01	13.0552	46.408894	0.000334	3.344971	1.133307	0.000134
 330	3.2736e+01	13.1034	46.525971	0.000294	2.939520	0.995936	0.000118
 331	3.2835e+01	13.1371	46.651122	0.000314	3.142245	1.064621	0.000126
 332	3.2934e+01	13.1900	46.788385	0.000345	3.446333	1.167649	0.000138
 333	3.3034e+01	13.2205	46.897387	0.000274	2.736794	0.927251	0.000110
 334	3.3133e+01	13.2542	47.022539	0.000314	3.142245	1.064621	0.000126
 335	3.3233e+01	13.2975	47.192098	0.000426	4.257235	1.442390	0.000170
 336	3.3333e+01	13.3424	47.301101	0.000274	2.736794	0.927251	0.000110
 337	3.3432e+01	13.3745	47.422215	0.000304	3.040882	1.030279	0.000122
 338	3.3532e+01	13.4242	47.571589	0.000375	3.750422	1.270677	0.000150
 339	3.3631e+01	13.4595	47.672517	0.000253	2.534069	0.858566	0.000101
 340	3.3730e+01	13.4964	47.805743	0.000334	3.344971	1.133307	0.000134
 341	3.3830e+01	13.5381	47.938968	0.000334	3.344971	1.133307	0.000134
 342	3.3929e+01	13.5734	48.047971	0.000274	2.736794	0.927251	0.000110
 343	3.4029e+01	13.6167	48.156974	0.000274	2.736794	0.927251	0.000110
 344	3.4129e+01	13.6600	48.294236	0.000345	3.446333	1.167649	0.000138
 345	3.4228e+01	13.7098	48.431499	0.000345	3.446333	1.167649	0.000138
 346	3.4328e+01	13.7370	48.556650	0.000314	3.142245	1.064621	0.000126
 347	3.4427e+01	13.7723	48.689876	0.000334	3.344971	1.133307	0.000134
 348	3.4526e+01	13.8205	48.786767	0.000243	2.432706	0.824223	0.000097
 349	3.4626e+01	13.8606	48.919992	0.000334	3.344971	1.133307	0.000134
 350	3.4725e+01	13.9055	49.033032	0.000284	2.838157	0.961594	0.000114
 351	3.4825e+01	13.9263	49.158183	0.000314	3.142245	1.064621	0.000126
 352	3.4925e+01	13.9713	49.291409	0.000334	3.344971	1.133307	0.000134
 353	3.5024e+01	14.0242	49.392337	0.000253	2.534069	0.858566	0.000101
 354	3.5123e+01	14.0515	49.545748	0.000385	3.851784	1.305020	0.000154
 355	3.5223e+01	14.0916	49.662825	0.000294	2.939520	0.995936	0.000118
 356	3.5322e+01	14.1349	49.792014	0.000324	3.243608	1.098964	0.000130
 357	3.5422e+01	14.1734	49.937351	0.000365	3.649059	1.236335	0.000146
 358	3.5522e+01	14.2151	50.054427	0.000294	2.939520	0.995936	0.000118
 359	3.5621e+01	14.2648	50.187653	0.000334	3.344971	1.133307	0.000134
 360	3.5721e+01	14.2985	50.296656	0.000274	2.736794	0.927251	0.000110
 361	3.5820e+01	14.3290	50.425844	0.000324	3.243608	1.098964	0.000130
 362	3.5919e+01	14.3739	50.506587	0.000203	2.027255	0.686853	0.000081
 363	3.6019e+01	14.4156	50.664035	0.000395	3.953147	1.339363	0.000158
 364	3.6118e+01	14.4606	50.764963	0.000253	2.534069	0.858566	0.000101
 365	3.6218e+01	14.5023	50.906263	0.000355	3.547696	1.201992	0.000142
 366	3.6318e+01	14.5327	50.991043	0.000213	2.128618	0.721195	0.000085
 367	3.6417e+01	14.5793	51.128306	0.000345	3.446333	1.167649	0.000138
 368	3.6517e+01	14.6178	51.273642	0.000365	3.649059	1.236335	0.000146
 369	3.6616e+01	14.6579	51.362459	0.000223	2.229980	0.755538	0.000089
 370	3.6715e+01	14.6996	51.495685	0.000334	3.344971	1.133307	0.000134
 371	3.6815e+01	14.7317	51.624873	0.000324	3.243608	1.098964	0.000130
 372	3.6914e+01	14.7782	51.737913	0.000284	2.838157	0.961594	0.000114
 373	3.7014e+01	14.8039	51.850953	0.000284	2.838157	0.961594	0.000114
 374	3.7114e+01	14.8536	51.955918	0.000264	2.635431	0.892908	0.000105
 375	3.7213e+01	14.8921	52.048773	0.000233	2.331343	0.789880	0.000093
 376	3.7313e+01	14.9322	52.186035	0.000345	3.446333	1.167649	0.000138
 377	3.7412e+01	14.9707	52.359632	0.000436	4.358598	1.476733	0.000174
 378	3.7511e+01	15.0124	52.444412	0.000213	2.128618	0.721195	0.000085
 379	3.7611e+01	15.0557	52.585712	0.000355	3.547696	1.201992	0.000142
 380	3.7711e+01	15.0974	52.678566	0.000233	2.331343	0.789880	0.000093
 381	3.7810e+01	15.1407	52.811791	0.000334	3.344971	1.133307	0.000134
 382	3.7910e+01	15.1776	52.908682	0.000243	2.432706	0.824223	0.000097
 383	3.8009e+01	15.2097	53.058056	0.000375	3.750422	1.270677	0.000150
 384	3.8108e+01	15.2563	53.175133	0.000294	2.939520	0.995936	0.000118
 385	3.8208e+01	15.2948	53.251839	0.000193	1.925892	0.652510	0.000077
 386	3.8307e+01	15.3349	53.401213	0.000375	3.750422	1.270677	0.000150
 387	3.8407e+01	15.3782	53.506179	0.000264	2.635431	0.892908	0.000105
 388	3.8507e+01	15.4151	53.611144	0.000264	2.635431	0.892908	0.000105
 389	3.8606e+01	15.4600	53.716110	0.000264	2.635431	0.892908	0.000105
 390	3.8706e+01	15.4841	53.877595	0.000405	4.054510	1.373705	0.000162
 391	3.8805e+01	15.5242	53.986598	0.000274	2.736794	0.927251	0.000110
 392	3.8904e+01	15.5691	54.115786	0.000324	3.243608	1.098964	0.000130
 393	3.9004e+01	15.6124	54.204603	0.000223	2.229980	0.755538	0.000089
 394	3.9103e+01	15.6525	54.309569	0.000264	2.635431	0.892908	0.000105
 395	3.9203e+01	15.6862	54.450868	0.000355	3.547696	1.201992	0.000142
 396	3.9303e+01	15.7407	54.543722	0.000233	2.331343	0.789880	0.000093
 397	3.9402e+01	15.7696	54.668874	0.000314	3.142245	1.064621	0.000126
 398	3.9502e+01	15.8065	54.785951	0.000294	2.939520	0.995936	0.000118
 399	3.9601e+01	15.8434	54.915139	0.000324	3.243608	1.098964	0.000130
 400	3.9700e+01	15.8755	55.028179	0.000284	2.838157	0.961594	0.000114
 401	3.9800e+01	15.9397	55.116996	0.000223	2.229980	0.755538	0.000089
 402	3.9900e+01	15.9621	55.266370	0.000375	3.750422	1.270677	0.000150
 403	3.9999e+01	16.0070	55.359224	0.000233	2.331343	0.789880	0.000093
 404	4.0099e+01	16.0455	55.456115	0.000243	2.432706	0.824223	0.000097
 405	4.0198e+01	16.0937	55.593378	0.000345	3.446333	1.167649	0.000138
 406	4.0297e+01	16.1434	55.649898	0.000142	1.419078	0.480797	0.000057
 407	4.0397e+01	16.1707	55.815420	0.000416	4.155873	1.408048	0.000166
 408	4.0496e+01	16.2011	55.928460	0.000284	2.838157	0.961594	0.000114
 409	4.0596e+01	16.2461	56.017277	0.000223	2.229980	0.755538	0.000089
 410	4.0696e+01	16.2910	56.118205	0.000253	2.534069	0.858566	0.000101
 411	4.0795e+01	16.3167	56.247394	0.000324	3.243608	1.098964	0.000130
 412	4.0895e+01	16.3680	56.336211	0.000223	2.229980	0.755538	0.000089
 413	4.0994e+01	16.4065	56.485585	0.000375	3.750422	1.270677	0.000150
 414	4.1093e+01	16.4450	56.602662	0.000294	2.939520	0.995936	0.000118
 415	4.1193e+01	16.4915	56.703590	0.000253	2.534069	0.858566	0.000101
 416	4.1292e+01	16.5204	56.800481	0.000243	2.432706	0.824223	0.000097
 417	4.1392e+01	16.5637	56.917558	0.000294	2.939520	0.995936	0.000118
 418	4.1492e+01	16.6070	57.038672	0.000304	3.040882	1.030279	0.000122
 419	4.1591e+01	16.6471	57.123452	0.000213	2.128618	0.721195	0.000085
 420	4.1691e+01	16.6904	57.240529	0.000294	2.939520	0.995936	0.000118
 421	4.1790e+01	16.7241	57.369717	0.000324	3.243608	1.098964	0.000130
 422	4.1889e+01	16.7658	57.486794	0.000294	2.939520	0.995936	0.000118
 423	4.1989e+01	16.8092	57.607908	0.000304	3.040882	1.030279	0.000122
 424	4.2089e+01	16.8493	57.737097	0.000324	3.243608	1.098964	0.000130
 425	4.2188e+01	16.8846	57.813802	0.000193	1.925892	0.652510	0.000077
 426	4.2288e+01	16.9198	57.898582	0.000213	2.128618	0.721195	0.000085
 427	4.2387e+01	16.9712	58.039882	0.000355	3.547696	1.201992	0.000142
 428	4.2486e+01	17.0033	58.173107	0.000334	3.344971	1.133307	0.000134
 429	4.2586e+01	17.0434	58.249813	0.000193	1.925892	0.652510	0.000077
 430	4.2685e+01	17.0867	58.374964	0.000314	3.142245	1.064621	0.000126
 431	4.2785e+01	17.1220	58.488004	0.000284	2.838157	0.961594	0.000114
 432	4.2885e+01	17.1733	58.641415	0.000385	3.851784	1.305020	0.000154
 433	4.2984e+01	17.1974	58.706009	0.000162	1.621804	0.549482	0.000065
 434	4.3084e+01	17.2439	58.843272	0.000345	3.446333	1.167649	0.000138
 435	4.3183e+01	17.2872	58.936126	0.000233	2.331343	0.789880	0.000093
 436	4.3282e+01	17.3289	59.037054	0.000253	2.534069	0.858566	0.000101
 437	4.3382e+01	17.3626	59.125871	0.000223	2.229980	0.755538	0.000089
 438	4.3481e+01	17.4075	59.275245	0.000375	3.750422	1.270677	0.000150
 439	4.3581e+01	17.4428	59.355988	0.000203	2.027255	0.686853	0.000081
 440	4.3681e+01	17.4910	59.464991	0.000274	2.736794	0.927251	0.000110
 441	4.3780e+01	17.5327	59.598216	0.000334	3.344971	1.133307	0.000134
 442	4.3880e+01	17.5663	59.666848	0.000172	1.723167	0.583825	0.000069
 443	4.3979e+01	17.6065	59.787962	0.000304	3.040882	1.030279	0.000122
 444	4.4078e+01	17.6434	59.913113	0.000314	3.142245	1.064621	0.000126
 445	4.4178e+01	17.6899	60.022116	0.000274	2.736794	0.927251	0.000110
 446	4.4278e+01	17.7220	60.110933	0.000223	2.229980	0.755538	0.000089
 447	4.4377e+01	17.7573	60.244158	0.000334	3.344971	1.133307	0.000134
 448	4.4477e+01	17.8102	60.324901	0.000203	2.027255	0.686853	0.000081
 449	4.4576e+01	17.8455	60.458126	0.000334	3.344971	1.133307	0.000134
 450	4.4675e+01	17.8824	60.530795	0.000182	1.824529	0.618167	0.000073
 451	4.4775e+01	17.9161	60.659983	0.000324	3.243608	1.098964	0.000130
 452	4.4874e+01	17.9594	60.756874	0.000243	2.432706	0.824223	0.000097
 453	4.4974e+01	18.0027	60.902211	0.000365	3.649059	1.236335	0.000146
 454	4.5074e+01	18.0444	61.015251	0.000284	2.838157	0.961594	0.000114
 455	4.5173e+01	18.0861	61.104068	0.000223	2.229980	0.755538	0.000089
 456	4.5273e+01	18.1198	61.196922	0.000233	2.331343	0.789880	0.000093
 457	4.5372e+01	18.1695	61.342259	0.000365	3.649059	1.236335	0.000146
 458	4.5471e+01	18.2064	61.423002	0.000203	2.027255	0.686853	0.000081
 459	4.5571e+01	18.2498	61.568339	0.000365	3.649059	1.236335	0.000146
 460	4.5670e+01	18.2802	61.641007	0.000182	1.824529	0.618167	0.000073
 461	4.5770e+01	18.3219	61.750010	0.000274	2.736794	0.927251	0.000110
 462	4.5870e+01	18.3524	61.867087	0.000294	2.939520	0.995936	0.000118
 463	4.5969e+01	18.4230	61.988201	0.000304	3.040882	1.030279	0.000122
 464	4.6069e+01	18.4358	62.089129	0.000253	2.534069	0.858566	0.000101
 465	4.6168e+01	18.4695	62.161798	0.000182	1.824529	0.618167	0.000073
 466	4.6267e+01	18.5080	62.290986	0.000324	3.243608	1.098964	0.000130
 467	4.6367e+01	18.5562	62.408063	0.000294	2.939520	0.995936	0.000118
 468	4.6467e+01	18.5979	62.529177	0.000304	3.040882	1.030279	0.000122
 469	4.6566e+01	18.6364	62.617994	0.000223	2.229980	0.755538	0.000089
 470	4.6666e+01	18.6813	62.726997	0.000274	2.736794	0.927251	0.000110
 471	4.6765e+01	18.7182	62.840036	0.000284	2.838157	0.961594	0.000114
 472	4.6864e+01	18.7615	62.949039	0.000274	2.736794	0.927251	0.000110
 473	4.6964e+01	18.7904	63.086302	0.000345	3.446333	1.167649	0.000138
 474	4.7063e+01	18.8417	63.163007	0.000193	1.925892	0.652510	0.000077
 475	4.7163e+01	18.8786	63.276047	0.000284	2.838157	0.961594	0.000114
 476	4.7263e+01	18.9219	63.397161	0.000304	3.040882	1.030279	0.000122
 477	4.7362e+01	18.9556	63.477904	0.000203	2.027255	0.686853	0.000081
 478	4.7462e+01	18.9941	63.582869	0.000264	2.635431	0.892908	0.000105
 479	4.7561e+01	19.0455	63.683798	0.000253	2.534069	0.858566	0.000101
 480	4.7660e+01	19.0791	63.837209	0.000385	3.851784	1.305020	0.000154
 481	4.7760e+01	19.1209	63.913914	0.000193	1.925892	0.652510	0.000077
 482	4.7859e+01	19.1529	64.055214	0.000355	3.547696	1.201992	0.000142
 483	4.7959e+01	19.2011	64.156143	0.000253	2.534069	0.858566	0.000101
 484	4.8059e+01	19.2444	64.244960	0.000223	2.229980	0.755538	0.000089
 485	4.8158e+01	19.2749	64.374148	0.000324	3.243608	1.098964	0.000130
 486	4.8258e+01	19.3182	64.438742	0.000162	1.621804	0.549482	0.000065
 487	4.8357e+01	19.3470	64.600228	0.000405	4.054510	1.373705	0.000162
 488	4.8456e+01	19.4048	64.697119	0.000243	2.432706	0.824223	0.000097
 489	4.8556e+01	19.4353	64.810159	0.000284	2.838157	0.961594	0.000114
 490	4.8656e+01	19.4786	64.923198	0.000284	2.838157	0.961594	0.000114
 491	4.8755e+01	19.5075	65.007978	0.000213	2.128618	0.721195	0.000085
 492	4.8855e+01	19.5540	65.149278	0.000355	3.547696	1.201992	0.000142
 493	4.8954e+01	19.5877	65.234058	0.000213	2.128618	0.721195	0.000085
 494	4.9053e+01	19.6406	65.355172	0.000304	3.040882	1.030279	0.000122
 495	4.9153e+01	19.6791	65.435915	0.000203	2.027255	0.686853	0.000081
 496	4.9252e+01	19.7096	65.561066	0.000314	3.142245	1.064621	0.000126
 497	4.9352e+01	19.7593	65.645846	0.000213	2.128618	0.721195	0.000085
 498	4.9452e+01	19.7834	65.783108	0.000345	3.446333	1.167649	0.000138
 499	4.9551e+01	19.8331	65.863851	0.000203	2.027255	0.686853	0.000081
 500	4.9651e+01	19.8829	65.984965	0.000304	3.040882	1.030279	0.000122
 501	4.9750e+01	19.9182	66.089931	0.000264	2.635431	0.892908	0.000105
 502	4.9849e+01	19.9518	66.186822	0.000243	2.432706	0.824223	0.000097
 503	4.9949e+01	19.9968	66.324084	0.000345	3.446333	1.167649	0.000138
 504	5.0048e+01	19.9551	66.227193	0.000243	2.432706	0.824223	-0.000097
 505	5.0148e+01	19.9262	66.130302	0.000243	2.432706	0.824223	-0.000097
 506	5.0248e+01	19.8845	66.025336	0.000264	2.635431	0.892908	-0.000105
 507	5.0347e+01	19.8315	65.948631	0.000193	1.925892	0.652510	-0.000077
 508	5.0447e+01	19.7962	65.896148	0.000132	1.317716	0.446454	-0.000053
 509	5.0546e+01	19.7529	65.811368	0.000213	2.128618	0.721195	-0.000085
 510	5.0645e+01	19.7096	65.758885	0.000132	1.317716	0.446454	-0.000053
 511	5.0745e+01	19.6775	65.657957	0.000253	2.534069	0.858566	-0.000101
 512	5.0844e+01	19.6406	65.544917	0.000284	2.838157	0.961594	-0.000114
 513	5.0944e+01	19.6021	65.460137	0.000213	2.128618	0.721195	-0.000085
 514	5.1044e+01	19.5636	65.415729	0.000111	1.114990	0.377769	-0.000045
 515	5.1143e+01	19.5123	65.298652	0.000294	2.939520	0.995936	-0.000118
 516	5.1242e+01	19.4706	65.201761	0.000243	2.432706	0.824223	-0.000097
 517	5.1342e+01	19.4369	65.125055	0.000193	1.925892	0.652510	-0.000077
 518	5.1441e+01	19.3968	65.020090	0.000264	2.635431	0.892908	-0.000105
 519	5.1541e+01	19.3487	64.935310	0.000213	2.128618	0.721195	-0.000085
 520	5.1641e+01	19.3214	64.874753	0.000152	1.520441	0.515139	-0.000061
 521	5.1740e+01	19.2877	64.765750	0.000274	2.736794	0.927251	-0.000110
 522	5.1840e+01	19.2428	64.701156	0.000162	1.621804	0.549482	-0.000065
 523	5.1939e+01	19.1850	64.604265	0.000243	2.432706	0.824223	-0.000097
 524	5.2038e+01	19.1610	64.507373	0.000243	2.432706	0.824223	-0.000097
 525	5.2138e+01	19.1225	64.426631	0.000203	2.027255	0.686853	-0.000081
 526	5.2237e+01	19.0775	64.337814	0.000223	2.229980	0.755538	-0.000089
 527	5.2337e+01	19.0471	64.228811	0.000274	2.736794	0.927251	-0.000110
 528	5.2437e+01	19.0021	64.164217	0.000162	1.621804	0.549482	-0.000065
 529	5.2536e+01	18.9604	64.063288	0.000253	2.534069	0.858566	-0.000101
 530	5.2636e+01	18.9171	63.986583	0.000193	1.925892	0.652510	-0.000077
 531	5.2735e+01	18.8850	63.885654	0.000253	2.534069	0.858566	-0.000101
 532	5.2834e+01	18.8385	63.768578	0.000294	2.939520	0.995936	-0.000118
 533	5.2934e+01	18.7952	63.695909	0.000182	1.824529	0.618167	-0.000073
 534	5.3033e+01	18.7535	63.615166	0.000203	2.027255	0.686853	-0.000081
 535	5.3133e+01	18.7166	63.518275	0.000243	2.432706	0.824223	-0.000097
 536	5.3233e+01	18.6893	63.401198	0.000294	2.939520	0.995936	-0.000118
 537	5.3332e+01	18.6428	63.328530	0.000182	1.824529	0.618167	-0.000073
 538	5.3431e+01	18.6043	63.239713	0.000223	2.229980	0.755538	-0.000089
 539	5.3531e+01	18.5594	63.122636	0.000294	2.939520	0.995936	-0.000118
 540	5.3630e+01	18.5145	63.033819	0.000223	2.229980	0.755538	-0.000089
 541	5.3730e+01	18.4872	62.973262	0.000152	1.520441	0.515139	-0.000061
 542	5.3830e+01	18.4423	62.848111	0.000314	3.142245	1.064621	-0.000126
 543	5.3929e+01	18.4006	62.779479	0.000172	1.723167	0.583825	-0.000069
 544	5.4029e+01	18.3653	62.662402	0.000294	2.939520	0.995936	-0.000118
 545	5.4128e+01	18.3300	62.553400	0.000274	2.736794	0.927251	-0.000110
 546	5.4227e+01	18.2786	62.492843	0.000152	1.520441	0.515139	-0.000061
 547	5.4327e+01	18.2433	62.367691	0.000314	3.142245	1.064621	-0.000126
 548	5.4426e+01	18.1920	62.246577	0.000304	3.040882	1.030279	-0.000122
 549	5.4526e+01	18.1599	62.177946	0.000172	1.723167	0.583825	-0.000069
 550	5.4626e+01	18.1342	62.072981	0.000264	2.635431	0.892908	-0.000105
 551	5.4725e+01	18.0845	62.008386	0.000162	1.621804	0.549482	-0.000065
 552	5.4825e+01	18.0380	61.875161	0.000334	3.344971	1.133307	-0.000134
 553	5.4924e+01	18.0075	61.806530	0.000172	1.723167	0.583825	-0.000069
 554	5.5023e+01	17.9674	61.709638	0.000243	2.432706	0.824223	-0.000097
 555	5.5123e+01	17.9225	61.641007	0.000172	1.723167	0.583825	-0.000069
 556	5.5222e+01	17.8840	61.487596	0.000385	3.851784	1.305020	-0.000154
 557	5.5322e+01	17.8471	61.410890	0.000193	1.925892	0.652510	-0.000077
 558	5.5422e+01	17.8006	61.350333	0.000152	1.520441	0.515139	-0.000061
 559	5.5521e+01	17.7621	61.184811	0.000416	4.155873	1.408048	-0.000166
 560	5.5620e+01	17.7236	61.100031	0.000213	2.128618	0.721195	-0.000085
 561	5.5720e+01	17.6786	61.031400	0.000172	1.723167	0.583825	-0.000069
 562	5.5819e+01	17.6369	60.914323	0.000294	2.939520	0.995936	-0.000118
 563	5.5919e+01	17.5936	60.837617	0.000193	1.925892	0.652510	-0.000077
 564	5.6019e+01	17.5663	60.716503	0.000304	3.040882	1.030279	-0.000122
 565	5.6118e+01	17.5246	60.615575	0.000253	2.534069	0.858566	-0.000101
 566	5.6218e+01	17.4926	60.518683	0.000243	2.432706	0.824223	-0.000097
 567	5.6317e+01	17.4508	60.429866	0.000223	2.229980	0.755538	-0.000089
 568	5.6416e+01	17.4027	60.324901	0.000264	2.635431	0.892908	-0.000105
 569	5.6516e+01	17.3562	60.183601	0.000355	3.547696	1.201992	-0.000142
 570	5.6615e+01	17.3337	60.110933	0.000182	1.824529	0.618167	-0.000073
 571	5.6715e+01	17.2840	59.997893	0.000284	2.838157	0.961594	-0.000114
 572	5.6815e+01	17.2535	59.901002	0.000243	2.432706	0.824223	-0.000097
 573	5.6914e+01	17.2086	59.812185	0.000223	2.229980	0.755538	-0.000089
 574	5.7014e+01	17.1701	59.719330	0.000233	2.331343	0.789880	-0.000093
 575	5.7113e+01	17.1268	59.598216	0.000304	3.040882	1.030279	-0.000122
 576	5.7212e+01	17.0738	59.501325	0.000243	2.432706	0.824223	-0.000097
 577	5.7312e+01	17.0450	59.400397	0.000253	2.534069	0.858566	-0.000101
 578	5.7411e+01	17.0113	59.299468	0.000253	2.534069	0.858566	-0.000101
 579	5.7511e+01	16.9664	59.210651	0.000223	2.229980	0.755538	-0.000089
 580	5.7611e+01	16.9214	59.089537	0.000304	3.040882	1.030279	-0.000122
 581	5.7710e+01	16.8910	58.984572	0.000264	2.635431	0.892908	-0.000105
 582	5.7809e+01	16.8493	58.871532	0.000284	2.838157	0.961594	-0.000114
 583	5.7909e+01	16.8075	58.762529	0.000274	2.736794	0.927251	-0.000110
 584	5.8008e+01	16.7706	58.677749	0.000213	2.128618	0.721195	-0.000085
 585	5.8108e+01	16.7338	58.576821	0.000253	2.534069	0.858566	-0.000101
 586	5.8208e+01	16.6904	58.471855	0.000264	2.635431	0.892908	-0.000105
 587	5.8307e+01	16.6455	58.354779	0.000294	2.939520	0.995936	-0.000118
 588	5.8407e+01	16.6150	58.265962	0.000223	2.229980	0.755538	-0.000089
 589	5.8506e+01	16.5701	58.144847	0.000304	3.040882	1.030279	-0.000122
 590	5.8605e+01	16.5140	58.072179	0.000182	1.824529	0.618167	-0.000073
 591	5.8705e+01	16.4915	57.951065	0.000304	3.040882	1.030279	-0.000122
 592	5.8804e+01	16.4594	57.829951	0.000304	3.040882	1.030279	-0.000122
 593	5.8904e+01	16.4081	57.720948	0.000274	2.736794	0.927251	-0.000110
 594	5.9004e+01	16.3696	57.632131	0.000223	2.229980	0.755538	-0.000089
 595	5.9103e+01	16.3311	57.543314	0.000223	2.229980	0.755538	-0.000089
 596	5.9203e+01	16.2814	57.402014	0.000355	3.547696	1.201992	-0.000142
 597	5.9302e+01	16.2429	57.305123	0.000243	2.432706	0.824223	-0.000097
 598	5.9401e+01	16.2060	57.188046	0.000294	2.939520	0.995936	-0.000118
 599	5.9501e+01	16.1594	57.143638	0.000111	1.114990	0.377769	-0.000045
 600	5.9600e+01	16.1290	57.026561	0.000294	2.939520	0.995936	-0.000118
 601	5.9700e+01	16.0905	56.909484	0.000294	2.939520	0.995936	-0.000118
 602	5.9800e+01	16.0439	56.820667	0.000223	2.229980	0.755538	-0.000089
 603	5.9899e+01	16.0151	56.687441	0.000334	3.344971	1.133307	-0.000134
 604	5.9998e+01	15.9653	56.598624	0.000223	2.229980	0.755538	-0.000089
 605	6.0098e+01	15.9284	56.473473	0.000314	3.142245	1.064621	-0.000126
 606	6.0197e+01	15.8996	56.348322	0.000314	3.142245	1.064621	-0.000126
 607	6.0297e+01	15.8466	56.275654	0.000182	1.824529	0.618167	-0.000073
 608	6.0397e+01	15.8177	56.154540	0.000304	3.040882	1.030279	-0.000122
 609	6.0496e+01	15.7760	56.037463	0.000294	2.939520	0.995936	-0.000118
 610	6.0596e+01	15.7295	55.940571	0.000243	2.432706	0.824223	-0.000097
 611	6.0695e+01	15.6862	55.867903	0.000182	1.824529	0.618167	-0.000073
 612	6.0794e+01	15.6413	55.730640	0.000345	3.446333	1.167649	-0.000138
 613	6.0894e+01	15.6108	55.625675	0.000264	2.635431	0.892908	-0.000105
 614	6.0993e+01	15.5755	55.520709	0.000264	2.635431	0.892908	-0.000105
 615	6.1093e+01	15.5242	55.419781	0.000253	2.534069	0.858566	-0.000101
 616	6.1193e+01	15.4921	55.326927	0.000233	2.331343	0.789880	-0.000093
 617	6.1292e+01	15.4407	55.205813	0.000304	3.040882	1.030279	-0.000122
 618	6.1392e+01	15.4103	55.108921	0.000243	2.432706	0.824223	-0.000097
 619	6.1491e+01	15.3782	54.983770	0.000314	3.142245	1.064621	-0.000126
 620	6.1590e+01	15.3317	54.874768	0.000274	2.736794	0.927251	-0.000110
 621	6.1690e+01	15.2819	54.781913	0.000233	2.331343	0.789880	-0.000093
 622	6.1789e+01	15.2546	54.697134	0.000213	2.128618	0.721195	-0.000085
 623	6.1889e+01	15.2145	54.539685	0.000395	3.953147	1.339363	-0.000158
 624	6.1989e+01	15.1712	54.450868	0.000223	2.229980	0.755538	-0.000089
 625	6.2088e+01	15.1343	54.321680	0.000324	3.243608	1.098964	-0.000130
 626	6.2188e+01	15.0926	54.240937	0.000203	2.027255	0.686853	-0.000081
 627	6.2287e+01	15.0573	54.135972	0.000264	2.635431	0.892908	-0.000105
 628	6.2386e+01	15.0124	54.063303	0.000182	1.824529	0.618167	-0.000073
 629	6.2486e+01	14.9723	53.926041	0.000345	3.446333	1.167649	-0.000138
 630	6.2586e+01	14.9402	53.772629	0.000385	3.851784	1.305020	-0.000154
 631	6.2685e+01	14.8937	53.691887	0.000203	2.027255	0.686853	-0.000081
 632	6.2785e+01	14.8504	53.599033	0.000233	2.331343	0.789880	-0.000093
 633	6.2884e+01	14.8135	53.502141	0.000243	2.432706	0.824223	-0.000097
 634	6.2983e+01	14.7670	53.368916	0.000334	3.344971	1.133307	-0.000134
 635	6.3083e+01	14.7397	53.280099	0.000223	2.229980	0.755538	-0.000089
 636	6.3182e+01	14.6932	53.187245	0.000233	2.331343	0.789880	-0.000093
 637	6.3282e+01	14.6579	53.062094	0.000314	3.142245	1.064621	-0.000126
 638	6.3382e+01	14.6065	52.949054	0.000284	2.838157	0.961594	-0.000114
 639	6.3481e+01	14.5761	52.868311	0.000203	2.027255	0.686853	-0.000081
 640	6.3581e+01	14.5360	52.751234	0.000294	2.939520	0.995936	-0.000118
 641	6.3680e+01	14.4910	52.650306	0.000253	2.534069	0.858566	-0.000101
 642	6.3779e+01	14.4557	52.513043	0.000345	3.446333	1.167649	-0.000138
 643	6.3879e+01	14.4253	52.412115	0.000253	2.534069	0.858566	-0.000101
 644	6.3978e+01	14.3755	52.286964	0.000314	3.142245	1.064621	-0.000126
 645	6.4078e+01	14.3434	52.194109	0.000233	2.331343	0.789880	-0.000093
 646	6.4177e+01	14.2921	52.072995	0.000304	3.040882	1.030279	-0.000122
 647	6.4277e+01	14.2584	52.000327	0.000182	1.824529	0.618167	-0.000073
 648	6.4376e+01	14.2183	51.891324	0.000274	2.736794	0.927251	-0.000110
 649	6.4476e+01	14.1846	51.770210	0.000304	3.040882	1.030279	-0.000122
 650	6.4576e+01	14.1269	51.665245	0.000264	2.635431	0.892908	-0.000105
 651	6.4675e+01	14.1028	51.552205	0.000284	2.838157	0.961594	-0.000114
 652	6.4775e+01	14.0531	51.439165	0.000284	2.838157	0.961594	-0.000114
 653	6.4874e+01	14.0226	51.293828	0.000365	3.649059	1.236335	-0.000146
 654	6.4974e+01	13.9729	51.225197	0.000172	1.723167	0.583825	-0.000069
 655	6.5073e+01	13.9408	51.091971	0.000334	3.344971	1.133307	-0.000134
 656	6.5172e+01	13.8943	51.019303	0.000182	1.824529	0.618167	-0.000073
 657	6.5272e+01	13.8622	50.902226	0.000294	2.939520	0.995936	-0.000118
 658	6.5371e+01	13.8205	50.805335	0.000243	2.432706	0.824223	-0.000097
 659	6.5471e+01	13.7916	50.696332	0.000274	2.736794	0.927251	-0.000110
 660	6.5570e+01	13.7403	50.559069	0.000345	3.446333	1.167649	-0.000138
 661	6.5670e+01	13.7066	50.446030	0.000284	2.838157	0.961594	-0.000114
 662	6.5769e+01	13.6681	50.365287	0.000203	2.027255	0.686853	-0.000081
 663	6.5869e+01	13.6167	50.260321	0.000264	2.635431	0.892908	-0.000105
 664	6.5969e+01	13.5862	50.114984	0.000365	3.649059	1.236335	-0.000146
 665	6.6068e+01	13.5349	50.014056	0.000253	2.534069	0.858566	-0.000101
 666	6.6168e+01	13.5044	49.925239	0.000223	2.229980	0.755538	-0.000089
 667	6.6267e+01	13.4563	49.792014	0.000334	3.344971	1.133307	-0.000134
 668	6.6367e+01	13.4242	49.739531	0.000132	1.317716	0.446454	-0.000053
 669	6.6466e+01	13.3857	49.586120	0.000385	3.851784	1.305020	-0.000154
 670	6.6566e+01	13.3360	49.473080	0.000284	2.838157	0.961594	-0.000114
 671	6.6665e+01	13.2975	49.356003	0.000294	2.939520	0.995936	-0.000118
 672	6.6764e+01	13.2526	49.263149	0.000233	2.331343	0.789880	-0.000093
 673	6.6864e+01	13.2189	49.162220	0.000253	2.534069	0.858566	-0.000101
 674	6.6963e+01	13.1820	49.000735	0.000405	4.054510	1.373705	-0.000162
 675	6.7063e+01	13.1387	48.919992	0.000203	2.027255	0.686853	-0.000081
 676	6.7162e+01	13.1034	48.794841	0.000314	3.142245	1.064621	-0.000126
 677	6.7262e+01	13.0601	48.710061	0.000213	2.128618	0.721195	-0.000085
 678	6.7362e+01	13.0216	48.588947	0.000304	3.040882	1.030279	-0.000122
 679	6.7461e+01	12.9734	48.451685	0.000345	3.446333	1.167649	-0.000138
 680	6.7561e+01	12.9462	48.314422	0.000345	3.446333	1.167649	-0.000138
 681	6.7660e+01	12.9093	48.245791	0.000172	1.723167	0.583825	-0.000069
 682	6.7760e+01	12.8740	48.148899	0.000243	2.432706	0.824223	-0.000097
 683	6.7859e+01	12.8178	48.011637	0.000345	3.446333	1.167649	-0.000138
 684	6.7959e+01	12.7841	47.898597	0.000284	2.838157	0.961594	-0.000114
 685	6.8058e+01	12.7440	47.809780	0.000223	2.229980	0.755538	-0.000089
 686	6.8157e+01	12.7103	47.688666	0.000304	3.040882	1.030279	-0.000122
 687	6.8257e+01	12.6670	47.539292	0.000375	3.750422	1.270677	-0.000150
 688	6.8356e+01	12.6317	47.462586	0.000193	1.925892	0.652510	-0.000077
 689	6.8456e+01	12.5836	47.325324	0.000345	3.446333	1.167649	-0.000138
 690	6.8555e+01	12.5483	47.228432	0.000243	2.432706	0.824223	-0.000097
 691	6.8655e+01	12.5098	47.091170	0.000345	3.446333	1.167649	-0.000138
 692	6.8754e+01	12.4633	46.974093	0.000294	2.939520	0.995936	-0.000118
 693	6.8854e+01	12.4328	46.885276	0.000223	2.229980	0.755538	-0.000089
 694	6.8954e+01	12.3863	46.772236	0.000284	2.838157	0.961594	-0.000114
 695	6.9053e+01	12.3526	46.626899	0.000365	3.649059	1.236335	-0.000146
 696	6.9153e+01	12.2980	46.501748	0.000314	3.142245	1.064621	-0.000126
 697	6.9252e+01	12.2740	46.388708	0.000284	2.838157	0.961594	-0.000114
 698	6.9352e+01	12.2259	46.267594	0.000304	3.040882	1.030279	-0.000122
 699	6.9451e+01	12.1874	46.174740	0.000233	2.331343	0.789880	-0.000093
 700	6.9550e+01	12.1424	46.065737	0.000274	2.736794	0.927251	-0.000110
 701	6.9650e+01	12.1071	45.924438	0.000355	3.547696	1.201992	-0.000142
 702	6.9749e+01	12.0654	45.823509	0.000253	2.534069	0.858566	-0.000101
 703	6.9849e+01	12.0366	45.694321	0.000324	3.243608	1.098964	-0.000130
 704	6.9948e+01	11.9820	45.581281	0.000284	2.838157	0.961594	-0.000114
 705	7.0048e+01	11.9419	45.456130	0.000314	3.142245	1.064621	-0.000126
 706	7.0147e+01	11.9066	45.355201	0.000253	2.534069	0.858566	-0.000101
 707	7.0247e+01	11.8745	45.213902	0.000355	3.547696	1.201992	-0.000142
 708	7.0347e+01	11.8216	45.129122	0.000213	2.128618	0.721195	-0.000085
 709	7.0446e+01	11.7943	44.971674	0.000395	3.953147	1.339363	-0.000158
 710	7.0546e+01	11.7510	44.842485	0.000324	3.243608	1.098964	-0.000130
 711	7.0645e+01	11.7109	44.745594	0.000243	2.432706	0.824223	-0.000097
 712	7.0745e+01	11.6660	44.604294	0.000355	3.547696	1.201992	-0.000142
 713	7.0844e+01	11.6307	44.491254	0.000284	2.838157	0.961594	-0.000114
 714	7.0944e+01	11.6002	44.378215	0.000284	2.838157	0.961594	-0.000114
 715	7.1043e+01	11.5569	44.277286	0.000253	2.534069	0.858566	-0.000101
 716	7.1142e+01	11.5152	44.156172	0.000304	3.040882	1.030279	-0.000122
 717	7.1242e+01	11.4687	44.031021	0.000314	3.142245	1.064621	-0.000126
 718	7.1341e+01	11.4270	43.877610	0.000385	3.851784	1.305020	-0.000154
 719	7.1441e+01	11.3852	43.784756	0.000233	2.331343	0.789880	-0.000093
 720	7.1540e+01	11.3467	43.659604	0.000314	3.142245	1.064621	-0.000126
 721	7.1640e+01	11.3082	43.558676	0.000253	2.534069	0.858566	-0.000101
 722	7.1740e+01	11.2745	43.397191	0.000405	4.054510	1.373705	-0.000162
 723	7.1839e+01	11.2296	43.292225	0.000264	2.635431	0.892908	-0.000105
 724	7.1939e+01	11.1895	43.187260	0.000264	2.635431	0.892908	-0.000105
 725	7.2038e+01	11.1430	43.090368	0.000243	2.432706	0.824223	-0.000097
 726	7.2138e+01	11.1109	42.932920	0.000395	3.953147	1.339363	-0.000158
 727	7.2237e+01	11.0676	42.787583	0.000365	3.649059	1.236335	-0.000146
 728	7.2337e+01	11.0291	42.666469	0.000304	3.040882	1.030279	-0.000122
 729	7.2436e+01	10.9922	42.589763	0.000193	1.925892	0.652510	-0.000077
 730	7.2535e+01	10.9505	42.424241	0.000416	4.155873	1.408048	-0.000166
 731	7.2635e+01	10.9104	42.299090	0.000314	3.142245	1.064621	-0.000126
 732	7.2734e+01	10.8671	42.177976	0.000304	3.040882	1.030279	-0.000122
 733	7.2834e+01	10.8270	42.044750	0.000334	3.344971	1.133307	-0.000134
 734	7.2933e+01	10.7949	41.931710	0.000284	2.838157	0.961594	-0.000114
 735	7.3033e+01	10.7548	41.798485	0.000334	3.344971	1.133307	-0.000134
 736	7.3132e+01	10.7099	41.685445	0.000284	2.838157	0.961594	-0.000114
 737	7.3232e+01	10.6714	41.568368	0.000294	2.939520	0.995936	-0.000118
 738	7.3332e+01	10.6264	41.467440	0.000253	2.534069	0.858566	-0.000101
 739	7.3431e+01	10.5879	41.273657	0.000487	4.865412	1.648446	-0.000195
 740	7.3531e+01	10.5542	41.184840	0.000223	2.229980	0.755538	-0.000089
 741	7.3630e+01	10.5125	41.035466	0.000375	3.750422	1.270677	-0.000150
 742	7.3730e+01	10.4805	40.918389	0.000294	2.939520	0.995936	-0.000118
 743	7.3829e+01	10.4307	40.781127	0.000345	3.446333	1.167649	-0.000138
 744	7.3928e+01	10.3890	40.647901	0.000334	3.344971	1.133307	-0.000134
 745	7.4028e+01	10.3505	40.542936	0.000264	2.635431	0.892908	-0.000105
 746	7.4127e+01	10.3200	40.369339	0.000436	4.358598	1.476733	-0.000174
 747	7.4227e+01	10.2671	40.304745	0.000162	1.621804	0.549482	-0.000065
 748	7.4326e+01	10.2366	40.102888	0.000507	5.068137	1.717131	-0.000203
 749	7.4426e+01	10.1869	40.018108	0.000213	2.128618	0.721195	-0.000085
 750	7.4525e+01	10.1452	39.901031	0.000294	2.939520	0.995936	-0.000118
 751	7.4625e+01	10.1147	39.787991	0.000284	2.838157	0.961594	-0.000114
 752	7.4725e+01	10.0746	39.642654	0.000365	3.649059	1.236335	-0.000146
 753	7.4824e+01	10.0361	39.481169	0.000405	4.054510	1.373705	-0.000162
 754	7.4924e+01	9.9928	39.351981	0.000324	3.243608	1.098964	-0.000130
 755	7.5023e+01	9.9495	39.259126	0.000233	2.331343	0.789880	-0.000093
 756	7.5123e+01	9.9158	39.077455	0.000456	4.561324	1.545418	-0.000183
 757	7.5222e+01	9.8708	38.976527	0.000253	2.534069	0.858566	-0.000101
 758	7.5322e+01	9.8420	38.839264	0.000345	3.446333	1.167649	-0.000138
 759	7.5421e+01	9.8003	38.722187	0.000294	2.939520	0.995936	-0.000118
 760	7.5520e+01	9.7425	38.605110	0.000294	2.939520	0.995936	-0.000118
 761	7.5620e+01	9.7168	38.467848	0.000345	3.446333	1.167649	-0.000138
 762	7.5719e+01	9.6767	38.366919	0.000253	2.534069	0.858566	-0.000101
 763	7.5819e+01	9.6318	38.189286	0.000446	4.459961	1.511076	-0.000179
 764	7.5918e+01	9.6045	38.060097	0.000324	3.243608	1.098964	-0.000130
 765	7.6018e+01	9.5532	37.963206	0.000243	2.432706	0.824223	-0.000097
 766	7.6118e+01	9.5115	37.829980	0.000334	3.344971	1.133307	-0.000134
 767	7.6217e+01	9.4874	37.664458	0.000416	4.155873	1.408048	-0.000166
 768	7.6317e+01	9.4313	37.555455	0.000274	2.736794	0.927251	-0.000110
 769	7.6416e+01	9.4008	37.466638	0.000223	2.229980	0.755538	-0.000089
 770	7.6516e+01	9.3591	37.293041	0.000436	4.358598	1.476733	-0.000174
 771	7.6615e+01	9.3206	37.151742	0.000355	3.547696	1.201992	-0.000142
 772	7.6715e+01	9.2757	37.042739	0.000274	2.736794	0.927251	-0.000110
 773	7.6814e+01	9.2356	36.873179	0.000426	4.257235	1.442390	-0.000170
 774	7.6913e+01	9.2035	36.743991	0.000324	3.243608	1.098964	-0.000130
 775	7.7013e+01	9.1505	36.614803	0.000324	3.243608	1.098964	-0.000130
 776	7.7112e+01	9.1136	36.481577	0.000334	3.344971	1.133307	-0.000134
 777	7.7212e+01	9.0832	36.364500	0.000294	2.939520	0.995936	-0.000118
 778	7.7311e+01	9.0463	36.227238	0.000345	3.446333	1.167649	-0.000138
 779	7.7411e+01	8.9965	36.073826	0.000385	3.851784	1.305020	-0.000154
 780	7.7510e+01	8.9500	35.952712	0.000304	3.040882	1.030279	-0.000122
 781	7.7610e+01	8.9195	35.839673	0.000284	2.838157	0.961594	-0.000114
 782	7.7710e+01	8.8842	35.710484	0.000324	3.243608	1.098964	-0.000130
 783	7.7809e+01	8.8393	35.561110	0.000375	3.750422	1.270677	-0.000150
 784	7.7909e+01	8.8008	35.415773	0.000365	3.649059	1.236335	-0.000146
 785	7.8008e+01	8.7511	35.278511	0.000345	3.446333	1.167649	-0.000138
 786	7.8108e+01	8.7110	35.177582	0.000253	2.534069	0.858566	-0.000101
 787	7.8207e+01	8.6837	35.020134	0.000395	3.953147	1.339363	-0.000158
 788	7.8306e+01	8.6452	34.899020	0.000304	3.040882	1.030279	-0.000122
 789	7.8406e+01	8.5971	34.733497	0.000416	4.155873	1.408048	-0.000166
 790	7.8505e+01	8.5602	34.604309	0.000324	3.243608	1.098964	-0.000130
 791	7.8605e+01	8.5233	34.499343	0.000264	2.635431	0.892908	-0.000105
 792	7.8704e+01	8.4784	34.349969	0.000375	3.750422	1.270677	-0.000150
 793	7.8804e+01	8.4415	34.216744	0.000334	3.344971	1.133307	-0.000134
 794	7.8903e+01	8.3982	34.079481	0.000345	3.446333	1.167649	-0.000138
 795	7.9003e+01	8.3597	33.946256	0.000334	3.344971	1.133307	-0.000134
 796	7.9103e+01	8.3244	33.788808	0.000395	3.953147	1.339363	-0.000158
 797	7.9202e+01	8.2794	33.659619	0.000324	3.243608	1.098964	-0.000130
 798	7.9302e+01	8.2409	33.554654	0.000264	2.635431	0.892908	-0.000105
 799	7.9401e+01	8.2024	33.401243	0.000385	3.851784	1.305020	-0.000154
 800	7.9501e+01	8.1639	33.276091	0.000314	3.142245	1.064621	-0.000126
 801	7.9600e+01	8.1174	33.110569	0.000416	4.155873	1.408048	-0.000166
 802	7.9700e+01	8.0853	33.001566	0.000274	2.736794	0.927251	-0.000110
 803	7.9799e+01	8.0452	32.864303	0.000345	3.446333	1.167649	-0.000138
 804	7.9898e+01	7.9907	32.706855	0.000395	3.953147	1.339363	-0.000158
 805	7.9998e+01	7.9602	32.609964	0.000243	2.432706	0.824223	-0.000097
 806	8.0097e+01	7.9217	32.464627	0.000365	3.649059	1.236335	-0.000146
 807	8.0197e+01	7.8832	32.335439	0.000324	3.243608	1.098964	-0.000130
 808	8.0296e+01	7.8463	32.226436	0.000274	2.736794	0.927251	-0.000110
 809	8.0396e+01	7.8046	32.077062	0.000375	3.750422	1.270677	-0.000150
 810	8.0496e+01	7.7549	31.915577	0.000405	4.054510	1.373705	-0.000162
 811	8.0595e+01	7.7196	31.774277	0.000355	3.547696	1.201992	-0.000142
 812	8.0695e+01	7.6875	31.661237	0.000284	2.838157	0.961594	-0.000114
 813	8.0794e+01	7.6426	31.528012	0.000334	3.344971	1.133307	-0.000134
 814	8.0894e+01	7.6073	31.378638	0.000375	3.750422	1.270677	-0.000150
 815	8.0993e+01	7.5624	31.233301	0.000365	3.649059	1.236335	-0.000146
 816	8.1093e+01	7.5222	31.096038	0.000345	3.446333	1.167649	-0.000138
 817	8.1192e+01	7.4854	30.991072	0.000264	2.635431	0.892908	-0.000105
 818	8.1291e+01	7.4501	30.833624	0.000395	3.953147	1.339363	-0.000158
 819	8.1391e+01	7.4067	30.708473	0.000314	3.142245	1.064621	-0.000126
 820	8.1490e+01	7.3634	30.559099	0.000375	3.750422	1.270677	-0.000150
 821	8.1590e+01	7.3233	30.442022	0.000294	2.939520	0.995936	-0.000118
 822	8.1689e+01	7.2864	30.264388	0.000446	4.459961	1.511076	-0.000179
 823	8.1789e+01	7.2415	30.131163	0.000334	3.344971	1.133307	-0.000134
 824	8.1888e+01	7.2110	30.018123	0.000284	2.838157	0.961594	-0.000114
 825	8.1988e+01	7.1677	29.888934	0.000324	3.243608	1.098964	-0.000130
 826	8.2088e+01	7.1324	29.731486	0.000395	3.953147	1.339363	-0.000158
 827	8.2187e+01	7.0843	29.606335	0.000314	3.142245	1.064621	-0.000126
 828	8.2287e+01	7.0506	29.424664	0.000456	4.561324	1.545418	-0.000183
 829	8.2386e+01	7.0089	29.323735	0.000253	2.534069	0.858566	-0.000101
 830	8.2486e+01	6.9640	29.182436	0.000355	3.547696	1.201992	-0.000142
 831	8.2585e+01	6.9239	29.037099	0.000365	3.649059	1.236335	-0.000146
 832	8.2684e+01	6.8838	28.932133	0.000264	2.635431	0.892908	-0.000105
 833	8.2784e+01	6.8421	28.786796	0.000365	3.649059	1.236335	-0.000146
 834	8.2883e+01	6.8084	28.633385	0.000385	3.851784	1.305020	-0.000154
 835	8.2983e+01	6.7699	28.467863	0.000416	4.155873	1.408048	-0.000166
 836	8.3082e+01	6.7265	28.362897	0.000264	2.635431	0.892908	-0.000105
 837	8.3182e+01	6.6784	28.197375	0.000416	4.155873	1.408048	-0.000166
 838	8.3281e+01	6.6463	28.096446	0.000253	2.534069	0.858566	-0.000101
 839	8.3381e+01	6.6030	27.963221	0.000334	3.344971	1.133307	-0.000134
 840	8.3481e+01	6.5693	27.813847	0.000375	3.750422	1.270677	-0.000150
 841	8.3580e+01	6.5340	27.644287	0.000426	4.257235	1.442390	-0.000170
 842	8.3680e+01	6.4955	27.519136	0.000314	3.142245	1.064621	-0.000126
 843	8.3779e+01	6.4458	27.357650	0.000405	4.054510	1.373705	-0.000162
 844	8.3879e+01	6.4041	27.236536	0.000304	3.040882	1.030279	-0.000122
 845	8.3978e+01	6.3656	27.083125	0.000385	3.851784	1.305020	-0.000154
 846	8.4078e+01	6.3303	26.921640	0.000405	4.054510	1.373705	-0.000162
 847	8.4177e+01	6.2902	26.836860	0.000213	2.128618	0.721195	-0.000085
 848	8.4276e+01	6.2421	26.671337	0.000416	4.155873	1.408048	-0.000166
 849	8.4376e+01	6.2196	26.526000	0.000365	3.649059	1.236335	-0.000146
 850	8.4475e+01	6.1619	26.376626	0.000375	3.750422	1.270677	-0.000150
 851	8.4575e+01	6.1298	26.247438	0.000324	3.243608	1.098964	-0.000130
 852	8.4674e+01	6.0945	26.106138	0.000355	3.547696	1.201992	-0.000142
 853	8.4774e+01	6.0576	25.940616	0.000416	4.155873	1.408048	-0.000166
 854	8.4874e+01	6.0111	25.811427	0.000324	3.243608	1.098964	-0.000130
 855	8.4973e+01	5.9661	25.686276	0.000314	3.142245	1.064621	-0.000126
 856	8.5073e+01	5.9357	25.520754	0.000416	4.155873	1.408048	-0.000166
 857	8.5172e+01	5.8907	25.391565	0.000324	3.243608	1.098964	-0.000130
 858	8.5272e+01	5.8522	25.230080	0.000405	4.054510	1.373705	-0.000162
 859	8.5371e+01	5.8105	25.108966	0.000304	3.040882	1.030279	-0.000122
 860	8.5471e+01	5.7736	24.971703	0.000345	3.446333	1.167649	-0.000138
 861	8.5570e+01	5.7303	24.798106	0.000436	4.358598	1.476733	-0.000174
 862	8.5669e+01	5.6886	24.656807	0.000355	3.547696	1.201992	-0.000142
 863	8.5769e+01	5.6565	24.499358	0.000395	3.953147	1.339363	-0.000158
 864	8.5868e+01	5.6100	24.366133	0.000334	3.344971	1.133307	-0.000134
 865	8.5968e+01	5.5763	24.240982	0.000314	3.142245	1.064621	-0.000126
 866	8.6067e+01	5.5234	24.071422	0.000426	4.257235	1.442390	-0.000170
 867	8.6167e+01	5.4913	23.962419	0.000274	2.736794	0.927251	-0.000110
 868	8.6266e+01	5.4560	23.736340	0.000568	5.676314	1.923187	-0.000227
 869	8.6366e+01	5.4175	23.683857	0.000132	1.317716	0.446454	-0.000053
 870	8.6466e+01	5.3822	23.510260	0.000436	4.358598	1.476733	-0.000174
 871	8.6565e+01	5.3453	23.356849	0.000385	3.851784	1.305020	-0.000154
 872	8.6665e+01	5.2940	23.175178	0.000456	4.561324	1.545418	-0.000183
 873	8.6764e+01	5.2523	23.025804	0.000375	3.750422	1.270677	-0.000150
 874	8.6864e+01	5.2170	22.892578	0.000334	3.344971	1.133307	-0.000134
 875	8.6963e+01	5.1833	22.739167	0.000385	3.851784	1.305020	-0.000154
 876	8.7063e+01	5.1255	22.589793	0.000375	3.750422	1.270677	-0.000150
 877	8.7162e+01	5.0902	22.468679	0.000304	3.040882	1.030279	-0.000122
 878	8.7261e+01	5.0533	22.274896	0.000487	4.865412	1.648446	-0.000195
 879	8.7361e+01	5.0132	22.125522	0.000375	3.750422	1.270677	-0.000150
 880	8.7460e+01	4.9763	22.000371	0.000314	3.142245	1.064621	-0.000126
 881	8.7560e+01	4.9362	21.838886	0.000405	4.054510	1.373705	-0.000162
 882	8.7659e+01	4.8945	21.705660	0.000334	3.344971	1.133307	-0.000134
 883	8.7759e+01	4.8624	21.503804	0.000507	5.068137	1.717131	-0.000203
 884	8.7859e+01	4.8255	21.374615	0.000324	3.243608	1.098964	-0.000130
 885	8.7958e+01	4.7742	21.241390	0.000334	3.344971	1.133307	-0.000134
 886	8.8058e+01	4.7325	21.079904	0.000405	4.054510	1.373705	-0.000162
 887	8.8157e+01	4.6988	20.906307	0.000436	4.358598	1.476733	-0.000174
 888	8.8257e+01	4.6523	20.797305	0.000274	2.736794	0.927251	-0.000110
 889	8.8356e+01	4.6186	20.627745	0.000426	4.257235	1.442390	-0.000170
 890	8.8456e+01	4.5753	20.482408	0.000365	3.649059	1.236335	-0.000146
 891	8.8555e+01	4.5320	20.272477	0.000527	5.270863	1.785817	-0.000211
 892	8.8654e+01	4.4999	20.171549	0.000253	2.534069	0.858566	-0.000101
 893	8.8754e+01	4.4534	20.018138	0.000385	3.851784	1.305020	-0.000154
 894	8.8853e+01	4.4213	19.828392	0.000476	4.764049	1.614104	-0.000191
 895	8.8953e+01	4.3780	19.691130	0.000345	3.446333	1.167649	-0.000138
 896	8.9052e+01	4.3411	19.570015	0.000304	3.040882	1.030279	-0.000122
 897	8.9152e+01	4.2929	19.376233	0.000487	4.865412	1.648446	-0.000195
 898	8.9251e+01	4.2608	19.194562	0.000456	4.561324	1.545418	-0.000183
 899	8.9351e+01	4.2191	19.061336	0.000334	3.344971	1.133307	-0.000134
 900	8.9451e+01	4.1710	18.932148	0.000324	3.243608	1.098964	-0.000130
 901	8.9550e+01	4.1389	18.718180	0.000537	5.372226	1.820159	-0.000215
 902	8.9650e+01	4.1020	18.609177	0.000274	2.736794	0.927251	-0.000110
 903	8.9749e+01	4.0571	18.455766	0.000385	3.851784	1.305020	-0.000154
 904	8.9849e+01	4.0218	18.310429	0.000365	3.649059	1.236335	-0.000146
 905	8.9948e+01	3.9769	18.128758	0.000456	4.561324	1.545418	-0.000183
 906	9.0047e+01	3.9352	17.971310	0.000395	3.953147	1.339363	-0.000158
 907	9.0147e+01	3.8999	17.801750	0.000426	4.257235	1.442390	-0.000170
 908	9.0246e+01	3.8598	17.644302	0.000395	3.953147	1.339363	-0.000158
 909	9.0346e+01	3.8293	17.474742	0.000426	4.257235	1.442390	-0.000170
 910	9.0445e+01	3.7667	17.297108	0.000446	4.459961	1.511076	-0.000179
 911	9.0545e+01	3.7395	17.192143	0.000264	2.635431	0.892908	-0.000105
 912	9.0644e+01	3.7010	17.006434	0.000466	4.662686	1.579761	-0.000187
 913	9.0744e+01	3.6625	16.865135	0.000355	3.547696	1.201992	-0.000142
 914	9.0844e+01	3.6191	16.723835	0.000355	3.547696	1.201992	-0.000142
 915	9.0943e+01	3.5790	16.538127	0.000466	4.662686	1.579761	-0.000187
 916	9.1043e+01	3.5470	16.380678	0.000395	3.953147	1.339363	-0.000158
 917	9.1142e+01	3.5052	16.223230	0.000395	3.953147	1.339363	-0.000158
 918	9.1242e+01	3.4603	16.045596	0.000446	4.459961	1.511076	-0.000179
 919	9.1341e+01	3.4186	15.876036	0.000426	4.257235	1.442390	-0.000170
 920	9.1441e+01	3.3769	15.678217	0.000497	4.966775	1.682789	-0.000199
 921	9.1540e+01	3.3304	15.549028	0.000324	3.243608	1.098964	-0.000130
 922	9.1639e+01	3.3063	15.415803	0.000334	3.344971	1.133307	-0.000134
 923	9.1739e+01	3.2662	15.226057	0.000476	4.764049	1.614104	-0.000191
 924	9.1838e+01	3.2165	15.092832	0.000334	3.344971	1.133307	-0.000134
 925	9.1938e+01	3.1764	14.899049	0.000487	4.865412	1.648446	-0.000195
 926	9.2037e+01	3.1395	14.765824	0.000334	3.344971	1.133307	-0.000134
 927	9.2137e+01	3.1042	14.612413	0.000385	3.851784	1.305020	-0.000154
 928	9.2237e+01	3.0673	14.422667	0.000476	4.764049	1.614104	-0.000191
 929	9.2336e+01	3.0240	14.265219	0.000395	3.953147	1.339363	-0.000158
 930	9.2436e+01	2.9823	14.115845	0.000375	3.750422	1.270677	-0.000150
 931	9.2535e+01	2.9486	13.930137	0.000466	4.662686	1.579761	-0.000187
 932	9.2635e+01	2.9021	13.792874	0.000345	3.446333	1.167649	-0.000138
 933	9.2734e+01	2.8652	13.619277	0.000436	4.358598	1.476733	-0.000174
 934	9.2834e+01	2.8251	13.445681	0.000436	4.358598	1.476733	-0.000174
 935	9.2933e+01	2.7785	13.276121	0.000426	4.257235	1.442390	-0.000170
 936	9.3032e+01	2.7416	13.134821	0.000355	3.547696	1.201992	-0.000142
 937	9.3132e+01	2.7015	12.957187	0.000446	4.459961	1.511076	-0.000179
 938	9.3231e+01	2.6694	12.840110	0.000294	2.939520	0.995936	-0.000118
 939	9.3331e+01	2.6245	12.654402	0.000466	4.662686	1.579761	-0.000187
 940	9.3430e+01	2.5812	12.476768	0.000446	4.459961	1.511076	-0.000179
 941	9.3530e+01	2.5459	12.282985	0.000487	4.865412	1.648446	-0.000195
 942	9.3629e+01	2.5042	12.149760	0.000334	3.344971	1.133307	-0.000134
 943	9.3729e+01	2.4657	11.968089	0.000456	4.561324	1.545418	-0.000183
 944	9.3829e+01	2.4272	11.806603	0.000405	4.054510	1.373705	-0.000162
 945	9.3928e+01	2.3823	11.633007	0.000436	4.358598	1.476733	-0.000174
 946	9.4028e+01	2.3374	11.471521	0.000405	4.054510	1.373705	-0.000162
 947	9.4127e+01	2.3021	11.277739	0.000487	4.865412	1.648446	-0.000195
 948	9.4227e+01	2.2748	11.116253	0.000405	4.054510	1.373705	-0.000162
 949	9.4326e+01	2.2411	10.930545	0.000466	4.662686	1.579761	-0.000187
 950	9.4425e+01	2.1850	10.769060	0.000405	4.054510	1.373705	-0.000162
 951	9.4525e+01	2.1368	10.656020	0.000284	2.838157	0.961594	-0.000114
 952	9.4624e+01	2.1112	10.458200	0.000497	4.966775	1.682789	-0.000199
 953	9.4724e+01	2.0582	10.304789	0.000385	3.851784	1.305020	-0.000154
 954	9.4823e+01	2.0342	10.078709	0.000568	5.676314	1.923187	-0.000227
 955	9.4923e+01	1.9748	9.957595	0.000304	3.040882	1.030279	-0.000122
 956	9.5022e+01	1.9411	9.759776	0.000497	4.966775	1.682789	-0.000199
 957	9.5122e+01	1.9106	9.650773	0.000274	2.736794	0.927251	-0.000110
 958	9.5222e+01	1.8657	9.448916	0.000507	5.068137	1.717131	-0.000203
 959	9.5321e+01	1.8256	9.279356	0.000426	4.257235	1.442390	-0.000170
 960	9.5421e+01	1.7919	9.105760	0.000436	4.358598	1.476733	-0.000174
 961	9.5520e+01	1.7438	8.972534	0.000334	3.344971	1.133307	-0.000134
 962	9.5620e+01	1.7005	8.790863	0.000456	4.561324	1.545418	-0.000183
 963	9.5719e+01	1.6748	8.625341	0.000416	4.155873	1.408048	-0.000166
 964	9.5819e+01	1.6267	8.459818	0.000416	4.155873	1.408048	-0.000166
 965	9.5918e+01	1.5770	8.302370	0.000395	3.953147	1.339363	-0.000158
 966	9.6017e+01	1.5433	8.096476	0.000517	5.169500	1.751474	-0.000207
 967	9.6117e+01	1.5032	7.971325	0.000314	3.142245	1.064621	-0.000126
 968	9.6216e+01	1.4647	7.749282	0.000557	5.574951	1.888845	-0.000223
 969	9.6316e+01	1.4278	7.616057	0.000334	3.344971	1.133307	-0.000134
 970	9.6415e+01	1.3941	7.426311	0.000476	4.764049	1.614104	-0.000191
 971	9.6515e+01	1.3476	7.301160	0.000314	3.142245	1.064621	-0.000126
 972	9.6615e+01	1.2978	7.087192	0.000537	5.372226	1.820159	-0.000215
 973	9.6714e+01	1.2673	6.929743	0.000395	3.953147	1.339363	-0.000158
 974	9.6814e+01	1.2256	6.756147	0.000436	4.358598	1.476733	-0.000174
 975	9.6913e+01	1.1919	6.582550	0.000436	4.358598	1.476733	-0.000174
 976	9.7013e+01	1.1567	6.421064	0.000405	4.054510	1.373705	-0.000162
 977	9.7112e+01	1.1021	6.235356	0.000466	4.662686	1.579761	-0.000187
 978	9.7212e+01	1.0652	6.085982	0.000375	3.750422	1.270677	-0.000150
 979	9.7311e+01	1.0283	5.904311	0.000456	4.561324	1.545418	-0.000183
 980	9.7410e+01	0.9818	5.702454	0.000507	5.068137	1.717131	-0.000203
 981	9.7510e+01	0.9529	5.516746	0.000466	4.662686	1.579761	-0.000187
 982	9.7609e+01	0.9048	5.375446	0.000355	3.547696	1.201992	-0.000142
 983	9.7709e+01	0.8599	5.193775	0.000456	4.561324	1.545418	-0.000183
 984	9.7808e+01	0.8342	5.044401	0.000375	3.750422	1.270677	-0.000150
 985	9.7908e+01	0.7989	4.842544	0.000507	5.068137	1.717131	-0.000203
 986	9.8007e+01	0.7428	4.709319	0.000334	3.344971	1.133307	-0.000134
 987	9.8107e+01	0.7075	4.507462	0.000507	5.068137	1.717131	-0.000203
 988	9.8207e+01	0.6706	4.374237	0.000334	3.344971	1.133307	-0.000134
 989	9.8306e+01	0.6257	4.140083	0.000588	5.879039	1.991872	-0.000235
 990	9.8406e+01	0.5952	3.986672	0.000385	3.851784	1.305020	-0.000154
 991	9.8505e+01	0.5470	3.821149	0.000416	4.155873	1.408048	-0.000166
 992	9.8605e+01	0.5150	3.643515	0.000446	4.459961	1.511076	-0.000179
 993	9.8704e+01	0.4684	3.473955	0.000426	4.257235	1.442390	-0.000170
 994	9.8803e+01	0.4203	3.340730	0.000334	3.344971	1.133307	-0.000134
 995	9.8903e+01	0.3930	3.118687	0.000557	5.574951	1.888845	-0.000223
 996	9.9002e+01	0.3449	2.941053	0.000446	4.459961	1.511076	-0.000179
 997	9.9102e+01	0.3048	2.751308	0.000476	4.764049	1.614104	-0.000191
 998	9.9201e+01	0.2727	2.585785	0.000416	4.155873	1.408048	-0.000166
 999	9.9301e+01	0.2294	2.432374	0.000385	3.851784	1.305020	-0.000154
1000	9.9400e+01	0.1957	2.250703	0.000456	4.561324	1.545418	-0.000183
1001	9.9500e+01	0.1636	2.109403	0.000355	3.547696	1.201992	-0.000142
1002	9.9600e+01	0.1219	1.903510	0.000517	5.169500	1.751474	-0.000207
1003	9.9699e+01	0.0786	1.733950	0.000426	4.257235	1.442390	-0.000170
1004	9.9799e+01	0.0385	1.568427	0.000416	4.155873	1.408048	-0.000166
1005	9.9898e+01	-0.0016	1.439239	0.000324	3.243608	1.098964	-0.000130
1006	9.9998e+01	-0.0433	1.257568	0.000456	4.561324	1.545418	-0.000183
1007	1.0010e+02	-0.0786	1.055711	0.000507	5.068137	1.717131	-0.000203
1008	1.0020e+02	-0.1187	0.930560	0.000314	3.142245	1.064621	-0.000126
1009	1.0030e+02	-0.1620	0.712554	0.000547	5.473588	1.854502	-0.000219
1010	1.0040e+02	-0.1957	0.526846	0.000466	4.662686	1.579761	-0.000187
1011	1.0050e+02	-0.2438	0.357287	0.000426	4.257235	1.442390	-0.000170
1012	1.0059e+02	-0.2823	0.167541	0.000476	4.764049	1.614104	-0.000191
1013	1.0069e+02	-0.3176	-0.026241	0.000487	4.865412	1.648446	-0.000195
1014	1.0079e+02	-0.3626	-0.179653	0.000385	3.851784	1.305020	-0.000154
1015	1.0089e+02	-0.3962	-0.361324	0.000456	4.561324	1.545418	-0.000183
1016	1.0099e+02	-0.4460	-0.518772	0.000395	3.953147	1.339363	-0.000158
1017	1.0109e+02	-0.4797	-0.728703	0.000527	5.270863	1.785817	-0.000211
1018	1.0119e+02	-0.5118	-0.906337	0.000446	4.459961	1.511076	-0.000179
1019	1.0129e+02	-0.5599	-1.019377	0.000284	2.838157	0.961594	-0.000114
1020	1.0139e+02	-0.6016	-1.245456	0.000568	5.676314	1.923187	-0.000227
1021	1.0149e+02	-0.6449	-1.398868	0.000385	3.851784	1.305020	-0.000154
1022	1.0159e+02	-0.6818	-1.641096	0.000608	6.081765	2.060558	-0.000243
1023	1.0169e+02	-0.7107	-1.794507	0.000385	3.851784	1.305020	-0.000154
1024	1.0179e+02	-0.7556	-1.943881	0.000375	3.750422	1.270677	-0.000150
1025	1.0189e+02	-0.7941	-2.129589	0.000466	4.662686	1.579761	-0.000187
1026	1.0199e+02	-0.8406	-2.291075	0.000405	4.054510	1.373705	-0.000162
1027	1.0209e+02	-0.8759	-2.492931	0.000507	5.068137	1.717131	-0.000203
1028	1.0219e+02	-0.9176	-2.638268	0.000365	3.649059	1.236335	-0.000146
1029	1.0229e+02	-0.9577	-2.848199	0.000527	5.270863	1.785817	-0.000211
1030	1.0239e+02	-0.9946	-3.058130	0.000527	5.270863	1.785817	-0.000211
1031	1.0248e+02	-1.0363	-3.199430	0.000355	3.547696	1.201992	-0.000142
1032	1.0258e+02	-1.0716	-3.421473	0.000557	5.574951	1.888845	-0.000223
1033	1.0268e+02	-1.1230	-3.578921	0.000395	3.953147	1.339363	-0.000158
1034	1.0278e+02	-1.1615	-3.744443	0.000416	4.155873	1.408048	-0.000166
1035	1.0288e+02	-1.1935	-3.942263	0.000497	4.966775	1.682789	-0.000199
1036	1.0298e+02	-1.2369	-4.087600	0.000365	3.649059	1.236335	-0.000146
1037	1.0308e+02	-1.2754	-4.293494	0.000517	5.169500	1.751474	-0.000207
1038	1.0318e+02	-1.3187	-4.446905	0.000385	3.851784	1.305020	-0.000154
1039	1.0328e+02	-1.3492	-4.628576	0.000456	4.561324	1.545418	-0.000183
1040	1.0338e+02	-1.3893	-4.773913	0.000365	3.649059	1.236335	-0.000146
1041	1.0348e+02	-1.4374	-5.028253	0.000639	6.385853	2.163586	-0.000256
1042	1.0358e+02	-1.4791	-5.117070	0.000223	2.229980	0.755538	-0.000089
1043	1.0368e+02	-1.5144	-5.379483	0.000659	6.588579	2.232271	-0.000264
1044	1.0378e+02	-1.5577	-5.516746	0.000345	3.446333	1.167649	-0.000138
1045	1.0388e+02	-1.5914	-5.718603	0.000507	5.068137	1.717131	-0.000203
1046	1.0398e+02	-1.6299	-5.880088	0.000405	4.054510	1.373705	-0.000162
1047	1.0408e+02	-1.6796	-6.037536	0.000395	3.953147	1.339363	-0.000158
1048	1.0418e+02	-1.7117	-6.235356	0.000497	4.966775	1.682789	-0.000199
1049	1.0428e+02	-1.7614	-6.408953	0.000436	4.358598	1.476733	-0.000174
1050	1.0438e+02	-1.7983	-6.562364	0.000385	3.851784	1.305020	-0.000154
1051	1.0447e+02	-1.8320	-6.784407	0.000557	5.574951	1.888845	-0.000223
1052	1.0457e+02	-1.8705	-6.937818	0.000385	3.851784	1.305020	-0.000154
1053	1.0467e+02	-1.9138	-7.127563	0.000476	4.764049	1.614104	-0.000191
1054	1.0477e+02	-1.9507	-7.325383	0.000497	4.966775	1.682789	-0.000199
1055	1.0487e+02	-1.9860	-7.482831	0.000395	3.953147	1.339363	-0.000158
1056	1.0497e+02	-2.0261	-7.644317	0.000405	4.054510	1.373705	-0.000162
1057	1.0507e+02	-2.0791	-7.846173	0.000507	5.068137	1.717131	-0.000203
1058	1.0517e+02	-2.1112	-8.048030	0.000507	5.068137	1.717131	-0.000203
1059	1.0527e+02	-2.1513	-8.181256	0.000334	3.344971	1.133307	-0.000134
1060	1.0537e+02	-2.1898	-8.366964	0.000466	4.662686	1.579761	-0.000187
1061	1.0547e+02	-2.2331	-8.552672	0.000466	4.662686	1.579761	-0.000187
1062	1.0557e+02	-2.2732	-8.730306	0.000446	4.459961	1.511076	-0.000179
1063	1.0567e+02	-2.3101	-8.891791	0.000405	4.054510	1.373705	-0.000162
1064	1.0577e+02	-2.3470	-9.089611	0.000497	4.966775	1.682789	-0.000199
1065	1.0587e+02	-2.3935	-9.251097	0.000405	4.054510	1.373705	-0.000162
1066	1.0597e+02	-2.4336	-9.428731	0.000446	4.459961	1.511076	-0.000179
1067	1.0607e+02	-2.4801	-9.606364	0.000446	4.459961	1.511076	-0.000179
1068	1.0617e+02	-2.5138	-9.788036	0.000456	4.561324	1.545418	-0.000183
1069	1.0627e+02	-2.5443	-9.933372	0.000365	3.649059	1.236335	-0.000146
1070	1.0637e+02	-2.5973	-10.123118	0.000476	4.764049	1.614104	-0.000191
1071	1.0647e+02	-2.6213	-10.308826	0.000466	4.662686	1.579761	-0.000187
1072	1.0656e+02	-2.6678	-10.474349	0.000416	4.155873	1.408048	-0.000166
1073	1.0666e+02	-2.6999	-10.672168	0.000497	4.966775	1.682789	-0.000199
1074	1.0676e+02	-2.7448	-10.833654	0.000405	4.054510	1.373705	-0.000162
1075	1.0686e+02	-2.7833	-10.999176	0.000416	4.155873	1.408048	-0.000166
1076	1.0696e+02	-2.8299	-11.184885	0.000466	4.662686	1.579761	-0.000187
1077	1.0706e+02	-2.8748	-11.350407	0.000416	4.155873	1.408048	-0.000166
1078	1.0716e+02	-2.9069	-11.503818	0.000385	3.851784	1.305020	-0.000154
1079	1.0726e+02	-2.9406	-11.729898	0.000568	5.676314	1.923187	-0.000227
1080	1.0736e+02	-2.9839	-11.903495	0.000436	4.358598	1.476733	-0.000174
1081	1.0746e+02	-3.0240	-12.077092	0.000436	4.358598	1.476733	-0.000174
1082	1.0756e+02	-3.0721	-12.214354	0.000345	3.446333	1.167649	-0.000138
1083	1.0766e+02	-3.1042	-12.412174	0.000497	4.966775	1.682789	-0.000199
1084	1.0776e+02	-3.1443	-12.545399	0.000334	3.344971	1.133307	-0.000134
1085	1.0786e+02	-3.1972	-12.755330	0.000527	5.270863	1.785817	-0.000211
1086	1.0796e+02	-3.2261	-12.892593	0.000345	3.446333	1.167649	-0.000138
1087	1.0806e+02	-3.2630	-13.070227	0.000446	4.459961	1.511076	-0.000179
1088	1.0816e+02	-3.3111	-13.272084	0.000507	5.068137	1.717131	-0.000203
1089	1.0826e+02	-3.3496	-13.413383	0.000355	3.547696	1.201992	-0.000142
1090	1.0836e+02	-3.3946	-13.599092	0.000466	4.662686	1.579761	-0.000187
1091	1.0845e+02	-3.4250	-13.732317	0.000334	3.344971	1.133307	-0.000134
1092	1.0855e+02	-3.4732	-13.913988	0.000456	4.561324	1.545418	-0.000183
1093	1.0865e+02	-3.4988	-14.079511	0.000416	4.155873	1.408048	-0.000166
1094	1.0875e+02	-3.5357	-14.261182	0.000456	4.561324	1.545418	-0.000183
1095	1.0885e+02	-3.5887	-14.422667	0.000405	4.054510	1.373705	-0.000162
1096	1.0895e+02	-3.6191	-14.572041	0.000375	3.750422	1.270677	-0.000150
1097	1.0905e+02	-3.6673	-14.753713	0.000456	4.561324	1.545418	-0.000183
1098	1.0915e+02	-3.7058	-14.923272	0.000426	4.257235	1.442390	-0.000170
1099	1.0925e+02	-3.7555	-15.092832	0.000426	4.257235	1.442390	-0.000170
1100	1.0935e+02	-3.7860	-15.254317	0.000405	4.054510	1.373705	-0.000162
1101	1.0945e+02	-3.8245	-15.427914	0.000436	4.358598	1.476733	-0.000174
1102	1.0955e+02	-3.8614	-15.557103	0.000324	3.243608	1.098964	-0.000130
1103	1.0965e+02	-3.9047	-15.771071	0.000537	5.372226	1.820159	-0.000215
1104	1.0975e+02	-3.9448	-15.896222	0.000314	3.142245	1.064621	-0.000126
1105	1.0985e+02	-3.9833	-16.090004	0.000487	4.865412	1.648446	-0.000195
1106	1.0995e+02	-4.0266	-16.243416	0.000385	3.851784	1.305020	-0.000154
1107	1.1005e+02	-4.0683	-16.412975	0.000426	4.257235	1.442390	-0.000170
1108	1.1015e+02	-4.1004	-16.558312	0.000365	3.649059	1.236335	-0.000146
1109	1.1025e+02	-4.1485	-16.731909	0.000436	4.358598	1.476733	-0.000174
1110	1.1035e+02	-4.1870	-16.877246	0.000365	3.649059	1.236335	-0.000146
1111	1.1044e+02	-4.2288	-17.042769	0.000416	4.155873	1.408048	-0.000166
1112	1.1054e+02	-4.2657	-17.204254	0.000405	4.054510	1.373705	-0.000162
1113	1.1064e+02	-4.3026	-17.345554	0.000355	3.547696	1.201992	-0.000142
1114	1.1074e+02	-4.3459	-17.515113	0.000426	4.257235	1.442390	-0.000170
1115	1.1084e+02	-4.3844	-17.716970	0.000507	5.068137	1.717131	-0.000203
1116	1.1094e+02	-4.4181	-17.862307	0.000365	3.649059	1.236335	-0.000146
1117	1.1104e+02	-4.4694	-18.011681	0.000375	3.750422	1.270677	-0.000150
1118	1.1114e+02	-4.4983	-18.205464	0.000487	4.865412	1.648446	-0.000195
1119	1.1124e+02	-4.5384	-18.314466	0.000274	2.736794	0.927251	-0.000110
1120	1.1134e+02	-4.5801	-18.500175	0.000466	4.662686	1.579761	-0.000187
1121	1.1144e+02	-4.6202	-18.649549	0.000375	3.750422	1.270677	-0.000150
1122	1.1154e+02	-4.6619	-18.790848	0.000355	3.547696	1.201992	-0.000142
1123	1.1164e+02	-4.7036	-18.992705	0.000507	5.068137	1.717131	-0.000203
1124	1.1174e+02	-4.7373	-19.089596	0.000243	2.432706	0.824223	-0.000097
1125	1.1184e+02	-4.7710	-19.287416	0.000497	4.966775	1.682789	-0.000199
1126	1.1194e+02	-4.8143	-19.448901	0.000405	4.054510	1.373705	-0.000162
1127	1.1204e+02	-4.8672	-19.626535	0.000446	4.459961	1.511076	-0.000179
1128	1.1214e+02	-4.9073	-19.727464	0.000253	2.534069	0.858566	-0.000101
1129	1.1224e+02	-4.9394	-19.897023	0.000426	4.257235	1.442390	-0.000170
1130	1.1234e+02	-4.9844	-20.058509	0.000405	4.054510	1.373705	-0.000162
1131	1.1244e+02	-5.0212	-20.219994	0.000405	4.054510	1.373705	-0.000162
1132	1.1253e+02	-5.0646	-20.353220	0.000334	3.344971	1.133307	-0.000134
1133	1.1263e+02	-5.1031	-20.526817	0.000436	4.358598	1.476733	-0.000174
1134	1.1273e+02	-5.1384	-20.664079	0.000345	3.446333	1.167649	-0.000138
1135	1.1283e+02	-5.1849	-20.857862	0.000487	4.865412	1.648446	-0.000195
1136	1.1293e+02	-5.2170	-21.003199	0.000365	3.649059	1.236335	-0.000146
1137	1.1303e+02	-5.2683	-21.124313	0.000304	3.040882	1.030279	-0.000122
1138	1.1313e+02	-5.2972	-21.269650	0.000365	3.649059	1.236335	-0.000146
1139	1.1323e+02	-5.3437	-21.455358	0.000466	4.662686	1.579761	-0.000187
1140	1.1333e+02	-5.3838	-21.588583	0.000334	3.344971	1.133307	-0.000134
1141	1.1343e+02	-5.4191	-21.733920	0.000365	3.649059	1.236335	-0.000146
1142	1.1353e+02	-5.4544	-21.875220	0.000355	3.547696	1.201992	-0.000142
1143	1.1363e+02	-5.5073	-22.040743	0.000416	4.155873	1.408048	-0.000166
1144	1.1373e+02	-5.5394	-22.226451	0.000466	4.662686	1.579761	-0.000187
1145	1.1383e+02	-5.5763	-22.327379	0.000253	2.534069	0.858566	-0.000101
1146	1.1393e+02	-5.6212	-22.472716	0.000365	3.649059	1.236335	-0.000146
1147	1.1403e+02	-5.6678	-22.646313	0.000436	4.358598	1.476733	-0.000174
1148	1.1413e+02	-5.7063	-22.787613	0.000355	3.547696	1.201992	-0.000142
1149	1.1423e+02	-5.7319	-22.932950	0.000365	3.649059	1.236335	-0.000146
1150	1.1433e+02	-5.7768	-23.074249	0.000355	3.547696	1.201992	-0.000142
1151	1.1442e+02	-5.8266	-23.219586	0.000365	3.649059	1.236335	-0.000146
1152	1.1452e+02	-5.8571	-23.397220	0.000446	4.459961	1.511076	-0.000179
1153	1.1462e+02	-5.8956	-23.546594	0.000375	3.750422	1.270677	-0.000150
1154	1.1472e+02	-5.9437	-23.687894	0.000355	3.547696	1.201992	-0.000142
1155	1.1482e+02	-5.9742	-23.813045	0.000314	3.142245	1.064621	-0.000126
1156	1.1492e+02	-6.0175	-23.982605	0.000426	4.257235	1.442390	-0.000170
1157	1.1502e+02	-6.0560	-24.136016	0.000385	3.851784	1.305020	-0.000154
1158	1.1512e+02	-6.0977	-24.249056	0.000284	2.838157	0.961594	-0.000114
1159	1.1522e+02	-6.1394	-24.370170	0.000304	3.040882	1.030279	-0.000122
1160	1.1532e+02	-6.1795	-24.531655	0.000405	4.054510	1.373705	-0.000162
1161	1.1542e+02	-6.2228	-24.636621	0.000264	2.635431	0.892908	-0.000105
1162	1.1552e+02	-6.2501	-24.838478	0.000507	5.068137	1.717131	-0.000203
1163	1.1562e+02	-6.2950	-24.959592	0.000304	3.040882	1.030279	-0.000122
1164	1.1572e+02	-6.3319	-25.125114	0.000416	4.155873	1.408048	-0.000166
1165	1.1582e+02	-6.3768	-25.262377	0.000345	3.446333	1.167649	-0.000138
1166	1.1592e+02	-6.4250	-25.411751	0.000375	3.750422	1.270677	-0.000150
1167	1.1602e+02	-6.4554	-25.549014	0.000345	3.446333	1.167649	-0.000138
1168	1.1612e+02	-6.4875	-25.694350	0.000365	3.649059	1.236335	-0.000146
1169	1.1622e+02	-6.5405	-25.795279	0.000253	2.534069	0.858566	-0.000101
1170	1.1632e+02	-6.5725	-25.952727	0.000395	3.953147	1.339363	-0.000158
1171	1.1642e+02	-6.6094	-26.138435	0.000466	4.662686	1.579761	-0.000187
1172	1.1651e+02	-6.6544	-26.251475	0.000284	2.838157	0.961594	-0.000114
1173	1.1661e+02	-6.7009	-26.400849	0.000375	3.750422	1.270677	-0.000150
1174	1.1671e+02	-6.7346	-26.521963	0.000304	3.040882	1.030279	-0.000122
1175	1.1681e+02	-6.7683	-26.667300	0.000365	3.649059	1.236335	-0.000146
1176	1.1691e+02	-6.8036	-26.808600	0.000355	3.547696	1.201992	-0.000142
1177	1.1701e+02	-6.8453	-26.933751	0.000314	3.142245	1.064621	-0.000126
1178	1.1711e+02	-6.8918	-27.058902	0.000314	3.142245	1.064621	-0.000126
1179	1.1721e+02	-6.9351	-27.212313	0.000385	3.851784	1.305020	-0.000154
1180	1.1731e+02	-6.9752	-27.369762	0.000395	3.953147	1.339363	-0.000158
1181	1.1741e+02	-7.0185	-27.498950	0.000324	3.243608	1.098964	-0.000130
1182	1.1751e+02	-7.0458	-27.648324	0.000375	3.750422	1.270677	-0.000150
1183	1.1761e+02	-7.0923	-27.781550	0.000334	3.344971	1.133307	-0.000134
1184	1.1771e+02	-7.1276	-27.951109	0.000426	4.257235	1.442390	-0.000170
1185	1.1781e+02	-7.1741	-28.088372	0.000345	3.446333	1.167649	-0.000138
1186	1.1791e+02	-7.2062	-28.201412	0.000284	2.838157	0.961594	-0.000114
1187	1.1801e+02	-7.2527	-28.342711	0.000355	3.547696	1.201992	-0.000142
1188	1.1811e+02	-7.2896	-28.524383	0.000456	4.561324	1.545418	-0.000183
1189	1.1821e+02	-7.3329	-28.637422	0.000284	2.838157	0.961594	-0.000114
1190	1.1831e+02	-7.3618	-28.770648	0.000334	3.344971	1.133307	-0.000134
1191	1.1841e+02	-7.4132	-28.960393	0.000476	4.764049	1.614104	-0.000191
1192	1.1850e+02	-7.4517	-29.093619	0.000334	3.344971	1.133307	-0.000134
1193	1.1860e+02	-7.4854	-29.210696	0.000294	2.939520	0.995936	-0.000118
1194	1.1870e+02	-7.5399	-29.339884	0.000324	3.243608	1.098964	-0.000130
1195	1.1880e+02	-7.5688	-29.465035	0.000314	3.142245	1.064621	-0.000126
1196	1.1890e+02	-7.6041	-29.606335	0.000355	3.547696	1.201992	-0.000142
1197	1.1900e+02	-7.6490	-29.735523	0.000324	3.243608	1.098964	-0.000130
1198	1.1910e+02	-7.6891	-29.860674	0.000314	3.142245	1.064621	-0.000126
1199	1.1920e+02	-7.7276	-30.006011	0.000365	3.649059	1.236335	-0.000146
1200	1.1930e+02	-7.7677	-30.151348	0.000365	3.649059	1.236335	-0.000146
1201	1.1940e+02	-7.8126	-30.300722	0.000375	3.750422	1.270677	-0.000150
1202	1.1950e+02	-7.8559	-30.409725	0.000274	2.736794	0.927251	-0.000110
1203	1.1960e+02	-7.8816	-30.559099	0.000375	3.750422	1.270677	-0.000150
1204	1.1970e+02	-7.9217	-30.676176	0.000294	2.939520	0.995936	-0.000118
1205	1.1980e+02	-7.9634	-30.857847	0.000456	4.561324	1.545418	-0.000183
1206	1.1990e+02	-8.0164	-30.978961	0.000304	3.040882	1.030279	-0.000122
1207	1.2000e+02	-8.0468	-31.100075	0.000304	3.040882	1.030279	-0.000122
1208	1.2010e+02	-8.0869	-31.225226	0.000314	3.142245	1.064621	-0.000126
1209	1.2020e+02	-8.1254	-31.406897	0.000456	4.561324	1.545418	-0.000183
1210	1.2030e+02	-8.1671	-31.536086	0.000324	3.243608	1.098964	-0.000130
1211	1.2039e+02	-8.2024	-31.657200	0.000304	3.040882	1.030279	-0.000122
1212	1.2049e+02	-8.2458	-31.766203	0.000274	2.736794	0.927251	-0.000110
1213	1.2059e+02	-8.2923	-31.899428	0.000334	3.344971	1.133307	-0.000134
1214	1.2069e+02	-8.3308	-32.028616	0.000324	3.243608	1.098964	-0.000130
1215	1.2079e+02	-8.3661	-32.206250	0.000446	4.459961	1.511076	-0.000179
1216	1.2089e+02	-8.3966	-32.295067	0.000223	2.229980	0.755538	-0.000089
1217	1.2099e+02	-8.4607	-32.448478	0.000385	3.851784	1.305020	-0.000154
1218	1.2109e+02	-8.4800	-32.597853	0.000375	3.750422	1.270677	-0.000150
1219	1.2119e+02	-8.5329	-32.731078	0.000334	3.344971	1.133307	-0.000134
1220	1.2129e+02	-8.5650	-32.888526	0.000395	3.953147	1.339363	-0.000158
1221	1.2139e+02	-8.6035	-32.961195	0.000182	1.824529	0.618167	-0.000073
1222	1.2149e+02	-8.6468	-33.114606	0.000385	3.851784	1.305020	-0.000154
1223	1.2159e+02	-8.6837	-33.255906	0.000355	3.547696	1.201992	-0.000142
1224	1.2169e+02	-8.7190	-33.389131	0.000334	3.344971	1.133307	-0.000134
1225	1.2179e+02	-8.7703	-33.506208	0.000294	2.939520	0.995936	-0.000118
1226	1.2189e+02	-8.8024	-33.687879	0.000456	4.561324	1.545418	-0.000183
1227	1.2199e+02	-8.8538	-33.788808	0.000253	2.534069	0.858566	-0.000101
1228	1.2209e+02	-8.8858	-33.922033	0.000334	3.344971	1.133307	-0.000134
1229	1.2219e+02	-8.9195	-34.091593	0.000426	4.257235	1.442390	-0.000170
1230	1.2229e+02	-8.9612	-34.192521	0.000253	2.534069	0.858566	-0.000101
1231	1.2239e+02	-9.0046	-34.329784	0.000345	3.446333	1.167649	-0.000138
1232	1.2248e+02	-9.0495	-34.483195	0.000385	3.851784	1.305020	-0.000154
1233	1.2258e+02	-9.0816	-34.616420	0.000334	3.344971	1.133307	-0.000134
1234	1.2268e+02	-9.1233	-34.745609	0.000324	3.243608	1.098964	-0.000130
1235	1.2278e+02	-9.1634	-34.878834	0.000334	3.344971	1.133307	-0.000134
1236	1.2288e+02	-9.2067	-35.016097	0.000345	3.446333	1.167649	-0.000138
1237	1.2298e+02	-9.2340	-35.121062	0.000264	2.635431	0.892908	-0.000105
1238	1.2308e+02	-9.2869	-35.254288	0.000334	3.344971	1.133307	-0.000134
1239	1.2318e+02	-9.3286	-35.395588	0.000355	3.547696	1.201992	-0.000142
1240	1.2328e+02	-9.3623	-35.520739	0.000314	3.142245	1.064621	-0.000126
1241	1.2338e+02	-9.4072	-35.674150	0.000385	3.851784	1.305020	-0.000154
1242	1.2348e+02	-9.4409	-35.807375	0.000334	3.344971	1.133307	-0.000134
1243	1.2358e+02	-9.4874	-35.960787	0.000385	3.851784	1.305020	-0.000154
1244	1.2368e+02	-9.5179	-36.102086	0.000355	3.547696	1.201992	-0.000142
1245	1.2378e+02	-9.5692	-36.203015	0.000253	2.534069	0.858566	-0.000101
1246	1.2388e+02	-9.6013	-36.332203	0.000324	3.243608	1.098964	-0.000130
1247	1.2398e+02	-9.6382	-36.473503	0.000355	3.547696	1.201992	-0.000142
1248	1.2408e+02	-9.6687	-36.606728	0.000334	3.344971	1.133307	-0.000134
1249	1.2418e+02	-9.7184	-36.715731	0.000274	2.736794	0.927251	-0.000110
1250	1.2428e+02	-9.7618	-36.861068	0.000365	3.649059	1.236335	-0.000146
1251	1.2438e+02	-9.8019	-36.982182	0.000304	3.040882	1.030279	-0.000122
1252	1.2447e+02	-9.8388	-37.127519	0.000365	3.649059	1.236335	-0.000146
1253	1.2457e+02	-9.8757	-37.220373	0.000233	2.331343	0.789880	-0.000093
1254	1.2467e+02	-9.9238	-37.398007	0.000446	4.459961	1.511076	-0.000179
1255	1.2477e+02	-9.9623	-37.511047	0.000284	2.838157	0.961594	-0.000114
1256	1.2487e+02	-10.0024	-37.636198	0.000314	3.142245	1.064621	-0.000126
1257	1.2497e+02	-10.0345	-37.757312	0.000304	3.040882	1.030279	-0.000122
1258	1.2507e+02	-10.0858	-37.914760	0.000395	3.953147	1.339363	-0.000158
1259	1.2517e+02	-10.1115	-38.011652	0.000243	2.432706	0.824223	-0.000097
1260	1.2527e+02	-10.1612	-38.181211	0.000426	4.257235	1.442390	-0.000170
1261	1.2537e+02	-10.1949	-38.265991	0.000213	2.128618	0.721195	-0.000085
1262	1.2547e+02	-10.2382	-38.439588	0.000436	4.358598	1.476733	-0.000174
1263	1.2557e+02	-10.2783	-38.572813	0.000334	3.344971	1.133307	-0.000134
1264	1.2567e+02	-10.3168	-38.697965	0.000314	3.142245	1.064621	-0.000126
1265	1.2577e+02	-10.3601	-38.815042	0.000294	2.939520	0.995936	-0.000118
1266	1.2587e+02	-10.3986	-38.952304	0.000345	3.446333	1.167649	-0.000138
1267	1.2597e+02	-10.4339	-39.041121	0.000223	2.229980	0.755538	-0.000089
1268	1.2607e+02	-10.4724	-39.218755	0.000446	4.459961	1.511076	-0.000179
1269	1.2617e+02	-10.5286	-39.259126	0.000101	1.013627	0.343426	-0.000041
1270	1.2627e+02	-10.5575	-39.420612	0.000405	4.054510	1.373705	-0.000162
1271	1.2636e+02	-10.5960	-39.545763	0.000314	3.142245	1.064621	-0.000126
1272	1.2646e+02	-10.6361	-39.695137	0.000375	3.750422	1.270677	-0.000150
1273	1.2656e+02	-10.6746	-39.836437	0.000355	3.547696	1.201992	-0.000142
1274	1.2666e+02	-10.7131	-39.929291	0.000233	2.331343	0.789880	-0.000093
1275	1.2676e+02	-10.7548	-40.074628	0.000365	3.649059	1.236335	-0.000146
1276	1.2686e+02	-10.8045	-40.203816	0.000324	3.243608	1.098964	-0.000130
1277	1.2696e+02	-10.8366	-40.393562	0.000476	4.764049	1.614104	-0.000191
1278	1.2706e+02	-10.8719	-40.478341	0.000213	2.128618	0.721195	-0.000085
1279	1.2716e+02	-10.9152	-40.591381	0.000284	2.838157	0.961594	-0.000114
1280	1.2726e+02	-10.9585	-40.704421	0.000284	2.838157	0.961594	-0.000114
1281	1.2736e+02	-10.9906	-40.825535	0.000304	3.040882	1.030279	-0.000122
1282	1.2746e+02	-11.0355	-40.966835	0.000355	3.547696	1.201992	-0.000142
1283	1.2756e+02	-11.0772	-41.075838	0.000274	2.736794	0.927251	-0.000110
1284	1.2766e+02	-11.1221	-41.253472	0.000446	4.459961	1.511076	-0.000179
1285	1.2776e+02	-11.1526	-41.338251	0.000213	2.128618	0.721195	-0.000085
1286	1.2786e+02	-11.1927	-41.491663	0.000385	3.851784	1.305020	-0.000154
1287	1.2796e+02	-11.2328	-41.596628	0.000264	2.635431	0.892908	-0.000105
1288	1.2806e+02	-11.2697	-41.693519	0.000243	2.432706	0.824223	-0.000097
1289	1.2816e+02	-11.3147	-41.826745	0.000334	3.344971	1.133307	-0.000134
1290	1.2826e+02	-11.3596	-41.968045	0.000355	3.547696	1.201992	-0.000142
1291	1.2835e+02	-11.3884	-42.073010	0.000264	2.635431	0.892908	-0.000105
1292	1.2845e+02	-11.4318	-42.206236	0.000334	3.344971	1.133307	-0.000134
1293	1.2855e+02	-11.4751	-42.347535	0.000355	3.547696	1.201992	-0.000142
1294	1.2865e+02	-11.5136	-42.444427	0.000243	2.432706	0.824223	-0.000097
1295	1.2875e+02	-11.5553	-42.581689	0.000345	3.446333	1.167649	-0.000138
1296	1.2885e+02	-11.5970	-42.718952	0.000345	3.446333	1.167649	-0.000138
1297	1.2895e+02	-11.6323	-42.827954	0.000274	2.736794	0.927251	-0.000110
1298	1.2905e+02	-11.6788	-42.924846	0.000243	2.432706	0.824223	-0.000097
1299	1.2915e+02	-11.7077	-43.074220	0.000375	3.750422	1.270677	-0.000150
1300	1.2925e+02	-11.7510	-43.154962	0.000203	2.027255	0.686853	-0.000081
1301	1.2935e+02	-11.7863	-43.312411	0.000395	3.953147	1.339363	-0.000158
1302	1.2945e+02	-11.8328	-43.445636	0.000334	3.344971	1.133307	-0.000134
1303	1.2955e+02	-11.8649	-43.554639	0.000274	2.736794	0.927251	-0.000110
1304	1.2965e+02	-11.9243	-43.679790	0.000314	3.142245	1.064621	-0.000126
1305	1.2975e+02	-11.9531	-43.780719	0.000253	2.534069	0.858566	-0.000101
1306	1.2985e+02	-11.9788	-43.922018	0.000355	3.547696	1.201992	-0.000142
1307	1.2995e+02	-12.0317	-44.026984	0.000264	2.635431	0.892908	-0.000105
1308	1.3005e+02	-12.0606	-44.156172	0.000324	3.243608	1.098964	-0.000130
1309	1.3015e+02	-12.1120	-44.257101	0.000253	2.534069	0.858566	-0.000101
1310	1.3025e+02	-12.1521	-44.374177	0.000294	2.939520	0.995936	-0.000118
1311	1.3034e+02	-12.1922	-44.511440	0.000345	3.446333	1.167649	-0.000138
1312	1.3044e+02	-12.2259	-44.612368	0.000253	2.534069	0.858566	-0.000101
1313	1.3054e+02	-12.2692	-44.749631	0.000345	3.446333	1.167649	-0.000138
1314	1.3064e+02	-12.3093	-44.842485	0.000233	2.331343	0.789880	-0.000093
1315	1.3074e+02	-12.3526	-44.979748	0.000345	3.446333	1.167649	-0.000138
1316	1.3084e+02	-12.3863	-45.133159	0.000385	3.851784	1.305020	-0.000154
1317	1.3094e+02	-12.4296	-45.185642	0.000132	1.317716	0.446454	-0.000053
1318	1.3104e+02	-12.4617	-45.302719	0.000294	2.939520	0.995936	-0.000118
1319	1.3114e+02	-12.5098	-45.439981	0.000345	3.446333	1.167649	-0.000138
1320	1.3124e+02	-12.5563	-45.548984	0.000274	2.736794	0.927251	-0.000110
1321	1.3134e+02	-12.5820	-45.702395	0.000385	3.851784	1.305020	-0.000154
1322	1.3144e+02	-12.6301	-45.795249	0.000233	2.331343	0.789880	-0.000093
1323	1.3154e+02	-12.6638	-45.831583	0.000091	0.912265	0.309084	-0.000037
1324	1.3164e+02	-12.7103	-45.908289	0.000193	1.925892	0.652510	-0.000077
1325	1.3174e+02	-12.7456	-45.940586	0.000081	0.810902	0.274741	-0.000032
1326	1.3184e+02	-12.7873	-45.948660	0.000020	0.202725	0.068685	-0.000008
1327	1.3194e+02	-12.8451	-46.033440	0.000213	2.128618	0.721195	-0.000085
1328	1.3204e+02	-12.8627	-46.215111	0.000456	4.561324	1.545418	-0.000183
1329	1.3214e+02	-12.9077	-46.352374	0.000345	3.446333	1.167649	-0.000138
1330	1.3224e+02	-12.9526	-46.425042	0.000182	1.824529	0.618167	-0.000073
1331	1.3234e+02	-12.9895	-46.501748	0.000193	1.925892	0.652510	-0.000077
1332	1.3243e+02	-13.0296	-46.610751	0.000274	2.736794	0.927251	-0.000110
1333	1.3253e+02	-13.0681	-46.832793	0.000557	5.574951	1.888845	-0.000223
1334	1.3263e+02	-13.1050	-46.933722	0.000253	2.534069	0.858566	-0.000101
1335	1.3273e+02	-13.1403	-47.034650	0.000253	2.534069	0.858566	-0.000101
1336	1.3283e+02	-13.1884	-47.123467	0.000223	2.229980	0.755538	-0.000089
1337	1.3293e+02	-13.2285	-47.139615	0.000041	0.405451	0.137371	-0.000016
1338	1.3303e+02	-13.2638	-47.200172	0.000152	1.520441	0.515139	-0.000061
1339	1.3313e+02	-13.3055	-47.224395	0.000061	0.608176	0.206056	-0.000024
1340	1.3323e+02	-13.3488	-47.232470	0.000020	0.202725	0.068685	-0.000008
1341	1.3333e+02	-13.3873	-47.280915	0.000122	1.216353	0.412112	-0.000049
1342	1.3343e+02	-13.4242	-47.337435	0.000142	1.419078	0.480797	-0.000057
1343	1.3353e+02	-13.4756	-47.361658	0.000061	0.608176	0.206056	-0.000024
1344	1.3363e+02	-13.5141	-47.470661	0.000274	2.736794	0.927251	-0.000110
1345	1.3373e+02	-13.5461	-47.506995	0.000091	0.912265	0.309084	-0.000037
1346	1.3383e+02	-13.5846	-47.567552	0.000152	1.520441	0.515139	-0.000061
1347	1.3393e+02	-13.6280	-47.644257	0.000193	1.925892	0.652510	-0.000077
1348	1.3403e+02	-13.6697	-47.725000	0.000203	2.027255	0.686853	-0.000081
1349	1.3413e+02	-13.7050	-47.777483	0.000132	1.317716	0.446454	-0.000053
1350	1.3423e+02	-13.7419	-47.882448	0.000264	2.635431	0.892908	-0.000105
1351	1.3432e+02	-13.7980	-47.991451	0.000274	2.736794	0.927251	-0.000110
1352	1.3442e+02	-13.8237	-48.092379	0.000253	2.534069	0.858566	-0.000101
1353	1.3452e+02	-13.8686	-48.197345	0.000264	2.635431	0.892908	-0.000105
1354	1.3462e+02	-13.9055	-48.265976	0.000172	1.723167	0.583825	-0.000069
1355	1.3472e+02	-13.9472	-48.379016	0.000284	2.838157	0.961594	-0.000114
1356	1.3482e+02	-13.9889	-48.516279	0.000345	3.446333	1.167649	-0.000138
1357	1.3492e+02	-14.0162	-48.617207	0.000253	2.534069	0.858566	-0.000101
1358	1.3502e+02	-14.0579	-48.750433	0.000334	3.344971	1.133307	-0.000134
1359	1.3512e+02	-14.1028	-48.839250	0.000223	2.229980	0.755538	-0.000089
1360	1.3522e+02	-14.1429	-48.960364	0.000304	3.040882	1.030279	-0.000122
1361	1.3532e+02	-14.1878	-49.077441	0.000294	2.939520	0.995936	-0.000118
1362	1.3542e+02	-14.2167	-49.218740	0.000355	3.547696	1.201992	-0.000142
1363	1.3552e+02	-14.2600	-49.315632	0.000243	2.432706	0.824223	-0.000097
1364	1.3562e+02	-14.3049	-49.420597	0.000264	2.635431	0.892908	-0.000105
1365	1.3572e+02	-14.3402	-49.533637	0.000284	2.838157	0.961594	-0.000114
1366	1.3582e+02	-14.3819	-49.638602	0.000264	2.635431	0.892908	-0.000105
1367	1.3592e+02	-14.4204	-49.743568	0.000264	2.635431	0.892908	-0.000105
1368	1.3602e+02	-14.4654	-49.860645	0.000294	2.939520	0.995936	-0.000118
1369	1.3612e+02	-14.5039	-49.945425	0.000213	2.128618	0.721195	-0.000085
1370	1.3622e+02	-14.5424	-50.106910	0.000405	4.054510	1.373705	-0.000162
1371	1.3631e+02	-14.5905	-50.211876	0.000264	2.635431	0.892908	-0.000105
1372	1.3641e+02	-14.6194	-50.389510	0.000446	4.459961	1.511076	-0.000179
1373	1.3651e+02	-14.6579	-50.446030	0.000142	1.419078	0.480797	-0.000057
1374	1.3661e+02	-14.6996	-50.619626	0.000436	4.358598	1.476733	-0.000174
1375	1.3671e+02	-14.7397	-50.777075	0.000395	3.953147	1.339363	-0.000158
1376	1.3681e+02	-14.7798	-50.898189	0.000304	3.040882	1.030279	-0.000122
1377	1.3691e+02	-14.8151	-50.995080	0.000243	2.432706	0.824223	-0.000097
1378	1.3701e+02	-14.8552	-51.116194	0.000304	3.040882	1.030279	-0.000122
1379	1.3711e+02	-14.9033	-51.257494	0.000355	3.547696	1.201992	-0.000142
1380	1.3721e+02	-14.9370	-51.370534	0.000284	2.838157	0.961594	-0.000114
1381	1.3731e+02	-14.9835	-51.483573	0.000284	2.838157	0.961594	-0.000114
1382	1.3741e+02	-15.0252	-51.628910	0.000365	3.649059	1.236335	-0.000146
1383	1.3751e+02	-15.0589	-51.709653	0.000203	2.027255	0.686853	-0.000081
1384	1.3761e+02	-15.1022	-51.814619	0.000264	2.635431	0.892908	-0.000105
1385	1.3771e+02	-15.1440	-51.939770	0.000314	3.142245	1.064621	-0.000126
1386	1.3781e+02	-15.1760	-52.060884	0.000304	3.040882	1.030279	-0.000122
1387	1.3791e+02	-15.2306	-52.190072	0.000324	3.243608	1.098964	-0.000130
1388	1.3801e+02	-15.2482	-52.282926	0.000233	2.331343	0.789880	-0.000093
1389	1.3811e+02	-15.2964	-52.395966	0.000284	2.838157	0.961594	-0.000114
1390	1.3821e+02	-15.3365	-52.504969	0.000274	2.736794	0.927251	-0.000110
1391	1.3831e+02	-15.3782	-52.622046	0.000294	2.939520	0.995936	-0.000118
1392	1.3840e+02	-15.4119	-52.747197	0.000314	3.142245	1.064621	-0.000126
1393	1.3850e+02	-15.4536	-52.836014	0.000223	2.229980	0.755538	-0.000089
1394	1.3860e+02	-15.5017	-52.957128	0.000304	3.040882	1.030279	-0.000122
1395	1.3870e+02	-15.5370	-53.058056	0.000253	2.534069	0.858566	-0.000101
1396	1.3880e+02	-15.5771	-53.130725	0.000182	1.824529	0.618167	-0.000073
1397	1.3890e+02	-15.6156	-53.284136	0.000385	3.851784	1.305020	-0.000154
1398	1.3900e+02	-15.6477	-53.372953	0.000223	2.229980	0.755538	-0.000089
1399	1.3910e+02	-15.7006	-53.481956	0.000274	2.736794	0.927251	-0.000110
1400	1.3920e+02	-15.7391	-53.566736	0.000213	2.128618	0.721195	-0.000085
1401	1.3930e+02	-15.7760	-53.687850	0.000304	3.040882	1.030279	-0.000122
1402	1.3940e+02	-15.8081	-53.768592	0.000203	2.027255	0.686853	-0.000081
1403	1.3950e+02	-15.8627	-53.877595	0.000274	2.736794	0.927251	-0.000110
1404	1.3960e+02	-15.8931	-53.954301	0.000193	1.925892	0.652510	-0.000077
1405	1.3970e+02	-15.9364	-54.087526	0.000334	3.344971	1.133307	-0.000134
1406	1.3980e+02	-15.9782	-54.152120	0.000162	1.621804	0.549482	-0.000065
1407	1.3990e+02	-16.0118	-54.216714	0.000162	1.621804	0.549482	-0.000065
1408	1.4000e+02	-16.0664	-54.333791	0.000294	2.939520	0.995936	-0.000118
1409	1.4010e+02	-16.1017	-54.458943	0.000314	3.142245	1.064621	-0.000126
1410	1.4020e+02	-16.1338	-54.539685	0.000203	2.027255	0.686853	-0.000081
1411	1.4029e+02	-16.1787	-54.664836	0.000314	3.142245	1.064621	-0.000126
1412	1.4039e+02	-16.2220	-54.672911	0.000020	0.202725	0.068685	-0.000008
1413	1.4049e+02	-16.2525	-54.822285	0.000375	3.750422	1.270677	-0.000150
1414	1.4059e+02	-16.2926	-54.903027	0.000203	2.027255	0.686853	-0.000081
1415	1.4069e+02	-16.3391	-54.975696	0.000182	1.824529	0.618167	-0.000073
1416	1.4079e+02	-16.3728	-55.076624	0.000253	2.534069	0.858566	-0.000101
1417	1.4089e+02	-16.4129	-55.149293	0.000182	1.824529	0.618167	-0.000073
1418	1.4099e+02	-16.4546	-55.254258	0.000264	2.635431	0.892908	-0.000105
1419	1.4109e+02	-16.4979	-55.322890	0.000172	1.723167	0.583825	-0.000069
1420	1.4119e+02	-16.5396	-55.448041	0.000314	3.142245	1.064621	-0.000126
1421	1.4129e+02	-16.5749	-55.484375	0.000091	0.912265	0.309084	-0.000037
1422	1.4139e+02	-16.6070	-55.617600	0.000334	3.344971	1.133307	-0.000134
1423	1.4149e+02	-16.6519	-55.722566	0.000264	2.635431	0.892908	-0.000105
1424	1.4159e+02	-16.6920	-55.775049	0.000132	1.317716	0.446454	-0.000053
1425	1.4169e+02	-16.7289	-55.855792	0.000203	2.027255	0.686853	-0.000081
1426	1.4179e+02	-16.7755	-55.960757	0.000264	2.635431	0.892908	-0.000105
1427	1.4189e+02	-16.8172	-56.081871	0.000304	3.040882	1.030279	-0.000122
1428	1.4199e+02	-16.8525	-56.198948	0.000294	2.939520	0.995936	-0.000118
1429	1.4209e+02	-16.8942	-56.251431	0.000132	1.317716	0.446454	-0.000053
1430	1.4219e+02	-16.9295	-56.396768	0.000365	3.649059	1.236335	-0.000146
1431	1.4228e+02	-16.9824	-56.521919	0.000314	3.142245	1.064621	-0.000126
1432	1.4238e+02	-17.0113	-56.655144	0.000334	3.344971	1.133307	-0.000134
1433	1.4248e+02	-17.0450	-56.756073	0.000253	2.534069	0.858566	-0.000101
1434	1.4258e+02	-17.0931	-56.953892	0.000497	4.966775	1.682789	-0.000199
1435	1.4268e+02	-17.1348	-57.131526	0.000446	4.459961	1.511076	-0.000179
1436	1.4278e+02	-17.1749	-57.345495	0.000537	5.372226	1.820159	-0.000215
1437	1.4288e+02	-17.2150	-57.567537	0.000557	5.574951	1.888845	-0.000223
1438	1.4298e+02	-17.2535	-57.862248	0.000740	7.399481	2.507012	-0.000296
1439	1.4308e+02	-17.2872	-58.104476	0.000608	6.081765	2.060558	-0.000243
1440	1.4318e+02	-17.3241	-58.496078	0.000983	9.832187	3.331235	-0.000394
1441	1.4328e+02	-17.3787	-58.774641	0.000699	6.994030	2.369641	-0.000280
1442	1.4338e+02	-17.4043	-59.000720	0.000568	5.676314	1.923187	-0.000227
1443	1.4348e+02	-17.4444	-59.125871	0.000314	3.142245	1.064621	-0.000126
1444	1.4358e+02	-17.4974	-59.275245	0.000375	3.750422	1.270677	-0.000150
1445	1.4368e+02	-17.5311	-59.432694	0.000395	3.953147	1.339363	-0.000158
1446	1.4378e+02	-17.5680	-59.553808	0.000304	3.040882	1.030279	-0.000122
1447	1.4388e+02	-17.6161	-59.654736	0.000253	2.534069	0.858566	-0.000101
1448	1.4398e+02	-17.6417	-59.771813	0.000294	2.939520	0.995936	-0.000118
1449	1.4408e+02	-17.6851	-59.905039	0.000334	3.344971	1.133307	-0.000134
1450	1.4418e+02	-17.7316	-59.997893	0.000233	2.331343	0.789880	-0.000093
1451	1.4428e+02	-17.7829	-60.127081	0.000324	3.243608	1.098964	-0.000130
1452	1.4437e+02	-17.8102	-60.268381	0.000355	3.547696	1.201992	-0.000142
1453	1.4447e+02	-17.8487	-60.373346	0.000264	2.635431	0.892908	-0.000105
1454	1.4457e+02	-17.8872	-60.474275	0.000253	2.534069	0.858566	-0.000101
1455	1.4467e+02	-17.9257	-60.583277	0.000274	2.736794	0.927251	-0.000110
1456	1.4477e+02	-17.9626	-60.716503	0.000334	3.344971	1.133307	-0.000134
1457	1.4487e+02	-18.0139	-60.861840	0.000365	3.649059	1.236335	-0.000146
1458	1.4497e+02	-18.0460	-60.934508	0.000182	1.824529	0.618167	-0.000073
1459	1.4507e+02	-18.0845	-61.043511	0.000274	2.736794	0.927251	-0.000110
1460	1.4517e+02	-18.1214	-61.144439	0.000253	2.534069	0.858566	-0.000101
1461	1.4527e+02	-18.1760	-61.241331	0.000243	2.432706	0.824223	-0.000097
1462	1.4537e+02	-18.2080	-61.410890	0.000426	4.257235	1.442390	-0.000170
1463	1.4547e+02	-18.2433	-61.491633	0.000203	2.027255	0.686853	-0.000081
1464	1.4557e+02	-18.2866	-61.584487	0.000233	2.331343	0.789880	-0.000093
1465	1.4567e+02	-18.3235	-61.705601	0.000304	3.040882	1.030279	-0.000122
1466	1.4577e+02	-18.3669	-61.838827	0.000334	3.344971	1.133307	-0.000134
1467	1.4587e+02	-18.4086	-61.931681	0.000233	2.331343	0.789880	-0.000093
1468	1.4597e+02	-18.4487	-62.056832	0.000314	3.142245	1.064621	-0.000126
1469	1.4607e+02	-18.4840	-62.161798	0.000264	2.635431	0.892908	-0.000105
1470	1.4617e+02	-18.5241	-62.254652	0.000233	2.331343	0.789880	-0.000093
1471	1.4626e+02	-18.5674	-62.375766	0.000304	3.040882	1.030279	-0.000122
1472	1.4636e+02	-18.5963	-62.492843	0.000294	2.939520	0.995936	-0.000118
1473	1.4646e+02	-18.6508	-62.638180	0.000365	3.649059	1.236335	-0.000146
1474	1.4656e+02	-18.6829	-62.722959	0.000213	2.128618	0.721195	-0.000085
1475	1.4666e+02	-18.7342	-62.815814	0.000233	2.331343	0.789880	-0.000093
1476	1.4676e+02	-18.7647	-62.900593	0.000213	2.128618	0.721195	-0.000085
1477	1.4686e+02	-18.8112	-63.025745	0.000314	3.142245	1.064621	-0.000126
1478	1.4696e+02	-18.8401	-63.167044	0.000355	3.547696	1.201992	-0.000142
1479	1.4706e+02	-18.8850	-63.272010	0.000264	2.635431	0.892908	-0.000105
1480	1.4716e+02	-18.9348	-63.356790	0.000213	2.128618	0.721195	-0.000085
1481	1.4726e+02	-18.9588	-63.481941	0.000314	3.142245	1.064621	-0.000126
1482	1.4736e+02	-19.0070	-63.607092	0.000314	3.142245	1.064621	-0.000126
1483	1.4746e+02	-19.0455	-63.691872	0.000213	2.128618	0.721195	-0.000085
1484	1.4756e+02	-19.0823	-63.808949	0.000294	2.939520	0.995936	-0.000118
1485	1.4766e+02	-19.1176	-63.930063	0.000304	3.040882	1.030279	-0.000122
1486	1.4776e+02	-19.1594	-64.022917	0.000233	2.331343	0.789880	-0.000093
1487	1.4786e+02	-19.2043	-64.164217	0.000355	3.547696	1.201992	-0.000142
1488	1.4796e+02	-19.2508	-64.273220	0.000274	2.736794	0.927251	-0.000110
1489	1.4806e+02	-19.2861	-64.333777	0.000152	1.520441	0.515139	-0.000061
1490	1.4816e+02	-19.3230	-64.479113	0.000365	3.649059	1.236335	-0.000146
1491	1.4825e+02	-19.3647	-64.588116	0.000274	2.736794	0.927251	-0.000110
1492	1.4835e+02	-19.3968	-64.676933	0.000223	2.229980	0.755538	-0.000089
1493	1.4845e+02	-19.4433	-64.777861	0.000253	2.534069	0.858566	-0.000101
1494	1.4855e+02	-19.4882	-64.894938	0.000294	2.939520	0.995936	-0.000118
1495	1.4865e+02	-19.5171	-65.024127	0.000324	3.243608	1.098964	-0.000130
1496	1.4875e+02	-19.5588	-65.100832	0.000193	1.925892	0.652510	-0.000077
1497	1.4885e+02	-19.5957	-65.250206	0.000375	3.750422	1.270677	-0.000150
1498	1.4895e+02	-19.6374	-65.379395	0.000324	3.243608	1.098964	-0.000130
1499	1.4905e+02	-19.6839	-65.452063	0.000182	1.824529	0.618167	-0.000073
1500	1.4915e+02	-19.7144	-65.581251	0.000324	3.243608	1.098964	-0.000130
1501	1.4925e+02	-19.7497	-65.682180	0.000253	2.534069	0.858566	-0.000101
1502	1.4935e+02	-19.8010	-65.811368	0.000324	3.243608	1.098964	-0.000130
1503	1.4945e+02	-19.8315	-65.900185	0.000223	2.229980	0.755538	-0.000089
1504	1.4955e+02	-19.8732	-65.993039	0.000233	2.331343	0.789880	-0.000093
1505	1.4965e+02	-19.9085	-66.118191	0.000314	3.142245	1.064621	-0.000126
1506	1.4975e+02	-19.9599	-66.223156	0.000264	2.635431	0.892908	-0.000105
1507	1.4985e+02	-19.9936	-66.324084	0.000253	2.534069	0.858566	-0.000101
1508	1.4995e+02	-19.9583	-66.303899	0.000051	0.506814	0.171713	0.000020
1509	1.5005e+02	-19.9262	-66.247379	0.000142	1.419078	0.480797	0.000057
1510	1.5015e+02	-19.8732	-66.174710	0.000182	1.824529	0.618167	0.000073
1511	1.5025e+02	-19.8379	-66.098005	0.000193	1.925892	0.652510	0.000077
1512	1.5034e+02	-19.7962	-66.045522	0.000132	1.317716	0.446454	0.000053
1513	1.5044e+02	-19.7658	-65.964779	0.000203	2.027255	0.686853	0.000081
1514	1.5054e+02	-19.7192	-65.916334	0.000122	1.216353	0.412112	0.000049
1515	1.5064e+02	-19.6855	-65.819443	0.000243	2.432706	0.824223	0.000097
1516	1.5074e+02	-19.6390	-65.775034	0.000111	1.114990	0.377769	0.000045
1517	1.5084e+02	-19.5941	-65.746774	0.000071	0.709539	0.240398	0.000028
1518	1.5094e+02	-19.5556	-65.629697	0.000294	2.939520	0.995936	0.000118
1519	1.5104e+02	-19.5219	-65.524732	0.000264	2.635431	0.892908	0.000105
1520	1.5114e+02	-19.4818	-65.484360	0.000101	1.013627	0.343426	0.000041
1521	1.5124e+02	-19.4449	-65.403618	0.000203	2.027255	0.686853	0.000081
1522	1.5134e+02	-19.3952	-65.355172	0.000122	1.216353	0.412112	0.000049
1523	1.5144e+02	-19.3583	-65.213872	0.000355	3.547696	1.201992	0.000142
1524	1.5154e+02	-19.3278	-65.169464	0.000111	1.114990	0.377769	0.000045
1525	1.5164e+02	-19.2781	-65.072572	0.000243	2.432706	0.824223	0.000097
1526	1.5174e+02	-19.2396	-65.003941	0.000172	1.723167	0.583825	0.000069
1527	1.5184e+02	-19.2091	-64.931273	0.000182	1.824529	0.618167	0.000073
1528	1.5194e+02	-19.1626	-64.854567	0.000193	1.925892	0.652510	0.000077
1529	1.5204e+02	-19.1176	-64.794010	0.000152	1.520441	0.515139	0.000061
1530	1.5214e+02	-19.0856	-64.725379	0.000172	1.723167	0.583825	0.000069
1531	1.5224e+02	-19.0567	-64.612339	0.000284	2.838157	0.961594	0.000114
1532	1.5233e+02	-19.0070	-64.507373	0.000264	2.635431	0.892908	0.000105
1533	1.5243e+02	-18.9684	-64.471039	0.000091	0.912265	0.309084	0.000037
1534	1.5253e+02	-18.9235	-64.366074	0.000264	2.635431	0.892908	0.000105
1535	1.5263e+02	-18.8834	-64.301479	0.000162	1.621804	0.549482	0.000065
1536	1.5273e+02	-18.8497	-64.228811	0.000182	1.824529	0.618167	0.000073
1537	1.5283e+02	-18.8032	-64.095586	0.000334	3.344971	1.133307	0.000134
1538	1.5293e+02	-18.7551	-64.055214	0.000101	1.013627	0.343426	0.000041
1539	1.5303e+02	-18.7246	-63.950249	0.000264	2.635431	0.892908	0.000105
1540	1.5313e+02	-18.6877	-63.885654	0.000162	1.621804	0.549482	0.000065
1541	1.5323e+02	-18.6444	-63.817023	0.000172	1.723167	0.583825	0.000069
1542	1.5333e+02	-18.6059	-63.683798	0.000334	3.344971	1.133307	0.000134
1543	1.5343e+02	-18.5738	-63.675723	0.000020	0.202725	0.068685	0.000008
1544	1.5353e+02	-18.5257	-63.542498	0.000334	3.344971	1.133307	0.000134
1545	1.5363e+02	-18.4840	-63.449644	0.000233	2.331343	0.789880	0.000093
1546	1.5373e+02	-18.4471	-63.364864	0.000213	2.128618	0.721195	0.000085
1547	1.5383e+02	-18.4038	-63.292196	0.000182	1.824529	0.618167	0.000073
1548	1.5393e+02	-18.3701	-63.207416	0.000213	2.128618	0.721195	0.000085
1549	1.5403e+02	-18.3396	-63.154933	0.000132	1.317716	0.446454	0.000053
1550	1.5413e+02	-18.2979	-63.041893	0.000284	2.838157	0.961594	0.000114
1551	1.5422e+02	-18.2465	-62.945002	0.000243	2.432706	0.824223	0.000097
1552	1.5432e+02	-18.2145	-62.896556	0.000122	1.216353	0.412112	0.000049
1553	1.5442e+02	-18.1663	-62.763331	0.000334	3.344971	1.133307	0.000134
1554	1.5452e+02	-18.1342	-62.739108	0.000061	0.608176	0.206056	0.000024
1555	1.5462e+02	-18.0813	-62.634142	0.000264	2.635431	0.892908	0.000105
1556	1.5472e+02	-18.0508	-62.553400	0.000203	2.027255	0.686853	0.000081
1557	1.5482e+02	-18.0155	-62.476694	0.000193	1.925892	0.652510	0.000077
1558	1.5492e+02	-17.9690	-62.367691	0.000274	2.736794	0.927251	0.000110
1559	1.5502e+02	-17.9177	-62.327320	0.000101	1.013627	0.343426	0.000041
1560	1.5512e+02	-17.8904	-62.206206	0.000304	3.040882	1.030279	0.000122
1561	1.5522e+02	-17.8471	-62.149686	0.000142	1.419078	0.480797	0.000057
1562	1.5532e+02	-17.8102	-62.032609	0.000294	2.939520	0.995936	0.000118
1563	1.5542e+02	-17.7653	-61.963978	0.000172	1.723167	0.583825	0.000069
1564	1.5552e+02	-17.7171	-61.850938	0.000284	2.838157	0.961594	0.000114
1565	1.5562e+02	-17.6979	-61.810567	0.000101	1.013627	0.343426	0.000041
1566	1.5572e+02	-17.6514	-61.709638	0.000253	2.534069	0.858566	0.000101
1567	1.5582e+02	-17.6145	-61.628896	0.000203	2.027255	0.686853	0.000081
1568	1.5592e+02	-17.5631	-61.483559	0.000365	3.649059	1.236335	0.000146
1569	1.5602e+02	-17.5327	-61.471447	0.000030	0.304088	0.103028	0.000012
1570	1.5612e+02	-17.4877	-61.402816	0.000172	1.723167	0.583825	0.000069
1571	1.5622e+02	-17.4621	-61.309962	0.000233	2.331343	0.789880	0.000093
1572	1.5631e+02	-17.4139	-61.188848	0.000304	3.040882	1.030279	0.000122
1573	1.5641e+02	-17.3706	-61.132328	0.000142	1.419078	0.480797	0.000057
1574	1.5651e+02	-17.3289	-61.027362	0.000264	2.635431	0.892908	0.000105
1575	1.5661e+02	-17.2984	-60.946620	0.000203	2.027255	0.686853	0.000081
1576	1.5671e+02	-17.2615	-60.882025	0.000162	1.621804	0.549482	0.000065
1577	1.5681e+02	-17.2134	-60.768986	0.000284	2.838157	0.961594	0.000114
1578	1.5691e+02	-17.1685	-60.647872	0.000304	3.040882	1.030279	0.000122
1579	1.5701e+02	-17.1188	-60.611537	0.000091	0.912265	0.309084	0.000037
1580	1.5711e+02	-17.0979	-60.482349	0.000324	3.243608	1.098964	0.000130
1581	1.5721e+02	-17.0482	-60.413718	0.000172	1.723167	0.583825	0.000069
1582	1.5731e+02	-17.0145	-60.292604	0.000304	3.040882	1.030279	0.000122
1583	1.5741e+02	-16.9744	-60.256269	0.000091	0.912265	0.309084	0.000037
1584	1.5751e+02	-16.9327	-60.127081	0.000324	3.243608	1.098964	0.000130
1585	1.5761e+02	-16.8974	-60.062487	0.000162	1.621804	0.549482	0.000065
1586	1.5771e+02	-16.8525	-59.953484	0.000274	2.736794	0.927251	0.000110
1587	1.5781e+02	-16.8140	-59.876779	0.000193	1.925892	0.652510	0.000077
1588	1.5791e+02	-16.7755	-59.775850	0.000253	2.534069	0.858566	0.000101
1589	1.5801e+02	-16.7370	-59.674922	0.000253	2.534069	0.858566	0.000101
1590	1.5811e+02	-16.6953	-59.634551	0.000101	1.013627	0.343426	0.000041
1591	1.5821e+02	-16.6439	-59.521511	0.000284	2.838157	0.961594	0.000114
1592	1.5830e+02	-16.6118	-59.420582	0.000253	2.534069	0.858566	0.000101
1593	1.5840e+02	-16.5733	-59.335803	0.000213	2.128618	0.721195	0.000085
1594	1.5850e+02	-16.5300	-59.238911	0.000243	2.432706	0.824223	0.000097
1595	1.5860e+02	-16.4867	-59.154131	0.000213	2.128618	0.721195	0.000085
1596	1.5870e+02	-16.4498	-59.061277	0.000233	2.331343	0.789880	0.000093
1597	1.5880e+02	-16.4145	-58.924015	0.000345	3.446333	1.167649	0.000138
1598	1.5890e+02	-16.3760	-58.835198	0.000223	2.229980	0.755538	0.000089
1599	1.5900e+02	-16.3343	-58.778678	0.000142	1.419078	0.480797	0.000057
1600	1.5910e+02	-16.2942	-58.685824	0.000233	2.331343	0.789880	0.000093
1601	1.5920e+02	-16.2605	-58.584895	0.000253	2.534069	0.858566	0.000101
1602	1.5930e+02	-16.2204	-58.528375	0.000142	1.419078	0.480797	0.000057
1603	1.5940e+02	-16.1707	-58.427447	0.000253	2.534069	0.858566	0.000101
1604	1.5950e+02	-16.1402	-58.318444	0.000274	2.736794	0.927251	0.000110
1605	1.5960e+02	-16.1049	-58.221553	0.000243	2.432706	0.824223	0.000097
1606	1.5970e+02	-16.0455	-58.140810	0.000203	2.027255	0.686853	0.000081
1607	1.5980e+02	-16.0102	-58.072179	0.000172	1.723167	0.583825	0.000069
1608	1.5990e+02	-15.9669	-57.971251	0.000253	2.534069	0.858566	0.000101
1609	1.6000e+02	-15.9348	-57.866285	0.000264	2.635431	0.892908	0.000105
1610	1.6010e+02	-15.8947	-57.813802	0.000132	1.317716	0.446454	0.000053
1611	1.6019e+02	-15.8594	-57.708837	0.000264	2.635431	0.892908	0.000105
1612	1.6029e+02	-15.8145	-57.652317	0.000142	1.419078	0.480797	0.000057
1613	1.6039e+02	-15.7744	-57.579648	0.000182	1.824529	0.618167	0.000073
1614	1.6049e+02	-15.7359	-57.535240	0.000111	1.114990	0.377769	0.000045
1615	1.6059e+02	-15.6894	-57.458534	0.000193	1.925892	0.652510	0.000077
1616	1.6069e+02	-15.6589	-57.369717	0.000223	2.229980	0.755538	0.000089
1617	1.6079e+02	-15.6220	-57.284938	0.000213	2.128618	0.721195	0.000085
1618	1.6089e+02	-15.5771	-57.224381	0.000152	1.520441	0.515139	0.000061
1619	1.6099e+02	-15.5402	-57.103266	0.000304	3.040882	1.030279	0.000122
1620	1.6109e+02	-15.4969	-56.998301	0.000264	2.635431	0.892908	0.000105
1621	1.6119e+02	-15.4648	-56.937744	0.000152	1.520441	0.515139	0.000061
1622	1.6129e+02	-15.4199	-56.772221	0.000416	4.155873	1.408048	0.000166
1623	1.6139e+02	-15.3766	-56.727813	0.000111	1.114990	0.377769	0.000045
1624	1.6149e+02	-15.3365	-56.614773	0.000284	2.838157	0.961594	0.000114
1625	1.6159e+02	-15.2899	-56.538067	0.000193	1.925892	0.652510	0.000077
1626	1.6169e+02	-15.2498	-56.416953	0.000304	3.040882	1.030279	0.000122
1627	1.6179e+02	-15.2161	-56.328136	0.000223	2.229980	0.755538	0.000089
1628	1.6189e+02	-15.1841	-56.231245	0.000243	2.432706	0.824223	0.000097
1629	1.6199e+02	-15.1327	-56.130317	0.000253	2.534069	0.858566	0.000101
1630	1.6209e+02	-15.0958	-56.049574	0.000203	2.027255	0.686853	0.000081
1631	1.6219e+02	-15.0557	-55.984980	0.000162	1.621804	0.549482	0.000065
1632	1.6228e+02	-15.0188	-55.928460	0.000142	1.419078	0.480797	0.000057
1633	1.6238e+02	-14.9803	-55.823494	0.000264	2.635431	0.892908	0.000105
1634	1.6248e+02	-14.9306	-55.771012	0.000132	1.317716	0.446454	0.000053
1635	1.6258e+02	-14.8937	-55.690269	0.000203	2.027255	0.686853	0.000081
1636	1.6268e+02	-14.8600	-55.662009	0.000071	0.709539	0.240398	0.000028
1637	1.6278e+02	-14.8199	-55.597415	0.000162	1.621804	0.549482	0.000065
1638	1.6288e+02	-14.7830	-55.472264	0.000314	3.142245	1.064621	0.000126
1639	1.6298e+02	-14.7397	-55.460152	0.000030	0.304088	0.103028	0.000012
1640	1.6308e+02	-14.6980	-55.371335	0.000223	2.229980	0.755538	0.000089
1641	1.6318e+02	-14.6691	-55.270407	0.000253	2.534069	0.858566	0.000101
1642	1.6328e+02	-14.6242	-55.213887	0.000142	1.419078	0.480797	0.000057
1643	1.6338e+02	-14.5841	-55.129107	0.000213	2.128618	0.721195	0.000085
1644	1.6348e+02	-14.5424	-55.088736	0.000101	1.013627	0.343426	0.000041
1645	1.6358e+02	-14.5039	-54.999919	0.000223	2.229980	0.755538	0.000089
1646	1.6368e+02	-14.4573	-54.963585	0.000091	0.912265	0.309084	0.000037
1647	1.6378e+02	-14.4204	-54.854582	0.000274	2.736794	0.927251	0.000110
1648	1.6388e+02	-14.3852	-54.785951	0.000172	1.723167	0.583825	0.000069
1649	1.6398e+02	-14.3483	-54.733468	0.000132	1.317716	0.446454	0.000053
1650	1.6408e+02	-14.3001	-54.693096	0.000101	1.013627	0.343426	0.000041
1651	1.6418e+02	-14.2600	-54.571982	0.000304	3.040882	1.030279	0.000122
1652	1.6427e+02	-14.2247	-54.479128	0.000233	2.331343	0.789880	0.000093
1653	1.6437e+02	-14.1798	-54.394348	0.000213	2.128618	0.721195	0.000085
1654	1.6447e+02	-14.1397	-54.244974	0.000375	3.750422	1.270677	0.000150
1655	1.6457e+02	-14.0932	-54.148083	0.000243	2.432706	0.824223	0.000097
1656	1.6467e+02	-14.0611	-54.018895	0.000324	3.243608	1.098964	0.000130
1657	1.6477e+02	-14.0098	-53.825112	0.000487	4.865412	1.648446	0.000195
1658	1.6487e+02	-13.9825	-53.683812	0.000355	3.547696	1.201992	0.000142
1659	1.6497e+02	-13.9392	-53.490030	0.000487	4.865412	1.648446	0.000195
1660	1.6507e+02	-13.9087	-53.340656	0.000375	3.750422	1.270677	0.000150
1661	1.6517e+02	-13.8670	-53.235690	0.000264	2.635431	0.892908	0.000105
1662	1.6527e+02	-13.8205	-53.138799	0.000243	2.432706	0.824223	0.000097
1663	1.6537e+02	-13.7852	-53.037871	0.000253	2.534069	0.858566	0.000101
1664	1.6547e+02	-13.7403	-52.900608	0.000345	3.446333	1.167649	0.000138
1665	1.6557e+02	-13.7130	-52.811791	0.000223	2.229980	0.755538	0.000089
1666	1.6567e+02	-13.6616	-52.642231	0.000426	4.257235	1.442390	0.000170
1667	1.6577e+02	-13.6199	-52.545340	0.000243	2.432706	0.824223	0.000097
1668	1.6587e+02	-13.5782	-52.424226	0.000304	3.040882	1.030279	0.000122
1669	1.6597e+02	-13.5445	-52.347521	0.000193	1.925892	0.652510	0.000077
1670	1.6607e+02	-13.5012	-52.299075	0.000122	1.216353	0.412112	0.000049
1671	1.6616e+02	-13.4675	-52.230444	0.000172	1.723167	0.583825	0.000069
1672	1.6626e+02	-13.4274	-52.085107	0.000365	3.649059	1.236335	0.000146
1673	1.6636e+02	-13.3905	-51.992253	0.000233	2.331343	0.789880	0.000093
1674	1.6646e+02	-13.3456	-51.959956	0.000081	0.810902	0.274741	0.000032
1675	1.6656e+02	-13.3039	-51.778284	0.000456	4.561324	1.545418	0.000183
1676	1.6666e+02	-13.2654	-51.689467	0.000223	2.229980	0.755538	0.000089
1677	1.6676e+02	-13.2237	-51.568353	0.000304	3.040882	1.030279	0.000122
1678	1.6686e+02	-13.1852	-51.467425	0.000253	2.534069	0.858566	0.000101
1679	1.6696e+02	-13.1483	-51.402831	0.000162	1.621804	0.549482	0.000065
1680	1.6706e+02	-13.1114	-51.322088	0.000203	2.027255	0.686853	0.000081
1681	1.6716e+02	-13.0665	-51.144454	0.000446	4.459961	1.511076	0.000179
1682	1.6726e+02	-13.0280	-51.067749	0.000193	1.925892	0.652510	0.000077
1683	1.6736e+02	-12.9863	-50.974894	0.000233	2.331343	0.789880	0.000093
1684	1.6746e+02	-12.9413	-50.886077	0.000223	2.229980	0.755538	0.000089
1685	1.6756e+02	-12.9012	-50.833595	0.000132	1.317716	0.446454	0.000053
1686	1.6766e+02	-12.8724	-50.720555	0.000284	2.838157	0.961594	0.000114
1687	1.6776e+02	-12.8210	-50.623664	0.000243	2.432706	0.824223	0.000097
1688	1.6786e+02	-12.7938	-50.482364	0.000355	3.547696	1.201992	0.000142
1689	1.6796e+02	-12.7456	-50.316841	0.000416	4.155873	1.408048	0.000166
1690	1.6806e+02	-12.7071	-50.288581	0.000071	0.709539	0.240398	0.000028
1691	1.6816e+02	-12.6702	-50.127096	0.000405	4.054510	1.373705	0.000162
1692	1.6825e+02	-12.6317	-50.026167	0.000253	2.534069	0.858566	0.000101
1693	1.6835e+02	-12.5948	-49.880831	0.000365	3.649059	1.236335	0.000146
1694	1.6845e+02	-12.5483	-49.755679	0.000314	3.142245	1.064621	0.000126
1695	1.6855e+02	-12.5082	-49.783939	-0.000071	-0.709539	-0.240398	-0.000028
1696	1.6865e+02	-12.4713	-49.727419	0.000142	1.419078	0.480797	0.000057
1697	1.6875e+02	-12.4248	-49.695122	0.000081	0.810902	0.274741	0.000032
1698	1.6885e+02	-12.3927	-49.416560	0.000699	6.994030	2.369641	0.000280
1699	1.6895e+02	-12.3446	-49.000735	0.001044	10.440363	3.537291	0.000418
1700	1.6905e+02	-12.3045	-48.839250	0.000405	4.054510	1.373705	0.000162
1701	1.6915e+02	-12.2676	-48.710061	0.000324	3.243608	1.098964	0.000130
1702	1.6925e+02	-12.2339	-48.685838	0.000061	0.608176	0.206056	0.000024
1703	1.6935e+02	-12.1777	-48.548576	0.000345	3.446333	1.167649	0.000138
1704	1.6945e+02	-12.1569	-48.080268	0.001176	11.758079	3.983745	0.000471
1705	1.6955e+02	-12.1055	-48.088342	-0.000020	-0.202725	-0.068685	-0.000008
1706	1.6965e+02	-12.0686	-47.955117	0.000334	3.344971	1.133307	0.000134
1707	1.6975e+02	-12.0398	-47.870337	0.000213	2.128618	0.721195	0.000085
1708	1.6985e+02	-11.9932	-47.656369	0.000537	5.372226	1.820159	0.000215
1709	1.6995e+02	-11.9660	-47.624072	0.000081	0.810902	0.274741	0.000032
1710	1.7005e+02	-11.9130	-47.632146	-0.000020	-0.202725	-0.068685	-0.000008
1711	1.7015e+02	-11.8713	-47.579663	0.000132	1.317716	0.446454	0.000053
1712	1.7024e+02	-11.8328	-47.216321	0.000912	9.122647	3.090837	0.000365
1713	1.7034e+02	-11.7959	-47.066947	0.000375	3.750422	1.270677	0.000150
1714	1.7044e+02	-11.7446	-46.990241	0.000193	1.925892	0.652510	0.000077
1715	1.7054e+02	-11.7173	-46.869127	0.000304	3.040882	1.030279	0.000122
1716	1.7064e+02	-11.6612	-46.707642	0.000405	4.054510	1.373705	0.000162
1717	1.7074e+02	-11.6339	-46.651122	0.000142	1.419078	0.480797	0.000057
1718	1.7084e+02	-11.5890	-46.546156	0.000264	2.635431	0.892908	0.000105
1719	1.7094e+02	-11.5537	-46.457340	0.000223	2.229980	0.755538	0.000089
1720	1.7104e+02	-11.5152	-46.328151	0.000324	3.243608	1.098964	0.000130
1721	1.7114e+02	-11.4767	-46.182814	0.000365	3.649059	1.236335	0.000146
1722	1.7124e+02	-11.4318	-46.089960	0.000233	2.331343	0.789880	0.000093
1723	1.7134e+02	-11.3981	-45.956735	0.000334	3.344971	1.133307	0.000134
1724	1.7144e+02	-11.3564	-45.863881	0.000233	2.331343	0.789880	0.000093
1725	1.7154e+02	-11.3179	-45.775064	0.000223	2.229980	0.755538	0.000089
1726	1.7164e+02	-11.2762	-45.662024	0.000284	2.838157	0.961594	0.000114
1727	1.7174e+02	-11.2344	-45.528798	0.000334	3.344971	1.133307	0.000134
1728	1.7184e+02	-11.2008	-45.363276	0.000416	4.155873	1.408048	0.000166
1729	1.7194e+02	-11.1574	-45.318867	0.000111	1.114990	0.377769	0.000045
1730	1.7204e+02	-11.1157	-45.238125	0.000203	2.027255	0.686853	0.000081
1731	1.7213e+02	-11.0740	-45.084713	0.000385	3.851784	1.305020	0.000154
1732	1.7223e+02	-11.0355	-44.975711	0.000274	2.736794	0.927251	0.000110
1733	1.7233e+02	-10.9954	-44.854597	0.000304	3.040882	1.030279	0.000122
1734	1.7243e+02	-10.9521	-44.717334	0.000345	3.446333	1.167649	0.000138
1735	1.7253e+02	-10.9072	-44.604294	0.000284	2.838157	0.961594	0.000114
1736	1.7263e+02	-10.8719	-44.515477	0.000223	2.229980	0.755538	0.000089
1737	1.7273e+02	-10.8350	-44.362066	0.000385	3.851784	1.305020	0.000154
1738	1.7283e+02	-10.7949	-44.325732	0.000091	0.912265	0.309084	0.000037
1739	1.7293e+02	-10.7548	-44.188469	0.000345	3.446333	1.167649	0.000138
1740	1.7303e+02	-10.7131	-44.055244	0.000334	3.344971	1.133307	0.000134
1741	1.7313e+02	-10.6746	-43.966427	0.000223	2.229980	0.755538	0.000089
1742	1.7323e+02	-10.6393	-43.825127	0.000355	3.547696	1.201992	0.000142
1743	1.7333e+02	-10.6024	-43.724199	0.000253	2.534069	0.858566	0.000101
1744	1.7343e+02	-10.5510	-43.631344	0.000233	2.331343	0.789880	0.000093
1745	1.7353e+02	-10.5157	-43.514268	0.000294	2.939520	0.995936	0.000118
1746	1.7363e+02	-10.4740	-43.381042	0.000334	3.344971	1.133307	0.000134
1747	1.7373e+02	-10.4420	-43.239742	0.000355	3.547696	1.201992	0.000142
1748	1.7383e+02	-10.3986	-43.126703	0.000284	2.838157	0.961594	0.000114
1749	1.7393e+02	-10.3537	-43.033848	0.000233	2.331343	0.789880	0.000093
1750	1.7403e+02	-10.3184	-42.940994	0.000233	2.331343	0.789880	0.000093
1751	1.7413e+02	-10.2799	-42.844103	0.000243	2.432706	0.824223	0.000097
1752	1.7422e+02	-10.2366	-42.727026	0.000294	2.939520	0.995936	0.000118
1753	1.7432e+02	-10.2029	-42.573615	0.000385	3.851784	1.305020	0.000154
1754	1.7442e+02	-10.1612	-42.432315	0.000355	3.547696	1.201992	0.000142
1755	1.7452e+02	-10.1259	-42.383870	0.000122	1.216353	0.412112	0.000049
1756	1.7462e+02	-10.0842	-42.190087	0.000487	4.865412	1.648446	0.000195
1757	1.7472e+02	-10.0521	-42.117419	0.000182	1.824529	0.618167	0.000073
1758	1.7482e+02	-10.0040	-42.056862	0.000152	1.520441	0.515139	0.000061
1759	1.7492e+02	-9.9591	-41.919599	0.000345	3.446333	1.167649	0.000138
1760	1.7502e+02	-9.9158	-41.782336	0.000345	3.446333	1.167649	0.000138
1761	1.7512e+02	-9.8805	-41.669297	0.000284	2.838157	0.961594	0.000114
1762	1.7522e+02	-9.8372	-41.527997	0.000355	3.547696	1.201992	0.000142
1763	1.7532e+02	-9.8035	-41.459365	0.000172	1.723167	0.583825	0.000069
1764	1.7542e+02	-9.7666	-41.309991	0.000375	3.750422	1.270677	0.000150
1765	1.7552e+02	-9.7168	-41.225212	0.000213	2.128618	0.721195	0.000085
1766	1.7562e+02	-9.6751	-41.063726	0.000405	4.054510	1.373705	0.000162
1767	1.7572e+02	-9.6350	-40.982983	0.000203	2.027255	0.686853	0.000081
1768	1.7582e+02	-9.5997	-40.813424	0.000426	4.257235	1.442390	0.000170
1769	1.7592e+02	-9.5692	-40.728644	0.000213	2.128618	0.721195	0.000085
1770	1.7602e+02	-9.5195	-40.635790	0.000233	2.331343	0.789880	0.000093
1771	1.7612e+02	-9.4762	-40.498527	0.000345	3.446333	1.167649	0.000138
1772	1.7621e+02	-9.4441	-40.377413	0.000304	3.040882	1.030279	0.000122
1773	1.7631e+02	-9.3976	-40.252262	0.000314	3.142245	1.064621	0.000126
1774	1.7641e+02	-9.3575	-40.123074	0.000324	3.243608	1.098964	0.000130
1775	1.7651e+02	-9.3190	-40.018108	0.000264	2.635431	0.892908	0.000105
1776	1.7661e+02	-9.2789	-39.905068	0.000284	2.838157	0.961594	0.000114
1777	1.7671e+02	-9.2468	-39.812214	0.000233	2.331343	0.789880	0.000093
1778	1.7681e+02	-9.2035	-39.678989	0.000334	3.344971	1.133307	0.000134
1779	1.7691e+02	-9.1682	-39.553837	0.000314	3.142245	1.064621	0.000126
1780	1.7701e+02	-9.1201	-39.388315	0.000416	4.155873	1.408048	0.000166
1781	1.7711e+02	-9.0912	-39.319684	0.000172	1.723167	0.583825	0.000069
1782	1.7721e+02	-9.0463	-39.182421	0.000345	3.446333	1.167649	0.000138
1783	1.7731e+02	-9.0046	-39.069381	0.000284	2.838157	0.961594	0.000114
1784	1.7741e+02	-8.9661	-38.972490	0.000243	2.432706	0.824223	0.000097
1785	1.7751e+02	-8.9308	-38.867524	0.000264	2.635431	0.892908	0.000105
1786	1.7761e+02	-8.8858	-38.714113	0.000385	3.851784	1.305020	0.000154
1787	1.7771e+02	-8.8425	-38.532442	0.000456	4.561324	1.545418	0.000183
1788	1.7781e+02	-8.8008	-38.427477	0.000264	2.635431	0.892908	0.000105
1789	1.7791e+02	-8.7784	-38.350771	0.000193	1.925892	0.652510	0.000077
1790	1.7801e+02	-8.7254	-38.221583	0.000324	3.243608	1.098964	0.000130
1791	1.7810e+02	-8.6885	-38.120654	0.000253	2.534069	0.858566	0.000101
1792	1.7820e+02	-8.6500	-37.959169	0.000405	4.054510	1.373705	0.000162
1793	1.7830e+02	-8.5987	-37.838055	0.000304	3.040882	1.030279	0.000122
1794	1.7840e+02	-8.5650	-37.729052	0.000274	2.736794	0.927251	0.000110
1795	1.7850e+02	-8.5201	-37.611975	0.000294	2.939520	0.995936	0.000118
1796	1.7860e+02	-8.4816	-37.482787	0.000324	3.243608	1.098964	0.000130
1797	1.7870e+02	-8.4495	-37.398007	0.000213	2.128618	0.721195	0.000085
1798	1.7880e+02	-8.4094	-37.232484	0.000416	4.155873	1.408048	0.000166
1799	1.7890e+02	-8.3597	-37.131556	0.000253	2.534069	0.858566	0.000101
1800	1.7900e+02	-8.3260	-36.957959	0.000436	4.358598	1.476733	0.000174
1801	1.7910e+02	-8.2859	-36.840882	0.000294	2.939520	0.995936	0.000118
1802	1.7920e+02	-8.2458	-36.691508	0.000375	3.750422	1.270677	0.000150
1803	1.7930e+02	-8.2040	-36.618840	0.000182	1.824529	0.618167	0.000073
1804	1.7940e+02	-8.1623	-36.497726	0.000304	3.040882	1.030279	0.000122
1805	1.7950e+02	-8.1286	-36.332203	0.000416	4.155873	1.408048	0.000166
1806	1.7960e+02	-8.0934	-36.198978	0.000334	3.344971	1.133307	0.000134
1807	1.7970e+02	-8.0420	-36.081901	0.000294	2.939520	0.995936	0.000118
1808	1.7980e+02	-8.0131	-35.976935	0.000264	2.635431	0.892908	0.000105
1809	1.7990e+02	-7.9730	-35.827561	0.000375	3.750422	1.270677	0.000150
1810	1.8000e+02	-7.9297	-35.690298	0.000345	3.446333	1.167649	0.000138
1811	1.8009e+02	-7.8864	-35.589370	0.000253	2.534069	0.858566	0.000101
1812	1.8019e+02	-7.8479	-35.427885	0.000405	4.054510	1.373705	0.000162
1813	1.8029e+02	-7.8094	-35.343105	0.000213	2.128618	0.721195	0.000085
1814	1.8039e+02	-7.7693	-35.217954	0.000314	3.142245	1.064621	0.000126
1815	1.8049e+02	-7.7340	-35.060505	0.000395	3.953147	1.339363	0.000158
1816	1.8059e+02	-7.6875	-34.931317	0.000324	3.243608	1.098964	0.000130
1817	1.8069e+02	-7.6474	-34.854611	0.000193	1.925892	0.652510	0.000077
1818	1.8079e+02	-7.5993	-34.689089	0.000416	4.155873	1.408048	0.000166
1819	1.8089e+02	-7.5688	-34.551826	0.000345	3.446333	1.167649	0.000138
1820	1.8099e+02	-7.5271	-34.426675	0.000314	3.142245	1.064621	0.000126
1821	1.8109e+02	-7.4966	-34.293450	0.000334	3.344971	1.133307	0.000134
1822	1.8119e+02	-7.4436	-34.136001	0.000395	3.953147	1.339363	0.000158
1823	1.8129e+02	-7.4132	-33.986627	0.000375	3.750422	1.270677	0.000150
1824	1.8139e+02	-7.3682	-33.893773	0.000233	2.331343	0.789880	0.000093
1825	1.8149e+02	-7.3394	-33.760548	0.000334	3.344971	1.133307	0.000134
1826	1.8159e+02	-7.2880	-33.639434	0.000304	3.040882	1.030279	0.000122
1827	1.8169e+02	-7.2495	-33.486022	0.000385	3.851784	1.305020	0.000154
1828	1.8179e+02	-7.2078	-33.377020	0.000274	2.736794	0.927251	0.000110
1829	1.8189e+02	-7.1645	-33.215534	0.000405	4.054510	1.373705	0.000162
1830	1.8199e+02	-7.1292	-33.078272	0.000345	3.446333	1.167649	0.000138
1831	1.8209e+02	-7.0891	-32.953120	0.000314	3.142245	1.064621	0.000126
1832	1.8218e+02	-7.0474	-32.832006	0.000304	3.040882	1.030279	0.000122
1833	1.8228e+02	-7.0105	-32.702818	0.000324	3.243608	1.098964	0.000130
1834	1.8238e+02	-6.9704	-32.573630	0.000324	3.243608	1.098964	0.000130
1835	1.8248e+02	-6.9303	-32.395996	0.000446	4.459961	1.511076	0.000179
1836	1.8258e+02	-6.8886	-32.299104	0.000243	2.432706	0.824223	0.000097
1837	1.8268e+02	-6.8517	-32.165879	0.000334	3.344971	1.133307	0.000134
1838	1.8278e+02	-6.8052	-31.980171	0.000466	4.662686	1.579761	0.000187
1839	1.8288e+02	-6.7650	-31.883279	0.000243	2.432706	0.824223	0.000097
1840	1.8298e+02	-6.7330	-31.725831	0.000395	3.953147	1.339363	0.000158
1841	1.8308e+02	-6.6993	-31.620866	0.000264	2.635431	0.892908	0.000105
1842	1.8318e+02	-6.6528	-31.495714	0.000314	3.142245	1.064621	0.000126
1843	1.8328e+02	-6.6126	-31.354415	0.000355	3.547696	1.201992	0.000142
1844	1.8338e+02	-6.5645	-31.205041	0.000375	3.750422	1.270677	0.000150
1845	1.8348e+02	-6.5324	-31.051630	0.000385	3.851784	1.305020	0.000154
1846	1.8358e+02	-6.4843	-30.890144	0.000405	4.054510	1.373705	0.000162
1847	1.8368e+02	-6.4538	-30.809401	0.000203	2.027255	0.686853	0.000081
1848	1.8378e+02	-6.4169	-30.680213	0.000324	3.243608	1.098964	0.000130
1849	1.8388e+02	-6.3768	-30.506616	0.000436	4.358598	1.476733	0.000174
1850	1.8398e+02	-6.3383	-30.389539	0.000294	2.939520	0.995936	0.000118
1851	1.8407e+02	-6.2950	-30.248240	0.000355	3.547696	1.201992	0.000142
1852	1.8417e+02	-6.2581	-30.086754	0.000405	4.054510	1.373705	0.000162
1853	1.8427e+02	-6.2132	-29.957566	0.000324	3.243608	1.098964	0.000130
1854	1.8437e+02	-6.1763	-29.832415	0.000314	3.142245	1.064621	0.000126
1855	1.8447e+02	-6.1410	-29.674966	0.000395	3.953147	1.339363	0.000158
1856	1.8457e+02	-6.0929	-29.565964	0.000274	2.736794	0.927251	0.000110
1857	1.8467e+02	-6.0576	-29.436775	0.000324	3.243608	1.098964	0.000130
1858	1.8477e+02	-6.0175	-29.295475	0.000355	3.547696	1.201992	0.000142
1859	1.8487e+02	-5.9822	-29.154176	0.000355	3.547696	1.201992	0.000142
1860	1.8497e+02	-5.9373	-28.988653	0.000416	4.155873	1.408048	0.000166
1861	1.8507e+02	-5.8988	-28.883688	0.000264	2.635431	0.892908	0.000105
1862	1.8517e+02	-5.8587	-28.754499	0.000324	3.243608	1.098964	0.000130
1863	1.8527e+02	-5.8169	-28.560717	0.000487	4.865412	1.648446	0.000195
1864	1.8537e+02	-5.7704	-28.439603	0.000304	3.040882	1.030279	0.000122
1865	1.8547e+02	-5.7399	-28.314451	0.000314	3.142245	1.064621	0.000126
1866	1.8557e+02	-5.6982	-28.157003	0.000395	3.953147	1.339363	0.000158
1867	1.8567e+02	-5.6565	-27.999555	0.000395	3.953147	1.339363	0.000158
1868	1.8577e+02	-5.6180	-27.850181	0.000375	3.750422	1.270677	0.000150
1869	1.8587e+02	-5.5843	-27.741178	0.000274	2.736794	0.927251	0.000110
1870	1.8597e+02	-5.5522	-27.571619	0.000426	4.257235	1.442390	0.000170
1871	1.8606e+02	-5.5057	-27.450504	0.000304	3.040882	1.030279	0.000122
1872	1.8616e+02	-5.4592	-27.268833	0.000456	4.561324	1.545418	0.000183
1873	1.8626e+02	-5.4239	-27.163868	0.000264	2.635431	0.892908	0.000105
1874	1.8636e+02	-5.3726	-27.014494	0.000375	3.750422	1.270677	0.000150
1875	1.8646e+02	-5.3453	-26.844934	0.000426	4.257235	1.442390	0.000170
1876	1.8656e+02	-5.2892	-26.715746	0.000324	3.243608	1.098964	0.000130
1877	1.8666e+02	-5.2571	-26.590595	0.000314	3.142245	1.064621	0.000126
1878	1.8676e+02	-5.2186	-26.425072	0.000416	4.155873	1.408048	0.000166
1879	1.8686e+02	-5.1801	-26.320106	0.000264	2.635431	0.892908	0.000105
1880	1.8696e+02	-5.1287	-26.130361	0.000476	4.764049	1.614104	0.000191
1881	1.8706e+02	-5.1063	-26.005210	0.000314	3.142245	1.064621	0.000126
1882	1.8716e+02	-5.0662	-25.888133	0.000294	2.939520	0.995936	0.000118
1883	1.8726e+02	-5.0212	-25.714536	0.000436	4.358598	1.476733	0.000174
1884	1.8736e+02	-4.9844	-25.597459	0.000294	2.939520	0.995936	0.000118
1885	1.8746e+02	-4.9410	-25.448085	0.000375	3.750422	1.270677	0.000150
1886	1.8756e+02	-4.9025	-25.274488	0.000436	4.358598	1.476733	0.000174
1887	1.8766e+02	-4.8672	-25.153374	0.000304	3.040882	1.030279	0.000122
1888	1.8776e+02	-4.8175	-24.987852	0.000416	4.155873	1.408048	0.000166
1889	1.8786e+02	-4.7790	-24.818292	0.000426	4.257235	1.442390	0.000170
1890	1.8796e+02	-4.7341	-24.701215	0.000294	2.939520	0.995936	0.000118
1891	1.8806e+02	-4.7084	-24.559915	0.000355	3.547696	1.201992	0.000142
1892	1.8815e+02	-4.6603	-24.374207	0.000466	4.662686	1.579761	0.000187
1893	1.8825e+02	-4.6186	-24.212722	0.000405	4.054510	1.373705	0.000162
1894	1.8835e+02	-4.5817	-24.087570	0.000314	3.142245	1.064621	0.000126
1895	1.8845e+02	-4.5448	-23.958382	0.000324	3.243608	1.098964	0.000130
1896	1.8855e+02	-4.4999	-23.817082	0.000355	3.547696	1.201992	0.000142
1897	1.8865e+02	-4.4566	-23.683857	0.000334	3.344971	1.133307	0.000134
1898	1.8875e+02	-4.4309	-23.554668	0.000324	3.243608	1.098964	0.000130
1899	1.8885e+02	-4.3908	-23.401257	0.000385	3.851784	1.305020	0.000154
1900	1.8895e+02	-4.3394	-23.243809	0.000395	3.953147	1.339363	0.000158
1901	1.8905e+02	-4.3058	-23.118658	0.000314	3.142245	1.064621	0.000126
1902	1.8915e+02	-4.2624	-22.936987	0.000456	4.561324	1.545418	0.000183
1903	1.8925e+02	-4.2304	-22.799724	0.000345	3.446333	1.167649	0.000138
1904	1.8935e+02	-4.1870	-22.662461	0.000345	3.446333	1.167649	0.000138
1905	1.8945e+02	-4.1421	-22.509050	0.000385	3.851784	1.305020	0.000154
1906	1.8955e+02	-4.1068	-22.404085	0.000264	2.635431	0.892908	0.000105
1907	1.8965e+02	-4.0683	-22.182042	0.000557	5.574951	1.888845	0.000223
1908	1.8975e+02	-4.0282	-22.016520	0.000416	4.155873	1.408048	0.000166
1909	1.8985e+02	-3.9849	-21.911554	0.000264	2.635431	0.892908	0.000105
1910	1.8995e+02	-3.9480	-21.750069	0.000405	4.054510	1.373705	0.000162
1911	1.9004e+02	-3.8999	-21.624918	0.000314	3.142245	1.064621	0.000126
1912	1.9014e+02	-3.8694	-21.463432	0.000405	4.054510	1.373705	0.000162
1913	1.9024e+02	-3.8293	-21.314058	0.000375	3.750422	1.270677	0.000150
1914	1.9034e+02	-3.7908	-21.144498	0.000426	4.257235	1.442390	0.000170
1915	1.9044e+02	-3.7395	-20.999162	0.000365	3.649059	1.236335	0.000146
1916	1.9054e+02	-3.7090	-20.845750	0.000385	3.851784	1.305020	0.000154
1917	1.9064e+02	-3.6689	-20.728673	0.000294	2.939520	0.995936	0.000118
1918	1.9074e+02	-3.6224	-20.551039	0.000446	4.459961	1.511076	0.000179
1919	1.9084e+02	-3.5871	-20.393591	0.000395	3.953147	1.339363	0.000158
1920	1.9094e+02	-3.5486	-20.272477	0.000304	3.040882	1.030279	0.000122
1921	1.9104e+02	-3.5117	-20.066583	0.000517	5.169500	1.751474	0.000207
1922	1.9114e+02	-3.4603	-19.953543	0.000284	2.838157	0.961594	0.000114
1923	1.9124e+02	-3.4202	-19.788021	0.000416	4.155873	1.408048	0.000166
1924	1.9134e+02	-3.3897	-19.654795	0.000334	3.344971	1.133307	0.000134
1925	1.9144e+02	-3.3512	-19.473124	0.000456	4.561324	1.545418	0.000183
1926	1.9154e+02	-3.2983	-19.327787	0.000365	3.649059	1.236335	0.000146
1927	1.9164e+02	-3.2646	-19.202636	0.000314	3.142245	1.064621	0.000126
1928	1.9174e+02	-3.2197	-19.008854	0.000487	4.865412	1.648446	0.000195
1929	1.9184e+02	-3.1908	-18.855442	0.000385	3.851784	1.305020	0.000154
1930	1.9194e+02	-3.1443	-18.710106	0.000365	3.649059	1.236335	0.000146
1931	1.9203e+02	-3.1122	-18.544583	0.000416	4.155873	1.408048	0.000166
1932	1.9213e+02	-3.0689	-18.354838	0.000476	4.764049	1.614104	0.000191
1933	1.9223e+02	-3.0224	-18.249872	0.000264	2.635431	0.892908	0.000105
1934	1.9233e+02	-2.9871	-18.052052	0.000497	4.966775	1.682789	0.000199
1935	1.9243e+02	-2.9390	-17.870381	0.000456	4.561324	1.545418	0.000183
1936	1.9253e+02	-2.9117	-17.737156	0.000334	3.344971	1.133307	0.000134
1937	1.9263e+02	-2.8732	-17.599893	0.000345	3.446333	1.167649	0.000138
1938	1.9273e+02	-2.8347	-17.450519	0.000375	3.750422	1.270677	0.000150
1939	1.9283e+02	-2.7898	-17.272885	0.000446	4.459961	1.511076	0.000179
1940	1.9293e+02	-2.7529	-17.095251	0.000446	4.459961	1.511076	0.000179
1941	1.9303e+02	-2.7112	-16.945877	0.000375	3.750422	1.270677	0.000150
1942	1.9313e+02	-2.6694	-16.828800	0.000294	2.939520	0.995936	0.000118
1943	1.9323e+02	-2.6197	-16.618869	0.000527	5.270863	1.785817	0.000211
1944	1.9333e+02	-2.5892	-16.445272	0.000436	4.358598	1.476733	0.000174
1945	1.9343e+02	-2.5475	-16.312047	0.000334	3.344971	1.133307	0.000134
1946	1.9353e+02	-2.5138	-16.114227	0.000497	4.966775	1.682789	0.000199
1947	1.9363e+02	-2.4641	-16.025410	0.000223	2.229980	0.755538	0.000089
1948	1.9373e+02	-2.4304	-15.847776	0.000446	4.459961	1.511076	0.000179
1949	1.9383e+02	-2.3839	-15.649957	0.000497	4.966775	1.682789	0.000199
1950	1.9393e+02	-2.3582	-15.524805	0.000314	3.142245	1.064621	0.000126
1951	1.9403e+02	-2.3037	-15.310837	0.000537	5.372226	1.820159	0.000215
1952	1.9412e+02	-2.2700	-15.177612	0.000334	3.344971	1.133307	0.000134
1953	1.9422e+02	-2.2347	-15.008052	0.000426	4.257235	1.442390	0.000170
1954	1.9432e+02	-2.1978	-14.858678	0.000375	3.750422	1.270677	0.000150
1955	1.9442e+02	-2.1577	-14.701230	0.000395	3.953147	1.339363	0.000158
1956	1.9452e+02	-2.1080	-14.543781	0.000395	3.953147	1.339363	0.000158
1957	1.9462e+02	-2.0743	-14.366148	0.000446	4.459961	1.511076	0.000179
1958	1.9472e+02	-2.0374	-14.196588	0.000426	4.257235	1.442390	0.000170
1959	1.9482e+02	-1.9957	-14.039140	0.000395	3.953147	1.339363	0.000158
1960	1.9492e+02	-1.9524	-13.849394	0.000476	4.764049	1.614104	0.000191
1961	1.9502e+02	-1.9122	-13.679834	0.000426	4.257235	1.442390	0.000170
1962	1.9512e+02	-1.8737	-13.522386	0.000395	3.953147	1.339363	0.000158
1963	1.9522e+02	-1.8385	-13.340715	0.000456	4.561324	1.545418	0.000183
1964	1.9532e+02	-1.7903	-13.159044	0.000456	4.561324	1.545418	0.000183
1965	1.9542e+02	-1.7534	-13.009670	0.000375	3.750422	1.270677	0.000150
1966	1.9552e+02	-1.7133	-12.807813	0.000507	5.068137	1.717131	0.000203
1967	1.9562e+02	-1.6828	-12.682662	0.000314	3.142245	1.064621	0.000126
1968	1.9572e+02	-1.6331	-12.521176	0.000405	4.054510	1.373705	0.000162
1969	1.9582e+02	-1.5930	-12.323357	0.000497	4.966775	1.682789	0.000199
1970	1.9592e+02	-1.5529	-12.153797	0.000426	4.257235	1.442390	0.000170
1971	1.9601e+02	-1.5112	-11.951940	0.000507	5.068137	1.717131	0.000203
1972	1.9611e+02	-1.4679	-11.798529	0.000385	3.851784	1.305020	0.000154
1973	1.9621e+02	-1.4294	-11.584561	0.000537	5.372226	1.820159	0.000215
1974	1.9631e+02	-1.3909	-11.483633	0.000253	2.534069	0.858566	0.000101
1975	1.9641e+02	-1.3604	-11.281776	0.000507	5.068137	1.717131	0.000203
1976	1.9651e+02	-1.3187	-11.112216	0.000426	4.257235	1.442390	0.000170
1977	1.9661e+02	-1.2738	-10.918434	0.000487	4.865412	1.648446	0.000195
1978	1.9671e+02	-1.2321	-10.740800	0.000446	4.459961	1.511076	0.000179
1979	1.9681e+02	-1.2080	-10.575277	0.000416	4.155873	1.408048	0.000166
1980	1.9691e+02	-1.1534	-10.425903	0.000375	3.750422	1.270677	0.000150
1981	1.9701e+02	-1.1101	-10.195786	0.000578	5.777677	1.957530	0.000231
1982	1.9711e+02	-1.0748	-10.006041	0.000476	4.764049	1.614104	0.000191
1983	1.9721e+02	-1.0428	-9.876853	0.000324	3.243608	1.098964	0.000130
1984	1.9731e+02	-0.9978	-9.695181	0.000456	4.561324	1.545418	0.000183
1985	1.9741e+02	-0.9593	-9.501399	0.000487	4.865412	1.648446	0.000195
1986	1.9751e+02	-0.9176	-9.352025	0.000375	3.750422	1.270677	0.000150
1987	1.9761e+02	-0.8711	-9.174391	0.000446	4.459961	1.511076	0.000179
1988	1.9771e+02	-0.8342	-8.952348	0.000557	5.574951	1.888845	0.000223
1989	1.9781e+02	-0.7925	-8.786826	0.000416	4.155873	1.408048	0.000166
1990	1.9791e+02	-0.7540	-8.629378	0.000395	3.953147	1.339363	0.000158
1991	1.9800e+02	-0.7155	-8.451744	0.000446	4.459961	1.511076	0.000179
1992	1.9810e+02	-0.6882	-8.257961	0.000487	4.865412	1.648446	0.000195
1993	1.9820e+02	-0.6369	-8.084364	0.000436	4.358598	1.476733	0.000174
1994	1.9830e+02	-0.5888	-7.914805	0.000426	4.257235	1.442390	0.000170
1995	1.9840e+02	-0.5583	-7.741208	0.000436	4.358598	1.476733	0.000174
1996	1.9850e+02	-0.5150	-7.583759	0.000395	3.953147	1.339363	0.000158
1997	1.9860e+02	-0.4668	-7.361717	0.000557	5.574951	1.888845	0.000223
1998	1.9870e+02	-0.4412	-7.188120	0.000436	4.358598	1.476733	0.000174
1999	1.9880e+02	-0.3995	-6.990301	0.000497	4.966775	1.682789	0.000199
2000	1.9890e+02	-0.3593	-6.772295	0.000547	5.473588	1.854502	0.000219
2001	1.9900e+02	-0.3241	-6.622921	0.000375	3.750422	1.270677	0.000150
2002	1.9910e+02	-0.2727	-6.437213	0.000466	4.662686	1.579761	0.000187
2003	1.9920e+02	-0.2342	-6.255542	0.000456	4.561324	1.545418	0.000183
2004	1.9930e+02	-0.1973	-6.061759	0.000487	4.865412	1.648446	0.000195
2005	1.9940e+02	-0.1572	-5.900274	0.000405	4.054510	1.373705	0.000162
2006	1.9950e+02	-0.1155	-5.706491	0.000487	4.865412	1.648446	0.000195
2007	1.9960e+02	-0.0802	-5.545006	0.000405	4.054510	1.373705	0.000162
2008	1.9970e+02	-0.0321	-5.327001	0.000547	5.473588	1.854502	0.000219
2009	1.9980e+02	-0.0016	-5.189738	0.000547	5.473588	1.854502	0.000138

Center data before PMax,+/-Pr and +/-Vc Calc.

PMax (uC/cm2):	6.63e+01
Pr (uC/cm2):	1.44e+00
-Pr (uC/cm2):	-5.19e+00
PLoss (uC/cm2):	-2.41e+00
Vc:	6.65e-01
-Vc:	-3.13e-01
C (Max-Eff) (nF):	3.32e-01
K (Eff):	1.12e+03
Vert. (+/-Pr) Shift (uC/cm2):	-1.87e+00
Horiz. Shift (+/-Vc):	1.76e-01
Offset (uC/cm2):	2.77e+00

A (Loop Area - uC/cm2·Volts):	-7.71e-04



Hysteresis Version: 5.48.1 - Radiant Technologies, Inc., 1999 - 9/12/24

