»»»»»»»»»»»»»»»»»»»»»»»»»»»»»»»»»»»» Hysteresis ««««««««««««««««««««««««««««««««««««
»»»  Executed Version:	5.48.1
»»»  Vision Version:	5.48.4 (R)
»»»  Vision Compiled:	9/18/24
»»»  Driver Version:	5.47.0
»»»  Windows Version:	Windows 8 or 8.1
»»»  Processor Information:	x86 (AMD or Intel) - 32 Processors
»»»  Tester Name:	PMF21124-494 (100V)
»»»  Tester S/N:	PMF21124-494
»»»  Internal Amp Type:	100V RevK 270k
»»»  Internal Amp S/N:	iAB2-596/K     
»»»  Execution Count:	1
»»»»»»»»»»»»»»»»»»»»»»»»»»»»»»»»»»»»»»»»»»««««««««««««««««««««««««««««««««««««««««««

Stored:	6/13/2025 - 13:55:53
Configured:	06/13/25 01:30:53 PM
Executed:	06/13/25 01:55:23 PM

»»»»»»»»»»»»»»»»»»»»»»»»»»»»»»»»»»» Sample Info ««««««««««««««««««««««««««««««««««««
Sample Name:	
Lot Name:	
Wafer Name:	
Die Row/Column:	0/0
Capacitor Number:	0
Sample Area (cm2):	1.00e-04
Sample Thickness (microns):	3.00e-01

Amplifier:	Internal

»»»»»»»»»»»»»»»»»»»»»»»»»»»»»»»»»»» Tester Info «««««««««««««««««««««««««««««««««««
Tester Name:	PMF21124-494 (100V)
Tester Serial Number:	PMF21124-494
Return Signal Amp. Level:	0.19 [Index: 3]

»»»»»»»»»»»»»»»»»»»»»»»»»»»»»»»» Hysteresis Info ««««««««««««««««««««««««««««««««««
Task Name:	Hyst-1922
Volts:	20.00
Field:	666.67 (kV/cm)
DCBias:	0.00
DCField:	0.00 (kV/cm)
Hysteresis Period (ms):	2.00e+02
Preset:	Enabled
Preset Delay (ms):	1.00e+03
Profile:	Standard Bipolar

»»»»»»»»»»»»»»»»»»»»»»»»»»»»»»»»»»»»»» Data «««««««««««««««««««««««««««««««««««««««
Points:	2009

Valid Data

Point	Time (ms)	Drive Voltage	Measured Polarization (uC/cm2)	Capacitance (uF)	Normalized Capacitance (uF/cm2)	Dielectric Constant	Instantaneous Current (mA)
   1	0.0000e+00	0.0000	-2.149775	0.000264	2.635379	0.892890	0.000105
   2	9.9500e-02	0.0241	-2.044809	0.000264	2.635379	0.892890	0.000105
   3	1.9900e-01	0.0658	-1.939844	0.000264	2.635379	0.892890	0.000105
   4	2.9850e-01	0.1091	-1.778358	0.000405	4.054429	1.373678	0.000162
   5	3.9800e-01	0.1428	-1.620910	0.000395	3.953068	1.339336	0.000158
   6	4.9750e-01	0.1845	-1.515944	0.000264	2.635379	0.892890	0.000105
   7	5.9700e-01	0.2278	-1.338310	0.000446	4.459871	1.511045	0.000179
   8	6.9650e-01	0.2759	-1.213159	0.000314	3.142182	1.064600	0.000126
   9	7.9600e-01	0.3096	-1.071860	0.000355	3.547625	1.201968	0.000142
  10	8.9550e-01	0.3433	-0.922486	0.000375	3.750346	1.270652	0.000150
  11	9.9500e-01	0.3834	-0.785223	0.000345	3.446264	1.167626	0.000138
  12	1.0945e+00	0.4219	-0.647960	0.000345	3.446264	1.167626	0.000138
  13	1.1940e+00	0.4636	-0.530883	0.000294	2.939461	0.995916	0.000118
  14	1.2935e+00	0.5037	-0.369398	0.000405	4.054429	1.373678	0.000162
  15	1.3930e+00	0.5454	-0.236172	0.000334	3.344904	1.133284	0.000134
  16	1.4925e+00	0.5904	-0.078724	0.000395	3.953068	1.339336	0.000158
  17	1.5920e+00	0.6208	0.066613	0.000365	3.648986	1.236310	0.000146
  18	1.6915e+00	0.6625	0.195801	0.000324	3.243543	1.098942	0.000130
  19	1.7910e+00	0.6994	0.329027	0.000334	3.344904	1.133284	0.000134
  20	1.8905e+00	0.7524	0.470326	0.000355	3.547625	1.201968	0.000142
  21	1.9900e+00	0.7813	0.635849	0.000416	4.155789	1.408020	0.000166
  22	2.0895e+00	0.8374	0.752926	0.000294	2.939461	0.995916	0.000118
  23	2.1890e+00	0.8711	0.906337	0.000385	3.851707	1.304994	0.000154
  24	2.2885e+00	0.9144	1.043600	0.000345	3.446264	1.167626	0.000138
  25	2.3880e+00	0.9369	1.188936	0.000365	3.648986	1.236310	0.000146
  26	2.4875e+00	0.9898	1.338310	0.000375	3.750346	1.270652	0.000150
  27	2.5870e+00	1.0315	1.427127	0.000223	2.229936	0.755523	0.000089
  28	2.6865e+00	1.0716	1.616873	0.000476	4.763954	1.614071	0.000191
  29	2.7860e+00	1.1005	1.709727	0.000233	2.331296	0.789865	0.000093
  30	2.8855e+00	1.1486	1.903510	0.000487	4.865314	1.648413	0.000195
  31	2.9850e+00	1.1855	2.048846	0.000365	3.648986	1.236310	0.000146
  32	3.0845e+00	1.2272	2.161886	0.000284	2.838100	0.961574	0.000114
  33	3.1840e+00	1.2625	2.335483	0.000436	4.358511	1.476703	0.000174
  34	3.2835e+00	1.3074	2.476783	0.000355	3.547625	1.201968	0.000142
  35	3.3830e+00	1.3443	2.581748	0.000264	2.635379	0.892890	0.000105
  36	3.4825e+00	1.3877	2.714974	0.000334	3.344904	1.133284	0.000134
  37	3.5820e+00	1.4278	2.868385	0.000385	3.851707	1.304994	0.000154
  38	3.6815e+00	1.4791	3.005648	0.000345	3.446264	1.167626	0.000138
  39	3.7810e+00	1.4967	3.163096	0.000395	3.953068	1.339336	0.000158
  40	3.8805e+00	1.5465	3.324581	0.000405	4.054429	1.373678	0.000162
  41	3.9800e+00	1.5914	3.429547	0.000264	2.635379	0.892890	0.000105
  42	4.0795e+00	1.6235	3.603144	0.000436	4.358511	1.476703	0.000174
  43	4.1790e+00	1.6572	3.752518	0.000375	3.750346	1.270652	0.000150
  44	4.2785e+00	1.7053	3.837298	0.000213	2.128575	0.721181	0.000085
  45	4.3780e+00	1.7358	4.039154	0.000507	5.068036	1.717097	0.000203
  46	4.4775e+00	1.7775	4.180454	0.000355	3.547625	1.201968	0.000142
  47	4.5770e+00	1.8240	4.317717	0.000345	3.446264	1.167626	0.000138
  48	4.6765e+00	1.8641	4.430756	0.000284	2.838100	0.961574	0.000114
  49	4.7760e+00	1.9042	4.612428	0.000456	4.561232	1.545387	0.000183
  50	4.8755e+00	1.9363	4.725467	0.000284	2.838100	0.961574	0.000114
  51	4.9750e+00	1.9876	4.874841	0.000375	3.750346	1.270652	0.000150
  52	5.0745e+00	2.0229	5.016141	0.000355	3.547625	1.201968	0.000142
  53	5.1740e+00	2.0679	5.181664	0.000416	4.155789	1.408020	0.000166
  54	5.2735e+00	2.0919	5.294704	0.000284	2.838100	0.961574	0.000114
  55	5.3730e+00	2.1352	5.419855	0.000314	3.142182	1.064600	0.000126
  56	5.4725e+00	2.1850	5.585377	0.000416	4.155789	1.408020	0.000166
  57	5.5720e+00	2.2219	5.686306	0.000253	2.534018	0.858548	0.000101
  58	5.6715e+00	2.2620	5.880088	0.000487	4.865314	1.648413	0.000195
  59	5.7710e+00	2.2989	5.989091	0.000274	2.736739	0.927232	0.000110
  60	5.8705e+00	2.3454	6.150576	0.000405	4.054429	1.373678	0.000162
  61	5.9700e+00	2.3823	6.279765	0.000324	3.243543	1.098942	0.000130
  62	6.0695e+00	2.4240	6.429139	0.000375	3.750346	1.270652	0.000150
  63	6.1690e+00	2.4513	6.582550	0.000385	3.851707	1.304994	0.000154
  64	6.2685e+00	2.4930	6.715775	0.000334	3.344904	1.133284	0.000134
  65	6.3680e+00	2.5395	6.869186	0.000385	3.851707	1.304994	0.000154
  66	6.4675e+00	2.5764	6.994338	0.000314	3.142182	1.064600	0.000126
  67	6.5670e+00	2.6037	7.123526	0.000324	3.243543	1.098942	0.000130
  68	6.6665e+00	2.6582	7.264826	0.000355	3.547625	1.201968	0.000142
  69	6.7660e+00	2.6967	7.377866	0.000284	2.838100	0.961574	0.000114
  70	6.8655e+00	2.7320	7.535314	0.000395	3.953068	1.339336	0.000158
  71	6.9650e+00	2.7801	7.660465	0.000314	3.142182	1.064600	0.000126
  72	7.0645e+00	2.8138	7.805802	0.000365	3.648986	1.236310	0.000146
  73	7.1640e+00	2.8523	7.983436	0.000446	4.459871	1.511045	0.000179
  74	7.2635e+00	2.9005	8.092439	0.000274	2.736739	0.927232	0.000110
  75	7.3630e+00	2.9438	8.270073	0.000446	4.459871	1.511045	0.000179
  76	7.4625e+00	2.9807	8.379075	0.000274	2.736739	0.927232	0.000110
  77	7.5620e+00	3.0144	8.520375	0.000355	3.547625	1.201968	0.000142
  78	7.6615e+00	3.0673	8.669749	0.000375	3.750346	1.270652	0.000150
  79	7.7610e+00	3.0994	8.843346	0.000436	4.358511	1.476703	0.000174
  80	7.8605e+00	3.1395	8.936200	0.000233	2.331296	0.789865	0.000093
  81	7.9600e+00	3.1828	9.065388	0.000324	3.243543	1.098942	0.000130
  82	8.0595e+00	3.2101	9.222837	0.000395	3.953068	1.339336	0.000158
  83	8.1590e+00	3.2646	9.388359	0.000416	4.155789	1.408020	0.000166
  84	8.2585e+00	3.2983	9.509473	0.000304	3.040821	1.030258	0.000122
  85	8.3580e+00	3.3352	9.606364	0.000243	2.432657	0.824207	0.000097
  86	8.4575e+00	3.3785	9.771887	0.000416	4.155789	1.408020	0.000166
  87	8.5570e+00	3.4234	9.929335	0.000395	3.953068	1.339336	0.000158
  88	8.6565e+00	3.4507	10.030264	0.000253	2.534018	0.858548	0.000101
  89	8.7560e+00	3.5004	10.199823	0.000426	4.257150	1.442361	0.000170
  90	8.8555e+00	3.5373	10.324975	0.000314	3.142182	1.064600	0.000126
  91	8.9550e+00	3.5758	10.454163	0.000324	3.243543	1.098942	0.000130
  92	9.0545e+00	3.6127	10.623723	0.000426	4.257150	1.442361	0.000170
  93	9.1540e+00	3.6544	10.728688	0.000264	2.635379	0.892890	0.000105
  94	9.2535e+00	3.6945	10.898248	0.000426	4.257150	1.442361	0.000170
  95	9.3530e+00	3.7347	11.015325	0.000294	2.939461	0.995916	0.000118
  96	9.4525e+00	3.7732	11.184885	0.000426	4.257150	1.442361	0.000170
  97	9.5520e+00	3.8101	11.322147	0.000345	3.446264	1.167626	0.000138
  98	9.6515e+00	3.8518	11.410964	0.000223	2.229936	0.755523	0.000089
  99	9.7510e+00	3.8951	11.572450	0.000405	4.054429	1.373678	0.000162
 100	9.8505e+00	3.9368	11.721824	0.000375	3.750346	1.270652	0.000150
 101	9.9500e+00	3.9705	11.846975	0.000314	3.142182	1.064600	0.000126
 102	1.0050e+01	4.0122	11.984237	0.000345	3.446264	1.167626	0.000138
 103	1.0149e+01	4.0459	12.093240	0.000274	2.736739	0.927232	0.000110
 104	1.0248e+01	4.0908	12.262800	0.000426	4.257150	1.442361	0.000170
 105	1.0348e+01	4.1277	12.379877	0.000294	2.939461	0.995916	0.000118
 106	1.0447e+01	4.1726	12.492917	0.000284	2.838100	0.961574	0.000114
 107	1.0547e+01	4.2095	12.622105	0.000324	3.243543	1.098942	0.000130
 108	1.0646e+01	4.2576	12.763405	0.000355	3.547625	1.201968	0.000142
 109	1.0746e+01	4.2929	12.920853	0.000395	3.953068	1.339336	0.000158
 110	1.0845e+01	4.3378	13.082338	0.000405	4.054429	1.373678	0.000162
 111	1.0945e+01	4.3763	13.159044	0.000193	1.925854	0.652497	0.000077
 112	1.1044e+01	4.4132	13.340715	0.000456	4.561232	1.545387	0.000183
 113	1.1144e+01	4.4485	13.469903	0.000324	3.243543	1.098942	0.000130
 114	1.1243e+01	4.4967	13.611203	0.000355	3.547625	1.201968	0.000142
 115	1.1343e+01	4.5304	13.740391	0.000324	3.243543	1.098942	0.000130
 116	1.1443e+01	4.5769	13.881691	0.000355	3.547625	1.201968	0.000142
 117	1.1542e+01	4.6090	14.043177	0.000405	4.054429	1.373678	0.000162
 118	1.1642e+01	4.6459	14.144105	0.000253	2.534018	0.858548	0.000101
 119	1.1741e+01	4.6972	14.313665	0.000426	4.257150	1.442361	0.000170
 120	1.1841e+01	4.7309	14.406519	0.000233	2.331296	0.789865	0.000093
 121	1.1940e+01	4.7726	14.568004	0.000405	4.054429	1.373678	0.000162
 122	1.2040e+01	4.8111	14.705267	0.000345	3.446264	1.167626	0.000138
 123	1.2139e+01	4.8496	14.794084	0.000223	2.229936	0.755523	0.000089
 124	1.2239e+01	4.8929	14.947495	0.000385	3.851707	1.304994	0.000154
 125	1.2338e+01	4.9394	15.100906	0.000385	3.851707	1.304994	0.000154
 126	1.2438e+01	4.9779	15.197797	0.000243	2.432657	0.824207	0.000097
 127	1.2537e+01	5.0116	15.331023	0.000334	3.344904	1.133284	0.000134
 128	1.2636e+01	5.0533	15.468286	0.000345	3.446264	1.167626	0.000138
 129	1.2736e+01	5.0934	15.629771	0.000405	4.054429	1.373678	0.000162
 130	1.2835e+01	5.1271	15.706477	0.000193	1.925854	0.652497	0.000077
 131	1.2935e+01	5.1672	15.884111	0.000446	4.459871	1.511045	0.000179
 132	1.3034e+01	5.2138	16.001187	0.000294	2.939461	0.995916	0.000118
 133	1.3134e+01	5.2571	16.138450	0.000345	3.446264	1.167626	0.000138
 134	1.3233e+01	5.2940	16.303973	0.000416	4.155789	1.408020	0.000166
 135	1.3333e+01	5.3293	16.392790	0.000223	2.229936	0.755523	0.000089
 136	1.3432e+01	5.3790	16.542164	0.000375	3.750346	1.270652	0.000150
 137	1.3532e+01	5.4031	16.695575	0.000385	3.851707	1.304994	0.000154
 138	1.3632e+01	5.4544	16.796503	0.000253	2.534018	0.858548	0.000101
 139	1.3731e+01	5.4977	16.933766	0.000345	3.446264	1.167626	0.000138
 140	1.3831e+01	5.5250	17.034694	0.000253	2.534018	0.858548	0.000101
 141	1.3930e+01	5.5699	17.171957	0.000345	3.446264	1.167626	0.000138
 142	1.4030e+01	5.6068	17.345554	0.000436	4.358511	1.476703	0.000174
 143	1.4129e+01	5.6533	17.446482	0.000253	2.534018	0.858548	0.000101
 144	1.4229e+01	5.6870	17.591819	0.000365	3.648986	1.236310	0.000146
 145	1.4328e+01	5.7303	17.704859	0.000284	2.838100	0.961574	0.000114
 146	1.4428e+01	5.7688	17.846159	0.000355	3.547625	1.201968	0.000142
 147	1.4527e+01	5.8073	17.963235	0.000294	2.939461	0.995916	0.000118
 148	1.4627e+01	5.8474	18.072238	0.000274	2.736739	0.927232	0.000110
 149	1.4726e+01	5.8891	18.274095	0.000507	5.068036	1.717097	0.000203
 150	1.4825e+01	5.9260	18.342726	0.000172	1.723132	0.583813	0.000069
 151	1.4925e+01	5.9694	18.488063	0.000365	3.648986	1.236310	0.000146
 152	1.5024e+01	5.9934	18.613214	0.000314	3.142182	1.064600	0.000126
 153	1.5124e+01	6.0544	18.754514	0.000355	3.547625	1.201968	0.000142
 154	1.5223e+01	6.0752	18.887740	0.000334	3.344904	1.133284	0.000134
 155	1.5323e+01	6.1282	19.008854	0.000304	3.040821	1.030258	0.000122
 156	1.5422e+01	6.1699	19.077485	0.000172	1.723132	0.583813	0.000069
 157	1.5522e+01	6.2084	19.275305	0.000497	4.966675	1.682755	0.000199
 158	1.5621e+01	6.2565	19.388344	0.000284	2.838100	0.961574	0.000114
 159	1.5721e+01	6.2918	19.501384	0.000284	2.838100	0.961574	0.000114
 160	1.5820e+01	6.3239	19.642684	0.000355	3.547625	1.201968	0.000142
 161	1.5920e+01	6.3624	19.715352	0.000182	1.824493	0.618155	0.000073
 162	1.6020e+01	6.4137	19.888949	0.000436	4.358511	1.476703	0.000174
 163	1.6119e+01	6.4522	20.026212	0.000345	3.446264	1.167626	0.000138
 164	1.6218e+01	6.4811	20.147326	0.000304	3.040821	1.030258	0.000122
 165	1.6318e+01	6.5228	20.304774	0.000395	3.953068	1.339336	0.000158
 166	1.6418e+01	6.5645	20.409740	0.000264	2.635379	0.892890	0.000105
 167	1.6517e+01	6.6030	20.502594	0.000233	2.331296	0.789865	0.000093
 168	1.6616e+01	6.6351	20.676191	0.000436	4.358511	1.476703	0.000174
 169	1.6716e+01	6.6800	20.797305	0.000304	3.040821	1.030258	0.000122
 170	1.6816e+01	6.7233	20.918419	0.000304	3.040821	1.030258	0.000122
 171	1.6915e+01	6.7570	21.047607	0.000324	3.243543	1.098942	0.000130
 172	1.7015e+01	6.8116	21.188907	0.000355	3.547625	1.201968	0.000142
 173	1.7114e+01	6.8469	21.269650	0.000203	2.027214	0.686839	0.000081
 174	1.7213e+01	6.8838	21.419024	0.000375	3.750346	1.270652	0.000150
 175	1.7313e+01	6.9175	21.528026	0.000274	2.736739	0.927232	0.000110
 176	1.7413e+01	6.9640	21.649140	0.000304	3.040821	1.030258	0.000122
 177	1.7512e+01	7.0009	21.762180	0.000284	2.838100	0.961574	0.000114
 178	1.7611e+01	7.0458	21.891369	0.000324	3.243543	1.098942	0.000130
 179	1.7711e+01	7.0827	22.028631	0.000345	3.446264	1.167626	0.000138
 180	1.7811e+01	7.1100	22.182042	0.000385	3.851707	1.304994	0.000154
 181	1.7910e+01	7.1645	22.254711	0.000182	1.824493	0.618155	0.000073
 182	1.8009e+01	7.2030	22.383899	0.000324	3.243543	1.098942	0.000130
 183	1.8109e+01	7.2431	22.529236	0.000365	3.648986	1.236310	0.000146
 184	1.8209e+01	7.2736	22.622090	0.000233	2.331296	0.789865	0.000093
 185	1.8308e+01	7.3201	22.771464	0.000375	3.750346	1.270652	0.000150
 186	1.8407e+01	7.3634	22.900652	0.000324	3.243543	1.098942	0.000130
 187	1.8507e+01	7.4067	23.050026	0.000375	3.750346	1.270652	0.000150
 188	1.8607e+01	7.4404	23.142881	0.000233	2.331296	0.789865	0.000093
 189	1.8706e+01	7.4870	23.276106	0.000334	3.344904	1.133284	0.000134
 190	1.8805e+01	7.5287	23.405294	0.000324	3.243543	1.098942	0.000130
 191	1.8905e+01	7.5591	23.534483	0.000324	3.243543	1.098942	0.000130
 192	1.9005e+01	7.6041	23.635411	0.000253	2.534018	0.858548	0.000101
 193	1.9104e+01	7.6458	23.780748	0.000365	3.648986	1.236310	0.000146
 194	1.9203e+01	7.6811	23.885714	0.000264	2.635379	0.892890	0.000105
 195	1.9303e+01	7.7196	24.018939	0.000334	3.344904	1.133284	0.000134
 196	1.9402e+01	7.7533	24.115830	0.000243	2.432657	0.824207	0.000097
 197	1.9502e+01	7.7998	24.261167	0.000365	3.648986	1.236310	0.000146
 198	1.9602e+01	7.8431	24.386318	0.000314	3.142182	1.064600	0.000126
 199	1.9701e+01	7.8848	24.495321	0.000274	2.736739	0.927232	0.000110
 200	1.9800e+01	7.9169	24.608361	0.000284	2.838100	0.961574	0.000114
 201	1.9900e+01	7.9554	24.741586	0.000334	3.344904	1.133284	0.000134
 202	2.0000e+01	8.0019	24.822329	0.000203	2.027214	0.686839	0.000081
 203	2.0099e+01	8.0404	24.995926	0.000436	4.358511	1.476703	0.000174
 204	2.0198e+01	8.0773	25.092817	0.000243	2.432657	0.824207	0.000097
 205	2.0298e+01	8.1190	25.258340	0.000416	4.155789	1.408020	0.000166
 206	2.0398e+01	8.1607	25.363305	0.000264	2.635379	0.892890	0.000105
 207	2.0497e+01	8.1960	25.496531	0.000334	3.344904	1.133284	0.000134
 208	2.0596e+01	8.2345	25.577273	0.000203	2.027214	0.686839	0.000081
 209	2.0696e+01	8.2714	25.718573	0.000355	3.547625	1.201968	0.000142
 210	2.0796e+01	8.3196	25.839687	0.000304	3.040821	1.030258	0.000122
 211	2.0895e+01	8.3613	25.920430	0.000203	2.027214	0.686839	0.000081
 212	2.0994e+01	8.3998	26.053655	0.000334	3.344904	1.133284	0.000134
 213	2.1094e+01	8.4335	26.219178	0.000416	4.155789	1.408020	0.000166
 214	2.1194e+01	8.4768	26.344329	0.000314	3.142182	1.064600	0.000126
 215	2.1293e+01	8.5121	26.437183	0.000233	2.331296	0.789865	0.000093
 216	2.1392e+01	8.5618	26.554260	0.000294	2.939461	0.995916	0.000118
 217	2.1492e+01	8.5971	26.659226	0.000264	2.635379	0.892890	0.000105
 218	2.1591e+01	8.6436	26.784377	0.000314	3.142182	1.064600	0.000126
 219	2.1691e+01	8.6789	26.873194	0.000223	2.229936	0.755523	0.000089
 220	2.1791e+01	8.7126	27.030642	0.000395	3.953068	1.339336	0.000158
 221	2.1890e+01	8.7543	27.151756	0.000304	3.040821	1.030258	0.000122
 222	2.1989e+01	8.7976	27.240573	0.000223	2.229936	0.755523	0.000089
 223	2.2089e+01	8.8361	27.381873	0.000355	3.547625	1.201968	0.000142
 224	2.2189e+01	8.8794	27.507024	0.000314	3.142182	1.064600	0.000126
 225	2.2288e+01	8.9195	27.624101	0.000294	2.939461	0.995916	0.000118
 226	2.2387e+01	8.9596	27.773475	0.000375	3.750346	1.270652	0.000150
 227	2.2487e+01	8.9933	27.878441	0.000264	2.635379	0.892890	0.000105
 228	2.2587e+01	9.0302	27.995518	0.000294	2.939461	0.995916	0.000118
 229	2.2686e+01	9.0735	28.072223	0.000193	1.925854	0.652497	0.000077
 230	2.2785e+01	9.1056	28.193337	0.000304	3.040821	1.030258	0.000122
 231	2.2885e+01	9.1570	28.322526	0.000324	3.243543	1.098942	0.000130
 232	2.2985e+01	9.1874	28.399231	0.000193	1.925854	0.652497	0.000077
 233	2.3084e+01	9.2324	28.552643	0.000385	3.851707	1.304994	0.000154
 234	2.3183e+01	9.2789	28.669719	0.000294	2.939461	0.995916	0.000118
 235	2.3283e+01	9.3174	28.782759	0.000284	2.838100	0.961574	0.000114
 236	2.3383e+01	9.3495	28.911948	0.000324	3.243543	1.098942	0.000130
 237	2.3482e+01	9.4040	29.016913	0.000264	2.635379	0.892890	0.000105
 238	2.3581e+01	9.4393	29.121879	0.000264	2.635379	0.892890	0.000105
 239	2.3681e+01	9.4762	29.242993	0.000304	3.040821	1.030258	0.000122
 240	2.3780e+01	9.5115	29.351995	0.000274	2.736739	0.927232	0.000110
 241	2.3880e+01	9.5468	29.477147	0.000314	3.142182	1.064600	0.000126
 242	2.3980e+01	9.5901	29.598261	0.000304	3.040821	1.030258	0.000122
 243	2.4079e+01	9.6334	29.699189	0.000253	2.534018	0.858548	0.000101
 244	2.4178e+01	9.6767	29.844526	0.000365	3.648986	1.236310	0.000146
 245	2.4278e+01	9.7088	29.949491	0.000264	2.635379	0.892890	0.000105
 246	2.4378e+01	9.7425	30.030234	0.000203	2.027214	0.686839	0.000081
 247	2.4477e+01	9.7874	30.175571	0.000365	3.648986	1.236310	0.000146
 248	2.4576e+01	9.8356	30.288611	0.000284	2.838100	0.961574	0.000114
 249	2.4676e+01	9.8644	30.421836	0.000334	3.344904	1.133284	0.000134
 250	2.4776e+01	9.9093	30.518728	0.000243	2.432657	0.824207	0.000097
 251	2.4875e+01	9.9430	30.647916	0.000324	3.243543	1.098942	0.000130
 252	2.4974e+01	9.9831	30.752881	0.000264	2.635379	0.892890	0.000105
 253	2.5074e+01	10.0361	30.865921	0.000284	2.838100	0.961574	0.000114
 254	2.5174e+01	10.0778	30.938590	0.000182	1.824493	0.618155	0.000073
 255	2.5273e+01	10.1163	31.104112	0.000416	4.155789	1.408020	0.000166
 256	2.5372e+01	10.1548	31.233301	0.000324	3.243543	1.098942	0.000130
 257	2.5472e+01	10.1885	31.310006	0.000193	1.925854	0.652497	0.000077
 258	2.5572e+01	10.2302	31.419009	0.000274	2.736739	0.927232	0.000110
 259	2.5671e+01	10.2703	31.540123	0.000304	3.040821	1.030258	0.000122
 260	2.5770e+01	10.3120	31.681423	0.000355	3.547625	1.201968	0.000142
 261	2.5870e+01	10.3569	31.746017	0.000162	1.621771	0.549471	0.000065
 262	2.5970e+01	10.3858	31.879242	0.000334	3.344904	1.133284	0.000134
 263	2.6069e+01	10.4291	32.000356	0.000304	3.040821	1.030258	0.000122
 264	2.6169e+01	10.4644	32.117433	0.000294	2.939461	0.995916	0.000118
 265	2.6268e+01	10.5093	32.202213	0.000213	2.128575	0.721181	0.000085
 266	2.6367e+01	10.5542	32.335439	0.000334	3.344904	1.133284	0.000134
 267	2.6467e+01	10.5831	32.464627	0.000324	3.243543	1.098942	0.000130
 268	2.6567e+01	10.6248	32.513073	0.000122	1.216329	0.412103	0.000049
 269	2.6666e+01	10.6665	32.642261	0.000324	3.243543	1.098942	0.000130
 270	2.6765e+01	10.7083	32.767412	0.000314	3.142182	1.064600	0.000126
 271	2.6865e+01	10.7564	32.892563	0.000314	3.142182	1.064600	0.000126
 272	2.6965e+01	10.7885	32.961195	0.000172	1.723132	0.583813	0.000069
 273	2.7064e+01	10.8286	33.126717	0.000416	4.155789	1.408020	0.000166
 274	2.7163e+01	10.8655	33.223609	0.000243	2.432657	0.824207	0.000097
 275	2.7263e+01	10.9088	33.336648	0.000284	2.838100	0.961574	0.000114
 276	2.7363e+01	10.9457	33.445651	0.000274	2.736739	0.927232	0.000110
 277	2.7462e+01	10.9778	33.558691	0.000284	2.838100	0.961574	0.000114
 278	2.7561e+01	11.0291	33.655582	0.000243	2.432657	0.824207	0.000097
 279	2.7661e+01	11.0692	33.788808	0.000334	3.344904	1.133284	0.000134
 280	2.7761e+01	11.1029	33.893773	0.000264	2.635379	0.892890	0.000105
 281	2.7860e+01	11.1478	34.010850	0.000294	2.939461	0.995916	0.000118
 282	2.7959e+01	11.1847	34.087556	0.000193	1.925854	0.652497	0.000077
 283	2.8059e+01	11.2232	34.228855	0.000355	3.547625	1.201968	0.000142
 284	2.8159e+01	11.2633	34.325747	0.000243	2.432657	0.824207	0.000097
 285	2.8258e+01	11.3114	34.450898	0.000314	3.142182	1.064600	0.000126
 286	2.8358e+01	11.3467	34.547789	0.000243	2.432657	0.824207	0.000097
 287	2.8457e+01	11.3788	34.644680	0.000243	2.432657	0.824207	0.000097
 288	2.8556e+01	11.4318	34.757720	0.000284	2.838100	0.961574	0.000114
 289	2.8656e+01	11.4638	34.858649	0.000253	2.534018	0.858548	0.000101
 290	2.8756e+01	11.5088	34.975725	0.000294	2.939461	0.995916	0.000118
 291	2.8855e+01	11.5521	35.092802	0.000294	2.939461	0.995916	0.000118
 292	2.8954e+01	11.5810	35.193731	0.000253	2.534018	0.858548	0.000101
 293	2.9054e+01	11.6275	35.294659	0.000253	2.534018	0.858548	0.000101
 294	2.9154e+01	11.6692	35.427885	0.000334	3.344904	1.133284	0.000134
 295	2.9253e+01	11.7029	35.496516	0.000172	1.723132	0.583813	0.000069
 296	2.9352e+01	11.7414	35.609556	0.000284	2.838100	0.961574	0.000114
 297	2.9452e+01	11.7879	35.754893	0.000365	3.648986	1.236310	0.000146
 298	2.9552e+01	11.8296	35.851784	0.000243	2.432657	0.824207	0.000097
 299	2.9651e+01	11.8697	35.980972	0.000324	3.243543	1.098942	0.000130
 300	2.9750e+01	11.9034	36.049604	0.000172	1.723132	0.583813	0.000069
 301	2.9850e+01	11.9467	36.134383	0.000213	2.128575	0.721181	0.000085
 302	2.9950e+01	11.9900	36.259535	0.000314	3.142182	1.064600	0.000126
 303	3.0049e+01	12.0253	36.368537	0.000274	2.736739	0.927232	0.000110
 304	3.0148e+01	12.0606	36.493689	0.000314	3.142182	1.064600	0.000126
 305	3.0248e+01	12.1007	36.586543	0.000233	2.331296	0.789865	0.000093
 306	3.0348e+01	12.1505	36.695545	0.000274	2.736739	0.927232	0.000110
 307	3.0447e+01	12.1890	36.812622	0.000294	2.939461	0.995916	0.000118
 308	3.0547e+01	12.2226	36.925662	0.000284	2.838100	0.961574	0.000114
 309	3.0646e+01	12.2595	37.026590	0.000253	2.534018	0.858548	0.000101
 310	3.0745e+01	12.3045	37.127519	0.000253	2.534018	0.858548	0.000101
 311	3.0845e+01	12.3382	37.240559	0.000284	2.838100	0.961574	0.000114
 312	3.0945e+01	12.3879	37.353598	0.000284	2.838100	0.961574	0.000114
 313	3.1044e+01	12.4296	37.450490	0.000243	2.432657	0.824207	0.000097
 314	3.1143e+01	12.4649	37.563529	0.000284	2.838100	0.961574	0.000114
 315	3.1243e+01	12.5034	37.652346	0.000223	2.229936	0.755523	0.000089
 316	3.1343e+01	12.5403	37.773461	0.000304	3.040821	1.030258	0.000122
 317	3.1442e+01	12.5804	37.882463	0.000274	2.736739	0.927232	0.000110
 318	3.1541e+01	12.6205	37.983392	0.000253	2.534018	0.858548	0.000101
 319	3.1641e+01	12.6590	38.056060	0.000182	1.824493	0.618155	0.000073
 320	3.1741e+01	12.6959	38.165063	0.000274	2.736739	0.927232	0.000110
 321	3.1840e+01	12.7392	38.314437	0.000375	3.750346	1.270652	0.000150
 322	3.1939e+01	12.7777	38.370957	0.000142	1.419050	0.480787	0.000057
 323	3.2039e+01	12.8307	38.500145	0.000324	3.243543	1.098942	0.000130
 324	3.2139e+01	12.8611	38.597036	0.000243	2.432657	0.824207	0.000097
 325	3.2238e+01	12.9077	38.702002	0.000264	2.635379	0.892890	0.000105
 326	3.2337e+01	12.9365	38.802930	0.000253	2.534018	0.858548	0.000101
 327	3.2437e+01	12.9798	38.899821	0.000243	2.432657	0.824207	0.000097
 328	3.2536e+01	13.0119	39.020935	0.000304	3.040821	1.030258	0.000122
 329	3.2636e+01	13.0520	39.101678	0.000203	2.027214	0.686839	0.000081
 330	3.2736e+01	13.0970	39.206644	0.000264	2.635379	0.892890	0.000105
 331	3.2835e+01	13.1355	39.331795	0.000314	3.142182	1.064600	0.000126
 332	3.2934e+01	13.1836	39.408501	0.000193	1.925854	0.652497	0.000077
 333	3.3034e+01	13.2173	39.541726	0.000334	3.344904	1.133284	0.000134
 334	3.3133e+01	13.2606	39.630543	0.000223	2.229936	0.755523	0.000089
 335	3.3233e+01	13.2991	39.735509	0.000264	2.635379	0.892890	0.000105
 336	3.3333e+01	13.3408	39.856623	0.000304	3.040821	1.030258	0.000122
 337	3.3432e+01	13.3777	39.917180	0.000152	1.520411	0.515129	0.000061
 338	3.3532e+01	13.4146	40.058479	0.000355	3.547625	1.201968	0.000142
 339	3.3631e+01	13.4611	40.183631	0.000314	3.142182	1.064600	0.000126
 340	3.3730e+01	13.4980	40.252262	0.000172	1.723132	0.583813	0.000069
 341	3.3830e+01	13.5349	40.349153	0.000243	2.432657	0.824207	0.000097
 342	3.3929e+01	13.5782	40.482379	0.000334	3.344904	1.133284	0.000134
 343	3.4029e+01	13.6215	40.559084	0.000193	1.925854	0.652497	0.000077
 344	3.4129e+01	13.6520	40.692310	0.000334	3.344904	1.133284	0.000134
 345	3.4228e+01	13.6873	40.748830	0.000142	1.419050	0.480787	0.000057
 346	3.4328e+01	13.7386	40.865907	0.000294	2.939461	0.995916	0.000118
 347	3.4427e+01	13.7772	40.942612	0.000193	1.925854	0.652497	0.000077
 348	3.4526e+01	13.8205	41.051615	0.000274	2.736739	0.927232	0.000110
 349	3.4626e+01	13.8493	41.200989	0.000375	3.750346	1.270652	0.000150
 350	3.4725e+01	13.8927	41.285769	0.000213	2.128575	0.721181	0.000085
 351	3.4825e+01	13.9312	41.406883	0.000304	3.040821	1.030258	0.000122
 352	3.4925e+01	13.9809	41.491663	0.000213	2.128575	0.721181	0.000085
 353	3.5024e+01	14.0210	41.600665	0.000274	2.736739	0.927232	0.000110
 354	3.5123e+01	14.0627	41.677371	0.000193	1.925854	0.652497	0.000077
 355	3.5223e+01	14.0932	41.802522	0.000314	3.142182	1.064600	0.000126
 356	3.5322e+01	14.1365	41.911525	0.000274	2.736739	0.927232	0.000110
 357	3.5422e+01	14.1718	41.988230	0.000193	1.925854	0.652497	0.000077
 358	3.5522e+01	14.2183	42.085122	0.000243	2.432657	0.824207	0.000097
 359	3.5621e+01	14.2568	42.157790	0.000182	1.824493	0.618155	0.000073
 360	3.5721e+01	14.2889	42.307164	0.000375	3.750346	1.270652	0.000150
 361	3.5820e+01	14.3354	42.383870	0.000193	1.925854	0.652497	0.000077
 362	3.5919e+01	14.3755	42.460575	0.000193	1.925854	0.652497	0.000077
 363	3.6019e+01	14.4156	42.597838	0.000345	3.446264	1.167626	0.000138
 364	3.6118e+01	14.4557	42.702803	0.000264	2.635379	0.892890	0.000105
 365	3.6218e+01	14.4894	42.807769	0.000264	2.635379	0.892890	0.000105
 366	3.6318e+01	14.5263	42.876400	0.000172	1.723132	0.583813	0.000069
 367	3.6417e+01	14.5712	42.977328	0.000253	2.534018	0.858548	0.000101
 368	3.6517e+01	14.6146	43.090368	0.000284	2.838100	0.961574	0.000114
 369	3.6616e+01	14.6515	43.199371	0.000274	2.736739	0.927232	0.000110
 370	3.6715e+01	14.6884	43.284151	0.000213	2.128575	0.721181	0.000085
 371	3.6815e+01	14.7269	43.401228	0.000294	2.939461	0.995916	0.000118
 372	3.6914e+01	14.7718	43.461785	0.000152	1.520411	0.515129	0.000061
 373	3.7014e+01	14.8087	43.619233	0.000395	3.953068	1.339336	0.000158
 374	3.7114e+01	14.8488	43.699976	0.000203	2.027214	0.686839	0.000081
 375	3.7213e+01	14.8873	43.768607	0.000172	1.723132	0.583813	0.000069
 376	3.7313e+01	14.9242	43.881647	0.000284	2.838100	0.961574	0.000114
 377	3.7412e+01	14.9723	43.974501	0.000233	2.331296	0.789865	0.000093
 378	3.7511e+01	15.0204	44.063318	0.000223	2.229936	0.755523	0.000089
 379	3.7611e+01	15.0429	44.168284	0.000264	2.635379	0.892890	0.000105
 380	3.7711e+01	15.0910	44.265175	0.000243	2.432657	0.824207	0.000097
 381	3.7810e+01	15.1263	44.362066	0.000243	2.432657	0.824207	0.000097
 382	3.7910e+01	15.1680	44.458957	0.000243	2.432657	0.824207	0.000097
 383	3.8009e+01	15.2097	44.555849	0.000243	2.432657	0.824207	0.000097
 384	3.8108e+01	15.2498	44.693111	0.000345	3.446264	1.167626	0.000138
 385	3.8208e+01	15.2883	44.777891	0.000213	2.128575	0.721181	0.000085
 386	3.8307e+01	15.3268	44.899005	0.000304	3.040821	1.030258	0.000122
 387	3.8407e+01	15.3702	44.947451	0.000122	1.216329	0.412103	0.000049
 388	3.8507e+01	15.4103	45.068565	0.000304	3.040821	1.030258	0.000122
 389	3.8606e+01	15.4552	45.112973	0.000111	1.114968	0.377761	0.000045
 390	3.8706e+01	15.4953	45.246199	0.000334	3.344904	1.133284	0.000134
 391	3.8805e+01	15.5338	45.339053	0.000233	2.331296	0.789865	0.000093
 392	3.8904e+01	15.5739	45.435944	0.000243	2.432657	0.824207	0.000097
 393	3.9004e+01	15.6044	45.569170	0.000334	3.344904	1.133284	0.000134
 394	3.9103e+01	15.6445	45.641838	0.000182	1.824493	0.618155	0.000073
 395	3.9203e+01	15.6862	45.742766	0.000253	2.534018	0.858548	0.000101
 396	3.9303e+01	15.7327	45.867918	0.000314	3.142182	1.064600	0.000126
 397	3.9402e+01	15.7680	45.944623	0.000193	1.925854	0.652497	0.000077
 398	3.9502e+01	15.8145	46.033440	0.000223	2.229936	0.755523	0.000089
 399	3.9601e+01	15.8482	46.146480	0.000284	2.838100	0.961574	0.000114
 400	3.9700e+01	15.8867	46.235297	0.000223	2.229936	0.755523	0.000089
 401	3.9800e+01	15.9316	46.328151	0.000233	2.331296	0.789865	0.000093
 402	3.9900e+01	15.9685	46.429080	0.000253	2.534018	0.858548	0.000101
 403	3.9999e+01	16.0006	46.505785	0.000193	1.925854	0.652497	0.000077
 404	4.0099e+01	16.0359	46.602676	0.000243	2.432657	0.824207	0.000097
 405	4.0198e+01	16.0889	46.711679	0.000274	2.736739	0.927232	0.000110
 406	4.0297e+01	16.1257	46.784348	0.000182	1.824493	0.618155	0.000073
 407	4.0397e+01	16.1659	46.925647	0.000355	3.547625	1.201968	0.000142
 408	4.0496e+01	16.2108	47.006390	0.000203	2.027214	0.686839	0.000081
 409	4.0596e+01	16.2477	47.103281	0.000243	2.432657	0.824207	0.000097
 410	4.0696e+01	16.2926	47.184024	0.000203	2.027214	0.686839	0.000081
 411	4.0795e+01	16.3311	47.260730	0.000193	1.925854	0.652497	0.000077
 412	4.0895e+01	16.3664	47.345509	0.000213	2.128575	0.721181	0.000085
 413	4.0994e+01	16.4081	47.446438	0.000253	2.534018	0.858548	0.000101
 414	4.1093e+01	16.4482	47.559478	0.000284	2.838100	0.961574	0.000114
 415	4.1193e+01	16.4851	47.607923	0.000122	1.216329	0.412103	0.000049
 416	4.1292e+01	16.5172	47.725000	0.000294	2.939461	0.995916	0.000118
 417	4.1392e+01	16.5621	47.838040	0.000284	2.838100	0.961574	0.000114
 418	4.1492e+01	16.6118	47.922820	0.000213	2.128575	0.721181	0.000085
 419	4.1591e+01	16.6407	48.039897	0.000294	2.939461	0.995916	0.000118
 420	4.1691e+01	16.6808	48.140825	0.000253	2.534018	0.858548	0.000101
 421	4.1790e+01	16.7145	48.225605	0.000213	2.128575	0.721181	0.000085
 422	4.1889e+01	16.7674	48.294236	0.000172	1.723132	0.583813	0.000069
 423	4.1989e+01	16.8059	48.399202	0.000264	2.635379	0.892890	0.000105
 424	4.2089e+01	16.8380	48.471870	0.000182	1.824493	0.618155	0.000073
 425	4.2188e+01	16.8894	48.568761	0.000243	2.432657	0.824207	0.000097
 426	4.2288e+01	16.9198	48.681801	0.000284	2.838100	0.961574	0.000114
 427	4.2387e+01	16.9567	48.774655	0.000233	2.331296	0.789865	0.000093
 428	4.2486e+01	17.0033	48.895769	0.000304	3.040821	1.030258	0.000122
 429	4.2586e+01	17.0466	48.911918	0.000041	0.405443	0.137368	0.000016
 430	4.2685e+01	17.0931	49.093589	0.000456	4.561232	1.545387	0.000183
 431	4.2785e+01	17.1188	49.142035	0.000122	1.216329	0.412103	0.000049
 432	4.2885e+01	17.1637	49.234889	0.000233	2.331296	0.789865	0.000093
 433	4.2984e+01	17.1974	49.323706	0.000223	2.229936	0.755523	0.000089
 434	4.3084e+01	17.2391	49.448857	0.000314	3.142182	1.064600	0.000126
 435	4.3183e+01	17.2792	49.501340	0.000132	1.317689	0.446445	0.000053
 436	4.3282e+01	17.3177	49.618417	0.000294	2.939461	0.995916	0.000118
 437	4.3382e+01	17.3546	49.695122	0.000193	1.925854	0.652497	0.000077
 438	4.3481e+01	17.4043	49.792014	0.000243	2.432657	0.824207	0.000097
 439	4.3581e+01	17.4444	49.905053	0.000284	2.838100	0.961574	0.000114
 440	4.3681e+01	17.4861	49.985796	0.000203	2.027214	0.686839	0.000081
 441	4.3780e+01	17.5278	50.078650	0.000233	2.331296	0.789865	0.000093
 442	4.3880e+01	17.5631	50.207839	0.000324	3.243543	1.098942	0.000130
 443	4.3979e+01	17.6032	50.244173	0.000091	0.912246	0.309077	0.000037
 444	4.4078e+01	17.6498	50.320878	0.000193	1.925854	0.652497	0.000077
 445	4.4178e+01	17.6770	50.437955	0.000294	2.939461	0.995916	0.000118
 446	4.4278e+01	17.7236	50.534847	0.000243	2.432657	0.824207	0.000097
 447	4.4377e+01	17.7589	50.615589	0.000203	2.027214	0.686839	0.000081
 448	4.4477e+01	17.7958	50.704406	0.000223	2.229936	0.755523	0.000089
 449	4.4576e+01	17.8391	50.801298	0.000243	2.432657	0.824207	0.000097
 450	4.4675e+01	17.8776	50.878003	0.000193	1.925854	0.652497	0.000077
 451	4.4775e+01	17.9113	50.978932	0.000253	2.534018	0.858548	0.000101
 452	4.4874e+01	17.9658	51.112157	0.000334	3.344904	1.133284	0.000134
 453	4.4974e+01	17.9947	51.184825	0.000182	1.824493	0.618155	0.000073
 454	4.5074e+01	18.0428	51.261531	0.000193	1.925854	0.652497	0.000077
 455	4.5173e+01	18.0717	51.370534	0.000274	2.736739	0.927232	0.000110
 456	4.5273e+01	18.1214	51.443202	0.000182	1.824493	0.618155	0.000073
 457	4.5372e+01	18.1551	51.532019	0.000223	2.229936	0.755523	0.000089
 458	4.5471e+01	18.2016	51.608725	0.000193	1.925854	0.652497	0.000077
 459	4.5571e+01	18.2481	51.709653	0.000253	2.534018	0.858548	0.000101
 460	4.5670e+01	18.2802	51.782322	0.000182	1.824493	0.618155	0.000073
 461	4.5770e+01	18.3187	51.931696	0.000375	3.750346	1.270652	0.000150
 462	4.5870e+01	18.3604	51.955918	0.000061	0.608164	0.206052	0.000024
 463	4.5969e+01	18.3973	52.056847	0.000253	2.534018	0.858548	0.000101
 464	4.6069e+01	18.4342	52.157775	0.000253	2.534018	0.858548	0.000101
 465	4.6168e+01	18.4808	52.254666	0.000243	2.432657	0.824207	0.000097
 466	4.6267e+01	18.5209	52.327335	0.000182	1.824493	0.618155	0.000073
 467	4.6367e+01	18.5642	52.400003	0.000182	1.824493	0.618155	0.000073
 468	4.6467e+01	18.6011	52.521117	0.000304	3.040821	1.030258	0.000122
 469	4.6566e+01	18.6332	52.589749	0.000172	1.723132	0.583813	0.000069
 470	4.6666e+01	18.6717	52.722974	0.000334	3.344904	1.133284	0.000134
 471	4.6765e+01	18.7166	52.807754	0.000213	2.128575	0.721181	0.000085
 472	4.6864e+01	18.7615	52.848125	0.000101	1.013607	0.343419	0.000041
 473	4.6964e+01	18.7952	53.005574	0.000395	3.953068	1.339336	0.000158
 474	4.7063e+01	18.8369	53.066131	0.000152	1.520411	0.515129	0.000061
 475	4.7163e+01	18.8770	53.146873	0.000203	2.027214	0.686839	0.000081
 476	4.7263e+01	18.9155	53.231653	0.000213	2.128575	0.721181	0.000085
 477	4.7362e+01	18.9668	53.312396	0.000203	2.027214	0.686839	0.000081
 478	4.7462e+01	19.0005	53.417362	0.000264	2.635379	0.892890	0.000105
 479	4.7561e+01	19.0374	53.477919	0.000152	1.520411	0.515129	0.000061
 480	4.7660e+01	19.0695	53.570773	0.000233	2.331296	0.789865	0.000093
 481	4.7760e+01	19.1112	53.663627	0.000233	2.331296	0.789865	0.000093
 482	4.7859e+01	19.1610	53.772629	0.000274	2.736739	0.927232	0.000110
 483	4.7959e+01	19.1914	53.841261	0.000172	1.723132	0.583813	0.000069
 484	4.8059e+01	19.2299	53.922003	0.000203	2.027214	0.686839	0.000081
 485	4.8158e+01	19.2749	54.002746	0.000203	2.027214	0.686839	0.000081
 486	4.8258e+01	19.3150	54.115786	0.000284	2.838100	0.961574	0.000114
 487	4.8357e+01	19.3503	54.184417	0.000172	1.723132	0.583813	0.000069
 488	4.8456e+01	19.3888	54.281309	0.000243	2.432657	0.824207	0.000097
 489	4.8556e+01	19.4433	54.402423	0.000304	3.040821	1.030258	0.000122
 490	4.8656e+01	19.4706	54.442794	0.000101	1.013607	0.343419	0.000041
 491	4.8755e+01	19.5155	54.527574	0.000213	2.128575	0.721181	0.000085
 492	4.8855e+01	19.5524	54.636577	0.000274	2.736739	0.927232	0.000110
 493	4.8954e+01	19.5941	54.709245	0.000182	1.824493	0.618155	0.000073
 494	4.9053e+01	19.6406	54.765765	0.000142	1.419050	0.480787	0.000057
 495	4.9153e+01	19.6775	54.907065	0.000355	3.547625	1.201968	0.000142
 496	4.9252e+01	19.7080	54.995882	0.000223	2.229936	0.755523	0.000089
 497	4.9352e+01	19.7625	55.068550	0.000182	1.824493	0.618155	0.000073
 498	4.9452e+01	19.7834	55.149293	0.000203	2.027214	0.686839	0.000081
 499	4.9551e+01	19.8331	55.205813	0.000142	1.419050	0.480787	0.000057
 500	4.9651e+01	19.8636	55.355187	0.000375	3.750346	1.270652	0.000150
 501	4.9750e+01	19.9133	55.403632	0.000122	1.216329	0.412103	0.000049
 502	4.9849e+01	19.9502	55.488412	0.000213	2.128575	0.721181	0.000085
 503	4.9949e+01	19.9823	55.597415	0.000274	2.736739	0.927232	0.000110
 504	5.0048e+01	19.9567	55.504561	0.000233	2.331296	0.789865	-0.000093
 505	5.0148e+01	19.9037	55.435929	0.000172	1.723132	0.583813	-0.000069
 506	5.0248e+01	19.8700	55.375372	0.000152	1.520411	0.515129	-0.000061
 507	5.0347e+01	19.8283	55.306741	0.000172	1.723132	0.583813	-0.000069
 508	5.0447e+01	19.7930	55.298667	0.000020	0.202721	0.068684	-0.000008
 509	5.0546e+01	19.7609	55.185627	0.000284	2.838100	0.961574	-0.000114
 510	5.0645e+01	19.7208	55.092773	0.000233	2.331296	0.789865	-0.000093
 511	5.0745e+01	19.6647	55.024142	0.000172	1.723132	0.583813	-0.000069
 512	5.0844e+01	19.6262	54.955510	0.000172	1.723132	0.583813	-0.000069
 513	5.0944e+01	19.5909	54.915139	0.000101	1.013607	0.343419	-0.000041
 514	5.1044e+01	19.5524	54.838433	0.000193	1.925854	0.652497	-0.000077
 515	5.1143e+01	19.5123	54.745579	0.000233	2.331296	0.789865	-0.000093
 516	5.1242e+01	19.4690	54.676948	0.000172	1.723132	0.583813	-0.000069
 517	5.1342e+01	19.4433	54.624465	0.000132	1.317689	0.446445	-0.000053
 518	5.1441e+01	19.3904	54.503351	0.000304	3.040821	1.030258	-0.000122
 519	5.1541e+01	19.3599	54.495277	0.000020	0.202721	0.068684	-0.000008
 520	5.1641e+01	19.3150	54.374163	0.000304	3.040821	1.030258	-0.000122
 521	5.1740e+01	19.2781	54.317643	0.000142	1.419050	0.480787	-0.000057
 522	5.1840e+01	19.2428	54.261123	0.000142	1.419050	0.480787	-0.000057
 523	5.1939e+01	19.2059	54.168269	0.000233	2.331296	0.789865	-0.000093
 524	5.2038e+01	19.1561	54.091563	0.000193	1.925854	0.652497	-0.000077
 525	5.2138e+01	19.1128	54.035043	0.000142	1.419050	0.480787	-0.000057
 526	5.2237e+01	19.0759	53.994672	0.000101	1.013607	0.343419	-0.000041
 527	5.2337e+01	19.0278	53.873558	0.000304	3.040821	1.030258	-0.000122
 528	5.2437e+01	18.9973	53.804927	0.000172	1.723132	0.583813	-0.000069
 529	5.2536e+01	18.9524	53.728221	0.000193	1.925854	0.652497	-0.000077
 530	5.2636e+01	18.9219	53.651515	0.000193	1.925854	0.652497	-0.000077
 531	5.2735e+01	18.8722	53.566736	0.000213	2.128575	0.721181	-0.000085
 532	5.2834e+01	18.8369	53.485993	0.000203	2.027214	0.686839	-0.000081
 533	5.2934e+01	18.8000	53.445621	0.000101	1.013607	0.343419	-0.000041
 534	5.3033e+01	18.7567	53.393139	0.000132	1.317689	0.446445	-0.000053
 535	5.3133e+01	18.7198	53.251839	0.000355	3.547625	1.201968	-0.000142
 536	5.3233e+01	18.6813	53.195319	0.000142	1.419050	0.480787	-0.000057
 537	5.3332e+01	18.6316	53.102465	0.000233	2.331296	0.789865	-0.000093
 538	5.3431e+01	18.5931	53.086316	0.000041	0.405443	0.137368	-0.000016
 539	5.3531e+01	18.5546	53.005574	0.000203	2.027214	0.686839	-0.000081
 540	5.3630e+01	18.5177	52.868311	0.000345	3.446264	1.167626	-0.000138
 541	5.3730e+01	18.4824	52.827940	0.000101	1.013607	0.343419	-0.000041
 542	5.3830e+01	18.4374	52.763346	0.000162	1.621771	0.549471	-0.000065
 543	5.3929e+01	18.4022	52.678566	0.000213	2.128575	0.721181	-0.000085
 544	5.4029e+01	18.3604	52.589749	0.000223	2.229936	0.755523	-0.000089
 545	5.4128e+01	18.3203	52.521117	0.000172	1.723132	0.583813	-0.000069
 546	5.4227e+01	18.2786	52.424226	0.000243	2.432657	0.824207	-0.000097
 547	5.4327e+01	18.2433	52.343483	0.000203	2.027214	0.686839	-0.000081
 548	5.4426e+01	18.1968	52.299075	0.000111	1.114968	0.377761	-0.000045
 549	5.4526e+01	18.1567	52.190072	0.000274	2.736739	0.927232	-0.000110
 550	5.4626e+01	18.1118	52.097218	0.000233	2.331296	0.789865	-0.000093
 551	5.4725e+01	18.0781	52.032624	0.000162	1.621771	0.549471	-0.000065
 552	5.4825e+01	18.0316	51.972067	0.000152	1.520411	0.515129	-0.000061
 553	5.4924e+01	17.9995	51.863064	0.000274	2.736739	0.927232	-0.000110
 554	5.5023e+01	17.9626	51.830767	0.000081	0.810886	0.274736	-0.000032
 555	5.5123e+01	17.9241	51.754062	0.000193	1.925854	0.652497	-0.000077
 556	5.5222e+01	17.8792	51.669282	0.000213	2.128575	0.721181	-0.000085
 557	5.5322e+01	17.8407	51.592576	0.000193	1.925854	0.652497	-0.000077
 558	5.5422e+01	17.8070	51.515871	0.000193	1.925854	0.652497	-0.000077
 559	5.5521e+01	17.7621	51.402831	0.000284	2.838100	0.961574	-0.000114
 560	5.5620e+01	17.7220	51.342274	0.000152	1.520411	0.515129	-0.000061
 561	5.5720e+01	17.6770	51.261531	0.000203	2.027214	0.686839	-0.000081
 562	5.5819e+01	17.6273	51.164640	0.000243	2.432657	0.824207	-0.000097
 563	5.5919e+01	17.5968	51.112157	0.000132	1.317689	0.446445	-0.000053
 564	5.6019e+01	17.5631	51.011229	0.000253	2.534018	0.858548	-0.000101
 565	5.6118e+01	17.5150	50.958746	0.000132	1.317689	0.446445	-0.000053
 566	5.6218e+01	17.4861	50.910300	0.000122	1.216329	0.412103	-0.000049
 567	5.6317e+01	17.4396	50.777075	0.000334	3.344904	1.133284	-0.000134
 568	5.6416e+01	17.3995	50.692295	0.000213	2.128575	0.721181	-0.000085
 569	5.6516e+01	17.3706	50.607515	0.000213	2.128575	0.721181	-0.000085
 570	5.6615e+01	17.3081	50.542921	0.000162	1.621771	0.549471	-0.000065
 571	5.6715e+01	17.2744	50.482364	0.000152	1.520411	0.515129	-0.000061
 572	5.6815e+01	17.2391	50.389510	0.000233	2.331296	0.789865	-0.000093
 573	5.6914e+01	17.2022	50.304730	0.000213	2.128575	0.721181	-0.000085
 574	5.7014e+01	17.1621	50.207839	0.000243	2.432657	0.824207	-0.000097
 575	5.7113e+01	17.1220	50.139207	0.000172	1.723132	0.583813	-0.000069
 576	5.7212e+01	17.0803	50.054427	0.000213	2.128575	0.721181	-0.000085
 577	5.7312e+01	17.0434	49.973685	0.000203	2.027214	0.686839	-0.000081
 578	5.7411e+01	17.0049	49.884868	0.000223	2.229936	0.755523	-0.000089
 579	5.7511e+01	16.9599	49.783939	0.000253	2.534018	0.858548	-0.000101
 580	5.7611e+01	16.9311	49.751642	0.000081	0.810886	0.274736	-0.000032
 581	5.7710e+01	16.8797	49.642640	0.000274	2.736739	0.927232	-0.000110
 582	5.7809e+01	16.8428	49.578045	0.000162	1.621771	0.549471	-0.000065
 583	5.7909e+01	16.8059	49.489228	0.000223	2.229936	0.755523	-0.000089
 584	5.8008e+01	16.7642	49.400411	0.000223	2.229936	0.755523	-0.000089
 585	5.8108e+01	16.7177	49.311594	0.000223	2.229936	0.755523	-0.000089
 586	5.8208e+01	16.6888	49.234889	0.000193	1.925854	0.652497	-0.000077
 587	5.8307e+01	16.6439	49.166258	0.000172	1.723132	0.583813	-0.000069
 588	5.8407e+01	16.6038	49.089552	0.000193	1.925854	0.652497	-0.000077
 589	5.8506e+01	16.5637	48.956327	0.000334	3.344904	1.133284	-0.000134
 590	5.8605e+01	16.5300	48.891732	0.000162	1.621771	0.549471	-0.000065
 591	5.8705e+01	16.4803	48.839250	0.000132	1.317689	0.446445	-0.000053
 592	5.8804e+01	16.4418	48.726210	0.000284	2.838100	0.961574	-0.000114
 593	5.8904e+01	16.4001	48.621244	0.000264	2.635379	0.892890	-0.000105
 594	5.9004e+01	16.3584	48.552613	0.000172	1.723132	0.583813	-0.000069
 595	5.9103e+01	16.3199	48.496093	0.000142	1.419050	0.480787	-0.000057
 596	5.9203e+01	16.2782	48.423425	0.000182	1.824493	0.618155	-0.000073
 597	5.9302e+01	16.2461	48.318459	0.000264	2.635379	0.892890	-0.000105
 598	5.9401e+01	16.2092	48.221568	0.000243	2.432657	0.824207	-0.000097
 599	5.9501e+01	16.1723	48.112565	0.000274	2.736739	0.927232	-0.000110
 600	5.9600e+01	16.1257	48.060082	0.000132	1.317689	0.446445	-0.000053
 601	5.9700e+01	16.0824	47.967228	0.000233	2.331296	0.789865	-0.000093
 602	5.9800e+01	16.0568	47.890523	0.000193	1.925854	0.652497	-0.000077
 603	5.9899e+01	16.0086	47.773446	0.000294	2.939461	0.995916	-0.000118
 604	5.9998e+01	15.9653	47.729037	0.000111	1.114968	0.377761	-0.000045
 605	6.0098e+01	15.9252	47.620035	0.000274	2.736739	0.927232	-0.000110
 606	6.0197e+01	15.8883	47.531218	0.000223	2.229936	0.755523	-0.000089
 607	6.0297e+01	15.8434	47.458549	0.000182	1.824493	0.618155	-0.000073
 608	6.0397e+01	15.8049	47.402029	0.000142	1.419050	0.480787	-0.000057
 609	6.0496e+01	15.7664	47.284952	0.000294	2.939461	0.995916	-0.000118
 610	6.0596e+01	15.7231	47.171913	0.000284	2.838100	0.961574	-0.000114
 611	6.0695e+01	15.6830	47.147690	0.000061	0.608164	0.206052	-0.000024
 612	6.0794e+01	15.6461	47.006390	0.000355	3.547625	1.201968	-0.000142
 613	6.0894e+01	15.6060	46.949870	0.000142	1.419050	0.480787	-0.000057
 614	6.0993e+01	15.5723	46.885276	0.000162	1.621771	0.549471	-0.000065
 615	6.1093e+01	15.5290	46.768199	0.000294	2.939461	0.995916	-0.000118
 616	6.1193e+01	15.4905	46.699568	0.000172	1.723132	0.583813	-0.000069
 617	6.1292e+01	15.4439	46.594602	0.000264	2.635379	0.892890	-0.000105
 618	6.1392e+01	15.4038	46.501748	0.000233	2.331296	0.789865	-0.000093
 619	6.1491e+01	15.3750	46.429080	0.000182	1.824493	0.618155	-0.000073
 620	6.1590e+01	15.3300	46.372560	0.000142	1.419050	0.480787	-0.000057
 621	6.1690e+01	15.2851	46.259520	0.000284	2.838100	0.961574	-0.000114
 622	6.1789e+01	15.2514	46.146480	0.000284	2.838100	0.961574	-0.000114
 623	6.1889e+01	15.2033	46.081886	0.000162	1.621771	0.549471	-0.000065
 624	6.1989e+01	15.1616	46.013255	0.000172	1.723132	0.583813	-0.000069
 625	6.2088e+01	15.1343	45.920400	0.000233	2.331296	0.789865	-0.000093
 626	6.2188e+01	15.0846	45.815435	0.000264	2.635379	0.892890	-0.000105
 627	6.2287e+01	15.0445	45.706432	0.000274	2.736739	0.927232	-0.000110
 628	6.2386e+01	15.0156	45.621652	0.000213	2.128575	0.721181	-0.000085
 629	6.2486e+01	14.9771	45.581281	0.000101	1.013607	0.343419	-0.000041
 630	6.2586e+01	14.9338	45.488427	0.000233	2.331296	0.789865	-0.000093
 631	6.2685e+01	14.8873	45.383461	0.000264	2.635379	0.892890	-0.000105
 632	6.2785e+01	14.8472	45.335016	0.000122	1.216329	0.412103	-0.000049
 633	6.2884e+01	14.8023	45.242162	0.000233	2.331296	0.789865	-0.000093
 634	6.2983e+01	14.7734	45.145270	0.000243	2.432657	0.824207	-0.000097
 635	6.3083e+01	14.7301	45.036268	0.000274	2.736739	0.927232	-0.000110
 636	6.3182e+01	14.6868	44.919191	0.000294	2.939461	0.995916	-0.000118
 637	6.3282e+01	14.6482	44.866708	0.000132	1.317689	0.446445	-0.000053
 638	6.3382e+01	14.6049	44.769817	0.000243	2.432657	0.824207	-0.000097
 639	6.3481e+01	14.5761	44.676963	0.000233	2.331296	0.789865	-0.000093
 640	6.3581e+01	14.5376	44.596220	0.000203	2.027214	0.686839	-0.000081
 641	6.3680e+01	14.4910	44.483180	0.000284	2.838100	0.961574	-0.000114
 642	6.3779e+01	14.4461	44.430697	0.000132	1.317689	0.446445	-0.000053
 643	6.3879e+01	14.4124	44.341880	0.000223	2.229936	0.755523	-0.000089
 644	6.3978e+01	14.3723	44.224803	0.000294	2.939461	0.995916	-0.000118
 645	6.4078e+01	14.3258	44.156172	0.000172	1.723132	0.583813	-0.000069
 646	6.4177e+01	14.2873	44.026984	0.000324	3.243543	1.098942	-0.000130
 647	6.4277e+01	14.2504	43.950278	0.000193	1.925854	0.652497	-0.000077
 648	6.4376e+01	14.2119	43.837238	0.000284	2.838100	0.961574	-0.000114
 649	6.4476e+01	14.1718	43.760533	0.000193	1.925854	0.652497	-0.000077
 650	6.4576e+01	14.1413	43.695939	0.000162	1.621771	0.549471	-0.000065
 651	6.4675e+01	14.0900	43.599047	0.000243	2.432657	0.824207	-0.000097
 652	6.4775e+01	14.0531	43.522342	0.000193	1.925854	0.652497	-0.000077
 653	6.4874e+01	14.0226	43.429488	0.000233	2.331296	0.789865	-0.000093
 654	6.4974e+01	13.9745	43.328559	0.000253	2.534018	0.858548	-0.000101
 655	6.5073e+01	13.9312	43.203408	0.000314	3.142182	1.064600	-0.000126
 656	6.5172e+01	13.8975	43.146888	0.000142	1.419050	0.480787	-0.000057
 657	6.5272e+01	13.8574	43.041923	0.000264	2.635379	0.892890	-0.000105
 658	6.5371e+01	13.8157	42.977328	0.000162	1.621771	0.549471	-0.000065
 659	6.5471e+01	13.7804	42.884474	0.000233	2.331296	0.789865	-0.000093
 660	6.5570e+01	13.7370	42.811806	0.000182	1.824493	0.618155	-0.000073
 661	6.5670e+01	13.6969	42.678580	0.000334	3.344904	1.133284	-0.000134
 662	6.5769e+01	13.6552	42.553429	0.000314	3.142182	1.064600	-0.000126
 663	6.5869e+01	13.6231	42.500946	0.000132	1.317689	0.446445	-0.000053
 664	6.5969e+01	13.5782	42.436352	0.000162	1.621771	0.549471	-0.000065
 665	6.6068e+01	13.5333	42.291015	0.000365	3.648986	1.236310	-0.000146
 666	6.6168e+01	13.4948	42.202198	0.000223	2.229936	0.755523	-0.000089
 667	6.6267e+01	13.4563	42.161827	0.000101	1.013607	0.343419	-0.000041
 668	6.6367e+01	13.4098	42.052824	0.000274	2.736739	0.927232	-0.000110
 669	6.6466e+01	13.3809	41.943822	0.000274	2.736739	0.927232	-0.000110
 670	6.6566e+01	13.3296	41.846930	0.000243	2.432657	0.824207	-0.000097
 671	6.6665e+01	13.2975	41.802522	0.000111	1.114968	0.377761	-0.000045
 672	6.6764e+01	13.2622	41.665259	0.000345	3.446264	1.167626	-0.000138
 673	6.6864e+01	13.2076	41.584517	0.000203	2.027214	0.686839	-0.000081
 674	6.6963e+01	13.1836	41.463403	0.000304	3.040821	1.030258	-0.000122
 675	6.7063e+01	13.1339	41.410920	0.000132	1.317689	0.446445	-0.000053
 676	6.7162e+01	13.1018	41.301917	0.000274	2.736739	0.927232	-0.000110
 677	6.7262e+01	13.0552	41.172729	0.000324	3.243543	1.098942	-0.000130
 678	6.7362e+01	13.0248	41.132357	0.000101	1.013607	0.343419	-0.000041
 679	6.7461e+01	12.9879	41.031429	0.000253	2.534018	0.858548	-0.000101
 680	6.7561e+01	12.9285	40.914352	0.000294	2.939461	0.995916	-0.000118
 681	6.7660e+01	12.8996	40.853795	0.000152	1.520411	0.515129	-0.000061
 682	6.7760e+01	12.8579	40.728644	0.000314	3.142182	1.064600	-0.000126
 683	6.7859e+01	12.8178	40.672124	0.000142	1.419050	0.480787	-0.000057
 684	6.7959e+01	12.7873	40.555047	0.000294	2.939461	0.995916	-0.000118
 685	6.8058e+01	12.7344	40.413747	0.000355	3.547625	1.201968	-0.000142
 686	6.8157e+01	12.7039	40.349153	0.000162	1.621771	0.549471	-0.000065
 687	6.8257e+01	12.6606	40.256299	0.000233	2.331296	0.789865	-0.000093
 688	6.8356e+01	12.6269	40.171519	0.000213	2.128575	0.721181	-0.000085
 689	6.8456e+01	12.5852	40.102888	0.000172	1.723132	0.583813	-0.000069
 690	6.8555e+01	12.5403	39.985811	0.000294	2.939461	0.995916	-0.000118
 691	6.8655e+01	12.4986	39.836437	0.000375	3.750346	1.270652	-0.000150
 692	6.8754e+01	12.4585	39.771843	0.000162	1.621771	0.549471	-0.000065
 693	6.8854e+01	12.4264	39.662840	0.000274	2.736739	0.927232	-0.000110
 694	6.8954e+01	12.3799	39.565949	0.000243	2.432657	0.824207	-0.000097
 695	6.9053e+01	12.3446	39.489243	0.000193	1.925854	0.652497	-0.000077
 696	6.9153e+01	12.2997	39.404463	0.000213	2.128575	0.721181	-0.000085
 697	6.9252e+01	12.2612	39.287386	0.000294	2.939461	0.995916	-0.000118
 698	6.9352e+01	12.2178	39.218755	0.000172	1.723132	0.583813	-0.000069
 699	6.9451e+01	12.1858	39.117827	0.000253	2.534018	0.858548	-0.000101
 700	6.9550e+01	12.1344	38.968453	0.000375	3.750346	1.270652	-0.000150
 701	6.9650e+01	12.1055	38.911933	0.000142	1.419050	0.480787	-0.000057
 702	6.9749e+01	12.0702	38.827153	0.000213	2.128575	0.721181	-0.000085
 703	6.9849e+01	12.0285	38.730262	0.000243	2.432657	0.824207	-0.000097
 704	6.9948e+01	11.9820	38.617222	0.000284	2.838100	0.961574	-0.000114
 705	7.0048e+01	11.9419	38.524368	0.000233	2.331296	0.789865	-0.000093
 706	7.0147e+01	11.8986	38.427477	0.000243	2.432657	0.824207	-0.000097
 707	7.0247e+01	11.8617	38.350771	0.000193	1.925854	0.652497	-0.000077
 708	7.0347e+01	11.8248	38.261954	0.000223	2.229936	0.755523	-0.000089
 709	7.0446e+01	11.7879	38.132766	0.000324	3.243543	1.098942	-0.000130
 710	7.0546e+01	11.7478	38.047986	0.000213	2.128575	0.721181	-0.000085
 711	7.0645e+01	11.7029	37.943020	0.000264	2.635379	0.892890	-0.000105
 712	7.0745e+01	11.6660	37.817869	0.000314	3.142182	1.064600	-0.000126
 713	7.0844e+01	11.6307	37.753275	0.000162	1.621771	0.549471	-0.000065
 714	7.0944e+01	11.5777	37.656384	0.000243	2.432657	0.824207	-0.000097
 715	7.1043e+01	11.5392	37.567567	0.000223	2.229936	0.755523	-0.000089
 716	7.1142e+01	11.5088	37.458564	0.000274	2.736739	0.927232	-0.000110
 717	7.1242e+01	11.4687	37.345524	0.000284	2.838100	0.961574	-0.000114
 718	7.1341e+01	11.4221	37.244596	0.000253	2.534018	0.858548	-0.000101
 719	7.1441e+01	11.3901	37.155779	0.000223	2.229936	0.755523	-0.000089
 720	7.1540e+01	11.3532	37.010442	0.000365	3.648986	1.236310	-0.000146
 721	7.1640e+01	11.2938	36.933736	0.000193	1.925854	0.652497	-0.000077
 722	7.1740e+01	11.2665	36.816659	0.000294	2.939461	0.995916	-0.000118
 723	7.1839e+01	11.2232	36.731880	0.000213	2.128575	0.721181	-0.000085
 724	7.1939e+01	11.1895	36.643063	0.000223	2.229936	0.755523	-0.000089
 725	7.2038e+01	11.1494	36.558283	0.000213	2.128575	0.721181	-0.000085
 726	7.2138e+01	11.1045	36.437169	0.000304	3.040821	1.030258	-0.000122
 727	7.2237e+01	11.0692	36.384686	0.000132	1.317689	0.446445	-0.000053
 728	7.2337e+01	11.0227	36.255497	0.000324	3.243543	1.098942	-0.000130
 729	7.2436e+01	10.9874	36.134383	0.000304	3.040821	1.030258	-0.000122
 730	7.2535e+01	10.9473	36.017306	0.000294	2.939461	0.995916	-0.000118
 731	7.2635e+01	10.9216	35.972898	0.000111	1.114968	0.377761	-0.000045
 732	7.2734e+01	10.8687	35.851784	0.000304	3.040821	1.030258	-0.000122
 733	7.2834e+01	10.8334	35.750856	0.000253	2.534018	0.858548	-0.000101
 734	7.2933e+01	10.7869	35.653964	0.000243	2.432657	0.824207	-0.000097
 735	7.3033e+01	10.7548	35.532850	0.000304	3.040821	1.030258	-0.000122
 736	7.3132e+01	10.7050	35.423848	0.000274	2.736739	0.927232	-0.000110
 737	7.3232e+01	10.6665	35.318882	0.000264	2.635379	0.892890	-0.000105
 738	7.3332e+01	10.6264	35.230065	0.000223	2.229936	0.755523	-0.000089
 739	7.3431e+01	10.5927	35.145285	0.000213	2.128575	0.721181	-0.000085
 740	7.3531e+01	10.5430	35.016097	0.000324	3.243543	1.098942	-0.000130
 741	7.3630e+01	10.5077	34.911131	0.000264	2.635379	0.892890	-0.000105
 742	7.3730e+01	10.4692	34.818277	0.000233	2.331296	0.789865	-0.000093
 743	7.3829e+01	10.4259	34.713312	0.000264	2.635379	0.892890	-0.000105
 744	7.3928e+01	10.3890	34.559900	0.000385	3.851707	1.304994	-0.000154
 745	7.4028e+01	10.3393	34.491269	0.000172	1.723132	0.583813	-0.000069
 746	7.4127e+01	10.3184	34.422638	0.000172	1.723132	0.583813	-0.000069
 747	7.4227e+01	10.2703	34.317672	0.000264	2.635379	0.892890	-0.000105
 748	7.4326e+01	10.2286	34.152150	0.000416	4.155789	1.408020	-0.000166
 749	7.4426e+01	10.1949	34.127927	0.000061	0.608164	0.206052	-0.000024
 750	7.4525e+01	10.1436	33.998739	0.000324	3.243543	1.098942	-0.000130
 751	7.4625e+01	10.1019	33.889736	0.000274	2.736739	0.927232	-0.000110
 752	7.4725e+01	10.0762	33.760548	0.000324	3.243543	1.098942	-0.000130
 753	7.4824e+01	10.0281	33.663656	0.000243	2.432657	0.824207	-0.000097
 754	7.4924e+01	9.9912	33.562728	0.000253	2.534018	0.858548	-0.000101
 755	7.5023e+01	9.9446	33.494097	0.000172	1.723132	0.583813	-0.000069
 756	7.5123e+01	9.9206	33.344723	0.000375	3.750346	1.270652	-0.000150
 757	7.5222e+01	9.8724	33.243794	0.000253	2.534018	0.858548	-0.000101
 758	7.5322e+01	9.8307	33.142866	0.000253	2.534018	0.858548	-0.000101
 759	7.5421e+01	9.7938	33.066160	0.000193	1.925854	0.652497	-0.000077
 760	7.5520e+01	9.7473	32.941009	0.000314	3.142182	1.064600	-0.000126
 761	7.5620e+01	9.7056	32.860266	0.000203	2.027214	0.686839	-0.000081
 762	7.5719e+01	9.6783	32.759338	0.000253	2.534018	0.858548	-0.000101
 763	7.5819e+01	9.6382	32.634187	0.000314	3.142182	1.064600	-0.000126
 764	7.5918e+01	9.5885	32.504998	0.000324	3.243543	1.098942	-0.000130
 765	7.6018e+01	9.5516	32.400033	0.000264	2.635379	0.892890	-0.000105
 766	7.6118e+01	9.5163	32.307179	0.000233	2.331296	0.789865	-0.000093
 767	7.6217e+01	9.4762	32.198176	0.000274	2.736739	0.927232	-0.000110
 768	7.6317e+01	9.4377	32.048802	0.000375	3.750346	1.270652	-0.000150
 769	7.6416e+01	9.3944	31.980171	0.000172	1.723132	0.583813	-0.000069
 770	7.6516e+01	9.3543	31.855020	0.000314	3.142182	1.064600	-0.000126
 771	7.6615e+01	9.3142	31.818685	0.000091	0.912246	0.309077	-0.000037
 772	7.6715e+01	9.2709	31.697571	0.000304	3.040821	1.030258	-0.000122
 773	7.6814e+01	9.2324	31.523974	0.000436	4.358511	1.476703	-0.000174
 774	7.6913e+01	9.1939	31.447269	0.000193	1.925854	0.652497	-0.000077
 775	7.7013e+01	9.1521	31.346340	0.000253	2.534018	0.858548	-0.000101
 776	7.7112e+01	9.1169	31.221189	0.000314	3.142182	1.064600	-0.000126
 777	7.7212e+01	9.0848	31.132372	0.000223	2.229936	0.755523	-0.000089
 778	7.7311e+01	9.0350	31.011258	0.000304	3.040821	1.030258	-0.000122
 779	7.7411e+01	8.9965	30.918404	0.000233	2.331296	0.789865	-0.000093
 780	7.7510e+01	8.9516	30.817476	0.000253	2.534018	0.858548	-0.000101
 781	7.7610e+01	8.9147	30.680213	0.000345	3.446264	1.167626	-0.000138
 782	7.7710e+01	8.8810	30.607545	0.000182	1.824493	0.618155	-0.000073
 783	7.7809e+01	8.8361	30.470282	0.000345	3.446264	1.167626	-0.000138
 784	7.7909e+01	8.7976	30.369354	0.000253	2.534018	0.858548	-0.000101
 785	7.8008e+01	8.7511	30.276499	0.000233	2.331296	0.789865	-0.000093
 786	7.8108e+01	8.7190	30.147311	0.000324	3.243543	1.098942	-0.000130
 787	7.8207e+01	8.6773	30.042346	0.000264	2.635379	0.892890	-0.000105
 788	7.8306e+01	8.6276	29.917194	0.000314	3.142182	1.064600	-0.000126
 789	7.8406e+01	8.5971	29.804155	0.000284	2.838100	0.961574	-0.000114
 790	7.8505e+01	8.5634	29.703226	0.000253	2.534018	0.858548	-0.000101
 791	7.8605e+01	8.5185	29.586149	0.000294	2.939461	0.995916	-0.000118
 792	7.8704e+01	8.4752	29.501369	0.000213	2.128575	0.721181	-0.000085
 793	7.8804e+01	8.4399	29.376218	0.000314	3.142182	1.064600	-0.000126
 794	7.8903e+01	8.4014	29.242993	0.000334	3.344904	1.133284	-0.000134
 795	7.9003e+01	8.3613	29.198584	0.000111	1.114968	0.377761	-0.000045
 796	7.9103e+01	8.3147	29.016913	0.000456	4.561232	1.545387	-0.000183
 797	7.9202e+01	8.2730	28.952319	0.000162	1.621771	0.549471	-0.000065
 798	7.9302e+01	8.2345	28.786796	0.000416	4.155789	1.408020	-0.000166
 799	7.9401e+01	8.2008	28.714128	0.000182	1.824493	0.618155	-0.000073
 800	7.9501e+01	8.1623	28.597051	0.000294	2.939461	0.995916	-0.000118
 801	7.9600e+01	8.1206	28.471900	0.000314	3.142182	1.064600	-0.000126
 802	7.9700e+01	8.0821	28.366934	0.000264	2.635379	0.892890	-0.000105
 803	7.9799e+01	8.0356	28.270043	0.000243	2.432657	0.824207	-0.000097
 804	7.9898e+01	7.9907	28.148929	0.000304	3.040821	1.030258	-0.000122
 805	7.9998e+01	7.9650	28.007629	0.000355	3.547625	1.201968	-0.000142
 806	8.0097e+01	7.9265	27.926886	0.000203	2.027214	0.686839	-0.000081
 807	8.0197e+01	7.8816	27.801735	0.000314	3.142182	1.064600	-0.000126
 808	8.0296e+01	7.8495	27.668510	0.000334	3.344904	1.133284	-0.000134
 809	8.0396e+01	7.7934	27.571619	0.000243	2.432657	0.824207	-0.000097
 810	8.0496e+01	7.7597	27.442430	0.000324	3.243543	1.098942	-0.000130
 811	8.0595e+01	7.7292	27.349576	0.000233	2.331296	0.789865	-0.000093
 812	8.0695e+01	7.6730	27.236536	0.000284	2.838100	0.961574	-0.000114
 813	8.0794e+01	7.6490	27.131571	0.000264	2.635379	0.892890	-0.000105
 814	8.0894e+01	7.5928	27.014494	0.000294	2.939461	0.995916	-0.000118
 815	8.0993e+01	7.5607	26.901454	0.000284	2.838100	0.961574	-0.000114
 816	8.1093e+01	7.5303	26.792451	0.000274	2.736739	0.927232	-0.000110
 817	8.1192e+01	7.4773	26.651152	0.000355	3.547625	1.201968	-0.000142
 818	8.1291e+01	7.4324	26.574446	0.000193	1.925854	0.652497	-0.000077
 819	8.1391e+01	7.4067	26.425072	0.000375	3.750346	1.270652	-0.000150
 820	8.1490e+01	7.3650	26.307995	0.000294	2.939461	0.995916	-0.000118
 821	8.1590e+01	7.3201	26.203030	0.000264	2.635379	0.892890	-0.000105
 822	8.1689e+01	7.2752	26.106138	0.000243	2.432657	0.824207	-0.000097
 823	8.1789e+01	7.2383	25.976950	0.000324	3.243543	1.098942	-0.000130
 824	8.1888e+01	7.2062	25.855836	0.000304	3.040821	1.030258	-0.000122
 825	8.1988e+01	7.1565	25.722610	0.000334	3.344904	1.133284	-0.000134
 826	8.2088e+01	7.1180	25.621682	0.000253	2.534018	0.858548	-0.000101
 827	8.2187e+01	7.0795	25.524791	0.000243	2.432657	0.824207	-0.000097
 828	8.2287e+01	7.0362	25.391565	0.000334	3.344904	1.133284	-0.000134
 829	8.2386e+01	7.0073	25.254303	0.000345	3.446264	1.167626	-0.000138
 830	8.2486e+01	6.9592	25.141263	0.000284	2.838100	0.961574	-0.000114
 831	8.2585e+01	6.9207	25.044372	0.000243	2.432657	0.824207	-0.000097
 832	8.2684e+01	6.8806	24.882886	0.000405	4.054429	1.373678	-0.000162
 833	8.2784e+01	6.8404	24.794069	0.000223	2.229936	0.755523	-0.000089
 834	8.2883e+01	6.8132	24.713326	0.000203	2.027214	0.686839	-0.000081
 835	8.2983e+01	6.7586	24.580101	0.000334	3.344904	1.133284	-0.000134
 836	8.3082e+01	6.7201	24.463024	0.000294	2.939461	0.995916	-0.000118
 837	8.3182e+01	6.6832	24.305576	0.000395	3.953068	1.339336	-0.000158
 838	8.3281e+01	6.6495	24.224833	0.000203	2.027214	0.686839	-0.000081
 839	8.3381e+01	6.5966	24.095645	0.000324	3.243543	1.098942	-0.000130
 840	8.3481e+01	6.5677	23.978568	0.000294	2.939461	0.995916	-0.000118
 841	8.3580e+01	6.5260	23.861491	0.000294	2.939461	0.995916	-0.000118
 842	8.3680e+01	6.4907	23.752488	0.000274	2.736739	0.927232	-0.000110
 843	8.3779e+01	6.4506	23.639448	0.000284	2.838100	0.961574	-0.000114
 844	8.3879e+01	6.4089	23.490074	0.000375	3.750346	1.270652	-0.000150
 845	8.3978e+01	6.3640	23.360886	0.000324	3.243543	1.098942	-0.000130
 846	8.4078e+01	6.3303	23.272069	0.000223	2.229936	0.755523	-0.000089
 847	8.4177e+01	6.2822	23.150955	0.000304	3.040821	1.030258	-0.000122
 848	8.4276e+01	6.2533	23.037915	0.000284	2.838100	0.961574	-0.000114
 849	8.4376e+01	6.1923	22.904690	0.000334	3.344904	1.133284	-0.000134
 850	8.4475e+01	6.1619	22.832021	0.000182	1.824493	0.618155	-0.000073
 851	8.4575e+01	6.1266	22.678610	0.000385	3.851707	1.304994	-0.000154
 852	8.4674e+01	6.0897	22.553459	0.000314	3.142182	1.064600	-0.000126
 853	8.4774e+01	6.0351	22.436382	0.000294	2.939461	0.995916	-0.000118
 854	8.4874e+01	6.0079	22.295082	0.000355	3.547625	1.201968	-0.000142
 855	8.4973e+01	5.9629	22.210302	0.000213	2.128575	0.721181	-0.000085
 856	8.5073e+01	5.9357	22.081114	0.000324	3.243543	1.098942	-0.000130
 857	8.5172e+01	5.8891	21.951926	0.000324	3.243543	1.098942	-0.000130
 858	8.5272e+01	5.8490	21.782366	0.000426	4.257150	1.442361	-0.000170
 859	8.5371e+01	5.8025	21.733920	0.000122	1.216329	0.412103	-0.000049
 860	8.5471e+01	5.7624	21.572435	0.000405	4.054429	1.373678	-0.000162
 861	8.5570e+01	5.7287	21.455358	0.000294	2.939461	0.995916	-0.000118
 862	8.5669e+01	5.6902	21.366541	0.000223	2.229936	0.755523	-0.000089
 863	8.5769e+01	5.6501	21.209093	0.000395	3.953068	1.339336	-0.000158
 864	8.5868e+01	5.6068	21.100090	0.000274	2.736739	0.927232	-0.000110
 865	8.5968e+01	5.5635	20.995124	0.000264	2.635379	0.892890	-0.000105
 866	8.6067e+01	5.5362	20.837676	0.000395	3.953068	1.339336	-0.000158
 867	8.6167e+01	5.4785	20.748859	0.000223	2.229936	0.755523	-0.000089
 868	8.6266e+01	5.4560	20.623708	0.000314	3.142182	1.064600	-0.000126
 869	8.6366e+01	5.4111	20.486445	0.000345	3.446264	1.167626	-0.000138
 870	8.6466e+01	5.3742	20.381480	0.000264	2.635379	0.892890	-0.000105
 871	8.6565e+01	5.3293	20.215957	0.000416	4.155789	1.408020	-0.000166
 872	8.6665e+01	5.2843	20.119066	0.000243	2.432657	0.824207	-0.000097
 873	8.6764e+01	5.2507	19.993915	0.000314	3.142182	1.064600	-0.000126
 874	8.6864e+01	5.2122	19.832429	0.000405	4.054429	1.373678	-0.000162
 875	8.6963e+01	5.1737	19.747649	0.000213	2.128575	0.721181	-0.000085
 876	8.7063e+01	5.1271	19.602313	0.000365	3.648986	1.236310	-0.000146
 877	8.7162e+01	5.0934	19.489273	0.000284	2.838100	0.961574	-0.000114
 878	8.7261e+01	5.0469	19.376233	0.000284	2.838100	0.961574	-0.000114
 879	8.7361e+01	5.0084	19.238970	0.000345	3.446264	1.167626	-0.000138
 880	8.7460e+01	4.9651	19.113819	0.000314	3.142182	1.064600	-0.000126
 881	8.7560e+01	4.9330	18.980594	0.000334	3.344904	1.133284	-0.000134
 882	8.7659e+01	4.8929	18.851405	0.000324	3.243543	1.098942	-0.000130
 883	8.7759e+01	4.8512	18.722217	0.000324	3.243543	1.098942	-0.000130
 884	8.7859e+01	4.8031	18.625326	0.000243	2.432657	0.824207	-0.000097
 885	8.7958e+01	4.7678	18.488063	0.000345	3.446264	1.167626	-0.000138
 886	8.8058e+01	4.7213	18.362912	0.000314	3.142182	1.064600	-0.000126
 887	8.8157e+01	4.6940	18.253909	0.000274	2.736739	0.927232	-0.000110
 888	8.8257e+01	4.6523	18.108572	0.000365	3.648986	1.236310	-0.000146
 889	8.8356e+01	4.6122	18.003607	0.000264	2.635379	0.892890	-0.000105
 890	8.8456e+01	4.5753	17.866344	0.000345	3.446264	1.167626	-0.000138
 891	8.8555e+01	4.5416	17.749267	0.000294	2.939461	0.995916	-0.000118
 892	8.8654e+01	4.4902	17.595856	0.000385	3.851707	1.304994	-0.000154
 893	8.8754e+01	4.4598	17.466668	0.000324	3.243543	1.098942	-0.000130
 894	8.8853e+01	4.4132	17.305182	0.000405	4.054429	1.373678	-0.000162
 895	8.8953e+01	4.3747	17.208291	0.000243	2.432657	0.824207	-0.000097
 896	8.9052e+01	4.3378	17.099288	0.000274	2.736739	0.927232	-0.000110
 897	8.9152e+01	4.2945	16.937803	0.000405	4.054429	1.373678	-0.000162
 898	8.9251e+01	4.2624	16.848986	0.000223	2.229936	0.755523	-0.000089
 899	8.9351e+01	4.2063	16.723835	0.000314	3.142182	1.064600	-0.000126
 900	8.9451e+01	4.1678	16.586572	0.000345	3.446264	1.167626	-0.000138
 901	8.9550e+01	4.1389	16.461421	0.000314	3.142182	1.064600	-0.000126
 902	8.9650e+01	4.0988	16.312047	0.000375	3.750346	1.270652	-0.000150
 903	8.9749e+01	4.0619	16.182859	0.000324	3.243543	1.098942	-0.000130
 904	8.9849e+01	4.0186	16.053670	0.000324	3.243543	1.098942	-0.000130
 905	8.9948e+01	3.9689	15.928519	0.000314	3.142182	1.064600	-0.000126
 906	9.0047e+01	3.9336	15.823554	0.000264	2.635379	0.892890	-0.000105
 907	9.0147e+01	3.8951	15.653994	0.000426	4.257150	1.442361	-0.000170
 908	9.0246e+01	3.8518	15.496546	0.000395	3.953068	1.339336	-0.000158
 909	9.0346e+01	3.8084	15.383506	0.000284	2.838100	0.961574	-0.000114
 910	9.0445e+01	3.7699	15.286614	0.000243	2.432657	0.824207	-0.000097
 911	9.0545e+01	3.7395	15.129166	0.000395	3.953068	1.339336	-0.000158
 912	9.0644e+01	3.6994	15.004015	0.000314	3.142182	1.064600	-0.000126
 913	9.0744e+01	3.6496	14.858678	0.000365	3.648986	1.236310	-0.000146
 914	9.0844e+01	3.6175	14.685081	0.000436	4.358511	1.476703	-0.000174
 915	9.0943e+01	3.5790	14.620487	0.000162	1.621771	0.549471	-0.000065
 916	9.1043e+01	3.5341	14.471113	0.000375	3.750346	1.270652	-0.000150
 917	9.1142e+01	3.4972	14.362110	0.000274	2.736739	0.927232	-0.000110
 918	9.1242e+01	3.4475	14.212736	0.000375	3.750346	1.270652	-0.000150
 919	9.1341e+01	3.4122	14.107771	0.000264	2.635379	0.892890	-0.000105
 920	9.1441e+01	3.3769	13.950323	0.000395	3.953068	1.339336	-0.000158
 921	9.1540e+01	3.3384	13.784800	0.000416	4.155789	1.408020	-0.000166
 922	9.1639e+01	3.2903	13.691946	0.000233	2.331296	0.789865	-0.000093
 923	9.1739e+01	3.2582	13.566795	0.000314	3.142182	1.064600	-0.000126
 924	9.1838e+01	3.2165	13.417421	0.000375	3.750346	1.270652	-0.000150
 925	9.1938e+01	3.1684	13.284195	0.000334	3.344904	1.133284	-0.000134
 926	9.2037e+01	3.1395	13.167118	0.000294	2.939461	0.995916	-0.000118
 927	9.2137e+01	3.0930	13.005633	0.000405	4.054429	1.373678	-0.000162
 928	9.2237e+01	3.0545	12.888556	0.000294	2.939461	0.995916	-0.000118
 929	9.2336e+01	3.0111	12.735145	0.000385	3.851707	1.304994	-0.000154
 930	9.2436e+01	2.9871	12.577696	0.000395	3.953068	1.339336	-0.000158
 931	9.2535e+01	2.9309	12.488879	0.000223	2.229936	0.755523	-0.000089
 932	9.2635e+01	2.8956	12.359691	0.000324	3.243543	1.098942	-0.000130
 933	9.2734e+01	2.8636	12.214354	0.000365	3.648986	1.236310	-0.000146
 934	9.2834e+01	2.8170	12.052869	0.000405	4.054429	1.373678	-0.000162
 935	9.2933e+01	2.7769	11.891383	0.000405	4.054429	1.373678	-0.000162
 936	9.3032e+01	2.7400	11.790455	0.000253	2.534018	0.858548	-0.000101
 937	9.3132e+01	2.6983	11.697601	0.000233	2.331296	0.789865	-0.000093
 938	9.3231e+01	2.6694	11.552264	0.000365	3.648986	1.236310	-0.000146
 939	9.3331e+01	2.6181	11.410964	0.000355	3.547625	1.201968	-0.000142
 940	9.3430e+01	2.5828	11.233330	0.000446	4.459871	1.511045	-0.000179
 941	9.3530e+01	2.5427	11.067808	0.000416	4.155789	1.408020	-0.000166
 942	9.3629e+01	2.5010	10.978991	0.000223	2.229936	0.755523	-0.000089
 943	9.3729e+01	2.4577	10.825579	0.000385	3.851707	1.304994	-0.000154
 944	9.3829e+01	2.4208	10.724651	0.000253	2.534018	0.858548	-0.000101
 945	9.3928e+01	2.3919	10.599500	0.000314	3.142182	1.064600	-0.000126
 946	9.4028e+01	2.3406	10.446089	0.000385	3.851707	1.304994	-0.000154
 947	9.4127e+01	2.2973	10.300752	0.000365	3.648986	1.236310	-0.000146
 948	9.4227e+01	2.2636	10.155415	0.000365	3.648986	1.236310	-0.000146
 949	9.4326e+01	2.2203	10.026227	0.000324	3.243543	1.098942	-0.000130
 950	9.4425e+01	2.1802	9.868778	0.000395	3.953068	1.339336	-0.000158
 951	9.4525e+01	2.1368	9.751701	0.000294	2.939461	0.995916	-0.000118
 952	9.4624e+01	2.1048	9.606364	0.000365	3.648986	1.236310	-0.000146
 953	9.4724e+01	2.0630	9.477176	0.000324	3.243543	1.098942	-0.000130
 954	9.4823e+01	2.0245	9.299542	0.000446	4.459871	1.511045	-0.000179
 955	9.4923e+01	1.9828	9.214762	0.000213	2.128575	0.721181	-0.000085
 956	9.5022e+01	1.9363	9.065388	0.000375	3.750346	1.270652	-0.000150
 957	9.5122e+01	1.9058	8.899866	0.000416	4.155789	1.408020	-0.000166
 958	9.5222e+01	1.8609	8.730306	0.000426	4.257150	1.442361	-0.000170
 959	9.5321e+01	1.8288	8.617266	0.000284	2.838100	0.961574	-0.000114
 960	9.5421e+01	1.7807	8.459818	0.000395	3.953068	1.339336	-0.000158
 961	9.5520e+01	1.7406	8.350815	0.000274	2.736739	0.927232	-0.000110
 962	9.5620e+01	1.7117	8.177218	0.000436	4.358511	1.476703	-0.000174
 963	9.5719e+01	1.6652	8.076290	0.000253	2.534018	0.858548	-0.000101
 964	9.5819e+01	1.6219	7.862322	0.000537	5.372118	1.820123	-0.000215
 965	9.5918e+01	1.5834	7.741208	0.000304	3.040821	1.030258	-0.000122
 966	9.6017e+01	1.5401	7.652391	0.000223	2.229936	0.755523	-0.000089
 967	9.6117e+01	1.4967	7.515128	0.000345	3.446264	1.167626	-0.000138
 968	9.6216e+01	1.4615	7.293086	0.000557	5.574839	1.888807	-0.000223
 969	9.6316e+01	1.4197	7.192157	0.000253	2.534018	0.858548	-0.000101
 970	9.6415e+01	1.3845	7.046820	0.000365	3.648986	1.236310	-0.000146
 971	9.6515e+01	1.3379	6.937818	0.000274	2.736739	0.927232	-0.000110
 972	9.6615e+01	1.3058	6.780369	0.000395	3.953068	1.339336	-0.000158
 973	9.6714e+01	1.2625	6.639070	0.000355	3.547625	1.201968	-0.000142
 974	9.6814e+01	1.2240	6.513919	0.000314	3.142182	1.064600	-0.000126
 975	9.6913e+01	1.1871	6.320136	0.000487	4.865314	1.648413	-0.000195
 976	9.7013e+01	1.1486	6.211133	0.000274	2.736739	0.927232	-0.000110
 977	9.7112e+01	1.1117	6.057722	0.000385	3.851707	1.304994	-0.000154
 978	9.7212e+01	1.0700	5.872014	0.000466	4.662593	1.579729	-0.000187
 979	9.7311e+01	1.0267	5.738788	0.000334	3.344904	1.133284	-0.000134
 980	9.7410e+01	0.9850	5.641897	0.000243	2.432657	0.824207	-0.000097
 981	9.7510e+01	0.9449	5.492523	0.000375	3.750346	1.270652	-0.000150
 982	9.7609e+01	0.8952	5.306815	0.000466	4.662593	1.579729	-0.000187
 983	9.7709e+01	0.8711	5.177627	0.000324	3.243543	1.098942	-0.000130
 984	9.7808e+01	0.8182	5.044401	0.000334	3.344904	1.133284	-0.000134
 985	9.7908e+01	0.7893	4.870804	0.000436	4.358511	1.476703	-0.000174
 986	9.8007e+01	0.7460	4.737579	0.000334	3.344904	1.133284	-0.000134
 987	9.8107e+01	0.7010	4.600316	0.000345	3.446264	1.167626	-0.000138
 988	9.8207e+01	0.6722	4.426719	0.000436	4.358511	1.476703	-0.000174
 989	9.8306e+01	0.6369	4.289457	0.000345	3.446264	1.167626	-0.000138
 990	9.8406e+01	0.5888	4.176417	0.000284	2.838100	0.961574	-0.000114
 991	9.8505e+01	0.5503	4.043191	0.000334	3.344904	1.133284	-0.000134
 992	9.8605e+01	0.5085	3.881706	0.000405	4.054429	1.373678	-0.000162
 993	9.8704e+01	0.4636	3.736369	0.000365	3.648986	1.236310	-0.000146
 994	9.8803e+01	0.4331	3.578921	0.000395	3.953068	1.339336	-0.000158
 995	9.8903e+01	0.3850	3.441658	0.000345	3.446264	1.167626	-0.000138
 996	9.9002e+01	0.3465	3.284210	0.000395	3.953068	1.339336	-0.000158
 997	9.9102e+01	0.3064	3.163096	0.000304	3.040821	1.030258	-0.000122
 998	9.9201e+01	0.2711	2.981425	0.000456	4.561232	1.545387	-0.000183
 999	9.9301e+01	0.2294	2.799754	0.000456	4.561232	1.545387	-0.000183
1000	9.9400e+01	0.1861	2.674602	0.000314	3.142182	1.064600	-0.000126
1001	9.9500e+01	0.1604	2.549451	0.000314	3.142182	1.064600	-0.000126
1002	9.9600e+01	0.1043	2.363743	0.000466	4.662593	1.579729	-0.000187
1003	9.9699e+01	0.0578	2.206295	0.000395	3.953068	1.339336	-0.000158
1004	9.9799e+01	0.0225	2.077106	0.000324	3.243543	1.098942	-0.000130
1005	9.9898e+01	-0.0032	1.964067	0.000284	2.838100	0.961574	-0.000114
1006	9.9998e+01	-0.0433	1.814693	0.000375	3.750346	1.270652	-0.000150
1007	1.0010e+02	-0.0850	1.669356	0.000365	3.648986	1.236310	-0.000146
1008	1.0020e+02	-0.1267	1.507870	0.000405	4.054429	1.373678	-0.000162
1009	1.0030e+02	-0.1620	1.370608	0.000345	3.446264	1.167626	-0.000138
1010	1.0040e+02	-0.2005	1.241419	0.000324	3.243543	1.098942	-0.000130
1011	1.0050e+02	-0.2519	1.116268	0.000314	3.142182	1.064600	-0.000126
1012	1.0059e+02	-0.2872	0.898263	0.000547	5.473479	1.854465	-0.000219
1013	1.0069e+02	-0.3192	0.732740	0.000416	4.155789	1.408020	-0.000166
1014	1.0079e+02	-0.3561	0.615663	0.000294	2.939461	0.995916	-0.000118
1015	1.0089e+02	-0.4027	0.462252	0.000385	3.851707	1.304994	-0.000154
1016	1.0099e+02	-0.4492	0.304804	0.000395	3.953068	1.339336	-0.000158
1017	1.0109e+02	-0.4861	0.147355	0.000395	3.953068	1.339336	-0.000158
1018	1.0119e+02	-0.5230	0.026241	0.000304	3.040821	1.030258	-0.000122
1019	1.0129e+02	-0.5599	-0.131207	0.000395	3.953068	1.339336	-0.000158
1020	1.0139e+02	-0.6064	-0.288655	0.000395	3.953068	1.339336	-0.000158
1021	1.0149e+02	-0.6369	-0.409769	0.000304	3.040821	1.030258	-0.000122
1022	1.0159e+02	-0.6802	-0.571255	0.000405	4.054429	1.373678	-0.000162
1023	1.0169e+02	-0.7123	-0.716592	0.000365	3.648986	1.236310	-0.000146
1024	1.0179e+02	-0.7556	-0.861928	0.000365	3.648986	1.236310	-0.000146
1025	1.0189e+02	-0.7893	-1.031488	0.000426	4.257150	1.442361	-0.000170
1026	1.0199e+02	-0.8390	-1.221234	0.000476	4.763954	1.614071	-0.000191
1027	1.0209e+02	-0.8887	-1.330236	0.000274	2.736739	0.927232	-0.000110
1028	1.0219e+02	-0.9144	-1.483647	0.000385	3.851707	1.304994	-0.000154
1029	1.0229e+02	-0.9625	-1.637059	0.000385	3.851707	1.304994	-0.000154
1030	1.0239e+02	-1.0042	-1.770284	0.000334	3.344904	1.133284	-0.000134
1031	1.0248e+02	-1.0444	-1.935807	0.000416	4.155789	1.408020	-0.000166
1032	1.0258e+02	-1.0796	-2.060958	0.000314	3.142182	1.064600	-0.000126
1033	1.0268e+02	-1.1262	-2.214369	0.000385	3.851707	1.304994	-0.000154
1034	1.0278e+02	-1.1518	-2.392003	0.000446	4.459871	1.511045	-0.000179
1035	1.0288e+02	-1.2048	-2.529266	0.000345	3.446264	1.167626	-0.000138
1036	1.0298e+02	-1.2465	-2.710937	0.000456	4.561232	1.545387	-0.000183
1037	1.0308e+02	-1.2754	-2.832051	0.000304	3.040821	1.030258	-0.000122
1038	1.0318e+02	-1.3235	-2.981425	0.000375	3.750346	1.270652	-0.000150
1039	1.0328e+02	-1.3700	-3.150984	0.000426	4.257150	1.442361	-0.000170
1040	1.0338e+02	-1.3957	-3.328618	0.000446	4.459871	1.511045	-0.000179
1041	1.0348e+02	-1.4406	-3.457807	0.000324	3.243543	1.098942	-0.000130
1042	1.0358e+02	-1.4887	-3.615255	0.000395	3.953068	1.339336	-0.000158
1043	1.0368e+02	-1.5176	-3.784815	0.000426	4.257150	1.442361	-0.000170
1044	1.0378e+02	-1.5529	-3.873632	0.000223	2.229936	0.755523	-0.000089
1045	1.0388e+02	-1.5930	-4.047229	0.000436	4.358511	1.476703	-0.000174
1046	1.0398e+02	-1.6331	-4.200640	0.000385	3.851707	1.304994	-0.000154
1047	1.0408e+02	-1.6844	-4.313680	0.000284	2.838100	0.961574	-0.000114
1048	1.0418e+02	-1.7069	-4.483239	0.000426	4.257150	1.442361	-0.000170
1049	1.0428e+02	-1.7566	-4.660873	0.000446	4.459871	1.511045	-0.000179
1050	1.0438e+02	-1.7967	-4.806210	0.000365	3.648986	1.236310	-0.000146
1051	1.0447e+02	-1.8320	-4.963658	0.000395	3.953068	1.339336	-0.000158
1052	1.0457e+02	-1.8786	-5.117070	0.000385	3.851707	1.304994	-0.000154
1053	1.0467e+02	-1.9203	-5.258369	0.000355	3.547625	1.201968	-0.000142
1054	1.0477e+02	-1.9556	-5.403706	0.000365	3.648986	1.236310	-0.000146
1055	1.0487e+02	-1.9957	-5.540969	0.000345	3.446264	1.167626	-0.000138
1056	1.0497e+02	-2.0358	-5.694380	0.000385	3.851707	1.304994	-0.000154
1057	1.0507e+02	-2.0807	-5.863940	0.000426	4.257150	1.442361	-0.000170
1058	1.0517e+02	-2.1224	-6.021388	0.000395	3.953068	1.339336	-0.000158
1059	1.0527e+02	-2.1561	-6.114242	0.000233	2.331296	0.789865	-0.000093
1060	1.0537e+02	-2.1978	-6.303987	0.000476	4.763954	1.614071	-0.000191
1061	1.0547e+02	-2.2315	-6.437213	0.000334	3.344904	1.133284	-0.000134
1062	1.0557e+02	-2.2812	-6.570438	0.000334	3.344904	1.133284	-0.000134
1063	1.0567e+02	-2.3149	-6.723850	0.000385	3.851707	1.304994	-0.000154
1064	1.0577e+02	-2.3582	-6.889372	0.000416	4.155789	1.408020	-0.000166
1065	1.0587e+02	-2.3983	-7.042783	0.000385	3.851707	1.304994	-0.000154
1066	1.0597e+02	-2.4416	-7.192157	0.000375	3.750346	1.270652	-0.000150
1067	1.0607e+02	-2.4753	-7.325383	0.000334	3.344904	1.133284	-0.000134
1068	1.0617e+02	-2.5170	-7.450534	0.000314	3.142182	1.064600	-0.000126
1069	1.0627e+02	-2.5555	-7.644317	0.000487	4.865314	1.648413	-0.000195
1070	1.0637e+02	-2.5940	-7.757356	0.000284	2.838100	0.961574	-0.000114
1071	1.0647e+02	-2.6325	-7.914805	0.000395	3.953068	1.339336	-0.000158
1072	1.0656e+02	-2.6743	-8.072253	0.000395	3.953068	1.339336	-0.000158
1073	1.0666e+02	-2.7112	-8.209516	0.000345	3.446264	1.167626	-0.000138
1074	1.0676e+02	-2.7609	-8.334667	0.000314	3.142182	1.064600	-0.000126
1075	1.0686e+02	-2.7946	-8.528449	0.000487	4.865314	1.648413	-0.000195
1076	1.0696e+02	-2.8331	-8.649563	0.000304	3.040821	1.030258	-0.000122
1077	1.0706e+02	-2.8764	-8.815086	0.000416	4.155789	1.408020	-0.000166
1078	1.0716e+02	-2.9053	-8.932163	0.000294	2.939461	0.995916	-0.000118
1079	1.0726e+02	-2.9678	-9.065388	0.000334	3.344904	1.133284	-0.000134
1080	1.0736e+02	-2.9951	-9.210725	0.000365	3.648986	1.236310	-0.000146
1081	1.0746e+02	-3.0320	-9.331839	0.000304	3.040821	1.030258	-0.000122
1082	1.0756e+02	-3.0657	-9.541770	0.000527	5.270757	1.785781	-0.000211
1083	1.0766e+02	-3.1154	-9.642699	0.000253	2.534018	0.858548	-0.000101
1084	1.0776e+02	-3.1459	-9.800147	0.000395	3.953068	1.339336	-0.000158
1085	1.0786e+02	-3.1972	-9.945484	0.000365	3.648986	1.236310	-0.000146
1086	1.0796e+02	-3.2277	-10.086784	0.000355	3.547625	1.201968	-0.000142
1087	1.0806e+02	-3.2710	-10.232121	0.000365	3.648986	1.236310	-0.000146
1088	1.0816e+02	-3.3159	-10.377457	0.000365	3.648986	1.236310	-0.000146
1089	1.0826e+02	-3.3545	-10.510683	0.000334	3.344904	1.133284	-0.000134
1090	1.0836e+02	-3.4042	-10.651983	0.000355	3.547625	1.201968	-0.000142
1091	1.0845e+02	-3.4331	-10.793282	0.000355	3.547625	1.201968	-0.000142
1092	1.0855e+02	-3.4700	-10.910359	0.000294	2.939461	0.995916	-0.000118
1093	1.0865e+02	-3.5117	-11.055696	0.000365	3.648986	1.236310	-0.000146
1094	1.0875e+02	-3.5438	-11.209107	0.000385	3.851707	1.304994	-0.000154
1095	1.0885e+02	-3.5903	-11.330221	0.000304	3.040821	1.030258	-0.000122
1096	1.0895e+02	-3.6240	-11.475558	0.000365	3.648986	1.236310	-0.000146
1097	1.0905e+02	-3.6673	-11.681452	0.000517	5.169396	1.751439	-0.000207
1098	1.0915e+02	-3.7042	-11.758158	0.000193	1.925854	0.652497	-0.000077
1099	1.0925e+02	-3.7459	-11.911569	0.000385	3.851707	1.304994	-0.000154
1100	1.0935e+02	-3.7844	-12.060943	0.000375	3.750346	1.270652	-0.000150
1101	1.0945e+02	-3.8373	-12.161871	0.000253	2.534018	0.858548	-0.000101
1102	1.0955e+02	-3.8726	-12.335468	0.000436	4.358511	1.476703	-0.000174
1103	1.0965e+02	-3.9159	-12.464657	0.000324	3.243543	1.098942	-0.000130
1104	1.0975e+02	-3.9528	-12.597882	0.000334	3.344904	1.133284	-0.000134
1105	1.0985e+02	-3.9865	-12.771479	0.000436	4.358511	1.476703	-0.000174
1106	1.0995e+02	-4.0234	-12.872407	0.000253	2.534018	0.858548	-0.000101
1107	1.1005e+02	-4.0635	-12.989484	0.000294	2.939461	0.995916	-0.000118
1108	1.1015e+02	-4.1100	-13.155007	0.000416	4.155789	1.408020	-0.000166
1109	1.1025e+02	-4.1502	-13.312455	0.000395	3.953068	1.339336	-0.000158
1110	1.1035e+02	-4.1870	-13.413383	0.000253	2.534018	0.858548	-0.000101
1111	1.1044e+02	-4.2207	-13.554683	0.000355	3.547625	1.201968	-0.000142
1112	1.1054e+02	-4.2657	-13.700020	0.000365	3.648986	1.236310	-0.000146
1113	1.1064e+02	-4.3074	-13.833246	0.000334	3.344904	1.133284	-0.000134
1114	1.1074e+02	-4.3443	-13.994731	0.000405	4.054429	1.373678	-0.000162
1115	1.1084e+02	-4.3860	-14.099697	0.000264	2.635379	0.892890	-0.000105
1116	1.1094e+02	-4.4245	-14.281368	0.000456	4.561232	1.545387	-0.000183
1117	1.1104e+02	-4.4662	-14.366148	0.000213	2.128575	0.721181	-0.000085
1118	1.1114e+02	-4.5191	-14.487262	0.000304	3.040821	1.030258	-0.000122
1119	1.1124e+02	-4.5416	-14.644710	0.000395	3.953068	1.339336	-0.000158
1120	1.1134e+02	-4.5785	-14.786010	0.000355	3.547625	1.201968	-0.000142
1121	1.1144e+02	-4.6282	-14.890975	0.000264	2.635379	0.892890	-0.000105
1122	1.1154e+02	-4.6635	-15.064572	0.000436	4.358511	1.476703	-0.000174
1123	1.1164e+02	-4.7132	-15.201835	0.000345	3.446264	1.167626	-0.000138
1124	1.1174e+02	-4.7533	-15.294689	0.000233	2.331296	0.789865	-0.000093
1125	1.1184e+02	-4.7918	-15.448100	0.000385	3.851707	1.304994	-0.000154
1126	1.1194e+02	-4.8255	-15.532880	0.000213	2.128575	0.721181	-0.000085
1127	1.1204e+02	-4.8656	-15.690328	0.000395	3.953068	1.339336	-0.000158
1128	1.1214e+02	-4.9090	-15.827591	0.000345	3.446264	1.167626	-0.000138
1129	1.1224e+02	-4.9491	-15.952742	0.000314	3.142182	1.064600	-0.000126
1130	1.1234e+02	-4.9876	-16.106153	0.000385	3.851707	1.304994	-0.000154
1131	1.1244e+02	-5.0212	-16.235341	0.000324	3.243543	1.098942	-0.000130
1132	1.1253e+02	-5.0614	-16.348381	0.000284	2.838100	0.961574	-0.000114
1133	1.1263e+02	-5.1111	-16.485644	0.000345	3.446264	1.167626	-0.000138
1134	1.1273e+02	-5.1544	-16.639055	0.000385	3.851707	1.304994	-0.000154
1135	1.1283e+02	-5.1913	-16.731909	0.000233	2.331296	0.789865	-0.000093
1136	1.1293e+02	-5.2186	-16.893394	0.000405	4.054429	1.373678	-0.000162
1137	1.1303e+02	-5.2555	-17.030657	0.000345	3.446264	1.167626	-0.000138
1138	1.1313e+02	-5.3116	-17.127548	0.000243	2.432657	0.824207	-0.000097
1139	1.1323e+02	-5.3501	-17.236551	0.000274	2.736739	0.927232	-0.000110
1140	1.1333e+02	-5.3854	-17.398036	0.000405	4.054429	1.373678	-0.000162
1141	1.1343e+02	-5.4271	-17.523188	0.000314	3.142182	1.064600	-0.000126
1142	1.1353e+02	-5.4624	-17.652376	0.000324	3.243543	1.098942	-0.000130
1143	1.1363e+02	-5.5041	-17.781564	0.000324	3.243543	1.098942	-0.000130
1144	1.1373e+02	-5.5474	-17.902678	0.000304	3.040821	1.030258	-0.000122
1145	1.1383e+02	-5.5827	-18.039941	0.000345	3.446264	1.167626	-0.000138
1146	1.1393e+02	-5.6244	-18.148944	0.000274	2.736739	0.927232	-0.000110
1147	1.1403e+02	-5.6758	-18.282169	0.000334	3.344904	1.133284	-0.000134
1148	1.1413e+02	-5.6998	-18.415395	0.000334	3.344904	1.133284	-0.000134
1149	1.1423e+02	-5.7415	-18.564769	0.000375	3.750346	1.270652	-0.000150
1150	1.1433e+02	-5.7768	-18.677808	0.000284	2.838100	0.961574	-0.000114
1151	1.1442e+02	-5.8202	-18.802960	0.000314	3.142182	1.064600	-0.000126
1152	1.1452e+02	-5.8667	-18.871591	0.000172	1.723132	0.583813	-0.000069
1153	1.1462e+02	-5.9052	-19.073448	0.000507	5.068036	1.717097	-0.000203
1154	1.1472e+02	-5.9469	-19.162265	0.000223	2.229936	0.755523	-0.000089
1155	1.1482e+02	-5.9854	-19.275305	0.000284	2.838100	0.961574	-0.000114
1156	1.1492e+02	-6.0255	-19.400456	0.000314	3.142182	1.064600	-0.000126
1157	1.1502e+02	-6.0672	-19.602313	0.000507	5.068036	1.717097	-0.000203
1158	1.1512e+02	-6.1009	-19.650758	0.000122	1.216329	0.412103	-0.000049
1159	1.1522e+02	-6.1442	-19.763798	0.000284	2.838100	0.961574	-0.000114
1160	1.1532e+02	-6.1747	-19.933358	0.000426	4.257150	1.442361	-0.000170
1161	1.1542e+02	-6.2228	-20.034286	0.000253	2.534018	0.858548	-0.000101
1162	1.1552e+02	-6.2565	-20.183660	0.000375	3.750346	1.270652	-0.000150
1163	1.1562e+02	-6.3014	-20.296700	0.000284	2.838100	0.961574	-0.000114
1164	1.1572e+02	-6.3351	-20.429925	0.000334	3.344904	1.133284	-0.000134
1165	1.1582e+02	-6.3720	-20.559114	0.000324	3.243543	1.098942	-0.000130
1166	1.1592e+02	-6.4250	-20.668116	0.000274	2.736739	0.927232	-0.000110
1167	1.1602e+02	-6.4490	-20.773082	0.000264	2.635379	0.892890	-0.000105
1168	1.1612e+02	-6.4875	-20.886122	0.000284	2.838100	0.961574	-0.000114
1169	1.1622e+02	-6.5372	-21.019347	0.000334	3.344904	1.133284	-0.000134
1170	1.1632e+02	-6.5741	-21.160647	0.000355	3.547625	1.201968	-0.000142
1171	1.1642e+02	-6.6094	-21.281761	0.000304	3.040821	1.030258	-0.000122
1172	1.1651e+02	-6.6592	-21.419024	0.000345	3.446264	1.167626	-0.000138
1173	1.1661e+02	-6.6897	-21.495729	0.000193	1.925854	0.652497	-0.000077
1174	1.1671e+02	-6.7346	-21.645103	0.000375	3.750346	1.270652	-0.000150
1175	1.1681e+02	-6.7715	-21.741995	0.000243	2.432657	0.824207	-0.000097
1176	1.1691e+02	-6.8180	-21.875220	0.000334	3.344904	1.133284	-0.000134
1177	1.1701e+02	-6.8581	-21.988260	0.000284	2.838100	0.961574	-0.000114
1178	1.1711e+02	-6.9062	-22.109374	0.000304	3.040821	1.030258	-0.000122
1179	1.1721e+02	-6.9383	-22.254711	0.000365	3.648986	1.236310	-0.000146
1180	1.1731e+02	-6.9832	-22.359676	0.000264	2.635379	0.892890	-0.000105
1181	1.1741e+02	-7.0201	-22.488865	0.000324	3.243543	1.098942	-0.000130
1182	1.1751e+02	-7.0522	-22.577682	0.000223	2.229936	0.755523	-0.000089
1183	1.1761e+02	-7.0971	-22.706870	0.000324	3.243543	1.098942	-0.000130
1184	1.1771e+02	-7.1340	-22.840095	0.000334	3.344904	1.133284	-0.000134
1185	1.1781e+02	-7.1902	-22.949098	0.000274	2.736739	0.927232	-0.000110
1186	1.1791e+02	-7.2078	-23.086361	0.000345	3.446264	1.167626	-0.000138
1187	1.1801e+02	-7.2592	-23.175178	0.000223	2.229936	0.755523	-0.000089
1188	1.1811e+02	-7.2977	-23.268032	0.000233	2.331296	0.789865	-0.000093
1189	1.1821e+02	-7.3394	-23.413369	0.000365	3.648986	1.236310	-0.000146
1190	1.1831e+02	-7.3747	-23.538520	0.000314	3.142182	1.064600	-0.000126
1191	1.1841e+02	-7.4100	-23.663671	0.000314	3.142182	1.064600	-0.000126
1192	1.1850e+02	-7.4549	-23.748451	0.000213	2.128575	0.721181	-0.000085
1193	1.1860e+02	-7.4918	-23.889751	0.000355	3.547625	1.201968	-0.000142
1194	1.1870e+02	-7.5383	-23.998753	0.000274	2.736739	0.927232	-0.000110
1195	1.1880e+02	-7.5736	-24.136016	0.000345	3.446264	1.167626	-0.000138
1196	1.1890e+02	-7.6153	-24.216759	0.000203	2.027214	0.686839	-0.000081
1197	1.1900e+02	-7.6458	-24.362096	0.000365	3.648986	1.236310	-0.000146
1198	1.1910e+02	-7.7051	-24.483210	0.000304	3.040821	1.030258	-0.000122
1199	1.1920e+02	-7.7324	-24.600287	0.000294	2.939461	0.995916	-0.000118
1200	1.1930e+02	-7.7725	-24.668918	0.000172	1.723132	0.583813	-0.000069
1201	1.1940e+02	-7.8222	-24.830403	0.000405	4.054429	1.373678	-0.000162
1202	1.1950e+02	-7.8479	-24.947480	0.000294	2.939461	0.995916	-0.000118
1203	1.1960e+02	-7.8944	-25.056483	0.000274	2.736739	0.927232	-0.000110
1204	1.1970e+02	-7.9329	-25.173560	0.000294	2.939461	0.995916	-0.000118
1205	1.1980e+02	-7.9875	-25.270451	0.000243	2.432657	0.824207	-0.000097
1206	1.1990e+02	-8.0099	-25.391565	0.000304	3.040821	1.030258	-0.000122
1207	1.2000e+02	-8.0484	-25.508642	0.000294	2.939461	0.995916	-0.000118
1208	1.2010e+02	-8.0934	-25.649942	0.000355	3.547625	1.201968	-0.000142
1209	1.2020e+02	-8.1286	-25.746833	0.000243	2.432657	0.824207	-0.000097
1210	1.2030e+02	-8.1671	-25.867947	0.000304	3.040821	1.030258	-0.000122
1211	1.2039e+02	-8.2121	-25.960801	0.000233	2.331296	0.789865	-0.000093
1212	1.2049e+02	-8.2442	-26.065767	0.000264	2.635379	0.892890	-0.000105
1213	1.2059e+02	-8.2923	-26.219178	0.000385	3.851707	1.304994	-0.000154
1214	1.2069e+02	-8.3292	-26.312032	0.000233	2.331296	0.789865	-0.000093
1215	1.2079e+02	-8.3741	-26.412961	0.000253	2.534018	0.858548	-0.000101
1216	1.2089e+02	-8.4014	-26.521963	0.000274	2.736739	0.927232	-0.000110
1217	1.2099e+02	-8.4479	-26.651152	0.000324	3.243543	1.098942	-0.000130
1218	1.2109e+02	-8.4912	-26.776303	0.000314	3.142182	1.064600	-0.000126
1219	1.2119e+02	-8.5361	-26.897417	0.000304	3.040821	1.030258	-0.000122
1220	1.2129e+02	-8.5698	-27.002382	0.000264	2.635379	0.892890	-0.000105
1221	1.2139e+02	-8.6051	-27.066977	0.000162	1.621771	0.549471	-0.000065
1222	1.2149e+02	-8.6452	-27.252685	0.000466	4.662593	1.579729	-0.000187
1223	1.2159e+02	-8.6965	-27.337465	0.000213	2.128575	0.721181	-0.000085
1224	1.2169e+02	-8.7334	-27.454542	0.000294	2.939461	0.995916	-0.000118
1225	1.2179e+02	-8.7639	-27.567581	0.000284	2.838100	0.961574	-0.000114
1226	1.2189e+02	-8.8024	-27.656398	0.000223	2.229936	0.755523	-0.000089
1227	1.2199e+02	-8.8393	-27.785587	0.000324	3.243543	1.098942	-0.000130
1228	1.2209e+02	-8.8939	-27.898627	0.000284	2.838100	0.961574	-0.000114
1229	1.2219e+02	-8.9227	-28.003592	0.000264	2.635379	0.892890	-0.000105
1230	1.2229e+02	-8.9709	-28.104520	0.000253	2.534018	0.858548	-0.000101
1231	1.2239e+02	-9.0078	-28.229672	0.000314	3.142182	1.064600	-0.000126
1232	1.2248e+02	-9.0479	-28.358860	0.000324	3.243543	1.098942	-0.000130
1233	1.2258e+02	-9.0912	-28.443640	0.000213	2.128575	0.721181	-0.000085
1234	1.2268e+02	-9.1233	-28.524383	0.000203	2.027214	0.686839	-0.000081
1235	1.2278e+02	-9.1650	-28.685868	0.000405	4.054429	1.373678	-0.000162
1236	1.2288e+02	-9.2067	-28.782759	0.000243	2.432657	0.824207	-0.000097
1237	1.2298e+02	-9.2484	-28.924059	0.000355	3.547625	1.201968	-0.000142
1238	1.2308e+02	-9.2821	-28.984616	0.000152	1.520411	0.515129	-0.000061
1239	1.2318e+02	-9.3254	-29.089582	0.000264	2.635379	0.892890	-0.000105
1240	1.2328e+02	-9.3671	-29.206658	0.000294	2.939461	0.995916	-0.000118
1241	1.2338e+02	-9.4104	-29.327773	0.000304	3.040821	1.030258	-0.000122
1242	1.2348e+02	-9.4570	-29.448887	0.000304	3.040821	1.030258	-0.000122
1243	1.2358e+02	-9.4858	-29.557889	0.000274	2.736739	0.927232	-0.000110
1244	1.2368e+02	-9.5259	-29.638632	0.000203	2.027214	0.686839	-0.000081
1245	1.2378e+02	-9.5628	-29.755709	0.000294	2.939461	0.995916	-0.000118
1246	1.2388e+02	-9.6061	-29.876823	0.000304	3.040821	1.030258	-0.000122
1247	1.2398e+02	-9.6463	-29.993900	0.000294	2.939461	0.995916	-0.000118
1248	1.2408e+02	-9.6864	-30.082717	0.000223	2.229936	0.755523	-0.000089
1249	1.2418e+02	-9.7120	-30.199794	0.000294	2.939461	0.995916	-0.000118
1250	1.2428e+02	-9.7618	-30.300722	0.000253	2.534018	0.858548	-0.000101
1251	1.2438e+02	-9.8083	-30.401651	0.000253	2.534018	0.858548	-0.000101
1252	1.2447e+02	-9.8452	-30.526802	0.000314	3.142182	1.064600	-0.000126
1253	1.2457e+02	-9.8885	-30.607545	0.000203	2.027214	0.686839	-0.000081
1254	1.2467e+02	-9.9286	-30.752881	0.000365	3.648986	1.236310	-0.000146
1255	1.2477e+02	-9.9655	-30.873996	0.000304	3.040821	1.030258	-0.000122
1256	1.2487e+02	-9.9960	-30.962813	0.000223	2.229936	0.755523	-0.000089
1257	1.2497e+02	-10.0377	-31.071815	0.000274	2.736739	0.927232	-0.000110
1258	1.2507e+02	-10.0826	-31.184855	0.000284	2.838100	0.961574	-0.000114
1259	1.2517e+02	-10.1195	-31.253486	0.000172	1.723132	0.583813	-0.000069
1260	1.2527e+02	-10.1644	-31.386712	0.000334	3.344904	1.133284	-0.000134
1261	1.2537e+02	-10.2045	-31.475529	0.000223	2.229936	0.755523	-0.000089
1262	1.2547e+02	-10.2414	-31.556271	0.000203	2.027214	0.686839	-0.000081
1263	1.2557e+02	-10.2831	-31.697571	0.000355	3.547625	1.201968	-0.000142
1264	1.2567e+02	-10.3216	-31.786388	0.000223	2.229936	0.755523	-0.000089
1265	1.2577e+02	-10.3585	-31.883279	0.000243	2.432657	0.824207	-0.000097
1266	1.2587e+02	-10.4099	-32.020542	0.000345	3.446264	1.167626	-0.000138
1267	1.2597e+02	-10.4468	-32.129545	0.000274	2.736739	0.927232	-0.000110
1268	1.2607e+02	-10.4821	-32.238547	0.000274	2.736739	0.927232	-0.000110
1269	1.2617e+02	-10.5190	-32.319290	0.000203	2.027214	0.686839	-0.000081
1270	1.2627e+02	-10.5559	-32.424256	0.000264	2.635379	0.892890	-0.000105
1271	1.2636e+02	-10.6120	-32.557481	0.000334	3.344904	1.133284	-0.000134
1272	1.2646e+02	-10.6393	-32.626112	0.000172	1.723132	0.583813	-0.000069
1273	1.2656e+02	-10.6810	-32.783561	0.000395	3.953068	1.339336	-0.000158
1274	1.2666e+02	-10.7163	-32.844118	0.000152	1.520411	0.515129	-0.000061
1275	1.2676e+02	-10.7580	-32.953120	0.000274	2.736739	0.927232	-0.000110
1276	1.2686e+02	-10.7933	-33.029826	0.000193	1.925854	0.652497	-0.000077
1277	1.2696e+02	-10.8382	-33.146903	0.000294	2.939461	0.995916	-0.000118
1278	1.2706e+02	-10.8879	-33.300314	0.000385	3.851707	1.304994	-0.000154
1279	1.2716e+02	-10.9168	-33.409317	0.000274	2.736739	0.927232	-0.000110
1280	1.2726e+02	-10.9601	-33.502171	0.000233	2.331296	0.789865	-0.000093
1281	1.2736e+02	-11.0002	-33.570802	0.000172	1.723132	0.583813	-0.000069
1282	1.2746e+02	-11.0339	-33.691916	0.000304	3.040821	1.030258	-0.000122
1283	1.2756e+02	-11.0820	-33.804956	0.000284	2.838100	0.961574	-0.000114
1284	1.2766e+02	-11.1109	-33.901847	0.000243	2.432657	0.824207	-0.000097
1285	1.2776e+02	-11.1623	-33.990664	0.000223	2.229936	0.755523	-0.000089
1286	1.2786e+02	-11.2072	-34.103704	0.000284	2.838100	0.961574	-0.000114
1287	1.2796e+02	-11.2377	-34.200595	0.000243	2.432657	0.824207	-0.000097
1288	1.2806e+02	-11.2890	-34.321709	0.000304	3.040821	1.030258	-0.000122
1289	1.2816e+02	-11.3227	-34.442824	0.000304	3.040821	1.030258	-0.000122
1290	1.2826e+02	-11.3628	-34.547789	0.000264	2.635379	0.892890	-0.000105
1291	1.2835e+02	-11.4013	-34.656792	0.000274	2.736739	0.927232	-0.000110
1292	1.2845e+02	-11.4382	-34.693126	0.000091	0.912246	0.309077	-0.000037
1293	1.2855e+02	-11.4783	-34.834426	0.000355	3.547625	1.201968	-0.000142
1294	1.2865e+02	-11.5200	-34.951503	0.000294	2.939461	0.995916	-0.000118
1295	1.2875e+02	-11.5585	-35.048394	0.000243	2.432657	0.824207	-0.000097
1296	1.2885e+02	-11.5954	-35.096840	0.000122	1.216329	0.412103	-0.000049
1297	1.2895e+02	-11.6355	-35.230065	0.000334	3.344904	1.133284	-0.000134
1298	1.2905e+02	-11.6772	-35.347142	0.000294	2.939461	0.995916	-0.000118
1299	1.2915e+02	-11.7269	-35.431922	0.000213	2.128575	0.721181	-0.000085
1300	1.2925e+02	-11.7574	-35.532850	0.000253	2.534018	0.858548	-0.000101
1301	1.2935e+02	-11.8072	-35.629741	0.000243	2.432657	0.824207	-0.000097
1302	1.2945e+02	-11.8344	-35.771041	0.000355	3.547625	1.201968	-0.000142
1303	1.2955e+02	-11.8729	-35.884081	0.000284	2.838100	0.961574	-0.000114
1304	1.2965e+02	-11.9146	-35.928490	0.000111	1.114968	0.377761	-0.000045
1305	1.2975e+02	-11.9580	-36.049604	0.000304	3.040821	1.030258	-0.000122
1306	1.2985e+02	-12.0093	-36.150532	0.000253	2.534018	0.858548	-0.000101
1307	1.2995e+02	-12.0366	-36.231275	0.000203	2.027214	0.686839	-0.000081
1308	1.3005e+02	-12.0783	-36.332203	0.000253	2.534018	0.858548	-0.000101
1309	1.3015e+02	-12.1136	-36.453317	0.000304	3.040821	1.030258	-0.000122
1310	1.3025e+02	-12.1569	-36.558283	0.000264	2.635379	0.892890	-0.000105
1311	1.3034e+02	-12.1922	-36.634988	0.000193	1.925854	0.652497	-0.000077
1312	1.3044e+02	-12.2307	-36.776288	0.000355	3.547625	1.201968	-0.000142
1313	1.3054e+02	-12.2756	-36.873179	0.000243	2.432657	0.824207	-0.000097
1314	1.3064e+02	-12.3141	-36.974108	0.000253	2.534018	0.858548	-0.000101
1315	1.3074e+02	-12.3590	-37.058888	0.000213	2.128575	0.721181	-0.000085
1316	1.3084e+02	-12.3959	-37.188076	0.000324	3.243543	1.098942	-0.000130
1317	1.3094e+02	-12.4376	-37.264781	0.000193	1.925854	0.652497	-0.000077
1318	1.3104e+02	-12.4777	-37.377821	0.000284	2.838100	0.961574	-0.000114
1319	1.3114e+02	-12.5162	-37.442415	0.000162	1.621771	0.549471	-0.000065
1320	1.3124e+02	-12.5499	-37.539307	0.000243	2.432657	0.824207	-0.000097
1321	1.3134e+02	-12.5948	-37.680606	0.000355	3.547625	1.201968	-0.000142
1322	1.3144e+02	-12.6285	-37.761349	0.000203	2.027214	0.686839	-0.000081
1323	1.3154e+02	-12.6686	-37.846129	0.000213	2.128575	0.721181	-0.000085
1324	1.3164e+02	-12.7151	-37.947057	0.000253	2.534018	0.858548	-0.000101
1325	1.3174e+02	-12.7488	-38.043949	0.000243	2.432657	0.824207	-0.000097
1326	1.3184e+02	-12.7889	-38.152951	0.000274	2.736739	0.927232	-0.000110
1327	1.3194e+02	-12.8258	-38.241768	0.000223	2.229936	0.755523	-0.000089
1328	1.3204e+02	-12.8756	-38.379031	0.000345	3.446264	1.167626	-0.000138
1329	1.3214e+02	-12.9141	-38.411328	0.000081	0.810886	0.274736	-0.000032
1330	1.3224e+02	-12.9542	-38.572813	0.000405	4.054429	1.373678	-0.000162
1331	1.3234e+02	-12.9798	-38.609148	0.000091	0.912246	0.309077	-0.000037
1332	1.3243e+02	-13.0328	-38.718150	0.000274	2.736739	0.927232	-0.000110
1333	1.3253e+02	-13.0665	-38.806967	0.000223	2.229936	0.755523	-0.000089
1334	1.3263e+02	-13.1114	-38.911933	0.000264	2.635379	0.892890	-0.000105
1335	1.3273e+02	-13.1419	-39.012861	0.000253	2.534018	0.858548	-0.000101
1336	1.3283e+02	-13.1868	-39.133975	0.000304	3.040821	1.030258	-0.000122
1337	1.3293e+02	-13.2349	-39.222792	0.000223	2.229936	0.755523	-0.000089
1338	1.3303e+02	-13.2766	-39.323721	0.000253	2.534018	0.858548	-0.000101
1339	1.3313e+02	-13.3087	-39.436760	0.000284	2.838100	0.961574	-0.000114
1340	1.3323e+02	-13.3408	-39.501355	0.000162	1.621771	0.549471	-0.000065
1341	1.3333e+02	-13.3921	-39.586134	0.000213	2.128575	0.721181	-0.000085
1342	1.3343e+02	-13.4322	-39.699174	0.000284	2.838100	0.961574	-0.000114
1343	1.3353e+02	-13.4756	-39.808177	0.000274	2.736739	0.927232	-0.000110
1344	1.3363e+02	-13.5044	-39.884883	0.000193	1.925854	0.652497	-0.000077
1345	1.3373e+02	-13.5494	-39.997922	0.000284	2.838100	0.961574	-0.000114
1346	1.3383e+02	-13.5830	-40.094814	0.000243	2.432657	0.824207	-0.000097
1347	1.3393e+02	-13.6328	-40.159408	0.000162	1.621771	0.549471	-0.000065
1348	1.3403e+02	-13.6697	-40.288596	0.000324	3.243543	1.098942	-0.000130
1349	1.3413e+02	-13.7018	-40.377413	0.000223	2.229936	0.755523	-0.000089
1350	1.3423e+02	-13.7451	-40.458156	0.000203	2.027214	0.686839	-0.000081
1351	1.3432e+02	-13.7980	-40.607530	0.000375	3.750346	1.270652	-0.000150
1352	1.3442e+02	-13.8269	-40.668087	0.000152	1.520411	0.515129	-0.000061
1353	1.3452e+02	-13.8718	-40.809387	0.000355	3.547625	1.201968	-0.000142
1354	1.3462e+02	-13.9071	-40.882055	0.000182	1.824493	0.618155	-0.000073
1355	1.3472e+02	-13.9488	-40.958761	0.000193	1.925854	0.652497	-0.000077
1356	1.3482e+02	-13.9953	-41.047578	0.000223	2.229936	0.755523	-0.000089
1357	1.3492e+02	-14.0242	-41.148506	0.000253	2.534018	0.858548	-0.000101
1358	1.3502e+02	-14.0563	-41.217137	0.000172	1.723132	0.583813	-0.000069
1359	1.3512e+02	-14.1124	-41.301917	0.000213	2.128575	0.721181	-0.000085
1360	1.3522e+02	-14.1461	-41.418994	0.000294	2.939461	0.995916	-0.000118
1361	1.3532e+02	-14.1878	-41.552220	0.000334	3.344904	1.133284	-0.000134
1362	1.3542e+02	-14.2199	-41.624888	0.000182	1.824493	0.618155	-0.000073
1363	1.3552e+02	-14.2680	-41.717742	0.000233	2.331296	0.789865	-0.000093
1364	1.3562e+02	-14.3098	-41.818671	0.000253	2.534018	0.858548	-0.000101
1365	1.3572e+02	-14.3467	-41.935747	0.000294	2.939461	0.995916	-0.000118
1366	1.3582e+02	-14.3836	-42.016490	0.000203	2.027214	0.686839	-0.000081
1367	1.3592e+02	-14.4204	-42.129530	0.000284	2.838100	0.961574	-0.000114
1368	1.3602e+02	-14.4654	-42.206236	0.000193	1.925854	0.652497	-0.000077
1369	1.3612e+02	-14.5055	-42.299090	0.000233	2.331296	0.789865	-0.000093
1370	1.3622e+02	-14.5504	-42.408092	0.000274	2.736739	0.927232	-0.000110
1371	1.3631e+02	-14.5905	-42.496909	0.000223	2.229936	0.755523	-0.000089
1372	1.3641e+02	-14.6226	-42.549392	0.000132	1.317689	0.446445	-0.000053
1373	1.3651e+02	-14.6611	-42.670506	0.000304	3.040821	1.030258	-0.000122
1374	1.3661e+02	-14.7060	-42.783546	0.000284	2.838100	0.961574	-0.000114
1375	1.3671e+02	-14.7429	-42.860252	0.000193	1.925854	0.652497	-0.000077
1376	1.3681e+02	-14.7846	-42.965217	0.000264	2.635379	0.892890	-0.000105
1377	1.3691e+02	-14.8247	-43.045960	0.000203	2.027214	0.686839	-0.000081
1378	1.3701e+02	-14.8648	-43.142851	0.000243	2.432657	0.824207	-0.000097
1379	1.3711e+02	-14.9033	-43.255891	0.000284	2.838100	0.961574	-0.000114
1380	1.3721e+02	-14.9370	-43.336634	0.000203	2.027214	0.686839	-0.000081
1381	1.3731e+02	-14.9883	-43.413339	0.000193	1.925854	0.652497	-0.000077
1382	1.3741e+02	-15.0252	-43.522342	0.000274	2.736739	0.927232	-0.000110
1383	1.3751e+02	-15.0605	-43.611159	0.000223	2.229936	0.755523	-0.000089
1384	1.3761e+02	-15.1087	-43.720161	0.000274	2.736739	0.927232	-0.000110
1385	1.3771e+02	-15.1456	-43.813016	0.000233	2.331296	0.789865	-0.000093
1386	1.3781e+02	-15.1825	-43.885684	0.000182	1.824493	0.618155	-0.000073
1387	1.3791e+02	-15.2161	-43.998724	0.000284	2.838100	0.961574	-0.000114
1388	1.3801e+02	-15.2530	-44.063318	0.000162	1.621771	0.549471	-0.000065
1389	1.3811e+02	-15.3076	-44.204618	0.000355	3.547625	1.201968	-0.000142
1390	1.3821e+02	-15.3493	-44.301509	0.000243	2.432657	0.824207	-0.000097
1391	1.3831e+02	-15.3830	-44.382252	0.000203	2.027214	0.686839	-0.000081
1392	1.3840e+02	-15.4247	-44.483180	0.000253	2.534018	0.858548	-0.000101
1393	1.3850e+02	-15.4552	-44.539700	0.000142	1.419050	0.480787	-0.000057
1394	1.3860e+02	-15.4985	-44.640628	0.000253	2.534018	0.858548	-0.000101
1395	1.3870e+02	-15.5466	-44.717334	0.000193	1.925854	0.652497	-0.000077
1396	1.3880e+02	-15.5755	-44.834411	0.000294	2.939461	0.995916	-0.000118
1397	1.3890e+02	-15.6252	-44.923228	0.000223	2.229936	0.755523	-0.000089
1398	1.3900e+02	-15.6589	-45.056453	0.000334	3.344904	1.133284	-0.000134
1399	1.3910e+02	-15.6990	-45.117010	0.000152	1.520411	0.515129	-0.000061
1400	1.3920e+02	-15.7439	-45.234087	0.000294	2.939461	0.995916	-0.000118
1401	1.3930e+02	-15.7744	-45.314830	0.000203	2.027214	0.686839	-0.000081
1402	1.3940e+02	-15.8258	-45.375387	0.000152	1.520411	0.515129	-0.000061
1403	1.3950e+02	-15.8691	-45.488427	0.000284	2.838100	0.961574	-0.000114
1404	1.3960e+02	-15.9028	-45.589355	0.000253	2.534018	0.858548	-0.000101
1405	1.3970e+02	-15.9445	-45.686247	0.000243	2.432657	0.824207	-0.000097
1406	1.3980e+02	-15.9750	-45.803324	0.000294	2.939461	0.995916	-0.000118
1407	1.3990e+02	-16.0183	-45.880029	0.000193	1.925854	0.652497	-0.000077
1408	1.4000e+02	-16.0584	-45.948660	0.000172	1.723132	0.583813	-0.000069
1409	1.4010e+02	-16.1001	-46.073812	0.000314	3.142182	1.064600	-0.000126
1410	1.4020e+02	-16.1370	-46.138406	0.000162	1.621771	0.549471	-0.000065
1411	1.4029e+02	-16.1755	-46.223186	0.000213	2.128575	0.721181	-0.000085
1412	1.4039e+02	-16.2172	-46.324114	0.000253	2.534018	0.858548	-0.000101
1413	1.4049e+02	-16.2589	-46.404857	0.000203	2.027214	0.686839	-0.000081
1414	1.4059e+02	-16.3022	-46.554231	0.000375	3.750346	1.270652	-0.000150
1415	1.4069e+02	-16.3455	-46.634973	0.000203	2.027214	0.686839	-0.000081
1416	1.4079e+02	-16.3824	-46.723790	0.000223	2.229936	0.755523	-0.000089
1417	1.4089e+02	-16.4241	-46.800496	0.000193	1.925854	0.652497	-0.000077
1418	1.4099e+02	-16.4546	-46.917573	0.000294	2.939461	0.995916	-0.000118
1419	1.4109e+02	-16.5011	-46.982167	0.000162	1.621771	0.549471	-0.000065
1420	1.4119e+02	-16.5316	-47.062910	0.000203	2.027214	0.686839	-0.000081
1421	1.4129e+02	-16.5910	-47.147690	0.000213	2.128575	0.721181	-0.000085
1422	1.4139e+02	-16.6311	-47.256692	0.000274	2.736739	0.927232	-0.000110
1423	1.4149e+02	-16.6551	-47.381844	0.000314	3.142182	1.064600	-0.000126
1424	1.4159e+02	-16.7017	-47.430289	0.000122	1.216329	0.412103	-0.000049
1425	1.4169e+02	-16.7402	-47.535255	0.000264	2.635379	0.892890	-0.000105
1426	1.4179e+02	-16.7739	-47.644257	0.000274	2.736739	0.927232	-0.000110
1427	1.4189e+02	-16.8075	-47.777483	0.000334	3.344904	1.133284	-0.000134
1428	1.4199e+02	-16.8493	-47.801706	0.000061	0.608164	0.206052	-0.000024
1429	1.4209e+02	-16.9006	-47.930894	0.000324	3.243543	1.098942	-0.000130
1430	1.4219e+02	-16.9407	-48.011637	0.000203	2.027214	0.686839	-0.000081
1431	1.4228e+02	-16.9728	-48.128714	0.000294	2.939461	0.995916	-0.000118
1432	1.4238e+02	-17.0193	-48.193308	0.000162	1.621771	0.549471	-0.000065
1433	1.4248e+02	-17.0562	-48.298273	0.000264	2.635379	0.892890	-0.000105
1434	1.4258e+02	-17.0915	-48.415350	0.000294	2.939461	0.995916	-0.000118
1435	1.4268e+02	-17.1396	-48.459759	0.000111	1.114968	0.377761	-0.000045
1436	1.4278e+02	-17.1765	-48.564724	0.000264	2.635379	0.892890	-0.000105
1437	1.4288e+02	-17.2230	-48.669690	0.000264	2.635379	0.892890	-0.000105
1438	1.4298e+02	-17.2439	-48.758507	0.000223	2.229936	0.755523	-0.000089
1439	1.4308e+02	-17.2952	-48.899807	0.000355	3.547625	1.201968	-0.000142
1440	1.4318e+02	-17.3289	-48.956327	0.000142	1.419050	0.480787	-0.000057
1441	1.4328e+02	-17.3674	-49.045144	0.000223	2.229936	0.755523	-0.000089
1442	1.4338e+02	-17.4123	-49.142035	0.000243	2.432657	0.824207	-0.000097
1443	1.4348e+02	-17.4589	-49.190480	0.000122	1.216329	0.412103	-0.000049
1444	1.4358e+02	-17.4926	-49.323706	0.000334	3.344904	1.133284	-0.000134
1445	1.4368e+02	-17.5327	-49.444820	0.000304	3.040821	1.030258	-0.000122
1446	1.4378e+02	-17.5776	-49.521526	0.000193	1.925854	0.652497	-0.000077
1447	1.4388e+02	-17.6129	-49.626491	0.000264	2.635379	0.892890	-0.000105
1448	1.4398e+02	-17.6530	-49.727419	0.000253	2.534018	0.858548	-0.000101
1449	1.4408e+02	-17.6995	-49.808162	0.000203	2.027214	0.686839	-0.000081
1450	1.4418e+02	-17.7380	-49.872756	0.000162	1.621771	0.549471	-0.000065
1451	1.4428e+02	-17.7701	-49.997908	0.000314	3.142182	1.064600	-0.000126
1452	1.4437e+02	-17.8118	-50.102873	0.000264	2.635379	0.892890	-0.000105
1453	1.4447e+02	-17.8567	-50.175542	0.000182	1.824493	0.618155	-0.000073
1454	1.4457e+02	-17.8968	-50.308767	0.000334	3.344904	1.133284	-0.000134
1455	1.4467e+02	-17.9337	-50.361250	0.000132	1.317689	0.446445	-0.000053
1456	1.4477e+02	-17.9706	-50.478327	0.000294	2.939461	0.995916	-0.000118
1457	1.4487e+02	-18.0043	-50.599441	0.000304	3.040821	1.030258	-0.000122
1458	1.4497e+02	-18.0444	-50.680183	0.000203	2.027214	0.686839	-0.000081
1459	1.4507e+02	-18.0877	-50.740741	0.000152	1.520411	0.515129	-0.000061
1460	1.4517e+02	-18.1262	-50.869929	0.000324	3.243543	1.098942	-0.000130
1461	1.4527e+02	-18.1744	-50.995080	0.000314	3.142182	1.064600	-0.000126
1462	1.4537e+02	-18.2064	-51.075823	0.000203	2.027214	0.686839	-0.000081
1463	1.4547e+02	-18.2498	-51.160603	0.000213	2.128575	0.721181	-0.000085
1464	1.4557e+02	-18.2931	-51.241345	0.000203	2.027214	0.686839	-0.000081
1465	1.4567e+02	-18.3332	-51.350348	0.000274	2.736739	0.927232	-0.000110
1466	1.4577e+02	-18.3717	-51.459351	0.000274	2.736739	0.927232	-0.000110
1467	1.4587e+02	-18.4086	-51.540093	0.000203	2.027214	0.686839	-0.000081
1468	1.4597e+02	-18.4503	-51.600650	0.000152	1.520411	0.515129	-0.000061
1469	1.4607e+02	-18.4824	-51.737913	0.000345	3.446264	1.167626	-0.000138
1470	1.4617e+02	-18.5225	-51.842879	0.000264	2.635379	0.892890	-0.000105
1471	1.4626e+02	-18.5626	-51.915547	0.000182	1.824493	0.618155	-0.000073
1472	1.4636e+02	-18.6091	-52.044735	0.000324	3.243543	1.098942	-0.000130
1473	1.4646e+02	-18.6492	-52.085107	0.000101	1.013607	0.343419	-0.000041
1474	1.4656e+02	-18.6877	-52.238518	0.000385	3.851707	1.304994	-0.000154
1475	1.4666e+02	-18.7358	-52.307149	0.000172	1.723132	0.583813	-0.000069
1476	1.4676e+02	-18.7743	-52.383855	0.000193	1.925854	0.652497	-0.000077
1477	1.4686e+02	-18.8080	-52.537266	0.000385	3.851707	1.304994	-0.000154
1478	1.4696e+02	-18.8529	-52.609934	0.000182	1.824493	0.618155	-0.000073
1479	1.4706e+02	-18.8963	-52.702788	0.000233	2.331296	0.789865	-0.000093
1480	1.4716e+02	-18.9235	-52.831977	0.000324	3.243543	1.098942	-0.000130
1481	1.4726e+02	-18.9717	-52.896571	0.000162	1.621771	0.549471	-0.000065
1482	1.4736e+02	-19.0070	-53.009611	0.000284	2.838100	0.961574	-0.000114
1483	1.4746e+02	-19.0471	-53.126688	0.000294	2.939461	0.995916	-0.000118
1484	1.4756e+02	-19.0872	-53.203393	0.000193	1.925854	0.652497	-0.000077
1485	1.4766e+02	-19.1369	-53.308359	0.000264	2.635379	0.892890	-0.000105
1486	1.4776e+02	-19.1722	-53.393139	0.000213	2.128575	0.721181	-0.000085
1487	1.4786e+02	-19.2043	-53.550587	0.000395	3.953068	1.339336	-0.000158
1488	1.4796e+02	-19.2524	-53.639404	0.000223	2.229936	0.755523	-0.000089
1489	1.4806e+02	-19.2893	-53.712072	0.000182	1.824493	0.618155	-0.000073
1490	1.4816e+02	-19.3262	-53.829149	0.000294	2.939461	0.995916	-0.000118
1491	1.4825e+02	-19.3711	-53.917966	0.000223	2.229936	0.755523	-0.000089
1492	1.4835e+02	-19.4048	-54.059266	0.000355	3.547625	1.201968	-0.000142
1493	1.4845e+02	-19.4529	-54.095600	0.000091	0.912246	0.309077	-0.000037
1494	1.4855e+02	-19.4834	-54.240937	0.000365	3.648986	1.236310	-0.000146
1495	1.4865e+02	-19.5331	-54.337828	0.000243	2.432657	0.824207	-0.000097
1496	1.4875e+02	-19.5684	-54.438757	0.000253	2.534018	0.858548	-0.000101
1497	1.4885e+02	-19.6021	-54.527574	0.000223	2.229936	0.755523	-0.000089
1498	1.4895e+02	-19.6422	-54.636577	0.000274	2.736739	0.927232	-0.000110
1499	1.4905e+02	-19.6904	-54.713282	0.000193	1.925854	0.652497	-0.000077
1500	1.4915e+02	-19.7256	-54.826322	0.000284	2.838100	0.961574	-0.000114
1501	1.4925e+02	-19.7674	-54.951473	0.000314	3.142182	1.064600	-0.000126
1502	1.4935e+02	-19.8155	-55.040290	0.000223	2.229936	0.755523	-0.000089
1503	1.4945e+02	-19.8460	-55.173516	0.000334	3.344904	1.133284	-0.000134
1504	1.4955e+02	-19.8845	-55.242147	0.000172	1.723132	0.583813	-0.000069
1505	1.4965e+02	-19.9214	-55.363261	0.000304	3.040821	1.030258	-0.000122
1506	1.4975e+02	-19.9599	-55.468226	0.000264	2.635379	0.892890	-0.000105
1507	1.4985e+02	-20.0112	-55.597415	0.000324	3.243543	1.098942	-0.000130
1508	1.4995e+02	-19.9679	-55.524746	0.000182	1.824493	0.618155	0.000073
1509	1.5005e+02	-19.9246	-55.480338	0.000111	1.114968	0.377761	0.000045
1510	1.5015e+02	-19.8877	-55.456115	0.000061	0.608164	0.206052	0.000024
1511	1.5025e+02	-19.8460	-55.403632	0.000132	1.317689	0.446445	0.000053
1512	1.5034e+02	-19.8010	-55.387484	0.000041	0.405443	0.137368	0.000016
1513	1.5044e+02	-19.7641	-55.355187	0.000081	0.810886	0.274736	0.000032
1514	1.5054e+02	-19.7192	-55.286555	0.000172	1.723132	0.583813	0.000069
1515	1.5064e+02	-19.6855	-55.238110	0.000122	1.216329	0.412103	0.000049
1516	1.5074e+02	-19.6486	-55.153330	0.000213	2.128575	0.721181	0.000085
1517	1.5084e+02	-19.6021	-55.141218	0.000030	0.304082	0.103026	0.000012
1518	1.5094e+02	-19.5684	-55.068550	0.000182	1.824493	0.618155	0.000073
1519	1.5104e+02	-19.5203	-55.028179	0.000101	1.013607	0.343419	0.000041
1520	1.5114e+02	-19.4834	-55.007993	0.000051	0.506804	0.171710	0.000020
1521	1.5124e+02	-19.4401	-54.939362	0.000172	1.723132	0.583813	0.000069
1522	1.5134e+02	-19.4096	-54.878805	0.000152	1.520411	0.515129	0.000061
1523	1.5144e+02	-19.3727	-54.842470	0.000091	0.912246	0.309077	0.000037
1524	1.5154e+02	-19.3326	-54.761728	0.000203	2.027214	0.686839	0.000081
1525	1.5164e+02	-19.2813	-54.693096	0.000172	1.723132	0.583813	0.000069
1526	1.5174e+02	-19.2492	-54.612354	0.000203	2.027214	0.686839	0.000081
1527	1.5184e+02	-19.2155	-54.600242	0.000030	0.304082	0.103026	0.000012
1528	1.5194e+02	-19.1690	-54.539685	0.000152	1.520411	0.515129	0.000061
1529	1.5204e+02	-19.1305	-54.467017	0.000182	1.824493	0.618155	0.000073
1530	1.5214e+02	-19.0888	-54.390311	0.000193	1.925854	0.652497	0.000077
1531	1.5224e+02	-19.0535	-54.374163	0.000041	0.405443	0.137368	0.000016
1532	1.5233e+02	-19.0118	-54.305531	0.000172	1.723132	0.583813	0.000069
1533	1.5243e+02	-18.9701	-54.249011	0.000142	1.419050	0.480787	0.000057
1534	1.5253e+02	-18.9348	-54.196529	0.000132	1.317689	0.446445	0.000053
1535	1.5263e+02	-18.8914	-54.123860	0.000182	1.824493	0.618155	0.000073
1536	1.5273e+02	-18.8529	-54.067340	0.000142	1.419050	0.480787	0.000057
1537	1.5283e+02	-18.8032	-54.018895	0.000122	1.216329	0.412103	0.000049
1538	1.5293e+02	-18.7567	-53.962375	0.000142	1.419050	0.480787	0.000057
1539	1.5303e+02	-18.7246	-53.841261	0.000304	3.040821	1.030258	0.000122
1540	1.5313e+02	-18.6877	-53.804927	0.000091	0.912246	0.309077	0.000037
1541	1.5323e+02	-18.6412	-53.792815	0.000030	0.304082	0.103026	0.000012
1542	1.5333e+02	-18.6043	-53.716110	0.000193	1.925854	0.652497	0.000077
1543	1.5343e+02	-18.5770	-53.603070	0.000284	2.838100	0.961574	0.000114
1544	1.5353e+02	-18.5289	-53.594995	0.000020	0.202721	0.068684	0.000008
1545	1.5363e+02	-18.4984	-53.502141	0.000233	2.331296	0.789865	0.000093
1546	1.5373e+02	-18.4439	-53.401213	0.000253	2.534018	0.858548	0.000101
1547	1.5383e+02	-18.4054	-53.372953	0.000071	0.709525	0.240394	0.000028
1548	1.5393e+02	-18.3701	-53.300285	0.000182	1.824493	0.618155	0.000073
1549	1.5403e+02	-18.3268	-53.223579	0.000193	1.925854	0.652497	0.000077
1550	1.5413e+02	-18.3027	-53.175133	0.000122	1.216329	0.412103	0.000049
1551	1.5422e+02	-18.2530	-53.106502	0.000172	1.723132	0.583813	0.000069
1552	1.5432e+02	-18.2145	-53.033834	0.000182	1.824493	0.618155	0.000073
1553	1.5442e+02	-18.1679	-53.021722	0.000030	0.304082	0.103026	0.000012
1554	1.5452e+02	-18.1471	-52.904645	0.000294	2.939461	0.995916	0.000118
1555	1.5462e+02	-18.0893	-52.791605	0.000284	2.838100	0.961574	0.000114
1556	1.5472e+02	-18.0621	-52.763346	0.000071	0.709525	0.240394	0.000028
1557	1.5482e+02	-18.0123	-52.739123	0.000061	0.608164	0.206052	0.000024
1558	1.5492e+02	-17.9770	-52.638194	0.000253	2.534018	0.858548	0.000101
1559	1.5502e+02	-17.9305	-52.609934	0.000071	0.709525	0.240394	0.000028
1560	1.5512e+02	-17.8920	-52.521117	0.000223	2.229936	0.755523	0.000089
1561	1.5522e+02	-17.8503	-52.448449	0.000182	1.824493	0.618155	0.000073
1562	1.5532e+02	-17.8150	-52.363669	0.000213	2.128575	0.721181	0.000085
1563	1.5542e+02	-17.7765	-52.270815	0.000233	2.331296	0.789865	0.000093
1564	1.5552e+02	-17.7428	-52.226406	0.000111	1.114968	0.377761	0.000045
1565	1.5562e+02	-17.6995	-52.169887	0.000142	1.419050	0.480787	0.000057
1566	1.5572e+02	-17.6626	-52.072995	0.000243	2.432657	0.824207	0.000097
1567	1.5582e+02	-17.6177	-52.052810	0.000051	0.506804	0.171710	0.000020
1568	1.5592e+02	-17.5728	-51.919584	0.000334	3.344904	1.133284	0.000134
1569	1.5602e+02	-17.5407	-51.887287	0.000081	0.810886	0.274736	0.000032
1570	1.5612e+02	-17.4958	-51.806544	0.000203	2.027214	0.686839	0.000081
1571	1.5622e+02	-17.4573	-51.729839	0.000193	1.925854	0.652497	0.000077
1572	1.5631e+02	-17.4156	-51.661207	0.000172	1.723132	0.583813	0.000069
1573	1.5641e+02	-17.3754	-51.588539	0.000182	1.824493	0.618155	0.000073
1574	1.5651e+02	-17.3369	-51.540093	0.000122	1.216329	0.412103	0.000049
1575	1.5661e+02	-17.2840	-51.423016	0.000294	2.939461	0.995916	0.000118
1576	1.5671e+02	-17.2535	-51.354385	0.000172	1.723132	0.583813	0.000069
1577	1.5681e+02	-17.2070	-51.334199	0.000051	0.506804	0.171710	0.000020
1578	1.5691e+02	-17.1781	-51.217123	0.000294	2.939461	0.995916	0.000118
1579	1.5701e+02	-17.1396	-51.164640	0.000132	1.317689	0.446445	0.000053
1580	1.5711e+02	-17.1027	-51.067749	0.000243	2.432657	0.824207	0.000097
1581	1.5721e+02	-17.0482	-50.999117	0.000172	1.723132	0.583813	0.000069
1582	1.5731e+02	-17.0257	-50.926449	0.000182	1.824493	0.618155	0.000073
1583	1.5741e+02	-16.9808	-50.869929	0.000142	1.419050	0.480787	0.000057
1584	1.5751e+02	-16.9343	-50.793223	0.000193	1.925854	0.652497	0.000077
1585	1.5761e+02	-16.9022	-50.728629	0.000162	1.621771	0.549471	0.000065
1586	1.5771e+02	-16.8525	-50.639812	0.000223	2.229936	0.755523	0.000089
1587	1.5781e+02	-16.8124	-50.530809	0.000274	2.736739	0.927232	0.000110
1588	1.5791e+02	-16.7835	-50.510624	0.000051	0.506804	0.171710	0.000020
1589	1.5801e+02	-16.7434	-50.417770	0.000233	2.331296	0.789865	0.000093
1590	1.5811e+02	-16.6936	-50.316841	0.000253	2.534018	0.858548	0.000101
1591	1.5821e+02	-16.6584	-50.284544	0.000081	0.810886	0.274736	0.000032
1592	1.5830e+02	-16.6150	-50.223987	0.000152	1.520411	0.515129	0.000061
1593	1.5840e+02	-16.5797	-50.127096	0.000243	2.432657	0.824207	0.000097
1594	1.5850e+02	-16.5332	-50.018093	0.000274	2.736739	0.927232	0.000110
1595	1.5860e+02	-16.4947	-49.981759	0.000091	0.912246	0.309077	0.000037
1596	1.5870e+02	-16.4578	-49.896979	0.000213	2.128575	0.721181	0.000085
1597	1.5880e+02	-16.4225	-49.808162	0.000223	2.229936	0.755523	0.000089
1598	1.5890e+02	-16.3744	-49.731457	0.000193	1.925854	0.652497	0.000077
1599	1.5900e+02	-16.3375	-49.670900	0.000152	1.520411	0.515129	0.000061
1600	1.5910e+02	-16.2974	-49.598231	0.000182	1.824493	0.618155	0.000073
1601	1.5920e+02	-16.2557	-49.549785	0.000122	1.216329	0.412103	0.000049
1602	1.5930e+02	-16.2220	-49.477117	0.000182	1.824493	0.618155	0.000073
1603	1.5940e+02	-16.1835	-49.372152	0.000264	2.635379	0.892890	0.000105
1604	1.5950e+02	-16.1386	-49.271223	0.000253	2.534018	0.858548	0.000101
1605	1.5960e+02	-16.0969	-49.214703	0.000142	1.419050	0.480787	0.000057
1606	1.5970e+02	-16.0632	-49.142035	0.000182	1.824493	0.618155	0.000073
1607	1.5980e+02	-16.0231	-49.033032	0.000274	2.736739	0.927232	0.000110
1608	1.5990e+02	-15.9733	-48.996698	0.000091	0.912246	0.309077	0.000037
1609	1.6000e+02	-15.9413	-48.948252	0.000122	1.216329	0.412103	0.000049
1610	1.6010e+02	-15.8996	-48.847324	0.000253	2.534018	0.858548	0.000101
1611	1.6019e+02	-15.8610	-48.762544	0.000213	2.128575	0.721181	0.000085
1612	1.6029e+02	-15.8242	-48.693913	0.000172	1.723132	0.583813	0.000069
1613	1.6039e+02	-15.7760	-48.609133	0.000213	2.128575	0.721181	0.000085
1614	1.6049e+02	-15.7407	-48.544539	0.000162	1.621771	0.549471	0.000065
1615	1.6059e+02	-15.7022	-48.463796	0.000203	2.027214	0.686839	0.000081
1616	1.6069e+02	-15.6589	-48.362868	0.000253	2.534018	0.858548	0.000101
1617	1.6079e+02	-15.6252	-48.282125	0.000203	2.027214	0.686839	0.000081
1618	1.6089e+02	-15.5883	-48.217531	0.000162	1.621771	0.549471	0.000065
1619	1.6099e+02	-15.5418	-48.148899	0.000172	1.723132	0.583813	0.000069
1620	1.6109e+02	-15.5065	-48.035860	0.000284	2.838100	0.961574	0.000114
1621	1.6119e+02	-15.4584	-48.003562	0.000081	0.810886	0.274736	0.000032
1622	1.6129e+02	-15.4199	-47.910708	0.000233	2.331296	0.789865	0.000093
1623	1.6139e+02	-15.3894	-47.805743	0.000264	2.635379	0.892890	0.000105
1624	1.6149e+02	-15.3477	-47.757297	0.000122	1.216329	0.412103	0.000049
1625	1.6159e+02	-15.3012	-47.684629	0.000182	1.824493	0.618155	0.000073
1626	1.6169e+02	-15.2707	-47.575626	0.000274	2.736739	0.927232	0.000110
1627	1.6179e+02	-15.2145	-47.506995	0.000172	1.723132	0.583813	0.000069
1628	1.6189e+02	-15.1760	-47.426252	0.000203	2.027214	0.686839	0.000081
1629	1.6199e+02	-15.1472	-47.385881	0.000101	1.013607	0.343419	0.000041
1630	1.6209e+02	-15.1006	-47.264767	0.000304	3.040821	1.030258	0.000122
1631	1.6219e+02	-15.0637	-47.171913	0.000233	2.331296	0.789865	0.000093
1632	1.6228e+02	-15.0301	-47.139615	0.000081	0.810886	0.274736	0.000032
1633	1.6238e+02	-14.9851	-47.034650	0.000264	2.635379	0.892890	0.000105
1634	1.6248e+02	-14.9354	-46.953907	0.000203	2.027214	0.686839	0.000081
1635	1.6258e+02	-14.9081	-46.857016	0.000243	2.432657	0.824207	0.000097
1636	1.6268e+02	-14.8616	-46.780310	0.000193	1.925854	0.652497	0.000077
1637	1.6278e+02	-14.8231	-46.735902	0.000111	1.114968	0.377761	0.000045
1638	1.6288e+02	-14.7798	-46.626899	0.000274	2.736739	0.927232	0.000110
1639	1.6298e+02	-14.7381	-46.558268	0.000172	1.723132	0.583813	0.000069
1640	1.6308e+02	-14.7076	-46.469451	0.000223	2.229936	0.755523	0.000089
1641	1.6318e+02	-14.6659	-46.388708	0.000203	2.027214	0.686839	0.000081
1642	1.6328e+02	-14.6354	-46.328151	0.000152	1.520411	0.515129	0.000061
1643	1.6338e+02	-14.5873	-46.251446	0.000193	1.925854	0.652497	0.000077
1644	1.6348e+02	-14.5488	-46.122257	0.000324	3.243543	1.098942	0.000130
1645	1.6358e+02	-14.5055	-46.065737	0.000142	1.419050	0.480787	0.000057
1646	1.6368e+02	-14.4734	-45.989032	0.000193	1.925854	0.652497	0.000077
1647	1.6378e+02	-14.4269	-45.912326	0.000193	1.925854	0.652497	0.000077
1648	1.6388e+02	-14.3884	-45.827546	0.000213	2.128575	0.721181	0.000085
1649	1.6398e+02	-14.3499	-45.754878	0.000182	1.824493	0.618155	0.000073
1650	1.6408e+02	-14.3098	-45.678172	0.000193	1.925854	0.652497	0.000077
1651	1.6418e+02	-14.2616	-45.561095	0.000294	2.939461	0.995916	0.000118
1652	1.6427e+02	-14.2360	-45.504575	0.000142	1.419050	0.480787	0.000057
1653	1.6437e+02	-14.1830	-45.411721	0.000233	2.331296	0.789865	0.000093
1654	1.6447e+02	-14.1445	-45.326941	0.000213	2.128575	0.721181	0.000085
1655	1.6457e+02	-14.1124	-45.258310	0.000172	1.723132	0.583813	0.000069
1656	1.6467e+02	-14.0627	-45.197753	0.000152	1.520411	0.515129	0.000061
1657	1.6477e+02	-14.0258	-45.088750	0.000274	2.736739	0.927232	0.000110
1658	1.6487e+02	-13.9905	-45.008008	0.000203	2.027214	0.686839	0.000081
1659	1.6497e+02	-13.9552	-44.911117	0.000243	2.432657	0.824207	0.000097
1660	1.6507e+02	-13.9023	-44.858634	0.000132	1.317689	0.446445	0.000053
1661	1.6517e+02	-13.8702	-44.749631	0.000274	2.736739	0.927232	0.000110
1662	1.6527e+02	-13.8269	-44.685037	0.000162	1.621771	0.549471	0.000065
1663	1.6537e+02	-13.7884	-44.580071	0.000264	2.635379	0.892890	0.000105
1664	1.6547e+02	-13.7483	-44.475106	0.000264	2.635379	0.892890	0.000105
1665	1.6557e+02	-13.7146	-44.418586	0.000142	1.419050	0.480787	0.000057
1666	1.6567e+02	-13.6809	-44.333806	0.000213	2.128575	0.721181	0.000085
1667	1.6577e+02	-13.6360	-44.269212	0.000162	1.621771	0.549471	0.000065
1668	1.6587e+02	-13.5879	-44.196543	0.000182	1.824493	0.618155	0.000073
1669	1.6597e+02	-13.5510	-44.103689	0.000233	2.331296	0.789865	0.000093
1670	1.6607e+02	-13.5044	-44.022947	0.000203	2.027214	0.686839	0.000081
1671	1.6616e+02	-13.4772	-43.934130	0.000223	2.229936	0.755523	0.000089
1672	1.6626e+02	-13.4274	-43.804941	0.000324	3.243543	1.098942	0.000130
1673	1.6636e+02	-13.3873	-43.780719	0.000061	0.608164	0.206052	0.000024
1674	1.6646e+02	-13.3520	-43.691902	0.000223	2.229936	0.755523	0.000089
1675	1.6656e+02	-13.3199	-43.578862	0.000284	2.838100	0.961574	0.000114
1676	1.6666e+02	-13.2702	-43.506193	0.000182	1.824493	0.618155	0.000073
1677	1.6676e+02	-13.2333	-43.425451	0.000203	2.027214	0.686839	0.000081
1678	1.6686e+02	-13.1868	-43.356819	0.000172	1.723132	0.583813	0.000069
1679	1.6696e+02	-13.1563	-43.255891	0.000253	2.534018	0.858548	0.000101
1680	1.6706e+02	-13.1002	-43.154962	0.000253	2.534018	0.858548	0.000101
1681	1.6716e+02	-13.0681	-43.037886	0.000294	2.939461	0.995916	0.000118
1682	1.6726e+02	-13.0344	-42.973291	0.000162	1.621771	0.549471	0.000065
1683	1.6736e+02	-12.9879	-42.904660	0.000172	1.723132	0.583813	0.000069
1684	1.6746e+02	-12.9446	-42.852177	0.000132	1.317689	0.446445	0.000053
1685	1.6756e+02	-12.9173	-42.718952	0.000334	3.344904	1.133284	0.000134
1686	1.6766e+02	-12.8740	-42.638209	0.000203	2.027214	0.686839	0.000081
1687	1.6776e+02	-12.8355	-42.581689	0.000142	1.419050	0.480787	0.000057
1688	1.6786e+02	-12.7922	-42.460575	0.000304	3.040821	1.030258	0.000122
1689	1.6796e+02	-12.7585	-42.391944	0.000172	1.723132	0.583813	0.000069
1690	1.6806e+02	-12.7232	-42.286978	0.000264	2.635379	0.892890	0.000105
1691	1.6816e+02	-12.6718	-42.202198	0.000213	2.128575	0.721181	0.000085
1692	1.6825e+02	-12.6349	-42.109344	0.000233	2.331296	0.789865	0.000093
1693	1.6835e+02	-12.5948	-42.020527	0.000223	2.229936	0.755523	0.000089
1694	1.6845e+02	-12.5483	-41.947859	0.000182	1.824493	0.618155	0.000073
1695	1.6855e+02	-12.5066	-41.875190	0.000182	1.824493	0.618155	0.000073
1696	1.6865e+02	-12.4793	-41.774262	0.000253	2.534018	0.858548	0.000101
1697	1.6875e+02	-12.4392	-41.677371	0.000243	2.432657	0.824207	0.000097
1698	1.6885e+02	-12.3975	-41.604702	0.000182	1.824493	0.618155	0.000073
1699	1.6895e+02	-12.3558	-41.459365	0.000365	3.648986	1.236310	0.000146
1700	1.6905e+02	-12.3237	-41.410920	0.000122	1.216329	0.412103	0.000049
1701	1.6915e+02	-12.2724	-41.322103	0.000223	2.229936	0.755523	0.000089
1702	1.6925e+02	-12.2307	-41.261546	0.000152	1.520411	0.515129	0.000061
1703	1.6935e+02	-12.2050	-41.164655	0.000243	2.432657	0.824207	0.000097
1704	1.6945e+02	-12.1601	-41.079875	0.000213	2.128575	0.721181	0.000085
1705	1.6955e+02	-12.1248	-40.942612	0.000345	3.446264	1.167626	0.000138
1706	1.6965e+02	-12.0702	-40.914352	0.000071	0.709525	0.240394	0.000028
1707	1.6975e+02	-12.0334	-40.789201	0.000314	3.142182	1.064600	0.000126
1708	1.6985e+02	-12.0013	-40.696347	0.000233	2.331296	0.789865	0.000093
1709	1.6995e+02	-11.9547	-40.579270	0.000294	2.939461	0.995916	0.000118
1710	1.7005e+02	-11.9178	-40.542936	0.000091	0.912246	0.309077	0.000037
1711	1.7015e+02	-11.8809	-40.433933	0.000274	2.736739	0.927232	0.000110
1712	1.7024e+02	-11.8408	-40.341079	0.000233	2.331296	0.789865	0.000093
1713	1.7034e+02	-11.8007	-40.280522	0.000152	1.520411	0.515129	0.000061
1714	1.7044e+02	-11.7558	-40.203816	0.000193	1.925854	0.652497	0.000077
1715	1.7054e+02	-11.7189	-40.110962	0.000233	2.331296	0.789865	0.000093
1716	1.7064e+02	-11.6772	-40.001959	0.000274	2.736739	0.927232	0.000110
1717	1.7074e+02	-11.6419	-39.945440	0.000142	1.419050	0.480787	0.000057
1718	1.7084e+02	-11.5954	-39.816251	0.000324	3.243543	1.098942	0.000130
1719	1.7094e+02	-11.5505	-39.662840	0.000385	3.851707	1.304994	0.000154
1720	1.7104e+02	-11.5136	-39.634580	0.000071	0.709525	0.240394	0.000028
1721	1.7114e+02	-11.4863	-39.513466	0.000304	3.040821	1.030258	0.000122
1722	1.7124e+02	-11.4205	-39.432723	0.000203	2.027214	0.686839	0.000081
1723	1.7134e+02	-11.3981	-39.360055	0.000182	1.824493	0.618155	0.000073
1724	1.7144e+02	-11.3580	-39.234904	0.000314	3.142182	1.064600	0.000126
1725	1.7154e+02	-11.3275	-39.170309	0.000162	1.621771	0.549471	0.000065
1726	1.7164e+02	-11.2729	-39.024973	0.000365	3.648986	1.236310	0.000146
1727	1.7174e+02	-11.2409	-38.968453	0.000142	1.419050	0.480787	0.000057
1728	1.7184e+02	-11.2008	-38.867524	0.000253	2.534018	0.858548	0.000101
1729	1.7194e+02	-11.1623	-38.806967	0.000152	1.520411	0.515129	0.000061
1730	1.7204e+02	-11.1189	-38.681816	0.000314	3.142182	1.064600	0.000126
1731	1.7213e+02	-11.0788	-38.621259	0.000152	1.520411	0.515129	0.000061
1732	1.7223e+02	-11.0387	-38.540516	0.000203	2.027214	0.686839	0.000081
1733	1.7233e+02	-10.9970	-38.459774	0.000203	2.027214	0.686839	0.000081
1734	1.7243e+02	-10.9633	-38.362882	0.000243	2.432657	0.824207	0.000097
1735	1.7253e+02	-10.9184	-38.261954	0.000253	2.534018	0.858548	0.000101
1736	1.7263e+02	-10.8863	-38.177174	0.000213	2.128575	0.721181	0.000085
1737	1.7273e+02	-10.8366	-38.047986	0.000324	3.243543	1.098942	0.000130
1738	1.7283e+02	-10.7981	-37.995503	0.000132	1.317689	0.446445	0.000053
1739	1.7293e+02	-10.7628	-37.838055	0.000395	3.953068	1.339336	0.000158
1740	1.7303e+02	-10.7227	-37.769423	0.000172	1.723132	0.583813	0.000069
1741	1.7313e+02	-10.6842	-37.668495	0.000253	2.534018	0.858548	0.000101
1742	1.7323e+02	-10.6393	-37.595827	0.000182	1.824493	0.618155	0.000073
1743	1.7333e+02	-10.6040	-37.490861	0.000264	2.635379	0.892890	0.000105
1744	1.7343e+02	-10.5655	-37.402044	0.000223	2.229936	0.755523	0.000089
1745	1.7353e+02	-10.5206	-37.325338	0.000193	1.925854	0.652497	0.000077
1746	1.7363e+02	-10.4805	-37.212299	0.000284	2.838100	0.961574	0.000114
1747	1.7373e+02	-10.4387	-37.103296	0.000274	2.736739	0.927232	0.000110
1748	1.7383e+02	-10.4051	-37.054850	0.000122	1.216329	0.412103	0.000049
1749	1.7393e+02	-10.3537	-36.921625	0.000334	3.344904	1.133284	0.000134
1750	1.7403e+02	-10.3120	-36.816659	0.000264	2.635379	0.892890	0.000105
1751	1.7413e+02	-10.2751	-36.739954	0.000193	1.925854	0.652497	0.000077
1752	1.7422e+02	-10.2414	-36.626914	0.000284	2.838100	0.961574	0.000114
1753	1.7432e+02	-10.2045	-36.562320	0.000162	1.621771	0.549471	0.000065
1754	1.7442e+02	-10.1676	-36.465429	0.000243	2.432657	0.824207	0.000097
1755	1.7452e+02	-10.1179	-36.336240	0.000324	3.243543	1.098942	0.000130
1756	1.7462e+02	-10.0714	-36.259535	0.000193	1.925854	0.652497	0.000077
1757	1.7472e+02	-10.0457	-36.134383	0.000314	3.142182	1.064600	0.000126
1758	1.7482e+02	-10.0008	-36.085938	0.000122	1.216329	0.412103	0.000049
1759	1.7492e+02	-9.9719	-36.005195	0.000203	2.027214	0.686839	0.000081
1760	1.7502e+02	-9.9286	-35.871970	0.000334	3.344904	1.133284	0.000134
1761	1.7512e+02	-9.8821	-35.750856	0.000304	3.040821	1.030258	0.000122
1762	1.7522e+02	-9.8436	-35.678187	0.000182	1.824493	0.618155	0.000073
1763	1.7532e+02	-9.7987	-35.597444	0.000203	2.027214	0.686839	0.000081
1764	1.7542e+02	-9.7650	-35.504590	0.000233	2.331296	0.789865	0.000093
1765	1.7552e+02	-9.7249	-35.399625	0.000264	2.635379	0.892890	0.000105
1766	1.7562e+02	-9.6896	-35.290622	0.000274	2.736739	0.927232	0.000110
1767	1.7572e+02	-9.6495	-35.197768	0.000233	2.331296	0.789865	0.000093
1768	1.7582e+02	-9.6078	-35.104914	0.000233	2.331296	0.789865	0.000093
1769	1.7592e+02	-9.5757	-34.967651	0.000345	3.446264	1.167626	0.000138
1770	1.7602e+02	-9.5307	-34.882871	0.000213	2.128575	0.721181	0.000085
1771	1.7612e+02	-9.4922	-34.818277	0.000162	1.621771	0.549471	0.000065
1772	1.7621e+02	-9.4537	-34.681015	0.000345	3.446264	1.167626	0.000138
1773	1.7631e+02	-9.4056	-34.580086	0.000253	2.534018	0.858548	0.000101
1774	1.7641e+02	-9.3671	-34.483195	0.000243	2.432657	0.824207	0.000097
1775	1.7651e+02	-9.3302	-34.434749	0.000122	1.216329	0.412103	0.000049
1776	1.7661e+02	-9.2997	-34.277301	0.000395	3.953068	1.339336	0.000158
1777	1.7671e+02	-9.2452	-34.220781	0.000142	1.419050	0.480787	0.000057
1778	1.7681e+02	-9.2083	-34.091593	0.000324	3.243543	1.098942	0.000130
1779	1.7691e+02	-9.1650	-34.022961	0.000172	1.723132	0.583813	0.000069
1780	1.7701e+02	-9.1329	-33.897810	0.000314	3.142182	1.064600	0.000126
1781	1.7711e+02	-9.0800	-33.821105	0.000193	1.925854	0.652497	0.000077
1782	1.7721e+02	-9.0463	-33.647508	0.000436	4.358511	1.476703	0.000174
1783	1.7731e+02	-9.0030	-33.570802	0.000193	1.925854	0.652497	0.000077
1784	1.7741e+02	-8.9596	-33.530431	0.000101	1.013607	0.343419	0.000041
1785	1.7751e+02	-8.9227	-33.364908	0.000416	4.155789	1.408020	0.000166
1786	1.7761e+02	-8.8955	-33.324537	0.000101	1.013607	0.343419	0.000041
1787	1.7771e+02	-8.8489	-33.171126	0.000385	3.851707	1.304994	0.000154
1788	1.7781e+02	-8.7976	-33.134792	0.000091	0.912246	0.309077	0.000037
1789	1.7791e+02	-8.7768	-32.977343	0.000395	3.953068	1.339336	0.000158
1790	1.7801e+02	-8.7334	-32.900638	0.000193	1.925854	0.652497	0.000077
1791	1.7810e+02	-8.6885	-32.783561	0.000294	2.939461	0.995916	0.000118
1792	1.7820e+02	-8.6484	-32.710892	0.000182	1.824493	0.618155	0.000073
1793	1.7830e+02	-8.6035	-32.573630	0.000345	3.446264	1.167626	0.000138
1794	1.7840e+02	-8.5730	-32.476738	0.000243	2.432657	0.824207	0.000097
1795	1.7850e+02	-8.5361	-32.387921	0.000223	2.229936	0.755523	0.000089
1796	1.7860e+02	-8.4944	-32.303142	0.000213	2.128575	0.721181	0.000085
1797	1.7870e+02	-8.4463	-32.182028	0.000304	3.040821	1.030258	0.000122
1798	1.7880e+02	-8.4142	-32.089173	0.000233	2.331296	0.789865	0.000093
1799	1.7890e+02	-8.3709	-31.992282	0.000243	2.432657	0.824207	0.000097
1800	1.7900e+02	-8.3324	-31.879242	0.000284	2.838100	0.961574	0.000114
1801	1.7910e+02	-8.2907	-31.758128	0.000304	3.040821	1.030258	0.000122
1802	1.7920e+02	-8.2506	-31.628940	0.000324	3.243543	1.098942	0.000130
1803	1.7930e+02	-8.2217	-31.552234	0.000193	1.925854	0.652497	0.000077
1804	1.7940e+02	-8.1671	-31.451306	0.000253	2.534018	0.858548	0.000101
1805	1.7950e+02	-8.1319	-31.350378	0.000253	2.534018	0.858548	0.000101
1806	1.7960e+02	-8.0821	-31.261561	0.000223	2.229936	0.755523	0.000089
1807	1.7970e+02	-8.0436	-31.156595	0.000264	2.635379	0.892890	0.000105
1808	1.7980e+02	-8.0115	-31.003184	0.000385	3.851707	1.304994	0.000154
1809	1.7990e+02	-7.9730	-30.910330	0.000233	2.331296	0.789865	0.000093
1810	1.8000e+02	-7.9329	-30.809401	0.000253	2.534018	0.858548	0.000101
1811	1.8009e+02	-7.8944	-30.712510	0.000243	2.432657	0.824207	0.000097
1812	1.8019e+02	-7.8463	-30.599470	0.000284	2.838100	0.961574	0.000114
1813	1.8029e+02	-7.8110	-30.510653	0.000223	2.229936	0.755523	0.000089
1814	1.8039e+02	-7.7677	-30.405688	0.000264	2.635379	0.892890	0.000105
1815	1.8049e+02	-7.7356	-30.272462	0.000334	3.344904	1.133284	0.000134
1816	1.8059e+02	-7.6923	-30.203831	0.000172	1.723132	0.583813	0.000069
1817	1.8069e+02	-7.6618	-30.123088	0.000203	2.027214	0.686839	0.000081
1818	1.8079e+02	-7.6121	-29.981789	0.000355	3.547625	1.201968	0.000142
1819	1.8089e+02	-7.5752	-29.884897	0.000243	2.432657	0.824207	0.000097
1820	1.8099e+02	-7.5367	-29.739560	0.000365	3.648986	1.236310	0.000146
1821	1.8109e+02	-7.4998	-29.638632	0.000253	2.534018	0.858548	0.000101
1822	1.8119e+02	-7.4501	-29.533666	0.000264	2.635379	0.892890	0.000105
1823	1.8129e+02	-7.4132	-29.440812	0.000233	2.331296	0.789865	0.000093
1824	1.8139e+02	-7.3714	-29.307587	0.000334	3.344904	1.133284	0.000134
1825	1.8149e+02	-7.3297	-29.242993	0.000162	1.621771	0.549471	0.000065
1826	1.8159e+02	-7.2944	-29.150139	0.000233	2.331296	0.789865	0.000093
1827	1.8169e+02	-7.2447	-29.008839	0.000355	3.547625	1.201968	0.000142
1828	1.8179e+02	-7.2094	-28.855428	0.000385	3.851707	1.304994	0.000154
1829	1.8189e+02	-7.1757	-28.806982	0.000122	1.216329	0.412103	0.000049
1830	1.8199e+02	-7.1292	-28.681831	0.000314	3.142182	1.064600	0.000126
1831	1.8209e+02	-7.0891	-28.560717	0.000304	3.040821	1.030258	0.000122
1832	1.8218e+02	-7.0538	-28.459788	0.000253	2.534018	0.858548	0.000101
1833	1.8228e+02	-7.0249	-28.322526	0.000345	3.446264	1.167626	0.000138
1834	1.8238e+02	-6.9688	-28.245820	0.000193	1.925854	0.652497	0.000077
1835	1.8248e+02	-6.9351	-28.120669	0.000314	3.142182	1.064600	0.000126
1836	1.8258e+02	-6.8902	-27.999555	0.000304	3.040821	1.030258	0.000122
1837	1.8268e+02	-6.8565	-27.898627	0.000253	2.534018	0.858548	0.000101
1838	1.8278e+02	-6.8052	-27.793661	0.000264	2.635379	0.892890	0.000105
1839	1.8288e+02	-6.7667	-27.684658	0.000274	2.736739	0.927232	0.000110
1840	1.8298e+02	-6.7282	-27.587767	0.000243	2.432657	0.824207	0.000097
1841	1.8308e+02	-6.6977	-27.490876	0.000243	2.432657	0.824207	0.000097
1842	1.8318e+02	-6.6511	-27.393985	0.000243	2.432657	0.824207	0.000097
1843	1.8328e+02	-6.6191	-27.248648	0.000365	3.648986	1.236310	0.000146
1844	1.8338e+02	-6.5677	-27.111385	0.000345	3.446264	1.167626	0.000138
1845	1.8348e+02	-6.5356	-27.014494	0.000243	2.432657	0.824207	0.000097
1846	1.8358e+02	-6.4971	-26.929714	0.000213	2.128575	0.721181	0.000085
1847	1.8368e+02	-6.4618	-26.788414	0.000355	3.547625	1.201968	0.000142
1848	1.8378e+02	-6.4169	-26.711709	0.000193	1.925854	0.652497	0.000077
1849	1.8388e+02	-6.3784	-26.582520	0.000324	3.243543	1.098942	0.000130
1850	1.8398e+02	-6.3415	-26.473518	0.000274	2.736739	0.927232	0.000110
1851	1.8407e+02	-6.3014	-26.348366	0.000314	3.142182	1.064600	0.000126
1852	1.8417e+02	-6.2645	-26.263587	0.000213	2.128575	0.721181	0.000085
1853	1.8427e+02	-6.2212	-26.106138	0.000395	3.953068	1.339336	0.000158
1854	1.8437e+02	-6.1779	-25.997136	0.000274	2.736739	0.927232	0.000110
1855	1.8447e+02	-6.1410	-25.892170	0.000264	2.635379	0.892890	0.000105
1856	1.8457e+02	-6.0913	-25.803353	0.000223	2.229936	0.755523	0.000089
1857	1.8467e+02	-6.0672	-25.686276	0.000294	2.939461	0.995916	0.000118
1858	1.8477e+02	-6.0175	-25.577273	0.000274	2.736739	0.927232	0.000110
1859	1.8487e+02	-5.9758	-25.435974	0.000355	3.547625	1.201968	0.000142
1860	1.8497e+02	-5.9357	-25.339082	0.000243	2.432657	0.824207	0.000097
1861	1.8507e+02	-5.9020	-25.238154	0.000253	2.534018	0.858548	0.000101
1862	1.8517e+02	-5.8651	-25.133189	0.000264	2.635379	0.892890	0.000105
1863	1.8527e+02	-5.8282	-24.983815	0.000375	3.750346	1.270652	0.000150
1864	1.8537e+02	-5.7849	-24.830403	0.000385	3.851707	1.304994	0.000154
1865	1.8547e+02	-5.7432	-24.794069	0.000091	0.912246	0.309077	0.000037
1866	1.8557e+02	-5.7047	-24.620472	0.000436	4.358511	1.476703	0.000174
1867	1.8567e+02	-5.6613	-24.491284	0.000324	3.243543	1.098942	0.000130
1868	1.8577e+02	-5.6148	-24.422653	0.000172	1.723132	0.583813	0.000069
1869	1.8587e+02	-5.5908	-24.281353	0.000355	3.547625	1.201968	0.000142
1870	1.8597e+02	-5.5458	-24.164276	0.000294	2.939461	0.995916	0.000118
1871	1.8606e+02	-5.5025	-24.027013	0.000345	3.446264	1.167626	0.000138
1872	1.8616e+02	-5.4640	-23.942233	0.000213	2.128575	0.721181	0.000085
1873	1.8626e+02	-5.4319	-23.784785	0.000395	3.953068	1.339336	0.000158
1874	1.8636e+02	-5.3870	-23.691931	0.000233	2.331296	0.789865	0.000093
1875	1.8646e+02	-5.3405	-23.611188	0.000203	2.027214	0.686839	0.000081
1876	1.8656e+02	-5.2988	-23.457777	0.000385	3.851707	1.304994	0.000154
1877	1.8666e+02	-5.2635	-23.348775	0.000274	2.736739	0.927232	0.000110
1878	1.8676e+02	-5.2202	-23.231698	0.000294	2.939461	0.995916	0.000118
1879	1.8686e+02	-5.1785	-23.134806	0.000243	2.432657	0.824207	0.000097
1880	1.8696e+02	-5.1512	-22.949098	0.000466	4.662593	1.579729	0.000187
1881	1.8706e+02	-5.0999	-22.888541	0.000152	1.520411	0.515129	0.000061
1882	1.8716e+02	-5.0710	-22.751278	0.000345	3.446264	1.167626	0.000138
1883	1.8726e+02	-5.0277	-22.626127	0.000314	3.142182	1.064600	0.000126
1884	1.8736e+02	-4.9827	-22.492902	0.000334	3.344904	1.133284	0.000134
1885	1.8746e+02	-4.9523	-22.387936	0.000264	2.635379	0.892890	0.000105
1886	1.8756e+02	-4.9090	-22.274896	0.000284	2.838100	0.961574	0.000114
1887	1.8766e+02	-4.8721	-22.141671	0.000334	3.344904	1.133284	0.000134
1888	1.8776e+02	-4.8271	-21.992297	0.000375	3.750346	1.270652	0.000150
1889	1.8786e+02	-4.7870	-21.879257	0.000284	2.838100	0.961574	0.000114
1890	1.8796e+02	-4.7453	-21.758143	0.000304	3.040821	1.030258	0.000122
1891	1.8806e+02	-4.7068	-21.637029	0.000304	3.040821	1.030258	0.000122
1892	1.8815e+02	-4.6603	-21.523989	0.000284	2.838100	0.961574	0.000114
1893	1.8825e+02	-4.6282	-21.374615	0.000375	3.750346	1.270652	0.000150
1894	1.8835e+02	-4.5801	-21.261575	0.000284	2.838100	0.961574	0.000114
1895	1.8845e+02	-4.5464	-21.128350	0.000334	3.344904	1.133284	0.000134
1896	1.8855e+02	-4.5079	-21.051644	0.000193	1.925854	0.652497	0.000077
1897	1.8865e+02	-4.4710	-20.938605	0.000284	2.838100	0.961574	0.000114
1898	1.8875e+02	-4.4261	-20.777119	0.000405	4.054429	1.373678	0.000162
1899	1.8885e+02	-4.3908	-20.651968	0.000314	3.142182	1.064600	0.000126
1900	1.8895e+02	-4.3443	-20.526817	0.000314	3.142182	1.064600	0.000126
1901	1.8905e+02	-4.3058	-20.409740	0.000294	2.939461	0.995916	0.000118
1902	1.8915e+02	-4.2705	-20.280551	0.000324	3.243543	1.098942	0.000130
1903	1.8925e+02	-4.2288	-20.151363	0.000324	3.243543	1.098942	0.000130
1904	1.8935e+02	-4.1838	-20.010063	0.000355	3.547625	1.201968	0.000142
1905	1.8945e+02	-4.1421	-19.888949	0.000304	3.040821	1.030258	0.000122
1906	1.8955e+02	-4.1004	-19.808206	0.000203	2.027214	0.686839	0.000081
1907	1.8965e+02	-4.0699	-19.662870	0.000365	3.648986	1.236310	0.000146
1908	1.8975e+02	-4.0266	-19.561941	0.000253	2.534018	0.858548	0.000101
1909	1.8985e+02	-3.9881	-19.376233	0.000466	4.662593	1.579729	0.000187
1910	1.8995e+02	-3.9480	-19.259156	0.000294	2.939461	0.995916	0.000118
1911	1.9004e+02	-3.9111	-19.158228	0.000253	2.534018	0.858548	0.000101
1912	1.9014e+02	-3.8790	-18.988668	0.000426	4.257150	1.442361	0.000170
1913	1.9024e+02	-3.8373	-18.936185	0.000132	1.317689	0.446445	0.000053
1914	1.9034e+02	-3.7828	-18.798923	0.000345	3.446264	1.167626	0.000138
1915	1.9044e+02	-3.7523	-18.645511	0.000385	3.851707	1.304994	0.000154
1916	1.9054e+02	-3.7186	-18.479989	0.000416	4.155789	1.408020	0.000166
1917	1.9064e+02	-3.6705	-18.383098	0.000243	2.432657	0.824207	0.000097
1918	1.9074e+02	-3.6320	-18.237761	0.000365	3.648986	1.236310	0.000146
1919	1.9084e+02	-3.5935	-18.120684	0.000294	2.939461	0.995916	0.000118
1920	1.9094e+02	-3.5518	-17.959198	0.000405	4.054429	1.373678	0.000162
1921	1.9104e+02	-3.5101	-17.825973	0.000334	3.344904	1.133284	0.000134
1922	1.9114e+02	-3.4716	-17.753304	0.000182	1.824493	0.618155	0.000073
1923	1.9124e+02	-3.4298	-17.571633	0.000456	4.561232	1.545387	0.000183
1924	1.9134e+02	-3.3865	-17.482816	0.000223	2.229936	0.755523	0.000089
1925	1.9144e+02	-3.3464	-17.341517	0.000355	3.547625	1.201968	0.000142
1926	1.9154e+02	-3.3192	-17.224440	0.000294	2.939461	0.995916	0.000118
1927	1.9164e+02	-3.2774	-17.030657	0.000487	4.865314	1.648413	0.000195
1928	1.9174e+02	-3.2245	-16.917617	0.000284	2.838100	0.961574	0.000114
1929	1.9184e+02	-3.1956	-16.804578	0.000284	2.838100	0.961574	0.000114
1930	1.9194e+02	-3.1571	-16.671352	0.000334	3.344904	1.133284	0.000134
1931	1.9203e+02	-3.1170	-16.534089	0.000345	3.446264	1.167626	0.000138
1932	1.9213e+02	-3.0721	-16.392790	0.000355	3.547625	1.201968	0.000142
1933	1.9223e+02	-3.0288	-16.299936	0.000233	2.331296	0.789865	0.000093
1934	1.9233e+02	-2.9951	-16.122302	0.000446	4.459871	1.511045	0.000179
1935	1.9243e+02	-2.9598	-16.029447	0.000233	2.331296	0.789865	0.000093
1936	1.9253e+02	-2.9069	-15.867962	0.000405	4.054429	1.373678	0.000162
1937	1.9263e+02	-2.8684	-15.746848	0.000304	3.040821	1.030258	0.000122
1938	1.9273e+02	-2.8234	-15.585363	0.000405	4.054429	1.373678	0.000162
1939	1.9283e+02	-2.7962	-15.492508	0.000233	2.331296	0.789865	0.000093
1940	1.9293e+02	-2.7481	-15.335060	0.000395	3.953068	1.339336	0.000158
1941	1.9303e+02	-2.7095	-15.217983	0.000294	2.939461	0.995916	0.000118
1942	1.9313e+02	-2.6759	-15.040349	0.000446	4.459871	1.511045	0.000179
1943	1.9323e+02	-2.6390	-14.919235	0.000304	3.040821	1.030258	0.000122
1944	1.9333e+02	-2.5924	-14.794084	0.000314	3.142182	1.064600	0.000126
1945	1.9343e+02	-2.5555	-14.664896	0.000324	3.243543	1.098942	0.000130
1946	1.9353e+02	-2.5122	-14.499373	0.000416	4.155789	1.408020	0.000166
1947	1.9363e+02	-2.4753	-14.366148	0.000334	3.344904	1.133284	0.000134
1948	1.9373e+02	-2.4272	-14.224848	0.000355	3.547625	1.201968	0.000142
1949	1.9383e+02	-2.4031	-14.083548	0.000355	3.547625	1.201968	0.000142
1950	1.9393e+02	-2.3550	-13.958397	0.000314	3.142182	1.064600	0.000126
1951	1.9403e+02	-2.3149	-13.825171	0.000334	3.344904	1.133284	0.000134
1952	1.9412e+02	-2.2796	-13.643500	0.000456	4.561232	1.545387	0.000183
1953	1.9422e+02	-2.2411	-13.546609	0.000243	2.432657	0.824207	0.000097
1954	1.9432e+02	-2.1914	-13.397235	0.000375	3.750346	1.270652	0.000150
1955	1.9442e+02	-2.1609	-13.231712	0.000416	4.155789	1.408020	0.000166
1956	1.9452e+02	-2.1160	-13.130784	0.000253	2.534018	0.858548	0.000101
1957	1.9462e+02	-2.0743	-12.961224	0.000426	4.257150	1.442361	0.000170
1958	1.9472e+02	-2.0326	-12.876444	0.000213	2.128575	0.721181	0.000085
1959	1.9482e+02	-2.0005	-12.694773	0.000456	4.561232	1.545387	0.000183
1960	1.9492e+02	-1.9620	-12.537325	0.000395	3.953068	1.339336	0.000158
1961	1.9502e+02	-1.9203	-12.359691	0.000446	4.459871	1.511045	0.000179
1962	1.9512e+02	-1.8721	-12.258763	0.000253	2.534018	0.858548	0.000101
1963	1.9522e+02	-1.8336	-12.105352	0.000385	3.851707	1.304994	0.000154
1964	1.9532e+02	-1.8048	-11.964052	0.000355	3.547625	1.201968	0.000142
1965	1.9542e+02	-1.7566	-11.790455	0.000436	4.358511	1.476703	0.000174
1966	1.9552e+02	-1.7165	-11.677415	0.000284	2.838100	0.961574	0.000114
1967	1.9562e+02	-1.6780	-11.568412	0.000274	2.736739	0.927232	0.000110
1968	1.9572e+02	-1.6395	-11.402890	0.000416	4.155789	1.408020	0.000166
1969	1.9582e+02	-1.5914	-11.277739	0.000314	3.142182	1.064600	0.000126
1970	1.9592e+02	-1.5609	-11.092030	0.000466	4.662593	1.579729	0.000187
1971	1.9601e+02	-1.5144	-10.962842	0.000324	3.243543	1.098942	0.000130
1972	1.9611e+02	-1.4727	-10.813468	0.000375	3.750346	1.270652	0.000150
1973	1.9621e+02	-1.4518	-10.684280	0.000324	3.243543	1.098942	0.000130
1974	1.9631e+02	-1.3925	-10.534906	0.000375	3.750346	1.270652	0.000150
1975	1.9641e+02	-1.3556	-10.377457	0.000395	3.953068	1.339336	0.000158
1976	1.9651e+02	-1.3171	-10.240195	0.000345	3.446264	1.167626	0.000138
1977	1.9661e+02	-1.2770	-10.106969	0.000334	3.344904	1.133284	0.000134
1978	1.9671e+02	-1.2337	-9.909150	0.000497	4.966675	1.682755	0.000199
1979	1.9681e+02	-1.2000	-9.800147	0.000274	2.736739	0.927232	0.000110
1980	1.9691e+02	-1.1631	-9.658847	0.000355	3.547625	1.201968	0.000142
1981	1.9701e+02	-1.1198	-9.481213	0.000446	4.459871	1.511045	0.000179
1982	1.9711e+02	-1.0829	-9.364136	0.000294	2.939461	0.995916	0.000118
1983	1.9721e+02	-1.0508	-9.206688	0.000395	3.953068	1.339336	0.000158
1984	1.9731e+02	-0.9994	-9.061351	0.000365	3.648986	1.236310	0.000146
1985	1.9741e+02	-0.9609	-8.920051	0.000355	3.547625	1.201968	0.000142
1986	1.9751e+02	-0.9256	-8.786826	0.000334	3.344904	1.133284	0.000134
1987	1.9761e+02	-0.8759	-8.625341	0.000405	4.054429	1.373678	0.000162
1988	1.9771e+02	-0.8342	-8.508264	0.000294	2.939461	0.995916	0.000118
1989	1.9781e+02	-0.7973	-8.346778	0.000405	4.054429	1.373678	0.000162
1990	1.9791e+02	-0.7604	-8.165107	0.000456	4.561232	1.545387	0.000183
1991	1.9800e+02	-0.7219	-7.991510	0.000436	4.358511	1.476703	0.000174
1992	1.9810e+02	-0.6866	-7.886545	0.000264	2.635379	0.892890	0.000105
1993	1.9820e+02	-0.6417	-7.753319	0.000334	3.344904	1.133284	0.000134
1994	1.9830e+02	-0.5984	-7.563574	0.000476	4.763954	1.614071	0.000191
1995	1.9840e+02	-0.5583	-7.426311	0.000345	3.446264	1.167626	0.000138
1996	1.9850e+02	-0.5230	-7.268863	0.000395	3.953068	1.339336	0.000158
1997	1.9860e+02	-0.4797	-7.119489	0.000375	3.750346	1.270652	0.000150
1998	1.9870e+02	-0.4380	-6.974152	0.000365	3.648986	1.236310	0.000146
1999	1.9880e+02	-0.3978	-6.812667	0.000405	4.054429	1.373678	0.000162
2000	1.9890e+02	-0.3561	-6.671367	0.000355	3.547625	1.201968	0.000142
2001	1.9900e+02	-0.3144	-6.501807	0.000426	4.257150	1.442361	0.000170
2002	1.9910e+02	-0.2872	-6.364544	0.000345	3.446264	1.167626	0.000138
2003	1.9920e+02	-0.2422	-6.215170	0.000375	3.750346	1.270652	0.000150
2004	1.9930e+02	-0.2005	-6.090019	0.000314	3.142182	1.064600	0.000126
2005	1.9940e+02	-0.1604	-5.936608	0.000385	3.851707	1.304994	0.000154
2006	1.9950e+02	-0.1235	-5.771086	0.000416	4.155789	1.408020	0.000166
2007	1.9960e+02	-0.0866	-5.621712	0.000375	3.750346	1.270652	0.000150
2008	1.9970e+02	-0.0417	-5.440040	0.000456	4.561232	1.545387	0.000183
2009	1.9980e+02	-0.0096	-5.318926	0.000456	4.561232	1.545387	0.000122

Center data before PMax,+/-Pr and +/-Vc Calc.

PMax (uC/cm2):	5.56e+01
Pr (uC/cm2):	1.98e+00
-Pr (uC/cm2):	-5.32e+00
PLoss (uC/cm2):	-3.17e+00
Vc:	6.07e-01
-Vc:	-5.29e-01
C (Max-Eff) (nF):	2.78e-01
K (Eff):	9.43e+02
Vert. (+/-Pr) Shift (uC/cm2):	-1.67e+00
Horiz. Shift (+/-Vc):	3.89e-02
Offset (uC/cm2):	2.13e+00

A (Loop Area - uC/cm2·Volts):	3.04e-02



Hysteresis Version: 5.48.1 - Radiant Technologies, Inc., 1999 - 9/12/24

