»»»»»»»»»»»»»»»»»»»»»»»»»»»»»»»»»»»» Hysteresis ««««««««««««««««««««««««««««««««««««
»»»  Executed Version:	5.48.1
»»»  Vision Version:	5.48.4 (R)
»»»  Vision Compiled:	9/18/24
»»»  Driver Version:	5.47.0
»»»  Windows Version:	Windows 8 or 8.1
»»»  Processor Information:	x86 (AMD or Intel) - 32 Processors
»»»  Tester Name:	PMF21124-494 (100V)
»»»  Tester S/N:	PMF21124-494
»»»  Internal Amp Type:	100V RevK 270k
»»»  Internal Amp S/N:	iAB2-596/K     
»»»  Execution Count:	1
»»»»»»»»»»»»»»»»»»»»»»»»»»»»»»»»»»»»»»»»»»««««««««««««««««««««««««««««««««««««««««««

Stored:	6/13/2025 - 13:47:23
Configured:	06/13/25 01:30:53 PM
Executed:	06/13/25 01:46:50 PM

»»»»»»»»»»»»»»»»»»»»»»»»»»»»»»»»»»» Sample Info ««««««««««««««««««««««««««««««««««««
Sample Name:	
Lot Name:	
Wafer Name:	
Die Row/Column:	0/0
Capacitor Number:	0
Sample Area (cm2):	1.00e-04
Sample Thickness (microns):	3.00e-01

Amplifier:	Internal

»»»»»»»»»»»»»»»»»»»»»»»»»»»»»»»»»»» Tester Info «««««««««««««««««««««««««««««««««««
Tester Name:	PMF21124-494 (100V)
Tester Serial Number:	PMF21124-494
Return Signal Amp. Level:	0.19 [Index: 3]

»»»»»»»»»»»»»»»»»»»»»»»»»»»»»»»» Hysteresis Info ««««««««««««««««««««««««««««««««««
Task Name:	Hyst-1922
Volts:	20.00
Field:	666.67 (kV/cm)
DCBias:	0.00
DCField:	0.00 (kV/cm)
Hysteresis Period (ms):	2.00e+02
Preset:	Enabled
Preset Delay (ms):	1.00e+03
Profile:	Standard Bipolar

»»»»»»»»»»»»»»»»»»»»»»»»»»»»»»»»»»»»»» Data «««««««««««««««««««««««««««««««««««««««
Points:	2009

Valid Data

Point	Time (ms)	Drive Voltage	Measured Polarization (uC/cm2)	Capacitance (uF)	Normalized Capacitance (uF/cm2)	Dielectric Constant	Instantaneous Current (mA)
   1	0.0000e+00	-0.0096	-2.852236	0.000203	2.027011	0.686770	0.000081
   2	9.9500e-02	0.0241	-2.771494	0.000203	2.027011	0.686770	0.000081
   3	1.9900e-01	0.0722	-2.589823	0.000456	4.560775	1.545232	0.000183
   4	2.9850e-01	0.0995	-2.428337	0.000405	4.054022	1.373540	0.000162
   5	3.9800e-01	0.1556	-2.262815	0.000416	4.155373	1.407878	0.000166
   6	4.9750e-01	0.1909	-2.101329	0.000405	4.054022	1.373540	0.000162
   7	5.9700e-01	0.2230	-1.923695	0.000446	4.459424	1.510894	0.000179
   8	6.9650e-01	0.2695	-1.802581	0.000304	3.040516	1.030155	0.000122
   9	7.9600e-01	0.3016	-1.637059	0.000416	4.155373	1.407878	0.000166
  10	8.9550e-01	0.3513	-1.459425	0.000446	4.459424	1.510894	0.000179
  11	9.9500e-01	0.3850	-1.281791	0.000446	4.459424	1.510894	0.000179
  12	1.0945e+00	0.4203	-1.136454	0.000365	3.648620	1.236186	0.000146
  13	1.1940e+00	0.4684	-0.962857	0.000436	4.358074	1.476555	0.000174
  14	1.2935e+00	0.5101	-0.849817	0.000284	2.837815	0.961478	0.000114
  15	1.3930e+00	0.5486	-0.647960	0.000507	5.067527	1.716925	0.000203
  16	1.4925e+00	0.5759	-0.510698	0.000345	3.445919	1.167509	0.000138
  17	1.5920e+00	0.6273	-0.349212	0.000405	4.054022	1.373540	0.000162
  18	1.6915e+00	0.6642	-0.131207	0.000547	5.472930	1.854279	0.000219
  19	1.7910e+00	0.7027	-0.006056	0.000314	3.141867	1.064493	0.000126
  20	1.8905e+00	0.7444	0.159467	0.000416	4.155373	1.407878	0.000166
  21	1.9900e+00	0.7829	0.320952	0.000405	4.054022	1.373540	0.000162
  22	2.0895e+00	0.8246	0.466289	0.000365	3.648620	1.236186	0.000146
  23	2.1890e+00	0.8775	0.676220	0.000527	5.270229	1.785602	0.000211
  24	2.2885e+00	0.8936	0.797334	0.000304	3.040516	1.030155	0.000122
  25	2.3880e+00	0.9417	0.958820	0.000405	4.054022	1.373540	0.000162
  26	2.4875e+00	0.9834	1.144528	0.000466	4.662125	1.579571	0.000187
  27	2.5870e+00	1.0267	1.306013	0.000405	4.054022	1.373540	0.000162
  28	2.6865e+00	1.0684	1.491722	0.000466	4.662125	1.579571	0.000187
  29	2.7860e+00	1.0989	1.653207	0.000405	4.054022	1.373540	0.000162
  30	2.8855e+00	1.1454	1.806618	0.000385	3.851321	1.304863	0.000154
  31	2.9850e+00	1.1855	2.012512	0.000517	5.168878	1.751263	0.000207
  32	3.0845e+00	1.2112	2.186109	0.000436	4.358074	1.476555	0.000174
  33	3.1840e+00	1.2561	2.299149	0.000284	2.837815	0.961478	0.000114
  34	3.2835e+00	1.2962	2.460634	0.000405	4.054022	1.373540	0.000162
  35	3.3830e+00	1.3411	2.654417	0.000486	4.864826	1.648248	0.000195
  36	3.4825e+00	1.3828	2.795716	0.000355	3.547269	1.201847	0.000142
  37	3.5820e+00	1.4214	2.969313	0.000436	4.358074	1.476555	0.000174
  38	3.6815e+00	1.4663	3.167133	0.000497	4.966177	1.682586	0.000199
  39	3.7810e+00	1.4984	3.308433	0.000355	3.547269	1.201847	0.000142
  40	3.8805e+00	1.5417	3.465881	0.000395	3.952671	1.339201	0.000158
  41	3.9800e+00	1.5850	3.651589	0.000466	4.662125	1.579571	0.000187
  42	4.0795e+00	1.6187	3.800963	0.000375	3.749970	1.270524	0.000150
  43	4.1790e+00	1.6604	3.998783	0.000497	4.966177	1.682586	0.000199
  44	4.2785e+00	1.6893	4.119897	0.000304	3.040516	1.030155	0.000122
  45	4.3780e+00	1.7294	4.309642	0.000476	4.763476	1.613909	0.000191
  46	4.4775e+00	1.7679	4.450942	0.000355	3.547269	1.201847	0.000142
  47	4.5770e+00	1.8128	4.668947	0.000547	5.472930	1.854279	0.000219
  48	4.6765e+00	1.8641	4.773913	0.000264	2.635114	0.892801	0.000105
  49	4.7760e+00	1.9058	5.004030	0.000578	5.776981	1.957294	0.000231
  50	4.8755e+00	1.9379	5.129181	0.000314	3.141867	1.064493	0.000126
  51	4.9750e+00	1.9892	5.335075	0.000517	5.168878	1.751263	0.000207
  52	5.0745e+00	2.0181	5.456189	0.000304	3.040516	1.030155	0.000122
  53	5.1740e+00	2.0582	5.629786	0.000436	4.358074	1.476555	0.000174
  54	5.2735e+00	2.0967	5.823568	0.000486	4.864826	1.648248	0.000195
  55	5.3730e+00	2.1288	5.960831	0.000345	3.445919	1.167509	0.000138
  56	5.4725e+00	2.1785	6.146539	0.000466	4.662125	1.579571	0.000187
  57	5.5720e+00	2.2187	6.283802	0.000345	3.445919	1.167509	0.000138
  58	5.6715e+00	2.2556	6.465473	0.000456	4.560775	1.545232	0.000183
  59	5.7710e+00	2.2973	6.647144	0.000456	4.560775	1.545232	0.000183
  60	5.8705e+00	2.3326	6.804592	0.000395	3.952671	1.339201	0.000158
  61	5.9700e+00	2.3743	6.994338	0.000476	4.763476	1.613909	0.000191
  62	6.0695e+00	2.4208	7.171972	0.000446	4.459424	1.510894	0.000179
  63	6.1690e+00	2.4561	7.313271	0.000355	3.547269	1.201847	0.000142
  64	6.2685e+00	2.4994	7.527240	0.000537	5.371579	1.819940	0.000215
  65	6.3680e+00	2.5347	7.644317	0.000294	2.939166	0.995816	0.000118
  66	6.4675e+00	2.5828	7.838099	0.000486	4.864826	1.648248	0.000195
  67	6.5670e+00	2.6197	8.007659	0.000426	4.256723	1.442217	0.000170
  68	6.6665e+00	2.6518	8.120699	0.000284	2.837815	0.961478	0.000114
  69	6.7660e+00	2.6967	8.286221	0.000416	4.155373	1.407878	0.000166
  70	6.8655e+00	2.7432	8.528449	0.000608	6.081033	2.060310	0.000243
  71	6.9650e+00	2.7769	8.629378	0.000253	2.533764	0.858462	0.000101
  72	7.0645e+00	2.8154	8.811049	0.000456	4.560775	1.545232	0.000183
  73	7.1640e+00	2.8636	8.980608	0.000426	4.256723	1.442217	0.000170
  74	7.2635e+00	2.8940	9.113834	0.000334	3.344568	1.133170	0.000134
  75	7.3630e+00	2.9309	9.339914	0.000568	5.675631	1.922956	0.000227
  76	7.4625e+00	2.9759	9.481213	0.000355	3.547269	1.201847	0.000142
  77	7.5620e+00	3.0127	9.642699	0.000405	4.054022	1.373540	0.000162
  78	7.6615e+00	3.0480	9.800147	0.000395	3.952671	1.339201	0.000158
  79	7.7610e+00	3.0946	9.949521	0.000375	3.749970	1.270524	0.000150
  80	7.8605e+00	3.1379	10.111006	0.000405	4.054022	1.373540	0.000162
  81	7.9600e+00	3.1748	10.288640	0.000446	4.459424	1.510894	0.000179
  82	8.0595e+00	3.2149	10.425903	0.000345	3.445919	1.167509	0.000138
  83	8.1590e+00	3.2534	10.615648	0.000476	4.763476	1.613909	0.000191
  84	8.2585e+00	3.2967	10.781171	0.000416	4.155373	1.407878	0.000166
  85	8.3580e+00	3.3352	10.954768	0.000436	4.358074	1.476555	0.000174
  86	8.4575e+00	3.3769	11.087993	0.000334	3.344568	1.133170	0.000134
  87	8.5570e+00	3.4122	11.253516	0.000416	4.155373	1.407878	0.000166
  88	8.6565e+00	3.4587	11.431150	0.000446	4.459424	1.510894	0.000179
  89	8.7560e+00	3.4892	11.592635	0.000405	4.054022	1.373540	0.000162
  90	8.8555e+00	3.5325	11.737972	0.000365	3.648620	1.236186	0.000146
  91	8.9550e+00	3.5774	11.943866	0.000517	5.168878	1.751263	0.000207
  92	9.0545e+00	3.6143	12.056906	0.000284	2.837815	0.961478	0.000114
  93	9.1540e+00	3.6544	12.266837	0.000527	5.270229	1.785602	0.000211
  94	9.2535e+00	3.6897	12.379877	0.000284	2.837815	0.961478	0.000114
  95	9.3530e+00	3.7379	12.589808	0.000527	5.270229	1.785602	0.000211
  96	9.4525e+00	3.7748	12.710922	0.000304	3.040516	1.030155	0.000122
  97	9.5520e+00	3.8133	12.900667	0.000476	4.763476	1.613909	0.000191
  98	9.6515e+00	3.8437	13.050041	0.000375	3.749970	1.270524	0.000150
  99	9.7510e+00	3.8887	13.203452	0.000385	3.851321	1.304863	0.000154
 100	9.8505e+00	3.9336	13.381086	0.000446	4.459424	1.510894	0.000179
 101	9.9500e+00	3.9673	13.526423	0.000365	3.648620	1.236186	0.000146
 102	1.0050e+01	4.0058	13.675797	0.000375	3.749970	1.270524	0.000150
 103	1.0149e+01	4.0475	13.865543	0.000476	4.763476	1.613909	0.000191
 104	1.0248e+01	4.0940	14.006842	0.000355	3.547269	1.201847	0.000142
 105	1.0348e+01	4.1357	14.180439	0.000436	4.358074	1.476555	0.000174
 106	1.0447e+01	4.1758	14.366148	0.000466	4.662125	1.579571	0.000187
 107	1.0547e+01	4.2079	14.519559	0.000385	3.851321	1.304863	0.000154
 108	1.0646e+01	4.2496	14.660858	0.000355	3.547269	1.201847	0.000142
 109	1.0746e+01	4.2865	14.814270	0.000385	3.851321	1.304863	0.000154
 110	1.0845e+01	4.3314	14.971718	0.000395	3.952671	1.339201	0.000158
 111	1.0945e+01	4.3699	15.125129	0.000385	3.851321	1.304863	0.000154
 112	1.1044e+01	4.4036	15.274503	0.000375	3.749970	1.270524	0.000150
 113	1.1144e+01	4.4598	15.415803	0.000355	3.547269	1.201847	0.000142
 114	1.1243e+01	4.4951	15.621697	0.000517	5.168878	1.751263	0.000207
 115	1.1343e+01	4.5287	15.775108	0.000385	3.851321	1.304863	0.000154
 116	1.1443e+01	4.5640	15.904296	0.000324	3.243218	1.098832	0.000130
 117	1.1542e+01	4.6170	16.110190	0.000517	5.168878	1.751263	0.000207
 118	1.1642e+01	4.6507	16.211119	0.000253	2.533764	0.858462	0.000101
 119	1.1741e+01	4.6844	16.380678	0.000426	4.256723	1.442217	0.000170
 120	1.1841e+01	4.7245	16.538127	0.000395	3.952671	1.339201	0.000158
 121	1.1940e+01	4.7614	16.683463	0.000365	3.648620	1.236186	0.000146
 122	1.2040e+01	4.8095	16.873209	0.000476	4.763476	1.613909	0.000191
 123	1.2139e+01	4.8496	17.038731	0.000416	4.155373	1.407878	0.000166
 124	1.2239e+01	4.8913	17.180031	0.000355	3.547269	1.201847	0.000142
 125	1.2338e+01	4.9298	17.305182	0.000314	3.141867	1.064493	0.000126
 126	1.2438e+01	4.9667	17.486853	0.000456	4.560775	1.545232	0.000183
 127	1.2537e+01	5.0116	17.656413	0.000426	4.256723	1.442217	0.000170
 128	1.2636e+01	5.0501	17.817899	0.000405	4.054022	1.373540	0.000162
 129	1.2736e+01	5.0870	17.918827	0.000253	2.533764	0.858462	0.000101
 130	1.2835e+01	5.1303	18.080312	0.000405	4.054022	1.373540	0.000162
 131	1.2935e+01	5.1737	18.241798	0.000405	4.054022	1.373540	0.000162
 132	1.3034e+01	5.2073	18.395209	0.000385	3.851321	1.304863	0.000154
 133	1.3134e+01	5.2458	18.556694	0.000405	4.054022	1.373540	0.000162
 134	1.3233e+01	5.2811	18.673771	0.000294	2.939166	0.995816	0.000118
 135	1.3333e+01	5.3309	18.879665	0.000517	5.168878	1.751263	0.000207
 136	1.3432e+01	5.3662	19.029039	0.000375	3.749970	1.270524	0.000150
 137	1.3532e+01	5.4047	19.158228	0.000324	3.243218	1.098832	0.000130
 138	1.3632e+01	5.4400	19.319713	0.000405	4.054022	1.373540	0.000162
 139	1.3731e+01	5.4817	19.469087	0.000375	3.749970	1.270524	0.000150
 140	1.3831e+01	5.5218	19.610387	0.000355	3.547269	1.201847	0.000142
 141	1.3930e+01	5.5699	19.771872	0.000405	4.054022	1.373540	0.000162
 142	1.4030e+01	5.6052	19.921246	0.000375	3.749970	1.270524	0.000150
 143	1.4129e+01	5.6437	20.074657	0.000385	3.851321	1.304863	0.000154
 144	1.4229e+01	5.6854	20.232106	0.000395	3.952671	1.339201	0.000158
 145	1.4328e+01	5.7159	20.413777	0.000456	4.560775	1.545232	0.000183
 146	1.4428e+01	5.7672	20.514705	0.000253	2.533764	0.858462	0.000101
 147	1.4527e+01	5.8009	20.664079	0.000375	3.749970	1.270524	0.000150
 148	1.4627e+01	5.8394	20.813453	0.000375	3.749970	1.270524	0.000150
 149	1.4726e+01	5.8907	20.978976	0.000416	4.155373	1.407878	0.000166
 150	1.4825e+01	5.9228	21.144498	0.000416	4.155373	1.407878	0.000166
 151	1.4925e+01	5.9581	21.253501	0.000274	2.736465	0.927139	0.000110
 152	1.5024e+01	6.0046	21.447284	0.000486	4.864826	1.648248	0.000195
 153	1.5124e+01	6.0480	21.588583	0.000355	3.547269	1.201847	0.000142
 154	1.5223e+01	6.0865	21.721809	0.000334	3.344568	1.133170	0.000134
 155	1.5323e+01	6.1282	21.915591	0.000486	4.864826	1.648248	0.000195
 156	1.5422e+01	6.1619	21.984223	0.000172	1.722959	0.583754	0.000069
 157	1.5522e+01	6.1972	22.133597	0.000375	3.749970	1.270524	0.000150
 158	1.5621e+01	6.2517	22.315268	0.000456	4.560775	1.545232	0.000183
 159	1.5721e+01	6.2806	22.416196	0.000253	2.533764	0.858462	0.000101
 160	1.5820e+01	6.3255	22.618053	0.000507	5.067527	1.716925	0.000203
 161	1.5920e+01	6.3640	22.771464	0.000385	3.851321	1.304863	0.000154
 162	1.6020e+01	6.3993	22.904690	0.000334	3.344568	1.133170	0.000134
 163	1.6119e+01	6.4458	23.041952	0.000345	3.445919	1.167509	0.000138
 164	1.6218e+01	6.4763	23.171141	0.000324	3.243218	1.098832	0.000130
 165	1.6318e+01	6.5196	23.320515	0.000375	3.749970	1.270524	0.000150
 166	1.6418e+01	6.5629	23.473926	0.000385	3.851321	1.304863	0.000154
 167	1.6517e+01	6.6014	23.651560	0.000446	4.459424	1.510894	0.000179
 168	1.6616e+01	6.6431	23.784785	0.000334	3.344568	1.133170	0.000134
 169	1.6716e+01	6.6720	23.901862	0.000294	2.939166	0.995816	0.000118
 170	1.6816e+01	6.7217	24.095645	0.000486	4.864826	1.648248	0.000195
 171	1.6915e+01	6.7602	24.204647	0.000274	2.736465	0.927139	0.000110
 172	1.7015e+01	6.8019	24.378244	0.000436	4.358074	1.476555	0.000174
 173	1.7114e+01	6.8437	24.515507	0.000345	3.445919	1.167509	0.000138
 174	1.7213e+01	6.8725	24.652769	0.000345	3.445919	1.167509	0.000138
 175	1.7313e+01	6.9158	24.822329	0.000426	4.256723	1.442217	0.000170
 176	1.7413e+01	6.9640	24.971703	0.000375	3.749970	1.270524	0.000150
 177	1.7512e+01	6.9961	25.084743	0.000284	2.837815	0.961478	0.000114
 178	1.7611e+01	7.0394	25.230080	0.000365	3.648620	1.236186	0.000146
 179	1.7711e+01	7.0779	25.371380	0.000355	3.547269	1.201847	0.000142
 180	1.7811e+01	7.1164	25.504605	0.000334	3.344568	1.133170	0.000134
 181	1.7910e+01	7.1549	25.629756	0.000314	3.141867	1.064493	0.000126
 182	1.8009e+01	7.2030	25.771056	0.000355	3.547269	1.201847	0.000142
 183	1.8109e+01	7.2383	25.956764	0.000466	4.662125	1.579571	0.000187
 184	1.8209e+01	7.2784	26.089990	0.000334	3.344568	1.133170	0.000134
 185	1.8308e+01	7.3217	26.251475	0.000405	4.054022	1.373540	0.000162
 186	1.8407e+01	7.3602	26.404886	0.000385	3.851321	1.304863	0.000154
 187	1.8507e+01	7.3955	26.538112	0.000334	3.344568	1.133170	0.000134
 188	1.8607e+01	7.4372	26.679412	0.000355	3.547269	1.201847	0.000142
 189	1.8706e+01	7.4805	26.816674	0.000345	3.445919	1.167509	0.000138
 190	1.8805e+01	7.5271	26.941825	0.000314	3.141867	1.064493	0.000126
 191	1.8905e+01	7.5527	27.107348	0.000416	4.155373	1.407878	0.000166
 192	1.9005e+01	7.5896	27.268833	0.000405	4.054022	1.373540	0.000162
 193	1.9104e+01	7.6474	27.442430	0.000436	4.358074	1.476555	0.000174
 194	1.9203e+01	7.6779	27.543359	0.000253	2.533764	0.858462	0.000101
 195	1.9303e+01	7.7132	27.704844	0.000405	4.054022	1.373540	0.000162
 196	1.9402e+01	7.7661	27.854218	0.000375	3.749970	1.270524	0.000150
 197	1.9502e+01	7.7966	28.007629	0.000385	3.851321	1.304863	0.000154
 198	1.9602e+01	7.8415	28.165077	0.000395	3.952671	1.339201	0.000158
 199	1.9701e+01	7.8768	28.302340	0.000345	3.445919	1.167509	0.000138
 200	1.9800e+01	7.9185	28.411343	0.000274	2.736465	0.927139	0.000110
 201	1.9900e+01	7.9554	28.552643	0.000355	3.547269	1.201847	0.000142
 202	2.0000e+01	8.0003	28.718165	0.000416	4.155373	1.407878	0.000166
 203	2.0099e+01	8.0372	28.839279	0.000304	3.040516	1.030155	0.000122
 204	2.0198e+01	8.0741	28.952319	0.000284	2.837815	0.961478	0.000114
 205	2.0298e+01	8.1174	29.129953	0.000446	4.459424	1.510894	0.000179
 206	2.0398e+01	8.1463	29.247030	0.000294	2.939166	0.995816	0.000118
 207	2.0497e+01	8.1928	29.424664	0.000446	4.459424	1.510894	0.000179
 208	2.0596e+01	8.2393	29.570001	0.000365	3.648620	1.236186	0.000146
 209	2.0696e+01	8.2746	29.711300	0.000355	3.547269	1.201847	0.000142
 210	2.0796e+01	8.3147	29.888934	0.000446	4.459424	1.510894	0.000179
 211	2.0895e+01	8.3564	29.981789	0.000233	2.331063	0.789785	0.000093
 212	2.0994e+01	8.3885	30.147311	0.000416	4.155373	1.407878	0.000166
 213	2.1094e+01	8.4399	30.292648	0.000365	3.648620	1.236186	0.000146
 214	2.1194e+01	8.4655	30.425873	0.000334	3.344568	1.133170	0.000134
 215	2.1293e+01	8.5169	30.571210	0.000365	3.648620	1.236186	0.000146
 216	2.1392e+01	8.5602	30.732696	0.000405	4.054022	1.373540	0.000162
 217	2.1492e+01	8.5907	30.841698	0.000274	2.736465	0.927139	0.000110
 218	2.1591e+01	8.6388	30.982998	0.000355	3.547269	1.201847	0.000142
 219	2.1691e+01	8.6629	31.120261	0.000345	3.445919	1.167509	0.000138
 220	2.1791e+01	8.7126	31.318080	0.000497	4.966177	1.682586	0.000199
 221	2.1890e+01	8.7511	31.406897	0.000223	2.229712	0.755447	0.000089
 222	2.1989e+01	8.7864	31.540123	0.000334	3.344568	1.133170	0.000134
 223	2.2089e+01	8.8217	31.685460	0.000365	3.648620	1.236186	0.000146
 224	2.2189e+01	8.8794	31.842908	0.000395	3.952671	1.339201	0.000158
 225	2.2288e+01	8.9099	32.008431	0.000416	4.155373	1.407878	0.000166
 226	2.2387e+01	8.9484	32.157805	0.000375	3.749970	1.270524	0.000150
 227	2.2487e+01	8.9917	32.246622	0.000223	2.229712	0.755447	0.000089
 228	2.2587e+01	9.0382	32.420219	0.000436	4.358074	1.476555	0.000174
 229	2.2686e+01	9.0671	32.565555	0.000365	3.648620	1.236186	0.000146
 230	2.2785e+01	9.1169	32.727041	0.000405	4.054022	1.373540	0.000162
 231	2.2885e+01	9.1554	32.848155	0.000304	3.040516	1.030155	0.000122
 232	2.2985e+01	9.1858	32.969269	0.000304	3.040516	1.030155	0.000122
 233	2.3084e+01	9.2308	33.146903	0.000446	4.459424	1.510894	0.000179
 234	2.3183e+01	9.2725	33.280128	0.000334	3.344568	1.133170	0.000134
 235	2.3283e+01	9.3013	33.389131	0.000274	2.736465	0.927139	0.000110
 236	2.3383e+01	9.3463	33.558691	0.000426	4.256723	1.442217	0.000170
 237	2.3482e+01	9.3944	33.687879	0.000324	3.243218	1.098832	0.000130
 238	2.3581e+01	9.4329	33.817068	0.000324	3.243218	1.098832	0.000130
 239	2.3681e+01	9.4570	33.958367	0.000355	3.547269	1.201847	0.000142
 240	2.3780e+01	9.5147	34.071407	0.000284	2.837815	0.961478	0.000114
 241	2.3880e+01	9.5500	34.265190	0.000486	4.864826	1.648248	0.000195
 242	2.3980e+01	9.5853	34.402452	0.000345	3.445919	1.167509	0.000138
 243	2.4079e+01	9.6382	34.491269	0.000223	2.229712	0.755447	0.000089
 244	2.4178e+01	9.6767	34.664866	0.000436	4.358074	1.476555	0.000174
 245	2.4278e+01	9.7184	34.810203	0.000365	3.648620	1.236186	0.000146
 246	2.4378e+01	9.7473	34.927280	0.000294	2.939166	0.995816	0.000118
 247	2.4477e+01	9.7810	35.084728	0.000395	3.952671	1.339201	0.000158
 248	2.4576e+01	9.8291	35.234102	0.000375	3.749970	1.270524	0.000150
 249	2.4676e+01	9.8644	35.359253	0.000314	3.141867	1.064493	0.000126
 250	2.4776e+01	9.9093	35.512665	0.000385	3.851321	1.304863	0.000154
 251	2.4875e+01	9.9414	35.629741	0.000294	2.939166	0.995816	0.000118
 252	2.4974e+01	9.9912	35.762967	0.000334	3.344568	1.133170	0.000134
 253	2.5074e+01	10.0297	35.880044	0.000294	2.939166	0.995816	0.000118
 254	2.5174e+01	10.0714	36.013269	0.000334	3.344568	1.133170	0.000134
 255	2.5273e+01	10.1147	36.146495	0.000334	3.344568	1.133170	0.000134
 256	2.5372e+01	10.1468	36.271646	0.000314	3.141867	1.064493	0.000126
 257	2.5472e+01	10.1853	36.433131	0.000405	4.054022	1.373540	0.000162
 258	2.5572e+01	10.2254	36.566357	0.000334	3.344568	1.133170	0.000134
 259	2.5671e+01	10.2671	36.723805	0.000395	3.952671	1.339201	0.000158
 260	2.5770e+01	10.3136	36.836845	0.000284	2.837815	0.961478	0.000114
 261	2.5870e+01	10.3329	36.961996	0.000314	3.141867	1.064493	0.000126
 262	2.5970e+01	10.3842	37.119445	0.000395	3.952671	1.339201	0.000158
 263	2.6069e+01	10.4307	37.256707	0.000345	3.445919	1.167509	0.000138
 264	2.6169e+01	10.4660	37.369747	0.000284	2.837815	0.961478	0.000114
 265	2.6268e+01	10.5045	37.519121	0.000375	3.749970	1.270524	0.000150
 266	2.6367e+01	10.5559	37.672532	0.000385	3.851321	1.304863	0.000154
 267	2.6467e+01	10.5863	37.773461	0.000253	2.533764	0.858462	0.000101
 268	2.6567e+01	10.6248	37.951095	0.000446	4.459424	1.510894	0.000179
 269	2.6666e+01	10.6585	38.084320	0.000334	3.344568	1.133170	0.000134
 270	2.6765e+01	10.7018	38.185248	0.000253	2.533764	0.858462	0.000101
 271	2.6865e+01	10.7452	38.322511	0.000345	3.445919	1.167509	0.000138
 272	2.6965e+01	10.7837	38.488034	0.000416	4.155373	1.407878	0.000166
 273	2.7064e+01	10.8302	38.609148	0.000304	3.040516	1.030155	0.000122
 274	2.7163e+01	10.8687	38.718150	0.000274	2.736465	0.927139	0.000110
 275	2.7263e+01	10.9056	38.887710	0.000426	4.256723	1.442217	0.000170
 276	2.7363e+01	10.9345	39.008824	0.000304	3.040516	1.030155	0.000122
 277	2.7462e+01	10.9858	39.093604	0.000213	2.128362	0.721108	0.000085
 278	2.7561e+01	11.0259	39.234904	0.000355	3.547269	1.201847	0.000142
 279	2.7661e+01	11.0660	39.372166	0.000345	3.445919	1.167509	0.000138
 280	2.7761e+01	11.1029	39.513466	0.000355	3.547269	1.201847	0.000142
 281	2.7860e+01	11.1542	39.670914	0.000395	3.952671	1.339201	0.000158
 282	2.7959e+01	11.1767	39.783954	0.000284	2.837815	0.961478	0.000114
 283	2.8059e+01	11.2264	39.901031	0.000294	2.939166	0.995816	0.000118
 284	2.8159e+01	11.2681	40.038294	0.000345	3.445919	1.167509	0.000138
 285	2.8258e+01	11.3050	40.171519	0.000334	3.344568	1.133170	0.000134
 286	2.8358e+01	11.3355	40.288596	0.000294	2.939166	0.995816	0.000118
 287	2.8457e+01	11.3772	40.425859	0.000345	3.445919	1.167509	0.000138
 288	2.8556e+01	11.4253	40.567158	0.000355	3.547269	1.201847	0.000142
 289	2.8656e+01	11.4622	40.700384	0.000334	3.344568	1.133170	0.000134
 290	2.8756e+01	11.5040	40.777090	0.000193	1.925660	0.652431	0.000077
 291	2.8855e+01	11.5425	40.926464	0.000375	3.749970	1.270524	0.000150
 292	2.8954e+01	11.5777	41.067763	0.000355	3.547269	1.201847	0.000142
 293	2.9054e+01	11.6211	41.188877	0.000304	3.040516	1.030155	0.000122
 294	2.9154e+01	11.6676	41.314029	0.000314	3.141867	1.064493	0.000126
 295	2.9253e+01	11.6981	41.455328	0.000355	3.547269	1.201847	0.000142
 296	2.9352e+01	11.7462	41.584517	0.000324	3.243218	1.098832	0.000130
 297	2.9452e+01	11.7815	41.725816	0.000355	3.547269	1.201847	0.000142
 298	2.9552e+01	11.8168	41.855005	0.000324	3.243218	1.098832	0.000130
 299	2.9651e+01	11.8585	41.968045	0.000284	2.837815	0.961478	0.000114
 300	2.9750e+01	11.9082	42.073010	0.000264	2.635114	0.892801	0.000105
 301	2.9850e+01	11.9323	42.226421	0.000385	3.851321	1.304863	0.000154
 302	2.9950e+01	11.9868	42.351572	0.000314	3.141867	1.064493	0.000126
 303	3.0049e+01	12.0141	42.460575	0.000274	2.736465	0.927139	0.000110
 304	3.0148e+01	12.0542	42.597838	0.000345	3.445919	1.167509	0.000138
 305	3.0248e+01	12.1039	42.727026	0.000324	3.243218	1.098832	0.000130
 306	3.0348e+01	12.1296	42.880437	0.000385	3.851321	1.304863	0.000154
 307	3.0447e+01	12.1858	42.945031	0.000162	1.621609	0.549416	0.000065
 308	3.0547e+01	12.2210	43.094405	0.000375	3.749970	1.270524	0.000150
 309	3.0646e+01	12.2644	43.203408	0.000274	2.736465	0.927139	0.000110
 310	3.0745e+01	12.3029	43.304336	0.000253	2.533764	0.858462	0.000101
 311	3.0845e+01	12.3494	43.473896	0.000426	4.256723	1.442217	0.000170
 312	3.0945e+01	12.3815	43.611159	0.000345	3.445919	1.167509	0.000138
 313	3.1044e+01	12.4184	43.704013	0.000233	2.331063	0.789785	0.000093
 314	3.1143e+01	12.4617	43.837238	0.000334	3.344568	1.133170	0.000134
 315	3.1243e+01	12.4890	43.946241	0.000274	2.736465	0.927139	0.000110
 316	3.1343e+01	12.5435	44.071392	0.000314	3.141867	1.064493	0.000126
 317	3.1442e+01	12.5884	44.220766	0.000375	3.749970	1.270524	0.000150
 318	3.1541e+01	12.6141	44.285360	0.000162	1.621609	0.549416	0.000065
 319	3.1641e+01	12.6574	44.430697	0.000365	3.648620	1.236186	0.000146
 320	3.1741e+01	12.7007	44.592183	0.000405	4.054022	1.373540	0.000162
 321	3.1840e+01	12.7440	44.668888	0.000193	1.925660	0.652431	0.000077
 322	3.1939e+01	12.7777	44.826337	0.000395	3.952671	1.339201	0.000158
 323	3.2039e+01	12.8114	44.935339	0.000274	2.736465	0.927139	0.000110
 324	3.2139e+01	12.8595	45.088750	0.000385	3.851321	1.304863	0.000154
 325	3.2238e+01	12.9061	45.141233	0.000132	1.317557	0.446400	0.000053
 326	3.2337e+01	12.9285	45.270422	0.000324	3.243218	1.098832	0.000130
 327	3.2437e+01	12.9718	45.431907	0.000405	4.054022	1.373540	0.000162
 328	3.2536e+01	13.0055	45.553021	0.000304	3.040516	1.030155	0.000122
 329	3.2636e+01	13.0569	45.670098	0.000294	2.939166	0.995816	0.000118
 330	3.2736e+01	13.0970	45.771026	0.000253	2.533764	0.858462	0.000101
 331	3.2835e+01	13.1419	45.916363	0.000365	3.648620	1.236186	0.000146
 332	3.2934e+01	13.1804	46.033440	0.000294	2.939166	0.995816	0.000118
 333	3.3034e+01	13.2189	46.138406	0.000264	2.635114	0.892801	0.000105
 334	3.3133e+01	13.2526	46.279706	0.000355	3.547269	1.201847	0.000142
 335	3.3233e+01	13.2879	46.368523	0.000223	2.229712	0.755447	0.000089
 336	3.3333e+01	13.3312	46.469451	0.000253	2.533764	0.858462	0.000101
 337	3.3432e+01	13.3697	46.639011	0.000426	4.256723	1.442217	0.000170
 338	3.3532e+01	13.4114	46.768199	0.000324	3.243218	1.098832	0.000130
 339	3.3631e+01	13.4531	46.881239	0.000284	2.837815	0.961478	0.000114
 340	3.3730e+01	13.4964	46.986204	0.000264	2.635114	0.892801	0.000105
 341	3.3830e+01	13.5317	47.123467	0.000345	3.445919	1.167509	0.000138
 342	3.3929e+01	13.5638	47.264767	0.000355	3.547269	1.201847	0.000142
 343	3.4029e+01	13.6119	47.365695	0.000253	2.533764	0.858462	0.000101
 344	3.4129e+01	13.6600	47.494883	0.000324	3.243218	1.098832	0.000130
 345	3.4228e+01	13.6873	47.607923	0.000284	2.837815	0.961478	0.000114
 346	3.4328e+01	13.7274	47.720963	0.000284	2.837815	0.961478	0.000114
 347	3.4427e+01	13.7707	47.821891	0.000253	2.533764	0.858462	0.000101
 348	3.4526e+01	13.8124	47.918783	0.000243	2.432413	0.824124	0.000097
 349	3.4626e+01	13.8526	48.072194	0.000385	3.851321	1.304863	0.000154
 350	3.4725e+01	13.8862	48.205419	0.000334	3.344568	1.133170	0.000134
 351	3.4825e+01	13.9279	48.306348	0.000253	2.533764	0.858462	0.000101
 352	3.4925e+01	13.9745	48.443610	0.000345	3.445919	1.167509	0.000138
 353	3.5024e+01	14.0162	48.548576	0.000264	2.635114	0.892801	0.000105
 354	3.5123e+01	14.0467	48.673727	0.000314	3.141867	1.064493	0.000126
 355	3.5223e+01	14.0900	48.730247	0.000142	1.418908	0.480739	0.000057
 356	3.5322e+01	14.1349	48.899807	0.000426	4.256723	1.442217	0.000170
 357	3.5422e+01	14.1750	49.024958	0.000314	3.141867	1.064493	0.000126
 358	3.5522e+01	14.2023	49.142035	0.000294	2.939166	0.995816	0.000118
 359	3.5621e+01	14.2488	49.259112	0.000294	2.939166	0.995816	0.000118
 360	3.5721e+01	14.2905	49.420597	0.000405	4.054022	1.373540	0.000162
 361	3.5820e+01	14.3242	49.505377	0.000213	2.128362	0.721108	0.000085
 362	3.5919e+01	14.3755	49.590157	0.000213	2.128362	0.721108	0.000085
 363	3.6019e+01	14.4172	49.771828	0.000456	4.560775	1.545232	0.000183
 364	3.6118e+01	14.4509	49.808162	0.000091	0.912155	0.309046	0.000037
 365	3.6218e+01	14.4894	49.965610	0.000395	3.952671	1.339201	0.000158
 366	3.6318e+01	14.5247	50.110947	0.000365	3.648620	1.236186	0.000146
 367	3.6417e+01	14.5680	50.207839	0.000243	2.432413	0.824124	0.000097
 368	3.6517e+01	14.6065	50.337027	0.000324	3.243218	1.098832	0.000130
 369	3.6616e+01	14.6322	50.470252	0.000334	3.344568	1.133170	0.000134
 370	3.6715e+01	14.6996	50.542921	0.000182	1.824310	0.618093	0.000073
 371	3.6815e+01	14.7269	50.684221	0.000355	3.547269	1.201847	0.000142
 372	3.6914e+01	14.7702	50.813409	0.000324	3.243218	1.098832	0.000130
 373	3.7014e+01	14.8135	50.930486	0.000294	2.939166	0.995816	0.000118
 374	3.7114e+01	14.8552	51.071786	0.000355	3.547269	1.201847	0.000142
 375	3.7213e+01	14.8841	51.152528	0.000203	2.027011	0.686770	0.000081
 376	3.7313e+01	14.9274	51.301902	0.000375	3.749970	1.270524	0.000150
 377	3.7412e+01	14.9707	51.418979	0.000294	2.939166	0.995816	0.000118
 378	3.7511e+01	15.0044	51.499722	0.000203	2.027011	0.686770	0.000081
 379	3.7611e+01	15.0477	51.645059	0.000365	3.648620	1.236186	0.000146
 380	3.7711e+01	15.0862	51.786359	0.000355	3.547269	1.201847	0.000142
 381	3.7810e+01	15.1231	51.850953	0.000162	1.621609	0.549416	0.000065
 382	3.7910e+01	15.1696	51.988215	0.000345	3.445919	1.167509	0.000138
 383	3.8009e+01	15.2065	52.117404	0.000324	3.243218	1.098832	0.000130
 384	3.8108e+01	15.2370	52.198147	0.000203	2.027011	0.686770	0.000081
 385	3.8208e+01	15.2803	52.335409	0.000345	3.445919	1.167509	0.000138
 386	3.8307e+01	15.3236	52.440375	0.000264	2.635114	0.892801	0.000105
 387	3.8407e+01	15.3750	52.581674	0.000355	3.547269	1.201847	0.000142
 388	3.8507e+01	15.4038	52.698751	0.000294	2.939166	0.995816	0.000118
 389	3.8606e+01	15.4375	52.827940	0.000324	3.243218	1.098832	0.000130
 390	3.8706e+01	15.4905	52.916757	0.000223	2.229712	0.755447	0.000089
 391	3.8805e+01	15.5258	53.058056	0.000355	3.547269	1.201847	0.000142
 392	3.8904e+01	15.5611	53.150911	0.000233	2.331063	0.789785	0.000093
 393	3.9004e+01	15.6140	53.304322	0.000385	3.851321	1.304863	0.000154
 394	3.9103e+01	15.6493	53.397176	0.000233	2.331063	0.789785	0.000093
 395	3.9203e+01	15.6782	53.514253	0.000294	2.939166	0.995816	0.000118
 396	3.9303e+01	15.7199	53.635367	0.000304	3.040516	1.030155	0.000122
 397	3.9402e+01	15.7600	53.788778	0.000385	3.851321	1.304863	0.000154
 398	3.9502e+01	15.8097	53.897781	0.000274	2.736465	0.927139	0.000110
 399	3.9601e+01	15.8418	54.014858	0.000294	2.939166	0.995816	0.000118
 400	3.9700e+01	15.8883	54.103675	0.000223	2.229712	0.755447	0.000089
 401	3.9800e+01	15.9268	54.232863	0.000324	3.243218	1.098832	0.000130
 402	3.9900e+01	15.9637	54.325717	0.000233	2.331063	0.789785	0.000093
 403	3.9999e+01	16.0022	54.483165	0.000395	3.952671	1.339201	0.000158
 404	4.0099e+01	16.0584	54.567945	0.000213	2.128362	0.721108	0.000085
 405	4.0198e+01	16.0856	54.697134	0.000324	3.243218	1.098832	0.000130
 406	4.0297e+01	16.1241	54.818248	0.000304	3.040516	1.030155	0.000122
 407	4.0397e+01	16.1594	54.923213	0.000264	2.635114	0.892801	0.000105
 408	4.0496e+01	16.1979	55.028179	0.000264	2.635114	0.892801	0.000105
 409	4.0596e+01	16.2509	55.173516	0.000365	3.648620	1.236186	0.000146
 410	4.0696e+01	16.2878	55.290593	0.000294	2.939166	0.995816	0.000118
 411	4.0795e+01	16.3118	55.363261	0.000182	1.824310	0.618093	0.000073
 412	4.0895e+01	16.3519	55.520709	0.000395	3.952671	1.339201	0.000158
 413	4.0994e+01	16.3953	55.625675	0.000264	2.635114	0.892801	0.000105
 414	4.1093e+01	16.4450	55.702380	0.000193	1.925660	0.652431	0.000077
 415	4.1193e+01	16.4787	55.847717	0.000365	3.648620	1.236186	0.000146
 416	4.1292e+01	16.5172	56.005166	0.000395	3.952671	1.339201	0.000158
 417	4.1392e+01	16.5573	56.061685	0.000142	1.418908	0.480739	0.000057
 418	4.1492e+01	16.6022	56.194911	0.000334	3.344568	1.133170	0.000134
 419	4.1591e+01	16.6439	56.295839	0.000253	2.533764	0.858462	0.000101
 420	4.1691e+01	16.6872	56.429065	0.000334	3.344568	1.133170	0.000134
 421	4.1790e+01	16.7161	56.517882	0.000223	2.229712	0.755447	0.000089
 422	4.1889e+01	16.7626	56.614773	0.000243	2.432413	0.824124	0.000097
 423	4.1989e+01	16.7979	56.739924	0.000314	3.141867	1.064493	0.000126
 424	4.2089e+01	16.8380	56.909484	0.000426	4.256723	1.442217	0.000170
 425	4.2188e+01	16.8829	56.961967	0.000132	1.317557	0.446400	0.000053
 426	4.2288e+01	16.9118	57.099229	0.000345	3.445919	1.167509	0.000138
 427	4.2387e+01	16.9519	57.228418	0.000324	3.243218	1.098832	0.000130
 428	4.2486e+01	16.9985	57.337420	0.000274	2.736465	0.927139	0.000110
 429	4.2586e+01	17.0370	57.422200	0.000213	2.128362	0.721108	0.000085
 430	4.2685e+01	17.0706	57.531203	0.000274	2.736465	0.927139	0.000110
 431	4.2785e+01	17.1172	57.676540	0.000365	3.648620	1.236186	0.000146
 432	4.2885e+01	17.1621	57.781505	0.000264	2.635114	0.892801	0.000105
 433	4.2984e+01	17.1894	57.854174	0.000182	1.824310	0.618093	0.000073
 434	4.3084e+01	17.2503	57.991436	0.000345	3.445919	1.167509	0.000138
 435	4.3183e+01	17.2696	58.112550	0.000304	3.040516	1.030155	0.000122
 436	4.3282e+01	17.3257	58.213479	0.000253	2.533764	0.858462	0.000101
 437	4.3382e+01	17.3530	58.318444	0.000264	2.635114	0.892801	0.000105
 438	4.3481e+01	17.3979	58.463781	0.000365	3.648620	1.236186	0.000146
 439	4.3581e+01	17.4396	58.597007	0.000334	3.344568	1.133170	0.000134
 440	4.3681e+01	17.4653	58.645452	0.000122	1.216207	0.412062	0.000049
 441	4.3780e+01	17.5278	58.827123	0.000456	4.560775	1.545232	0.000183
 442	4.3880e+01	17.5503	58.915940	0.000223	2.229712	0.755447	0.000089
 443	4.3979e+01	17.5952	59.004757	0.000223	2.229712	0.755447	0.000089
 444	4.4078e+01	17.6385	59.113760	0.000274	2.736465	0.927139	0.000110
 445	4.4178e+01	17.6770	59.190466	0.000193	1.925660	0.652431	0.000077
 446	4.4278e+01	17.7123	59.335803	0.000365	3.648620	1.236186	0.000146
 447	4.4377e+01	17.7653	59.428657	0.000233	2.331063	0.789785	0.000093
 448	4.4477e+01	17.7942	59.533622	0.000264	2.635114	0.892801	0.000105
 449	4.4576e+01	17.8359	59.650699	0.000294	2.939166	0.995816	0.000118
 450	4.4675e+01	17.8744	59.779887	0.000324	3.243218	1.098832	0.000130
 451	4.4775e+01	17.9241	59.884853	0.000264	2.635114	0.892801	0.000105
 452	4.4874e+01	17.9578	60.018078	0.000334	3.344568	1.133170	0.000134
 453	4.4974e+01	17.9963	60.114970	0.000243	2.432413	0.824124	0.000097
 454	4.5074e+01	18.0396	60.207824	0.000233	2.331063	0.789785	0.000093
 455	4.5173e+01	18.0749	60.288567	0.000203	2.027011	0.686770	0.000081
 456	4.5273e+01	18.1102	60.385458	0.000243	2.432413	0.824124	0.000097
 457	4.5372e+01	18.1567	60.546943	0.000405	4.054022	1.373540	0.000162
 458	4.5471e+01	18.2016	60.631723	0.000213	2.128362	0.721108	0.000085
 459	4.5571e+01	18.2385	60.728614	0.000243	2.432413	0.824124	0.000097
 460	4.5670e+01	18.2786	60.873951	0.000365	3.648620	1.236186	0.000146
 461	4.5770e+01	18.3139	60.922397	0.000122	1.216207	0.412062	0.000049
 462	4.5870e+01	18.3524	61.035437	0.000284	2.837815	0.961478	0.000114
 463	4.5969e+01	18.3957	61.176736	0.000355	3.547269	1.201847	0.000142
 464	4.6069e+01	18.4294	61.265553	0.000223	2.229712	0.755447	0.000089
 465	4.6168e+01	18.4727	61.354370	0.000223	2.229712	0.755447	0.000089
 466	4.6267e+01	18.5209	61.503744	0.000375	3.749970	1.270524	0.000150
 467	4.6367e+01	18.5513	61.576413	0.000182	1.824310	0.618093	0.000073
 468	4.6467e+01	18.5915	61.681378	0.000264	2.635114	0.892801	0.000105
 469	4.6566e+01	18.6316	61.786344	0.000264	2.635114	0.892801	0.000105
 470	4.6666e+01	18.6765	61.891309	0.000264	2.635114	0.892801	0.000105
 471	4.6765e+01	18.7102	62.008386	0.000294	2.939166	0.995816	0.000118
 472	4.6864e+01	18.7471	62.145649	0.000345	3.445919	1.167509	0.000138
 473	4.6964e+01	18.7920	62.198132	0.000132	1.317557	0.446400	0.000053
 474	4.7063e+01	18.8337	62.335394	0.000345	3.445919	1.167509	0.000138
 475	4.7163e+01	18.8706	62.375766	0.000101	1.013505	0.343385	0.000041
 476	4.7263e+01	18.9107	62.517065	0.000355	3.547269	1.201847	0.000142
 477	4.7362e+01	18.9556	62.626068	0.000274	2.736465	0.927139	0.000110
 478	4.7462e+01	18.9829	62.739108	0.000284	2.837815	0.961478	0.000114
 479	4.7561e+01	19.0326	62.823888	0.000213	2.128362	0.721108	0.000085
 480	4.7660e+01	19.0663	62.928853	0.000264	2.635114	0.892801	0.000105
 481	4.7760e+01	19.1096	63.025745	0.000243	2.432413	0.824124	0.000097
 482	4.7859e+01	19.1545	63.130710	0.000264	2.635114	0.892801	0.000105
 483	4.7959e+01	19.1962	63.227601	0.000243	2.432413	0.824124	0.000097
 484	4.8059e+01	19.2380	63.320455	0.000233	2.331063	0.789785	0.000093
 485	4.8158e+01	19.2749	63.453681	0.000334	3.344568	1.133170	0.000134
 486	4.8258e+01	19.3118	63.550572	0.000243	2.432413	0.824124	0.000097
 487	4.8357e+01	19.3454	63.643426	0.000233	2.331063	0.789785	0.000093
 488	4.8456e+01	19.3904	63.752429	0.000274	2.736465	0.927139	0.000110
 489	4.8556e+01	19.4289	63.833172	0.000203	2.027011	0.686770	0.000081
 490	4.8656e+01	19.4609	63.942174	0.000274	2.736465	0.927139	0.000110
 491	4.8755e+01	19.5107	64.035029	0.000233	2.331063	0.789785	0.000093
 492	4.8855e+01	19.5476	64.135957	0.000253	2.533764	0.858462	0.000101
 493	4.8954e+01	19.5925	64.265145	0.000324	3.243218	1.098832	0.000130
 494	4.9053e+01	19.6246	64.345888	0.000203	2.027011	0.686770	0.000081
 495	4.9153e+01	19.6727	64.495262	0.000375	3.749970	1.270524	0.000150
 496	4.9252e+01	19.7128	64.547745	0.000132	1.317557	0.446400	0.000053
 497	4.9352e+01	19.7593	64.616376	0.000172	1.722959	0.583754	0.000069
 498	4.9452e+01	19.7834	64.761713	0.000365	3.648620	1.236186	0.000146
 499	4.9551e+01	19.8331	64.870716	0.000274	2.736465	0.927139	0.000110
 500	4.9651e+01	19.8604	64.955495	0.000213	2.128362	0.721108	0.000085
 501	4.9750e+01	19.8941	65.096795	0.000355	3.547269	1.201847	0.000142
 502	4.9849e+01	19.9502	65.153315	0.000142	1.418908	0.480739	0.000057
 503	4.9949e+01	19.9903	65.270392	0.000294	2.939166	0.995816	0.000118
 504	5.0048e+01	19.9567	65.181575	0.000223	2.229712	0.755447	-0.000089
 505	5.0148e+01	19.9005	65.129092	0.000132	1.317557	0.446400	-0.000053
 506	5.0248e+01	19.8684	65.060461	0.000172	1.722959	0.583754	-0.000069
 507	5.0347e+01	19.8267	64.955495	0.000264	2.635114	0.892801	-0.000105
 508	5.0447e+01	19.7850	64.878790	0.000193	1.925660	0.652431	-0.000077
 509	5.0546e+01	19.7481	64.761713	0.000294	2.939166	0.995816	-0.000118
 510	5.0645e+01	19.7144	64.689044	0.000182	1.824310	0.618093	-0.000073
 511	5.0745e+01	19.6502	64.584079	0.000264	2.635114	0.892801	-0.000105
 512	5.0844e+01	19.6166	64.503336	0.000203	2.027011	0.686770	-0.000081
 513	5.0944e+01	19.5877	64.414519	0.000223	2.229712	0.755447	-0.000089
 514	5.1044e+01	19.5492	64.301479	0.000284	2.837815	0.961478	-0.000114
 515	5.1143e+01	19.5027	64.232848	0.000172	1.722959	0.583754	-0.000069
 516	5.1242e+01	19.4706	64.168254	0.000162	1.621609	0.549416	-0.000065
 517	5.1342e+01	19.4289	64.039066	0.000324	3.243218	1.098832	-0.000130
 518	5.1441e+01	19.3855	63.990620	0.000122	1.216207	0.412062	-0.000049
 519	5.1541e+01	19.3551	63.869506	0.000304	3.040516	1.030155	-0.000122
 520	5.1641e+01	19.3085	63.821060	0.000122	1.216207	0.412062	-0.000049
 521	5.1740e+01	19.2749	63.712058	0.000274	2.736465	0.927139	-0.000110
 522	5.1840e+01	19.2348	63.623241	0.000223	2.229712	0.755447	-0.000089
 523	5.1939e+01	19.1850	63.526349	0.000243	2.432413	0.824124	-0.000097
 524	5.2038e+01	19.1577	63.445607	0.000203	2.027011	0.686770	-0.000081
 525	5.2138e+01	19.1112	63.332567	0.000284	2.837815	0.961478	-0.000114
 526	5.2237e+01	19.0711	63.284121	0.000122	1.216207	0.412062	-0.000049
 527	5.2337e+01	19.0358	63.134747	0.000375	3.749970	1.270524	-0.000150
 528	5.2437e+01	18.9957	63.058042	0.000193	1.925660	0.652431	-0.000077
 529	5.2536e+01	18.9524	62.965188	0.000233	2.331063	0.789785	-0.000093
 530	5.2636e+01	18.9187	62.864259	0.000253	2.533764	0.858462	-0.000101
 531	5.2735e+01	18.8642	62.775442	0.000223	2.229712	0.755447	-0.000089
 532	5.2834e+01	18.8353	62.714885	0.000152	1.520258	0.515077	-0.000061
 533	5.2934e+01	18.7904	62.601845	0.000284	2.837815	0.961478	-0.000114
 534	5.3033e+01	18.7535	62.504954	0.000243	2.432413	0.824124	-0.000097
 535	5.3133e+01	18.7134	62.412100	0.000233	2.331063	0.789785	-0.000093
 536	5.3233e+01	18.6669	62.307134	0.000264	2.635114	0.892801	-0.000105
 537	5.3332e+01	18.6332	62.234466	0.000182	1.824310	0.618093	-0.000073
 538	5.3431e+01	18.5979	62.137575	0.000243	2.432413	0.824124	-0.000097
 539	5.3531e+01	18.5513	62.032609	0.000264	2.635114	0.892801	-0.000105
 540	5.3630e+01	18.5161	61.947829	0.000213	2.128362	0.721108	-0.000085
 541	5.3730e+01	18.4776	61.867087	0.000203	2.027011	0.686770	-0.000081
 542	5.3830e+01	18.4358	61.774232	0.000233	2.331063	0.789785	-0.000093
 543	5.3929e+01	18.3957	61.653118	0.000304	3.040516	1.030155	-0.000122
 544	5.4029e+01	18.3508	61.600636	0.000132	1.317557	0.446400	-0.000053
 545	5.4128e+01	18.3059	61.519893	0.000203	2.027011	0.686770	-0.000081
 546	5.4227e+01	18.2706	61.386667	0.000334	3.344568	1.133170	-0.000134
 547	5.4327e+01	18.2257	61.297850	0.000223	2.229712	0.755447	-0.000089
 548	5.4426e+01	18.1872	61.213071	0.000213	2.128362	0.721108	-0.000085
 549	5.4526e+01	18.1583	61.152514	0.000152	1.520258	0.515077	-0.000061
 550	5.4626e+01	18.1150	61.039474	0.000284	2.837815	0.961478	-0.000114
 551	5.4725e+01	18.0749	60.942583	0.000243	2.432413	0.824124	-0.000097
 552	5.4825e+01	18.0252	60.841654	0.000253	2.533764	0.858462	-0.000101
 553	5.4924e+01	17.9995	60.748800	0.000233	2.331063	0.789785	-0.000093
 554	5.5023e+01	17.9530	60.659983	0.000223	2.229712	0.755447	-0.000089
 555	5.5123e+01	17.9193	60.510609	0.000375	3.749970	1.270524	-0.000150
 556	5.5222e+01	17.8728	60.470238	0.000101	1.013505	0.343385	-0.000041
 557	5.5322e+01	17.8310	60.357198	0.000284	2.837815	0.961478	-0.000114
 558	5.5422e+01	17.8102	60.264344	0.000233	2.331063	0.789785	-0.000093
 559	5.5521e+01	17.7605	60.159378	0.000264	2.635114	0.892801	-0.000105
 560	5.5620e+01	17.7139	60.110933	0.000122	1.216207	0.412062	-0.000049
 561	5.5720e+01	17.6802	60.010004	0.000253	2.533764	0.858462	-0.000101
 562	5.5819e+01	17.6369	59.884853	0.000314	3.141867	1.064493	-0.000126
 563	5.5919e+01	17.5952	59.783925	0.000253	2.533764	0.858462	-0.000101
 564	5.6019e+01	17.5535	59.723368	0.000152	1.520258	0.515077	-0.000061
 565	5.6118e+01	17.5230	59.622439	0.000253	2.533764	0.858462	-0.000101
 566	5.6218e+01	17.4749	59.517474	0.000264	2.635114	0.892801	-0.000105
 567	5.6317e+01	17.4316	59.428657	0.000223	2.229712	0.755447	-0.000089
 568	5.6416e+01	17.3867	59.327728	0.000253	2.533764	0.858462	-0.000101
 569	5.6516e+01	17.3578	59.251023	0.000193	1.925660	0.652431	-0.000077
 570	5.6615e+01	17.3225	59.182391	0.000172	1.722959	0.583754	-0.000069
 571	5.6715e+01	17.2808	59.033017	0.000375	3.749970	1.270524	-0.000150
 572	5.6815e+01	17.2439	58.988609	0.000111	1.114856	0.377723	-0.000045
 573	5.6914e+01	17.1942	58.879606	0.000274	2.736465	0.927139	-0.000110
 574	5.7014e+01	17.1637	58.762529	0.000294	2.939166	0.995816	-0.000118
 575	5.7113e+01	17.1156	58.661601	0.000253	2.533764	0.858462	-0.000101
 576	5.7212e+01	17.0787	58.592970	0.000172	1.722959	0.583754	-0.000069
 577	5.7312e+01	17.0434	58.459744	0.000334	3.344568	1.133170	-0.000134
 578	5.7411e+01	16.9985	58.379001	0.000203	2.027011	0.686770	-0.000081
 579	5.7511e+01	16.9696	58.253850	0.000314	3.141867	1.064493	-0.000126
 580	5.7611e+01	16.9166	58.152922	0.000253	2.533764	0.858462	-0.000101
 581	5.7710e+01	16.8813	58.100439	0.000132	1.317557	0.446400	-0.000053
 582	5.7809e+01	16.8460	58.003548	0.000243	2.432413	0.824124	-0.000097
 583	5.7909e+01	16.8027	57.890508	0.000284	2.837815	0.961478	-0.000114
 584	5.8008e+01	16.7562	57.801691	0.000223	2.229712	0.755447	-0.000089
 585	5.8108e+01	16.7161	57.708837	0.000233	2.331063	0.789785	-0.000093
 586	5.8208e+01	16.6888	57.587723	0.000304	3.040516	1.030155	-0.000122
 587	5.8307e+01	16.6391	57.498906	0.000223	2.229712	0.755447	-0.000089
 588	5.8407e+01	16.5990	57.385866	0.000284	2.837815	0.961478	-0.000114
 589	5.8506e+01	16.5653	57.276863	0.000274	2.736465	0.927139	-0.000110
 590	5.8605e+01	16.5300	57.159786	0.000294	2.939166	0.995816	-0.000118
 591	5.8705e+01	16.4803	57.115378	0.000111	1.114856	0.377723	-0.000045
 592	5.8804e+01	16.4434	56.974078	0.000355	3.547269	1.201847	-0.000142
 593	5.8904e+01	16.4017	56.901410	0.000182	1.824310	0.618093	-0.000073
 594	5.9004e+01	16.3584	56.772221	0.000324	3.243218	1.098832	-0.000130
 595	5.9103e+01	16.3167	56.711664	0.000152	1.520258	0.515077	-0.000061
 596	5.9203e+01	16.2749	56.582476	0.000324	3.243218	1.098832	-0.000130
 597	5.9302e+01	16.2461	56.469436	0.000284	2.837815	0.961478	-0.000114
 598	5.9401e+01	16.2011	56.404842	0.000162	1.621609	0.549416	-0.000065
 599	5.9501e+01	16.1642	56.275654	0.000324	3.243218	1.098832	-0.000130
 600	5.9600e+01	16.1177	56.202985	0.000182	1.824310	0.618093	-0.000073
 601	5.9700e+01	16.0872	56.061685	0.000355	3.547269	1.201847	-0.000142
 602	5.9800e+01	16.0375	55.964794	0.000243	2.432413	0.824124	-0.000097
 603	5.9899e+01	15.9958	55.900200	0.000162	1.621609	0.549416	-0.000065
 604	5.9998e+01	15.9605	55.803309	0.000243	2.432413	0.824124	-0.000097
 605	6.0098e+01	15.9220	55.694306	0.000274	2.736465	0.927139	-0.000110
 606	6.0197e+01	15.8883	55.589341	0.000264	2.635114	0.892801	-0.000105
 607	6.0297e+01	15.8498	55.484375	0.000264	2.635114	0.892801	-0.000105
 608	6.0397e+01	15.8049	55.371335	0.000284	2.837815	0.961478	-0.000114
 609	6.0496e+01	15.7664	55.278481	0.000233	2.331063	0.789785	-0.000093
 610	6.0596e+01	15.7247	55.173516	0.000264	2.635114	0.892801	-0.000105
 611	6.0695e+01	15.6846	55.092773	0.000203	2.027011	0.686770	-0.000081
 612	6.0794e+01	15.6477	54.967622	0.000314	3.141867	1.064493	-0.000126
 613	6.0894e+01	15.6060	54.862656	0.000264	2.635114	0.892801	-0.000105
 614	6.0993e+01	15.5691	54.753653	0.000274	2.736465	0.927139	-0.000110
 615	6.1093e+01	15.5258	54.672911	0.000203	2.027011	0.686770	-0.000081
 616	6.1193e+01	15.4873	54.580057	0.000233	2.331063	0.789785	-0.000093
 617	6.1292e+01	15.4520	54.475091	0.000264	2.635114	0.892801	-0.000105
 618	6.1392e+01	15.4119	54.366088	0.000274	2.736465	0.927139	-0.000110
 619	6.1491e+01	15.3637	54.220752	0.000365	3.648620	1.236186	-0.000146
 620	6.1590e+01	15.3284	54.144046	0.000193	1.925660	0.652431	-0.000077
 621	6.1690e+01	15.2755	54.031006	0.000284	2.837815	0.961478	-0.000114
 622	6.1789e+01	15.2402	53.942189	0.000223	2.229712	0.755447	-0.000089
 623	6.1889e+01	15.2033	53.821075	0.000304	3.040516	1.030155	-0.000122
 624	6.1989e+01	15.1680	53.744370	0.000193	1.925660	0.652431	-0.000077
 625	6.2088e+01	15.1247	53.599033	0.000365	3.648620	1.236186	-0.000146
 626	6.2188e+01	15.0830	53.494067	0.000264	2.635114	0.892801	-0.000105
 627	6.2287e+01	15.0429	53.425436	0.000172	1.722959	0.583754	-0.000069
 628	6.2386e+01	15.0108	53.272025	0.000385	3.851321	1.304863	-0.000154
 629	6.2486e+01	14.9739	53.187245	0.000213	2.128362	0.721108	-0.000085
 630	6.2586e+01	14.9274	53.037871	0.000375	3.749970	1.270524	-0.000150
 631	6.2685e+01	14.8873	52.965202	0.000182	1.824310	0.618093	-0.000073
 632	6.2785e+01	14.8504	52.868311	0.000243	2.432413	0.824124	-0.000097
 633	6.2884e+01	14.8039	52.743160	0.000314	3.141867	1.064493	-0.000126
 634	6.2983e+01	14.7654	52.638194	0.000264	2.635114	0.892801	-0.000105
 635	6.3083e+01	14.7269	52.549377	0.000223	2.229712	0.755447	-0.000089
 636	6.3182e+01	14.6948	52.440375	0.000274	2.736465	0.927139	-0.000110
 637	6.3282e+01	14.6531	52.343483	0.000243	2.432413	0.824124	-0.000097
 638	6.3382e+01	14.6114	52.210258	0.000334	3.344568	1.133170	-0.000134
 639	6.3481e+01	14.5648	52.101255	0.000274	2.736465	0.927139	-0.000110
 640	6.3581e+01	14.5279	52.016475	0.000213	2.128362	0.721108	-0.000085
 641	6.3680e+01	14.4862	51.895361	0.000304	3.040516	1.030155	-0.000122
 642	6.3779e+01	14.4525	51.774247	0.000304	3.040516	1.030155	-0.000122
 643	6.3879e+01	14.3996	51.661207	0.000284	2.837815	0.961478	-0.000114
 644	6.3978e+01	14.3707	51.552205	0.000274	2.736465	0.927139	-0.000110
 645	6.4078e+01	14.3274	51.427054	0.000314	3.141867	1.064493	-0.000126
 646	6.4177e+01	14.3001	51.305940	0.000304	3.040516	1.030155	-0.000122
 647	6.4277e+01	14.2504	51.200974	0.000264	2.635114	0.892801	-0.000105
 648	6.4376e+01	14.2087	51.096008	0.000264	2.635114	0.892801	-0.000105
 649	6.4476e+01	14.1702	50.995080	0.000253	2.533764	0.858462	-0.000101
 650	6.4576e+01	14.1301	50.845706	0.000375	3.749970	1.270524	-0.000150
 651	6.4675e+01	14.0804	50.756889	0.000223	2.229712	0.755447	-0.000089
 652	6.4775e+01	14.0547	50.631738	0.000314	3.141867	1.064493	-0.000126
 653	6.4874e+01	14.0066	50.522735	0.000274	2.736465	0.927139	-0.000110
 654	6.4974e+01	13.9745	50.389510	0.000334	3.344568	1.133170	-0.000134
 655	6.5073e+01	13.9392	50.349138	0.000101	1.013505	0.343385	-0.000041
 656	6.5172e+01	13.8927	50.228024	0.000304	3.040516	1.030155	-0.000122
 657	6.5272e+01	13.8429	50.078650	0.000375	3.749970	1.270524	-0.000150
 658	6.5371e+01	13.8076	49.969648	0.000274	2.736465	0.927139	-0.000110
 659	6.5471e+01	13.7772	49.905053	0.000162	1.621609	0.549416	-0.000065
 660	6.5570e+01	13.7338	49.792014	0.000284	2.837815	0.961478	-0.000114
 661	6.5670e+01	13.6953	49.642640	0.000375	3.749970	1.270524	-0.000150
 662	6.5769e+01	13.6584	49.533637	0.000274	2.736465	0.927139	-0.000110
 663	6.5869e+01	13.6103	49.404449	0.000324	3.243218	1.098832	-0.000130
 664	6.5969e+01	13.5814	49.271223	0.000334	3.344568	1.133170	-0.000134
 665	6.6068e+01	13.5253	49.226815	0.000111	1.114856	0.377723	-0.000045
 666	6.6168e+01	13.4980	49.033032	0.000486	4.864826	1.648248	-0.000195
 667	6.6267e+01	13.4451	48.956327	0.000193	1.925660	0.652431	-0.000077
 668	6.6367e+01	13.4226	48.887695	0.000172	1.722959	0.583754	-0.000069
 669	6.6466e+01	13.3745	48.750433	0.000345	3.445919	1.167509	-0.000138
 670	6.6566e+01	13.3408	48.633356	0.000294	2.939166	0.995816	-0.000118
 671	6.6665e+01	13.2879	48.500130	0.000334	3.344568	1.133170	-0.000134
 672	6.6764e+01	13.2542	48.387090	0.000284	2.837815	0.961478	-0.000114
 673	6.6864e+01	13.2141	48.278088	0.000274	2.736465	0.927139	-0.000110
 674	6.6963e+01	13.1740	48.152937	0.000314	3.141867	1.064493	-0.000126
 675	6.7063e+01	13.1355	48.064120	0.000223	2.229712	0.755447	-0.000089
 676	6.7162e+01	13.0937	47.943005	0.000304	3.040516	1.030155	-0.000122
 677	6.7262e+01	13.0504	47.838040	0.000264	2.635114	0.892801	-0.000105
 678	6.7362e+01	13.0087	47.700777	0.000345	3.445919	1.167509	-0.000138
 679	6.7461e+01	12.9718	47.587738	0.000284	2.837815	0.961478	-0.000114
 680	6.7561e+01	12.9285	47.498921	0.000223	2.229712	0.755447	-0.000089
 681	6.7660e+01	12.8996	47.357621	0.000355	3.547269	1.201847	-0.000142
 682	6.7760e+01	12.8515	47.256692	0.000253	2.533764	0.858462	-0.000101
 683	6.7859e+01	12.8178	47.155764	0.000253	2.533764	0.858462	-0.000101
 684	6.7959e+01	12.7825	47.066947	0.000223	2.229712	0.755447	-0.000089
 685	6.8058e+01	12.7392	46.925647	0.000355	3.547269	1.201847	-0.000142
 686	6.8157e+01	12.6943	46.800496	0.000314	3.141867	1.064493	-0.000126
 687	6.8257e+01	12.6494	46.667271	0.000334	3.344568	1.133170	-0.000134
 688	6.8356e+01	12.6157	46.582491	0.000213	2.128362	0.721108	-0.000085
 689	6.8456e+01	12.5788	46.445228	0.000345	3.445919	1.167509	-0.000138
 690	6.8555e+01	12.5419	46.336225	0.000274	2.736465	0.927139	-0.000110
 691	6.8655e+01	12.5002	46.211074	0.000314	3.141867	1.064493	-0.000126
 692	6.8754e+01	12.4585	46.081886	0.000324	3.243218	1.098832	-0.000130
 693	6.8854e+01	12.4168	45.980957	0.000253	2.533764	0.858462	-0.000101
 694	6.8954e+01	12.3751	45.880029	0.000253	2.533764	0.858462	-0.000101
 695	6.9053e+01	12.3382	45.734692	0.000365	3.648620	1.236186	-0.000146
 696	6.9153e+01	12.2916	45.593392	0.000355	3.547269	1.201847	-0.000142
 697	6.9252e+01	12.2660	45.480353	0.000284	2.837815	0.961478	-0.000114
 698	6.9352e+01	12.2178	45.367313	0.000284	2.837815	0.961478	-0.000114
 699	6.9451e+01	12.1665	45.270422	0.000243	2.432413	0.824124	-0.000097
 700	6.9550e+01	12.1376	45.145270	0.000314	3.141867	1.064493	-0.000126
 701	6.9650e+01	12.0959	45.064528	0.000203	2.027011	0.686770	-0.000081
 702	6.9749e+01	12.0526	44.931302	0.000334	3.344568	1.133170	-0.000134
 703	6.9849e+01	12.0093	44.814225	0.000294	2.939166	0.995816	-0.000118
 704	6.9948e+01	11.9756	44.676963	0.000345	3.445919	1.167509	-0.000138
 705	7.0048e+01	11.9339	44.559886	0.000294	2.939166	0.995816	-0.000118
 706	7.0147e+01	11.8954	44.483180	0.000193	1.925660	0.652431	-0.000077
 707	7.0247e+01	11.8585	44.337843	0.000365	3.648620	1.236186	-0.000146
 708	7.0347e+01	11.8232	44.261138	0.000193	1.925660	0.652431	-0.000077
 709	7.0446e+01	11.7863	44.091578	0.000426	4.256723	1.442217	-0.000170
 710	7.0546e+01	11.7382	43.986612	0.000264	2.635114	0.892801	-0.000105
 711	7.0645e+01	11.7077	43.857424	0.000324	3.243218	1.098832	-0.000130
 712	7.0745e+01	11.6580	43.716124	0.000355	3.547269	1.201847	-0.000142
 713	7.0844e+01	11.6162	43.623270	0.000233	2.331063	0.789785	-0.000093
 714	7.0944e+01	11.5858	43.494082	0.000324	3.243218	1.098832	-0.000130
 715	7.1043e+01	11.5441	43.389116	0.000264	2.635114	0.892801	-0.000105
 716	7.1142e+01	11.5152	43.304336	0.000213	2.128362	0.721108	-0.000085
 717	7.1242e+01	11.4606	43.167074	0.000345	3.445919	1.167509	-0.000138
 718	7.1341e+01	11.4205	43.058071	0.000274	2.736465	0.927139	-0.000110
 719	7.1441e+01	11.3820	42.900623	0.000395	3.952671	1.339201	-0.000158
 720	7.1540e+01	11.3451	42.803732	0.000243	2.432413	0.824124	-0.000097
 721	7.1640e+01	11.3066	42.674543	0.000324	3.243218	1.098832	-0.000130
 722	7.1740e+01	11.2649	42.589763	0.000213	2.128362	0.721108	-0.000085
 723	7.1839e+01	11.2136	42.416167	0.000436	4.358074	1.476555	-0.000174
 724	7.1939e+01	11.1815	42.339461	0.000193	1.925660	0.652431	-0.000077
 725	7.2038e+01	11.1446	42.210273	0.000324	3.243218	1.098832	-0.000130
 726	7.2138e+01	11.1013	42.060899	0.000375	3.749970	1.270524	-0.000150
 727	7.2237e+01	11.0596	41.988230	0.000182	1.824310	0.618093	-0.000073
 728	7.2337e+01	11.0243	41.867116	0.000304	3.040516	1.030155	-0.000122
 729	7.2436e+01	10.9794	41.733891	0.000334	3.344568	1.133170	-0.000134
 730	7.2535e+01	10.9457	41.604702	0.000324	3.243218	1.098832	-0.000130
 731	7.2635e+01	10.9040	41.487625	0.000294	2.939166	0.995816	-0.000118
 732	7.2734e+01	10.8767	41.354400	0.000334	3.344568	1.133170	-0.000134
 733	7.2834e+01	10.8270	41.269620	0.000213	2.128362	0.721108	-0.000085
 734	7.2933e+01	10.7853	41.136395	0.000334	3.344568	1.133170	-0.000134
 735	7.3033e+01	10.7452	41.047578	0.000223	2.229712	0.755447	-0.000089
 736	7.3132e+01	10.6986	40.898204	0.000375	3.749970	1.270524	-0.000150
 737	7.3232e+01	10.6714	40.785164	0.000284	2.837815	0.961478	-0.000114
 738	7.3332e+01	10.6264	40.643864	0.000355	3.547269	1.201847	-0.000142
 739	7.3431e+01	10.5863	40.534861	0.000274	2.736465	0.927139	-0.000110
 740	7.3531e+01	10.5350	40.409710	0.000314	3.141867	1.064493	-0.000126
 741	7.3630e+01	10.5093	40.312819	0.000243	2.432413	0.824124	-0.000097
 742	7.3730e+01	10.4660	40.163445	0.000375	3.749970	1.270524	-0.000150
 743	7.3829e+01	10.4227	40.030219	0.000334	3.344568	1.133170	-0.000134
 744	7.3928e+01	10.3922	39.945440	0.000213	2.128362	0.721108	-0.000085
 745	7.4028e+01	10.3489	39.787991	0.000395	3.952671	1.339201	-0.000158
 746	7.4127e+01	10.3088	39.691100	0.000243	2.432413	0.824124	-0.000097
 747	7.4227e+01	10.2719	39.557875	0.000334	3.344568	1.133170	-0.000134
 748	7.4326e+01	10.2222	39.396389	0.000405	4.054022	1.373540	-0.000162
 749	7.4426e+01	10.1821	39.323721	0.000182	1.824310	0.618093	-0.000073
 750	7.4525e+01	10.1404	39.186458	0.000345	3.445919	1.167509	-0.000138
 751	7.4625e+01	10.1019	39.053233	0.000334	3.344568	1.133170	-0.000134
 752	7.4725e+01	10.0650	38.915970	0.000345	3.445919	1.167509	-0.000138
 753	7.4824e+01	10.0249	38.811004	0.000264	2.635114	0.892801	-0.000105
 754	7.4924e+01	9.9847	38.693927	0.000294	2.939166	0.995816	-0.000118
 755	7.5023e+01	9.9478	38.540516	0.000385	3.851321	1.304863	-0.000154
 756	7.5123e+01	9.9077	38.431514	0.000274	2.736465	0.927139	-0.000110
 757	7.5222e+01	9.8628	38.310400	0.000304	3.040516	1.030155	-0.000122
 758	7.5322e+01	9.8211	38.156988	0.000385	3.851321	1.304863	-0.000154
 759	7.5421e+01	9.7906	38.072209	0.000213	2.128362	0.721108	-0.000085
 760	7.5520e+01	9.7425	37.951095	0.000304	3.040516	1.030155	-0.000122
 761	7.5620e+01	9.7024	37.781535	0.000426	4.256723	1.442217	-0.000170
 762	7.5719e+01	9.6767	37.676569	0.000264	2.635114	0.892801	-0.000105
 763	7.5819e+01	9.6366	37.595827	0.000203	2.027011	0.686770	-0.000081
 764	7.5918e+01	9.5853	37.422230	0.000436	4.358074	1.476555	-0.000174
 765	7.6018e+01	9.5516	37.333413	0.000223	2.229712	0.755447	-0.000089
 766	7.6118e+01	9.5083	37.175964	0.000395	3.952671	1.339201	-0.000158
 767	7.6217e+01	9.4714	37.062925	0.000284	2.837815	0.961478	-0.000114
 768	7.6317e+01	9.4313	36.961996	0.000253	2.533764	0.858462	-0.000101
 769	7.6416e+01	9.3896	36.776288	0.000466	4.662125	1.579571	-0.000187
 770	7.6516e+01	9.3495	36.679397	0.000243	2.432413	0.824124	-0.000097
 771	7.6615e+01	9.3094	36.562320	0.000294	2.939166	0.995816	-0.000118
 772	7.6715e+01	9.2660	36.453317	0.000274	2.736465	0.927139	-0.000110
 773	7.6814e+01	9.2356	36.324129	0.000324	3.243218	1.098832	-0.000130
 774	7.6913e+01	9.1987	36.134383	0.000476	4.763476	1.613909	-0.000191
 775	7.7013e+01	9.1505	36.057678	0.000193	1.925660	0.652431	-0.000077
 776	7.7112e+01	9.1104	35.912341	0.000365	3.648620	1.236186	-0.000146
 777	7.7212e+01	9.0655	35.779115	0.000334	3.344568	1.133170	-0.000134
 778	7.7311e+01	9.0334	35.678187	0.000253	2.533764	0.858462	-0.000101
 779	7.7411e+01	8.9997	35.524776	0.000385	3.851321	1.304863	-0.000154
 780	7.7510e+01	8.9645	35.415773	0.000274	2.736465	0.927139	-0.000110
 781	7.7610e+01	8.9051	35.266399	0.000375	3.749970	1.270524	-0.000150
 782	7.7710e+01	8.8794	35.125099	0.000355	3.547269	1.201847	-0.000142
 783	7.7809e+01	8.8409	35.020134	0.000264	2.635114	0.892801	-0.000105
 784	7.7909e+01	8.7960	34.886908	0.000334	3.344568	1.133170	-0.000134
 785	7.8008e+01	8.7479	34.725423	0.000405	4.054022	1.373540	-0.000162
 786	7.8108e+01	8.7110	34.612383	0.000284	2.837815	0.961478	-0.000114
 787	7.8207e+01	8.6757	34.463009	0.000375	3.749970	1.270524	-0.000150
 788	7.8306e+01	8.6356	34.317672	0.000365	3.648620	1.236186	-0.000146
 789	7.8406e+01	8.5875	34.200595	0.000294	2.939166	0.995816	-0.000118
 790	7.8505e+01	8.5490	34.103704	0.000243	2.432413	0.824124	-0.000097
 791	7.8605e+01	8.5153	33.934144	0.000426	4.256723	1.442217	-0.000170
 792	7.8704e+01	8.4639	33.837253	0.000243	2.432413	0.824124	-0.000097
 793	7.8804e+01	8.4335	33.655582	0.000456	4.560775	1.545232	-0.000183
 794	7.8903e+01	8.4014	33.554654	0.000253	2.533764	0.858462	-0.000101
 795	7.9003e+01	8.3468	33.401243	0.000385	3.851321	1.304863	-0.000154
 796	7.9103e+01	8.3115	33.316463	0.000213	2.128362	0.721108	-0.000085
 797	7.9202e+01	8.2714	33.159014	0.000395	3.952671	1.339201	-0.000158
 798	7.9302e+01	8.2329	33.009640	0.000375	3.749970	1.270524	-0.000150
 799	7.9401e+01	8.2008	32.872378	0.000345	3.445919	1.167509	-0.000138
 800	7.9501e+01	8.1479	32.743189	0.000324	3.243218	1.098832	-0.000130
 801	7.9600e+01	8.1126	32.622075	0.000304	3.040516	1.030155	-0.000122
 802	7.9700e+01	8.0789	32.480776	0.000355	3.547269	1.201847	-0.000142
 803	7.9799e+01	8.0340	32.387921	0.000233	2.331063	0.789785	-0.000093
 804	7.9898e+01	7.9955	32.206250	0.000456	4.560775	1.545232	-0.000183
 805	7.9998e+01	7.9538	32.064951	0.000355	3.547269	1.201847	-0.000142
 806	8.0097e+01	7.9137	31.959985	0.000264	2.635114	0.892801	-0.000105
 807	8.0197e+01	7.8752	31.822722	0.000345	3.445919	1.167509	-0.000138
 808	8.0296e+01	7.8367	31.669311	0.000385	3.851321	1.304863	-0.000154
 809	8.0396e+01	7.8014	31.495714	0.000436	4.358074	1.476555	-0.000174
 810	8.0496e+01	7.7565	31.362489	0.000334	3.344568	1.133170	-0.000134
 811	8.0595e+01	7.7099	31.265598	0.000243	2.432413	0.824124	-0.000097
 812	8.0695e+01	7.6730	31.112187	0.000385	3.851321	1.304863	-0.000154
 813	8.0794e+01	7.6394	30.950701	0.000405	4.054022	1.373540	-0.000162
 814	8.0894e+01	7.6009	30.801327	0.000375	3.749970	1.270524	-0.000150
 815	8.0993e+01	7.5527	30.704436	0.000243	2.432413	0.824124	-0.000097
 816	8.1093e+01	7.5158	30.510653	0.000486	4.864826	1.648248	-0.000195
 817	8.1192e+01	7.4709	30.442022	0.000172	1.722959	0.583754	-0.000069
 818	8.1291e+01	7.4340	30.284574	0.000395	3.952671	1.339201	-0.000158
 819	8.1391e+01	7.3907	30.147311	0.000345	3.445919	1.167509	-0.000138
 820	8.1490e+01	7.3522	29.961603	0.000466	4.662125	1.579571	-0.000187
 821	8.1590e+01	7.3249	29.848563	0.000284	2.837815	0.961478	-0.000114
 822	8.1689e+01	7.2800	29.687078	0.000405	4.054022	1.373540	-0.000162
 823	8.1789e+01	7.2383	29.578075	0.000274	2.736465	0.927139	-0.000110
 824	8.1888e+01	7.1982	29.452924	0.000314	3.141867	1.064493	-0.000126
 825	8.1988e+01	7.1533	29.279327	0.000436	4.358074	1.476555	-0.000174
 826	8.2088e+01	7.1164	29.150139	0.000324	3.243218	1.098832	-0.000130
 827	8.2187e+01	7.0731	29.008839	0.000355	3.547269	1.201847	-0.000142
 828	8.2287e+01	7.0394	28.851391	0.000395	3.952671	1.339201	-0.000158
 829	8.2386e+01	6.9977	28.706054	0.000365	3.648620	1.236186	-0.000146
 830	8.2486e+01	6.9688	28.576865	0.000324	3.243218	1.098832	-0.000130
 831	8.2585e+01	6.9191	28.419417	0.000395	3.952671	1.339201	-0.000158
 832	8.2684e+01	6.8790	28.358860	0.000152	1.520258	0.515077	-0.000061
 833	8.2784e+01	6.8356	28.148929	0.000527	5.270229	1.785602	-0.000211
 834	8.2883e+01	6.8003	28.015703	0.000334	3.344568	1.133170	-0.000134
 835	8.2983e+01	6.7634	27.870367	0.000365	3.648620	1.236186	-0.000146
 836	8.3082e+01	6.7233	27.704844	0.000416	4.155373	1.407878	-0.000166
 837	8.3182e+01	6.6752	27.607953	0.000243	2.432413	0.824124	-0.000097
 838	8.3281e+01	6.6431	27.414170	0.000486	4.864826	1.648248	-0.000195
 839	8.3381e+01	6.5918	27.301130	0.000284	2.837815	0.961478	-0.000114
 840	8.3481e+01	6.5533	27.147719	0.000385	3.851321	1.304863	-0.000154
 841	8.3580e+01	6.5228	27.042754	0.000264	2.635114	0.892801	-0.000105
 842	8.3680e+01	6.4859	26.848971	0.000486	4.864826	1.648248	-0.000195
 843	8.3779e+01	6.4474	26.748043	0.000253	2.533764	0.858462	-0.000101
 844	8.3879e+01	6.4025	26.586557	0.000405	4.054022	1.373540	-0.000162
 845	8.3978e+01	6.3528	26.457369	0.000324	3.243218	1.098832	-0.000130
 846	8.4078e+01	6.3223	26.279735	0.000446	4.459424	1.510894	-0.000179
 847	8.4177e+01	6.2742	26.186881	0.000233	2.331063	0.789785	-0.000093
 848	8.4276e+01	6.2421	26.033470	0.000385	3.851321	1.304863	-0.000154
 849	8.4376e+01	6.1988	25.896207	0.000345	3.445919	1.167509	-0.000138
 850	8.4475e+01	6.1683	25.730685	0.000416	4.155373	1.407878	-0.000166
 851	8.4575e+01	6.1266	25.597459	0.000334	3.344568	1.133170	-0.000134
 852	8.4674e+01	6.0833	25.415788	0.000456	4.560775	1.545232	-0.000183
 853	8.4774e+01	6.0447	25.274488	0.000355	3.547269	1.201847	-0.000142
 854	8.4874e+01	6.0079	25.157411	0.000294	2.939166	0.995816	-0.000118
 855	8.4973e+01	5.9629	25.004000	0.000385	3.851321	1.304863	-0.000154
 856	8.5073e+01	5.9196	24.862700	0.000355	3.547269	1.201847	-0.000142
 857	8.5172e+01	5.8779	24.705252	0.000395	3.952671	1.339201	-0.000158
 858	8.5272e+01	5.8506	24.547804	0.000395	3.952671	1.339201	-0.000158
 859	8.5371e+01	5.8041	24.386318	0.000405	4.054022	1.373540	-0.000162
 860	8.5471e+01	5.7656	24.269241	0.000294	2.939166	0.995816	-0.000118
 861	8.5570e+01	5.7287	24.148127	0.000304	3.040516	1.030155	-0.000122
 862	8.5669e+01	5.6822	23.958382	0.000476	4.763476	1.613909	-0.000191
 863	8.5769e+01	5.6485	23.877639	0.000203	2.027011	0.686770	-0.000081
 864	8.5868e+01	5.6052	23.687894	0.000476	4.763476	1.613909	-0.000191
 865	8.5968e+01	5.5731	23.542557	0.000365	3.648620	1.236186	-0.000146
 866	8.6067e+01	5.5282	23.421443	0.000304	3.040516	1.030155	-0.000122
 867	8.6167e+01	5.4865	23.259958	0.000405	4.054022	1.373540	-0.000162
 868	8.6266e+01	5.4480	23.078286	0.000456	4.560775	1.545232	-0.000183
 869	8.6366e+01	5.4015	22.965247	0.000284	2.837815	0.961478	-0.000114
 870	8.6466e+01	5.3710	22.819910	0.000365	3.648620	1.236186	-0.000146
 871	8.6565e+01	5.3261	22.670536	0.000375	3.749970	1.270524	-0.000150
 872	8.6665e+01	5.2876	22.533273	0.000345	3.445919	1.167509	-0.000138
 873	8.6764e+01	5.2426	22.367751	0.000416	4.155373	1.407878	-0.000166
 874	8.6864e+01	5.2009	22.222414	0.000365	3.648620	1.236186	-0.000146
 875	8.6963e+01	5.1624	22.097262	0.000314	3.141867	1.064493	-0.000126
 876	8.7063e+01	5.1175	21.935777	0.000405	4.054022	1.373540	-0.000162
 877	8.7162e+01	5.0790	21.746032	0.000476	4.763476	1.613909	-0.000191
 878	8.7261e+01	5.0501	21.649140	0.000243	2.432413	0.824124	-0.000097
 879	8.7361e+01	5.0036	21.479581	0.000426	4.256723	1.442217	-0.000170
 880	8.7460e+01	4.9731	21.334244	0.000365	3.648620	1.236186	-0.000146
 881	8.7560e+01	4.9298	21.168721	0.000416	4.155373	1.407878	-0.000166
 882	8.7659e+01	4.8913	21.043570	0.000314	3.141867	1.064493	-0.000126
 883	8.7759e+01	4.8512	20.886122	0.000395	3.952671	1.339201	-0.000158
 884	8.7859e+01	4.8143	20.740785	0.000365	3.648620	1.236186	-0.000146
 885	8.7958e+01	4.7582	20.563151	0.000446	4.459424	1.510894	-0.000179
 886	8.8058e+01	4.7245	20.438000	0.000314	3.141867	1.064493	-0.000126
 887	8.8157e+01	4.6924	20.312848	0.000314	3.141867	1.064493	-0.000126
 888	8.8257e+01	4.6475	20.163474	0.000375	3.749970	1.270524	-0.000150
 889	8.8356e+01	4.6122	20.022175	0.000355	3.547269	1.201847	-0.000142
 890	8.8456e+01	4.5673	19.852615	0.000426	4.256723	1.442217	-0.000170
 891	8.8555e+01	4.5223	19.691130	0.000405	4.054022	1.373540	-0.000162
 892	8.8654e+01	4.4935	19.574053	0.000294	2.939166	0.995816	-0.000118
 893	8.8754e+01	4.4421	19.364122	0.000527	5.270229	1.785602	-0.000211
 894	8.8853e+01	4.4165	19.271267	0.000233	2.331063	0.789785	-0.000093
 895	8.8953e+01	4.3651	19.129968	0.000355	3.547269	1.201847	-0.000142
 896	8.9052e+01	4.3282	18.984631	0.000365	3.648620	1.236186	-0.000146
 897	8.9152e+01	4.2897	18.819108	0.000416	4.155373	1.407878	-0.000166
 898	8.9251e+01	4.2544	18.653586	0.000416	4.155373	1.407878	-0.000166
 899	8.9351e+01	4.2159	18.504212	0.000375	3.749970	1.270524	-0.000150
 900	8.9451e+01	4.1646	18.366949	0.000345	3.445919	1.167509	-0.000138
 901	8.9550e+01	4.1309	18.213538	0.000385	3.851321	1.304863	-0.000154
 902	8.9650e+01	4.0892	18.064164	0.000375	3.749970	1.270524	-0.000150
 903	8.9749e+01	4.0459	17.943050	0.000304	3.040516	1.030155	-0.000122
 904	8.9849e+01	4.0170	17.737156	0.000517	5.168878	1.751263	-0.000207
 905	8.9948e+01	3.9737	17.624116	0.000284	2.837815	0.961478	-0.000114
 906	9.0047e+01	3.9352	17.438408	0.000466	4.662125	1.579571	-0.000187
 907	9.0147e+01	3.8935	17.301145	0.000345	3.445919	1.167509	-0.000138
 908	9.0246e+01	3.8421	17.155808	0.000365	3.648620	1.236186	-0.000146
 909	9.0346e+01	3.8068	16.986249	0.000426	4.256723	1.442217	-0.000170
 910	9.0445e+01	3.7635	16.844949	0.000355	3.547269	1.201847	-0.000142
 911	9.0545e+01	3.7330	16.695575	0.000375	3.749970	1.270524	-0.000150
 912	9.0644e+01	3.6913	16.526015	0.000426	4.256723	1.442217	-0.000170
 913	9.0744e+01	3.6625	16.408938	0.000294	2.939166	0.995816	-0.000118
 914	9.0844e+01	3.6095	16.255527	0.000385	3.851321	1.304863	-0.000154
 915	9.0943e+01	3.5710	16.094042	0.000405	4.054022	1.373540	-0.000162
 916	9.1043e+01	3.5261	15.924482	0.000426	4.256723	1.442217	-0.000170
 917	9.1142e+01	3.4940	15.750885	0.000436	4.358074	1.476555	-0.000174
 918	9.1242e+01	3.4443	15.605548	0.000365	3.648620	1.236186	-0.000146
 919	9.1341e+01	3.4170	15.444063	0.000405	4.054022	1.373540	-0.000162
 920	9.1441e+01	3.3689	15.298726	0.000365	3.648620	1.236186	-0.000146
 921	9.1540e+01	3.3272	15.153389	0.000365	3.648620	1.236186	-0.000146
 922	9.1639e+01	3.2967	14.995941	0.000395	3.952671	1.339201	-0.000158
 923	9.1739e+01	3.2566	14.874827	0.000304	3.040516	1.030155	-0.000122
 924	9.1838e+01	3.2117	14.656821	0.000547	5.472930	1.854279	-0.000219
 925	9.1938e+01	3.1828	14.531670	0.000314	3.141867	1.064493	-0.000126
 926	9.2037e+01	3.1379	14.370185	0.000405	4.054022	1.373540	-0.000162
 927	9.2137e+01	3.1026	14.220811	0.000375	3.749970	1.270524	-0.000150
 928	9.2237e+01	3.0561	14.039140	0.000456	4.560775	1.545232	-0.000183
 929	9.2336e+01	3.0160	13.881691	0.000395	3.952671	1.339201	-0.000158
 930	9.2436e+01	2.9726	13.728280	0.000385	3.851321	1.304863	-0.000154
 931	9.2535e+01	2.9213	13.582943	0.000365	3.648620	1.236186	-0.000146
 932	9.2635e+01	2.8956	13.441643	0.000355	3.547269	1.201847	-0.000142
 933	9.2734e+01	2.8603	13.276121	0.000416	4.155373	1.407878	-0.000166
 934	9.2834e+01	2.8202	13.106561	0.000426	4.256723	1.442217	-0.000170
 935	9.2933e+01	2.7785	12.969299	0.000345	3.445919	1.167509	-0.000138
 936	9.3032e+01	2.7336	12.783590	0.000466	4.662125	1.579571	-0.000187
 937	9.3132e+01	2.7031	12.626142	0.000395	3.952671	1.339201	-0.000158
 938	9.3231e+01	2.6550	12.472731	0.000385	3.851321	1.304863	-0.000154
 939	9.3331e+01	2.6165	12.319320	0.000385	3.851321	1.304863	-0.000154
 940	9.3430e+01	2.5716	12.169946	0.000375	3.749970	1.270524	-0.000150
 941	9.3530e+01	2.5347	12.020572	0.000375	3.749970	1.270524	-0.000150
 942	9.3629e+01	2.4914	11.855049	0.000416	4.155373	1.407878	-0.000166
 943	9.3729e+01	2.4529	11.693564	0.000405	4.054022	1.373540	-0.000162
 944	9.3829e+01	2.4192	11.524004	0.000426	4.256723	1.442217	-0.000170
 945	9.3928e+01	2.3743	11.374630	0.000375	3.749970	1.270524	-0.000150
 946	9.4028e+01	2.3390	11.196996	0.000446	4.459424	1.510894	-0.000179
 947	9.4127e+01	2.2892	11.035511	0.000405	4.054022	1.373540	-0.000162
 948	9.4227e+01	2.2556	10.857877	0.000446	4.459424	1.510894	-0.000179
 949	9.4326e+01	2.2170	10.708503	0.000375	3.749970	1.270524	-0.000150
 950	9.4425e+01	2.1769	10.559129	0.000375	3.749970	1.270524	-0.000150
 951	9.4525e+01	2.1320	10.337086	0.000557	5.574280	1.888617	-0.000223
 952	9.4624e+01	2.0951	10.248269	0.000223	2.229712	0.755447	-0.000089
 953	9.4724e+01	2.0598	10.030264	0.000547	5.472930	1.854279	-0.000219
 954	9.4823e+01	2.0181	9.901075	0.000324	3.243218	1.098832	-0.000130
 955	9.4923e+01	1.9748	9.747664	0.000385	3.851321	1.304863	-0.000154
 956	9.5022e+01	1.9379	9.537733	0.000527	5.270229	1.785602	-0.000211
 957	9.5122e+01	1.9026	9.408545	0.000324	3.243218	1.098832	-0.000130
 958	9.5222e+01	1.8657	9.230911	0.000446	4.459424	1.510894	-0.000179
 959	9.5321e+01	1.8176	9.049240	0.000456	4.560775	1.545232	-0.000183
 960	9.5421e+01	1.7695	8.867569	0.000456	4.560775	1.545232	-0.000183
 961	9.5520e+01	1.7374	8.762603	0.000264	2.635114	0.892801	-0.000105
 962	9.5620e+01	1.6941	8.528449	0.000588	5.878332	1.991633	-0.000235
 963	9.5719e+01	1.6572	8.391187	0.000345	3.445919	1.167509	-0.000138
 964	9.5819e+01	1.6171	8.213553	0.000446	4.459424	1.510894	-0.000179
 965	9.5918e+01	1.5738	8.043993	0.000426	4.256723	1.442217	-0.000170
 966	9.6017e+01	1.5369	7.858285	0.000466	4.662125	1.579571	-0.000187
 967	9.6117e+01	1.5064	7.725059	0.000334	3.344568	1.133170	-0.000134
 968	9.6216e+01	1.4502	7.571648	0.000385	3.851321	1.304863	-0.000154
 969	9.6316e+01	1.4181	7.410163	0.000405	4.054022	1.373540	-0.000162
 970	9.6415e+01	1.3748	7.244640	0.000416	4.155373	1.407878	-0.000166
 971	9.6515e+01	1.3379	7.075080	0.000426	4.256723	1.442217	-0.000170
 972	9.6615e+01	1.3026	6.873224	0.000507	5.067527	1.716925	-0.000203
 973	9.6714e+01	1.2641	6.715775	0.000395	3.952671	1.339201	-0.000158
 974	9.6814e+01	1.2176	6.582550	0.000334	3.344568	1.133170	-0.000134
 975	9.6913e+01	1.1823	6.376656	0.000517	5.168878	1.751263	-0.000207
 976	9.7013e+01	1.1390	6.174799	0.000507	5.067527	1.716925	-0.000203
 977	9.7112e+01	1.1005	6.037536	0.000345	3.445919	1.167509	-0.000138
 978	9.7212e+01	1.0652	5.843754	0.000486	4.864826	1.648248	-0.000195
 979	9.7311e+01	1.0219	5.710529	0.000334	3.344568	1.133170	-0.000134
 980	9.7410e+01	0.9818	5.504635	0.000517	5.168878	1.751263	-0.000207
 981	9.7510e+01	0.9353	5.327001	0.000446	4.459424	1.510894	-0.000179
 982	9.7609e+01	0.9000	5.149367	0.000446	4.459424	1.510894	-0.000179
 983	9.7709e+01	0.8631	4.995955	0.000385	3.851321	1.304863	-0.000154
 984	9.7808e+01	0.8262	4.802173	0.000486	4.864826	1.648248	-0.000195
 985	9.7908e+01	0.7829	4.644725	0.000395	3.952671	1.339201	-0.000158
 986	9.8007e+01	0.7396	4.471128	0.000436	4.358074	1.476555	-0.000174
 987	9.8107e+01	0.7075	4.309642	0.000405	4.054022	1.373540	-0.000162
 988	9.8207e+01	0.6609	4.095674	0.000537	5.371579	1.819940	-0.000215
 989	9.8306e+01	0.6224	3.934189	0.000405	4.054022	1.373540	-0.000162
 990	9.8406e+01	0.5839	3.740406	0.000486	4.864826	1.648248	-0.000195
 991	9.8505e+01	0.5342	3.554698	0.000466	4.662125	1.579571	-0.000187
 992	9.8605e+01	0.5005	3.389175	0.000416	4.155373	1.407878	-0.000166
 993	9.8704e+01	0.4652	3.251913	0.000345	3.445919	1.167509	-0.000138
 994	9.8803e+01	0.4347	3.029870	0.000557	5.574280	1.888617	-0.000223
 995	9.8903e+01	0.3770	2.860311	0.000426	4.256723	1.442217	-0.000170
 996	9.9002e+01	0.3497	2.739197	0.000304	3.040516	1.030155	-0.000122
 997	9.9102e+01	0.3048	2.573674	0.000416	4.155373	1.407878	-0.000166
 998	9.9201e+01	0.2663	2.404114	0.000426	4.256723	1.442217	-0.000170
 999	9.9301e+01	0.2198	2.173998	0.000578	5.776981	1.957294	-0.000231
1000	9.9400e+01	0.1845	1.984252	0.000476	4.763476	1.613909	-0.000191
1001	9.9500e+01	0.1492	1.822767	0.000405	4.054022	1.373540	-0.000162
1002	9.9600e+01	0.1059	1.628984	0.000486	4.864826	1.648248	-0.000195
1003	9.9699e+01	0.0706	1.463462	0.000416	4.155373	1.407878	-0.000166
1004	9.9799e+01	0.0305	1.289865	0.000436	4.358074	1.476555	-0.000174
1005	9.9898e+01	-0.0048	1.172788	0.000294	2.939166	0.995816	-0.000118
1006	9.9998e+01	-0.0497	1.007265	0.000416	4.155373	1.407878	-0.000166
1007	1.0010e+02	-0.0930	0.797334	0.000527	5.270229	1.785602	-0.000211
1008	1.0020e+02	-0.1380	0.623737	0.000436	4.358074	1.476555	-0.000174
1009	1.0030e+02	-0.1700	0.458215	0.000416	4.155373	1.407878	-0.000166
1010	1.0040e+02	-0.2053	0.288655	0.000426	4.256723	1.442217	-0.000170
1011	1.0050e+02	-0.2422	0.098910	0.000476	4.763476	1.613909	-0.000191
1012	1.0059e+02	-0.2839	-0.074687	0.000436	4.358074	1.476555	-0.000174
1013	1.0069e+02	-0.3257	-0.276544	0.000507	5.067527	1.716925	-0.000203
1014	1.0079e+02	-0.3690	-0.373435	0.000243	2.432413	0.824124	-0.000097
1015	1.0089e+02	-0.4107	-0.599515	0.000568	5.675631	1.922956	-0.000227
1016	1.0099e+02	-0.4572	-0.773111	0.000436	4.358074	1.476555	-0.000174
1017	1.0109e+02	-0.5005	-0.946708	0.000436	4.358074	1.476555	-0.000174
1018	1.0119e+02	-0.5358	-1.176825	0.000578	5.776981	1.957294	-0.000231
1019	1.0129e+02	-0.5647	-1.297939	0.000304	3.040516	1.030155	-0.000122
1020	1.0139e+02	-0.5984	-1.503833	0.000517	5.168878	1.751263	-0.000207
1021	1.0149e+02	-0.6465	-1.665318	0.000405	4.054022	1.373540	-0.000162
1022	1.0159e+02	-0.6882	-1.846990	0.000456	4.560775	1.545232	-0.000183
1023	1.0169e+02	-0.7235	-2.032698	0.000466	4.662125	1.579571	-0.000187
1024	1.0179e+02	-0.7620	-2.222443	0.000476	4.763476	1.613909	-0.000191
1025	1.0189e+02	-0.7957	-2.420263	0.000497	4.966177	1.682586	-0.000199
1026	1.0199e+02	-0.8470	-2.589823	0.000426	4.256723	1.442217	-0.000170
1027	1.0209e+02	-0.8791	-2.747271	0.000395	3.952671	1.339201	-0.000158
1028	1.0219e+02	-0.9272	-2.932979	0.000466	4.662125	1.579571	-0.000187
1029	1.0229e+02	-0.9641	-3.118687	0.000466	4.662125	1.579571	-0.000187
1030	1.0239e+02	-1.0075	-3.243839	0.000314	3.141867	1.064493	-0.000126
1031	1.0248e+02	-1.0524	-3.453770	0.000527	5.270229	1.785602	-0.000211
1032	1.0258e+02	-1.0893	-3.619292	0.000416	4.155373	1.407878	-0.000166
1033	1.0268e+02	-1.1278	-3.800963	0.000456	4.560775	1.545232	-0.000183
1034	1.0278e+02	-1.1599	-4.002820	0.000507	5.067527	1.716925	-0.000203
1035	1.0288e+02	-1.2016	-4.180454	0.000446	4.459424	1.510894	-0.000179
1036	1.0298e+02	-1.2449	-4.358088	0.000446	4.459424	1.510894	-0.000179
1037	1.0308e+02	-1.2850	-4.531685	0.000436	4.358074	1.476555	-0.000174
1038	1.0318e+02	-1.3187	-4.660873	0.000324	3.243218	1.098832	-0.000130
1039	1.0328e+02	-1.3652	-4.886953	0.000568	5.675631	1.922956	-0.000227
1040	1.0338e+02	-1.4037	-5.024215	0.000345	3.445919	1.167509	-0.000138
1041	1.0348e+02	-1.4422	-5.234146	0.000527	5.270229	1.785602	-0.000211
1042	1.0358e+02	-1.4823	-5.367372	0.000334	3.344568	1.133170	-0.000134
1043	1.0368e+02	-1.5224	-5.561154	0.000486	4.864826	1.648248	-0.000195
1044	1.0378e+02	-1.5625	-5.730714	0.000426	4.256723	1.442217	-0.000170
1045	1.0388e+02	-1.5994	-5.900274	0.000426	4.256723	1.442217	-0.000170
1046	1.0398e+02	-1.6443	-6.077908	0.000446	4.459424	1.510894	-0.000179
1047	1.0408e+02	-1.6812	-6.275728	0.000497	4.966177	1.682586	-0.000199
1048	1.0418e+02	-1.7133	-6.461436	0.000466	4.662125	1.579571	-0.000187
1049	1.0428e+02	-1.7598	-6.586587	0.000314	3.141867	1.064493	-0.000126
1050	1.0438e+02	-1.7983	-6.760184	0.000436	4.358074	1.476555	-0.000174
1051	1.0447e+02	-1.8385	-6.945892	0.000466	4.662125	1.579571	-0.000187
1052	1.0457e+02	-1.8818	-7.143712	0.000497	4.966177	1.682586	-0.000199
1053	1.0467e+02	-1.9235	-7.305197	0.000405	4.054022	1.373540	-0.000162
1054	1.0477e+02	-1.9620	-7.474757	0.000426	4.256723	1.442217	-0.000170
1055	1.0487e+02	-1.9989	-7.636242	0.000405	4.054022	1.373540	-0.000162
1056	1.0497e+02	-2.0454	-7.825988	0.000476	4.763476	1.613909	-0.000191
1057	1.0507e+02	-2.0791	-8.007659	0.000456	4.560775	1.545232	-0.000183
1058	1.0517e+02	-2.1256	-8.213553	0.000517	5.168878	1.751263	-0.000207
1059	1.0527e+02	-2.1593	-8.354852	0.000355	3.547269	1.201847	-0.000142
1060	1.0537e+02	-2.1930	-8.496152	0.000355	3.547269	1.201847	-0.000142
1061	1.0547e+02	-2.2395	-8.649563	0.000385	3.851321	1.304863	-0.000154
1062	1.0557e+02	-2.2748	-8.847383	0.000497	4.966177	1.682586	-0.000199
1063	1.0567e+02	-2.3101	-9.000794	0.000385	3.851321	1.304863	-0.000154
1064	1.0577e+02	-2.3534	-9.174391	0.000436	4.358074	1.476555	-0.000174
1065	1.0587e+02	-2.4015	-9.368173	0.000486	4.864826	1.648248	-0.000195
1066	1.0597e+02	-2.4352	-9.529659	0.000405	4.054022	1.373540	-0.000162
1067	1.0607e+02	-2.4801	-9.658847	0.000324	3.243218	1.098832	-0.000130
1068	1.0617e+02	-2.5170	-9.852630	0.000486	4.864826	1.648248	-0.000195
1069	1.0627e+02	-2.5620	-10.006041	0.000385	3.851321	1.304863	-0.000154
1070	1.0637e+02	-2.6021	-10.211935	0.000517	5.168878	1.751263	-0.000207
1071	1.0647e+02	-2.6342	-10.357272	0.000365	3.648620	1.236186	-0.000146
1072	1.0656e+02	-2.6855	-10.514720	0.000395	3.952671	1.339201	-0.000158
1073	1.0666e+02	-2.7224	-10.696391	0.000456	4.560775	1.545232	-0.000183
1074	1.0676e+02	-2.7545	-10.886137	0.000476	4.763476	1.613909	-0.000191
1075	1.0686e+02	-2.8042	-11.023399	0.000345	3.445919	1.167509	-0.000138
1076	1.0696e+02	-2.8299	-11.172773	0.000375	3.749970	1.270524	-0.000150
1077	1.0706e+02	-2.8796	-11.342333	0.000426	4.256723	1.442217	-0.000170
1078	1.0716e+02	-2.9149	-11.536115	0.000486	4.864826	1.648248	-0.000195
1079	1.0726e+02	-2.9614	-11.677415	0.000355	3.547269	1.201847	-0.000142
1080	1.0736e+02	-2.9983	-11.834863	0.000395	3.952671	1.339201	-0.000158
1081	1.0746e+02	-3.0448	-12.036720	0.000507	5.067527	1.716925	-0.000203
1082	1.0756e+02	-3.0769	-12.161871	0.000314	3.141867	1.064493	-0.000126
1083	1.0766e+02	-3.1154	-12.331431	0.000426	4.256723	1.442217	-0.000170
1084	1.0776e+02	-3.1587	-12.521176	0.000476	4.763476	1.613909	-0.000191
1085	1.0786e+02	-3.1892	-12.682662	0.000405	4.054022	1.373540	-0.000162
1086	1.0796e+02	-3.2277	-12.836073	0.000385	3.851321	1.304863	-0.000154
1087	1.0806e+02	-3.2839	-13.025818	0.000476	4.763476	1.613909	-0.000191
1088	1.0816e+02	-3.3192	-13.187304	0.000405	4.054022	1.373540	-0.000162
1089	1.0826e+02	-3.3577	-13.324567	0.000345	3.445919	1.167509	-0.000138
1090	1.0836e+02	-3.3962	-13.473941	0.000375	3.749970	1.270524	-0.000150
1091	1.0845e+02	-3.4379	-13.667723	0.000486	4.864826	1.648248	-0.000195
1092	1.0855e+02	-3.4828	-13.809023	0.000355	3.547269	1.201847	-0.000142
1093	1.0865e+02	-3.5069	-13.966471	0.000395	3.952671	1.339201	-0.000158
1094	1.0875e+02	-3.5470	-14.148142	0.000456	4.560775	1.545232	-0.000183
1095	1.0885e+02	-3.5983	-14.277331	0.000324	3.243218	1.098832	-0.000130
1096	1.0895e+02	-3.6336	-14.467076	0.000476	4.763476	1.613909	-0.000191
1097	1.0905e+02	-3.6785	-14.628561	0.000405	4.054022	1.373540	-0.000162
1098	1.0915e+02	-3.7138	-14.794084	0.000416	4.155373	1.407878	-0.000166
1099	1.0925e+02	-3.7571	-14.959606	0.000416	4.155373	1.407878	-0.000166
1100	1.0935e+02	-3.7972	-15.084758	0.000314	3.141867	1.064493	-0.000126
1101	1.0945e+02	-3.8309	-15.250280	0.000416	4.155373	1.407878	-0.000166
1102	1.0955e+02	-3.8726	-15.415803	0.000416	4.155373	1.407878	-0.000166
1103	1.0965e+02	-3.9240	-15.569214	0.000385	3.851321	1.304863	-0.000154
1104	1.0975e+02	-3.9528	-15.742811	0.000436	4.358074	1.476555	-0.000174
1105	1.0985e+02	-3.9994	-15.900259	0.000395	3.952671	1.339201	-0.000158
1106	1.0995e+02	-4.0395	-16.073856	0.000436	4.358074	1.476555	-0.000174
1107	1.1005e+02	-4.0683	-16.215156	0.000355	3.547269	1.201847	-0.000142
1108	1.1015e+02	-4.1133	-16.356455	0.000355	3.547269	1.201847	-0.000142
1109	1.1025e+02	-4.1534	-16.497755	0.000355	3.547269	1.201847	-0.000142
1110	1.1035e+02	-4.1887	-16.703649	0.000517	5.168878	1.751263	-0.000207
1111	1.1044e+02	-4.2336	-16.828800	0.000314	3.141867	1.064493	-0.000126
1112	1.1054e+02	-4.2689	-17.006434	0.000446	4.459424	1.510894	-0.000179
1113	1.1064e+02	-4.3154	-17.135623	0.000324	3.243218	1.098832	-0.000130
1114	1.1074e+02	-4.3491	-17.301145	0.000416	4.155373	1.407878	-0.000166
1115	1.1084e+02	-4.3892	-17.478779	0.000446	4.459424	1.510894	-0.000179
1116	1.1094e+02	-4.4341	-17.612005	0.000334	3.344568	1.133170	-0.000134
1117	1.1104e+02	-4.4758	-17.753304	0.000355	3.547269	1.201847	-0.000142
1118	1.1114e+02	-4.5111	-17.902678	0.000375	3.749970	1.270524	-0.000150
1119	1.1124e+02	-4.5624	-18.072238	0.000426	4.256723	1.442217	-0.000170
1120	1.1134e+02	-4.5993	-18.221612	0.000375	3.749970	1.270524	-0.000150
1121	1.1144e+02	-4.6266	-18.379060	0.000395	3.952671	1.339201	-0.000158
1122	1.1154e+02	-4.6699	-18.552657	0.000436	4.358074	1.476555	-0.000174
1123	1.1164e+02	-4.7116	-18.673771	0.000304	3.040516	1.030155	-0.000122
1124	1.1174e+02	-4.7517	-18.839294	0.000416	4.155373	1.407878	-0.000166
1125	1.1184e+02	-4.7822	-18.992705	0.000385	3.851321	1.304863	-0.000154
1126	1.1194e+02	-4.8287	-19.186488	0.000486	4.864826	1.648248	-0.000195
1127	1.1204e+02	-4.8672	-19.339899	0.000385	3.851321	1.304863	-0.000154
1128	1.1214e+02	-4.9073	-19.497347	0.000395	3.952671	1.339201	-0.000158
1129	1.1224e+02	-4.9410	-19.638647	0.000355	3.547269	1.201847	-0.000142
1130	1.1234e+02	-4.9908	-19.792058	0.000385	3.851321	1.304863	-0.000154
1131	1.1244e+02	-5.0325	-19.937395	0.000365	3.648620	1.236186	-0.000146
1132	1.1253e+02	-5.0710	-20.078695	0.000355	3.547269	1.201847	-0.000142
1133	1.1263e+02	-5.1015	-20.228069	0.000375	3.749970	1.270524	-0.000150
1134	1.1273e+02	-5.1480	-20.373406	0.000365	3.648620	1.236186	-0.000146
1135	1.1283e+02	-5.1913	-20.538928	0.000416	4.155373	1.407878	-0.000166
1136	1.1293e+02	-5.2314	-20.684265	0.000365	3.648620	1.236186	-0.000146
1137	1.1303e+02	-5.2747	-20.833639	0.000375	3.749970	1.270524	-0.000150
1138	1.1313e+02	-5.3052	-21.007236	0.000436	4.358074	1.476555	-0.000174
1139	1.1323e+02	-5.3453	-21.164684	0.000395	3.952671	1.339201	-0.000158
1140	1.1333e+02	-5.3886	-21.338281	0.000436	4.358074	1.476555	-0.000174
1141	1.1343e+02	-5.4303	-21.471506	0.000334	3.344568	1.133170	-0.000134
1142	1.1353e+02	-5.4656	-21.576472	0.000264	2.635114	0.892801	-0.000105
1143	1.1363e+02	-5.5057	-21.746032	0.000426	4.256723	1.442217	-0.000170
1144	1.1373e+02	-5.5426	-21.911554	0.000416	4.155373	1.407878	-0.000166
1145	1.1383e+02	-5.5891	-22.064965	0.000385	3.851321	1.304863	-0.000154
1146	1.1393e+02	-5.6309	-22.173968	0.000274	2.736465	0.927139	-0.000110
1147	1.1403e+02	-5.6613	-22.347565	0.000436	4.358074	1.476555	-0.000174
1148	1.1413e+02	-5.7063	-22.513087	0.000416	4.155373	1.407878	-0.000166
1149	1.1423e+02	-5.7464	-22.670536	0.000395	3.952671	1.339201	-0.000158
1150	1.1433e+02	-5.7865	-22.803761	0.000334	3.344568	1.133170	-0.000134
1151	1.1442e+02	-5.8266	-22.949098	0.000365	3.648620	1.236186	-0.000146
1152	1.1452e+02	-5.8731	-23.082324	0.000334	3.344568	1.133170	-0.000134
1153	1.1462e+02	-5.9100	-23.251883	0.000426	4.256723	1.442217	-0.000170
1154	1.1472e+02	-5.9517	-23.417406	0.000416	4.155373	1.407878	-0.000166
1155	1.1482e+02	-5.9902	-23.538520	0.000304	3.040516	1.030155	-0.000122
1156	1.1492e+02	-6.0223	-23.748451	0.000527	5.270229	1.785602	-0.000211
1157	1.1502e+02	-6.0720	-23.885714	0.000345	3.445919	1.167509	-0.000138
1158	1.1512e+02	-6.1073	-24.018939	0.000334	3.344568	1.133170	-0.000134
1159	1.1522e+02	-6.1522	-24.168313	0.000375	3.749970	1.270524	-0.000150
1160	1.1532e+02	-6.1827	-24.309613	0.000355	3.547269	1.201847	-0.000142
1161	1.1542e+02	-6.2276	-24.438801	0.000324	3.243218	1.098832	-0.000130
1162	1.1552e+02	-6.2726	-24.596249	0.000395	3.952671	1.339201	-0.000158
1163	1.1562e+02	-6.3078	-24.737549	0.000355	3.547269	1.201847	-0.000142
1164	1.1572e+02	-6.3447	-24.911146	0.000436	4.358074	1.476555	-0.000174
1165	1.1582e+02	-6.3913	-25.044372	0.000334	3.344568	1.133170	-0.000134
1166	1.1592e+02	-6.4233	-25.157411	0.000284	2.837815	0.961478	-0.000114
1167	1.1602e+02	-6.4586	-25.294674	0.000345	3.445919	1.167509	-0.000138
1168	1.1612e+02	-6.5004	-25.468271	0.000436	4.358074	1.476555	-0.000174
1169	1.1622e+02	-6.5389	-25.540939	0.000182	1.824310	0.618093	-0.000073
1170	1.1632e+02	-6.5774	-25.746833	0.000517	5.168878	1.751263	-0.000207
1171	1.1642e+02	-6.6207	-25.888133	0.000355	3.547269	1.201847	-0.000142
1172	1.1651e+02	-6.6656	-26.013284	0.000314	3.141867	1.064493	-0.000126
1173	1.1661e+02	-6.6945	-26.138435	0.000314	3.141867	1.064493	-0.000126
1174	1.1671e+02	-6.7346	-26.316069	0.000446	4.459424	1.510894	-0.000179
1175	1.1681e+02	-6.7763	-26.425072	0.000274	2.736465	0.927139	-0.000110
1176	1.1691e+02	-6.8196	-26.598669	0.000436	4.358074	1.476555	-0.000174
1177	1.1701e+02	-6.8629	-26.727857	0.000324	3.243218	1.098832	-0.000130
1178	1.1711e+02	-6.8886	-26.861083	0.000334	3.344568	1.133170	-0.000134
1179	1.1721e+02	-6.9351	-27.034679	0.000436	4.358074	1.476555	-0.000174
1180	1.1731e+02	-6.9768	-27.167905	0.000334	3.344568	1.133170	-0.000134
1181	1.1741e+02	-7.0105	-27.337465	0.000426	4.256723	1.442217	-0.000170
1182	1.1751e+02	-7.0538	-27.434356	0.000243	2.432413	0.824124	-0.000097
1183	1.1761e+02	-7.0987	-27.599878	0.000416	4.155373	1.407878	-0.000166
1184	1.1771e+02	-7.1453	-27.720993	0.000304	3.040516	1.030155	-0.000122
1185	1.1781e+02	-7.1773	-27.894589	0.000436	4.358074	1.476555	-0.000174
1186	1.1791e+02	-7.2223	-28.003592	0.000274	2.736465	0.927139	-0.000110
1187	1.1801e+02	-7.2495	-28.185263	0.000456	4.560775	1.545232	-0.000183
1188	1.1811e+02	-7.2944	-28.318489	0.000334	3.344568	1.133170	-0.000134
1189	1.1821e+02	-7.3410	-28.447677	0.000324	3.243218	1.098832	-0.000130
1190	1.1831e+02	-7.3763	-28.568791	0.000304	3.040516	1.030155	-0.000122
1191	1.1841e+02	-7.4148	-28.746425	0.000446	4.459424	1.510894	-0.000179
1192	1.1850e+02	-7.4501	-28.867539	0.000304	3.040516	1.030155	-0.000122
1193	1.1860e+02	-7.4982	-28.976542	0.000274	2.736465	0.927139	-0.000110
1194	1.1870e+02	-7.5415	-29.138027	0.000405	4.054022	1.373540	-0.000162
1195	1.1880e+02	-7.5704	-29.271253	0.000334	3.344568	1.133170	-0.000134
1196	1.1890e+02	-7.6265	-29.388330	0.000294	2.939166	0.995816	-0.000118
1197	1.1900e+02	-7.6602	-29.594224	0.000517	5.168878	1.751263	-0.000207
1198	1.1910e+02	-7.6955	-29.695152	0.000253	2.533764	0.858462	-0.000101
1199	1.1920e+02	-7.7340	-29.816266	0.000304	3.040516	1.030155	-0.000122
1200	1.1930e+02	-7.7789	-29.937380	0.000304	3.040516	1.030155	-0.000122
1201	1.1940e+02	-7.8222	-30.082717	0.000365	3.648620	1.236186	-0.000146
1202	1.1950e+02	-7.8543	-30.219980	0.000345	3.445919	1.167509	-0.000138
1203	1.1960e+02	-7.8976	-30.353205	0.000334	3.344568	1.133170	-0.000134
1204	1.1970e+02	-7.9329	-30.470282	0.000294	2.939166	0.995816	-0.000118
1205	1.1980e+02	-7.9762	-30.595433	0.000314	3.141867	1.064493	-0.000126
1206	1.1990e+02	-8.0035	-30.781141	0.000466	4.662125	1.579571	-0.000187
1207	1.2000e+02	-8.0516	-30.942627	0.000405	4.054022	1.373540	-0.000162
1208	1.2010e+02	-8.0934	-31.027407	0.000213	2.128362	0.721108	-0.000085
1209	1.2020e+02	-8.1351	-31.164669	0.000345	3.445919	1.167509	-0.000138
1210	1.2030e+02	-8.1752	-31.285783	0.000304	3.040516	1.030155	-0.000122
1211	1.2039e+02	-8.2169	-31.414972	0.000324	3.243218	1.098832	-0.000130
1212	1.2049e+02	-8.2554	-31.576457	0.000405	4.054022	1.373540	-0.000162
1213	1.2059e+02	-8.2843	-31.705646	0.000324	3.243218	1.098832	-0.000130
1214	1.2069e+02	-8.3372	-31.834834	0.000324	3.243218	1.098832	-0.000130
1215	1.2079e+02	-8.3837	-31.972096	0.000345	3.445919	1.167509	-0.000138
1216	1.2089e+02	-8.4142	-32.089173	0.000294	2.939166	0.995816	-0.000118
1217	1.2099e+02	-8.4527	-32.214325	0.000314	3.141867	1.064493	-0.000126
1218	1.2109e+02	-8.4832	-32.335439	0.000304	3.040516	1.030155	-0.000122
1219	1.2119e+02	-8.5425	-32.480776	0.000365	3.648620	1.236186	-0.000146
1220	1.2129e+02	-8.5810	-32.618038	0.000345	3.445919	1.167509	-0.000138
1221	1.2139e+02	-8.6211	-32.787598	0.000426	4.256723	1.442217	-0.000170
1222	1.2149e+02	-8.6548	-32.872378	0.000213	2.128362	0.721108	-0.000085
1223	1.2159e+02	-8.6853	-33.017715	0.000365	3.648620	1.236186	-0.000146
1224	1.2169e+02	-8.7286	-33.110569	0.000233	2.331063	0.789785	-0.000093
1225	1.2179e+02	-8.7703	-33.272054	0.000405	4.054022	1.373540	-0.000162
1226	1.2189e+02	-8.8137	-33.453725	0.000456	4.560775	1.545232	-0.000183
1227	1.2199e+02	-8.8570	-33.526394	0.000182	1.824310	0.618093	-0.000073
1228	1.2209e+02	-8.8939	-33.675768	0.000375	3.749970	1.270524	-0.000150
1229	1.2219e+02	-8.9404	-33.841290	0.000416	4.155373	1.407878	-0.000166
1230	1.2229e+02	-8.9677	-33.958367	0.000294	2.939166	0.995816	-0.000118
1231	1.2239e+02	-9.0158	-34.051221	0.000233	2.331063	0.789785	-0.000093
1232	1.2248e+02	-9.0527	-34.220781	0.000426	4.256723	1.442217	-0.000170
1233	1.2258e+02	-9.1008	-34.309598	0.000223	2.229712	0.755447	-0.000089
1234	1.2268e+02	-9.1297	-34.422638	0.000284	2.837815	0.961478	-0.000114
1235	1.2278e+02	-9.1714	-34.567975	0.000365	3.648620	1.236186	-0.000146
1236	1.2288e+02	-9.2147	-34.664866	0.000243	2.432413	0.824124	-0.000097
1237	1.2298e+02	-9.2548	-34.794054	0.000324	3.243218	1.098832	-0.000130
1238	1.2308e+02	-9.2965	-34.963614	0.000426	4.256723	1.442217	-0.000170
1239	1.2318e+02	-9.3254	-35.084728	0.000304	3.040516	1.030155	-0.000122
1240	1.2328e+02	-9.3767	-35.185657	0.000253	2.533764	0.858462	-0.000101
1241	1.2338e+02	-9.4217	-35.339068	0.000385	3.851321	1.304863	-0.000154
1242	1.2348e+02	-9.4537	-35.456145	0.000294	2.939166	0.995816	-0.000118
1243	1.2358e+02	-9.4971	-35.544962	0.000223	2.229712	0.755447	-0.000089
1244	1.2368e+02	-9.5275	-35.690298	0.000365	3.648620	1.236186	-0.000146
1245	1.2378e+02	-9.5644	-35.807375	0.000294	2.939166	0.995816	-0.000118
1246	1.2388e+02	-9.6078	-35.924452	0.000294	2.939166	0.995816	-0.000118
1247	1.2398e+02	-9.6446	-36.098049	0.000436	4.358074	1.476555	-0.000174
1248	1.2408e+02	-9.6928	-36.227238	0.000324	3.243218	1.098832	-0.000130
1249	1.2418e+02	-9.7281	-36.303943	0.000193	1.925660	0.652431	-0.000077
1250	1.2428e+02	-9.7666	-36.445243	0.000355	3.547269	1.201847	-0.000142
1251	1.2438e+02	-9.8099	-36.554246	0.000274	2.736465	0.927139	-0.000110
1252	1.2447e+02	-9.8452	-36.639025	0.000213	2.128362	0.721108	-0.000085
1253	1.2457e+02	-9.8821	-36.812622	0.000436	4.358074	1.476555	-0.000174
1254	1.2467e+02	-9.9270	-36.929699	0.000294	2.939166	0.995816	-0.000118
1255	1.2477e+02	-9.9623	-37.062925	0.000334	3.344568	1.133170	-0.000134
1256	1.2487e+02	-10.0088	-37.180002	0.000294	2.939166	0.995816	-0.000118
1257	1.2497e+02	-10.0505	-37.329376	0.000375	3.749970	1.270524	-0.000150
1258	1.2507e+02	-10.0906	-37.442415	0.000284	2.837815	0.961478	-0.000114
1259	1.2517e+02	-10.1307	-37.571604	0.000324	3.243218	1.098832	-0.000130
1260	1.2527e+02	-10.1756	-37.680606	0.000274	2.736465	0.927139	-0.000110
1261	1.2537e+02	-10.2109	-37.801720	0.000304	3.040516	1.030155	-0.000122
1262	1.2547e+02	-10.2527	-37.938983	0.000345	3.445919	1.167509	-0.000138
1263	1.2557e+02	-10.2912	-38.043949	0.000264	2.635114	0.892801	-0.000105
1264	1.2567e+02	-10.3329	-38.209471	0.000416	4.155373	1.407878	-0.000166
1265	1.2577e+02	-10.3633	-38.302325	0.000233	2.331063	0.789785	-0.000093
1266	1.2587e+02	-10.4083	-38.415365	0.000284	2.837815	0.961478	-0.000114
1267	1.2597e+02	-10.4548	-38.540516	0.000314	3.141867	1.064493	-0.000126
1268	1.2607e+02	-10.4821	-38.661630	0.000304	3.040516	1.030155	-0.000122
1269	1.2617e+02	-10.5302	-38.798893	0.000345	3.445919	1.167509	-0.000138
1270	1.2627e+02	-10.5655	-38.895784	0.000243	2.432413	0.824124	-0.000097
1271	1.2636e+02	-10.5992	-39.049195	0.000385	3.851321	1.304863	-0.000154
1272	1.2646e+02	-10.6489	-39.142050	0.000233	2.331063	0.789785	-0.000093
1273	1.2656e+02	-10.6922	-39.259126	0.000294	2.939166	0.995816	-0.000118
1274	1.2666e+02	-10.7211	-39.376203	0.000294	2.939166	0.995816	-0.000118
1275	1.2676e+02	-10.7660	-39.485206	0.000274	2.736465	0.927139	-0.000110
1276	1.2686e+02	-10.7965	-39.622469	0.000345	3.445919	1.167509	-0.000138
1277	1.2696e+02	-10.8478	-39.743583	0.000304	3.040516	1.030155	-0.000122
1278	1.2706e+02	-10.8911	-39.876808	0.000334	3.344568	1.133170	-0.000134
1279	1.2716e+02	-10.9248	-40.022145	0.000365	3.648620	1.236186	-0.000146
1280	1.2726e+02	-10.9617	-40.098851	0.000193	1.925660	0.652431	-0.000077
1281	1.2736e+02	-11.0098	-40.256299	0.000395	3.952671	1.339201	-0.000158
1282	1.2746e+02	-11.0419	-40.369339	0.000284	2.837815	0.961478	-0.000114
1283	1.2756e+02	-11.0836	-40.474304	0.000264	2.635114	0.892801	-0.000105
1284	1.2766e+02	-11.1254	-40.643864	0.000426	4.256723	1.442217	-0.000170
1285	1.2776e+02	-11.1671	-40.716532	0.000182	1.824310	0.618093	-0.000073
1286	1.2786e+02	-11.2040	-40.906278	0.000476	4.763476	1.613909	-0.000191
1287	1.2796e+02	-11.2457	-41.015281	0.000274	2.736465	0.927139	-0.000110
1288	1.2806e+02	-11.2745	-41.091986	0.000193	1.925660	0.652431	-0.000077
1289	1.2816e+02	-11.3275	-41.217137	0.000314	3.141867	1.064493	-0.000126
1290	1.2826e+02	-11.3596	-41.358437	0.000355	3.547269	1.201847	-0.000142
1291	1.2835e+02	-11.3981	-41.447254	0.000223	2.229712	0.755447	-0.000089
1292	1.2845e+02	-11.4414	-41.584517	0.000345	3.445919	1.167509	-0.000138
1293	1.2855e+02	-11.4783	-41.721779	0.000345	3.445919	1.167509	-0.000138
1294	1.2865e+02	-11.5232	-41.810596	0.000223	2.229712	0.755447	-0.000089
1295	1.2875e+02	-11.5617	-41.927673	0.000294	2.939166	0.995816	-0.000118
1296	1.2885e+02	-11.6114	-42.052824	0.000314	3.141867	1.064493	-0.000126
1297	1.2895e+02	-11.6371	-42.194124	0.000355	3.547269	1.201847	-0.000142
1298	1.2905e+02	-11.6852	-42.299090	0.000264	2.635114	0.892801	-0.000105
1299	1.2915e+02	-11.7237	-42.420204	0.000304	3.040516	1.030155	-0.000122
1300	1.2925e+02	-11.7606	-42.541318	0.000304	3.040516	1.030155	-0.000122
1301	1.2935e+02	-11.7911	-42.662432	0.000304	3.040516	1.030155	-0.000122
1302	1.2945e+02	-11.8328	-42.791620	0.000324	3.243218	1.098832	-0.000130
1303	1.2955e+02	-11.8729	-42.888512	0.000243	2.432413	0.824124	-0.000097
1304	1.2965e+02	-11.9211	-43.049997	0.000405	4.054022	1.373540	-0.000162
1305	1.2975e+02	-11.9692	-43.134777	0.000213	2.128362	0.721108	-0.000085
1306	1.2985e+02	-12.0045	-43.263965	0.000324	3.243218	1.098832	-0.000130
1307	1.2995e+02	-12.0317	-43.364894	0.000253	2.533764	0.858462	-0.000101
1308	1.3005e+02	-12.0783	-43.514268	0.000375	3.749970	1.270524	-0.000150
1309	1.3015e+02	-12.1296	-43.590973	0.000193	1.925660	0.652431	-0.000077
1310	1.3025e+02	-12.1617	-43.756496	0.000416	4.155373	1.407878	-0.000166
1311	1.3034e+02	-12.2002	-43.833201	0.000193	1.925660	0.652431	-0.000077
1312	1.3044e+02	-12.2387	-43.986612	0.000385	3.851321	1.304863	-0.000154
1313	1.3054e+02	-12.2820	-44.107727	0.000304	3.040516	1.030155	-0.000122
1314	1.3064e+02	-12.3189	-44.228841	0.000304	3.040516	1.030155	-0.000122
1315	1.3074e+02	-12.3510	-44.341880	0.000284	2.837815	0.961478	-0.000114
1316	1.3084e+02	-12.4071	-44.442809	0.000253	2.533764	0.858462	-0.000101
1317	1.3094e+02	-12.4360	-44.563923	0.000304	3.040516	1.030155	-0.000122
1318	1.3104e+02	-12.4841	-44.713297	0.000375	3.749970	1.270524	-0.000150
1319	1.3114e+02	-12.5258	-44.822300	0.000274	2.736465	0.927139	-0.000110
1320	1.3124e+02	-12.5644	-44.939376	0.000294	2.939166	0.995816	-0.000118
1321	1.3134e+02	-12.5964	-45.044342	0.000264	2.635114	0.892801	-0.000105
1322	1.3144e+02	-12.6301	-45.205827	0.000405	4.054022	1.373540	-0.000162
1323	1.3154e+02	-12.6734	-45.282533	0.000193	1.925660	0.652431	-0.000077
1324	1.3164e+02	-12.7232	-45.452093	0.000426	4.256723	1.442217	-0.000170
1325	1.3174e+02	-12.7569	-45.536873	0.000213	2.128362	0.721108	-0.000085
1326	1.3184e+02	-12.8066	-45.662024	0.000314	3.141867	1.064493	-0.000126
1327	1.3194e+02	-12.8435	-45.762952	0.000253	2.533764	0.858462	-0.000101
1328	1.3204e+02	-12.8740	-45.920400	0.000395	3.952671	1.339201	-0.000158
1329	1.3214e+02	-12.9141	-45.972883	0.000132	1.317557	0.446400	-0.000053
1330	1.3224e+02	-12.9542	-46.162629	0.000476	4.763476	1.613909	-0.000191
1331	1.3234e+02	-13.0007	-46.251446	0.000223	2.229712	0.755447	-0.000089
1332	1.3243e+02	-13.0440	-46.340263	0.000223	2.229712	0.755447	-0.000089
1333	1.3253e+02	-13.0745	-46.412931	0.000182	1.824310	0.618093	-0.000073
1334	1.3263e+02	-13.1146	-46.610751	0.000497	4.966177	1.682586	-0.000199
1335	1.3273e+02	-13.1435	-46.711679	0.000253	2.533764	0.858462	-0.000101
1336	1.3283e+02	-13.1948	-46.832793	0.000304	3.040516	1.030155	-0.000122
1337	1.3293e+02	-13.2397	-46.937759	0.000264	2.635114	0.892801	-0.000105
1338	1.3303e+02	-13.2750	-47.042724	0.000264	2.635114	0.892801	-0.000105
1339	1.3313e+02	-13.3199	-47.143653	0.000253	2.533764	0.858462	-0.000101
1340	1.3323e+02	-13.3520	-47.260730	0.000294	2.939166	0.995816	-0.000118
1341	1.3333e+02	-13.3905	-47.389918	0.000324	3.243218	1.098832	-0.000130
1342	1.3343e+02	-13.4290	-47.523143	0.000334	3.344568	1.133170	-0.000134
1343	1.3353e+02	-13.4772	-47.603886	0.000203	2.027011	0.686770	-0.000081
1344	1.3363e+02	-13.5125	-47.733074	0.000324	3.243218	1.098832	-0.000130
1345	1.3373e+02	-13.5574	-47.846114	0.000284	2.837815	0.961478	-0.000114
1346	1.3383e+02	-13.5927	-47.971265	0.000314	3.141867	1.064493	-0.000126
1347	1.3393e+02	-13.6392	-48.080268	0.000274	2.736465	0.927139	-0.000110
1348	1.3403e+02	-13.6777	-48.197345	0.000294	2.939166	0.995816	-0.000118
1349	1.3413e+02	-13.7130	-48.330570	0.000334	3.344568	1.133170	-0.000134
1350	1.3423e+02	-13.7515	-48.451685	0.000304	3.040516	1.030155	-0.000122
1351	1.3432e+02	-13.7980	-48.552613	0.000253	2.533764	0.858462	-0.000101
1352	1.3442e+02	-13.8221	-48.657578	0.000264	2.635114	0.892801	-0.000105
1353	1.3452e+02	-13.8750	-48.762544	0.000264	2.635114	0.892801	-0.000105
1354	1.3462e+02	-13.9071	-48.871547	0.000274	2.736465	0.927139	-0.000110
1355	1.3472e+02	-13.9488	-49.028995	0.000395	3.952671	1.339201	-0.000158
1356	1.3482e+02	-13.9985	-49.089552	0.000152	1.520258	0.515077	-0.000061
1357	1.3492e+02	-14.0322	-49.206629	0.000294	2.939166	0.995816	-0.000118
1358	1.3502e+02	-14.0804	-49.319669	0.000284	2.837815	0.961478	-0.000114
1359	1.3512e+02	-14.1108	-49.432709	0.000284	2.837815	0.961478	-0.000114
1360	1.3522e+02	-14.1622	-49.582083	0.000375	3.749970	1.270524	-0.000150
1361	1.3532e+02	-14.1959	-49.687048	0.000264	2.635114	0.892801	-0.000105
1362	1.3542e+02	-14.2344	-49.796051	0.000274	2.736465	0.927139	-0.000110
1363	1.3552e+02	-14.2680	-49.892942	0.000243	2.432413	0.824124	-0.000097
1364	1.3562e+02	-14.3146	-49.989833	0.000243	2.432413	0.824124	-0.000097
1365	1.3572e+02	-14.3434	-50.135170	0.000365	3.648620	1.236186	-0.000146
1366	1.3582e+02	-14.3900	-50.256284	0.000304	3.040516	1.030155	-0.000122
1367	1.3592e+02	-14.4317	-50.357213	0.000253	2.533764	0.858462	-0.000101
1368	1.3602e+02	-14.4686	-50.454104	0.000243	2.432413	0.824124	-0.000097
1369	1.3612e+02	-14.5119	-50.595404	0.000355	3.547269	1.201847	-0.000142
1370	1.3622e+02	-14.5504	-50.684221	0.000223	2.229712	0.755447	-0.000089
1371	1.3631e+02	-14.6049	-50.781112	0.000243	2.432413	0.824124	-0.000097
1372	1.3641e+02	-14.6306	-50.922412	0.000355	3.547269	1.201847	-0.000142
1373	1.3651e+02	-14.6755	-50.991043	0.000172	1.722959	0.583754	-0.000069
1374	1.3661e+02	-14.7108	-51.112157	0.000304	3.040516	1.030155	-0.000122
1375	1.3671e+02	-14.7445	-51.265568	0.000385	3.851321	1.304863	-0.000154
1376	1.3681e+02	-14.7814	-51.334199	0.000172	1.722959	0.583754	-0.000069
1377	1.3691e+02	-14.8263	-51.479536	0.000365	3.648620	1.236186	-0.000146
1378	1.3701e+02	-14.8712	-51.556242	0.000193	1.925660	0.652431	-0.000077
1379	1.3711e+02	-14.9065	-51.717727	0.000405	4.054022	1.373540	-0.000162
1380	1.3721e+02	-14.9466	-51.778284	0.000152	1.520258	0.515077	-0.000061
1381	1.3731e+02	-14.9932	-51.879213	0.000253	2.533764	0.858462	-0.000101
1382	1.3741e+02	-15.0252	-51.996290	0.000294	2.939166	0.995816	-0.000118
1383	1.3751e+02	-15.0702	-52.081070	0.000213	2.128362	0.721108	-0.000085
1384	1.3761e+02	-15.1071	-52.230444	0.000375	3.749970	1.270524	-0.000150
1385	1.3771e+02	-15.1488	-52.327335	0.000243	2.432413	0.824124	-0.000097
1386	1.3781e+02	-15.1889	-52.444412	0.000294	2.939166	0.995816	-0.000118
1387	1.3791e+02	-15.2226	-52.517080	0.000182	1.824310	0.618093	-0.000073
1388	1.3801e+02	-15.2675	-52.626083	0.000274	2.736465	0.927139	-0.000110
1389	1.3811e+02	-15.3028	-52.783531	0.000395	3.952671	1.339201	-0.000158
1390	1.3821e+02	-15.3461	-52.848125	0.000162	1.621609	0.549416	-0.000065
1391	1.3831e+02	-15.3894	-52.957128	0.000274	2.736465	0.927139	-0.000110
1392	1.3840e+02	-15.4263	-53.094391	0.000345	3.445919	1.167509	-0.000138
1393	1.3850e+02	-15.4728	-53.183208	0.000223	2.229712	0.755447	-0.000089
1394	1.3860e+02	-15.5001	-53.276062	0.000233	2.331063	0.789785	-0.000093
1395	1.3870e+02	-15.5434	-53.413324	0.000345	3.445919	1.167509	-0.000138
1396	1.3880e+02	-15.5915	-53.498104	0.000213	2.128362	0.721108	-0.000085
1397	1.3890e+02	-15.6252	-53.590958	0.000233	2.331063	0.789785	-0.000093
1398	1.3900e+02	-15.6734	-53.732258	0.000355	3.547269	1.201847	-0.000142
1399	1.3910e+02	-15.7135	-53.845298	0.000284	2.837815	0.961478	-0.000114
1400	1.3920e+02	-15.7423	-53.917966	0.000182	1.824310	0.618093	-0.000073
1401	1.3930e+02	-15.7889	-54.018895	0.000253	2.533764	0.858462	-0.000101
1402	1.3940e+02	-15.8225	-54.107712	0.000223	2.229712	0.755447	-0.000089
1403	1.3950e+02	-15.8675	-54.240937	0.000334	3.344568	1.133170	-0.000134
1404	1.3960e+02	-15.8979	-54.309569	0.000172	1.722959	0.583754	-0.000069
1405	1.3970e+02	-15.9493	-54.422608	0.000284	2.837815	0.961478	-0.000114
1406	1.3980e+02	-15.9894	-54.531611	0.000274	2.736465	0.927139	-0.000110
1407	1.3990e+02	-16.0215	-54.680985	0.000375	3.749970	1.270524	-0.000150
1408	1.4000e+02	-16.0664	-54.765765	0.000213	2.128362	0.721108	-0.000085
1409	1.4010e+02	-16.1129	-54.878805	0.000284	2.837815	0.961478	-0.000114
1410	1.4020e+02	-16.1418	-54.943399	0.000162	1.621609	0.549416	-0.000065
1411	1.4029e+02	-16.1787	-55.044327	0.000253	2.533764	0.858462	-0.000101
1412	1.4039e+02	-16.2140	-55.149293	0.000264	2.635114	0.892801	-0.000105
1413	1.4049e+02	-16.2653	-55.250221	0.000253	2.533764	0.858462	-0.000101
1414	1.4059e+02	-16.2958	-55.351150	0.000253	2.533764	0.858462	-0.000101
1415	1.4069e+02	-16.3439	-55.468226	0.000294	2.939166	0.995816	-0.000118
1416	1.4079e+02	-16.3904	-55.601452	0.000334	3.344568	1.133170	-0.000134
1417	1.4089e+02	-16.4322	-55.698343	0.000243	2.432413	0.824124	-0.000097
1418	1.4099e+02	-16.4674	-55.771012	0.000182	1.824310	0.618093	-0.000073
1419	1.4109e+02	-16.5011	-55.944608	0.000436	4.358074	1.476555	-0.000174
1420	1.4119e+02	-16.5396	-55.984980	0.000101	1.013505	0.343385	-0.000041
1421	1.4129e+02	-16.5797	-56.098020	0.000284	2.837815	0.961478	-0.000114
1422	1.4139e+02	-16.6182	-56.235282	0.000345	3.445919	1.167509	-0.000138
1423	1.4149e+02	-16.6567	-56.340248	0.000264	2.635114	0.892801	-0.000105
1424	1.4159e+02	-16.6985	-56.396768	0.000142	1.418908	0.480739	-0.000057
1425	1.4169e+02	-16.7402	-56.521919	0.000314	3.141867	1.064493	-0.000126
1426	1.4179e+02	-16.7803	-56.667256	0.000365	3.648620	1.236186	-0.000146
1427	1.4189e+02	-16.8172	-56.780296	0.000284	2.837815	0.961478	-0.000114
1428	1.4199e+02	-16.8669	-56.848927	0.000172	1.722959	0.583754	-0.000069
1429	1.4209e+02	-16.9006	-56.949855	0.000253	2.533764	0.858462	-0.000101
1430	1.4219e+02	-16.9375	-57.054821	0.000264	2.635114	0.892801	-0.000105
1431	1.4228e+02	-16.9744	-57.171898	0.000294	2.939166	0.995816	-0.000118
1432	1.4238e+02	-17.0257	-57.264752	0.000233	2.331063	0.789785	-0.000093
1433	1.4248e+02	-17.0594	-57.377792	0.000284	2.837815	0.961478	-0.000114
1434	1.4258e+02	-17.0963	-57.446423	0.000172	1.722959	0.583754	-0.000069
1435	1.4268e+02	-17.1364	-57.555426	0.000274	2.736465	0.927139	-0.000110
1436	1.4278e+02	-17.1797	-57.696725	0.000355	3.547269	1.201847	-0.000142
1437	1.4288e+02	-17.2182	-57.753245	0.000142	1.418908	0.480739	-0.000057
1438	1.4298e+02	-17.2583	-57.882434	0.000324	3.243218	1.098832	-0.000130
1439	1.4308e+02	-17.3097	-58.007585	0.000314	3.141867	1.064493	-0.000126
1440	1.4318e+02	-17.3402	-58.100439	0.000233	2.331063	0.789785	-0.000093
1441	1.4328e+02	-17.3803	-58.201367	0.000253	2.533764	0.858462	-0.000101
1442	1.4338e+02	-17.4091	-58.294221	0.000233	2.331063	0.789785	-0.000093
1443	1.4348e+02	-17.4637	-58.391113	0.000243	2.432413	0.824124	-0.000097
1444	1.4358e+02	-17.5022	-58.483967	0.000233	2.331063	0.789785	-0.000093
1445	1.4368e+02	-17.5375	-58.633341	0.000375	3.749970	1.270524	-0.000150
1446	1.4378e+02	-17.5808	-58.754455	0.000304	3.040516	1.030155	-0.000122
1447	1.4388e+02	-17.6289	-58.835198	0.000203	2.027011	0.686770	-0.000081
1448	1.4398e+02	-17.6610	-58.919978	0.000213	2.128362	0.721108	-0.000085
1449	1.4408e+02	-17.7011	-59.016869	0.000243	2.432413	0.824124	-0.000097
1450	1.4418e+02	-17.7380	-59.117797	0.000253	2.533764	0.858462	-0.000101
1451	1.4428e+02	-17.7717	-59.210651	0.000233	2.331063	0.789785	-0.000093
1452	1.4437e+02	-17.8182	-59.355988	0.000365	3.648620	1.236186	-0.000146
1453	1.4447e+02	-17.8567	-59.456917	0.000253	2.533764	0.858462	-0.000101
1454	1.4457e+02	-17.9000	-59.569956	0.000284	2.837815	0.961478	-0.000114
1455	1.4467e+02	-17.9369	-59.658773	0.000223	2.229712	0.755447	-0.000089
1456	1.4477e+02	-17.9818	-59.747590	0.000223	2.229712	0.755447	-0.000089
1457	1.4487e+02	-18.0187	-59.864667	0.000294	2.939166	0.995816	-0.000118
1458	1.4497e+02	-18.0588	-59.953484	0.000223	2.229712	0.755447	-0.000089
1459	1.4507e+02	-18.0925	-60.042301	0.000223	2.229712	0.755447	-0.000089
1460	1.4517e+02	-18.1487	-60.171490	0.000324	3.243218	1.098832	-0.000130
1461	1.4527e+02	-18.1792	-60.284529	0.000284	2.837815	0.961478	-0.000114
1462	1.4537e+02	-18.2193	-60.389495	0.000264	2.635114	0.892801	-0.000105
1463	1.4547e+02	-18.2530	-60.518683	0.000324	3.243218	1.098832	-0.000130
1464	1.4557e+02	-18.2915	-60.635760	0.000294	2.939166	0.995816	-0.000118
1465	1.4567e+02	-18.3348	-60.712466	0.000193	1.925660	0.652431	-0.000077
1466	1.4577e+02	-18.3781	-60.833580	0.000304	3.040516	1.030155	-0.000122
1467	1.4587e+02	-18.4118	-60.922397	0.000223	2.229712	0.755447	-0.000089
1468	1.4597e+02	-18.4503	-61.055622	0.000334	3.344568	1.133170	-0.000134
1469	1.4607e+02	-18.4968	-61.160588	0.000264	2.635114	0.892801	-0.000105
1470	1.4617e+02	-18.5417	-61.241331	0.000203	2.027011	0.686770	-0.000081
1471	1.4626e+02	-18.5786	-61.338222	0.000243	2.432413	0.824124	-0.000097
1472	1.4636e+02	-18.6091	-61.455299	0.000294	2.939166	0.995816	-0.000118
1473	1.4646e+02	-18.6588	-61.580450	0.000314	3.141867	1.064493	-0.000126
1474	1.4656e+02	-18.6941	-61.673304	0.000233	2.331063	0.789785	-0.000093
1475	1.4666e+02	-18.7390	-61.802492	0.000324	3.243218	1.098832	-0.000130
1476	1.4676e+02	-18.7711	-61.879198	0.000193	1.925660	0.652431	-0.000077
1477	1.4686e+02	-18.8096	-61.972052	0.000233	2.331063	0.789785	-0.000093
1478	1.4696e+02	-18.8578	-62.097203	0.000314	3.141867	1.064493	-0.000126
1479	1.4706e+02	-18.8995	-62.181983	0.000213	2.128362	0.721108	-0.000085
1480	1.4716e+02	-18.9316	-62.335394	0.000385	3.851321	1.304863	-0.000154
1481	1.4726e+02	-18.9717	-62.444397	0.000274	2.736465	0.927139	-0.000110
1482	1.4736e+02	-19.0086	-62.553400	0.000274	2.736465	0.927139	-0.000110
1483	1.4746e+02	-19.0599	-62.658365	0.000264	2.635114	0.892801	-0.000105
1484	1.4756e+02	-19.0984	-62.739108	0.000203	2.027011	0.686770	-0.000081
1485	1.4766e+02	-19.1305	-62.840036	0.000253	2.533764	0.858462	-0.000101
1486	1.4776e+02	-19.1754	-62.940965	0.000253	2.533764	0.858462	-0.000101
1487	1.4786e+02	-19.2155	-63.090339	0.000375	3.749970	1.270524	-0.000150
1488	1.4796e+02	-19.2444	-63.163007	0.000182	1.824310	0.618093	-0.000073
1489	1.4806e+02	-19.2925	-63.284121	0.000304	3.040516	1.030155	-0.000122
1490	1.4816e+02	-19.3342	-63.397161	0.000284	2.837815	0.961478	-0.000114
1491	1.4825e+02	-19.3631	-63.490015	0.000233	2.331063	0.789785	-0.000093
1492	1.4835e+02	-19.4080	-63.611129	0.000304	3.040516	1.030155	-0.000122
1493	1.4845e+02	-19.4626	-63.748392	0.000345	3.445919	1.167509	-0.000138
1494	1.4855e+02	-19.4850	-63.825097	0.000193	1.925660	0.652431	-0.000077
1495	1.4865e+02	-19.5363	-63.962360	0.000345	3.445919	1.167509	-0.000138
1496	1.4875e+02	-19.5684	-64.047140	0.000213	2.128362	0.721108	-0.000085
1497	1.4885e+02	-19.6085	-64.172291	0.000314	3.141867	1.064493	-0.000126
1498	1.4895e+02	-19.6422	-64.257071	0.000213	2.128362	0.721108	-0.000085
1499	1.4905e+02	-19.6871	-64.390296	0.000334	3.344568	1.133170	-0.000134
1500	1.4915e+02	-19.7176	-64.515448	0.000314	3.141867	1.064493	-0.000126
1501	1.4925e+02	-19.7706	-64.580042	0.000162	1.621609	0.549416	-0.000065
1502	1.4935e+02	-19.8107	-64.721342	0.000355	3.547269	1.201847	-0.000142
1503	1.4945e+02	-19.8540	-64.818233	0.000243	2.432413	0.824124	-0.000097
1504	1.4955e+02	-19.8925	-64.947421	0.000324	3.243218	1.098832	-0.000130
1505	1.4965e+02	-19.9390	-65.028164	0.000203	2.027011	0.686770	-0.000081
1506	1.4975e+02	-19.9695	-65.153315	0.000314	3.141867	1.064493	-0.000126
1507	1.4985e+02	-20.0032	-65.270392	0.000294	2.939166	0.995816	-0.000118
1508	1.4995e+02	-19.9631	-65.185612	0.000213	2.128362	0.721108	0.000085
1509	1.5005e+02	-19.9246	-65.145241	0.000101	1.013505	0.343385	0.000041
1510	1.5015e+02	-19.8909	-65.032201	0.000284	2.837815	0.961478	0.000114
1511	1.5025e+02	-19.8492	-64.987793	0.000111	1.114856	0.377723	0.000045
1512	1.5034e+02	-19.8123	-64.919161	0.000172	1.722959	0.583754	0.000069
1513	1.5044e+02	-19.7754	-64.854567	0.000162	1.621609	0.549416	0.000065
1514	1.5054e+02	-19.7176	-64.798047	0.000142	1.418908	0.480739	0.000057
1515	1.5064e+02	-19.6871	-64.741527	0.000142	1.418908	0.480739	0.000057
1516	1.5074e+02	-19.6470	-64.680970	0.000152	1.520258	0.515077	0.000061
1517	1.5084e+02	-19.6134	-64.608302	0.000182	1.824310	0.618093	0.000073
1518	1.5094e+02	-19.5652	-64.547745	0.000152	1.520258	0.515077	0.000061
1519	1.5104e+02	-19.5267	-64.446816	0.000253	2.533764	0.858462	0.000101
1520	1.5114e+02	-19.4914	-64.357999	0.000223	2.229712	0.755447	0.000089
1521	1.5124e+02	-19.4529	-64.329739	0.000071	0.709454	0.240369	0.000028
1522	1.5134e+02	-19.4096	-64.216700	0.000284	2.837815	0.961478	0.000114
1523	1.5144e+02	-19.3679	-64.176328	0.000101	1.013505	0.343385	0.000041
1524	1.5154e+02	-19.3246	-64.095586	0.000203	2.027011	0.686770	0.000081
1525	1.5164e+02	-19.2925	-64.026954	0.000172	1.722959	0.583754	0.000069
1526	1.5174e+02	-19.2556	-63.950249	0.000193	1.925660	0.652431	0.000077
1527	1.5184e+02	-19.2171	-63.873543	0.000193	1.925660	0.652431	0.000077
1528	1.5194e+02	-19.1786	-63.792800	0.000203	2.027011	0.686770	0.000081
1529	1.5204e+02	-19.1305	-63.675723	0.000294	2.939166	0.995816	0.000118
1530	1.5214e+02	-19.0968	-63.643426	0.000081	0.810804	0.274708	0.000032
1531	1.5224e+02	-19.0471	-63.542498	0.000253	2.533764	0.858462	0.000101
1532	1.5233e+02	-19.0150	-63.465792	0.000193	1.925660	0.652431	0.000077
1533	1.5243e+02	-18.9684	-63.393124	0.000182	1.824310	0.618093	0.000073
1534	1.5253e+02	-18.9364	-63.316418	0.000193	1.925660	0.652431	0.000077
1535	1.5263e+02	-18.8930	-63.227601	0.000223	2.229712	0.755447	0.000089
1536	1.5273e+02	-18.8513	-63.171081	0.000142	1.418908	0.480739	0.000057
1537	1.5283e+02	-18.8177	-63.082264	0.000223	2.229712	0.755447	0.000089
1538	1.5293e+02	-18.7791	-62.977299	0.000264	2.635114	0.892801	0.000105
1539	1.5303e+02	-18.7326	-62.900593	0.000193	1.925660	0.652431	0.000077
1540	1.5313e+02	-18.6909	-62.811776	0.000223	2.229712	0.755447	0.000089
1541	1.5323e+02	-18.6540	-62.751219	0.000152	1.520258	0.515077	0.000061
1542	1.5333e+02	-18.6171	-62.654328	0.000243	2.432413	0.824124	0.000097
1543	1.5343e+02	-18.5722	-62.577623	0.000193	1.925660	0.652431	0.000077
1544	1.5353e+02	-18.5369	-62.496880	0.000203	2.027011	0.686770	0.000081
1545	1.5363e+02	-18.4920	-62.416137	0.000203	2.027011	0.686770	0.000081
1546	1.5373e+02	-18.4535	-62.307134	0.000274	2.736465	0.927139	0.000110
1547	1.5383e+02	-18.4134	-62.226392	0.000203	2.027011	0.686770	0.000081
1548	1.5393e+02	-18.3733	-62.157760	0.000172	1.722959	0.583754	0.000069
1549	1.5403e+02	-18.3412	-62.089129	0.000172	1.722959	0.583754	0.000069
1550	1.5413e+02	-18.3059	-61.980126	0.000274	2.736465	0.927139	0.000110
1551	1.5422e+02	-18.2562	-61.887272	0.000233	2.331063	0.789785	0.000093
1552	1.5432e+02	-18.2177	-61.842864	0.000111	1.114856	0.377723	0.000045
1553	1.5442e+02	-18.1744	-61.697527	0.000365	3.648620	1.236186	0.000146
1554	1.5452e+02	-18.1294	-61.649081	0.000122	1.216207	0.412062	0.000049
1555	1.5462e+02	-18.0925	-61.564301	0.000213	2.128362	0.721108	0.000085
1556	1.5472e+02	-18.0605	-61.503744	0.000152	1.520258	0.515077	0.000061
1557	1.5482e+02	-18.0171	-61.390705	0.000284	2.837815	0.961478	0.000114
1558	1.5492e+02	-17.9738	-61.326110	0.000162	1.621609	0.549416	0.000065
1559	1.5502e+02	-17.9353	-61.192885	0.000334	3.344568	1.133170	0.000134
1560	1.5512e+02	-17.8984	-61.128291	0.000162	1.621609	0.549416	0.000065
1561	1.5522e+02	-17.8728	-61.035437	0.000233	2.331063	0.789785	0.000093
1562	1.5532e+02	-17.8134	-60.930471	0.000264	2.635114	0.892801	0.000105
1563	1.5542e+02	-17.7813	-60.898174	0.000081	0.810804	0.274708	0.000032
1564	1.5552e+02	-17.7332	-60.781097	0.000294	2.939166	0.995816	0.000118
1565	1.5562e+02	-17.6947	-60.680169	0.000253	2.533764	0.858462	0.000101
1566	1.5572e+02	-17.6658	-60.615575	0.000162	1.621609	0.549416	0.000065
1567	1.5582e+02	-17.6305	-60.518683	0.000243	2.432413	0.824124	0.000097
1568	1.5592e+02	-17.5776	-60.401606	0.000294	2.939166	0.995816	0.000118
1569	1.5602e+02	-17.5391	-60.337012	0.000162	1.621609	0.549416	0.000065
1570	1.5612e+02	-17.5134	-60.252232	0.000213	2.128362	0.721108	0.000085
1571	1.5622e+02	-17.4637	-60.143230	0.000274	2.736465	0.927139	0.000110
1572	1.5631e+02	-17.4268	-60.050376	0.000233	2.331063	0.789785	0.000093
1573	1.5641e+02	-17.3851	-59.929261	0.000304	3.040516	1.030155	0.000122
1574	1.5651e+02	-17.3385	-59.884853	0.000111	1.114856	0.377723	0.000045
1575	1.5661e+02	-17.3065	-59.812185	0.000182	1.824310	0.618093	0.000073
1576	1.5671e+02	-17.2551	-59.634551	0.000446	4.459424	1.510894	0.000179
1577	1.5681e+02	-17.2198	-59.602253	0.000081	0.810804	0.274708	0.000032
1578	1.5691e+02	-17.1765	-59.477102	0.000314	3.141867	1.064493	0.000126
1579	1.5701e+02	-17.1380	-59.416545	0.000152	1.520258	0.515077	0.000061
1580	1.5711e+02	-17.1011	-59.315617	0.000253	2.533764	0.858462	0.000101
1581	1.5721e+02	-17.0626	-59.222763	0.000233	2.331063	0.789785	0.000093
1582	1.5731e+02	-17.0209	-59.129909	0.000233	2.331063	0.789785	0.000093
1583	1.5741e+02	-16.9872	-59.069352	0.000152	1.520258	0.515077	0.000061
1584	1.5751e+02	-16.9455	-58.924015	0.000365	3.648620	1.236186	0.000146
1585	1.5761e+02	-16.8926	-58.855383	0.000172	1.722959	0.583754	0.000069
1586	1.5771e+02	-16.8717	-58.762529	0.000233	2.331063	0.789785	0.000093
1587	1.5781e+02	-16.8220	-58.681787	0.000203	2.027011	0.686770	0.000081
1588	1.5791e+02	-16.7867	-58.532412	0.000375	3.749970	1.270524	0.000150
1589	1.5801e+02	-16.7402	-58.475893	0.000142	1.418908	0.480739	0.000057
1590	1.5811e+02	-16.7001	-58.387076	0.000223	2.229712	0.755447	0.000089
1591	1.5821e+02	-16.6567	-58.322481	0.000162	1.621609	0.549416	0.000065
1592	1.5830e+02	-16.6231	-58.217516	0.000264	2.635114	0.892801	0.000105
1593	1.5840e+02	-16.5862	-58.156959	0.000152	1.520258	0.515077	0.000061
1594	1.5850e+02	-16.5428	-58.011622	0.000365	3.648620	1.236186	0.000146
1595	1.5860e+02	-16.4963	-57.906656	0.000264	2.635114	0.892801	0.000105
1596	1.5870e+02	-16.4610	-57.797654	0.000274	2.736465	0.927139	0.000110
1597	1.5880e+02	-16.4209	-57.773431	0.000061	0.608103	0.206031	0.000024
1598	1.5890e+02	-16.3824	-57.676540	0.000243	2.432413	0.824124	0.000097
1599	1.5900e+02	-16.3391	-57.539277	0.000345	3.445919	1.167509	0.000138
1600	1.5910e+02	-16.3102	-57.482757	0.000142	1.418908	0.480739	0.000057
1601	1.5920e+02	-16.2653	-57.385866	0.000243	2.432413	0.824124	0.000097
1602	1.5930e+02	-16.2252	-57.260715	0.000314	3.141867	1.064493	0.000126
1603	1.5940e+02	-16.1787	-57.151712	0.000274	2.736465	0.927139	0.000110
1604	1.5950e+02	-16.1370	-57.066932	0.000213	2.128362	0.721108	0.000085
1605	1.5960e+02	-16.1065	-56.986190	0.000203	2.027011	0.686770	0.000081
1606	1.5970e+02	-16.0648	-56.881224	0.000264	2.635114	0.892801	0.000105
1607	1.5980e+02	-16.0263	-56.792407	0.000223	2.229712	0.755447	0.000089
1608	1.5990e+02	-15.9862	-56.667256	0.000314	3.141867	1.064493	0.000126
1609	1.6000e+02	-15.9397	-56.606699	0.000152	1.520258	0.515077	0.000061
1610	1.6010e+02	-15.9028	-56.517882	0.000223	2.229712	0.755447	0.000089
1611	1.6019e+02	-15.8627	-56.416953	0.000253	2.533764	0.858462	0.000101
1612	1.6029e+02	-15.8209	-56.299876	0.000294	2.939166	0.995816	0.000118
1613	1.6039e+02	-15.7776	-56.219134	0.000203	2.027011	0.686770	0.000081
1614	1.6049e+02	-15.7391	-56.118205	0.000253	2.533764	0.858462	0.000101
1615	1.6059e+02	-15.7183	-56.049574	0.000172	1.722959	0.583754	0.000069
1616	1.6069e+02	-15.6621	-55.948646	0.000253	2.533764	0.858462	0.000101
1617	1.6079e+02	-15.6204	-55.859829	0.000223	2.229712	0.755447	0.000089
1618	1.6089e+02	-15.5835	-55.730640	0.000324	3.243218	1.098832	0.000130
1619	1.6099e+02	-15.5546	-55.653935	0.000193	1.925660	0.652431	0.000077
1620	1.6109e+02	-15.5033	-55.512635	0.000355	3.547269	1.201847	0.000142
1621	1.6119e+02	-15.4680	-55.460152	0.000132	1.317557	0.446400	0.000053
1622	1.6129e+02	-15.4295	-55.351150	0.000274	2.736465	0.927139	0.000110
1623	1.6139e+02	-15.3846	-55.254258	0.000243	2.432413	0.824124	0.000097
1624	1.6149e+02	-15.3429	-55.133144	0.000304	3.040516	1.030155	0.000122
1625	1.6159e+02	-15.3044	-55.060476	0.000182	1.824310	0.618093	0.000073
1626	1.6169e+02	-15.2675	-54.963585	0.000243	2.432413	0.824124	0.000097
1627	1.6179e+02	-15.2274	-54.894953	0.000172	1.722959	0.583754	0.000069
1628	1.6189e+02	-15.1857	-54.789988	0.000264	2.635114	0.892801	0.000105
1629	1.6199e+02	-15.1440	-54.689059	0.000253	2.533764	0.858462	0.000101
1630	1.6209e+02	-15.1087	-54.592168	0.000243	2.432413	0.824124	0.000097
1631	1.6219e+02	-15.0670	-54.511425	0.000203	2.027011	0.686770	0.000081
1632	1.6228e+02	-15.0252	-54.414534	0.000243	2.432413	0.824124	0.000097
1633	1.6238e+02	-14.9980	-54.309569	0.000264	2.635114	0.892801	0.000105
1634	1.6248e+02	-14.9531	-54.192492	0.000294	2.939166	0.995816	0.000118
1635	1.6258e+02	-14.9017	-54.111749	0.000203	2.027011	0.686770	0.000081
1636	1.6268e+02	-14.8712	-54.031006	0.000203	2.027011	0.686770	0.000081
1637	1.6278e+02	-14.8295	-53.865484	0.000416	4.155373	1.407878	0.000166
1638	1.6288e+02	-14.7942	-53.829149	0.000091	0.912155	0.309046	0.000037
1639	1.6298e+02	-14.7381	-53.724184	0.000264	2.635114	0.892801	0.000105
1640	1.6308e+02	-14.7220	-53.590958	0.000334	3.344568	1.133170	0.000134
1641	1.6318e+02	-14.6755	-53.550587	0.000101	1.013505	0.343385	0.000041
1642	1.6328e+02	-14.6338	-53.421399	0.000324	3.243218	1.098832	0.000130
1643	1.6338e+02	-14.5921	-53.344693	0.000193	1.925660	0.652431	0.000077
1644	1.6348e+02	-14.5488	-53.259913	0.000213	2.128362	0.721108	0.000085
1645	1.6358e+02	-14.5087	-53.118613	0.000355	3.547269	1.201847	0.000142
1646	1.6368e+02	-14.4782	-53.025759	0.000233	2.331063	0.789785	0.000093
1647	1.6378e+02	-14.4349	-52.932905	0.000233	2.331063	0.789785	0.000093
1648	1.6388e+02	-14.3884	-52.852163	0.000203	2.027011	0.686770	0.000081
1649	1.6398e+02	-14.3563	-52.763346	0.000223	2.229712	0.755447	0.000089
1650	1.6408e+02	-14.3065	-52.666454	0.000243	2.432413	0.824124	0.000097
1651	1.6418e+02	-14.2680	-52.573600	0.000233	2.331063	0.789785	0.000093
1652	1.6427e+02	-14.2279	-52.468635	0.000264	2.635114	0.892801	0.000105
1653	1.6437e+02	-14.1943	-52.371743	0.000243	2.432413	0.824124	0.000097
1654	1.6447e+02	-14.1477	-52.262741	0.000274	2.736465	0.927139	0.000110
1655	1.6457e+02	-14.1156	-52.198147	0.000162	1.621609	0.549416	0.000065
1656	1.6467e+02	-14.0787	-52.060884	0.000345	3.445919	1.167509	0.000138
1657	1.6477e+02	-14.0370	-51.963993	0.000243	2.432413	0.824124	0.000097
1658	1.6487e+02	-13.9905	-51.871139	0.000233	2.331063	0.789785	0.000093
1659	1.6497e+02	-13.9456	-51.786359	0.000213	2.128362	0.721108	0.000085
1660	1.6507e+02	-13.9071	-51.685430	0.000253	2.533764	0.858462	0.000101
1661	1.6517e+02	-13.8782	-51.588539	0.000243	2.432413	0.824124	0.000097
1662	1.6527e+02	-13.8269	-51.455314	0.000334	3.344568	1.133170	0.000134
1663	1.6537e+02	-13.7932	-51.386682	0.000172	1.722959	0.583754	0.000069
1664	1.6547e+02	-13.7467	-51.273642	0.000284	2.837815	0.961478	0.000114
1665	1.6557e+02	-13.7130	-51.160603	0.000284	2.837815	0.961478	0.000114
1666	1.6567e+02	-13.6713	-51.104083	0.000142	1.418908	0.480739	0.000057
1667	1.6577e+02	-13.6360	-50.995080	0.000274	2.736465	0.927139	0.000110
1668	1.6587e+02	-13.5943	-50.902226	0.000233	2.331063	0.789785	0.000093
1669	1.6597e+02	-13.5574	-50.756889	0.000365	3.648620	1.236186	0.000146
1670	1.6607e+02	-13.5060	-50.676146	0.000203	2.027011	0.686770	0.000081
1671	1.6616e+02	-13.4707	-50.579255	0.000243	2.432413	0.824124	0.000097
1672	1.6626e+02	-13.4387	-50.526772	0.000132	1.317557	0.446400	0.000053
1673	1.6636e+02	-13.3953	-50.373361	0.000385	3.851321	1.304863	0.000154
1674	1.6646e+02	-13.3536	-50.268396	0.000264	2.635114	0.892801	0.000105
1675	1.6656e+02	-13.3055	-50.167467	0.000253	2.533764	0.858462	0.000101
1676	1.6666e+02	-13.2718	-50.070576	0.000243	2.432413	0.824124	0.000097
1677	1.6676e+02	-13.2413	-49.941388	0.000324	3.243218	1.098832	0.000130
1678	1.6686e+02	-13.2044	-49.828348	0.000284	2.837815	0.961478	0.000114
1679	1.6696e+02	-13.1531	-49.739531	0.000223	2.229712	0.755447	0.000089
1680	1.6706e+02	-13.1146	-49.638602	0.000253	2.533764	0.858462	0.000101
1681	1.6716e+02	-13.0713	-49.509414	0.000324	3.243218	1.098832	0.000130
1682	1.6726e+02	-13.0312	-49.412523	0.000243	2.432413	0.824124	0.000097
1683	1.6736e+02	-12.9959	-49.384263	0.000071	0.709454	0.240369	0.000028
1684	1.6746e+02	-12.9590	-49.259112	0.000314	3.141867	1.064493	0.000126
1685	1.6756e+02	-12.9221	-49.142035	0.000294	2.939166	0.995816	0.000118
1686	1.6766e+02	-12.8772	-49.020921	0.000304	3.040516	1.030155	0.000122
1687	1.6776e+02	-12.8355	-48.940178	0.000203	2.027011	0.686770	0.000081
1688	1.6786e+02	-12.8098	-48.847324	0.000233	2.331063	0.789785	0.000093
1689	1.6796e+02	-12.7569	-48.742358	0.000264	2.635114	0.892801	0.000105
1690	1.6806e+02	-12.7151	-48.605096	0.000345	3.445919	1.167509	0.000138
1691	1.6816e+02	-12.6766	-48.556650	0.000122	1.216207	0.412062	0.000049
1692	1.6825e+02	-12.6381	-48.447647	0.000274	2.736465	0.927139	0.000110
1693	1.6835e+02	-12.6012	-48.322496	0.000314	3.141867	1.064493	0.000126
1694	1.6845e+02	-12.5563	-48.237716	0.000213	2.128362	0.721108	0.000085
1695	1.6855e+02	-12.5275	-48.148899	0.000223	2.229712	0.755447	0.000089
1696	1.6865e+02	-12.4793	-48.027785	0.000304	3.040516	1.030155	0.000122
1697	1.6875e+02	-12.4472	-47.910708	0.000294	2.939166	0.995816	0.000118
1698	1.6885e+02	-12.3975	-47.801706	0.000274	2.736465	0.927139	0.000110
1699	1.6895e+02	-12.3654	-47.688666	0.000284	2.837815	0.961478	0.000114
1700	1.6905e+02	-12.3237	-47.595812	0.000233	2.331063	0.789785	0.000093
1701	1.6915e+02	-12.2868	-47.470661	0.000314	3.141867	1.064493	0.000126
1702	1.6925e+02	-12.2435	-47.357621	0.000284	2.837815	0.961478	0.000114
1703	1.6935e+02	-12.2002	-47.272841	0.000213	2.128362	0.721108	0.000085
1704	1.6945e+02	-12.1649	-47.163838	0.000274	2.736465	0.927139	0.000110
1705	1.6955e+02	-12.1136	-47.046761	0.000294	2.939166	0.995816	0.000118
1706	1.6965e+02	-12.0799	-46.937759	0.000274	2.736465	0.927139	0.000110
1707	1.6975e+02	-12.0398	-46.848942	0.000223	2.229712	0.755447	0.000089
1708	1.6985e+02	-11.9981	-46.719753	0.000324	3.243218	1.098832	0.000130
1709	1.6995e+02	-11.9515	-46.618825	0.000253	2.533764	0.858462	0.000101
1710	1.7005e+02	-11.9275	-46.505785	0.000284	2.837815	0.961478	0.000114
1711	1.7015e+02	-11.8890	-46.384671	0.000304	3.040516	1.030155	0.000122
1712	1.7024e+02	-11.8392	-46.279706	0.000264	2.635114	0.892801	0.000105
1713	1.7034e+02	-11.7959	-46.203000	0.000193	1.925660	0.652431	0.000077
1714	1.7044e+02	-11.7590	-46.049589	0.000385	3.851321	1.304863	0.000154
1715	1.7054e+02	-11.7269	-45.972883	0.000193	1.925660	0.652431	0.000077
1716	1.7064e+02	-11.6820	-45.880029	0.000233	2.331063	0.789785	0.000093
1717	1.7074e+02	-11.6419	-45.758915	0.000304	3.040516	1.030155	0.000122
1718	1.7084e+02	-11.5986	-45.645875	0.000284	2.837815	0.961478	0.000114
1719	1.7094e+02	-11.5665	-45.528798	0.000294	2.939166	0.995816	0.000118
1720	1.7104e+02	-11.5152	-45.419796	0.000274	2.736465	0.927139	0.000110
1721	1.7114e+02	-11.4815	-45.318867	0.000253	2.533764	0.858462	0.000101
1722	1.7124e+02	-11.4478	-45.153345	0.000416	4.155373	1.407878	0.000166
1723	1.7134e+02	-11.4029	-45.084713	0.000172	1.722959	0.583754	0.000069
1724	1.7144e+02	-11.3580	-44.963599	0.000304	3.040516	1.030155	0.000122
1725	1.7154e+02	-11.3163	-44.846522	0.000294	2.939166	0.995816	0.000118
1726	1.7164e+02	-11.2794	-44.741557	0.000264	2.635114	0.892801	0.000105
1727	1.7174e+02	-11.2441	-44.652740	0.000223	2.229712	0.755447	0.000089
1728	1.7184e+02	-11.2008	-44.495292	0.000395	3.952671	1.339201	0.000158
1729	1.7194e+02	-11.1655	-44.398400	0.000243	2.432413	0.824124	0.000097
1730	1.7204e+02	-11.1221	-44.293435	0.000264	2.635114	0.892801	0.000105
1731	1.7213e+02	-11.0836	-44.160209	0.000334	3.344568	1.133170	0.000134
1732	1.7223e+02	-11.0451	-44.059281	0.000253	2.533764	0.858462	0.000101
1733	1.7233e+02	-11.0018	-43.917981	0.000355	3.547269	1.201847	0.000142
1734	1.7243e+02	-10.9617	-43.829164	0.000223	2.229712	0.755447	0.000089
1735	1.7253e+02	-10.9216	-43.720161	0.000274	2.736465	0.927139	0.000110
1736	1.7263e+02	-10.8815	-43.615196	0.000264	2.635114	0.892801	0.000105
1737	1.7273e+02	-10.8430	-43.498119	0.000294	2.939166	0.995816	0.000118
1738	1.7283e+02	-10.8109	-43.377005	0.000304	3.040516	1.030155	0.000122
1739	1.7293e+02	-10.7644	-43.207445	0.000426	4.256723	1.442217	0.000170
1740	1.7303e+02	-10.7291	-43.138814	0.000172	1.722959	0.583754	0.000069
1741	1.7313e+02	-10.6826	-43.025774	0.000284	2.837815	0.961478	0.000114
1742	1.7323e+02	-10.6457	-42.896586	0.000324	3.243218	1.098832	0.000130
1743	1.7333e+02	-10.6024	-42.799695	0.000243	2.432413	0.824124	0.000097
1744	1.7343e+02	-10.5639	-42.650321	0.000375	3.749970	1.270524	0.000150
1745	1.7353e+02	-10.5302	-42.553429	0.000243	2.432413	0.824124	0.000097
1746	1.7363e+02	-10.4917	-42.436352	0.000294	2.939166	0.995816	0.000118
1747	1.7373e+02	-10.4452	-42.339461	0.000243	2.432413	0.824124	0.000097
1748	1.7383e+02	-10.4067	-42.186050	0.000385	3.851321	1.304863	0.000154
1749	1.7393e+02	-10.3698	-42.073010	0.000284	2.837815	0.961478	0.000114
1750	1.7403e+02	-10.3297	-41.968045	0.000264	2.635114	0.892801	0.000105
1751	1.7413e+02	-10.2847	-41.863079	0.000264	2.635114	0.892801	0.000105
1752	1.7422e+02	-10.2510	-41.737928	0.000314	3.141867	1.064493	0.000126
1753	1.7432e+02	-10.2190	-41.600665	0.000345	3.445919	1.167509	0.000138
1754	1.7442e+02	-10.1708	-41.523960	0.000193	1.925660	0.652431	0.000077
1755	1.7452e+02	-10.1291	-41.414957	0.000274	2.736465	0.927139	0.000110
1756	1.7462e+02	-10.0794	-41.277694	0.000345	3.445919	1.167509	0.000138
1757	1.7472e+02	-10.0537	-41.148506	0.000324	3.243218	1.098832	0.000130
1758	1.7482e+02	-10.0104	-41.059689	0.000223	2.229712	0.755447	0.000089
1759	1.7492e+02	-9.9607	-40.926464	0.000334	3.344568	1.133170	0.000134
1760	1.7502e+02	-9.9206	-40.809387	0.000294	2.939166	0.995816	0.000118
1761	1.7512e+02	-9.8949	-40.720570	0.000223	2.229712	0.755447	0.000089
1762	1.7522e+02	-9.8468	-40.551010	0.000426	4.256723	1.442217	0.000170
1763	1.7532e+02	-9.8035	-40.450082	0.000253	2.533764	0.858462	0.000101
1764	1.7542e+02	-9.7650	-40.349153	0.000253	2.533764	0.858462	0.000101
1765	1.7552e+02	-9.7345	-40.228039	0.000304	3.040516	1.030155	0.000122
1766	1.7562e+02	-9.6848	-40.110962	0.000294	2.939166	0.995816	0.000118
1767	1.7572e+02	-9.6511	-39.989848	0.000304	3.040516	1.030155	0.000122
1768	1.7582e+02	-9.6190	-39.856623	0.000334	3.344568	1.133170	0.000134
1769	1.7592e+02	-9.5692	-39.743583	0.000284	2.837815	0.961478	0.000114
1770	1.7602e+02	-9.5356	-39.610357	0.000334	3.344568	1.133170	0.000134
1771	1.7612e+02	-9.4955	-39.473095	0.000345	3.445919	1.167509	0.000138
1772	1.7621e+02	-9.4586	-39.376203	0.000243	2.432413	0.824124	0.000097
1773	1.7631e+02	-9.4040	-39.214718	0.000405	4.054022	1.373540	0.000162
1774	1.7641e+02	-9.3719	-39.150124	0.000162	1.621609	0.549416	0.000065
1775	1.7651e+02	-9.3318	-39.000750	0.000375	3.749970	1.270524	0.000150
1776	1.7661e+02	-9.2901	-38.883673	0.000294	2.939166	0.995816	0.000118
1777	1.7671e+02	-9.2484	-38.746410	0.000345	3.445919	1.167509	0.000138
1778	1.7681e+02	-9.2067	-38.645482	0.000253	2.533764	0.858462	0.000101
1779	1.7691e+02	-9.1746	-38.536479	0.000274	2.736465	0.927139	0.000110
1780	1.7701e+02	-9.1281	-38.395179	0.000355	3.547269	1.201847	0.000142
1781	1.7711e+02	-9.1008	-38.290214	0.000264	2.635114	0.892801	0.000105
1782	1.7721e+02	-9.0415	-38.140840	0.000375	3.749970	1.270524	0.000150
1783	1.7731e+02	-9.0126	-38.043949	0.000243	2.432413	0.824124	0.000097
1784	1.7741e+02	-8.9773	-37.914760	0.000324	3.243218	1.098832	0.000130
1785	1.7751e+02	-8.9372	-37.789609	0.000314	3.141867	1.064493	0.000126
1786	1.7761e+02	-8.8971	-37.720978	0.000172	1.722959	0.583754	0.000069
1787	1.7771e+02	-8.8489	-37.567567	0.000385	3.851321	1.304863	0.000154
1788	1.7781e+02	-8.8072	-37.418193	0.000375	3.749970	1.270524	0.000150
1789	1.7791e+02	-8.7623	-37.321301	0.000243	2.432413	0.824124	0.000097
1790	1.7801e+02	-8.7383	-37.208262	0.000284	2.837815	0.961478	0.000114
1791	1.7810e+02	-8.6965	-37.058888	0.000375	3.749970	1.270524	0.000150
1792	1.7820e+02	-8.6629	-36.957959	0.000253	2.533764	0.858462	0.000101
1793	1.7830e+02	-8.6115	-36.848956	0.000274	2.736465	0.927139	0.000110
1794	1.7840e+02	-8.5762	-36.715731	0.000334	3.344568	1.133170	0.000134
1795	1.7850e+02	-8.5297	-36.578468	0.000345	3.445919	1.167509	0.000138
1796	1.7860e+02	-8.4960	-36.473503	0.000264	2.635114	0.892801	0.000105
1797	1.7870e+02	-8.4543	-36.332203	0.000355	3.547269	1.201847	0.000142
1798	1.7880e+02	-8.4174	-36.207052	0.000314	3.141867	1.064493	0.000126
1799	1.7890e+02	-8.3741	-36.089975	0.000294	2.939166	0.995816	0.000118
1800	1.7900e+02	-8.3308	-35.948675	0.000355	3.547269	1.201847	0.000142
1801	1.7910e+02	-8.2923	-35.843710	0.000264	2.635114	0.892801	0.000105
1802	1.7920e+02	-8.2506	-35.702410	0.000355	3.547269	1.201847	0.000142
1803	1.7930e+02	-8.2185	-35.593407	0.000274	2.736465	0.927139	0.000110
1804	1.7940e+02	-8.1800	-35.496516	0.000243	2.432413	0.824124	0.000097
1805	1.7950e+02	-8.1319	-35.335031	0.000405	4.054022	1.373540	0.000162
1806	1.7960e+02	-8.0901	-35.213916	0.000304	3.040516	1.030155	0.000122
1807	1.7970e+02	-8.0516	-35.080691	0.000334	3.344568	1.133170	0.000134
1808	1.7980e+02	-8.0067	-34.999948	0.000203	2.027011	0.686770	0.000081
1809	1.7990e+02	-7.9698	-34.850574	0.000375	3.749970	1.270524	0.000150
1810	1.8000e+02	-7.9329	-34.717349	0.000334	3.344568	1.133170	0.000134
1811	1.8009e+02	-7.8912	-34.600272	0.000294	2.939166	0.995816	0.000118
1812	1.8019e+02	-7.8543	-34.479158	0.000304	3.040516	1.030155	0.000122
1813	1.8029e+02	-7.8222	-34.358044	0.000304	3.040516	1.030155	0.000122
1814	1.8039e+02	-7.7773	-34.188484	0.000426	4.256723	1.442217	0.000170
1815	1.8049e+02	-7.7356	-34.083518	0.000264	2.635114	0.892801	0.000105
1816	1.8059e+02	-7.7003	-33.982590	0.000253	2.533764	0.858462	0.000101
1817	1.8069e+02	-7.6554	-33.845327	0.000345	3.445919	1.167509	0.000138
1818	1.8079e+02	-7.6153	-33.740362	0.000264	2.635114	0.892801	0.000105
1819	1.8089e+02	-7.5768	-33.611174	0.000324	3.243218	1.098832	0.000130
1820	1.8099e+02	-7.5367	-33.498134	0.000284	2.837815	0.961478	0.000114
1821	1.8109e+02	-7.4966	-33.360871	0.000345	3.445919	1.167509	0.000138
1822	1.8119e+02	-7.4533	-33.243794	0.000294	2.939166	0.995816	0.000118
1823	1.8129e+02	-7.4180	-33.082309	0.000405	4.054022	1.373540	0.000162
1824	1.8139e+02	-7.3763	-32.961195	0.000304	3.040516	1.030155	0.000122
1825	1.8149e+02	-7.3410	-32.827969	0.000334	3.344568	1.133170	0.000134
1826	1.8159e+02	-7.2944	-32.718967	0.000274	2.736465	0.927139	0.000110
1827	1.8169e+02	-7.2640	-32.626112	0.000233	2.331063	0.789785	0.000093
1828	1.8179e+02	-7.2158	-32.492887	0.000334	3.344568	1.133170	0.000134
1829	1.8189e+02	-7.1805	-32.351587	0.000355	3.547269	1.201847	0.000142
1830	1.8199e+02	-7.1372	-32.274882	0.000193	1.925660	0.652431	0.000077
1831	1.8209e+02	-7.0987	-32.121470	0.000385	3.851321	1.304863	0.000154
1832	1.8218e+02	-7.0586	-31.972096	0.000375	3.749970	1.270524	0.000150
1833	1.8228e+02	-7.0089	-31.842908	0.000324	3.243218	1.098832	0.000130
1834	1.8238e+02	-6.9752	-31.754091	0.000223	2.229712	0.755447	0.000089
1835	1.8248e+02	-6.9319	-31.584531	0.000426	4.256723	1.442217	0.000170
1836	1.8258e+02	-6.9030	-31.467455	0.000294	2.939166	0.995816	0.000118
1837	1.8268e+02	-6.8581	-31.334229	0.000334	3.344568	1.133170	0.000134
1838	1.8278e+02	-6.8212	-31.205041	0.000324	3.243218	1.098832	0.000130
1839	1.8288e+02	-6.7875	-31.112187	0.000233	2.331063	0.789785	0.000093
1840	1.8298e+02	-6.7394	-30.978961	0.000334	3.344568	1.133170	0.000134
1841	1.8308e+02	-6.7009	-30.773067	0.000517	5.168878	1.751263	0.000207
1842	1.8318e+02	-6.6576	-30.676176	0.000243	2.432413	0.824124	0.000097
1843	1.8328e+02	-6.6159	-30.542950	0.000334	3.344568	1.133170	0.000134
1844	1.8338e+02	-6.5806	-30.425873	0.000294	2.939166	0.995816	0.000118
1845	1.8348e+02	-6.5389	-30.272462	0.000385	3.851321	1.304863	0.000154
1846	1.8358e+02	-6.4987	-30.155385	0.000294	2.939166	0.995816	0.000118
1847	1.8368e+02	-6.4667	-30.010049	0.000365	3.648620	1.236186	0.000146
1848	1.8378e+02	-6.4250	-29.925269	0.000213	2.128362	0.721108	0.000085
1849	1.8388e+02	-6.3865	-29.707263	0.000547	5.472930	1.854279	0.000219
1850	1.8398e+02	-6.3479	-29.622483	0.000213	2.128362	0.721108	0.000085
1851	1.8407e+02	-6.3046	-29.481184	0.000355	3.547269	1.201847	0.000142
1852	1.8417e+02	-6.2597	-29.372181	0.000274	2.736465	0.927139	0.000110
1853	1.8427e+02	-6.2212	-29.234918	0.000345	3.445919	1.167509	0.000138
1854	1.8437e+02	-6.1827	-29.097656	0.000345	3.445919	1.167509	0.000138
1855	1.8447e+02	-6.1458	-28.964430	0.000334	3.344568	1.133170	0.000134
1856	1.8457e+02	-6.1089	-28.859465	0.000264	2.635114	0.892801	0.000105
1857	1.8467e+02	-6.0720	-28.665682	0.000486	4.864826	1.648248	0.000195
1858	1.8477e+02	-6.0319	-28.605125	0.000152	1.520258	0.515077	0.000061
1859	1.8487e+02	-5.9854	-28.407306	0.000497	4.966177	1.682586	0.000199
1860	1.8497e+02	-5.9549	-28.310414	0.000243	2.432413	0.824124	0.000097
1861	1.8507e+02	-5.9068	-28.136818	0.000436	4.358074	1.476555	0.000174
1862	1.8517e+02	-5.8651	-28.056075	0.000203	2.027011	0.686770	0.000081
1863	1.8527e+02	-5.8218	-27.890552	0.000416	4.155373	1.407878	0.000166
1864	1.8537e+02	-5.7865	-27.712918	0.000446	4.459424	1.510894	0.000179
1865	1.8547e+02	-5.7464	-27.616027	0.000243	2.432413	0.824124	0.000097
1866	1.8557e+02	-5.7030	-27.502987	0.000284	2.837815	0.961478	0.000114
1867	1.8567e+02	-5.6678	-27.329390	0.000436	4.358074	1.476555	0.000174
1868	1.8577e+02	-5.6212	-27.212313	0.000294	2.939166	0.995816	0.000118
1869	1.8587e+02	-5.5908	-27.066977	0.000365	3.648620	1.236186	0.000146
1870	1.8597e+02	-5.5474	-26.945862	0.000304	3.040516	1.030155	0.000122
1871	1.8606e+02	-5.5057	-26.776303	0.000426	4.256723	1.442217	0.000170
1872	1.8616e+02	-5.4672	-26.659226	0.000294	2.939166	0.995816	0.000118
1873	1.8626e+02	-5.4223	-26.509852	0.000375	3.749970	1.270524	0.000150
1874	1.8636e+02	-5.3918	-26.344329	0.000416	4.155373	1.407878	0.000166
1875	1.8646e+02	-5.3533	-26.255512	0.000223	2.229712	0.755447	0.000089
1876	1.8656e+02	-5.3052	-26.065767	0.000476	4.763476	1.613909	0.000191
1877	1.8666e+02	-5.2651	-25.985024	0.000203	2.027011	0.686770	0.000081
1878	1.8676e+02	-5.2314	-25.807390	0.000446	4.459424	1.510894	0.000179
1879	1.8686e+02	-5.1881	-25.678202	0.000324	3.243218	1.098832	0.000130
1880	1.8696e+02	-5.1560	-25.536902	0.000355	3.547269	1.201847	0.000142
1881	1.8706e+02	-5.1127	-25.343120	0.000486	4.864826	1.648248	0.000195
1882	1.8716e+02	-5.0678	-25.213931	0.000324	3.243218	1.098832	0.000130
1883	1.8726e+02	-5.0373	-25.113003	0.000253	2.533764	0.858462	0.000101
1884	1.8736e+02	-4.9795	-24.939406	0.000436	4.358074	1.476555	0.000174
1885	1.8746e+02	-4.9523	-24.790032	0.000375	3.749970	1.270524	0.000150
1886	1.8756e+02	-4.9170	-24.648732	0.000355	3.547269	1.201847	0.000142
1887	1.8766e+02	-4.8656	-24.559915	0.000223	2.229712	0.755447	0.000089
1888	1.8776e+02	-4.8319	-24.382281	0.000446	4.459424	1.510894	0.000179
1889	1.8786e+02	-4.7774	-24.204647	0.000446	4.459424	1.510894	0.000179
1890	1.8796e+02	-4.7501	-24.095645	0.000274	2.736465	0.927139	0.000110
1891	1.8806e+02	-4.7148	-23.966456	0.000324	3.243218	1.098832	0.000130
1892	1.8815e+02	-4.6635	-23.772674	0.000486	4.864826	1.648248	0.000195
1893	1.8825e+02	-4.6314	-23.655597	0.000294	2.939166	0.995816	0.000118
1894	1.8835e+02	-4.5897	-23.538520	0.000294	2.939166	0.995816	0.000118
1895	1.8845e+02	-4.5576	-23.397220	0.000355	3.547269	1.201847	0.000142
1896	1.8855e+02	-4.5111	-23.219586	0.000446	4.459424	1.510894	0.000179
1897	1.8865e+02	-4.4726	-23.094435	0.000314	3.141867	1.064493	0.000126
1898	1.8875e+02	-4.4245	-22.928912	0.000416	4.155373	1.407878	0.000166
1899	1.8885e+02	-4.3924	-22.739167	0.000476	4.763476	1.613909	0.000191
1900	1.8895e+02	-4.3619	-22.614016	0.000314	3.141867	1.064493	0.000126
1901	1.8905e+02	-4.3106	-22.460605	0.000385	3.851321	1.304863	0.000154
1902	1.8915e+02	-4.2721	-22.291045	0.000426	4.256723	1.442217	0.000170
1903	1.8925e+02	-4.2368	-22.165894	0.000314	3.141867	1.064493	0.000126
1904	1.8935e+02	-4.1903	-22.016520	0.000375	3.749970	1.270524	0.000150
1905	1.8945e+02	-4.1550	-21.814663	0.000507	5.067527	1.716925	0.000203
1906	1.8955e+02	-4.1229	-21.713735	0.000253	2.533764	0.858462	0.000101
1907	1.8965e+02	-4.0699	-21.564361	0.000375	3.749970	1.270524	0.000150
1908	1.8975e+02	-4.0411	-21.431135	0.000334	3.344568	1.133170	0.000134
1909	1.8985e+02	-3.9913	-21.277724	0.000385	3.851321	1.304863	0.000154
1910	1.8995e+02	-3.9432	-21.108164	0.000426	4.256723	1.442217	0.000170
1911	1.9004e+02	-3.9127	-20.970902	0.000345	3.445919	1.167509	0.000138
1912	1.9014e+02	-3.8742	-20.785193	0.000466	4.662125	1.579571	0.000187
1913	1.9024e+02	-3.8341	-20.615634	0.000426	4.256723	1.442217	0.000170
1914	1.9034e+02	-3.7924	-20.506631	0.000274	2.736465	0.927139	0.000110
1915	1.9044e+02	-3.7571	-20.324960	0.000456	4.560775	1.545232	0.000183
1916	1.9054e+02	-3.7058	-20.163474	0.000405	4.054022	1.373540	0.000162
1917	1.9064e+02	-3.6753	-20.038323	0.000314	3.141867	1.064493	0.000126
1918	1.9074e+02	-3.6304	-19.868764	0.000426	4.256723	1.442217	0.000170
1919	1.9084e+02	-3.6031	-19.743612	0.000314	3.141867	1.064493	0.000126
1920	1.9094e+02	-3.5518	-19.541756	0.000507	5.067527	1.716925	0.000203
1921	1.9104e+02	-3.5101	-19.396419	0.000365	3.648620	1.236186	0.000146
1922	1.9114e+02	-3.4716	-19.259156	0.000345	3.445919	1.167509	0.000138
1923	1.9124e+02	-3.4427	-19.105745	0.000385	3.851321	1.304863	0.000154
1924	1.9134e+02	-3.3962	-18.948297	0.000395	3.952671	1.339201	0.000158
1925	1.9144e+02	-3.3512	-18.823145	0.000314	3.141867	1.064493	0.000126
1926	1.9154e+02	-3.3111	-18.649549	0.000436	4.358074	1.476555	0.000174
1927	1.9164e+02	-3.2774	-18.532472	0.000294	2.939166	0.995816	0.000118
1928	1.9174e+02	-3.2309	-18.334652	0.000497	4.966177	1.682586	0.000199
1929	1.9184e+02	-3.1988	-18.189315	0.000365	3.648620	1.236186	0.000146
1930	1.9194e+02	-3.1523	-18.035904	0.000385	3.851321	1.304863	0.000154
1931	1.9203e+02	-3.1154	-17.854233	0.000456	4.560775	1.545232	0.000183
1932	1.9213e+02	-3.0769	-17.684673	0.000426	4.256723	1.442217	0.000170
1933	1.9223e+02	-3.0368	-17.551448	0.000334	3.344568	1.133170	0.000134
1934	1.9233e+02	-2.9983	-17.373814	0.000446	4.459424	1.510894	0.000179
1935	1.9243e+02	-2.9694	-17.192143	0.000456	4.560775	1.545232	0.000183
1936	1.9253e+02	-2.9117	-17.066991	0.000314	3.141867	1.064493	0.000126
1937	1.9263e+02	-2.8636	-16.889357	0.000446	4.459424	1.510894	0.000179
1938	1.9273e+02	-2.8395	-16.723835	0.000416	4.155373	1.407878	0.000166
1939	1.9283e+02	-2.7978	-16.570424	0.000385	3.851321	1.304863	0.000154
1940	1.9293e+02	-2.7529	-16.421050	0.000375	3.749970	1.270524	0.000150
1941	1.9303e+02	-2.7192	-16.231304	0.000476	4.763476	1.613909	0.000191
1942	1.9313e+02	-2.6791	-16.098079	0.000334	3.344568	1.133170	0.000134
1943	1.9323e+02	-2.6374	-15.928519	0.000426	4.256723	1.442217	0.000170
1944	1.9333e+02	-2.5956	-15.775108	0.000385	3.851321	1.304863	0.000154
1945	1.9343e+02	-2.5604	-15.617660	0.000395	3.952671	1.339201	0.000158
1946	1.9353e+02	-2.5235	-15.460211	0.000395	3.952671	1.339201	0.000158
1947	1.9363e+02	-2.4721	-15.282577	0.000446	4.459424	1.510894	0.000179
1948	1.9373e+02	-2.4400	-15.076683	0.000517	5.168878	1.751263	0.000207
1949	1.9383e+02	-2.3999	-14.951532	0.000314	3.141867	1.064493	0.000126
1950	1.9393e+02	-2.3598	-14.814270	0.000345	3.445919	1.167509	0.000138
1951	1.9403e+02	-2.3245	-14.612413	0.000507	5.067527	1.716925	0.000203
1952	1.9412e+02	-2.2796	-14.467076	0.000365	3.648620	1.236186	0.000146
1953	1.9422e+02	-2.2395	-14.285405	0.000456	4.560775	1.545232	0.000183
1954	1.9432e+02	-2.2026	-14.095659	0.000476	4.763476	1.613909	0.000191
1955	1.9442e+02	-2.1689	-13.938211	0.000395	3.952671	1.339201	0.000158
1956	1.9452e+02	-2.1192	-13.821134	0.000294	2.939166	0.995816	0.000118
1957	1.9462e+02	-2.0823	-13.631389	0.000476	4.763476	1.613909	0.000191
1958	1.9472e+02	-2.0390	-13.494126	0.000345	3.445919	1.167509	0.000138
1959	1.9482e+02	-2.0037	-13.276121	0.000547	5.472930	1.854279	0.000219
1960	1.9492e+02	-1.9604	-13.134821	0.000355	3.547269	1.201847	0.000142
1961	1.9502e+02	-1.9074	-12.969299	0.000416	4.155373	1.407878	0.000166
1962	1.9512e+02	-1.8737	-12.811850	0.000395	3.952671	1.339201	0.000158
1963	1.9522e+02	-1.8336	-12.605956	0.000517	5.168878	1.751263	0.000207
1964	1.9532e+02	-1.7967	-12.488879	0.000294	2.939166	0.995816	0.000118
1965	1.9542e+02	-1.7695	-12.307208	0.000456	4.560775	1.545232	0.000183
1966	1.9552e+02	-1.7181	-12.133611	0.000436	4.358074	1.476555	0.000174
1967	1.9562e+02	-1.6860	-12.004423	0.000324	3.243218	1.098832	0.000130
1968	1.9572e+02	-1.6443	-11.810641	0.000486	4.864826	1.648248	0.000195
1969	1.9582e+02	-1.6074	-11.633007	0.000446	4.459424	1.510894	0.000179
1970	1.9592e+02	-1.5641	-11.483633	0.000375	3.749970	1.270524	0.000150
1971	1.9601e+02	-1.5160	-11.322147	0.000405	4.054022	1.373540	0.000162
1972	1.9611e+02	-1.4759	-11.136439	0.000466	4.662125	1.579571	0.000187
1973	1.9621e+02	-1.4470	-10.962842	0.000436	4.358074	1.476555	0.000174
1974	1.9631e+02	-1.4117	-10.777134	0.000466	4.662125	1.579571	0.000187
1975	1.9641e+02	-1.3684	-10.619686	0.000395	3.952671	1.339201	0.000158
1976	1.9651e+02	-1.3251	-10.462237	0.000395	3.952671	1.339201	0.000158
1977	1.9661e+02	-1.2866	-10.256343	0.000517	5.168878	1.751263	0.000207
1978	1.9671e+02	-1.2385	-10.106969	0.000375	3.749970	1.270524	0.000150
1979	1.9681e+02	-1.2048	-9.929335	0.000446	4.459424	1.510894	0.000179
1980	1.9691e+02	-1.1679	-9.812258	0.000294	2.939166	0.995816	0.000118
1981	1.9701e+02	-1.1230	-9.658847	0.000385	3.851321	1.304863	0.000154
1982	1.9711e+02	-1.0829	-9.420656	0.000598	5.979682	2.025971	0.000239
1983	1.9721e+02	-1.0476	-9.267245	0.000385	3.851321	1.304863	0.000154
1984	1.9731e+02	-1.0026	-9.117871	0.000375	3.749970	1.270524	0.000150
1985	1.9741e+02	-0.9641	-8.936200	0.000456	4.560775	1.545232	0.000183
1986	1.9751e+02	-0.9192	-8.734343	0.000507	5.067527	1.716925	0.000203
1987	1.9761e+02	-0.8695	-8.576895	0.000395	3.952671	1.339201	0.000158
1988	1.9771e+02	-0.8535	-8.395224	0.000456	4.560775	1.545232	0.000183
1989	1.9781e+02	-0.8005	-8.261998	0.000334	3.344568	1.133170	0.000134
1990	1.9791e+02	-0.7652	-8.068216	0.000486	4.864826	1.648248	0.000195
1991	1.9800e+02	-0.7283	-7.886545	0.000456	4.560775	1.545232	0.000183
1992	1.9810e+02	-0.6754	-7.737171	0.000375	3.749970	1.270524	0.000150
1993	1.9820e+02	-0.6385	-7.531277	0.000517	5.168878	1.751263	0.000207
1994	1.9830e+02	-0.5984	-7.365754	0.000416	4.155373	1.407878	0.000166
1995	1.9840e+02	-0.5615	-7.240603	0.000314	3.141867	1.064493	0.000126
1996	1.9850e+02	-0.5326	-7.046820	0.000486	4.864826	1.648248	0.000195
1997	1.9860e+02	-0.4845	-6.893409	0.000385	3.851321	1.304863	0.000154
1998	1.9870e+02	-0.4444	-6.719812	0.000436	4.358074	1.476555	0.000174
1999	1.9880e+02	-0.3995	-6.521993	0.000497	4.966177	1.682586	0.000199
2000	1.9890e+02	-0.3610	-6.320136	0.000507	5.067527	1.716925	0.000203
2001	1.9900e+02	-0.3289	-6.158651	0.000405	4.054022	1.373540	0.000162
2002	1.9910e+02	-0.2872	-6.005239	0.000385	3.851321	1.304863	0.000154
2003	1.9920e+02	-0.2487	-5.795308	0.000527	5.270229	1.785602	0.000211
2004	1.9930e+02	-0.2069	-5.645934	0.000375	3.749970	1.270524	0.000150
2005	1.9940e+02	-0.1652	-5.504635	0.000355	3.547269	1.201847	0.000142
2006	1.9950e+02	-0.1364	-5.310852	0.000486	4.864826	1.648248	0.000195
2007	1.9960e+02	-0.0914	-5.104958	0.000517	5.168878	1.751263	0.000207
2008	1.9970e+02	-0.0529	-4.951547	0.000385	3.851321	1.304863	0.000154
2009	1.9980e+02	-0.0112	-4.773913	0.000385	3.851321	1.304863	0.000179

Center data before PMax,+/-Pr and +/-Vc Calc.

PMax (uC/cm2):	6.53e+01
Pr (uC/cm2):	1.19e+00
-Pr (uC/cm2):	-4.77e+00
PLoss (uC/cm2):	-1.92e+00
Vc:	7.04e-01
-Vc:	-2.66e-01
C (Max-Eff) (nF):	3.27e-01
K (Eff):	1.11e+03
Vert. (+/-Pr) Shift (uC/cm2):	-1.79e+00
Horiz. Shift (+/-Vc):	2.19e-01
Offset (uC/cm2):	2.85e+00

A (Loop Area - uC/cm2·Volts):	-1.61e-02



Hysteresis Version: 5.48.1 - Radiant Technologies, Inc., 1999 - 9/12/24

