»»»»»»»»»»»»»»»»»»»»»»»»»»»»»»»»»»»» Hysteresis ««««««««««««««««««««««««««««««««««««
»»»  Executed Version:	5.48.1
»»»  Vision Version:	5.48.4 (R)
»»»  Vision Compiled:	9/18/24
»»»  Driver Version:	5.47.0
»»»  Windows Version:	Windows 8 or 8.1
»»»  Processor Information:	x86 (AMD or Intel) - 32 Processors
»»»  Tester Name:	PMF21124-494 (100V)
»»»  Tester S/N:	PMF21124-494
»»»  Internal Amp Type:	100V RevK 270k
»»»  Internal Amp S/N:	iAB2-596/K     
»»»  Execution Count:	1
»»»»»»»»»»»»»»»»»»»»»»»»»»»»»»»»»»»»»»»»»»««««««««««««««««««««««««««««««««««««««««««

Stored:	6/13/2025 - 12:27:44
Configured:	06/13/25 10:12:58 AM
Executed:	06/13/25 12:27:12 PM

»»»»»»»»»»»»»»»»»»»»»»»»»»»»»»»»»»» Sample Info ««««««««««««««««««««««««««««««««««««
Sample Name:	
Lot Name:	
Wafer Name:	
Die Row/Column:	0/0
Capacitor Number:	0
Sample Area (cm2):	1.00e-04
Sample Thickness (microns):	3.00e-01

Amplifier:	Internal

»»»»»»»»»»»»»»»»»»»»»»»»»»»»»»»»»»» Tester Info «««««««««««««««««««««««««««««««««««
Tester Name:	PMF21124-494 (100V)
Tester Serial Number:	PMF21124-494
Return Signal Amp. Level:	0.19 [Index: 3]

»»»»»»»»»»»»»»»»»»»»»»»»»»»»»»»» Hysteresis Info ««««««««««««««««««««««««««««««««««
Task Name:	Hyst-1704
Volts:	20.00
Field:	666.67 (kV/cm)
DCBias:	0.00
DCField:	0.00 (kV/cm)
Hysteresis Period (ms):	2.00e+02
Preset:	Enabled
Preset Delay (ms):	1.00e+03
Profile:	Standard Bipolar

»»»»»»»»»»»»»»»»»»»»»»»»»»»»»»»»»»»»»» Data «««««««««««««««««««««««««««««««««««««««
Points:	2009

Valid Data

Point	Time (ms)	Drive Voltage	Measured Polarization (uC/cm2)	Capacitance (uF)	Normalized Capacitance (uF/cm2)	Dielectric Constant	Instantaneous Current (mA)
   1	0.0000e+00	0.0144	-2.870404	0.000324	3.243218	1.098832	0.000130
   2	9.9500e-02	0.0225	-2.741215	0.000324	3.243218	1.098832	0.000130
   3	1.9900e-01	0.0802	-2.603953	0.000345	3.445919	1.167509	0.000138
   4	2.9850e-01	0.1203	-2.511098	0.000233	2.331063	0.789785	0.000093
   5	3.9800e-01	0.1604	-2.345576	0.000416	4.155373	1.407878	0.000166
   6	4.9750e-01	0.1925	-2.171979	0.000436	4.358074	1.476555	0.000174
   7	5.9700e-01	0.2326	-2.046828	0.000314	3.141867	1.064493	0.000126
   8	6.9650e-01	0.2679	-1.913602	0.000334	3.344568	1.133170	0.000134
   9	7.9600e-01	0.3048	-1.752117	0.000405	4.054022	1.373540	0.000162
  10	8.9550e-01	0.3545	-1.582557	0.000426	4.256723	1.442217	0.000170
  11	9.9500e-01	0.3914	-1.489703	0.000233	2.331063	0.789785	0.000093
  12	1.0945e+00	0.4331	-1.303995	0.000466	4.662125	1.579571	0.000187
  13	1.1940e+00	0.4684	-1.182881	0.000304	3.040516	1.030155	0.000122
  14	1.2935e+00	0.5118	-1.017358	0.000416	4.155373	1.407878	0.000166
  15	1.3930e+00	0.5519	-0.839724	0.000446	4.459424	1.510894	0.000179
  16	1.4925e+00	0.5888	-0.758982	0.000203	2.027011	0.686770	0.000081
  17	1.5920e+00	0.6369	-0.569236	0.000476	4.763476	1.613909	0.000191
  18	1.6915e+00	0.6674	-0.387565	0.000456	4.560775	1.545232	0.000183
  19	1.7910e+00	0.7155	-0.254340	0.000334	3.344568	1.133170	0.000134
  20	1.8905e+00	0.7460	-0.084780	0.000426	4.256723	1.442217	0.000170
  21	1.9900e+00	0.7925	0.040371	0.000314	3.141867	1.064493	0.000126
  22	2.0895e+00	0.8406	0.169560	0.000324	3.243218	1.098832	0.000130
  23	2.1890e+00	0.8759	0.335082	0.000416	4.155373	1.407878	0.000166
  24	2.2885e+00	0.9160	0.448122	0.000284	2.837815	0.961478	0.000114
  25	2.3880e+00	0.9529	0.641905	0.000486	4.864826	1.648248	0.000195
  26	2.4875e+00	0.9978	0.771093	0.000324	3.243218	1.098832	0.000130
  27	2.5870e+00	1.0331	0.928541	0.000395	3.952671	1.339201	0.000158
  28	2.6865e+00	1.0732	1.053692	0.000314	3.141867	1.064493	0.000126
  29	2.7860e+00	1.1117	1.215178	0.000405	4.054022	1.373540	0.000162
  30	2.8855e+00	1.1502	1.344366	0.000324	3.243218	1.098832	0.000130
  31	2.9850e+00	1.1887	1.477592	0.000334	3.344568	1.133170	0.000134
  32	3.0845e+00	1.2304	1.639077	0.000405	4.054022	1.373540	0.000162
  33	3.1840e+00	1.2673	1.844971	0.000517	5.168878	1.751263	0.000207
  34	3.2835e+00	1.3074	1.974159	0.000324	3.243218	1.098832	0.000130
  35	3.3830e+00	1.3540	2.115459	0.000355	3.547269	1.201847	0.000142
  36	3.4825e+00	1.3909	2.252722	0.000345	3.445919	1.167509	0.000138
  37	3.5820e+00	1.4310	2.365762	0.000284	2.837815	0.961478	0.000114
  38	3.6815e+00	1.4759	2.547433	0.000456	4.560775	1.545232	0.000183
  39	3.7810e+00	1.5064	2.700844	0.000385	3.851321	1.304863	0.000154
  40	3.8805e+00	1.5497	2.809846	0.000274	2.736465	0.927139	0.000110
  41	3.9800e+00	1.5914	3.007666	0.000497	4.966177	1.682586	0.000199
  42	4.0795e+00	1.6299	3.144929	0.000345	3.445919	1.167509	0.000138
  43	4.1790e+00	1.6684	3.298340	0.000385	3.851321	1.304863	0.000154
  44	4.2785e+00	1.7069	3.427528	0.000324	3.243218	1.098832	0.000130
  45	4.3780e+00	1.7566	3.584977	0.000395	3.952671	1.339201	0.000158
  46	4.4775e+00	1.7839	3.742425	0.000395	3.952671	1.339201	0.000158
  47	4.5770e+00	1.8352	3.883725	0.000355	3.547269	1.201847	0.000142
  48	4.6765e+00	1.8721	4.065396	0.000456	4.560775	1.545232	0.000183
  49	4.7760e+00	1.9042	4.182473	0.000294	2.939166	0.995816	0.000118
  50	4.8755e+00	1.9443	4.323772	0.000355	3.547269	1.201847	0.000142
  51	4.9750e+00	1.9860	4.537741	0.000537	5.371579	1.819940	0.000215
  52	5.0745e+00	2.0294	4.622520	0.000213	2.128362	0.721108	0.000085
  53	5.1740e+00	2.0663	4.832451	0.000527	5.270229	1.785602	0.000211
  54	5.2735e+00	2.1064	4.925306	0.000233	2.331063	0.789785	0.000093
  55	5.3730e+00	2.1481	5.106977	0.000456	4.560775	1.545232	0.000183
  56	5.4725e+00	2.1866	5.284611	0.000446	4.459424	1.510894	0.000179
  57	5.5720e+00	2.2347	5.401688	0.000294	2.939166	0.995816	0.000118
  58	5.6715e+00	2.2716	5.579322	0.000446	4.459424	1.510894	0.000179
  59	5.7710e+00	2.3149	5.708510	0.000324	3.243218	1.098832	0.000130
  60	5.8705e+00	2.3438	5.857884	0.000375	3.749970	1.270524	0.000150
  61	5.9700e+00	2.3775	6.011295	0.000385	3.851321	1.304863	0.000154
  62	6.0695e+00	2.4192	6.164706	0.000385	3.851321	1.304863	0.000154
  63	6.1690e+00	2.4673	6.285820	0.000304	3.040516	1.030155	0.000122
  64	6.2685e+00	2.5010	6.475566	0.000476	4.763476	1.613909	0.000191
  65	6.3680e+00	2.5507	6.633014	0.000395	3.952671	1.339201	0.000158
  66	6.4675e+00	2.5876	6.770277	0.000345	3.445919	1.167509	0.000138
  67	6.5670e+00	2.6293	6.907539	0.000345	3.445919	1.167509	0.000138
  68	6.6665e+00	2.6678	7.077099	0.000426	4.256723	1.442217	0.000170
  69	6.7660e+00	2.7047	7.258770	0.000456	4.560775	1.545232	0.000183
  70	6.8655e+00	2.7464	7.351624	0.000233	2.331063	0.789785	0.000093
  71	6.9650e+00	2.7817	7.484850	0.000334	3.344568	1.133170	0.000134
  72	7.0645e+00	2.8251	7.658446	0.000436	4.358074	1.476555	0.000174
  73	7.1640e+00	2.8539	7.836080	0.000446	4.459424	1.510894	0.000179
  74	7.2635e+00	2.8924	7.973343	0.000345	3.445919	1.167509	0.000138
  75	7.3630e+00	2.9374	8.094457	0.000304	3.040516	1.030155	0.000122
  76	7.4625e+00	2.9871	8.231720	0.000345	3.445919	1.167509	0.000138
  77	7.5620e+00	3.0240	8.373020	0.000355	3.547269	1.201847	0.000142
  78	7.6615e+00	3.0673	8.534505	0.000405	4.054022	1.373540	0.000162
  79	7.7610e+00	3.1010	8.695990	0.000405	4.054022	1.373540	0.000162
  80	7.8605e+00	3.1379	8.841327	0.000365	3.648620	1.236186	0.000146
  81	7.9600e+00	3.1796	9.002813	0.000405	4.054022	1.373540	0.000162
  82	8.0595e+00	3.2197	9.156224	0.000385	3.851321	1.304863	0.000154
  83	8.1590e+00	3.2566	9.289449	0.000334	3.344568	1.133170	0.000134
  84	8.2585e+00	3.2999	9.414601	0.000314	3.141867	1.064493	0.000126
  85	8.3580e+00	3.3400	9.604346	0.000476	4.763476	1.613909	0.000191
  86	8.4575e+00	3.3849	9.729497	0.000314	3.141867	1.064493	0.000126
  87	8.5570e+00	3.4250	9.866760	0.000345	3.445919	1.167509	0.000138
  88	8.6565e+00	3.4619	10.040357	0.000436	4.358074	1.476555	0.000174
  89	8.7560e+00	3.5004	10.153396	0.000284	2.837815	0.961478	0.000114
  90	8.8555e+00	3.5341	10.343142	0.000476	4.763476	1.613909	0.000191
  91	8.9550e+00	3.5839	10.472330	0.000324	3.243218	1.098832	0.000130
  92	9.0545e+00	3.6256	10.629778	0.000395	3.952671	1.339201	0.000158
  93	9.1540e+00	3.6657	10.750892	0.000304	3.040516	1.030155	0.000122
  94	9.2535e+00	3.6978	10.916415	0.000416	4.155373	1.407878	0.000166
  95	9.3530e+00	3.7379	11.049641	0.000334	3.344568	1.133170	0.000134
  96	9.4525e+00	3.7748	11.211126	0.000405	4.054022	1.373540	0.000162
  97	9.5520e+00	3.8245	11.368574	0.000395	3.952671	1.339201	0.000158
  98	9.6515e+00	3.8566	11.441243	0.000182	1.824310	0.618093	0.000073
  99	9.7510e+00	3.8951	11.618877	0.000446	4.459424	1.510894	0.000179
 100	9.8505e+00	3.9416	11.800548	0.000456	4.560775	1.545232	0.000183
 101	9.9500e+00	3.9801	11.957996	0.000395	3.952671	1.339201	0.000158
 102	1.0050e+01	4.0202	12.066999	0.000274	2.736465	0.927139	0.000110
 103	1.0149e+01	4.0555	12.216373	0.000375	3.749970	1.270524	0.000150
 104	1.0248e+01	4.0956	12.345561	0.000324	3.243218	1.098832	0.000130
 105	1.0348e+01	4.1373	12.490898	0.000365	3.648620	1.236186	0.000146
 106	1.0447e+01	4.1790	12.632198	0.000355	3.547269	1.201847	0.000142
 107	1.0547e+01	4.2127	12.813869	0.000456	4.560775	1.545232	0.000183
 108	1.0646e+01	4.2496	12.910760	0.000243	2.432413	0.824124	0.000097
 109	1.0746e+01	4.2961	13.064171	0.000385	3.851321	1.304863	0.000154
 110	1.0845e+01	4.3378	13.245842	0.000456	4.560775	1.545232	0.000183
 111	1.0945e+01	4.3780	13.427513	0.000456	4.560775	1.545232	0.000183
 112	1.1044e+01	4.4213	13.520368	0.000233	2.331063	0.789785	0.000093
 113	1.1144e+01	4.4534	13.673779	0.000385	3.851321	1.304863	0.000154
 114	1.1243e+01	4.5031	13.819116	0.000365	3.648620	1.236186	0.000146
 115	1.1343e+01	4.5336	13.964453	0.000365	3.648620	1.236186	0.000146
 116	1.1443e+01	4.5801	14.125938	0.000405	4.054022	1.373540	0.000162
 117	1.1542e+01	4.6138	14.259163	0.000334	3.344568	1.133170	0.000134
 118	1.1642e+01	4.6603	14.416612	0.000395	3.952671	1.339201	0.000158
 119	1.1741e+01	4.6924	14.541763	0.000314	3.141867	1.064493	0.000126
 120	1.1841e+01	4.7405	14.670951	0.000324	3.243218	1.098832	0.000130
 121	1.1940e+01	4.7646	14.824362	0.000385	3.851321	1.304863	0.000154
 122	1.2040e+01	4.8095	14.957588	0.000334	3.344568	1.133170	0.000134
 123	1.2139e+01	4.8544	15.143296	0.000466	4.662125	1.579571	0.000187
 124	1.2239e+01	4.9025	15.240187	0.000243	2.432413	0.824124	0.000097
 125	1.2338e+01	4.9378	15.425896	0.000466	4.662125	1.579571	0.000187
 126	1.2438e+01	4.9795	15.542973	0.000294	2.939166	0.995816	0.000118
 127	1.2537e+01	5.0132	15.716569	0.000436	4.358074	1.476555	0.000174
 128	1.2636e+01	5.0630	15.869981	0.000385	3.851321	1.304863	0.000154
 129	1.2736e+01	5.0886	15.966872	0.000243	2.432413	0.824124	0.000097
 130	1.2835e+01	5.1303	16.124320	0.000395	3.952671	1.339201	0.000158
 131	1.2935e+01	5.1769	16.257546	0.000334	3.344568	1.133170	0.000134
 132	1.3034e+01	5.2186	16.427105	0.000426	4.256723	1.442217	0.000170
 133	1.3134e+01	5.2619	16.515922	0.000223	2.229712	0.755447	0.000089
 134	1.3233e+01	5.2956	16.681445	0.000416	4.155373	1.407878	0.000166
 135	1.3333e+01	5.3389	16.822745	0.000355	3.547269	1.201847	0.000142
 136	1.3432e+01	5.3742	16.923673	0.000253	2.533764	0.858462	0.000101
 137	1.3532e+01	5.4127	17.081121	0.000395	3.952671	1.339201	0.000158
 138	1.3632e+01	5.4608	17.234532	0.000385	3.851321	1.304863	0.000154
 139	1.3731e+01	5.4961	17.363721	0.000324	3.243218	1.098832	0.000130
 140	1.3831e+01	5.5362	17.517132	0.000385	3.851321	1.304863	0.000154
 141	1.3930e+01	5.5699	17.614023	0.000243	2.432413	0.824124	0.000097
 142	1.4030e+01	5.6116	17.787620	0.000436	4.358074	1.476555	0.000174
 143	1.4129e+01	5.6549	17.896623	0.000274	2.736465	0.927139	0.000110
 144	1.4229e+01	5.6982	18.050034	0.000385	3.851321	1.304863	0.000154
 145	1.4328e+01	5.7351	18.187296	0.000345	3.445919	1.167509	0.000138
 146	1.4428e+01	5.7624	18.364930	0.000446	4.459424	1.510894	0.000179
 147	1.4527e+01	5.8057	18.469896	0.000264	2.635114	0.892801	0.000105
 148	1.4627e+01	5.8426	18.619270	0.000375	3.749970	1.270524	0.000150
 149	1.4726e+01	5.9004	18.736347	0.000294	2.939166	0.995816	0.000118
 150	1.4825e+01	5.9485	18.865535	0.000324	3.243218	1.098832	0.000130
 151	1.4925e+01	5.9742	19.027021	0.000405	4.054022	1.373540	0.000162
 152	1.5024e+01	6.0159	19.115838	0.000223	2.229712	0.755447	0.000089
 153	1.5124e+01	6.0512	19.305583	0.000476	4.763476	1.613909	0.000191
 154	1.5223e+01	6.0881	19.418623	0.000284	2.837815	0.961478	0.000114
 155	1.5323e+01	6.1330	19.551848	0.000334	3.344568	1.133170	0.000134
 156	1.5422e+01	6.1586	19.664888	0.000284	2.837815	0.961478	0.000114
 157	1.5522e+01	6.2116	19.838485	0.000436	4.358074	1.476555	0.000174
 158	1.5621e+01	6.2469	19.955562	0.000294	2.939166	0.995816	0.000118
 159	1.5721e+01	6.2966	20.064565	0.000274	2.736465	0.927139	0.000110
 160	1.5820e+01	6.3223	20.254310	0.000476	4.763476	1.613909	0.000191
 161	1.5920e+01	6.3624	20.359276	0.000264	2.635114	0.892801	0.000105
 162	1.6020e+01	6.4009	20.500575	0.000355	3.547269	1.201847	0.000142
 163	1.6119e+01	6.4506	20.637838	0.000345	3.445919	1.167509	0.000138
 164	1.6218e+01	6.4891	20.807398	0.000426	4.256723	1.442217	0.000170
 165	1.6318e+01	6.5260	20.871992	0.000162	1.621609	0.549416	0.000065
 166	1.6418e+01	6.5709	21.065774	0.000486	4.864826	1.648248	0.000195
 167	1.6517e+01	6.6030	21.166703	0.000253	2.533764	0.858462	0.000101
 168	1.6616e+01	6.6463	21.332225	0.000416	4.155373	1.407878	0.000166
 169	1.6716e+01	6.6816	21.461414	0.000324	3.243218	1.098832	0.000130
 170	1.6816e+01	6.7265	21.639048	0.000446	4.459424	1.510894	0.000179
 171	1.6915e+01	6.7634	21.739976	0.000253	2.533764	0.858462	0.000101
 172	1.7015e+01	6.8068	21.857053	0.000294	2.939166	0.995816	0.000118
 173	1.7114e+01	6.8469	21.990278	0.000334	3.344568	1.133170	0.000134
 174	1.7213e+01	6.8790	22.139652	0.000375	3.749970	1.270524	0.000150
 175	1.7313e+01	6.9191	22.280952	0.000355	3.547269	1.201847	0.000142
 176	1.7413e+01	6.9656	22.398029	0.000294	2.939166	0.995816	0.000118
 177	1.7512e+01	6.9977	22.527217	0.000324	3.243218	1.098832	0.000130
 178	1.7611e+01	7.0426	22.664480	0.000345	3.445919	1.167509	0.000138
 179	1.7711e+01	7.0779	22.834040	0.000426	4.256723	1.442217	0.000170
 180	1.7811e+01	7.1260	22.947080	0.000284	2.837815	0.961478	0.000114
 181	1.7910e+01	7.1709	23.080305	0.000334	3.344568	1.133170	0.000134
 182	1.8009e+01	7.2030	23.189308	0.000274	2.736465	0.927139	0.000110
 183	1.8109e+01	7.2463	23.346756	0.000395	3.952671	1.339201	0.000158
 184	1.8209e+01	7.2816	23.467870	0.000304	3.040516	1.030155	0.000122
 185	1.8308e+01	7.3281	23.613207	0.000365	3.648620	1.236186	0.000146
 186	1.8407e+01	7.3570	23.758544	0.000365	3.648620	1.236186	0.000146
 187	1.8507e+01	7.4148	23.863509	0.000264	2.635114	0.892801	0.000105
 188	1.8607e+01	7.4468	24.004809	0.000355	3.547269	1.201847	0.000142
 189	1.8706e+01	7.4870	24.146109	0.000355	3.547269	1.201847	0.000142
 190	1.8805e+01	7.5190	24.315669	0.000426	4.256723	1.442217	0.000170
 191	1.8905e+01	7.5607	24.396411	0.000203	2.027011	0.686770	0.000081
 192	1.9005e+01	7.6073	24.574045	0.000446	4.459424	1.510894	0.000179
 193	1.9104e+01	7.6458	24.699196	0.000314	3.141867	1.064493	0.000126
 194	1.9203e+01	7.6939	24.783976	0.000213	2.128362	0.721108	0.000085
 195	1.9303e+01	7.7276	24.953536	0.000426	4.256723	1.442217	0.000170
 196	1.9402e+01	7.7629	25.098873	0.000365	3.648620	1.236186	0.000146
 197	1.9502e+01	7.8158	25.224024	0.000314	3.141867	1.064493	0.000126
 198	1.9602e+01	7.8415	25.357250	0.000334	3.344568	1.133170	0.000134
 199	1.9701e+01	7.8784	25.470289	0.000284	2.837815	0.961478	0.000114
 200	1.9800e+01	7.9233	25.526809	0.000142	1.418908	0.480739	0.000057
 201	1.9900e+01	7.9634	25.736740	0.000527	5.270229	1.785602	0.000211
 202	2.0000e+01	8.0019	25.882077	0.000365	3.648620	1.236186	0.000146
 203	2.0099e+01	8.0372	25.978968	0.000243	2.432413	0.824124	0.000097
 204	2.0198e+01	8.0821	26.092008	0.000284	2.837815	0.961478	0.000114
 205	2.0298e+01	8.1286	26.257531	0.000416	4.155373	1.407878	0.000166
 206	2.0398e+01	8.1575	26.382682	0.000314	3.141867	1.064493	0.000126
 207	2.0497e+01	8.2024	26.528019	0.000365	3.648620	1.236186	0.000146
 208	2.0596e+01	8.2490	26.620873	0.000233	2.331063	0.789785	0.000093
 209	2.0696e+01	8.2859	26.737950	0.000294	2.939166	0.995816	0.000118
 210	2.0796e+01	8.3179	26.855027	0.000294	2.939166	0.995816	0.000118
 211	2.0895e+01	8.3597	26.996327	0.000355	3.547269	1.201847	0.000142
 212	2.0994e+01	8.4030	27.125515	0.000324	3.243218	1.098832	0.000130
 213	2.1094e+01	8.4479	27.266815	0.000355	3.547269	1.201847	0.000142
 214	2.1194e+01	8.4896	27.404077	0.000345	3.445919	1.167509	0.000138
 215	2.1293e+01	8.5265	27.545377	0.000355	3.547269	1.201847	0.000142
 216	2.1392e+01	8.5602	27.642268	0.000243	2.432413	0.824124	0.000097
 217	2.1492e+01	8.6051	27.795680	0.000385	3.851321	1.304863	0.000154
 218	2.1591e+01	8.6388	27.912756	0.000294	2.939166	0.995816	0.000118
 219	2.1691e+01	8.6789	28.066168	0.000385	3.851321	1.304863	0.000154
 220	2.1791e+01	8.7190	28.211505	0.000365	3.648620	1.236186	0.000146
 221	2.1890e+01	8.7607	28.356841	0.000365	3.648620	1.236186	0.000146
 222	2.1989e+01	8.7992	28.437584	0.000203	2.027011	0.686770	0.000081
 223	2.2089e+01	8.8329	28.574847	0.000345	3.445919	1.167509	0.000138
 224	2.2189e+01	8.8746	28.708072	0.000334	3.344568	1.133170	0.000134
 225	2.2288e+01	8.9211	28.853409	0.000365	3.648620	1.236186	0.000146
 226	2.2387e+01	8.9580	28.982597	0.000324	3.243218	1.098832	0.000130
 227	2.2487e+01	8.9965	29.087563	0.000264	2.635114	0.892801	0.000105
 228	2.2587e+01	9.0479	29.228863	0.000355	3.547269	1.201847	0.000142
 229	2.2686e+01	9.0880	29.370162	0.000355	3.547269	1.201847	0.000142
 230	2.2785e+01	9.1153	29.499351	0.000324	3.243218	1.098832	0.000130
 231	2.2885e+01	9.1634	29.632576	0.000334	3.344568	1.133170	0.000134
 232	2.2985e+01	9.2051	29.753690	0.000304	3.040516	1.030155	0.000122
 233	2.3084e+01	9.2292	29.878842	0.000314	3.141867	1.064493	0.000126
 234	2.3183e+01	9.2821	29.999956	0.000304	3.040516	1.030155	0.000122
 235	2.3283e+01	9.3174	30.141255	0.000355	3.547269	1.201847	0.000142
 236	2.3383e+01	9.3559	30.274481	0.000334	3.344568	1.133170	0.000134
 237	2.3482e+01	9.4072	30.435966	0.000405	4.054022	1.373540	0.000162
 238	2.3581e+01	9.4377	30.532858	0.000243	2.432413	0.824124	0.000097
 239	2.3681e+01	9.4794	30.629749	0.000243	2.432413	0.824124	0.000097
 240	2.3780e+01	9.5211	30.762974	0.000334	3.344568	1.133170	0.000134
 241	2.3880e+01	9.5468	30.876014	0.000284	2.837815	0.961478	0.000114
 242	2.3980e+01	9.5965	31.029425	0.000385	3.851321	1.304863	0.000154
 243	2.4079e+01	9.6511	31.174762	0.000365	3.648620	1.236186	0.000146
 244	2.4178e+01	9.6703	31.275691	0.000253	2.533764	0.858462	0.000101
 245	2.4278e+01	9.7120	31.392767	0.000294	2.939166	0.995816	0.000118
 246	2.4378e+01	9.7585	31.521956	0.000324	3.243218	1.098832	0.000130
 247	2.4477e+01	9.7842	31.663256	0.000355	3.547269	1.201847	0.000142
 248	2.4576e+01	9.8291	31.784370	0.000304	3.040516	1.030155	0.000122
 249	2.4676e+01	9.8741	31.893372	0.000274	2.736465	0.927139	0.000110
 250	2.4776e+01	9.9206	32.022561	0.000324	3.243218	1.098832	0.000130
 251	2.4875e+01	9.9446	32.151749	0.000324	3.243218	1.098832	0.000130
 252	2.4974e+01	9.9912	32.280937	0.000324	3.243218	1.098832	0.000130
 253	2.5074e+01	10.0281	32.406089	0.000314	3.141867	1.064493	0.000126
 254	2.5174e+01	10.0730	32.527203	0.000304	3.040516	1.030155	0.000122
 255	2.5273e+01	10.1147	32.688688	0.000405	4.054022	1.373540	0.000162
 256	2.5372e+01	10.1548	32.725022	0.000091	0.912155	0.309046	0.000037
 257	2.5472e+01	10.1965	32.922842	0.000497	4.966177	1.682586	0.000199
 258	2.5572e+01	10.2350	33.011659	0.000223	2.229712	0.755447	0.000089
 259	2.5671e+01	10.2751	33.161033	0.000375	3.749970	1.270524	0.000150
 260	2.5770e+01	10.3232	33.306370	0.000365	3.648620	1.236186	0.000146
 261	2.5870e+01	10.3489	33.362890	0.000142	1.418908	0.480739	0.000057
 262	2.5970e+01	10.3922	33.532449	0.000426	4.256723	1.442217	0.000170
 263	2.6069e+01	10.4291	33.633378	0.000253	2.533764	0.858462	0.000101
 264	2.6169e+01	10.4740	33.782752	0.000375	3.749970	1.270524	0.000150
 265	2.6268e+01	10.5174	33.887717	0.000264	2.635114	0.892801	0.000105
 266	2.6367e+01	10.5623	33.996720	0.000274	2.736465	0.927139	0.000110
 267	2.6467e+01	10.5944	34.129946	0.000334	3.344568	1.133170	0.000134
 268	2.6567e+01	10.6377	34.247022	0.000294	2.939166	0.995816	0.000118
 269	2.6666e+01	10.6633	34.392359	0.000365	3.648620	1.236186	0.000146
 270	2.6765e+01	10.7131	34.465028	0.000182	1.824310	0.618093	0.000073
 271	2.6865e+01	10.7452	34.594216	0.000324	3.243218	1.098832	0.000130
 272	2.6965e+01	10.7917	34.751664	0.000395	3.952671	1.339201	0.000158
 273	2.7064e+01	10.8382	34.884890	0.000334	3.344568	1.133170	0.000134
 274	2.7163e+01	10.8655	34.957558	0.000182	1.824310	0.618093	0.000073
 275	2.7263e+01	10.9136	35.119044	0.000405	4.054022	1.373540	0.000162
 276	2.7363e+01	10.9553	35.232084	0.000284	2.837815	0.961478	0.000114
 277	2.7462e+01	10.9986	35.345123	0.000284	2.837815	0.961478	0.000114
 278	2.7561e+01	11.0355	35.502572	0.000395	3.952671	1.339201	0.000158
 279	2.7661e+01	11.0644	35.607537	0.000264	2.635114	0.892801	0.000105
 280	2.7761e+01	11.1093	35.696354	0.000223	2.229712	0.755447	0.000089
 281	2.7860e+01	11.1510	35.825543	0.000324	3.243218	1.098832	0.000130
 282	2.7959e+01	11.1927	35.970879	0.000365	3.648620	1.236186	0.000146
 283	2.8059e+01	11.2264	36.120253	0.000375	3.749970	1.270524	0.000150
 284	2.8159e+01	11.2633	36.192922	0.000182	1.824310	0.618093	0.000073
 285	2.8258e+01	11.3130	36.338259	0.000365	3.648620	1.236186	0.000146
 286	2.8358e+01	11.3644	36.423039	0.000213	2.128362	0.721108	0.000085
 287	2.8457e+01	11.3884	36.572413	0.000375	3.749970	1.270524	0.000150
 288	2.8556e+01	11.4237	36.657193	0.000213	2.128362	0.721108	0.000085
 289	2.8656e+01	11.4703	36.814641	0.000395	3.952671	1.339201	0.000158
 290	2.8756e+01	11.5056	36.943829	0.000324	3.243218	1.098832	0.000130
 291	2.8855e+01	11.5585	37.056869	0.000284	2.837815	0.961478	0.000114
 292	2.8954e+01	11.5970	37.194132	0.000345	3.445919	1.167509	0.000138
 293	2.9054e+01	11.6323	37.295060	0.000253	2.533764	0.858462	0.000101
 294	2.9154e+01	11.6692	37.408100	0.000284	2.837815	0.961478	0.000114
 295	2.9253e+01	11.7093	37.529214	0.000304	3.040516	1.030155	0.000122
 296	2.9352e+01	11.7526	37.618031	0.000223	2.229712	0.755447	0.000089
 297	2.9452e+01	11.7863	37.747219	0.000324	3.243218	1.098832	0.000130
 298	2.9552e+01	11.8392	37.872370	0.000314	3.141867	1.064493	0.000126
 299	2.9651e+01	11.8681	37.985410	0.000284	2.837815	0.961478	0.000114
 300	2.9750e+01	11.9034	38.106524	0.000304	3.040516	1.030155	0.000122
 301	2.9850e+01	11.9467	38.219564	0.000284	2.837815	0.961478	0.000114
 302	2.9950e+01	11.9884	38.332604	0.000284	2.837815	0.961478	0.000114
 303	3.0049e+01	12.0301	38.477941	0.000365	3.648620	1.236186	0.000146
 304	3.0148e+01	12.0735	38.570795	0.000233	2.331063	0.789785	0.000093
 305	3.0248e+01	12.1071	38.720169	0.000375	3.749970	1.270524	0.000150
 306	3.0348e+01	12.1569	38.784763	0.000162	1.621609	0.549416	0.000065
 307	3.0447e+01	12.1825	38.897803	0.000284	2.837815	0.961478	0.000114
 308	3.0547e+01	12.2323	39.039103	0.000355	3.547269	1.201847	0.000142
 309	3.0646e+01	12.2676	39.127920	0.000223	2.229712	0.755447	0.000089
 310	3.0745e+01	12.3125	39.273256	0.000365	3.648620	1.236186	0.000146
 311	3.0845e+01	12.3462	39.358036	0.000213	2.128362	0.721108	0.000085
 312	3.0945e+01	12.3927	39.487225	0.000324	3.243218	1.098832	0.000130
 313	3.1044e+01	12.4312	39.592190	0.000264	2.635114	0.892801	0.000105
 314	3.1143e+01	12.4681	39.701193	0.000274	2.736465	0.927139	0.000110
 315	3.1243e+01	12.5034	39.810196	0.000274	2.736465	0.927139	0.000110
 316	3.1343e+01	12.5499	39.951495	0.000355	3.547269	1.201847	0.000142
 317	3.1442e+01	12.5852	40.048387	0.000243	2.432413	0.824124	0.000097
 318	3.1541e+01	12.6237	40.141241	0.000233	2.331063	0.789785	0.000093
 319	3.1641e+01	12.6686	40.234095	0.000233	2.331063	0.789785	0.000093
 320	3.1741e+01	12.7135	40.403654	0.000426	4.256723	1.442217	0.000170
 321	3.1840e+01	12.7392	40.520731	0.000294	2.939166	0.995816	0.000118
 322	3.1939e+01	12.7922	40.629734	0.000274	2.736465	0.927139	0.000110
 323	3.2039e+01	12.8290	40.754885	0.000314	3.141867	1.064493	0.000126
 324	3.2139e+01	12.8563	40.859851	0.000264	2.635114	0.892801	0.000105
 325	3.2238e+01	12.9061	40.952705	0.000233	2.331063	0.789785	0.000093
 326	3.2337e+01	12.9430	41.069782	0.000294	2.939166	0.995816	0.000118
 327	3.2437e+01	12.9782	41.158599	0.000223	2.229712	0.755447	0.000089
 328	3.2536e+01	13.0248	41.316047	0.000395	3.952671	1.339201	0.000158
 329	3.2636e+01	13.0649	41.392753	0.000193	1.925660	0.652431	0.000077
 330	3.2736e+01	13.1018	41.497718	0.000264	2.635114	0.892801	0.000105
 331	3.2835e+01	13.1403	41.590572	0.000233	2.331063	0.789785	0.000093
 332	3.2934e+01	13.1804	41.735909	0.000365	3.648620	1.236186	0.000146
 333	3.3034e+01	13.2157	41.869135	0.000334	3.344568	1.133170	0.000134
 334	3.3133e+01	13.2542	41.949877	0.000203	2.027011	0.686770	0.000081
 335	3.3233e+01	13.2943	42.046769	0.000243	2.432413	0.824124	0.000097
 336	3.3333e+01	13.3424	42.204217	0.000395	3.952671	1.339201	0.000158
 337	3.3432e+01	13.3793	42.288997	0.000213	2.128362	0.721108	0.000085
 338	3.3532e+01	13.4162	42.402037	0.000284	2.837815	0.961478	0.000114
 339	3.3631e+01	13.4563	42.535262	0.000334	3.344568	1.133170	0.000134
 340	3.3730e+01	13.4996	42.640228	0.000264	2.635114	0.892801	0.000105
 341	3.3830e+01	13.5349	42.781527	0.000355	3.547269	1.201847	0.000142
 342	3.3929e+01	13.5702	42.874382	0.000233	2.331063	0.789785	0.000093
 343	3.4029e+01	13.6360	42.955124	0.000203	2.027011	0.686770	0.000081
 344	3.4129e+01	13.6536	43.112573	0.000395	3.952671	1.339201	0.000158
 345	3.4228e+01	13.7001	43.209464	0.000243	2.432413	0.824124	0.000097
 346	3.4328e+01	13.7338	43.350764	0.000355	3.547269	1.201847	0.000142
 347	3.4427e+01	13.7739	43.451692	0.000253	2.533764	0.858462	0.000101
 348	3.4526e+01	13.8205	43.540509	0.000223	2.229712	0.755447	0.000089
 349	3.4626e+01	13.8622	43.633363	0.000233	2.331063	0.789785	0.000093
 350	3.4725e+01	13.8959	43.770626	0.000345	3.445919	1.167509	0.000138
 351	3.4825e+01	13.9392	43.911925	0.000355	3.547269	1.201847	0.000142
 352	3.4925e+01	13.9793	43.984594	0.000182	1.824310	0.618093	0.000073
 353	3.5024e+01	14.0226	44.142042	0.000395	3.952671	1.339201	0.000158
 354	3.5123e+01	14.0547	44.218748	0.000193	1.925660	0.652431	0.000077
 355	3.5223e+01	14.1076	44.307565	0.000223	2.229712	0.755447	0.000089
 356	3.5322e+01	14.1429	44.432716	0.000314	3.141867	1.064493	0.000126
 357	3.5422e+01	14.1718	44.517496	0.000213	2.128362	0.721108	0.000085
 358	3.5522e+01	14.2215	44.662833	0.000365	3.648620	1.236186	0.000146
 359	3.5621e+01	14.2632	44.771835	0.000274	2.736465	0.927139	0.000110
 360	3.5721e+01	14.2921	44.880838	0.000274	2.736465	0.927139	0.000110
 361	3.5820e+01	14.3450	44.977729	0.000243	2.432413	0.824124	0.000097
 362	3.5919e+01	14.3723	45.094806	0.000294	2.939166	0.995816	0.000118
 363	3.6019e+01	14.4124	45.223995	0.000324	3.243218	1.098832	0.000130
 364	3.6118e+01	14.4541	45.324923	0.000253	2.533764	0.858462	0.000101
 365	3.6218e+01	14.4894	45.401629	0.000193	1.925660	0.652431	0.000077
 366	3.6318e+01	14.5376	45.506594	0.000264	2.635114	0.892801	0.000105
 367	3.6417e+01	14.5777	45.623671	0.000294	2.939166	0.995816	0.000118
 368	3.6517e+01	14.6178	45.744785	0.000304	3.040516	1.030155	0.000122
 369	3.6616e+01	14.6531	45.837639	0.000233	2.331063	0.789785	0.000093
 370	3.6715e+01	14.6900	45.954716	0.000294	2.939166	0.995816	0.000118
 371	3.6815e+01	14.7429	46.051607	0.000243	2.432413	0.824124	0.000097
 372	3.6914e+01	14.7702	46.172721	0.000304	3.040516	1.030155	0.000122
 373	3.7014e+01	14.8119	46.277687	0.000264	2.635114	0.892801	0.000105
 374	3.7114e+01	14.8568	46.378615	0.000253	2.533764	0.858462	0.000101
 375	3.7213e+01	14.8969	46.463395	0.000213	2.128362	0.721108	0.000085
 376	3.7313e+01	14.9386	46.588546	0.000314	3.141867	1.064493	0.000126
 377	3.7412e+01	14.9643	46.693512	0.000264	2.635114	0.892801	0.000105
 378	3.7511e+01	15.0092	46.778292	0.000213	2.128362	0.721108	0.000085
 379	3.7611e+01	15.0637	46.919592	0.000355	3.547269	1.201847	0.000142
 380	3.7711e+01	15.0878	47.036668	0.000294	2.939166	0.995816	0.000118
 381	3.7810e+01	15.1327	47.149708	0.000284	2.837815	0.961478	0.000114
 382	3.7910e+01	15.1664	47.258711	0.000274	2.736465	0.927139	0.000110
 383	3.8009e+01	15.2178	47.375788	0.000294	2.939166	0.995816	0.000118
 384	3.8108e+01	15.2530	47.448456	0.000182	1.824310	0.618093	0.000073
 385	3.8208e+01	15.2883	47.597830	0.000375	3.749970	1.270524	0.000150
 386	3.8307e+01	15.3381	47.690684	0.000233	2.331063	0.789785	0.000093
 387	3.8407e+01	15.3734	47.819873	0.000324	3.243218	1.098832	0.000130
 388	3.8507e+01	15.4119	47.904653	0.000213	2.128362	0.721108	0.000085
 389	3.8606e+01	15.4520	48.066138	0.000405	4.054022	1.373540	0.000162
 390	3.8706e+01	15.4921	48.134769	0.000172	1.722959	0.583754	0.000069
 391	3.8805e+01	15.5386	48.243772	0.000274	2.736465	0.927139	0.000110
 392	3.8904e+01	15.5691	48.360849	0.000294	2.939166	0.995816	0.000118
 393	3.9004e+01	15.6188	48.445629	0.000213	2.128362	0.721108	0.000085
 394	3.9103e+01	15.6525	48.566743	0.000304	3.040516	1.030155	0.000122
 395	3.9203e+01	15.6942	48.655560	0.000223	2.229712	0.755447	0.000089
 396	3.9303e+01	15.7327	48.796860	0.000355	3.547269	1.201847	0.000142
 397	3.9402e+01	15.7664	48.865491	0.000172	1.722959	0.583754	0.000069
 398	3.9502e+01	15.8161	48.982568	0.000294	2.939166	0.995816	0.000118
 399	3.9601e+01	15.8498	49.123868	0.000355	3.547269	1.201847	0.000142
 400	3.9700e+01	15.8835	49.192499	0.000172	1.722959	0.583754	0.000069
 401	3.9800e+01	15.9348	49.321687	0.000324	3.243218	1.098832	0.000130
 402	3.9900e+01	15.9782	49.422616	0.000253	2.533764	0.858462	0.000101
 403	3.9999e+01	16.0070	49.555841	0.000334	3.344568	1.133170	0.000134
 404	4.0099e+01	16.0520	49.680992	0.000314	3.141867	1.064493	0.000126
 405	4.0198e+01	16.0872	49.753661	0.000182	1.824310	0.618093	0.000073
 406	4.0297e+01	16.1257	49.834404	0.000203	2.027011	0.686770	0.000081
 407	4.0397e+01	16.1723	49.939369	0.000264	2.635114	0.892801	0.000105
 408	4.0496e+01	16.2124	50.060483	0.000304	3.040516	1.030155	0.000122
 409	4.0596e+01	16.2429	50.165449	0.000264	2.635114	0.892801	0.000105
 410	4.0696e+01	16.2942	50.278488	0.000284	2.837815	0.961478	0.000114
 411	4.0795e+01	16.3311	50.395565	0.000294	2.939166	0.995816	0.000118
 412	4.0895e+01	16.3696	50.488420	0.000233	2.331063	0.789785	0.000093
 413	4.0994e+01	16.3985	50.561088	0.000182	1.824310	0.618093	0.000073
 414	4.1093e+01	16.4562	50.718536	0.000395	3.952671	1.339201	0.000158
 415	4.1193e+01	16.4915	50.831576	0.000284	2.837815	0.961478	0.000114
 416	4.1292e+01	16.5364	50.892133	0.000152	1.520258	0.515077	0.000061
 417	4.1392e+01	16.5749	51.001136	0.000274	2.736465	0.927139	0.000110
 418	4.1492e+01	16.6070	51.126287	0.000314	3.141867	1.064493	0.000126
 419	4.1591e+01	16.6471	51.207030	0.000203	2.027011	0.686770	0.000081
 420	4.1691e+01	16.6969	51.295847	0.000223	2.229712	0.755447	0.000089
 421	4.1790e+01	16.7354	51.437146	0.000355	3.547269	1.201847	0.000142
 422	4.1889e+01	16.7706	51.534038	0.000243	2.432413	0.824124	0.000097
 423	4.1989e+01	16.8059	51.614780	0.000203	2.027011	0.686770	0.000081
 424	4.2089e+01	16.8477	51.743969	0.000324	3.243218	1.098832	0.000130
 425	4.2188e+01	16.8717	51.844897	0.000253	2.533764	0.858462	0.000101
 426	4.2288e+01	16.9182	51.889306	0.000111	1.114856	0.377723	0.000045
 427	4.2387e+01	16.9632	52.038680	0.000375	3.749970	1.270524	0.000150
 428	4.2486e+01	17.0017	52.127497	0.000223	2.229712	0.755447	0.000089
 429	4.2586e+01	17.0498	52.232462	0.000264	2.635114	0.892801	0.000105
 430	4.2685e+01	17.0867	52.325316	0.000233	2.331063	0.789785	0.000093
 431	4.2785e+01	17.1316	52.458542	0.000334	3.344568	1.133170	0.000134
 432	4.2885e+01	17.1669	52.555433	0.000243	2.432413	0.824124	0.000097
 433	4.2984e+01	17.1974	52.652324	0.000243	2.432413	0.824124	0.000097
 434	4.3084e+01	17.2439	52.765364	0.000284	2.837815	0.961478	0.000114
 435	4.3183e+01	17.2792	52.862255	0.000243	2.432413	0.824124	0.000097
 436	4.3282e+01	17.3145	52.967221	0.000264	2.635114	0.892801	0.000105
 437	4.3382e+01	17.3642	53.047964	0.000203	2.027011	0.686770	0.000081
 438	4.3481e+01	17.4043	53.177152	0.000324	3.243218	1.098832	0.000130
 439	4.3581e+01	17.4396	53.274043	0.000243	2.432413	0.824124	0.000097
 440	4.3681e+01	17.4813	53.383046	0.000274	2.736465	0.927139	0.000110
 441	4.3780e+01	17.5214	53.488011	0.000264	2.635114	0.892801	0.000105
 442	4.3880e+01	17.5696	53.568754	0.000203	2.027011	0.686770	0.000081
 443	4.3979e+01	17.6097	53.673720	0.000264	2.635114	0.892801	0.000105
 444	4.4078e+01	17.6466	53.734277	0.000152	1.520258	0.515077	0.000061
 445	4.4178e+01	17.6867	53.859428	0.000314	3.141867	1.064493	0.000126
 446	4.4278e+01	17.7220	53.976505	0.000294	2.939166	0.995816	0.000118
 447	4.4377e+01	17.7540	54.101656	0.000314	3.141867	1.064493	0.000126
 448	4.4477e+01	17.8006	54.190473	0.000223	2.229712	0.755447	0.000089
 449	4.4576e+01	17.8359	54.291401	0.000253	2.533764	0.858462	0.000101
 450	4.4675e+01	17.8808	54.412515	0.000304	3.040516	1.030155	0.000122
 451	4.4775e+01	17.9209	54.521518	0.000274	2.736465	0.927139	0.000110
 452	4.4874e+01	17.9658	54.618409	0.000243	2.432413	0.824124	0.000097
 453	4.4974e+01	17.9979	54.743561	0.000314	3.141867	1.064493	0.000126
 454	4.5074e+01	18.0444	54.808155	0.000162	1.621609	0.549416	0.000065
 455	4.5173e+01	18.0781	54.876786	0.000172	1.722959	0.583754	0.000069
 456	4.5273e+01	18.1134	55.022123	0.000365	3.648620	1.236186	0.000146
 457	4.5372e+01	18.1567	55.066531	0.000111	1.114856	0.377723	0.000045
 458	4.5471e+01	18.2016	55.195720	0.000324	3.243218	1.098832	0.000130
 459	4.5571e+01	18.2417	55.308760	0.000284	2.837815	0.961478	0.000114
 460	4.5670e+01	18.2786	55.393539	0.000213	2.128362	0.721108	0.000085
 461	4.5770e+01	18.3252	55.518691	0.000314	3.141867	1.064493	0.000126
 462	4.5870e+01	18.3637	55.619619	0.000253	2.533764	0.858462	0.000101
 463	4.5969e+01	18.3989	55.720547	0.000253	2.533764	0.858462	0.000101
 464	4.6069e+01	18.4487	55.813402	0.000233	2.331063	0.789785	0.000093
 465	4.6168e+01	18.4840	55.906256	0.000233	2.331063	0.789785	0.000093
 466	4.6267e+01	18.5241	56.019296	0.000284	2.837815	0.961478	0.000114
 467	4.6367e+01	18.5722	56.100038	0.000203	2.027011	0.686770	0.000081
 468	4.6467e+01	18.6011	56.184818	0.000213	2.128362	0.721108	0.000085
 469	4.6566e+01	18.6364	56.253449	0.000172	1.722959	0.583754	0.000069
 470	4.6666e+01	18.6797	56.406861	0.000385	3.851321	1.304863	0.000154
 471	4.6765e+01	18.7150	56.475492	0.000172	1.722959	0.583754	0.000069
 472	4.6864e+01	18.7695	56.588532	0.000284	2.837815	0.961478	0.000114
 473	4.6964e+01	18.8048	56.673311	0.000213	2.128362	0.721108	0.000085
 474	4.7063e+01	18.8401	56.754054	0.000203	2.027011	0.686770	0.000081
 475	4.7163e+01	18.8786	56.850945	0.000243	2.432413	0.824124	0.000097
 476	4.7263e+01	18.9171	56.980134	0.000324	3.243218	1.098832	0.000130
 477	4.7362e+01	18.9556	57.040691	0.000152	1.520258	0.515077	0.000061
 478	4.7462e+01	19.0037	57.137582	0.000243	2.432413	0.824124	0.000097
 479	4.7561e+01	19.0358	57.242548	0.000264	2.635114	0.892801	0.000105
 480	4.7660e+01	19.0743	57.327327	0.000213	2.128362	0.721108	0.000085
 481	4.7760e+01	19.1209	57.428256	0.000253	2.533764	0.858462	0.000101
 482	4.7859e+01	19.1610	57.504961	0.000193	1.925660	0.652431	0.000077
 483	4.7959e+01	19.2011	57.593778	0.000223	2.229712	0.755447	0.000089
 484	4.8059e+01	19.2412	57.735078	0.000355	3.547269	1.201847	0.000142
 485	4.8158e+01	19.2765	57.819858	0.000213	2.128362	0.721108	0.000085
 486	4.8258e+01	19.3214	57.888489	0.000172	1.722959	0.583754	0.000069
 487	4.8357e+01	19.3599	58.009603	0.000304	3.040516	1.030155	0.000122
 488	4.8456e+01	19.3920	58.078235	0.000172	1.722959	0.583754	0.000069
 489	4.8556e+01	19.4337	58.199349	0.000304	3.040516	1.030155	0.000122
 490	4.8656e+01	19.4674	58.296240	0.000243	2.432413	0.824124	0.000097
 491	4.8755e+01	19.5155	58.376983	0.000203	2.027011	0.686770	0.000081
 492	4.8855e+01	19.5556	58.490023	0.000284	2.837815	0.961478	0.000114
 493	4.8954e+01	19.5893	58.550580	0.000152	1.520258	0.515077	0.000061
 494	4.9053e+01	19.6358	58.691879	0.000355	3.547269	1.201847	0.000142
 495	4.9153e+01	19.6695	58.756474	0.000162	1.621609	0.549416	0.000065
 496	4.9252e+01	19.7144	58.845291	0.000223	2.229712	0.755447	0.000089
 497	4.9352e+01	19.7545	58.938145	0.000233	2.331063	0.789785	0.000093
 498	4.9452e+01	19.7914	59.006776	0.000172	1.722959	0.583754	0.000069
 499	4.9551e+01	19.8331	59.131927	0.000314	3.141867	1.064493	0.000126
 500	4.9651e+01	19.8700	59.240930	0.000274	2.736465	0.927139	0.000110
 501	4.9750e+01	19.9117	59.341858	0.000253	2.533764	0.858462	0.000101
 502	4.9849e+01	19.9551	59.434712	0.000233	2.331063	0.789785	0.000093
 503	4.9949e+01	19.9952	59.539678	0.000264	2.635114	0.892801	0.000105
 504	5.0048e+01	19.9502	59.410490	0.000324	3.243218	1.098832	-0.000130
 505	5.0148e+01	19.9069	59.353970	0.000142	1.418908	0.480739	-0.000057
 506	5.0248e+01	19.8684	59.285338	0.000172	1.722959	0.583754	-0.000069
 507	5.0347e+01	19.8363	59.208633	0.000193	1.925660	0.652431	-0.000077
 508	5.0447e+01	19.7962	59.107704	0.000253	2.533764	0.858462	-0.000101
 509	5.0546e+01	19.7658	59.051184	0.000142	1.418908	0.480739	-0.000057
 510	5.0645e+01	19.7144	58.966405	0.000213	2.128362	0.721108	-0.000085
 511	5.0745e+01	19.6679	58.873550	0.000233	2.331063	0.789785	-0.000093
 512	5.0844e+01	19.6278	58.780696	0.000233	2.331063	0.789785	-0.000093
 513	5.0944e+01	19.5909	58.744362	0.000091	0.912155	0.309046	-0.000037
 514	5.1044e+01	19.5556	58.659582	0.000213	2.128362	0.721108	-0.000085
 515	5.1143e+01	19.5187	58.566728	0.000233	2.331063	0.789785	-0.000093
 516	5.1242e+01	19.4738	58.473874	0.000233	2.331063	0.789785	-0.000093
 517	5.1342e+01	19.4401	58.413317	0.000152	1.520258	0.515077	-0.000061
 518	5.1441e+01	19.3984	58.300277	0.000284	2.837815	0.961478	-0.000114
 519	5.1541e+01	19.3631	58.251832	0.000122	1.216207	0.412062	-0.000049
 520	5.1641e+01	19.3150	58.142829	0.000274	2.736465	0.927139	-0.000110
 521	5.1740e+01	19.2861	58.102458	0.000101	1.013505	0.343385	-0.000041
 522	5.1840e+01	19.2380	58.009603	0.000233	2.331063	0.789785	-0.000093
 523	5.1939e+01	19.2011	57.920786	0.000223	2.229712	0.755447	-0.000089
 524	5.2038e+01	19.1561	57.848118	0.000182	1.824310	0.618093	-0.000073
 525	5.2138e+01	19.1209	57.747190	0.000253	2.533764	0.858462	-0.000101
 526	5.2237e+01	19.0791	57.690670	0.000142	1.418908	0.480739	-0.000057
 527	5.2337e+01	19.0422	57.585704	0.000264	2.635114	0.892801	-0.000105
 528	5.2437e+01	18.9957	57.472664	0.000284	2.837815	0.961478	-0.000114
 529	5.2536e+01	18.9556	57.379810	0.000233	2.331063	0.789785	-0.000093
 530	5.2636e+01	18.9187	57.319253	0.000152	1.520258	0.515077	-0.000061
 531	5.2735e+01	18.8850	57.242548	0.000193	1.925660	0.652431	-0.000077
 532	5.2834e+01	18.8321	57.141619	0.000253	2.533764	0.858462	-0.000101
 533	5.2934e+01	18.8032	57.032617	0.000274	2.736465	0.927139	-0.000110
 534	5.3033e+01	18.7615	56.984171	0.000122	1.216207	0.412062	-0.000049
 535	5.3133e+01	18.7214	56.887280	0.000243	2.432413	0.824124	-0.000097
 536	5.3233e+01	18.6797	56.814611	0.000182	1.824310	0.618093	-0.000073
 537	5.3332e+01	18.6380	56.745980	0.000172	1.722959	0.583754	-0.000069
 538	5.3431e+01	18.6011	56.624866	0.000304	3.040516	1.030155	-0.000122
 539	5.3531e+01	18.5594	56.515863	0.000274	2.736465	0.927139	-0.000110
 540	5.3630e+01	18.5241	56.475492	0.000101	1.013505	0.343385	-0.000041
 541	5.3730e+01	18.4856	56.374563	0.000253	2.533764	0.858462	-0.000101
 542	5.3830e+01	18.4439	56.285746	0.000223	2.229712	0.755447	-0.000089
 543	5.3929e+01	18.4054	56.205004	0.000203	2.027011	0.686770	-0.000081
 544	5.4029e+01	18.3604	56.083890	0.000304	3.040516	1.030155	-0.000122
 545	5.4128e+01	18.3187	55.999110	0.000213	2.128362	0.721108	-0.000085
 546	5.4227e+01	18.2786	55.902219	0.000243	2.432413	0.824124	-0.000097
 547	5.4327e+01	18.2385	55.833587	0.000172	1.722959	0.583754	-0.000069
 548	5.4426e+01	18.1984	55.728622	0.000264	2.635114	0.892801	-0.000105
 549	5.4526e+01	18.1711	55.684213	0.000111	1.114856	0.377723	-0.000045
 550	5.4626e+01	18.1246	55.567136	0.000294	2.939166	0.995816	-0.000118
 551	5.4725e+01	18.0877	55.502542	0.000162	1.621609	0.549416	-0.000065
 552	5.4825e+01	18.0428	55.397577	0.000264	2.635114	0.892801	-0.000105
 553	5.4924e+01	17.9979	55.324908	0.000182	1.824310	0.618093	-0.000073
 554	5.5023e+01	17.9706	55.248203	0.000193	1.925660	0.652431	-0.000077
 555	5.5123e+01	17.9289	55.155348	0.000233	2.331063	0.789785	-0.000093
 556	5.5222e+01	17.8776	55.074606	0.000203	2.027011	0.686770	-0.000081
 557	5.5322e+01	17.8423	54.989826	0.000213	2.128362	0.721108	-0.000085
 558	5.5422e+01	17.8118	54.872749	0.000294	2.939166	0.995816	-0.000118
 559	5.5521e+01	17.7621	54.771821	0.000253	2.533764	0.858462	-0.000101
 560	5.5620e+01	17.7220	54.719338	0.000132	1.317557	0.446400	-0.000053
 561	5.5720e+01	17.6883	54.646669	0.000182	1.824310	0.618093	-0.000073
 562	5.5819e+01	17.6385	54.537667	0.000274	2.736465	0.927139	-0.000110
 563	5.5919e+01	17.6065	54.440775	0.000243	2.432413	0.824124	-0.000097
 564	5.6019e+01	17.5696	54.368107	0.000182	1.824310	0.618093	-0.000073
 565	5.6118e+01	17.5262	54.327736	0.000101	1.013505	0.343385	-0.000041
 566	5.6218e+01	17.4893	54.198547	0.000324	3.243218	1.098832	-0.000130
 567	5.6317e+01	17.4412	54.093582	0.000264	2.635114	0.892801	-0.000105
 568	5.6416e+01	17.4107	54.024950	0.000172	1.722959	0.583754	-0.000069
 569	5.6516e+01	17.3658	53.940171	0.000213	2.128362	0.721108	-0.000085
 570	5.6615e+01	17.3225	53.855391	0.000213	2.128362	0.721108	-0.000085
 571	5.6715e+01	17.2936	53.754462	0.000253	2.533764	0.858462	-0.000101
 572	5.6815e+01	17.2423	53.633348	0.000304	3.040516	1.030155	-0.000122
 573	5.6914e+01	17.2006	53.548568	0.000213	2.128362	0.721108	-0.000085
 574	5.7014e+01	17.1573	53.475900	0.000182	1.824310	0.618093	-0.000073
 575	5.7113e+01	17.1236	53.431491	0.000111	1.114856	0.377723	-0.000045
 576	5.7212e+01	17.0867	53.314415	0.000294	2.939166	0.995816	-0.000118
 577	5.7312e+01	17.0434	53.229635	0.000213	2.128362	0.721108	-0.000085
 578	5.7411e+01	17.0129	53.144855	0.000213	2.128362	0.721108	-0.000085
 579	5.7511e+01	16.9648	52.999518	0.000365	3.648620	1.236186	-0.000146
 580	5.7611e+01	16.9166	52.947035	0.000132	1.317557	0.446400	-0.000053
 581	5.7710e+01	16.8846	52.850144	0.000243	2.432413	0.824124	-0.000097
 582	5.7809e+01	16.8444	52.749216	0.000253	2.533764	0.858462	-0.000101
 583	5.7909e+01	16.8108	52.664436	0.000213	2.128362	0.721108	-0.000085
 584	5.8008e+01	16.7658	52.599842	0.000162	1.621609	0.549416	-0.000065
 585	5.8108e+01	16.7273	52.498913	0.000253	2.533764	0.858462	-0.000101
 586	5.8208e+01	16.6824	52.410096	0.000223	2.229712	0.755447	-0.000089
 587	5.8307e+01	16.6455	52.288982	0.000304	3.040516	1.030155	-0.000122
 588	5.8407e+01	16.6054	52.196128	0.000233	2.331063	0.789785	-0.000093
 589	5.8506e+01	16.5717	52.103274	0.000233	2.331063	0.789785	-0.000093
 590	5.8605e+01	16.5252	52.022531	0.000203	2.027011	0.686770	-0.000081
 591	5.8705e+01	16.4867	51.937751	0.000213	2.128362	0.721108	-0.000085
 592	5.8804e+01	16.4514	51.852971	0.000213	2.128362	0.721108	-0.000085
 593	5.8904e+01	16.4081	51.772229	0.000203	2.027011	0.686770	-0.000081
 594	5.9004e+01	16.3712	51.639003	0.000334	3.344568	1.133170	-0.000134
 595	5.9103e+01	16.3183	51.574409	0.000162	1.621609	0.549416	-0.000065
 596	5.9203e+01	16.2830	51.445221	0.000324	3.243218	1.098832	-0.000130
 597	5.9302e+01	16.2477	51.376589	0.000172	1.722959	0.583754	-0.000069
 598	5.9401e+01	16.2076	51.307958	0.000172	1.722959	0.583754	-0.000069
 599	5.9501e+01	16.1739	51.207030	0.000253	2.533764	0.858462	-0.000101
 600	5.9600e+01	16.1257	51.065730	0.000355	3.547269	1.201847	-0.000142
 601	5.9700e+01	16.0905	50.989024	0.000193	1.925660	0.652431	-0.000077
 602	5.9800e+01	16.0616	50.912319	0.000193	1.925660	0.652431	-0.000077
 603	5.9899e+01	16.0054	50.799279	0.000284	2.837815	0.961478	-0.000114
 604	5.9998e+01	15.9653	50.686239	0.000284	2.837815	0.961478	-0.000114
 605	6.0098e+01	15.9429	50.629719	0.000142	1.418908	0.480739	-0.000057
 606	6.0197e+01	15.8996	50.524754	0.000264	2.635114	0.892801	-0.000105
 607	6.0297e+01	15.8546	50.415751	0.000274	2.736465	0.927139	-0.000110
 608	6.0397e+01	15.8113	50.326934	0.000223	2.229712	0.755447	-0.000089
 609	6.0496e+01	15.7712	50.238117	0.000223	2.229712	0.755447	-0.000089
 610	6.0596e+01	15.7263	50.181597	0.000142	1.418908	0.480739	-0.000057
 611	6.0695e+01	15.6942	50.028186	0.000385	3.851321	1.304863	-0.000154
 612	6.0794e+01	15.6477	49.967629	0.000152	1.520258	0.515077	-0.000061
 613	6.0894e+01	15.6172	49.846515	0.000304	3.040516	1.030155	-0.000122
 614	6.0993e+01	15.5739	49.769809	0.000193	1.925660	0.652431	-0.000077
 615	6.1093e+01	15.5322	49.660807	0.000274	2.736465	0.927139	-0.000110
 616	6.1193e+01	15.4889	49.531618	0.000324	3.243218	1.098832	-0.000130
 617	6.1292e+01	15.4536	49.462987	0.000172	1.722959	0.583754	-0.000069
 618	6.1392e+01	15.4135	49.386281	0.000193	1.925660	0.652431	-0.000077
 619	6.1491e+01	15.3750	49.305539	0.000203	2.027011	0.686770	-0.000081
 620	6.1590e+01	15.3284	49.224796	0.000203	2.027011	0.686770	-0.000081
 621	6.1690e+01	15.2980	49.091571	0.000334	3.344568	1.133170	-0.000134
 622	6.1789e+01	15.2514	48.994679	0.000243	2.432413	0.824124	-0.000097
 623	6.1889e+01	15.2097	48.901825	0.000233	2.331063	0.789785	-0.000093
 624	6.1989e+01	15.1680	48.792823	0.000274	2.736465	0.927139	-0.000110
 625	6.2088e+01	15.1391	48.724191	0.000172	1.722959	0.583754	-0.000069
 626	6.2188e+01	15.0878	48.647486	0.000193	1.925660	0.652431	-0.000077
 627	6.2287e+01	15.0573	48.534446	0.000284	2.837815	0.961478	-0.000114
 628	6.2386e+01	15.0172	48.421406	0.000284	2.837815	0.961478	-0.000114
 629	6.2486e+01	14.9723	48.332589	0.000223	2.229712	0.755447	-0.000089
 630	6.2586e+01	14.9354	48.259921	0.000182	1.824310	0.618093	-0.000073
 631	6.2685e+01	14.8937	48.134769	0.000314	3.141867	1.064493	-0.000126
 632	6.2785e+01	14.8408	48.049990	0.000213	2.128362	0.721108	-0.000085
 633	6.2884e+01	14.8103	47.945024	0.000264	2.635114	0.892801	-0.000105
 634	6.2983e+01	14.7798	47.856207	0.000223	2.229712	0.755447	-0.000089
 635	6.3083e+01	14.7317	47.739130	0.000294	2.939166	0.995816	-0.000118
 636	6.3182e+01	14.6996	47.658387	0.000203	2.027011	0.686770	-0.000081
 637	6.3282e+01	14.6531	47.529199	0.000324	3.243218	1.098832	-0.000130
 638	6.3382e+01	14.6146	47.391936	0.000345	3.445919	1.167509	-0.000138
 639	6.3481e+01	14.5712	47.323305	0.000172	1.722959	0.583754	-0.000069
 640	6.3581e+01	14.5408	47.254674	0.000172	1.722959	0.583754	-0.000069
 641	6.3680e+01	14.4942	47.153745	0.000253	2.533764	0.858462	-0.000101
 642	6.3779e+01	14.4557	47.040706	0.000284	2.837815	0.961478	-0.000114
 643	6.3879e+01	14.4221	46.935740	0.000264	2.635114	0.892801	-0.000105
 644	6.3978e+01	14.3852	46.867109	0.000172	1.722959	0.583754	-0.000069
 645	6.4078e+01	14.3306	46.737920	0.000324	3.243218	1.098832	-0.000130
 646	6.4177e+01	14.2937	46.657178	0.000203	2.027011	0.686770	-0.000081
 647	6.4277e+01	14.2584	46.532027	0.000314	3.141867	1.064493	-0.000126
 648	6.4376e+01	14.2167	46.414950	0.000294	2.939166	0.995816	-0.000118
 649	6.4476e+01	14.1734	46.346318	0.000172	1.722959	0.583754	-0.000069
 650	6.4576e+01	14.1269	46.213093	0.000334	3.344568	1.133170	-0.000134
 651	6.4675e+01	14.0964	46.140424	0.000182	1.824310	0.618093	-0.000073
 652	6.4775e+01	14.0563	46.015273	0.000314	3.141867	1.064493	-0.000126
 653	6.4874e+01	14.0178	45.906270	0.000274	2.736465	0.927139	-0.000110
 654	6.4974e+01	13.9777	45.829565	0.000193	1.925660	0.652431	-0.000077
 655	6.5073e+01	13.9344	45.712488	0.000294	2.939166	0.995816	-0.000118
 656	6.5172e+01	13.8943	45.603485	0.000274	2.736465	0.927139	-0.000110
 657	6.5272e+01	13.8574	45.522743	0.000203	2.027011	0.686770	-0.000081
 658	6.5371e+01	13.8221	45.393554	0.000324	3.243218	1.098832	-0.000130
 659	6.5471e+01	13.7804	45.312812	0.000203	2.027011	0.686770	-0.000081
 660	6.5570e+01	13.7306	45.211883	0.000253	2.533764	0.858462	-0.000101
 661	6.5670e+01	13.6937	45.082695	0.000324	3.243218	1.098832	-0.000130
 662	6.5769e+01	13.6600	44.993878	0.000223	2.229712	0.755447	-0.000089
 663	6.5869e+01	13.6264	44.872764	0.000304	3.040516	1.030155	-0.000122
 664	6.5969e+01	13.5750	44.792021	0.000203	2.027011	0.686770	-0.000081
 665	6.6068e+01	13.5445	44.687055	0.000264	2.635114	0.892801	-0.000105
 666	6.6168e+01	13.4996	44.569979	0.000294	2.939166	0.995816	-0.000118
 667	6.6267e+01	13.4643	44.497310	0.000182	1.824310	0.618093	-0.000073
 668	6.6367e+01	13.4226	44.376196	0.000304	3.040516	1.030155	-0.000122
 669	6.6466e+01	13.3825	44.267193	0.000274	2.736465	0.927139	-0.000110
 670	6.6566e+01	13.3376	44.174339	0.000233	2.331063	0.789785	-0.000093
 671	6.6665e+01	13.3007	44.069374	0.000264	2.635114	0.892801	-0.000105
 672	6.6764e+01	13.2654	43.944223	0.000314	3.141867	1.064493	-0.000126
 673	6.6864e+01	13.2173	43.839257	0.000264	2.635114	0.892801	-0.000105
 674	6.6963e+01	13.1788	43.730254	0.000274	2.736465	0.927139	-0.000110
 675	6.7063e+01	13.1483	43.681809	0.000122	1.216207	0.412062	-0.000049
 676	6.7162e+01	13.0921	43.548583	0.000334	3.344568	1.133170	-0.000134
 677	6.7262e+01	13.0681	43.439581	0.000274	2.736465	0.927139	-0.000110
 678	6.7362e+01	13.0264	43.330578	0.000274	2.736465	0.927139	-0.000110
 679	6.7461e+01	12.9782	43.225612	0.000264	2.635114	0.892801	-0.000105
 680	6.7561e+01	12.9430	43.128721	0.000243	2.432413	0.824124	-0.000097
 681	6.7660e+01	12.9028	42.979347	0.000375	3.749970	1.270524	-0.000150
 682	6.7760e+01	12.8659	42.894567	0.000213	2.128362	0.721108	-0.000085
 683	6.7859e+01	12.8178	42.817862	0.000193	1.925660	0.652431	-0.000077
 684	6.7959e+01	12.7761	42.725008	0.000233	2.331063	0.789785	-0.000093
 685	6.8058e+01	12.7504	42.611968	0.000284	2.837815	0.961478	-0.000114
 686	6.8157e+01	12.7071	42.543336	0.000172	1.722959	0.583754	-0.000069
 687	6.8257e+01	12.6622	42.402037	0.000355	3.547269	1.201847	-0.000142
 688	6.8356e+01	12.6253	42.280923	0.000304	3.040516	1.030155	-0.000122
 689	6.8456e+01	12.5868	42.171920	0.000274	2.736465	0.927139	-0.000110
 690	6.8555e+01	12.5451	42.075029	0.000243	2.432413	0.824124	-0.000097
 691	6.8655e+01	12.5066	41.957952	0.000294	2.939166	0.995816	-0.000118
 692	6.8754e+01	12.4745	41.840875	0.000294	2.939166	0.995816	-0.000118
 693	6.8854e+01	12.4280	41.727835	0.000284	2.837815	0.961478	-0.000114
 694	6.8954e+01	12.3895	41.643055	0.000213	2.128362	0.721108	-0.000085
 695	6.9053e+01	12.3430	41.538090	0.000264	2.635114	0.892801	-0.000105
 696	6.9153e+01	12.3077	41.421013	0.000294	2.939166	0.995816	-0.000118
 697	6.9252e+01	12.2628	41.307973	0.000284	2.837815	0.961478	-0.000114
 698	6.9352e+01	12.2243	41.190896	0.000294	2.939166	0.995816	-0.000118
 699	6.9451e+01	12.1858	41.089968	0.000253	2.533764	0.858462	-0.000101
 700	6.9550e+01	12.1473	41.001151	0.000223	2.229712	0.755447	-0.000089
 701	6.9650e+01	12.1071	40.896185	0.000264	2.635114	0.892801	-0.000105
 702	6.9749e+01	12.0670	40.787182	0.000274	2.736465	0.927139	-0.000110
 703	6.9849e+01	12.0285	40.653957	0.000334	3.344568	1.133170	-0.000134
 704	6.9948e+01	11.9772	40.536880	0.000294	2.939166	0.995816	-0.000118
 705	7.0048e+01	11.9515	40.435952	0.000253	2.533764	0.858462	-0.000101
 706	7.0147e+01	11.9098	40.351172	0.000213	2.128362	0.721108	-0.000085
 707	7.0247e+01	11.8633	40.205835	0.000365	3.648620	1.236186	-0.000146
 708	7.0347e+01	11.8264	40.092795	0.000284	2.837815	0.961478	-0.000114
 709	7.0446e+01	11.7959	40.044349	0.000122	1.216207	0.412062	-0.000049
 710	7.0546e+01	11.7558	39.882864	0.000405	4.054022	1.373540	-0.000162
 711	7.0645e+01	11.7141	39.802121	0.000203	2.027011	0.686770	-0.000081
 712	7.0745e+01	11.6724	39.652747	0.000375	3.749970	1.270524	-0.000150
 713	7.0844e+01	11.6355	39.555856	0.000243	2.432413	0.824124	-0.000097
 714	7.0944e+01	11.5970	39.442816	0.000284	2.837815	0.961478	-0.000114
 715	7.1043e+01	11.5441	39.341888	0.000253	2.533764	0.858462	-0.000101
 716	7.1142e+01	11.5088	39.220774	0.000304	3.040516	1.030155	-0.000122
 717	7.1242e+01	11.4655	39.119845	0.000253	2.533764	0.858462	-0.000101
 718	7.1341e+01	11.4302	39.026991	0.000233	2.331063	0.789785	-0.000093
 719	7.1441e+01	11.3965	38.909914	0.000294	2.939166	0.995816	-0.000118
 720	7.1540e+01	11.3532	38.784763	0.000314	3.141867	1.064493	-0.000126
 721	7.1640e+01	11.3082	38.695946	0.000223	2.229712	0.755447	-0.000089
 722	7.1740e+01	11.2745	38.570795	0.000314	3.141867	1.064493	-0.000126
 723	7.1839e+01	11.2248	38.461792	0.000274	2.736465	0.927139	-0.000110
 724	7.1939e+01	11.1863	38.381049	0.000203	2.027011	0.686770	-0.000081
 725	7.2038e+01	11.1558	38.247824	0.000334	3.344568	1.133170	-0.000134
 726	7.2138e+01	11.1045	38.163044	0.000213	2.128362	0.721108	-0.000085
 727	7.2237e+01	11.0692	38.017707	0.000365	3.648620	1.236186	-0.000146
 728	7.2337e+01	11.0291	37.932927	0.000213	2.128362	0.721108	-0.000085
 729	7.2436e+01	11.0002	37.819888	0.000284	2.837815	0.961478	-0.000114
 730	7.2535e+01	10.9601	37.682625	0.000345	3.445919	1.167509	-0.000138
 731	7.2635e+01	10.9136	37.577659	0.000264	2.635114	0.892801	-0.000105
 732	7.2734e+01	10.8703	37.484805	0.000233	2.331063	0.789785	-0.000093
 733	7.2834e+01	10.8446	37.375803	0.000274	2.736465	0.927139	-0.000110
 734	7.2933e+01	10.7933	37.303134	0.000182	1.824310	0.618093	-0.000073
 735	7.3033e+01	10.7484	37.141649	0.000405	4.054022	1.373540	-0.000162
 736	7.3132e+01	10.7115	37.056869	0.000213	2.128362	0.721108	-0.000085
 737	7.3232e+01	10.6778	36.923643	0.000334	3.344568	1.133170	-0.000134
 738	7.3332e+01	10.6345	36.834826	0.000223	2.229712	0.755447	-0.000089
 739	7.3431e+01	10.5927	36.721787	0.000284	2.837815	0.961478	-0.000114
 740	7.3531e+01	10.5542	36.604710	0.000294	2.939166	0.995816	-0.000118
 741	7.3630e+01	10.5157	36.499744	0.000264	2.635114	0.892801	-0.000105
 742	7.3730e+01	10.4821	36.410927	0.000223	2.229712	0.755447	-0.000089
 743	7.3829e+01	10.4371	36.269627	0.000355	3.547269	1.201847	-0.000142
 744	7.3928e+01	10.3906	36.124291	0.000365	3.648620	1.236186	-0.000146
 745	7.4028e+01	10.3553	36.031436	0.000233	2.331063	0.789785	-0.000093
 746	7.4127e+01	10.3232	35.918397	0.000284	2.837815	0.961478	-0.000114
 747	7.4227e+01	10.2751	35.825543	0.000233	2.331063	0.789785	-0.000093
 748	7.4326e+01	10.2350	35.655983	0.000426	4.256723	1.442217	-0.000170
 749	7.4426e+01	10.1933	35.587352	0.000172	1.722959	0.583754	-0.000069
 750	7.4525e+01	10.1388	35.450089	0.000345	3.445919	1.167509	-0.000138
 751	7.4625e+01	10.1131	35.357235	0.000233	2.331063	0.789785	-0.000093
 752	7.4725e+01	10.0794	35.228046	0.000324	3.243218	1.098832	-0.000130
 753	7.4824e+01	10.0393	35.131155	0.000243	2.432413	0.824124	-0.000097
 754	7.4924e+01	9.9880	34.997930	0.000334	3.344568	1.133170	-0.000134
 755	7.5023e+01	9.9623	34.909113	0.000223	2.229712	0.755447	-0.000089
 756	7.5123e+01	9.9174	34.763776	0.000365	3.648620	1.236186	-0.000146
 757	7.5222e+01	9.8724	34.646699	0.000294	2.939166	0.995816	-0.000118
 758	7.5322e+01	9.8323	34.561919	0.000213	2.128362	0.721108	-0.000085
 759	7.5421e+01	9.7922	34.412545	0.000375	3.749970	1.270524	-0.000150
 760	7.5520e+01	9.7537	34.291431	0.000304	3.040516	1.030155	-0.000122
 761	7.5620e+01	9.7136	34.206651	0.000213	2.128362	0.721108	-0.000085
 762	7.5719e+01	9.6751	34.089574	0.000294	2.939166	0.995816	-0.000118
 763	7.5819e+01	9.6414	33.988646	0.000253	2.533764	0.858462	-0.000101
 764	7.5918e+01	9.5981	33.847346	0.000355	3.547269	1.201847	-0.000142
 765	7.6018e+01	9.5564	33.702009	0.000365	3.648620	1.236186	-0.000146
 766	7.6118e+01	9.5083	33.629341	0.000182	1.824310	0.618093	-0.000073
 767	7.6217e+01	9.4730	33.496115	0.000334	3.344568	1.133170	-0.000134
 768	7.6317e+01	9.4361	33.399224	0.000243	2.432413	0.824124	-0.000097
 769	7.6416e+01	9.4040	33.282147	0.000294	2.939166	0.995816	-0.000118
 770	7.6516e+01	9.3591	33.136810	0.000365	3.648620	1.236186	-0.000146
 771	7.6615e+01	9.3238	33.047993	0.000223	2.229712	0.755447	-0.000089
 772	7.6715e+01	9.2837	32.918805	0.000324	3.243218	1.098832	-0.000130
 773	7.6814e+01	9.2388	32.805765	0.000284	2.837815	0.961478	-0.000114
 774	7.6913e+01	9.2003	32.660428	0.000365	3.648620	1.236186	-0.000146
 775	7.7013e+01	9.1538	32.563537	0.000243	2.432413	0.824124	-0.000097
 776	7.7112e+01	9.1104	32.442423	0.000304	3.040516	1.030155	-0.000122
 777	7.7212e+01	9.0848	32.309197	0.000334	3.344568	1.133170	-0.000134
 778	7.7311e+01	9.0350	32.208269	0.000253	2.533764	0.858462	-0.000101
 779	7.7411e+01	9.0046	32.083118	0.000314	3.141867	1.064493	-0.000126
 780	7.7510e+01	8.9596	31.970078	0.000284	2.837815	0.961478	-0.000114
 781	7.7610e+01	8.9147	31.848964	0.000304	3.040516	1.030155	-0.000122
 782	7.7710e+01	8.8778	31.748035	0.000253	2.533764	0.858462	-0.000101
 783	7.7809e+01	8.8425	31.630959	0.000294	2.939166	0.995816	-0.000118
 784	7.7909e+01	8.8008	31.469473	0.000405	4.054022	1.373540	-0.000162
 785	7.8008e+01	8.7623	31.396805	0.000182	1.824310	0.618093	-0.000073
 786	7.8108e+01	8.7222	31.283765	0.000284	2.837815	0.961478	-0.000114
 787	7.8207e+01	8.6773	31.126317	0.000395	3.952671	1.339201	-0.000158
 788	7.8306e+01	8.6436	30.989054	0.000345	3.445919	1.167509	-0.000138
 789	7.8406e+01	8.6003	30.888126	0.000253	2.533764	0.858462	-0.000101
 790	7.8505e+01	8.5538	30.811420	0.000193	1.925660	0.652431	-0.000077
 791	7.8605e+01	8.5137	30.690306	0.000304	3.040516	1.030155	-0.000122
 792	7.8704e+01	8.4832	30.540932	0.000375	3.749970	1.270524	-0.000150
 793	7.8804e+01	8.4335	30.427892	0.000284	2.837815	0.961478	-0.000114
 794	7.8903e+01	8.4110	30.286592	0.000355	3.547269	1.201847	-0.000142
 795	7.9003e+01	8.3581	30.226035	0.000152	1.520258	0.515077	-0.000061
 796	7.9103e+01	8.3115	30.080698	0.000365	3.648620	1.236186	-0.000146
 797	7.9202e+01	8.2762	29.951510	0.000324	3.243218	1.098832	-0.000130
 798	7.9302e+01	8.2361	29.834433	0.000294	2.939166	0.995816	-0.000118
 799	7.9401e+01	8.1928	29.693133	0.000355	3.547269	1.201847	-0.000142
 800	7.9501e+01	8.1559	29.547796	0.000365	3.648620	1.236186	-0.000146
 801	7.9600e+01	8.1238	29.454942	0.000233	2.331063	0.789785	-0.000093
 802	7.9700e+01	8.0805	29.337865	0.000294	2.939166	0.995816	-0.000118
 803	7.9799e+01	8.0516	29.216751	0.000304	3.040516	1.030155	-0.000122
 804	7.9898e+01	8.0083	29.059303	0.000395	3.952671	1.339201	-0.000158
 805	7.9998e+01	7.9650	28.938189	0.000304	3.040516	1.030155	-0.000122
 806	8.0097e+01	7.9297	28.780741	0.000395	3.952671	1.339201	-0.000158
 807	8.0197e+01	7.8848	28.716147	0.000162	1.621609	0.549416	-0.000065
 808	8.0296e+01	7.8319	28.542550	0.000436	4.358074	1.476555	-0.000174
 809	8.0396e+01	7.8046	28.461807	0.000203	2.027011	0.686770	-0.000081
 810	8.0496e+01	7.7661	28.340693	0.000304	3.040516	1.030155	-0.000122
 811	8.0595e+01	7.7228	28.243802	0.000243	2.432413	0.824124	-0.000097
 812	8.0695e+01	7.6779	28.050019	0.000486	4.864826	1.648248	-0.000195
 813	8.0794e+01	7.6378	27.961202	0.000223	2.229712	0.755447	-0.000089
 814	8.0894e+01	7.6025	27.815865	0.000365	3.648620	1.236186	-0.000146
 815	8.0993e+01	7.5624	27.666491	0.000375	3.749970	1.270524	-0.000150
 816	8.1093e+01	7.5303	27.537303	0.000324	3.243218	1.098832	-0.000130
 817	8.1192e+01	7.4805	27.444449	0.000233	2.331063	0.789785	-0.000093
 818	8.1291e+01	7.4501	27.282963	0.000405	4.054022	1.373540	-0.000162
 819	8.1391e+01	7.4067	27.177998	0.000264	2.635114	0.892801	-0.000105
 820	8.1490e+01	7.3586	27.048809	0.000324	3.243218	1.098832	-0.000130
 821	8.1590e+01	7.3201	26.919621	0.000324	3.243218	1.098832	-0.000130
 822	8.1689e+01	7.2880	26.818693	0.000253	2.533764	0.858462	-0.000101
 823	8.1789e+01	7.2495	26.628947	0.000476	4.763476	1.613909	-0.000191
 824	8.1888e+01	7.2078	26.580502	0.000122	1.216207	0.412062	-0.000049
 825	8.1988e+01	7.1597	26.414979	0.000416	4.155373	1.407878	-0.000166
 826	8.2088e+01	7.1196	26.241382	0.000436	4.358074	1.476555	-0.000174
 827	8.2187e+01	7.0811	26.152565	0.000223	2.229712	0.755447	-0.000089
 828	8.2287e+01	7.0522	26.023377	0.000324	3.243218	1.098832	-0.000130
 829	8.2386e+01	7.0041	25.882077	0.000355	3.547269	1.201847	-0.000142
 830	8.2486e+01	6.9640	25.765000	0.000294	2.939166	0.995816	-0.000118
 831	8.2585e+01	6.9255	25.639849	0.000314	3.141867	1.064493	-0.000126
 832	8.2684e+01	6.8886	25.498549	0.000355	3.547269	1.201847	-0.000142
 833	8.2784e+01	6.8517	25.353212	0.000365	3.648620	1.236186	-0.000146
 834	8.2883e+01	6.8036	25.256321	0.000243	2.432413	0.824124	-0.000097
 835	8.2983e+01	6.7650	25.119059	0.000345	3.445919	1.167509	-0.000138
 836	8.3082e+01	6.7249	25.018130	0.000253	2.533764	0.858462	-0.000101
 837	8.3182e+01	6.6864	24.880868	0.000345	3.445919	1.167509	-0.000138
 838	8.3281e+01	6.6479	24.727456	0.000385	3.851321	1.304863	-0.000154
 839	8.3381e+01	6.6126	24.565971	0.000405	4.054022	1.373540	-0.000162
 840	8.3481e+01	6.5693	24.477154	0.000223	2.229712	0.755447	-0.000089
 841	8.3580e+01	6.5260	24.392374	0.000213	2.128362	0.721108	-0.000085
 842	8.3680e+01	6.4843	24.234926	0.000395	3.952671	1.339201	-0.000158
 843	8.3779e+01	6.4474	24.093626	0.000355	3.547269	1.201847	-0.000142
 844	8.3879e+01	6.4089	23.968475	0.000314	3.141867	1.064493	-0.000126
 845	8.3978e+01	6.3736	23.815064	0.000385	3.851321	1.304863	-0.000154
 846	8.4078e+01	6.3335	23.702024	0.000284	2.837815	0.961478	-0.000114
 847	8.4177e+01	6.2934	23.588984	0.000284	2.837815	0.961478	-0.000114
 848	8.4276e+01	6.2501	23.451722	0.000345	3.445919	1.167509	-0.000138
 849	8.4376e+01	6.2068	23.294273	0.000395	3.952671	1.339201	-0.000158
 850	8.4475e+01	6.1715	23.181233	0.000284	2.837815	0.961478	-0.000114
 851	8.4575e+01	6.1394	23.068194	0.000284	2.837815	0.961478	-0.000114
 852	8.4674e+01	6.0977	22.914782	0.000385	3.851321	1.304863	-0.000154
 853	8.4774e+01	6.0512	22.825965	0.000223	2.229712	0.755447	-0.000089
 854	8.4874e+01	6.0111	22.656406	0.000426	4.256723	1.442217	-0.000170
 855	8.4973e+01	5.9661	22.490883	0.000416	4.155373	1.407878	-0.000166
 856	8.5073e+01	5.9405	22.434363	0.000142	1.418908	0.480739	-0.000057
 857	8.5172e+01	5.8940	22.252692	0.000456	4.560775	1.545232	-0.000183
 858	8.5272e+01	5.8490	22.167912	0.000213	2.128362	0.721108	-0.000085
 859	8.5371e+01	5.8137	21.990278	0.000446	4.459424	1.510894	-0.000179
 860	8.5471e+01	5.7736	21.881276	0.000274	2.736465	0.927139	-0.000110
 861	8.5570e+01	5.7287	21.719790	0.000405	4.054022	1.373540	-0.000162
 862	8.5669e+01	5.6966	21.602713	0.000294	2.939166	0.995816	-0.000118
 863	8.5769e+01	5.6565	21.449302	0.000385	3.851321	1.304863	-0.000154
 864	8.5868e+01	5.6180	21.320114	0.000324	3.243218	1.098832	-0.000130
 865	8.5968e+01	5.5715	21.186888	0.000334	3.344568	1.133170	-0.000134
 866	8.6067e+01	5.5394	21.089997	0.000243	2.432413	0.824124	-0.000097
 867	8.6167e+01	5.4945	20.952734	0.000345	3.445919	1.167509	-0.000138
 868	8.6266e+01	5.4528	20.811435	0.000355	3.547269	1.201847	-0.000142
 869	8.6366e+01	5.4175	20.666098	0.000365	3.648620	1.236186	-0.000146
 870	8.6466e+01	5.3742	20.484427	0.000456	4.560775	1.545232	-0.000183
 871	8.6565e+01	5.3389	20.403684	0.000203	2.027011	0.686770	-0.000081
 872	8.6665e+01	5.2924	20.274496	0.000324	3.243218	1.098832	-0.000130
 873	8.6764e+01	5.2507	20.092825	0.000456	4.560775	1.545232	-0.000183
 874	8.6864e+01	5.2122	19.959599	0.000334	3.344568	1.133170	-0.000134
 875	8.6963e+01	5.1720	19.822336	0.000345	3.445919	1.167509	-0.000138
 876	8.7063e+01	5.1368	19.705260	0.000294	2.939166	0.995816	-0.000118
 877	8.7162e+01	5.0950	19.563960	0.000355	3.547269	1.201847	-0.000142
 878	8.7261e+01	5.0517	19.410549	0.000385	3.851321	1.304863	-0.000154
 879	8.7361e+01	5.0180	19.269249	0.000355	3.547269	1.201847	-0.000142
 880	8.7460e+01	4.9811	19.123912	0.000365	3.648620	1.236186	-0.000146
 881	8.7560e+01	4.9362	18.986649	0.000345	3.445919	1.167509	-0.000138
 882	8.7659e+01	4.8913	18.889758	0.000243	2.432413	0.824124	-0.000097
 883	8.7759e+01	4.8576	18.740384	0.000375	3.749970	1.270524	-0.000150
 884	8.7859e+01	4.8175	18.619270	0.000304	3.040516	1.030155	-0.000122
 885	8.7958e+01	4.7774	18.449710	0.000426	4.256723	1.442217	-0.000170
 886	8.8058e+01	4.7261	18.344745	0.000264	2.635114	0.892801	-0.000105
 887	8.8157e+01	4.6924	18.179222	0.000416	4.155373	1.407878	-0.000166
 888	8.8257e+01	4.6571	18.062145	0.000294	2.939166	0.995816	-0.000118
 889	8.8356e+01	4.6138	17.961217	0.000253	2.533764	0.858462	-0.000101
 890	8.8456e+01	4.5769	17.803769	0.000395	3.952671	1.339201	-0.000158
 891	8.8555e+01	4.5432	17.678617	0.000314	3.141867	1.064493	-0.000126
 892	8.8654e+01	4.4967	17.545392	0.000334	3.344568	1.133170	-0.000134
 893	8.8754e+01	4.4566	17.400055	0.000365	3.648620	1.236186	-0.000146
 894	8.8853e+01	4.4116	17.230495	0.000426	4.256723	1.442217	-0.000170
 895	8.8953e+01	4.3780	17.077084	0.000385	3.851321	1.304863	-0.000154
 896	8.9052e+01	4.3411	16.976156	0.000253	2.533764	0.858462	-0.000101
 897	8.9152e+01	4.3026	16.887339	0.000223	2.229712	0.755447	-0.000089
 898	8.9251e+01	4.2576	16.721816	0.000416	4.155373	1.407878	-0.000166
 899	8.9351e+01	4.2111	16.556294	0.000416	4.155373	1.407878	-0.000166
 900	8.9451e+01	4.1774	16.447291	0.000274	2.736465	0.927139	-0.000110
 901	8.9550e+01	4.1421	16.322140	0.000314	3.141867	1.064493	-0.000126
 902	8.9650e+01	4.0972	16.116246	0.000517	5.168878	1.751263	-0.000207
 903	8.9749e+01	4.0587	16.055689	0.000152	1.520258	0.515077	-0.000061
 904	8.9849e+01	4.0154	15.906315	0.000375	3.749970	1.270524	-0.000150
 905	8.9948e+01	3.9625	15.769052	0.000345	3.445919	1.167509	-0.000138
 906	9.0047e+01	3.9336	15.643901	0.000314	3.141867	1.064493	-0.000126
 907	9.0147e+01	3.9015	15.474341	0.000426	4.256723	1.442217	-0.000170
 908	9.0246e+01	3.8582	15.349190	0.000314	3.141867	1.064493	-0.000126
 909	9.0346e+01	3.8245	15.183668	0.000416	4.155373	1.407878	-0.000166
 910	9.0445e+01	3.7764	15.062553	0.000304	3.040516	1.030155	-0.000122
 911	9.0545e+01	3.7395	14.965662	0.000243	2.432413	0.824124	-0.000097
 912	9.0644e+01	3.6962	14.747657	0.000547	5.472930	1.854279	-0.000219
 913	9.0744e+01	3.6673	14.626543	0.000304	3.040516	1.030155	-0.000122
 914	9.0844e+01	3.6208	14.505429	0.000304	3.040516	1.030155	-0.000122
 915	9.0943e+01	3.5758	14.352018	0.000385	3.851321	1.304863	-0.000154
 916	9.1043e+01	3.5470	14.206681	0.000365	3.648620	1.236186	-0.000146
 917	9.1142e+01	3.5020	14.057307	0.000375	3.749970	1.270524	-0.000150
 918	9.1242e+01	3.4539	13.936193	0.000304	3.040516	1.030155	-0.000122
 919	9.1341e+01	3.4186	13.802967	0.000334	3.344568	1.133170	-0.000134
 920	9.1441e+01	3.3849	13.637445	0.000416	4.155373	1.407878	-0.000166
 921	9.1540e+01	3.3400	13.524405	0.000284	2.837815	0.961478	-0.000114
 922	9.1639e+01	3.2999	13.346771	0.000446	4.459424	1.510894	-0.000179
 923	9.1739e+01	3.2614	13.213545	0.000334	3.344568	1.133170	-0.000134
 924	9.1838e+01	3.2229	13.092431	0.000304	3.040516	1.030155	-0.000122
 925	9.1938e+01	3.1844	12.947094	0.000365	3.648620	1.236186	-0.000146
 926	9.2037e+01	3.1411	12.757349	0.000476	4.763476	1.613909	-0.000191
 927	9.2137e+01	3.1106	12.660458	0.000243	2.432413	0.824124	-0.000097
 928	9.2237e+01	3.0609	12.531269	0.000324	3.243218	1.098832	-0.000130
 929	9.2336e+01	3.0192	12.337487	0.000486	4.864826	1.648248	-0.000195
 930	9.2436e+01	2.9791	12.180039	0.000395	3.952671	1.339201	-0.000158
 931	9.2535e+01	2.9422	12.054887	0.000314	3.141867	1.064493	-0.000126
 932	9.2635e+01	2.9101	11.957996	0.000243	2.432413	0.824124	-0.000097
 933	9.2734e+01	2.8636	11.768251	0.000476	4.763476	1.613909	-0.000191
 934	9.2834e+01	2.8186	11.610802	0.000395	3.952671	1.339201	-0.000158
 935	9.2933e+01	2.7866	11.505837	0.000264	2.635114	0.892801	-0.000105
 936	9.3032e+01	2.7497	11.360500	0.000365	3.648620	1.236186	-0.000146
 937	9.3132e+01	2.7047	11.182866	0.000446	4.459424	1.510894	-0.000179
 938	9.3231e+01	2.6614	11.033492	0.000375	3.749970	1.270524	-0.000150
 939	9.3331e+01	2.6261	10.916415	0.000294	2.939166	0.995816	-0.000118
 940	9.3430e+01	2.5892	10.742818	0.000436	4.358074	1.476555	-0.000174
 941	9.3530e+01	2.5443	10.629778	0.000284	2.837815	0.961478	-0.000114
 942	9.3629e+01	2.5058	10.460219	0.000426	4.256723	1.442217	-0.000170
 943	9.3729e+01	2.4641	10.347179	0.000284	2.837815	0.961478	-0.000114
 944	9.3829e+01	2.4320	10.173582	0.000436	4.358074	1.476555	-0.000174
 945	9.3928e+01	2.3791	10.048431	0.000314	3.141867	1.064493	-0.000126
 946	9.4028e+01	2.3454	9.911168	0.000345	3.445919	1.167509	-0.000138
 947	9.4127e+01	2.3021	9.749683	0.000405	4.054022	1.373540	-0.000162
 948	9.4227e+01	2.2780	9.588197	0.000405	4.054022	1.373540	-0.000162
 949	9.4326e+01	2.2235	9.471120	0.000294	2.939166	0.995816	-0.000118
 950	9.4425e+01	2.1882	9.301561	0.000426	4.256723	1.442217	-0.000170
 951	9.4525e+01	2.1417	9.144112	0.000395	3.952671	1.339201	-0.000158
 952	9.4624e+01	2.1031	8.994738	0.000375	3.749970	1.270524	-0.000150
 953	9.4724e+01	2.0630	8.869587	0.000314	3.141867	1.064493	-0.000126
 954	9.4823e+01	2.0245	8.732325	0.000345	3.445919	1.167509	-0.000138
 955	9.4923e+01	1.9844	8.562765	0.000426	4.256723	1.442217	-0.000170
 956	9.5022e+01	1.9475	8.397242	0.000416	4.155373	1.407878	-0.000166
 957	9.5122e+01	1.9042	8.268054	0.000324	3.243218	1.098832	-0.000130
 958	9.5222e+01	1.8657	8.126754	0.000355	3.547269	1.201847	-0.000142
 959	9.5321e+01	1.8208	7.953157	0.000436	4.358074	1.476555	-0.000174
 960	9.5421e+01	1.7887	7.828006	0.000314	3.141867	1.064493	-0.000126
 961	9.5520e+01	1.7518	7.682669	0.000365	3.648620	1.236186	-0.000146
 962	9.5620e+01	1.7117	7.505035	0.000446	4.459424	1.510894	-0.000179
 963	9.5719e+01	1.6732	7.379884	0.000314	3.141867	1.064493	-0.000126
 964	9.5819e+01	1.6267	7.230510	0.000375	3.749970	1.270524	-0.000150
 965	9.5918e+01	1.5866	7.064988	0.000416	4.155373	1.407878	-0.000166
 966	9.6017e+01	1.5497	6.955985	0.000274	2.736465	0.927139	-0.000110
 967	9.6117e+01	1.5112	6.762202	0.000486	4.864826	1.648248	-0.000195
 968	9.6216e+01	1.4775	6.584568	0.000446	4.459424	1.510894	-0.000179
 969	9.6316e+01	1.4294	6.459417	0.000314	3.141867	1.064493	-0.000126
 970	9.6415e+01	1.3861	6.318117	0.000355	3.547269	1.201847	-0.000142
 971	9.6515e+01	1.3492	6.164706	0.000385	3.851321	1.304863	-0.000154
 972	9.6615e+01	1.3091	5.991109	0.000436	4.358074	1.476555	-0.000174
 973	9.6714e+01	1.2754	5.898255	0.000233	2.331063	0.789785	-0.000093
 974	9.6814e+01	1.2256	5.672176	0.000568	5.675631	1.922956	-0.000227
 975	9.6913e+01	1.2016	5.534913	0.000345	3.445919	1.167509	-0.000138
 976	9.7013e+01	1.1438	5.385539	0.000375	3.749970	1.270524	-0.000150
 977	9.7112e+01	1.1101	5.207905	0.000446	4.459424	1.510894	-0.000179
 978	9.7212e+01	1.0748	5.086791	0.000304	3.040516	1.030155	-0.000122
 979	9.7311e+01	1.0331	4.901083	0.000466	4.662125	1.579571	-0.000187
 980	9.7410e+01	0.9898	4.784006	0.000294	2.939166	0.995816	-0.000118
 981	9.7510e+01	0.9513	4.614446	0.000426	4.256723	1.442217	-0.000170
 982	9.7609e+01	0.9176	4.444886	0.000426	4.256723	1.442217	-0.000170
 983	9.7709e+01	0.8711	4.291475	0.000385	3.851321	1.304863	-0.000154
 984	9.7808e+01	0.8278	4.182473	0.000274	2.736465	0.927139	-0.000110
 985	9.7908e+01	0.7957	3.976579	0.000517	5.168878	1.751263	-0.000207
 986	9.8007e+01	0.7476	3.847390	0.000324	3.243218	1.098832	-0.000130
 987	9.8107e+01	0.7091	3.645534	0.000507	5.067527	1.716925	-0.000203
 988	9.8207e+01	0.6738	3.508271	0.000345	3.445919	1.167509	-0.000138
 989	9.8306e+01	0.6289	3.379083	0.000324	3.243218	1.098832	-0.000130
 990	9.8406e+01	0.5855	3.185300	0.000486	4.864826	1.648248	-0.000195
 991	9.8505e+01	0.5519	3.048037	0.000345	3.445919	1.167509	-0.000138
 992	9.8605e+01	0.5166	2.910775	0.000345	3.445919	1.167509	-0.000138
 993	9.8704e+01	0.4668	2.761401	0.000375	3.749970	1.270524	-0.000150
 994	9.8803e+01	0.4428	2.595878	0.000416	4.155373	1.407878	-0.000166
 995	9.8903e+01	0.3898	2.414207	0.000456	4.560775	1.545232	-0.000183
 996	9.9002e+01	0.3626	2.240610	0.000436	4.358074	1.476555	-0.000174
 997	9.9102e+01	0.3176	2.107385	0.000334	3.344568	1.133170	-0.000134
 998	9.9201e+01	0.2727	1.966085	0.000355	3.547269	1.201847	-0.000142
 999	9.9301e+01	0.2230	1.780377	0.000466	4.662125	1.579571	-0.000187
1000	9.9400e+01	0.1925	1.622929	0.000395	3.952671	1.339201	-0.000158
1001	9.9500e+01	0.1652	1.473555	0.000375	3.749970	1.270524	-0.000150
1002	9.9600e+01	0.1139	1.348403	0.000314	3.141867	1.064493	-0.000126
1003	9.9699e+01	0.0738	1.162695	0.000466	4.662125	1.579571	-0.000187
1004	9.9799e+01	0.0353	1.005247	0.000395	3.952671	1.339201	-0.000158
1005	9.9898e+01	0.0048	0.912393	0.000233	2.331063	0.789785	-0.000093
1006	9.9998e+01	-0.0321	0.726684	0.000466	4.662125	1.579571	-0.000187
1007	1.0010e+02	-0.0754	0.520791	0.000517	5.168878	1.751263	-0.000207
1008	1.0020e+02	-0.1139	0.399676	0.000304	3.040516	1.030155	-0.000122
1009	1.0030e+02	-0.1556	0.282600	0.000294	2.939166	0.995816	-0.000118
1010	1.0040e+02	-0.2005	0.088817	0.000486	4.864826	1.648248	-0.000195
1011	1.0050e+02	-0.2390	-0.072668	0.000405	4.054022	1.373540	-0.000162
1012	1.0059e+02	-0.2888	-0.242228	0.000426	4.256723	1.442217	-0.000170
1013	1.0069e+02	-0.3064	-0.411788	0.000426	4.256723	1.442217	-0.000170
1014	1.0079e+02	-0.3626	-0.520791	0.000274	2.736465	0.927139	-0.000110
1015	1.0089e+02	-0.3898	-0.722647	0.000507	5.067527	1.716925	-0.000203
1016	1.0099e+02	-0.4347	-0.859910	0.000345	3.445919	1.167509	-0.000138
1017	1.0109e+02	-0.4813	-0.981024	0.000304	3.040516	1.030155	-0.000122
1018	1.0119e+02	-0.5118	-1.162695	0.000456	4.560775	1.545232	-0.000183
1019	1.0129e+02	-0.5599	-1.283809	0.000304	3.040516	1.030155	-0.000122
1020	1.0139e+02	-0.5968	-1.497777	0.000537	5.371579	1.819940	-0.000215
1021	1.0149e+02	-0.6401	-1.635040	0.000345	3.445919	1.167509	-0.000138
1022	1.0159e+02	-0.6706	-1.804600	0.000426	4.256723	1.442217	-0.000170
1023	1.0169e+02	-0.7203	-1.962048	0.000395	3.952671	1.339201	-0.000158
1024	1.0179e+02	-0.7620	-2.131608	0.000426	4.256723	1.442217	-0.000170
1025	1.0189e+02	-0.7941	-2.244647	0.000284	2.837815	0.961478	-0.000114
1026	1.0199e+02	-0.8438	-2.446504	0.000507	5.067527	1.716925	-0.000203
1027	1.0209e+02	-0.8727	-2.591841	0.000365	3.648620	1.236186	-0.000146
1028	1.0219e+02	-0.9128	-2.737178	0.000365	3.648620	1.236186	-0.000146
1029	1.0229e+02	-0.9625	-2.914812	0.000446	4.459424	1.510894	-0.000179
1030	1.0239e+02	-0.9946	-3.100520	0.000466	4.662125	1.579571	-0.000187
1031	1.0248e+02	-1.0331	-3.233746	0.000334	3.344568	1.133170	-0.000134
1032	1.0258e+02	-1.0700	-3.358897	0.000314	3.141867	1.064493	-0.000126
1033	1.0268e+02	-1.1214	-3.568828	0.000527	5.270229	1.785602	-0.000211
1034	1.0278e+02	-1.1583	-3.673794	0.000264	2.635114	0.892801	-0.000105
1035	1.0288e+02	-1.2000	-3.839316	0.000416	4.155373	1.407878	-0.000166
1036	1.0298e+02	-1.2353	-3.988690	0.000375	3.749970	1.270524	-0.000150
1037	1.0308e+02	-1.2754	-4.158250	0.000426	4.256723	1.442217	-0.000170
1038	1.0318e+02	-1.3091	-4.279364	0.000304	3.040516	1.030155	-0.000122
1039	1.0328e+02	-1.3540	-4.501406	0.000557	5.574280	1.888617	-0.000223
1040	1.0338e+02	-1.4021	-4.654818	0.000385	3.851321	1.304863	-0.000154
1041	1.0348e+02	-1.4342	-4.800154	0.000365	3.648620	1.236186	-0.000146
1042	1.0358e+02	-1.4679	-4.993937	0.000486	4.864826	1.648248	-0.000195
1043	1.0368e+02	-1.5192	-5.094865	0.000253	2.533764	0.858462	-0.000101
1044	1.0378e+02	-1.5529	-5.296722	0.000507	5.067527	1.716925	-0.000203
1045	1.0388e+02	-1.5914	-5.425910	0.000324	3.243218	1.098832	-0.000130
1046	1.0398e+02	-1.6283	-5.595470	0.000426	4.256723	1.442217	-0.000170
1047	1.0408e+02	-1.6844	-5.736770	0.000355	3.547269	1.201847	-0.000142
1048	1.0418e+02	-1.7101	-5.918441	0.000456	4.560775	1.545232	-0.000183
1049	1.0428e+02	-1.7550	-6.027444	0.000274	2.736465	0.927139	-0.000110
1050	1.0438e+02	-1.7903	-6.192966	0.000416	4.155373	1.407878	-0.000166
1051	1.0447e+02	-1.8288	-6.382712	0.000476	4.763476	1.613909	-0.000191
1052	1.0457e+02	-1.8737	-6.552271	0.000426	4.256723	1.442217	-0.000170
1053	1.0467e+02	-1.9155	-6.681460	0.000324	3.243218	1.098832	-0.000130
1054	1.0477e+02	-1.9507	-6.834871	0.000385	3.851321	1.304863	-0.000154
1055	1.0487e+02	-1.9909	-6.976171	0.000355	3.547269	1.201847	-0.000142
1056	1.0497e+02	-2.0294	-7.129582	0.000385	3.851321	1.304863	-0.000154
1057	1.0507e+02	-2.0727	-7.299141	0.000426	4.256723	1.442217	-0.000170
1058	1.0517e+02	-2.1064	-7.452553	0.000385	3.851321	1.304863	-0.000154
1059	1.0527e+02	-2.1577	-7.605964	0.000385	3.851321	1.304863	-0.000154
1060	1.0537e+02	-2.1914	-7.767449	0.000405	4.054022	1.373540	-0.000162
1061	1.0547e+02	-2.2347	-7.941046	0.000436	4.358074	1.476555	-0.000174
1062	1.0557e+02	-2.2668	-8.037937	0.000243	2.432413	0.824124	-0.000097
1063	1.0567e+02	-2.3197	-8.223645	0.000466	4.662125	1.579571	-0.000187
1064	1.0577e+02	-2.3486	-8.385131	0.000405	4.054022	1.373540	-0.000162
1065	1.0587e+02	-2.3935	-8.490096	0.000264	2.635114	0.892801	-0.000105
1066	1.0597e+02	-2.4304	-8.659656	0.000426	4.256723	1.442217	-0.000170
1067	1.0607e+02	-2.4721	-8.784807	0.000314	3.141867	1.064493	-0.000126
1068	1.0617e+02	-2.5090	-8.942256	0.000395	3.952671	1.339201	-0.000158
1069	1.0627e+02	-2.5427	-9.123927	0.000456	4.560775	1.545232	-0.000183
1070	1.0637e+02	-2.5956	-9.228892	0.000264	2.635114	0.892801	-0.000105
1071	1.0647e+02	-2.6277	-9.390378	0.000405	4.054022	1.373540	-0.000162
1072	1.0656e+02	-2.6694	-9.588197	0.000497	4.966177	1.682586	-0.000199
1073	1.0666e+02	-2.7015	-9.685089	0.000243	2.432413	0.824124	-0.000097
1074	1.0676e+02	-2.7481	-9.858685	0.000436	4.358074	1.476555	-0.000174
1075	1.0686e+02	-2.7898	-10.032282	0.000436	4.358074	1.476555	-0.000174
1076	1.0696e+02	-2.8283	-10.153396	0.000304	3.040516	1.030155	-0.000122
1077	1.0706e+02	-2.8668	-10.262399	0.000274	2.736465	0.927139	-0.000110
1078	1.0716e+02	-2.9085	-10.423884	0.000405	4.054022	1.373540	-0.000162
1079	1.0726e+02	-2.9470	-10.593444	0.000426	4.256723	1.442217	-0.000170
1080	1.0736e+02	-2.9903	-10.738781	0.000365	3.648620	1.236186	-0.000146
1081	1.0746e+02	-3.0352	-10.944675	0.000517	5.168878	1.751263	-0.000207
1082	1.0756e+02	-3.0609	-11.061752	0.000294	2.939166	0.995816	-0.000118
1083	1.0766e+02	-3.1010	-11.211126	0.000375	3.749970	1.270524	-0.000150
1084	1.0776e+02	-3.1491	-11.344351	0.000334	3.344568	1.133170	-0.000134
1085	1.0786e+02	-3.1828	-11.554282	0.000527	5.270229	1.785602	-0.000211
1086	1.0796e+02	-3.2309	-11.643099	0.000223	2.229712	0.755447	-0.000089
1087	1.0806e+02	-3.2630	-11.760176	0.000294	2.939166	0.995816	-0.000118
1088	1.0816e+02	-3.3047	-11.941848	0.000456	4.560775	1.545232	-0.000183
1089	1.0826e+02	-3.3448	-12.066999	0.000314	3.141867	1.064493	-0.000126
1090	1.0836e+02	-3.3833	-12.208298	0.000355	3.547269	1.201847	-0.000142
1091	1.0845e+02	-3.4202	-12.381895	0.000436	4.358074	1.476555	-0.000174
1092	1.0855e+02	-3.4684	-12.519158	0.000345	3.445919	1.167509	-0.000138
1093	1.0865e+02	-3.5052	-12.656421	0.000345	3.445919	1.167509	-0.000138
1094	1.0875e+02	-3.5438	-12.830017	0.000436	4.358074	1.476555	-0.000174
1095	1.0885e+02	-3.5823	-12.951131	0.000304	3.040516	1.030155	-0.000122
1096	1.0895e+02	-3.6224	-13.124728	0.000436	4.358074	1.476555	-0.000174
1097	1.0905e+02	-3.6657	-13.233731	0.000274	2.736465	0.927139	-0.000110
1098	1.0915e+02	-3.7026	-13.366956	0.000334	3.344568	1.133170	-0.000134
1099	1.0925e+02	-3.7395	-13.524405	0.000395	3.952671	1.339201	-0.000158
1100	1.0935e+02	-3.7860	-13.702039	0.000446	4.459424	1.510894	-0.000179
1101	1.0945e+02	-3.8277	-13.831227	0.000324	3.243218	1.098832	-0.000130
1102	1.0955e+02	-3.8678	-13.988675	0.000395	3.952671	1.339201	-0.000158
1103	1.0965e+02	-3.8951	-14.101715	0.000284	2.837815	0.961478	-0.000114
1104	1.0975e+02	-3.9464	-14.255126	0.000385	3.851321	1.304863	-0.000154
1105	1.0985e+02	-3.9817	-14.416612	0.000405	4.054022	1.373540	-0.000162
1106	1.0995e+02	-4.0202	-14.509466	0.000233	2.331063	0.789785	-0.000093
1107	1.1005e+02	-4.0651	-14.666914	0.000395	3.952671	1.339201	-0.000158
1108	1.1015e+02	-4.1036	-14.836474	0.000426	4.256723	1.442217	-0.000170
1109	1.1025e+02	-4.1389	-14.989885	0.000385	3.851321	1.304863	-0.000154
1110	1.1035e+02	-4.1790	-15.127148	0.000345	3.445919	1.167509	-0.000138
1111	1.1044e+02	-4.2175	-15.268447	0.000355	3.547269	1.201847	-0.000142
1112	1.1054e+02	-4.2657	-15.405710	0.000345	3.445919	1.167509	-0.000138
1113	1.1064e+02	-4.2993	-15.518750	0.000284	2.837815	0.961478	-0.000114
1114	1.1074e+02	-4.3411	-15.688309	0.000426	4.256723	1.442217	-0.000170
1115	1.1084e+02	-4.3860	-15.805386	0.000294	2.939166	0.995816	-0.000118
1116	1.1094e+02	-4.4277	-15.987058	0.000456	4.560775	1.545232	-0.000183
1117	1.1104e+02	-4.4630	-16.047615	0.000152	1.520258	0.515077	-0.000061
1118	1.1114e+02	-4.5015	-16.213137	0.000416	4.155373	1.407878	-0.000166
1119	1.1124e+02	-4.5432	-16.362511	0.000375	3.749970	1.270524	-0.000150
1120	1.1134e+02	-4.5785	-16.507848	0.000365	3.648620	1.236186	-0.000146
1121	1.1144e+02	-4.6250	-16.657222	0.000375	3.749970	1.270524	-0.000150
1122	1.1154e+02	-4.6667	-16.774299	0.000294	2.939166	0.995816	-0.000118
1123	1.1164e+02	-4.7004	-16.927710	0.000385	3.851321	1.304863	-0.000154
1124	1.1174e+02	-4.7405	-17.060936	0.000334	3.344568	1.133170	-0.000134
1125	1.1184e+02	-4.7806	-17.214347	0.000385	3.851321	1.304863	-0.000154
1126	1.1194e+02	-4.8319	-17.335461	0.000304	3.040516	1.030155	-0.000122
1127	1.1204e+02	-4.8560	-17.464649	0.000324	3.243218	1.098832	-0.000130
1128	1.1214e+02	-4.8929	-17.605949	0.000355	3.547269	1.201847	-0.000142
1129	1.1224e+02	-4.9410	-17.731100	0.000314	3.141867	1.064493	-0.000126
1130	1.1234e+02	-4.9747	-17.880474	0.000375	3.749970	1.270524	-0.000150
1131	1.1244e+02	-5.0196	-17.997551	0.000294	2.939166	0.995816	-0.000118
1132	1.1253e+02	-5.0630	-18.171148	0.000436	4.358074	1.476555	-0.000174
1133	1.1263e+02	-5.0983	-18.320522	0.000375	3.749970	1.270524	-0.000150
1134	1.1273e+02	-5.1496	-18.441636	0.000304	3.040516	1.030155	-0.000122
1135	1.1283e+02	-5.1801	-18.542564	0.000253	2.533764	0.858462	-0.000101
1136	1.1293e+02	-5.2105	-18.732310	0.000476	4.763476	1.613909	-0.000191
1137	1.1303e+02	-5.2667	-18.829201	0.000243	2.432413	0.824124	-0.000097
1138	1.1313e+02	-5.2956	-18.946278	0.000294	2.939166	0.995816	-0.000118
1139	1.1323e+02	-5.3357	-19.095652	0.000375	3.749970	1.270524	-0.000150
1140	1.1333e+02	-5.3742	-19.216766	0.000304	3.040516	1.030155	-0.000122
1141	1.1343e+02	-5.4207	-19.358066	0.000355	3.547269	1.201847	-0.000142
1142	1.1353e+02	-5.4592	-19.527626	0.000426	4.256723	1.442217	-0.000170
1143	1.1363e+02	-5.4897	-19.693148	0.000416	4.155373	1.407878	-0.000166
1144	1.1373e+02	-5.5378	-19.802151	0.000274	2.736465	0.927139	-0.000110
1145	1.1383e+02	-5.5843	-19.947488	0.000365	3.648620	1.236186	-0.000146
1146	1.1393e+02	-5.6116	-20.100899	0.000385	3.851321	1.304863	-0.000154
1147	1.1403e+02	-5.6517	-20.234124	0.000334	3.344568	1.133170	-0.000134
1148	1.1413e+02	-5.6998	-20.359276	0.000314	3.141867	1.064493	-0.000126
1149	1.1423e+02	-5.7399	-20.488464	0.000324	3.243218	1.098832	-0.000130
1150	1.1433e+02	-5.7704	-20.621689	0.000334	3.344568	1.133170	-0.000134
1151	1.1442e+02	-5.8137	-20.775101	0.000385	3.851321	1.304863	-0.000154
1152	1.1452e+02	-5.8554	-20.896215	0.000304	3.040516	1.030155	-0.000122
1153	1.1462e+02	-5.8972	-21.061737	0.000416	4.155373	1.407878	-0.000166
1154	1.1472e+02	-5.9357	-21.154591	0.000233	2.331063	0.789785	-0.000093
1155	1.1482e+02	-5.9710	-21.271668	0.000294	2.939166	0.995816	-0.000118
1156	1.1492e+02	-6.0095	-21.429116	0.000395	3.952671	1.339201	-0.000158
1157	1.1502e+02	-6.0624	-21.566379	0.000345	3.445919	1.167509	-0.000138
1158	1.1512e+02	-6.0977	-21.711716	0.000365	3.648620	1.236186	-0.000146
1159	1.1522e+02	-6.1346	-21.832830	0.000304	3.040516	1.030155	-0.000122
1160	1.1532e+02	-6.1763	-21.953944	0.000304	3.040516	1.030155	-0.000122
1161	1.1542e+02	-6.2148	-22.099281	0.000365	3.648620	1.236186	-0.000146
1162	1.1552e+02	-6.2533	-22.196172	0.000243	2.432413	0.824124	-0.000097
1163	1.1562e+02	-6.2950	-22.341509	0.000365	3.648620	1.236186	-0.000146
1164	1.1572e+02	-6.3319	-22.466660	0.000314	3.141867	1.064493	-0.000126
1165	1.1582e+02	-6.3816	-22.607960	0.000355	3.547269	1.201847	-0.000142
1166	1.1592e+02	-6.4089	-22.745223	0.000345	3.445919	1.167509	-0.000138
1167	1.1602e+02	-6.4506	-22.862300	0.000294	2.939166	0.995816	-0.000118
1168	1.1612e+02	-6.4987	-23.003599	0.000355	3.547269	1.201847	-0.000142
1169	1.1622e+02	-6.5292	-23.140862	0.000345	3.445919	1.167509	-0.000138
1170	1.1632e+02	-6.5758	-23.274088	0.000334	3.344568	1.133170	-0.000134
1171	1.1642e+02	-6.6014	-23.383090	0.000274	2.736465	0.927139	-0.000110
1172	1.1651e+02	-6.6495	-23.532464	0.000375	3.749970	1.270524	-0.000150
1173	1.1661e+02	-6.6961	-23.637430	0.000264	2.635114	0.892801	-0.000105
1174	1.1671e+02	-6.7346	-23.778729	0.000355	3.547269	1.201847	-0.000142
1175	1.1681e+02	-6.7667	-23.932141	0.000385	3.851321	1.304863	-0.000154
1176	1.1691e+02	-6.8180	-24.020958	0.000223	2.229712	0.755447	-0.000089
1177	1.1701e+02	-6.8453	-24.162257	0.000355	3.547269	1.201847	-0.000142
1178	1.1711e+02	-6.8902	-24.331817	0.000426	4.256723	1.442217	-0.000170
1179	1.1721e+02	-6.9239	-24.432745	0.000253	2.533764	0.858462	-0.000101
1180	1.1731e+02	-6.9752	-24.529637	0.000243	2.432413	0.824124	-0.000097
1181	1.1741e+02	-7.0121	-24.630565	0.000253	2.533764	0.858462	-0.000101
1182	1.1751e+02	-7.0426	-24.759753	0.000324	3.243218	1.098832	-0.000130
1183	1.1761e+02	-7.0811	-24.921239	0.000405	4.054022	1.373540	-0.000162
1184	1.1771e+02	-7.1228	-25.058502	0.000345	3.445919	1.167509	-0.000138
1185	1.1781e+02	-7.1757	-25.203838	0.000365	3.648620	1.236186	-0.000146
1186	1.1791e+02	-7.2062	-25.284581	0.000203	2.027011	0.686770	-0.000081
1187	1.1801e+02	-7.2463	-25.433955	0.000375	3.749970	1.270524	-0.000150
1188	1.1811e+02	-7.2864	-25.591403	0.000395	3.952671	1.339201	-0.000158
1189	1.1821e+02	-7.3201	-25.672146	0.000203	2.027011	0.686770	-0.000081
1190	1.1831e+02	-7.3747	-25.817483	0.000365	3.648620	1.236186	-0.000146
1191	1.1841e+02	-7.3987	-25.983006	0.000416	4.155373	1.407878	-0.000166
1192	1.1850e+02	-7.4468	-26.100083	0.000294	2.939166	0.995816	-0.000118
1193	1.1860e+02	-7.4886	-26.217159	0.000294	2.939166	0.995816	-0.000118
1194	1.1870e+02	-7.5271	-26.310014	0.000233	2.331063	0.789785	-0.000093
1195	1.1880e+02	-7.5720	-26.447276	0.000345	3.445919	1.167509	-0.000138
1196	1.1890e+02	-7.6153	-26.552242	0.000264	2.635114	0.892801	-0.000105
1197	1.1900e+02	-7.6538	-26.669319	0.000294	2.939166	0.995816	-0.000118
1198	1.1910e+02	-7.6891	-26.830804	0.000405	4.054022	1.373540	-0.000162
1199	1.1920e+02	-7.7276	-26.959992	0.000324	3.243218	1.098832	-0.000130
1200	1.1930e+02	-7.7677	-27.085144	0.000314	3.141867	1.064493	-0.000126
1201	1.1940e+02	-7.8158	-27.177998	0.000233	2.331063	0.789785	-0.000093
1202	1.1950e+02	-7.8495	-27.319298	0.000355	3.547269	1.201847	-0.000142
1203	1.1960e+02	-7.8896	-27.468672	0.000375	3.749970	1.270524	-0.000150
1204	1.1970e+02	-7.9281	-27.537303	0.000172	1.722959	0.583754	-0.000069
1205	1.1980e+02	-7.9634	-27.698788	0.000405	4.054022	1.373540	-0.000162
1206	1.1990e+02	-8.0067	-27.852199	0.000385	3.851321	1.304863	-0.000154
1207	1.2000e+02	-8.0516	-27.928905	0.000193	1.925660	0.652431	-0.000077
1208	1.2010e+02	-8.0901	-28.029833	0.000253	2.533764	0.858462	-0.000101
1209	1.2020e+02	-8.1303	-28.159022	0.000324	3.243218	1.098832	-0.000130
1210	1.2030e+02	-8.1591	-28.324544	0.000416	4.155373	1.407878	-0.000166
1211	1.2039e+02	-8.2024	-28.421436	0.000243	2.432413	0.824124	-0.000097
1212	1.2049e+02	-8.2345	-28.578884	0.000395	3.952671	1.339201	-0.000158
1213	1.2059e+02	-8.2778	-28.695961	0.000294	2.939166	0.995816	-0.000118
1214	1.2069e+02	-8.3388	-28.817075	0.000304	3.040516	1.030155	-0.000122
1215	1.2079e+02	-8.3548	-28.938189	0.000304	3.040516	1.030155	-0.000122
1216	1.2089e+02	-8.4110	-29.107749	0.000426	4.256723	1.442217	-0.000170
1217	1.2099e+02	-8.4415	-29.172343	0.000162	1.621609	0.549416	-0.000065
1218	1.2109e+02	-8.4848	-29.345940	0.000436	4.358074	1.476555	-0.000174
1219	1.2119e+02	-8.5265	-29.422645	0.000193	1.925660	0.652431	-0.000077
1220	1.2129e+02	-8.5586	-29.576056	0.000385	3.851321	1.304863	-0.000154
1221	1.2139e+02	-8.6099	-29.685059	0.000274	2.736465	0.927139	-0.000110
1222	1.2149e+02	-8.6452	-29.777913	0.000233	2.331063	0.789785	-0.000093
1223	1.2159e+02	-8.6853	-29.931324	0.000385	3.851321	1.304863	-0.000154
1224	1.2169e+02	-8.7190	-30.024178	0.000233	2.331063	0.789785	-0.000093
1225	1.2179e+02	-8.7543	-30.133181	0.000274	2.736465	0.927139	-0.000110
1226	1.2189e+02	-8.8056	-30.262369	0.000324	3.243218	1.098832	-0.000130
1227	1.2199e+02	-8.8345	-30.379446	0.000294	2.939166	0.995816	-0.000118
1228	1.2209e+02	-8.8826	-30.476338	0.000243	2.432413	0.824124	-0.000097
1229	1.2219e+02	-8.9276	-30.629749	0.000385	3.851321	1.304863	-0.000154
1230	1.2229e+02	-8.9628	-30.726640	0.000243	2.432413	0.824124	-0.000097
1231	1.2239e+02	-8.9981	-30.843717	0.000294	2.939166	0.995816	-0.000118
1232	1.2248e+02	-9.0479	-30.972905	0.000324	3.243218	1.098832	-0.000130
1233	1.2258e+02	-9.0816	-31.094019	0.000304	3.040516	1.030155	-0.000122
1234	1.2268e+02	-9.1265	-31.170725	0.000193	1.925660	0.652431	-0.000077
1235	1.2278e+02	-9.1570	-31.287802	0.000294	2.939166	0.995816	-0.000118
1236	1.2288e+02	-9.2019	-31.400842	0.000284	2.837815	0.961478	-0.000114
1237	1.2298e+02	-9.2340	-31.550216	0.000375	3.749970	1.270524	-0.000150
1238	1.2308e+02	-9.2885	-31.639033	0.000223	2.229712	0.755447	-0.000089
1239	1.2318e+02	-9.3142	-31.768221	0.000324	3.243218	1.098832	-0.000130
1240	1.2328e+02	-9.3559	-31.917595	0.000375	3.749970	1.270524	-0.000150
1241	1.2338e+02	-9.4072	-32.014486	0.000243	2.432413	0.824124	-0.000097
1242	1.2348e+02	-9.4489	-32.111378	0.000243	2.432413	0.824124	-0.000097
1243	1.2358e+02	-9.4762	-32.244603	0.000334	3.344568	1.133170	-0.000134
1244	1.2368e+02	-9.5243	-32.373791	0.000324	3.243218	1.098832	-0.000130
1245	1.2378e+02	-9.5644	-32.462608	0.000223	2.229712	0.755447	-0.000089
1246	1.2388e+02	-9.5949	-32.591797	0.000324	3.243218	1.098832	-0.000130
1247	1.2398e+02	-9.6495	-32.712911	0.000304	3.040516	1.030155	-0.000122
1248	1.2408e+02	-9.6783	-32.854211	0.000355	3.547269	1.201847	-0.000142
1249	1.2418e+02	-9.7233	-32.947065	0.000233	2.331063	0.789785	-0.000093
1250	1.2428e+02	-9.7602	-33.047993	0.000253	2.533764	0.858462	-0.000101
1251	1.2438e+02	-9.8051	-33.173144	0.000314	3.141867	1.064493	-0.000126
1252	1.2447e+02	-9.8339	-33.282147	0.000274	2.736465	0.927139	-0.000110
1253	1.2457e+02	-9.8741	-33.399224	0.000294	2.939166	0.995816	-0.000118
1254	1.2467e+02	-9.9158	-33.512264	0.000284	2.837815	0.961478	-0.000114
1255	1.2477e+02	-9.9559	-33.629341	0.000294	2.939166	0.995816	-0.000118
1256	1.2487e+02	-10.0024	-33.710083	0.000203	2.027011	0.686770	-0.000081
1257	1.2497e+02	-10.0313	-33.879643	0.000426	4.256723	1.442217	-0.000170
1258	1.2507e+02	-10.0762	-33.972497	0.000233	2.331063	0.789785	-0.000093
1259	1.2517e+02	-10.1115	-34.113797	0.000355	3.547269	1.201847	-0.000142
1260	1.2527e+02	-10.1564	-34.202614	0.000223	2.229712	0.755447	-0.000089
1261	1.2537e+02	-10.2045	-34.331802	0.000324	3.243218	1.098832	-0.000130
1262	1.2547e+02	-10.2382	-34.469065	0.000345	3.445919	1.167509	-0.000138
1263	1.2557e+02	-10.2703	-34.529622	0.000152	1.520258	0.515077	-0.000061
1264	1.2567e+02	-10.3168	-34.703219	0.000436	4.358074	1.476555	-0.000174
1265	1.2577e+02	-10.3553	-34.783962	0.000203	2.027011	0.686770	-0.000081
1266	1.2587e+02	-10.3938	-34.901038	0.000294	2.939166	0.995816	-0.000118
1267	1.2597e+02	-10.4307	-35.010041	0.000274	2.736465	0.927139	-0.000110
1268	1.2607e+02	-10.4756	-35.098858	0.000223	2.229712	0.755447	-0.000089
1269	1.2617e+02	-10.5157	-35.248232	0.000375	3.749970	1.270524	-0.000150
1270	1.2627e+02	-10.5526	-35.337049	0.000223	2.229712	0.755447	-0.000089
1271	1.2636e+02	-10.5976	-35.454126	0.000294	2.939166	0.995816	-0.000118
1272	1.2646e+02	-10.6313	-35.607537	0.000385	3.851321	1.304863	-0.000154
1273	1.2656e+02	-10.6698	-35.696354	0.000223	2.229712	0.755447	-0.000089
1274	1.2666e+02	-10.7179	-35.833617	0.000345	3.445919	1.167509	-0.000138
1275	1.2676e+02	-10.7548	-35.918397	0.000213	2.128362	0.721108	-0.000085
1276	1.2686e+02	-10.7965	-36.023362	0.000264	2.635114	0.892801	-0.000105
1277	1.2696e+02	-10.8382	-36.104105	0.000203	2.027011	0.686770	-0.000081
1278	1.2706e+02	-10.8783	-36.277702	0.000436	4.358074	1.476555	-0.000174
1279	1.2716e+02	-10.9136	-36.382667	0.000264	2.635114	0.892801	-0.000105
1280	1.2726e+02	-10.9569	-36.487633	0.000264	2.635114	0.892801	-0.000105
1281	1.2736e+02	-10.9890	-36.604710	0.000294	2.939166	0.995816	-0.000118
1282	1.2746e+02	-11.0403	-36.721787	0.000294	2.939166	0.995816	-0.000118
1283	1.2756e+02	-11.0804	-36.798492	0.000193	1.925660	0.652431	-0.000077
1284	1.2766e+02	-11.1109	-36.935755	0.000345	3.445919	1.167509	-0.000138
1285	1.2776e+02	-11.1494	-37.036683	0.000253	2.533764	0.858462	-0.000101
1286	1.2786e+02	-11.1863	-37.157797	0.000304	3.040516	1.030155	-0.000122
1287	1.2796e+02	-11.2328	-37.262763	0.000264	2.635114	0.892801	-0.000105
1288	1.2806e+02	-11.2778	-37.335431	0.000182	1.824310	0.618093	-0.000073
1289	1.2816e+02	-11.3098	-37.492880	0.000395	3.952671	1.339201	-0.000158
1290	1.2826e+02	-11.3516	-37.593808	0.000253	2.533764	0.858462	-0.000101
1291	1.2835e+02	-11.3933	-37.706848	0.000284	2.837815	0.961478	-0.000114
1292	1.2845e+02	-11.4350	-37.799702	0.000233	2.331063	0.789785	-0.000093
1293	1.2855e+02	-11.4751	-37.916779	0.000294	2.939166	0.995816	-0.000118
1294	1.2865e+02	-11.5136	-38.025782	0.000274	2.736465	0.927139	-0.000110
1295	1.2875e+02	-11.5537	-38.114599	0.000223	2.229712	0.755447	-0.000089
1296	1.2885e+02	-11.5986	-38.231675	0.000294	2.939166	0.995816	-0.000118
1297	1.2895e+02	-11.6275	-38.316455	0.000213	2.128362	0.721108	-0.000085
1298	1.2905e+02	-11.6724	-38.441606	0.000314	3.141867	1.064493	-0.000126
1299	1.2915e+02	-11.7061	-38.534461	0.000233	2.331063	0.789785	-0.000093
1300	1.2925e+02	-11.7430	-38.687872	0.000385	3.851321	1.304863	-0.000154
1301	1.2935e+02	-11.7927	-38.808986	0.000304	3.040516	1.030155	-0.000122
1302	1.2945e+02	-11.8264	-38.889729	0.000203	2.027011	0.686770	-0.000081
1303	1.2955e+02	-11.8713	-39.018917	0.000324	3.243218	1.098832	-0.000130
1304	1.2965e+02	-11.9098	-39.144068	0.000314	3.141867	1.064493	-0.000126
1305	1.2975e+02	-11.9483	-39.228848	0.000213	2.128362	0.721108	-0.000085
1306	1.2985e+02	-11.9948	-39.317665	0.000223	2.229712	0.755447	-0.000089
1307	1.2995e+02	-12.0366	-39.471076	0.000385	3.851321	1.304863	-0.000154
1308	1.3005e+02	-12.0654	-39.600264	0.000324	3.243218	1.098832	-0.000130
1309	1.3015e+02	-12.1136	-39.664859	0.000162	1.621609	0.549416	-0.000065
1310	1.3025e+02	-12.1440	-39.798084	0.000334	3.344568	1.133170	-0.000134
1311	1.3034e+02	-12.1906	-39.915161	0.000294	2.939166	0.995816	-0.000118
1312	1.3044e+02	-12.2307	-40.016089	0.000253	2.533764	0.858462	-0.000101
1313	1.3054e+02	-12.2644	-40.096832	0.000203	2.027011	0.686770	-0.000081
1314	1.3064e+02	-12.3141	-40.197761	0.000253	2.533764	0.858462	-0.000101
1315	1.3074e+02	-12.3542	-40.343097	0.000365	3.648620	1.236186	-0.000146
1316	1.3084e+02	-12.3895	-40.476323	0.000334	3.344568	1.133170	-0.000134
1317	1.3094e+02	-12.4296	-40.553028	0.000193	1.925660	0.652431	-0.000077
1318	1.3104e+02	-12.4697	-40.653957	0.000253	2.533764	0.858462	-0.000101
1319	1.3114e+02	-12.5018	-40.766997	0.000284	2.837815	0.961478	-0.000114
1320	1.3124e+02	-12.5563	-40.880036	0.000284	2.837815	0.961478	-0.000114
1321	1.3134e+02	-12.5836	-41.009225	0.000324	3.243218	1.098832	-0.000130
1322	1.3144e+02	-12.6269	-41.098042	0.000223	2.229712	0.755447	-0.000089
1323	1.3154e+02	-12.6686	-41.247416	0.000375	3.749970	1.270524	-0.000150
1324	1.3164e+02	-12.7039	-41.312010	0.000162	1.621609	0.549416	-0.000065
1325	1.3174e+02	-12.7472	-41.433124	0.000304	3.040516	1.030155	-0.000122
1326	1.3184e+02	-12.7809	-41.558275	0.000314	3.141867	1.064493	-0.000126
1327	1.3194e+02	-12.8323	-41.606721	0.000122	1.216207	0.412062	-0.000049
1328	1.3204e+02	-12.8708	-41.739946	0.000334	3.344568	1.133170	-0.000134
1329	1.3214e+02	-12.9028	-41.869135	0.000324	3.243218	1.098832	-0.000130
1330	1.3224e+02	-12.9478	-41.961989	0.000233	2.331063	0.789785	-0.000093
1331	1.3234e+02	-12.9831	-42.079066	0.000294	2.939166	0.995816	-0.000118
1332	1.3243e+02	-13.0200	-42.147697	0.000172	1.722959	0.583754	-0.000069
1333	1.3253e+02	-13.0665	-42.288997	0.000355	3.547269	1.201847	-0.000142
1334	1.3263e+02	-13.1034	-42.389925	0.000253	2.533764	0.858462	-0.000101
1335	1.3273e+02	-13.1451	-42.482779	0.000233	2.331063	0.789785	-0.000093
1336	1.3283e+02	-13.1804	-42.628116	0.000365	3.648620	1.236186	-0.000146
1337	1.3293e+02	-13.2269	-42.696748	0.000172	1.722959	0.583754	-0.000069
1338	1.3303e+02	-13.2670	-42.817862	0.000304	3.040516	1.030155	-0.000122
1339	1.3313e+02	-13.3103	-42.934939	0.000294	2.939166	0.995816	-0.000118
1340	1.3323e+02	-13.3408	-43.003570	0.000172	1.722959	0.583754	-0.000069
1341	1.3333e+02	-13.3793	-43.161018	0.000395	3.952671	1.339201	-0.000158
1342	1.3343e+02	-13.4130	-43.257909	0.000243	2.432413	0.824124	-0.000097
1343	1.3353e+02	-13.4627	-43.362875	0.000264	2.635114	0.892801	-0.000105
1344	1.3363e+02	-13.5044	-43.431506	0.000172	1.722959	0.583754	-0.000069
1345	1.3373e+02	-13.5397	-43.576843	0.000365	3.648620	1.236186	-0.000146
1346	1.3383e+02	-13.5846	-43.661623	0.000213	2.128362	0.721108	-0.000085
1347	1.3393e+02	-13.6215	-43.774663	0.000284	2.837815	0.961478	-0.000114
1348	1.3403e+02	-13.6681	-43.843294	0.000172	1.722959	0.583754	-0.000069
1349	1.3413e+02	-13.7050	-43.960371	0.000294	2.939166	0.995816	-0.000118
1350	1.3423e+02	-13.7435	-44.077448	0.000294	2.939166	0.995816	-0.000118
1351	1.3432e+02	-13.7868	-44.198562	0.000304	3.040516	1.030155	-0.000122
1352	1.3442e+02	-13.8173	-44.271231	0.000182	1.824310	0.618093	-0.000073
1353	1.3452e+02	-13.8638	-44.400419	0.000324	3.243218	1.098832	-0.000130
1354	1.3462e+02	-13.9039	-44.465013	0.000162	1.621609	0.549416	-0.000065
1355	1.3472e+02	-13.9520	-44.610350	0.000365	3.648620	1.236186	-0.000146
1356	1.3482e+02	-13.9857	-44.703204	0.000233	2.331063	0.789785	-0.000093
1357	1.3492e+02	-14.0274	-44.787984	0.000213	2.128362	0.721108	-0.000085
1358	1.3502e+02	-14.0643	-44.925246	0.000345	3.445919	1.167509	-0.000138
1359	1.3512e+02	-14.1060	-44.993878	0.000172	1.722959	0.583754	-0.000069
1360	1.3522e+02	-14.1413	-45.123066	0.000324	3.243218	1.098832	-0.000130
1361	1.3532e+02	-14.1862	-45.219957	0.000243	2.432413	0.824124	-0.000097
1362	1.3542e+02	-14.2247	-45.308774	0.000223	2.229712	0.755447	-0.000089
1363	1.3552e+02	-14.2600	-45.417777	0.000274	2.736465	0.927139	-0.000110
1364	1.3562e+02	-14.3017	-45.567151	0.000375	3.749970	1.270524	-0.000150
1365	1.3572e+02	-14.3418	-45.635782	0.000172	1.722959	0.583754	-0.000069
1366	1.3582e+02	-14.3819	-45.744785	0.000274	2.736465	0.927139	-0.000110
1367	1.3592e+02	-14.4188	-45.829565	0.000213	2.128362	0.721108	-0.000085
1368	1.3602e+02	-14.4525	-45.930493	0.000253	2.533764	0.858462	-0.000101
1369	1.3612e+02	-14.4991	-46.063719	0.000334	3.344568	1.133170	-0.000134
1370	1.3622e+02	-14.5424	-46.152536	0.000223	2.229712	0.755447	-0.000089
1371	1.3631e+02	-14.5761	-46.273650	0.000304	3.040516	1.030155	-0.000122
1372	1.3641e+02	-14.6178	-46.330170	0.000142	1.418908	0.480739	-0.000057
1373	1.3651e+02	-14.6563	-46.503767	0.000436	4.358074	1.476555	-0.000174
1374	1.3661e+02	-14.6980	-46.592584	0.000223	2.229712	0.755447	-0.000089
1375	1.3671e+02	-14.7429	-46.685438	0.000233	2.331063	0.789785	-0.000093
1376	1.3681e+02	-14.7798	-46.745995	0.000152	1.520258	0.515077	-0.000061
1377	1.3691e+02	-14.8215	-46.863072	0.000294	2.939166	0.995816	-0.000118
1378	1.3701e+02	-14.8616	-46.992260	0.000324	3.243218	1.098832	-0.000130
1379	1.3711e+02	-14.8985	-47.085114	0.000233	2.331063	0.789785	-0.000093
1380	1.3721e+02	-14.9338	-47.177968	0.000233	2.331063	0.789785	-0.000093
1381	1.3731e+02	-14.9739	-47.303119	0.000314	3.141867	1.064493	-0.000126
1382	1.3741e+02	-15.0172	-47.395974	0.000233	2.331063	0.789785	-0.000093
1383	1.3751e+02	-15.0621	-47.504976	0.000274	2.736465	0.927139	-0.000110
1384	1.3761e+02	-15.1103	-47.609942	0.000264	2.635114	0.892801	-0.000105
1385	1.3771e+02	-15.1407	-47.722982	0.000284	2.837815	0.961478	-0.000114
1386	1.3781e+02	-15.1809	-47.755279	0.000081	0.810804	0.274708	-0.000032
1387	1.3791e+02	-15.2161	-47.864281	0.000274	2.736465	0.927139	-0.000110
1388	1.3801e+02	-15.2627	-47.965210	0.000253	2.533764	0.858462	-0.000101
1389	1.3811e+02	-15.3012	-48.078250	0.000284	2.837815	0.961478	-0.000114
1390	1.3821e+02	-15.3365	-48.163029	0.000213	2.128362	0.721108	-0.000085
1391	1.3831e+02	-15.3766	-48.207438	0.000111	1.114856	0.377723	-0.000045
1392	1.3840e+02	-15.4215	-48.397183	0.000476	4.763476	1.613909	-0.000191
1393	1.3850e+02	-15.4536	-48.457740	0.000152	1.520258	0.515077	-0.000061
1394	1.3860e+02	-15.5049	-48.566743	0.000274	2.736465	0.927139	-0.000110
1395	1.3870e+02	-15.5290	-48.671708	0.000264	2.635114	0.892801	-0.000105
1396	1.3880e+02	-15.5707	-48.772637	0.000253	2.533764	0.858462	-0.000101
1397	1.3890e+02	-15.6204	-48.841268	0.000172	1.722959	0.583754	-0.000069
1398	1.3900e+02	-15.6573	-48.966419	0.000314	3.141867	1.064493	-0.000126
1399	1.3910e+02	-15.7070	-49.063311	0.000243	2.432413	0.824124	-0.000097
1400	1.3920e+02	-15.7407	-49.144053	0.000203	2.027011	0.686770	-0.000081
1401	1.3930e+02	-15.7744	-49.257093	0.000284	2.837815	0.961478	-0.000114
1402	1.3940e+02	-15.8017	-49.329762	0.000182	1.824310	0.618093	-0.000073
1403	1.3950e+02	-15.8610	-49.462987	0.000334	3.344568	1.133170	-0.000134
1404	1.3960e+02	-15.8851	-49.576027	0.000284	2.837815	0.961478	-0.000114
1405	1.3970e+02	-15.9332	-49.644658	0.000172	1.722959	0.583754	-0.000069
1406	1.3980e+02	-15.9733	-49.737512	0.000233	2.331063	0.789785	-0.000093
1407	1.3990e+02	-16.0183	-49.842478	0.000264	2.635114	0.892801	-0.000105
1408	1.4000e+02	-16.0487	-49.907072	0.000162	1.621609	0.549416	-0.000065
1409	1.4010e+02	-16.0969	-50.036260	0.000324	3.243218	1.098832	-0.000130
1410	1.4020e+02	-16.1322	-50.096817	0.000152	1.520258	0.515077	-0.000061
1411	1.4029e+02	-16.1642	-50.234080	0.000345	3.445919	1.167509	-0.000138
1412	1.4039e+02	-16.2092	-50.322897	0.000223	2.229712	0.755447	-0.000089
1413	1.4049e+02	-16.2605	-50.427863	0.000264	2.635114	0.892801	-0.000105
1414	1.4059e+02	-16.2910	-50.496494	0.000172	1.722959	0.583754	-0.000069
1415	1.4069e+02	-16.3327	-50.617608	0.000304	3.040516	1.030155	-0.000122
1416	1.4079e+02	-16.3712	-50.718536	0.000253	2.533764	0.858462	-0.000101
1417	1.4089e+02	-16.4001	-50.827539	0.000274	2.736465	0.927139	-0.000110
1418	1.4099e+02	-16.4482	-50.940579	0.000284	2.837815	0.961478	-0.000114
1419	1.4109e+02	-16.4883	-50.980950	0.000101	1.013505	0.343385	-0.000041
1420	1.4119e+02	-16.5236	-51.098027	0.000294	2.939166	0.995816	-0.000118
1421	1.4129e+02	-16.5749	-51.166658	0.000172	1.722959	0.583754	-0.000069
1422	1.4139e+02	-16.6102	-51.316032	0.000375	3.749970	1.270524	-0.000150
1423	1.4149e+02	-16.6567	-51.404849	0.000223	2.229712	0.755447	-0.000089
1424	1.4159e+02	-16.6953	-51.501741	0.000243	2.432413	0.824124	-0.000097
1425	1.4169e+02	-16.7289	-51.582483	0.000203	2.027011	0.686770	-0.000081
1426	1.4179e+02	-16.7674	-51.679375	0.000243	2.432413	0.824124	-0.000097
1427	1.4189e+02	-16.8140	-51.792414	0.000284	2.837815	0.961478	-0.000114
1428	1.4199e+02	-16.8589	-51.877194	0.000213	2.128362	0.721108	-0.000085
1429	1.4209e+02	-16.8846	-51.990234	0.000284	2.837815	0.961478	-0.000114
1430	1.4219e+02	-16.9263	-52.058865	0.000172	1.722959	0.583754	-0.000069
1431	1.4228e+02	-16.9760	-52.139608	0.000203	2.027011	0.686770	-0.000081
1432	1.4238e+02	-17.0129	-52.256685	0.000294	2.939166	0.995816	-0.000118
1433	1.4248e+02	-17.0466	-52.357613	0.000253	2.533764	0.858462	-0.000101
1434	1.4258e+02	-17.0883	-52.438356	0.000203	2.027011	0.686770	-0.000081
1435	1.4268e+02	-17.1252	-52.547359	0.000274	2.736465	0.927139	-0.000110
1436	1.4278e+02	-17.1701	-52.680584	0.000334	3.344568	1.133170	-0.000134
1437	1.4288e+02	-17.2150	-52.737104	0.000142	1.418908	0.480739	-0.000057
1438	1.4298e+02	-17.2599	-52.850144	0.000284	2.837815	0.961478	-0.000114
1439	1.4308e+02	-17.2904	-52.898590	0.000122	1.216207	0.412062	-0.000049
1440	1.4318e+02	-17.3257	-53.064112	0.000416	4.155373	1.407878	-0.000166
1441	1.4328e+02	-17.3770	-53.144855	0.000203	2.027011	0.686770	-0.000081
1442	1.4338e+02	-17.4075	-53.265969	0.000304	3.040516	1.030155	-0.000122
1443	1.4348e+02	-17.4460	-53.338637	0.000182	1.824310	0.618093	-0.000073
1444	1.4358e+02	-17.4910	-53.439566	0.000253	2.533764	0.858462	-0.000101
1445	1.4368e+02	-17.5230	-53.548568	0.000274	2.736465	0.927139	-0.000110
1446	1.4378e+02	-17.5712	-53.613163	0.000162	1.621609	0.549416	-0.000065
1447	1.4388e+02	-17.6241	-53.742351	0.000324	3.243218	1.098832	-0.000130
1448	1.4398e+02	-17.6466	-53.827131	0.000213	2.128362	0.721108	-0.000085
1449	1.4408e+02	-17.6883	-53.928059	0.000253	2.533764	0.858462	-0.000101
1450	1.4418e+02	-17.7348	-53.976505	0.000122	1.216207	0.412062	-0.000049
1451	1.4428e+02	-17.7685	-54.073396	0.000243	2.432413	0.824124	-0.000097
1452	1.4437e+02	-17.8038	-54.182399	0.000274	2.736465	0.927139	-0.000110
1453	1.4447e+02	-17.8471	-54.287364	0.000264	2.635114	0.892801	-0.000105
1454	1.4457e+02	-17.8824	-54.372144	0.000213	2.128362	0.721108	-0.000085
1455	1.4467e+02	-17.9225	-54.493258	0.000304	3.040516	1.030155	-0.000122
1456	1.4477e+02	-17.9578	-54.537667	0.000111	1.114856	0.377723	-0.000045
1457	1.4487e+02	-18.0107	-54.666855	0.000324	3.243218	1.098832	-0.000130
1458	1.4497e+02	-18.0460	-54.751635	0.000213	2.128362	0.721108	-0.000085
1459	1.4507e+02	-18.0941	-54.884860	0.000334	3.344568	1.133170	-0.000134
1460	1.4517e+02	-18.1214	-54.977714	0.000233	2.331063	0.789785	-0.000093
1461	1.4527e+02	-18.1727	-55.050383	0.000182	1.824310	0.618093	-0.000073
1462	1.4537e+02	-18.2113	-55.143237	0.000233	2.331063	0.789785	-0.000093
1463	1.4547e+02	-18.2449	-55.219943	0.000193	1.925660	0.652431	-0.000077
1464	1.4557e+02	-18.2834	-55.345094	0.000314	3.141867	1.064493	-0.000126
1465	1.4567e+02	-18.3252	-55.433911	0.000223	2.229712	0.755447	-0.000089
1466	1.4577e+02	-18.3653	-55.498505	0.000162	1.621609	0.549416	-0.000065
1467	1.4587e+02	-18.3989	-55.635768	0.000345	3.445919	1.167509	-0.000138
1468	1.4597e+02	-18.4423	-55.716510	0.000203	2.027011	0.686770	-0.000081
1469	1.4607e+02	-18.4808	-55.809364	0.000233	2.331063	0.789785	-0.000093
1470	1.4617e+02	-18.5241	-55.926441	0.000294	2.939166	0.995816	-0.000118
1471	1.4626e+02	-18.5690	-56.027370	0.000253	2.533764	0.858462	-0.000101
1472	1.4636e+02	-18.6075	-56.128298	0.000253	2.533764	0.858462	-0.000101
1473	1.4646e+02	-18.6396	-56.188855	0.000152	1.520258	0.515077	-0.000061
1474	1.4656e+02	-18.6797	-56.305932	0.000294	2.939166	0.995816	-0.000118
1475	1.4666e+02	-18.7230	-56.398786	0.000233	2.331063	0.789785	-0.000093
1476	1.4676e+02	-18.7599	-56.552197	0.000385	3.851321	1.304863	-0.000154
1477	1.4686e+02	-18.8096	-56.580457	0.000071	0.709454	0.240369	-0.000028
1478	1.4696e+02	-18.8401	-56.681386	0.000253	2.533764	0.858462	-0.000101
1479	1.4706e+02	-18.8770	-56.798463	0.000294	2.939166	0.995816	-0.000118
1480	1.4716e+02	-18.9235	-56.879205	0.000203	2.027011	0.686770	-0.000081
1481	1.4726e+02	-18.9652	-57.004357	0.000314	3.141867	1.064493	-0.000126
1482	1.4736e+02	-19.0021	-57.093174	0.000223	2.229712	0.755447	-0.000089
1483	1.4746e+02	-19.0406	-57.210251	0.000294	2.939166	0.995816	-0.000118
1484	1.4756e+02	-19.0904	-57.295030	0.000213	2.128362	0.721108	-0.000085
1485	1.4766e+02	-19.1225	-57.408070	0.000284	2.837815	0.961478	-0.000114
1486	1.4776e+02	-19.1658	-57.504961	0.000243	2.432413	0.824124	-0.000097
1487	1.4786e+02	-19.2011	-57.597816	0.000233	2.331063	0.789785	-0.000093
1488	1.4796e+02	-19.2396	-57.698744	0.000253	2.533764	0.858462	-0.000101
1489	1.4806e+02	-19.2845	-57.799672	0.000253	2.533764	0.858462	-0.000101
1490	1.4816e+02	-19.3230	-57.880415	0.000203	2.027011	0.686770	-0.000081
1491	1.4825e+02	-19.3679	-57.961158	0.000203	2.027011	0.686770	-0.000081
1492	1.4835e+02	-19.3968	-58.106495	0.000365	3.648620	1.236186	-0.000146
1493	1.4845e+02	-19.4353	-58.183200	0.000193	1.925660	0.652431	-0.000077
1494	1.4855e+02	-19.4690	-58.292203	0.000274	2.736465	0.927139	-0.000110
1495	1.4865e+02	-19.5203	-58.356797	0.000162	1.621609	0.549416	-0.000065
1496	1.4875e+02	-19.5572	-58.465800	0.000274	2.736465	0.927139	-0.000110
1497	1.4885e+02	-19.6150	-58.558654	0.000233	2.331063	0.789785	-0.000093
1498	1.4895e+02	-19.6342	-58.728214	0.000426	4.256723	1.442217	-0.000170
1499	1.4905e+02	-19.6743	-58.760511	0.000081	0.810804	0.274708	-0.000032
1500	1.4915e+02	-19.7176	-58.853365	0.000233	2.331063	0.789785	-0.000093
1501	1.4925e+02	-19.7625	-58.958330	0.000264	2.635114	0.892801	-0.000105
1502	1.4935e+02	-19.7978	-59.063296	0.000264	2.635114	0.892801	-0.000105
1503	1.4945e+02	-19.8412	-59.140001	0.000193	1.925660	0.652431	-0.000077
1504	1.4955e+02	-19.8748	-59.285338	0.000365	3.648620	1.236186	-0.000146
1505	1.4965e+02	-19.9198	-59.382230	0.000243	2.432413	0.824124	-0.000097
1506	1.4975e+02	-19.9615	-59.422601	0.000101	1.013505	0.343385	-0.000041
1507	1.4985e+02	-20.0016	-59.539678	0.000294	2.939166	0.995816	-0.000118
1508	1.4995e+02	-19.9502	-59.503344	0.000091	0.912155	0.309046	0.000037
1509	1.5005e+02	-19.9149	-59.438749	0.000162	1.621609	0.549416	0.000065
1510	1.5015e+02	-19.8716	-59.426638	0.000030	0.304052	0.103015	0.000012
1511	1.5025e+02	-19.8379	-59.345895	0.000203	2.027011	0.686770	0.000081
1512	1.5034e+02	-19.8059	-59.232856	0.000284	2.837815	0.961478	0.000114
1513	1.5044e+02	-19.7625	-59.216707	0.000041	0.405402	0.137354	0.000016
1514	1.5054e+02	-19.7144	-59.103667	0.000284	2.837815	0.961478	0.000114
1515	1.5064e+02	-19.6743	-59.083482	0.000051	0.506753	0.171692	0.000020
1516	1.5074e+02	-19.6422	-58.962367	0.000304	3.040516	1.030155	0.000122
1517	1.5084e+02	-19.5989	-58.930070	0.000081	0.810804	0.274708	0.000032
1518	1.5094e+02	-19.5588	-58.849328	0.000203	2.027011	0.686770	0.000081
1519	1.5104e+02	-19.5219	-58.796845	0.000132	1.317557	0.446400	0.000053
1520	1.5114e+02	-19.4770	-58.752436	0.000111	1.114856	0.377723	0.000045
1521	1.5124e+02	-19.4433	-58.659582	0.000233	2.331063	0.789785	0.000093
1522	1.5134e+02	-19.4032	-58.615174	0.000111	1.114856	0.377723	0.000045
1523	1.5144e+02	-19.3615	-58.526357	0.000223	2.229712	0.755447	0.000089
1524	1.5154e+02	-19.3230	-58.465800	0.000152	1.520258	0.515077	0.000061
1525	1.5164e+02	-19.2765	-58.356797	0.000274	2.736465	0.927139	0.000110
1526	1.5174e+02	-19.2348	-58.328537	0.000071	0.709454	0.240369	0.000028
1527	1.5184e+02	-19.2059	-58.267980	0.000152	1.520258	0.515077	0.000061
1528	1.5194e+02	-19.1626	-58.175126	0.000233	2.331063	0.789785	0.000093
1529	1.5204e+02	-19.1241	-58.098420	0.000193	1.925660	0.652431	0.000077
1530	1.5214e+02	-19.0904	-58.005566	0.000233	2.331063	0.789785	0.000093
1531	1.5224e+02	-19.0406	-57.961158	0.000111	1.114856	0.377723	0.000045
1532	1.5233e+02	-19.0086	-57.856192	0.000264	2.635114	0.892801	0.000105
1533	1.5243e+02	-18.9765	-57.799672	0.000142	1.418908	0.480739	0.000057
1534	1.5253e+02	-18.9348	-57.722967	0.000193	1.925660	0.652431	0.000077
1535	1.5263e+02	-18.8850	-57.666447	0.000142	1.418908	0.480739	0.000057
1536	1.5273e+02	-18.8465	-57.573593	0.000233	2.331063	0.789785	0.000093
1537	1.5283e+02	-18.8080	-57.488813	0.000213	2.128362	0.721108	0.000085
1538	1.5293e+02	-18.7535	-57.424219	0.000162	1.621609	0.549416	0.000065
1539	1.5303e+02	-18.7262	-57.303105	0.000304	3.040516	1.030155	0.000122
1540	1.5313e+02	-18.6797	-57.303105	0.000000	0.000000	0.000000	0.000000
1541	1.5323e+02	-18.6428	-57.194102	0.000274	2.736465	0.927139	0.000110
1542	1.5333e+02	-18.6011	-57.125471	0.000172	1.722959	0.583754	0.000069
1543	1.5343e+02	-18.5690	-57.052802	0.000182	1.824310	0.618093	0.000073
1544	1.5353e+02	-18.5273	-56.943800	0.000274	2.736465	0.927139	0.000110
1545	1.5363e+02	-18.4824	-56.891317	0.000132	1.317557	0.446400	0.000053
1546	1.5373e+02	-18.4455	-56.854983	0.000091	0.912155	0.309046	0.000037
1547	1.5383e+02	-18.4006	-56.733869	0.000304	3.040516	1.030155	0.000122
1548	1.5393e+02	-18.3669	-56.665237	0.000172	1.722959	0.583754	0.000069
1549	1.5403e+02	-18.3300	-56.604680	0.000152	1.520258	0.515077	0.000061
1550	1.5413e+02	-18.2802	-56.576420	0.000071	0.709454	0.240369	0.000028
1551	1.5422e+02	-18.2481	-56.463380	0.000284	2.837815	0.961478	0.000114
1552	1.5432e+02	-18.2048	-56.410898	0.000132	1.317557	0.446400	0.000053
1553	1.5442e+02	-18.1615	-56.297858	0.000284	2.837815	0.961478	0.000114
1554	1.5452e+02	-18.1262	-56.225189	0.000182	1.824310	0.618093	0.000073
1555	1.5462e+02	-18.0861	-56.112150	0.000284	2.837815	0.961478	0.000114
1556	1.5472e+02	-18.0444	-56.055630	0.000142	1.418908	0.480739	0.000057
1557	1.5482e+02	-18.0059	-56.003147	0.000132	1.317557	0.446400	0.000053
1558	1.5492e+02	-17.9642	-55.877996	0.000314	3.141867	1.064493	0.000126
1559	1.5502e+02	-17.9241	-55.813402	0.000162	1.621609	0.549416	0.000065
1560	1.5512e+02	-17.8824	-55.692288	0.000304	3.040516	1.030155	0.000122
1561	1.5522e+02	-17.8471	-55.676139	0.000041	0.405402	0.137354	0.000016
1562	1.5532e+02	-17.8054	-55.583285	0.000233	2.331063	0.789785	0.000093
1563	1.5542e+02	-17.7605	-55.490431	0.000233	2.331063	0.789785	0.000093
1564	1.5552e+02	-17.7220	-55.373354	0.000294	2.939166	0.995816	0.000118
1565	1.5562e+02	-17.6867	-55.308760	0.000162	1.621609	0.549416	0.000065
1566	1.5572e+02	-17.6450	-55.240128	0.000172	1.722959	0.583754	0.000069
1567	1.5582e+02	-17.6081	-55.199757	0.000101	1.013505	0.343385	0.000041
1568	1.5592e+02	-17.5647	-55.062494	0.000345	3.445919	1.167509	0.000138
1569	1.5602e+02	-17.5359	-54.989826	0.000182	1.824310	0.618093	0.000073
1570	1.5612e+02	-17.4877	-54.876786	0.000284	2.837815	0.961478	0.000114
1571	1.5622e+02	-17.4428	-54.824303	0.000132	1.317557	0.446400	0.000053
1572	1.5631e+02	-17.4075	-54.743561	0.000203	2.027011	0.686770	0.000081
1573	1.5641e+02	-17.3658	-54.626484	0.000294	2.939166	0.995816	0.000118
1574	1.5651e+02	-17.3321	-54.561889	0.000162	1.621609	0.549416	0.000065
1575	1.5661e+02	-17.2888	-54.505370	0.000142	1.418908	0.480739	0.000057
1576	1.5671e+02	-17.2519	-54.388293	0.000294	2.939166	0.995816	0.000118
1577	1.5681e+02	-17.2150	-54.303513	0.000213	2.128362	0.721108	0.000085
1578	1.5691e+02	-17.1781	-54.267179	0.000091	0.912155	0.309046	0.000037
1579	1.5701e+02	-17.1316	-54.129916	0.000345	3.445919	1.167509	0.000138
1580	1.5711e+02	-17.0899	-54.101656	0.000071	0.709454	0.240369	0.000028
1581	1.5721e+02	-17.0546	-53.984579	0.000294	2.939166	0.995816	0.000118
1582	1.5731e+02	-17.0065	-53.907874	0.000193	1.925660	0.652431	0.000077
1583	1.5741e+02	-16.9744	-53.815019	0.000233	2.331063	0.789785	0.000093
1584	1.5751e+02	-16.9327	-53.750425	0.000162	1.621609	0.549416	0.000065
1585	1.5761e+02	-16.8926	-53.613163	0.000345	3.445919	1.167509	0.000138
1586	1.5771e+02	-16.8557	-53.552606	0.000152	1.520258	0.515077	0.000061
1587	1.5781e+02	-16.8075	-53.455714	0.000243	2.432413	0.824124	0.000097
1588	1.5791e+02	-16.7674	-53.379009	0.000193	1.925660	0.652431	0.000077
1589	1.5801e+02	-16.7354	-53.346712	0.000081	0.810804	0.274708	0.000032
1590	1.5811e+02	-16.6920	-53.225598	0.000304	3.040516	1.030155	0.000122
1591	1.5821e+02	-16.6535	-53.177152	0.000122	1.216207	0.412062	0.000049
1592	1.5830e+02	-16.6199	-53.064112	0.000284	2.837815	0.961478	0.000114
1593	1.5840e+02	-16.5781	-53.019704	0.000111	1.114856	0.377723	0.000045
1594	1.5850e+02	-16.5268	-52.866292	0.000385	3.851321	1.304863	0.000154
1595	1.5860e+02	-16.4979	-52.801698	0.000162	1.621609	0.549416	0.000065
1596	1.5870e+02	-16.4578	-52.696733	0.000264	2.635114	0.892801	0.000105
1597	1.5880e+02	-16.4049	-52.607916	0.000223	2.229712	0.755447	0.000089
1598	1.5890e+02	-16.3744	-52.551396	0.000142	1.418908	0.480739	0.000057
1599	1.5900e+02	-16.3279	-52.442393	0.000274	2.736465	0.927139	0.000110
1600	1.5910e+02	-16.2910	-52.393948	0.000122	1.216207	0.412062	0.000049
1601	1.5920e+02	-16.2541	-52.301093	0.000233	2.331063	0.789785	0.000093
1602	1.5930e+02	-16.2124	-52.240536	0.000152	1.520258	0.515077	0.000061
1603	1.5940e+02	-16.1723	-52.115385	0.000314	3.141867	1.064493	0.000126
1604	1.5950e+02	-16.1402	-52.054828	0.000152	1.520258	0.515077	0.000061
1605	1.5960e+02	-16.0937	-51.937751	0.000294	2.939166	0.995816	0.000118
1606	1.5970e+02	-16.0568	-51.865083	0.000182	1.824310	0.618093	0.000073
1607	1.5980e+02	-16.0183	-51.800489	0.000162	1.621609	0.549416	0.000065
1608	1.5990e+02	-15.9701	-51.675337	0.000314	3.141867	1.064493	0.000126
1609	1.6000e+02	-15.9397	-51.582483	0.000233	2.331063	0.789785	0.000093
1610	1.6010e+02	-15.8899	-51.493666	0.000223	2.229712	0.755447	0.000089
1611	1.6019e+02	-15.8514	-51.420998	0.000182	1.824310	0.618093	0.000073
1612	1.6029e+02	-15.8081	-51.368515	0.000132	1.317557	0.446400	0.000053
1613	1.6039e+02	-15.7776	-51.227215	0.000355	3.547269	1.201847	0.000142
1614	1.6049e+02	-15.7407	-51.178770	0.000122	1.216207	0.412062	0.000049
1615	1.6059e+02	-15.6958	-51.093990	0.000213	2.128362	0.721108	0.000085
1616	1.6069e+02	-15.6557	-50.956727	0.000345	3.445919	1.167509	0.000138
1617	1.6079e+02	-15.6108	-50.908282	0.000122	1.216207	0.412062	0.000049
1618	1.6089e+02	-15.5723	-50.799279	0.000274	2.736465	0.927139	0.000110
1619	1.6099e+02	-15.5386	-50.742759	0.000142	1.418908	0.480739	0.000057
1620	1.6109e+02	-15.4905	-50.593385	0.000375	3.749970	1.270524	0.000150
1621	1.6119e+02	-15.4568	-50.540902	0.000132	1.317557	0.446400	0.000053
1622	1.6129e+02	-15.4215	-50.439974	0.000253	2.533764	0.858462	0.000101
1623	1.6139e+02	-15.3782	-50.298674	0.000355	3.547269	1.201847	0.000142
1624	1.6149e+02	-15.3397	-50.234080	0.000162	1.621609	0.549416	0.000065
1625	1.6159e+02	-15.3060	-50.221969	0.000030	0.304052	0.103015	0.000012
1626	1.6169e+02	-15.2611	-50.108929	0.000284	2.837815	0.961478	0.000114
1627	1.6179e+02	-15.2194	-50.032223	0.000193	1.925660	0.652431	0.000077
1628	1.6189e+02	-15.1728	-49.870738	0.000405	4.054022	1.373540	0.000162
1629	1.6199e+02	-15.1407	-49.834404	0.000091	0.912155	0.309046	0.000037
1630	1.6209e+02	-15.1071	-49.701178	0.000334	3.344568	1.133170	0.000134
1631	1.6219e+02	-15.0621	-49.640621	0.000152	1.520258	0.515077	0.000061
1632	1.6228e+02	-15.0172	-49.527581	0.000284	2.837815	0.961478	0.000114
1633	1.6238e+02	-14.9787	-49.458950	0.000172	1.722959	0.583754	0.000069
1634	1.6248e+02	-14.9322	-49.382244	0.000193	1.925660	0.652431	0.000077
1635	1.6258e+02	-14.8937	-49.273242	0.000274	2.736465	0.927139	0.000110
1636	1.6268e+02	-14.8472	-49.204610	0.000172	1.722959	0.583754	0.000069
1637	1.6278e+02	-14.8231	-49.055236	0.000375	3.749970	1.270524	0.000150
1638	1.6288e+02	-14.7814	-49.010828	0.000111	1.114856	0.377723	0.000045
1639	1.6298e+02	-14.7429	-48.938159	0.000182	1.824310	0.618093	0.000073
1640	1.6308e+02	-14.6932	-48.808971	0.000324	3.243218	1.098832	0.000130
1641	1.6318e+02	-14.6627	-48.772637	0.000091	0.912155	0.309046	0.000037
1642	1.6328e+02	-14.6242	-48.627300	0.000365	3.648620	1.236186	0.000146
1643	1.6338e+02	-14.5745	-48.526372	0.000253	2.533764	0.858462	0.000101
1644	1.6348e+02	-14.5327	-48.469852	0.000142	1.418908	0.480739	0.000057
1645	1.6358e+02	-14.4958	-48.372960	0.000243	2.432413	0.824124	0.000097
1646	1.6368e+02	-14.4590	-48.320478	0.000132	1.317557	0.446400	0.000053
1647	1.6378e+02	-14.4172	-48.203401	0.000294	2.939166	0.995816	0.000118
1648	1.6388e+02	-14.3771	-48.090361	0.000284	2.837815	0.961478	0.000114
1649	1.6398e+02	-14.3402	-48.045952	0.000111	1.114856	0.377723	0.000045
1650	1.6408e+02	-14.2985	-47.945024	0.000253	2.533764	0.858462	0.000101
1651	1.6418e+02	-14.2568	-47.836021	0.000274	2.736465	0.927139	0.000110
1652	1.6427e+02	-14.2183	-47.763353	0.000182	1.824310	0.618093	0.000073
1653	1.6437e+02	-14.1878	-47.650313	0.000284	2.837815	0.961478	0.000114
1654	1.6447e+02	-14.1509	-47.537273	0.000284	2.837815	0.961478	0.000114
1655	1.6457e+02	-14.0996	-47.480753	0.000142	1.418908	0.480739	0.000057
1656	1.6467e+02	-14.0547	-47.359639	0.000304	3.040516	1.030155	0.000122
1657	1.6477e+02	-14.0290	-47.278897	0.000203	2.027011	0.686770	0.000081
1658	1.6487e+02	-13.9793	-47.198154	0.000203	2.027011	0.686770	0.000081
1659	1.6497e+02	-13.9376	-47.085114	0.000284	2.837815	0.961478	0.000114
1660	1.6507e+02	-13.9023	-47.004371	0.000203	2.027011	0.686770	0.000081
1661	1.6517e+02	-13.8686	-46.923629	0.000203	2.027011	0.686770	0.000081
1662	1.6527e+02	-13.8301	-46.818663	0.000264	2.635114	0.892801	0.000105
1663	1.6537e+02	-13.7820	-46.774255	0.000111	1.114856	0.377723	0.000045
1664	1.6547e+02	-13.7370	-46.641029	0.000334	3.344568	1.133170	0.000134
1665	1.6557e+02	-13.6953	-46.584509	0.000142	1.418908	0.480739	0.000057
1666	1.6567e+02	-13.6600	-46.451284	0.000334	3.344568	1.133170	0.000134
1667	1.6577e+02	-13.6312	-46.354393	0.000243	2.432413	0.824124	0.000097
1668	1.6587e+02	-13.5895	-46.265576	0.000223	2.229712	0.755447	0.000089
1669	1.6597e+02	-13.5413	-46.213093	0.000132	1.317557	0.446400	0.000053
1670	1.6607e+02	-13.5044	-46.071793	0.000355	3.547269	1.201847	0.000142
1671	1.6616e+02	-13.4595	-45.991050	0.000203	2.027011	0.686770	0.000081
1672	1.6626e+02	-13.4242	-45.886085	0.000264	2.635114	0.892801	0.000105
1673	1.6636e+02	-13.3841	-45.833602	0.000132	1.317557	0.446400	0.000053
1674	1.6646e+02	-13.3440	-45.728637	0.000264	2.635114	0.892801	0.000105
1675	1.6656e+02	-13.2991	-45.660005	0.000172	1.722959	0.583754	0.000069
1676	1.6666e+02	-13.2702	-45.514668	0.000365	3.648620	1.236186	0.000146
1677	1.6676e+02	-13.2381	-45.446037	0.000172	1.722959	0.583754	0.000069
1678	1.6686e+02	-13.1868	-45.345109	0.000253	2.533764	0.858462	0.000101
1679	1.6696e+02	-13.1419	-45.276477	0.000172	1.722959	0.583754	0.000069
1680	1.6706e+02	-13.1002	-45.139215	0.000345	3.445919	1.167509	0.000138
1681	1.6716e+02	-13.0681	-45.050398	0.000223	2.229712	0.755447	0.000089
1682	1.6726e+02	-13.0280	-44.965618	0.000213	2.128362	0.721108	0.000085
1683	1.6736e+02	-12.9911	-44.868727	0.000243	2.432413	0.824124	0.000097
1684	1.6746e+02	-12.9478	-44.771835	0.000243	2.432413	0.824124	0.000097
1685	1.6756e+02	-12.9077	-44.678981	0.000233	2.331063	0.789785	0.000093
1686	1.6766e+02	-12.8708	-44.590164	0.000223	2.229712	0.755447	0.000089
1687	1.6776e+02	-12.8290	-44.497310	0.000233	2.331063	0.789785	0.000093
1688	1.6786e+02	-12.7873	-44.356010	0.000355	3.547269	1.201847	0.000142
1689	1.6796e+02	-12.7472	-44.303528	0.000132	1.317557	0.446400	0.000053
1690	1.6806e+02	-12.7023	-44.186451	0.000294	2.939166	0.995816	0.000118
1691	1.6816e+02	-12.6622	-44.093597	0.000233	2.331063	0.789785	0.000093
1692	1.6825e+02	-12.6317	-44.000742	0.000233	2.331063	0.789785	0.000093
1693	1.6835e+02	-12.5788	-43.899814	0.000253	2.533764	0.858462	0.000101
1694	1.6845e+02	-12.5563	-43.774663	0.000314	3.141867	1.064493	0.000126
1695	1.6855e+02	-12.5130	-43.718143	0.000142	1.418908	0.480739	0.000057
1696	1.6865e+02	-12.4697	-43.633363	0.000213	2.128362	0.721108	0.000085
1697	1.6875e+02	-12.4344	-43.532435	0.000253	2.533764	0.858462	0.000101
1698	1.6885e+02	-12.3863	-43.415358	0.000294	2.939166	0.995816	0.000118
1699	1.6895e+02	-12.3494	-43.322504	0.000233	2.331063	0.789785	0.000093
1700	1.6905e+02	-12.3125	-43.209464	0.000284	2.837815	0.961478	0.000114
1701	1.6915e+02	-12.2595	-43.116610	0.000233	2.331063	0.789785	0.000093
1702	1.6925e+02	-12.2339	-43.011644	0.000264	2.635114	0.892801	0.000105
1703	1.6935e+02	-12.1938	-42.906679	0.000264	2.635114	0.892801	0.000105
1704	1.6945e+02	-12.1553	-42.825936	0.000203	2.027011	0.686770	0.000081
1705	1.6955e+02	-12.1136	-42.741156	0.000213	2.128362	0.721108	0.000085
1706	1.6965e+02	-12.0686	-42.652339	0.000223	2.229712	0.755447	0.000089
1707	1.6975e+02	-12.0301	-42.559485	0.000233	2.331063	0.789785	0.000093
1708	1.6985e+02	-11.9836	-42.418185	0.000355	3.547269	1.201847	0.000142
1709	1.6995e+02	-11.9547	-42.337442	0.000203	2.027011	0.686770	0.000081
1710	1.7005e+02	-11.9034	-42.236514	0.000253	2.533764	0.858462	0.000101
1711	1.7015e+02	-11.8681	-42.167883	0.000172	1.722959	0.583754	0.000069
1712	1.7024e+02	-11.8360	-42.010434	0.000395	3.952671	1.339201	0.000158
1713	1.7034e+02	-11.7895	-41.897395	0.000284	2.837815	0.961478	0.000114
1714	1.7044e+02	-11.7462	-41.844912	0.000132	1.317557	0.446400	0.000053
1715	1.7054e+02	-11.7141	-41.743984	0.000253	2.533764	0.858462	0.000101
1716	1.7064e+02	-11.6708	-41.606721	0.000345	3.445919	1.167509	0.000138
1717	1.7074e+02	-11.6291	-41.562312	0.000111	1.114856	0.377723	0.000045
1718	1.7084e+02	-11.5874	-41.457347	0.000264	2.635114	0.892801	0.000105
1719	1.7094e+02	-11.5537	-41.340270	0.000294	2.939166	0.995816	0.000118
1720	1.7104e+02	-11.5136	-41.243379	0.000243	2.432413	0.824124	0.000097
1721	1.7114e+02	-11.4703	-41.203007	0.000101	1.013505	0.343385	0.000041
1722	1.7124e+02	-11.4366	-41.049596	0.000385	3.851321	1.304863	0.000154
1723	1.7134e+02	-11.3949	-40.924445	0.000314	3.141867	1.064493	0.000126
1724	1.7144e+02	-11.3483	-40.867925	0.000142	1.418908	0.480739	0.000057
1725	1.7154e+02	-11.3114	-40.754885	0.000284	2.837815	0.961478	0.000114
1726	1.7164e+02	-11.2762	-40.633771	0.000304	3.040516	1.030155	0.000122
1727	1.7174e+02	-11.2312	-40.516694	0.000294	2.939166	0.995816	0.000118
1728	1.7184e+02	-11.1975	-40.415766	0.000253	2.533764	0.858462	0.000101
1729	1.7194e+02	-11.1558	-40.322912	0.000233	2.331063	0.789785	0.000093
1730	1.7204e+02	-11.1093	-40.173538	0.000375	3.749970	1.270524	0.000150
1731	1.7213e+02	-11.0756	-40.096832	0.000193	1.925660	0.652431	0.000077
1732	1.7223e+02	-11.0275	-39.979755	0.000294	2.939166	0.995816	0.000118
1733	1.7233e+02	-10.9970	-39.890938	0.000223	2.229712	0.755447	0.000089
1734	1.7243e+02	-10.9553	-39.785973	0.000264	2.635114	0.892801	0.000105
1735	1.7253e+02	-10.9104	-39.681007	0.000264	2.635114	0.892801	0.000105
1736	1.7263e+02	-10.8735	-39.563930	0.000294	2.939166	0.995816	0.000118
1737	1.7273e+02	-10.8334	-39.483188	0.000203	2.027011	0.686770	0.000081
1738	1.7283e+02	-10.7981	-39.337851	0.000365	3.648620	1.236186	0.000146
1739	1.7293e+02	-10.7564	-39.285368	0.000132	1.317557	0.446400	0.000053
1740	1.7303e+02	-10.7050	-39.160217	0.000314	3.141867	1.064493	0.000126
1741	1.7313e+02	-10.6810	-39.051214	0.000274	2.736465	0.927139	0.000110
1742	1.7323e+02	-10.6280	-38.978546	0.000182	1.824310	0.618093	0.000073
1743	1.7333e+02	-10.5960	-38.829172	0.000375	3.749970	1.270524	0.000150
1744	1.7343e+02	-10.5462	-38.748429	0.000203	2.027011	0.686770	0.000081
1745	1.7353e+02	-10.5045	-38.635389	0.000284	2.837815	0.961478	0.000114
1746	1.7363e+02	-10.4708	-38.506201	0.000324	3.243218	1.098832	0.000130
1747	1.7373e+02	-10.4420	-38.413347	0.000233	2.331063	0.789785	0.000093
1748	1.7383e+02	-10.4002	-38.328567	0.000213	2.128362	0.721108	0.000085
1749	1.7393e+02	-10.3473	-38.211490	0.000294	2.939166	0.995816	0.000118
1750	1.7403e+02	-10.3184	-38.102487	0.000274	2.736465	0.927139	0.000110
1751	1.7413e+02	-10.2815	-37.981373	0.000304	3.040516	1.030155	0.000122
1752	1.7422e+02	-10.2398	-37.916779	0.000162	1.621609	0.549416	0.000065
1753	1.7432e+02	-10.1949	-37.791628	0.000314	3.141867	1.064493	0.000126
1754	1.7442e+02	-10.1708	-37.674551	0.000294	2.939166	0.995816	0.000118
1755	1.7452e+02	-10.1195	-37.553437	0.000304	3.040516	1.030155	0.000122
1756	1.7462e+02	-10.0810	-37.480768	0.000182	1.824310	0.618093	0.000073
1757	1.7472e+02	-10.0457	-37.343506	0.000345	3.445919	1.167509	0.000138
1758	1.7482e+02	-10.0024	-37.222392	0.000304	3.040516	1.030155	0.000122
1759	1.7492e+02	-9.9655	-37.125500	0.000243	2.432413	0.824124	0.000097
1760	1.7502e+02	-9.9254	-37.048795	0.000193	1.925660	0.652431	0.000077
1761	1.7512e+02	-9.8805	-36.931718	0.000294	2.939166	0.995816	0.000118
1762	1.7522e+02	-9.8323	-36.794455	0.000345	3.445919	1.167509	0.000138
1763	1.7532e+02	-9.8003	-36.721787	0.000182	1.824310	0.618093	0.000073
1764	1.7542e+02	-9.7602	-36.596635	0.000314	3.141867	1.064493	0.000126
1765	1.7552e+02	-9.7249	-36.491670	0.000264	2.635114	0.892801	0.000105
1766	1.7562e+02	-9.6848	-36.374593	0.000294	2.939166	0.995816	0.000118
1767	1.7572e+02	-9.6382	-36.285776	0.000223	2.229712	0.755447	0.000089
1768	1.7582e+02	-9.5981	-36.164662	0.000304	3.040516	1.030155	0.000122
1769	1.7592e+02	-9.5596	-36.059696	0.000264	2.635114	0.892801	0.000105
1770	1.7602e+02	-9.5195	-35.914360	0.000365	3.648620	1.236186	0.000146
1771	1.7612e+02	-9.4826	-35.813431	0.000253	2.533764	0.858462	0.000101
1772	1.7621e+02	-9.4393	-35.688280	0.000314	3.141867	1.064493	0.000126
1773	1.7631e+02	-9.4024	-35.643871	0.000111	1.114856	0.377723	0.000045
1774	1.7641e+02	-9.3559	-35.542943	0.000253	2.533764	0.858462	0.000101
1775	1.7651e+02	-9.3206	-35.401643	0.000355	3.547269	1.201847	0.000142
1776	1.7661e+02	-9.2837	-35.284566	0.000294	2.939166	0.995816	0.000118
1777	1.7671e+02	-9.2452	-35.155378	0.000324	3.243218	1.098832	0.000130
1778	1.7681e+02	-9.1971	-35.066561	0.000223	2.229712	0.755447	0.000089
1779	1.7691e+02	-9.1634	-34.953521	0.000284	2.837815	0.961478	0.000114
1780	1.7701e+02	-9.1185	-34.816259	0.000345	3.445919	1.167509	0.000138
1781	1.7711e+02	-9.0848	-34.755702	0.000152	1.520258	0.515077	0.000061
1782	1.7721e+02	-9.0334	-34.618439	0.000345	3.445919	1.167509	0.000138
1783	1.7731e+02	-9.0046	-34.533659	0.000213	2.128362	0.721108	0.000085
1784	1.7741e+02	-8.9628	-34.408508	0.000314	3.141867	1.064493	0.000126
1785	1.7751e+02	-8.9260	-34.311617	0.000243	2.432413	0.824124	0.000097
1786	1.7761e+02	-8.8842	-34.178391	0.000334	3.344568	1.133170	0.000134
1787	1.7771e+02	-8.8361	-34.065351	0.000284	2.837815	0.961478	0.000114
1788	1.7781e+02	-8.8056	-33.940200	0.000314	3.141867	1.064493	0.000126
1789	1.7791e+02	-8.7623	-33.798900	0.000355	3.547269	1.201847	0.000142
1790	1.7801e+02	-8.7286	-33.710083	0.000223	2.229712	0.755447	0.000089
1791	1.7810e+02	-8.6821	-33.588969	0.000304	3.040516	1.030155	0.000122
1792	1.7820e+02	-8.6436	-33.516301	0.000182	1.824310	0.618093	0.000073
1793	1.7830e+02	-8.5939	-33.354815	0.000405	4.054022	1.373540	0.000162
1794	1.7840e+02	-8.5634	-33.290221	0.000162	1.621609	0.549416	0.000065
1795	1.7850e+02	-8.5217	-33.173144	0.000294	2.939166	0.995816	0.000118
1796	1.7860e+02	-8.4848	-33.056067	0.000294	2.939166	0.995816	0.000118
1797	1.7870e+02	-8.4463	-32.943028	0.000284	2.837815	0.961478	0.000114
1798	1.7880e+02	-8.3982	-32.813839	0.000324	3.243218	1.098832	0.000130
1799	1.7890e+02	-8.3564	-32.676577	0.000345	3.445919	1.167509	0.000138
1800	1.7900e+02	-8.3179	-32.583723	0.000233	2.331063	0.789785	0.000093
1801	1.7910e+02	-8.2955	-32.442423	0.000355	3.547269	1.201847	0.000142
1802	1.7920e+02	-8.2442	-32.377829	0.000162	1.621609	0.549416	0.000065
1803	1.7930e+02	-8.2073	-32.240566	0.000345	3.445919	1.167509	0.000138
1804	1.7940e+02	-8.1704	-32.131563	0.000274	2.736465	0.927139	0.000110
1805	1.7950e+02	-8.1270	-32.026598	0.000264	2.635114	0.892801	0.000105
1806	1.7960e+02	-8.0821	-31.917595	0.000274	2.736465	0.927139	0.000110
1807	1.7970e+02	-8.0436	-31.772258	0.000365	3.648620	1.236186	0.000146
1808	1.7980e+02	-8.0083	-31.691516	0.000203	2.027011	0.686770	0.000081
1809	1.7990e+02	-7.9586	-31.566364	0.000314	3.141867	1.064493	0.000126
1810	1.8000e+02	-7.9313	-31.477547	0.000223	2.229712	0.755447	0.000089
1811	1.8009e+02	-7.8960	-31.324136	0.000385	3.851321	1.304863	0.000154
1812	1.8019e+02	-7.8495	-31.219171	0.000264	2.635114	0.892801	0.000105
1813	1.8029e+02	-7.8078	-31.122279	0.000243	2.432413	0.824124	0.000097
1814	1.8039e+02	-7.7693	-30.948683	0.000436	4.358074	1.476555	0.000174
1815	1.8049e+02	-7.7308	-30.884088	0.000162	1.621609	0.549416	0.000065
1816	1.8059e+02	-7.6907	-30.783160	0.000253	2.533764	0.858462	0.000101
1817	1.8069e+02	-7.6490	-30.662046	0.000304	3.040516	1.030155	0.000122
1818	1.8079e+02	-7.5993	-30.544969	0.000294	2.939166	0.995816	0.000118
1819	1.8089e+02	-7.5688	-30.448078	0.000243	2.432413	0.824124	0.000097
1820	1.8099e+02	-7.5287	-30.302741	0.000365	3.648620	1.236186	0.000146
1821	1.8109e+02	-7.4821	-30.213924	0.000223	2.229712	0.755447	0.000089
1822	1.8119e+02	-7.4388	-30.032253	0.000456	4.560775	1.545232	0.000183
1823	1.8129e+02	-7.4003	-29.971696	0.000152	1.520258	0.515077	0.000061
1824	1.8139e+02	-7.3666	-29.822322	0.000375	3.749970	1.270524	0.000150
1825	1.8149e+02	-7.3233	-29.733505	0.000223	2.229712	0.755447	0.000089
1826	1.8159e+02	-7.2928	-29.576056	0.000395	3.952671	1.339201	0.000158
1827	1.8169e+02	-7.2447	-29.527611	0.000122	1.216207	0.412062	0.000049
1828	1.8179e+02	-7.2110	-29.378237	0.000375	3.749970	1.270524	0.000150
1829	1.8189e+02	-7.1725	-29.265197	0.000284	2.837815	0.961478	0.000114
1830	1.8199e+02	-7.1308	-29.160231	0.000264	2.635114	0.892801	0.000105
1831	1.8209e+02	-7.0827	-29.031043	0.000324	3.243218	1.098832	0.000130
1832	1.8218e+02	-7.0410	-28.913966	0.000294	2.939166	0.995816	0.000118
1833	1.8228e+02	-7.0121	-28.809001	0.000264	2.635114	0.892801	0.000105
1834	1.8238e+02	-6.9720	-28.675775	0.000334	3.344568	1.133170	0.000134
1835	1.8248e+02	-6.9351	-28.574847	0.000253	2.533764	0.858462	0.000101
1836	1.8258e+02	-6.8950	-28.441621	0.000334	3.344568	1.133170	0.000134
1837	1.8268e+02	-6.8501	-28.336656	0.000264	2.635114	0.892801	0.000105
1838	1.8278e+02	-6.8148	-28.263987	0.000182	1.824310	0.618093	0.000073
1839	1.8288e+02	-6.7683	-28.058093	0.000517	5.168878	1.751263	0.000207
1840	1.8298e+02	-6.7346	-28.005611	0.000132	1.317557	0.446400	0.000053
1841	1.8308e+02	-6.6897	-27.880459	0.000314	3.141867	1.064493	0.000126
1842	1.8318e+02	-6.6528	-27.727048	0.000385	3.851321	1.304863	0.000154
1843	1.8328e+02	-6.6094	-27.634194	0.000233	2.331063	0.789785	0.000093
1844	1.8338e+02	-6.5709	-27.476746	0.000395	3.952671	1.339201	0.000158
1845	1.8348e+02	-6.5421	-27.359669	0.000294	2.939166	0.995816	0.000118
1846	1.8358e+02	-6.4987	-27.226443	0.000334	3.344568	1.133170	0.000134
1847	1.8368e+02	-6.4506	-27.129552	0.000243	2.432413	0.824124	0.000097
1848	1.8378e+02	-6.4121	-27.012475	0.000294	2.939166	0.995816	0.000118
1849	1.8388e+02	-6.3800	-26.891361	0.000304	3.040516	1.030155	0.000122
1850	1.8398e+02	-6.3319	-26.774284	0.000294	2.939166	0.995816	0.000118
1851	1.8407e+02	-6.2902	-26.673356	0.000253	2.533764	0.858462	0.000101
1852	1.8417e+02	-6.2549	-26.528019	0.000365	3.648620	1.236186	0.000146
1853	1.8427e+02	-6.2180	-26.390756	0.000345	3.445919	1.167509	0.000138
1854	1.8437e+02	-6.1731	-26.273679	0.000294	2.939166	0.995816	0.000118
1855	1.8447e+02	-6.1346	-26.148528	0.000314	3.141867	1.064493	0.000126
1856	1.8457e+02	-6.0977	-26.071823	0.000193	1.925660	0.652431	0.000077
1857	1.8467e+02	-6.0496	-25.898226	0.000436	4.358074	1.476555	0.000174
1858	1.8477e+02	-6.0111	-25.777112	0.000304	3.040516	1.030155	0.000122
1859	1.8487e+02	-5.9758	-25.676183	0.000253	2.533764	0.858462	0.000101
1860	1.8497e+02	-5.9325	-25.546995	0.000324	3.243218	1.098832	0.000130
1861	1.8507e+02	-5.9036	-25.401658	0.000365	3.648620	1.236186	0.000146
1862	1.8517e+02	-5.8522	-25.244210	0.000395	3.952671	1.339201	0.000158
1863	1.8527e+02	-5.8266	-25.151356	0.000233	2.331063	0.789785	0.000093
1864	1.8537e+02	-5.7768	-25.046390	0.000264	2.635114	0.892801	0.000105
1865	1.8547e+02	-5.7303	-24.937387	0.000274	2.736465	0.927139	0.000110
1866	1.8557e+02	-5.6950	-24.820311	0.000294	2.939166	0.995816	0.000118
1867	1.8567e+02	-5.6533	-24.626528	0.000486	4.864826	1.648248	0.000195
1868	1.8577e+02	-5.6132	-24.529637	0.000243	2.432413	0.824124	0.000097
1869	1.8587e+02	-5.5908	-24.436783	0.000233	2.331063	0.789785	0.000093
1870	1.8597e+02	-5.5410	-24.279334	0.000395	3.952671	1.339201	0.000158
1871	1.8606e+02	-5.4881	-24.121886	0.000395	3.952671	1.339201	0.000158
1872	1.8616e+02	-5.4576	-24.069403	0.000132	1.317557	0.446400	0.000053
1873	1.8626e+02	-5.4191	-23.903881	0.000416	4.155373	1.407878	0.000166
1874	1.8636e+02	-5.3806	-23.762581	0.000355	3.547269	1.201847	0.000142
1875	1.8646e+02	-5.3405	-23.617244	0.000365	3.648620	1.236186	0.000146
1876	1.8656e+02	-5.2956	-23.528427	0.000223	2.229712	0.755447	0.000089
1877	1.8666e+02	-5.2635	-23.423462	0.000264	2.635114	0.892801	0.000105
1878	1.8676e+02	-5.2138	-23.326570	0.000243	2.432413	0.824124	0.000097
1879	1.8686e+02	-5.1785	-23.161048	0.000416	4.155373	1.407878	0.000166
1880	1.8696e+02	-5.1400	-23.027822	0.000334	3.344568	1.133170	0.000134
1881	1.8706e+02	-5.1063	-22.886522	0.000355	3.547269	1.201847	0.000142
1882	1.8716e+02	-5.0598	-22.757334	0.000324	3.243218	1.098832	0.000130
1883	1.8726e+02	-5.0229	-22.660443	0.000243	2.432413	0.824124	0.000097
1884	1.8736e+02	-4.9795	-22.555477	0.000264	2.635114	0.892801	0.000105
1885	1.8746e+02	-4.9362	-22.406103	0.000375	3.749970	1.270524	0.000150
1886	1.8756e+02	-4.8993	-22.268841	0.000345	3.445919	1.167509	0.000138
1887	1.8766e+02	-4.8528	-22.127541	0.000355	3.547269	1.201847	0.000142
1888	1.8776e+02	-4.8255	-22.022575	0.000264	2.635114	0.892801	0.000105
1889	1.8786e+02	-4.7838	-21.889350	0.000334	3.344568	1.133170	0.000134
1890	1.8796e+02	-4.7325	-21.772273	0.000294	2.939166	0.995816	0.000118
1891	1.8806e+02	-4.6972	-21.651159	0.000304	3.040516	1.030155	0.000122
1892	1.8815e+02	-4.6587	-21.517933	0.000334	3.344568	1.133170	0.000134
1893	1.8825e+02	-4.6234	-21.344337	0.000436	4.358074	1.476555	0.000174
1894	1.8835e+02	-4.5785	-21.170740	0.000436	4.358074	1.476555	0.000174
1895	1.8845e+02	-4.5336	-21.073849	0.000243	2.432413	0.824124	0.000097
1896	1.8855e+02	-4.5047	-20.924475	0.000375	3.749970	1.270524	0.000150
1897	1.8865e+02	-4.4582	-20.815472	0.000274	2.736465	0.927139	0.000110
1898	1.8875e+02	-4.4165	-20.662061	0.000385	3.851321	1.304863	0.000154
1899	1.8885e+02	-4.3747	-20.557095	0.000264	2.635114	0.892801	0.000105
1900	1.8895e+02	-4.3427	-20.444055	0.000284	2.837815	0.961478	0.000114
1901	1.8905e+02	-4.3074	-20.274496	0.000426	4.256723	1.442217	0.000170
1902	1.8915e+02	-4.2689	-20.161456	0.000284	2.837815	0.961478	0.000114
1903	1.8925e+02	-4.2207	-19.983822	0.000446	4.459424	1.510894	0.000179
1904	1.8935e+02	-4.1854	-19.862708	0.000304	3.040516	1.030155	0.000122
1905	1.8945e+02	-4.1502	-19.737557	0.000314	3.141867	1.064493	0.000126
1906	1.8955e+02	-4.1084	-19.620480	0.000294	2.939166	0.995816	0.000118
1907	1.8965e+02	-4.0667	-19.491291	0.000324	3.243218	1.098832	0.000130
1908	1.8975e+02	-4.0250	-19.329806	0.000405	4.054022	1.373540	0.000162
1909	1.8985e+02	-3.9913	-19.184469	0.000365	3.648620	1.236186	0.000146
1910	1.8995e+02	-3.9368	-19.079503	0.000264	2.635114	0.892801	0.000105
1911	1.9004e+02	-3.9095	-18.930129	0.000375	3.749970	1.270524	0.000150
1912	1.9014e+02	-3.8662	-18.813053	0.000294	2.939166	0.995816	0.000118
1913	1.9024e+02	-3.8229	-18.639456	0.000436	4.358074	1.476555	0.000174
1914	1.9034e+02	-3.7844	-18.453747	0.000466	4.662125	1.579571	0.000187
1915	1.9044e+02	-3.7459	-18.377042	0.000193	1.925660	0.652431	0.000077
1916	1.9054e+02	-3.6929	-18.203445	0.000436	4.358074	1.476555	0.000174
1917	1.9064e+02	-3.6673	-18.090405	0.000284	2.837815	0.961478	0.000114
1918	1.9074e+02	-3.6272	-17.973328	0.000294	2.939166	0.995816	0.000118
1919	1.9084e+02	-3.5806	-17.815880	0.000395	3.952671	1.339201	0.000158
1920	1.9094e+02	-3.5486	-17.670543	0.000365	3.648620	1.236186	0.000146
1921	1.9104e+02	-3.4956	-17.513095	0.000395	3.952671	1.339201	0.000158
1922	1.9114e+02	-3.4684	-17.424278	0.000223	2.229712	0.755447	0.000089
1923	1.9124e+02	-3.4331	-17.282978	0.000355	3.547269	1.201847	0.000142
1924	1.9134e+02	-3.3833	-17.117456	0.000416	4.155373	1.407878	0.000166
1925	1.9144e+02	-3.3480	-16.980193	0.000345	3.445919	1.167509	0.000138
1926	1.9154e+02	-3.3095	-16.834856	0.000365	3.648620	1.236186	0.000146
1927	1.9164e+02	-3.2774	-16.689519	0.000365	3.648620	1.236186	0.000146
1928	1.9174e+02	-3.2181	-16.552257	0.000345	3.445919	1.167509	0.000138
1929	1.9184e+02	-3.1908	-16.435180	0.000294	2.939166	0.995816	0.000118
1930	1.9194e+02	-3.1475	-16.305991	0.000324	3.243218	1.098832	0.000130
1931	1.9203e+02	-3.1058	-16.132394	0.000436	4.358074	1.476555	0.000174
1932	1.9213e+02	-3.0609	-16.007243	0.000314	3.141867	1.064493	0.000126
1933	1.9223e+02	-3.0288	-15.861906	0.000365	3.648620	1.236186	0.000146
1934	1.9233e+02	-2.9839	-15.680235	0.000456	4.560775	1.545232	0.000183
1935	1.9243e+02	-2.9470	-15.551047	0.000324	3.243218	1.098832	0.000130
1936	1.9253e+02	-2.9069	-15.429933	0.000304	3.040516	1.030155	0.000122
1937	1.9263e+02	-2.8732	-15.244225	0.000466	4.662125	1.579571	0.000187
1938	1.9273e+02	-2.8267	-15.147333	0.000243	2.432413	0.824124	0.000097
1939	1.9283e+02	-2.7898	-15.014108	0.000334	3.344568	1.133170	0.000134
1940	1.9293e+02	-2.7545	-14.868771	0.000365	3.648620	1.236186	0.000146
1941	1.9303e+02	-2.7079	-14.711323	0.000395	3.952671	1.339201	0.000158
1942	1.9313e+02	-2.6710	-14.561949	0.000375	3.749970	1.270524	0.000150
1943	1.9323e+02	-2.6229	-14.408537	0.000385	3.851321	1.304863	0.000154
1944	1.9333e+02	-2.5876	-14.299535	0.000274	2.736465	0.927139	0.000110
1945	1.9343e+02	-2.5507	-14.142086	0.000395	3.952671	1.339201	0.000158
1946	1.9353e+02	-2.5042	-14.025010	0.000294	2.939166	0.995816	0.000118
1947	1.9363e+02	-2.4657	-13.847376	0.000446	4.459424	1.510894	0.000179
1948	1.9373e+02	-2.4320	-13.685890	0.000405	4.054022	1.373540	0.000162
1949	1.9383e+02	-2.3871	-13.568813	0.000294	2.939166	0.995816	0.000118
1950	1.9393e+02	-2.3502	-13.415402	0.000385	3.851321	1.304863	0.000154
1951	1.9403e+02	-2.3101	-13.245842	0.000426	4.256723	1.442217	0.000170
1952	1.9412e+02	-2.2748	-13.148951	0.000243	2.432413	0.824124	0.000097
1953	1.9422e+02	-2.2299	-12.943057	0.000517	5.168878	1.751263	0.000207
1954	1.9432e+02	-2.1866	-12.830017	0.000284	2.837815	0.961478	0.000114
1955	1.9442e+02	-2.1545	-12.648346	0.000456	4.560775	1.545232	0.000183
1956	1.9452e+02	-2.1015	-12.494935	0.000385	3.851321	1.304863	0.000154
1957	1.9462e+02	-2.0759	-12.394007	0.000253	2.533764	0.858462	0.000101
1958	1.9472e+02	-2.0294	-12.232521	0.000405	4.054022	1.373540	0.000162
1959	1.9482e+02	-1.9812	-12.046813	0.000466	4.662125	1.579571	0.000187
1960	1.9492e+02	-1.9507	-11.877253	0.000426	4.256723	1.442217	0.000170
1961	1.9502e+02	-1.9106	-11.804585	0.000182	1.824310	0.618093	0.000073
1962	1.9512e+02	-1.8657	-11.647137	0.000395	3.952671	1.339201	0.000158
1963	1.9522e+02	-1.8304	-11.461428	0.000466	4.662125	1.579571	0.000187
1964	1.9532e+02	-1.7919	-11.303980	0.000395	3.952671	1.339201	0.000158
1965	1.9542e+02	-1.7518	-11.166717	0.000345	3.445919	1.167509	0.000138
1966	1.9552e+02	-1.7149	-11.045603	0.000304	3.040516	1.030155	0.000122
1967	1.9562e+02	-1.6700	-10.863932	0.000456	4.560775	1.545232	0.000183
1968	1.9572e+02	-1.6363	-10.746855	0.000294	2.939166	0.995816	0.000118
1969	1.9582e+02	-1.5946	-10.581333	0.000416	4.155373	1.407878	0.000166
1970	1.9592e+02	-1.5513	-10.379476	0.000507	5.067527	1.716925	0.000203
1971	1.9601e+02	-1.5096	-10.222028	0.000395	3.952671	1.339201	0.000158
1972	1.9611e+02	-1.4759	-10.108988	0.000284	2.837815	0.961478	0.000114
1973	1.9621e+02	-1.4278	-9.943465	0.000416	4.155373	1.407878	0.000166
1974	1.9631e+02	-1.3973	-9.790054	0.000385	3.851321	1.304863	0.000154
1975	1.9641e+02	-1.3524	-9.640680	0.000375	3.749970	1.270524	0.000150
1976	1.9651e+02	-1.3139	-9.523603	0.000294	2.939166	0.995816	0.000118
1977	1.9661e+02	-1.2770	-9.354044	0.000426	4.256723	1.442217	0.000170
1978	1.9671e+02	-1.2321	-9.216781	0.000345	3.445919	1.167509	0.000138
1979	1.9681e+02	-1.1887	-9.047221	0.000426	4.256723	1.442217	0.000170
1980	1.9691e+02	-1.1599	-8.885736	0.000405	4.054022	1.373540	0.000162
1981	1.9701e+02	-1.1182	-8.728287	0.000395	3.952671	1.339201	0.000158
1982	1.9711e+02	-1.0780	-8.578913	0.000375	3.749970	1.270524	0.000150
1983	1.9721e+02	-1.0299	-8.425502	0.000385	3.851321	1.304863	0.000154
1984	1.9731e+02	-0.9882	-8.328611	0.000243	2.432413	0.824124	0.000097
1985	1.9741e+02	-0.9593	-8.171163	0.000395	3.952671	1.339201	0.000158
1986	1.9751e+02	-0.9096	-7.989492	0.000456	4.560775	1.545232	0.000183
1987	1.9761e+02	-0.8663	-7.807821	0.000456	4.560775	1.545232	0.000183
1988	1.9771e+02	-0.8294	-7.694781	0.000284	2.837815	0.961478	0.000114
1989	1.9781e+02	-0.7957	-7.541370	0.000385	3.851321	1.304863	0.000154
1990	1.9791e+02	-0.7604	-7.359698	0.000456	4.560775	1.545232	0.000183
1991	1.9800e+02	-0.7155	-7.230510	0.000324	3.243218	1.098832	0.000130
1992	1.9810e+02	-0.6722	-7.093247	0.000345	3.445919	1.167509	0.000138
1993	1.9820e+02	-0.6273	-6.875242	0.000547	5.472930	1.854279	0.000219
1994	1.9830e+02	-0.5968	-6.750091	0.000314	3.141867	1.064493	0.000126
1995	1.9840e+02	-0.5535	-6.616865	0.000334	3.344568	1.133170	0.000134
1996	1.9850e+02	-0.5118	-6.439232	0.000446	4.459424	1.510894	0.000179
1997	1.9860e+02	-0.4797	-6.285820	0.000385	3.851321	1.304863	0.000154
1998	1.9870e+02	-0.4331	-6.152595	0.000334	3.344568	1.133170	0.000134
1999	1.9880e+02	-0.4059	-5.970924	0.000456	4.560775	1.545232	0.000183
2000	1.9890e+02	-0.3529	-5.813475	0.000395	3.952671	1.339201	0.000158
2001	1.9900e+02	-0.3160	-5.692361	0.000304	3.040516	1.030155	0.000122
2002	1.9910e+02	-0.2743	-5.522802	0.000426	4.256723	1.442217	0.000170
2003	1.9920e+02	-0.2390	-5.377465	0.000365	3.648620	1.236186	0.000146
2004	1.9930e+02	-0.1957	-5.236165	0.000355	3.547269	1.201847	0.000142
2005	1.9940e+02	-0.1604	-4.997974	0.000598	5.979682	2.025971	0.000239
2006	1.9950e+02	-0.1155	-4.880897	0.000294	2.939166	0.995816	0.000118
2007	1.9960e+02	-0.0770	-4.727486	0.000385	3.851321	1.304863	0.000154
2008	1.9970e+02	-0.0433	-4.582149	0.000365	3.648620	1.236186	0.000146
2009	1.9980e+02	0.0064	-4.465072	0.000365	3.648620	1.236186	0.000118

Center data before PMax,+/-Pr and +/-Vc Calc.

PMax (uC/cm2):	5.95e+01
Pr (uC/cm2):	8.88e-01
-Pr (uC/cm2):	-4.47e+00
PLoss (uC/cm2):	-1.59e+00
Vc:	7.77e-01
-Vc:	-2.22e-01
C (Max-Eff) (nF):	2.98e-01
K (Eff):	1.01e+03
Vert. (+/-Pr) Shift (uC/cm2):	-1.79e+00
Horiz. Shift (+/-Vc):	2.78e-01
Offset (uC/cm2):	2.87e+00

A (Loop Area - uC/cm2·Volts):	3.04e-02



Hysteresis Version: 5.48.1 - Radiant Technologies, Inc., 1999 - 9/12/24

