»»»»»»»»»»»»»»»»»»»»»»»»»»»»»»»»»»»» Hysteresis ««««««««««««««««««««««««««««««««««««
»»»  Executed Version:	5.48.1
»»»  Vision Version:	5.48.4 (R)
»»»  Vision Compiled:	9/18/24
»»»  Driver Version:	5.47.0
»»»  Windows Version:	Windows 8 or 8.1
»»»  Processor Information:	x86 (AMD or Intel) - 32 Processors
»»»  Tester Name:	PMF21124-494 (100V)
»»»  Tester S/N:	PMF21124-494
»»»  Internal Amp Type:	100V RevK 270k
»»»  Internal Amp S/N:	iAB2-596/K     
»»»  Execution Count:	1
»»»»»»»»»»»»»»»»»»»»»»»»»»»»»»»»»»»»»»»»»»««««««««««««««««««««««««««««««««««««««««««

Stored:	6/13/2025 - 14:8:8
Configured:	06/13/25 01:30:53 PM
Executed:	06/13/25 02:07:36 PM

»»»»»»»»»»»»»»»»»»»»»»»»»»»»»»»»»»» Sample Info ««««««««««««««««««««««««««««««««««««
Sample Name:	
Lot Name:	
Wafer Name:	
Die Row/Column:	0/0
Capacitor Number:	0
Sample Area (cm2):	1.00e-04
Sample Thickness (microns):	3.00e-01

Amplifier:	Internal

»»»»»»»»»»»»»»»»»»»»»»»»»»»»»»»»»»» Tester Info «««««««««««««««««««««««««««««««««««
Tester Name:	PMF21124-494 (100V)
Tester Serial Number:	PMF21124-494
Return Signal Amp. Level:	0.19 [Index: 3]

»»»»»»»»»»»»»»»»»»»»»»»»»»»»»»»» Hysteresis Info ««««««««««««««««««««««««««««««««««
Task Name:	Hyst-1922
Volts:	20.00
Field:	666.67 (kV/cm)
DCBias:	0.00
DCField:	0.00 (kV/cm)
Hysteresis Period (ms):	2.00e+02
Preset:	Enabled
Preset Delay (ms):	1.00e+03
Profile:	Standard Bipolar

»»»»»»»»»»»»»»»»»»»»»»»»»»»»»»»»»»»»»» Data «««««««««««««««««««««««««««««««««««««««
Points:	2009

Valid Data

Point	Time (ms)	Drive Voltage	Measured Polarization (uC/cm2)	Capacitance (uF)	Normalized Capacitance (uF/cm2)	Dielectric Constant	Instantaneous Current (mA)
   1	0.0000e+00	-0.0016	0.115058	0.000365	3.649132	1.236359	0.000146
   2	9.9500e-02	0.0273	0.260395	0.000365	3.649132	1.236359	0.000146
   3	1.9900e-01	0.0690	0.454178	0.000487	4.865509	1.648479	0.000195
   4	2.9850e-01	0.1107	0.611626	0.000395	3.953226	1.339389	0.000158
   5	3.9800e-01	0.1540	0.853854	0.000608	6.081887	2.060599	0.000243
   6	4.9750e-01	0.1989	1.039562	0.000466	4.662780	1.579793	0.000187
   7	5.9700e-01	0.2342	1.253531	0.000537	5.372333	1.820196	0.000215
   8	6.9650e-01	0.2647	1.447313	0.000487	4.865509	1.648479	0.000195
   9	7.9600e-01	0.3144	1.612836	0.000416	4.155956	1.408076	0.000166
  10	8.9550e-01	0.3481	1.802581	0.000476	4.764145	1.614136	0.000191
  11	9.9500e-01	0.3914	2.036735	0.000588	5.879157	1.991912	0.000235
  12	1.0945e+00	0.4396	2.194183	0.000395	3.953226	1.339389	0.000158
  13	1.1940e+00	0.4732	2.408151	0.000537	5.372333	1.820196	0.000215
  14	1.2935e+00	0.5069	2.634231	0.000568	5.676428	1.923226	0.000227
  15	1.3930e+00	0.5551	2.836088	0.000507	5.068239	1.717166	0.000203
  16	1.4925e+00	0.5791	2.981425	0.000365	3.649132	1.236359	0.000146
  17	1.5920e+00	0.6257	3.215579	0.000588	5.879157	1.991912	0.000235
  18	1.6915e+00	0.6754	3.421473	0.000517	5.169604	1.751509	0.000207
  19	1.7910e+00	0.7123	3.595069	0.000436	4.358686	1.476763	0.000174
  20	1.8905e+00	0.7492	3.760592	0.000416	4.155956	1.408076	0.000166
  21	1.9900e+00	0.7861	4.006857	0.000618	6.183252	2.094942	0.000248
  22	2.0895e+00	0.8246	4.192565	0.000466	4.662780	1.579793	0.000187
  23	2.1890e+00	0.8695	4.402497	0.000527	5.270969	1.785853	0.000211
  24	2.2885e+00	0.9032	4.600316	0.000497	4.966874	1.682823	0.000199
  25	2.3880e+00	0.9513	4.790062	0.000476	4.764145	1.614136	0.000191
  26	2.4875e+00	0.9898	5.020178	0.000578	5.777793	1.957569	0.000231
  27	2.5870e+00	1.0203	5.193775	0.000436	4.358686	1.476763	0.000174
  28	2.6865e+00	1.0748	5.399669	0.000517	5.169604	1.751509	0.000207
  29	2.7860e+00	1.1021	5.561154	0.000405	4.054591	1.373733	0.000162
  30	2.8855e+00	1.1502	5.783197	0.000558	5.575063	1.888882	0.000223
  31	2.9850e+00	1.1855	6.001202	0.000547	5.473698	1.854539	0.000219
  32	3.0845e+00	1.2208	6.166725	0.000416	4.155956	1.408076	0.000166
  33	3.1840e+00	1.2657	6.376656	0.000527	5.270969	1.785853	0.000211
  34	3.2835e+00	1.3074	6.554290	0.000446	4.460050	1.511106	0.000179
  35	3.3830e+00	1.3588	6.780369	0.000568	5.676428	1.923226	0.000227
  36	3.4825e+00	1.3925	6.986263	0.000517	5.169604	1.751509	0.000207
  37	3.5820e+00	1.4294	7.131600	0.000365	3.649132	1.236359	0.000146
  38	3.6815e+00	1.4711	7.357680	0.000568	5.676428	1.923226	0.000227
  39	3.7810e+00	1.5032	7.567611	0.000527	5.270969	1.785853	0.000211
  40	3.8805e+00	1.5513	7.733134	0.000416	4.155956	1.408076	0.000166
  41	3.9800e+00	1.5850	7.995547	0.000659	6.588711	2.232316	0.000264
  42	4.0795e+00	1.6219	8.140884	0.000365	3.649132	1.236359	0.000146
  43	4.1790e+00	1.6588	8.379075	0.000598	5.980522	2.026256	0.000239
  44	4.2785e+00	1.7085	8.540561	0.000405	4.054591	1.373733	0.000162
  45	4.3780e+00	1.7502	8.774715	0.000588	5.879157	1.991912	0.000235
  46	4.4775e+00	1.7775	8.916014	0.000355	3.547767	1.202016	0.000142
  47	4.5770e+00	1.8240	9.158242	0.000608	6.081887	2.060599	0.000243
  48	4.6765e+00	1.8705	9.364136	0.000517	5.169604	1.751509	0.000207
  49	4.7760e+00	1.9058	9.525622	0.000405	4.054591	1.373733	0.000162
  50	4.8755e+00	1.9540	9.715367	0.000476	4.764145	1.614136	0.000191
  51	4.9750e+00	1.9828	9.957595	0.000608	6.081887	2.060599	0.000243
  52	5.0745e+00	2.0294	10.135229	0.000446	4.460050	1.511106	0.000179
  53	5.1740e+00	2.0614	10.312863	0.000446	4.460050	1.511106	0.000179
  54	5.2735e+00	2.0983	10.547017	0.000588	5.879157	1.991912	0.000235
  55	5.3730e+00	2.1465	10.704465	0.000395	3.953226	1.339389	0.000158
  56	5.4725e+00	2.1802	10.878062	0.000436	4.358686	1.476763	0.000174
  57	5.5720e+00	2.2395	11.083956	0.000517	5.169604	1.751509	0.000207
  58	5.6715e+00	2.2652	11.285813	0.000507	5.068239	1.717166	0.000203
  59	5.7710e+00	2.2957	11.479595	0.000487	4.865509	1.648479	0.000195
  60	5.8705e+00	2.3422	11.693564	0.000537	5.372333	1.820196	0.000215
  61	5.9700e+00	2.3855	11.895420	0.000507	5.068239	1.717166	0.000203
  62	6.0695e+00	2.4288	12.052869	0.000395	3.953226	1.339389	0.000158
  63	6.1690e+00	2.4753	12.250688	0.000497	4.966874	1.682823	0.000199
  64	6.2685e+00	2.5122	12.476768	0.000568	5.676428	1.923226	0.000227
  65	6.3680e+00	2.5411	12.642291	0.000416	4.155956	1.408076	0.000166
  66	6.4675e+00	2.5924	12.864333	0.000558	5.575063	1.888882	0.000223
  67	6.5670e+00	2.6245	13.025818	0.000405	4.054591	1.373733	0.000162
  68	6.6665e+00	2.6614	13.259972	0.000588	5.879157	1.991912	0.000235
  69	6.7660e+00	2.6999	13.441643	0.000456	4.561415	1.545449	0.000183
  70	6.8655e+00	2.7416	13.615240	0.000436	4.358686	1.476763	0.000174
  71	6.9650e+00	2.7833	13.833246	0.000547	5.473698	1.854539	0.000219
  72	7.0645e+00	2.8170	14.002805	0.000426	4.257321	1.442419	0.000170
  73	7.1640e+00	2.8636	14.224848	0.000558	5.575063	1.888882	0.000223
  74	7.2635e+00	2.9053	14.402482	0.000446	4.460050	1.511106	0.000179
  75	7.3630e+00	2.9422	14.572041	0.000426	4.257321	1.442419	0.000170
  76	7.4625e+00	2.9935	14.753713	0.000456	4.561415	1.545449	0.000183
  77	7.5620e+00	3.0256	14.947495	0.000487	4.865509	1.648479	0.000195
  78	7.6615e+00	3.0561	15.177612	0.000578	5.777793	1.957569	0.000231
  79	7.7610e+00	3.1090	15.383506	0.000517	5.169604	1.751509	0.000207
  80	7.8605e+00	3.1491	15.577288	0.000487	4.865509	1.648479	0.000195
  81	7.9600e+00	3.1780	15.783182	0.000517	5.169604	1.751509	0.000207
  82	8.0595e+00	3.2197	15.956779	0.000436	4.358686	1.476763	0.000174
  83	8.1590e+00	3.2614	16.174784	0.000547	5.473698	1.854539	0.000219
  84	8.2585e+00	3.2983	16.324158	0.000375	3.750497	1.270703	0.000150
  85	8.3580e+00	3.3384	16.530052	0.000517	5.169604	1.751509	0.000207
  86	8.4575e+00	3.3769	16.675389	0.000365	3.649132	1.236359	0.000146
  87	8.5570e+00	3.4250	16.917617	0.000608	6.081887	2.060599	0.000243
  88	8.6565e+00	3.4571	17.095251	0.000446	4.460050	1.511106	0.000179
  89	8.7560e+00	3.4988	17.293071	0.000497	4.966874	1.682823	0.000199
  90	8.8555e+00	3.5325	17.474742	0.000456	4.561415	1.545449	0.000183
  91	8.9550e+00	3.5790	17.660450	0.000466	4.662780	1.579793	0.000187
  92	9.0545e+00	3.6272	17.834047	0.000436	4.358686	1.476763	0.000174
  93	9.1540e+00	3.6593	18.019755	0.000466	4.662780	1.579793	0.000187
  94	9.2535e+00	3.6929	18.237761	0.000547	5.473698	1.854539	0.000219
  95	9.3530e+00	3.7395	18.407320	0.000426	4.257321	1.442419	0.000170
  96	9.4525e+00	3.7683	18.588992	0.000456	4.561415	1.545449	0.000183
  97	9.5520e+00	3.8197	18.754514	0.000416	4.155956	1.408076	0.000166
  98	9.6515e+00	3.8566	18.964445	0.000527	5.270969	1.785853	0.000211
  99	9.7510e+00	3.8951	19.150153	0.000466	4.662780	1.579793	0.000187
 100	9.8505e+00	3.9288	19.323750	0.000436	4.358686	1.476763	0.000174
 101	9.9500e+00	3.9657	19.525607	0.000507	5.068239	1.717166	0.000203
 102	1.0050e+01	4.0138	19.662870	0.000345	3.446403	1.167673	0.000138
 103	1.0149e+01	4.0635	19.880875	0.000547	5.473698	1.854539	0.000219
 104	1.0248e+01	4.1052	20.062546	0.000456	4.561415	1.545449	0.000183
 105	1.0348e+01	4.1229	20.232106	0.000426	4.257321	1.442419	0.000170
 106	1.0447e+01	4.1694	20.401665	0.000426	4.257321	1.442419	0.000170
 107	1.0547e+01	4.2159	20.603522	0.000507	5.068239	1.717166	0.000203
 108	1.0646e+01	4.2528	20.777119	0.000436	4.358686	1.476763	0.000174
 109	1.0746e+01	4.3058	21.003199	0.000568	5.676428	1.923226	0.000227
 110	1.0845e+01	4.3394	21.201018	0.000497	4.966874	1.682823	0.000199
 111	1.0945e+01	4.3683	21.382689	0.000456	4.561415	1.545449	0.000183
 112	1.1044e+01	4.4229	21.536101	0.000385	3.851862	1.305046	0.000154
 113	1.1144e+01	4.4582	21.762180	0.000568	5.676428	1.923226	0.000227
 114	1.1243e+01	4.4983	21.903480	0.000355	3.547767	1.202016	0.000142
 115	1.1343e+01	4.5384	22.113411	0.000527	5.270969	1.785853	0.000211
 116	1.1443e+01	4.5833	22.254711	0.000355	3.547767	1.202016	0.000142
 117	1.1542e+01	4.6154	22.484827	0.000578	5.777793	1.957569	0.000231
 118	1.1642e+01	4.6587	22.630164	0.000365	3.649132	1.236359	0.000146
 119	1.1741e+01	4.6876	22.823947	0.000487	4.865509	1.648479	0.000195
 120	1.1841e+01	4.7277	22.997544	0.000436	4.358686	1.476763	0.000174
 121	1.1940e+01	4.7742	23.154992	0.000395	3.953226	1.339389	0.000158
 122	1.2040e+01	4.8223	23.352812	0.000497	4.966874	1.682823	0.000199
 123	1.2139e+01	4.8672	23.522371	0.000426	4.257321	1.442419	0.000170
 124	1.2239e+01	4.9057	23.695968	0.000436	4.358686	1.476763	0.000174
 125	1.2338e+01	4.9442	23.881676	0.000466	4.662780	1.579793	0.000187
 126	1.2438e+01	4.9731	24.095645	0.000537	5.372333	1.820196	0.000215
 127	1.2537e+01	5.0116	24.249056	0.000385	3.851862	1.305046	0.000154
 128	1.2636e+01	5.0565	24.454950	0.000517	5.169604	1.751509	0.000207
 129	1.2736e+01	5.0983	24.600287	0.000365	3.649132	1.236359	0.000146
 130	1.2835e+01	5.1416	24.810218	0.000527	5.270969	1.785853	0.000211
 131	1.2935e+01	5.1704	25.008037	0.000497	4.966874	1.682823	0.000199
 132	1.3034e+01	5.2138	25.149337	0.000355	3.547767	1.202016	0.000142
 133	1.3134e+01	5.2539	25.363305	0.000537	5.372333	1.820196	0.000215
 134	1.3233e+01	5.2876	25.524791	0.000405	4.054591	1.373733	0.000162
 135	1.3333e+01	5.3293	25.734722	0.000527	5.270969	1.785853	0.000211
 136	1.3432e+01	5.3774	25.863910	0.000324	3.243673	1.098986	0.000130
 137	1.3532e+01	5.4159	26.077878	0.000537	5.372333	1.820196	0.000215
 138	1.3632e+01	5.4544	26.271661	0.000487	4.865509	1.648479	0.000195
 139	1.3731e+01	5.4929	26.425072	0.000385	3.851862	1.305046	0.000154
 140	1.3831e+01	5.5250	26.574446	0.000375	3.750497	1.270703	0.000150
 141	1.3930e+01	5.5635	26.772266	0.000497	4.966874	1.682823	0.000199
 142	1.4030e+01	5.6244	26.913565	0.000355	3.547767	1.202016	0.000142
 143	1.4129e+01	5.6533	27.135608	0.000558	5.575063	1.888882	0.000223
 144	1.4229e+01	5.6934	27.313242	0.000446	4.460050	1.511106	0.000179
 145	1.4328e+01	5.7239	27.502987	0.000476	4.764145	1.614136	0.000191
 146	1.4428e+01	5.7784	27.644287	0.000355	3.547767	1.202016	0.000142
 147	1.4527e+01	5.8057	27.809810	0.000416	4.155956	1.408076	0.000166
 148	1.4627e+01	5.8522	28.035889	0.000568	5.676428	1.923226	0.000227
 149	1.4726e+01	5.8907	28.213523	0.000446	4.460050	1.511106	0.000179
 150	1.4825e+01	5.9228	28.375009	0.000405	4.054591	1.373733	0.000162
 151	1.4925e+01	5.9774	28.532457	0.000395	3.953226	1.339389	0.000158
 152	1.5024e+01	6.0111	28.718165	0.000466	4.662780	1.579793	0.000187
 153	1.5124e+01	6.0512	28.863502	0.000365	3.649132	1.236359	0.000146
 154	1.5223e+01	6.0913	29.041136	0.000446	4.460050	1.511106	0.000179
 155	1.5323e+01	6.1314	29.247030	0.000517	5.169604	1.751509	0.000207
 156	1.5422e+01	6.1763	29.380255	0.000335	3.345038	1.133329	0.000134
 157	1.5522e+01	6.2100	29.549815	0.000426	4.257321	1.442419	0.000170
 158	1.5621e+01	6.2405	29.743598	0.000487	4.865509	1.648479	0.000195
 159	1.5721e+01	6.2870	29.917194	0.000436	4.358686	1.476763	0.000174
 160	1.5820e+01	6.3303	30.066568	0.000375	3.750497	1.270703	0.000150
 161	1.5920e+01	6.3640	30.264388	0.000497	4.966874	1.682823	0.000199
 162	1.6020e+01	6.4169	30.413762	0.000375	3.750497	1.270703	0.000150
 163	1.6119e+01	6.4538	30.607545	0.000487	4.865509	1.648479	0.000195
 164	1.6218e+01	6.4939	30.748844	0.000355	3.547767	1.202016	0.000142
 165	1.6318e+01	6.5212	30.958775	0.000527	5.270969	1.785853	0.000211
 166	1.6418e+01	6.5741	31.087964	0.000324	3.243673	1.098986	0.000130
 167	1.6517e+01	6.6159	31.241375	0.000385	3.851862	1.305046	0.000154
 168	1.6616e+01	6.6399	31.419009	0.000446	4.460050	1.511106	0.000179
 169	1.6716e+01	6.6864	31.653163	0.000588	5.879157	1.991912	0.000235
 170	1.6816e+01	6.7265	31.806574	0.000385	3.851862	1.305046	0.000154
 171	1.6915e+01	6.7683	31.955948	0.000375	3.750497	1.270703	0.000150
 172	1.7015e+01	6.8036	32.153768	0.000497	4.966874	1.682823	0.000199
 173	1.7114e+01	6.8421	32.299104	0.000365	3.649132	1.236359	0.000146
 174	1.7213e+01	6.8902	32.504998	0.000517	5.169604	1.751509	0.000207
 175	1.7313e+01	6.9271	32.626112	0.000304	3.040943	1.030300	0.000122
 176	1.7413e+01	6.9624	32.827969	0.000507	5.068239	1.717166	0.000203
 177	1.7512e+01	7.0057	32.957158	0.000324	3.243673	1.098986	0.000130
 178	1.7611e+01	7.0442	33.199386	0.000608	6.081887	2.060599	0.000243
 179	1.7711e+01	7.0859	33.336648	0.000345	3.446403	1.167673	0.000138
 180	1.7811e+01	7.1164	33.498134	0.000405	4.054591	1.373733	0.000162
 181	1.7910e+01	7.1645	33.691916	0.000487	4.865509	1.648479	0.000195
 182	1.8009e+01	7.2078	33.853402	0.000405	4.054591	1.373733	0.000162
 183	1.8109e+01	7.2383	34.018924	0.000416	4.155956	1.408076	0.000166
 184	1.8209e+01	7.2880	34.208670	0.000476	4.764145	1.614136	0.000191
 185	1.8308e+01	7.3233	34.345932	0.000345	3.446403	1.167673	0.000138
 186	1.8407e+01	7.3618	34.511455	0.000416	4.155956	1.408076	0.000166
 187	1.8507e+01	7.4116	34.717349	0.000517	5.169604	1.751509	0.000207
 188	1.8607e+01	7.4468	34.842500	0.000314	3.142308	1.064643	0.000126
 189	1.8706e+01	7.4918	35.044357	0.000507	5.068239	1.717166	0.000203
 190	1.8805e+01	7.5271	35.161434	0.000294	2.939579	0.995956	0.000118
 191	1.8905e+01	7.5640	35.375402	0.000537	5.372333	1.820196	0.000215
 192	1.9005e+01	7.6009	35.512665	0.000345	3.446403	1.167673	0.000138
 193	1.9104e+01	7.6426	35.706447	0.000487	4.865509	1.648479	0.000195
 194	1.9203e+01	7.6746	35.880044	0.000436	4.358686	1.476763	0.000174
 195	1.9303e+01	7.7260	36.045566	0.000416	4.155956	1.408076	0.000166
 196	1.9402e+01	7.7645	36.150532	0.000264	2.635484	0.892926	0.000105
 197	1.9502e+01	7.8014	36.332203	0.000456	4.561415	1.545449	0.000183
 198	1.9602e+01	7.8479	36.542134	0.000527	5.270969	1.785853	0.000211
 199	1.9701e+01	7.8800	36.671322	0.000324	3.243673	1.098986	0.000130
 200	1.9800e+01	7.9201	36.840882	0.000426	4.257321	1.442419	0.000170
 201	1.9900e+01	7.9682	37.022553	0.000456	4.561415	1.545449	0.000183
 202	2.0000e+01	8.0083	37.155779	0.000335	3.345038	1.133329	0.000134
 203	2.0099e+01	8.0372	37.329376	0.000436	4.358686	1.476763	0.000174
 204	2.0198e+01	8.0773	37.466638	0.000345	3.446403	1.167673	0.000138
 205	2.0298e+01	8.1190	37.636198	0.000426	4.257321	1.442419	0.000170
 206	2.0398e+01	8.1527	37.809795	0.000436	4.358686	1.476763	0.000174
 207	2.0497e+01	8.2024	37.967243	0.000395	3.953226	1.339389	0.000158
 208	2.0596e+01	8.2425	38.144877	0.000446	4.460050	1.511106	0.000179
 209	2.0696e+01	8.2875	38.290214	0.000365	3.649132	1.236359	0.000146
 210	2.0796e+01	8.3131	38.500145	0.000527	5.270969	1.785853	0.000211
 211	2.0895e+01	8.3661	38.645482	0.000365	3.649132	1.236359	0.000146
 212	2.0994e+01	8.4046	38.802930	0.000395	3.953226	1.339389	0.000158
 213	2.1094e+01	8.4302	38.920007	0.000294	2.939579	0.995956	0.000118
 214	2.1194e+01	8.4768	39.150124	0.000578	5.777793	1.957569	0.000231
 215	2.1293e+01	8.5201	39.299498	0.000375	3.750497	1.270703	0.000150
 216	2.1392e+01	8.5602	39.436760	0.000345	3.446403	1.167673	0.000138
 217	2.1492e+01	8.5971	39.598246	0.000405	4.054591	1.373733	0.000162
 218	2.1591e+01	8.6436	39.779917	0.000456	4.561415	1.545449	0.000183
 219	2.1691e+01	8.6741	39.901031	0.000304	3.040943	1.030300	0.000122
 220	2.1791e+01	8.7238	40.066554	0.000416	4.155956	1.408076	0.000166
 221	2.1890e+01	8.7527	40.211891	0.000365	3.649132	1.236359	0.000146
 222	2.1989e+01	8.8008	40.405673	0.000487	4.865509	1.648479	0.000195
 223	2.2089e+01	8.8345	40.546973	0.000355	3.547767	1.202016	0.000142
 224	2.2189e+01	8.8730	40.724607	0.000446	4.460050	1.511106	0.000179
 225	2.2288e+01	8.9211	40.849758	0.000314	3.142308	1.064643	0.000126
 226	2.2387e+01	8.9548	41.015281	0.000416	4.155956	1.408076	0.000166
 227	2.2487e+01	8.9997	41.148506	0.000335	3.345038	1.133329	0.000134
 228	2.2587e+01	9.0382	41.342289	0.000487	4.865509	1.648479	0.000195
 229	2.2686e+01	9.0800	41.491663	0.000375	3.750497	1.270703	0.000150
 230	2.2785e+01	9.1153	41.697556	0.000517	5.169604	1.751509	0.000207
 231	2.2885e+01	9.1618	41.814633	0.000294	2.939579	0.995956	0.000118
 232	2.2985e+01	9.1955	41.943822	0.000324	3.243673	1.098986	0.000130
 233	2.3084e+01	9.2356	42.125493	0.000456	4.561415	1.545449	0.000183
 234	2.3183e+01	9.2805	42.282941	0.000395	3.953226	1.339389	0.000158
 235	2.3283e+01	9.3190	42.440389	0.000395	3.953226	1.339389	0.000158
 236	2.3383e+01	9.3559	42.605912	0.000416	4.155956	1.408076	0.000166
 237	2.3482e+01	9.4008	42.747212	0.000355	3.547767	1.202016	0.000142
 238	2.3581e+01	9.4297	42.892549	0.000365	3.649132	1.236359	0.000146
 239	2.3681e+01	9.4762	43.058071	0.000416	4.155956	1.408076	0.000166
 240	2.3780e+01	9.5115	43.211482	0.000385	3.851862	1.305046	0.000154
 241	2.3880e+01	9.5516	43.409302	0.000497	4.966874	1.682823	0.000199
 242	2.3980e+01	9.5997	43.522342	0.000284	2.838214	0.961613	0.000114
 243	2.4079e+01	9.6366	43.695939	0.000436	4.358686	1.476763	0.000174
 244	2.4178e+01	9.6735	43.865498	0.000426	4.257321	1.442419	0.000170
 245	2.4278e+01	9.7136	44.002761	0.000345	3.446403	1.167673	0.000138
 246	2.4378e+01	9.7537	44.160209	0.000395	3.953226	1.339389	0.000158
 247	2.4477e+01	9.7954	44.305546	0.000365	3.649132	1.236359	0.000146
 248	2.4576e+01	9.8307	44.442809	0.000345	3.446403	1.167673	0.000138
 249	2.4676e+01	9.8676	44.596220	0.000385	3.851862	1.305046	0.000154
 250	2.4776e+01	9.9110	44.765780	0.000426	4.257321	1.442419	0.000170
 251	2.4875e+01	9.9623	44.931302	0.000416	4.155956	1.408076	0.000166
 252	2.4974e+01	10.0024	45.060491	0.000324	3.243673	1.098986	0.000130
 253	2.5074e+01	10.0313	45.197753	0.000345	3.446403	1.167673	0.000138
 254	2.5174e+01	10.0698	45.355201	0.000395	3.953226	1.339389	0.000158
 255	2.5273e+01	10.1227	45.508613	0.000385	3.851862	1.305046	0.000154
 256	2.5372e+01	10.1548	45.645875	0.000345	3.446403	1.167673	0.000138
 257	2.5472e+01	10.1933	45.795249	0.000375	3.750497	1.270703	0.000150
 258	2.5572e+01	10.2334	45.972883	0.000446	4.460050	1.511106	0.000179
 259	2.5671e+01	10.2799	46.098034	0.000314	3.142308	1.064643	0.000126
 260	2.5770e+01	10.3120	46.267594	0.000426	4.257321	1.442419	0.000170
 261	2.5870e+01	10.3505	46.400820	0.000335	3.345038	1.133329	0.000134
 262	2.5970e+01	10.4002	46.530008	0.000324	3.243673	1.098986	0.000130
 263	2.6069e+01	10.4371	46.691493	0.000405	4.054591	1.373733	0.000162
 264	2.6169e+01	10.4740	46.889313	0.000497	4.966874	1.682823	0.000199
 265	2.6268e+01	10.5238	47.022539	0.000335	3.345038	1.133329	0.000134
 266	2.6367e+01	10.5462	47.127504	0.000264	2.635484	0.892926	0.000105
 267	2.6467e+01	10.5895	47.288989	0.000405	4.054591	1.373733	0.000162
 268	2.6567e+01	10.6345	47.446438	0.000395	3.953226	1.339389	0.000158
 269	2.6666e+01	10.6714	47.575626	0.000324	3.243673	1.098986	0.000130
 270	2.6765e+01	10.7066	47.733074	0.000395	3.953226	1.339389	0.000158
 271	2.6865e+01	10.7564	47.886486	0.000385	3.851862	1.305046	0.000154
 272	2.6965e+01	10.7869	48.031822	0.000365	3.649132	1.236359	0.000146
 273	2.7064e+01	10.8366	48.140825	0.000274	2.736849	0.927270	0.000110
 274	2.7163e+01	10.8703	48.322496	0.000456	4.561415	1.545449	0.000183
 275	2.7263e+01	10.9040	48.455722	0.000335	3.345038	1.133329	0.000134
 276	2.7363e+01	10.9505	48.625281	0.000426	4.257321	1.442419	0.000170
 277	2.7462e+01	10.9906	48.778693	0.000385	3.851862	1.305046	0.000154
 278	2.7561e+01	11.0275	48.924029	0.000365	3.649132	1.236359	0.000146
 279	2.7661e+01	11.0692	49.016884	0.000233	2.331390	0.789896	0.000093
 280	2.7761e+01	11.1093	49.218740	0.000507	5.068239	1.717166	0.000203
 281	2.7860e+01	11.1462	49.335817	0.000294	2.939579	0.995956	0.000118
 282	2.7959e+01	11.1895	49.485191	0.000375	3.750497	1.270703	0.000150
 283	2.8059e+01	11.2216	49.630528	0.000365	3.649132	1.236359	0.000146
 284	2.8159e+01	11.2713	49.779902	0.000375	3.750497	1.270703	0.000150
 285	2.8258e+01	11.3066	49.925239	0.000365	3.649132	1.236359	0.000146
 286	2.8358e+01	11.3467	50.066539	0.000355	3.547767	1.202016	0.000142
 287	2.8457e+01	11.3933	50.199764	0.000335	3.345038	1.133329	0.000134
 288	2.8556e+01	11.4237	50.361250	0.000405	4.054591	1.373733	0.000162
 289	2.8656e+01	11.4719	50.482364	0.000304	3.040943	1.030300	0.000122
 290	2.8756e+01	11.5152	50.664035	0.000456	4.561415	1.545449	0.000183
 291	2.8855e+01	11.5441	50.773038	0.000274	2.736849	0.927270	0.000110
 292	2.8954e+01	11.5906	50.942597	0.000426	4.257321	1.442419	0.000170
 293	2.9054e+01	11.6323	51.083897	0.000355	3.547767	1.202016	0.000142
 294	2.9154e+01	11.6692	51.237308	0.000385	3.851862	1.305046	0.000154
 295	2.9253e+01	11.7109	51.370534	0.000335	3.345038	1.133329	0.000134
 296	2.9352e+01	11.7494	51.491648	0.000304	3.040943	1.030300	0.000122
 297	2.9452e+01	11.7911	51.612762	0.000304	3.040943	1.030300	0.000122
 298	2.9552e+01	11.8264	51.786359	0.000436	4.358686	1.476763	0.000174
 299	2.9651e+01	11.8617	51.959956	0.000436	4.358686	1.476763	0.000174
 300	2.9750e+01	11.9162	52.048773	0.000223	2.230025	0.755553	0.000089
 301	2.9850e+01	11.9435	52.238518	0.000476	4.764145	1.614136	0.000191
 302	2.9950e+01	11.9916	52.359632	0.000304	3.040943	1.030300	0.000122
 303	3.0049e+01	12.0317	52.500932	0.000355	3.547767	1.202016	0.000142
 304	3.0148e+01	12.0735	52.682603	0.000456	4.561415	1.545449	0.000183
 305	3.0248e+01	12.0975	52.771420	0.000223	2.230025	0.755553	0.000089
 306	3.0348e+01	12.1440	52.957128	0.000466	4.662780	1.579793	0.000187
 307	3.0447e+01	12.1809	53.066131	0.000274	2.736849	0.927270	0.000110
 308	3.0547e+01	12.2275	53.203393	0.000345	3.446403	1.167673	0.000138
 309	3.0646e+01	12.2579	53.356804	0.000385	3.851862	1.305046	0.000154
 310	3.0745e+01	12.2980	53.490030	0.000335	3.345038	1.133329	0.000134
 311	3.0845e+01	12.3446	53.631330	0.000355	3.547767	1.202016	0.000142
 312	3.0945e+01	12.3847	53.796852	0.000416	4.155956	1.408076	0.000166
 313	3.1044e+01	12.4280	53.926041	0.000324	3.243673	1.098986	0.000130
 314	3.1143e+01	12.4745	54.039080	0.000284	2.838214	0.961613	0.000114
 315	3.1243e+01	12.5082	54.192492	0.000385	3.851862	1.305046	0.000154
 316	3.1343e+01	12.5531	54.366088	0.000436	4.358686	1.476763	0.000174
 317	3.1442e+01	12.5788	54.446831	0.000203	2.027296	0.686866	0.000081
 318	3.1541e+01	12.6301	54.620428	0.000436	4.358686	1.476763	0.000174
 319	3.1641e+01	12.6654	54.757691	0.000345	3.446403	1.167673	0.000138
 320	3.1741e+01	12.7023	54.874768	0.000294	2.939579	0.995956	0.000118
 321	3.1840e+01	12.7456	55.036253	0.000405	4.054591	1.373733	0.000162
 322	3.1939e+01	12.7954	55.153330	0.000294	2.939579	0.995956	0.000118
 323	3.2039e+01	12.8242	55.274444	0.000304	3.040943	1.030300	0.000122
 324	3.2139e+01	12.8627	55.415744	0.000355	3.547767	1.202016	0.000142
 325	3.2238e+01	12.9109	55.573192	0.000395	3.953226	1.339389	0.000158
 326	3.2337e+01	12.9446	55.690269	0.000294	2.939579	0.995956	0.000118
 327	3.2437e+01	12.9718	55.831569	0.000355	3.547767	1.202016	0.000142
 328	3.2536e+01	13.0151	56.001128	0.000426	4.257321	1.442419	0.000170
 329	3.2636e+01	13.0536	56.081871	0.000203	2.027296	0.686866	0.000081
 330	3.2736e+01	13.1034	56.227208	0.000365	3.649132	1.236359	0.000146
 331	3.2835e+01	13.1371	56.364471	0.000345	3.446403	1.167673	0.000138
 332	3.2934e+01	13.1708	56.473473	0.000274	2.736849	0.927270	0.000110
 333	3.3034e+01	13.2189	56.683404	0.000527	5.270969	1.785853	0.000211
 334	3.3133e+01	13.2606	56.780296	0.000243	2.432755	0.824240	0.000097
 335	3.3233e+01	13.3007	56.933707	0.000385	3.851862	1.305046	0.000154
 336	3.3333e+01	13.3424	57.030598	0.000243	2.432755	0.824240	0.000097
 337	3.3432e+01	13.3761	57.200158	0.000426	4.257321	1.442419	0.000170
 338	3.3532e+01	13.4226	57.293012	0.000233	2.331390	0.789896	0.000093
 339	3.3631e+01	13.4611	57.454497	0.000405	4.054591	1.373733	0.000162
 340	3.3730e+01	13.4980	57.607908	0.000385	3.851862	1.305046	0.000154
 341	3.3830e+01	13.5301	57.773431	0.000416	4.155956	1.408076	0.000166
 342	3.3929e+01	13.5718	57.902619	0.000324	3.243673	1.098986	0.000130
 343	3.4029e+01	13.6183	58.031808	0.000324	3.243673	1.098986	0.000130
 344	3.4129e+01	13.6536	58.132736	0.000253	2.534120	0.858583	0.000101
 345	3.4228e+01	13.6969	58.302296	0.000426	4.257321	1.442419	0.000170
 346	3.4328e+01	13.7322	58.431484	0.000324	3.243673	1.098986	0.000130
 347	3.4427e+01	13.7772	58.560672	0.000324	3.243673	1.098986	0.000130
 348	3.4526e+01	13.8221	58.677749	0.000294	2.939579	0.995956	0.000118
 349	3.4626e+01	13.8461	58.859420	0.000456	4.561415	1.545449	0.000183
 350	3.4725e+01	13.8975	58.960349	0.000253	2.534120	0.858583	0.000101
 351	3.4825e+01	13.9360	59.113760	0.000385	3.851862	1.305046	0.000154
 352	3.4925e+01	13.9761	59.234874	0.000304	3.040943	1.030300	0.000122
 353	3.5024e+01	14.0114	59.384248	0.000375	3.750497	1.270703	0.000150
 354	3.5123e+01	14.0563	59.477102	0.000233	2.331390	0.789896	0.000093
 355	3.5223e+01	14.0868	59.638588	0.000405	4.054591	1.373733	0.000162
 356	3.5322e+01	14.1397	59.751627	0.000284	2.838214	0.961613	0.000114
 357	3.5422e+01	14.1718	59.888890	0.000345	3.446403	1.167673	0.000138
 358	3.5522e+01	14.2055	60.034227	0.000365	3.649132	1.236359	0.000146
 359	3.5621e+01	14.2504	60.187638	0.000385	3.851862	1.305046	0.000154
 360	3.5721e+01	14.2841	60.288567	0.000253	2.534120	0.858583	0.000101
 361	3.5820e+01	14.3434	60.470238	0.000456	4.561415	1.545449	0.000183
 362	3.5919e+01	14.3868	60.591352	0.000304	3.040943	1.030300	0.000122
 363	3.6019e+01	14.4172	60.712466	0.000304	3.040943	1.030300	0.000122
 364	3.6118e+01	14.4509	60.869914	0.000395	3.953226	1.339389	0.000158
 365	3.6218e+01	14.5023	60.950657	0.000203	2.027296	0.686866	0.000081
 366	3.6318e+01	14.5327	61.091957	0.000355	3.547767	1.202016	0.000142
 367	3.6417e+01	14.5712	61.245368	0.000385	3.851862	1.305046	0.000154
 368	3.6517e+01	14.6114	61.382630	0.000345	3.446403	1.167673	0.000138
 369	3.6616e+01	14.6547	61.511819	0.000324	3.243673	1.098986	0.000130
 370	3.6715e+01	14.6964	61.624858	0.000284	2.838214	0.961613	0.000114
 371	3.6815e+01	14.7397	61.729824	0.000264	2.635484	0.892926	0.000105
 372	3.6914e+01	14.7734	61.899384	0.000426	4.257321	1.442419	0.000170
 373	3.7014e+01	14.8087	62.068943	0.000426	4.257321	1.442419	0.000170
 374	3.7114e+01	14.8552	62.153723	0.000213	2.128660	0.721210	0.000085
 375	3.7213e+01	14.8985	62.295023	0.000355	3.547767	1.202016	0.000142
 376	3.7313e+01	14.9306	62.404026	0.000274	2.736849	0.927270	0.000110
 377	3.7412e+01	14.9659	62.525140	0.000304	3.040943	1.030300	0.000122
 378	3.7511e+01	15.0012	62.690662	0.000416	4.155956	1.408076	0.000166
 379	3.7611e+01	15.0477	62.811776	0.000304	3.040943	1.030300	0.000122
 380	3.7711e+01	15.0878	62.949039	0.000345	3.446403	1.167673	0.000138
 381	3.7810e+01	15.1295	63.058042	0.000274	2.736849	0.927270	0.000110
 382	3.7910e+01	15.1696	63.195304	0.000345	3.446403	1.167673	0.000138
 383	3.8009e+01	15.2097	63.296233	0.000253	2.534120	0.858583	0.000101
 384	3.8108e+01	15.2546	63.469830	0.000436	4.358686	1.476763	0.000174
 385	3.8208e+01	15.2899	63.550572	0.000203	2.027296	0.686866	0.000081
 386	3.8307e+01	15.3333	63.679761	0.000324	3.243673	1.098986	0.000130
 387	3.8407e+01	15.3734	63.833172	0.000385	3.851862	1.305046	0.000154
 388	3.8507e+01	15.4038	63.942174	0.000274	2.736849	0.927270	0.000110
 389	3.8606e+01	15.4552	64.091548	0.000375	3.750497	1.270703	0.000150
 390	3.8706e+01	15.4905	64.208625	0.000294	2.939579	0.995956	0.000118
 391	3.8805e+01	15.5322	64.301479	0.000233	2.331390	0.789896	0.000093
 392	3.8904e+01	15.5755	64.467002	0.000416	4.155956	1.408076	0.000166
 393	3.9004e+01	15.6092	64.588116	0.000304	3.040943	1.030300	0.000122
 394	3.9103e+01	15.6541	64.745564	0.000395	3.953226	1.339389	0.000158
 395	3.9203e+01	15.6846	64.818233	0.000182	1.824566	0.618180	0.000073
 396	3.9303e+01	15.7311	64.991830	0.000436	4.358686	1.476763	0.000174
 397	3.9402e+01	15.7664	65.104869	0.000284	2.838214	0.961613	0.000114
 398	3.9502e+01	15.8113	65.221946	0.000294	2.939579	0.995956	0.000118
 399	3.9601e+01	15.8498	65.351135	0.000324	3.243673	1.098986	0.000130
 400	3.9700e+01	15.8883	65.476286	0.000314	3.142308	1.064643	0.000126
 401	3.9800e+01	15.9316	65.605474	0.000324	3.243673	1.098986	0.000130
 402	3.9900e+01	15.9653	65.698328	0.000233	2.331390	0.789896	0.000093
 403	3.9999e+01	16.0054	65.871925	0.000436	4.358686	1.476763	0.000174
 404	4.0099e+01	16.0552	65.989002	0.000294	2.939579	0.995956	0.000118
 405	4.0198e+01	16.0889	66.077819	0.000223	2.230025	0.755553	0.000089
 406	4.0297e+01	16.1322	66.219119	0.000355	3.547767	1.202016	0.000142
 407	4.0397e+01	16.1707	66.332159	0.000284	2.838214	0.961613	0.000114
 408	4.0496e+01	16.1995	66.477496	0.000365	3.649132	1.236359	0.000146
 409	4.0596e+01	16.2557	66.562275	0.000213	2.128660	0.721210	0.000085
 410	4.0696e+01	16.2862	66.735872	0.000436	4.358686	1.476763	0.000174
 411	4.0795e+01	16.3183	66.869098	0.000335	3.345038	1.133329	0.000134
 412	4.0895e+01	16.3632	66.953878	0.000213	2.128660	0.721210	0.000085
 413	4.0994e+01	16.4097	67.107289	0.000385	3.851862	1.305046	0.000154
 414	4.1093e+01	16.4482	67.248589	0.000355	3.547767	1.202016	0.000142
 415	4.1193e+01	16.4835	67.349517	0.000253	2.534120	0.858583	0.000101
 416	4.1292e+01	16.5220	67.506965	0.000395	3.953226	1.339389	0.000158
 417	4.1392e+01	16.5701	67.587708	0.000203	2.027296	0.686866	0.000081
 418	4.1492e+01	16.6070	67.688636	0.000253	2.534120	0.858583	0.000101
 419	4.1591e+01	16.6455	67.821862	0.000335	3.345038	1.133329	0.000134
 420	4.1691e+01	16.6840	67.967199	0.000365	3.649132	1.236359	0.000146
 421	4.1790e+01	16.7305	68.092350	0.000314	3.142308	1.064643	0.000126
 422	4.1889e+01	16.7690	68.205390	0.000284	2.838214	0.961613	0.000114
 423	4.1989e+01	16.8059	68.334578	0.000324	3.243673	1.098986	0.000130
 424	4.2089e+01	16.8509	68.475878	0.000355	3.547767	1.202016	0.000142
 425	4.2188e+01	16.8765	68.572769	0.000243	2.432755	0.824240	0.000097
 426	4.2288e+01	16.9214	68.681772	0.000274	2.736849	0.927270	0.000110
 427	4.2387e+01	16.9664	68.839220	0.000395	3.953226	1.339389	0.000158
 428	4.2486e+01	17.0017	68.936111	0.000243	2.432755	0.824240	0.000097
 429	4.2586e+01	17.0466	69.045114	0.000274	2.736849	0.927270	0.000110
 430	4.2685e+01	17.0915	69.190451	0.000365	3.649132	1.236359	0.000146
 431	4.2785e+01	17.1204	69.263119	0.000182	1.824566	0.618180	0.000073
 432	4.2885e+01	17.1701	69.420568	0.000395	3.953226	1.339389	0.000158
 433	4.2984e+01	17.2086	69.501310	0.000203	2.027296	0.686866	0.000081
 434	4.3084e+01	17.2407	69.646647	0.000365	3.649132	1.236359	0.000146
 435	4.3183e+01	17.2872	69.731427	0.000213	2.128660	0.721210	0.000085
 436	4.3282e+01	17.3177	69.884838	0.000385	3.851862	1.305046	0.000154
 437	4.3382e+01	17.3626	69.973655	0.000223	2.230025	0.755553	0.000089
 438	4.3481e+01	17.3963	70.139178	0.000416	4.155956	1.408076	0.000166
 439	4.3581e+01	17.4412	70.240106	0.000253	2.534120	0.858583	0.000101
 440	4.3681e+01	17.4813	70.353146	0.000284	2.838214	0.961613	0.000114
 441	4.3780e+01	17.5198	70.458111	0.000264	2.635484	0.892926	0.000105
 442	4.3880e+01	17.5567	70.579226	0.000304	3.040943	1.030300	0.000122
 443	4.3979e+01	17.5968	70.684191	0.000264	2.635484	0.892926	0.000105
 444	4.4078e+01	17.6450	70.833565	0.000375	3.750497	1.270703	0.000150
 445	4.4178e+01	17.6754	70.938531	0.000264	2.635484	0.892926	0.000105
 446	4.4278e+01	17.7236	71.027348	0.000223	2.230025	0.755553	0.000089
 447	4.4377e+01	17.7556	71.164610	0.000345	3.446403	1.167673	0.000138
 448	4.4477e+01	17.8070	71.277650	0.000284	2.838214	0.961613	0.000114
 449	4.4576e+01	17.8439	71.431061	0.000385	3.851862	1.305046	0.000154
 450	4.4675e+01	17.8776	71.499692	0.000172	1.723201	0.583836	0.000069
 451	4.4775e+01	17.9193	71.645029	0.000365	3.649132	1.236359	0.000146
 452	4.4874e+01	17.9594	71.737883	0.000233	2.331390	0.789896	0.000093
 453	4.4974e+01	18.0027	71.854960	0.000294	2.939579	0.995956	0.000118
 454	4.5074e+01	18.0396	72.024520	0.000426	4.257321	1.442419	0.000170
 455	4.5173e+01	18.0701	72.129486	0.000264	2.635484	0.892926	0.000105
 456	4.5273e+01	18.1246	72.218303	0.000223	2.230025	0.755553	0.000089
 457	4.5372e+01	18.1599	72.311157	0.000233	2.331390	0.789896	0.000093
 458	4.5471e+01	18.1920	72.452457	0.000355	3.547767	1.202016	0.000142
 459	4.5571e+01	18.2369	72.557422	0.000264	2.635484	0.892926	0.000105
 460	4.5670e+01	18.2786	72.698722	0.000355	3.547767	1.202016	0.000142
 461	4.5770e+01	18.3252	72.807724	0.000274	2.736849	0.927270	0.000110
 462	4.5870e+01	18.3701	72.896541	0.000223	2.230025	0.755553	0.000089
 463	4.5969e+01	18.4038	73.041878	0.000365	3.649132	1.236359	0.000146
 464	4.6069e+01	18.4487	73.154918	0.000284	2.838214	0.961613	0.000114
 465	4.6168e+01	18.4743	73.267958	0.000284	2.838214	0.961613	0.000114
 466	4.6267e+01	18.5112	73.380998	0.000284	2.838214	0.961613	0.000114
 467	4.6367e+01	18.5578	73.498075	0.000294	2.939579	0.995956	0.000118
 468	4.6467e+01	18.6043	73.599003	0.000253	2.534120	0.858583	0.000101
 469	4.6566e+01	18.6364	73.720117	0.000304	3.040943	1.030300	0.000122
 470	4.6666e+01	18.6925	73.817008	0.000243	2.432755	0.824240	0.000097
 471	4.6765e+01	18.7246	73.966382	0.000375	3.750497	1.270703	0.000150
 472	4.6864e+01	18.7519	74.043088	0.000193	1.925931	0.652523	0.000077
 473	4.6964e+01	18.8000	74.164202	0.000304	3.040943	1.030300	0.000122
 474	4.7063e+01	18.8353	74.281279	0.000294	2.939579	0.995956	0.000118
 475	4.7163e+01	18.8818	74.438727	0.000395	3.953226	1.339389	0.000158
 476	4.7263e+01	18.9219	74.547730	0.000274	2.736849	0.927270	0.000110
 477	4.7362e+01	18.9636	74.636547	0.000223	2.230025	0.755553	0.000089
 478	4.7462e+01	18.9941	74.757661	0.000304	3.040943	1.030300	0.000122
 479	4.7561e+01	19.0422	74.846478	0.000223	2.230025	0.755553	0.000089
 480	4.7660e+01	19.0904	74.967592	0.000304	3.040943	1.030300	0.000122
 481	4.7760e+01	19.1160	75.100818	0.000335	3.345038	1.133329	0.000134
 482	4.7859e+01	19.1545	75.213857	0.000284	2.838214	0.961613	0.000114
 483	4.7959e+01	19.2043	75.310749	0.000243	2.432755	0.824240	0.000097
 484	4.8059e+01	19.2428	75.423788	0.000284	2.838214	0.961613	0.000114
 485	4.8158e+01	19.2813	75.508568	0.000213	2.128660	0.721210	0.000085
 486	4.8258e+01	19.3102	75.661979	0.000385	3.851862	1.305046	0.000154
 487	4.8357e+01	19.3583	75.783094	0.000304	3.040943	1.030300	0.000122
 488	4.8456e+01	19.3936	75.863836	0.000203	2.027296	0.686866	0.000081
 489	4.8556e+01	19.4369	76.005136	0.000355	3.547767	1.202016	0.000142
 490	4.8656e+01	19.4786	76.089916	0.000213	2.128660	0.721210	0.000085
 491	4.8755e+01	19.5091	76.206993	0.000294	2.939579	0.995956	0.000118
 492	4.8855e+01	19.5588	76.263513	0.000142	1.419107	0.480806	0.000057
 493	4.8954e+01	19.5861	76.437109	0.000436	4.358686	1.476763	0.000174
 494	4.9053e+01	19.6358	76.525926	0.000223	2.230025	0.755553	0.000089
 495	4.9153e+01	19.6775	76.683375	0.000395	3.953226	1.339389	0.000158
 496	4.9252e+01	19.7176	76.768155	0.000213	2.128660	0.721210	0.000085
 497	4.9352e+01	19.7481	76.889269	0.000304	3.040943	1.030300	0.000122
 498	4.9452e+01	19.7930	76.978086	0.000223	2.230025	0.755553	0.000089
 499	4.9551e+01	19.8395	77.062866	0.000213	2.128660	0.721210	0.000085
 500	4.9651e+01	19.8716	77.220314	0.000395	3.953226	1.339389	0.000158
 501	4.9750e+01	19.9182	77.288945	0.000172	1.723201	0.583836	0.000069
 502	4.9849e+01	19.9502	77.442356	0.000385	3.851862	1.305046	0.000154
 503	4.9949e+01	19.9871	77.539248	0.000243	2.432755	0.824240	0.000097
 504	5.0048e+01	19.9583	77.438319	0.000253	2.534120	0.858583	-0.000101
 505	5.0148e+01	19.9005	77.353539	0.000213	2.128660	0.721210	-0.000085
 506	5.0248e+01	19.8652	77.272797	0.000203	2.027296	0.686866	-0.000081
 507	5.0347e+01	19.8315	77.163794	0.000274	2.736849	0.927270	-0.000110
 508	5.0447e+01	19.7834	77.091125	0.000182	1.824566	0.618180	-0.000073
 509	5.0546e+01	19.7658	77.038643	0.000132	1.317742	0.446463	-0.000053
 510	5.0645e+01	19.7160	76.917529	0.000304	3.040943	1.030300	-0.000122
 511	5.0745e+01	19.6791	76.828712	0.000223	2.230025	0.755553	-0.000089
 512	5.0844e+01	19.6342	76.776229	0.000132	1.317742	0.446463	-0.000053
 513	5.0944e+01	19.5845	76.679338	0.000243	2.432755	0.824240	-0.000097
 514	5.1044e+01	19.5508	76.550149	0.000324	3.243673	1.098986	-0.000130
 515	5.1143e+01	19.5139	76.465369	0.000213	2.128660	0.721210	-0.000085
 516	5.1242e+01	19.4754	76.372515	0.000233	2.331390	0.789896	-0.000093
 517	5.1342e+01	19.4401	76.283698	0.000223	2.230025	0.755553	-0.000089
 518	5.1441e+01	19.4096	76.182770	0.000253	2.534120	0.858583	-0.000101
 519	5.1541e+01	19.3583	76.073767	0.000274	2.736849	0.927270	-0.000110
 520	5.1641e+01	19.3358	76.025322	0.000122	1.216377	0.412120	-0.000049
 521	5.1740e+01	19.2733	75.920356	0.000264	2.635484	0.892926	-0.000105
 522	5.1840e+01	19.2348	75.815391	0.000264	2.635484	0.892926	-0.000105
 523	5.1939e+01	19.1946	75.742722	0.000182	1.824566	0.618180	-0.000073
 524	5.2038e+01	19.1545	75.621608	0.000304	3.040943	1.030300	-0.000122
 525	5.2138e+01	19.1257	75.516643	0.000264	2.635484	0.892926	-0.000105
 526	5.2237e+01	19.0743	75.439937	0.000193	1.925931	0.652523	-0.000077
 527	5.2337e+01	19.0310	75.343046	0.000243	2.432755	0.824240	-0.000097
 528	5.2437e+01	18.9925	75.250192	0.000233	2.331390	0.789896	-0.000093
 529	5.2536e+01	18.9524	75.137152	0.000284	2.838214	0.961613	-0.000114
 530	5.2636e+01	18.9187	75.068520	0.000172	1.723201	0.583836	-0.000069
 531	5.2735e+01	18.8802	74.975666	0.000233	2.331390	0.789896	-0.000093
 532	5.2834e+01	18.8401	74.830329	0.000365	3.649132	1.236359	-0.000146
 533	5.2934e+01	18.7968	74.745550	0.000213	2.128660	0.721210	-0.000085
 534	5.3033e+01	18.7615	74.693067	0.000132	1.317742	0.446463	-0.000053
 535	5.3133e+01	18.7262	74.600213	0.000233	2.331390	0.789896	-0.000093
 536	5.3233e+01	18.6781	74.454876	0.000365	3.649132	1.236359	-0.000146
 537	5.3332e+01	18.6428	74.386245	0.000172	1.723201	0.583836	-0.000069
 538	5.3431e+01	18.6011	74.285316	0.000253	2.534120	0.858583	-0.000101
 539	5.3531e+01	18.5530	74.156128	0.000324	3.243673	1.098986	-0.000130
 540	5.3630e+01	18.5257	74.063274	0.000233	2.331390	0.789896	-0.000093
 541	5.3730e+01	18.4679	73.970420	0.000233	2.331390	0.789896	-0.000093
 542	5.3830e+01	18.4407	73.877565	0.000233	2.331390	0.789896	-0.000093
 543	5.3929e+01	18.3893	73.784711	0.000233	2.331390	0.789896	-0.000093
 544	5.4029e+01	18.3620	73.635337	0.000375	3.750497	1.270703	-0.000150
 545	5.4128e+01	18.3203	73.562669	0.000182	1.824566	0.618180	-0.000073
 546	5.4227e+01	18.2786	73.485963	0.000193	1.925931	0.652523	-0.000077
 547	5.4327e+01	18.2417	73.368886	0.000294	2.939579	0.995956	-0.000118
 548	5.4426e+01	18.1952	73.263921	0.000264	2.635484	0.892926	-0.000105
 549	5.4526e+01	18.1599	73.171067	0.000233	2.331390	0.789896	-0.000093
 550	5.4626e+01	18.1150	73.053990	0.000294	2.939579	0.995956	-0.000118
 551	5.4725e+01	18.0781	72.997470	0.000142	1.419107	0.480806	-0.000057
 552	5.4825e+01	18.0444	72.884430	0.000284	2.838214	0.961613	-0.000114
 553	5.4924e+01	18.0027	72.803687	0.000203	2.027296	0.686866	-0.000081
 554	5.5023e+01	17.9546	72.642202	0.000405	4.054591	1.373733	-0.000162
 555	5.5123e+01	17.9209	72.525125	0.000294	2.939579	0.995956	-0.000118
 556	5.5222e+01	17.8776	72.452457	0.000182	1.824566	0.618180	-0.000073
 557	5.5322e+01	17.8487	72.355565	0.000243	2.432755	0.824240	-0.000097
 558	5.5422e+01	17.8150	72.230414	0.000314	3.142308	1.064643	-0.000126
 559	5.5521e+01	17.7669	72.157746	0.000182	1.824566	0.618180	-0.000073
 560	5.5620e+01	17.7188	72.040669	0.000294	2.939579	0.995956	-0.000118
 561	5.5720e+01	17.6899	71.980112	0.000152	1.520472	0.515150	-0.000061
 562	5.5819e+01	17.6385	71.834775	0.000365	3.649132	1.236359	-0.000146
 563	5.5919e+01	17.6016	71.749995	0.000213	2.128660	0.721210	-0.000085
 564	5.6019e+01	17.5663	71.616769	0.000335	3.345038	1.133329	-0.000134
 565	5.6118e+01	17.5278	71.511804	0.000264	2.635484	0.892926	-0.000105
 566	5.6218e+01	17.4877	71.398764	0.000284	2.838214	0.961613	-0.000114
 567	5.6317e+01	17.4444	71.334170	0.000162	1.621836	0.549493	-0.000065
 568	5.6416e+01	17.4027	71.213056	0.000304	3.040943	1.030300	-0.000122
 569	5.6516e+01	17.3658	71.091942	0.000304	3.040943	1.030300	-0.000122
 570	5.6615e+01	17.3177	71.011199	0.000203	2.027296	0.686866	-0.000081
 571	5.6715e+01	17.2776	70.926419	0.000213	2.128660	0.721210	-0.000085
 572	5.6815e+01	17.2487	70.801268	0.000314	3.142308	1.064643	-0.000126
 573	5.6914e+01	17.2086	70.659968	0.000355	3.547767	1.202016	-0.000142
 574	5.7014e+01	17.1557	70.571151	0.000223	2.230025	0.755553	-0.000089
 575	5.7113e+01	17.1236	70.478297	0.000233	2.331390	0.789896	-0.000093
 576	5.7212e+01	17.0819	70.385443	0.000233	2.331390	0.789896	-0.000093
 577	5.7312e+01	17.0450	70.300663	0.000213	2.128660	0.721210	-0.000085
 578	5.7411e+01	17.0017	70.195698	0.000264	2.635484	0.892926	-0.000105
 579	5.7511e+01	16.9680	70.098806	0.000243	2.432755	0.824240	-0.000097
 580	5.7611e+01	16.9214	69.965581	0.000335	3.345038	1.133329	-0.000134
 581	5.7710e+01	16.8846	69.832355	0.000335	3.345038	1.133329	-0.000134
 582	5.7809e+01	16.8364	69.739501	0.000233	2.331390	0.789896	-0.000093
 583	5.7909e+01	16.8124	69.650684	0.000223	2.230025	0.755553	-0.000089
 584	5.8008e+01	16.7610	69.553793	0.000243	2.432755	0.824240	-0.000097
 585	5.8108e+01	16.7225	69.432679	0.000304	3.040943	1.030300	-0.000122
 586	5.8208e+01	16.6824	69.311565	0.000304	3.040943	1.030300	-0.000122
 587	5.8307e+01	16.6391	69.230822	0.000203	2.027296	0.686866	-0.000081
 588	5.8407e+01	16.6118	69.089522	0.000355	3.547767	1.202016	-0.000142
 589	5.8506e+01	16.5669	68.996668	0.000233	2.331390	0.789896	-0.000093
 590	5.8605e+01	16.5252	68.875554	0.000304	3.040943	1.030300	-0.000122
 591	5.8705e+01	16.4947	68.758477	0.000294	2.939579	0.995956	-0.000118
 592	5.8804e+01	16.4530	68.665623	0.000233	2.331390	0.789896	-0.000093
 593	5.8904e+01	16.4097	68.568732	0.000243	2.432755	0.824240	-0.000097
 594	5.9004e+01	16.3680	68.451655	0.000294	2.939579	0.995956	-0.000118
 595	5.9103e+01	16.3199	68.318430	0.000335	3.345038	1.133329	-0.000134
 596	5.9203e+01	16.2878	68.201353	0.000294	2.939579	0.995956	-0.000118
 597	5.9302e+01	16.2445	68.112536	0.000223	2.230025	0.755553	-0.000089
 598	5.9401e+01	16.2060	68.003533	0.000274	2.736849	0.927270	-0.000110
 599	5.9501e+01	16.1707	67.890493	0.000284	2.838214	0.961613	-0.000114
 600	5.9600e+01	16.1354	67.773416	0.000294	2.939579	0.995956	-0.000118
 601	5.9700e+01	16.0824	67.668451	0.000264	2.635484	0.892926	-0.000105
 602	5.9800e+01	16.0552	67.511002	0.000395	3.953226	1.339389	-0.000158
 603	5.9899e+01	16.0054	67.454482	0.000142	1.419107	0.480806	-0.000057
 604	5.9998e+01	15.9733	67.301071	0.000385	3.851862	1.305046	-0.000154
 605	6.0098e+01	15.9284	67.212254	0.000223	2.230025	0.755553	-0.000089
 606	6.0197e+01	15.8819	67.127474	0.000213	2.128660	0.721210	-0.000085
 607	6.0297e+01	15.8594	66.998286	0.000324	3.243673	1.098986	-0.000130
 608	6.0397e+01	15.8113	66.848912	0.000375	3.750497	1.270703	-0.000150
 609	6.0496e+01	15.7728	66.756058	0.000233	2.331390	0.789896	-0.000093
 610	6.0596e+01	15.7343	66.622833	0.000335	3.345038	1.133329	-0.000134
 611	6.0695e+01	15.7022	66.534016	0.000223	2.230025	0.755553	-0.000089
 612	6.0794e+01	15.6493	66.453273	0.000203	2.027296	0.686866	-0.000081
 613	6.0894e+01	15.6124	66.287750	0.000416	4.155956	1.408076	-0.000166
 614	6.0993e+01	15.5659	66.202970	0.000213	2.128660	0.721210	-0.000085
 615	6.1093e+01	15.5274	66.089931	0.000284	2.838214	0.961613	-0.000114
 616	6.1193e+01	15.4857	65.993039	0.000243	2.432755	0.824240	-0.000097
 617	6.1292e+01	15.4456	65.880000	0.000284	2.838214	0.961613	-0.000114
 618	6.1392e+01	15.4167	65.766960	0.000284	2.838214	0.961613	-0.000114
 619	6.1491e+01	15.3782	65.621623	0.000365	3.649132	1.236359	-0.000146
 620	6.1590e+01	15.3284	65.520694	0.000253	2.534120	0.858583	-0.000101
 621	6.1690e+01	15.2867	65.383432	0.000345	3.446403	1.167673	-0.000138
 622	6.1789e+01	15.2514	65.258281	0.000314	3.142308	1.064643	-0.000126
 623	6.1889e+01	15.2129	65.193686	0.000162	1.621836	0.549493	-0.000065
 624	6.1989e+01	15.1632	65.072572	0.000304	3.040943	1.030300	-0.000122
 625	6.2088e+01	15.1295	64.955495	0.000294	2.939579	0.995956	-0.000118
 626	6.2188e+01	15.0862	64.830344	0.000314	3.142308	1.064643	-0.000126
 627	6.2287e+01	15.0445	64.737490	0.000233	2.331390	0.789896	-0.000093
 628	6.2386e+01	15.0140	64.588116	0.000375	3.750497	1.270703	-0.000150
 629	6.2486e+01	14.9707	64.503336	0.000213	2.128660	0.721210	-0.000085
 630	6.2586e+01	14.9258	64.362037	0.000355	3.547767	1.202016	-0.000142
 631	6.2685e+01	14.8985	64.273220	0.000223	2.230025	0.755553	-0.000089
 632	6.2785e+01	14.8616	64.160180	0.000284	2.838214	0.961613	-0.000114
 633	6.2884e+01	14.8039	64.039066	0.000304	3.040943	1.030300	-0.000122
 634	6.2983e+01	14.7718	63.958323	0.000203	2.027296	0.686866	-0.000081
 635	6.3083e+01	14.7397	63.837209	0.000304	3.040943	1.030300	-0.000122
 636	6.3182e+01	14.6900	63.716095	0.000304	3.040943	1.030300	-0.000122
 637	6.3282e+01	14.6515	63.550572	0.000416	4.155956	1.408076	-0.000166
 638	6.3382e+01	14.6178	63.437532	0.000284	2.838214	0.961613	-0.000114
 639	6.3481e+01	14.5793	63.332567	0.000264	2.635484	0.892926	-0.000105
 640	6.3581e+01	14.5343	63.239713	0.000233	2.331390	0.789896	-0.000093
 641	6.3680e+01	14.4910	63.094376	0.000365	3.649132	1.236359	-0.000146
 642	6.3779e+01	14.4573	62.973262	0.000304	3.040943	1.030300	-0.000122
 643	6.3879e+01	14.4140	62.864259	0.000274	2.736849	0.927270	-0.000110
 644	6.3978e+01	14.3691	62.759294	0.000264	2.635484	0.892926	-0.000105
 645	6.4078e+01	14.3354	62.678551	0.000203	2.027296	0.686866	-0.000081
 646	6.4177e+01	14.2905	62.517065	0.000405	4.054591	1.373733	-0.000162
 647	6.4277e+01	14.2648	62.375766	0.000355	3.547767	1.202016	-0.000142
 648	6.4376e+01	14.2071	62.254652	0.000304	3.040943	1.030300	-0.000122
 649	6.4476e+01	14.1766	62.177946	0.000193	1.925931	0.652523	-0.000077
 650	6.4576e+01	14.1381	62.036646	0.000355	3.547767	1.202016	-0.000142
 651	6.4675e+01	14.0980	61.919569	0.000294	2.939579	0.995956	-0.000118
 652	6.4775e+01	14.0547	61.790381	0.000324	3.243673	1.098986	-0.000130
 653	6.4874e+01	14.0226	61.673304	0.000294	2.939579	0.995956	-0.000118
 654	6.4974e+01	13.9777	61.540079	0.000335	3.345038	1.133329	-0.000134
 655	6.5073e+01	13.9440	61.467410	0.000182	1.824566	0.618180	-0.000073
 656	6.5172e+01	13.9039	61.338222	0.000324	3.243673	1.098986	-0.000130
 657	6.5272e+01	13.8574	61.196922	0.000355	3.547767	1.202016	-0.000142
 658	6.5371e+01	13.8076	61.100031	0.000243	2.432755	0.824240	-0.000097
 659	6.5471e+01	13.7804	60.946620	0.000385	3.851862	1.305046	-0.000154
 660	6.5570e+01	13.7370	60.833580	0.000284	2.838214	0.961613	-0.000114
 661	6.5670e+01	13.6905	60.716503	0.000294	2.939579	0.995956	-0.000118
 662	6.5769e+01	13.6536	60.603463	0.000284	2.838214	0.961613	-0.000114
 663	6.5869e+01	13.6151	60.498498	0.000264	2.635484	0.892926	-0.000105
 664	6.5969e+01	13.5846	60.369309	0.000324	3.243673	1.098986	-0.000130
 665	6.6068e+01	13.5365	60.264344	0.000264	2.635484	0.892926	-0.000105
 666	6.6168e+01	13.4996	60.127081	0.000345	3.446403	1.167673	-0.000138
 667	6.6267e+01	13.4595	59.985781	0.000355	3.547767	1.202016	-0.000142
 668	6.6367e+01	13.4066	59.852556	0.000335	3.345038	1.133329	-0.000134
 669	6.6466e+01	13.3809	59.755665	0.000243	2.432755	0.824240	-0.000097
 670	6.6566e+01	13.3280	59.634551	0.000304	3.040943	1.030300	-0.000122
 671	6.6665e+01	13.2975	59.489214	0.000365	3.649132	1.236359	-0.000146
 672	6.6764e+01	13.2606	59.384248	0.000264	2.635484	0.892926	-0.000105
 673	6.6864e+01	13.2141	59.259097	0.000314	3.142308	1.064643	-0.000126
 674	6.6963e+01	13.1788	59.154131	0.000264	2.635484	0.892926	-0.000105
 675	6.7063e+01	13.1451	59.012832	0.000355	3.547767	1.202016	-0.000142
 676	6.7162e+01	13.1018	58.928052	0.000213	2.128660	0.721210	-0.000085
 677	6.7262e+01	13.0681	58.782715	0.000365	3.649132	1.236359	-0.000146
 678	6.7362e+01	13.0232	58.609118	0.000436	4.358686	1.476763	-0.000174
 679	6.7461e+01	12.9766	58.544524	0.000162	1.621836	0.549493	-0.000065
 680	6.7561e+01	12.9349	58.399187	0.000365	3.649132	1.236359	-0.000146
 681	6.7660e+01	12.9044	58.318444	0.000203	2.027296	0.686866	-0.000081
 682	6.7760e+01	12.8579	58.169070	0.000375	3.750497	1.270703	-0.000150
 683	6.7859e+01	12.8194	58.027771	0.000355	3.547767	1.202016	-0.000142
 684	6.7959e+01	12.7761	57.955102	0.000182	1.824566	0.618180	-0.000073
 685	6.8058e+01	12.7504	57.801691	0.000385	3.851862	1.305046	-0.000154
 686	6.8157e+01	12.7055	57.684614	0.000294	2.939579	0.995956	-0.000118
 687	6.8257e+01	12.6558	57.551389	0.000335	3.345038	1.133329	-0.000134
 688	6.8356e+01	12.6157	57.478720	0.000182	1.824566	0.618180	-0.000073
 689	6.8456e+01	12.5804	57.321272	0.000395	3.953226	1.339389	-0.000158
 690	6.8555e+01	12.5483	57.196121	0.000314	3.142308	1.064643	-0.000126
 691	6.8655e+01	12.5050	57.046747	0.000375	3.750497	1.270703	-0.000150
 692	6.8754e+01	12.4585	56.957930	0.000223	2.230025	0.755553	-0.000089
 693	6.8854e+01	12.4168	56.852964	0.000264	2.635484	0.892926	-0.000105
 694	6.8954e+01	12.3943	56.715701	0.000345	3.446403	1.167673	-0.000138
 695	6.9053e+01	12.3462	56.558253	0.000395	3.953226	1.339389	-0.000158
 696	6.9153e+01	12.3077	56.441176	0.000294	2.939579	0.995956	-0.000118
 697	6.9252e+01	12.2740	56.340248	0.000253	2.534120	0.858583	-0.000101
 698	6.9352e+01	12.2162	56.227208	0.000284	2.838214	0.961613	-0.000114
 699	6.9451e+01	12.1858	56.045537	0.000456	4.561415	1.545449	-0.000183
 700	6.9550e+01	12.1473	55.944608	0.000253	2.534120	0.858583	-0.000101
 701	6.9650e+01	12.1104	55.859829	0.000213	2.128660	0.721210	-0.000085
 702	6.9749e+01	12.0702	55.710455	0.000375	3.750497	1.270703	-0.000150
 703	6.9849e+01	12.0269	55.544932	0.000416	4.155956	1.408076	-0.000166
 704	6.9948e+01	11.9836	55.448041	0.000243	2.432755	0.824240	-0.000097
 705	7.0048e+01	11.9451	55.314815	0.000335	3.345038	1.133329	-0.000134
 706	7.0147e+01	11.9082	55.197738	0.000294	2.939579	0.995956	-0.000118
 707	7.0247e+01	11.8649	55.076624	0.000304	3.040943	1.030300	-0.000122
 708	7.0347e+01	11.8232	54.947436	0.000324	3.243673	1.098986	-0.000130
 709	7.0446e+01	11.7879	54.842470	0.000264	2.635484	0.892926	-0.000105
 710	7.0546e+01	11.7478	54.685022	0.000395	3.953226	1.339389	-0.000158
 711	7.0645e+01	11.7109	54.563908	0.000304	3.040943	1.030300	-0.000122
 712	7.0745e+01	11.6644	54.414534	0.000375	3.750497	1.270703	-0.000150
 713	7.0844e+01	11.6259	54.305531	0.000274	2.736849	0.927270	-0.000110
 714	7.0944e+01	11.5874	54.148083	0.000395	3.953226	1.339389	-0.000158
 715	7.1043e+01	11.5473	53.998709	0.000375	3.750497	1.270703	-0.000150
 716	7.1142e+01	11.5088	53.922003	0.000193	1.925931	0.652523	-0.000077
 717	7.1242e+01	11.4655	53.748407	0.000436	4.358686	1.476763	-0.000174
 718	7.1341e+01	11.4253	53.635367	0.000284	2.838214	0.961613	-0.000114
 719	7.1441e+01	11.3884	53.538476	0.000243	2.432755	0.824240	-0.000097
 720	7.1540e+01	11.3451	53.389102	0.000375	3.750497	1.270703	-0.000150
 721	7.1640e+01	11.3098	53.231653	0.000395	3.953226	1.339389	-0.000158
 722	7.1740e+01	11.2745	53.094391	0.000345	3.446403	1.167673	-0.000138
 723	7.1839e+01	11.2264	52.977314	0.000294	2.939579	0.995956	-0.000118
 724	7.1939e+01	11.1911	52.864274	0.000284	2.838214	0.961613	-0.000114
 725	7.2038e+01	11.1542	52.682603	0.000456	4.561415	1.545449	-0.000183
 726	7.2138e+01	11.0981	52.593786	0.000223	2.230025	0.755553	-0.000089
 727	7.2237e+01	11.0612	52.488820	0.000264	2.635484	0.892926	-0.000105
 728	7.2337e+01	11.0291	52.363669	0.000314	3.142308	1.064643	-0.000126
 729	7.2436e+01	10.9890	52.222369	0.000355	3.547767	1.202016	-0.000142
 730	7.2535e+01	10.9393	52.072995	0.000375	3.750497	1.270703	-0.000150
 731	7.2635e+01	10.9088	51.919584	0.000385	3.851862	1.305046	-0.000154
 732	7.2734e+01	10.8735	51.794433	0.000314	3.142308	1.064643	-0.000126
 733	7.2834e+01	10.8302	51.645059	0.000375	3.750497	1.270703	-0.000150
 734	7.2933e+01	10.7949	51.552205	0.000233	2.331390	0.789896	-0.000093
 735	7.3033e+01	10.7419	51.402831	0.000375	3.750497	1.270703	-0.000150
 736	7.3132e+01	10.7147	51.269605	0.000335	3.345038	1.133329	-0.000134
 737	7.3232e+01	10.6794	51.144454	0.000314	3.142308	1.064643	-0.000126
 738	7.3332e+01	10.6345	51.003154	0.000355	3.547767	1.202016	-0.000142
 739	7.3431e+01	10.5944	50.894152	0.000274	2.736849	0.927270	-0.000110
 740	7.3531e+01	10.5542	50.716518	0.000446	4.460050	1.511106	-0.000179
 741	7.3630e+01	10.5109	50.615589	0.000253	2.534120	0.858583	-0.000101
 742	7.3730e+01	10.4724	50.446030	0.000426	4.257321	1.442419	-0.000170
 743	7.3829e+01	10.4387	50.328953	0.000294	2.939579	0.995956	-0.000118
 744	7.3928e+01	10.3890	50.211876	0.000294	2.939579	0.995956	-0.000118
 745	7.4028e+01	10.3505	50.070576	0.000355	3.547767	1.202016	-0.000142
 746	7.4127e+01	10.3088	49.929276	0.000355	3.547767	1.202016	-0.000142
 747	7.4227e+01	10.2703	49.796051	0.000335	3.345038	1.133329	-0.000134
 748	7.4326e+01	10.2270	49.658788	0.000345	3.446403	1.167673	-0.000138
 749	7.4426e+01	10.1740	49.541711	0.000294	2.939579	0.995956	-0.000118
 750	7.4525e+01	10.1452	49.420597	0.000304	3.040943	1.030300	-0.000122
 751	7.4625e+01	10.1115	49.263149	0.000395	3.953226	1.339389	-0.000158
 752	7.4725e+01	10.0714	49.117812	0.000365	3.649132	1.236359	-0.000146
 753	7.4824e+01	10.0361	48.984586	0.000335	3.345038	1.133329	-0.000134
 754	7.4924e+01	9.9976	48.843287	0.000355	3.547767	1.202016	-0.000142
 755	7.5023e+01	9.9559	48.706024	0.000345	3.446403	1.167673	-0.000138
 756	7.5123e+01	9.9110	48.601059	0.000264	2.635484	0.892926	-0.000105
 757	7.5222e+01	9.8805	48.479945	0.000304	3.040943	1.030300	-0.000122
 758	7.5322e+01	9.8307	48.298273	0.000456	4.561415	1.545449	-0.000183
 759	7.5421e+01	9.7938	48.112565	0.000466	4.662780	1.579793	-0.000187
 760	7.5520e+01	9.7537	47.987414	0.000314	3.142308	1.064643	-0.000126
 761	7.5620e+01	9.7200	47.854188	0.000335	3.345038	1.133329	-0.000134
 762	7.5719e+01	9.6735	47.733074	0.000304	3.040943	1.030300	-0.000122
 763	7.5819e+01	9.6398	47.636183	0.000243	2.432755	0.824240	-0.000097
 764	7.5918e+01	9.5965	47.450475	0.000466	4.662780	1.579793	-0.000187
 765	7.6018e+01	9.5548	47.305138	0.000365	3.649132	1.236359	-0.000146
 766	7.6118e+01	9.5147	47.196135	0.000274	2.736849	0.927270	-0.000110
 767	7.6217e+01	9.4682	47.038687	0.000395	3.953226	1.339389	-0.000158
 768	7.6317e+01	9.4393	46.836830	0.000507	5.068239	1.717166	-0.000203
 769	7.6416e+01	9.3944	46.719753	0.000294	2.939579	0.995956	-0.000118
 770	7.6516e+01	9.3527	46.586528	0.000335	3.345038	1.133329	-0.000134
 771	7.6615e+01	9.3190	46.445228	0.000355	3.547767	1.202016	-0.000142
 772	7.6715e+01	9.2805	46.312003	0.000335	3.345038	1.133329	-0.000134
 773	7.6814e+01	9.2324	46.154554	0.000395	3.953226	1.339389	-0.000158
 774	7.6913e+01	9.1955	46.017292	0.000345	3.446403	1.167673	-0.000138
 775	7.7013e+01	9.1618	45.859843	0.000395	3.953226	1.339389	-0.000158
 776	7.7112e+01	9.1120	45.758915	0.000253	2.534120	0.858583	-0.000101
 777	7.7212e+01	9.0751	45.589355	0.000426	4.257321	1.442419	-0.000170
 778	7.7311e+01	9.0318	45.456130	0.000335	3.345038	1.133329	-0.000134
 779	7.7411e+01	9.0030	45.310793	0.000365	3.649132	1.236359	-0.000146
 780	7.7510e+01	8.9661	45.149308	0.000405	4.054591	1.373733	-0.000162
 781	7.7610e+01	8.9099	45.024156	0.000314	3.142308	1.064643	-0.000126
 782	7.7710e+01	8.8810	44.854597	0.000426	4.257321	1.442419	-0.000170
 783	7.7809e+01	8.8409	44.733483	0.000304	3.040943	1.030300	-0.000122
 784	7.7909e+01	8.7976	44.563923	0.000426	4.257321	1.442419	-0.000170
 785	7.8008e+01	8.7607	44.442809	0.000304	3.040943	1.030300	-0.000122
 786	7.8108e+01	8.7222	44.305546	0.000345	3.446403	1.167673	-0.000138
 787	7.8207e+01	8.6693	44.164246	0.000355	3.547767	1.202016	-0.000142
 788	7.8306e+01	8.6388	43.994687	0.000426	4.257321	1.442419	-0.000170
 789	7.8406e+01	8.5987	43.845313	0.000375	3.750497	1.270703	-0.000150
 790	7.8505e+01	8.5650	43.712087	0.000335	3.345038	1.133329	-0.000134
 791	7.8605e+01	8.5233	43.562713	0.000375	3.750497	1.270703	-0.000150
 792	7.8704e+01	8.4800	43.437562	0.000314	3.142308	1.064643	-0.000126
 793	7.8804e+01	8.4447	43.292225	0.000365	3.649132	1.236359	-0.000146
 794	7.8903e+01	8.4078	43.130740	0.000405	4.054591	1.373733	-0.000162
 795	7.9003e+01	8.3645	42.957143	0.000436	4.358686	1.476763	-0.000174
 796	7.9103e+01	8.3260	42.827954	0.000324	3.243673	1.098986	-0.000130
 797	7.9202e+01	8.2843	42.678580	0.000375	3.750497	1.270703	-0.000150
 798	7.9302e+01	8.2345	42.537281	0.000355	3.547767	1.202016	-0.000142
 799	7.9401e+01	8.1976	42.404055	0.000335	3.345038	1.133329	-0.000134
 800	7.9501e+01	8.1607	42.250644	0.000385	3.851862	1.305046	-0.000154
 801	7.9600e+01	8.1286	42.064936	0.000466	4.662780	1.579793	-0.000187
 802	7.9700e+01	8.0821	41.931710	0.000335	3.345038	1.133329	-0.000134
 803	7.9799e+01	8.0388	41.810596	0.000304	3.040943	1.030300	-0.000122
 804	7.9898e+01	8.0083	41.653148	0.000395	3.953226	1.339389	-0.000158
 805	7.9998e+01	7.9650	41.499737	0.000385	3.851862	1.305046	-0.000154
 806	8.0097e+01	7.9249	41.350363	0.000375	3.750497	1.270703	-0.000150
 807	8.0197e+01	7.8832	41.225212	0.000314	3.142308	1.064643	-0.000126
 808	8.0296e+01	7.8351	41.031429	0.000487	4.865509	1.648479	-0.000195
 809	8.0396e+01	7.8014	40.918389	0.000284	2.838214	0.961613	-0.000114
 810	8.0496e+01	7.7597	40.716532	0.000507	5.068239	1.717166	-0.000203
 811	8.0595e+01	7.7244	40.607530	0.000274	2.736849	0.927270	-0.000110
 812	8.0695e+01	7.6859	40.425859	0.000456	4.561415	1.545449	-0.000183
 813	8.0794e+01	7.6474	40.272448	0.000385	3.851862	1.305046	-0.000154
 814	8.0894e+01	7.5944	40.131148	0.000355	3.547767	1.202016	-0.000142
 815	8.0993e+01	7.5640	39.993885	0.000345	3.446403	1.167673	-0.000138
 816	8.1093e+01	7.5239	39.824325	0.000426	4.257321	1.442419	-0.000170
 817	8.1192e+01	7.4886	39.658803	0.000416	4.155956	1.408076	-0.000166
 818	8.1291e+01	7.4356	39.549800	0.000274	2.736849	0.927270	-0.000110
 819	8.1391e+01	7.3987	39.388315	0.000405	4.054591	1.373733	-0.000162
 820	8.1490e+01	7.3650	39.226829	0.000405	4.054591	1.373733	-0.000162
 821	8.1590e+01	7.3281	39.073418	0.000385	3.851862	1.305046	-0.000154
 822	8.1689e+01	7.2752	38.944230	0.000324	3.243673	1.098986	-0.000130
 823	8.1789e+01	7.2415	38.742373	0.000507	5.068239	1.717166	-0.000203
 824	8.1888e+01	7.1998	38.588962	0.000385	3.851862	1.305046	-0.000154
 825	8.1988e+01	7.1661	38.451699	0.000345	3.446403	1.167673	-0.000138
 826	8.2088e+01	7.1244	38.290214	0.000405	4.054591	1.373733	-0.000162
 827	8.2187e+01	7.0827	38.136803	0.000385	3.851862	1.305046	-0.000154
 828	8.2287e+01	7.0458	38.023763	0.000284	2.838214	0.961613	-0.000114
 829	8.2386e+01	7.0041	37.866315	0.000395	3.953226	1.339389	-0.000158
 830	8.2486e+01	6.9576	37.688681	0.000446	4.460050	1.511106	-0.000179
 831	8.2585e+01	6.9255	37.527195	0.000405	4.054591	1.373733	-0.000162
 832	8.2684e+01	6.8790	37.349561	0.000446	4.460050	1.511106	-0.000179
 833	8.2784e+01	6.8469	37.196150	0.000385	3.851862	1.305046	-0.000154
 834	8.2883e+01	6.8052	37.050813	0.000365	3.649132	1.236359	-0.000146
 835	8.2983e+01	6.7699	36.913551	0.000345	3.446403	1.167673	-0.000138
 836	8.3082e+01	6.7282	36.760139	0.000385	3.851862	1.305046	-0.000154
 837	8.3182e+01	6.6784	36.614803	0.000365	3.649132	1.236359	-0.000146
 838	8.3281e+01	6.6399	36.404872	0.000527	5.270969	1.785853	-0.000211
 839	8.3381e+01	6.6046	36.267609	0.000345	3.446403	1.167673	-0.000138
 840	8.3481e+01	6.5822	36.118235	0.000375	3.750497	1.270703	-0.000150
 841	8.3580e+01	6.5196	35.976935	0.000355	3.547767	1.202016	-0.000142
 842	8.3680e+01	6.4827	35.811413	0.000416	4.155956	1.408076	-0.000166
 843	8.3779e+01	6.4538	35.653964	0.000395	3.953226	1.339389	-0.000158
 844	8.3879e+01	6.4185	35.520739	0.000335	3.345038	1.133329	-0.000134
 845	8.3978e+01	6.3688	35.359253	0.000405	4.054591	1.373733	-0.000162
 846	8.4078e+01	6.3271	35.161434	0.000497	4.966874	1.682823	-0.000199
 847	8.4177e+01	6.2918	35.032245	0.000324	3.243673	1.098986	-0.000130
 848	8.4276e+01	6.2549	34.882871	0.000375	3.750497	1.270703	-0.000150
 849	8.4376e+01	6.2004	34.733497	0.000375	3.750497	1.270703	-0.000150
 850	8.4475e+01	6.1667	34.588160	0.000365	3.649132	1.236359	-0.000146
 851	8.4575e+01	6.1346	34.430712	0.000395	3.953226	1.339389	-0.000158
 852	8.4674e+01	6.0897	34.257115	0.000436	4.358686	1.476763	-0.000174
 853	8.4774e+01	6.0528	34.043147	0.000537	5.372333	1.820196	-0.000215
 854	8.4874e+01	6.0175	33.938182	0.000264	2.635484	0.892926	-0.000105
 855	8.4973e+01	5.9726	33.752473	0.000466	4.662780	1.579793	-0.000187
 856	8.5073e+01	5.9292	33.603099	0.000375	3.750497	1.270703	-0.000150
 857	8.5172e+01	5.8875	33.445651	0.000395	3.953226	1.339389	-0.000158
 858	8.5272e+01	5.8506	33.292240	0.000385	3.851862	1.305046	-0.000154
 859	8.5371e+01	5.8073	33.154977	0.000345	3.446403	1.167673	-0.000138
 860	8.5471e+01	5.7672	32.969269	0.000466	4.662780	1.579793	-0.000187
 861	8.5570e+01	5.7432	32.819895	0.000375	3.750497	1.270703	-0.000150
 862	8.5669e+01	5.6950	32.626112	0.000487	4.865509	1.648479	-0.000195
 863	8.5769e+01	5.6517	32.484813	0.000355	3.547767	1.202016	-0.000142
 864	8.5868e+01	5.6052	32.307179	0.000446	4.460050	1.511106	-0.000179
 865	8.5968e+01	5.5731	32.157805	0.000375	3.750497	1.270703	-0.000150
 866	8.6067e+01	5.5362	32.000356	0.000395	3.953226	1.339389	-0.000158
 867	8.6167e+01	5.4993	31.802537	0.000497	4.966874	1.682823	-0.000199
 868	8.6266e+01	5.4496	31.661237	0.000355	3.547767	1.202016	-0.000142
 869	8.6366e+01	5.4095	31.483603	0.000446	4.460050	1.511106	-0.000179
 870	8.6466e+01	5.3710	31.350378	0.000335	3.345038	1.133329	-0.000134
 871	8.6565e+01	5.3341	31.205041	0.000365	3.649132	1.236359	-0.000146
 872	8.6665e+01	5.3020	31.007221	0.000497	4.966874	1.682823	-0.000199
 873	8.6764e+01	5.2490	30.841698	0.000416	4.155956	1.408076	-0.000166
 874	8.6864e+01	5.2154	30.688287	0.000385	3.851862	1.305046	-0.000154
 875	8.6963e+01	5.1688	30.498542	0.000476	4.764145	1.614136	-0.000191
 876	8.7063e+01	5.1368	30.369354	0.000324	3.243673	1.098986	-0.000130
 877	8.7162e+01	5.0918	30.171534	0.000497	4.966874	1.682823	-0.000199
 878	8.7261e+01	5.0517	30.001974	0.000426	4.257321	1.442419	-0.000170
 879	8.7361e+01	5.0100	29.856637	0.000365	3.649132	1.236359	-0.000146
 880	8.7460e+01	4.9779	29.707263	0.000375	3.750497	1.270703	-0.000150
 881	8.7560e+01	4.9298	29.517518	0.000476	4.764145	1.614136	-0.000191
 882	8.7659e+01	4.8977	29.339884	0.000446	4.460050	1.511106	-0.000179
 883	8.7759e+01	4.8624	29.186473	0.000385	3.851862	1.305046	-0.000154
 884	8.7859e+01	4.8047	29.081507	0.000264	2.635484	0.892926	-0.000105
 885	8.7958e+01	4.7678	28.839279	0.000608	6.081887	2.060599	-0.000243
 886	8.8058e+01	4.7293	28.685868	0.000385	3.851862	1.305046	-0.000154
 887	8.8157e+01	4.6988	28.512271	0.000436	4.358686	1.476763	-0.000174
 888	8.8257e+01	4.6459	28.346749	0.000416	4.155956	1.408076	-0.000166
 889	8.8356e+01	4.6122	28.173152	0.000436	4.358686	1.476763	-0.000174
 890	8.8456e+01	4.5656	28.015703	0.000395	3.953226	1.339389	-0.000158
 891	8.8555e+01	4.5432	27.838069	0.000446	4.460050	1.511106	-0.000179
 892	8.8654e+01	4.4838	27.644287	0.000487	4.865509	1.648479	-0.000195
 893	8.8754e+01	4.4566	27.507024	0.000345	3.446403	1.167673	-0.000138
 894	8.8853e+01	4.4229	27.317279	0.000476	4.764145	1.614136	-0.000191
 895	8.8953e+01	4.3763	27.155794	0.000405	4.054591	1.373733	-0.000162
 896	8.9052e+01	4.3443	27.006420	0.000375	3.750497	1.270703	-0.000150
 897	8.9152e+01	4.2977	26.865120	0.000355	3.547767	1.202016	-0.000142
 898	8.9251e+01	4.2641	26.651152	0.000537	5.372333	1.820196	-0.000215
 899	8.9351e+01	4.2191	26.489666	0.000405	4.054591	1.373733	-0.000162
 900	8.9451e+01	4.1774	26.312032	0.000446	4.460050	1.511106	-0.000179
 901	8.9550e+01	4.1357	26.138435	0.000436	4.358686	1.476763	-0.000174
 902	8.9650e+01	4.1004	25.944653	0.000487	4.865509	1.648479	-0.000195
 903	8.9749e+01	4.0555	25.815464	0.000324	3.243673	1.098986	-0.000130
 904	8.9849e+01	4.0154	25.597459	0.000547	5.473698	1.854539	-0.000219
 905	8.9948e+01	3.9769	25.488456	0.000274	2.736849	0.927270	-0.000110
 906	9.0047e+01	3.9368	25.314860	0.000436	4.358686	1.476763	-0.000174
 907	9.0147e+01	3.8935	25.076669	0.000598	5.980522	2.026256	-0.000239
 908	9.0246e+01	3.8550	24.963629	0.000284	2.838214	0.961613	-0.000114
 909	9.0346e+01	3.8181	24.773883	0.000476	4.764145	1.614136	-0.000191
 910	9.0445e+01	3.7780	24.555878	0.000547	5.473698	1.854539	-0.000219
 911	9.0545e+01	3.7459	24.418616	0.000345	3.446403	1.167673	-0.000138
 912	9.0644e+01	3.7010	24.228870	0.000476	4.764145	1.614136	-0.000191
 913	9.0744e+01	3.6593	24.087570	0.000355	3.547767	1.202016	-0.000142
 914	9.0844e+01	3.6111	23.893788	0.000487	4.865509	1.648479	-0.000195
 915	9.0943e+01	3.5806	23.687894	0.000517	5.169604	1.751509	-0.000207
 916	9.1043e+01	3.5341	23.534483	0.000385	3.851862	1.305046	-0.000154
 917	9.1142e+01	3.5052	23.364923	0.000426	4.257321	1.442419	-0.000170
 918	9.1242e+01	3.4635	23.191326	0.000436	4.358686	1.476763	-0.000174
 919	9.1341e+01	3.4202	23.041952	0.000375	3.750497	1.270703	-0.000150
 920	9.1441e+01	3.3753	22.868355	0.000436	4.358686	1.476763	-0.000174
 921	9.1540e+01	3.3464	22.662461	0.000517	5.169604	1.751509	-0.000207
 922	9.1639e+01	3.3031	22.537310	0.000314	3.142308	1.064643	-0.000126
 923	9.1739e+01	3.2598	22.291045	0.000618	6.183252	2.094942	-0.000248
 924	9.1838e+01	3.2197	22.121485	0.000426	4.257321	1.442419	-0.000170
 925	9.1938e+01	3.1828	21.955963	0.000416	4.155956	1.408076	-0.000166
 926	9.2037e+01	3.1347	21.766217	0.000476	4.764145	1.614136	-0.000191
 927	9.2137e+01	3.1026	21.552249	0.000537	5.372333	1.820196	-0.000215
 928	9.2237e+01	3.0753	21.402875	0.000375	3.750497	1.270703	-0.000150
 929	9.2336e+01	3.0192	21.201018	0.000507	5.068239	1.717166	-0.000203
 930	9.2436e+01	2.9887	21.011273	0.000476	4.764145	1.614136	-0.000191
 931	9.2535e+01	2.9374	20.853825	0.000395	3.953226	1.339389	-0.000158
 932	9.2635e+01	2.9085	20.676191	0.000446	4.460050	1.511106	-0.000179
 933	9.2734e+01	2.8684	20.462222	0.000537	5.372333	1.820196	-0.000215
 934	9.2834e+01	2.8267	20.308811	0.000385	3.851862	1.305046	-0.000154
 935	9.2933e+01	2.7785	20.151363	0.000395	3.953226	1.339389	-0.000158
 936	9.3032e+01	2.7561	19.973729	0.000446	4.460050	1.511106	-0.000179
 937	9.3132e+01	2.6951	19.767835	0.000517	5.169604	1.751509	-0.000207
 938	9.3231e+01	2.6582	19.586164	0.000456	4.561415	1.545449	-0.000183
 939	9.3331e+01	2.6277	19.404493	0.000456	4.561415	1.545449	-0.000183
 940	9.3430e+01	2.5780	19.218785	0.000466	4.662780	1.579793	-0.000187
 941	9.3530e+01	2.5475	19.049225	0.000426	4.257321	1.442419	-0.000170
 942	9.3629e+01	2.5058	18.875628	0.000436	4.358686	1.476763	-0.000174
 943	9.3729e+01	2.4625	18.661660	0.000537	5.372333	1.820196	-0.000215
 944	9.3829e+01	2.4240	18.471915	0.000476	4.764145	1.614136	-0.000191
 945	9.3928e+01	2.3871	18.286206	0.000466	4.662780	1.579793	-0.000187
 946	9.4028e+01	2.3486	18.128758	0.000395	3.953226	1.339389	-0.000158
 947	9.4127e+01	2.3005	17.930938	0.000497	4.966874	1.682823	-0.000199
 948	9.4227e+01	2.2636	17.733119	0.000497	4.966874	1.682823	-0.000199
 949	9.4326e+01	2.2251	17.551448	0.000456	4.561415	1.545449	-0.000183
 950	9.4425e+01	2.1834	17.377851	0.000436	4.358686	1.476763	-0.000174
 951	9.4525e+01	2.1481	17.143697	0.000588	5.879157	1.991912	-0.000235
 952	9.4624e+01	2.0935	16.998360	0.000365	3.649132	1.236359	-0.000146
 953	9.4724e+01	2.0663	16.735946	0.000659	6.588711	2.232316	-0.000264
 954	9.4823e+01	2.0197	16.602721	0.000335	3.345038	1.133329	-0.000134
 955	9.4923e+01	1.9844	16.433161	0.000426	4.257321	1.442419	-0.000170
 956	9.5022e+01	1.9379	16.219193	0.000537	5.372333	1.820196	-0.000215
 957	9.5122e+01	1.9090	16.021373	0.000497	4.966874	1.682823	-0.000199
 958	9.5222e+01	1.8721	15.855851	0.000416	4.155956	1.408076	-0.000166
 959	9.5321e+01	1.8208	15.653994	0.000507	5.068239	1.717166	-0.000203
 960	9.5421e+01	1.7967	15.496546	0.000395	3.953226	1.339389	-0.000158
 961	9.5520e+01	1.7470	15.294689	0.000507	5.068239	1.717166	-0.000203
 962	9.5620e+01	1.6973	15.080721	0.000537	5.372333	1.820196	-0.000215
 963	9.5719e+01	1.6684	14.939421	0.000355	3.547767	1.202016	-0.000142
 964	9.5819e+01	1.6203	14.729490	0.000527	5.270969	1.785853	-0.000211
 965	9.5918e+01	1.5914	14.535707	0.000487	4.865509	1.648479	-0.000195
 966	9.6017e+01	1.5449	14.362110	0.000436	4.358686	1.476763	-0.000174
 967	9.6117e+01	1.5096	14.176402	0.000466	4.662780	1.579793	-0.000187
 968	9.6216e+01	1.4631	13.950323	0.000568	5.676428	1.923226	-0.000227
 969	9.6316e+01	1.4294	13.780763	0.000426	4.257321	1.442419	-0.000170
 970	9.6415e+01	1.3877	13.591017	0.000476	4.764145	1.614136	-0.000191
 971	9.6515e+01	1.3427	13.385124	0.000517	5.169604	1.751509	-0.000207
 972	9.6615e+01	1.3058	13.191341	0.000487	4.865509	1.648479	-0.000195
 973	9.6714e+01	1.2609	12.973336	0.000547	5.473698	1.854539	-0.000219
 974	9.6814e+01	1.2321	12.795702	0.000446	4.460050	1.511106	-0.000179
 975	9.6913e+01	1.1919	12.601919	0.000487	4.865509	1.648479	-0.000195
 976	9.7013e+01	1.1502	12.416211	0.000466	4.662780	1.579793	-0.000187
 977	9.7112e+01	1.1069	12.206280	0.000527	5.270969	1.785853	-0.000211
 978	9.7212e+01	1.0748	12.052869	0.000385	3.851862	1.305046	-0.000154
 979	9.7311e+01	1.0235	11.851012	0.000507	5.068239	1.717166	-0.000203
 980	9.7410e+01	0.9882	11.661267	0.000476	4.764145	1.614136	-0.000191
 981	9.7510e+01	0.9433	11.455373	0.000517	5.169604	1.751509	-0.000207
 982	9.7609e+01	0.9064	11.241404	0.000537	5.372333	1.820196	-0.000215
 983	9.7709e+01	0.8695	11.051659	0.000476	4.764145	1.614136	-0.000191
 984	9.7808e+01	0.8342	10.865951	0.000466	4.662780	1.579793	-0.000187
 985	9.7908e+01	0.7909	10.631797	0.000588	5.879157	1.991912	-0.000235
 986	9.8007e+01	0.7476	10.454163	0.000446	4.460050	1.511106	-0.000179
 987	9.8107e+01	0.7107	10.284603	0.000426	4.257321	1.442419	-0.000170
 988	9.8207e+01	0.6738	10.062561	0.000558	5.575063	1.888882	-0.000223
 989	9.8306e+01	0.6289	9.856667	0.000517	5.169604	1.751509	-0.000207
 990	9.8406e+01	0.5952	9.687107	0.000426	4.257321	1.442419	-0.000170
 991	9.8505e+01	0.5438	9.432768	0.000639	6.385981	2.163629	-0.000256
 992	9.8605e+01	0.5150	9.263208	0.000426	4.257321	1.442419	-0.000170
 993	9.8704e+01	0.4620	9.085574	0.000446	4.460050	1.511106	-0.000179
 994	9.8803e+01	0.4331	8.851420	0.000588	5.879157	1.991912	-0.000235
 995	9.8903e+01	0.3978	8.661675	0.000476	4.764145	1.614136	-0.000191
 996	9.9002e+01	0.3610	8.471929	0.000476	4.764145	1.614136	-0.000191
 997	9.9102e+01	0.3176	8.245850	0.000568	5.676428	1.923226	-0.000227
 998	9.9201e+01	0.2775	8.072253	0.000436	4.358686	1.476763	-0.000174
 999	9.9301e+01	0.2326	7.854248	0.000547	5.473698	1.854539	-0.000219
1000	9.9400e+01	0.1989	7.632205	0.000558	5.575063	1.888882	-0.000223
1001	9.9500e+01	0.1476	7.478794	0.000385	3.851862	1.305046	-0.000154
1002	9.9600e+01	0.1091	7.220417	0.000649	6.487346	2.197972	-0.000260
1003	9.9699e+01	0.0738	7.058932	0.000405	4.054591	1.373733	-0.000162
1004	9.9799e+01	0.0321	6.828815	0.000578	5.777793	1.957569	-0.000231
1005	9.9898e+01	0.0000	6.663293	0.000416	4.155956	1.408076	-0.000166
1006	9.9998e+01	-0.0369	6.461436	0.000507	5.068239	1.717166	-0.000203
1007	1.0010e+02	-0.0882	6.279765	0.000456	4.561415	1.545449	-0.000183
1008	1.0020e+02	-0.1251	6.045611	0.000588	5.879157	1.991912	-0.000235
1009	1.0030e+02	-0.1588	5.876051	0.000426	4.257321	1.442419	-0.000170
1010	1.0040e+02	-0.2005	5.654009	0.000558	5.575063	1.888882	-0.000223
1011	1.0050e+02	-0.2454	5.476375	0.000446	4.460050	1.511106	-0.000179
1012	1.0059e+02	-0.2807	5.262406	0.000537	5.372333	1.820196	-0.000215
1013	1.0069e+02	-0.3273	5.076698	0.000466	4.662780	1.579793	-0.000187
1014	1.0079e+02	-0.3529	4.850619	0.000568	5.676428	1.923226	-0.000227
1015	1.0089e+02	-0.4027	4.656836	0.000487	4.865509	1.648479	-0.000195
1016	1.0099e+02	-0.4444	4.426719	0.000578	5.777793	1.957569	-0.000231
1017	1.0109e+02	-0.4749	4.281382	0.000365	3.649132	1.236359	-0.000146
1018	1.0119e+02	-0.5198	4.043191	0.000598	5.980522	2.026256	-0.000239
1019	1.0129e+02	-0.5567	3.873632	0.000426	4.257321	1.442419	-0.000170
1020	1.0139e+02	-0.6064	3.679849	0.000487	4.865509	1.648479	-0.000195
1021	1.0149e+02	-0.6401	3.429547	0.000628	6.284616	2.129286	-0.000252
1022	1.0159e+02	-0.6818	3.223653	0.000517	5.169604	1.751509	-0.000207
1023	1.0169e+02	-0.7235	3.062167	0.000405	4.054591	1.373733	-0.000162
1024	1.0179e+02	-0.7476	2.848199	0.000537	5.372333	1.820196	-0.000215
1025	1.0189e+02	-0.7909	2.622120	0.000568	5.676428	1.923226	-0.000227
1026	1.0199e+02	-0.8390	2.428337	0.000487	4.865509	1.648479	-0.000195
1027	1.0209e+02	-0.8711	2.214369	0.000537	5.372333	1.820196	-0.000215
1028	1.0219e+02	-0.9112	2.020586	0.000487	4.865509	1.648479	-0.000195
1029	1.0229e+02	-0.9609	1.762210	0.000649	6.487346	2.197972	-0.000260
1030	1.0239e+02	-0.9994	1.584576	0.000446	4.460050	1.511106	-0.000179
1031	1.0248e+02	-1.0460	1.370608	0.000537	5.372333	1.820196	-0.000215
1032	1.0258e+02	-1.0748	1.184899	0.000466	4.662780	1.579793	-0.000187
1033	1.0268e+02	-1.1214	0.962857	0.000558	5.575063	1.888882	-0.000223
1034	1.0278e+02	-1.1502	0.761000	0.000507	5.068239	1.717166	-0.000203
1035	1.0288e+02	-1.2016	0.547032	0.000537	5.372333	1.820196	-0.000215
1036	1.0298e+02	-1.2417	0.333064	0.000537	5.372333	1.820196	-0.000215
1037	1.0308e+02	-1.2770	0.111021	0.000558	5.575063	1.888882	-0.000223
1038	1.0318e+02	-1.3235	-0.030279	0.000355	3.547767	1.202016	-0.000142
1039	1.0328e+02	-1.3492	-0.252321	0.000558	5.575063	1.888882	-0.000223
1040	1.0338e+02	-1.3941	-0.502623	0.000628	6.284616	2.129286	-0.000252
1041	1.0348e+02	-1.4390	-0.724666	0.000558	5.575063	1.888882	-0.000223
1042	1.0358e+02	-1.4727	-0.898263	0.000436	4.358686	1.476763	-0.000174
1043	1.0368e+02	-1.5128	-1.116268	0.000547	5.473698	1.854539	-0.000219
1044	1.0378e+02	-1.5545	-1.358496	0.000608	6.081887	2.060599	-0.000243
1045	1.0388e+02	-1.5994	-1.519982	0.000405	4.054591	1.373733	-0.000162
1046	1.0398e+02	-1.6395	-1.725876	0.000517	5.169604	1.751509	-0.000207
1047	1.0408e+02	-1.6748	-1.935807	0.000527	5.270969	1.785853	-0.000211
1048	1.0418e+02	-1.7133	-2.178035	0.000608	6.081887	2.060599	-0.000243
1049	1.0428e+02	-1.7550	-2.371817	0.000487	4.865509	1.648479	-0.000195
1050	1.0438e+02	-1.7887	-2.589823	0.000547	5.473698	1.854539	-0.000219
1051	1.0447e+02	-1.8272	-2.747271	0.000395	3.953226	1.339389	-0.000158
1052	1.0457e+02	-1.8818	-3.001610	0.000639	6.385981	2.163629	-0.000256
1053	1.0467e+02	-1.9106	-3.199430	0.000497	4.966874	1.682823	-0.000199
1054	1.0477e+02	-1.9572	-3.421473	0.000558	5.575063	1.888882	-0.000223
1055	1.0487e+02	-1.9909	-3.623329	0.000507	5.068239	1.717166	-0.000203
1056	1.0497e+02	-2.0358	-3.825186	0.000507	5.068239	1.717166	-0.000203
1057	1.0507e+02	-2.0695	-4.043191	0.000547	5.473698	1.854539	-0.000219
1058	1.0517e+02	-2.1112	-4.212751	0.000426	4.257321	1.442419	-0.000170
1059	1.0527e+02	-2.1513	-4.442868	0.000578	5.777793	1.957569	-0.000231
1060	1.0537e+02	-2.1978	-4.685096	0.000608	6.081887	2.060599	-0.000243
1061	1.0547e+02	-2.2267	-4.866767	0.000456	4.561415	1.545449	-0.000183
1062	1.0557e+02	-2.2732	-5.056513	0.000476	4.764145	1.614136	-0.000191
1063	1.0567e+02	-2.3085	-5.262406	0.000517	5.169604	1.751509	-0.000207
1064	1.0577e+02	-2.3550	-5.496560	0.000588	5.879157	1.991912	-0.000235
1065	1.0587e+02	-2.3935	-5.674194	0.000446	4.460050	1.511106	-0.000179
1066	1.0597e+02	-2.4272	-5.900274	0.000568	5.676428	1.923226	-0.000227
1067	1.0607e+02	-2.4737	-6.081945	0.000456	4.561415	1.545449	-0.000183
1068	1.0617e+02	-2.5170	-6.320136	0.000598	5.980522	2.026256	-0.000239
1069	1.0627e+02	-2.5571	-6.489696	0.000426	4.257321	1.442419	-0.000170
1070	1.0637e+02	-2.5908	-6.715775	0.000568	5.676428	1.923226	-0.000227
1071	1.0647e+02	-2.6293	-6.933781	0.000547	5.473698	1.854539	-0.000219
1072	1.0656e+02	-2.6775	-7.119489	0.000466	4.662780	1.579793	-0.000187
1073	1.0666e+02	-2.7144	-7.345568	0.000568	5.676428	1.923226	-0.000227
1074	1.0676e+02	-2.7545	-7.515128	0.000426	4.257321	1.442419	-0.000170
1075	1.0686e+02	-2.7930	-7.733134	0.000547	5.473698	1.854539	-0.000219
1076	1.0696e+02	-2.8299	-7.943065	0.000527	5.270969	1.785853	-0.000211
1077	1.0706e+02	-2.8603	-8.112624	0.000426	4.257321	1.442419	-0.000170
1078	1.0716e+02	-2.9181	-8.338704	0.000568	5.676428	1.923226	-0.000227
1079	1.0726e+02	-2.9518	-8.593043	0.000639	6.385981	2.163629	-0.000256
1080	1.0736e+02	-2.9919	-8.726269	0.000335	3.345038	1.133329	-0.000134
1081	1.0746e+02	-3.0368	-8.948311	0.000558	5.575063	1.888882	-0.000223
1082	1.0756e+02	-3.0721	-9.174391	0.000568	5.676428	1.923226	-0.000227
1083	1.0766e+02	-3.1074	-9.364136	0.000476	4.764145	1.614136	-0.000191
1084	1.0776e+02	-3.1587	-9.525622	0.000405	4.054591	1.373733	-0.000162
1085	1.0786e+02	-3.1892	-9.767850	0.000608	6.081887	2.060599	-0.000243
1086	1.0796e+02	-3.2309	-9.941447	0.000436	4.358686	1.476763	-0.000174
1087	1.0806e+02	-3.2646	-10.159452	0.000547	5.473698	1.854539	-0.000219
1088	1.0816e+02	-3.3143	-10.312863	0.000385	3.851862	1.305046	-0.000154
1089	1.0826e+02	-3.3545	-10.559129	0.000618	6.183252	2.094942	-0.000248
1090	1.0836e+02	-3.3865	-10.765022	0.000517	5.169604	1.751509	-0.000207
1091	1.0845e+02	-3.4331	-10.934582	0.000426	4.257321	1.442419	-0.000170
1092	1.0855e+02	-3.4796	-11.144513	0.000527	5.270969	1.785853	-0.000211
1093	1.0865e+02	-3.5085	-11.326184	0.000456	4.561415	1.545449	-0.000183
1094	1.0875e+02	-3.5534	-11.560338	0.000588	5.879157	1.991912	-0.000235
1095	1.0885e+02	-3.5823	-11.754121	0.000487	4.865509	1.648479	-0.000195
1096	1.0895e+02	-3.6224	-11.931755	0.000446	4.460050	1.511106	-0.000179
1097	1.0905e+02	-3.6657	-12.113426	0.000456	4.561415	1.545449	-0.000183
1098	1.0915e+02	-3.7026	-12.287023	0.000436	4.358686	1.476763	-0.000174
1099	1.0925e+02	-3.7475	-12.505028	0.000547	5.473698	1.854539	-0.000219
1100	1.0935e+02	-3.7876	-12.755330	0.000628	6.284616	2.129286	-0.000252
1101	1.0945e+02	-3.8309	-12.904704	0.000375	3.750497	1.270703	-0.000150
1102	1.0955e+02	-3.8710	-13.090413	0.000466	4.662780	1.579793	-0.000187
1103	1.0965e+02	-3.8999	-13.300344	0.000527	5.270969	1.785853	-0.000211
1104	1.0975e+02	-3.9480	-13.502200	0.000507	5.068239	1.717166	-0.000203
1105	1.0985e+02	-3.9849	-13.695983	0.000487	4.865509	1.648479	-0.000195
1106	1.0995e+02	-4.0202	-13.885728	0.000476	4.764145	1.614136	-0.000191
1107	1.1005e+02	-4.0651	-14.071437	0.000466	4.662780	1.579793	-0.000187
1108	1.1015e+02	-4.1020	-14.301553	0.000578	5.777793	1.957569	-0.000231
1109	1.1025e+02	-4.1453	-14.499373	0.000497	4.966874	1.682823	-0.000199
1110	1.1035e+02	-4.1951	-14.652784	0.000385	3.851862	1.305046	-0.000154
1111	1.1044e+02	-4.2175	-14.846567	0.000487	4.865509	1.648479	-0.000195
1112	1.1054e+02	-4.2737	-15.084758	0.000598	5.980522	2.026256	-0.000239
1113	1.1064e+02	-4.3026	-15.242206	0.000395	3.953226	1.339389	-0.000158
1114	1.1074e+02	-4.3539	-15.415803	0.000436	4.358686	1.476763	-0.000174
1115	1.1084e+02	-4.3844	-15.605548	0.000476	4.764145	1.614136	-0.000191
1116	1.1094e+02	-4.4245	-15.807405	0.000507	5.068239	1.717166	-0.000203
1117	1.1104e+02	-4.4662	-15.985039	0.000446	4.460050	1.511106	-0.000179
1118	1.1114e+02	-4.5127	-16.199007	0.000537	5.372333	1.820196	-0.000215
1119	1.1124e+02	-4.5448	-16.360493	0.000405	4.054591	1.373733	-0.000162
1120	1.1134e+02	-4.5833	-16.562349	0.000507	5.068239	1.717166	-0.000203
1121	1.1144e+02	-4.6250	-16.719798	0.000395	3.953226	1.339389	-0.000158
1122	1.1154e+02	-4.6603	-16.962026	0.000608	6.081887	2.060599	-0.000243
1123	1.1164e+02	-4.7004	-17.127548	0.000416	4.155956	1.408076	-0.000166
1124	1.1174e+02	-4.7389	-17.309219	0.000456	4.561415	1.545449	-0.000183
1125	1.1184e+02	-4.7806	-17.498965	0.000476	4.764145	1.614136	-0.000191
1126	1.1194e+02	-4.8127	-17.648339	0.000375	3.750497	1.270703	-0.000150
1127	1.1204e+02	-4.8656	-17.854233	0.000517	5.169604	1.751509	-0.000207
1128	1.1214e+02	-4.8929	-18.068201	0.000537	5.372333	1.820196	-0.000215
1129	1.1224e+02	-4.9362	-18.197389	0.000324	3.243673	1.098986	-0.000130
1130	1.1234e+02	-4.9747	-18.427506	0.000578	5.777793	1.957569	-0.000231
1131	1.1244e+02	-5.0245	-18.625326	0.000497	4.966874	1.682823	-0.000199
1132	1.1253e+02	-5.0581	-18.794885	0.000426	4.257321	1.442419	-0.000170
1133	1.1263e+02	-5.1031	-18.972519	0.000446	4.460050	1.511106	-0.000179
1134	1.1273e+02	-5.1448	-19.158228	0.000466	4.662780	1.579793	-0.000187
1135	1.1283e+02	-5.1865	-19.299527	0.000355	3.547767	1.202016	-0.000142
1136	1.1293e+02	-5.2298	-19.501384	0.000507	5.068239	1.717166	-0.000203
1137	1.1303e+02	-5.2603	-19.707278	0.000517	5.169604	1.751509	-0.000207
1138	1.1313e+02	-5.3116	-19.864726	0.000395	3.953226	1.339389	-0.000158
1139	1.1323e+02	-5.3437	-20.022175	0.000395	3.953226	1.339389	-0.000158
1140	1.1333e+02	-5.3806	-20.215957	0.000487	4.865509	1.648479	-0.000195
1141	1.1343e+02	-5.4191	-20.389554	0.000436	4.358686	1.476763	-0.000174
1142	1.1353e+02	-5.4624	-20.538928	0.000375	3.750497	1.270703	-0.000150
1143	1.1363e+02	-5.5073	-20.760971	0.000558	5.575063	1.888882	-0.000223
1144	1.1373e+02	-5.5426	-20.926493	0.000416	4.155956	1.408076	-0.000166
1145	1.1383e+02	-5.5908	-21.108164	0.000456	4.561415	1.545449	-0.000183
1146	1.1393e+02	-5.6132	-21.249464	0.000355	3.547767	1.202016	-0.000142
1147	1.1403e+02	-5.6629	-21.471506	0.000558	5.575063	1.888882	-0.000223
1148	1.1413e+02	-5.6966	-21.649140	0.000446	4.460050	1.511106	-0.000179
1149	1.1423e+02	-5.7432	-21.838886	0.000476	4.764145	1.614136	-0.000191
1150	1.1433e+02	-5.7801	-21.976148	0.000345	3.446403	1.167673	-0.000138
1151	1.1442e+02	-5.8234	-22.125522	0.000375	3.750497	1.270703	-0.000150
1152	1.1452e+02	-5.8522	-22.335453	0.000527	5.270969	1.785853	-0.000211
1153	1.1462e+02	-5.8972	-22.492902	0.000395	3.953226	1.339389	-0.000158
1154	1.1472e+02	-5.9373	-22.658424	0.000416	4.155956	1.408076	-0.000166
1155	1.1482e+02	-5.9822	-22.844133	0.000466	4.662780	1.579793	-0.000187
1156	1.1492e+02	-6.0223	-23.041952	0.000497	4.966874	1.682823	-0.000199
1157	1.1502e+02	-6.0608	-23.231698	0.000476	4.764145	1.614136	-0.000191
1158	1.1512e+02	-6.0993	-23.421443	0.000476	4.764145	1.614136	-0.000191
1159	1.1522e+02	-6.1410	-23.534483	0.000284	2.838214	0.961613	-0.000114
1160	1.1532e+02	-6.1843	-23.712117	0.000446	4.460050	1.511106	-0.000179
1161	1.1542e+02	-6.2196	-23.881676	0.000426	4.257321	1.442419	-0.000170
1162	1.1552e+02	-6.2565	-24.079496	0.000497	4.966874	1.682823	-0.000199
1163	1.1562e+02	-6.2998	-24.232907	0.000385	3.851862	1.305046	-0.000154
1164	1.1572e+02	-6.3415	-24.410541	0.000446	4.460050	1.511106	-0.000179
1165	1.1582e+02	-6.3816	-24.580101	0.000426	4.257321	1.442419	-0.000170
1166	1.1592e+02	-6.4137	-24.757735	0.000446	4.460050	1.511106	-0.000179
1167	1.1602e+02	-6.4554	-24.911146	0.000385	3.851862	1.305046	-0.000154
1168	1.1612e+02	-6.4939	-25.072632	0.000405	4.054591	1.373733	-0.000162
1169	1.1622e+02	-6.5372	-25.254303	0.000456	4.561415	1.545449	-0.000183
1170	1.1632e+02	-6.5693	-25.387528	0.000335	3.345038	1.133329	-0.000134
1171	1.1642e+02	-6.6110	-25.565162	0.000446	4.460050	1.511106	-0.000179
1172	1.1651e+02	-6.6576	-25.742796	0.000446	4.460050	1.511106	-0.000179
1173	1.1661e+02	-6.6961	-25.912356	0.000426	4.257321	1.442419	-0.000170
1174	1.1671e+02	-6.7314	-26.077878	0.000416	4.155956	1.408076	-0.000166
1175	1.1681e+02	-6.7731	-26.207067	0.000324	3.243673	1.098986	-0.000130
1176	1.1691e+02	-6.8116	-26.400849	0.000487	4.865509	1.648479	-0.000195
1177	1.1701e+02	-6.8581	-26.558297	0.000395	3.953226	1.339389	-0.000158
1178	1.1711e+02	-6.9030	-26.768229	0.000527	5.270969	1.785853	-0.000211
1179	1.1721e+02	-6.9287	-26.877231	0.000274	2.736849	0.927270	-0.000110
1180	1.1731e+02	-6.9704	-27.083125	0.000517	5.169604	1.751509	-0.000207
1181	1.1741e+02	-7.0025	-27.200202	0.000294	2.939579	0.995956	-0.000118
1182	1.1751e+02	-7.0554	-27.369762	0.000426	4.257321	1.442419	-0.000170
1183	1.1761e+02	-7.1035	-27.567581	0.000497	4.966874	1.682823	-0.000199
1184	1.1771e+02	-7.1308	-27.745215	0.000446	4.460050	1.511106	-0.000179
1185	1.1781e+02	-7.1741	-27.902664	0.000395	3.953226	1.339389	-0.000158
1186	1.1791e+02	-7.2062	-27.995518	0.000233	2.331390	0.789896	-0.000093
1187	1.1801e+02	-7.2495	-28.197375	0.000507	5.068239	1.717166	-0.000203
1188	1.1811e+02	-7.2896	-28.306377	0.000274	2.736849	0.927270	-0.000110
1189	1.1821e+02	-7.3362	-28.500160	0.000487	4.865509	1.648479	-0.000195
1190	1.1831e+02	-7.3763	-28.661645	0.000405	4.054591	1.373733	-0.000162
1191	1.1841e+02	-7.4164	-28.823131	0.000405	4.054591	1.373733	-0.000162
1192	1.1850e+02	-7.4517	-28.980579	0.000395	3.953226	1.339389	-0.000158
1193	1.1860e+02	-7.4886	-29.170324	0.000476	4.764145	1.614136	-0.000191
1194	1.1870e+02	-7.5319	-29.299513	0.000324	3.243673	1.098986	-0.000130
1195	1.1880e+02	-7.5720	-29.469072	0.000426	4.257321	1.442419	-0.000170
1196	1.1890e+02	-7.6105	-29.638632	0.000426	4.257321	1.442419	-0.000170
1197	1.1900e+02	-7.6458	-29.763783	0.000314	3.142308	1.064643	-0.000126
1198	1.1910e+02	-7.6955	-29.929306	0.000416	4.155956	1.408076	-0.000166
1199	1.1920e+02	-7.7340	-30.110977	0.000456	4.561415	1.545449	-0.000183
1200	1.1930e+02	-7.7693	-30.244202	0.000335	3.345038	1.133329	-0.000134
1201	1.1940e+02	-7.8062	-30.405688	0.000405	4.054591	1.373733	-0.000162
1202	1.1950e+02	-7.8511	-30.583322	0.000446	4.460050	1.511106	-0.000179
1203	1.1960e+02	-7.8800	-30.716547	0.000335	3.345038	1.133329	-0.000134
1204	1.1970e+02	-7.9297	-30.914367	0.000497	4.966874	1.682823	-0.000199
1205	1.1980e+02	-7.9634	-31.023370	0.000274	2.736849	0.927270	-0.000110
1206	1.1990e+02	-8.0099	-31.221189	0.000497	4.966874	1.682823	-0.000199
1207	1.2000e+02	-8.0404	-31.346340	0.000314	3.142308	1.064643	-0.000126
1208	1.2010e+02	-8.0934	-31.495714	0.000375	3.750497	1.270703	-0.000150
1209	1.2020e+02	-8.1286	-31.649126	0.000385	3.851862	1.305046	-0.000154
1210	1.2030e+02	-8.1655	-31.810611	0.000405	4.054591	1.373733	-0.000162
1211	1.2039e+02	-8.2073	-31.968059	0.000395	3.953226	1.339389	-0.000158
1212	1.2049e+02	-8.2393	-32.133582	0.000416	4.155956	1.408076	-0.000166
1213	1.2059e+02	-8.2859	-32.270845	0.000345	3.446403	1.167673	-0.000138
1214	1.2069e+02	-8.3324	-32.428293	0.000395	3.953226	1.339389	-0.000158
1215	1.2079e+02	-8.3661	-32.601890	0.000436	4.358686	1.476763	-0.000174
1216	1.2089e+02	-8.4126	-32.739152	0.000345	3.446403	1.167673	-0.000138
1217	1.2099e+02	-8.4479	-32.928898	0.000476	4.764145	1.614136	-0.000191
1218	1.2109e+02	-8.4912	-33.050012	0.000304	3.040943	1.030300	-0.000122
1219	1.2119e+02	-8.5265	-33.211497	0.000405	4.054591	1.373733	-0.000162
1220	1.2129e+02	-8.5618	-33.360871	0.000375	3.750497	1.270703	-0.000150
1221	1.2139e+02	-8.6051	-33.490060	0.000324	3.243673	1.098986	-0.000130
1222	1.2149e+02	-8.6420	-33.607136	0.000294	2.939579	0.995956	-0.000118
1223	1.2159e+02	-8.6901	-33.829179	0.000558	5.575063	1.888882	-0.000223
1224	1.2169e+02	-8.7302	-33.974516	0.000365	3.649132	1.236359	-0.000146
1225	1.2179e+02	-8.7703	-34.111778	0.000345	3.446403	1.167673	-0.000138
1226	1.2189e+02	-8.8056	-34.232892	0.000304	3.040943	1.030300	-0.000122
1227	1.2199e+02	-8.8409	-34.414564	0.000456	4.561415	1.545449	-0.000183
1228	1.2209e+02	-8.8810	-34.551826	0.000345	3.446403	1.167673	-0.000138
1229	1.2219e+02	-8.9260	-34.713312	0.000405	4.054591	1.373733	-0.000162
1230	1.2229e+02	-8.9661	-34.838463	0.000314	3.142308	1.064643	-0.000126
1231	1.2239e+02	-9.0014	-35.012060	0.000436	4.358686	1.476763	-0.000174
1232	1.2248e+02	-9.0447	-35.189694	0.000446	4.460050	1.511106	-0.000179
1233	1.2258e+02	-9.0832	-35.335031	0.000365	3.649132	1.236359	-0.000146
1234	1.2268e+02	-9.1217	-35.480367	0.000365	3.649132	1.236359	-0.000146
1235	1.2278e+02	-9.1714	-35.597444	0.000294	2.939579	0.995956	-0.000118
1236	1.2288e+02	-9.1987	-35.815450	0.000547	5.473698	1.854539	-0.000219
1237	1.2298e+02	-9.2436	-35.928490	0.000284	2.838214	0.961613	-0.000114
1238	1.2308e+02	-9.2821	-36.045566	0.000294	2.939579	0.995956	-0.000118
1239	1.2318e+02	-9.3286	-36.219163	0.000436	4.358686	1.476763	-0.000174
1240	1.2328e+02	-9.3687	-36.344314	0.000314	3.142308	1.064643	-0.000126
1241	1.2338e+02	-9.4040	-36.517911	0.000436	4.358686	1.476763	-0.000174
1242	1.2348e+02	-9.4425	-36.643063	0.000314	3.142308	1.064643	-0.000126
1243	1.2358e+02	-9.4778	-36.808585	0.000416	4.155956	1.408076	-0.000166
1244	1.2368e+02	-9.5211	-36.925662	0.000294	2.939579	0.995956	-0.000118
1245	1.2378e+02	-9.5644	-37.087147	0.000405	4.054591	1.373733	-0.000162
1246	1.2388e+02	-9.6061	-37.224410	0.000345	3.446403	1.167673	-0.000138
1247	1.2398e+02	-9.6463	-37.393970	0.000426	4.257321	1.442419	-0.000170
1248	1.2408e+02	-9.6815	-37.539307	0.000365	3.649132	1.236359	-0.000146
1249	1.2418e+02	-9.7168	-37.684644	0.000365	3.649132	1.236359	-0.000146
1250	1.2428e+02	-9.7634	-37.781535	0.000243	2.432755	0.824240	-0.000097
1251	1.2438e+02	-9.8035	-37.987429	0.000517	5.169604	1.751509	-0.000207
1252	1.2447e+02	-9.8372	-38.132766	0.000365	3.649132	1.236359	-0.000146
1253	1.2457e+02	-9.8837	-38.253880	0.000304	3.040943	1.030300	-0.000122
1254	1.2467e+02	-9.9126	-38.395179	0.000355	3.547767	1.202016	-0.000142
1255	1.2477e+02	-9.9591	-38.532442	0.000345	3.446403	1.167673	-0.000138
1256	1.2487e+02	-10.0024	-38.697965	0.000416	4.155956	1.408076	-0.000166
1257	1.2497e+02	-10.0393	-38.827153	0.000324	3.243673	1.098986	-0.000130
1258	1.2507e+02	-10.0794	-38.956341	0.000324	3.243673	1.098986	-0.000130
1259	1.2517e+02	-10.1147	-39.101678	0.000365	3.649132	1.236359	-0.000146
1260	1.2527e+02	-10.1644	-39.255089	0.000385	3.851862	1.305046	-0.000154
1261	1.2537e+02	-10.1981	-39.424649	0.000426	4.257321	1.442419	-0.000170
1262	1.2547e+02	-10.2366	-39.561912	0.000345	3.446403	1.167673	-0.000138
1263	1.2557e+02	-10.2751	-39.711286	0.000375	3.750497	1.270703	-0.000150
1264	1.2567e+02	-10.3152	-39.876808	0.000416	4.155956	1.408076	-0.000166
1265	1.2577e+02	-10.3569	-39.993885	0.000294	2.939579	0.995956	-0.000118
1266	1.2587e+02	-10.3922	-40.139222	0.000365	3.649132	1.236359	-0.000146
1267	1.2597e+02	-10.4355	-40.264373	0.000314	3.142308	1.064643	-0.000126
1268	1.2607e+02	-10.4805	-40.429896	0.000416	4.155956	1.408076	-0.000166
1269	1.2617e+02	-10.5238	-40.583307	0.000385	3.851862	1.305046	-0.000154
1270	1.2627e+02	-10.5671	-40.744792	0.000405	4.054591	1.373733	-0.000162
1271	1.2636e+02	-10.5911	-40.861869	0.000294	2.939579	0.995956	-0.000118
1272	1.2646e+02	-10.6473	-41.007206	0.000365	3.649132	1.236359	-0.000146
1273	1.2656e+02	-10.6810	-41.156580	0.000375	3.750497	1.270703	-0.000150
1274	1.2666e+02	-10.7179	-41.273657	0.000294	2.939579	0.995956	-0.000118
1275	1.2676e+02	-10.7516	-41.443217	0.000426	4.257321	1.442419	-0.000170
1276	1.2686e+02	-10.8029	-41.580480	0.000345	3.446403	1.167673	-0.000138
1277	1.2696e+02	-10.8398	-41.766188	0.000466	4.662780	1.579793	-0.000187
1278	1.2706e+02	-10.8719	-41.883265	0.000294	2.939579	0.995956	-0.000118
1279	1.2716e+02	-10.9040	-41.996305	0.000284	2.838214	0.961613	-0.000114
1280	1.2726e+02	-10.9473	-42.186050	0.000476	4.764145	1.614136	-0.000191
1281	1.2736e+02	-11.0066	-42.299090	0.000284	2.838214	0.961613	-0.000114
1282	1.2746e+02	-11.0323	-42.452501	0.000385	3.851862	1.305046	-0.000154
1283	1.2756e+02	-11.0772	-42.605912	0.000385	3.851862	1.305046	-0.000154
1284	1.2766e+02	-11.1157	-42.718952	0.000284	2.838214	0.961613	-0.000114
1285	1.2776e+02	-11.1558	-42.860252	0.000355	3.547767	1.202016	-0.000142
1286	1.2786e+02	-11.2008	-42.997514	0.000345	3.446403	1.167673	-0.000138
1287	1.2796e+02	-11.2344	-43.154962	0.000395	3.953226	1.339389	-0.000158
1288	1.2806e+02	-11.2810	-43.312411	0.000395	3.953226	1.339389	-0.000158
1289	1.2816e+02	-11.3227	-43.425451	0.000284	2.838214	0.961613	-0.000114
1290	1.2826e+02	-11.3548	-43.599047	0.000436	4.358686	1.476763	-0.000174
1291	1.2835e+02	-11.4061	-43.699976	0.000253	2.534120	0.858583	-0.000101
1292	1.2845e+02	-11.4318	-43.853387	0.000385	3.851862	1.305046	-0.000154
1293	1.2855e+02	-11.4751	-43.998724	0.000365	3.649132	1.236359	-0.000146
1294	1.2865e+02	-11.5136	-44.148098	0.000375	3.750497	1.270703	-0.000150
1295	1.2875e+02	-11.5553	-44.293435	0.000365	3.649132	1.236359	-0.000146
1296	1.2885e+02	-11.5906	-44.414549	0.000304	3.040943	1.030300	-0.000122
1297	1.2895e+02	-11.6339	-44.535663	0.000304	3.040943	1.030300	-0.000122
1298	1.2905e+02	-11.6756	-44.689074	0.000385	3.851862	1.305046	-0.000154
1299	1.2915e+02	-11.7125	-44.834411	0.000365	3.649132	1.236359	-0.000146
1300	1.2925e+02	-11.7622	-44.955525	0.000304	3.040943	1.030300	-0.000122
1301	1.2935e+02	-11.7943	-45.108936	0.000385	3.851862	1.305046	-0.000154
1302	1.2945e+02	-11.8312	-45.221976	0.000284	2.838214	0.961613	-0.000114
1303	1.2955e+02	-11.8681	-45.383461	0.000405	4.054591	1.373733	-0.000162
1304	1.2965e+02	-11.9130	-45.492464	0.000274	2.736849	0.927270	-0.000110
1305	1.2975e+02	-11.9499	-45.629727	0.000345	3.446403	1.167673	-0.000138
1306	1.2985e+02	-11.9932	-45.807361	0.000446	4.460050	1.511106	-0.000179
1307	1.2995e+02	-12.0301	-45.936549	0.000324	3.243673	1.098986	-0.000130
1308	1.3005e+02	-12.0767	-46.081886	0.000365	3.649132	1.236359	-0.000146
1309	1.3015e+02	-12.1023	-46.207037	0.000314	3.142308	1.064643	-0.000126
1310	1.3025e+02	-12.1601	-46.340263	0.000335	3.345038	1.133329	-0.000134
1311	1.3034e+02	-12.1954	-46.469451	0.000324	3.243673	1.098986	-0.000130
1312	1.3044e+02	-12.2371	-46.622862	0.000385	3.851862	1.305046	-0.000154
1313	1.3054e+02	-12.2804	-46.764162	0.000355	3.547767	1.202016	-0.000142
1314	1.3064e+02	-12.3045	-46.897387	0.000335	3.345038	1.133329	-0.000134
1315	1.3074e+02	-12.3622	-47.030613	0.000335	3.345038	1.133329	-0.000134
1316	1.3084e+02	-12.3895	-47.171913	0.000355	3.547767	1.202016	-0.000142
1317	1.3094e+02	-12.4360	-47.305138	0.000335	3.345038	1.133329	-0.000134
1318	1.3104e+02	-12.4713	-47.442401	0.000345	3.446403	1.167673	-0.000138
1319	1.3114e+02	-12.5114	-47.559478	0.000294	2.939579	0.995956	-0.000118
1320	1.3124e+02	-12.5515	-47.720963	0.000405	4.054591	1.373733	-0.000162
1321	1.3134e+02	-12.5884	-47.825929	0.000264	2.635484	0.892926	-0.000105
1322	1.3144e+02	-12.6430	-47.955117	0.000324	3.243673	1.098986	-0.000130
1323	1.3154e+02	-12.6670	-48.104491	0.000375	3.750497	1.270703	-0.000150
1324	1.3164e+02	-12.7039	-48.290199	0.000466	4.662780	1.579793	-0.000187
1325	1.3174e+02	-12.7537	-48.423425	0.000335	3.345038	1.133329	-0.000134
1326	1.3184e+02	-12.7889	-48.552613	0.000324	3.243673	1.098986	-0.000130
1327	1.3194e+02	-12.8307	-48.689876	0.000345	3.446403	1.167673	-0.000138
1328	1.3204e+02	-12.8772	-48.802915	0.000284	2.838214	0.961613	-0.000114
1329	1.3214e+02	-12.9093	-48.948252	0.000365	3.649132	1.236359	-0.000146
1330	1.3224e+02	-12.9462	-49.073403	0.000314	3.142308	1.064643	-0.000126
1331	1.3234e+02	-12.9911	-49.226815	0.000385	3.851862	1.305046	-0.000154
1332	1.3243e+02	-13.0344	-49.347929	0.000304	3.040943	1.030300	-0.000122
1333	1.3253e+02	-13.0729	-49.465006	0.000294	2.939579	0.995956	-0.000118
1334	1.3263e+02	-13.1098	-49.614380	0.000375	3.750497	1.270703	-0.000150
1335	1.3273e+02	-13.1483	-49.771828	0.000395	3.953226	1.339389	-0.000158
1336	1.3283e+02	-13.1836	-49.896979	0.000314	3.142308	1.064643	-0.000126
1337	1.3293e+02	-13.2253	-50.034242	0.000345	3.446403	1.167673	-0.000138
1338	1.3303e+02	-13.2686	-50.195727	0.000405	4.054591	1.373733	-0.000162
1339	1.3313e+02	-13.3023	-50.332990	0.000345	3.446403	1.167673	-0.000138
1340	1.3323e+02	-13.3456	-50.433918	0.000253	2.534120	0.858583	-0.000101
1341	1.3333e+02	-13.3825	-50.615589	0.000456	4.561415	1.545449	-0.000183
1342	1.3343e+02	-13.4306	-50.720555	0.000264	2.635484	0.892926	-0.000105
1343	1.3353e+02	-13.4707	-50.845706	0.000314	3.142308	1.064643	-0.000126
1344	1.3363e+02	-13.4980	-51.003154	0.000395	3.953226	1.339389	-0.000158
1345	1.3373e+02	-13.5477	-51.112157	0.000274	2.736849	0.927270	-0.000110
1346	1.3383e+02	-13.5830	-51.229234	0.000294	2.939579	0.995956	-0.000118
1347	1.3393e+02	-13.6280	-51.423016	0.000487	4.865509	1.648479	-0.000195
1348	1.3403e+02	-13.6713	-51.540093	0.000294	2.939579	0.995956	-0.000118
1349	1.3413e+02	-13.7146	-51.628910	0.000223	2.230025	0.755553	-0.000089
1350	1.3423e+02	-13.7451	-51.790396	0.000405	4.054591	1.373733	-0.000162
1351	1.3432e+02	-13.7852	-51.919584	0.000324	3.243673	1.098986	-0.000130
1352	1.3442e+02	-13.8269	-52.048773	0.000324	3.243673	1.098986	-0.000130
1353	1.3452e+02	-13.8638	-52.194109	0.000365	3.649132	1.236359	-0.000146
1354	1.3462e+02	-13.9055	-52.315223	0.000304	3.040943	1.030300	-0.000122
1355	1.3472e+02	-13.9392	-52.468635	0.000385	3.851862	1.305046	-0.000154
1356	1.3482e+02	-13.9905	-52.589749	0.000304	3.040943	1.030300	-0.000122
1357	1.3492e+02	-14.0242	-52.722974	0.000335	3.345038	1.133329	-0.000134
1358	1.3502e+02	-14.0579	-52.868311	0.000365	3.649132	1.236359	-0.000146
1359	1.3512e+02	-14.0964	-52.945017	0.000193	1.925931	0.652523	-0.000077
1360	1.3522e+02	-14.1493	-53.118613	0.000436	4.358686	1.476763	-0.000174
1361	1.3532e+02	-14.1830	-53.255876	0.000345	3.446403	1.167673	-0.000138
1362	1.3542e+02	-14.2199	-53.381027	0.000314	3.142308	1.064643	-0.000126
1363	1.3552e+02	-14.2664	-53.510216	0.000324	3.243673	1.098986	-0.000130
1364	1.3562e+02	-14.2953	-53.675738	0.000416	4.155956	1.408076	-0.000166
1365	1.3572e+02	-14.3467	-53.796852	0.000304	3.040943	1.030300	-0.000122
1366	1.3582e+02	-14.3787	-53.909892	0.000284	2.838214	0.961613	-0.000114
1367	1.3592e+02	-14.4221	-54.067340	0.000395	3.953226	1.339389	-0.000158
1368	1.3602e+02	-14.4702	-54.236900	0.000426	4.257321	1.442419	-0.000170
1369	1.3612e+02	-14.4975	-54.362051	0.000314	3.142308	1.064643	-0.000126
1370	1.3622e+02	-14.5440	-54.487202	0.000314	3.142308	1.064643	-0.000126
1371	1.3631e+02	-14.5873	-54.580057	0.000233	2.331390	0.789896	-0.000093
1372	1.3641e+02	-14.6274	-54.761728	0.000456	4.561415	1.545449	-0.000183
1373	1.3651e+02	-14.6659	-54.890916	0.000324	3.243673	1.098986	-0.000130
1374	1.3661e+02	-14.7028	-55.020104	0.000324	3.243673	1.098986	-0.000130
1375	1.3671e+02	-14.7429	-55.129107	0.000274	2.736849	0.927270	-0.000110
1376	1.3681e+02	-14.7782	-55.282518	0.000385	3.851862	1.305046	-0.000154
1377	1.3691e+02	-14.8279	-55.411707	0.000324	3.243673	1.098986	-0.000130
1378	1.3701e+02	-14.8584	-55.557043	0.000365	3.649132	1.236359	-0.000146
1379	1.3711e+02	-14.9017	-55.702380	0.000365	3.649132	1.236359	-0.000146
1380	1.3721e+02	-14.9370	-55.855792	0.000385	3.851862	1.305046	-0.000154
1381	1.3731e+02	-14.9948	-56.001128	0.000365	3.649132	1.236359	-0.000146
1382	1.3741e+02	-15.0188	-56.102057	0.000253	2.534120	0.858583	-0.000101
1383	1.3751e+02	-15.0654	-56.227208	0.000314	3.142308	1.064643	-0.000126
1384	1.3761e+02	-15.0990	-56.368508	0.000355	3.547767	1.202016	-0.000142
1385	1.3771e+02	-15.1391	-56.505770	0.000345	3.446403	1.167673	-0.000138
1386	1.3781e+02	-15.1841	-56.647070	0.000355	3.547767	1.202016	-0.000142
1387	1.3791e+02	-15.2258	-56.820667	0.000436	4.358686	1.476763	-0.000174
1388	1.3801e+02	-15.2611	-56.929670	0.000274	2.736849	0.927270	-0.000110
1389	1.3811e+02	-15.3060	-57.095192	0.000416	4.155956	1.408076	-0.000166
1390	1.3821e+02	-15.3381	-57.244566	0.000375	3.750497	1.270703	-0.000150
1391	1.3831e+02	-15.3830	-57.345495	0.000253	2.534120	0.858583	-0.000101
1392	1.3840e+02	-15.4151	-57.490831	0.000365	3.649132	1.236359	-0.000146
1393	1.3850e+02	-15.4712	-57.656354	0.000416	4.155956	1.408076	-0.000166
1394	1.3860e+02	-15.5017	-57.789580	0.000335	3.345038	1.133329	-0.000134
1395	1.3870e+02	-15.5434	-57.934916	0.000365	3.649132	1.236359	-0.000146
1396	1.3880e+02	-15.5755	-58.060068	0.000314	3.142308	1.064643	-0.000126
1397	1.3890e+02	-15.6156	-58.217516	0.000395	3.953226	1.339389	-0.000158
1398	1.3900e+02	-15.6605	-58.362853	0.000365	3.649132	1.236359	-0.000146
1399	1.3910e+02	-15.7119	-58.479930	0.000294	2.939579	0.995956	-0.000118
1400	1.3920e+02	-15.7439	-58.649489	0.000426	4.257321	1.442419	-0.000170
1401	1.3930e+02	-15.7760	-58.762529	0.000284	2.838214	0.961613	-0.000114
1402	1.3940e+02	-15.8290	-58.915940	0.000385	3.851862	1.305046	-0.000154
1403	1.3950e+02	-15.8562	-59.069352	0.000385	3.851862	1.305046	-0.000154
1404	1.3960e+02	-15.9028	-59.214688	0.000365	3.649132	1.236359	-0.000146
1405	1.3970e+02	-15.9397	-59.335803	0.000304	3.040943	1.030300	-0.000122
1406	1.3980e+02	-15.9733	-59.481139	0.000365	3.649132	1.236359	-0.000146
1407	1.3990e+02	-16.0118	-59.654736	0.000436	4.358686	1.476763	-0.000174
1408	1.4000e+02	-16.0568	-59.763739	0.000274	2.736849	0.927270	-0.000110
1409	1.4010e+02	-16.1033	-59.941373	0.000446	4.460050	1.511106	-0.000179
1410	1.4020e+02	-16.1418	-60.082673	0.000355	3.547767	1.202016	-0.000142
1411	1.4029e+02	-16.1787	-60.183601	0.000253	2.534120	0.858583	-0.000101
1412	1.4039e+02	-16.2172	-60.381421	0.000497	4.966874	1.682823	-0.000199
1413	1.4049e+02	-16.2669	-60.514646	0.000335	3.345038	1.133329	-0.000134
1414	1.4059e+02	-16.2990	-60.639797	0.000314	3.142308	1.064643	-0.000126
1415	1.4069e+02	-16.3391	-60.781097	0.000355	3.547767	1.202016	-0.000142
1416	1.4079e+02	-16.3712	-60.942583	0.000405	4.054591	1.373733	-0.000162
1417	1.4089e+02	-16.4097	-61.116179	0.000436	4.358686	1.476763	-0.000174
1418	1.4099e+02	-16.4466	-61.217108	0.000253	2.534120	0.858583	-0.000101
1419	1.4109e+02	-16.4883	-61.378593	0.000405	4.054591	1.373733	-0.000162
1420	1.4119e+02	-16.5364	-61.540079	0.000405	4.054591	1.373733	-0.000162
1421	1.4129e+02	-16.5621	-61.673304	0.000335	3.345038	1.133329	-0.000134
1422	1.4139e+02	-16.6054	-61.818641	0.000365	3.649132	1.236359	-0.000146
1423	1.4149e+02	-16.6584	-61.955904	0.000345	3.446403	1.167673	-0.000138
1424	1.4159e+02	-16.6920	-62.145649	0.000476	4.764145	1.614136	-0.000191
1425	1.4169e+02	-16.7434	-62.311172	0.000416	4.155956	1.408076	-0.000166
1426	1.4179e+02	-16.7739	-62.436323	0.000314	3.142308	1.064643	-0.000126
1427	1.4189e+02	-16.8204	-62.589734	0.000385	3.851862	1.305046	-0.000154
1428	1.4199e+02	-16.8509	-62.722959	0.000335	3.345038	1.133329	-0.000134
1429	1.4209e+02	-16.8942	-62.904631	0.000456	4.561415	1.545449	-0.000183
1430	1.4219e+02	-16.9343	-63.017670	0.000284	2.838214	0.961613	-0.000114
1431	1.4228e+02	-16.9744	-63.199341	0.000456	4.561415	1.545449	-0.000183
1432	1.4238e+02	-17.0113	-63.368901	0.000426	4.257321	1.442419	-0.000170
1433	1.4248e+02	-17.0546	-63.538461	0.000426	4.257321	1.442419	-0.000170
1434	1.4258e+02	-17.0851	-63.708021	0.000426	4.257321	1.442419	-0.000170
1435	1.4268e+02	-17.1380	-63.853357	0.000365	3.649132	1.236359	-0.000146
1436	1.4278e+02	-17.1733	-64.018880	0.000416	4.155956	1.408076	-0.000166
1437	1.4288e+02	-17.2182	-64.135957	0.000294	2.939579	0.995956	-0.000118
1438	1.4298e+02	-17.2551	-64.301479	0.000416	4.155956	1.408076	-0.000166
1439	1.4308e+02	-17.2888	-64.495262	0.000487	4.865509	1.648479	-0.000195
1440	1.4318e+02	-17.3321	-64.676933	0.000456	4.561415	1.545449	-0.000183
1441	1.4328e+02	-17.3770	-64.810159	0.000335	3.345038	1.133329	-0.000134
1442	1.4338e+02	-17.4139	-64.983755	0.000436	4.358686	1.476763	-0.000174
1443	1.4348e+02	-17.4508	-65.165427	0.000456	4.561415	1.545449	-0.000183
1444	1.4358e+02	-17.4974	-65.310763	0.000365	3.649132	1.236359	-0.000146
1445	1.4368e+02	-17.5262	-65.431877	0.000304	3.040943	1.030300	-0.000122
1446	1.4378e+02	-17.5696	-65.597400	0.000416	4.155956	1.408076	-0.000166
1447	1.4388e+02	-17.6193	-65.799257	0.000507	5.068239	1.717166	-0.000203
1448	1.4398e+02	-17.6450	-65.984965	0.000466	4.662780	1.579793	-0.000187
1449	1.4408e+02	-17.6995	-66.089931	0.000264	2.635484	0.892926	-0.000105
1450	1.4418e+02	-17.7348	-66.255453	0.000416	4.155956	1.408076	-0.000166
1451	1.4428e+02	-17.7733	-66.433087	0.000446	4.460050	1.511106	-0.000179
1452	1.4437e+02	-17.8230	-66.598610	0.000416	4.155956	1.408076	-0.000166
1453	1.4447e+02	-17.8503	-66.812578	0.000537	5.372333	1.820196	-0.000215
1454	1.4457e+02	-17.9000	-67.006360	0.000487	4.865509	1.648479	-0.000195
1455	1.4467e+02	-17.9337	-67.147660	0.000355	3.547767	1.202016	-0.000142
1456	1.4477e+02	-17.9642	-67.276849	0.000324	3.243673	1.098986	-0.000130
1457	1.4487e+02	-18.0107	-67.486780	0.000527	5.270969	1.785853	-0.000211
1458	1.4497e+02	-18.0476	-67.660376	0.000436	4.358686	1.476763	-0.000174
1459	1.4507e+02	-18.0877	-67.846085	0.000466	4.662780	1.579793	-0.000187
1460	1.4517e+02	-18.1278	-67.991422	0.000365	3.649132	1.236359	-0.000146
1461	1.4527e+02	-18.1679	-68.185204	0.000487	4.865509	1.648479	-0.000195
1462	1.4537e+02	-18.2129	-68.383024	0.000497	4.966874	1.682823	-0.000199
1463	1.4547e+02	-18.2546	-68.552583	0.000426	4.257321	1.442419	-0.000170
1464	1.4557e+02	-18.2883	-68.689846	0.000345	3.446403	1.167673	-0.000138
1465	1.4567e+02	-18.3428	-68.895740	0.000517	5.169604	1.751509	-0.000207
1466	1.4577e+02	-18.3701	-69.085485	0.000476	4.764145	1.614136	-0.000191
1467	1.4587e+02	-18.4118	-69.238896	0.000385	3.851862	1.305046	-0.000154
1468	1.4597e+02	-18.4391	-69.460939	0.000558	5.575063	1.888882	-0.000223
1469	1.4607e+02	-18.4888	-69.602239	0.000355	3.547767	1.202016	-0.000142
1470	1.4617e+02	-18.5289	-69.808133	0.000517	5.169604	1.751509	-0.000207
1471	1.4626e+02	-18.5770	-70.014027	0.000517	5.169604	1.751509	-0.000207
1472	1.4636e+02	-18.6155	-70.167438	0.000385	3.851862	1.305046	-0.000154
1473	1.4646e+02	-18.6476	-70.361220	0.000487	4.865509	1.648479	-0.000195
1474	1.4656e+02	-18.6941	-70.546928	0.000466	4.662780	1.579793	-0.000187
1475	1.4666e+02	-18.7214	-70.789157	0.000608	6.081887	2.060599	-0.000243
1476	1.4676e+02	-18.7599	-70.910271	0.000304	3.040943	1.030300	-0.000122
1477	1.4686e+02	-18.8112	-71.132313	0.000558	5.575063	1.888882	-0.000223
1478	1.4696e+02	-18.8529	-71.322059	0.000476	4.764145	1.614136	-0.000191
1479	1.4706e+02	-18.8882	-71.507767	0.000466	4.662780	1.579793	-0.000187
1480	1.4716e+02	-18.9251	-71.673289	0.000416	4.155956	1.408076	-0.000166
1481	1.4726e+02	-18.9701	-71.875146	0.000507	5.068239	1.717166	-0.000203
1482	1.4736e+02	-19.0053	-72.085077	0.000527	5.270969	1.785853	-0.000211
1483	1.4746e+02	-19.0438	-72.278860	0.000487	4.865509	1.648479	-0.000195
1484	1.4756e+02	-19.0807	-72.488791	0.000527	5.270969	1.785853	-0.000211
1485	1.4766e+02	-19.1176	-72.670462	0.000456	4.561415	1.545449	-0.000183
1486	1.4776e+02	-19.1690	-72.916727	0.000618	6.183252	2.094942	-0.000248
1487	1.4786e+02	-19.2011	-73.118584	0.000507	5.068239	1.717166	-0.000203
1488	1.4796e+02	-19.2460	-73.308329	0.000476	4.764145	1.614136	-0.000191
1489	1.4806e+02	-19.2797	-73.469815	0.000405	4.054591	1.373733	-0.000162
1490	1.4816e+02	-19.3230	-73.663597	0.000487	4.865509	1.648479	-0.000195
1491	1.4825e+02	-19.3647	-73.889677	0.000568	5.676428	1.923226	-0.000227
1492	1.4835e+02	-19.4016	-74.115756	0.000568	5.676428	1.923226	-0.000227
1493	1.4845e+02	-19.4481	-74.329725	0.000537	5.372333	1.820196	-0.000215
1494	1.4855e+02	-19.4770	-74.547730	0.000547	5.473698	1.854539	-0.000219
1495	1.4865e+02	-19.5219	-74.765735	0.000547	5.473698	1.854539	-0.000219
1496	1.4875e+02	-19.5572	-74.987778	0.000558	5.575063	1.888882	-0.000223
1497	1.4885e+02	-19.6021	-75.157337	0.000426	4.257321	1.442419	-0.000170
1498	1.4895e+02	-19.6310	-75.387454	0.000578	5.777793	1.957569	-0.000231
1499	1.4905e+02	-19.6823	-75.621608	0.000588	5.879157	1.991912	-0.000235
1500	1.4915e+02	-19.7096	-75.811353	0.000476	4.764145	1.614136	-0.000191
1501	1.4925e+02	-19.7674	-76.073767	0.000659	6.588711	2.232316	-0.000264
1502	1.4935e+02	-19.8059	-76.299847	0.000568	5.676428	1.923226	-0.000227
1503	1.4945e+02	-19.8428	-76.542075	0.000608	6.081887	2.060599	-0.000243
1504	1.4955e+02	-19.8829	-76.727783	0.000466	4.662780	1.579793	-0.000187
1505	1.4965e+02	-19.9198	-76.998271	0.000679	6.791440	2.301002	-0.000272
1506	1.4975e+02	-19.9615	-77.196091	0.000497	4.966874	1.682823	-0.000199
1507	1.4985e+02	-20.0000	-77.418133	0.000558	5.575063	1.888882	-0.000223
1508	1.4995e+02	-19.9615	-77.478691	-0.000152	-1.520472	-0.515150	-0.000061
1509	1.5005e+02	-19.9166	-77.527136	-0.000122	-1.216377	-0.412120	-0.000049
1510	1.5015e+02	-19.8780	-77.486765	0.000101	1.013648	0.343433	0.000041
1511	1.5025e+02	-19.8379	-77.535210	-0.000122	-1.216377	-0.412120	-0.000049
1512	1.5034e+02	-19.8043	-77.539248	-0.000010	-0.101365	-0.034343	-0.000004
1513	1.5044e+02	-19.7593	-77.535210	0.000010	0.101365	0.034343	0.000004
1514	1.5054e+02	-19.7224	-77.506950	0.000071	0.709553	0.240403	0.000028
1515	1.5064e+02	-19.6823	-77.515025	-0.000020	-0.202730	-0.068687	-0.000008
1516	1.5074e+02	-19.6390	-77.515025	0.000000	0.000000	0.000000	0.000000
1517	1.5084e+02	-19.5957	-77.523099	-0.000020	-0.202730	-0.068687	-0.000008
1518	1.5094e+02	-19.5588	-77.490802	0.000081	0.810918	0.274747	0.000032
1519	1.5104e+02	-19.5219	-77.486765	0.000010	0.101365	0.034343	0.000004
1520	1.5114e+02	-19.4770	-77.454468	0.000081	0.810918	0.274747	0.000032
1521	1.5124e+02	-19.4433	-77.418133	0.000091	0.912283	0.309090	0.000037
1522	1.5134e+02	-19.4032	-77.369688	0.000122	1.216377	0.412120	0.000049
1523	1.5144e+02	-19.3567	-77.365651	0.000010	0.101365	0.034343	0.000004
1524	1.5154e+02	-19.3246	-77.329316	0.000091	0.912283	0.309090	0.000037
1525	1.5164e+02	-19.2861	-77.297019	0.000081	0.810918	0.274747	0.000032
1526	1.5174e+02	-19.2556	-77.232425	0.000162	1.621836	0.549493	0.000065
1527	1.5184e+02	-19.2075	-77.163794	0.000172	1.723201	0.583836	0.000069
1528	1.5194e+02	-19.1626	-77.155720	0.000020	0.202730	0.068687	0.000008
1529	1.5204e+02	-19.1273	-77.079014	0.000193	1.925931	0.652523	0.000077
1530	1.5214e+02	-19.0856	-77.079014	0.000000	0.000000	0.000000	0.000000
1531	1.5224e+02	-19.0567	-77.034606	0.000112	1.115013	0.377776	0.000045
1532	1.5233e+02	-19.0053	-76.953863	0.000203	2.027296	0.686866	0.000081
1533	1.5243e+02	-18.9588	-76.893306	0.000152	1.520472	0.515150	0.000061
1534	1.5253e+02	-18.9235	-76.856972	0.000091	0.912283	0.309090	0.000037
1535	1.5263e+02	-18.8866	-76.792377	0.000162	1.621836	0.549493	0.000065
1536	1.5273e+02	-18.8545	-76.739895	0.000132	1.317742	0.446463	0.000053
1537	1.5283e+02	-18.8096	-76.671263	0.000172	1.723201	0.583836	0.000069
1538	1.5293e+02	-18.7679	-76.610706	0.000152	1.520472	0.515150	0.000061
1539	1.5303e+02	-18.7326	-76.562261	0.000122	1.216377	0.412120	0.000049
1540	1.5313e+02	-18.6941	-76.497667	0.000162	1.621836	0.549493	0.000065
1541	1.5323e+02	-18.6428	-76.420961	0.000193	1.925931	0.652523	0.000077
1542	1.5333e+02	-18.6043	-76.340218	0.000203	2.027296	0.686866	0.000081
1543	1.5343e+02	-18.5642	-76.263513	0.000193	1.925931	0.652523	0.000077
1544	1.5353e+02	-18.5321	-76.255438	0.000020	0.202730	0.068687	0.000008
1545	1.5363e+02	-18.4840	-76.182770	0.000182	1.824566	0.618180	0.000073
1546	1.5373e+02	-18.4471	-76.106064	0.000193	1.925931	0.652523	0.000077
1547	1.5383e+02	-18.3941	-75.993025	0.000284	2.838214	0.961613	0.000114
1548	1.5393e+02	-18.3653	-75.944579	0.000122	1.216377	0.412120	0.000049
1549	1.5403e+02	-18.3235	-75.884022	0.000152	1.520472	0.515150	0.000061
1550	1.5413e+02	-18.2899	-75.823465	0.000152	1.520472	0.515150	0.000061
1551	1.5422e+02	-18.2546	-75.750796	0.000182	1.824566	0.618180	0.000073
1552	1.5432e+02	-18.2096	-75.661979	0.000223	2.230025	0.755553	0.000089
1553	1.5442e+02	-18.1679	-75.613534	0.000122	1.216377	0.412120	0.000049
1554	1.5452e+02	-18.1246	-75.496457	0.000294	2.939579	0.995956	0.000118
1555	1.5462e+02	-18.1006	-75.464160	0.000081	0.810918	0.274747	0.000032
1556	1.5472e+02	-18.0508	-75.383417	0.000203	2.027296	0.686866	0.000081
1557	1.5482e+02	-18.0091	-75.286526	0.000243	2.432755	0.824240	0.000097
1558	1.5492e+02	-17.9706	-75.221932	0.000162	1.621836	0.549493	0.000065
1559	1.5502e+02	-17.9449	-75.125040	0.000243	2.432755	0.824240	0.000097
1560	1.5512e+02	-17.8888	-75.076595	0.000122	1.216377	0.412120	0.000049
1561	1.5522e+02	-17.8535	-74.995852	0.000203	2.027296	0.686866	0.000081
1562	1.5532e+02	-17.8134	-74.890887	0.000264	2.635484	0.892926	0.000105
1563	1.5542e+02	-17.7733	-74.810144	0.000203	2.027296	0.686866	0.000081
1564	1.5552e+02	-17.7380	-74.769772	0.000101	1.013648	0.343433	0.000041
1565	1.5562e+02	-17.6915	-74.668844	0.000253	2.534120	0.858583	0.000101
1566	1.5572e+02	-17.6498	-74.563879	0.000264	2.635484	0.892926	0.000105
1567	1.5582e+02	-17.6097	-74.475062	0.000223	2.230025	0.755553	0.000089
1568	1.5592e+02	-17.5712	-74.418542	0.000142	1.419107	0.480806	0.000057
1569	1.5602e+02	-17.5311	-74.329725	0.000223	2.230025	0.755553	0.000089
1570	1.5612e+02	-17.4958	-74.228796	0.000253	2.534120	0.858583	0.000101
1571	1.5622e+02	-17.4508	-74.196499	0.000081	0.810918	0.274747	0.000032
1572	1.5631e+02	-17.4059	-74.071348	0.000314	3.142308	1.064643	0.000126
1573	1.5641e+02	-17.3738	-73.982531	0.000223	2.230025	0.755553	0.000089
1574	1.5651e+02	-17.3418	-73.930048	0.000132	1.317742	0.446463	0.000053
1575	1.5661e+02	-17.2936	-73.800860	0.000324	3.243673	1.098986	0.000130
1576	1.5671e+02	-17.2535	-73.708006	0.000233	2.331390	0.789896	0.000093
1577	1.5681e+02	-17.2150	-73.631300	0.000193	1.925931	0.652523	0.000077
1578	1.5691e+02	-17.1749	-73.546520	0.000213	2.128660	0.721210	0.000085
1579	1.5701e+02	-17.1332	-73.417332	0.000324	3.243673	1.098986	0.000130
1580	1.5711e+02	-17.0883	-73.372923	0.000112	1.115013	0.377776	0.000045
1581	1.5721e+02	-17.0578	-73.276032	0.000243	2.432755	0.824240	0.000097
1582	1.5731e+02	-17.0129	-73.203364	0.000182	1.824566	0.618180	0.000073
1583	1.5741e+02	-16.9744	-73.114547	0.000223	2.230025	0.755553	0.000089
1584	1.5751e+02	-16.9359	-72.993433	0.000304	3.040943	1.030300	0.000122
1585	1.5761e+02	-16.8990	-72.916727	0.000193	1.925931	0.652523	0.000077
1586	1.5771e+02	-16.8525	-72.819836	0.000243	2.432755	0.824240	0.000097
1587	1.5781e+02	-16.8204	-72.743130	0.000193	1.925931	0.652523	0.000077
1588	1.5791e+02	-16.7867	-72.626053	0.000294	2.939579	0.995956	0.000118
1589	1.5801e+02	-16.7418	-72.549348	0.000193	1.925931	0.652523	0.000077
1590	1.5811e+02	-16.6888	-72.464568	0.000213	2.128660	0.721210	0.000085
1591	1.5821e+02	-16.6519	-72.339417	0.000314	3.142308	1.064643	0.000126
1592	1.5830e+02	-16.6182	-72.250600	0.000223	2.230025	0.755553	0.000089
1593	1.5840e+02	-16.5781	-72.177931	0.000182	1.824566	0.618180	0.000073
1594	1.5850e+02	-16.5364	-72.060854	0.000294	2.939579	0.995956	0.000118
1595	1.5860e+02	-16.4915	-71.996260	0.000162	1.621836	0.549493	0.000065
1596	1.5870e+02	-16.4546	-71.919555	0.000193	1.925931	0.652523	0.000077
1597	1.5880e+02	-16.4097	-71.834775	0.000213	2.128660	0.721210	0.000085
1598	1.5890e+02	-16.3792	-71.725772	0.000274	2.736849	0.927270	0.000110
1599	1.5900e+02	-16.3375	-71.612732	0.000284	2.838214	0.961613	0.000114
1600	1.5910e+02	-16.2958	-71.560250	0.000132	1.317742	0.446463	0.000053
1601	1.5920e+02	-16.2637	-71.439135	0.000304	3.040943	1.030300	0.000122
1602	1.5930e+02	-16.2108	-71.354356	0.000213	2.128660	0.721210	0.000085
1603	1.5940e+02	-16.1755	-71.241316	0.000284	2.838214	0.961613	0.000114
1604	1.5950e+02	-16.1450	-71.132313	0.000274	2.736849	0.927270	0.000110
1605	1.5960e+02	-16.1017	-71.087905	0.000112	1.115013	0.377776	0.000045
1606	1.5970e+02	-16.0600	-70.958716	0.000324	3.243673	1.098986	0.000130
1607	1.5980e+02	-16.0151	-70.829528	0.000324	3.243673	1.098986	0.000130
1608	1.5990e+02	-15.9750	-70.756860	0.000182	1.824566	0.618180	0.000073
1609	1.6000e+02	-15.9397	-70.720525	0.000091	0.912283	0.309090	0.000037
1610	1.6010e+02	-15.8996	-70.619597	0.000253	2.534120	0.858583	0.000101
1611	1.6019e+02	-15.8578	-70.490409	0.000324	3.243673	1.098986	0.000130
1612	1.6029e+02	-15.8177	-70.409666	0.000203	2.027296	0.686866	0.000081
1613	1.6039e+02	-15.7760	-70.308737	0.000253	2.534120	0.858583	0.000101
1614	1.6049e+02	-15.7391	-70.187623	0.000304	3.040943	1.030300	0.000122
1615	1.6059e+02	-15.7006	-70.090732	0.000243	2.432755	0.824240	0.000097
1616	1.6069e+02	-15.6685	-70.001915	0.000223	2.230025	0.755553	0.000089
1617	1.6079e+02	-15.6188	-69.945395	0.000142	1.419107	0.480806	0.000057
1618	1.6089e+02	-15.5835	-69.812170	0.000335	3.345038	1.133329	0.000134
1619	1.6099e+02	-15.5498	-69.711241	0.000253	2.534120	0.858583	0.000101
1620	1.6109e+02	-15.4937	-69.650684	0.000152	1.520472	0.515150	0.000061
1621	1.6119e+02	-15.4568	-69.497273	0.000385	3.851862	1.305046	0.000154
1622	1.6129e+02	-15.4215	-69.436716	0.000152	1.520472	0.515150	0.000061
1623	1.6139e+02	-15.3750	-69.319639	0.000294	2.939579	0.995956	0.000118
1624	1.6149e+02	-15.3397	-69.186414	0.000335	3.345038	1.133329	0.000134
1625	1.6159e+02	-15.3012	-69.117782	0.000172	1.723201	0.583836	0.000069
1626	1.6169e+02	-15.2675	-69.004743	0.000284	2.838214	0.961613	0.000114
1627	1.6179e+02	-15.2194	-68.948223	0.000142	1.419107	0.480806	0.000057
1628	1.6189e+02	-15.1744	-68.798849	0.000375	3.750497	1.270703	0.000150
1629	1.6199e+02	-15.1456	-68.742329	0.000142	1.419107	0.480806	0.000057
1630	1.6209e+02	-15.1022	-68.613140	0.000324	3.243673	1.098986	0.000130
1631	1.6219e+02	-15.0605	-68.528361	0.000213	2.128660	0.721210	0.000085
1632	1.6228e+02	-15.0285	-68.423395	0.000264	2.635484	0.892926	0.000105
1633	1.6238e+02	-14.9787	-68.298244	0.000314	3.142308	1.064643	0.000126
1634	1.6248e+02	-14.9386	-68.221538	0.000193	1.925931	0.652523	0.000077
1635	1.6258e+02	-14.9065	-68.124647	0.000243	2.432755	0.824240	0.000097
1636	1.6268e+02	-14.8600	-68.015644	0.000274	2.736849	0.927270	0.000110
1637	1.6278e+02	-14.8247	-67.894530	0.000304	3.040943	1.030300	0.000122
1638	1.6288e+02	-14.7814	-67.813788	0.000203	2.027296	0.686866	0.000081
1639	1.6298e+02	-14.7381	-67.696711	0.000294	2.939579	0.995956	0.000118
1640	1.6308e+02	-14.7076	-67.620005	0.000193	1.925931	0.652523	0.000077
1641	1.6318e+02	-14.6659	-67.523114	0.000243	2.432755	0.824240	0.000097
1642	1.6328e+02	-14.6194	-67.418148	0.000264	2.635484	0.892926	0.000105
1643	1.6338e+02	-14.5857	-67.297034	0.000304	3.040943	1.030300	0.000122
1644	1.6348e+02	-14.5472	-67.179957	0.000294	2.939579	0.995956	0.000118
1645	1.6358e+02	-14.5007	-67.107289	0.000182	1.824566	0.618180	0.000073
1646	1.6368e+02	-14.4606	-66.978100	0.000324	3.243673	1.098986	0.000130
1647	1.6378e+02	-14.4269	-66.905432	0.000182	1.824566	0.618180	0.000073
1648	1.6388e+02	-14.3787	-66.764132	0.000355	3.547767	1.202016	0.000142
1649	1.6398e+02	-14.3434	-66.675315	0.000223	2.230025	0.755553	0.000089
1650	1.6408e+02	-14.2969	-66.574387	0.000253	2.534120	0.858583	0.000101
1651	1.6418e+02	-14.2600	-66.416939	0.000395	3.953226	1.339389	0.000158
1652	1.6427e+02	-14.2279	-66.356382	0.000152	1.520472	0.515150	0.000061
1653	1.6437e+02	-14.1814	-66.231230	0.000314	3.142308	1.064643	0.000126
1654	1.6447e+02	-14.1461	-66.134339	0.000243	2.432755	0.824240	0.000097
1655	1.6457e+02	-14.1012	-66.041485	0.000233	2.331390	0.789896	0.000093
1656	1.6467e+02	-14.0627	-65.932482	0.000274	2.736849	0.927270	0.000110
1657	1.6477e+02	-14.0258	-65.783108	0.000375	3.750497	1.270703	0.000150
1658	1.6487e+02	-13.9729	-65.730626	0.000132	1.317742	0.446463	0.000053
1659	1.6497e+02	-13.9488	-65.617586	0.000284	2.838214	0.961613	0.000114
1660	1.6507e+02	-13.9071	-65.484360	0.000335	3.345038	1.133329	0.000134
1661	1.6517e+02	-13.8734	-65.431877	0.000132	1.317742	0.446463	0.000053
1662	1.6527e+02	-13.8140	-65.294615	0.000345	3.446403	1.167673	0.000138
1663	1.6537e+02	-13.7884	-65.209835	0.000213	2.128660	0.721210	0.000085
1664	1.6547e+02	-13.7483	-65.056424	0.000385	3.851862	1.305046	0.000154
1665	1.6557e+02	-13.7082	-64.971644	0.000213	2.128660	0.721210	0.000085
1666	1.6567e+02	-13.6681	-64.858604	0.000284	2.838214	0.961613	0.000114
1667	1.6577e+02	-13.6199	-64.741527	0.000294	2.939579	0.995956	0.000118
1668	1.6587e+02	-13.5862	-64.624450	0.000294	2.939579	0.995956	0.000118
1669	1.6597e+02	-13.5606	-64.563893	0.000152	1.520472	0.515150	0.000061
1670	1.6607e+02	-13.5044	-64.410482	0.000385	3.851862	1.305046	0.000154
1671	1.6616e+02	-13.4707	-64.305517	0.000264	2.635484	0.892926	0.000105
1672	1.6626e+02	-13.4306	-64.232848	0.000182	1.824566	0.618180	0.000073
1673	1.6636e+02	-13.3873	-64.119808	0.000284	2.838214	0.961613	0.000114
1674	1.6646e+02	-13.3488	-63.974471	0.000365	3.649132	1.236359	0.000146
1675	1.6656e+02	-13.3087	-63.930063	0.000112	1.115013	0.377776	0.000045
1676	1.6666e+02	-13.2734	-63.817023	0.000284	2.838214	0.961613	0.000114
1677	1.6676e+02	-13.2221	-63.663612	0.000385	3.851862	1.305046	0.000154
1678	1.6686e+02	-13.1772	-63.558646	0.000264	2.635484	0.892926	0.000105
1679	1.6696e+02	-13.1419	-63.437532	0.000304	3.040943	1.030300	0.000122
1680	1.6706e+02	-13.1082	-63.352753	0.000213	2.128660	0.721210	0.000085
1681	1.6716e+02	-13.0697	-63.223564	0.000324	3.243673	1.098986	0.000130
1682	1.6726e+02	-13.0280	-63.142822	0.000203	2.027296	0.686866	0.000081
1683	1.6736e+02	-12.9766	-62.973262	0.000426	4.257321	1.442419	0.000170
1684	1.6746e+02	-12.9494	-62.880408	0.000233	2.331390	0.789896	0.000093
1685	1.6756e+02	-12.9077	-62.731034	0.000375	3.750497	1.270703	0.000150
1686	1.6766e+02	-12.8659	-62.642217	0.000223	2.230025	0.755553	0.000089
1687	1.6776e+02	-12.8323	-62.557437	0.000213	2.128660	0.721210	0.000085
1688	1.6786e+02	-12.7841	-62.391914	0.000416	4.155956	1.408076	0.000166
1689	1.6796e+02	-12.7504	-62.331357	0.000152	1.520472	0.515150	0.000061
1690	1.6806e+02	-12.7151	-62.194095	0.000345	3.446403	1.167673	0.000138
1691	1.6816e+02	-12.6654	-62.105278	0.000223	2.230025	0.755553	0.000089
1692	1.6825e+02	-12.6333	-61.947829	0.000395	3.953226	1.339389	0.000158
1693	1.6835e+02	-12.5964	-61.822678	0.000314	3.142308	1.064643	0.000126
1694	1.6845e+02	-12.5515	-61.745973	0.000193	1.925931	0.652523	0.000077
1695	1.6855e+02	-12.5146	-61.608710	0.000345	3.446403	1.167673	0.000138
1696	1.6865e+02	-12.4697	-61.479522	0.000324	3.243673	1.098986	0.000130
1697	1.6875e+02	-12.4280	-61.386667	0.000233	2.331390	0.789896	0.000093
1698	1.6885e+02	-12.3943	-61.301888	0.000213	2.128660	0.721210	0.000085
1699	1.6895e+02	-12.3526	-61.148476	0.000385	3.851862	1.305046	0.000154
1700	1.6905e+02	-12.3221	-61.043511	0.000264	2.635484	0.892926	0.000105
1701	1.6915e+02	-12.2724	-60.946620	0.000243	2.432755	0.824240	0.000097
1702	1.6925e+02	-12.2419	-60.829543	0.000294	2.939579	0.995956	0.000118
1703	1.6935e+02	-12.1986	-60.720540	0.000274	2.736849	0.927270	0.000110
1704	1.6945e+02	-12.1521	-60.583277	0.000345	3.446403	1.167673	0.000138
1705	1.6955e+02	-12.1152	-60.470238	0.000284	2.838214	0.961613	0.000114
1706	1.6965e+02	-12.0767	-60.365272	0.000264	2.635484	0.892926	0.000105
1707	1.6975e+02	-12.0334	-60.256269	0.000274	2.736849	0.927270	0.000110
1708	1.6985e+02	-11.9948	-60.159378	0.000243	2.432755	0.824240	0.000097
1709	1.6995e+02	-11.9403	-59.993856	0.000416	4.155956	1.408076	0.000166
1710	1.7005e+02	-11.9066	-59.852556	0.000355	3.547767	1.202016	0.000142
1711	1.7015e+02	-11.8729	-59.771813	0.000203	2.027296	0.686866	0.000081
1712	1.7024e+02	-11.8344	-59.658773	0.000284	2.838214	0.961613	0.000114
1713	1.7034e+02	-11.7927	-59.561882	0.000243	2.432755	0.824240	0.000097
1714	1.7044e+02	-11.7542	-59.424619	0.000345	3.446403	1.167673	0.000138
1715	1.7054e+02	-11.7157	-59.303505	0.000304	3.040943	1.030300	0.000122
1716	1.7064e+02	-11.6708	-59.186428	0.000294	2.939579	0.995956	0.000118
1717	1.7074e+02	-11.6371	-59.057240	0.000324	3.243673	1.098986	0.000130
1718	1.7084e+02	-11.5938	-58.911903	0.000365	3.649132	1.236359	0.000146
1719	1.7094e+02	-11.5473	-58.827123	0.000213	2.128660	0.721210	0.000085
1720	1.7104e+02	-11.5088	-58.722158	0.000264	2.635484	0.892926	0.000105
1721	1.7114e+02	-11.4799	-58.609118	0.000284	2.838214	0.961613	0.000114
1722	1.7124e+02	-11.4318	-58.459744	0.000375	3.750497	1.270703	0.000150
1723	1.7134e+02	-11.4045	-58.354779	0.000264	2.635484	0.892926	0.000105
1724	1.7144e+02	-11.3516	-58.245776	0.000274	2.736849	0.927270	0.000110
1725	1.7154e+02	-11.3147	-58.112550	0.000335	3.345038	1.133329	0.000134
1726	1.7164e+02	-11.2778	-57.999511	0.000284	2.838214	0.961613	0.000114
1727	1.7174e+02	-11.2377	-57.866285	0.000335	3.345038	1.133329	0.000134
1728	1.7184e+02	-11.2072	-57.753245	0.000284	2.838214	0.961613	0.000114
1729	1.7194e+02	-11.1606	-57.668465	0.000213	2.128660	0.721210	0.000085
1730	1.7204e+02	-11.1205	-57.486794	0.000456	4.561415	1.545449	0.000183
1731	1.7213e+02	-11.0692	-57.422200	0.000162	1.621836	0.549493	0.000065
1732	1.7223e+02	-11.0419	-57.208232	0.000537	5.372333	1.820196	0.000215
1733	1.7233e+02	-11.0098	-57.159786	0.000122	1.216377	0.412120	0.000049
1734	1.7243e+02	-10.9537	-57.014449	0.000365	3.649132	1.236359	0.000146
1735	1.7253e+02	-10.9232	-56.909484	0.000264	2.635484	0.892926	0.000105
1736	1.7263e+02	-10.8799	-56.784333	0.000314	3.142308	1.064643	0.000126
1737	1.7273e+02	-10.8382	-56.687441	0.000243	2.432755	0.824240	0.000097
1738	1.7283e+02	-10.7933	-56.546142	0.000355	3.547767	1.202016	0.000142
1739	1.7293e+02	-10.7612	-56.420991	0.000314	3.142308	1.064643	0.000126
1740	1.7303e+02	-10.7163	-56.279691	0.000355	3.547767	1.202016	0.000142
1741	1.7313e+02	-10.6810	-56.178762	0.000253	2.534120	0.858583	0.000101
1742	1.7323e+02	-10.6473	-56.037463	0.000355	3.547767	1.202016	0.000142
1743	1.7333e+02	-10.5944	-55.904237	0.000335	3.345038	1.133329	0.000134
1744	1.7343e+02	-10.5575	-55.803309	0.000253	2.534120	0.858583	0.000101
1745	1.7353e+02	-10.5157	-55.653935	0.000375	3.750497	1.270703	0.000150
1746	1.7363e+02	-10.4772	-55.544932	0.000274	2.736849	0.927270	0.000110
1747	1.7373e+02	-10.4436	-55.395558	0.000375	3.750497	1.270703	0.000150
1748	1.7383e+02	-10.4034	-55.322890	0.000182	1.824566	0.618180	0.000073
1749	1.7393e+02	-10.3714	-55.173516	0.000375	3.750497	1.270703	0.000150
1750	1.7403e+02	-10.3152	-55.036253	0.000345	3.446403	1.167673	0.000138
1751	1.7413e+02	-10.2815	-54.878805	0.000395	3.953226	1.339389	0.000158
1752	1.7422e+02	-10.2398	-54.785951	0.000233	2.331390	0.789896	0.000093
1753	1.7432e+02	-10.1981	-54.636577	0.000375	3.750497	1.270703	0.000150
1754	1.7442e+02	-10.1644	-54.531611	0.000264	2.635484	0.892926	0.000105
1755	1.7452e+02	-10.1131	-54.410497	0.000304	3.040943	1.030300	0.000122
1756	1.7462e+02	-10.0698	-54.281309	0.000324	3.243673	1.098986	0.000130
1757	1.7472e+02	-10.0409	-54.140009	0.000355	3.547767	1.202016	0.000142
1758	1.7482e+02	-10.0040	-53.990635	0.000375	3.750497	1.270703	0.000150
1759	1.7492e+02	-9.9607	-53.897781	0.000233	2.331390	0.789896	0.000093
1760	1.7502e+02	-9.9254	-53.760518	0.000345	3.446403	1.167673	0.000138
1761	1.7512e+02	-9.8821	-53.643441	0.000294	2.939579	0.995956	0.000118
1762	1.7522e+02	-9.8436	-53.530401	0.000284	2.838214	0.961613	0.000114
1763	1.7532e+02	-9.7954	-53.405250	0.000314	3.142308	1.064643	0.000126
1764	1.7542e+02	-9.7618	-53.292210	0.000284	2.838214	0.961613	0.000114
1765	1.7552e+02	-9.7265	-53.175133	0.000294	2.939579	0.995956	0.000118
1766	1.7562e+02	-9.6815	-52.985388	0.000476	4.764145	1.614136	0.000191
1767	1.7572e+02	-9.6350	-52.848125	0.000345	3.446403	1.167673	0.000138
1768	1.7582e+02	-9.6142	-52.759308	0.000223	2.230025	0.755553	0.000089
1769	1.7592e+02	-9.5692	-52.638194	0.000304	3.040943	1.030300	0.000122
1770	1.7602e+02	-9.5163	-52.517080	0.000304	3.040943	1.030300	0.000122
1771	1.7612e+02	-9.4794	-52.347521	0.000426	4.257321	1.442419	0.000170
1772	1.7621e+02	-9.4425	-52.282926	0.000162	1.621836	0.549493	0.000065
1773	1.7631e+02	-9.4088	-52.145664	0.000345	3.446403	1.167673	0.000138
1774	1.7641e+02	-9.3639	-51.963993	0.000456	4.561415	1.545449	0.000183
1775	1.7651e+02	-9.3270	-51.842879	0.000304	3.040943	1.030300	0.000122
1776	1.7661e+02	-9.2821	-51.758099	0.000213	2.128660	0.721210	0.000085
1777	1.7671e+02	-9.2420	-51.612762	0.000365	3.649132	1.236359	0.000146
1778	1.7681e+02	-9.1971	-51.499722	0.000284	2.838214	0.961613	0.000114
1779	1.7691e+02	-9.1650	-51.338237	0.000405	4.054591	1.373733	0.000162
1780	1.7701e+02	-9.1217	-51.205011	0.000335	3.345038	1.133329	0.000134
1781	1.7711e+02	-9.0816	-51.075823	0.000324	3.243673	1.098986	0.000130
1782	1.7721e+02	-9.0415	-50.934523	0.000355	3.547767	1.202016	0.000142
1783	1.7731e+02	-9.0078	-50.825520	0.000274	2.736849	0.927270	0.000110
1784	1.7741e+02	-8.9661	-50.659998	0.000416	4.155956	1.408076	0.000166
1785	1.7751e+02	-8.9340	-50.567144	0.000233	2.331390	0.789896	0.000093
1786	1.7761e+02	-8.8907	-50.381435	0.000466	4.662780	1.579793	0.000187
1787	1.7771e+02	-8.8425	-50.304730	0.000193	1.925931	0.652523	0.000077
1788	1.7781e+02	-8.8104	-50.155356	0.000375	3.750497	1.270703	0.000150
1789	1.7791e+02	-8.7655	-50.042316	0.000284	2.838214	0.961613	0.000114
1790	1.7801e+02	-8.7350	-49.921202	0.000304	3.040943	1.030300	0.000122
1791	1.7810e+02	-8.6885	-49.787976	0.000335	3.345038	1.133329	0.000134
1792	1.7820e+02	-8.6484	-49.638602	0.000375	3.750497	1.270703	0.000150
1793	1.7830e+02	-8.6067	-49.497303	0.000355	3.547767	1.202016	0.000142
1794	1.7840e+02	-8.5730	-49.360040	0.000345	3.446403	1.167673	0.000138
1795	1.7850e+02	-8.5329	-49.222777	0.000345	3.446403	1.167673	0.000138
1796	1.7860e+02	-8.4896	-49.073403	0.000375	3.750497	1.270703	0.000150
1797	1.7870e+02	-8.4479	-48.968438	0.000264	2.635484	0.892926	0.000105
1798	1.7880e+02	-8.4126	-48.790804	0.000446	4.460050	1.511106	0.000179
1799	1.7890e+02	-8.3645	-48.693913	0.000243	2.432755	0.824240	0.000097
1800	1.7900e+02	-8.3244	-48.552613	0.000355	3.547767	1.202016	0.000142
1801	1.7910e+02	-8.2891	-48.423425	0.000324	3.243673	1.098986	0.000130
1802	1.7920e+02	-8.2506	-48.270013	0.000385	3.851862	1.305046	0.000154
1803	1.7930e+02	-8.2089	-48.108528	0.000405	4.054591	1.373733	0.000162
1804	1.7940e+02	-8.1591	-47.963191	0.000365	3.649132	1.236359	0.000146
1805	1.7950e+02	-8.1222	-47.890523	0.000182	1.824566	0.618180	0.000073
1806	1.7960e+02	-8.0934	-47.696740	0.000487	4.865509	1.648479	0.000195
1807	1.7970e+02	-8.0484	-47.551403	0.000365	3.649132	1.236359	0.000146
1808	1.7980e+02	-8.0115	-47.430289	0.000304	3.040943	1.030300	0.000122
1809	1.7990e+02	-7.9714	-47.325324	0.000264	2.635484	0.892926	0.000105
1810	1.8000e+02	-7.9329	-47.163838	0.000405	4.054591	1.373733	0.000162
1811	1.8009e+02	-7.8928	-47.018501	0.000365	3.649132	1.236359	0.000146
1812	1.8019e+02	-7.8399	-46.901424	0.000294	2.939579	0.995956	0.000118
1813	1.8029e+02	-7.8014	-46.764162	0.000345	3.446403	1.167673	0.000138
1814	1.8039e+02	-7.7581	-46.634973	0.000324	3.243673	1.098986	0.000130
1815	1.8049e+02	-7.7340	-46.465414	0.000426	4.257321	1.442419	0.000170
1816	1.8059e+02	-7.6971	-46.291817	0.000436	4.358686	1.476763	0.000174
1817	1.8069e+02	-7.6570	-46.194926	0.000243	2.432755	0.824240	0.000097
1818	1.8079e+02	-7.6057	-46.041515	0.000385	3.851862	1.305046	0.000154
1819	1.8089e+02	-7.5624	-45.924438	0.000294	2.939579	0.995956	0.000118
1820	1.8099e+02	-7.5255	-45.779101	0.000365	3.649132	1.236359	0.000146
1821	1.8109e+02	-7.4886	-45.617615	0.000405	4.054591	1.373733	0.000162
1822	1.8119e+02	-7.4436	-45.448056	0.000426	4.257321	1.442419	0.000170
1823	1.8129e+02	-7.4148	-45.302719	0.000365	3.649132	1.236359	0.000146
1824	1.8139e+02	-7.3650	-45.193716	0.000274	2.736849	0.927270	0.000110
1825	1.8149e+02	-7.3217	-45.003971	0.000476	4.764145	1.614136	0.000191
1826	1.8159e+02	-7.2912	-44.878819	0.000314	3.142308	1.064643	0.000126
1827	1.8169e+02	-7.2624	-44.781928	0.000243	2.432755	0.824240	0.000097
1828	1.8179e+02	-7.2078	-44.584109	0.000497	4.966874	1.682823	0.000199
1829	1.8189e+02	-7.1773	-44.479143	0.000264	2.635484	0.892926	0.000105
1830	1.8199e+02	-7.1420	-44.337843	0.000355	3.547767	1.202016	0.000142
1831	1.8209e+02	-7.0939	-44.188469	0.000375	3.750497	1.270703	0.000150
1832	1.8218e+02	-7.0522	-44.026984	0.000405	4.054591	1.373733	0.000162
1833	1.8228e+02	-7.0057	-43.922018	0.000264	2.635484	0.892926	0.000105
1834	1.8238e+02	-6.9720	-43.736310	0.000466	4.662780	1.579793	0.000187
1835	1.8248e+02	-6.9255	-43.619233	0.000294	2.939579	0.995956	0.000118
1836	1.8258e+02	-6.8902	-43.449673	0.000426	4.257321	1.442419	0.000170
1837	1.8268e+02	-6.8565	-43.320485	0.000324	3.243673	1.098986	0.000130
1838	1.8278e+02	-6.8196	-43.163037	0.000395	3.953226	1.339389	0.000158
1839	1.8288e+02	-6.7667	-43.017700	0.000365	3.649132	1.236359	0.000146
1840	1.8298e+02	-6.7265	-42.884474	0.000335	3.345038	1.133329	0.000134
1841	1.8308e+02	-6.6945	-42.714915	0.000426	4.257321	1.442419	0.000170
1842	1.8318e+02	-6.6528	-42.601875	0.000284	2.838214	0.961613	0.000114
1843	1.8328e+02	-6.6159	-42.420204	0.000456	4.561415	1.545449	0.000183
1844	1.8338e+02	-6.5709	-42.262755	0.000395	3.953226	1.339389	0.000158
1845	1.8348e+02	-6.5292	-42.109344	0.000385	3.851862	1.305046	0.000154
1846	1.8358e+02	-6.4955	-41.984193	0.000314	3.142308	1.064643	0.000126
1847	1.8368e+02	-6.4522	-41.814633	0.000426	4.257321	1.442419	0.000170
1848	1.8378e+02	-6.4105	-41.649111	0.000416	4.155956	1.408076	0.000166
1849	1.8388e+02	-6.3881	-41.499737	0.000375	3.750497	1.270703	0.000150
1850	1.8398e+02	-6.3383	-41.382660	0.000294	2.939579	0.995956	0.000118
1851	1.8407e+02	-6.3030	-41.245397	0.000345	3.446403	1.167673	0.000138
1852	1.8417e+02	-6.2565	-41.043540	0.000507	5.068239	1.717166	0.000203
1853	1.8427e+02	-6.2116	-40.898204	0.000365	3.649132	1.236359	0.000146
1854	1.8437e+02	-6.1843	-40.764978	0.000335	3.345038	1.133329	0.000134
1855	1.8447e+02	-6.1282	-40.623678	0.000355	3.547767	1.202016	0.000142
1856	1.8457e+02	-6.0961	-40.446044	0.000446	4.460050	1.511106	0.000179
1857	1.8467e+02	-6.0656	-40.268410	0.000446	4.460050	1.511106	0.000179
1858	1.8477e+02	-6.0207	-40.143259	0.000314	3.142308	1.064643	0.000126
1859	1.8487e+02	-5.9822	-39.977737	0.000416	4.155956	1.408076	0.000166
1860	1.8497e+02	-5.9373	-39.832400	0.000365	3.649132	1.236359	0.000146
1861	1.8507e+02	-5.8940	-39.678989	0.000385	3.851862	1.305046	0.000154
1862	1.8517e+02	-5.8538	-39.489243	0.000476	4.764145	1.614136	0.000191
1863	1.8527e+02	-5.8186	-39.335832	0.000385	3.851862	1.305046	0.000154
1864	1.8537e+02	-5.7833	-39.202607	0.000335	3.345038	1.133329	0.000134
1865	1.8547e+02	-5.7351	-39.057270	0.000365	3.649132	1.236359	0.000146
1866	1.8557e+02	-5.7079	-38.899821	0.000395	3.953226	1.339389	0.000158
1867	1.8567e+02	-5.6645	-38.685853	0.000537	5.372333	1.820196	0.000215
1868	1.8577e+02	-5.6116	-38.548591	0.000345	3.446403	1.167673	0.000138
1869	1.8587e+02	-5.5795	-38.383068	0.000416	4.155956	1.408076	0.000166
1870	1.8597e+02	-5.5474	-38.249843	0.000335	3.345038	1.133329	0.000134
1871	1.8606e+02	-5.4897	-38.104506	0.000365	3.649132	1.236359	0.000146
1872	1.8616e+02	-5.4656	-37.906686	0.000497	4.966874	1.682823	0.000199
1873	1.8626e+02	-5.4191	-37.745201	0.000405	4.054591	1.373733	0.000162
1874	1.8636e+02	-5.3822	-37.616012	0.000324	3.243673	1.098986	0.000130
1875	1.8646e+02	-5.3293	-37.478750	0.000345	3.446403	1.167673	0.000138
1876	1.8656e+02	-5.2988	-37.297079	0.000456	4.561415	1.545449	0.000183
1877	1.8666e+02	-5.2699	-37.095222	0.000507	5.068239	1.717166	0.000203
1878	1.8676e+02	-5.2282	-36.937773	0.000395	3.953226	1.339389	0.000158
1879	1.8686e+02	-5.1865	-36.764177	0.000436	4.358686	1.476763	0.000174
1880	1.8696e+02	-5.1464	-36.634988	0.000324	3.243673	1.098986	0.000130
1881	1.8706e+02	-5.0983	-36.465429	0.000426	4.257321	1.442419	0.000170
1882	1.8716e+02	-5.0598	-36.340277	0.000314	3.142308	1.064643	0.000126
1883	1.8726e+02	-5.0261	-36.094012	0.000618	6.183252	2.094942	0.000248
1884	1.8736e+02	-4.9860	-35.976935	0.000294	2.939579	0.995956	0.000118
1885	1.8746e+02	-4.9378	-35.803338	0.000436	4.358686	1.476763	0.000174
1886	1.8756e+02	-4.9025	-35.653964	0.000375	3.750497	1.270703	0.000150
1887	1.8766e+02	-4.8688	-35.484405	0.000426	4.257321	1.442419	0.000170
1888	1.8776e+02	-4.8239	-35.302733	0.000456	4.561415	1.545449	0.000183
1889	1.8786e+02	-4.7838	-35.141248	0.000405	4.054591	1.373733	0.000162
1890	1.8796e+02	-4.7485	-34.975725	0.000416	4.155956	1.408076	0.000166
1891	1.8806e+02	-4.7036	-34.785980	0.000476	4.764145	1.614136	0.000191
1892	1.8815e+02	-4.6731	-34.628532	0.000395	3.953226	1.339389	0.000158
1893	1.8825e+02	-4.6202	-34.479158	0.000375	3.750497	1.270703	0.000150
1894	1.8835e+02	-4.5785	-34.293450	0.000466	4.662780	1.579793	0.000187
1895	1.8845e+02	-4.5416	-34.148113	0.000365	3.649132	1.236359	0.000146
1896	1.8855e+02	-4.5063	-33.946256	0.000507	5.068239	1.717166	0.000203
1897	1.8865e+02	-4.4662	-33.845327	0.000253	2.534120	0.858583	0.000101
1898	1.8875e+02	-4.4229	-33.639434	0.000517	5.169604	1.751509	0.000207
1899	1.8885e+02	-4.3828	-33.486022	0.000385	3.851862	1.305046	0.000154
1900	1.8895e+02	-4.3491	-33.263980	0.000558	5.575063	1.888882	0.000223
1901	1.8905e+02	-4.3026	-33.110569	0.000385	3.851862	1.305046	0.000154
1902	1.8915e+02	-4.2608	-32.957158	0.000385	3.851862	1.305046	0.000154
1903	1.8925e+02	-4.2272	-32.775486	0.000456	4.561415	1.545449	0.000183
1904	1.8935e+02	-4.1838	-32.577667	0.000497	4.966874	1.682823	0.000199
1905	1.8945e+02	-4.1453	-32.400033	0.000446	4.460050	1.511106	0.000179
1906	1.8955e+02	-4.1068	-32.270845	0.000324	3.243673	1.098986	0.000130
1907	1.8965e+02	-4.0683	-32.068988	0.000507	5.068239	1.717166	0.000203
1908	1.8975e+02	-4.0282	-31.899428	0.000426	4.257321	1.442419	0.000170
1909	1.8985e+02	-3.9833	-31.725831	0.000436	4.358686	1.476763	0.000174
1910	1.8995e+02	-3.9432	-31.536086	0.000476	4.764145	1.614136	0.000191
1911	1.9004e+02	-3.9047	-31.362489	0.000436	4.358686	1.476763	0.000174
1912	1.9014e+02	-3.8710	-31.221189	0.000355	3.547767	1.202016	0.000142
1913	1.9024e+02	-3.8293	-31.035481	0.000466	4.662780	1.579793	0.000187
1914	1.9034e+02	-3.7796	-30.857847	0.000446	4.460050	1.511106	0.000179
1915	1.9044e+02	-3.7395	-30.672139	0.000466	4.662780	1.579793	0.000187
1916	1.9054e+02	-3.7138	-30.494505	0.000446	4.460050	1.511106	0.000179
1917	1.9064e+02	-3.6577	-30.304759	0.000476	4.764145	1.614136	0.000191
1918	1.9074e+02	-3.6256	-30.102903	0.000507	5.068239	1.717166	0.000203
1919	1.9084e+02	-3.5806	-29.945454	0.000395	3.953226	1.339389	0.000158
1920	1.9094e+02	-3.5550	-29.715338	0.000578	5.777793	1.957569	0.000231
1921	1.9104e+02	-3.5133	-29.574038	0.000355	3.547767	1.202016	0.000142
1922	1.9114e+02	-3.4635	-29.331810	0.000608	6.081887	2.060599	0.000243
1923	1.9124e+02	-3.4234	-29.198584	0.000335	3.345038	1.133329	0.000134
1924	1.9134e+02	-3.3801	-29.049210	0.000375	3.750497	1.270703	0.000150
1925	1.9144e+02	-3.3464	-28.819093	0.000578	5.777793	1.957569	0.000231
1926	1.9154e+02	-3.3047	-28.661645	0.000395	3.953226	1.339389	0.000158
1927	1.9164e+02	-3.2646	-28.520345	0.000355	3.547767	1.202016	0.000142
1928	1.9174e+02	-3.2277	-28.294266	0.000568	5.676428	1.923226	0.000227
1929	1.9184e+02	-3.1908	-28.116632	0.000446	4.460050	1.511106	0.000179
1930	1.9194e+02	-3.1523	-27.926886	0.000476	4.764145	1.614136	0.000191
1931	1.9203e+02	-3.1138	-27.733104	0.000487	4.865509	1.648479	0.000195
1932	1.9213e+02	-3.0801	-27.555470	0.000446	4.460050	1.511106	0.000179
1933	1.9223e+02	-3.0256	-27.385910	0.000426	4.257321	1.442419	0.000170
1934	1.9233e+02	-2.9935	-27.204239	0.000456	4.561415	1.545449	0.000183
1935	1.9243e+02	-2.9598	-27.010457	0.000487	4.865509	1.648479	0.000195
1936	1.9253e+02	-2.9053	-26.820711	0.000476	4.764145	1.614136	0.000191
1937	1.9263e+02	-2.8668	-26.639040	0.000456	4.561415	1.545449	0.000183
1938	1.9273e+02	-2.8267	-26.441221	0.000497	4.966874	1.682823	0.000199
1939	1.9283e+02	-2.7817	-26.235327	0.000517	5.169604	1.751509	0.000207
1940	1.9293e+02	-2.7432	-26.033470	0.000507	5.068239	1.717166	0.000203
1941	1.9303e+02	-2.7144	-25.908319	0.000314	3.142308	1.064643	0.000126
1942	1.9313e+02	-2.6775	-25.714536	0.000487	4.865509	1.648479	0.000195
1943	1.9323e+02	-2.6358	-25.532865	0.000456	4.561415	1.545449	0.000183
1944	1.9333e+02	-2.5908	-25.310823	0.000558	5.575063	1.888882	0.000223
1945	1.9343e+02	-2.5571	-25.153374	0.000395	3.953226	1.339389	0.000158
1946	1.9353e+02	-2.5106	-24.943443	0.000527	5.270969	1.785853	0.000211
1947	1.9363e+02	-2.4641	-24.745624	0.000497	4.966874	1.682823	0.000199
1948	1.9373e+02	-2.4352	-24.543767	0.000507	5.068239	1.717166	0.000203
1949	1.9383e+02	-2.4015	-24.366133	0.000446	4.460050	1.511106	0.000179
1950	1.9393e+02	-2.3454	-24.156202	0.000527	5.270969	1.785853	0.000211
1951	1.9403e+02	-2.3117	-23.958382	0.000497	4.966874	1.682823	0.000199
1952	1.9412e+02	-2.2764	-23.792859	0.000416	4.155956	1.408076	0.000166
1953	1.9422e+02	-2.2267	-23.635411	0.000395	3.953226	1.339389	0.000158
1954	1.9432e+02	-2.1946	-23.385109	0.000628	6.284616	2.129286	0.000252
1955	1.9442e+02	-2.1529	-23.207475	0.000446	4.460050	1.511106	0.000179
1956	1.9452e+02	-2.1176	-23.009655	0.000497	4.966874	1.682823	0.000199
1957	1.9462e+02	-2.0759	-22.807798	0.000507	5.068239	1.717166	0.000203
1958	1.9472e+02	-2.0294	-22.593830	0.000537	5.372333	1.820196	0.000215
1959	1.9482e+02	-1.9925	-22.428308	0.000416	4.155956	1.408076	0.000166
1960	1.9492e+02	-1.9572	-22.238562	0.000476	4.764145	1.614136	0.000191
1961	1.9502e+02	-1.9122	-22.020557	0.000547	5.473698	1.854539	0.000219
1962	1.9512e+02	-1.8737	-21.830812	0.000476	4.764145	1.614136	0.000191
1963	1.9522e+02	-1.8433	-21.612806	0.000547	5.473698	1.854539	0.000219
1964	1.9532e+02	-1.7903	-21.419024	0.000487	4.865509	1.648479	0.000195
1965	1.9542e+02	-1.7454	-21.217167	0.000507	5.068239	1.717166	0.000203
1966	1.9552e+02	-1.7181	-21.023384	0.000487	4.865509	1.648479	0.000195
1967	1.9562e+02	-1.6748	-20.805379	0.000547	5.473698	1.854539	0.000219
1968	1.9572e+02	-1.6283	-20.595448	0.000527	5.270969	1.785853	0.000211
1969	1.9582e+02	-1.5962	-20.401665	0.000487	4.865509	1.648479	0.000195
1970	1.9592e+02	-1.5545	-20.203846	0.000497	4.966874	1.682823	0.000199
1971	1.9601e+02	-1.5112	-20.006026	0.000497	4.966874	1.682823	0.000199
1972	1.9611e+02	-1.4759	-19.775909	0.000578	5.777793	1.957569	0.000231
1973	1.9621e+02	-1.4374	-19.590201	0.000466	4.662780	1.579793	0.000187
1974	1.9631e+02	-1.4005	-19.412567	0.000446	4.460050	1.511106	0.000179
1975	1.9641e+02	-1.3524	-19.202636	0.000527	5.270969	1.785853	0.000211
1976	1.9651e+02	-1.3171	-18.932148	0.000679	6.791440	2.301002	0.000272
1977	1.9661e+02	-1.2609	-18.770663	0.000405	4.054591	1.373733	0.000162
1978	1.9671e+02	-1.2337	-18.572843	0.000497	4.966874	1.682823	0.000199
1979	1.9681e+02	-1.1935	-18.326578	0.000618	6.183252	2.094942	0.000248
1980	1.9691e+02	-1.1567	-18.157018	0.000426	4.257321	1.442419	0.000170
1981	1.9701e+02	-1.1182	-17.943050	0.000537	5.372333	1.820196	0.000215
1982	1.9711e+02	-1.0732	-17.721007	0.000558	5.575063	1.888882	0.000223
1983	1.9721e+02	-1.0428	-17.551448	0.000426	4.257321	1.442419	0.000170
1984	1.9731e+02	-1.0059	-17.293071	0.000649	6.487346	2.197972	0.000260
1985	1.9741e+02	-0.9609	-17.135623	0.000395	3.953226	1.339389	0.000158
1986	1.9751e+02	-0.9160	-16.893394	0.000608	6.081887	2.060599	0.000243
1987	1.9761e+02	-0.8743	-16.723835	0.000426	4.257321	1.442419	0.000170
1988	1.9771e+02	-0.8422	-16.505829	0.000547	5.473698	1.854539	0.000219
1989	1.9781e+02	-0.7973	-16.275713	0.000578	5.777793	1.957569	0.000231
1990	1.9791e+02	-0.7556	-16.081930	0.000487	4.865509	1.648479	0.000195
1991	1.9800e+02	-0.7235	-15.807405	0.000689	6.892805	2.335346	0.000276
1992	1.9810e+02	-0.6770	-15.649957	0.000395	3.953226	1.339389	0.000158
1993	1.9820e+02	-0.6433	-15.448100	0.000507	5.068239	1.717166	0.000203
1994	1.9830e+02	-0.6000	-15.242206	0.000517	5.169604	1.751509	0.000207
1995	1.9840e+02	-0.5567	-14.987866	0.000639	6.385981	2.163629	0.000256
1996	1.9850e+02	-0.5198	-14.810232	0.000446	4.460050	1.511106	0.000179
1997	1.9860e+02	-0.4781	-14.580116	0.000578	5.777793	1.957569	0.000231
1998	1.9870e+02	-0.4396	-14.374222	0.000517	5.169604	1.751509	0.000207
1999	1.9880e+02	-0.4059	-14.172365	0.000507	5.068239	1.717166	0.000203
2000	1.9890e+02	-0.3658	-13.958397	0.000537	5.372333	1.820196	0.000215
2001	1.9900e+02	-0.3144	-13.768651	0.000476	4.764145	1.614136	0.000191
2002	1.9910e+02	-0.2791	-13.510275	0.000649	6.487346	2.197972	0.000260
2003	1.9920e+02	-0.2390	-13.344752	0.000416	4.155956	1.408076	0.000166
2004	1.9930e+02	-0.2053	-13.126747	0.000547	5.473698	1.854539	0.000219
2005	1.9940e+02	-0.1668	-12.872407	0.000639	6.385981	2.163629	0.000256
2006	1.9950e+02	-0.1171	-12.706885	0.000416	4.155956	1.408076	0.000166
2007	1.9960e+02	-0.0850	-12.464657	0.000608	6.081887	2.060599	0.000243
2008	1.9970e+02	-0.0433	-12.250688	0.000537	5.372333	1.820196	0.000215
2009	1.9980e+02	-0.0016	-12.064980	0.000537	5.372333	1.820196	0.000187

Center data before PMax,+/-Pr and +/-Vc Calc.

PMax (uC/cm2):	7.75e+01
Pr (uC/cm2):	6.66e+00
-Pr (uC/cm2):	-1.21e+01
PLoss (uC/cm2):	-1.22e+01
-Vc:	-1.31e+00
C (Max-Eff) (nF):	3.88e-01
K (Eff):	1.31e+03
Vert. (+/-Pr) Shift (uC/cm2):	-2.70e+00
Offset (uC/cm2):	-1.27e-01

A (Loop Area - uC/cm2·Volts):	1.24e-01



Hysteresis Version: 5.48.1 - Radiant Technologies, Inc., 1999 - 9/12/24

