»»»»»»»»»»»»»»»»»»»»»»»»»»»»»»»»»»»» Hysteresis ««««««««««««««««««««««««««««««««««««
»»»  Executed Version:	5.48.1
»»»  Vision Version:	5.48.4 (R)
»»»  Vision Compiled:	9/18/24
»»»  Driver Version:	5.47.0
»»»  Windows Version:	Windows 8 or 8.1
»»»  Processor Information:	x86 (AMD or Intel) - 32 Processors
»»»  Tester Name:	PMF21124-494 (100V)
»»»  Tester S/N:	PMF21124-494
»»»  Internal Amp Type:	100V RevK 270k
»»»  Internal Amp S/N:	iAB2-596/K     
»»»  Execution Count:	1
»»»»»»»»»»»»»»»»»»»»»»»»»»»»»»»»»»»»»»»»»»««««««««««««««««««««««««««««««««««««««««««

Stored:	6/13/2025 - 14:2:28
Configured:	06/13/25 01:30:53 PM
Executed:	06/13/25 02:01:57 PM

»»»»»»»»»»»»»»»»»»»»»»»»»»»»»»»»»»» Sample Info ««««««««««««««««««««««««««««««««««««
Sample Name:	
Lot Name:	
Wafer Name:	
Die Row/Column:	0/0
Capacitor Number:	0
Sample Area (cm2):	1.00e-04
Sample Thickness (microns):	3.00e-01

Amplifier:	Internal

»»»»»»»»»»»»»»»»»»»»»»»»»»»»»»»»»»» Tester Info «««««««««««««««««««««««««««««««««««
Tester Name:	PMF21124-494 (100V)
Tester Serial Number:	PMF21124-494
Return Signal Amp. Level:	0.19 [Index: 3]

»»»»»»»»»»»»»»»»»»»»»»»»»»»»»»»» Hysteresis Info ««««««««««««««««««««««««««««««««««
Task Name:	Hyst-1922
Volts:	20.00
Field:	666.67 (kV/cm)
DCBias:	0.00
DCField:	0.00 (kV/cm)
Hysteresis Period (ms):	2.00e+02
Preset:	Enabled
Preset Delay (ms):	1.00e+03
Profile:	Standard Bipolar

»»»»»»»»»»»»»»»»»»»»»»»»»»»»»»»»»»»»»» Data «««««««««««««««««««««««««««««««««««««««
Points:	2009

Valid Data

Point	Time (ms)	Drive Voltage	Measured Polarization (uC/cm2)	Capacitance (uF)	Normalized Capacitance (uF/cm2)	Dielectric Constant	Instantaneous Current (mA)
   1	0.0000e+00	0.0080	-1.980215	0.000314	3.141363	1.064323	0.000126
   2	9.9500e-02	0.0241	-1.855064	0.000314	3.141363	1.064323	0.000126
   3	1.9900e-01	0.0770	-1.649170	0.000517	5.168049	1.750982	0.000207
   4	2.9850e-01	0.1075	-1.483647	0.000415	4.154706	1.407652	0.000166
   5	3.9800e-01	0.1508	-1.314088	0.000426	4.256040	1.441985	0.000170
   6	4.9750e-01	0.1941	-1.176825	0.000345	3.445366	1.167322	0.000138
   7	5.9700e-01	0.2278	-0.974968	0.000507	5.066715	1.716649	0.000203
   8	6.9650e-01	0.2711	-0.809446	0.000415	4.154706	1.407652	0.000166
   9	7.9600e-01	0.3080	-0.651997	0.000395	3.952037	1.338986	0.000158
  10	8.9550e-01	0.3449	-0.433992	0.000547	5.472052	1.853981	0.000219
  11	9.9500e-01	0.3898	-0.272507	0.000405	4.053372	1.373319	0.000162
  12	1.0945e+00	0.4364	-0.082761	0.000476	4.762712	1.613650	0.000191
  13	1.1940e+00	0.4700	0.090836	0.000436	4.357374	1.476318	0.000174
  14	1.2935e+00	0.5166	0.252321	0.000405	4.053372	1.373319	0.000162
  15	1.3930e+00	0.5438	0.450141	0.000497	4.965380	1.682316	0.000199
  16	1.4925e+00	0.5936	0.603552	0.000385	3.850703	1.304654	0.000154
  17	1.5920e+00	0.6305	0.793297	0.000476	4.762712	1.613650	0.000191
  18	1.6915e+00	0.6658	0.962857	0.000426	4.256040	1.441985	0.000170
  19	1.7910e+00	0.6962	1.124342	0.000405	4.053372	1.373319	0.000162
  20	1.8905e+00	0.7508	1.330236	0.000517	5.168049	1.750982	0.000207
  21	1.9900e+00	0.7748	1.511907	0.000456	4.560043	1.544984	0.000183
  22	2.0895e+00	0.8294	1.673393	0.000405	4.053372	1.373319	0.000162
  23	2.1890e+00	0.8647	1.867175	0.000486	4.864046	1.647983	0.000195
  24	2.2885e+00	0.9048	2.008475	0.000355	3.546700	1.201655	0.000142
  25	2.3880e+00	0.9609	2.210332	0.000507	5.066715	1.716649	0.000203
  26	2.4875e+00	0.9866	2.400077	0.000476	4.762712	1.613650	0.000191
  27	2.5870e+00	1.0267	2.573674	0.000436	4.357374	1.476318	0.000174
  28	2.6865e+00	1.0684	2.787642	0.000537	5.370717	1.819648	0.000215
  29	2.7860e+00	1.1037	2.912793	0.000314	3.141363	1.064323	0.000126
  30	2.8855e+00	1.1390	3.058130	0.000365	3.648034	1.235988	0.000146
  31	2.9850e+00	1.1968	3.272099	0.000537	5.370717	1.819648	0.000215
  32	3.0845e+00	1.2224	3.473955	0.000507	5.066715	1.716649	0.000203
  33	3.1840e+00	1.2625	3.635441	0.000405	4.053372	1.373319	0.000162
  34	3.2835e+00	1.3042	3.813075	0.000446	4.458709	1.510651	0.000179
  35	3.3830e+00	1.3476	3.986672	0.000436	4.357374	1.476318	0.000174
  36	3.4825e+00	1.3861	4.132008	0.000365	3.648034	1.235988	0.000146
  37	3.5820e+00	1.4246	4.362125	0.000578	5.776055	1.956980	0.000231
  38	3.6815e+00	1.4647	4.531685	0.000426	4.256040	1.441985	0.000170
  39	3.7810e+00	1.5080	4.721430	0.000476	4.762712	1.613650	0.000191
  40	3.8805e+00	1.5513	4.903101	0.000456	4.560043	1.544984	0.000183
  41	3.9800e+00	1.5850	5.080735	0.000446	4.458709	1.510651	0.000179
  42	4.0795e+00	1.6251	5.246258	0.000415	4.154706	1.407652	0.000166
  43	4.1790e+00	1.6652	5.427929	0.000456	4.560043	1.544984	0.000183
  44	4.2785e+00	1.7069	5.605563	0.000446	4.458709	1.510651	0.000179
  45	4.3780e+00	1.7406	5.799345	0.000486	4.864046	1.647983	0.000195
  46	4.4775e+00	1.7887	5.948720	0.000375	3.749369	1.270321	0.000150
  47	4.5770e+00	1.8208	6.110205	0.000405	4.053372	1.373319	0.000162
  48	4.6765e+00	1.8625	6.320136	0.000527	5.269383	1.785315	0.000211
  49	4.7760e+00	1.8994	6.509881	0.000476	4.762712	1.613650	0.000191
  50	4.8755e+00	1.9411	6.667330	0.000395	3.952037	1.338986	0.000158
  51	4.9750e+00	1.9844	6.857075	0.000476	4.762712	1.613650	0.000191
  52	5.0745e+00	2.0261	7.034709	0.000446	4.458709	1.510651	0.000179
  53	5.1740e+00	2.0695	7.200232	0.000415	4.154706	1.407652	0.000166
  54	5.2735e+00	2.0967	7.357680	0.000395	3.952037	1.338986	0.000158
  55	5.3730e+00	2.1417	7.591834	0.000588	5.877389	1.991313	0.000235
  56	5.4725e+00	2.1882	7.753319	0.000405	4.053372	1.373319	0.000162
  57	5.5720e+00	2.2154	7.902693	0.000375	3.749369	1.270321	0.000150
  58	5.6715e+00	2.2668	8.076290	0.000436	4.357374	1.476318	0.000174
  59	5.7710e+00	2.3037	8.290258	0.000537	5.370717	1.819648	0.000215
  60	5.8705e+00	2.3438	8.443669	0.000385	3.850703	1.304654	0.000154
  61	5.9700e+00	2.3807	8.649563	0.000517	5.168049	1.750982	0.000207
  62	6.0695e+00	2.4224	8.835272	0.000466	4.661377	1.579317	0.000187
  63	6.1690e+00	2.4497	8.964460	0.000324	3.242697	1.098656	0.000130
  64	6.2685e+00	2.5074	9.158242	0.000486	4.864046	1.647983	0.000195
  65	6.3680e+00	2.5443	9.335876	0.000446	4.458709	1.510651	0.000179
  66	6.4675e+00	2.5908	9.529659	0.000486	4.864046	1.647983	0.000195
  67	6.5670e+00	2.6181	9.679033	0.000375	3.749369	1.270321	0.000150
  68	6.6665e+00	2.6678	9.884927	0.000517	5.168049	1.750982	0.000207
  69	6.7660e+00	2.7047	10.054487	0.000426	4.256040	1.441985	0.000170
  70	6.8655e+00	2.7368	10.244232	0.000476	4.762712	1.613650	0.000191
  71	6.9650e+00	2.7769	10.417829	0.000436	4.357374	1.476318	0.000174
  72	7.0645e+00	2.8170	10.563166	0.000365	3.648034	1.235988	0.000146
  73	7.1640e+00	2.8571	10.708503	0.000365	3.648034	1.235988	0.000146
  74	7.2635e+00	2.8988	10.906322	0.000497	4.965380	1.682316	0.000199
  75	7.3630e+00	2.9390	11.092030	0.000466	4.661377	1.579317	0.000187
  76	7.4625e+00	2.9742	11.273702	0.000456	4.560043	1.544984	0.000183
  77	7.5620e+00	3.0160	11.459410	0.000466	4.661377	1.579317	0.000187
  78	7.6615e+00	3.0673	11.637044	0.000446	4.458709	1.510651	0.000179
  79	7.7610e+00	3.0946	11.766232	0.000324	3.242697	1.098656	0.000130
  80	7.8605e+00	3.1363	11.951940	0.000466	4.661377	1.579317	0.000187
  81	7.9600e+00	3.1764	12.133611	0.000456	4.560043	1.544984	0.000183
  82	8.0595e+00	3.2245	12.307208	0.000436	4.357374	1.476318	0.000174
  83	8.1590e+00	3.2662	12.488879	0.000456	4.560043	1.544984	0.000183
  84	8.2585e+00	3.3063	12.690736	0.000507	5.066715	1.716649	0.000203
  85	8.3580e+00	3.3336	12.848184	0.000395	3.952037	1.338986	0.000158
  86	8.4575e+00	3.3801	13.029856	0.000456	4.560043	1.544984	0.000183
  87	8.5570e+00	3.4138	13.167118	0.000345	3.445366	1.167322	0.000138
  88	8.6565e+00	3.4651	13.364938	0.000497	4.965380	1.682316	0.000199
  89	8.7560e+00	3.4988	13.550646	0.000466	4.661377	1.579317	0.000187
  90	8.8555e+00	3.5277	13.695983	0.000365	3.648034	1.235988	0.000146
  91	8.9550e+00	3.5839	13.877654	0.000456	4.560043	1.544984	0.000183
  92	9.0545e+00	3.6224	14.035102	0.000395	3.952037	1.338986	0.000158
  93	9.1540e+00	3.6577	14.228885	0.000486	4.864046	1.647983	0.000195
  94	9.2535e+00	3.7010	14.402482	0.000436	4.357374	1.476318	0.000174
  95	9.3530e+00	3.7427	14.555893	0.000385	3.850703	1.304654	0.000154
  96	9.4525e+00	3.7764	14.765824	0.000527	5.269383	1.785315	0.000211
  97	9.5520e+00	3.8165	14.895012	0.000324	3.242697	1.098656	0.000130
  98	9.6515e+00	3.8630	15.092832	0.000497	4.965380	1.682316	0.000199
  99	9.7510e+00	3.8903	15.274503	0.000456	4.560043	1.544984	0.000183
 100	9.8505e+00	3.9352	15.440026	0.000415	4.154706	1.407652	0.000166
 101	9.9500e+00	3.9817	15.629771	0.000476	4.762712	1.613650	0.000191
 102	1.0050e+01	4.0218	15.807405	0.000446	4.458709	1.510651	0.000179
 103	1.0149e+01	4.0571	15.972928	0.000415	4.154706	1.407652	0.000166
 104	1.0248e+01	4.0988	16.138450	0.000415	4.154706	1.407652	0.000166
 105	1.0348e+01	4.1309	16.320121	0.000456	4.560043	1.544984	0.000183
 106	1.0447e+01	4.1726	16.469495	0.000375	3.749369	1.270321	0.000150
 107	1.0547e+01	4.2207	16.626944	0.000395	3.952037	1.338986	0.000158
 108	1.0646e+01	4.2528	16.844949	0.000547	5.472052	1.853981	0.000219
 109	1.0746e+01	4.2977	17.014509	0.000426	4.256040	1.441985	0.000170
 110	1.0845e+01	4.3394	17.167920	0.000385	3.850703	1.304654	0.000154
 111	1.0945e+01	4.3892	17.353628	0.000466	4.661377	1.579317	0.000187
 112	1.1044e+01	4.4100	17.543373	0.000476	4.762712	1.613650	0.000191
 113	1.1144e+01	4.4534	17.676599	0.000334	3.344032	1.132989	0.000134
 114	1.1243e+01	4.5015	17.874418	0.000497	4.965380	1.682316	0.000199
 115	1.1343e+01	4.5352	18.072238	0.000497	4.965380	1.682316	0.000199
 116	1.1443e+01	4.5769	18.197389	0.000314	3.141363	1.064323	0.000126
 117	1.1542e+01	4.6202	18.379060	0.000456	4.560043	1.544984	0.000183
 118	1.1642e+01	4.6587	18.552657	0.000436	4.357374	1.476318	0.000174
 119	1.1741e+01	4.6956	18.718180	0.000415	4.154706	1.407652	0.000166
 120	1.1841e+01	4.7357	18.867554	0.000375	3.749369	1.270321	0.000150
 121	1.1940e+01	4.7774	19.045188	0.000446	4.458709	1.510651	0.000179
 122	1.2040e+01	4.8127	19.206673	0.000405	4.053372	1.373319	0.000162
 123	1.2139e+01	4.8448	19.376233	0.000426	4.256040	1.441985	0.000170
 124	1.2239e+01	4.8881	19.565978	0.000476	4.762712	1.613650	0.000191
 125	1.2338e+01	4.9234	19.739575	0.000436	4.357374	1.476318	0.000174
 126	1.2438e+01	4.9699	19.848578	0.000274	2.736026	0.926991	0.000110
 127	1.2537e+01	5.0212	20.026212	0.000446	4.458709	1.510651	0.000179
 128	1.2636e+01	5.0614	20.236143	0.000527	5.269383	1.785315	0.000211
 129	1.2736e+01	5.0918	20.405703	0.000426	4.256040	1.441985	0.000170
 130	1.2835e+01	5.1384	20.542965	0.000345	3.445366	1.167322	0.000138
 131	1.2935e+01	5.1704	20.777119	0.000588	5.877389	1.991313	0.000235
 132	1.3034e+01	5.2170	20.890159	0.000284	2.837360	0.961324	0.000114
 133	1.3134e+01	5.2555	21.083941	0.000486	4.864046	1.647983	0.000195
 134	1.3233e+01	5.2924	21.196981	0.000284	2.837360	0.961324	0.000114
 135	1.3333e+01	5.3341	21.406912	0.000527	5.269383	1.785315	0.000211
 136	1.3432e+01	5.3726	21.564361	0.000395	3.952037	1.338986	0.000158
 137	1.3532e+01	5.4095	21.737957	0.000436	4.357374	1.476318	0.000174
 138	1.3632e+01	5.4496	21.895406	0.000395	3.952037	1.338986	0.000158
 139	1.3731e+01	5.4881	22.060928	0.000415	4.154706	1.407652	0.000166
 140	1.3831e+01	5.5298	22.214339	0.000385	3.850703	1.304654	0.000154
 141	1.3930e+01	5.5619	22.428308	0.000537	5.370717	1.819648	0.000215
 142	1.4030e+01	5.6068	22.529236	0.000253	2.533357	0.858325	0.000101
 143	1.4129e+01	5.6565	22.698796	0.000426	4.256040	1.441985	0.000170
 144	1.4229e+01	5.6854	22.880467	0.000456	4.560043	1.544984	0.000183
 145	1.4328e+01	5.7287	23.070212	0.000476	4.762712	1.613650	0.000191
 146	1.4428e+01	5.7720	23.207475	0.000345	3.445366	1.167322	0.000138
 147	1.4527e+01	5.8057	23.381072	0.000436	4.357374	1.476318	0.000174
 148	1.4627e+01	5.8522	23.534483	0.000385	3.850703	1.304654	0.000154
 149	1.4726e+01	5.8875	23.728265	0.000486	4.864046	1.647983	0.000195
 150	1.4825e+01	5.9260	23.861491	0.000334	3.344032	1.132989	0.000134
 151	1.4925e+01	5.9726	23.986642	0.000314	3.141363	1.064323	0.000126
 152	1.5024e+01	6.0030	24.196573	0.000527	5.269383	1.785315	0.000211
 153	1.5124e+01	6.0512	24.321724	0.000314	3.141363	1.064323	0.000126
 154	1.5223e+01	6.0849	24.507432	0.000466	4.661377	1.579317	0.000187
 155	1.5323e+01	6.1201	24.681029	0.000436	4.357374	1.476318	0.000174
 156	1.5422e+01	6.1619	24.846552	0.000415	4.154706	1.407652	0.000166
 157	1.5522e+01	6.2116	24.979777	0.000334	3.344032	1.132989	0.000134
 158	1.5621e+01	6.2501	25.173560	0.000486	4.864046	1.647983	0.000195
 159	1.5721e+01	6.2886	25.306785	0.000334	3.344032	1.132989	0.000134
 160	1.5820e+01	6.3351	25.468271	0.000405	4.053372	1.373319	0.000162
 161	1.5920e+01	6.3656	25.617645	0.000375	3.749369	1.270321	0.000150
 162	1.6020e+01	6.4137	25.819502	0.000507	5.066715	1.716649	0.000203
 163	1.6119e+01	6.4490	25.956764	0.000345	3.445366	1.167322	0.000138
 164	1.6218e+01	6.4843	26.130361	0.000436	4.357374	1.476318	0.000174
 165	1.6318e+01	6.5228	26.255512	0.000314	3.141363	1.064323	0.000126
 166	1.6418e+01	6.5661	26.453332	0.000497	4.965380	1.682316	0.000199
 167	1.6517e+01	6.6062	26.598669	0.000365	3.648034	1.235988	0.000146
 168	1.6616e+01	6.6447	26.788414	0.000476	4.762712	1.613650	0.000191
 169	1.6716e+01	6.6864	26.941825	0.000385	3.850703	1.304654	0.000154
 170	1.6816e+01	6.7265	27.095237	0.000385	3.850703	1.304654	0.000154
 171	1.6915e+01	6.7618	27.236536	0.000355	3.546700	1.201655	0.000142
 172	1.7015e+01	6.8052	27.422245	0.000466	4.661377	1.579317	0.000187
 173	1.7114e+01	6.8453	27.551433	0.000324	3.242697	1.098656	0.000130
 174	1.7213e+01	6.8886	27.729067	0.000446	4.458709	1.510651	0.000179
 175	1.7313e+01	6.9255	27.850181	0.000304	3.040029	1.029990	0.000122
 176	1.7413e+01	6.9624	28.023778	0.000436	4.357374	1.476318	0.000174
 177	1.7512e+01	7.0105	28.209486	0.000466	4.661377	1.579317	0.000187
 178	1.7611e+01	7.0378	28.358860	0.000375	3.749369	1.270321	0.000150
 179	1.7711e+01	7.0843	28.496123	0.000345	3.445366	1.167322	0.000138
 180	1.7811e+01	7.1292	28.665682	0.000426	4.256040	1.441985	0.000170
 181	1.7910e+01	7.1709	28.831205	0.000415	4.154706	1.407652	0.000166
 182	1.8009e+01	7.1998	28.980579	0.000375	3.749369	1.270321	0.000150
 183	1.8109e+01	7.2527	29.154176	0.000436	4.357374	1.476318	0.000174
 184	1.8209e+01	7.2784	29.303550	0.000375	3.749369	1.270321	0.000150
 185	1.8308e+01	7.3217	29.420627	0.000294	2.938694	0.995657	0.000118
 186	1.8407e+01	7.3602	29.626521	0.000517	5.168049	1.750982	0.000207
 187	1.8507e+01	7.4019	29.775895	0.000375	3.749369	1.270321	0.000150
 188	1.8607e+01	7.4388	29.905083	0.000324	3.242697	1.098656	0.000130
 189	1.8706e+01	7.4821	30.070606	0.000415	4.154706	1.407652	0.000166
 190	1.8805e+01	7.5271	30.179608	0.000274	2.736026	0.926991	0.000110
 191	1.8905e+01	7.5688	30.357242	0.000446	4.458709	1.510651	0.000179
 192	1.9005e+01	7.6009	30.490468	0.000334	3.344032	1.132989	0.000134
 193	1.9104e+01	7.6490	30.651953	0.000405	4.053372	1.373319	0.000162
 194	1.9203e+01	7.6698	30.849773	0.000497	4.965380	1.682316	0.000199
 195	1.9303e+01	7.7244	30.954738	0.000263	2.634692	0.892658	0.000105
 196	1.9402e+01	7.7629	31.124298	0.000426	4.256040	1.441985	0.000170
 197	1.9502e+01	7.7950	31.269635	0.000365	3.648034	1.235988	0.000146
 198	1.9602e+01	7.8383	31.386712	0.000294	2.938694	0.995657	0.000118
 199	1.9701e+01	7.8832	31.564346	0.000446	4.458709	1.510651	0.000179
 200	1.9800e+01	7.9201	31.717757	0.000385	3.850703	1.304654	0.000154
 201	1.9900e+01	7.9554	31.875205	0.000395	3.952037	1.338986	0.000158
 202	2.0000e+01	8.0003	32.024579	0.000375	3.749369	1.270321	0.000150
 203	2.0099e+01	8.0420	32.190102	0.000415	4.154706	1.407652	0.000166
 204	2.0198e+01	8.0885	32.327364	0.000345	3.445366	1.167322	0.000138
 205	2.0298e+01	8.1142	32.480776	0.000385	3.850703	1.304654	0.000154
 206	2.0398e+01	8.1720	32.634187	0.000385	3.850703	1.304654	0.000154
 207	2.0497e+01	8.1976	32.791635	0.000395	3.952037	1.338986	0.000158
 208	2.0596e+01	8.2361	32.920823	0.000324	3.242697	1.098656	0.000130
 209	2.0696e+01	8.2778	33.066160	0.000365	3.648034	1.235988	0.000146
 210	2.0796e+01	8.3179	33.263980	0.000497	4.965380	1.682316	0.000199
 211	2.0895e+01	8.3581	33.377020	0.000284	2.837360	0.961324	0.000114
 212	2.0994e+01	8.3966	33.522357	0.000365	3.648034	1.235988	0.000146
 213	2.1094e+01	8.4335	33.691916	0.000426	4.256040	1.441985	0.000170
 214	2.1194e+01	8.4832	33.817068	0.000314	3.141363	1.064323	0.000126
 215	2.1293e+01	8.5249	34.006813	0.000476	4.762712	1.613650	0.000191
 216	2.1392e+01	8.5618	34.140038	0.000334	3.344032	1.132989	0.000134
 217	2.1492e+01	8.5987	34.220781	0.000203	2.026686	0.686660	0.000081
 218	2.1591e+01	8.6340	34.422638	0.000507	5.066715	1.716649	0.000203
 219	2.1691e+01	8.6789	34.567975	0.000365	3.648034	1.235988	0.000146
 220	2.1791e+01	8.7206	34.701200	0.000334	3.344032	1.132989	0.000134
 221	2.1890e+01	8.7495	34.886908	0.000466	4.661377	1.579317	0.000187
 222	2.1989e+01	8.7976	35.076654	0.000476	4.762712	1.613650	0.000191
 223	2.2089e+01	8.8393	35.133174	0.000142	1.418680	0.480662	0.000057
 224	2.2189e+01	8.8746	35.343105	0.000527	5.269383	1.785315	0.000211
 225	2.2288e+01	8.9211	35.472293	0.000324	3.242697	1.098656	0.000130
 226	2.2387e+01	8.9677	35.629741	0.000395	3.952037	1.338986	0.000158
 227	2.2487e+01	9.0030	35.730670	0.000253	2.533357	0.858325	0.000101
 228	2.2587e+01	9.0382	35.916378	0.000466	4.661377	1.579317	0.000187
 229	2.2686e+01	9.0735	36.053641	0.000345	3.445366	1.167322	0.000138
 230	2.2785e+01	9.1185	36.186866	0.000334	3.344032	1.132989	0.000134
 231	2.2885e+01	9.1554	36.328166	0.000355	3.546700	1.201655	0.000142
 232	2.2985e+01	9.1987	36.465429	0.000345	3.445366	1.167322	0.000138
 233	2.3084e+01	9.2404	36.643063	0.000446	4.458709	1.510651	0.000179
 234	2.3183e+01	9.2677	36.780325	0.000345	3.445366	1.167322	0.000138
 235	2.3283e+01	9.3238	36.913551	0.000334	3.344032	1.132989	0.000134
 236	2.3383e+01	9.3527	37.054850	0.000355	3.546700	1.201655	0.000142
 237	2.3482e+01	9.4040	37.244596	0.000476	4.762712	1.613650	0.000191
 238	2.3581e+01	9.4457	37.369747	0.000314	3.141363	1.064323	0.000126
 239	2.3681e+01	9.4778	37.482787	0.000284	2.837360	0.961324	0.000114
 240	2.3780e+01	9.5227	37.632161	0.000375	3.749369	1.270321	0.000150
 241	2.3880e+01	9.5580	37.781535	0.000375	3.749369	1.270321	0.000150
 242	2.3980e+01	9.5933	37.951095	0.000426	4.256040	1.441985	0.000170
 243	2.4079e+01	9.6382	38.096431	0.000365	3.648034	1.235988	0.000146
 244	2.4178e+01	9.6799	38.233694	0.000345	3.445366	1.167322	0.000138
 245	2.4278e+01	9.7088	38.346734	0.000284	2.837360	0.961324	0.000114
 246	2.4378e+01	9.7393	38.500145	0.000385	3.850703	1.304654	0.000154
 247	2.4477e+01	9.7922	38.629333	0.000324	3.242697	1.098656	0.000130
 248	2.4576e+01	9.8372	38.802930	0.000436	4.357374	1.476318	0.000174
 249	2.4676e+01	9.8724	38.952304	0.000375	3.749369	1.270321	0.000150
 250	2.4776e+01	9.9174	39.057270	0.000263	2.634692	0.892658	0.000105
 251	2.4875e+01	9.9495	39.230867	0.000436	4.357374	1.476318	0.000174
 252	2.4974e+01	9.9960	39.351981	0.000304	3.040029	1.029990	0.000122
 253	2.5074e+01	10.0377	39.529615	0.000446	4.458709	1.510651	0.000179
 254	2.5174e+01	10.0714	39.630543	0.000253	2.533357	0.858325	0.000101
 255	2.5273e+01	10.1163	39.759731	0.000324	3.242697	1.098656	0.000130
 256	2.5372e+01	10.1452	39.901031	0.000355	3.546700	1.201655	0.000142
 257	2.5472e+01	10.1949	40.030219	0.000324	3.242697	1.098656	0.000130
 258	2.5572e+01	10.2366	40.175556	0.000365	3.648034	1.235988	0.000146
 259	2.5671e+01	10.2799	40.333005	0.000395	3.952037	1.338986	0.000158
 260	2.5770e+01	10.3088	40.486416	0.000385	3.850703	1.304654	0.000154
 261	2.5870e+01	10.3537	40.587344	0.000253	2.533357	0.858325	0.000101
 262	2.5970e+01	10.3890	40.764978	0.000446	4.458709	1.510651	0.000179
 263	2.6069e+01	10.4259	40.890129	0.000314	3.141363	1.064323	0.000126
 264	2.6169e+01	10.4740	41.043540	0.000385	3.850703	1.304654	0.000154
 265	2.6268e+01	10.5093	41.237323	0.000486	4.864046	1.647983	0.000195
 266	2.6367e+01	10.5430	41.322103	0.000213	2.128020	0.720993	0.000085
 267	2.6467e+01	10.5960	41.471477	0.000375	3.749369	1.270321	0.000150
 268	2.6567e+01	10.6329	41.584517	0.000284	2.837360	0.961324	0.000114
 269	2.6666e+01	10.6730	41.746002	0.000405	4.053372	1.373319	0.000162
 270	2.6765e+01	10.7115	41.899413	0.000385	3.850703	1.304654	0.000154
 271	2.6865e+01	10.7403	42.024564	0.000314	3.141363	1.064323	0.000126
 272	2.6965e+01	10.7981	42.157790	0.000334	3.344032	1.132989	0.000134
 273	2.7064e+01	10.8238	42.335424	0.000446	4.458709	1.510651	0.000179
 274	2.7163e+01	10.8687	42.448464	0.000284	2.837360	0.961324	0.000114
 275	2.7263e+01	10.9120	42.581689	0.000334	3.344032	1.132989	0.000134
 276	2.7363e+01	10.9473	42.743175	0.000405	4.053372	1.373319	0.000162
 277	2.7462e+01	10.9890	42.852177	0.000274	2.736026	0.926991	0.000110
 278	2.7561e+01	11.0323	43.017700	0.000415	4.154706	1.407652	0.000166
 279	2.7661e+01	11.0660	43.106517	0.000223	2.229354	0.755326	0.000089
 280	2.7761e+01	11.1077	43.292225	0.000466	4.661377	1.579317	0.000187
 281	2.7860e+01	11.1494	43.429488	0.000345	3.445366	1.167322	0.000138
 282	2.7959e+01	11.1927	43.562713	0.000334	3.344032	1.132989	0.000134
 283	2.8059e+01	11.2280	43.683827	0.000304	3.040029	1.029990	0.000122
 284	2.8159e+01	11.2729	43.845313	0.000405	4.053372	1.373319	0.000162
 285	2.8258e+01	11.3114	44.006798	0.000405	4.053372	1.373319	0.000162
 286	2.8358e+01	11.3548	44.107727	0.000253	2.533357	0.858325	0.000101
 287	2.8457e+01	11.3884	44.249026	0.000355	3.546700	1.201655	0.000142
 288	2.8556e+01	11.4286	44.386289	0.000345	3.445366	1.167322	0.000138
 289	2.8656e+01	11.4703	44.515477	0.000324	3.242697	1.098656	0.000130
 290	2.8756e+01	11.5088	44.652740	0.000345	3.445366	1.167322	0.000138
 291	2.8855e+01	11.5489	44.785965	0.000334	3.344032	1.132989	0.000134
 292	2.8954e+01	11.5938	44.967636	0.000456	4.560043	1.544984	0.000183
 293	2.9054e+01	11.6259	45.056453	0.000223	2.229354	0.755326	0.000089
 294	2.9154e+01	11.6756	45.169493	0.000284	2.837360	0.961324	0.000114
 295	2.9253e+01	11.7157	45.322904	0.000385	3.850703	1.304654	0.000154
 296	2.9352e+01	11.7462	45.468241	0.000365	3.648034	1.235988	0.000146
 297	2.9452e+01	11.7879	45.593392	0.000314	3.141363	1.064323	0.000126
 298	2.9552e+01	11.8312	45.726618	0.000334	3.344032	1.132989	0.000134
 299	2.9651e+01	11.8681	45.896178	0.000426	4.256040	1.441985	0.000170
 300	2.9750e+01	11.9034	46.029403	0.000334	3.344032	1.132989	0.000134
 301	2.9850e+01	11.9483	46.118220	0.000223	2.229354	0.755326	0.000089
 302	2.9950e+01	11.9820	46.259520	0.000355	3.546700	1.201655	0.000142
 303	3.0049e+01	12.0221	46.425042	0.000415	4.154706	1.407652	0.000166
 304	3.0148e+01	12.0702	46.525971	0.000253	2.533357	0.858325	0.000101
 305	3.0248e+01	12.1120	46.679382	0.000385	3.850703	1.304654	0.000154
 306	3.0348e+01	12.1408	46.788385	0.000274	2.736026	0.926991	0.000110
 307	3.0447e+01	12.1825	46.933722	0.000365	3.648034	1.235988	0.000146
 308	3.0547e+01	12.2259	47.058873	0.000314	3.141363	1.064323	0.000126
 309	3.0646e+01	12.2644	47.192098	0.000334	3.344032	1.132989	0.000134
 310	3.0745e+01	12.3061	47.329361	0.000345	3.445366	1.167322	0.000138
 311	3.0845e+01	12.3494	47.466623	0.000345	3.445366	1.167322	0.000138
 312	3.0945e+01	12.3783	47.599849	0.000334	3.344032	1.132989	0.000134
 313	3.1044e+01	12.4248	47.737112	0.000345	3.445366	1.167322	0.000138
 314	3.1143e+01	12.4713	47.870337	0.000334	3.344032	1.132989	0.000134
 315	3.1243e+01	12.5018	47.971265	0.000253	2.533357	0.858325	0.000101
 316	3.1343e+01	12.5451	48.124677	0.000385	3.850703	1.304654	0.000154
 317	3.1442e+01	12.5804	48.265976	0.000355	3.546700	1.201655	0.000142
 318	3.1541e+01	12.6269	48.399202	0.000334	3.344032	1.132989	0.000134
 319	3.1641e+01	12.6750	48.540502	0.000355	3.546700	1.201655	0.000142
 320	3.1741e+01	12.7071	48.649504	0.000274	2.736026	0.926991	0.000110
 321	3.1840e+01	12.7488	48.802915	0.000385	3.850703	1.304654	0.000154
 322	3.1939e+01	12.7905	48.932104	0.000324	3.242697	1.098656	0.000130
 323	3.2039e+01	12.8178	49.049181	0.000294	2.938694	0.995657	0.000118
 324	3.2139e+01	12.8643	49.170295	0.000304	3.040029	1.029990	0.000122
 325	3.2238e+01	12.9044	49.283335	0.000284	2.837360	0.961324	0.000114
 326	3.2337e+01	12.9462	49.424634	0.000355	3.546700	1.201655	0.000142
 327	3.2437e+01	12.9782	49.521526	0.000243	2.432023	0.823992	0.000097
 328	3.2536e+01	13.0232	49.662825	0.000355	3.546700	1.201655	0.000142
 329	3.2636e+01	13.0569	49.808162	0.000365	3.648034	1.235988	0.000146
 330	3.2736e+01	13.1002	49.941388	0.000334	3.344032	1.132989	0.000134
 331	3.2835e+01	13.1467	50.054427	0.000284	2.837360	0.961324	0.000114
 332	3.2934e+01	13.1788	50.199764	0.000365	3.648034	1.235988	0.000146
 333	3.3034e+01	13.2157	50.320878	0.000304	3.040029	1.029990	0.000122
 334	3.3133e+01	13.2606	50.494475	0.000436	4.357374	1.476318	0.000174
 335	3.3233e+01	13.2991	50.603478	0.000274	2.736026	0.926991	0.000110
 336	3.3333e+01	13.3424	50.724592	0.000304	3.040029	1.029990	0.000122
 337	3.3432e+01	13.3777	50.821483	0.000243	2.432023	0.823992	0.000097
 338	3.3532e+01	13.4146	50.987006	0.000415	4.154706	1.407652	0.000166
 339	3.3631e+01	13.4563	51.124268	0.000345	3.445366	1.167322	0.000138
 340	3.3730e+01	13.4996	51.233271	0.000274	2.736026	0.926991	0.000110
 341	3.3830e+01	13.5461	51.390719	0.000395	3.952037	1.338986	0.000158
 342	3.3929e+01	13.5734	51.475499	0.000213	2.128020	0.720993	0.000085
 343	3.4029e+01	13.6199	51.624873	0.000375	3.749369	1.270321	0.000150
 344	3.4129e+01	13.6600	51.766173	0.000355	3.546700	1.201655	0.000142
 345	3.4228e+01	13.6921	51.883250	0.000294	2.938694	0.995657	0.000118
 346	3.4328e+01	13.7403	52.008401	0.000314	3.141363	1.064323	0.000126
 347	3.4427e+01	13.7707	52.133552	0.000314	3.141363	1.064323	0.000126
 348	3.4526e+01	13.8108	52.250629	0.000294	2.938694	0.995657	0.000118
 349	3.4626e+01	13.8606	52.379818	0.000324	3.242697	1.098656	0.000130
 350	3.4725e+01	13.8846	52.484783	0.000263	2.634692	0.892658	0.000105
 351	3.4825e+01	13.9504	52.609934	0.000314	3.141363	1.064323	0.000126
 352	3.4925e+01	13.9809	52.751234	0.000355	3.546700	1.201655	0.000142
 353	3.5024e+01	14.0162	52.864274	0.000284	2.837360	0.961324	0.000114
 354	3.5123e+01	14.0467	52.965202	0.000253	2.533357	0.858325	0.000101
 355	3.5223e+01	14.0980	53.122651	0.000395	3.952037	1.338986	0.000158
 356	3.5322e+01	14.1397	53.231653	0.000274	2.736026	0.926991	0.000110
 357	3.5422e+01	14.1718	53.324507	0.000233	2.330689	0.789659	0.000093
 358	3.5522e+01	14.2119	53.502141	0.000446	4.458709	1.510651	0.000179
 359	3.5621e+01	14.2440	53.594995	0.000233	2.330689	0.789659	0.000093
 360	3.5721e+01	14.2937	53.720147	0.000314	3.141363	1.064323	0.000126
 361	3.5820e+01	14.3354	53.857409	0.000345	3.445366	1.167322	0.000138
 362	3.5919e+01	14.3739	53.954301	0.000243	2.432023	0.823992	0.000097
 363	3.6019e+01	14.4060	54.091563	0.000345	3.445366	1.167322	0.000138
 364	3.6118e+01	14.4606	54.228826	0.000345	3.445366	1.167322	0.000138
 365	3.6218e+01	14.4958	54.333791	0.000263	2.634692	0.892658	0.000105
 366	3.6318e+01	14.5343	54.479128	0.000365	3.648034	1.235988	0.000146
 367	3.6417e+01	14.5664	54.576019	0.000243	2.432023	0.823992	0.000097
 368	3.6517e+01	14.6210	54.705208	0.000324	3.242697	1.098656	0.000130
 369	3.6616e+01	14.6450	54.826322	0.000304	3.040029	1.029990	0.000122
 370	3.6715e+01	14.6916	54.987807	0.000405	4.053372	1.373319	0.000162
 371	3.6815e+01	14.7285	55.100847	0.000284	2.837360	0.961324	0.000114
 372	3.6914e+01	14.7782	55.177553	0.000193	1.925352	0.652327	0.000077
 373	3.7014e+01	14.8151	55.322890	0.000365	3.648034	1.235988	0.000146
 374	3.7114e+01	14.8536	55.431892	0.000274	2.736026	0.926991	0.000110
 375	3.7213e+01	14.8905	55.577229	0.000365	3.648034	1.235988	0.000146
 376	3.7313e+01	14.9226	55.678158	0.000253	2.533357	0.858325	0.000101
 377	3.7412e+01	14.9755	55.811383	0.000334	3.344032	1.132989	0.000134
 378	3.7511e+01	15.0172	55.956720	0.000365	3.648034	1.235988	0.000146
 379	3.7611e+01	15.0477	56.057648	0.000253	2.533357	0.858325	0.000101
 380	3.7711e+01	15.0894	56.202985	0.000365	3.648034	1.235988	0.000146
 381	3.7810e+01	15.1247	56.243357	0.000101	1.013343	0.343330	0.000041
 382	3.7910e+01	15.1712	56.392731	0.000375	3.749369	1.270321	0.000150
 383	3.8009e+01	15.2113	56.542105	0.000375	3.749369	1.270321	0.000150
 384	3.8108e+01	15.2546	56.614773	0.000182	1.824017	0.617994	0.000073
 385	3.8208e+01	15.2883	56.756073	0.000355	3.546700	1.201655	0.000142
 386	3.8307e+01	15.3300	56.897373	0.000355	3.546700	1.201655	0.000142
 387	3.8407e+01	15.3686	57.018487	0.000304	3.040029	1.029990	0.000122
 388	3.8507e+01	15.4022	57.127489	0.000274	2.736026	0.926991	0.000110
 389	3.8606e+01	15.4472	57.252640	0.000314	3.141363	1.064323	0.000126
 390	3.8706e+01	15.4857	57.402014	0.000375	3.749369	1.270321	0.000150
 391	3.8805e+01	15.5258	57.515054	0.000284	2.837360	0.961324	0.000114
 392	3.8904e+01	15.5739	57.599834	0.000213	2.128020	0.720993	0.000085
 393	3.9004e+01	15.6108	57.741134	0.000355	3.546700	1.201655	0.000142
 394	3.9103e+01	15.6573	57.894545	0.000385	3.850703	1.304654	0.000154
 395	3.9203e+01	15.6958	57.963176	0.000172	1.722683	0.583661	0.000069
 396	3.9303e+01	15.7327	58.088328	0.000314	3.141363	1.064323	0.000126
 397	3.9402e+01	15.7760	58.245776	0.000395	3.952037	1.338986	0.000158
 398	3.9502e+01	15.8033	58.310370	0.000162	1.621349	0.549328	0.000065
 399	3.9601e+01	15.8482	58.439558	0.000324	3.242697	1.098656	0.000130
 400	3.9700e+01	15.8996	58.536450	0.000243	2.432023	0.823992	0.000097
 401	3.9800e+01	15.9300	58.697935	0.000405	4.053372	1.373319	0.000162
 402	3.9900e+01	15.9733	58.786752	0.000223	2.229354	0.755326	0.000089
 403	3.9999e+01	16.0022	58.940163	0.000385	3.850703	1.304654	0.000154
 404	4.0099e+01	16.0536	59.053203	0.000284	2.837360	0.961324	0.000114
 405	4.0198e+01	16.0889	59.174317	0.000304	3.040029	1.029990	0.000122
 406	4.0297e+01	16.1274	59.267171	0.000233	2.330689	0.789659	0.000093
 407	4.0397e+01	16.1659	59.388285	0.000304	3.040029	1.029990	0.000122
 408	4.0496e+01	16.2060	59.517474	0.000324	3.242697	1.098656	0.000130
 409	4.0596e+01	16.2477	59.650699	0.000334	3.344032	1.132989	0.000134
 410	4.0696e+01	16.2878	59.755665	0.000263	2.634692	0.892658	0.000105
 411	4.0795e+01	16.3311	59.856593	0.000253	2.533357	0.858325	0.000101
 412	4.0895e+01	16.3648	59.965596	0.000274	2.736026	0.926991	0.000110
 413	4.0994e+01	16.4017	60.102858	0.000345	3.445366	1.167322	0.000138
 414	4.1093e+01	16.4482	60.187638	0.000213	2.128020	0.720993	0.000085
 415	4.1193e+01	16.4851	60.292604	0.000263	2.634692	0.892658	0.000105
 416	4.1292e+01	16.5284	60.421792	0.000324	3.242697	1.098656	0.000130
 417	4.1392e+01	16.5733	60.575203	0.000385	3.850703	1.304654	0.000154
 418	4.1492e+01	16.6150	60.659983	0.000213	2.128020	0.720993	0.000085
 419	4.1591e+01	16.6503	60.777060	0.000294	2.938694	0.995657	0.000118
 420	4.1691e+01	16.6808	60.906248	0.000324	3.242697	1.098656	0.000130
 421	4.1790e+01	16.7209	60.995065	0.000223	2.229354	0.755326	0.000089
 422	4.1889e+01	16.7642	61.128291	0.000334	3.344032	1.132989	0.000134
 423	4.1989e+01	16.8092	61.269591	0.000355	3.546700	1.201655	0.000142
 424	4.2089e+01	16.8412	61.334185	0.000162	1.621349	0.549328	0.000065
 425	4.2188e+01	16.8829	61.443187	0.000274	2.736026	0.926991	0.000110
 426	4.2288e+01	16.9214	61.568339	0.000314	3.141363	1.064323	0.000126
 427	4.2387e+01	16.9680	61.681378	0.000284	2.837360	0.961324	0.000114
 428	4.2486e+01	17.0065	61.778270	0.000243	2.432023	0.823992	0.000097
 429	4.2586e+01	17.0386	61.915532	0.000345	3.445366	1.167322	0.000138
 430	4.2685e+01	17.0867	62.024535	0.000274	2.736026	0.926991	0.000110
 431	4.2785e+01	17.1204	62.157760	0.000334	3.344032	1.132989	0.000134
 432	4.2885e+01	17.1717	62.274837	0.000294	2.938694	0.995657	0.000118
 433	4.2984e+01	17.1974	62.391914	0.000294	2.938694	0.995657	0.000118
 434	4.3084e+01	17.2455	62.496880	0.000263	2.634692	0.892658	0.000105
 435	4.3183e+01	17.2776	62.617994	0.000304	3.040029	1.029990	0.000122
 436	4.3282e+01	17.3225	62.747182	0.000324	3.242697	1.098656	0.000130
 437	4.3382e+01	17.3562	62.815814	0.000172	1.722683	0.583661	0.000069
 438	4.3481e+01	17.4139	62.985373	0.000426	4.256040	1.441985	0.000170
 439	4.3581e+01	17.4492	63.082264	0.000243	2.432023	0.823992	0.000097
 440	4.3681e+01	17.4829	63.223564	0.000355	3.546700	1.201655	0.000142
 441	4.3780e+01	17.5134	63.372938	0.000375	3.749369	1.270321	0.000150
 442	4.3880e+01	17.5551	63.437532	0.000162	1.621349	0.549328	0.000065
 443	4.3979e+01	17.6032	63.558646	0.000304	3.040029	1.029990	0.000122
 444	4.4078e+01	17.6466	63.643426	0.000213	2.128020	0.720993	0.000085
 445	4.4178e+01	17.6722	63.776652	0.000334	3.344032	1.132989	0.000134
 446	4.4278e+01	17.7236	63.881617	0.000263	2.634692	0.892658	0.000105
 447	4.4377e+01	17.7621	63.998694	0.000294	2.938694	0.995657	0.000118
 448	4.4477e+01	17.7974	64.103660	0.000263	2.634692	0.892658	0.000105
 449	4.4576e+01	17.8455	64.240922	0.000345	3.445366	1.167322	0.000138
 450	4.4675e+01	17.8840	64.337814	0.000243	2.432023	0.823992	0.000097
 451	4.4775e+01	17.9177	64.475076	0.000345	3.445366	1.167322	0.000138
 452	4.4874e+01	17.9610	64.555819	0.000203	2.026686	0.686660	0.000081
 453	4.4974e+01	18.0043	64.689044	0.000334	3.344032	1.132989	0.000134
 454	4.5074e+01	18.0460	64.765750	0.000193	1.925352	0.652327	0.000077
 455	4.5173e+01	18.0829	64.894938	0.000324	3.242697	1.098656	0.000130
 456	4.5273e+01	18.1150	64.971644	0.000193	1.925352	0.652327	0.000077
 457	4.5372e+01	18.1551	65.100832	0.000324	3.242697	1.098656	0.000130
 458	4.5471e+01	18.2016	65.246169	0.000365	3.648034	1.235988	0.000146
 459	4.5571e+01	18.2401	65.318838	0.000182	1.824017	0.617994	0.000073
 460	4.5670e+01	18.2818	65.415729	0.000243	2.432023	0.823992	0.000097
 461	4.5770e+01	18.3203	65.561066	0.000365	3.648034	1.235988	0.000146
 462	4.5870e+01	18.3476	65.690254	0.000324	3.242697	1.098656	0.000130
 463	4.5969e+01	18.3989	65.799257	0.000274	2.736026	0.926991	0.000110
 464	4.6069e+01	18.4342	65.855777	0.000142	1.418680	0.480662	0.000057
 465	4.6168e+01	18.4840	66.009188	0.000385	3.850703	1.304654	0.000154
 466	4.6267e+01	18.5193	66.110116	0.000253	2.533357	0.858325	0.000101
 467	4.6367e+01	18.5578	66.231230	0.000304	3.040029	1.029990	0.000122
 468	4.6467e+01	18.5947	66.344270	0.000284	2.837360	0.961324	0.000114
 469	4.6566e+01	18.6348	66.465384	0.000304	3.040029	1.029990	0.000122
 470	4.6666e+01	18.6829	66.538053	0.000182	1.824017	0.617994	0.000073
 471	4.6765e+01	18.7198	66.667241	0.000324	3.242697	1.098656	0.000130
 472	4.6864e+01	18.7535	66.776244	0.000274	2.736026	0.926991	0.000110
 473	4.6964e+01	18.7936	66.885246	0.000274	2.736026	0.926991	0.000110
 474	4.7063e+01	18.8273	67.022509	0.000345	3.445366	1.167322	0.000138
 475	4.7163e+01	18.8642	67.087103	0.000162	1.621349	0.549328	0.000065
 476	4.7263e+01	18.9267	67.224366	0.000345	3.445366	1.167322	0.000138
 477	4.7362e+01	18.9572	67.321257	0.000243	2.432023	0.823992	0.000097
 478	4.7462e+01	18.9957	67.418148	0.000243	2.432023	0.823992	0.000097
 479	4.7561e+01	19.0438	67.587708	0.000426	4.256040	1.441985	0.000170
 480	4.7660e+01	19.0743	67.640191	0.000132	1.317346	0.446329	0.000053
 481	4.7760e+01	19.1225	67.700748	0.000152	1.520014	0.514995	0.000061
 482	4.7859e+01	19.1610	67.866270	0.000415	4.154706	1.407652	0.000166
 483	4.7959e+01	19.1882	67.991422	0.000314	3.141363	1.064323	0.000126
 484	4.8059e+01	19.2331	68.084276	0.000233	2.330689	0.789659	0.000093
 485	4.8158e+01	19.2797	68.197315	0.000284	2.837360	0.961324	0.000114
 486	4.8258e+01	19.3085	68.314392	0.000294	2.938694	0.995657	0.000118
 487	4.8357e+01	19.3551	68.407247	0.000233	2.330689	0.789659	0.000093
 488	4.8456e+01	19.3936	68.500101	0.000233	2.330689	0.789659	0.000093
 489	4.8556e+01	19.4353	68.596992	0.000243	2.432023	0.823992	0.000097
 490	4.8656e+01	19.4770	68.746366	0.000375	3.749369	1.270321	0.000150
 491	4.8755e+01	19.5043	68.871517	0.000314	3.141363	1.064323	0.000126
 492	4.8855e+01	19.5588	68.952260	0.000203	2.026686	0.686660	0.000081
 493	4.8954e+01	19.6021	69.053188	0.000253	2.533357	0.858325	0.000101
 494	4.9053e+01	19.6294	69.150079	0.000243	2.432023	0.823992	0.000097
 495	4.9153e+01	19.6759	69.287342	0.000345	3.445366	1.167322	0.000138
 496	4.9252e+01	19.7096	69.396345	0.000274	2.736026	0.926991	0.000110
 497	4.9352e+01	19.7577	69.469013	0.000182	1.824017	0.617994	0.000073
 498	4.9452e+01	19.7962	69.602239	0.000334	3.344032	1.132989	0.000134
 499	4.9551e+01	19.8299	69.687019	0.000213	2.128020	0.720993	0.000085
 500	4.9651e+01	19.8764	69.824281	0.000345	3.445366	1.167322	0.000138
 501	4.9750e+01	19.9133	69.937321	0.000284	2.837360	0.961324	0.000114
 502	4.9849e+01	19.9534	70.009989	0.000182	1.824017	0.617994	0.000073
 503	4.9949e+01	19.9936	70.135141	0.000314	3.141363	1.064323	0.000126
 504	5.0048e+01	19.9534	70.050361	0.000213	2.128020	0.720993	-0.000085
 505	5.0148e+01	19.9182	69.985767	0.000162	1.621349	0.549328	-0.000065
 506	5.0248e+01	19.8764	69.884838	0.000253	2.533357	0.858325	-0.000101
 507	5.0347e+01	19.8379	69.800058	0.000213	2.128020	0.720993	-0.000085
 508	5.0447e+01	19.7962	69.723353	0.000193	1.925352	0.652327	-0.000077
 509	5.0546e+01	19.7545	69.618387	0.000263	2.634692	0.892658	-0.000105
 510	5.0645e+01	19.7160	69.517459	0.000253	2.533357	0.858325	-0.000101
 511	5.0745e+01	19.6647	69.448828	0.000172	1.722683	0.583661	-0.000069
 512	5.0844e+01	19.6262	69.368085	0.000203	2.026686	0.686660	-0.000081
 513	5.0944e+01	19.5925	69.259082	0.000274	2.736026	0.926991	-0.000110
 514	5.1044e+01	19.5524	69.158154	0.000253	2.533357	0.858325	-0.000101
 515	5.1143e+01	19.5139	69.125857	0.000081	0.810674	0.274664	-0.000032
 516	5.1242e+01	19.4722	68.996668	0.000324	3.242697	1.098656	-0.000130
 517	5.1342e+01	19.4369	68.915926	0.000203	2.026686	0.686660	-0.000081
 518	5.1441e+01	19.3920	68.827109	0.000223	2.229354	0.755326	-0.000089
 519	5.1541e+01	19.3551	68.750403	0.000193	1.925352	0.652327	-0.000077
 520	5.1641e+01	19.3182	68.625252	0.000314	3.141363	1.064323	-0.000126
 521	5.1740e+01	19.2716	68.544509	0.000203	2.026686	0.686660	-0.000081
 522	5.1840e+01	19.2331	68.447618	0.000243	2.432023	0.823992	-0.000097
 523	5.1939e+01	19.1930	68.366875	0.000203	2.026686	0.686660	-0.000081
 524	5.2038e+01	19.1529	68.286132	0.000203	2.026686	0.686660	-0.000081
 525	5.2138e+01	19.1160	68.165018	0.000304	3.040029	1.029990	-0.000122
 526	5.2237e+01	19.0807	68.056016	0.000274	2.736026	0.926991	-0.000110
 527	5.2337e+01	19.0406	67.971236	0.000213	2.128020	0.720993	-0.000085
 528	5.2437e+01	18.9957	67.858196	0.000284	2.837360	0.961324	-0.000114
 529	5.2536e+01	18.9556	67.813788	0.000111	1.114677	0.377663	-0.000045
 530	5.2636e+01	18.9283	67.688636	0.000314	3.141363	1.064323	-0.000126
 531	5.2735e+01	18.8786	67.579634	0.000274	2.736026	0.926991	-0.000110
 532	5.2834e+01	18.8401	67.486780	0.000233	2.330689	0.789659	-0.000093
 533	5.2934e+01	18.7936	67.381814	0.000263	2.634692	0.892658	-0.000105
 534	5.3033e+01	18.7631	67.301071	0.000203	2.026686	0.686660	-0.000081
 535	5.3133e+01	18.7166	67.208217	0.000233	2.330689	0.789659	-0.000093
 536	5.3233e+01	18.6893	67.119400	0.000223	2.229354	0.755326	-0.000089
 537	5.3332e+01	18.6460	66.994249	0.000314	3.141363	1.064323	-0.000126
 538	5.3431e+01	18.5995	66.937729	0.000142	1.418680	0.480662	-0.000057
 539	5.3531e+01	18.5546	66.812578	0.000314	3.141363	1.064323	-0.000126
 540	5.3630e+01	18.5225	66.707612	0.000263	2.634692	0.892658	-0.000105
 541	5.3730e+01	18.4792	66.634944	0.000182	1.824017	0.617994	-0.000073
 542	5.3830e+01	18.4374	66.509793	0.000314	3.141363	1.064323	-0.000126
 543	5.3929e+01	18.4038	66.412901	0.000243	2.432023	0.823992	-0.000097
 544	5.4029e+01	18.3717	66.332159	0.000203	2.026686	0.686660	-0.000081
 545	5.4128e+01	18.3171	66.259490	0.000182	1.824017	0.617994	-0.000073
 546	5.4227e+01	18.2834	66.138376	0.000304	3.040029	1.029990	-0.000122
 547	5.4327e+01	18.2353	66.053596	0.000213	2.128020	0.720993	-0.000085
 548	5.4426e+01	18.2000	65.952668	0.000253	2.533357	0.858325	-0.000101
 549	5.4526e+01	18.1519	65.843665	0.000274	2.736026	0.926991	-0.000110
 550	5.4626e+01	18.1294	65.762923	0.000203	2.026686	0.686660	-0.000081
 551	5.4725e+01	18.0717	65.678143	0.000213	2.128020	0.720993	-0.000085
 552	5.4825e+01	18.0412	65.552992	0.000314	3.141363	1.064323	-0.000126
 553	5.4924e+01	17.9947	65.443989	0.000274	2.736026	0.926991	-0.000110
 554	5.5023e+01	17.9562	65.330949	0.000284	2.837360	0.961324	-0.000114
 555	5.5123e+01	17.9225	65.278466	0.000132	1.317346	0.446329	-0.000053
 556	5.5222e+01	17.8776	65.137167	0.000355	3.546700	1.201655	-0.000142
 557	5.5322e+01	17.8375	65.024127	0.000284	2.837360	0.961324	-0.000114
 558	5.5422e+01	17.8102	64.955495	0.000172	1.722683	0.583661	-0.000069
 559	5.5521e+01	17.7685	64.826307	0.000324	3.242697	1.098656	-0.000130
 560	5.5620e+01	17.7252	64.765750	0.000152	1.520014	0.514995	-0.000061
 561	5.5720e+01	17.6835	64.636562	0.000324	3.242697	1.098656	-0.000130
 562	5.5819e+01	17.6482	64.543708	0.000233	2.330689	0.789659	-0.000093
 563	5.5919e+01	17.5968	64.467002	0.000193	1.925352	0.652327	-0.000077
 564	5.6019e+01	17.5551	64.357999	0.000274	2.736026	0.926991	-0.000110
 565	5.6118e+01	17.5230	64.269182	0.000223	2.229354	0.755326	-0.000089
 566	5.6218e+01	17.4813	64.152105	0.000294	2.938694	0.995657	-0.000118
 567	5.6317e+01	17.4380	64.051177	0.000253	2.533357	0.858325	-0.000101
 568	5.6416e+01	17.4075	63.966397	0.000213	2.128020	0.720993	-0.000085
 569	5.6516e+01	17.3626	63.845283	0.000304	3.040029	1.029990	-0.000122
 570	5.6615e+01	17.3225	63.736280	0.000274	2.736026	0.926991	-0.000110
 571	5.6715e+01	17.2840	63.675723	0.000152	1.520014	0.514995	-0.000061
 572	5.6815e+01	17.2407	63.558646	0.000294	2.938694	0.995657	-0.000118
 573	5.6914e+01	17.1958	63.413310	0.000365	3.648034	1.235988	-0.000146
 574	5.7014e+01	17.1717	63.340641	0.000182	1.824017	0.617994	-0.000073
 575	5.7113e+01	17.1204	63.227601	0.000284	2.837360	0.961324	-0.000114
 576	5.7212e+01	17.0787	63.134747	0.000233	2.330689	0.789659	-0.000093
 577	5.7312e+01	17.0482	63.041893	0.000233	2.330689	0.789659	-0.000093
 578	5.7411e+01	16.9936	62.981336	0.000152	1.520014	0.514995	-0.000061
 579	5.7511e+01	16.9696	62.856185	0.000314	3.141363	1.064323	-0.000126
 580	5.7611e+01	16.9279	62.731034	0.000314	3.141363	1.064323	-0.000126
 581	5.7710e+01	16.8894	62.650291	0.000203	2.026686	0.686660	-0.000081
 582	5.7809e+01	16.8493	62.561474	0.000223	2.229354	0.755326	-0.000089
 583	5.7909e+01	16.8156	62.432286	0.000324	3.242697	1.098656	-0.000130
 584	5.8008e+01	16.7642	62.303097	0.000324	3.242697	1.098656	-0.000130
 585	5.8108e+01	16.7257	62.186020	0.000294	2.938694	0.995657	-0.000118
 586	5.8208e+01	16.6872	62.105278	0.000203	2.026686	0.686660	-0.000081
 587	5.8307e+01	16.6503	61.963978	0.000355	3.546700	1.201655	-0.000142
 588	5.8407e+01	16.6038	61.879198	0.000213	2.128020	0.720993	-0.000085
 589	5.8506e+01	16.5685	61.778270	0.000253	2.533357	0.858325	-0.000101
 590	5.8605e+01	16.5252	61.677341	0.000253	2.533357	0.858325	-0.000101
 591	5.8705e+01	16.4851	61.572376	0.000263	2.634692	0.892658	-0.000105
 592	5.8804e+01	16.4466	61.467410	0.000263	2.634692	0.892658	-0.000105
 593	5.8904e+01	16.4145	61.354370	0.000284	2.837360	0.961324	-0.000114
 594	5.9004e+01	16.3584	61.241331	0.000284	2.837360	0.961324	-0.000114
 595	5.9103e+01	16.3311	61.164625	0.000193	1.925352	0.652327	-0.000077
 596	5.9203e+01	16.2878	61.100031	0.000162	1.621349	0.549328	-0.000065
 597	5.9302e+01	16.2477	60.922397	0.000446	4.458709	1.510651	-0.000179
 598	5.9401e+01	16.2092	60.869914	0.000132	1.317346	0.446329	-0.000053
 599	5.9501e+01	16.1610	60.760911	0.000274	2.736026	0.926991	-0.000110
 600	5.9600e+01	16.1290	60.643834	0.000294	2.938694	0.995657	-0.000118
 601	5.9700e+01	16.0872	60.563092	0.000203	2.026686	0.686660	-0.000081
 602	5.9800e+01	16.0520	60.433903	0.000324	3.242697	1.098656	-0.000130
 603	5.9899e+01	16.0022	60.308752	0.000314	3.141363	1.064323	-0.000126
 604	5.9998e+01	15.9701	60.187638	0.000304	3.040029	1.029990	-0.000122
 605	6.0098e+01	15.9268	60.139193	0.000122	1.216011	0.411996	-0.000049
 606	6.0197e+01	15.8835	60.026153	0.000284	2.837360	0.961324	-0.000114
 607	6.0297e+01	15.8418	59.909076	0.000294	2.938694	0.995657	-0.000118
 608	6.0397e+01	15.8097	59.820259	0.000223	2.229354	0.755326	-0.000089
 609	6.0496e+01	15.7616	59.703182	0.000294	2.938694	0.995657	-0.000118
 610	6.0596e+01	15.7215	59.626476	0.000193	1.925352	0.652327	-0.000077
 611	6.0695e+01	15.6894	59.485177	0.000355	3.546700	1.201655	-0.000142
 612	6.0794e+01	15.6493	59.392322	0.000233	2.330689	0.789659	-0.000093
 613	6.0894e+01	15.6092	59.295431	0.000243	2.432023	0.823992	-0.000097
 614	6.0993e+01	15.5723	59.166243	0.000324	3.242697	1.098656	-0.000130
 615	6.1093e+01	15.5258	59.057240	0.000274	2.736026	0.926991	-0.000110
 616	6.1193e+01	15.4953	58.964386	0.000233	2.330689	0.789659	-0.000093
 617	6.1292e+01	15.4584	58.863458	0.000253	2.533357	0.858325	-0.000101
 618	6.1392e+01	15.4135	58.746381	0.000294	2.938694	0.995657	-0.000118
 619	6.1491e+01	15.3750	58.677749	0.000172	1.722683	0.583661	-0.000069
 620	6.1590e+01	15.3284	58.560672	0.000294	2.938694	0.995657	-0.000118
 621	6.1690e+01	15.2948	58.423410	0.000345	3.445366	1.167322	-0.000138
 622	6.1789e+01	15.2530	58.322481	0.000253	2.533357	0.858325	-0.000101
 623	6.1889e+01	15.2145	58.201367	0.000304	3.040029	1.029990	-0.000122
 624	6.1989e+01	15.1776	58.100439	0.000253	2.533357	0.858325	-0.000101
 625	6.2088e+01	15.1343	57.979325	0.000304	3.040029	1.029990	-0.000122
 626	6.2188e+01	15.0974	57.926842	0.000132	1.317346	0.446329	-0.000053
 627	6.2287e+01	15.0541	57.769394	0.000395	3.952037	1.338986	-0.000158
 628	6.2386e+01	15.0076	57.656354	0.000284	2.837360	0.961324	-0.000114
 629	6.2486e+01	14.9691	57.579648	0.000193	1.925352	0.652327	-0.000077
 630	6.2586e+01	14.9290	57.470646	0.000274	2.736026	0.926991	-0.000110
 631	6.2685e+01	14.8905	57.353569	0.000294	2.938694	0.995657	-0.000118
 632	6.2785e+01	14.8536	57.232455	0.000304	3.040029	1.029990	-0.000122
 633	6.2884e+01	14.8119	57.135564	0.000243	2.432023	0.823992	-0.000097
 634	6.2983e+01	14.7670	57.010412	0.000314	3.141363	1.064323	-0.000126
 635	6.3083e+01	14.7349	56.917558	0.000233	2.330689	0.789659	-0.000093
 636	6.3182e+01	14.6948	56.792407	0.000314	3.141363	1.064323	-0.000126
 637	6.3282e+01	14.6563	56.659182	0.000334	3.344032	1.132989	-0.000134
 638	6.3382e+01	14.6178	56.554216	0.000263	2.634692	0.892658	-0.000105
 639	6.3481e+01	14.5745	56.469436	0.000213	2.128020	0.720993	-0.000085
 640	6.3581e+01	14.5392	56.352359	0.000294	2.938694	0.995657	-0.000118
 641	6.3680e+01	14.4830	56.235282	0.000294	2.938694	0.995657	-0.000118
 642	6.3779e+01	14.4606	56.138391	0.000243	2.432023	0.823992	-0.000097
 643	6.3879e+01	14.4156	55.984980	0.000385	3.850703	1.304654	-0.000154
 644	6.3978e+01	14.3755	55.900200	0.000213	2.128020	0.720993	-0.000085
 645	6.4078e+01	14.3386	55.795234	0.000263	2.634692	0.892658	-0.000105
 646	6.4177e+01	14.3001	55.678158	0.000294	2.938694	0.995657	-0.000118
 647	6.4277e+01	14.2504	55.609526	0.000172	1.722683	0.583661	-0.000069
 648	6.4376e+01	14.2151	55.484375	0.000314	3.141363	1.064323	-0.000126
 649	6.4476e+01	14.1734	55.359224	0.000314	3.141363	1.064323	-0.000126
 650	6.4576e+01	14.1365	55.242147	0.000294	2.938694	0.995657	-0.000118
 651	6.4675e+01	14.0948	55.137181	0.000263	2.634692	0.892658	-0.000105
 652	6.4775e+01	14.0563	55.003956	0.000334	3.344032	1.132989	-0.000134
 653	6.4874e+01	14.0082	54.894953	0.000274	2.736026	0.926991	-0.000110
 654	6.4974e+01	13.9713	54.785951	0.000274	2.736026	0.926991	-0.000110
 655	6.5073e+01	13.9392	54.672911	0.000284	2.837360	0.961324	-0.000114
 656	6.5172e+01	13.8959	54.571982	0.000253	2.533357	0.858325	-0.000101
 657	6.5272e+01	13.8622	54.426645	0.000365	3.648034	1.235988	-0.000146
 658	6.5371e+01	13.8189	54.345903	0.000203	2.026686	0.686660	-0.000081
 659	6.5471e+01	13.7772	54.220752	0.000314	3.141363	1.064323	-0.000126
 660	6.5570e+01	13.7386	54.099637	0.000304	3.040029	1.029990	-0.000122
 661	6.5670e+01	13.6969	54.006783	0.000233	2.330689	0.789659	-0.000093
 662	6.5769e+01	13.6649	53.873558	0.000334	3.344032	1.132989	-0.000134
 663	6.5869e+01	13.6151	53.768592	0.000263	2.634692	0.892658	-0.000105
 664	6.5969e+01	13.5750	53.647478	0.000304	3.040029	1.029990	-0.000122
 665	6.6068e+01	13.5445	53.526364	0.000304	3.040029	1.029990	-0.000122
 666	6.6168e+01	13.5028	53.405250	0.000304	3.040029	1.029990	-0.000122
 667	6.6267e+01	13.4483	53.272025	0.000334	3.344032	1.132989	-0.000134
 668	6.6367e+01	13.4194	53.199356	0.000182	1.824017	0.617994	-0.000073
 669	6.6466e+01	13.3809	53.086316	0.000284	2.837360	0.961324	-0.000114
 670	6.6566e+01	13.3392	52.949054	0.000345	3.445366	1.167322	-0.000138
 671	6.6665e+01	13.2975	52.868311	0.000203	2.026686	0.686660	-0.000081
 672	6.6764e+01	13.2574	52.722974	0.000365	3.648034	1.235988	-0.000146
 673	6.6864e+01	13.2253	52.613972	0.000274	2.736026	0.926991	-0.000110
 674	6.6963e+01	13.1884	52.504969	0.000274	2.736026	0.926991	-0.000110
 675	6.7063e+01	13.1322	52.387892	0.000294	2.938694	0.995657	-0.000118
 676	6.7162e+01	13.0970	52.250629	0.000345	3.445366	1.167322	-0.000138
 677	6.7262e+01	13.0569	52.149701	0.000253	2.533357	0.858325	-0.000101
 678	6.7362e+01	13.0167	52.048773	0.000253	2.533357	0.858325	-0.000101
 679	6.7461e+01	12.9815	51.943807	0.000263	2.634692	0.892658	-0.000105
 680	6.7561e+01	12.9349	51.822693	0.000304	3.040029	1.029990	-0.000122
 681	6.7660e+01	12.9061	51.701579	0.000304	3.040029	1.029990	-0.000122
 682	6.7760e+01	12.8643	51.588539	0.000284	2.837360	0.961324	-0.000114
 683	6.7859e+01	12.8210	51.423016	0.000415	4.154706	1.407652	-0.000166
 684	6.7959e+01	12.7825	51.330162	0.000233	2.330689	0.789659	-0.000093
 685	6.8058e+01	12.7472	51.209048	0.000304	3.040029	1.029990	-0.000122
 686	6.8157e+01	12.7007	51.100046	0.000274	2.736026	0.926991	-0.000110
 687	6.8257e+01	12.6622	50.962783	0.000345	3.445366	1.167322	-0.000138
 688	6.8356e+01	12.6173	50.865892	0.000243	2.432023	0.823992	-0.000097
 689	6.8456e+01	12.5900	50.732666	0.000334	3.344032	1.132989	-0.000134
 690	6.8555e+01	12.5451	50.623664	0.000274	2.736026	0.926991	-0.000110
 691	6.8655e+01	12.5018	50.466215	0.000395	3.952037	1.338986	-0.000158
 692	6.8754e+01	12.4633	50.397584	0.000172	1.722683	0.583661	-0.000069
 693	6.8854e+01	12.4264	50.215913	0.000456	4.560043	1.544984	-0.000183
 694	6.8954e+01	12.3863	50.135170	0.000203	2.026686	0.686660	-0.000081
 695	6.9053e+01	12.3349	50.014056	0.000304	3.040029	1.029990	-0.000122
 696	6.9153e+01	12.3077	49.892942	0.000304	3.040029	1.029990	-0.000122
 697	6.9252e+01	12.2628	49.735494	0.000395	3.952037	1.338986	-0.000158
 698	6.9352e+01	12.2275	49.634565	0.000253	2.533357	0.858325	-0.000101
 699	6.9451e+01	12.1890	49.533637	0.000253	2.533357	0.858325	-0.000101
 700	6.9550e+01	12.1392	49.376189	0.000395	3.952037	1.338986	-0.000158
 701	6.9650e+01	12.1071	49.295446	0.000203	2.026686	0.686660	-0.000081
 702	6.9749e+01	12.0783	49.158183	0.000345	3.445366	1.167322	-0.000138
 703	6.9849e+01	12.0205	49.045144	0.000284	2.837360	0.961324	-0.000114
 704	6.9948e+01	11.9788	48.883658	0.000405	4.053372	1.373319	-0.000162
 705	7.0048e+01	11.9467	48.774655	0.000274	2.736026	0.926991	-0.000110
 706	7.0147e+01	11.8970	48.665653	0.000274	2.736026	0.926991	-0.000110
 707	7.0247e+01	11.8697	48.528390	0.000345	3.445366	1.167322	-0.000138
 708	7.0347e+01	11.8248	48.395165	0.000334	3.344032	1.132989	-0.000134
 709	7.0446e+01	11.7863	48.286162	0.000274	2.736026	0.926991	-0.000110
 710	7.0546e+01	11.7430	48.140825	0.000365	3.648034	1.235988	-0.000146
 711	7.0645e+01	11.6949	48.035860	0.000263	2.634692	0.892658	-0.000105
 712	7.0745e+01	11.6676	47.878411	0.000395	3.952037	1.338986	-0.000158
 713	7.0844e+01	11.6275	47.805743	0.000182	1.824017	0.617994	-0.000073
 714	7.0944e+01	11.5826	47.680592	0.000314	3.141363	1.064323	-0.000126
 715	7.1043e+01	11.5409	47.583700	0.000243	2.432023	0.823992	-0.000097
 716	7.1142e+01	11.5040	47.410104	0.000436	4.357374	1.476318	-0.000174
 717	7.1242e+01	11.4590	47.305138	0.000263	2.634692	0.892658	-0.000105
 718	7.1341e+01	11.4205	47.175950	0.000324	3.242697	1.098656	-0.000130
 719	7.1441e+01	11.3933	47.026576	0.000375	3.749369	1.270321	-0.000150
 720	7.1540e+01	11.3516	46.937759	0.000223	2.229354	0.755326	-0.000089
 721	7.1640e+01	11.2938	46.800496	0.000345	3.445366	1.167322	-0.000138
 722	7.1740e+01	11.2665	46.699568	0.000253	2.533357	0.858325	-0.000101
 723	7.1839e+01	11.2264	46.530008	0.000426	4.256040	1.441985	-0.000170
 724	7.1939e+01	11.1847	46.425042	0.000263	2.634692	0.892658	-0.000105
 725	7.2038e+01	11.1494	46.299891	0.000314	3.141363	1.064323	-0.000126
 726	7.2138e+01	11.1093	46.154554	0.000365	3.648034	1.235988	-0.000146
 727	7.2237e+01	11.0628	46.045552	0.000274	2.736026	0.926991	-0.000110
 728	7.2337e+01	11.0307	45.871955	0.000436	4.357374	1.476318	-0.000174
 729	7.2436e+01	10.9922	45.787175	0.000213	2.128020	0.720993	-0.000085
 730	7.2535e+01	10.9569	45.637801	0.000375	3.749369	1.270321	-0.000150
 731	7.2635e+01	10.9184	45.548984	0.000223	2.229354	0.755326	-0.000089
 732	7.2734e+01	10.8687	45.391536	0.000395	3.952037	1.338986	-0.000158
 733	7.2834e+01	10.8318	45.274459	0.000294	2.938694	0.995657	-0.000118
 734	7.2933e+01	10.7949	45.173530	0.000253	2.533357	0.858325	-0.000101
 735	7.3033e+01	10.7516	45.032231	0.000355	3.546700	1.201655	-0.000142
 736	7.3132e+01	10.7131	44.915154	0.000294	2.938694	0.995657	-0.000118
 737	7.3232e+01	10.6681	44.773854	0.000355	3.546700	1.201655	-0.000142
 738	7.3332e+01	10.6361	44.640628	0.000334	3.344032	1.132989	-0.000134
 739	7.3431e+01	10.5927	44.523551	0.000294	2.938694	0.995657	-0.000118
 740	7.3531e+01	10.5607	44.390326	0.000334	3.344032	1.132989	-0.000134
 741	7.3630e+01	10.5061	44.277286	0.000284	2.837360	0.961324	-0.000114
 742	7.3730e+01	10.4788	44.156172	0.000304	3.040029	1.029990	-0.000122
 743	7.3829e+01	10.4195	44.002761	0.000385	3.850703	1.304654	-0.000154
 744	7.3928e+01	10.3954	43.877610	0.000314	3.141363	1.064323	-0.000126
 745	7.4028e+01	10.3585	43.724199	0.000385	3.850703	1.304654	-0.000154
 746	7.4127e+01	10.3152	43.631344	0.000233	2.330689	0.789659	-0.000093
 747	7.4227e+01	10.2671	43.486008	0.000365	3.648034	1.235988	-0.000146
 748	7.4326e+01	10.2334	43.352782	0.000334	3.344032	1.132989	-0.000134
 749	7.4426e+01	10.1901	43.219557	0.000334	3.344032	1.132989	-0.000134
 750	7.4525e+01	10.1484	43.094405	0.000314	3.141363	1.064323	-0.000126
 751	7.4625e+01	10.1051	42.989440	0.000263	2.634692	0.892658	-0.000105
 752	7.4725e+01	10.0698	42.836029	0.000385	3.850703	1.304654	-0.000154
 753	7.4824e+01	10.0329	42.706840	0.000324	3.242697	1.098656	-0.000130
 754	7.4924e+01	9.9912	42.577652	0.000324	3.242697	1.098656	-0.000130
 755	7.5023e+01	9.9607	42.476724	0.000253	2.533357	0.858325	-0.000101
 756	7.5123e+01	9.9077	42.335424	0.000355	3.546700	1.201655	-0.000142
 757	7.5222e+01	9.8773	42.161827	0.000436	4.357374	1.476318	-0.000174
 758	7.5322e+01	9.8372	42.020527	0.000355	3.546700	1.201655	-0.000142
 759	7.5421e+01	9.7922	41.907488	0.000284	2.837360	0.961324	-0.000114
 760	7.5520e+01	9.7473	41.758114	0.000375	3.749369	1.270321	-0.000150
 761	7.5620e+01	9.7120	41.596628	0.000405	4.053372	1.373319	-0.000162
 762	7.5719e+01	9.6751	41.495700	0.000253	2.533357	0.858325	-0.000101
 763	7.5819e+01	9.6398	41.394771	0.000253	2.533357	0.858325	-0.000101
 764	7.5918e+01	9.5965	41.241360	0.000385	3.850703	1.304654	-0.000154
 765	7.6018e+01	9.5580	41.116209	0.000314	3.141363	1.064323	-0.000126
 766	7.6118e+01	9.5227	40.982983	0.000334	3.344032	1.132989	-0.000134
 767	7.6217e+01	9.4714	40.841684	0.000355	3.546700	1.201655	-0.000142
 768	7.6317e+01	9.4377	40.688273	0.000385	3.850703	1.304654	-0.000154
 769	7.6416e+01	9.4008	40.591381	0.000243	2.432023	0.823992	-0.000097
 770	7.6516e+01	9.3559	40.437970	0.000385	3.850703	1.304654	-0.000154
 771	7.6615e+01	9.3110	40.320893	0.000294	2.938694	0.995657	-0.000118
 772	7.6715e+01	9.2693	40.179593	0.000355	3.546700	1.201655	-0.000142
 773	7.6814e+01	9.2404	40.070591	0.000274	2.736026	0.926991	-0.000110
 774	7.6913e+01	9.1971	39.901031	0.000426	4.256040	1.441985	-0.000170
 775	7.7013e+01	9.1521	39.775880	0.000314	3.141363	1.064323	-0.000126
 776	7.7112e+01	9.1120	39.602283	0.000436	4.357374	1.476318	-0.000174
 777	7.7212e+01	9.0751	39.493280	0.000274	2.736026	0.926991	-0.000110
 778	7.7311e+01	9.0366	39.372166	0.000304	3.040029	1.029990	-0.000122
 779	7.7411e+01	8.9997	39.255089	0.000294	2.938694	0.995657	-0.000118
 780	7.7510e+01	8.9564	39.121864	0.000334	3.344032	1.132989	-0.000134
 781	7.7610e+01	8.9163	38.968453	0.000385	3.850703	1.304654	-0.000154
 782	7.7710e+01	8.8826	38.819079	0.000375	3.749369	1.270321	-0.000150
 783	7.7809e+01	8.8297	38.706039	0.000284	2.837360	0.961324	-0.000114
 784	7.7909e+01	8.8024	38.568776	0.000345	3.445366	1.167322	-0.000138
 785	7.8008e+01	8.7639	38.435551	0.000334	3.344032	1.132989	-0.000134
 786	7.8108e+01	8.7142	38.318474	0.000294	2.938694	0.995657	-0.000118
 787	7.8207e+01	8.6805	38.169100	0.000375	3.749369	1.270321	-0.000150
 788	7.8306e+01	8.6372	38.011652	0.000395	3.952037	1.338986	-0.000158
 789	7.8406e+01	8.5923	37.902649	0.000274	2.736026	0.926991	-0.000110
 790	7.8505e+01	8.5522	37.749238	0.000385	3.850703	1.304654	-0.000154
 791	7.8605e+01	8.5185	37.599864	0.000375	3.749369	1.270321	-0.000150
 792	7.8704e+01	8.4848	37.422230	0.000446	4.458709	1.510651	-0.000179
 793	7.8804e+01	8.4335	37.341487	0.000203	2.026686	0.686660	-0.000081
 794	7.8903e+01	8.3917	37.188076	0.000385	3.850703	1.304654	-0.000154
 795	7.9003e+01	8.3564	37.066962	0.000304	3.040029	1.029990	-0.000122
 796	7.9103e+01	8.3244	36.917588	0.000375	3.749369	1.270321	-0.000150
 797	7.9202e+01	8.2794	36.768214	0.000375	3.749369	1.270321	-0.000150
 798	7.9302e+01	8.2377	36.647100	0.000304	3.040029	1.029990	-0.000122
 799	7.9401e+01	8.1912	36.538097	0.000274	2.736026	0.926991	-0.000110
 800	7.9501e+01	8.1575	36.340277	0.000497	4.965380	1.682316	-0.000199
 801	7.9600e+01	8.1222	36.231275	0.000274	2.736026	0.926991	-0.000110
 802	7.9700e+01	8.0757	36.069789	0.000405	4.053372	1.373319	-0.000162
 803	7.9799e+01	8.0404	35.972898	0.000243	2.432023	0.823992	-0.000097
 804	7.9898e+01	8.0067	35.807375	0.000415	4.154706	1.407652	-0.000166
 805	7.9998e+01	7.9618	35.653964	0.000385	3.850703	1.304654	-0.000154
 806	8.0097e+01	7.9169	35.516702	0.000345	3.445366	1.167322	-0.000138
 807	8.0197e+01	7.8832	35.363290	0.000385	3.850703	1.304654	-0.000154
 808	8.0296e+01	7.8335	35.250251	0.000284	2.837360	0.961324	-0.000114
 809	8.0396e+01	7.8094	35.108951	0.000355	3.546700	1.201655	-0.000142
 810	8.0496e+01	7.7565	34.935354	0.000436	4.357374	1.476318	-0.000174
 811	8.0595e+01	7.7292	34.830389	0.000263	2.634692	0.892658	-0.000105
 812	8.0695e+01	7.6795	34.656792	0.000436	4.357374	1.476318	-0.000174
 813	8.0794e+01	7.6426	34.531641	0.000314	3.141363	1.064323	-0.000126
 814	8.0894e+01	7.6009	34.394378	0.000345	3.445366	1.167322	-0.000138
 815	8.0993e+01	7.5559	34.228855	0.000415	4.154706	1.407652	-0.000166
 816	8.1093e+01	7.5287	34.083518	0.000365	3.648034	1.235988	-0.000146
 817	8.1192e+01	7.4757	33.942219	0.000355	3.546700	1.201655	-0.000142
 818	8.1291e+01	7.4517	33.841290	0.000253	2.533357	0.858325	-0.000101
 819	8.1391e+01	7.4067	33.663656	0.000446	4.458709	1.510651	-0.000179
 820	8.1490e+01	7.3666	33.510245	0.000385	3.850703	1.304654	-0.000154
 821	8.1590e+01	7.3169	33.385094	0.000314	3.141363	1.064323	-0.000126
 822	8.1689e+01	7.2784	33.243794	0.000355	3.546700	1.201655	-0.000142
 823	8.1789e+01	7.2431	33.110569	0.000334	3.344032	1.132989	-0.000134
 824	8.1888e+01	7.1998	32.924861	0.000466	4.661377	1.579317	-0.000187
 825	8.1988e+01	7.1613	32.807784	0.000294	2.938694	0.995657	-0.000118
 826	8.2088e+01	7.1228	32.662447	0.000365	3.648034	1.235988	-0.000146
 827	8.2187e+01	7.0843	32.533258	0.000324	3.242697	1.098656	-0.000130
 828	8.2287e+01	7.0394	32.416181	0.000294	2.938694	0.995657	-0.000118
 829	8.2386e+01	7.0073	32.258733	0.000395	3.952037	1.338986	-0.000158
 830	8.2486e+01	6.9688	32.060913	0.000497	4.965380	1.682316	-0.000199
 831	8.2585e+01	6.9239	31.959985	0.000253	2.533357	0.858325	-0.000101
 832	8.2684e+01	6.8822	31.766203	0.000486	4.864046	1.647983	-0.000195
 833	8.2784e+01	6.8453	31.632977	0.000334	3.344032	1.132989	-0.000134
 834	8.2883e+01	6.8052	31.475529	0.000395	3.952037	1.338986	-0.000158
 835	8.2983e+01	6.7570	31.358452	0.000294	2.938694	0.995657	-0.000118
 836	8.3082e+01	6.7185	31.229264	0.000324	3.242697	1.098656	-0.000130
 837	8.3182e+01	6.6816	31.083927	0.000365	3.648034	1.235988	-0.000146
 838	8.3281e+01	6.6495	30.934553	0.000375	3.749369	1.270321	-0.000150
 839	8.3381e+01	6.6062	30.817476	0.000294	2.938694	0.995657	-0.000118
 840	8.3481e+01	6.5725	30.643879	0.000436	4.357374	1.476318	-0.000174
 841	8.3580e+01	6.5180	30.462208	0.000456	4.560043	1.544984	-0.000183
 842	8.3680e+01	6.4811	30.337057	0.000314	3.141363	1.064323	-0.000126
 843	8.3779e+01	6.4474	30.215942	0.000304	3.040029	1.029990	-0.000122
 844	8.3879e+01	6.4073	30.038308	0.000446	4.458709	1.510651	-0.000179
 845	8.3978e+01	6.3656	29.884897	0.000385	3.850703	1.304654	-0.000154
 846	8.4078e+01	6.3287	29.727449	0.000395	3.952037	1.338986	-0.000158
 847	8.4177e+01	6.2886	29.578075	0.000375	3.749369	1.270321	-0.000150
 848	8.4276e+01	6.2485	29.452924	0.000314	3.141363	1.064323	-0.000126
 849	8.4376e+01	6.1972	29.287401	0.000415	4.154706	1.407652	-0.000166
 850	8.4475e+01	6.1651	29.105730	0.000456	4.560043	1.544984	-0.000183
 851	8.4575e+01	6.1330	28.976542	0.000324	3.242697	1.098656	-0.000130
 852	8.4674e+01	6.0849	28.831205	0.000365	3.648034	1.235988	-0.000146
 853	8.4774e+01	6.0544	28.677794	0.000385	3.850703	1.304654	-0.000154
 854	8.4874e+01	6.0030	28.536494	0.000355	3.546700	1.201655	-0.000142
 855	8.4973e+01	5.9661	28.362897	0.000436	4.357374	1.476318	-0.000174
 856	8.5073e+01	5.9276	28.181226	0.000456	4.560043	1.544984	-0.000183
 857	8.5172e+01	5.8795	28.068186	0.000284	2.837360	0.961324	-0.000114
 858	8.5272e+01	5.8490	27.878441	0.000476	4.762712	1.613650	-0.000191
 859	8.5371e+01	5.8105	27.716955	0.000405	4.053372	1.373319	-0.000162
 860	8.5471e+01	5.7752	27.567581	0.000375	3.749369	1.270321	-0.000150
 861	8.5570e+01	5.7399	27.442430	0.000314	3.141363	1.064323	-0.000126
 862	8.5669e+01	5.6870	27.301130	0.000355	3.546700	1.201655	-0.000142
 863	8.5769e+01	5.6421	27.103311	0.000497	4.965380	1.682316	-0.000199
 864	8.5868e+01	5.6068	26.966048	0.000345	3.445366	1.167322	-0.000138
 865	8.5968e+01	5.5731	26.828786	0.000345	3.445366	1.167322	-0.000138
 866	8.6067e+01	5.5298	26.655189	0.000436	4.357374	1.476318	-0.000174
 867	8.6167e+01	5.4785	26.505815	0.000375	3.749369	1.270321	-0.000150
 868	8.6266e+01	5.4512	26.356441	0.000375	3.749369	1.270321	-0.000150
 869	8.6366e+01	5.4079	26.223215	0.000334	3.344032	1.132989	-0.000134
 870	8.6466e+01	5.3662	26.033470	0.000476	4.762712	1.613650	-0.000191
 871	8.6565e+01	5.3277	25.867947	0.000415	4.154706	1.407652	-0.000166
 872	8.6665e+01	5.2956	25.698388	0.000426	4.256040	1.441985	-0.000170
 873	8.6764e+01	5.2555	25.520754	0.000446	4.458709	1.510651	-0.000179
 874	8.6864e+01	5.2154	25.395602	0.000314	3.141363	1.064323	-0.000126
 875	8.6963e+01	5.1720	25.258340	0.000345	3.445366	1.167322	-0.000138
 876	8.7063e+01	5.1287	25.092817	0.000415	4.154706	1.407652	-0.000166
 877	8.7162e+01	5.0950	24.927295	0.000415	4.154706	1.407652	-0.000166
 878	8.7261e+01	5.0533	24.798106	0.000324	3.242697	1.098656	-0.000130
 879	8.7361e+01	5.0116	24.592212	0.000517	5.168049	1.750982	-0.000207
 880	8.7460e+01	4.9779	24.511470	0.000203	2.026686	0.686660	-0.000081
 881	8.7560e+01	4.9250	24.301539	0.000527	5.269383	1.785315	-0.000211
 882	8.7659e+01	4.8945	24.148127	0.000385	3.850703	1.304654	-0.000154
 883	8.7759e+01	4.8496	24.002791	0.000365	3.648034	1.235988	-0.000146
 884	8.7859e+01	4.8159	23.792859	0.000527	5.269383	1.785315	-0.000211
 885	8.7958e+01	4.7694	23.675783	0.000294	2.938694	0.995657	-0.000118
 886	8.8058e+01	4.7309	23.514297	0.000405	4.053372	1.373319	-0.000162
 887	8.8157e+01	4.6940	23.385109	0.000324	3.242697	1.098656	-0.000130
 888	8.8257e+01	4.6491	23.187289	0.000497	4.965380	1.682316	-0.000199
 889	8.8356e+01	4.6090	23.041952	0.000365	3.648034	1.235988	-0.000146
 890	8.8456e+01	4.5705	22.888541	0.000385	3.850703	1.304654	-0.000154
 891	8.8555e+01	4.5336	22.710907	0.000446	4.458709	1.510651	-0.000179
 892	8.8654e+01	4.4919	22.561533	0.000375	3.749369	1.270321	-0.000150
 893	8.8754e+01	4.4614	22.383899	0.000446	4.458709	1.510651	-0.000179
 894	8.8853e+01	4.4116	22.234525	0.000375	3.749369	1.270321	-0.000150
 895	8.8953e+01	4.3828	22.064965	0.000426	4.256040	1.441985	-0.000170
 896	8.9052e+01	4.3330	21.935777	0.000324	3.242697	1.098656	-0.000130
 897	8.9152e+01	4.2913	21.741995	0.000486	4.864046	1.647983	-0.000195
 898	8.9251e+01	4.2544	21.616843	0.000314	3.141363	1.064323	-0.000126
 899	8.9351e+01	4.2143	21.447284	0.000426	4.256040	1.441985	-0.000170
 900	8.9451e+01	4.1758	21.277724	0.000426	4.256040	1.441985	-0.000170
 901	8.9550e+01	4.1373	21.067793	0.000527	5.269383	1.785315	-0.000211
 902	8.9650e+01	4.0908	20.938605	0.000324	3.242697	1.098656	-0.000130
 903	8.9749e+01	4.0603	20.805379	0.000334	3.344032	1.132989	-0.000134
 904	8.9849e+01	4.0122	20.623708	0.000456	4.560043	1.544984	-0.000183
 905	8.9948e+01	3.9753	20.433963	0.000476	4.762712	1.613650	-0.000191
 906	9.0047e+01	3.9400	20.280551	0.000385	3.850703	1.304654	-0.000154
 907	9.0147e+01	3.8983	20.159437	0.000304	3.040029	1.029990	-0.000122
 908	9.0246e+01	3.8566	19.957581	0.000507	5.066715	1.716649	-0.000203
 909	9.0346e+01	3.8165	19.824355	0.000334	3.344032	1.132989	-0.000134
 910	9.0445e+01	3.7732	19.642684	0.000456	4.560043	1.544984	-0.000183
 911	9.0545e+01	3.7379	19.440827	0.000507	5.066715	1.716649	-0.000203
 912	9.0644e+01	3.6945	19.331824	0.000274	2.736026	0.926991	-0.000110
 913	9.0744e+01	3.6625	19.121893	0.000527	5.269383	1.785315	-0.000211
 914	9.0844e+01	3.6127	18.984631	0.000345	3.445366	1.167322	-0.000138
 915	9.0943e+01	3.5823	18.790848	0.000486	4.864046	1.647983	-0.000195
 916	9.1043e+01	3.5454	18.633400	0.000395	3.952037	1.338986	-0.000158
 917	9.1142e+01	3.5004	18.459803	0.000436	4.357374	1.476318	-0.000174
 918	9.1242e+01	3.4603	18.270058	0.000476	4.762712	1.613650	-0.000191
 919	9.1341e+01	3.4202	18.104535	0.000415	4.154706	1.407652	-0.000166
 920	9.1441e+01	3.3769	17.939013	0.000415	4.154706	1.407652	-0.000166
 921	9.1540e+01	3.3384	17.785601	0.000385	3.850703	1.304654	-0.000154
 922	9.1639e+01	3.2871	17.660450	0.000314	3.141363	1.064323	-0.000126
 923	9.1739e+01	3.2582	17.458593	0.000507	5.066715	1.716649	-0.000203
 924	9.1838e+01	3.2133	17.272885	0.000466	4.661377	1.579317	-0.000187
 925	9.1938e+01	3.1812	17.107363	0.000415	4.154706	1.407652	-0.000166
 926	9.2037e+01	3.1427	16.970100	0.000345	3.445366	1.167322	-0.000138
 927	9.2137e+01	3.1026	16.792466	0.000446	4.458709	1.510651	-0.000179
 928	9.2237e+01	3.0577	16.598684	0.000486	4.864046	1.647983	-0.000195
 929	9.2336e+01	3.0176	16.412975	0.000466	4.661377	1.579317	-0.000187
 930	9.2436e+01	2.9823	16.275713	0.000345	3.445366	1.167322	-0.000138
 931	9.2535e+01	2.9374	16.049633	0.000567	5.674720	1.922647	-0.000227
 932	9.2635e+01	2.8940	15.944668	0.000263	2.634692	0.892658	-0.000105
 933	9.2734e+01	2.8571	15.767034	0.000446	4.458709	1.510651	-0.000179
 934	9.2834e+01	2.8186	15.581325	0.000466	4.661377	1.579317	-0.000187
 935	9.2933e+01	2.7769	15.415803	0.000415	4.154706	1.407652	-0.000166
 936	9.3032e+01	2.7320	15.274503	0.000355	3.546700	1.201655	-0.000142
 937	9.3132e+01	2.7047	15.092832	0.000456	4.560043	1.544984	-0.000183
 938	9.3231e+01	2.6582	14.927309	0.000415	4.154706	1.407652	-0.000166
 939	9.3331e+01	2.6197	14.765824	0.000405	4.053372	1.373319	-0.000162
 940	9.3430e+01	2.5812	14.616450	0.000375	3.749369	1.270321	-0.000150
 941	9.3530e+01	2.5427	14.414593	0.000507	5.066715	1.716649	-0.000203
 942	9.3629e+01	2.4978	14.245033	0.000426	4.256040	1.441985	-0.000170
 943	9.3729e+01	2.4625	14.091622	0.000385	3.850703	1.304654	-0.000154
 944	9.3829e+01	2.4272	13.901877	0.000476	4.762712	1.613650	-0.000191
 945	9.3928e+01	2.3823	13.732317	0.000426	4.256040	1.441985	-0.000170
 946	9.4028e+01	2.3406	13.574869	0.000395	3.952037	1.338986	-0.000158
 947	9.4127e+01	2.2973	13.401272	0.000436	4.357374	1.476318	-0.000174
 948	9.4227e+01	2.2684	13.215564	0.000466	4.661377	1.579317	-0.000187
 949	9.4326e+01	2.2283	13.054078	0.000405	4.053372	1.373319	-0.000162
 950	9.4425e+01	2.1898	12.896630	0.000395	3.952037	1.338986	-0.000158
 951	9.4525e+01	2.1417	12.718996	0.000446	4.458709	1.510651	-0.000179
 952	9.4624e+01	2.0967	12.525214	0.000486	4.864046	1.647983	-0.000195
 953	9.4724e+01	2.0663	12.391988	0.000334	3.344032	1.132989	-0.000134
 954	9.4823e+01	2.0245	12.161871	0.000578	5.776055	1.956980	-0.000231
 955	9.4923e+01	1.9796	12.000386	0.000405	4.053372	1.373319	-0.000162
 956	9.5022e+01	1.9443	11.822752	0.000446	4.458709	1.510651	-0.000179
 957	9.5122e+01	1.9074	11.637044	0.000466	4.661377	1.579317	-0.000187
 958	9.5222e+01	1.8497	11.471521	0.000415	4.154706	1.407652	-0.000166
 959	9.5321e+01	1.8192	11.330221	0.000355	3.546700	1.201655	-0.000142
 960	9.5421e+01	1.7791	11.116253	0.000537	5.370717	1.819648	-0.000215
 961	9.5520e+01	1.7454	10.958805	0.000395	3.952037	1.338986	-0.000158
 962	9.5620e+01	1.6989	10.760985	0.000497	4.965380	1.682316	-0.000199
 963	9.5719e+01	1.6636	10.599500	0.000405	4.053372	1.373319	-0.000162
 964	9.5819e+01	1.6283	10.462237	0.000345	3.445366	1.167322	-0.000138
 965	9.5918e+01	1.5850	10.244232	0.000547	5.472052	1.853981	-0.000219
 966	9.6017e+01	1.5465	10.030264	0.000537	5.370717	1.819648	-0.000215
 967	9.6117e+01	1.5000	9.876853	0.000385	3.850703	1.304654	-0.000154
 968	9.6216e+01	1.4695	9.711330	0.000415	4.154706	1.407652	-0.000166
 969	9.6316e+01	1.4294	9.565993	0.000365	3.648034	1.235988	-0.000146
 970	9.6415e+01	1.3861	9.339914	0.000567	5.674720	1.922647	-0.000227
 971	9.6515e+01	1.3443	9.170354	0.000426	4.256040	1.441985	-0.000170
 972	9.6615e+01	1.3058	9.025017	0.000365	3.648034	1.235988	-0.000146
 973	9.6714e+01	1.2641	8.802974	0.000557	5.573386	1.888314	-0.000223
 974	9.6814e+01	1.2272	8.653600	0.000375	3.749369	1.270321	-0.000150
 975	9.6913e+01	1.1919	8.427521	0.000567	5.674720	1.922647	-0.000227
 976	9.7013e+01	1.1438	8.282184	0.000365	3.648034	1.235988	-0.000146
 977	9.7112e+01	1.0989	8.116661	0.000415	4.154706	1.407652	-0.000166
 978	9.7212e+01	1.0780	7.914805	0.000507	5.066715	1.716649	-0.000203
 979	9.7311e+01	1.0203	7.733134	0.000456	4.560043	1.544984	-0.000183
 980	9.7410e+01	0.9882	7.547425	0.000466	4.661377	1.579317	-0.000187
 981	9.7510e+01	0.9465	7.369791	0.000446	4.458709	1.510651	-0.000179
 982	9.7609e+01	0.9032	7.184083	0.000466	4.661377	1.579317	-0.000187
 983	9.7709e+01	0.8711	7.038746	0.000365	3.648034	1.235988	-0.000146
 984	9.7808e+01	0.8246	6.836889	0.000507	5.066715	1.716649	-0.000203
 985	9.7908e+01	0.7861	6.639070	0.000497	4.965380	1.682316	-0.000199
 986	9.8007e+01	0.7508	6.457399	0.000456	4.560043	1.544984	-0.000183
 987	9.8107e+01	0.7043	6.283802	0.000436	4.357374	1.476318	-0.000174
 988	9.8207e+01	0.6722	6.085982	0.000497	4.965380	1.682316	-0.000199
 989	9.8306e+01	0.6273	5.916422	0.000426	4.256040	1.441985	-0.000170
 990	9.8406e+01	0.5888	5.746863	0.000426	4.256040	1.441985	-0.000170
 991	9.8505e+01	0.5519	5.561154	0.000466	4.661377	1.579317	-0.000187
 992	9.8605e+01	0.5053	5.371409	0.000476	4.762712	1.613650	-0.000191
 993	9.8704e+01	0.4684	5.205887	0.000415	4.154706	1.407652	-0.000166
 994	9.8803e+01	0.4331	5.024215	0.000456	4.560043	1.544984	-0.000183
 995	9.8903e+01	0.3898	4.822359	0.000507	5.066715	1.716649	-0.000203
 996	9.9002e+01	0.3561	4.644725	0.000446	4.458709	1.510651	-0.000179
 997	9.9102e+01	0.3144	4.450942	0.000486	4.864046	1.647983	-0.000195
 998	9.9201e+01	0.2695	4.277345	0.000436	4.357374	1.476318	-0.000174
 999	9.9301e+01	0.2278	4.103748	0.000436	4.357374	1.476318	-0.000174
1000	9.9400e+01	0.1893	3.885743	0.000547	5.472052	1.853981	-0.000219
1001	9.9500e+01	0.1524	3.724258	0.000405	4.053372	1.373319	-0.000162
1002	9.9600e+01	0.1011	3.522401	0.000507	5.066715	1.716649	-0.000203
1003	9.9699e+01	0.0674	3.364953	0.000395	3.952037	1.338986	-0.000158
1004	9.9799e+01	0.0289	3.134836	0.000578	5.776055	1.956980	-0.000231
1005	9.9898e+01	0.0016	3.005648	0.000324	3.242697	1.098656	-0.000130
1006	9.9998e+01	-0.0465	2.836088	0.000426	4.256040	1.441985	-0.000170
1007	1.0010e+02	-0.0786	2.650380	0.000466	4.661377	1.579317	-0.000187
1008	1.0020e+02	-0.1235	2.452560	0.000497	4.965380	1.682316	-0.000199
1009	1.0030e+02	-0.1604	2.262815	0.000476	4.762712	1.613650	-0.000191
1010	1.0040e+02	-0.2021	2.073069	0.000476	4.762712	1.613650	-0.000191
1011	1.0050e+02	-0.2471	1.891398	0.000456	4.560043	1.544984	-0.000183
1012	1.0059e+02	-0.2807	1.737987	0.000385	3.850703	1.304654	-0.000154
1013	1.0069e+02	-0.3208	1.536130	0.000507	5.066715	1.716649	-0.000203
1014	1.0079e+02	-0.3561	1.338310	0.000497	4.965380	1.682316	-0.000199
1015	1.0089e+02	-0.3978	1.201048	0.000345	3.445366	1.167322	-0.000138
1016	1.0099e+02	-0.4444	0.966894	0.000588	5.877389	1.991313	-0.000235
1017	1.0109e+02	-0.4749	0.797334	0.000426	4.256040	1.441985	-0.000170
1018	1.0119e+02	-0.5085	0.575292	0.000557	5.573386	1.888314	-0.000223
1019	1.0129e+02	-0.5647	0.397658	0.000446	4.458709	1.510651	-0.000179
1020	1.0139e+02	-0.5968	0.199838	0.000497	4.965380	1.682316	-0.000199
1021	1.0149e+02	-0.6401	-0.006056	0.000517	5.168049	1.750982	-0.000207
1022	1.0159e+02	-0.6882	-0.179653	0.000436	4.357374	1.476318	-0.000174
1023	1.0169e+02	-0.7235	-0.373435	0.000486	4.864046	1.647983	-0.000195
1024	1.0179e+02	-0.7556	-0.530883	0.000395	3.952037	1.338986	-0.000158
1025	1.0189e+02	-0.8005	-0.761000	0.000578	5.776055	1.956980	-0.000231
1026	1.0199e+02	-0.8406	-0.962857	0.000507	5.066715	1.716649	-0.000203
1027	1.0209e+02	-0.8743	-1.144528	0.000456	4.560043	1.544984	-0.000183
1028	1.0219e+02	-0.9176	-1.330236	0.000466	4.661377	1.579317	-0.000187
1029	1.0229e+02	-0.9625	-1.491722	0.000405	4.053372	1.373319	-0.000162
1030	1.0239e+02	-0.9978	-1.709727	0.000547	5.472052	1.853981	-0.000219
1031	1.0248e+02	-1.0492	-1.915621	0.000517	5.168049	1.750982	-0.000207
1032	1.0258e+02	-1.0748	-2.089218	0.000436	4.357374	1.476318	-0.000174
1033	1.0268e+02	-1.1133	-2.274926	0.000466	4.661377	1.579317	-0.000187
1034	1.0278e+02	-1.1550	-2.444486	0.000426	4.256040	1.441985	-0.000170
1035	1.0288e+02	-1.2112	-2.686714	0.000608	6.080057	2.059979	-0.000243
1036	1.0298e+02	-1.2385	-2.860311	0.000436	4.357374	1.476318	-0.000174
1037	1.0308e+02	-1.2689	-3.054093	0.000486	4.864046	1.647983	-0.000195
1038	1.0318e+02	-1.3219	-3.227690	0.000436	4.357374	1.476318	-0.000174
1039	1.0328e+02	-1.3572	-3.457807	0.000578	5.776055	1.956980	-0.000231
1040	1.0338e+02	-1.4021	-3.615255	0.000395	3.952037	1.338986	-0.000158
1041	1.0348e+02	-1.4278	-3.841335	0.000567	5.674720	1.922647	-0.000227
1042	1.0358e+02	-1.4727	-4.023006	0.000456	4.560043	1.544984	-0.000183
1043	1.0368e+02	-1.5208	-4.196603	0.000436	4.357374	1.476318	-0.000174
1044	1.0378e+02	-1.5609	-4.374237	0.000446	4.458709	1.510651	-0.000179
1045	1.0388e+02	-1.5946	-4.551871	0.000446	4.458709	1.510651	-0.000179
1046	1.0398e+02	-1.6331	-4.769876	0.000547	5.472052	1.853981	-0.000219
1047	1.0408e+02	-1.6700	-4.955584	0.000466	4.661377	1.579317	-0.000187
1048	1.0418e+02	-1.7165	-5.149367	0.000486	4.864046	1.647983	-0.000195
1049	1.0428e+02	-1.7598	-5.310852	0.000405	4.053372	1.373319	-0.000162
1050	1.0438e+02	-1.7983	-5.508672	0.000497	4.965380	1.682316	-0.000199
1051	1.0447e+02	-1.8401	-5.662083	0.000385	3.850703	1.304654	-0.000154
1052	1.0457e+02	-1.8705	-5.932571	0.000679	6.789397	2.300310	-0.000272
1053	1.0467e+02	-1.9203	-6.118279	0.000466	4.661377	1.579317	-0.000187
1054	1.0477e+02	-1.9540	-6.283802	0.000415	4.154706	1.407652	-0.000166
1055	1.0487e+02	-2.0005	-6.461436	0.000446	4.458709	1.510651	-0.000179
1056	1.0497e+02	-2.0310	-6.651181	0.000476	4.762712	1.613650	-0.000191
1057	1.0507e+02	-2.0807	-6.836889	0.000466	4.661377	1.579317	-0.000187
1058	1.0517e+02	-2.1096	-7.006449	0.000426	4.256040	1.441985	-0.000170
1059	1.0527e+02	-2.1561	-7.212343	0.000517	5.168049	1.750982	-0.000207
1060	1.0537e+02	-2.1946	-7.402088	0.000476	4.762712	1.613650	-0.000191
1061	1.0547e+02	-2.2347	-7.628168	0.000567	5.674720	1.922647	-0.000227
1062	1.0557e+02	-2.2796	-7.781579	0.000385	3.850703	1.304654	-0.000154
1063	1.0567e+02	-2.3149	-7.951139	0.000426	4.256040	1.441985	-0.000170
1064	1.0577e+02	-2.3534	-8.173181	0.000557	5.573386	1.888314	-0.000223
1065	1.0587e+02	-2.3935	-8.334667	0.000405	4.053372	1.373319	-0.000162
1066	1.0597e+02	-2.4352	-8.516338	0.000456	4.560043	1.544984	-0.000183
1067	1.0607e+02	-2.4705	-8.677823	0.000405	4.053372	1.373319	-0.000162
1068	1.0617e+02	-2.5122	-8.899866	0.000557	5.573386	1.888314	-0.000223
1069	1.0627e+02	-2.5604	-9.105760	0.000517	5.168049	1.750982	-0.000207
1070	1.0637e+02	-2.6005	-9.271282	0.000415	4.154706	1.407652	-0.000166
1071	1.0647e+02	-2.6293	-9.440842	0.000426	4.256040	1.441985	-0.000170
1072	1.0656e+02	-2.6694	-9.650773	0.000527	5.269383	1.785315	-0.000211
1073	1.0666e+02	-2.7176	-9.824370	0.000436	4.357374	1.476318	-0.000174
1074	1.0676e+02	-2.7529	-10.022189	0.000497	4.965380	1.682316	-0.000199
1075	1.0686e+02	-2.7946	-10.191749	0.000426	4.256040	1.441985	-0.000170
1076	1.0696e+02	-2.8154	-10.369383	0.000446	4.458709	1.510651	-0.000179
1077	1.0706e+02	-2.8539	-10.538943	0.000426	4.256040	1.441985	-0.000170
1078	1.0716e+02	-2.9133	-10.740800	0.000507	5.066715	1.716649	-0.000203
1079	1.0726e+02	-2.9502	-10.974954	0.000588	5.877389	1.991313	-0.000235
1080	1.0736e+02	-2.9903	-11.108179	0.000334	3.344032	1.132989	-0.000134
1081	1.0746e+02	-3.0400	-11.297924	0.000476	4.762712	1.613650	-0.000191
1082	1.0756e+02	-3.0753	-11.495744	0.000497	4.965380	1.682316	-0.000199
1083	1.0766e+02	-3.1090	-11.689527	0.000486	4.864046	1.647983	-0.000195
1084	1.0776e+02	-3.1523	-11.867161	0.000446	4.458709	1.510651	-0.000179
1085	1.0786e+02	-3.2037	-12.016535	0.000375	3.749369	1.270321	-0.000150
1086	1.0796e+02	-3.2261	-12.202243	0.000466	4.661377	1.579317	-0.000187
1087	1.0806e+02	-3.2742	-12.391988	0.000476	4.762712	1.613650	-0.000191
1088	1.0816e+02	-3.3079	-12.585771	0.000486	4.864046	1.647983	-0.000195
1089	1.0826e+02	-3.3464	-12.755330	0.000426	4.256040	1.441985	-0.000170
1090	1.0836e+02	-3.3913	-12.953150	0.000497	4.965380	1.682316	-0.000199
1091	1.0845e+02	-3.4379	-13.126747	0.000436	4.357374	1.476318	-0.000174
1092	1.0855e+02	-3.4587	-13.308418	0.000456	4.560043	1.544984	-0.000183
1093	1.0865e+02	-3.5165	-13.469903	0.000405	4.053372	1.373319	-0.000162
1094	1.0875e+02	-3.5534	-13.671760	0.000507	5.066715	1.716649	-0.000203
1095	1.0885e+02	-3.5887	-13.853431	0.000456	4.560043	1.544984	-0.000183
1096	1.0895e+02	-3.6208	-14.043177	0.000476	4.762712	1.613650	-0.000191
1097	1.0905e+02	-3.6657	-14.184476	0.000355	3.546700	1.201655	-0.000142
1098	1.0915e+02	-3.7090	-14.382296	0.000497	4.965380	1.682316	-0.000199
1099	1.0925e+02	-3.7459	-14.511484	0.000324	3.242697	1.098656	-0.000130
1100	1.0935e+02	-3.7892	-14.725453	0.000537	5.370717	1.819648	-0.000215
1101	1.0945e+02	-3.8373	-14.882901	0.000395	3.952037	1.338986	-0.000158
1102	1.0955e+02	-3.8646	-15.072646	0.000476	4.762712	1.613650	-0.000191
1103	1.0965e+02	-3.9175	-15.254317	0.000456	4.560043	1.544984	-0.000183
1104	1.0975e+02	-3.9512	-15.448100	0.000486	4.864046	1.647983	-0.000195
1105	1.0985e+02	-3.9929	-15.613622	0.000415	4.154706	1.407652	-0.000166
1106	1.0995e+02	-4.0298	-15.742811	0.000324	3.242697	1.098656	-0.000130
1107	1.1005e+02	-4.0619	-15.960816	0.000547	5.472052	1.853981	-0.000219
1108	1.1015e+02	-4.1052	-16.090004	0.000324	3.242697	1.098656	-0.000130
1109	1.1025e+02	-4.1453	-16.267638	0.000446	4.458709	1.510651	-0.000179
1110	1.1035e+02	-4.1854	-16.425087	0.000395	3.952037	1.338986	-0.000158
1111	1.1044e+02	-4.2272	-16.602721	0.000446	4.458709	1.510651	-0.000179
1112	1.1054e+02	-4.2689	-16.768243	0.000415	4.154706	1.407652	-0.000166
1113	1.1064e+02	-4.3106	-16.978174	0.000527	5.269383	1.785315	-0.000211
1114	1.1074e+02	-4.3475	-17.155808	0.000446	4.458709	1.510651	-0.000179
1115	1.1084e+02	-4.3796	-17.305182	0.000375	3.749369	1.270321	-0.000150
1116	1.1094e+02	-4.4293	-17.442445	0.000345	3.445366	1.167322	-0.000138
1117	1.1104e+02	-4.4662	-17.616042	0.000436	4.357374	1.476318	-0.000174
1118	1.1114e+02	-4.5031	-17.785601	0.000426	4.256040	1.441985	-0.000170
1119	1.1124e+02	-4.5480	-18.015718	0.000578	5.776055	1.956980	-0.000231
1120	1.1134e+02	-4.5865	-18.132795	0.000294	2.938694	0.995657	-0.000118
1121	1.1144e+02	-4.6362	-18.318503	0.000466	4.661377	1.579317	-0.000187
1122	1.1154e+02	-4.6699	-18.475952	0.000395	3.952037	1.338986	-0.000158
1123	1.1164e+02	-4.7132	-18.637437	0.000405	4.053372	1.373319	-0.000162
1124	1.1174e+02	-4.7517	-18.802960	0.000415	4.154706	1.407652	-0.000166
1125	1.1184e+02	-4.7806	-18.964445	0.000405	4.053372	1.373319	-0.000162
1126	1.1194e+02	-4.8239	-19.138042	0.000436	4.357374	1.476318	-0.000174
1127	1.1204e+02	-4.8608	-19.303565	0.000415	4.154706	1.407652	-0.000166
1128	1.1214e+02	-4.9025	-19.525607	0.000557	5.573386	1.888314	-0.000223
1129	1.1224e+02	-4.9250	-19.674981	0.000375	3.749369	1.270321	-0.000150
1130	1.1234e+02	-4.9892	-19.836466	0.000405	4.053372	1.373319	-0.000162
1131	1.1244e+02	-5.0229	-19.985840	0.000375	3.749369	1.270321	-0.000150
1132	1.1253e+02	-5.0646	-20.159437	0.000436	4.357374	1.476318	-0.000174
1133	1.1263e+02	-5.1031	-20.365331	0.000517	5.168049	1.750982	-0.000207
1134	1.1273e+02	-5.1416	-20.466260	0.000253	2.533357	0.858325	-0.000101
1135	1.1283e+02	-5.1817	-20.647931	0.000456	4.560043	1.544984	-0.000183
1136	1.1293e+02	-5.2234	-20.829602	0.000456	4.560043	1.544984	-0.000183
1137	1.1303e+02	-5.2619	-20.938605	0.000274	2.736026	0.926991	-0.000110
1138	1.1313e+02	-5.3100	-21.124313	0.000466	4.661377	1.579317	-0.000187
1139	1.1323e+02	-5.3469	-21.285798	0.000405	4.053372	1.373319	-0.000162
1140	1.1333e+02	-5.3838	-21.451321	0.000415	4.154706	1.407652	-0.000166
1141	1.1343e+02	-5.4271	-21.596658	0.000365	3.648034	1.235988	-0.000146
1142	1.1353e+02	-5.4656	-21.758143	0.000405	4.053372	1.373319	-0.000162
1143	1.1363e+02	-5.4977	-21.927703	0.000426	4.256040	1.441985	-0.000170
1144	1.1373e+02	-5.5458	-22.093225	0.000415	4.154706	1.407652	-0.000166
1145	1.1383e+02	-5.5827	-22.262785	0.000426	4.256040	1.441985	-0.000170
1146	1.1393e+02	-5.6228	-22.436382	0.000436	4.357374	1.476318	-0.000174
1147	1.1403e+02	-5.6613	-22.585756	0.000375	3.749369	1.270321	-0.000150
1148	1.1413e+02	-5.7014	-22.727056	0.000355	3.546700	1.201655	-0.000142
1149	1.1423e+02	-5.7464	-22.892578	0.000415	4.154706	1.407652	-0.000166
1150	1.1433e+02	-5.7833	-23.033878	0.000355	3.546700	1.201655	-0.000142
1151	1.1442e+02	-5.8186	-23.227660	0.000486	4.864046	1.647983	-0.000195
1152	1.1452e+02	-5.8667	-23.348775	0.000304	3.040029	1.029990	-0.000122
1153	1.1462e+02	-5.9004	-23.562743	0.000537	5.370717	1.819648	-0.000215
1154	1.1472e+02	-5.9453	-23.675783	0.000284	2.837360	0.961324	-0.000114
1155	1.1482e+02	-5.9758	-23.865528	0.000476	4.762712	1.613650	-0.000191
1156	1.1492e+02	-6.0191	-23.998753	0.000334	3.344032	1.132989	-0.000134
1157	1.1502e+02	-6.0576	-24.160239	0.000405	4.053372	1.373319	-0.000162
1158	1.1512e+02	-6.0977	-24.358058	0.000497	4.965380	1.682316	-0.000199
1159	1.1522e+02	-6.1426	-24.463024	0.000263	2.634692	0.892658	-0.000105
1160	1.1532e+02	-6.1811	-24.632584	0.000426	4.256040	1.441985	-0.000170
1161	1.1542e+02	-6.2164	-24.814255	0.000456	4.560043	1.544984	-0.000183
1162	1.1552e+02	-6.2533	-24.983815	0.000426	4.256040	1.441985	-0.000170
1163	1.1562e+02	-6.2998	-25.100891	0.000294	2.938694	0.995657	-0.000118
1164	1.1572e+02	-6.3431	-25.278525	0.000446	4.458709	1.510651	-0.000179
1165	1.1582e+02	-6.3736	-25.435974	0.000395	3.952037	1.338986	-0.000158
1166	1.1592e+02	-6.4121	-25.593422	0.000395	3.952037	1.338986	-0.000158
1167	1.1602e+02	-6.4602	-25.694350	0.000253	2.533357	0.858325	-0.000101
1168	1.1612e+02	-6.4971	-25.843724	0.000375	3.749369	1.270321	-0.000150
1169	1.1622e+02	-6.5405	-26.021358	0.000446	4.458709	1.510651	-0.000179
1170	1.1632e+02	-6.5709	-26.162658	0.000355	3.546700	1.201655	-0.000142
1171	1.1642e+02	-6.6110	-26.336255	0.000436	4.357374	1.476318	-0.000174
1172	1.1651e+02	-6.6511	-26.469480	0.000334	3.344032	1.132989	-0.000134
1173	1.1661e+02	-6.6945	-26.655189	0.000466	4.661377	1.579317	-0.000187
1174	1.1671e+02	-6.7265	-26.768229	0.000284	2.837360	0.961324	-0.000114
1175	1.1681e+02	-6.7715	-26.929714	0.000405	4.053372	1.373319	-0.000162
1176	1.1691e+02	-6.8244	-27.083125	0.000385	3.850703	1.304654	-0.000154
1177	1.1701e+02	-6.8549	-27.232499	0.000375	3.749369	1.270321	-0.000150
1178	1.1711e+02	-6.9014	-27.430319	0.000497	4.965380	1.682316	-0.000199
1179	1.1721e+02	-6.9223	-27.523173	0.000233	2.330689	0.789659	-0.000093
1180	1.1731e+02	-6.9752	-27.704844	0.000456	4.560043	1.544984	-0.000183
1181	1.1741e+02	-7.0089	-27.821921	0.000294	2.938694	0.995657	-0.000118
1182	1.1751e+02	-7.0538	-28.003592	0.000456	4.560043	1.544984	-0.000183
1183	1.1761e+02	-7.1003	-28.185263	0.000456	4.560043	1.544984	-0.000183
1184	1.1771e+02	-7.1292	-28.286192	0.000253	2.533357	0.858325	-0.000101
1185	1.1781e+02	-7.1741	-28.439603	0.000385	3.850703	1.304654	-0.000154
1186	1.1791e+02	-7.2062	-28.601088	0.000405	4.053372	1.373319	-0.000162
1187	1.1801e+02	-7.2463	-28.726239	0.000314	3.141363	1.064323	-0.000126
1188	1.1811e+02	-7.2896	-28.895799	0.000426	4.256040	1.441985	-0.000170
1189	1.1821e+02	-7.3362	-29.085544	0.000476	4.762712	1.613650	-0.000191
1190	1.1831e+02	-7.3763	-29.214733	0.000324	3.242697	1.098656	-0.000130
1191	1.1841e+02	-7.4116	-29.356033	0.000355	3.546700	1.201655	-0.000142
1192	1.1850e+02	-7.4452	-29.509444	0.000385	3.850703	1.304654	-0.000154
1193	1.1860e+02	-7.4918	-29.646706	0.000345	3.445366	1.167322	-0.000138
1194	1.1870e+02	-7.5303	-29.759746	0.000284	2.837360	0.961324	-0.000114
1195	1.1880e+02	-7.5800	-29.945454	0.000466	4.661377	1.579317	-0.000187
1196	1.1890e+02	-7.6057	-30.098865	0.000385	3.850703	1.304654	-0.000154
1197	1.1900e+02	-7.6474	-30.284574	0.000466	4.661377	1.579317	-0.000187
1198	1.1910e+02	-7.6875	-30.425873	0.000355	3.546700	1.201655	-0.000142
1199	1.1920e+02	-7.7372	-30.546988	0.000304	3.040029	1.029990	-0.000122
1200	1.1930e+02	-7.7661	-30.696362	0.000375	3.749369	1.270321	-0.000150
1201	1.1940e+02	-7.8094	-30.833624	0.000345	3.445366	1.167322	-0.000138
1202	1.1950e+02	-7.8607	-30.991072	0.000395	3.952037	1.338986	-0.000158
1203	1.1960e+02	-7.8912	-31.132372	0.000355	3.546700	1.201655	-0.000142
1204	1.1970e+02	-7.9313	-31.289821	0.000395	3.952037	1.338986	-0.000158
1205	1.1980e+02	-7.9650	-31.390749	0.000253	2.533357	0.858325	-0.000101
1206	1.1990e+02	-8.0147	-31.584531	0.000486	4.864046	1.647983	-0.000195
1207	1.2000e+02	-8.0549	-31.737943	0.000385	3.850703	1.304654	-0.000154
1208	1.2010e+02	-8.0998	-31.867131	0.000324	3.242697	1.098656	-0.000130
1209	1.2020e+02	-8.1319	-32.008431	0.000355	3.546700	1.201655	-0.000142
1210	1.2030e+02	-8.1655	-32.169916	0.000405	4.053372	1.373319	-0.000162
1211	1.2039e+02	-8.2137	-32.278919	0.000274	2.736026	0.926991	-0.000110
1212	1.2049e+02	-8.2409	-32.460590	0.000456	4.560043	1.544984	-0.000183
1213	1.2059e+02	-8.2939	-32.569593	0.000274	2.736026	0.926991	-0.000110
1214	1.2069e+02	-8.3324	-32.714929	0.000365	3.648034	1.235988	-0.000146
1215	1.2079e+02	-8.3677	-32.900638	0.000466	4.661377	1.579317	-0.000187
1216	1.2089e+02	-8.4190	-32.993492	0.000233	2.330689	0.789659	-0.000093
1217	1.2099e+02	-8.4415	-33.134792	0.000355	3.546700	1.201655	-0.000142
1218	1.2109e+02	-8.4896	-33.304351	0.000426	4.256040	1.441985	-0.000170
1219	1.2119e+02	-8.5393	-33.429502	0.000314	3.141363	1.064323	-0.000126
1220	1.2129e+02	-8.5634	-33.599062	0.000426	4.256040	1.441985	-0.000170
1221	1.2139e+02	-8.5987	-33.748436	0.000375	3.749369	1.270321	-0.000150
1222	1.2149e+02	-8.6372	-33.861476	0.000284	2.837360	0.961324	-0.000114
1223	1.2159e+02	-8.6821	-33.986627	0.000314	3.141363	1.064323	-0.000126
1224	1.2169e+02	-8.7286	-34.172335	0.000466	4.661377	1.579317	-0.000187
1225	1.2179e+02	-8.7655	-34.293450	0.000304	3.040029	1.029990	-0.000122
1226	1.2189e+02	-8.8056	-34.410526	0.000294	2.938694	0.995657	-0.000118
1227	1.2199e+02	-8.8489	-34.563938	0.000385	3.850703	1.304654	-0.000154
1228	1.2209e+02	-8.8923	-34.705237	0.000355	3.546700	1.201655	-0.000142
1229	1.2219e+02	-8.9292	-34.858649	0.000385	3.850703	1.304654	-0.000154
1230	1.2229e+02	-8.9741	-34.971688	0.000284	2.837360	0.961324	-0.000114
1231	1.2239e+02	-9.0110	-35.104914	0.000334	3.344032	1.132989	-0.000134
1232	1.2248e+02	-9.0447	-35.262362	0.000395	3.952037	1.338986	-0.000158
1233	1.2258e+02	-9.0912	-35.452107	0.000476	4.762712	1.613650	-0.000191
1234	1.2268e+02	-9.1281	-35.557073	0.000263	2.634692	0.892658	-0.000105
1235	1.2278e+02	-9.1602	-35.666076	0.000274	2.736026	0.926991	-0.000110
1236	1.2288e+02	-9.1971	-35.795264	0.000324	3.242697	1.098656	-0.000130
1237	1.2298e+02	-9.2452	-35.948675	0.000385	3.850703	1.304654	-0.000154
1238	1.2308e+02	-9.2885	-36.114198	0.000415	4.154706	1.407652	-0.000166
1239	1.2318e+02	-9.3222	-36.267609	0.000385	3.850703	1.304654	-0.000154
1240	1.2328e+02	-9.3703	-36.376612	0.000274	2.736026	0.926991	-0.000110
1241	1.2338e+02	-9.3960	-36.501763	0.000314	3.141363	1.064323	-0.000126
1242	1.2348e+02	-9.4457	-36.647100	0.000365	3.648034	1.235988	-0.000146
1243	1.2358e+02	-9.4810	-36.788399	0.000355	3.546700	1.201655	-0.000142
1244	1.2368e+02	-9.5275	-36.957959	0.000426	4.256040	1.441985	-0.000170
1245	1.2378e+02	-9.5612	-37.046776	0.000223	2.229354	0.755326	-0.000089
1246	1.2388e+02	-9.6045	-37.188076	0.000355	3.546700	1.201655	-0.000142
1247	1.2398e+02	-9.6318	-37.313227	0.000314	3.141363	1.064323	-0.000126
1248	1.2408e+02	-9.6912	-37.442415	0.000324	3.242697	1.098656	-0.000130
1249	1.2418e+02	-9.7233	-37.636198	0.000486	4.864046	1.647983	-0.000195
1250	1.2428e+02	-9.7634	-37.769423	0.000334	3.344032	1.132989	-0.000134
1251	1.2438e+02	-9.7987	-37.874389	0.000263	2.634692	0.892658	-0.000105
1252	1.2447e+02	-9.8388	-38.031837	0.000395	3.952037	1.338986	-0.000158
1253	1.2457e+02	-9.8837	-38.112580	0.000203	2.026686	0.686660	-0.000081
1254	1.2467e+02	-9.9286	-38.282140	0.000426	4.256040	1.441985	-0.000170
1255	1.2477e+02	-9.9607	-38.435551	0.000385	3.850703	1.304654	-0.000154
1256	1.2487e+02	-10.0040	-38.576851	0.000355	3.546700	1.201655	-0.000142
1257	1.2497e+02	-10.0425	-38.689890	0.000284	2.837360	0.961324	-0.000114
1258	1.2507e+02	-10.0858	-38.843302	0.000385	3.850703	1.304654	-0.000154
1259	1.2517e+02	-10.1275	-38.992676	0.000375	3.749369	1.270321	-0.000150
1260	1.2527e+02	-10.1644	-39.085530	0.000233	2.330689	0.789659	-0.000093
1261	1.2537e+02	-10.1965	-39.263164	0.000446	4.458709	1.510651	-0.000179
1262	1.2547e+02	-10.2398	-39.351981	0.000223	2.229354	0.755326	-0.000089
1263	1.2557e+02	-10.2847	-39.505392	0.000385	3.850703	1.304654	-0.000154
1264	1.2567e+02	-10.3232	-39.626506	0.000304	3.040029	1.029990	-0.000122
1265	1.2577e+02	-10.3553	-39.763768	0.000345	3.445366	1.167322	-0.000138
1266	1.2587e+02	-10.4067	-39.856623	0.000233	2.330689	0.789659	-0.000093
1267	1.2597e+02	-10.4452	-40.054442	0.000497	4.965380	1.682316	-0.000199
1268	1.2607e+02	-10.4724	-40.135185	0.000203	2.026686	0.686660	-0.000081
1269	1.2617e+02	-10.5190	-40.296670	0.000405	4.053372	1.373319	-0.000162
1270	1.2627e+02	-10.5639	-40.401636	0.000263	2.634692	0.892658	-0.000105
1271	1.2636e+02	-10.5976	-40.559084	0.000395	3.952037	1.338986	-0.000158
1272	1.2646e+02	-10.6473	-40.728644	0.000426	4.256040	1.441985	-0.000170
1273	1.2656e+02	-10.6778	-40.821498	0.000233	2.330689	0.789659	-0.000093
1274	1.2666e+02	-10.7243	-40.946649	0.000314	3.141363	1.064323	-0.000126
1275	1.2676e+02	-10.7500	-41.071800	0.000314	3.141363	1.064323	-0.000126
1276	1.2686e+02	-10.7981	-41.217137	0.000365	3.648034	1.235988	-0.000146
1277	1.2696e+02	-10.8398	-41.297880	0.000203	2.026686	0.686660	-0.000081
1278	1.2706e+02	-10.8863	-41.471477	0.000436	4.357374	1.476318	-0.000174
1279	1.2716e+02	-10.9168	-41.604702	0.000334	3.344032	1.132989	-0.000134
1280	1.2726e+02	-10.9537	-41.721779	0.000294	2.938694	0.995657	-0.000118
1281	1.2736e+02	-10.9954	-41.842893	0.000304	3.040029	1.029990	-0.000122
1282	1.2746e+02	-11.0371	-41.943822	0.000253	2.533357	0.858325	-0.000101
1283	1.2756e+02	-11.0836	-42.089159	0.000365	3.648034	1.235988	-0.000146
1284	1.2766e+02	-11.1205	-42.230458	0.000355	3.546700	1.201655	-0.000142
1285	1.2776e+02	-11.1574	-42.347535	0.000294	2.938694	0.995657	-0.000118
1286	1.2786e+02	-11.1927	-42.500946	0.000385	3.850703	1.304654	-0.000154
1287	1.2796e+02	-11.2312	-42.626098	0.000314	3.141363	1.064323	-0.000126
1288	1.2806e+02	-11.2729	-42.767397	0.000355	3.546700	1.201655	-0.000142
1289	1.2816e+02	-11.3211	-42.856214	0.000223	2.229354	0.755326	-0.000089
1290	1.2826e+02	-11.3516	-42.993477	0.000345	3.445366	1.167322	-0.000138
1291	1.2835e+02	-11.3933	-43.086331	0.000233	2.330689	0.789659	-0.000093
1292	1.2845e+02	-11.4350	-43.255891	0.000426	4.256040	1.441985	-0.000170
1293	1.2855e+02	-11.4783	-43.393153	0.000345	3.445366	1.167322	-0.000138
1294	1.2865e+02	-11.5088	-43.486008	0.000233	2.330689	0.789659	-0.000093
1295	1.2875e+02	-11.5457	-43.643456	0.000395	3.952037	1.338986	-0.000158
1296	1.2885e+02	-11.5986	-43.740347	0.000243	2.432023	0.823992	-0.000097
1297	1.2895e+02	-11.6387	-43.881647	0.000355	3.546700	1.201655	-0.000142
1298	1.2905e+02	-11.6788	-44.010835	0.000324	3.242697	1.098656	-0.000130
1299	1.2915e+02	-11.7189	-44.119838	0.000274	2.736026	0.926991	-0.000110
1300	1.2925e+02	-11.7542	-44.273249	0.000385	3.850703	1.304654	-0.000154
1301	1.2935e+02	-11.7911	-44.374177	0.000253	2.533357	0.858325	-0.000101
1302	1.2945e+02	-11.8280	-44.487217	0.000284	2.837360	0.961324	-0.000114
1303	1.2955e+02	-11.8793	-44.632554	0.000365	3.648034	1.235988	-0.000146
1304	1.2965e+02	-11.9178	-44.802114	0.000426	4.256040	1.441985	-0.000170
1305	1.2975e+02	-11.9563	-44.927265	0.000314	3.141363	1.064323	-0.000126
1306	1.2985e+02	-12.0061	-45.024156	0.000243	2.432023	0.823992	-0.000097
1307	1.2995e+02	-12.0366	-45.157382	0.000334	3.344032	1.132989	-0.000134
1308	1.3005e+02	-12.0767	-45.258310	0.000253	2.533357	0.858325	-0.000101
1309	1.3015e+02	-12.1152	-45.411721	0.000385	3.850703	1.304654	-0.000154
1310	1.3025e+02	-12.1601	-45.528798	0.000294	2.938694	0.995657	-0.000118
1311	1.3034e+02	-12.1954	-45.645875	0.000294	2.938694	0.995657	-0.000118
1312	1.3044e+02	-12.2323	-45.754878	0.000274	2.736026	0.926991	-0.000110
1313	1.3054e+02	-12.2708	-45.875992	0.000304	3.040029	1.029990	-0.000122
1314	1.3064e+02	-12.3157	-46.029403	0.000385	3.850703	1.304654	-0.000154
1315	1.3074e+02	-12.3542	-46.162629	0.000334	3.344032	1.132989	-0.000134
1316	1.3084e+02	-12.3991	-46.283743	0.000304	3.040029	1.029990	-0.000122
1317	1.3094e+02	-12.4344	-46.441191	0.000395	3.952037	1.338986	-0.000158
1318	1.3104e+02	-12.4697	-46.521934	0.000203	2.026686	0.686660	-0.000081
1319	1.3114e+02	-12.5210	-46.622862	0.000253	2.533357	0.858325	-0.000101
1320	1.3124e+02	-12.5467	-46.756088	0.000334	3.344032	1.132989	-0.000134
1321	1.3134e+02	-12.6045	-46.881239	0.000314	3.141363	1.064323	-0.000126
1322	1.3144e+02	-12.6430	-47.030613	0.000375	3.749369	1.270321	-0.000150
1323	1.3154e+02	-12.6734	-47.143653	0.000284	2.837360	0.961324	-0.000114
1324	1.3164e+02	-12.7103	-47.264767	0.000304	3.040029	1.029990	-0.000122
1325	1.3174e+02	-12.7520	-47.422215	0.000395	3.952037	1.338986	-0.000158
1326	1.3184e+02	-12.7889	-47.519106	0.000243	2.432023	0.823992	-0.000097
1327	1.3194e+02	-12.8355	-47.615997	0.000243	2.432023	0.823992	-0.000097
1328	1.3204e+02	-12.8692	-47.777483	0.000405	4.053372	1.373319	-0.000162
1329	1.3214e+02	-12.9109	-47.834003	0.000142	1.418680	0.480662	-0.000057
1330	1.3224e+02	-12.9430	-47.979340	0.000365	3.648034	1.235988	-0.000146
1331	1.3234e+02	-12.9863	-48.116602	0.000345	3.445366	1.167322	-0.000138
1332	1.3243e+02	-13.0280	-48.241754	0.000314	3.141363	1.064323	-0.000126
1333	1.3253e+02	-13.0713	-48.362868	0.000304	3.040029	1.029990	-0.000122
1334	1.3263e+02	-13.1082	-48.483982	0.000304	3.040029	1.029990	-0.000122
1335	1.3273e+02	-13.1483	-48.601059	0.000294	2.938694	0.995657	-0.000118
1336	1.3283e+02	-13.1900	-48.722173	0.000304	3.040029	1.029990	-0.000122
1337	1.3293e+02	-13.2317	-48.827138	0.000263	2.634692	0.892658	-0.000105
1338	1.3303e+02	-13.2670	-48.984586	0.000395	3.952037	1.338986	-0.000158
1339	1.3313e+02	-13.3055	-49.093589	0.000274	2.736026	0.926991	-0.000110
1340	1.3323e+02	-13.3552	-49.230852	0.000345	3.445366	1.167322	-0.000138
1341	1.3333e+02	-13.3937	-49.323706	0.000233	2.330689	0.789659	-0.000093
1342	1.3343e+02	-13.4387	-49.456931	0.000334	3.344032	1.132989	-0.000134
1343	1.3353e+02	-13.4691	-49.569971	0.000284	2.837360	0.961324	-0.000114
1344	1.3363e+02	-13.5076	-49.683011	0.000284	2.837360	0.961324	-0.000114
1345	1.3373e+02	-13.5526	-49.800088	0.000294	2.938694	0.995657	-0.000118
1346	1.3383e+02	-13.5862	-49.917165	0.000294	2.938694	0.995657	-0.000118
1347	1.3393e+02	-13.6231	-50.066539	0.000375	3.749369	1.270321	-0.000150
1348	1.3403e+02	-13.6633	-50.155356	0.000223	2.229354	0.755326	-0.000089
1349	1.3413e+02	-13.7098	-50.268396	0.000284	2.837360	0.961324	-0.000114
1350	1.3423e+02	-13.7386	-50.405658	0.000345	3.445366	1.167322	-0.000138
1351	1.3432e+02	-13.7788	-50.526772	0.000304	3.040029	1.029990	-0.000122
1352	1.3442e+02	-13.8301	-50.659998	0.000334	3.344032	1.132989	-0.000134
1353	1.3452e+02	-13.8542	-50.801298	0.000355	3.546700	1.201655	-0.000142
1354	1.3462e+02	-13.9199	-50.910300	0.000274	2.736026	0.926991	-0.000110
1355	1.3472e+02	-13.9584	-51.039489	0.000324	3.242697	1.098656	-0.000130
1356	1.3482e+02	-13.9841	-51.136380	0.000243	2.432023	0.823992	-0.000097
1357	1.3492e+02	-14.0226	-51.285754	0.000375	3.749369	1.270321	-0.000150
1358	1.3502e+02	-14.0643	-51.354385	0.000172	1.722683	0.583661	-0.000069
1359	1.3512e+02	-14.0996	-51.515871	0.000405	4.053372	1.373319	-0.000162
1360	1.3522e+02	-14.1493	-51.600650	0.000213	2.128020	0.720993	-0.000085
1361	1.3532e+02	-14.1830	-51.774247	0.000436	4.357374	1.476318	-0.000174
1362	1.3542e+02	-14.2231	-51.867101	0.000233	2.330689	0.789659	-0.000093
1363	1.3552e+02	-14.2584	-52.004364	0.000345	3.445366	1.167322	-0.000138
1364	1.3562e+02	-14.3065	-52.105292	0.000253	2.533357	0.858325	-0.000101
1365	1.3572e+02	-14.3467	-52.291001	0.000466	4.661377	1.579317	-0.000187
1366	1.3582e+02	-14.3868	-52.355595	0.000162	1.621349	0.549328	-0.000065
1367	1.3592e+02	-14.4253	-52.484783	0.000324	3.242697	1.098656	-0.000130
1368	1.3602e+02	-14.4686	-52.626083	0.000355	3.546700	1.201655	-0.000142
1369	1.3612e+02	-14.4991	-52.727011	0.000253	2.533357	0.858325	-0.000101
1370	1.3622e+02	-14.5360	-52.868311	0.000355	3.546700	1.201655	-0.000142
1371	1.3631e+02	-14.5841	-52.997499	0.000324	3.242697	1.098656	-0.000130
1372	1.3641e+02	-14.6210	-53.102465	0.000263	2.634692	0.892658	-0.000105
1373	1.3651e+02	-14.6627	-53.199356	0.000243	2.432023	0.823992	-0.000097
1374	1.3661e+02	-14.6948	-53.332582	0.000334	3.344032	1.132989	-0.000134
1375	1.3671e+02	-14.7477	-53.449659	0.000294	2.938694	0.995657	-0.000118
1376	1.3681e+02	-14.7894	-53.566736	0.000294	2.938694	0.995657	-0.000118
1377	1.3691e+02	-14.8279	-53.683812	0.000294	2.938694	0.995657	-0.000118
1378	1.3701e+02	-14.8568	-53.873558	0.000476	4.762712	1.613650	-0.000191
1379	1.3711e+02	-14.8921	-53.913929	0.000101	1.013343	0.343330	-0.000041
1380	1.3721e+02	-14.9418	-54.035043	0.000304	3.040029	1.029990	-0.000122
1381	1.3731e+02	-14.9835	-54.119823	0.000213	2.128020	0.720993	-0.000085
1382	1.3741e+02	-15.0108	-54.269197	0.000375	3.749369	1.270321	-0.000150
1383	1.3751e+02	-15.0670	-54.410497	0.000355	3.546700	1.201655	-0.000142
1384	1.3761e+02	-15.1055	-54.535648	0.000314	3.141363	1.064323	-0.000126
1385	1.3771e+02	-15.1456	-54.636577	0.000253	2.533357	0.858325	-0.000101
1386	1.3781e+02	-15.1809	-54.721356	0.000213	2.128020	0.720993	-0.000085
1387	1.3791e+02	-15.2242	-54.862656	0.000355	3.546700	1.201655	-0.000142
1388	1.3801e+02	-15.2595	-55.003956	0.000355	3.546700	1.201655	-0.000142
1389	1.3811e+02	-15.3012	-55.116996	0.000284	2.837360	0.961324	-0.000114
1390	1.3821e+02	-15.3413	-55.238110	0.000304	3.040029	1.029990	-0.000122
1391	1.3831e+02	-15.3766	-55.318852	0.000203	2.026686	0.686660	-0.000081
1392	1.3840e+02	-15.4183	-55.472264	0.000385	3.850703	1.304654	-0.000154
1393	1.3850e+02	-15.4536	-55.581266	0.000274	2.736026	0.926991	-0.000110
1394	1.3860e+02	-15.4985	-55.718529	0.000345	3.445366	1.167322	-0.000138
1395	1.3870e+02	-15.5418	-55.811383	0.000233	2.330689	0.789659	-0.000093
1396	1.3880e+02	-15.5883	-55.976906	0.000415	4.154706	1.407652	-0.000166
1397	1.3890e+02	-15.6140	-56.106094	0.000324	3.242697	1.098656	-0.000130
1398	1.3900e+02	-15.6605	-56.219134	0.000284	2.837360	0.961324	-0.000114
1399	1.3910e+02	-15.6990	-56.303914	0.000213	2.128020	0.720993	-0.000085
1400	1.3920e+02	-15.7359	-56.408879	0.000263	2.634692	0.892658	-0.000105
1401	1.3930e+02	-15.7889	-56.529993	0.000304	3.040029	1.029990	-0.000122
1402	1.3940e+02	-15.8290	-56.655144	0.000314	3.141363	1.064323	-0.000126
1403	1.3950e+02	-15.8514	-56.776258	0.000304	3.040029	1.029990	-0.000122
1404	1.3960e+02	-15.8979	-56.909484	0.000334	3.344032	1.132989	-0.000134
1405	1.3970e+02	-15.9477	-57.022524	0.000284	2.837360	0.961324	-0.000114
1406	1.3980e+02	-15.9814	-57.163823	0.000355	3.546700	1.201655	-0.000142
1407	1.3990e+02	-16.0183	-57.276863	0.000284	2.837360	0.961324	-0.000114
1408	1.4000e+02	-16.0520	-57.389903	0.000284	2.837360	0.961324	-0.000114
1409	1.4010e+02	-16.0937	-57.502943	0.000284	2.837360	0.961324	-0.000114
1410	1.4020e+02	-16.1434	-57.640205	0.000345	3.445366	1.167322	-0.000138
1411	1.4029e+02	-16.1819	-57.737097	0.000243	2.432023	0.823992	-0.000097
1412	1.4039e+02	-16.2268	-57.906656	0.000426	4.256040	1.441985	-0.000170
1413	1.4049e+02	-16.2493	-57.987399	0.000203	2.026686	0.686660	-0.000081
1414	1.4059e+02	-16.2990	-58.112550	0.000314	3.141363	1.064323	-0.000126
1415	1.4069e+02	-16.3375	-58.229627	0.000294	2.938694	0.995657	-0.000118
1416	1.4079e+02	-16.3744	-58.326519	0.000243	2.432023	0.823992	-0.000097
1417	1.4089e+02	-16.4145	-58.451670	0.000314	3.141363	1.064323	-0.000126
1418	1.4099e+02	-16.4578	-58.617192	0.000415	4.154706	1.407652	-0.000166
1419	1.4109e+02	-16.5027	-58.722158	0.000263	2.634692	0.892658	-0.000105
1420	1.4119e+02	-16.5348	-58.859420	0.000345	3.445366	1.167322	-0.000138
1421	1.4129e+02	-16.5797	-58.956312	0.000243	2.432023	0.823992	-0.000097
1422	1.4139e+02	-16.6231	-59.037054	0.000203	2.026686	0.686660	-0.000081
1423	1.4149e+02	-16.6551	-59.162206	0.000314	3.141363	1.064323	-0.000126
1424	1.4159e+02	-16.6904	-59.331765	0.000426	4.256040	1.441985	-0.000170
1425	1.4169e+02	-16.7402	-59.448842	0.000294	2.938694	0.995657	-0.000118
1426	1.4179e+02	-16.7803	-59.594179	0.000365	3.648034	1.235988	-0.000146
1427	1.4189e+02	-16.8124	-59.682996	0.000223	2.229354	0.755326	-0.000089
1428	1.4199e+02	-16.8541	-59.816222	0.000334	3.344032	1.132989	-0.000134
1429	1.4209e+02	-16.8926	-59.921187	0.000263	2.634692	0.892658	-0.000105
1430	1.4219e+02	-16.9375	-60.038264	0.000294	2.938694	0.995657	-0.000118
1431	1.4228e+02	-16.9744	-60.167452	0.000324	3.242697	1.098656	-0.000130
1432	1.4238e+02	-17.0193	-60.292604	0.000314	3.141363	1.064323	-0.000126
1433	1.4248e+02	-17.0546	-60.437941	0.000365	3.648034	1.235988	-0.000146
1434	1.4258e+02	-17.0947	-60.538869	0.000253	2.533357	0.858325	-0.000101
1435	1.4268e+02	-17.1364	-60.684206	0.000365	3.648034	1.235988	-0.000146
1436	1.4278e+02	-17.1653	-60.756874	0.000182	1.824017	0.617994	-0.000073
1437	1.4288e+02	-17.2166	-60.922397	0.000415	4.154706	1.407652	-0.000166
1438	1.4298e+02	-17.2567	-61.035437	0.000284	2.837360	0.961324	-0.000114
1439	1.4308e+02	-17.2904	-61.160588	0.000314	3.141363	1.064323	-0.000126
1440	1.4318e+02	-17.3305	-61.301888	0.000355	3.546700	1.201655	-0.000142
1441	1.4328e+02	-17.3690	-61.362445	0.000152	1.520014	0.514995	-0.000061
1442	1.4338e+02	-17.4172	-61.495670	0.000334	3.344032	1.132989	-0.000134
1443	1.4348e+02	-17.4524	-61.657156	0.000405	4.053372	1.373319	-0.000162
1444	1.4358e+02	-17.5006	-61.745973	0.000223	2.229354	0.755326	-0.000089
1445	1.4368e+02	-17.5343	-61.907458	0.000405	4.053372	1.373319	-0.000162
1446	1.4378e+02	-17.5744	-62.012424	0.000263	2.634692	0.892658	-0.000105
1447	1.4388e+02	-17.6081	-62.129500	0.000294	2.938694	0.995657	-0.000118
1448	1.4398e+02	-17.6514	-62.234466	0.000263	2.634692	0.892658	-0.000105
1449	1.4408e+02	-17.7043	-62.371729	0.000345	3.445366	1.167322	-0.000138
1450	1.4418e+02	-17.7284	-62.500917	0.000324	3.242697	1.098656	-0.000130
1451	1.4428e+02	-17.7733	-62.589734	0.000223	2.229354	0.755326	-0.000089
1452	1.4437e+02	-17.8166	-62.722959	0.000334	3.344032	1.132989	-0.000134
1453	1.4447e+02	-17.8551	-62.884445	0.000405	4.053372	1.373319	-0.000162
1454	1.4457e+02	-17.8952	-62.997485	0.000284	2.837360	0.961324	-0.000114
1455	1.4467e+02	-17.9369	-63.102450	0.000263	2.634692	0.892658	-0.000105
1456	1.4477e+02	-17.9722	-63.255861	0.000385	3.850703	1.304654	-0.000154
1457	1.4487e+02	-18.0043	-63.368901	0.000284	2.837360	0.961324	-0.000114
1458	1.4497e+02	-18.0540	-63.498089	0.000324	3.242697	1.098656	-0.000130
1459	1.4507e+02	-18.0941	-63.603055	0.000263	2.634692	0.892658	-0.000105
1460	1.4517e+02	-18.1342	-63.768578	0.000415	4.154706	1.407652	-0.000166
1461	1.4527e+02	-18.1711	-63.865469	0.000243	2.432023	0.823992	-0.000097
1462	1.4537e+02	-18.2161	-63.998694	0.000334	3.344032	1.132989	-0.000134
1463	1.4547e+02	-18.2449	-64.111734	0.000284	2.837360	0.961324	-0.000114
1464	1.4557e+02	-18.2899	-64.289368	0.000446	4.458709	1.510651	-0.000179
1465	1.4567e+02	-18.3348	-64.366074	0.000193	1.925352	0.652327	-0.000077
1466	1.4577e+02	-18.3604	-64.491225	0.000314	3.141363	1.064323	-0.000126
1467	1.4587e+02	-18.4102	-64.636562	0.000365	3.648034	1.235988	-0.000146
1468	1.4597e+02	-18.4535	-64.777861	0.000355	3.546700	1.201655	-0.000142
1469	1.4607e+02	-18.4920	-64.919161	0.000355	3.546700	1.201655	-0.000142
1470	1.4617e+02	-18.5225	-65.040275	0.000304	3.040029	1.029990	-0.000122
1471	1.4626e+02	-18.5706	-65.145241	0.000263	2.634692	0.892658	-0.000105
1472	1.4636e+02	-18.5979	-65.310763	0.000415	4.154706	1.407652	-0.000166
1473	1.4646e+02	-18.6588	-65.415729	0.000263	2.634692	0.892658	-0.000105
1474	1.4656e+02	-18.6813	-65.520694	0.000263	2.634692	0.892658	-0.000105
1475	1.4666e+02	-18.7358	-65.686217	0.000415	4.154706	1.407652	-0.000166
1476	1.4676e+02	-18.7567	-65.807331	0.000304	3.040029	1.029990	-0.000122
1477	1.4686e+02	-18.8080	-65.952668	0.000365	3.648034	1.235988	-0.000146
1478	1.4696e+02	-18.8481	-66.065708	0.000284	2.837360	0.961324	-0.000114
1479	1.4706e+02	-18.8979	-66.247379	0.000456	4.560043	1.544984	-0.000183
1480	1.4716e+02	-18.9316	-66.372530	0.000314	3.141363	1.064323	-0.000126
1481	1.4726e+02	-18.9620	-66.489607	0.000294	2.938694	0.995657	-0.000118
1482	1.4736e+02	-19.0037	-66.622833	0.000334	3.344032	1.132989	-0.000134
1483	1.4746e+02	-19.0519	-66.723761	0.000253	2.533357	0.858325	-0.000101
1484	1.4756e+02	-19.0920	-66.909469	0.000466	4.661377	1.579317	-0.000187
1485	1.4766e+02	-19.1289	-67.002323	0.000233	2.330689	0.789659	-0.000093
1486	1.4776e+02	-19.1658	-67.159772	0.000395	3.952037	1.338986	-0.000158
1487	1.4786e+02	-19.2075	-67.321257	0.000405	4.053372	1.373319	-0.000162
1488	1.4796e+02	-19.2556	-67.418148	0.000243	2.432023	0.823992	-0.000097
1489	1.4806e+02	-19.2925	-67.587708	0.000426	4.256040	1.441985	-0.000170
1490	1.4816e+02	-19.3294	-67.745156	0.000395	3.952037	1.338986	-0.000158
1491	1.4825e+02	-19.3679	-67.842048	0.000243	2.432023	0.823992	-0.000097
1492	1.4835e+02	-19.4048	-67.963162	0.000304	3.040029	1.029990	-0.000122
1493	1.4845e+02	-19.4497	-68.140796	0.000446	4.458709	1.510651	-0.000179
1494	1.4855e+02	-19.4834	-68.282095	0.000355	3.546700	1.201655	-0.000142
1495	1.4865e+02	-19.5299	-68.395135	0.000284	2.837360	0.961324	-0.000114
1496	1.4875e+02	-19.5668	-68.544509	0.000375	3.749369	1.270321	-0.000150
1497	1.4885e+02	-19.6101	-68.697920	0.000385	3.850703	1.304654	-0.000154
1498	1.4895e+02	-19.6422	-68.810960	0.000284	2.837360	0.961324	-0.000114
1499	1.4905e+02	-19.6823	-68.932074	0.000304	3.040029	1.029990	-0.000122
1500	1.4915e+02	-19.7224	-69.125857	0.000486	4.864046	1.647983	-0.000195
1501	1.4925e+02	-19.7674	-69.251008	0.000314	3.141363	1.064323	-0.000126
1502	1.4935e+02	-19.8010	-69.400382	0.000375	3.749369	1.270321	-0.000150
1503	1.4945e+02	-19.8444	-69.541682	0.000355	3.546700	1.201655	-0.000142
1504	1.4955e+02	-19.8845	-69.662796	0.000304	3.040029	1.029990	-0.000122
1505	1.4965e+02	-19.9294	-69.852541	0.000476	4.762712	1.613650	-0.000191
1506	1.4975e+02	-19.9711	-69.985767	0.000334	3.344032	1.132989	-0.000134
1507	1.4985e+02	-20.0112	-70.135141	0.000375	3.749369	1.270321	-0.000150
1508	1.4995e+02	-19.9599	-70.078621	0.000142	1.418680	0.480662	0.000057
1509	1.5005e+02	-19.9166	-70.066509	0.000030	0.304003	0.102999	0.000012
1510	1.5015e+02	-19.8845	-70.022101	0.000111	1.114677	0.377663	0.000045
1511	1.5025e+02	-19.8347	-69.981729	0.000101	1.013343	0.343330	0.000041
1512	1.5034e+02	-19.8043	-69.929247	0.000132	1.317346	0.446329	0.000053
1513	1.5044e+02	-19.7658	-69.900987	0.000071	0.709340	0.240331	0.000028
1514	1.5054e+02	-19.7144	-69.848504	0.000132	1.317346	0.446329	0.000053
1515	1.5064e+02	-19.6775	-69.812170	0.000091	0.912009	0.308997	0.000037
1516	1.5074e+02	-19.6358	-69.719316	0.000233	2.330689	0.789659	0.000093
1517	1.5084e+02	-19.6101	-69.707204	0.000030	0.304003	0.102999	0.000012
1518	1.5094e+02	-19.5620	-69.646647	0.000152	1.520014	0.514995	0.000061
1519	1.5104e+02	-19.5283	-69.610313	0.000091	0.912009	0.308997	0.000037
1520	1.5114e+02	-19.4834	-69.525533	0.000213	2.128020	0.720993	0.000085
1521	1.5124e+02	-19.4369	-69.517459	0.000020	0.202669	0.068666	0.000008
1522	1.5134e+02	-19.4080	-69.444790	0.000182	1.824017	0.617994	0.000073
1523	1.5144e+02	-19.3663	-69.380196	0.000162	1.621349	0.549328	0.000065
1524	1.5154e+02	-19.3230	-69.364048	0.000041	0.405337	0.137332	0.000016
1525	1.5164e+02	-19.2941	-69.275231	0.000223	2.229354	0.755326	0.000089
1526	1.5174e+02	-19.2492	-69.210637	0.000162	1.621349	0.549328	0.000065
1527	1.5184e+02	-19.2155	-69.133931	0.000193	1.925352	0.652327	0.000077
1528	1.5194e+02	-19.1706	-69.028965	0.000263	2.634692	0.892658	0.000105
1529	1.5204e+02	-19.1273	-68.988594	0.000101	1.013343	0.343330	0.000041
1530	1.5214e+02	-19.0904	-68.932074	0.000142	1.418680	0.480662	0.000057
1531	1.5224e+02	-19.0487	-68.895740	0.000091	0.912009	0.308997	0.000037
1532	1.5233e+02	-19.0150	-68.855369	0.000101	1.013343	0.343330	0.000041
1533	1.5243e+02	-18.9701	-68.762514	0.000233	2.330689	0.789659	0.000093
1534	1.5253e+02	-18.9348	-68.689846	0.000182	1.824017	0.617994	0.000073
1535	1.5263e+02	-18.8914	-68.613140	0.000193	1.925352	0.652327	0.000077
1536	1.5273e+02	-18.8417	-68.548546	0.000162	1.621349	0.549328	0.000065
1537	1.5283e+02	-18.8048	-68.487989	0.000152	1.520014	0.514995	0.000061
1538	1.5293e+02	-18.7615	-68.423395	0.000162	1.621349	0.549328	0.000065
1539	1.5303e+02	-18.7278	-68.346689	0.000193	1.925352	0.652327	0.000077
1540	1.5313e+02	-18.6845	-68.253835	0.000233	2.330689	0.789659	0.000093
1541	1.5323e+02	-18.6460	-68.177130	0.000193	1.925352	0.652327	0.000077
1542	1.5333e+02	-18.6107	-68.120610	0.000142	1.418680	0.480662	0.000057
1543	1.5343e+02	-18.5738	-68.056016	0.000162	1.621349	0.549328	0.000065
1544	1.5353e+02	-18.5241	-67.951050	0.000263	2.634692	0.892658	0.000105
1545	1.5363e+02	-18.4808	-67.934902	0.000041	0.405337	0.137332	0.000016
1546	1.5373e+02	-18.4423	-67.813788	0.000304	3.040029	1.029990	0.000122
1547	1.5383e+02	-18.4070	-67.745156	0.000172	1.722683	0.583661	0.000069
1548	1.5393e+02	-18.3685	-67.644228	0.000253	2.533357	0.858325	0.000101
1549	1.5403e+02	-18.3252	-67.555411	0.000223	2.229354	0.755326	0.000089
1550	1.5413e+02	-18.2770	-67.523114	0.000081	0.810674	0.274664	0.000032
1551	1.5422e+02	-18.2610	-67.426223	0.000243	2.432023	0.823992	0.000097
1552	1.5432e+02	-18.2113	-67.393925	0.000081	0.810674	0.274664	0.000032
1553	1.5442e+02	-18.1792	-67.268774	0.000314	3.141363	1.064323	0.000126
1554	1.5452e+02	-18.1359	-67.220329	0.000122	1.216011	0.411996	0.000049
1555	1.5462e+02	-18.0829	-67.115363	0.000263	2.634692	0.892658	0.000105
1556	1.5472e+02	-18.0572	-67.050769	0.000162	1.621349	0.549328	0.000065
1557	1.5482e+02	-18.0155	-66.933692	0.000294	2.938694	0.995657	0.000118
1558	1.5492e+02	-17.9690	-66.901395	0.000081	0.810674	0.274664	0.000032
1559	1.5502e+02	-17.9257	-66.784318	0.000294	2.938694	0.995657	0.000118
1560	1.5512e+02	-17.8904	-66.707612	0.000193	1.925352	0.652327	0.000077
1561	1.5522e+02	-17.8487	-66.647055	0.000152	1.520014	0.514995	0.000061
1562	1.5532e+02	-17.8102	-66.558238	0.000223	2.229354	0.755326	0.000089
1563	1.5542e+02	-17.7797	-66.461347	0.000243	2.432023	0.823992	0.000097
1564	1.5552e+02	-17.7284	-66.376567	0.000213	2.128020	0.720993	0.000085
1565	1.5562e+02	-17.6931	-66.316010	0.000152	1.520014	0.514995	0.000061
1566	1.5572e+02	-17.6546	-66.231230	0.000213	2.128020	0.720993	0.000085
1567	1.5582e+02	-17.6129	-66.142413	0.000223	2.229354	0.755326	0.000089
1568	1.5592e+02	-17.5712	-66.049559	0.000233	2.330689	0.789659	0.000093
1569	1.5602e+02	-17.5311	-65.924408	0.000314	3.141363	1.064323	0.000126
1570	1.5612e+02	-17.4877	-65.867888	0.000142	1.418680	0.480662	0.000057
1571	1.5622e+02	-17.4573	-65.811368	0.000142	1.418680	0.480662	0.000057
1572	1.5631e+02	-17.4204	-65.726588	0.000213	2.128020	0.720993	0.000085
1573	1.5641e+02	-17.3706	-65.609511	0.000294	2.938694	0.995657	0.000118
1574	1.5651e+02	-17.3402	-65.516657	0.000233	2.330689	0.789659	0.000093
1575	1.5661e+02	-17.2936	-65.456100	0.000152	1.520014	0.514995	0.000061
1576	1.5671e+02	-17.2599	-65.334986	0.000304	3.040029	1.029990	0.000122
1577	1.5681e+02	-17.2118	-65.290578	0.000111	1.114677	0.377663	0.000045
1578	1.5691e+02	-17.1749	-65.197724	0.000233	2.330689	0.789659	0.000093
1579	1.5701e+02	-17.1444	-65.068535	0.000324	3.242697	1.098656	0.000130
1580	1.5711e+02	-17.0947	-64.975681	0.000233	2.330689	0.789659	0.000093
1581	1.5721e+02	-17.0658	-64.959533	0.000041	0.405337	0.137332	0.000016
1582	1.5731e+02	-17.0145	-64.794010	0.000415	4.154706	1.407652	0.000166
1583	1.5741e+02	-16.9776	-64.721342	0.000182	1.824017	0.617994	0.000073
1584	1.5751e+02	-16.9311	-64.624450	0.000243	2.432023	0.823992	0.000097
1585	1.5761e+02	-16.8862	-64.535633	0.000223	2.229354	0.755326	0.000089
1586	1.5771e+02	-16.8493	-64.475076	0.000152	1.520014	0.514995	0.000061
1587	1.5781e+02	-16.8124	-64.382222	0.000233	2.330689	0.789659	0.000093
1588	1.5791e+02	-16.7883	-64.313591	0.000172	1.722683	0.583661	0.000069
1589	1.5801e+02	-16.7321	-64.212662	0.000253	2.533357	0.858325	0.000101
1590	1.5811e+02	-16.6969	-64.091548	0.000304	3.040029	1.029990	0.000122
1591	1.5821e+02	-16.6535	-64.014843	0.000193	1.925352	0.652327	0.000077
1592	1.5830e+02	-16.6199	-63.946212	0.000172	1.722683	0.583661	0.000069
1593	1.5840e+02	-16.5749	-63.853357	0.000233	2.330689	0.789659	0.000093
1594	1.5850e+02	-16.5380	-63.756466	0.000243	2.432023	0.823992	0.000097
1595	1.5860e+02	-16.4995	-63.671686	0.000213	2.128020	0.720993	0.000085
1596	1.5870e+02	-16.4482	-63.570758	0.000253	2.533357	0.858325	0.000101
1597	1.5880e+02	-16.4177	-63.502127	0.000172	1.722683	0.583661	0.000069
1598	1.5890e+02	-16.3696	-63.389087	0.000284	2.837360	0.961324	0.000114
1599	1.5900e+02	-16.3407	-63.284121	0.000263	2.634692	0.892658	0.000105
1600	1.5910e+02	-16.3006	-63.179156	0.000263	2.634692	0.892658	0.000105
1601	1.5920e+02	-16.2605	-63.118599	0.000152	1.520014	0.514995	0.000061
1602	1.5930e+02	-16.2172	-63.021707	0.000243	2.432023	0.823992	0.000097
1603	1.5940e+02	-16.1787	-62.904631	0.000294	2.938694	0.995657	0.000118
1604	1.5950e+02	-16.1434	-62.844073	0.000152	1.520014	0.514995	0.000061
1605	1.5960e+02	-16.0969	-62.722959	0.000304	3.040029	1.029990	0.000122
1606	1.5970e+02	-16.0584	-62.686625	0.000091	0.912009	0.308997	0.000037
1607	1.5980e+02	-16.0183	-62.569548	0.000294	2.938694	0.995657	0.000118
1608	1.5990e+02	-15.9766	-62.444397	0.000314	3.141363	1.064323	0.000126
1609	1.6000e+02	-15.9445	-62.327320	0.000294	2.938694	0.995657	0.000118
1610	1.6010e+02	-15.8963	-62.234466	0.000233	2.330689	0.789659	0.000093
1611	1.6019e+02	-15.8546	-62.149686	0.000213	2.128020	0.720993	0.000085
1612	1.6029e+02	-15.8354	-62.089129	0.000152	1.520014	0.514995	0.000061
1613	1.6039e+02	-15.7840	-61.955904	0.000334	3.344032	1.132989	0.000134
1614	1.6049e+02	-15.7488	-61.867087	0.000223	2.229354	0.755326	0.000089
1615	1.6059e+02	-15.6926	-61.745973	0.000304	3.040029	1.029990	0.000122
1616	1.6069e+02	-15.6605	-61.697527	0.000122	1.216011	0.411996	0.000049
1617	1.6079e+02	-15.6172	-61.564301	0.000334	3.344032	1.132989	0.000134
1618	1.6089e+02	-15.5771	-61.491633	0.000182	1.824017	0.617994	0.000073
1619	1.6099e+02	-15.5418	-61.378593	0.000284	2.837360	0.961324	0.000114
1620	1.6109e+02	-15.5017	-61.269591	0.000274	2.736026	0.926991	0.000110
1621	1.6119e+02	-15.4632	-61.192885	0.000193	1.925352	0.652327	0.000077
1622	1.6129e+02	-15.4279	-61.083882	0.000274	2.736026	0.926991	0.000110
1623	1.6139e+02	-15.3878	-60.995065	0.000223	2.229354	0.755326	0.000089
1624	1.6149e+02	-15.3413	-60.849728	0.000365	3.648034	1.235988	0.000146
1625	1.6159e+02	-15.3028	-60.744763	0.000263	2.634692	0.892658	0.000105
1626	1.6169e+02	-15.2563	-60.704392	0.000101	1.013343	0.343330	0.000041
1627	1.6179e+02	-15.2258	-60.643834	0.000152	1.520014	0.514995	0.000061
1628	1.6189e+02	-15.1809	-60.478312	0.000415	4.154706	1.407652	0.000166
1629	1.6199e+02	-15.1456	-60.441978	0.000091	0.912009	0.308997	0.000037
1630	1.6209e+02	-15.0990	-60.316826	0.000314	3.141363	1.064323	0.000126
1631	1.6219e+02	-15.0621	-60.211861	0.000263	2.634692	0.892658	0.000105
1632	1.6228e+02	-15.0252	-60.119007	0.000233	2.330689	0.789659	0.000093
1633	1.6238e+02	-14.9787	-59.961559	0.000395	3.952037	1.338986	0.000158
1634	1.6248e+02	-14.9466	-59.876779	0.000213	2.128020	0.720993	0.000085
1635	1.6258e+02	-14.8969	-59.816222	0.000152	1.520014	0.514995	0.000061
1636	1.6268e+02	-14.8728	-59.727405	0.000223	2.229354	0.755326	0.000089
1637	1.6278e+02	-14.8167	-59.602253	0.000314	3.141363	1.064323	0.000126
1638	1.6288e+02	-14.7718	-59.501325	0.000253	2.533357	0.858325	0.000101
1639	1.6298e+02	-14.7477	-59.424619	0.000193	1.925352	0.652327	0.000077
1640	1.6308e+02	-14.6980	-59.331765	0.000233	2.330689	0.789659	0.000093
1641	1.6318e+02	-14.6595	-59.206614	0.000314	3.141363	1.064323	0.000126
1642	1.6328e+02	-14.6194	-59.093574	0.000284	2.837360	0.961324	0.000114
1643	1.6338e+02	-14.5777	-59.008795	0.000213	2.128020	0.720993	0.000085
1644	1.6348e+02	-14.5456	-58.903829	0.000263	2.634692	0.892658	0.000105
1645	1.6358e+02	-14.4991	-58.798863	0.000263	2.634692	0.892658	0.000105
1646	1.6368e+02	-14.4509	-58.681787	0.000294	2.938694	0.995657	0.000118
1647	1.6378e+02	-14.4237	-58.564710	0.000294	2.938694	0.995657	0.000118
1648	1.6388e+02	-14.3900	-58.496078	0.000172	1.722683	0.583661	0.000069
1649	1.6398e+02	-14.3450	-58.407261	0.000223	2.229354	0.755326	0.000089
1650	1.6408e+02	-14.3017	-58.302296	0.000263	2.634692	0.892658	0.000105
1651	1.6418e+02	-14.2632	-58.185219	0.000294	2.938694	0.995657	0.000118
1652	1.6427e+02	-14.2311	-58.080253	0.000263	2.634692	0.892658	0.000105
1653	1.6437e+02	-14.1862	-58.007585	0.000182	1.824017	0.617994	0.000073
1654	1.6447e+02	-14.1477	-57.854174	0.000385	3.850703	1.304654	0.000154
1655	1.6457e+02	-14.1076	-57.773431	0.000203	2.026686	0.686660	0.000081
1656	1.6467e+02	-14.0627	-57.640205	0.000334	3.344032	1.132989	0.000134
1657	1.6477e+02	-14.0226	-57.587723	0.000132	1.317346	0.446329	0.000053
1658	1.6487e+02	-13.9825	-57.482757	0.000263	2.634692	0.892658	0.000105
1659	1.6497e+02	-13.9424	-57.389903	0.000233	2.330689	0.789659	0.000093
1660	1.6507e+02	-13.9135	-57.212269	0.000446	4.458709	1.510651	0.000179
1661	1.6517e+02	-13.8718	-57.179972	0.000081	0.810674	0.274664	0.000032
1662	1.6527e+02	-13.8317	-57.070969	0.000274	2.736026	0.926991	0.000110
1663	1.6537e+02	-13.7964	-56.974078	0.000243	2.432023	0.823992	0.000097
1664	1.6547e+02	-13.7419	-56.877187	0.000243	2.432023	0.823992	0.000097
1665	1.6557e+02	-13.7018	-56.743961	0.000334	3.344032	1.132989	0.000134
1666	1.6567e+02	-13.6713	-56.634959	0.000274	2.736026	0.926991	0.000110
1667	1.6577e+02	-13.6312	-56.513845	0.000304	3.040029	1.029990	0.000122
1668	1.6587e+02	-13.5862	-56.400805	0.000284	2.837360	0.961324	0.000114
1669	1.6597e+02	-13.5429	-56.320062	0.000203	2.026686	0.686660	0.000081
1670	1.6607e+02	-13.5076	-56.211059	0.000274	2.736026	0.926991	0.000110
1671	1.6616e+02	-13.4691	-56.106094	0.000263	2.634692	0.892658	0.000105
1672	1.6626e+02	-13.4290	-56.013240	0.000233	2.330689	0.789659	0.000093
1673	1.6636e+02	-13.3921	-55.908274	0.000263	2.634692	0.892658	0.000105
1674	1.6646e+02	-13.3472	-55.754863	0.000385	3.850703	1.304654	0.000154
1675	1.6656e+02	-13.3151	-55.649898	0.000263	2.634692	0.892658	0.000105
1676	1.6666e+02	-13.2654	-55.585303	0.000162	1.621349	0.549328	0.000065
1677	1.6676e+02	-13.2221	-55.480338	0.000263	2.634692	0.892658	0.000105
1678	1.6686e+02	-13.1916	-55.367298	0.000284	2.837360	0.961324	0.000114
1679	1.6696e+02	-13.1531	-55.254258	0.000284	2.837360	0.961324	0.000114
1680	1.6706e+02	-13.1114	-55.116996	0.000345	3.445366	1.167322	0.000138
1681	1.6716e+02	-13.0681	-55.052401	0.000162	1.621349	0.549328	0.000065
1682	1.6726e+02	-13.0344	-54.947436	0.000263	2.634692	0.892658	0.000105
1683	1.6736e+02	-12.9895	-54.814210	0.000334	3.344032	1.132989	0.000134
1684	1.6746e+02	-12.9462	-54.713282	0.000253	2.533357	0.858325	0.000101
1685	1.6756e+02	-12.9044	-54.600242	0.000284	2.837360	0.961324	0.000114
1686	1.6766e+02	-12.8659	-54.410497	0.000476	4.762712	1.613650	0.000191
1687	1.6776e+02	-12.8258	-54.398386	0.000030	0.304003	0.102999	0.000012
1688	1.6786e+02	-12.7905	-54.289383	0.000274	2.736026	0.926991	0.000110
1689	1.6796e+02	-12.7488	-54.204603	0.000213	2.128020	0.720993	0.000085
1690	1.6806e+02	-12.7168	-54.075415	0.000324	3.242697	1.098656	0.000130
1691	1.6816e+02	-12.6750	-53.970449	0.000263	2.634692	0.892658	0.000105
1692	1.6825e+02	-12.6365	-53.865484	0.000263	2.634692	0.892658	0.000105
1693	1.6835e+02	-12.5964	-53.768592	0.000243	2.432023	0.823992	0.000097
1694	1.6845e+02	-12.5451	-53.671701	0.000243	2.432023	0.823992	0.000097
1695	1.6855e+02	-12.5082	-53.558661	0.000284	2.837360	0.961324	0.000114
1696	1.6865e+02	-12.4681	-53.437547	0.000304	3.040029	1.029990	0.000122
1697	1.6875e+02	-12.4360	-53.328545	0.000274	2.736026	0.926991	0.000110
1698	1.6885e+02	-12.3895	-53.211468	0.000294	2.938694	0.995657	0.000118
1699	1.6895e+02	-12.3478	-53.094391	0.000294	2.938694	0.995657	0.000118
1700	1.6905e+02	-12.3093	-53.062094	0.000081	0.810674	0.274664	0.000032
1701	1.6915e+02	-12.2708	-52.900608	0.000405	4.053372	1.373319	0.000162
1702	1.6925e+02	-12.2323	-52.823903	0.000193	1.925352	0.652327	0.000077
1703	1.6935e+02	-12.1906	-52.722974	0.000253	2.533357	0.858325	0.000101
1704	1.6945e+02	-12.1505	-52.541303	0.000456	4.560043	1.544984	0.000183
1705	1.6955e+02	-12.1087	-52.504969	0.000091	0.912009	0.308997	0.000037
1706	1.6965e+02	-12.0735	-52.412115	0.000233	2.330689	0.789659	0.000093
1707	1.6975e+02	-12.0334	-52.258704	0.000385	3.850703	1.304654	0.000154
1708	1.6985e+02	-11.9997	-52.133552	0.000314	3.141363	1.064323	0.000126
1709	1.6995e+02	-11.9499	-52.008401	0.000314	3.141363	1.064323	0.000126
1710	1.7005e+02	-11.9178	-51.931696	0.000193	1.925352	0.652327	0.000077
1711	1.7015e+02	-11.8697	-51.826730	0.000263	2.634692	0.892658	0.000105
1712	1.7024e+02	-11.8344	-51.685430	0.000355	3.546700	1.201655	0.000142
1713	1.7034e+02	-11.7959	-51.548168	0.000345	3.445366	1.167322	0.000138
1714	1.7044e+02	-11.7574	-51.475499	0.000182	1.824017	0.617994	0.000073
1715	1.7054e+02	-11.7125	-51.390719	0.000213	2.128020	0.720993	0.000085
1716	1.7064e+02	-11.6820	-51.225197	0.000415	4.154706	1.407652	0.000166
1717	1.7074e+02	-11.6371	-51.128306	0.000243	2.432023	0.823992	0.000097
1718	1.7084e+02	-11.5970	-51.043526	0.000213	2.128020	0.720993	0.000085
1719	1.7094e+02	-11.5569	-50.910300	0.000334	3.344032	1.132989	0.000134
1720	1.7104e+02	-11.5184	-50.829558	0.000203	2.026686	0.686660	0.000081
1721	1.7114e+02	-11.4783	-50.708443	0.000304	3.040029	1.029990	0.000122
1722	1.7124e+02	-11.4350	-50.575218	0.000334	3.344032	1.132989	0.000134
1723	1.7134e+02	-11.4045	-50.450067	0.000314	3.141363	1.064323	0.000126
1724	1.7144e+02	-11.3628	-50.341064	0.000274	2.736026	0.926991	0.000110
1725	1.7154e+02	-11.3163	-50.252247	0.000223	2.229354	0.755326	0.000089
1726	1.7164e+02	-11.2778	-50.094799	0.000395	3.952037	1.338986	0.000158
1727	1.7174e+02	-11.2360	-50.005982	0.000223	2.229354	0.755326	0.000089
1728	1.7184e+02	-11.2024	-49.880831	0.000314	3.141363	1.064323	0.000126
1729	1.7194e+02	-11.1526	-49.767791	0.000284	2.837360	0.961324	0.000114
1730	1.7204e+02	-11.1141	-49.638602	0.000324	3.242697	1.098656	0.000130
1731	1.7213e+02	-11.0869	-49.557860	0.000203	2.026686	0.686660	0.000081
1732	1.7223e+02	-11.0467	-49.392337	0.000415	4.154706	1.407652	0.000166
1733	1.7233e+02	-10.9970	-49.319669	0.000182	1.824017	0.617994	0.000073
1734	1.7243e+02	-10.9681	-49.210666	0.000274	2.736026	0.926991	0.000110
1735	1.7253e+02	-10.9216	-49.053218	0.000395	3.952037	1.338986	0.000158
1736	1.7263e+02	-10.8783	-48.992661	0.000152	1.520014	0.514995	0.000061
1737	1.7273e+02	-10.8462	-48.831175	0.000405	4.053372	1.373319	0.000162
1738	1.7283e+02	-10.7981	-48.766581	0.000162	1.621349	0.549328	0.000065
1739	1.7293e+02	-10.7516	-48.588947	0.000446	4.458709	1.510651	0.000179
1740	1.7303e+02	-10.7227	-48.488019	0.000253	2.533357	0.858325	0.000101
1741	1.7313e+02	-10.6922	-48.399202	0.000223	2.229354	0.755326	0.000089
1742	1.7323e+02	-10.6409	-48.270013	0.000324	3.242697	1.098656	0.000130
1743	1.7333e+02	-10.5944	-48.128714	0.000355	3.546700	1.201655	0.000142
1744	1.7343e+02	-10.5655	-48.039897	0.000223	2.229354	0.755326	0.000089
1745	1.7353e+02	-10.5222	-47.866300	0.000436	4.357374	1.476318	0.000174
1746	1.7363e+02	-10.4821	-47.801706	0.000162	1.621349	0.549328	0.000065
1747	1.7373e+02	-10.4371	-47.684629	0.000294	2.938694	0.995657	0.000118
1748	1.7383e+02	-10.4002	-47.559478	0.000314	3.141363	1.064323	0.000126
1749	1.7393e+02	-10.3569	-47.446438	0.000284	2.837360	0.961324	0.000114
1750	1.7403e+02	-10.3248	-47.313212	0.000334	3.344032	1.132989	0.000134
1751	1.7413e+02	-10.2815	-47.212284	0.000253	2.533357	0.858325	0.000101
1752	1.7422e+02	-10.2494	-47.083096	0.000324	3.242697	1.098656	0.000130
1753	1.7432e+02	-10.2045	-46.978130	0.000263	2.634692	0.892658	0.000105
1754	1.7442e+02	-10.1596	-46.840867	0.000345	3.445366	1.167322	0.000138
1755	1.7452e+02	-10.1291	-46.719753	0.000304	3.040029	1.029990	0.000122
1756	1.7462e+02	-10.0762	-46.626899	0.000233	2.330689	0.789659	0.000093
1757	1.7472e+02	-10.0297	-46.469451	0.000395	3.952037	1.338986	0.000158
1758	1.7482e+02	-10.0056	-46.376597	0.000233	2.330689	0.789659	0.000093
1759	1.7492e+02	-9.9687	-46.275668	0.000253	2.533357	0.858325	0.000101
1760	1.7502e+02	-9.9174	-46.110146	0.000415	4.154706	1.407652	0.000166
1761	1.7512e+02	-9.8789	-46.009217	0.000253	2.533357	0.858325	0.000101
1762	1.7522e+02	-9.8436	-45.875992	0.000334	3.344032	1.132989	0.000134
1763	1.7532e+02	-9.8003	-45.787175	0.000223	2.229354	0.755326	0.000089
1764	1.7542e+02	-9.7666	-45.674135	0.000284	2.837360	0.961324	0.000114
1765	1.7552e+02	-9.7233	-45.524761	0.000375	3.749369	1.270321	0.000150
1766	1.7562e+02	-9.6880	-45.407684	0.000294	2.938694	0.995657	0.000118
1767	1.7572e+02	-9.6446	-45.294644	0.000284	2.837360	0.961324	0.000114
1768	1.7582e+02	-9.6078	-45.145270	0.000375	3.749369	1.270321	0.000150
1769	1.7592e+02	-9.5660	-45.048379	0.000243	2.432023	0.823992	0.000097
1770	1.7602e+02	-9.5227	-44.939376	0.000274	2.736026	0.926991	0.000110
1771	1.7612e+02	-9.4890	-44.830374	0.000274	2.736026	0.926991	0.000110
1772	1.7621e+02	-9.4361	-44.644666	0.000466	4.661377	1.579317	0.000187
1773	1.7631e+02	-9.4056	-44.507403	0.000345	3.445366	1.167322	0.000138
1774	1.7641e+02	-9.3671	-44.410512	0.000243	2.432023	0.823992	0.000097
1775	1.7651e+02	-9.3222	-44.285360	0.000314	3.141363	1.064323	0.000126
1776	1.7661e+02	-9.2821	-44.200581	0.000213	2.128020	0.720993	0.000085
1777	1.7671e+02	-9.2516	-44.055244	0.000365	3.648034	1.235988	0.000146
1778	1.7681e+02	-9.2035	-43.930093	0.000314	3.141363	1.064323	0.000126
1779	1.7691e+02	-9.1650	-43.768607	0.000405	4.053372	1.373319	0.000162
1780	1.7701e+02	-9.1169	-43.647493	0.000304	3.040029	1.029990	0.000122
1781	1.7711e+02	-9.0864	-43.534453	0.000284	2.837360	0.961324	0.000114
1782	1.7721e+02	-9.0463	-43.397191	0.000345	3.445366	1.167322	0.000138
1783	1.7731e+02	-9.0142	-43.259928	0.000345	3.445366	1.167322	0.000138
1784	1.7741e+02	-8.9628	-43.146888	0.000284	2.837360	0.961324	0.000114
1785	1.7751e+02	-8.9227	-43.005588	0.000355	3.546700	1.201655	0.000142
1786	1.7761e+02	-8.8842	-42.844103	0.000405	4.053372	1.373319	0.000162
1787	1.7771e+02	-8.8538	-42.727026	0.000294	2.938694	0.995657	0.000118
1788	1.7781e+02	-8.8024	-42.618023	0.000274	2.736026	0.926991	0.000110
1789	1.7791e+02	-8.7623	-42.480761	0.000345	3.445366	1.167322	0.000138
1790	1.7801e+02	-8.7238	-42.408092	0.000182	1.824017	0.617994	0.000073
1791	1.7810e+02	-8.6853	-42.266793	0.000355	3.546700	1.201655	0.000142
1792	1.7820e+02	-8.6596	-42.105307	0.000405	4.053372	1.373319	0.000162
1793	1.7830e+02	-8.6131	-41.988230	0.000294	2.938694	0.995657	0.000118
1794	1.7840e+02	-8.5730	-41.867116	0.000304	3.040029	1.029990	0.000122
1795	1.7850e+02	-8.5297	-41.770225	0.000243	2.432023	0.823992	0.000097
1796	1.7860e+02	-8.4880	-41.616814	0.000385	3.850703	1.304654	0.000154
1797	1.7870e+02	-8.4431	-41.451291	0.000415	4.154706	1.407652	0.000166
1798	1.7880e+02	-8.4078	-41.334214	0.000294	2.938694	0.995657	0.000118
1799	1.7890e+02	-8.3629	-41.229249	0.000263	2.634692	0.892658	0.000105
1800	1.7900e+02	-8.3276	-41.116209	0.000284	2.837360	0.961324	0.000114
1801	1.7910e+02	-8.2875	-40.958761	0.000395	3.952037	1.338986	0.000158
1802	1.7920e+02	-8.2442	-40.817461	0.000355	3.546700	1.201655	0.000142
1803	1.7930e+02	-8.2073	-40.716532	0.000253	2.533357	0.858325	0.000101
1804	1.7940e+02	-8.1736	-40.538899	0.000446	4.458709	1.510651	0.000179
1805	1.7950e+02	-8.1367	-40.401636	0.000345	3.445366	1.167322	0.000138
1806	1.7960e+02	-8.0789	-40.276485	0.000314	3.141363	1.064323	0.000126
1807	1.7970e+02	-8.0484	-40.187668	0.000223	2.229354	0.755326	0.000089
1808	1.7980e+02	-8.0035	-40.026182	0.000405	4.053372	1.373319	0.000162
1809	1.7990e+02	-7.9778	-39.933328	0.000233	2.330689	0.789659	0.000093
1810	1.8000e+02	-7.9297	-39.767806	0.000415	4.154706	1.407652	0.000166
1811	1.8009e+02	-7.9025	-39.626506	0.000355	3.546700	1.201655	0.000142
1812	1.8019e+02	-7.8511	-39.533652	0.000233	2.330689	0.789659	0.000093
1813	1.8029e+02	-7.8126	-39.380241	0.000385	3.850703	1.304654	0.000154
1814	1.8039e+02	-7.7709	-39.242978	0.000345	3.445366	1.167322	0.000138
1815	1.8049e+02	-7.7260	-39.077455	0.000415	4.154706	1.407652	0.000166
1816	1.8059e+02	-7.6939	-38.948267	0.000324	3.242697	1.098656	0.000130
1817	1.8069e+02	-7.6474	-38.843302	0.000263	2.634692	0.892658	0.000105
1818	1.8079e+02	-7.6153	-38.669705	0.000436	4.357374	1.476318	0.000174
1819	1.8089e+02	-7.5720	-38.588962	0.000203	2.026686	0.686660	0.000081
1820	1.8099e+02	-7.5367	-38.451699	0.000345	3.445366	1.167322	0.000138
1821	1.8109e+02	-7.4918	-38.294251	0.000395	3.952037	1.338986	0.000158
1822	1.8119e+02	-7.4404	-38.165063	0.000324	3.242697	1.098656	0.000130
1823	1.8129e+02	-7.4164	-38.015689	0.000375	3.749369	1.270321	0.000150
1824	1.8139e+02	-7.3747	-37.894575	0.000304	3.040029	1.029990	0.000122
1825	1.8149e+02	-7.3378	-37.769423	0.000314	3.141363	1.064323	0.000126
1826	1.8159e+02	-7.2864	-37.636198	0.000334	3.344032	1.132989	0.000134
1827	1.8169e+02	-7.2511	-37.507010	0.000324	3.242697	1.098656	0.000130
1828	1.8179e+02	-7.2078	-37.357636	0.000375	3.749369	1.270321	0.000150
1829	1.8189e+02	-7.1725	-37.236521	0.000304	3.040029	1.029990	0.000122
1830	1.8199e+02	-7.1260	-37.054850	0.000456	4.560043	1.544984	0.000183
1831	1.8209e+02	-7.0923	-36.945848	0.000274	2.736026	0.926991	0.000110
1832	1.8218e+02	-7.0538	-36.792437	0.000385	3.850703	1.304654	0.000154
1833	1.8228e+02	-7.0089	-36.671322	0.000304	3.040029	1.029990	0.000122
1834	1.8238e+02	-6.9768	-36.517911	0.000385	3.850703	1.304654	0.000154
1835	1.8248e+02	-6.9303	-36.412946	0.000263	2.634692	0.892658	0.000105
1836	1.8258e+02	-6.8838	-36.227238	0.000466	4.661377	1.579317	0.000187
1837	1.8268e+02	-6.8581	-36.118235	0.000274	2.736026	0.926991	0.000110
1838	1.8278e+02	-6.8148	-35.980972	0.000345	3.445366	1.167322	0.000138
1839	1.8288e+02	-6.7795	-35.799301	0.000456	4.560043	1.544984	0.000183
1840	1.8298e+02	-6.7282	-35.702410	0.000243	2.432023	0.823992	0.000097
1841	1.8308e+02	-6.6977	-35.548999	0.000385	3.850703	1.304654	0.000154
1842	1.8318e+02	-6.6608	-35.379439	0.000426	4.256040	1.441985	0.000170
1843	1.8328e+02	-6.6126	-35.290622	0.000223	2.229354	0.755326	0.000089
1844	1.8338e+02	-6.5677	-35.108951	0.000456	4.560043	1.544984	0.000183
1845	1.8348e+02	-6.5372	-34.963614	0.000365	3.648034	1.235988	0.000146
1846	1.8358e+02	-6.4939	-34.822314	0.000355	3.546700	1.201655	0.000142
1847	1.8368e+02	-6.4538	-34.713312	0.000274	2.736026	0.926991	0.000110
1848	1.8378e+02	-6.4201	-34.576049	0.000345	3.445366	1.167322	0.000138
1849	1.8388e+02	-6.3784	-34.402452	0.000436	4.357374	1.476318	0.000174
1850	1.8398e+02	-6.3415	-34.257115	0.000365	3.648034	1.235988	0.000146
1851	1.8407e+02	-6.2950	-34.144076	0.000284	2.837360	0.961324	0.000114
1852	1.8417e+02	-6.2629	-33.962404	0.000456	4.560043	1.544984	0.000183
1853	1.8427e+02	-6.2212	-33.833216	0.000324	3.242697	1.098656	0.000130
1854	1.8437e+02	-6.1827	-33.724213	0.000274	2.736026	0.926991	0.000110
1855	1.8447e+02	-6.1378	-33.530431	0.000486	4.864046	1.647983	0.000195
1856	1.8457e+02	-6.0977	-33.429502	0.000253	2.533357	0.858325	0.000101
1857	1.8467e+02	-6.0656	-33.272054	0.000395	3.952037	1.338986	0.000158
1858	1.8477e+02	-6.0127	-33.094420	0.000446	4.458709	1.510651	0.000179
1859	1.8487e+02	-5.9838	-32.981380	0.000284	2.837360	0.961324	0.000114
1860	1.8497e+02	-5.9469	-32.840081	0.000355	3.546700	1.201655	0.000142
1861	1.8507e+02	-5.8940	-32.690707	0.000375	3.749369	1.270321	0.000150
1862	1.8517e+02	-5.8667	-32.541333	0.000375	3.749369	1.270321	0.000150
1863	1.8527e+02	-5.8186	-32.371773	0.000426	4.256040	1.441985	0.000170
1864	1.8537e+02	-5.7833	-32.274882	0.000243	2.432023	0.823992	0.000097
1865	1.8547e+02	-5.7335	-32.137619	0.000345	3.445366	1.167322	0.000138
1866	1.8557e+02	-5.6998	-31.951911	0.000466	4.661377	1.579317	0.000187
1867	1.8567e+02	-5.6533	-31.830797	0.000304	3.040029	1.029990	0.000122
1868	1.8577e+02	-5.6196	-31.697571	0.000334	3.344032	1.132989	0.000134
1869	1.8587e+02	-5.5795	-31.532049	0.000415	4.154706	1.407652	0.000166
1870	1.8597e+02	-5.5522	-31.414972	0.000294	2.938694	0.995657	0.000118
1871	1.8606e+02	-5.5009	-31.241375	0.000436	4.357374	1.476318	0.000174
1872	1.8616e+02	-5.4624	-31.083927	0.000395	3.952037	1.338986	0.000158
1873	1.8626e+02	-5.4239	-30.946664	0.000345	3.445366	1.167322	0.000138
1874	1.8636e+02	-5.3822	-30.813439	0.000334	3.344032	1.132989	0.000134
1875	1.8646e+02	-5.3533	-30.643879	0.000426	4.256040	1.441985	0.000170
1876	1.8656e+02	-5.3052	-30.518728	0.000314	3.141363	1.064323	0.000126
1877	1.8666e+02	-5.2603	-30.328982	0.000476	4.762712	1.613650	0.000191
1878	1.8676e+02	-5.2234	-30.207868	0.000304	3.040029	1.029990	0.000122
1879	1.8686e+02	-5.1897	-30.054457	0.000385	3.850703	1.304654	0.000154
1880	1.8696e+02	-5.1512	-29.860674	0.000486	4.864046	1.647983	0.000195
1881	1.8706e+02	-5.1047	-29.763783	0.000243	2.432023	0.823992	0.000097
1882	1.8716e+02	-5.0662	-29.590186	0.000436	4.357374	1.476318	0.000174
1883	1.8726e+02	-5.0309	-29.460998	0.000324	3.242697	1.098656	0.000130
1884	1.8736e+02	-4.9876	-29.295475	0.000415	4.154706	1.407652	0.000166
1885	1.8746e+02	-4.9298	-29.154176	0.000355	3.546700	1.201655	0.000142
1886	1.8756e+02	-4.9041	-28.988653	0.000415	4.154706	1.407652	0.000166
1887	1.8766e+02	-4.8640	-28.843316	0.000365	3.648034	1.235988	0.000146
1888	1.8776e+02	-4.8255	-28.689905	0.000385	3.850703	1.304654	0.000154
1889	1.8786e+02	-4.7806	-28.504197	0.000466	4.661377	1.579317	0.000187
1890	1.8796e+02	-4.7405	-28.370971	0.000334	3.344032	1.132989	0.000134
1891	1.8806e+02	-4.6956	-28.193337	0.000446	4.458709	1.510651	0.000179
1892	1.8815e+02	-4.6731	-28.092409	0.000253	2.533357	0.858325	0.000101
1893	1.8825e+02	-4.6138	-27.890552	0.000507	5.066715	1.716649	0.000203
1894	1.8835e+02	-4.5897	-27.765401	0.000314	3.141363	1.064323	0.000126
1895	1.8845e+02	-4.5432	-27.591804	0.000436	4.357374	1.476318	0.000174
1896	1.8855e+02	-4.5095	-27.462616	0.000324	3.242697	1.098656	0.000130
1897	1.8865e+02	-4.4646	-27.289019	0.000436	4.357374	1.476318	0.000174
1898	1.8875e+02	-4.4261	-27.123496	0.000415	4.154706	1.407652	0.000166
1899	1.8885e+02	-4.3731	-26.937788	0.000466	4.661377	1.579317	0.000187
1900	1.8895e+02	-4.3523	-26.816674	0.000304	3.040029	1.029990	0.000122
1901	1.8905e+02	-4.3042	-26.671337	0.000365	3.648034	1.235988	0.000146
1902	1.8915e+02	-4.2737	-26.449295	0.000557	5.573386	1.888314	0.000223
1903	1.8925e+02	-4.2304	-26.356441	0.000233	2.330689	0.789659	0.000093
1904	1.8935e+02	-4.1935	-26.170732	0.000466	4.661377	1.579317	0.000187
1905	1.8945e+02	-4.1485	-26.009247	0.000405	4.053372	1.373319	0.000162
1906	1.8955e+02	-4.1116	-25.859873	0.000375	3.749369	1.270321	0.000150
1907	1.8965e+02	-4.0603	-25.682239	0.000446	4.458709	1.510651	0.000179
1908	1.8975e+02	-4.0395	-25.569199	0.000284	2.837360	0.961324	0.000114
1909	1.8985e+02	-3.9977	-25.391565	0.000446	4.458709	1.510651	0.000179
1910	1.8995e+02	-3.9416	-25.209894	0.000456	4.560043	1.544984	0.000183
1911	1.9004e+02	-3.8967	-25.036297	0.000436	4.357374	1.476318	0.000174
1912	1.9014e+02	-3.8662	-24.886923	0.000375	3.749369	1.270321	0.000150
1913	1.9024e+02	-3.8293	-24.729475	0.000395	3.952037	1.338986	0.000158
1914	1.9034e+02	-3.7908	-24.567990	0.000405	4.053372	1.373319	0.000162
1915	1.9044e+02	-3.7507	-24.406504	0.000405	4.053372	1.373319	0.000162
1916	1.9054e+02	-3.7122	-24.216759	0.000476	4.762712	1.613650	0.000191
1917	1.9064e+02	-3.6721	-24.039125	0.000446	4.458709	1.510651	0.000179
1918	1.9074e+02	-3.6224	-23.885714	0.000385	3.850703	1.304654	0.000154
1919	1.9084e+02	-3.5919	-23.764600	0.000304	3.040029	1.029990	0.000122
1920	1.9094e+02	-3.5550	-23.591003	0.000436	4.357374	1.476318	0.000174
1921	1.9104e+02	-3.5101	-23.417406	0.000436	4.357374	1.476318	0.000174
1922	1.9114e+02	-3.4764	-23.235735	0.000456	4.560043	1.544984	0.000183
1923	1.9124e+02	-3.4266	-23.094435	0.000355	3.546700	1.201655	0.000142
1924	1.9134e+02	-3.3881	-22.936987	0.000395	3.952037	1.338986	0.000158
1925	1.9144e+02	-3.3528	-22.779538	0.000395	3.952037	1.338986	0.000158
1926	1.9154e+02	-3.3063	-22.573644	0.000517	5.168049	1.750982	0.000207
1927	1.9164e+02	-3.2758	-22.420233	0.000385	3.850703	1.304654	0.000154
1928	1.9174e+02	-3.2357	-22.234525	0.000466	4.661377	1.579317	0.000187
1929	1.9184e+02	-3.1924	-22.081114	0.000385	3.850703	1.304654	0.000154
1930	1.9194e+02	-3.1539	-21.923666	0.000395	3.952037	1.338986	0.000158
1931	1.9203e+02	-3.1170	-21.741995	0.000456	4.560043	1.544984	0.000183
1932	1.9213e+02	-3.0817	-21.560323	0.000456	4.560043	1.544984	0.000183
1933	1.9223e+02	-3.0336	-21.427098	0.000334	3.344032	1.132989	0.000134
1934	1.9233e+02	-2.9935	-21.237353	0.000476	4.762712	1.613650	0.000191
1935	1.9243e+02	-2.9454	-21.071830	0.000415	4.154706	1.407652	0.000166
1936	1.9253e+02	-2.9261	-20.930530	0.000355	3.546700	1.201655	0.000142
1937	1.9263e+02	-2.8684	-20.724636	0.000517	5.168049	1.750982	0.000207
1938	1.9273e+02	-2.8315	-20.567188	0.000395	3.952037	1.338986	0.000158
1939	1.9283e+02	-2.7994	-20.397628	0.000426	4.256040	1.441985	0.000170
1940	1.9293e+02	-2.7609	-20.232106	0.000415	4.154706	1.407652	0.000166
1941	1.9303e+02	-2.7176	-20.026212	0.000517	5.168049	1.750982	0.000207
1942	1.9313e+02	-2.6694	-19.860689	0.000415	4.154706	1.407652	0.000166
1943	1.9323e+02	-2.6309	-19.662870	0.000497	4.965380	1.682316	0.000199
1944	1.9333e+02	-2.5908	-19.545793	0.000294	2.938694	0.995657	0.000118
1945	1.9343e+02	-2.5523	-19.323750	0.000557	5.573386	1.888314	0.000223
1946	1.9353e+02	-2.5202	-19.150153	0.000436	4.357374	1.476318	0.000174
1947	1.9363e+02	-2.4689	-18.992705	0.000395	3.952037	1.338986	0.000158
1948	1.9373e+02	-2.4288	-18.811034	0.000456	4.560043	1.544984	0.000183
1949	1.9383e+02	-2.3951	-18.633400	0.000446	4.458709	1.510651	0.000179
1950	1.9393e+02	-2.3534	-18.419432	0.000537	5.370717	1.819648	0.000215
1951	1.9403e+02	-2.3101	-18.261984	0.000395	3.952037	1.338986	0.000158
1952	1.9412e+02	-2.2812	-18.068201	0.000486	4.864046	1.647983	0.000195
1953	1.9422e+02	-2.2363	-17.947087	0.000304	3.040029	1.029990	0.000122
1954	1.9432e+02	-2.1994	-17.725044	0.000557	5.573386	1.888314	0.000223
1955	1.9442e+02	-2.1529	-17.531262	0.000486	4.864046	1.647983	0.000195
1956	1.9452e+02	-2.1144	-17.361702	0.000426	4.256040	1.441985	0.000170
1957	1.9462e+02	-2.0695	-17.200217	0.000405	4.053372	1.373319	0.000162
1958	1.9472e+02	-2.0406	-17.030657	0.000426	4.256040	1.441985	0.000170
1959	1.9482e+02	-1.9860	-16.824763	0.000517	5.168049	1.750982	0.000207
1960	1.9492e+02	-1.9588	-16.639055	0.000466	4.661377	1.579317	0.000187
1961	1.9502e+02	-1.9219	-16.465458	0.000436	4.357374	1.476318	0.000174
1962	1.9512e+02	-1.8834	-16.279750	0.000466	4.661377	1.579317	0.000187
1963	1.9522e+02	-1.8304	-16.090004	0.000476	4.762712	1.613650	0.000191
1964	1.9532e+02	-1.7855	-15.867962	0.000557	5.573386	1.888314	0.000223
1965	1.9542e+02	-1.7598	-15.714551	0.000385	3.850703	1.304654	0.000154
1966	1.9552e+02	-1.7181	-15.561140	0.000385	3.850703	1.304654	0.000154
1967	1.9562e+02	-1.6844	-15.367357	0.000486	4.864046	1.647983	0.000195
1968	1.9572e+02	-1.6347	-15.141278	0.000567	5.674720	1.922647	0.000227
1969	1.9582e+02	-1.5946	-15.016126	0.000314	3.141363	1.064323	0.000126
1970	1.9592e+02	-1.5577	-14.854641	0.000405	4.053372	1.373319	0.000162
1971	1.9601e+02	-1.5144	-14.592227	0.000659	6.586729	2.231644	0.000264
1972	1.9611e+02	-1.4807	-14.459002	0.000334	3.344032	1.132989	0.000134
1973	1.9621e+02	-1.4278	-14.253108	0.000517	5.168049	1.750982	0.000207
1974	1.9631e+02	-1.4021	-14.039140	0.000537	5.370717	1.819648	0.000215
1975	1.9641e+02	-1.3556	-13.897840	0.000355	3.546700	1.201655	0.000142
1976	1.9651e+02	-1.3139	-13.704057	0.000486	4.864046	1.647983	0.000195
1977	1.9661e+02	-1.2738	-13.554683	0.000375	3.749369	1.270321	0.000150
1978	1.9671e+02	-1.2321	-13.312455	0.000608	6.080057	2.059979	0.000243
1979	1.9681e+02	-1.1952	-13.175192	0.000345	3.445366	1.167322	0.000138
1980	1.9691e+02	-1.1615	-12.924890	0.000628	6.282726	2.128645	0.000252
1981	1.9701e+02	-1.1133	-12.747256	0.000446	4.458709	1.510651	0.000179
1982	1.9711e+02	-1.0861	-12.565585	0.000456	4.560043	1.544984	0.000183
1983	1.9721e+02	-1.0428	-12.432360	0.000334	3.344032	1.132989	0.000134
1984	1.9731e+02	-0.9994	-12.182057	0.000628	6.282726	2.128645	0.000252
1985	1.9741e+02	-0.9561	-12.024609	0.000395	3.952037	1.338986	0.000158
1986	1.9751e+02	-0.9176	-11.798529	0.000567	5.674720	1.922647	0.000227
1987	1.9761e+02	-0.8839	-11.653192	0.000365	3.648034	1.235988	0.000146
1988	1.9771e+02	-0.8390	-11.467484	0.000466	4.661377	1.579317	0.000187
1989	1.9781e+02	-0.8053	-11.233330	0.000588	5.877389	1.991313	0.000235
1990	1.9791e+02	-0.7652	-11.071845	0.000405	4.053372	1.373319	0.000162
1991	1.9800e+02	-0.7187	-10.882099	0.000476	4.762712	1.613650	0.000191
1992	1.9810e+02	-0.6802	-10.676205	0.000517	5.168049	1.750982	0.000207
1993	1.9820e+02	-0.6305	-10.522794	0.000385	3.850703	1.304654	0.000154
1994	1.9830e+02	-0.5952	-10.324975	0.000497	4.965380	1.682316	0.000199
1995	1.9840e+02	-0.5583	-10.147341	0.000446	4.458709	1.510651	0.000179
1996	1.9850e+02	-0.5182	-9.969707	0.000446	4.458709	1.510651	0.000179
1997	1.9860e+02	-0.4829	-9.723441	0.000618	6.181392	2.094312	0.000248
1998	1.9870e+02	-0.4460	-9.561956	0.000405	4.053372	1.373319	0.000162
1999	1.9880e+02	-0.4027	-9.380285	0.000456	4.560043	1.544984	0.000183
2000	1.9890e+02	-0.3610	-9.158242	0.000557	5.573386	1.888314	0.000223
2001	1.9900e+02	-0.3192	-8.972534	0.000466	4.661377	1.579317	0.000187
2002	1.9910e+02	-0.2695	-8.811049	0.000405	4.053372	1.373319	0.000162
2003	1.9920e+02	-0.2438	-8.597081	0.000537	5.370717	1.819648	0.000215
2004	1.9930e+02	-0.2037	-8.423484	0.000436	4.357374	1.476318	0.000174
2005	1.9940e+02	-0.1556	-8.233738	0.000476	4.762712	1.613650	0.000191
2006	1.9950e+02	-0.1123	-8.064179	0.000426	4.256040	1.441985	0.000170
2007	1.9960e+02	-0.0786	-7.850210	0.000537	5.370717	1.819648	0.000215
2008	1.9970e+02	-0.0449	-7.632205	0.000547	5.472052	1.853981	0.000219
2009	1.9980e+02	-0.0032	-7.458608	0.000547	5.472052	1.853981	0.000174

Center data before PMax,+/-Pr and +/-Vc Calc.

PMax (uC/cm2):	7.01e+01
Pr (uC/cm2):	3.00e+00
-Pr (uC/cm2):	-7.46e+00
PLoss (uC/cm2):	-5.48e+00
Vc:	4.52e-01
-Vc:	-6.39e-01
C (Max-Eff) (nF):	3.51e-01
K (Eff):	1.19e+03
Vert. (+/-Pr) Shift (uC/cm2):	-2.23e+00
Horiz. Shift (+/-Vc):	-9.32e-02
Offset (uC/cm2):	1.98e+00

A (Loop Area - uC/cm2·Volts):	5.79e-02



Hysteresis Version: 5.48.1 - Radiant Technologies, Inc., 1999 - 9/12/24

