»»»»»»»»»»»»»»»»»»»»»»»»»»»»»»»»»»»» Hysteresis ««««««««««««««««««««««««««««««««««««
»»»  Executed Version:	5.48.1
»»»  Vision Version:	5.48.4 (R)
»»»  Vision Compiled:	9/18/24
»»»  Driver Version:	5.47.0
»»»  Windows Version:	Windows 8 or 8.1
»»»  Processor Information:	x86 (AMD or Intel) - 32 Processors
»»»  Tester Name:	PMF21124-494 (100V)
»»»  Tester S/N:	PMF21124-494
»»»  Internal Amp Type:	100V RevK 270k
»»»  Internal Amp S/N:	iAB2-596/K     
»»»  Execution Count:	1
»»»»»»»»»»»»»»»»»»»»»»»»»»»»»»»»»»»»»»»»»»««««««««««««««««««««««««««««««««««««««««««

Stored:	6/13/2025 - 14:54:2
Configured:	06/13/25 01:30:53 PM
Executed:	06/13/25 02:53:17 PM

»»»»»»»»»»»»»»»»»»»»»»»»»»»»»»»»»»» Sample Info ««««««««««««««««««««««««««««««««««««
Sample Name:	
Lot Name:	
Wafer Name:	
Die Row/Column:	0/0
Capacitor Number:	0
Sample Area (cm2):	1.00e-04
Sample Thickness (microns):	3.00e-01

Amplifier:	Internal

»»»»»»»»»»»»»»»»»»»»»»»»»»»»»»»»»»» Tester Info «««««««««««««««««««««««««««««««««««
Tester Name:	PMF21124-494 (100V)
Tester Serial Number:	PMF21124-494
Return Signal Amp. Level:	0.19 [Index: 3]

»»»»»»»»»»»»»»»»»»»»»»»»»»»»»»»» Hysteresis Info ««««««««««««««««««««««««««««««««««
Task Name:	Hyst-1922
Volts:	20.00
Field:	666.67 (kV/cm)
DCBias:	0.00
DCField:	0.00 (kV/cm)
Hysteresis Period (ms):	2.00e+02
Preset:	Enabled
Preset Delay (ms):	1.00e+03
Profile:	Standard Bipolar

»»»»»»»»»»»»»»»»»»»»»»»»»»»»»»»»»»»»»» Data «««««««««««««««««««««««««««««««««««««««
Points:	2009

Valid Data

Point	Time (ms)	Drive Voltage	Measured Polarization (uC/cm2)	Capacitance (uF)	Normalized Capacitance (uF/cm2)	Dielectric Constant	Instantaneous Current (mA)
   1	0.0000e+00	-0.0032	-6.364544	0.000193	1.925390	0.652340	0.000077
   2	9.9500e-02	0.0337	-6.287839	0.000193	1.925390	0.652340	0.000077
   3	1.9900e-01	0.0754	-6.126353	0.000405	4.053453	1.373347	0.000162
   4	2.9850e-01	0.1091	-5.944682	0.000456	4.560135	1.545015	0.000183
   5	3.9800e-01	0.1540	-5.815494	0.000324	3.242762	1.098678	0.000130
   6	4.9750e-01	0.1941	-5.654009	0.000405	4.053453	1.373347	0.000162
   7	5.9700e-01	0.2246	-5.512709	0.000355	3.546771	1.201679	0.000142
   8	6.9650e-01	0.2679	-5.339112	0.000436	4.357462	1.476348	0.000174
   9	7.9600e-01	0.3144	-5.201849	0.000345	3.445435	1.167345	0.000138
  10	8.9550e-01	0.3577	-5.068624	0.000334	3.344099	1.133011	0.000134
  11	9.9500e-01	0.3882	-4.911176	0.000395	3.952117	1.339013	0.000158
  12	1.0945e+00	0.4299	-4.761802	0.000375	3.749444	1.270346	0.000150
  13	1.1940e+00	0.4716	-4.588205	0.000436	4.357462	1.476348	0.000174
  14	1.2935e+00	0.5021	-4.483239	0.000263	2.634744	0.892676	0.000105
  15	1.3930e+00	0.5551	-4.350014	0.000334	3.344099	1.133011	0.000134
  16	1.4925e+00	0.5984	-4.140083	0.000527	5.269489	1.785351	0.000211
  17	1.5920e+00	0.6369	-3.974560	0.000415	4.154789	1.407681	0.000166
  18	1.6915e+00	0.6722	-3.837298	0.000345	3.445435	1.167345	0.000138
  19	1.7910e+00	0.7107	-3.708109	0.000324	3.242762	1.098678	0.000130
  20	1.8905e+00	0.7604	-3.534512	0.000436	4.357462	1.476348	0.000174
  21	1.9900e+00	0.7861	-3.364953	0.000426	4.256126	1.442014	0.000170
  22	2.0895e+00	0.8278	-3.215579	0.000375	3.749444	1.270346	0.000150
  23	2.1890e+00	0.8631	-3.086390	0.000324	3.242762	1.098678	0.000130
  24	2.2885e+00	0.9208	-2.953165	0.000334	3.344099	1.133011	0.000134
  25	2.3880e+00	0.9481	-2.775531	0.000446	4.458798	1.510682	0.000179
  26	2.4875e+00	0.9866	-2.605971	0.000426	4.256126	1.442014	0.000170
  27	2.5870e+00	1.0347	-2.472746	0.000334	3.344099	1.133011	0.000134
  28	2.6865e+00	1.0700	-2.303186	0.000426	4.256126	1.442014	0.000170
  29	2.7860e+00	1.0989	-2.186109	0.000294	2.938753	0.995677	0.000118
  30	2.8855e+00	1.1470	-2.000401	0.000466	4.661471	1.579349	0.000187
  31	2.9850e+00	1.1968	-1.859101	0.000355	3.546771	1.201679	0.000142
  32	3.0845e+00	1.2369	-1.713764	0.000365	3.648108	1.236012	0.000146
  33	3.1840e+00	1.2722	-1.560353	0.000385	3.850780	1.304680	0.000154
  34	3.2835e+00	1.3091	-1.459425	0.000253	2.533408	0.858342	0.000101
  35	3.3830e+00	1.3427	-1.241419	0.000547	5.472161	1.854018	0.000219
  36	3.4825e+00	1.3893	-1.100119	0.000355	3.546771	1.201679	0.000142
  37	3.5820e+00	1.4326	-0.954783	0.000365	3.648108	1.236012	0.000146
  38	3.6815e+00	1.4775	-0.809446	0.000365	3.648108	1.236012	0.000146
  39	3.7810e+00	1.5064	-0.611626	0.000497	4.965480	1.682350	0.000199
  40	3.8805e+00	1.5561	-0.490512	0.000304	3.040090	1.030010	0.000122
  41	3.9800e+00	1.5914	-0.333064	0.000395	3.952117	1.339013	0.000158
  42	4.0795e+00	1.6427	-0.183690	0.000375	3.749444	1.270346	0.000150
  43	4.1790e+00	1.6812	0.002019	0.000466	4.661471	1.579349	0.000187
  44	4.2785e+00	1.7021	0.074687	0.000182	1.824054	0.618006	0.000073
  45	4.3780e+00	1.7566	0.260395	0.000466	4.661471	1.579349	0.000187
  46	4.4775e+00	1.7871	0.429955	0.000426	4.256126	1.442014	0.000170
  47	4.5770e+00	1.8288	0.607589	0.000446	4.458798	1.510682	0.000179
  48	4.6765e+00	1.8641	0.724666	0.000294	2.938753	0.995677	0.000118
  49	4.7760e+00	1.9074	0.870003	0.000365	3.648108	1.236012	0.000146
  50	4.8755e+00	1.9443	1.027451	0.000395	3.952117	1.339013	0.000158
  51	4.9750e+00	1.9957	1.184899	0.000395	3.952117	1.339013	0.000158
  52	5.0745e+00	2.0229	1.334273	0.000375	3.749444	1.270346	0.000150
  53	5.1740e+00	2.0582	1.467499	0.000334	3.344099	1.133011	0.000134
  54	5.2735e+00	2.0999	1.620910	0.000385	3.850780	1.304680	0.000154
  55	5.3730e+00	2.1384	1.742024	0.000304	3.040090	1.030010	0.000122
  56	5.4725e+00	2.1882	1.919658	0.000446	4.458798	1.510682	0.000179
  57	5.5720e+00	2.2299	2.048846	0.000324	3.242762	1.098678	0.000130
  58	5.6715e+00	2.2636	2.194183	0.000365	3.648108	1.236012	0.000146
  59	5.7710e+00	2.3069	2.404114	0.000527	5.269489	1.785351	0.000211
  60	5.8705e+00	2.3438	2.533303	0.000324	3.242762	1.098678	0.000130
  61	5.9700e+00	2.3887	2.614045	0.000203	2.026726	0.686674	0.000081
  62	6.0695e+00	2.4304	2.799754	0.000466	4.661471	1.579349	0.000187
  63	6.1690e+00	2.4657	2.965276	0.000415	4.154789	1.407681	0.000166
  64	6.2685e+00	2.5042	3.086390	0.000304	3.040090	1.030010	0.000122
  65	6.3680e+00	2.5475	3.247876	0.000405	4.053453	1.373347	0.000162
  66	6.4675e+00	2.5844	3.377064	0.000324	3.242762	1.098678	0.000130
  67	6.5670e+00	2.6197	3.534512	0.000395	3.952117	1.339013	0.000158
  68	6.6665e+00	2.6694	3.675812	0.000355	3.546771	1.201679	0.000142
  69	6.7660e+00	2.7079	3.853446	0.000446	4.458798	1.510682	0.000179
  70	6.8655e+00	2.7464	3.974560	0.000304	3.040090	1.030010	0.000122
  71	6.9650e+00	2.7833	4.132008	0.000395	3.952117	1.339013	0.000158
  72	7.0645e+00	2.8186	4.285420	0.000385	3.850780	1.304680	0.000154
  73	7.1640e+00	2.8652	4.374237	0.000223	2.229399	0.755341	0.000089
  74	7.2635e+00	2.9021	4.568019	0.000486	4.864143	1.648016	0.000195
  75	7.3630e+00	2.9470	4.745653	0.000446	4.458798	1.510682	0.000179
  76	7.4625e+00	2.9759	4.870804	0.000314	3.141426	1.064344	0.000126
  77	7.5620e+00	3.0208	4.987881	0.000294	2.938753	0.995677	0.000118
  78	7.6615e+00	3.0721	5.129181	0.000355	3.546771	1.201679	0.000142
  79	7.7610e+00	3.1058	5.298741	0.000426	4.256126	1.442014	0.000170
  80	7.8605e+00	3.1443	5.472337	0.000436	4.357462	1.476348	0.000174
  81	7.9600e+00	3.1812	5.593452	0.000304	3.040090	1.030010	0.000122
  82	8.0595e+00	3.2133	5.738788	0.000365	3.648108	1.236012	0.000146
  83	8.1590e+00	3.2598	5.920460	0.000456	4.560135	1.545015	0.000183
  84	8.2585e+00	3.2999	6.045611	0.000314	3.141426	1.064344	0.000126
  85	8.3580e+00	3.3400	6.194985	0.000375	3.749444	1.270346	0.000150
  86	8.4575e+00	3.3801	6.308025	0.000284	2.837417	0.961343	0.000114
  87	8.5570e+00	3.4170	6.509881	0.000507	5.066816	1.716684	0.000203
  88	8.6565e+00	3.4684	6.594661	0.000213	2.128063	0.721007	0.000085
  89	8.7560e+00	3.5004	6.772295	0.000446	4.458798	1.510682	0.000179
  90	8.8555e+00	3.5405	6.881298	0.000274	2.736081	0.927009	0.000110
  91	8.9550e+00	3.5806	7.046820	0.000415	4.154789	1.407681	0.000166
  92	9.0545e+00	3.6272	7.212343	0.000415	4.154789	1.407681	0.000166
  93	9.1540e+00	3.6512	7.329420	0.000294	2.938753	0.995677	0.000118
  94	9.2535e+00	3.6962	7.478794	0.000375	3.749444	1.270346	0.000150
  95	9.3530e+00	3.7314	7.632205	0.000385	3.850780	1.304680	0.000154
  96	9.4525e+00	3.7812	7.809839	0.000446	4.458798	1.510682	0.000179
  97	9.5520e+00	3.8101	7.866359	0.000142	1.418709	0.480671	0.000057
  98	9.6515e+00	3.8550	8.015733	0.000375	3.749444	1.270346	0.000150
  99	9.7510e+00	3.8919	8.181256	0.000415	4.154789	1.407681	0.000166
 100	9.8505e+00	3.9384	8.322555	0.000355	3.546771	1.201679	0.000142
 101	9.9500e+00	3.9785	8.471929	0.000375	3.749444	1.270346	0.000150
 102	1.0050e+01	4.0090	8.641489	0.000426	4.256126	1.442014	0.000170
 103	1.0149e+01	4.0571	8.786826	0.000365	3.648108	1.236012	0.000146
 104	1.0248e+01	4.0988	8.920051	0.000334	3.344099	1.133011	0.000134
 105	1.0348e+01	4.1357	9.045203	0.000314	3.141426	1.064344	0.000126
 106	1.0447e+01	4.1742	9.243022	0.000497	4.965480	1.682350	0.000199
 107	1.0547e+01	4.2159	9.299542	0.000142	1.418709	0.480671	0.000057
 108	1.0646e+01	4.2576	9.497362	0.000497	4.965480	1.682350	0.000199
 109	1.0746e+01	4.2961	9.654810	0.000395	3.952117	1.339013	0.000158
 110	1.0845e+01	4.3459	9.763813	0.000274	2.736081	0.927009	0.000110
 111	1.0945e+01	4.3844	9.897038	0.000334	3.344099	1.133011	0.000134
 112	1.1044e+01	4.4165	10.054487	0.000395	3.952117	1.339013	0.000158
 113	1.1144e+01	4.4534	10.171563	0.000294	2.938753	0.995677	0.000118
 114	1.1243e+01	4.4999	10.345160	0.000436	4.357462	1.476348	0.000174
 115	1.1343e+01	4.5464	10.494534	0.000375	3.749444	1.270346	0.000150
 116	1.1443e+01	4.5785	10.635834	0.000355	3.546771	1.201679	0.000142
 117	1.1542e+01	4.6122	10.724651	0.000223	2.229399	0.755341	0.000089
 118	1.1642e+01	4.6555	10.894211	0.000426	4.256126	1.442014	0.000170
 119	1.1741e+01	4.6860	11.047622	0.000385	3.850780	1.304680	0.000154
 120	1.1841e+01	4.7421	11.160662	0.000284	2.837417	0.961343	0.000114
 121	1.1940e+01	4.7726	11.330221	0.000426	4.256126	1.442014	0.000170
 122	1.2040e+01	4.8255	11.487670	0.000395	3.952117	1.339013	0.000158
 123	1.2139e+01	4.8576	11.588598	0.000253	2.533408	0.858342	0.000101
 124	1.2239e+01	4.8945	11.746046	0.000395	3.952117	1.339013	0.000158
 125	1.2338e+01	4.9330	11.915606	0.000426	4.256126	1.442014	0.000170
 126	1.2438e+01	4.9811	12.012497	0.000243	2.432072	0.824008	0.000097
 127	1.2537e+01	5.0100	12.186094	0.000436	4.357462	1.476348	0.000174
 128	1.2636e+01	5.0646	12.323357	0.000345	3.445435	1.167345	0.000138
 129	1.2736e+01	5.0886	12.480805	0.000395	3.952117	1.339013	0.000158
 130	1.2835e+01	5.1384	12.593845	0.000284	2.837417	0.961343	0.000114
 131	1.2935e+01	5.1720	12.743219	0.000375	3.749444	1.270346	0.000150
 132	1.3034e+01	5.2234	12.884519	0.000355	3.546771	1.201679	0.000142
 133	1.3134e+01	5.2539	13.041967	0.000395	3.952117	1.339013	0.000158
 134	1.3233e+01	5.2908	13.159044	0.000294	2.938753	0.995677	0.000118
 135	1.3333e+01	5.3357	13.344752	0.000466	4.661471	1.579349	0.000187
 136	1.3432e+01	5.3790	13.482015	0.000345	3.445435	1.167345	0.000138
 137	1.3532e+01	5.4127	13.591017	0.000274	2.736081	0.927009	0.000110
 138	1.3632e+01	5.4512	13.704057	0.000284	2.837417	0.961343	0.000114
 139	1.3731e+01	5.4913	13.873617	0.000426	4.256126	1.442014	0.000170
 140	1.3831e+01	5.5234	14.006842	0.000334	3.344099	1.133011	0.000134
 141	1.3930e+01	5.5731	14.176402	0.000426	4.256126	1.442014	0.000170
 142	1.4030e+01	5.6100	14.281368	0.000263	2.634744	0.892676	0.000105
 143	1.4129e+01	5.6565	14.454965	0.000436	4.357462	1.476348	0.000174
 144	1.4229e+01	5.6806	14.584153	0.000324	3.242762	1.098678	0.000130
 145	1.4328e+01	5.7415	14.721415	0.000345	3.445435	1.167345	0.000138
 146	1.4428e+01	5.7736	14.858678	0.000345	3.445435	1.167345	0.000138
 147	1.4527e+01	5.8186	15.028238	0.000426	4.256126	1.442014	0.000170
 148	1.4627e+01	5.8506	15.145315	0.000294	2.938753	0.995677	0.000118
 149	1.4726e+01	5.8940	15.306800	0.000405	4.053453	1.373347	0.000162
 150	1.4825e+01	5.9357	15.431951	0.000314	3.141426	1.064344	0.000126
 151	1.4925e+01	5.9790	15.536917	0.000263	2.634744	0.892676	0.000105
 152	1.5024e+01	6.0223	15.702439	0.000415	4.154789	1.407681	0.000166
 153	1.5124e+01	6.0560	15.880073	0.000446	4.458798	1.510682	0.000179
 154	1.5223e+01	6.0929	15.964853	0.000213	2.128063	0.721007	0.000085
 155	1.5323e+01	6.1314	16.118264	0.000385	3.850780	1.304680	0.000154
 156	1.5422e+01	6.1667	16.275713	0.000395	3.952117	1.339013	0.000158
 157	1.5522e+01	6.2148	16.412975	0.000345	3.445435	1.167345	0.000138
 158	1.5621e+01	6.2517	16.521978	0.000274	2.736081	0.927009	0.000110
 159	1.5721e+01	6.2998	16.687501	0.000415	4.154789	1.407681	0.000166
 160	1.5820e+01	6.3335	16.840912	0.000385	3.850780	1.304680	0.000154
 161	1.5920e+01	6.3736	16.974137	0.000334	3.344099	1.133011	0.000134
 162	1.6020e+01	6.4169	17.111400	0.000345	3.445435	1.167345	0.000138
 163	1.6119e+01	6.4490	17.264811	0.000385	3.850780	1.304680	0.000154
 164	1.6218e+01	6.4891	17.426296	0.000405	4.053453	1.373347	0.000162
 165	1.6318e+01	6.5324	17.503002	0.000193	1.925390	0.652340	0.000077
 166	1.6418e+01	6.5709	17.652376	0.000375	3.749444	1.270346	0.000150
 167	1.6517e+01	6.6078	17.793676	0.000355	3.546771	1.201679	0.000142
 168	1.6616e+01	6.6511	17.947087	0.000385	3.850780	1.304680	0.000154
 169	1.6716e+01	6.6832	18.035904	0.000223	2.229399	0.755341	0.000089
 170	1.6816e+01	6.7153	18.201426	0.000415	4.154789	1.407681	0.000166
 171	1.6915e+01	6.7650	18.330615	0.000324	3.242762	1.098678	0.000130
 172	1.7015e+01	6.8148	18.508249	0.000446	4.458798	1.510682	0.000179
 173	1.7114e+01	6.8404	18.576880	0.000172	1.722717	0.583672	0.000069
 174	1.7213e+01	6.8838	18.746440	0.000426	4.256126	1.442014	0.000170
 175	1.7313e+01	6.9207	18.911962	0.000415	4.154789	1.407681	0.000166
 176	1.7413e+01	6.9672	19.041151	0.000324	3.242762	1.098678	0.000130
 177	1.7512e+01	7.0105	19.174376	0.000334	3.344099	1.133011	0.000134
 178	1.7611e+01	7.0362	19.299527	0.000314	3.141426	1.064344	0.000126
 179	1.7711e+01	7.0859	19.456976	0.000395	3.952117	1.339013	0.000158
 180	1.7811e+01	7.1292	19.594238	0.000345	3.445435	1.167345	0.000138
 181	1.7910e+01	7.1661	19.691130	0.000243	2.432072	0.824008	0.000097
 182	1.8009e+01	7.2094	19.872801	0.000456	4.560135	1.545015	0.000183
 183	1.8109e+01	7.2463	20.022175	0.000375	3.749444	1.270346	0.000150
 184	1.8209e+01	7.2896	20.163474	0.000355	3.546771	1.201679	0.000142
 185	1.8308e+01	7.3217	20.308811	0.000365	3.648108	1.236012	0.000146
 186	1.8407e+01	7.3634	20.417814	0.000274	2.736081	0.927009	0.000110
 187	1.8507e+01	7.4019	20.599485	0.000456	4.560135	1.545015	0.000183
 188	1.8607e+01	7.4388	20.664079	0.000162	1.621381	0.549339	0.000065
 189	1.8706e+01	7.4805	20.813453	0.000375	3.749444	1.270346	0.000150
 190	1.8805e+01	7.5271	20.974939	0.000405	4.053453	1.373347	0.000162
 191	1.8905e+01	7.5640	21.104127	0.000324	3.242762	1.098678	0.000130
 192	1.9005e+01	7.6105	21.221204	0.000294	2.938753	0.995677	0.000118
 193	1.9104e+01	7.6490	21.390764	0.000426	4.256126	1.442014	0.000170
 194	1.9203e+01	7.6907	21.507841	0.000294	2.938753	0.995677	0.000118
 195	1.9303e+01	7.7244	21.628955	0.000304	3.040090	1.030010	0.000122
 196	1.9402e+01	7.7661	21.758143	0.000324	3.242762	1.098678	0.000130
 197	1.9502e+01	7.7950	21.927703	0.000426	4.256126	1.442014	0.000170
 198	1.9602e+01	7.8495	22.060928	0.000334	3.344099	1.133011	0.000134
 199	1.9701e+01	7.8784	22.194154	0.000334	3.344099	1.133011	0.000134
 200	1.9800e+01	7.9297	22.266822	0.000182	1.824054	0.618006	0.000073
 201	1.9900e+01	7.9682	22.452530	0.000466	4.661471	1.579349	0.000187
 202	2.0000e+01	8.0035	22.577682	0.000314	3.141426	1.064344	0.000126
 203	2.0099e+01	8.0388	22.706870	0.000324	3.242762	1.098678	0.000130
 204	2.0198e+01	8.0853	22.807798	0.000253	2.533408	0.858342	0.000101
 205	2.0298e+01	8.1303	23.005618	0.000497	4.965480	1.682350	0.000199
 206	2.0398e+01	8.1511	23.106546	0.000253	2.533408	0.858342	0.000101
 207	2.0497e+01	8.2089	23.272069	0.000415	4.154789	1.407681	0.000166
 208	2.0596e+01	8.2474	23.360886	0.000223	2.229399	0.755341	0.000089
 209	2.0696e+01	8.2794	23.518334	0.000395	3.952117	1.339013	0.000158
 210	2.0796e+01	8.3308	23.627337	0.000274	2.736081	0.927009	0.000110
 211	2.0895e+01	8.3532	23.752488	0.000314	3.141426	1.064344	0.000126
 212	2.0994e+01	8.4046	23.946271	0.000486	4.864143	1.648016	0.000195
 213	2.1094e+01	8.4383	24.014902	0.000172	1.722717	0.583672	0.000069
 214	2.1194e+01	8.4864	24.160239	0.000365	3.648108	1.236012	0.000146
 215	2.1293e+01	8.5201	24.293464	0.000334	3.344099	1.133011	0.000134
 216	2.1392e+01	8.5634	24.438801	0.000365	3.648108	1.236012	0.000146
 217	2.1492e+01	8.5971	24.588175	0.000375	3.749444	1.270346	0.000150
 218	2.1591e+01	8.6404	24.681029	0.000233	2.330735	0.789675	0.000093
 219	2.1691e+01	8.6725	24.802143	0.000304	3.040090	1.030010	0.000122
 220	2.1791e+01	8.7190	24.943443	0.000355	3.546771	1.201679	0.000142
 221	2.1890e+01	8.7591	25.104929	0.000405	4.053453	1.373347	0.000162
 222	2.1989e+01	8.7976	25.238154	0.000334	3.344099	1.133011	0.000134
 223	2.2089e+01	8.8393	25.290637	0.000132	1.317372	0.446338	0.000053
 224	2.2189e+01	8.8746	25.427899	0.000345	3.445435	1.167345	0.000138
 225	2.2288e+01	8.9195	25.573236	0.000365	3.648108	1.236012	0.000146
 226	2.2387e+01	8.9709	25.690313	0.000294	2.938753	0.995677	0.000118
 227	2.2487e+01	9.0062	25.811427	0.000304	3.040090	1.030010	0.000122
 228	2.2587e+01	9.0431	25.932541	0.000304	3.040090	1.030010	0.000122
 229	2.2686e+01	9.0784	26.069804	0.000345	3.445435	1.167345	0.000138
 230	2.2785e+01	9.1169	26.203030	0.000334	3.344099	1.133011	0.000134
 231	2.2885e+01	9.1489	26.348366	0.000365	3.648108	1.236012	0.000146
 232	2.2985e+01	9.2019	26.433146	0.000213	2.128063	0.721007	0.000085
 233	2.3084e+01	9.2356	26.594632	0.000405	4.053453	1.373347	0.000162
 234	2.3183e+01	9.2853	26.703634	0.000274	2.736081	0.927009	0.000110
 235	2.3283e+01	9.3142	26.853008	0.000375	3.749444	1.270346	0.000150
 236	2.3383e+01	9.3607	26.966048	0.000284	2.837417	0.961343	0.000114
 237	2.3482e+01	9.3944	27.075051	0.000274	2.736081	0.927009	0.000110
 238	2.3581e+01	9.4473	27.256722	0.000456	4.560135	1.545015	0.000183
 239	2.3681e+01	9.4746	27.349576	0.000233	2.330735	0.789675	0.000093
 240	2.3780e+01	9.5275	27.462616	0.000284	2.837417	0.961343	0.000114
 241	2.3880e+01	9.5532	27.599878	0.000345	3.445435	1.167345	0.000138
 242	2.3980e+01	9.5837	27.696770	0.000243	2.432072	0.824008	0.000097
 243	2.4079e+01	9.6398	27.834032	0.000345	3.445435	1.167345	0.000138
 244	2.4178e+01	9.6735	27.943035	0.000274	2.736081	0.927009	0.000110
 245	2.4278e+01	9.7152	28.112595	0.000426	4.256126	1.442014	0.000170
 246	2.4378e+01	9.7618	28.205449	0.000233	2.330735	0.789675	0.000093
 247	2.4477e+01	9.7970	28.314451	0.000274	2.736081	0.927009	0.000110
 248	2.4576e+01	9.8307	28.463826	0.000375	3.749444	1.270346	0.000150
 249	2.4676e+01	9.8805	28.617237	0.000385	3.850780	1.304680	0.000154
 250	2.4776e+01	9.9126	28.685868	0.000172	1.722717	0.583672	0.000069
 251	2.4875e+01	9.9559	28.843316	0.000395	3.952117	1.339013	0.000158
 252	2.4974e+01	9.9976	28.915985	0.000182	1.824054	0.618006	0.000073
 253	2.5074e+01	10.0313	29.065359	0.000375	3.749444	1.270346	0.000150
 254	2.5174e+01	10.0714	29.190510	0.000314	3.141426	1.064344	0.000126
 255	2.5273e+01	10.1099	29.311624	0.000304	3.040090	1.030010	0.000122
 256	2.5372e+01	10.1628	29.412552	0.000253	2.533408	0.858342	0.000101
 257	2.5472e+01	10.1901	29.533666	0.000304	3.040090	1.030010	0.000122
 258	2.5572e+01	10.2350	29.630558	0.000243	2.432072	0.824008	0.000097
 259	2.5671e+01	10.2767	29.804155	0.000436	4.357462	1.476348	0.000174
 260	2.5770e+01	10.3184	29.888934	0.000213	2.128063	0.721007	0.000085
 261	2.5870e+01	10.3457	30.018123	0.000324	3.242762	1.098678	0.000130
 262	2.5970e+01	10.4051	30.139237	0.000304	3.040090	1.030010	0.000122
 263	2.6069e+01	10.4307	30.264388	0.000314	3.141426	1.064344	0.000126
 264	2.6169e+01	10.4660	30.385502	0.000304	3.040090	1.030010	0.000122
 265	2.6268e+01	10.5109	30.490468	0.000263	2.634744	0.892676	0.000105
 266	2.6367e+01	10.5559	30.680213	0.000476	4.762807	1.613683	0.000191
 267	2.6467e+01	10.5960	30.760956	0.000203	2.026726	0.686674	0.000081
 268	2.6567e+01	10.6393	30.869958	0.000274	2.736081	0.927009	0.000110
 269	2.6666e+01	10.6633	31.011258	0.000355	3.546771	1.201679	0.000142
 270	2.6765e+01	10.7179	31.104112	0.000233	2.330735	0.789675	0.000093
 271	2.6865e+01	10.7532	31.245412	0.000355	3.546771	1.201679	0.000142
 272	2.6965e+01	10.8029	31.362489	0.000294	2.938753	0.995677	0.000118
 273	2.7064e+01	10.8318	31.467455	0.000263	2.634744	0.892676	0.000105
 274	2.7163e+01	10.8719	31.604717	0.000345	3.445435	1.167345	0.000138
 275	2.7263e+01	10.9184	31.721794	0.000294	2.938753	0.995677	0.000118
 276	2.7363e+01	10.9489	31.838871	0.000294	2.938753	0.995677	0.000118
 277	2.7462e+01	10.9986	31.951911	0.000284	2.837417	0.961343	0.000114
 278	2.7561e+01	11.0275	32.052839	0.000253	2.533408	0.858342	0.000101
 279	2.7661e+01	11.0676	32.169916	0.000294	2.938753	0.995677	0.000118
 280	2.7761e+01	11.1077	32.335439	0.000415	4.154789	1.407681	0.000166
 281	2.7860e+01	11.1430	32.367736	0.000081	0.810691	0.274669	0.000032
 282	2.7959e+01	11.1847	32.480776	0.000284	2.837417	0.961343	0.000114
 283	2.8059e+01	11.2296	32.638224	0.000395	3.952117	1.339013	0.000158
 284	2.8159e+01	11.2745	32.731078	0.000233	2.330735	0.789675	0.000093
 285	2.8258e+01	11.3227	32.872378	0.000355	3.546771	1.201679	0.000142
 286	2.8358e+01	11.3387	32.993492	0.000304	3.040090	1.030010	0.000122
 287	2.8457e+01	11.4029	33.138829	0.000365	3.648108	1.236012	0.000146
 288	2.8556e+01	11.4286	33.219571	0.000203	2.026726	0.686674	0.000081
 289	2.8656e+01	11.4671	33.324537	0.000263	2.634744	0.892676	0.000105
 290	2.8756e+01	11.5104	33.477948	0.000385	3.850780	1.304680	0.000154
 291	2.8855e+01	11.5505	33.582914	0.000263	2.634744	0.892676	0.000105
 292	2.8954e+01	11.5890	33.683842	0.000253	2.533408	0.858342	0.000101
 293	2.9054e+01	11.6371	33.813030	0.000324	3.242762	1.098678	0.000130
 294	2.9154e+01	11.6660	33.954330	0.000355	3.546771	1.201679	0.000142
 295	2.9253e+01	11.7045	34.059296	0.000263	2.634744	0.892676	0.000105
 296	2.9352e+01	11.7478	34.196558	0.000345	3.445435	1.167345	0.000138
 297	2.9452e+01	11.7831	34.317672	0.000304	3.040090	1.030010	0.000122
 298	2.9552e+01	11.8360	34.410526	0.000233	2.330735	0.789675	0.000093
 299	2.9651e+01	11.8761	34.547789	0.000345	3.445435	1.167345	0.000138
 300	2.9750e+01	11.9050	34.676977	0.000324	3.242762	1.098678	0.000130
 301	2.9850e+01	11.9467	34.757720	0.000203	2.026726	0.686674	0.000081
 302	2.9950e+01	12.0013	34.882871	0.000314	3.141426	1.064344	0.000126
 303	3.0049e+01	12.0350	34.991874	0.000274	2.736081	0.927009	0.000110
 304	3.0148e+01	12.0702	35.133174	0.000355	3.546771	1.201679	0.000142
 305	3.0248e+01	12.1136	35.230065	0.000243	2.432072	0.824008	0.000097
 306	3.0348e+01	12.1440	35.355216	0.000314	3.141426	1.064344	0.000126
 307	3.0447e+01	12.1874	35.480367	0.000314	3.141426	1.064344	0.000126
 308	3.0547e+01	12.2275	35.581296	0.000253	2.533408	0.858342	0.000101
 309	3.0646e+01	12.2676	35.706447	0.000314	3.141426	1.064344	0.000126
 310	3.0745e+01	12.3029	35.787190	0.000203	2.026726	0.686674	0.000081
 311	3.0845e+01	12.3446	35.976935	0.000476	4.762807	1.613683	0.000191
 312	3.0945e+01	12.3879	36.089975	0.000284	2.837417	0.961343	0.000114
 313	3.1044e+01	12.4328	36.162643	0.000182	1.824054	0.618006	0.000073
 314	3.1143e+01	12.4713	36.303943	0.000355	3.546771	1.201679	0.000142
 315	3.1243e+01	12.5082	36.429094	0.000314	3.141426	1.064344	0.000126
 316	3.1343e+01	12.5435	36.517911	0.000223	2.229399	0.755341	0.000089
 317	3.1442e+01	12.5836	36.647100	0.000324	3.242762	1.098678	0.000130
 318	3.1541e+01	12.6285	36.760139	0.000284	2.837417	0.961343	0.000114
 319	3.1641e+01	12.6606	36.877216	0.000294	2.938753	0.995677	0.000118
 320	3.1741e+01	12.7087	36.994293	0.000294	2.938753	0.995677	0.000118
 321	3.1840e+01	12.7424	37.115407	0.000304	3.040090	1.030010	0.000122
 322	3.1939e+01	12.7857	37.228447	0.000284	2.837417	0.961343	0.000114
 323	3.2039e+01	12.8194	37.345524	0.000294	2.938753	0.995677	0.000118
 324	3.2139e+01	12.8692	37.486824	0.000355	3.546771	1.201679	0.000142
 325	3.2238e+01	12.8996	37.587752	0.000253	2.533408	0.858342	0.000101
 326	3.2337e+01	12.9365	37.696755	0.000274	2.736081	0.927009	0.000110
 327	3.2437e+01	12.9750	37.805758	0.000274	2.736081	0.927009	0.000110
 328	3.2536e+01	13.0264	37.898612	0.000233	2.330735	0.789675	0.000093
 329	3.2636e+01	13.0520	38.043949	0.000365	3.648108	1.236012	0.000146
 330	3.2736e+01	13.0986	38.185248	0.000355	3.546771	1.201679	0.000142
 331	3.2835e+01	13.1355	38.249843	0.000162	1.621381	0.549339	0.000065
 332	3.2934e+01	13.1836	38.330585	0.000203	2.026726	0.686674	0.000081
 333	3.3034e+01	13.2301	38.492071	0.000405	4.053453	1.373347	0.000162
 334	3.3133e+01	13.2574	38.633370	0.000355	3.546771	1.201679	0.000142
 335	3.3233e+01	13.2975	38.734299	0.000253	2.533408	0.858342	0.000101
 336	3.3333e+01	13.3376	38.835227	0.000253	2.533408	0.858342	0.000101
 337	3.3432e+01	13.3793	38.952304	0.000294	2.938753	0.995677	0.000118
 338	3.3532e+01	13.4162	39.065344	0.000284	2.837417	0.961343	0.000114
 339	3.3631e+01	13.4579	39.234904	0.000426	4.256126	1.442014	0.000170
 340	3.3730e+01	13.4932	39.295461	0.000152	1.520045	0.515005	0.000061
 341	3.3830e+01	13.5494	39.428686	0.000334	3.344099	1.133011	0.000134
 342	3.3929e+01	13.5830	39.569986	0.000355	3.546771	1.201679	0.000142
 343	3.4029e+01	13.6199	39.654766	0.000213	2.128063	0.721007	0.000085
 344	3.4129e+01	13.6584	39.771843	0.000294	2.938753	0.995677	0.000118
 345	3.4228e+01	13.7066	39.896994	0.000314	3.141426	1.064344	0.000126
 346	3.4328e+01	13.7386	40.001959	0.000263	2.634744	0.892676	0.000105
 347	3.4427e+01	13.7723	40.106925	0.000263	2.634744	0.892676	0.000105
 348	3.4526e+01	13.8253	40.240150	0.000334	3.344099	1.133011	0.000134
 349	3.4626e+01	13.8590	40.357227	0.000294	2.938753	0.995677	0.000118
 350	3.4725e+01	13.8975	40.462193	0.000263	2.634744	0.892676	0.000105
 351	3.4825e+01	13.9392	40.595418	0.000334	3.344099	1.133011	0.000134
 352	3.4925e+01	13.9857	40.672124	0.000193	1.925390	0.652340	0.000077
 353	3.5024e+01	14.0210	40.821498	0.000375	3.749444	1.270346	0.000150
 354	3.5123e+01	14.0515	40.962798	0.000355	3.546771	1.201679	0.000142
 355	3.5223e+01	14.1012	41.035466	0.000182	1.824054	0.618006	0.000073
 356	3.5322e+01	14.1413	41.140432	0.000263	2.634744	0.892676	0.000105
 357	3.5422e+01	14.1686	41.265583	0.000314	3.141426	1.064344	0.000126
 358	3.5522e+01	14.2119	41.431106	0.000415	4.154789	1.407681	0.000166
 359	3.5621e+01	14.2616	41.483588	0.000132	1.317372	0.446338	0.000053
 360	3.5721e+01	14.2953	41.620851	0.000345	3.445435	1.167345	0.000138
 361	3.5820e+01	14.3418	41.717742	0.000243	2.432072	0.824008	0.000097
 362	3.5919e+01	14.3836	41.830782	0.000284	2.837417	0.961343	0.000114
 363	3.6019e+01	14.4140	41.947859	0.000294	2.938753	0.995677	0.000118
 364	3.6118e+01	14.4573	42.060899	0.000284	2.837417	0.961343	0.000114
 365	3.6218e+01	14.5023	42.169901	0.000274	2.736081	0.927009	0.000110
 366	3.6318e+01	14.5440	42.278904	0.000274	2.736081	0.927009	0.000110
 367	3.6417e+01	14.5729	42.412129	0.000334	3.344099	1.133011	0.000134
 368	3.6517e+01	14.6178	42.537281	0.000314	3.141426	1.064344	0.000126
 369	3.6616e+01	14.6515	42.626098	0.000223	2.229399	0.755341	0.000089
 370	3.6715e+01	14.7076	42.775472	0.000375	3.749444	1.270346	0.000150
 371	3.6815e+01	14.7381	42.872363	0.000243	2.432072	0.824008	0.000097
 372	3.6914e+01	14.7750	42.957143	0.000213	2.128063	0.721007	0.000085
 373	3.7014e+01	14.8119	43.122665	0.000415	4.154789	1.407681	0.000166
 374	3.7114e+01	14.8536	43.195334	0.000182	1.824054	0.618006	0.000073
 375	3.7213e+01	14.9017	43.332596	0.000345	3.445435	1.167345	0.000138
 376	3.7313e+01	14.9370	43.433525	0.000253	2.533408	0.858342	0.000101
 377	3.7412e+01	14.9643	43.530416	0.000243	2.432072	0.824008	0.000097
 378	3.7511e+01	15.0156	43.651530	0.000304	3.040090	1.030010	0.000122
 379	3.7611e+01	15.0573	43.768607	0.000294	2.938753	0.995677	0.000118
 380	3.7711e+01	15.0926	43.869535	0.000253	2.533408	0.858342	0.000101
 381	3.7810e+01	15.1327	43.974501	0.000263	2.634744	0.892676	0.000105
 382	3.7910e+01	15.1776	44.152135	0.000446	4.458798	1.510682	0.000179
 383	3.8009e+01	15.2161	44.204618	0.000132	1.317372	0.446338	0.000053
 384	3.8108e+01	15.2530	44.321695	0.000294	2.938753	0.995677	0.000118
 385	3.8208e+01	15.2980	44.434735	0.000284	2.837417	0.961343	0.000114
 386	3.8307e+01	15.3397	44.539700	0.000263	2.634744	0.892676	0.000105
 387	3.8407e+01	15.3766	44.648703	0.000274	2.736081	0.927009	0.000110
 388	3.8507e+01	15.4199	44.773854	0.000314	3.141426	1.064344	0.000126
 389	3.8606e+01	15.4488	44.846522	0.000182	1.824054	0.618006	0.000073
 390	3.8706e+01	15.4905	45.008008	0.000405	4.053453	1.373347	0.000162
 391	3.8805e+01	15.5290	45.092788	0.000213	2.128063	0.721007	0.000085
 392	3.8904e+01	15.5643	45.234087	0.000355	3.546771	1.201679	0.000142
 393	3.9004e+01	15.6076	45.302719	0.000172	1.722717	0.583672	0.000069
 394	3.9103e+01	15.6509	45.415758	0.000284	2.837417	0.961343	0.000114
 395	3.9203e+01	15.6958	45.561095	0.000365	3.648108	1.236012	0.000146
 396	3.9303e+01	15.7311	45.637801	0.000193	1.925390	0.652340	0.000077
 397	3.9402e+01	15.7728	45.787175	0.000375	3.749444	1.270346	0.000150
 398	3.9502e+01	15.8145	45.863881	0.000193	1.925390	0.652340	0.000077
 399	3.9601e+01	15.8562	46.005180	0.000355	3.546771	1.201679	0.000142
 400	3.9700e+01	15.8899	46.118220	0.000284	2.837417	0.961343	0.000114
 401	3.9800e+01	15.9252	46.235297	0.000294	2.938753	0.995677	0.000118
 402	3.9900e+01	15.9750	46.307965	0.000182	1.824054	0.618006	0.000073
 403	3.9999e+01	16.0086	46.396782	0.000223	2.229399	0.755341	0.000089
 404	4.0099e+01	16.0455	46.558268	0.000405	4.053453	1.373347	0.000162
 405	4.0198e+01	16.0889	46.639011	0.000203	2.026726	0.686674	0.000081
 406	4.0297e+01	16.1306	46.743976	0.000263	2.634744	0.892676	0.000105
 407	4.0397e+01	16.1659	46.865090	0.000304	3.040090	1.030010	0.000122
 408	4.0496e+01	16.2092	46.945833	0.000203	2.026726	0.686674	0.000081
 409	4.0596e+01	16.2525	47.058873	0.000284	2.837417	0.961343	0.000114
 410	4.0696e+01	16.2958	47.179987	0.000304	3.040090	1.030010	0.000122
 411	4.0795e+01	16.3295	47.284952	0.000263	2.634744	0.892676	0.000105
 412	4.0895e+01	16.3728	47.406066	0.000304	3.040090	1.030010	0.000122
 413	4.0994e+01	16.4017	47.539292	0.000334	3.344099	1.133011	0.000134
 414	4.1093e+01	16.4498	47.615997	0.000193	1.925390	0.652340	0.000077
 415	4.1193e+01	16.4819	47.729037	0.000284	2.837417	0.961343	0.000114
 416	4.1292e+01	16.5268	47.829966	0.000253	2.533408	0.858342	0.000101
 417	4.1392e+01	16.5749	47.955117	0.000314	3.141426	1.064344	0.000126
 418	4.1492e+01	16.6070	48.031822	0.000193	1.925390	0.652340	0.000077
 419	4.1591e+01	16.6455	48.140825	0.000274	2.736081	0.927009	0.000110
 420	4.1691e+01	16.6872	48.286162	0.000365	3.648108	1.236012	0.000146
 421	4.1790e+01	16.7305	48.354793	0.000172	1.722717	0.583672	0.000069
 422	4.1889e+01	16.7658	48.504167	0.000375	3.749444	1.270346	0.000150
 423	4.1989e+01	16.8156	48.597021	0.000233	2.330735	0.789675	0.000093
 424	4.2089e+01	16.8444	48.701987	0.000263	2.634744	0.892676	0.000105
 425	4.2188e+01	16.8910	48.810990	0.000274	2.736081	0.927009	0.000110
 426	4.2288e+01	16.9327	48.911918	0.000253	2.533408	0.858342	0.000101
 427	4.2387e+01	16.9632	49.012846	0.000253	2.533408	0.858342	0.000101
 428	4.2486e+01	17.0065	49.117812	0.000263	2.634744	0.892676	0.000105
 429	4.2586e+01	17.0450	49.251037	0.000334	3.344099	1.133011	0.000134
 430	4.2685e+01	17.0931	49.356003	0.000263	2.634744	0.892676	0.000105
 431	4.2785e+01	17.1236	49.473080	0.000294	2.938753	0.995677	0.000118
 432	4.2885e+01	17.1685	49.582083	0.000274	2.736081	0.927009	0.000110
 433	4.2984e+01	17.2038	49.723382	0.000355	3.546771	1.201679	0.000142
 434	4.3084e+01	17.2455	49.804125	0.000203	2.026726	0.686674	0.000081
 435	4.3183e+01	17.2840	49.884868	0.000203	2.026726	0.686674	0.000081
 436	4.3282e+01	17.3321	50.018093	0.000334	3.344099	1.133011	0.000134
 437	4.3382e+01	17.3642	50.127096	0.000274	2.736081	0.927009	0.000110
 438	4.3481e+01	17.4075	50.272433	0.000365	3.648108	1.236012	0.000146
 439	4.3581e+01	17.4508	50.341064	0.000172	1.722717	0.583672	0.000069
 440	4.3681e+01	17.4829	50.454104	0.000284	2.837417	0.961343	0.000114
 441	4.3780e+01	17.5230	50.599441	0.000365	3.648108	1.236012	0.000146
 442	4.3880e+01	17.5631	50.684221	0.000213	2.128063	0.721007	0.000085
 443	4.3979e+01	17.6000	50.793223	0.000274	2.736081	0.927009	0.000110
 444	4.4078e+01	17.6466	50.914337	0.000304	3.040090	1.030010	0.000122
 445	4.4178e+01	17.6867	51.023340	0.000274	2.736081	0.927009	0.000110
 446	4.4278e+01	17.7236	51.144454	0.000304	3.040090	1.030010	0.000122
 447	4.4377e+01	17.7605	51.277680	0.000334	3.344099	1.133011	0.000134
 448	4.4477e+01	17.8070	51.394757	0.000294	2.938753	0.995677	0.000118
 449	4.4576e+01	17.8391	51.483573	0.000223	2.229399	0.755341	0.000089
 450	4.4675e+01	17.8888	51.600650	0.000294	2.938753	0.995677	0.000118
 451	4.4775e+01	17.9353	51.709653	0.000274	2.736081	0.927009	0.000110
 452	4.4874e+01	17.9706	51.826730	0.000294	2.938753	0.995677	0.000118
 453	4.4974e+01	18.0091	51.931696	0.000263	2.634744	0.892676	0.000105
 454	4.5074e+01	18.0460	52.032624	0.000253	2.533408	0.858342	0.000101
 455	4.5173e+01	18.0909	52.181998	0.000375	3.749444	1.270346	0.000150
 456	4.5273e+01	18.1262	52.307149	0.000314	3.141426	1.064344	0.000126
 457	4.5372e+01	18.1631	52.428263	0.000304	3.040090	1.030010	0.000122
 458	4.5471e+01	18.1968	52.553414	0.000314	3.141426	1.064344	0.000126
 459	4.5571e+01	18.2385	52.634157	0.000203	2.026726	0.686674	0.000081
 460	4.5670e+01	18.2754	52.759308	0.000314	3.141426	1.064344	0.000126
 461	4.5770e+01	18.3219	52.872348	0.000284	2.837417	0.961343	0.000114
 462	4.5870e+01	18.3572	52.973277	0.000253	2.533408	0.858342	0.000101
 463	4.5969e+01	18.3957	53.082279	0.000274	2.736081	0.927009	0.000110
 464	4.6069e+01	18.4487	53.195319	0.000284	2.837417	0.961343	0.000114
 465	4.6168e+01	18.4743	53.360842	0.000415	4.154789	1.407681	0.000166
 466	4.6267e+01	18.5225	53.518290	0.000395	3.952117	1.339013	0.000158
 467	4.6367e+01	18.5578	53.615181	0.000243	2.432072	0.824008	0.000097
 468	4.6467e+01	18.5963	53.720147	0.000263	2.634744	0.892676	0.000105
 469	4.6566e+01	18.6396	53.825112	0.000263	2.634744	0.892676	0.000105
 470	4.6666e+01	18.6813	53.986598	0.000405	4.053453	1.373347	0.000162
 471	4.6765e+01	18.7262	54.103675	0.000294	2.938753	0.995677	0.000118
 472	4.6864e+01	18.7631	54.236900	0.000334	3.344099	1.133011	0.000134
 473	4.6964e+01	18.7920	54.337828	0.000253	2.533408	0.858342	0.000101
 474	4.7063e+01	18.8385	54.479128	0.000355	3.546771	1.201679	0.000142
 475	4.7163e+01	18.8834	54.604279	0.000314	3.141426	1.064344	0.000126
 476	4.7263e+01	18.9235	54.721356	0.000294	2.938753	0.995677	0.000118
 477	4.7362e+01	18.9572	54.870730	0.000375	3.749444	1.270346	0.000150
 478	4.7462e+01	19.0021	54.931287	0.000152	1.520045	0.515005	0.000061
 479	4.7561e+01	19.0374	55.104884	0.000436	4.357462	1.476348	0.000174
 480	4.7660e+01	19.0727	55.193701	0.000223	2.229399	0.755341	0.000089
 481	4.7760e+01	19.1112	55.347112	0.000385	3.850780	1.304680	0.000154
 482	4.7859e+01	19.1706	55.484375	0.000345	3.445435	1.167345	0.000138
 483	4.7959e+01	19.2027	55.589341	0.000263	2.634744	0.892676	0.000105
 484	4.8059e+01	19.2428	55.714492	0.000314	3.141426	1.064344	0.000126
 485	4.8158e+01	19.2781	55.880014	0.000415	4.154789	1.407681	0.000166
 486	4.8258e+01	19.3198	56.029388	0.000375	3.749444	1.270346	0.000150
 487	4.8357e+01	19.3567	56.162614	0.000334	3.344099	1.133011	0.000134
 488	4.8456e+01	19.4032	56.307951	0.000365	3.648108	1.236012	0.000146
 489	4.8556e+01	19.4401	56.433102	0.000314	3.141426	1.064344	0.000126
 490	4.8656e+01	19.4802	56.542105	0.000274	2.736081	0.927009	0.000110
 491	4.8755e+01	19.5123	56.679367	0.000345	3.445435	1.167345	0.000138
 492	4.8855e+01	19.5588	56.832778	0.000385	3.850780	1.304680	0.000154
 493	4.8954e+01	19.5973	56.937744	0.000263	2.634744	0.892676	0.000105
 494	4.9053e+01	19.6374	57.087118	0.000375	3.749444	1.270346	0.000150
 495	4.9153e+01	19.6711	57.224381	0.000345	3.445435	1.167345	0.000138
 496	4.9252e+01	19.7160	57.393940	0.000426	4.256126	1.442014	0.000170
 497	4.9352e+01	19.7529	57.539277	0.000365	3.648108	1.236012	0.000146
 498	4.9452e+01	19.7898	57.632131	0.000233	2.330735	0.789675	0.000093
 499	4.9551e+01	19.8315	57.761320	0.000324	3.242762	1.098678	0.000130
 500	4.9651e+01	19.8748	57.918768	0.000395	3.952117	1.339013	0.000158
 501	4.9750e+01	19.9198	58.080253	0.000405	4.053453	1.373347	0.000162
 502	4.9849e+01	19.9502	58.221553	0.000355	3.546771	1.201679	0.000142
 503	4.9949e+01	19.9919	58.366890	0.000365	3.648108	1.236012	0.000146
 504	5.0048e+01	19.9534	58.362853	0.000010	0.101336	0.034334	-0.000004
 505	5.0148e+01	19.9166	58.318444	0.000111	1.114700	0.377670	-0.000045
 506	5.0248e+01	19.8716	58.278073	0.000101	1.013363	0.343337	-0.000041
 507	5.0347e+01	19.8379	58.261924	0.000041	0.405345	0.137335	-0.000016
 508	5.0447e+01	19.7978	58.265962	-0.000010	-0.101336	-0.034334	0.000004
 509	5.0546e+01	19.7577	58.217516	0.000122	1.216036	0.412004	-0.000049
 510	5.0645e+01	19.7176	58.156959	0.000152	1.520045	0.515005	-0.000061
 511	5.0745e+01	19.6807	58.144847	0.000030	0.304009	0.103001	-0.000012
 512	5.0844e+01	19.6422	58.100439	0.000111	1.114700	0.377670	-0.000045
 513	5.0944e+01	19.5941	58.088328	0.000030	0.304009	0.103001	-0.000012
 514	5.1044e+01	19.5636	58.060068	0.000071	0.709354	0.240336	-0.000028
 515	5.1143e+01	19.5235	58.003548	0.000142	1.418709	0.480671	-0.000057
 516	5.1242e+01	19.4882	57.999511	0.000010	0.101336	0.034334	-0.000004
 517	5.1342e+01	19.4465	57.951065	0.000122	1.216036	0.412004	-0.000049
 518	5.1441e+01	19.3839	57.918768	0.000081	0.810691	0.274669	-0.000032
 519	5.1541e+01	19.3551	57.858211	0.000152	1.520045	0.515005	-0.000061
 520	5.1641e+01	19.3198	57.842062	0.000041	0.405345	0.137335	-0.000016
 521	5.1740e+01	19.2861	57.785542	0.000142	1.418709	0.480671	-0.000057
 522	5.1840e+01	19.2331	57.716911	0.000172	1.722717	0.583672	-0.000069
 523	5.1939e+01	19.1962	57.700763	0.000041	0.405345	0.137335	-0.000016
 524	5.2038e+01	19.1594	57.632131	0.000172	1.722717	0.583672	-0.000069
 525	5.2138e+01	19.1289	57.628094	0.000010	0.101336	0.034334	-0.000004
 526	5.2237e+01	19.0840	57.563500	0.000162	1.621381	0.549339	-0.000065
 527	5.2337e+01	19.0438	57.466609	0.000243	2.432072	0.824008	-0.000097
 528	5.2437e+01	18.9957	57.434312	0.000081	0.810691	0.274669	-0.000032
 529	5.2536e+01	18.9620	57.369717	0.000162	1.621381	0.549339	-0.000065
 530	5.2636e+01	18.9235	57.369717	-0.000000	-0.000000	-0.000000	0.000000
 531	5.2735e+01	18.8770	57.313198	0.000142	1.418709	0.480671	-0.000057
 532	5.2834e+01	18.8433	57.268789	0.000111	1.114700	0.377670	-0.000045
 533	5.2934e+01	18.7968	57.200158	0.000172	1.722717	0.583672	-0.000069
 534	5.3033e+01	18.7615	57.175935	0.000061	0.608018	0.206002	-0.000024
 535	5.3133e+01	18.7198	57.079044	0.000243	2.432072	0.824008	-0.000097
 536	5.3233e+01	18.6845	57.038672	0.000101	1.013363	0.343337	-0.000041
 537	5.3332e+01	18.6444	57.006375	0.000081	0.810691	0.274669	-0.000032
 538	5.3431e+01	18.6027	56.941781	0.000162	1.621381	0.549339	-0.000065
 539	5.3531e+01	18.5738	56.840853	0.000253	2.533408	0.858342	-0.000101
 540	5.3630e+01	18.5177	56.804518	0.000091	0.912027	0.309003	-0.000037
 541	5.3730e+01	18.4792	56.792407	0.000030	0.304009	0.103001	-0.000012
 542	5.3830e+01	18.4407	56.683404	0.000274	2.736081	0.927009	-0.000110
 543	5.3929e+01	18.4102	56.638996	0.000111	1.114700	0.377670	-0.000045
 544	5.4029e+01	18.3669	56.610736	0.000071	0.709354	0.240336	-0.000028
 545	5.4128e+01	18.3235	56.521919	0.000223	2.229399	0.755341	-0.000089
 546	5.4227e+01	18.2818	56.473473	0.000122	1.216036	0.412004	-0.000049
 547	5.4327e+01	18.2369	56.368508	0.000263	2.634744	0.892676	-0.000105
 548	5.4426e+01	18.1984	56.307951	0.000152	1.520045	0.515005	-0.000061
 549	5.4526e+01	18.1679	56.267579	0.000101	1.013363	0.343337	-0.000041
 550	5.4626e+01	18.1214	56.231245	0.000091	0.912027	0.309003	-0.000037
 551	5.4725e+01	18.0781	56.178762	0.000132	1.317372	0.446338	-0.000053
 552	5.4825e+01	18.0396	56.073797	0.000263	2.634744	0.892676	-0.000105
 553	5.4924e+01	18.0091	56.025351	0.000122	1.216036	0.412004	-0.000049
 554	5.5023e+01	17.9674	55.956720	0.000172	1.722717	0.583672	-0.000069
 555	5.5123e+01	17.9161	55.892126	0.000162	1.621381	0.549339	-0.000065
 556	5.5222e+01	17.8792	55.815420	0.000193	1.925390	0.652340	-0.000077
 557	5.5322e+01	17.8487	55.823494	-0.000020	-0.202673	-0.068667	0.000008
 558	5.5422e+01	17.8086	55.666046	0.000395	3.952117	1.339013	-0.000158
 559	5.5521e+01	17.7637	55.593378	0.000182	1.824054	0.618006	-0.000073
 560	5.5620e+01	17.7332	55.508598	0.000213	2.128063	0.721007	-0.000085
 561	5.5720e+01	17.6915	55.472264	0.000091	0.912027	0.309003	-0.000037
 562	5.5819e+01	17.6514	55.387484	0.000213	2.128063	0.721007	-0.000085
 563	5.5919e+01	17.6032	55.355187	0.000081	0.810691	0.274669	-0.000032
 564	5.6019e+01	17.5680	55.250221	0.000263	2.634744	0.892676	-0.000105
 565	5.6118e+01	17.5230	55.197738	0.000132	1.317372	0.446338	-0.000053
 566	5.6218e+01	17.4861	55.129107	0.000172	1.722717	0.583672	-0.000069
 567	5.6317e+01	17.4428	55.052401	0.000193	1.925390	0.652340	-0.000077
 568	5.6416e+01	17.3995	54.935325	0.000294	2.938753	0.995677	-0.000118
 569	5.6516e+01	17.3658	54.890916	0.000111	1.114700	0.377670	-0.000045
 570	5.6615e+01	17.3305	54.789988	0.000253	2.533408	0.858342	-0.000101
 571	5.6715e+01	17.2744	54.749616	0.000101	1.013363	0.343337	-0.000041
 572	5.6815e+01	17.2439	54.689059	0.000152	1.520045	0.515005	-0.000061
 573	5.6914e+01	17.2038	54.588131	0.000253	2.533408	0.858342	-0.000101
 574	5.7014e+01	17.1557	54.523537	0.000162	1.621381	0.549339	-0.000065
 575	5.7113e+01	17.1188	54.446831	0.000193	1.925390	0.652340	-0.000077
 576	5.7212e+01	17.0899	54.386274	0.000152	1.520045	0.515005	-0.000061
 577	5.7312e+01	17.0530	54.285346	0.000253	2.533408	0.858342	-0.000101
 578	5.7411e+01	17.0033	54.236900	0.000122	1.216036	0.412004	-0.000049
 579	5.7511e+01	16.9616	54.127897	0.000274	2.736081	0.927009	-0.000110
 580	5.7611e+01	16.9311	54.047155	0.000203	2.026726	0.686674	-0.000081
 581	5.7710e+01	16.8878	53.946226	0.000253	2.533408	0.858342	-0.000101
 582	5.7809e+01	16.8493	53.913929	0.000081	0.810691	0.274669	-0.000032
 583	5.7909e+01	16.8059	53.841261	0.000182	1.824054	0.618006	-0.000073
 584	5.8008e+01	16.7723	53.744370	0.000243	2.432072	0.824008	-0.000097
 585	5.8108e+01	16.7225	53.655553	0.000223	2.229399	0.755341	-0.000089
 586	5.8208e+01	16.6920	53.574810	0.000203	2.026726	0.686674	-0.000081
 587	5.8307e+01	16.6487	53.502141	0.000182	1.824054	0.618006	-0.000073
 588	5.8407e+01	16.6022	53.413324	0.000223	2.229399	0.755341	-0.000089
 589	5.8506e+01	16.5701	53.320470	0.000233	2.330735	0.789675	-0.000093
 590	5.8605e+01	16.5252	53.247802	0.000182	1.824054	0.618006	-0.000073
 591	5.8705e+01	16.4915	53.134762	0.000284	2.837417	0.961343	-0.000114
 592	5.8804e+01	16.4466	53.110539	0.000061	0.608018	0.206002	-0.000024
 593	5.8904e+01	16.4081	52.981351	0.000324	3.242762	1.098678	-0.000130
 594	5.9004e+01	16.3744	52.916757	0.000162	1.621381	0.549339	-0.000065
 595	5.9103e+01	16.3215	52.823903	0.000233	2.330735	0.789675	-0.000093
 596	5.9203e+01	16.2862	52.743160	0.000203	2.026726	0.686674	-0.000081
 597	5.9302e+01	16.2477	52.658380	0.000213	2.128063	0.721007	-0.000085
 598	5.9401e+01	16.2108	52.561489	0.000243	2.432072	0.824008	-0.000097
 599	5.9501e+01	16.1675	52.496895	0.000162	1.621381	0.549339	-0.000065
 600	5.9600e+01	16.1274	52.359632	0.000345	3.445435	1.167345	-0.000138
 601	5.9700e+01	16.0905	52.315223	0.000111	1.114700	0.377670	-0.000045
 602	5.9800e+01	16.0520	52.190072	0.000314	3.141426	1.064344	-0.000126
 603	5.9899e+01	16.0086	52.113367	0.000193	1.925390	0.652340	-0.000077
 604	5.9998e+01	15.9733	52.024550	0.000223	2.229399	0.755341	-0.000089
 605	6.0098e+01	15.9300	51.955918	0.000172	1.722717	0.583672	-0.000069
 606	6.0197e+01	15.8915	51.830767	0.000314	3.141426	1.064344	-0.000126
 607	6.0297e+01	15.8514	51.786359	0.000111	1.114700	0.377670	-0.000045
 608	6.0397e+01	15.8001	51.665245	0.000304	3.040090	1.030010	-0.000122
 609	6.0496e+01	15.7792	51.584502	0.000203	2.026726	0.686674	-0.000081
 610	6.0596e+01	15.7375	51.475499	0.000274	2.736081	0.927009	-0.000110
 611	6.0695e+01	15.6958	51.390719	0.000213	2.128063	0.721007	-0.000085
 612	6.0794e+01	15.6637	51.309977	0.000203	2.026726	0.686674	-0.000081
 613	6.0894e+01	15.6124	51.221160	0.000223	2.229399	0.755341	-0.000089
 614	6.0993e+01	15.5723	51.112157	0.000274	2.736081	0.927009	-0.000110
 615	6.1093e+01	15.5338	51.063711	0.000122	1.216036	0.412004	-0.000049
 616	6.1193e+01	15.4873	50.938560	0.000314	3.141426	1.064344	-0.000126
 617	6.1292e+01	15.4520	50.886077	0.000132	1.317372	0.446338	-0.000053
 618	6.1392e+01	15.4199	50.769000	0.000294	2.938753	0.995677	-0.000118
 619	6.1491e+01	15.3686	50.627701	0.000355	3.546771	1.201679	-0.000142
 620	6.1590e+01	15.3397	50.567144	0.000152	1.520045	0.515005	-0.000061
 621	6.1690e+01	15.2867	50.510624	0.000142	1.418709	0.480671	-0.000057
 622	6.1789e+01	15.2498	50.389510	0.000304	3.040090	1.030010	-0.000122
 623	6.1889e+01	15.2161	50.337027	0.000132	1.317372	0.446338	-0.000053
 624	6.1989e+01	15.1744	50.191690	0.000365	3.648108	1.236012	-0.000146
 625	6.2088e+01	15.1327	50.114984	0.000193	1.925390	0.652340	-0.000077
 626	6.2188e+01	15.0910	50.030205	0.000213	2.128063	0.721007	-0.000085
 627	6.2287e+01	15.0461	49.917165	0.000284	2.837417	0.961343	-0.000114
 628	6.2386e+01	15.0124	49.820274	0.000243	2.432072	0.824008	-0.000097
 629	6.2486e+01	14.9771	49.743568	0.000193	1.925390	0.652340	-0.000077
 630	6.2586e+01	14.9386	49.646677	0.000243	2.432072	0.824008	-0.000097
 631	6.2685e+01	14.9017	49.529600	0.000294	2.938753	0.995677	-0.000118
 632	6.2785e+01	14.8632	49.440783	0.000223	2.229399	0.755341	-0.000089
 633	6.2884e+01	14.8119	49.364077	0.000193	1.925390	0.652340	-0.000077
 634	6.2983e+01	14.7734	49.287372	0.000193	1.925390	0.652340	-0.000077
 635	6.3083e+01	14.7349	49.182406	0.000263	2.634744	0.892676	-0.000105
 636	6.3182e+01	14.6932	49.101663	0.000203	2.026726	0.686674	-0.000081
 637	6.3282e+01	14.6531	49.000735	0.000253	2.533408	0.858342	-0.000101
 638	6.3382e+01	14.6097	48.895769	0.000263	2.634744	0.892676	-0.000105
 639	6.3481e+01	14.5825	48.786767	0.000274	2.736081	0.927009	-0.000110
 640	6.3581e+01	14.5408	48.689876	0.000243	2.432072	0.824008	-0.000097
 641	6.3680e+01	14.4910	48.617207	0.000182	1.824054	0.618006	-0.000073
 642	6.3779e+01	14.4606	48.516279	0.000253	2.533408	0.858342	-0.000101
 643	6.3879e+01	14.4156	48.411313	0.000263	2.634744	0.892676	-0.000105
 644	6.3978e+01	14.3771	48.314422	0.000243	2.432072	0.824008	-0.000097
 645	6.4078e+01	14.3434	48.245791	0.000172	1.722717	0.583672	-0.000069
 646	6.4177e+01	14.2969	48.144862	0.000253	2.533408	0.858342	-0.000101
 647	6.4277e+01	14.2584	48.007600	0.000345	3.445435	1.167345	-0.000138
 648	6.4376e+01	14.2167	47.943005	0.000162	1.621381	0.549339	-0.000065
 649	6.4476e+01	14.1750	47.866300	0.000193	1.925390	0.652340	-0.000077
 650	6.4576e+01	14.1349	47.733074	0.000334	3.344099	1.133011	-0.000134
 651	6.4675e+01	14.0948	47.668480	0.000162	1.621381	0.549339	-0.000065
 652	6.4775e+01	14.0627	47.563515	0.000263	2.634744	0.892676	-0.000105
 653	6.4874e+01	14.0226	47.430289	0.000334	3.344099	1.133011	-0.000134
 654	6.4974e+01	13.9841	47.349547	0.000203	2.026726	0.686674	-0.000081
 655	6.5073e+01	13.9376	47.264767	0.000213	2.128063	0.721007	-0.000085
 656	6.5172e+01	13.9039	47.171913	0.000233	2.330735	0.789675	-0.000093
 657	6.5272e+01	13.8702	47.087133	0.000213	2.128063	0.721007	-0.000085
 658	6.5371e+01	13.8221	46.970056	0.000294	2.938753	0.995677	-0.000118
 659	6.5471e+01	13.7836	46.844905	0.000314	3.141426	1.064344	-0.000126
 660	6.5570e+01	13.7483	46.768199	0.000193	1.925390	0.652340	-0.000077
 661	6.5670e+01	13.6985	46.707642	0.000152	1.520045	0.515005	-0.000061
 662	6.5769e+01	13.6600	46.574416	0.000334	3.344099	1.133011	-0.000134
 663	6.5869e+01	13.6167	46.469451	0.000263	2.634744	0.892676	-0.000105
 664	6.5969e+01	13.5862	46.384671	0.000213	2.128063	0.721007	-0.000085
 665	6.6068e+01	13.5461	46.275668	0.000274	2.736081	0.927009	-0.000110
 666	6.6168e+01	13.4916	46.162629	0.000284	2.837417	0.961343	-0.000114
 667	6.6267e+01	13.4707	46.085923	0.000193	1.925390	0.652340	-0.000077
 668	6.6367e+01	13.4114	46.009217	0.000193	1.925390	0.652340	-0.000077
 669	6.6466e+01	13.3809	45.896178	0.000284	2.837417	0.961343	-0.000114
 670	6.6566e+01	13.3344	45.815435	0.000203	2.026726	0.686674	-0.000081
 671	6.6665e+01	13.3007	45.698358	0.000294	2.938753	0.995677	-0.000118
 672	6.6764e+01	13.2622	45.585318	0.000284	2.837417	0.961343	-0.000114
 673	6.6864e+01	13.2173	45.452093	0.000334	3.344099	1.133011	-0.000134
 674	6.6963e+01	13.1836	45.387499	0.000162	1.621381	0.549339	-0.000065
 675	6.7063e+01	13.1451	45.314830	0.000182	1.824054	0.618006	-0.000073
 676	6.7162e+01	13.1002	45.189679	0.000314	3.141426	1.064344	-0.000126
 677	6.7262e+01	13.0552	45.080676	0.000274	2.736081	0.927009	-0.000110
 678	6.7362e+01	13.0264	45.024156	0.000142	1.418709	0.480671	-0.000057
 679	6.7461e+01	12.9798	44.903042	0.000304	3.040090	1.030010	-0.000122
 680	6.7561e+01	12.9478	44.810188	0.000233	2.330735	0.789675	-0.000093
 681	6.7660e+01	12.9109	44.689074	0.000304	3.040090	1.030010	-0.000122
 682	6.7760e+01	12.8627	44.604294	0.000213	2.128063	0.721007	-0.000085
 683	6.7859e+01	12.8339	44.519514	0.000213	2.128063	0.721007	-0.000085
 684	6.7959e+01	12.7873	44.402437	0.000294	2.938753	0.995677	-0.000118
 685	6.8058e+01	12.7424	44.289398	0.000284	2.837417	0.961343	-0.000114
 686	6.8157e+01	12.7071	44.208655	0.000203	2.026726	0.686674	-0.000081
 687	6.8257e+01	12.6686	44.107727	0.000253	2.533408	0.858342	-0.000101
 688	6.8356e+01	12.6157	43.974501	0.000334	3.344099	1.133011	-0.000134
 689	6.8456e+01	12.5820	43.877610	0.000243	2.432072	0.824008	-0.000097
 690	6.8555e+01	12.5563	43.756496	0.000304	3.040090	1.030010	-0.000122
 691	6.8655e+01	12.5082	43.671716	0.000213	2.128063	0.721007	-0.000085
 692	6.8754e+01	12.4617	43.582899	0.000223	2.229399	0.755341	-0.000089
 693	6.8854e+01	12.4264	43.461785	0.000304	3.040090	1.030010	-0.000122
 694	6.8954e+01	12.3847	43.425451	0.000091	0.912027	0.309003	-0.000037
 695	6.9053e+01	12.3542	43.247817	0.000446	4.458798	1.510682	-0.000179
 696	6.9153e+01	12.3061	43.167074	0.000203	2.026726	0.686674	-0.000081
 697	6.9252e+01	12.2692	43.054034	0.000284	2.837417	0.961343	-0.000114
 698	6.9352e+01	12.2178	42.981366	0.000182	1.824054	0.618006	-0.000073
 699	6.9451e+01	12.1906	42.868326	0.000284	2.837417	0.961343	-0.000114
 700	6.9550e+01	12.1440	42.735100	0.000334	3.344099	1.133011	-0.000134
 701	6.9650e+01	12.1087	42.642246	0.000233	2.330735	0.789675	-0.000093
 702	6.9749e+01	12.0654	42.541318	0.000253	2.533408	0.858342	-0.000101
 703	6.9849e+01	12.0269	42.456538	0.000213	2.128063	0.721007	-0.000085
 704	6.9948e+01	11.9900	42.319275	0.000345	3.445435	1.167345	-0.000138
 705	7.0048e+01	11.9531	42.254681	0.000162	1.621381	0.549339	-0.000065
 706	7.0147e+01	11.9002	42.145679	0.000274	2.736081	0.927009	-0.000110
 707	7.0247e+01	11.8665	42.020527	0.000314	3.141426	1.064344	-0.000126
 708	7.0347e+01	11.8344	41.895376	0.000314	3.141426	1.064344	-0.000126
 709	7.0446e+01	11.7879	41.782336	0.000284	2.837417	0.961343	-0.000114
 710	7.0546e+01	11.7478	41.689482	0.000233	2.330735	0.789675	-0.000093
 711	7.0645e+01	11.7077	41.624888	0.000162	1.621381	0.549339	-0.000065
 712	7.0745e+01	11.6531	41.471477	0.000385	3.850780	1.304680	-0.000154
 713	7.0844e+01	11.6355	41.362474	0.000274	2.736081	0.927009	-0.000110
 714	7.0944e+01	11.5938	41.233286	0.000324	3.242762	1.098678	-0.000130
 715	7.1043e+01	11.5441	41.209063	0.000061	0.608018	0.206002	-0.000024
 716	7.1142e+01	11.5072	41.100060	0.000274	2.736081	0.927009	-0.000110
 717	7.1242e+01	11.4671	40.970872	0.000324	3.242762	1.098678	-0.000130
 718	7.1341e+01	11.4350	40.801312	0.000426	4.256126	1.442014	-0.000170
 719	7.1441e+01	11.3884	40.712495	0.000223	2.229399	0.755341	-0.000089
 720	7.1540e+01	11.3516	40.639827	0.000182	1.824054	0.618006	-0.000073
 721	7.1640e+01	11.3163	40.474304	0.000415	4.154789	1.407681	-0.000166
 722	7.1740e+01	11.2713	40.389524	0.000213	2.128063	0.721007	-0.000085
 723	7.1839e+01	11.2232	40.276485	0.000284	2.837417	0.961343	-0.000114
 724	7.1939e+01	11.1943	40.183631	0.000233	2.330735	0.789675	-0.000093
 725	7.2038e+01	11.1478	40.042331	0.000355	3.546771	1.201679	-0.000142
 726	7.2138e+01	11.1125	39.921217	0.000304	3.040090	1.030010	-0.000122
 727	7.2237e+01	11.0708	39.848548	0.000182	1.824054	0.618006	-0.000073
 728	7.2337e+01	11.0371	39.715323	0.000334	3.344099	1.133011	-0.000134
 729	7.2436e+01	10.9970	39.618432	0.000243	2.432072	0.824008	-0.000097
 730	7.2535e+01	10.9489	39.513466	0.000263	2.634744	0.892676	-0.000105
 731	7.2635e+01	10.9184	39.347943	0.000415	4.154789	1.407681	-0.000166
 732	7.2734e+01	10.8751	39.275275	0.000182	1.824054	0.618006	-0.000073
 733	7.2834e+01	10.8302	39.138012	0.000345	3.445435	1.167345	-0.000138
 734	7.2933e+01	10.7853	39.053233	0.000213	2.128063	0.721007	-0.000085
 735	7.3033e+01	10.7596	38.940193	0.000284	2.837417	0.961343	-0.000114
 736	7.3132e+01	10.7099	38.802930	0.000345	3.445435	1.167345	-0.000138
 737	7.3232e+01	10.6826	38.677779	0.000314	3.141426	1.064344	-0.000126
 738	7.3332e+01	10.6409	38.605110	0.000182	1.824054	0.618006	-0.000073
 739	7.3431e+01	10.5895	38.455736	0.000375	3.749444	1.270346	-0.000150
 740	7.3531e+01	10.5478	38.350771	0.000263	2.634744	0.892676	-0.000105
 741	7.3630e+01	10.5254	38.261954	0.000223	2.229399	0.755341	-0.000089
 742	7.3730e+01	10.4740	38.112580	0.000375	3.749444	1.270346	-0.000150
 743	7.3829e+01	10.4387	38.019726	0.000233	2.330735	0.789675	-0.000093
 744	7.3928e+01	10.3906	37.894575	0.000314	3.141426	1.064344	-0.000126
 745	7.4028e+01	10.3537	37.789609	0.000263	2.634744	0.892676	-0.000105
 746	7.4127e+01	10.3136	37.652346	0.000345	3.445435	1.167345	-0.000138
 747	7.4227e+01	10.2703	37.531232	0.000304	3.040090	1.030010	-0.000122
 748	7.4326e+01	10.2350	37.450490	0.000203	2.026726	0.686674	-0.000081
 749	7.4426e+01	10.1917	37.341487	0.000274	2.736081	0.927009	-0.000110
 750	7.4525e+01	10.1548	37.192113	0.000375	3.749444	1.270346	-0.000150
 751	7.4625e+01	10.1163	37.083110	0.000274	2.736081	0.927009	-0.000110
 752	7.4725e+01	10.0746	36.970071	0.000284	2.837417	0.961343	-0.000114
 753	7.4824e+01	10.0361	36.877216	0.000233	2.330735	0.789675	-0.000093
 754	7.4924e+01	9.9912	36.727842	0.000375	3.749444	1.270346	-0.000150
 755	7.5023e+01	9.9543	36.630951	0.000243	2.432072	0.824008	-0.000097
 756	7.5123e+01	9.9254	36.469466	0.000405	4.053453	1.373347	-0.000162
 757	7.5222e+01	9.8708	36.364500	0.000263	2.634744	0.892676	-0.000105
 758	7.5322e+01	9.8323	36.263572	0.000253	2.533408	0.858342	-0.000101
 759	7.5421e+01	9.7922	36.126309	0.000345	3.445435	1.167345	-0.000138
 760	7.5520e+01	9.7457	35.993084	0.000334	3.344099	1.133011	-0.000134
 761	7.5620e+01	9.7200	35.908304	0.000213	2.128063	0.721007	-0.000085
 762	7.5719e+01	9.6671	35.775078	0.000334	3.344099	1.133011	-0.000134
 763	7.5819e+01	9.6382	35.670113	0.000263	2.634744	0.892676	-0.000105
 764	7.5918e+01	9.5997	35.528813	0.000355	3.546771	1.201679	-0.000142
 765	7.6018e+01	9.5676	35.415773	0.000284	2.837417	0.961343	-0.000114
 766	7.6118e+01	9.5147	35.306771	0.000274	2.736081	0.927009	-0.000110
 767	7.6217e+01	9.4858	35.165471	0.000355	3.546771	1.201679	-0.000142
 768	7.6317e+01	9.4521	35.032245	0.000334	3.344099	1.133011	-0.000134
 769	7.6416e+01	9.4008	34.951503	0.000203	2.026726	0.686674	-0.000081
 770	7.6516e+01	9.3527	34.842500	0.000274	2.736081	0.927009	-0.000110
 771	7.6615e+01	9.3174	34.681015	0.000405	4.053453	1.373347	-0.000162
 772	7.6715e+01	9.2757	34.555863	0.000314	3.141426	1.064344	-0.000126
 773	7.6814e+01	9.2324	34.450898	0.000263	2.634744	0.892676	-0.000105
 774	7.6913e+01	9.2099	34.325747	0.000314	3.141426	1.064344	-0.000126
 775	7.7013e+01	9.1586	34.261152	0.000162	1.621381	0.549339	-0.000065
 776	7.7112e+01	9.1169	34.063333	0.000497	4.965480	1.682350	-0.000199
 777	7.7212e+01	9.0784	33.954330	0.000274	2.736081	0.927009	-0.000110
 778	7.7311e+01	9.0399	33.873587	0.000203	2.026726	0.686674	-0.000081
 779	7.7411e+01	8.9949	33.740362	0.000334	3.344099	1.133011	-0.000134
 780	7.7510e+01	8.9677	33.643471	0.000243	2.432072	0.824008	-0.000097
 781	7.7610e+01	8.9211	33.477948	0.000415	4.154789	1.407681	-0.000166
 782	7.7710e+01	8.8778	33.352797	0.000314	3.141426	1.064344	-0.000126
 783	7.7809e+01	8.8377	33.243794	0.000274	2.736081	0.927009	-0.000110
 784	7.7909e+01	8.7992	33.114606	0.000324	3.242762	1.098678	-0.000130
 785	7.8008e+01	8.7607	32.997529	0.000294	2.938753	0.995677	-0.000118
 786	7.8108e+01	8.7206	32.872378	0.000314	3.141426	1.064344	-0.000126
 787	7.8207e+01	8.6805	32.714929	0.000395	3.952117	1.339013	-0.000158
 788	7.8306e+01	8.6436	32.630150	0.000213	2.128063	0.721007	-0.000085
 789	7.8406e+01	8.5987	32.480776	0.000375	3.749444	1.270346	-0.000150
 790	7.8505e+01	8.5634	32.359662	0.000304	3.040090	1.030010	-0.000122
 791	7.8605e+01	8.5217	32.254696	0.000263	2.634744	0.892676	-0.000105
 792	7.8704e+01	8.4784	32.129545	0.000314	3.141426	1.064344	-0.000126
 793	7.8804e+01	8.4447	32.012468	0.000294	2.938753	0.995677	-0.000118
 794	7.8903e+01	8.4030	31.850982	0.000405	4.053453	1.373347	-0.000162
 795	7.9003e+01	8.3613	31.750054	0.000253	2.533408	0.858342	-0.000101
 796	7.9103e+01	8.3196	31.624903	0.000314	3.141426	1.064344	-0.000126
 797	7.9202e+01	8.2730	31.503789	0.000304	3.040090	1.030010	-0.000122
 798	7.9302e+01	8.2377	31.382675	0.000304	3.040090	1.030010	-0.000122
 799	7.9401e+01	8.1976	31.249449	0.000334	3.344099	1.133011	-0.000134
 800	7.9501e+01	8.1655	31.176781	0.000182	1.824054	0.618006	-0.000073
 801	7.9600e+01	8.1303	31.007221	0.000426	4.256126	1.442014	-0.000170
 802	7.9700e+01	8.0773	30.894181	0.000284	2.837417	0.961343	-0.000114
 803	7.9799e+01	8.0420	30.773067	0.000304	3.040090	1.030010	-0.000122
 804	7.9898e+01	8.0003	30.655990	0.000294	2.938753	0.995677	-0.000118
 805	7.9998e+01	7.9682	30.526802	0.000324	3.242762	1.098678	-0.000130
 806	8.0097e+01	7.9297	30.357242	0.000426	4.256126	1.442014	-0.000170
 807	8.0197e+01	7.8912	30.304759	0.000132	1.317372	0.446338	-0.000053
 808	8.0296e+01	7.8495	30.171534	0.000334	3.344099	1.133011	-0.000134
 809	8.0396e+01	7.8078	30.042346	0.000324	3.242762	1.098678	-0.000130
 810	8.0496e+01	7.7581	29.929306	0.000284	2.837417	0.961343	-0.000114
 811	8.0595e+01	7.7276	29.779932	0.000375	3.749444	1.270346	-0.000150
 812	8.0695e+01	7.6971	29.670929	0.000274	2.736081	0.927009	-0.000110
 813	8.0794e+01	7.6442	29.570001	0.000253	2.533408	0.858342	-0.000101
 814	8.0894e+01	7.6009	29.404478	0.000415	4.154789	1.407681	-0.000166
 815	8.0993e+01	7.5736	29.307587	0.000243	2.432072	0.824008	-0.000097
 816	8.1093e+01	7.5271	29.174361	0.000334	3.344099	1.133011	-0.000134
 817	8.1192e+01	7.4870	29.065359	0.000274	2.736081	0.927009	-0.000110
 818	8.1291e+01	7.4452	28.895799	0.000426	4.256126	1.442014	-0.000170
 819	8.1391e+01	7.4067	28.782759	0.000284	2.837417	0.961343	-0.000114
 820	8.1490e+01	7.3714	28.669719	0.000284	2.837417	0.961343	-0.000114
 821	8.1590e+01	7.3346	28.560717	0.000274	2.736081	0.927009	-0.000110
 822	8.1689e+01	7.2896	28.403268	0.000395	3.952117	1.339013	-0.000158
 823	8.1789e+01	7.2447	28.310414	0.000233	2.330735	0.789675	-0.000093
 824	8.1888e+01	7.2062	28.181226	0.000324	3.242762	1.098678	-0.000130
 825	8.1988e+01	7.1645	28.060112	0.000304	3.040090	1.030010	-0.000122
 826	8.2088e+01	7.1228	27.894589	0.000415	4.154789	1.407681	-0.000166
 827	8.2187e+01	7.0907	27.809810	0.000213	2.128063	0.721007	-0.000085
 828	8.2287e+01	7.0410	27.668510	0.000355	3.546771	1.201679	-0.000142
 829	8.2386e+01	7.0025	27.543359	0.000314	3.141426	1.064344	-0.000126
 830	8.2486e+01	6.9736	27.426282	0.000294	2.938753	0.995677	-0.000118
 831	8.2585e+01	6.9303	27.268833	0.000395	3.952117	1.339013	-0.000158
 832	8.2684e+01	6.8822	27.167905	0.000253	2.533408	0.858342	-0.000101
 833	8.2784e+01	6.8404	27.062939	0.000263	2.634744	0.892676	-0.000105
 834	8.2883e+01	6.8052	26.889343	0.000436	4.357462	1.476348	-0.000174
 835	8.2983e+01	6.7683	26.784377	0.000263	2.634744	0.892676	-0.000105
 836	8.3082e+01	6.7362	26.655189	0.000324	3.242762	1.098678	-0.000130
 837	8.3182e+01	6.6880	26.501778	0.000385	3.850780	1.304680	-0.000154
 838	8.3281e+01	6.6479	26.408923	0.000233	2.330735	0.789675	-0.000093
 839	8.3381e+01	6.6030	26.275698	0.000334	3.344099	1.133011	-0.000134
 840	8.3481e+01	6.5790	26.166695	0.000274	2.736081	0.927009	-0.000110
 841	8.3580e+01	6.5196	26.029433	0.000345	3.445435	1.167345	-0.000138
 842	8.3680e+01	6.4923	25.896207	0.000334	3.344099	1.133011	-0.000134
 843	8.3779e+01	6.4522	25.779130	0.000294	2.938753	0.995677	-0.000118
 844	8.3879e+01	6.4057	25.666090	0.000284	2.837417	0.961343	-0.000114
 845	8.3978e+01	6.3704	25.524791	0.000355	3.546771	1.201679	-0.000142
 846	8.4078e+01	6.3303	25.415788	0.000274	2.736081	0.927009	-0.000110
 847	8.4177e+01	6.2902	25.282563	0.000334	3.344099	1.133011	-0.000134
 848	8.4276e+01	6.2533	25.145300	0.000345	3.445435	1.167345	-0.000138
 849	8.4376e+01	6.2196	25.020149	0.000314	3.141426	1.064344	-0.000126
 850	8.4475e+01	6.1763	24.899035	0.000304	3.040090	1.030010	-0.000122
 851	8.4575e+01	6.1298	24.757735	0.000355	3.546771	1.201679	-0.000142
 852	8.4674e+01	6.0961	24.608361	0.000375	3.749444	1.270346	-0.000150
 853	8.4774e+01	6.0480	24.479173	0.000324	3.242762	1.098678	-0.000130
 854	8.4874e+01	6.0191	24.366133	0.000284	2.837417	0.961343	-0.000114
 855	8.4973e+01	5.9742	24.220796	0.000365	3.648108	1.236012	-0.000146
 856	8.5073e+01	5.9357	24.091608	0.000324	3.242762	1.098678	-0.000130
 857	8.5172e+01	5.8956	23.962419	0.000324	3.242762	1.098678	-0.000130
 858	8.5272e+01	5.8506	23.849379	0.000284	2.837417	0.961343	-0.000114
 859	8.5371e+01	5.8105	23.712117	0.000345	3.445435	1.167345	-0.000138
 860	8.5471e+01	5.7720	23.570817	0.000355	3.546771	1.201679	-0.000142
 861	8.5570e+01	5.7287	23.457777	0.000284	2.837417	0.961343	-0.000114
 862	8.5669e+01	5.6934	23.340700	0.000294	2.938753	0.995677	-0.000118
 863	8.5769e+01	5.6549	23.207475	0.000334	3.344099	1.133011	-0.000134
 864	8.5868e+01	5.6196	23.082324	0.000314	3.141426	1.064344	-0.000126
 865	8.5968e+01	5.5763	22.928912	0.000385	3.850780	1.304680	-0.000154
 866	8.6067e+01	5.5314	22.803761	0.000314	3.141426	1.064344	-0.000126
 867	8.6167e+01	5.4913	22.682647	0.000304	3.040090	1.030010	-0.000122
 868	8.6266e+01	5.4560	22.521162	0.000405	4.053453	1.373347	-0.000162
 869	8.6366e+01	5.4111	22.416196	0.000263	2.634744	0.892676	-0.000105
 870	8.6466e+01	5.3710	22.295082	0.000304	3.040090	1.030010	-0.000122
 871	8.6565e+01	5.3341	22.137634	0.000395	3.952117	1.339013	-0.000158
 872	8.6665e+01	5.2811	22.028631	0.000274	2.736081	0.927009	-0.000110
 873	8.6764e+01	5.2555	21.871183	0.000395	3.952117	1.339013	-0.000158
 874	8.6864e+01	5.2073	21.717772	0.000385	3.850780	1.304680	-0.000154
 875	8.6963e+01	5.1753	21.632992	0.000213	2.128063	0.721007	-0.000085
 876	8.7063e+01	5.1303	21.499766	0.000334	3.344099	1.133011	-0.000134
 877	8.7162e+01	5.0902	21.342318	0.000395	3.952117	1.339013	-0.000158
 878	8.7261e+01	5.0517	21.213130	0.000324	3.242762	1.098678	-0.000130
 879	8.7361e+01	5.0068	21.079904	0.000334	3.344099	1.133011	-0.000134
 880	8.7460e+01	4.9731	20.938605	0.000355	3.546771	1.201679	-0.000142
 881	8.7560e+01	4.9378	20.797305	0.000355	3.546771	1.201679	-0.000142
 882	8.7659e+01	4.8977	20.643894	0.000385	3.850780	1.304680	-0.000154
 883	8.7759e+01	4.8544	20.563151	0.000203	2.026726	0.686674	-0.000081
 884	8.7859e+01	4.8223	20.393591	0.000426	4.256126	1.442014	-0.000170
 885	8.7958e+01	4.7758	20.252291	0.000355	3.546771	1.201679	-0.000142
 886	8.8058e+01	4.7389	20.110992	0.000355	3.546771	1.201679	-0.000142
 887	8.8157e+01	4.6988	20.001989	0.000274	2.736081	0.927009	-0.000110
 888	8.8257e+01	4.6555	19.848578	0.000385	3.850780	1.304680	-0.000154
 889	8.8356e+01	4.6154	19.747649	0.000253	2.533408	0.858342	-0.000101
 890	8.8456e+01	4.5833	19.586164	0.000405	4.053453	1.373347	-0.000162
 891	8.8555e+01	4.5352	19.420641	0.000415	4.154789	1.407681	-0.000166
 892	8.8654e+01	4.5015	19.319713	0.000253	2.533408	0.858342	-0.000101
 893	8.8754e+01	4.4614	19.158228	0.000405	4.053453	1.373347	-0.000162
 894	8.8853e+01	4.4213	18.968482	0.000476	4.762807	1.613683	-0.000191
 895	8.8953e+01	4.3763	18.867554	0.000253	2.533408	0.858342	-0.000101
 896	8.9052e+01	4.3443	18.734328	0.000334	3.344099	1.133011	-0.000134
 897	8.9152e+01	4.2993	18.593029	0.000355	3.546771	1.201679	-0.000142
 898	8.9251e+01	4.2657	18.431543	0.000405	4.053453	1.373347	-0.000162
 899	8.9351e+01	4.2207	18.318503	0.000284	2.837417	0.961343	-0.000114
 900	8.9451e+01	4.1838	18.201426	0.000294	2.938753	0.995677	-0.000118
 901	8.9550e+01	4.1453	18.068201	0.000334	3.344099	1.133011	-0.000134
 902	8.9650e+01	4.0940	17.902678	0.000415	4.154789	1.407681	-0.000166
 903	8.9749e+01	4.0555	17.769453	0.000334	3.344099	1.133011	-0.000134
 904	8.9849e+01	4.0218	17.612005	0.000395	3.952117	1.339013	-0.000158
 905	8.9948e+01	3.9881	17.430334	0.000456	4.560135	1.545015	-0.000183
 906	9.0047e+01	3.9352	17.329405	0.000253	2.533408	0.858342	-0.000101
 907	9.0147e+01	3.9015	17.188105	0.000355	3.546771	1.201679	-0.000142
 908	9.0246e+01	3.8614	17.034694	0.000385	3.850780	1.304680	-0.000154
 909	9.0346e+01	3.8261	16.889357	0.000365	3.648108	1.236012	-0.000146
 910	9.0445e+01	3.7716	16.748058	0.000355	3.546771	1.201679	-0.000142
 911	9.0545e+01	3.7411	16.582535	0.000415	4.154789	1.407681	-0.000166
 912	9.0644e+01	3.6994	16.493718	0.000223	2.229399	0.755341	-0.000089
 913	9.0744e+01	3.6641	16.344344	0.000375	3.749444	1.270346	-0.000150
 914	9.0844e+01	3.6143	16.182859	0.000405	4.053453	1.373347	-0.000162
 915	9.0943e+01	3.5823	16.053670	0.000324	3.242762	1.098678	-0.000130
 916	9.1043e+01	3.5518	15.896222	0.000395	3.952117	1.339013	-0.000158
 917	9.1142e+01	3.5117	15.807405	0.000223	2.229399	0.755341	-0.000089
 918	9.1242e+01	3.4507	15.597474	0.000527	5.269489	1.785351	-0.000211
 919	9.1341e+01	3.4154	15.476360	0.000304	3.040090	1.030010	-0.000122
 920	9.1441e+01	3.3833	15.343134	0.000334	3.344099	1.133011	-0.000134
 921	9.1540e+01	3.3432	15.197797	0.000365	3.648108	1.236012	-0.000146
 922	9.1639e+01	3.3079	15.024201	0.000436	4.357462	1.476348	-0.000174
 923	9.1739e+01	3.2598	14.866752	0.000395	3.952117	1.339013	-0.000158
 924	9.1838e+01	3.2277	14.753713	0.000284	2.837417	0.961343	-0.000114
 925	9.1938e+01	3.1812	14.600301	0.000385	3.850780	1.304680	-0.000154
 926	9.2037e+01	3.1459	14.467076	0.000334	3.344099	1.133011	-0.000134
 927	9.2137e+01	3.1074	14.301553	0.000415	4.154789	1.407681	-0.000166
 928	9.2237e+01	3.0593	14.148142	0.000385	3.850780	1.304680	-0.000154
 929	9.2336e+01	3.0208	13.986657	0.000405	4.053453	1.373347	-0.000162
 930	9.2436e+01	2.9662	13.841320	0.000365	3.648108	1.236012	-0.000146
 931	9.2535e+01	2.9438	13.675797	0.000415	4.154789	1.407681	-0.000166
 932	9.2635e+01	2.9117	13.546609	0.000324	3.242762	1.098678	-0.000130
 933	9.2734e+01	2.8684	13.405309	0.000355	3.546771	1.201679	-0.000142
 934	9.2834e+01	2.8251	13.272084	0.000334	3.344099	1.133011	-0.000134
 935	9.2933e+01	2.7849	13.122710	0.000375	3.749444	1.270346	-0.000150
 936	9.3032e+01	2.7416	12.985447	0.000345	3.445435	1.167345	-0.000138
 937	9.3132e+01	2.7176	12.819925	0.000415	4.154789	1.407681	-0.000166
 938	9.3231e+01	2.6646	12.634216	0.000466	4.661471	1.579349	-0.000187
 939	9.3331e+01	2.6229	12.541362	0.000233	2.330735	0.789675	-0.000093
 940	9.3430e+01	2.5828	12.387951	0.000385	3.850780	1.304680	-0.000154
 941	9.3530e+01	2.5411	12.230503	0.000395	3.952117	1.339013	-0.000158
 942	9.3629e+01	2.5058	12.052869	0.000446	4.458798	1.510682	-0.000179
 943	9.3729e+01	2.4625	11.935792	0.000294	2.938753	0.995677	-0.000118
 944	9.3829e+01	2.4224	11.770269	0.000415	4.154789	1.407681	-0.000166
 945	9.3928e+01	2.3887	11.608784	0.000405	4.053453	1.373347	-0.000162
 946	9.4028e+01	2.3486	11.475558	0.000334	3.344099	1.133011	-0.000134
 947	9.4127e+01	2.3149	11.301961	0.000436	4.357462	1.476348	-0.000174
 948	9.4227e+01	2.2716	11.156625	0.000365	3.648108	1.236012	-0.000146
 949	9.4326e+01	2.2363	11.011288	0.000365	3.648108	1.236012	-0.000146
 950	9.4425e+01	2.1866	10.869988	0.000355	3.546771	1.201679	-0.000142
 951	9.4525e+01	2.1465	10.728688	0.000355	3.546771	1.201679	-0.000142
 952	9.4624e+01	2.0967	10.591426	0.000345	3.445435	1.167345	-0.000138
 953	9.4724e+01	2.0566	10.397643	0.000486	4.864143	1.648016	-0.000195
 954	9.4823e+01	2.0181	10.215972	0.000456	4.560135	1.545015	-0.000183
 955	9.4923e+01	1.9860	10.127155	0.000223	2.229399	0.755341	-0.000089
 956	9.5022e+01	1.9507	9.953558	0.000436	4.357462	1.476348	-0.000174
 957	9.5122e+01	1.9122	9.796110	0.000395	3.952117	1.339013	-0.000158
 958	9.5222e+01	1.8673	9.662884	0.000334	3.344099	1.133011	-0.000134
 959	9.5321e+01	1.8272	9.452953	0.000527	5.269489	1.785351	-0.000211
 960	9.5421e+01	1.7887	9.343951	0.000274	2.736081	0.927009	-0.000110
 961	9.5520e+01	1.7534	9.198614	0.000365	3.648108	1.236012	-0.000146
 962	9.5620e+01	1.7053	9.016943	0.000456	4.560135	1.545015	-0.000183
 963	9.5719e+01	1.6652	8.911977	0.000263	2.634744	0.892676	-0.000105
 964	9.5819e+01	1.6299	8.726269	0.000466	4.661471	1.579349	-0.000187
 965	9.5918e+01	1.5914	8.593043	0.000334	3.344099	1.133011	-0.000134
 966	9.6017e+01	1.5417	8.415409	0.000446	4.458798	1.510682	-0.000179
 967	9.6117e+01	1.5080	8.274110	0.000355	3.546771	1.201679	-0.000142
 968	9.6216e+01	1.4727	8.116661	0.000395	3.952117	1.339013	-0.000158
 969	9.6316e+01	1.4294	8.019770	0.000243	2.432072	0.824008	-0.000097
 970	9.6415e+01	1.3861	7.809839	0.000527	5.269489	1.785351	-0.000211
 971	9.6515e+01	1.3443	7.696799	0.000284	2.837417	0.961343	-0.000114
 972	9.6615e+01	1.3123	7.490905	0.000517	5.168152	1.751017	-0.000207
 973	9.6714e+01	1.2786	7.365754	0.000314	3.141426	1.064344	-0.000126
 974	9.6814e+01	1.2288	7.216380	0.000375	3.749444	1.270346	-0.000150
 975	9.6913e+01	1.1919	7.058932	0.000395	3.952117	1.339013	-0.000158
 976	9.7013e+01	1.1454	6.933781	0.000314	3.141426	1.064344	-0.000126
 977	9.7112e+01	1.1037	6.739998	0.000486	4.864143	1.648016	-0.000195
 978	9.7212e+01	1.0764	6.606773	0.000334	3.344099	1.133011	-0.000134
 979	9.7311e+01	1.0363	6.457399	0.000375	3.749444	1.270346	-0.000150
 980	9.7410e+01	0.9930	6.324173	0.000334	3.344099	1.133011	-0.000134
 981	9.7510e+01	0.9465	6.154613	0.000426	4.256126	1.442014	-0.000170
 982	9.7609e+01	0.9096	5.989091	0.000415	4.154789	1.407681	-0.000166
 983	9.7709e+01	0.8695	5.847791	0.000355	3.546771	1.201679	-0.000142
 984	9.7808e+01	0.8390	5.682269	0.000415	4.154789	1.407681	-0.000166
 985	9.7908e+01	0.7941	5.545006	0.000345	3.445435	1.167345	-0.000138
 986	9.8007e+01	0.7524	5.375446	0.000426	4.256126	1.442014	-0.000170
 987	9.8107e+01	0.7075	5.230109	0.000365	3.648108	1.236012	-0.000146
 988	9.8207e+01	0.6674	5.056513	0.000436	4.357462	1.476348	-0.000174
 989	9.8306e+01	0.6385	4.882916	0.000436	4.357462	1.476348	-0.000174
 990	9.8406e+01	0.5952	4.761802	0.000304	3.040090	1.030010	-0.000122
 991	9.8505e+01	0.5486	4.652799	0.000274	2.736081	0.927009	-0.000110
 992	9.8605e+01	0.5085	4.454979	0.000497	4.965480	1.682350	-0.000199
 993	9.8704e+01	0.4765	4.317717	0.000345	3.445435	1.167345	-0.000138
 994	9.8803e+01	0.4299	4.103748	0.000537	5.370825	1.819685	-0.000215
 995	9.8903e+01	0.3882	3.974560	0.000324	3.242762	1.098678	-0.000130
 996	9.9002e+01	0.3513	3.869595	0.000263	2.634744	0.892676	-0.000105
 997	9.9102e+01	0.3128	3.675812	0.000486	4.864143	1.648016	-0.000195
 998	9.9201e+01	0.2679	3.558735	0.000294	2.938753	0.995677	-0.000118
 999	9.9301e+01	0.2310	3.360916	0.000497	4.965480	1.682350	-0.000199
1000	9.9400e+01	0.1925	3.231727	0.000324	3.242762	1.098678	-0.000130
1001	9.9500e+01	0.1540	3.062167	0.000426	4.256126	1.442014	-0.000170
1002	9.9600e+01	0.1075	2.864348	0.000497	4.965480	1.682350	-0.000199
1003	9.9699e+01	0.0658	2.747271	0.000294	2.938753	0.995677	-0.000118
1004	9.9799e+01	0.0337	2.589823	0.000395	3.952117	1.339013	-0.000158
1005	9.9898e+01	0.0064	2.460634	0.000324	3.242762	1.098678	-0.000130
1006	9.9998e+01	-0.0417	2.339520	0.000304	3.040090	1.030010	-0.000122
1007	1.0010e+02	-0.0722	2.169960	0.000426	4.256126	1.442014	-0.000170
1008	1.0020e+02	-0.1219	1.968104	0.000507	5.066816	1.716684	-0.000203
1009	1.0030e+02	-0.1572	1.834878	0.000334	3.344099	1.133011	-0.000134
1010	1.0040e+02	-0.2005	1.697616	0.000345	3.445435	1.167345	-0.000138
1011	1.0050e+02	-0.2406	1.519982	0.000446	4.458798	1.510682	-0.000179
1012	1.0059e+02	-0.2727	1.354459	0.000415	4.154789	1.407681	-0.000166
1013	1.0069e+02	-0.3176	1.225271	0.000324	3.242762	1.098678	-0.000130
1014	1.0079e+02	-0.3610	1.079934	0.000365	3.648108	1.236012	-0.000146
1015	1.0089e+02	-0.3914	0.906337	0.000436	4.357462	1.476348	-0.000174
1016	1.0099e+02	-0.4428	0.748889	0.000395	3.952117	1.339013	-0.000158
1017	1.0109e+02	-0.4716	0.615663	0.000334	3.344099	1.133011	-0.000134
1018	1.0119e+02	-0.5118	0.433992	0.000456	4.560135	1.545015	-0.000183
1019	1.0129e+02	-0.5583	0.284618	0.000375	3.749444	1.270346	-0.000150
1020	1.0139e+02	-0.6080	0.139281	0.000365	3.648108	1.236012	-0.000146
1021	1.0149e+02	-0.6385	-0.042390	0.000456	4.560135	1.545015	-0.000183
1022	1.0159e+02	-0.6738	-0.171578	0.000324	3.242762	1.098678	-0.000130
1023	1.0169e+02	-0.7139	-0.320952	0.000375	3.749444	1.270346	-0.000150
1024	1.0179e+02	-0.7540	-0.474363	0.000385	3.850780	1.304680	-0.000154
1025	1.0189e+02	-0.7941	-0.647960	0.000436	4.357462	1.476348	-0.000174
1026	1.0199e+02	-0.8374	-0.793297	0.000365	3.648108	1.236012	-0.000146
1027	1.0209e+02	-0.8711	-0.983043	0.000476	4.762807	1.613683	-0.000191
1028	1.0219e+02	-0.9160	-1.116268	0.000334	3.344099	1.133011	-0.000134
1029	1.0229e+02	-0.9545	-1.261605	0.000365	3.648108	1.236012	-0.000146
1030	1.0239e+02	-0.9962	-1.419053	0.000395	3.952117	1.339013	-0.000158
1031	1.0248e+02	-1.0331	-1.592650	0.000436	4.357462	1.476348	-0.000174
1032	1.0258e+02	-1.0684	-1.717801	0.000314	3.141426	1.064344	-0.000126
1033	1.0268e+02	-1.1149	-1.875250	0.000395	3.952117	1.339013	-0.000158
1034	1.0278e+02	-1.1486	-2.073069	0.000497	4.965480	1.682350	-0.000199
1035	1.0288e+02	-1.1871	-2.226480	0.000385	3.850780	1.304680	-0.000154
1036	1.0298e+02	-1.2385	-2.400077	0.000436	4.357462	1.476348	-0.000174
1037	1.0308e+02	-1.2657	-2.517154	0.000294	2.938753	0.995677	-0.000118
1038	1.0318e+02	-1.3123	-2.694788	0.000446	4.458798	1.510682	-0.000179
1039	1.0328e+02	-1.3508	-2.856274	0.000405	4.053453	1.373347	-0.000162
1040	1.0338e+02	-1.3957	-3.009685	0.000385	3.850780	1.304680	-0.000154
1041	1.0348e+02	-1.4390	-3.155022	0.000365	3.648108	1.236012	-0.000146
1042	1.0358e+02	-1.4711	-3.284210	0.000324	3.242762	1.098678	-0.000130
1043	1.0368e+02	-1.5016	-3.477992	0.000486	4.864143	1.648016	-0.000195
1044	1.0378e+02	-1.5513	-3.627366	0.000375	3.749444	1.270346	-0.000150
1045	1.0388e+02	-1.5994	-3.760592	0.000334	3.344099	1.133011	-0.000134
1046	1.0398e+02	-1.6315	-3.946300	0.000466	4.661471	1.579349	-0.000187
1047	1.0408e+02	-1.6636	-4.140083	0.000486	4.864143	1.648016	-0.000195
1048	1.0418e+02	-1.6973	-4.269271	0.000324	3.242762	1.098678	-0.000130
1049	1.0428e+02	-1.7550	-4.438831	0.000426	4.256126	1.442014	-0.000170
1050	1.0438e+02	-1.7855	-4.555908	0.000294	2.938753	0.995677	-0.000118
1051	1.0447e+02	-1.8288	-4.713356	0.000395	3.952117	1.339013	-0.000158
1052	1.0457e+02	-1.8737	-4.878879	0.000415	4.154789	1.407681	-0.000166
1053	1.0467e+02	-1.9106	-5.056513	0.000446	4.458798	1.510682	-0.000179
1054	1.0477e+02	-1.9475	-5.201849	0.000365	3.648108	1.236012	-0.000146
1055	1.0487e+02	-1.9941	-5.363335	0.000405	4.053453	1.373347	-0.000162
1056	1.0497e+02	-2.0278	-5.508672	0.000365	3.648108	1.236012	-0.000146
1057	1.0507e+02	-2.0663	-5.637860	0.000324	3.242762	1.098678	-0.000130
1058	1.0517e+02	-2.1031	-5.827605	0.000476	4.762807	1.613683	-0.000191
1059	1.0527e+02	-2.1465	-5.968905	0.000355	3.546771	1.201679	-0.000142
1060	1.0537e+02	-2.1946	-6.162688	0.000486	4.864143	1.648016	-0.000195
1061	1.0547e+02	-2.2347	-6.283802	0.000304	3.040090	1.030010	-0.000122
1062	1.0557e+02	-2.2668	-6.469510	0.000466	4.661471	1.579349	-0.000187
1063	1.0567e+02	-2.3037	-6.598698	0.000324	3.242762	1.098678	-0.000130
1064	1.0577e+02	-2.3518	-6.812667	0.000537	5.370825	1.819685	-0.000215
1065	1.0587e+02	-2.3887	-6.905521	0.000233	2.330735	0.789675	-0.000093
1066	1.0597e+02	-2.4240	-7.083155	0.000446	4.458798	1.510682	-0.000179
1067	1.0607e+02	-2.4721	-7.232529	0.000375	3.749444	1.270346	-0.000150
1068	1.0617e+02	-2.5074	-7.385940	0.000385	3.850780	1.304680	-0.000154
1069	1.0627e+02	-2.5523	-7.587797	0.000507	5.066816	1.716684	-0.000203
1070	1.0637e+02	-2.5876	-7.708911	0.000304	3.040090	1.030010	-0.000122
1071	1.0647e+02	-2.6293	-7.846173	0.000345	3.445435	1.167345	-0.000138
1072	1.0656e+02	-2.6678	-8.027844	0.000456	4.560135	1.545015	-0.000183
1073	1.0666e+02	-2.7047	-8.148958	0.000304	3.040090	1.030010	-0.000122
1074	1.0676e+02	-2.7481	-8.257961	0.000274	2.736081	0.927009	-0.000110
1075	1.0686e+02	-2.7833	-8.484041	0.000567	5.674834	1.922686	-0.000227
1076	1.0696e+02	-2.8267	-8.633415	0.000375	3.749444	1.270346	-0.000150
1077	1.0706e+02	-2.8636	-8.811049	0.000446	4.458798	1.510682	-0.000179
1078	1.0716e+02	-2.9069	-8.960423	0.000375	3.749444	1.270346	-0.000150
1079	1.0726e+02	-2.9518	-9.105760	0.000365	3.648108	1.236012	-0.000146
1080	1.0736e+02	-2.9871	-9.222837	0.000294	2.938753	0.995677	-0.000118
1081	1.0746e+02	-3.0240	-9.428731	0.000517	5.168152	1.751017	-0.000207
1082	1.0756e+02	-3.0689	-9.565993	0.000345	3.445435	1.167345	-0.000138
1083	1.0766e+02	-3.1090	-9.743627	0.000446	4.458798	1.510682	-0.000179
1084	1.0776e+02	-3.1491	-9.880890	0.000345	3.445435	1.167345	-0.000138
1085	1.0786e+02	-3.1844	-10.046412	0.000415	4.154789	1.407681	-0.000166
1086	1.0796e+02	-3.2261	-10.159452	0.000284	2.837417	0.961343	-0.000114
1087	1.0806e+02	-3.2662	-10.316900	0.000395	3.952117	1.339013	-0.000158
1088	1.0816e+02	-3.3031	-10.450126	0.000334	3.344099	1.133011	-0.000134
1089	1.0826e+02	-3.3448	-10.627760	0.000446	4.458798	1.510682	-0.000179
1090	1.0836e+02	-3.3833	-10.769060	0.000355	3.546771	1.201679	-0.000142
1091	1.0845e+02	-3.4202	-10.930545	0.000405	4.053453	1.373347	-0.000162
1092	1.0855e+02	-3.4667	-11.039548	0.000274	2.736081	0.927009	-0.000110
1093	1.0865e+02	-3.4972	-11.233330	0.000486	4.864143	1.648016	-0.000195
1094	1.0875e+02	-3.5486	-11.410964	0.000446	4.458798	1.510682	-0.000179
1095	1.0885e+02	-3.5871	-11.552264	0.000355	3.546771	1.201679	-0.000142
1096	1.0895e+02	-3.6272	-11.661267	0.000274	2.736081	0.927009	-0.000110
1097	1.0905e+02	-3.6657	-11.830826	0.000426	4.256126	1.442014	-0.000170
1098	1.0915e+02	-3.7074	-11.964052	0.000334	3.344099	1.133011	-0.000134
1099	1.0925e+02	-3.7363	-12.093240	0.000324	3.242762	1.098678	-0.000130
1100	1.0935e+02	-3.7892	-12.254726	0.000405	4.053453	1.373347	-0.000162
1101	1.0945e+02	-3.8245	-12.444471	0.000476	4.762807	1.613683	-0.000191
1102	1.0955e+02	-3.8710	-12.614031	0.000426	4.256126	1.442014	-0.000170
1103	1.0965e+02	-3.9063	-12.735145	0.000304	3.040090	1.030010	-0.000122
1104	1.0975e+02	-3.9448	-12.876444	0.000355	3.546771	1.201679	-0.000142
1105	1.0985e+02	-3.9801	-13.033893	0.000395	3.952117	1.339013	-0.000158
1106	1.0995e+02	-4.0282	-13.187304	0.000385	3.850780	1.304680	-0.000154
1107	1.1005e+02	-4.0555	-13.312455	0.000314	3.141426	1.064344	-0.000126
1108	1.1015e+02	-4.1020	-13.433569	0.000304	3.040090	1.030010	-0.000122
1109	1.1025e+02	-4.1469	-13.603129	0.000426	4.256126	1.442014	-0.000170
1110	1.1035e+02	-4.1870	-13.768651	0.000415	4.154789	1.407681	-0.000166
1111	1.1044e+02	-4.2223	-13.893803	0.000314	3.141426	1.064344	-0.000126
1112	1.1054e+02	-4.2657	-14.071437	0.000446	4.458798	1.510682	-0.000179
1113	1.1064e+02	-4.3009	-14.180439	0.000274	2.736081	0.927009	-0.000110
1114	1.1074e+02	-4.3362	-14.337888	0.000395	3.952117	1.339013	-0.000158
1115	1.1084e+02	-4.3844	-14.515522	0.000446	4.458798	1.510682	-0.000179
1116	1.1094e+02	-4.4261	-14.632598	0.000294	2.938753	0.995677	-0.000118
1117	1.1104e+02	-4.4614	-14.757750	0.000314	3.141426	1.064344	-0.000126
1118	1.1114e+02	-4.4999	-14.911161	0.000385	3.850780	1.304680	-0.000154
1119	1.1124e+02	-4.5368	-15.056498	0.000365	3.648108	1.236012	-0.000146
1120	1.1134e+02	-4.5769	-15.209909	0.000385	3.850780	1.304680	-0.000154
1121	1.1144e+02	-4.6202	-15.395617	0.000466	4.661471	1.579349	-0.000187
1122	1.1154e+02	-4.6619	-15.516731	0.000304	3.040090	1.030010	-0.000122
1123	1.1164e+02	-4.7036	-15.621697	0.000263	2.634744	0.892676	-0.000105
1124	1.1174e+02	-4.7405	-15.787219	0.000415	4.154789	1.407681	-0.000166
1125	1.1184e+02	-4.7742	-15.924482	0.000345	3.445435	1.167345	-0.000138
1126	1.1194e+02	-4.8127	-16.053670	0.000324	3.242762	1.098678	-0.000130
1127	1.1204e+02	-4.8753	-16.207081	0.000385	3.850780	1.304680	-0.000154
1128	1.1214e+02	-4.9009	-16.340307	0.000334	3.344099	1.133011	-0.000134
1129	1.1224e+02	-4.9442	-16.493718	0.000385	3.850780	1.304680	-0.000154
1130	1.1234e+02	-4.9747	-16.602721	0.000274	2.736081	0.927009	-0.000110
1131	1.1244e+02	-5.0132	-16.784392	0.000456	4.560135	1.545015	-0.000183
1132	1.1253e+02	-5.0710	-16.925692	0.000355	3.546771	1.201679	-0.000142
1133	1.1263e+02	-5.1031	-17.034694	0.000274	2.736081	0.927009	-0.000110
1134	1.1273e+02	-5.1432	-17.184068	0.000375	3.749444	1.270346	-0.000150
1135	1.1283e+02	-5.1817	-17.325368	0.000355	3.546771	1.201679	-0.000142
1136	1.1293e+02	-5.2202	-17.503002	0.000446	4.458798	1.510682	-0.000179
1137	1.1303e+02	-5.2539	-17.567596	0.000162	1.621381	0.549339	-0.000065
1138	1.1313e+02	-5.2988	-17.749267	0.000456	4.560135	1.545015	-0.000183
1139	1.1323e+02	-5.3405	-17.850196	0.000253	2.533408	0.858342	-0.000101
1140	1.1333e+02	-5.3790	-17.987458	0.000345	3.445435	1.167345	-0.000138
1141	1.1343e+02	-5.4207	-18.112609	0.000314	3.141426	1.064344	-0.000126
1142	1.1353e+02	-5.4576	-18.261984	0.000375	3.749444	1.270346	-0.000150
1143	1.1363e+02	-5.4881	-18.395209	0.000334	3.344099	1.133011	-0.000134
1144	1.1373e+02	-5.5330	-18.536509	0.000355	3.546771	1.201679	-0.000142
1145	1.1383e+02	-5.5763	-18.714143	0.000446	4.458798	1.510682	-0.000179
1146	1.1393e+02	-5.6180	-18.835257	0.000304	3.040090	1.030010	-0.000122
1147	1.1403e+02	-5.6629	-18.972519	0.000345	3.445435	1.167345	-0.000138
1148	1.1413e+02	-5.6982	-19.101708	0.000324	3.242762	1.098678	-0.000130
1149	1.1423e+02	-5.7367	-19.174376	0.000182	1.824054	0.618006	-0.000073
1150	1.1433e+02	-5.7784	-19.352010	0.000446	4.458798	1.510682	-0.000179
1151	1.1442e+02	-5.8041	-19.489273	0.000345	3.445435	1.167345	-0.000138
1152	1.1452e+02	-5.8458	-19.618461	0.000324	3.242762	1.098678	-0.000130
1153	1.1462e+02	-5.8972	-19.763798	0.000365	3.648108	1.236012	-0.000146
1154	1.1472e+02	-5.9325	-19.864726	0.000253	2.533408	0.858342	-0.000101
1155	1.1482e+02	-5.9742	-20.001989	0.000345	3.445435	1.167345	-0.000138
1156	1.1492e+02	-6.0255	-20.155400	0.000385	3.850780	1.304680	-0.000154
1157	1.1502e+02	-6.0608	-20.264403	0.000274	2.736081	0.927009	-0.000110
1158	1.1512e+02	-6.0881	-20.405703	0.000355	3.546771	1.201679	-0.000142
1159	1.1522e+02	-6.1426	-20.530854	0.000314	3.141426	1.064344	-0.000126
1160	1.1532e+02	-6.1699	-20.688302	0.000395	3.952117	1.339013	-0.000158
1161	1.1542e+02	-6.2260	-20.805379	0.000294	2.938753	0.995677	-0.000118
1162	1.1552e+02	-6.2613	-20.934567	0.000324	3.242762	1.098678	-0.000130
1163	1.1562e+02	-6.2950	-21.067793	0.000334	3.344099	1.133011	-0.000134
1164	1.1572e+02	-6.3367	-21.192944	0.000314	3.141426	1.064344	-0.000126
1165	1.1582e+02	-6.3768	-21.326170	0.000334	3.344099	1.133011	-0.000134
1166	1.1592e+02	-6.4105	-21.439209	0.000284	2.837417	0.961343	-0.000114
1167	1.1602e+02	-6.4538	-21.560323	0.000304	3.040090	1.030010	-0.000122
1168	1.1612e+02	-6.4907	-21.717772	0.000395	3.952117	1.339013	-0.000158
1169	1.1622e+02	-6.5389	-21.830812	0.000284	2.837417	0.961343	-0.000114
1170	1.1632e+02	-6.5677	-21.984223	0.000385	3.850780	1.304680	-0.000154
1171	1.1642e+02	-6.6110	-22.117448	0.000334	3.344099	1.133011	-0.000134
1172	1.1651e+02	-6.6544	-22.202228	0.000213	2.128063	0.721007	-0.000085
1173	1.1661e+02	-6.6832	-22.327379	0.000314	3.141426	1.064344	-0.000126
1174	1.1671e+02	-6.7233	-22.464642	0.000345	3.445435	1.167345	-0.000138
1175	1.1681e+02	-6.7731	-22.597867	0.000334	3.344099	1.133011	-0.000134
1176	1.1691e+02	-6.8019	-22.714944	0.000294	2.938753	0.995677	-0.000118
1177	1.1701e+02	-6.8549	-22.832021	0.000294	2.938753	0.995677	-0.000118
1178	1.1711e+02	-6.8870	-22.945061	0.000284	2.837417	0.961343	-0.000114
1179	1.1721e+02	-6.9319	-23.102509	0.000395	3.952117	1.339013	-0.000158
1180	1.1731e+02	-6.9672	-23.219586	0.000294	2.938753	0.995677	-0.000118
1181	1.1741e+02	-7.0041	-23.336663	0.000294	2.938753	0.995677	-0.000118
1182	1.1751e+02	-7.0474	-23.461814	0.000314	3.141426	1.064344	-0.000126
1183	1.1761e+02	-7.0827	-23.586966	0.000314	3.141426	1.064344	-0.000126
1184	1.1771e+02	-7.1308	-23.724228	0.000345	3.445435	1.167345	-0.000138
1185	1.1781e+02	-7.1725	-23.861491	0.000345	3.445435	1.167345	-0.000138
1186	1.1791e+02	-7.2030	-23.990679	0.000324	3.242762	1.098678	-0.000130
1187	1.1801e+02	-7.2559	-24.075459	0.000213	2.128063	0.721007	-0.000085
1188	1.1811e+02	-7.2880	-24.236944	0.000405	4.053453	1.373347	-0.000162
1189	1.1821e+02	-7.3329	-24.358058	0.000304	3.040090	1.030010	-0.000122
1190	1.1831e+02	-7.3570	-24.499358	0.000355	3.546771	1.201679	-0.000142
1191	1.1841e+02	-7.4116	-24.572027	0.000182	1.824054	0.618006	-0.000073
1192	1.1850e+02	-7.4485	-24.705252	0.000334	3.344099	1.133011	-0.000134
1193	1.1860e+02	-7.4886	-24.850589	0.000365	3.648108	1.236012	-0.000146
1194	1.1870e+02	-7.5190	-24.947480	0.000243	2.432072	0.824008	-0.000097
1195	1.1880e+02	-7.5656	-25.064557	0.000294	2.938753	0.995677	-0.000118
1196	1.1890e+02	-7.6121	-25.189708	0.000314	3.141426	1.064344	-0.000126
1197	1.1900e+02	-7.6506	-25.335045	0.000365	3.648108	1.236012	-0.000146
1198	1.1910e+02	-7.6843	-25.468271	0.000334	3.344099	1.133011	-0.000134
1199	1.1920e+02	-7.7340	-25.561125	0.000233	2.330735	0.789675	-0.000093
1200	1.1930e+02	-7.7581	-25.706462	0.000365	3.648108	1.236012	-0.000146
1201	1.1940e+02	-7.8110	-25.803353	0.000243	2.432072	0.824008	-0.000097
1202	1.1950e+02	-7.8479	-25.932541	0.000324	3.242762	1.098678	-0.000130
1203	1.1960e+02	-7.8864	-26.045581	0.000284	2.837417	0.961343	-0.000114
1204	1.1970e+02	-7.9297	-26.190918	0.000365	3.648108	1.236012	-0.000146
1205	1.1980e+02	-7.9618	-26.320106	0.000324	3.242762	1.098678	-0.000130
1206	1.1990e+02	-8.0051	-26.412961	0.000233	2.330735	0.789675	-0.000093
1207	1.2000e+02	-8.0516	-26.574446	0.000405	4.053453	1.373347	-0.000162
1208	1.2010e+02	-8.0837	-26.683449	0.000274	2.736081	0.927009	-0.000110
1209	1.2020e+02	-8.1254	-26.764191	0.000203	2.026726	0.686674	-0.000081
1210	1.2030e+02	-8.1623	-26.905491	0.000355	3.546771	1.201679	-0.000142
1211	1.2039e+02	-8.1976	-27.030642	0.000314	3.141426	1.064344	-0.000126
1212	1.2049e+02	-8.2425	-27.139645	0.000274	2.736081	0.927009	-0.000110
1213	1.2059e+02	-8.2794	-27.284982	0.000365	3.648108	1.236012	-0.000146
1214	1.2069e+02	-8.3292	-27.385910	0.000253	2.533408	0.858342	-0.000101
1215	1.2079e+02	-8.3613	-27.535284	0.000375	3.749444	1.270346	-0.000150
1216	1.2089e+02	-8.4078	-27.672547	0.000345	3.445435	1.167345	-0.000138
1217	1.2099e+02	-8.4479	-27.749252	0.000193	1.925390	0.652340	-0.000077
1218	1.2109e+02	-8.4832	-27.870367	0.000304	3.040090	1.030010	-0.000122
1219	1.2119e+02	-8.5201	-27.999555	0.000324	3.242762	1.098678	-0.000130
1220	1.2129e+02	-8.5634	-28.128743	0.000324	3.242762	1.098678	-0.000130
1221	1.2139e+02	-8.6067	-28.201412	0.000182	1.824054	0.618006	-0.000073
1222	1.2149e+02	-8.6372	-28.342711	0.000355	3.546771	1.201679	-0.000142
1223	1.2159e+02	-8.6805	-28.488048	0.000365	3.648108	1.236012	-0.000146
1224	1.2169e+02	-8.7254	-28.605125	0.000294	2.938753	0.995677	-0.000118
1225	1.2179e+02	-8.7639	-28.734314	0.000324	3.242762	1.098678	-0.000130
1226	1.2189e+02	-8.7992	-28.819093	0.000213	2.128063	0.721007	-0.000085
1227	1.2199e+02	-8.8425	-28.928096	0.000274	2.736081	0.927009	-0.000110
1228	1.2209e+02	-8.8826	-29.105730	0.000446	4.458798	1.510682	-0.000179
1229	1.2219e+02	-8.9276	-29.251067	0.000365	3.648108	1.236012	-0.000146
1230	1.2229e+02	-8.9548	-29.327773	0.000193	1.925390	0.652340	-0.000077
1231	1.2239e+02	-8.9981	-29.456961	0.000324	3.242762	1.098678	-0.000130
1232	1.2248e+02	-9.0399	-29.582112	0.000314	3.141426	1.064344	-0.000126
1233	1.2258e+02	-9.0880	-29.735523	0.000385	3.850780	1.304680	-0.000154
1234	1.2268e+02	-9.1136	-29.864712	0.000324	3.242762	1.098678	-0.000130
1235	1.2278e+02	-9.1618	-29.925269	0.000152	1.520045	0.515005	-0.000061
1236	1.2288e+02	-9.2067	-30.086754	0.000405	4.053453	1.373347	-0.000162
1237	1.2298e+02	-9.2420	-30.167497	0.000203	2.026726	0.686674	-0.000081
1238	1.2308e+02	-9.2789	-30.292648	0.000314	3.141426	1.064344	-0.000126
1239	1.2318e+02	-9.3046	-30.401651	0.000274	2.736081	0.927009	-0.000110
1240	1.2328e+02	-9.3655	-30.551025	0.000375	3.749444	1.270346	-0.000150
1241	1.2338e+02	-9.3960	-30.647916	0.000243	2.432072	0.824008	-0.000097
1242	1.2348e+02	-9.4361	-30.801327	0.000385	3.850780	1.304680	-0.000154
1243	1.2358e+02	-9.4762	-30.902256	0.000253	2.533408	0.858342	-0.000101
1244	1.2368e+02	-9.5243	-30.987035	0.000213	2.128063	0.721007	-0.000085
1245	1.2378e+02	-9.5773	-31.144484	0.000395	3.952117	1.339013	-0.000158
1246	1.2388e+02	-9.5901	-31.257523	0.000284	2.837417	0.961343	-0.000114
1247	1.2398e+02	-9.6430	-31.338266	0.000203	2.026726	0.686674	-0.000081
1248	1.2408e+02	-9.6671	-31.467455	0.000324	3.242762	1.098678	-0.000130
1249	1.2418e+02	-9.7168	-31.600680	0.000334	3.344099	1.133011	-0.000134
1250	1.2428e+02	-9.7457	-31.725831	0.000314	3.141426	1.064344	-0.000126
1251	1.2438e+02	-9.7987	-31.859057	0.000334	3.344099	1.133011	-0.000134
1252	1.2447e+02	-9.8468	-31.935762	0.000193	1.925390	0.652340	-0.000077
1253	1.2457e+02	-9.8724	-32.077062	0.000355	3.546771	1.201679	-0.000142
1254	1.2467e+02	-9.9110	-32.198176	0.000304	3.040090	1.030010	-0.000122
1255	1.2477e+02	-9.9559	-32.307179	0.000274	2.736081	0.927009	-0.000110
1256	1.2487e+02	-9.9928	-32.408107	0.000253	2.533408	0.858342	-0.000101
1257	1.2497e+02	-10.0377	-32.573630	0.000415	4.154789	1.407681	-0.000166
1258	1.2507e+02	-10.0810	-32.630150	0.000142	1.418709	0.480671	-0.000057
1259	1.2517e+02	-10.1163	-32.815858	0.000466	4.661471	1.579349	-0.000187
1260	1.2527e+02	-10.1580	-32.928898	0.000284	2.837417	0.961343	-0.000114
1261	1.2537e+02	-10.2013	-33.021752	0.000233	2.330735	0.789675	-0.000093
1262	1.2547e+02	-10.2430	-33.163052	0.000355	3.546771	1.201679	-0.000142
1263	1.2557e+02	-10.2735	-33.239757	0.000193	1.925390	0.652340	-0.000077
1264	1.2567e+02	-10.3248	-33.397205	0.000395	3.952117	1.339013	-0.000158
1265	1.2577e+02	-10.3521	-33.461800	0.000162	1.621381	0.549339	-0.000065
1266	1.2587e+02	-10.4083	-33.611174	0.000375	3.749444	1.270346	-0.000150
1267	1.2597e+02	-10.4243	-33.740362	0.000324	3.242762	1.098678	-0.000130
1268	1.2607e+02	-10.4805	-33.861476	0.000304	3.040090	1.030010	-0.000122
1269	1.2617e+02	-10.5157	-33.946256	0.000213	2.128063	0.721007	-0.000085
1270	1.2627e+02	-10.5575	-34.079481	0.000334	3.344099	1.133011	-0.000134
1271	1.2636e+02	-10.6024	-34.208670	0.000324	3.242762	1.098678	-0.000130
1272	1.2646e+02	-10.6425	-34.321709	0.000284	2.837417	0.961343	-0.000114
1273	1.2656e+02	-10.6633	-34.430712	0.000274	2.736081	0.927009	-0.000110
1274	1.2666e+02	-10.7147	-34.531641	0.000253	2.533408	0.858342	-0.000101
1275	1.2676e+02	-10.7500	-34.604309	0.000182	1.824054	0.618006	-0.000073
1276	1.2686e+02	-10.8013	-34.781943	0.000446	4.458798	1.510682	-0.000179
1277	1.2696e+02	-10.8270	-34.886908	0.000263	2.634744	0.892676	-0.000105
1278	1.2706e+02	-10.8735	-35.012060	0.000314	3.141426	1.064344	-0.000126
1279	1.2716e+02	-10.9088	-35.104914	0.000233	2.330735	0.789675	-0.000093
1280	1.2726e+02	-10.9585	-35.230065	0.000314	3.141426	1.064344	-0.000126
1281	1.2736e+02	-11.0002	-35.367328	0.000345	3.445435	1.167345	-0.000138
1282	1.2746e+02	-11.0387	-35.456145	0.000223	2.229399	0.755341	-0.000089
1283	1.2756e+02	-11.0708	-35.565147	0.000274	2.736081	0.927009	-0.000110
1284	1.2766e+02	-11.1157	-35.706447	0.000355	3.546771	1.201679	-0.000142
1285	1.2776e+02	-11.1574	-35.807375	0.000253	2.533408	0.858342	-0.000101
1286	1.2786e+02	-11.2056	-35.920415	0.000284	2.837417	0.961343	-0.000114
1287	1.2796e+02	-11.2328	-36.029418	0.000274	2.736081	0.927009	-0.000110
1288	1.2806e+02	-11.2729	-36.138421	0.000274	2.736081	0.927009	-0.000110
1289	1.2816e+02	-11.3147	-36.299906	0.000405	4.053453	1.373347	-0.000162
1290	1.2826e+02	-11.3483	-36.364500	0.000162	1.621381	0.549339	-0.000065
1291	1.2835e+02	-11.3868	-36.473503	0.000274	2.736081	0.927009	-0.000110
1292	1.2845e+02	-11.4318	-36.606728	0.000334	3.344099	1.133011	-0.000134
1293	1.2855e+02	-11.4638	-36.699582	0.000233	2.330735	0.789675	-0.000093
1294	1.2865e+02	-11.5168	-36.824734	0.000314	3.141426	1.064344	-0.000126
1295	1.2875e+02	-11.5521	-36.909513	0.000213	2.128063	0.721007	-0.000085
1296	1.2885e+02	-11.5970	-37.066962	0.000395	3.952117	1.339013	-0.000158
1297	1.2895e+02	-11.6355	-37.159816	0.000233	2.330735	0.789675	-0.000093
1298	1.2905e+02	-11.6644	-37.305153	0.000365	3.648108	1.236012	-0.000146
1299	1.2915e+02	-11.7125	-37.337450	0.000081	0.810691	0.274669	-0.000032
1300	1.2925e+02	-11.7430	-37.474712	0.000345	3.445435	1.167345	-0.000138
1301	1.2935e+02	-11.7895	-37.583715	0.000274	2.736081	0.927009	-0.000110
1302	1.2945e+02	-11.8264	-37.708866	0.000314	3.141426	1.064344	-0.000126
1303	1.2955e+02	-11.8697	-37.797683	0.000223	2.229399	0.755341	-0.000089
1304	1.2965e+02	-11.9034	-37.930909	0.000334	3.344099	1.133011	-0.000134
1305	1.2975e+02	-11.9547	-38.023763	0.000233	2.330735	0.789675	-0.000093
1306	1.2985e+02	-11.9884	-38.132766	0.000274	2.736081	0.927009	-0.000110
1307	1.2995e+02	-12.0317	-38.225620	0.000233	2.330735	0.789675	-0.000093
1308	1.3005e+02	-12.0767	-38.370957	0.000365	3.648108	1.236012	-0.000146
1309	1.3015e+02	-12.1104	-38.455736	0.000213	2.128063	0.721007	-0.000085
1310	1.3025e+02	-12.1601	-38.597036	0.000355	3.546771	1.201679	-0.000142
1311	1.3034e+02	-12.1890	-38.685853	0.000223	2.229399	0.755341	-0.000089
1312	1.3044e+02	-12.2243	-38.798893	0.000284	2.837417	0.961343	-0.000114
1313	1.3054e+02	-12.2692	-38.887710	0.000223	2.229399	0.755341	-0.000089
1314	1.3064e+02	-12.3061	-38.996713	0.000274	2.736081	0.927009	-0.000110
1315	1.3074e+02	-12.3542	-39.089567	0.000233	2.330735	0.789675	-0.000093
1316	1.3084e+02	-12.3943	-39.190495	0.000253	2.533408	0.858342	-0.000101
1317	1.3094e+02	-12.4344	-39.303535	0.000284	2.837417	0.961343	-0.000114
1318	1.3104e+02	-12.4681	-39.448872	0.000365	3.648108	1.236012	-0.000146
1319	1.3114e+02	-12.5050	-39.549800	0.000253	2.533408	0.858342	-0.000101
1320	1.3124e+02	-12.5499	-39.666877	0.000294	2.938753	0.995677	-0.000118
1321	1.3134e+02	-12.5900	-39.779917	0.000284	2.837417	0.961343	-0.000114
1322	1.3144e+02	-12.6317	-39.836437	0.000142	1.418709	0.480671	-0.000057
1323	1.3154e+02	-12.6670	-39.981774	0.000365	3.648108	1.236012	-0.000146
1324	1.3164e+02	-12.7071	-40.070591	0.000223	2.229399	0.755341	-0.000089
1325	1.3174e+02	-12.7488	-40.191705	0.000304	3.040090	1.030010	-0.000122
1326	1.3184e+02	-12.7841	-40.248225	0.000142	1.418709	0.480671	-0.000057
1327	1.3194e+02	-12.8258	-40.377413	0.000324	3.242762	1.098678	-0.000130
1328	1.3204e+02	-12.8563	-40.494490	0.000294	2.938753	0.995677	-0.000118
1329	1.3214e+02	-12.8980	-40.575233	0.000203	2.026726	0.686674	-0.000081
1330	1.3224e+02	-12.9430	-40.692310	0.000294	2.938753	0.995677	-0.000118
1331	1.3234e+02	-12.9831	-40.805349	0.000284	2.837417	0.961343	-0.000114
1332	1.3243e+02	-13.0167	-40.890129	0.000213	2.128063	0.721007	-0.000085
1333	1.3253e+02	-13.0617	-41.015281	0.000314	3.141426	1.064344	-0.000126
1334	1.3263e+02	-13.1018	-41.096023	0.000203	2.026726	0.686674	-0.000081
1335	1.3273e+02	-13.1435	-41.229249	0.000334	3.344099	1.133011	-0.000134
1336	1.3283e+02	-13.1740	-41.358437	0.000324	3.242762	1.098678	-0.000130
1337	1.3293e+02	-13.2205	-41.418994	0.000152	1.520045	0.515005	-0.000061
1338	1.3303e+02	-13.2622	-41.511848	0.000233	2.330735	0.789675	-0.000093
1339	1.3313e+02	-13.3039	-41.624888	0.000284	2.837417	0.961343	-0.000114
1340	1.3323e+02	-13.3408	-41.713705	0.000223	2.229399	0.755341	-0.000089
1341	1.3333e+02	-13.3761	-41.814633	0.000253	2.533408	0.858342	-0.000101
1342	1.3343e+02	-13.4178	-41.947859	0.000334	3.344099	1.133011	-0.000134
1343	1.3353e+02	-13.4579	-42.020527	0.000182	1.824054	0.618006	-0.000073
1344	1.3363e+02	-13.5028	-42.121456	0.000253	2.533408	0.858342	-0.000101
1345	1.3373e+02	-13.5445	-42.210273	0.000223	2.229399	0.755341	-0.000089
1346	1.3383e+02	-13.5830	-42.295053	0.000213	2.128063	0.721007	-0.000085
1347	1.3393e+02	-13.6280	-42.460575	0.000415	4.154789	1.407681	-0.000166
1348	1.3403e+02	-13.6649	-42.533244	0.000182	1.824054	0.618006	-0.000073
1349	1.3413e+02	-13.7066	-42.597838	0.000162	1.621381	0.549339	-0.000065
1350	1.3423e+02	-13.7435	-42.710878	0.000284	2.837417	0.961343	-0.000114
1351	1.3432e+02	-13.7820	-42.823917	0.000284	2.837417	0.961343	-0.000114
1352	1.3442e+02	-13.8173	-42.949069	0.000314	3.141426	1.064344	-0.000126
1353	1.3452e+02	-13.8622	-43.041923	0.000233	2.330735	0.789675	-0.000093
1354	1.3462e+02	-13.9039	-43.175148	0.000334	3.344099	1.133011	-0.000134
1355	1.3472e+02	-13.9440	-43.259928	0.000213	2.128063	0.721007	-0.000085
1356	1.3482e+02	-13.9841	-43.356819	0.000243	2.432072	0.824008	-0.000097
1357	1.3492e+02	-14.0242	-43.453711	0.000243	2.432072	0.824008	-0.000097
1358	1.3502e+02	-14.0563	-43.522342	0.000172	1.722717	0.583672	-0.000069
1359	1.3512e+02	-14.0948	-43.659604	0.000345	3.445435	1.167345	-0.000138
1360	1.3522e+02	-14.1429	-43.724199	0.000162	1.621381	0.549339	-0.000065
1361	1.3532e+02	-14.1750	-43.833201	0.000274	2.736081	0.927009	-0.000110
1362	1.3542e+02	-14.2183	-43.926055	0.000233	2.330735	0.789675	-0.000093
1363	1.3552e+02	-14.2552	-44.031021	0.000263	2.634744	0.892676	-0.000105
1364	1.3562e+02	-14.2985	-44.148098	0.000294	2.938753	0.995677	-0.000118
1365	1.3572e+02	-14.3322	-44.281323	0.000334	3.344099	1.133011	-0.000134
1366	1.3582e+02	-14.3787	-44.293435	0.000030	0.304009	0.103001	-0.000012
1367	1.3592e+02	-14.4237	-44.491254	0.000497	4.965480	1.682350	-0.000199
1368	1.3602e+02	-14.4606	-44.547774	0.000142	1.418709	0.480671	-0.000057
1369	1.3612e+02	-14.5087	-44.640628	0.000233	2.330735	0.789675	-0.000093
1370	1.3622e+02	-14.5343	-44.745594	0.000263	2.634744	0.892676	-0.000105
1371	1.3631e+02	-14.5777	-44.818262	0.000182	1.824054	0.618006	-0.000073
1372	1.3641e+02	-14.6130	-44.955525	0.000345	3.445435	1.167345	-0.000138
1373	1.3651e+02	-14.6595	-45.036268	0.000203	2.026726	0.686674	-0.000081
1374	1.3661e+02	-14.7076	-45.104899	0.000172	1.722717	0.583672	-0.000069
1375	1.3671e+02	-14.7333	-45.230050	0.000314	3.141426	1.064344	-0.000126
1376	1.3681e+02	-14.7702	-45.343090	0.000284	2.837417	0.961343	-0.000114
1377	1.3691e+02	-14.8151	-45.431907	0.000223	2.229399	0.755341	-0.000089
1378	1.3701e+02	-14.8632	-45.532835	0.000253	2.533408	0.858342	-0.000101
1379	1.3711e+02	-14.8985	-45.593392	0.000152	1.520045	0.515005	-0.000061
1380	1.3721e+02	-14.9290	-45.750841	0.000395	3.952117	1.339013	-0.000158
1381	1.3731e+02	-14.9739	-45.847732	0.000243	2.432072	0.824008	-0.000097
1382	1.3741e+02	-15.0172	-45.928475	0.000203	2.026726	0.686674	-0.000081
1383	1.3751e+02	-15.0541	-46.021329	0.000233	2.330735	0.789675	-0.000093
1384	1.3761e+02	-15.0990	-46.130332	0.000274	2.736081	0.927009	-0.000110
1385	1.3771e+02	-15.1472	-46.251446	0.000304	3.040090	1.030010	-0.000122
1386	1.3781e+02	-15.1744	-46.344300	0.000233	2.330735	0.789675	-0.000093
1387	1.3791e+02	-15.2178	-46.449265	0.000263	2.634744	0.892676	-0.000105
1388	1.3801e+02	-15.2482	-46.538082	0.000223	2.229399	0.755341	-0.000089
1389	1.3811e+02	-15.2883	-46.630936	0.000233	2.330735	0.789675	-0.000093
1390	1.3821e+02	-15.3300	-46.727828	0.000243	2.432072	0.824008	-0.000097
1391	1.3831e+02	-15.3766	-46.808570	0.000203	2.026726	0.686674	-0.000081
1392	1.3840e+02	-15.4279	-46.909499	0.000253	2.533408	0.858342	-0.000101
1393	1.3850e+02	-15.4536	-47.050798	0.000355	3.546771	1.201679	-0.000142
1394	1.3860e+02	-15.4985	-47.139615	0.000223	2.229399	0.755341	-0.000089
1395	1.3870e+02	-15.5466	-47.256692	0.000294	2.938753	0.995677	-0.000118
1396	1.3880e+02	-15.5819	-47.337435	0.000203	2.026726	0.686674	-0.000081
1397	1.3890e+02	-15.6076	-47.430289	0.000233	2.330735	0.789675	-0.000093
1398	1.3900e+02	-15.6605	-47.551403	0.000304	3.040090	1.030010	-0.000122
1399	1.3910e+02	-15.7070	-47.624072	0.000182	1.824054	0.618006	-0.000073
1400	1.3920e+02	-15.7391	-47.733074	0.000274	2.736081	0.927009	-0.000110
1401	1.3930e+02	-15.7728	-47.821891	0.000223	2.229399	0.755341	-0.000089
1402	1.3940e+02	-15.8081	-47.943005	0.000304	3.040090	1.030010	-0.000122
1403	1.3950e+02	-15.8530	-48.052008	0.000274	2.736081	0.927009	-0.000110
1404	1.3960e+02	-15.8883	-48.128714	0.000193	1.925390	0.652340	-0.000077
1405	1.3970e+02	-15.9332	-48.265976	0.000345	3.445435	1.167345	-0.000138
1406	1.3980e+02	-15.9766	-48.318459	0.000132	1.317372	0.446338	-0.000053
1407	1.3990e+02	-16.0183	-48.415350	0.000243	2.432072	0.824008	-0.000097
1408	1.4000e+02	-16.0536	-48.548576	0.000334	3.344099	1.133011	-0.000134
1409	1.4010e+02	-16.1017	-48.621244	0.000182	1.824054	0.618006	-0.000073
1410	1.4020e+02	-16.1257	-48.770618	0.000375	3.749444	1.270346	-0.000150
1411	1.4029e+02	-16.1755	-48.839250	0.000172	1.722717	0.583672	-0.000069
1412	1.4039e+02	-16.2156	-48.964401	0.000314	3.141426	1.064344	-0.000126
1413	1.4049e+02	-16.2445	-49.061292	0.000243	2.432072	0.824008	-0.000097
1414	1.4059e+02	-16.2910	-49.105701	0.000111	1.114700	0.377670	-0.000045
1415	1.4069e+02	-16.3359	-49.218740	0.000284	2.837417	0.961343	-0.000114
1416	1.4079e+02	-16.3696	-49.311594	0.000233	2.330735	0.789675	-0.000093
1417	1.4089e+02	-16.4097	-49.416560	0.000263	2.634744	0.892676	-0.000105
1418	1.4099e+02	-16.4530	-49.525563	0.000274	2.736081	0.927009	-0.000110
1419	1.4109e+02	-16.4963	-49.646677	0.000304	3.040090	1.030010	-0.000122
1420	1.4119e+02	-16.5284	-49.735494	0.000223	2.229399	0.755341	-0.000089
1421	1.4129e+02	-16.5685	-49.832385	0.000243	2.432072	0.824008	-0.000097
1422	1.4139e+02	-16.6118	-49.933313	0.000253	2.533408	0.858342	-0.000101
1423	1.4149e+02	-16.6423	-50.022130	0.000223	2.229399	0.755341	-0.000089
1424	1.4159e+02	-16.6856	-50.135170	0.000284	2.837417	0.961343	-0.000114
1425	1.4169e+02	-16.7402	-50.260321	0.000314	3.141426	1.064344	-0.000126
1426	1.4179e+02	-16.7755	-50.312804	0.000132	1.317372	0.446338	-0.000053
1427	1.4189e+02	-16.8075	-50.433918	0.000304	3.040090	1.030010	-0.000122
1428	1.4199e+02	-16.8541	-50.534847	0.000253	2.533408	0.858342	-0.000101
1429	1.4209e+02	-16.8894	-50.627701	0.000233	2.330735	0.789675	-0.000093
1430	1.4219e+02	-16.9295	-50.712481	0.000213	2.128063	0.721007	-0.000085
1431	1.4228e+02	-16.9567	-50.873966	0.000405	4.053453	1.373347	-0.000162
1432	1.4238e+02	-17.0081	-50.922412	0.000122	1.216036	0.412004	-0.000049
1433	1.4248e+02	-17.0546	-51.007191	0.000213	2.128063	0.721007	-0.000085
1434	1.4258e+02	-17.0883	-51.116194	0.000274	2.736081	0.927009	-0.000110
1435	1.4268e+02	-17.1172	-51.277680	0.000405	4.053453	1.373347	-0.000162
1436	1.4278e+02	-17.1669	-51.366497	0.000223	2.229399	0.755341	-0.000089
1437	1.4288e+02	-17.2118	-51.459351	0.000233	2.330735	0.789675	-0.000093
1438	1.4298e+02	-17.2455	-51.552205	0.000233	2.330735	0.789675	-0.000093
1439	1.4308e+02	-17.2936	-51.624873	0.000182	1.824054	0.618006	-0.000073
1440	1.4318e+02	-17.3369	-51.798470	0.000436	4.357462	1.476348	-0.000174
1441	1.4328e+02	-17.3738	-51.871139	0.000182	1.824054	0.618006	-0.000073
1442	1.4338e+02	-17.4107	-51.955918	0.000213	2.128063	0.721007	-0.000085
1443	1.4348e+02	-17.4476	-52.077032	0.000304	3.040090	1.030010	-0.000122
1444	1.4358e+02	-17.4861	-52.133552	0.000142	1.418709	0.480671	-0.000057
1445	1.4368e+02	-17.5278	-52.254666	0.000304	3.040090	1.030010	-0.000122
1446	1.4378e+02	-17.5680	-52.335409	0.000203	2.026726	0.686674	-0.000081
1447	1.4388e+02	-17.6049	-52.444412	0.000274	2.736081	0.927009	-0.000110
1448	1.4398e+02	-17.6482	-52.541303	0.000243	2.432072	0.824008	-0.000097
1449	1.4408e+02	-17.6979	-52.694714	0.000385	3.850780	1.304680	-0.000154
1450	1.4418e+02	-17.7252	-52.735086	0.000101	1.013363	0.343337	-0.000041
1451	1.4428e+02	-17.7637	-52.864274	0.000324	3.242762	1.098678	-0.000130
1452	1.4437e+02	-17.8134	-52.945017	0.000203	2.026726	0.686674	-0.000081
1453	1.4447e+02	-17.8487	-53.078242	0.000334	3.344099	1.133011	-0.000134
1454	1.4457e+02	-17.8872	-53.138799	0.000152	1.520045	0.515005	-0.000061
1455	1.4467e+02	-17.9289	-53.235690	0.000243	2.432072	0.824008	-0.000097
1456	1.4477e+02	-17.9642	-53.376990	0.000355	3.546771	1.201679	-0.000142
1457	1.4487e+02	-18.0123	-53.449659	0.000182	1.824054	0.618006	-0.000073
1458	1.4497e+02	-18.0428	-53.522327	0.000182	1.824054	0.618006	-0.000073
1459	1.4507e+02	-18.0909	-53.663627	0.000355	3.546771	1.201679	-0.000142
1460	1.4517e+02	-18.1278	-53.744370	0.000203	2.026726	0.686674	-0.000081
1461	1.4527e+02	-18.1631	-53.861446	0.000294	2.938753	0.995677	-0.000118
1462	1.4537e+02	-18.2096	-53.930078	0.000172	1.722717	0.583672	-0.000069
1463	1.4547e+02	-18.2369	-54.063303	0.000334	3.344099	1.133011	-0.000134
1464	1.4557e+02	-18.2947	-54.160194	0.000243	2.432072	0.824008	-0.000097
1465	1.4567e+02	-18.3316	-54.261123	0.000253	2.533408	0.858342	-0.000101
1466	1.4577e+02	-18.3620	-54.337828	0.000193	1.925390	0.652340	-0.000077
1467	1.4587e+02	-18.4038	-54.462980	0.000314	3.141426	1.064344	-0.000126
1468	1.4597e+02	-18.4487	-54.559871	0.000243	2.432072	0.824008	-0.000097
1469	1.4607e+02	-18.4856	-54.636577	0.000193	1.925390	0.652340	-0.000077
1470	1.4617e+02	-18.5241	-54.721356	0.000213	2.128063	0.721007	-0.000085
1471	1.4626e+02	-18.5658	-54.830359	0.000274	2.736081	0.927009	-0.000110
1472	1.4636e+02	-18.6043	-54.935325	0.000263	2.634744	0.892676	-0.000105
1473	1.4646e+02	-18.6508	-55.020104	0.000213	2.128063	0.721007	-0.000085
1474	1.4656e+02	-18.6829	-55.149293	0.000324	3.242762	1.098678	-0.000130
1475	1.4666e+02	-18.7262	-55.221961	0.000182	1.824054	0.618006	-0.000073
1476	1.4676e+02	-18.7599	-55.314815	0.000233	2.330735	0.789675	-0.000093
1477	1.4686e+02	-18.8016	-55.419781	0.000263	2.634744	0.892676	-0.000105
1478	1.4696e+02	-18.8401	-55.492449	0.000182	1.824054	0.618006	-0.000073
1479	1.4706e+02	-18.8850	-55.625675	0.000334	3.344099	1.133011	-0.000134
1480	1.4716e+02	-18.9299	-55.706417	0.000203	2.026726	0.686674	-0.000081
1481	1.4726e+02	-18.9556	-55.799272	0.000233	2.330735	0.789675	-0.000093
1482	1.4736e+02	-19.0005	-55.916349	0.000294	2.938753	0.995677	-0.000118
1483	1.4746e+02	-19.0390	-56.009203	0.000233	2.330735	0.789675	-0.000093
1484	1.4756e+02	-19.0743	-56.130317	0.000304	3.040090	1.030010	-0.000122
1485	1.4766e+02	-19.1225	-56.202985	0.000182	1.824054	0.618006	-0.000073
1486	1.4776e+02	-19.1658	-56.299876	0.000243	2.432072	0.824008	-0.000097
1487	1.4786e+02	-19.2075	-56.420991	0.000304	3.040090	1.030010	-0.000122
1488	1.4796e+02	-19.2428	-56.517882	0.000243	2.432072	0.824008	-0.000097
1489	1.4806e+02	-19.2861	-56.610736	0.000233	2.330735	0.789675	-0.000093
1490	1.4816e+02	-19.3262	-56.703590	0.000233	2.330735	0.789675	-0.000093
1491	1.4825e+02	-19.3663	-56.804518	0.000253	2.533408	0.858342	-0.000101
1492	1.4835e+02	-19.3952	-56.905447	0.000253	2.533408	0.858342	-0.000101
1493	1.4845e+02	-19.4417	-56.978115	0.000182	1.824054	0.618006	-0.000073
1494	1.4855e+02	-19.4802	-57.091155	0.000284	2.837417	0.961343	-0.000114
1495	1.4865e+02	-19.5219	-57.196121	0.000263	2.634744	0.892676	-0.000105
1496	1.4875e+02	-19.5524	-57.284938	0.000223	2.229399	0.755341	-0.000089
1497	1.4885e+02	-19.5909	-57.393940	0.000274	2.736081	0.927009	-0.000110
1498	1.4895e+02	-19.6358	-57.502943	0.000274	2.736081	0.927009	-0.000110
1499	1.4905e+02	-19.6775	-57.599834	0.000243	2.432072	0.824008	-0.000097
1500	1.4915e+02	-19.7224	-57.700763	0.000253	2.533408	0.858342	-0.000101
1501	1.4925e+02	-19.7609	-57.805728	0.000263	2.634744	0.892676	-0.000105
1502	1.4935e+02	-19.8026	-57.902619	0.000243	2.432072	0.824008	-0.000097
1503	1.4945e+02	-19.8444	-57.963176	0.000152	1.520045	0.515005	-0.000061
1504	1.4955e+02	-19.8764	-58.096402	0.000334	3.344099	1.133011	-0.000134
1505	1.4965e+02	-19.9117	-58.136773	0.000101	1.013363	0.343337	-0.000041
1506	1.4975e+02	-19.9583	-58.290184	0.000385	3.850780	1.304680	-0.000154
1507	1.4985e+02	-20.0032	-58.366890	0.000193	1.925390	0.652340	-0.000077
1508	1.4995e+02	-19.9567	-58.302296	0.000162	1.621381	0.549339	0.000065
1509	1.5005e+02	-19.9053	-58.274036	0.000071	0.709354	0.240336	0.000028
1510	1.5015e+02	-19.8652	-58.136773	0.000345	3.445435	1.167345	0.000138
1511	1.5025e+02	-19.8395	-58.128699	0.000020	0.202673	0.068667	0.000008
1512	1.5034e+02	-19.8043	-58.072179	0.000142	1.418709	0.480671	0.000057
1513	1.5044e+02	-19.7577	-58.023733	0.000122	1.216036	0.412004	0.000049
1514	1.5054e+02	-19.7224	-57.934916	0.000223	2.229399	0.755341	0.000089
1515	1.5064e+02	-19.6727	-57.910694	0.000061	0.608018	0.206002	0.000024
1516	1.5074e+02	-19.6406	-57.781505	0.000324	3.242762	1.098678	0.000130
1517	1.5084e+02	-19.5989	-57.733060	0.000122	1.216036	0.412004	0.000049
1518	1.5094e+02	-19.5508	-57.688651	0.000111	1.114700	0.377670	0.000045
1519	1.5104e+02	-19.5219	-57.591760	0.000243	2.432072	0.824008	0.000097
1520	1.5114e+02	-19.4802	-57.527166	0.000162	1.621381	0.549339	0.000065
1521	1.5124e+02	-19.4385	-57.502943	0.000061	0.608018	0.206002	0.000024
1522	1.5134e+02	-19.4000	-57.402014	0.000253	2.533408	0.858342	0.000101
1523	1.5144e+02	-19.3535	-57.333383	0.000172	1.722717	0.583672	0.000069
1524	1.5154e+02	-19.3198	-57.248603	0.000213	2.128063	0.721007	0.000085
1525	1.5164e+02	-19.2845	-57.159786	0.000223	2.229399	0.755341	0.000089
1526	1.5174e+02	-19.2476	-57.107304	0.000132	1.317372	0.446338	0.000053
1527	1.5184e+02	-19.2043	-57.046747	0.000152	1.520045	0.515005	0.000061
1528	1.5194e+02	-19.1626	-56.982152	0.000162	1.621381	0.549339	0.000065
1529	1.5204e+02	-19.1128	-56.852964	0.000324	3.242762	1.098678	0.000130
1530	1.5214e+02	-19.0872	-56.812593	0.000101	1.013363	0.343337	0.000041
1531	1.5224e+02	-19.0519	-56.752036	0.000152	1.520045	0.515005	0.000061
1532	1.5233e+02	-19.0021	-56.643033	0.000274	2.736081	0.927009	0.000110
1533	1.5243e+02	-18.9604	-56.590550	0.000132	1.317372	0.446338	0.000053
1534	1.5253e+02	-18.9283	-56.513845	0.000193	1.925390	0.652340	0.000077
1535	1.5263e+02	-18.8786	-56.449250	0.000162	1.621381	0.549339	0.000065
1536	1.5273e+02	-18.8449	-56.372545	0.000193	1.925390	0.652340	0.000077
1537	1.5283e+02	-18.8048	-56.275654	0.000243	2.432072	0.824008	0.000097
1538	1.5293e+02	-18.7567	-56.239319	0.000091	0.912027	0.309003	0.000037
1539	1.5303e+02	-18.7214	-56.126280	0.000284	2.837417	0.961343	0.000114
1540	1.5313e+02	-18.6797	-56.057648	0.000172	1.722717	0.583672	0.000069
1541	1.5323e+02	-18.6380	-55.964794	0.000233	2.330735	0.789675	0.000093
1542	1.5333e+02	-18.6075	-55.896163	0.000172	1.722717	0.583672	0.000069
1543	1.5343e+02	-18.5626	-55.863866	0.000081	0.810691	0.274669	0.000032
1544	1.5353e+02	-18.5209	-55.726603	0.000345	3.445435	1.167345	0.000138
1545	1.5363e+02	-18.4920	-55.649898	0.000193	1.925390	0.652340	0.000077
1546	1.5373e+02	-18.4391	-55.581266	0.000172	1.722717	0.583672	0.000069
1547	1.5383e+02	-18.4054	-55.492449	0.000223	2.229399	0.755341	0.000089
1548	1.5393e+02	-18.3669	-55.464189	0.000071	0.709354	0.240336	0.000028
1549	1.5403e+02	-18.3284	-55.355187	0.000274	2.736081	0.927009	0.000110
1550	1.5413e+02	-18.2899	-55.306741	0.000122	1.216036	0.412004	0.000049
1551	1.5422e+02	-18.2449	-55.209850	0.000243	2.432072	0.824008	0.000097
1552	1.5432e+02	-18.2177	-55.141218	0.000172	1.722717	0.583672	0.000069
1553	1.5442e+02	-18.1679	-55.028179	0.000284	2.837417	0.961343	0.000114
1554	1.5452e+02	-18.1294	-54.987807	0.000101	1.013363	0.343337	0.000041
1555	1.5462e+02	-18.0845	-54.898990	0.000223	2.229399	0.755341	0.000089
1556	1.5472e+02	-18.0460	-54.806136	0.000233	2.330735	0.789675	0.000093
1557	1.5482e+02	-18.0011	-54.761728	0.000111	1.114700	0.377670	0.000045
1558	1.5492e+02	-17.9690	-54.672911	0.000223	2.229399	0.755341	0.000089
1559	1.5502e+02	-17.9225	-54.604279	0.000172	1.722717	0.583672	0.000069
1560	1.5512e+02	-17.8888	-54.511425	0.000233	2.330735	0.789675	0.000093
1561	1.5522e+02	-17.8519	-54.450868	0.000152	1.520045	0.515005	0.000061
1562	1.5532e+02	-17.8054	-54.313606	0.000345	3.445435	1.167345	0.000138
1563	1.5542e+02	-17.7685	-54.265160	0.000122	1.216036	0.412004	0.000049
1564	1.5552e+02	-17.7268	-54.184417	0.000203	2.026726	0.686674	0.000081
1565	1.5562e+02	-17.6851	-54.123860	0.000152	1.520045	0.515005	0.000061
1566	1.5572e+02	-17.6482	-54.059266	0.000162	1.621381	0.549339	0.000065
1567	1.5582e+02	-17.6049	-53.966412	0.000233	2.330735	0.789675	0.000093
1568	1.5592e+02	-17.5696	-53.877595	0.000223	2.229399	0.755341	0.000089
1569	1.5602e+02	-17.5262	-53.825112	0.000132	1.317372	0.446338	0.000053
1570	1.5612e+02	-17.4974	-53.732258	0.000233	2.330735	0.789675	0.000093
1571	1.5622e+02	-17.4460	-53.643441	0.000223	2.229399	0.755341	0.000089
1572	1.5631e+02	-17.4027	-53.546550	0.000243	2.432072	0.824008	0.000097
1573	1.5641e+02	-17.3706	-53.485993	0.000152	1.520045	0.515005	0.000061
1574	1.5651e+02	-17.3257	-53.381027	0.000263	2.634744	0.892676	0.000105
1575	1.5661e+02	-17.2952	-53.267987	0.000284	2.837417	0.961343	0.000114
1576	1.5671e+02	-17.2487	-53.235690	0.000081	0.810691	0.274669	0.000032
1577	1.5681e+02	-17.2022	-53.163022	0.000182	1.824054	0.618006	0.000073
1578	1.5691e+02	-17.1653	-53.074205	0.000223	2.229399	0.755341	0.000089
1579	1.5701e+02	-17.1220	-52.961165	0.000284	2.837417	0.961343	0.000114
1580	1.5711e+02	-17.0963	-52.888497	0.000182	1.824054	0.618006	0.000073
1581	1.5721e+02	-17.0450	-52.844088	0.000111	1.114700	0.377670	0.000045
1582	1.5731e+02	-17.0081	-52.771420	0.000182	1.824054	0.618006	0.000073
1583	1.5741e+02	-16.9760	-52.658380	0.000284	2.837417	0.961343	0.000114
1584	1.5751e+02	-16.9343	-52.618009	0.000101	1.013363	0.343337	0.000041
1585	1.5761e+02	-16.8894	-52.496895	0.000304	3.040090	1.030010	0.000122
1586	1.5771e+02	-16.8444	-52.440375	0.000142	1.418709	0.480671	0.000057
1587	1.5781e+02	-16.8075	-52.335409	0.000263	2.634744	0.892676	0.000105
1588	1.5791e+02	-16.7674	-52.270815	0.000162	1.621381	0.549339	0.000065
1589	1.5801e+02	-16.7305	-52.153738	0.000294	2.938753	0.995677	0.000118
1590	1.5811e+02	-16.6840	-52.109330	0.000111	1.114700	0.377670	0.000045
1591	1.5821e+02	-16.6503	-51.984178	0.000314	3.141426	1.064344	0.000126
1592	1.5830e+02	-16.6038	-51.895361	0.000223	2.229399	0.755341	0.000089
1593	1.5840e+02	-16.5669	-51.834804	0.000152	1.520045	0.515005	0.000061
1594	1.5850e+02	-16.5316	-51.778284	0.000142	1.418709	0.480671	0.000057
1595	1.5860e+02	-16.4867	-51.681393	0.000243	2.432072	0.824008	0.000097
1596	1.5870e+02	-16.4514	-51.636985	0.000111	1.114700	0.377670	0.000045
1597	1.5880e+02	-16.4113	-51.544131	0.000233	2.330735	0.789675	0.000093
1598	1.5890e+02	-16.3744	-51.451276	0.000233	2.330735	0.789675	0.000093
1599	1.5900e+02	-16.3215	-51.378608	0.000182	1.824054	0.618006	0.000073
1600	1.5910e+02	-16.2942	-51.309977	0.000172	1.722717	0.583672	0.000069
1601	1.5920e+02	-16.2477	-51.209048	0.000253	2.533408	0.858342	0.000101
1602	1.5930e+02	-16.2188	-51.116194	0.000233	2.330735	0.789675	0.000093
1603	1.5940e+02	-16.1723	-51.051600	0.000162	1.621381	0.549339	0.000065
1604	1.5950e+02	-16.1306	-50.954709	0.000243	2.432072	0.824008	0.000097
1605	1.5960e+02	-16.0969	-50.865892	0.000223	2.229399	0.755341	0.000089
1606	1.5970e+02	-16.0520	-50.777075	0.000223	2.229399	0.755341	0.000089
1607	1.5980e+02	-16.0070	-50.728629	0.000122	1.216036	0.412004	0.000049
1608	1.5990e+02	-15.9750	-50.603478	0.000314	3.141426	1.064344	0.000126
1609	1.6000e+02	-15.9348	-50.571181	0.000081	0.810691	0.274669	0.000032
1610	1.6010e+02	-15.8963	-50.466215	0.000263	2.634744	0.892676	0.000105
1611	1.6019e+02	-15.8594	-50.361250	0.000263	2.634744	0.892676	0.000105
1612	1.6029e+02	-15.8177	-50.256284	0.000263	2.634744	0.892676	0.000105
1613	1.6039e+02	-15.7792	-50.203801	0.000132	1.317372	0.446338	0.000053
1614	1.6049e+02	-15.7359	-50.123059	0.000203	2.026726	0.686674	0.000081
1615	1.6059e+02	-15.6846	-50.018093	0.000263	2.634744	0.892676	0.000105
1616	1.6069e+02	-15.6589	-49.933313	0.000213	2.128063	0.721007	0.000085
1617	1.6079e+02	-15.6092	-49.860645	0.000182	1.824054	0.618006	0.000073
1618	1.6089e+02	-15.5707	-49.763754	0.000243	2.432072	0.824008	0.000097
1619	1.6099e+02	-15.5322	-49.707234	0.000142	1.418709	0.480671	0.000057
1620	1.6109e+02	-15.4889	-49.602268	0.000263	2.634744	0.892676	0.000105
1621	1.6119e+02	-15.4616	-49.553823	0.000122	1.216036	0.412004	0.000049
1622	1.6129e+02	-15.4215	-49.481154	0.000182	1.824054	0.618006	0.000073
1623	1.6139e+02	-15.3830	-49.376189	0.000263	2.634744	0.892676	0.000105
1624	1.6149e+02	-15.3317	-49.267186	0.000274	2.736081	0.927009	0.000110
1625	1.6159e+02	-15.2980	-49.194518	0.000182	1.824054	0.618006	0.000073
1626	1.6169e+02	-15.2498	-49.109738	0.000213	2.128063	0.721007	0.000085
1627	1.6179e+02	-15.2178	-49.028995	0.000203	2.026726	0.686674	0.000081
1628	1.6189e+02	-15.1776	-48.915955	0.000284	2.837417	0.961343	0.000114
1629	1.6199e+02	-15.1359	-48.875584	0.000101	1.013363	0.343337	0.000041
1630	1.6209e+02	-15.0990	-48.746395	0.000324	3.242762	1.098678	0.000130
1631	1.6219e+02	-15.0670	-48.661616	0.000213	2.128063	0.721007	0.000085
1632	1.6228e+02	-15.0285	-48.568761	0.000233	2.330735	0.789675	0.000093
1633	1.6238e+02	-14.9916	-48.496093	0.000182	1.824054	0.618006	0.000073
1634	1.6248e+02	-14.9274	-48.370942	0.000314	3.141426	1.064344	0.000126
1635	1.6258e+02	-14.8937	-48.298273	0.000182	1.824054	0.618006	0.000073
1636	1.6268e+02	-14.8600	-48.241754	0.000142	1.418709	0.480671	0.000057
1637	1.6278e+02	-14.8199	-48.136788	0.000263	2.634744	0.892676	0.000105
1638	1.6288e+02	-14.7734	-48.027785	0.000274	2.736081	0.927009	0.000110
1639	1.6298e+02	-14.7365	-47.930894	0.000243	2.432072	0.824008	0.000097
1640	1.6308e+02	-14.6964	-47.862263	0.000172	1.722717	0.583672	0.000069
1641	1.6318e+02	-14.6579	-47.757297	0.000263	2.634744	0.892676	0.000105
1642	1.6328e+02	-14.6226	-47.672517	0.000213	2.128063	0.721007	0.000085
1643	1.6338e+02	-14.5761	-47.587738	0.000213	2.128063	0.721007	0.000085
1644	1.6348e+02	-14.5311	-47.519106	0.000172	1.722717	0.583672	0.000069
1645	1.6358e+02	-14.5007	-47.426252	0.000233	2.330735	0.789675	0.000093
1646	1.6368e+02	-14.4509	-47.337435	0.000223	2.229399	0.755341	0.000089
1647	1.6378e+02	-14.4124	-47.212284	0.000314	3.141426	1.064344	0.000126
1648	1.6388e+02	-14.3803	-47.135578	0.000193	1.925390	0.652340	0.000077
1649	1.6398e+02	-14.3434	-47.022539	0.000284	2.837417	0.961343	0.000114
1650	1.6408e+02	-14.3017	-46.865090	0.000395	3.952117	1.339013	0.000158
1651	1.6418e+02	-14.2536	-46.824719	0.000101	1.013363	0.343337	0.000041
1652	1.6427e+02	-14.2151	-46.784348	0.000101	1.013363	0.343337	0.000041
1653	1.6437e+02	-14.1959	-46.691493	0.000233	2.330735	0.789675	0.000093
1654	1.6447e+02	-14.1349	-46.558268	0.000334	3.344099	1.133011	0.000134
1655	1.6457e+02	-14.0932	-46.473488	0.000213	2.128063	0.721007	0.000085
1656	1.6467e+02	-14.0659	-46.396782	0.000193	1.925390	0.652340	0.000077
1657	1.6477e+02	-14.0178	-46.291817	0.000263	2.634744	0.892676	0.000105
1658	1.6487e+02	-13.9825	-46.198963	0.000233	2.330735	0.789675	0.000093
1659	1.6497e+02	-13.9440	-46.138406	0.000152	1.520045	0.515005	0.000061
1660	1.6507e+02	-13.9023	-46.029403	0.000274	2.736081	0.927009	0.000110
1661	1.6517e+02	-13.8606	-45.924438	0.000263	2.634744	0.892676	0.000105
1662	1.6527e+02	-13.8237	-45.827546	0.000243	2.432072	0.824008	0.000097
1663	1.6537e+02	-13.7900	-45.758915	0.000172	1.722717	0.583672	0.000069
1664	1.6547e+02	-13.7515	-45.657987	0.000253	2.533408	0.858342	0.000101
1665	1.6557e+02	-13.7066	-45.524761	0.000334	3.344099	1.133011	0.000134
1666	1.6567e+02	-13.6665	-45.431907	0.000233	2.330735	0.789675	0.000093
1667	1.6577e+02	-13.6231	-45.335016	0.000243	2.432072	0.824008	0.000097
1668	1.6587e+02	-13.5766	-45.234087	0.000253	2.533408	0.858342	0.000101
1669	1.6597e+02	-13.5397	-45.177567	0.000142	1.418709	0.480671	0.000057
1670	1.6607e+02	-13.4980	-45.024156	0.000385	3.850780	1.304680	0.000154
1671	1.6616e+02	-13.4643	-44.983785	0.000101	1.013363	0.343337	0.000041
1672	1.6626e+02	-13.4226	-44.870745	0.000284	2.837417	0.961343	0.000114
1673	1.6636e+02	-13.3905	-44.769817	0.000253	2.533408	0.858342	0.000101
1674	1.6646e+02	-13.3392	-44.681000	0.000223	2.229399	0.755341	0.000089
1675	1.6656e+02	-13.2959	-44.580071	0.000253	2.533408	0.858342	0.000101
1676	1.6666e+02	-13.2638	-44.446846	0.000334	3.344099	1.133011	0.000134
1677	1.6676e+02	-13.2237	-44.386289	0.000152	1.520045	0.515005	0.000061
1678	1.6686e+02	-13.1852	-44.293435	0.000233	2.330735	0.789675	0.000093
1679	1.6696e+02	-13.1451	-44.196543	0.000243	2.432072	0.824008	0.000097
1680	1.6706e+02	-13.1098	-44.051207	0.000365	3.648108	1.236012	0.000146
1681	1.6716e+02	-13.0697	-44.035058	0.000041	0.405345	0.137335	0.000016
1682	1.6726e+02	-13.0296	-43.885684	0.000375	3.749444	1.270346	0.000150
1683	1.6736e+02	-12.9847	-43.784756	0.000253	2.533408	0.858342	0.000101
1684	1.6746e+02	-12.9413	-43.695939	0.000223	2.229399	0.755341	0.000089
1685	1.6756e+02	-12.9028	-43.599047	0.000243	2.432072	0.824008	0.000097
1686	1.6766e+02	-12.8659	-43.498119	0.000253	2.533408	0.858342	0.000101
1687	1.6776e+02	-12.8323	-43.393153	0.000263	2.634744	0.892676	0.000105
1688	1.6786e+02	-12.7889	-43.280114	0.000284	2.837417	0.961343	0.000114
1689	1.6796e+02	-12.7392	-43.195334	0.000213	2.128063	0.721007	0.000085
1690	1.6806e+02	-12.7071	-43.110554	0.000213	2.128063	0.721007	0.000085
1691	1.6816e+02	-12.6686	-43.001551	0.000274	2.736081	0.927009	0.000110
1692	1.6825e+02	-12.6269	-42.928883	0.000182	1.824054	0.618006	0.000073
1693	1.6835e+02	-12.5948	-42.827954	0.000253	2.533408	0.858342	0.000101
1694	1.6845e+02	-12.5435	-42.710878	0.000294	2.938753	0.995677	0.000118
1695	1.6855e+02	-12.5114	-42.642246	0.000172	1.722717	0.583672	0.000069
1696	1.6865e+02	-12.4681	-42.492872	0.000375	3.749444	1.270346	0.000150
1697	1.6875e+02	-12.4312	-42.424241	0.000172	1.722717	0.583672	0.000069
1698	1.6885e+02	-12.3847	-42.307164	0.000294	2.938753	0.995677	0.000118
1699	1.6895e+02	-12.3510	-42.266793	0.000101	1.013363	0.343337	0.000041
1700	1.6905e+02	-12.3077	-42.133567	0.000334	3.344099	1.133011	0.000134
1701	1.6915e+02	-12.2724	-41.996305	0.000345	3.445435	1.167345	0.000138
1702	1.6925e+02	-12.2243	-41.943822	0.000132	1.317372	0.446338	0.000053
1703	1.6935e+02	-12.1906	-41.830782	0.000284	2.837417	0.961343	0.000114
1704	1.6945e+02	-12.1569	-41.701594	0.000324	3.242762	1.098678	0.000130
1705	1.6955e+02	-12.1136	-41.592591	0.000274	2.736081	0.927009	0.000110
1706	1.6965e+02	-12.0735	-41.507811	0.000213	2.128063	0.721007	0.000085
1707	1.6975e+02	-12.0285	-41.406883	0.000253	2.533408	0.858342	0.000101
1708	1.6985e+02	-11.9900	-41.289806	0.000294	2.938753	0.995677	0.000118
1709	1.6995e+02	-11.9531	-41.229249	0.000152	1.520045	0.515005	0.000061
1710	1.7005e+02	-11.9114	-41.096023	0.000334	3.344099	1.133011	0.000134
1711	1.7015e+02	-11.8793	-40.982983	0.000284	2.837417	0.961343	0.000114
1712	1.7024e+02	-11.8264	-40.857832	0.000314	3.141426	1.064344	0.000126
1713	1.7034e+02	-11.7895	-40.805349	0.000132	1.317372	0.446338	0.000053
1714	1.7044e+02	-11.7446	-40.684235	0.000304	3.040090	1.030010	0.000122
1715	1.7054e+02	-11.7077	-40.571196	0.000284	2.837417	0.961343	0.000114
1716	1.7064e+02	-11.6692	-40.490453	0.000203	2.026726	0.686674	0.000081
1717	1.7074e+02	-11.6339	-40.373376	0.000294	2.938753	0.995677	0.000118
1718	1.7084e+02	-11.5938	-40.300708	0.000182	1.824054	0.618006	0.000073
1719	1.7094e+02	-11.5505	-40.147296	0.000385	3.850780	1.304680	0.000154
1720	1.7104e+02	-11.5120	-40.074628	0.000182	1.824054	0.618006	0.000073
1721	1.7114e+02	-11.4735	-39.993885	0.000203	2.026726	0.686674	0.000081
1722	1.7124e+02	-11.4270	-39.868734	0.000314	3.141426	1.064344	0.000126
1723	1.7134e+02	-11.3901	-39.792028	0.000193	1.925390	0.652340	0.000077
1724	1.7144e+02	-11.3596	-39.703211	0.000223	2.229399	0.755341	0.000089
1725	1.7154e+02	-11.3195	-39.569986	0.000334	3.344099	1.133011	0.000134
1726	1.7164e+02	-11.2874	-39.505392	0.000162	1.621381	0.549339	0.000065
1727	1.7174e+02	-11.2312	-39.356018	0.000375	3.749444	1.270346	0.000150
1728	1.7184e+02	-11.1943	-39.291424	0.000162	1.621381	0.549339	0.000065
1729	1.7194e+02	-11.1590	-39.182421	0.000274	2.736081	0.927009	0.000110
1730	1.7204e+02	-11.1125	-39.069381	0.000284	2.837417	0.961343	0.000114
1731	1.7213e+02	-11.0804	-38.960378	0.000274	2.736081	0.927009	0.000110
1732	1.7223e+02	-11.0323	-38.843302	0.000294	2.938753	0.995677	0.000118
1733	1.7233e+02	-10.9938	-38.790819	0.000132	1.317372	0.446338	0.000053
1734	1.7243e+02	-10.9617	-38.645482	0.000365	3.648108	1.236012	0.000146
1735	1.7253e+02	-10.9040	-38.544553	0.000253	2.533408	0.858342	0.000101
1736	1.7263e+02	-10.8799	-38.447662	0.000243	2.432072	0.824008	0.000097
1737	1.7273e+02	-10.8350	-38.379031	0.000172	1.722717	0.583672	0.000069
1738	1.7283e+02	-10.7981	-38.282140	0.000243	2.432072	0.824008	0.000097
1739	1.7293e+02	-10.7500	-38.120654	0.000405	4.053453	1.373347	0.000162
1740	1.7303e+02	-10.7147	-38.023763	0.000243	2.432072	0.824008	0.000097
1741	1.7313e+02	-10.6746	-37.943020	0.000203	2.026726	0.686674	0.000081
1742	1.7323e+02	-10.6329	-37.821906	0.000304	3.040090	1.030010	0.000122
1743	1.7333e+02	-10.5944	-37.716941	0.000263	2.634744	0.892676	0.000105
1744	1.7343e+02	-10.5494	-37.680606	0.000091	0.912027	0.309003	0.000037
1745	1.7353e+02	-10.5190	-37.507010	0.000436	4.357462	1.476348	0.000174
1746	1.7363e+02	-10.4740	-37.414155	0.000233	2.330735	0.789675	0.000093
1747	1.7373e+02	-10.4339	-37.321301	0.000233	2.330735	0.789675	0.000093
1748	1.7383e+02	-10.3922	-37.240559	0.000203	2.026726	0.686674	0.000081
1749	1.7393e+02	-10.3569	-37.119445	0.000304	3.040090	1.030010	0.000122
1750	1.7403e+02	-10.3152	-37.002368	0.000294	2.938753	0.995677	0.000118
1751	1.7413e+02	-10.2799	-36.897402	0.000263	2.634744	0.892676	0.000105
1752	1.7422e+02	-10.2350	-36.804548	0.000233	2.330735	0.789675	0.000093
1753	1.7432e+02	-10.2013	-36.691508	0.000284	2.837417	0.961343	0.000114
1754	1.7442e+02	-10.1564	-36.590580	0.000253	2.533408	0.858342	0.000101
1755	1.7452e+02	-10.1147	-36.501763	0.000223	2.229399	0.755341	0.000089
1756	1.7462e+02	-10.0698	-36.412946	0.000223	2.229399	0.755341	0.000089
1757	1.7472e+02	-10.0361	-36.267609	0.000365	3.648108	1.236012	0.000146
1758	1.7482e+02	-9.9880	-36.194940	0.000182	1.824054	0.618006	0.000073
1759	1.7492e+02	-9.9559	-36.081901	0.000284	2.837417	0.961343	0.000114
1760	1.7502e+02	-9.9126	-35.944638	0.000345	3.445435	1.167345	0.000138
1761	1.7512e+02	-9.8773	-35.900230	0.000111	1.114700	0.377670	0.000045
1762	1.7522e+02	-9.8388	-35.762967	0.000345	3.445435	1.167345	0.000138
1763	1.7532e+02	-9.7922	-35.629741	0.000334	3.344099	1.133011	0.000134
1764	1.7542e+02	-9.7505	-35.536887	0.000233	2.330735	0.789675	0.000093
1765	1.7552e+02	-9.7281	-35.444033	0.000233	2.330735	0.789675	0.000093
1766	1.7562e+02	-9.6767	-35.326956	0.000294	2.938753	0.995677	0.000118
1767	1.7572e+02	-9.6382	-35.213916	0.000284	2.837417	0.961343	0.000114
1768	1.7582e+02	-9.6045	-35.133174	0.000203	2.026726	0.686674	0.000081
1769	1.7592e+02	-9.5692	-35.040320	0.000233	2.330735	0.789675	0.000093
1770	1.7602e+02	-9.5227	-34.971688	0.000172	1.722717	0.583672	0.000069
1771	1.7612e+02	-9.4778	-34.834426	0.000345	3.445435	1.167345	0.000138
1772	1.7621e+02	-9.4393	-34.705237	0.000324	3.242762	1.098678	0.000130
1773	1.7631e+02	-9.4120	-34.604309	0.000253	2.533408	0.858342	0.000101
1774	1.7641e+02	-9.3623	-34.503381	0.000253	2.533408	0.858342	0.000101
1775	1.7651e+02	-9.3270	-34.390341	0.000284	2.837417	0.961343	0.000114
1776	1.7661e+02	-9.2725	-34.289412	0.000253	2.533408	0.858342	0.000101
1777	1.7671e+02	-9.2404	-34.180410	0.000274	2.736081	0.927009	0.000110
1778	1.7681e+02	-9.2019	-34.071407	0.000274	2.736081	0.927009	0.000110
1779	1.7691e+02	-9.1570	-33.970479	0.000253	2.533408	0.858342	0.000101
1780	1.7701e+02	-9.1120	-33.873587	0.000243	2.432072	0.824008	0.000097
1781	1.7711e+02	-9.0880	-33.736325	0.000345	3.445435	1.167345	0.000138
1782	1.7721e+02	-9.0463	-33.607136	0.000324	3.242762	1.098678	0.000130
1783	1.7731e+02	-8.9997	-33.506208	0.000253	2.533408	0.858342	0.000101
1784	1.7741e+02	-8.9645	-33.425465	0.000203	2.026726	0.686674	0.000081
1785	1.7751e+02	-8.9179	-33.336648	0.000223	2.229399	0.755341	0.000089
1786	1.7761e+02	-8.8810	-33.243794	0.000233	2.330735	0.789675	0.000093
1787	1.7771e+02	-8.8377	-33.098457	0.000365	3.648108	1.236012	0.000146
1788	1.7781e+02	-8.7992	-32.985418	0.000284	2.837417	0.961343	0.000114
1789	1.7791e+02	-8.7607	-32.864303	0.000304	3.040090	1.030010	0.000122
1790	1.7801e+02	-8.7174	-32.807784	0.000142	1.418709	0.480671	0.000057
1791	1.7810e+02	-8.6933	-32.702818	0.000263	2.634744	0.892676	0.000105
1792	1.7820e+02	-8.6468	-32.545370	0.000395	3.952117	1.339013	0.000158
1793	1.7830e+02	-8.5955	-32.452516	0.000233	2.330735	0.789675	0.000093
1794	1.7840e+02	-8.5698	-32.375810	0.000193	1.925390	0.652340	0.000077
1795	1.7850e+02	-8.5233	-32.202213	0.000436	4.357462	1.476348	0.000174
1796	1.7860e+02	-8.4832	-32.141656	0.000152	1.520045	0.515005	0.000061
1797	1.7870e+02	-8.4447	-32.000356	0.000355	3.546771	1.201679	0.000142
1798	1.7880e+02	-8.3982	-31.883279	0.000294	2.938753	0.995677	0.000118
1799	1.7890e+02	-8.3613	-31.798500	0.000213	2.128063	0.721007	0.000085
1800	1.7900e+02	-8.3260	-31.637014	0.000405	4.053453	1.373347	0.000162
1801	1.7910e+02	-8.2875	-31.552234	0.000213	2.128063	0.721007	0.000085
1802	1.7920e+02	-8.2409	-31.414972	0.000345	3.445435	1.167345	0.000138
1803	1.7930e+02	-8.2008	-31.330192	0.000213	2.128063	0.721007	0.000085
1804	1.7940e+02	-8.1688	-31.233301	0.000243	2.432072	0.824008	0.000097
1805	1.7950e+02	-8.1190	-31.100075	0.000334	3.344099	1.133011	0.000134
1806	1.7960e+02	-8.0869	-30.962813	0.000345	3.445435	1.167345	0.000138
1807	1.7970e+02	-8.0404	-30.873996	0.000223	2.229399	0.755341	0.000089
1808	1.7980e+02	-8.0196	-30.740770	0.000334	3.344099	1.133011	0.000134
1809	1.7990e+02	-7.9698	-30.660027	0.000203	2.026726	0.686674	0.000081
1810	1.8000e+02	-7.9297	-30.522765	0.000345	3.445435	1.167345	0.000138
1811	1.8009e+02	-7.8768	-30.417799	0.000263	2.634744	0.892676	0.000105
1812	1.8019e+02	-7.8351	-30.272462	0.000365	3.648108	1.236012	0.000146
1813	1.8029e+02	-7.8046	-30.187682	0.000213	2.128063	0.721007	0.000085
1814	1.8039e+02	-7.7613	-30.070606	0.000294	2.938753	0.995677	0.000118
1815	1.8049e+02	-7.7388	-29.913157	0.000395	3.952117	1.339013	0.000158
1816	1.8059e+02	-7.6875	-29.856637	0.000142	1.418709	0.480671	0.000057
1817	1.8069e+02	-7.6442	-29.691115	0.000415	4.154789	1.407681	0.000166
1818	1.8079e+02	-7.6089	-29.586149	0.000263	2.634744	0.892676	0.000105
1819	1.8089e+02	-7.5672	-29.501369	0.000213	2.128063	0.721007	0.000085
1820	1.8099e+02	-7.5303	-29.384292	0.000294	2.938753	0.995677	0.000118
1821	1.8109e+02	-7.4934	-29.226844	0.000395	3.952117	1.339013	0.000158
1822	1.8119e+02	-7.4468	-29.121879	0.000263	2.634744	0.892676	0.000105
1823	1.8129e+02	-7.4051	-28.988653	0.000334	3.344099	1.133011	0.000134
1824	1.8139e+02	-7.3634	-28.911948	0.000193	1.925390	0.652340	0.000077
1825	1.8149e+02	-7.3217	-28.790834	0.000304	3.040090	1.030010	0.000122
1826	1.8159e+02	-7.2928	-28.661645	0.000324	3.242762	1.098678	0.000130
1827	1.8169e+02	-7.2527	-28.536494	0.000314	3.141426	1.064344	0.000126
1828	1.8179e+02	-7.2078	-28.399231	0.000345	3.445435	1.167345	0.000138
1829	1.8189e+02	-7.1613	-28.298303	0.000253	2.533408	0.858342	0.000101
1830	1.8199e+02	-7.1244	-28.185263	0.000284	2.837417	0.961343	0.000114
1831	1.8209e+02	-7.0907	-28.039926	0.000365	3.648108	1.236012	0.000146
1832	1.8218e+02	-7.0394	-27.922849	0.000294	2.938753	0.995677	0.000118
1833	1.8228e+02	-7.0089	-27.829995	0.000233	2.330735	0.789675	0.000093
1834	1.8238e+02	-6.9704	-27.676584	0.000385	3.850780	1.304680	0.000154
1835	1.8248e+02	-6.9319	-27.523173	0.000385	3.850780	1.304680	0.000154
1836	1.8258e+02	-6.8966	-27.406096	0.000294	2.938753	0.995677	0.000118
1837	1.8268e+02	-6.8517	-27.333428	0.000182	1.824054	0.618006	0.000073
1838	1.8278e+02	-6.8148	-27.224425	0.000274	2.736081	0.927009	0.000110
1839	1.8288e+02	-6.7634	-27.062939	0.000405	4.053453	1.373347	0.000162
1840	1.8298e+02	-6.7330	-26.933751	0.000324	3.242762	1.098678	0.000130
1841	1.8308e+02	-6.6913	-26.784377	0.000375	3.749444	1.270346	0.000150
1842	1.8318e+02	-6.6511	-26.711709	0.000182	1.824054	0.618006	0.000073
1843	1.8328e+02	-6.6159	-26.574446	0.000345	3.445435	1.167345	0.000138
1844	1.8338e+02	-6.5758	-26.461406	0.000284	2.837417	0.961343	0.000114
1845	1.8348e+02	-6.5276	-26.348366	0.000284	2.837417	0.961343	0.000114
1846	1.8358e+02	-6.4907	-26.182844	0.000415	4.154789	1.407681	0.000166
1847	1.8368e+02	-6.4474	-26.085953	0.000243	2.432072	0.824008	0.000097
1848	1.8378e+02	-6.4089	-25.932541	0.000385	3.850780	1.304680	0.000154
1849	1.8388e+02	-6.3816	-25.855836	0.000193	1.925390	0.652340	0.000077
1850	1.8398e+02	-6.3399	-25.730685	0.000314	3.141426	1.064344	0.000126
1851	1.8407e+02	-6.2934	-25.613608	0.000294	2.938753	0.995677	0.000118
1852	1.8417e+02	-6.2517	-25.452122	0.000405	4.053453	1.373347	0.000162
1853	1.8427e+02	-6.2148	-25.351194	0.000253	2.533408	0.858342	0.000101
1854	1.8437e+02	-6.1715	-25.234117	0.000294	2.938753	0.995677	0.000118
1855	1.8447e+02	-6.1394	-25.100891	0.000334	3.344099	1.133011	0.000134
1856	1.8457e+02	-6.0961	-24.963629	0.000345	3.445435	1.167345	0.000138
1857	1.8467e+02	-6.0576	-24.846552	0.000294	2.938753	0.995677	0.000118
1858	1.8477e+02	-6.0143	-24.717364	0.000324	3.242762	1.098678	0.000130
1859	1.8487e+02	-5.9806	-24.584138	0.000334	3.344099	1.133011	0.000134
1860	1.8497e+02	-5.9357	-24.471098	0.000284	2.837417	0.961343	0.000114
1861	1.8507e+02	-5.8988	-24.329799	0.000355	3.546771	1.201679	0.000142
1862	1.8517e+02	-5.8571	-24.184462	0.000365	3.648108	1.236012	0.000146
1863	1.8527e+02	-5.8153	-24.083533	0.000253	2.533408	0.858342	0.000101
1864	1.8537e+02	-5.7688	-23.958382	0.000314	3.141426	1.064344	0.000126
1865	1.8547e+02	-5.7351	-23.780748	0.000446	4.458798	1.510682	0.000179
1866	1.8557e+02	-5.6950	-23.667708	0.000284	2.837417	0.961343	0.000114
1867	1.8567e+02	-5.6645	-23.562743	0.000263	2.634744	0.892676	0.000105
1868	1.8577e+02	-5.6116	-23.397220	0.000415	4.154789	1.407681	0.000166
1869	1.8587e+02	-5.5715	-23.304366	0.000233	2.330735	0.789675	0.000093
1870	1.8597e+02	-5.5346	-23.159029	0.000365	3.648108	1.236012	0.000146
1871	1.8606e+02	-5.4977	-23.050026	0.000274	2.736081	0.927009	0.000110
1872	1.8616e+02	-5.4560	-22.945061	0.000263	2.634744	0.892676	0.000105
1873	1.8626e+02	-5.4239	-22.759353	0.000466	4.661471	1.579349	0.000187
1874	1.8636e+02	-5.3838	-22.638239	0.000304	3.040090	1.030010	0.000122
1875	1.8646e+02	-5.3453	-22.521162	0.000294	2.938753	0.995677	0.000118
1876	1.8656e+02	-5.2811	-22.379862	0.000355	3.546771	1.201679	0.000142
1877	1.8666e+02	-5.2603	-22.250674	0.000324	3.242762	1.098678	0.000130
1878	1.8676e+02	-5.2154	-22.145708	0.000263	2.634744	0.892676	0.000105
1879	1.8686e+02	-5.1897	-21.992297	0.000385	3.850780	1.304680	0.000154
1880	1.8696e+02	-5.1512	-21.887331	0.000263	2.634744	0.892676	0.000105
1881	1.8706e+02	-5.0918	-21.737957	0.000375	3.749444	1.270346	0.000150
1882	1.8716e+02	-5.0533	-21.600695	0.000345	3.445435	1.167345	0.000138
1883	1.8726e+02	-5.0180	-21.459395	0.000355	3.546771	1.201679	0.000142
1884	1.8736e+02	-4.9731	-21.362504	0.000243	2.432072	0.824008	0.000097
1885	1.8746e+02	-4.9378	-21.213130	0.000375	3.749444	1.270346	0.000150
1886	1.8756e+02	-4.8977	-21.079904	0.000334	3.344099	1.133011	0.000134
1887	1.8766e+02	-4.8560	-20.938605	0.000355	3.546771	1.201679	0.000142
1888	1.8776e+02	-4.8255	-20.797305	0.000355	3.546771	1.201679	0.000142
1889	1.8786e+02	-4.7758	-20.696376	0.000253	2.533408	0.858342	0.000101
1890	1.8796e+02	-4.7389	-20.538928	0.000395	3.952117	1.339013	0.000158
1891	1.8806e+02	-4.6892	-20.417814	0.000304	3.040090	1.030010	0.000122
1892	1.8815e+02	-4.6683	-20.292663	0.000314	3.141426	1.064344	0.000126
1893	1.8825e+02	-4.6154	-20.155400	0.000345	3.445435	1.167345	0.000138
1894	1.8835e+02	-4.5913	-20.022175	0.000334	3.344099	1.133011	0.000134
1895	1.8845e+02	-4.5480	-19.880875	0.000355	3.546771	1.201679	0.000142
1896	1.8855e+02	-4.4951	-19.771872	0.000274	2.736081	0.927009	0.000110
1897	1.8865e+02	-4.4598	-19.670944	0.000253	2.533408	0.858342	0.000101
1898	1.8875e+02	-4.4293	-19.533681	0.000345	3.445435	1.167345	0.000138
1899	1.8885e+02	-4.3860	-19.364122	0.000426	4.256126	1.442014	0.000170
1900	1.8895e+02	-4.3427	-19.222822	0.000355	3.546771	1.201679	0.000142
1901	1.8905e+02	-4.2993	-19.061336	0.000405	4.053453	1.373347	0.000162
1902	1.8915e+02	-4.2624	-18.960408	0.000253	2.533408	0.858342	0.000101
1903	1.8925e+02	-4.2191	-18.827183	0.000334	3.344099	1.133011	0.000134
1904	1.8935e+02	-4.1870	-18.722217	0.000263	2.634744	0.892676	0.000105
1905	1.8945e+02	-4.1485	-18.548620	0.000436	4.357462	1.476348	0.000174
1906	1.8955e+02	-4.1052	-18.431543	0.000294	2.938753	0.995677	0.000118
1907	1.8965e+02	-4.0555	-18.282169	0.000375	3.749444	1.270346	0.000150
1908	1.8975e+02	-4.0266	-18.165092	0.000294	2.938753	0.995677	0.000118
1909	1.8985e+02	-3.9817	-18.015718	0.000375	3.749444	1.270346	0.000150
1910	1.8995e+02	-3.9448	-17.890567	0.000314	3.141426	1.064344	0.000126
1911	1.9004e+02	-3.9095	-17.761379	0.000324	3.242762	1.098678	0.000130
1912	1.9014e+02	-3.8614	-17.612005	0.000375	3.749444	1.270346	0.000150
1913	1.9024e+02	-3.8229	-17.490891	0.000304	3.040090	1.030010	0.000122
1914	1.9034e+02	-3.7876	-17.329405	0.000405	4.053453	1.373347	0.000162
1915	1.9044e+02	-3.7459	-17.208291	0.000304	3.040090	1.030010	0.000122
1916	1.9054e+02	-3.6913	-17.054880	0.000385	3.850780	1.304680	0.000154
1917	1.9064e+02	-3.6769	-16.925692	0.000324	3.242762	1.098678	0.000130
1918	1.9074e+02	-3.6256	-16.804578	0.000304	3.040090	1.030010	0.000122
1919	1.9084e+02	-3.5903	-16.663278	0.000355	3.546771	1.201679	0.000142
1920	1.9094e+02	-3.5502	-16.521978	0.000355	3.546771	1.201679	0.000142
1921	1.9104e+02	-3.5036	-16.380678	0.000355	3.546771	1.201679	0.000142
1922	1.9114e+02	-3.4667	-16.247453	0.000334	3.344099	1.133011	0.000134
1923	1.9124e+02	-3.4266	-16.102116	0.000365	3.648108	1.236012	0.000146
1924	1.9134e+02	-3.3897	-15.985039	0.000294	2.938753	0.995677	0.000118
1925	1.9144e+02	-3.3545	-15.839702	0.000365	3.648108	1.236012	0.000146
1926	1.9154e+02	-3.3111	-15.690328	0.000375	3.749444	1.270346	0.000150
1927	1.9164e+02	-3.2726	-15.540954	0.000375	3.749444	1.270346	0.000150
1928	1.9174e+02	-3.2261	-15.423877	0.000294	2.938753	0.995677	0.000118
1929	1.9184e+02	-3.1812	-15.266429	0.000395	3.952117	1.339013	0.000158
1930	1.9194e+02	-3.1507	-15.185686	0.000203	2.026726	0.686674	0.000081
1931	1.9203e+02	-3.1010	-15.008052	0.000446	4.458798	1.510682	0.000179
1932	1.9213e+02	-3.0625	-14.874827	0.000334	3.344099	1.133011	0.000134
1933	1.9223e+02	-3.0288	-14.737564	0.000345	3.445435	1.167345	0.000138
1934	1.9233e+02	-2.9983	-14.576079	0.000405	4.053453	1.373347	0.000162
1935	1.9243e+02	-2.9518	-14.479187	0.000243	2.432072	0.824008	0.000097
1936	1.9253e+02	-2.9085	-14.341925	0.000345	3.445435	1.167345	0.000138
1937	1.9263e+02	-2.8716	-14.172365	0.000426	4.256126	1.442014	0.000170
1938	1.9273e+02	-2.8234	-14.022991	0.000375	3.749444	1.270346	0.000150
1939	1.9283e+02	-2.7866	-13.869580	0.000385	3.850780	1.304680	0.000154
1940	1.9293e+02	-2.7481	-13.752503	0.000294	2.938753	0.995677	0.000118
1941	1.9303e+02	-2.6999	-13.607166	0.000365	3.648108	1.236012	0.000146
1942	1.9313e+02	-2.6727	-13.482015	0.000314	3.141426	1.064344	0.000126
1943	1.9323e+02	-2.6277	-13.340715	0.000355	3.546771	1.201679	0.000142
1944	1.9333e+02	-2.5876	-13.187304	0.000385	3.850780	1.304680	0.000154
1945	1.9343e+02	-2.5491	-13.021781	0.000415	4.154789	1.407681	0.000166
1946	1.9353e+02	-2.5042	-12.860296	0.000405	4.053453	1.373347	0.000162
1947	1.9363e+02	-2.4705	-12.747256	0.000284	2.837417	0.961343	0.000114
1948	1.9373e+02	-2.4240	-12.581734	0.000415	4.154789	1.407681	0.000166
1949	1.9383e+02	-2.3935	-12.464657	0.000294	2.938753	0.995677	0.000118
1950	1.9393e+02	-2.3486	-12.307208	0.000395	3.952117	1.339013	0.000158
1951	1.9403e+02	-2.3149	-12.165909	0.000355	3.546771	1.201679	0.000142
1952	1.9412e+02	-2.2572	-12.024609	0.000355	3.546771	1.201679	0.000142
1953	1.9422e+02	-2.2379	-11.846975	0.000446	4.458798	1.510682	0.000179
1954	1.9432e+02	-2.1914	-11.717786	0.000324	3.242762	1.098678	0.000130
1955	1.9442e+02	-2.1529	-11.604747	0.000284	2.837417	0.961343	0.000114
1956	1.9452e+02	-2.1015	-11.423076	0.000456	4.560135	1.545015	0.000183
1957	1.9462e+02	-2.0743	-11.285813	0.000345	3.445435	1.167345	0.000138
1958	1.9472e+02	-2.0294	-11.128365	0.000395	3.952117	1.339013	0.000158
1959	1.9482e+02	-1.9925	-10.974954	0.000385	3.850780	1.304680	0.000154
1960	1.9492e+02	-1.9524	-10.837691	0.000345	3.445435	1.167345	0.000138
1961	1.9502e+02	-1.9090	-10.668131	0.000426	4.256126	1.442014	0.000170
1962	1.9512e+02	-1.8689	-10.534906	0.000334	3.344099	1.133011	0.000134
1963	1.9522e+02	-1.8288	-10.417829	0.000294	2.938753	0.995677	0.000118
1964	1.9532e+02	-1.7823	-10.232121	0.000466	4.661471	1.579349	0.000187
1965	1.9542e+02	-1.7534	-10.086784	0.000365	3.648108	1.236012	0.000146
1966	1.9552e+02	-1.7101	-9.957595	0.000324	3.242762	1.098678	0.000130
1967	1.9562e+02	-1.6684	-9.767850	0.000476	4.762807	1.613683	0.000191
1968	1.9572e+02	-1.6299	-9.654810	0.000284	2.837417	0.961343	0.000114
1969	1.9582e+02	-1.5866	-9.493325	0.000405	4.053453	1.373347	0.000162
1970	1.9592e+02	-1.5609	-9.335876	0.000395	3.952117	1.339013	0.000158
1971	1.9601e+02	-1.5064	-9.202651	0.000334	3.344099	1.133011	0.000134
1972	1.9611e+02	-1.4759	-9.037128	0.000415	4.154789	1.407681	0.000166
1973	1.9621e+02	-1.4358	-8.839309	0.000497	4.965480	1.682350	0.000199
1974	1.9631e+02	-1.3909	-8.726269	0.000284	2.837417	0.961343	0.000114
1975	1.9641e+02	-1.3556	-8.605155	0.000304	3.040090	1.030010	0.000122
1976	1.9651e+02	-1.3155	-8.419447	0.000466	4.661471	1.579349	0.000187
1977	1.9661e+02	-1.2770	-8.253924	0.000415	4.154789	1.407681	0.000166
1978	1.9671e+02	-1.2337	-8.108587	0.000365	3.648108	1.236012	0.000146
1979	1.9681e+02	-1.1919	-7.934990	0.000436	4.357462	1.476348	0.000174
1980	1.9691e+02	-1.1567	-7.793691	0.000355	3.546771	1.201679	0.000142
1981	1.9701e+02	-1.1149	-7.648354	0.000365	3.648108	1.236012	0.000146
1982	1.9711e+02	-1.0700	-7.466683	0.000456	4.560135	1.545015	0.000183
1983	1.9721e+02	-1.0347	-7.329420	0.000345	3.445435	1.167345	0.000138
1984	1.9731e+02	-0.9962	-7.176009	0.000385	3.850780	1.304680	0.000154
1985	1.9741e+02	-0.9481	-6.990301	0.000466	4.661471	1.579349	0.000187
1986	1.9751e+02	-0.9128	-6.836889	0.000385	3.850780	1.304680	0.000154
1987	1.9761e+02	-0.8727	-6.703664	0.000334	3.344099	1.133011	0.000134
1988	1.9771e+02	-0.8278	-6.530067	0.000436	4.357462	1.476348	0.000174
1989	1.9781e+02	-0.8005	-6.392804	0.000345	3.445435	1.167345	0.000138
1990	1.9791e+02	-0.7524	-6.199022	0.000486	4.864143	1.648016	0.000195
1991	1.9800e+02	-0.7139	-6.069834	0.000324	3.242762	1.098678	0.000130
1992	1.9810e+02	-0.6674	-5.928534	0.000355	3.546771	1.201679	0.000142
1993	1.9820e+02	-0.6385	-5.730714	0.000497	4.965480	1.682350	0.000199
1994	1.9830e+02	-0.5904	-5.569229	0.000405	4.053453	1.373347	0.000162
1995	1.9840e+02	-0.5519	-5.411780	0.000395	3.952117	1.339013	0.000158
1996	1.9850e+02	-0.5150	-5.250295	0.000405	4.053453	1.373347	0.000162
1997	1.9860e+02	-0.4684	-5.096884	0.000385	3.850780	1.304680	0.000154
1998	1.9870e+02	-0.4331	-4.971733	0.000314	3.141426	1.064344	0.000126
1999	1.9880e+02	-0.3962	-4.806210	0.000415	4.154789	1.407681	0.000166
2000	1.9890e+02	-0.3545	-4.608390	0.000497	4.965480	1.682350	0.000199
2001	1.9900e+02	-0.3257	-4.463054	0.000365	3.648108	1.236012	0.000146
2002	1.9910e+02	-0.2807	-4.257160	0.000517	5.168152	1.751017	0.000207
2003	1.9920e+02	-0.2374	-4.140083	0.000294	2.938753	0.995677	0.000118
2004	1.9930e+02	-0.2021	-3.970523	0.000426	4.256126	1.442014	0.000170
2005	1.9940e+02	-0.1572	-3.829223	0.000355	3.546771	1.201679	0.000142
2006	1.9950e+02	-0.1187	-3.631404	0.000497	4.965480	1.682350	0.000199
2007	1.9960e+02	-0.0898	-3.494141	0.000345	3.445435	1.167345	0.000138
2008	1.9970e+02	-0.0417	-3.320544	0.000436	4.357462	1.476348	0.000174
2009	1.9980e+02	0.0032	-3.175207	0.000436	4.357462	1.476348	0.000146

Center data before PMax,+/-Pr and +/-Vc Calc.

PMax (uC/cm2):	5.84e+01
Pr (uC/cm2):	2.44e+00
-Pr (uC/cm2):	-3.18e+00
PLoss (uC/cm2):	3.19e+00
Vc:	1.68e+00
-Vc:	-6.31e-01
C (Max-Eff) (nF):	2.92e-01
K (Eff):	9.89e+02
Vert. (+/-Pr) Shift (uC/cm2):	-3.65e-01
Horiz. Shift (+/-Vc):	5.25e-01
Offset (uC/cm2):	6.38e+00

A (Loop Area - uC/cm2·Volts):	-2.29e-01



Hysteresis Version: 5.48.1 - Radiant Technologies, Inc., 1999 - 9/12/24

