»»»»»»»»»»»»»»»»»»»»»»»»»»»»»»»»»»»» Hysteresis ««««««««««««««««««««««««««««««««««««
»»»  Executed Version:	5.48.1
»»»  Vision Version:	5.48.4 (R)
»»»  Vision Compiled:	9/18/24
»»»  Driver Version:	5.47.0
»»»  Windows Version:	Windows 8 or 8.1
»»»  Processor Information:	x86 (AMD or Intel) - 32 Processors
»»»  Tester Name:	PMF21124-494 (100V)
»»»  Tester S/N:	PMF21124-494
»»»  Internal Amp Type:	100V RevK 270k
»»»  Internal Amp S/N:	iAB2-596/K     
»»»  Execution Count:	1
»»»»»»»»»»»»»»»»»»»»»»»»»»»»»»»»»»»»»»»»»»««««««««««««««««««««««««««««««««««««««««««

Stored:	6/13/2025 - 14:12:54
Configured:	06/13/25 01:30:53 PM
Executed:	06/13/25 02:12:06 PM

»»»»»»»»»»»»»»»»»»»»»»»»»»»»»»»»»»» Sample Info ««««««««««««««««««««««««««««««««««««
Sample Name:	
Lot Name:	
Wafer Name:	
Die Row/Column:	0/0
Capacitor Number:	0
Sample Area (cm2):	1.00e-04
Sample Thickness (microns):	3.00e-01

Amplifier:	Internal

»»»»»»»»»»»»»»»»»»»»»»»»»»»»»»»»»»» Tester Info «««««««««««««««««««««««««««««««««««
Tester Name:	PMF21124-494 (100V)
Tester Serial Number:	PMF21124-494
Return Signal Amp. Level:	1.79 [Index: 2]

»»»»»»»»»»»»»»»»»»»»»»»»»»»»»»»» Hysteresis Info ««««««««««««««««««««««««««««««««««
Task Name:	Hyst-1922
Volts:	20.00
Field:	666.67 (kV/cm)
DCBias:	0.00
DCField:	0.00 (kV/cm)
Hysteresis Period (ms):	1.00e+00
Preset:	Enabled
Preset Delay (ms):	1.00e+03
Profile:	Standard Bipolar

»»»»»»»»»»»»»»»»»»»»»»»»»»»»»»»»»»»»»» Data «««««««««««««««««««««««««««««««««««««««
Points:	2001

Valid Data

Point	Time (ms)	Drive Voltage	Measured Polarization (uC/cm2)	Capacitance (uF)	Normalized Capacitance (uF/cm2)	Dielectric Constant	Instantaneous Current (mA)
   1	0.0000e+00	0.0337	-1.822967	0.000099	0.993677	0.336667	0.008125
   2	5.0000e-04	0.0353	-1.782342	0.000099	0.993677	0.336667	0.008125
   3	1.0000e-03	0.1348	-1.761389	0.000051	0.512528	0.173649	0.004191
   4	1.5000e-03	0.1652	-1.669877	0.000224	2.238389	0.758387	0.018302
   5	2.0000e-03	0.2118	-1.574944	0.000232	2.322067	0.786738	0.018987
   6	2.5000e-03	0.2150	-1.441525	0.000326	3.263445	1.105685	0.026684
   7	3.0000e-03	0.2872	-1.326494	0.000281	2.813675	0.953299	0.023006
   8	3.5000e-03	0.3337	-1.194785	0.000322	3.221606	1.091510	0.026342
   9	4.0000e-03	0.3577	-1.067353	0.000312	3.117008	1.056071	0.025486
  10	4.5000e-03	0.3882	-0.947618	0.000293	2.928733	0.992282	0.023947
  11	5.0000e-03	0.4460	-0.824462	0.000301	3.012411	1.020632	0.024631
  12	5.5000e-03	0.4765	-0.678641	0.000357	3.566778	1.208457	0.029164
  13	6.0000e-03	0.5470	-0.566176	0.000275	2.750917	0.932036	0.022493
  14	6.5000e-03	0.5551	-0.413514	0.000373	3.734134	1.265159	0.030532
  15	7.0000e-03	0.6048	-0.296772	0.000286	2.855514	0.967475	0.023348
  16	7.5000e-03	0.6224	-0.166346	0.000319	3.190227	1.080878	0.026085
  17	8.0000e-03	0.6802	-0.035921	0.000319	3.190227	1.080878	0.026085
  18	8.5000e-03	0.7219	0.098354	0.000328	3.284365	1.112773	0.026855
  19	9.0000e-03	0.7764	0.222365	0.000303	3.033330	1.027720	0.024802
  20	9.5000e-03	0.8117	0.361771	0.000341	3.409882	1.155299	0.027881
  21	1.0000e-02	0.8358	0.505453	0.000351	3.514479	1.190738	0.028736
  22	1.0500e-02	0.8727	0.638872	0.000326	3.263445	1.105685	0.026684
  23	1.1000e-02	0.9465	0.771436	0.000324	3.242526	1.098597	0.026513
  24	1.1500e-02	0.9754	0.900579	0.000316	3.158848	1.070247	0.025829
  25	1.2000e-02	0.9946	1.019886	0.000292	2.918273	0.988738	0.023861
  26	1.2500e-02	1.0187	1.175542	0.000381	3.807353	1.289966	0.031131
  27	1.3000e-02	1.0829	1.293994	0.000290	2.897354	0.981650	0.023690
  28	1.3500e-02	1.1294	1.425275	0.000321	3.211146	1.087966	0.026256
  29	1.4000e-02	1.1438	1.541589	0.000285	2.845055	0.963931	0.023263
  30	1.4500e-02	1.1855	1.682278	0.000344	3.441261	1.165931	0.028138
  31	1.5000e-02	1.2449	1.812704	0.000319	3.190227	1.080878	0.026085
  32	1.5500e-02	1.2802	1.945695	0.000325	3.252985	1.102141	0.026598
  33	1.6000e-02	1.3187	2.075265	0.000317	3.169307	1.073790	0.025914
  34	1.6500e-02	1.3443	2.198849	0.000302	3.022871	1.024176	0.024717
  35	1.7000e-02	1.4230	2.342531	0.000351	3.514479	1.190738	0.028736
  36	1.7500e-02	1.4438	2.469108	0.000310	3.096089	1.048983	0.025315
  37	1.8000e-02	1.4823	2.600389	0.000321	3.211146	1.087966	0.026256
  38	1.8500e-02	1.5353	2.724401	0.000303	3.033330	1.027720	0.024802
  39	1.9000e-02	1.5449	2.853116	0.000315	3.148388	1.066703	0.025743
  40	1.9500e-02	1.6042	2.992522	0.000341	3.409882	1.155299	0.027881
  41	2.0000e-02	1.6315	3.121665	0.000316	3.158848	1.070247	0.025829
  42	2.0500e-02	1.6844	3.253373	0.000322	3.221606	1.091510	0.026342
  43	2.1000e-02	1.7149	3.365411	0.000274	2.740457	0.928492	0.022408
  44	2.1500e-02	1.7903	3.492416	0.000311	3.106549	1.052527	0.025401
  45	2.2000e-02	1.8128	3.618993	0.000310	3.096089	1.048983	0.025315
  46	2.2500e-02	1.8352	3.742576	0.000302	3.022871	1.024176	0.024717
  47	2.3000e-02	1.8609	3.899943	0.000385	3.849192	1.304141	0.031473
  48	2.3500e-02	1.9491	4.017967	0.000289	2.886894	0.978106	0.023605
  49	2.4000e-02	1.9668	4.153097	0.000331	3.305284	1.119861	0.027026
  50	2.4500e-02	2.0133	4.271976	0.000291	2.907813	0.985194	0.023776
  51	2.5000e-02	2.0261	4.416514	0.000354	3.535399	1.197826	0.028907
  52	2.5500e-02	2.0646	4.537532	0.000296	2.960112	1.002913	0.024204
  53	2.6000e-02	2.1304	4.678648	0.000345	3.451721	1.169475	0.028223
  54	2.6500e-02	2.1577	4.795390	0.000286	2.855514	0.967475	0.023348
  55	2.7000e-02	2.1850	4.919401	0.000303	3.033330	1.027720	0.024802
  56	2.7500e-02	2.2539	5.042557	0.000301	3.012411	1.020632	0.024631
  57	2.8000e-02	2.2844	5.186667	0.000352	3.524939	1.194282	0.028822
  58	2.8500e-02	2.3181	5.312816	0.000309	3.085629	1.045439	0.025230
  59	2.9000e-02	2.3791	5.437683	0.000305	3.054250	1.034808	0.024973
  60	2.9500e-02	2.4288	5.548866	0.000272	2.719538	0.921404	0.022237
  61	3.0000e-02	2.4593	5.686133	0.000336	3.357583	1.137580	0.027454
  62	3.0500e-02	2.4785	5.817414	0.000321	3.211146	1.087966	0.026256
  63	3.1000e-02	2.5251	5.944419	0.000311	3.106549	1.052527	0.025401
  64	3.1500e-02	2.5539	6.062016	0.000288	2.876434	0.974562	0.023519
  65	3.2000e-02	2.5748	6.199284	0.000336	3.357583	1.137580	0.027454
  66	3.2500e-02	2.6374	6.316881	0.000288	2.876434	0.974562	0.023519
  67	3.3000e-02	2.6999	6.432339	0.000282	2.824135	0.956843	0.023092
  68	3.3500e-02	2.7160	6.575594	0.000350	3.504020	1.187194	0.028651
  69	3.4000e-02	2.7513	6.702171	0.000310	3.096089	1.048983	0.025315
  70	3.4500e-02	2.7914	6.822761	0.000295	2.949652	0.999369	0.024118
  71	3.5000e-02	2.8234	6.959601	0.000335	3.347123	1.134036	0.027368
  72	3.5500e-02	2.8732	7.080192	0.000295	2.949652	0.999369	0.024118
  73	3.6000e-02	2.9165	7.202065	0.000298	2.981032	1.010001	0.024375
  74	3.6500e-02	2.9807	7.313675	0.000273	2.729997	0.924948	0.022322
  75	3.7000e-02	2.9903	7.456074	0.000348	3.483100	1.180106	0.028480
  76	3.7500e-02	3.0368	7.575382	0.000292	2.918273	0.988738	0.023861
  77	3.8000e-02	3.0914	7.712222	0.000335	3.347123	1.134036	0.027368
  78	3.8500e-02	3.1154	7.835806	0.000302	3.022871	1.024176	0.024717
  79	3.9000e-02	3.1539	7.966659	0.000320	3.200687	1.084422	0.026171
  80	3.9500e-02	3.2261	8.055177	0.000217	2.165170	0.733580	0.017704
  81	4.0000e-02	3.2373	8.198432	0.000350	3.504020	1.187194	0.028651
  82	4.0500e-02	3.2807	8.335272	0.000335	3.347123	1.134036	0.027368
  83	4.1000e-02	3.3416	8.459283	0.000303	3.033330	1.027720	0.024802
  84	4.1500e-02	3.3673	8.577735	0.000290	2.897354	0.981650	0.023690
  85	4.2000e-02	3.4186	8.709444	0.000322	3.221606	1.091510	0.026342
  86	4.2500e-02	3.4459	8.805232	0.000234	2.342986	0.793825	0.019158
  87	4.3000e-02	3.4780	8.942072	0.000335	3.347123	1.134036	0.027368
  88	4.3500e-02	3.5229	9.061807	0.000293	2.928733	0.992282	0.023947
  89	4.4000e-02	3.5438	9.190950	0.000316	3.158848	1.070247	0.025829
  90	4.4500e-02	3.6031	9.318810	0.000313	3.127468	1.059615	0.025572
  91	4.5000e-02	3.6496	9.438973	0.000294	2.939193	0.995825	0.024033
  92	4.5500e-02	3.6577	9.564267	0.000306	3.064710	1.038352	0.025059
  93	4.6000e-02	3.7250	9.697258	0.000325	3.252985	1.102141	0.026598
  94	4.6500e-02	3.7780	9.805020	0.000264	2.635860	0.893053	0.021552
  95	4.7000e-02	3.8101	9.926038	0.000296	2.960112	1.002913	0.024204
  96	4.7500e-02	3.8421	10.046628	0.000295	2.949652	0.999369	0.024118
  97	4.8000e-02	3.8678	10.176626	0.000318	3.179767	1.077334	0.026000
  98	4.8500e-02	3.9223	10.322019	0.000356	3.556318	1.204913	0.029079
  99	4.9000e-02	3.9496	10.434057	0.000274	2.740457	0.928492	0.022408
 100	4.9500e-02	3.9994	10.543956	0.000269	2.688158	0.910773	0.021980
 101	5.0000e-02	4.0411	10.650863	0.000261	2.614940	0.885966	0.021381
 102	5.0500e-02	4.0555	10.805235	0.000378	3.775973	1.279334	0.030875
 103	5.1000e-02	4.1357	10.902306	0.000237	2.374366	0.804457	0.019414
 104	5.1500e-02	4.1758	11.027601	0.000306	3.064710	1.038352	0.025059
 105	5.2000e-02	4.2175	11.149901	0.000299	2.991491	1.013545	0.024460
 106	5.2500e-02	4.2432	11.281610	0.000322	3.221606	1.091510	0.026342
 107	5.3000e-02	4.2801	11.400062	0.000290	2.897354	0.981650	0.023690
 108	5.3500e-02	4.3170	11.520653	0.000295	2.949652	0.999369	0.024118
 109	5.4000e-02	4.3667	11.648512	0.000313	3.127468	1.059615	0.025572
 110	5.4500e-02	4.4068	11.755846	0.000263	2.625400	0.889510	0.021467
 111	5.5000e-02	4.4421	11.887127	0.000321	3.211146	1.087966	0.026256
 112	5.5500e-02	4.4967	12.013277	0.000309	3.085629	1.045439	0.025230
 113	5.6000e-02	4.5111	12.111203	0.000240	2.395285	0.811545	0.019585
 114	5.6500e-02	4.5689	12.239918	0.000315	3.148388	1.066703	0.025743
 115	5.7000e-02	4.6041	12.372054	0.000323	3.232066	1.095054	0.026427
 116	5.7500e-02	4.6314	12.479388	0.000263	2.625400	0.889510	0.021467
 117	5.8000e-02	4.6571	12.597841	0.000290	2.897354	0.981650	0.023690
 118	5.8500e-02	4.7325	12.708596	0.000271	2.709078	0.917860	0.022151
 119	5.9000e-02	4.7373	12.826620	0.000289	2.886894	0.978106	0.023605
 120	5.9500e-02	4.8063	12.945072	0.000290	2.897354	0.981650	0.023690
 121	6.0000e-02	4.8560	13.074215	0.000316	3.158848	1.070247	0.025829
 122	6.0500e-02	4.8833	13.199937	0.000308	3.075169	1.041896	0.025144
 123	6.1000e-02	4.9314	13.311120	0.000272	2.719538	0.921404	0.022237
 124	6.1500e-02	4.9667	13.424868	0.000278	2.782296	0.942667	0.022750
 125	6.2000e-02	5.0020	13.540327	0.000282	2.824135	0.956843	0.023092
 126	6.2500e-02	5.0517	13.668614	0.000314	3.137928	1.063159	0.025658
 127	6.3000e-02	5.0934	13.794336	0.000308	3.075169	1.041896	0.025144
 128	6.3500e-02	5.1111	13.915354	0.000296	2.960112	1.002913	0.024204
 129	6.4000e-02	5.1624	14.028247	0.000276	2.761377	0.935580	0.022579
 130	6.4500e-02	5.1737	14.155252	0.000311	3.106549	1.052527	0.025401
 131	6.5000e-02	5.2587	14.258737	0.000253	2.531262	0.857615	0.020697
 132	6.5500e-02	5.3004	14.376334	0.000288	2.876434	0.974562	0.023519
 133	6.6000e-02	5.3277	14.508043	0.000322	3.221606	1.091510	0.026342
 134	6.6500e-02	5.3469	14.618370	0.000270	2.698618	0.914317	0.022065
 135	6.7000e-02	5.3886	14.743664	0.000306	3.064710	1.038352	0.025059
 136	6.7500e-02	5.4496	14.841163	0.000238	2.384825	0.808001	0.019500
 137	6.8000e-02	5.4945	14.960898	0.000293	2.928733	0.992282	0.023947
 138	6.8500e-02	5.5041	15.085764	0.000305	3.054250	1.034808	0.024973
 139	6.9000e-02	5.5506	15.196947	0.000272	2.719538	0.921404	0.022237
 140	6.9500e-02	5.5956	15.314544	0.000288	2.876434	0.974562	0.023519
 141	7.0000e-02	5.6373	15.449246	0.000329	3.294824	1.116317	0.026940
 142	7.0500e-02	5.6950	15.552731	0.000253	2.531262	0.857615	0.020697
 143	7.1000e-02	5.7111	15.675887	0.000301	3.012411	1.020632	0.024631
 144	7.1500e-02	5.7624	15.791346	0.000282	2.824135	0.956843	0.023092
 145	7.2000e-02	5.8089	15.893976	0.000251	2.510342	0.850527	0.020526
 146	7.2500e-02	5.8362	16.007725	0.000278	2.782296	0.942667	0.022750
 147	7.3000e-02	5.8763	16.149696	0.000347	3.472640	1.176562	0.028394
 148	7.3500e-02	5.9244	16.247622	0.000240	2.395285	0.811545	0.019585
 149	7.4000e-02	5.9645	16.358805	0.000272	2.719538	0.921404	0.022237
 150	7.4500e-02	6.0046	16.474691	0.000283	2.834595	0.960387	0.023177
 151	7.5000e-02	6.0399	16.591005	0.000285	2.845055	0.963931	0.023263
 152	7.5500e-02	6.0752	16.698339	0.000263	2.625400	0.889510	0.021467
 153	7.6000e-02	6.1442	16.808667	0.000270	2.698618	0.914317	0.022065
 154	7.6500e-02	6.1330	16.934389	-0.000308	-3.075169	-1.041896	0.025144
 155	7.7000e-02	6.2068	17.047709	0.000277	2.771836	0.939124	0.022664
 156	7.7500e-02	6.2405	17.177280	0.000317	3.169307	1.073790	0.025914
 157	7.8000e-02	6.3030	17.274351	0.000237	2.374366	0.804457	0.019414
 158	7.8500e-02	6.3046	17.398790	0.000304	3.043790	1.031264	0.024888
 159	7.9000e-02	6.3720	17.507834	0.000267	2.667239	0.903685	0.021809
 160	7.9500e-02	6.3784	17.622010	0.000279	2.792756	0.946211	0.022835
 161	8.0000e-02	6.4266	17.747732	0.000308	3.075169	1.041896	0.025144
 162	8.0500e-02	6.4875	17.849507	0.000249	2.489423	0.843439	0.020355
 163	8.1000e-02	6.4859	17.988912	-0.000341	-3.409882	-1.155299	0.027881
 164	8.1500e-02	6.5741	18.075720	0.000212	2.123331	0.719404	0.017362
 165	8.2000e-02	6.6207	18.185620	0.000269	2.688158	0.910773	0.021980
 166	8.2500e-02	6.6463	18.277559	0.000225	2.248848	0.761930	0.018388
 167	8.3000e-02	6.6656	18.410123	0.000324	3.242526	1.098597	0.026513
 168	8.3500e-02	6.7362	18.523444	0.000277	2.771836	0.939124	0.022664
 169	8.4000e-02	6.7795	18.618804	0.000233	2.332526	0.790281	0.019072
 170	8.4500e-02	6.8180	18.732125	0.000277	2.771836	0.939124	0.022664
 171	8.5000e-02	6.8372	18.858702	0.000310	3.096089	1.048983	0.025315
 172	8.5500e-02	6.8838	18.981858	0.000301	3.012411	1.020632	0.024631
 173	8.6000e-02	6.9223	19.093896	0.000274	2.740457	0.928492	0.022408
 174	8.6500e-02	6.9864	19.188829	0.000232	2.322067	0.786738	0.018987
 175	8.7000e-02	7.0009	19.309419	0.000295	2.949652	0.999369	0.024118
 176	8.7500e-02	7.0137	19.415043	0.000258	2.583561	0.875334	0.021125
 177	8.8000e-02	7.0811	19.535633	0.000295	2.949652	0.999369	0.024118
 178	8.8500e-02	7.1340	19.638263	0.000251	2.510342	0.850527	0.020526
 179	8.9000e-02	7.1677	19.742604	0.000255	2.552181	0.864702	0.020868
 180	8.9500e-02	7.1934	19.860628	0.000289	2.886894	0.978106	0.023605
 181	9.0000e-02	7.2239	19.959837	0.000243	2.426664	0.822176	0.019842
 182	9.0500e-02	7.2896	20.072730	0.000276	2.761377	0.935580	0.022579
 183	9.1000e-02	7.3329	20.180492	0.000264	2.635860	0.893053	0.021552
 184	9.1500e-02	7.3634	20.310918	0.000319	3.190227	1.080878	0.026085
 185	9.2000e-02	7.3843	20.411837	0.000247	2.468503	0.836352	0.020184
 186	9.2500e-02	7.4597	20.524730	0.000276	2.761377	0.935580	0.022579
 187	9.3000e-02	7.4789	20.631637	0.000261	2.614940	0.885966	0.021381
 188	9.3500e-02	7.5078	20.740681	0.000267	2.667239	0.903685	0.021809
 189	9.4000e-02	7.5656	20.862127	0.000297	2.970572	1.006457	0.024289
 190	9.4500e-02	7.6329	20.966040	0.000254	2.541722	0.861159	0.020783
 191	9.5000e-02	7.6329	21.081071	-0.000281	-2.813675	-0.953299	0.023006
 192	9.5500e-02	7.6939	21.180707	0.000244	2.437124	0.825720	0.019927
 193	9.6000e-02	7.7180	21.289324	0.000266	2.656779	0.900141	0.021723
 194	9.6500e-02	7.7645	21.400934	0.000273	2.729997	0.924948	0.022322
 195	9.7000e-02	7.7966	21.501426	0.000246	2.458044	0.832808	0.020098
 196	9.7500e-02	7.8463	21.615602	0.000279	2.792756	0.946211	0.022835
 197	9.8000e-02	7.8832	21.733199	0.000288	2.876434	0.974562	0.023519
 198	9.8500e-02	7.9313	21.823428	0.000221	2.207009	0.747755	0.018046
 199	9.9000e-02	7.9634	21.933328	0.000269	2.688158	0.910773	0.021980
 200	9.9500e-02	8.0180	22.036813	0.000253	2.531262	0.857615	0.020697
 201	1.0000e-01	8.0532	22.153555	0.000286	2.855514	0.967475	0.023348
 202	1.0050e-01	8.0821	22.253619	0.000245	2.447584	0.829264	0.020013
 203	1.0100e-01	8.1303	22.377631	0.000303	3.033330	1.027720	0.024802
 204	1.0150e-01	8.1736	22.478123	0.000246	2.458044	0.832808	0.020098
 205	1.0200e-01	8.1704	22.583746	-0.000258	-2.583561	-0.875334	0.021125
 206	1.0250e-01	8.2425	22.677824	0.000230	2.301147	0.779650	0.018816
 207	1.0300e-01	8.2698	22.798414	0.000295	2.949652	0.999369	0.024118
 208	1.0350e-01	8.3725	22.881373	0.000203	2.029193	0.687509	0.016592
 209	1.0400e-01	8.3500	23.008806	-0.000312	-3.117008	-1.056071	0.025486
 210	1.0450e-01	8.4078	23.095613	0.000212	2.123331	0.719404	0.017362
 211	1.0500e-01	8.4447	23.195678	0.000245	2.447584	0.829264	0.020013
 212	1.0550e-01	8.4703	23.322255	0.000310	3.096089	1.048983	0.025315
 213	1.0600e-01	8.5169	23.437286	0.000281	2.813675	0.953299	0.023006
 214	1.0650e-01	8.5634	23.532219	0.000232	2.322067	0.786738	0.018987
 215	1.0700e-01	8.6163	23.617316	0.000208	2.081492	0.705229	0.017019
 216	1.0750e-01	8.6516	23.740045	0.000300	3.001951	1.017089	0.024546
 217	1.0800e-01	8.6789	23.838399	0.000241	2.405745	0.815088	0.019671
 218	1.0850e-01	8.7383	23.961127	0.000300	3.001951	1.017089	0.024546
 219	1.0900e-01	8.7383	24.071027	-0.000269	-2.688158	-0.910773	0.021980
 220	1.0950e-01	8.7880	24.180926	0.000269	2.688158	0.910773	0.021980
 221	1.1000e-01	8.8554	24.247208	0.000162	1.621263	0.549299	0.013256
 222	1.1050e-01	8.8794	24.373785	0.000310	3.096089	1.048983	0.025315
 223	1.1100e-01	8.9372	24.467863	0.000230	2.301147	0.779650	0.018816
 224	1.1150e-01	8.9276	24.581611	-0.000278	-2.782296	-0.942667	0.022750
 225	1.1200e-01	8.9773	24.689373	0.000264	2.635860	0.893053	0.021552
 226	1.1250e-01	9.0655	24.759931	0.000173	1.725860	0.584737	0.014112
 227	1.1300e-01	9.0591	24.892922	-0.000325	-3.252985	-1.102141	0.026598
 228	1.1350e-01	9.1393	24.983579	0.000222	2.217469	0.751299	0.018131
 229	1.1400e-01	9.1698	25.094334	0.000271	2.709078	0.917860	0.022151
 230	1.1450e-01	9.1971	25.197819	0.000253	2.531262	0.857615	0.020697
 231	1.1500e-01	9.2227	25.316272	0.000290	2.897354	0.981650	0.023690
 232	1.1550e-01	9.2757	25.401797	0.000209	2.091952	0.708773	0.017105
 233	1.1600e-01	9.3463	25.499295	0.000238	2.384825	0.808001	0.019500
 234	1.1650e-01	9.3928	25.616464	0.000287	2.865974	0.971018	0.023434
 235	1.1700e-01	9.3880	25.719095	-0.000251	-2.510342	-0.850527	0.020526
 236	1.1750e-01	9.4249	25.828139	0.000267	2.667239	0.903685	0.021809
 237	1.1800e-01	9.4602	25.910671	0.000202	2.018734	0.683965	0.016506
 238	1.1850e-01	9.5291	26.018005	0.000263	2.625400	0.889510	0.021467
 239	1.1900e-01	9.5741	26.100964	0.000203	2.029193	0.687509	0.016592
 240	1.1950e-01	9.5821	26.211291	0.000270	2.698618	0.914317	0.022065
 241	1.2000e-01	9.6495	26.329743	0.000290	2.897354	0.981650	0.023690
 242	1.2050e-01	9.6992	26.421683	0.000225	2.248848	0.761930	0.018388
 243	1.2100e-01	9.7409	26.513622	0.000225	2.248848	0.761930	0.018388
 244	1.2150e-01	9.7136	26.633357	-0.000293	-2.928733	-0.992282	0.023947
 245	1.2200e-01	9.7858	26.714606	0.000199	1.987354	0.673334	0.016250
 246	1.2250e-01	9.8596	26.810822	0.000235	2.353446	0.797369	0.019243
 247	1.2300e-01	9.8805	26.920722	0.000269	2.688158	0.910773	0.021980
 248	1.2350e-01	9.9110	27.016510	0.000234	2.342986	0.793825	0.019158
 249	1.2400e-01	9.9671	27.113581	0.000237	2.374366	0.804457	0.019414
 250	1.2450e-01	10.0152	27.221770	0.000265	2.646319	0.896597	0.021638
 251	1.2500e-01	10.0521	27.301308	0.000195	1.945515	0.659158	0.015908
 252	1.2550e-01	10.1051	27.398379	0.000237	2.374366	0.804457	0.019414
 253	1.2600e-01	10.1291	27.516831	0.000290	2.897354	0.981650	0.023690
 254	1.2650e-01	10.1853	27.605350	0.000217	2.165170	0.733580	0.017704
 255	1.2700e-01	10.1837	27.725940	-0.000295	-2.949652	-0.999369	0.024118
 256	1.2750e-01	10.2334	27.815314	0.000219	2.186090	0.740667	0.017875
 257	1.2800e-01	10.3040	27.902122	0.000212	2.123331	0.719404	0.017362
 258	1.2850e-01	10.3377	28.008600	0.000260	2.604480	0.882422	0.021296
 259	1.2900e-01	10.3617	28.115507	0.000261	2.614940	0.885966	0.021381
 260	1.2950e-01	10.3682	28.205308	0.000220	2.196550	0.744211	0.017960
 261	1.3000e-01	10.4500	28.320339	0.000281	2.813675	0.953299	0.023006
 262	1.3050e-01	10.5077	28.401160	0.000198	1.976895	0.669790	0.016164
 263	1.3100e-01	10.5462	28.504218	0.000252	2.520802	0.854071	0.020612
 264	1.3150e-01	10.5623	28.589315	0.000208	2.081492	0.705229	0.017019
 265	1.3200e-01	10.5992	28.697505	0.000265	2.646319	0.896597	0.021638
 266	1.3250e-01	10.6393	28.804411	0.000261	2.614940	0.885966	0.021381
 267	1.3300e-01	10.7034	28.889936	0.000209	2.091952	0.708773	0.017105
 268	1.3350e-01	10.7387	28.982731	0.000227	2.269768	0.769018	0.018559
 269	1.3400e-01	10.7660	29.072532	0.000220	2.196550	0.744211	0.017960
 270	1.3450e-01	10.7981	29.187135	0.000280	2.803216	0.949755	0.022921
 271	1.3500e-01	10.8462	29.286345	0.000243	2.426664	0.822176	0.019842
 272	1.3550e-01	10.8783	29.385126	0.000242	2.416205	0.818632	0.019756
 273	1.3600e-01	10.9248	29.468513	0.000204	2.039653	0.691053	0.016677
 274	1.3650e-01	10.9762	29.560880	0.000226	2.259308	0.765474	0.018473
 275	1.3700e-01	10.9842	29.686602	0.000308	3.075169	1.041896	0.025144
 276	1.3750e-01	11.0435	29.764857	0.000191	1.914136	0.648527	0.015651
 277	1.3800e-01	11.0901	29.866204	0.000248	2.478963	0.839895	0.020269
 278	1.3850e-01	11.1141	29.969690	0.000253	2.531262	0.857615	0.020697
 279	1.3900e-01	11.1542	30.050083	0.000197	1.966435	0.666246	0.016079
 280	1.3950e-01	11.2168	30.136891	0.000212	2.123331	0.719404	0.017362
 281	1.4000e-01	11.2360	30.241232	0.000255	2.552181	0.864702	0.020868
 282	1.4050e-01	11.2970	30.328895	0.000214	2.144251	0.726492	0.017533
 283	1.4100e-01	11.3307	30.427676	0.000242	2.416205	0.818632	0.019756
 284	1.4150e-01	11.3548	30.522182	0.000231	2.311607	0.783194	0.018901
 285	1.4200e-01	11.4125	30.619253	0.000237	2.374366	0.804457	0.019414
 286	1.4250e-01	11.4398	30.703495	0.000206	2.060573	0.698141	0.016848
 287	1.4300e-01	11.4751	30.793724	0.000221	2.207009	0.747755	0.018046
 288	1.4350e-01	11.5072	30.894216	0.000246	2.458044	0.832808	0.020098
 289	1.4400e-01	11.5569	30.992142	0.000240	2.395285	0.811545	0.019585
 290	1.4450e-01	11.5970	31.089213	0.000237	2.374366	0.804457	0.019414
 291	1.4500e-01	11.6467	31.193126	0.000254	2.541722	0.861159	0.020783
 292	1.4550e-01	11.6884	31.281216	0.000215	2.154711	0.730036	0.017618
 293	1.4600e-01	11.7334	31.365031	0.000205	2.050113	0.694597	0.016763
 294	1.4650e-01	11.7847	31.458253	0.000228	2.280228	0.772562	0.018644
 295	1.4700e-01	11.8360	31.549765	0.000224	2.238389	0.758387	0.018302
 296	1.4750e-01	11.8392	31.647264	0.000238	2.384825	0.808001	0.019500
 297	1.4800e-01	11.8793	31.754598	0.000263	2.625400	0.889510	0.021467
 298	1.4850e-01	11.9243	31.828577	0.000181	1.809538	0.613088	0.014796
 299	1.4900e-01	11.9708	31.922227	0.000229	2.290687	0.776106	0.018730
 300	1.4950e-01	12.0125	32.009462	0.000213	2.133791	0.722948	0.017447
 301	1.5000e-01	12.0301	32.112092	0.000251	2.510342	0.850527	0.020526
 302	1.5050e-01	12.1055	32.200183	0.000215	2.154711	0.730036	0.017618
 303	1.5100e-01	12.1232	32.288702	0.000217	2.165170	0.733580	0.017704
 304	1.5150e-01	12.1954	32.384490	0.000234	2.342986	0.793825	0.019158
 305	1.5200e-01	12.2050	32.479850	0.000233	2.332526	0.790281	0.019072
 306	1.5250e-01	12.2451	32.567513	0.000214	2.144251	0.726492	0.017533
 307	1.5300e-01	12.2916	32.673137	0.000258	2.583561	0.875334	0.021125
 308	1.5350e-01	12.3510	32.749682	0.000187	1.872297	0.634351	0.015309
 309	1.5400e-01	12.3686	32.845470	0.000234	2.342986	0.793825	0.019158
 310	1.5450e-01	12.4087	32.926719	0.000199	1.987354	0.673334	0.016250
 311	1.5500e-01	12.4408	33.030631	0.000254	2.541722	0.861159	0.020783
 312	1.5550e-01	12.4841	33.117012	0.000211	2.112872	0.715860	0.017276
 313	1.5600e-01	12.5098	33.217931	0.000247	2.468503	0.836352	0.020184
 314	1.5650e-01	12.5579	33.291911	0.000181	1.809538	0.613088	0.014796
 315	1.5700e-01	12.6173	33.388554	0.000236	2.363906	0.800913	0.019329
 316	1.5750e-01	12.6414	33.489473	0.000247	2.468503	0.836352	0.020184
 317	1.5800e-01	12.6783	33.569012	0.000195	1.945515	0.659158	0.015908
 318	1.5850e-01	12.7280	33.670787	0.000249	2.489423	0.843439	0.020355
 319	1.5900e-01	12.7986	33.752891	0.000201	2.008274	0.680422	0.016421
 320	1.5950e-01	12.7922	33.839271	-0.000211	-2.112872	-0.715860	0.017276
 321	1.6000e-01	12.8323	33.925651	0.000211	2.112872	0.715860	0.017276
 322	1.6050e-01	12.9173	34.016735	0.000223	2.227929	0.754843	0.018217
 323	1.6100e-01	12.9526	34.097129	0.000197	1.966435	0.666246	0.016079
 324	1.6150e-01	12.9285	34.224989	-0.000313	-3.127468	-1.059615	0.025572
 325	1.6200e-01	13.0248	34.276732	0.000127	1.265631	0.428807	0.010349
 326	1.6250e-01	13.0312	34.375085	0.000241	2.405745	0.815088	0.019671
 327	1.6300e-01	13.0809	34.456762	0.000200	1.997814	0.676878	0.016335
 328	1.6350e-01	13.1178	34.542714	0.000210	2.102412	0.712316	0.017191
 329	1.6400e-01	13.1595	34.632943	0.000221	2.207009	0.747755	0.018046
 330	1.6450e-01	13.2044	34.711626	0.000192	1.924596	0.652071	0.015737
 331	1.6500e-01	13.2157	34.805704	0.000230	2.301147	0.779650	0.018816
 332	1.6550e-01	13.2975	34.896361	0.000222	2.217469	0.751299	0.018131
 333	1.6600e-01	13.3312	34.982741	0.000211	2.112872	0.715860	0.017276
 334	1.6650e-01	13.3809	35.079812	0.000237	2.374366	0.804457	0.019414
 335	1.6700e-01	13.4387	35.155074	0.000184	1.840918	0.623720	0.015052
 336	1.6750e-01	13.4707	35.251290	0.000235	2.353446	0.797369	0.019243
 337	1.6800e-01	13.4916	35.334676	0.000204	2.039653	0.691053	0.016677
 338	1.6850e-01	13.5237	35.431747	0.000237	2.374366	0.804457	0.019414
 339	1.6900e-01	13.5622	35.510003	0.000191	1.914136	0.648527	0.015651
 340	1.6950e-01	13.5830	35.594245	0.000206	2.060573	0.698141	0.016848
 341	1.7000e-01	13.6408	35.690888	0.000236	2.363906	0.800913	0.019329
 342	1.7050e-01	13.7066	35.746480	0.000136	1.359769	0.460702	0.011118
 343	1.7100e-01	13.7242	35.867925	0.000297	2.970572	1.006457	0.024289
 344	1.7150e-01	13.7611	35.939339	0.000175	1.746780	0.591825	0.014283
 345	1.7200e-01	13.8060	36.015884	0.000187	1.872297	0.634351	0.015309
 346	1.7250e-01	13.8365	36.118941	0.000252	2.520802	0.854071	0.020612
 347	1.7300e-01	13.8911	36.201045	0.000201	2.008274	0.680422	0.016421
 348	1.7350e-01	13.9007	36.296833	0.000234	2.342986	0.793825	0.019158
 349	1.7400e-01	13.9552	36.380648	0.000205	2.050113	0.694597	0.016763
 350	1.7450e-01	14.0130	36.469166	0.000217	2.165170	0.733580	0.017704
 351	1.7500e-01	14.0402	36.551270	0.000201	2.008274	0.680422	0.016421
 352	1.7550e-01	14.0755	36.625250	0.000181	1.809538	0.613088	0.014796
 353	1.7600e-01	14.1156	36.705215	0.000196	1.955975	0.662702	0.015993
 354	1.7650e-01	14.1509	36.789030	0.000205	2.050113	0.694597	0.016763
 355	1.7700e-01	14.1959	36.895081	0.000259	2.594020	0.878878	0.021210
 356	1.7750e-01	14.2279	36.978468	0.000204	2.039653	0.691053	0.016677
 357	1.7800e-01	14.2889	37.046888	0.000167	1.673562	0.567018	0.013684
 358	1.7850e-01	14.3162	37.159781	0.000276	2.761377	0.935580	0.022579
 359	1.7900e-01	14.3803	37.231195	0.000175	1.746780	0.591825	0.014283
 360	1.7950e-01	14.3996	37.309878	0.000192	1.924596	0.652071	0.015737
 361	1.8000e-01	14.4253	37.404810	0.000232	2.322067	0.786738	0.018987
 362	1.8050e-01	14.4862	37.494612	0.000220	2.196550	0.744211	0.017960
 363	1.8100e-01	14.5263	37.563887	0.000169	1.694481	0.574106	0.013855
 364	1.8150e-01	14.5712	37.656682	0.000227	2.269768	0.769018	0.018559
 365	1.8200e-01	14.5857	37.744345	0.000214	2.144251	0.726492	0.017533
 366	1.8250e-01	14.6563	37.829442	0.000208	2.081492	0.705229	0.017019
 367	1.8300e-01	14.7028	37.904704	0.000184	1.840918	0.623720	0.015052
 368	1.8350e-01	14.7204	37.991085	0.000211	2.112872	0.715860	0.017276
 369	1.8400e-01	14.7910	38.070195	0.000194	1.935056	0.655615	0.015822
 370	1.8450e-01	14.7573	38.164273	-0.000230	-2.301147	-0.779650	0.018816
 371	1.8500e-01	14.8311	38.251508	0.000213	2.133791	0.722948	0.017447
 372	1.8550e-01	14.8728	38.337033	0.000209	2.091952	0.708773	0.017105
 373	1.8600e-01	14.9274	38.410157	0.000179	1.788619	0.606001	0.014625
 374	1.8650e-01	14.9723	38.473446	0.000155	1.548044	0.524492	0.012658
 375	1.8700e-01	15.0060	38.566241	0.000227	2.269768	0.769018	0.018559
 376	1.8750e-01	15.0541	38.657325	0.000223	2.227929	0.754843	0.018217
 377	1.8800e-01	15.0878	38.740712	0.000204	2.039653	0.691053	0.016677
 378	1.8850e-01	15.1472	38.821533	0.000198	1.976895	0.669790	0.016164
 379	1.8900e-01	15.1728	38.905775	0.000206	2.060573	0.698141	0.016848
 380	1.8950e-01	15.2049	39.004129	0.000241	2.405745	0.815088	0.019671
 381	1.9000e-01	15.2964	39.077253	0.000179	1.788619	0.606001	0.014625
 382	1.9050e-01	15.3012	39.154653	0.000189	1.893217	0.641439	0.015480
 383	1.9100e-01	15.2996	39.251296	-0.000236	-2.363906	-0.800913	0.019329
 384	1.9150e-01	15.3926	39.312019	0.000149	1.485286	0.503228	0.012145
 385	1.9200e-01	15.4103	39.407807	0.000234	2.342986	0.793825	0.019158
 386	1.9250e-01	15.4472	39.468530	0.000149	1.485286	0.503228	0.012145
 387	1.9300e-01	15.4841	39.557476	0.000218	2.175630	0.737123	0.017789
 388	1.9350e-01	15.5274	39.656685	0.000243	2.426664	0.822176	0.019842
 389	1.9400e-01	15.5723	39.728954	0.000177	1.767699	0.598913	0.014454
 390	1.9450e-01	15.6108	39.816617	0.000214	2.144251	0.726492	0.017533
 391	1.9500e-01	15.6669	39.879050	0.000153	1.527125	0.517404	0.012487
 392	1.9550e-01	15.7006	39.965431	0.000211	2.112872	0.715860	0.017276
 393	1.9600e-01	15.7263	40.059508	0.000230	2.301147	0.779650	0.018816
 394	1.9650e-01	15.7712	40.134770	0.000184	1.840918	0.623720	0.015052
 395	1.9700e-01	15.7760	40.227137	0.000226	2.259308	0.765474	0.018473
 396	1.9750e-01	15.8482	40.310952	0.000205	2.050113	0.694597	0.016763
 397	1.9800e-01	15.8723	40.380655	0.000170	1.704941	0.577650	0.013941
 398	1.9850e-01	15.9445	40.460193	0.000195	1.945515	0.659158	0.015908
 399	1.9900e-01	15.9766	40.543152	0.000203	2.029193	0.687509	0.016592
 400	1.9950e-01	15.9733	40.635947	-0.000227	-2.269768	-0.769018	0.018559
 401	2.0000e-01	16.0648	40.717623	0.000200	1.997814	0.676878	0.016335
 402	2.0050e-01	16.1033	40.777919	0.000147	1.474826	0.499685	0.012059
 403	2.0100e-01	16.1193	40.867720	0.000220	2.196550	0.744211	0.017960
 404	2.0150e-01	16.1771	40.960942	0.000228	2.280228	0.772562	0.018644
 405	2.0200e-01	16.2076	41.019099	0.000142	1.422527	0.481965	0.011631
 406	2.0250e-01	16.2477	41.113177	0.000230	2.301147	0.779650	0.018816
 407	2.0300e-01	16.2814	41.181169	0.000166	1.663102	0.563474	0.013598
 408	2.0350e-01	16.3487	41.253865	0.000178	1.778159	0.602457	0.014539
 409	2.0400e-01	16.3632	41.339818	0.000210	2.102412	0.712316	0.017191
 410	2.0450e-01	16.3985	41.413370	0.000180	1.799079	0.609544	0.014710
 411	2.0500e-01	16.4273	41.508730	0.000233	2.332526	0.790281	0.019072
 412	2.0550e-01	16.4755	41.575867	0.000164	1.642182	0.556386	0.013427
 413	2.0600e-01	16.5396	41.656689	0.000198	1.976895	0.669790	0.016164
 414	2.0650e-01	16.5637	41.745635	0.000218	2.175630	0.737123	0.017789
 415	2.0700e-01	16.6054	41.831160	0.000209	2.091952	0.708773	0.017105
 416	2.0750e-01	16.6551	41.886751	0.000136	1.359769	0.460702	0.011118
 417	2.0800e-01	16.6920	41.986815	0.000245	2.447584	0.829264	0.020013
 418	2.0850e-01	16.7145	42.064643	0.000190	1.903676	0.644983	0.015566
 419	2.0900e-01	16.7626	42.137767	0.000179	1.788619	0.606001	0.014625
 420	2.0950e-01	16.7963	42.212174	0.000182	1.819998	0.616632	0.014881
 421	2.1000e-01	16.8493	42.305396	0.000228	2.280228	0.772562	0.018644
 422	2.1050e-01	16.8894	42.371678	0.000162	1.621263	0.549299	0.013256
 423	2.1100e-01	16.9231	42.451216	0.000195	1.945515	0.659158	0.015908
 424	2.1150e-01	16.9776	42.515360	0.000157	1.568964	0.531579	0.012829
 425	2.1200e-01	16.9808	42.609865	0.000231	2.311607	0.783194	0.018901
 426	2.1250e-01	17.0530	42.681279	0.000175	1.746780	0.591825	0.014283
 427	2.1300e-01	17.0915	42.763383	0.000201	2.008274	0.680422	0.016421
 428	2.1350e-01	17.1236	42.837362	0.000181	1.809538	0.613088	0.014796
 429	2.1400e-01	17.1813	42.907065	0.000170	1.704941	0.577650	0.013941
 430	2.1450e-01	17.1958	42.996438	0.000219	2.186090	0.740667	0.017875
 431	2.1500e-01	17.2487	43.081108	0.000207	2.071032	0.701685	0.016934
 432	2.1550e-01	17.3033	43.128147	0.000115	1.150574	0.389825	0.009408
 433	2.1600e-01	17.2968	43.236764	-0.000266	-2.656779	-0.900141	0.021723
 434	2.1650e-01	17.3706	43.300052	0.000155	1.548044	0.524492	0.012658
 435	2.1700e-01	17.3947	43.389854	0.000220	2.196550	0.744211	0.017960
 436	2.1750e-01	17.4460	43.458274	0.000167	1.673562	0.567018	0.013684
 437	2.1800e-01	17.4717	43.539950	0.000200	1.997814	0.676878	0.016335
 438	2.1850e-01	17.5343	43.619916	0.000196	1.955975	0.662702	0.015993
 439	2.1900e-01	17.5487	43.714421	0.000231	2.311607	0.783194	0.018901
 440	2.1950e-01	17.6145	43.769585	0.000135	1.349309	0.457158	0.011033
 441	2.2000e-01	17.6321	43.856821	0.000213	2.133791	0.722948	0.017447
 442	2.2050e-01	17.6738	43.924813	0.000166	1.663102	0.563474	0.013598
 443	2.2100e-01	17.7412	44.000930	0.000186	1.861837	0.630808	0.015223
 444	2.2150e-01	17.7605	44.071488	0.000173	1.725860	0.584737	0.014112
 445	2.2200e-01	17.7974	44.155303	0.000205	2.050113	0.694597	0.016763
 446	2.2250e-01	17.8439	44.237407	0.000201	2.008274	0.680422	0.016421
 447	2.2300e-01	17.8856	44.293854	0.000138	1.380688	0.467790	0.011289
 448	2.2350e-01	17.9225	44.395201	0.000248	2.478963	0.839895	0.020269
 449	2.2400e-01	17.9770	44.446516	0.000126	1.255171	0.425264	0.010263
 450	2.2450e-01	18.0155	44.537600	0.000223	2.227929	0.754843	0.018217
 451	2.2500e-01	18.0332	44.598323	0.000149	1.485286	0.503228	0.012145
 452	2.2550e-01	18.0990	44.684703	0.000211	2.112872	0.715860	0.017276
 453	2.2600e-01	18.0909	44.768945	-0.000206	-2.060573	-0.698141	0.016848
 454	2.2650e-01	18.1792	44.839931	0.000174	1.736320	0.588281	0.014197
 455	2.2700e-01	18.2064	44.902792	0.000154	1.537585	0.520948	0.012572
 456	2.2750e-01	18.2417	44.989600	0.000212	2.123331	0.719404	0.017362
 457	2.2800e-01	18.2690	45.066572	0.000188	1.882757	0.637895	0.015395
 458	2.2850e-01	18.3203	45.143117	0.000187	1.872297	0.634351	0.015309
 459	2.2900e-01	18.3588	45.226504	0.000204	2.039653	0.691053	0.016677
 460	2.2950e-01	18.4070	45.283378	0.000139	1.391148	0.471334	0.011375
 461	2.3000e-01	18.4374	45.366338	0.000203	2.029193	0.687509	0.016592
 462	2.3050e-01	18.5016	45.444593	0.000191	1.914136	0.648527	0.015651
 463	2.3100e-01	18.5530	45.495053	0.000123	1.234252	0.418176	0.010092
 464	2.3150e-01	18.5626	45.583144	0.000215	2.154711	0.730036	0.017618
 465	2.3200e-01	18.6251	45.656695	0.000180	1.799079	0.609544	0.014710
 466	2.3250e-01	18.6572	45.719129	0.000153	1.527125	0.517404	0.012487
 467	2.3300e-01	18.6845	45.802943	0.000205	2.050113	0.694597	0.016763
 468	2.3350e-01	18.7342	45.879916	0.000188	1.882757	0.637895	0.015395
 469	2.3400e-01	18.7679	45.949191	0.000169	1.694481	0.574106	0.013855
 470	2.3450e-01	18.7856	46.024881	0.000185	1.851378	0.627264	0.015138
 471	2.3500e-01	18.8481	46.093301	0.000167	1.673562	0.567018	0.013684
 472	2.3550e-01	18.8802	46.185668	0.000226	2.259308	0.765474	0.018473
 473	2.3600e-01	18.9251	46.256226	0.000173	1.725860	0.584737	0.014112
 474	2.3650e-01	18.9636	46.316949	0.000149	1.485286	0.503228	0.012145
 475	2.3700e-01	18.9941	46.403757	0.000212	2.123331	0.719404	0.017362
 476	2.3750e-01	19.0455	46.465335	0.000151	1.506205	0.510316	0.012316
 477	2.3800e-01	19.0840	46.538886	0.000180	1.799079	0.609544	0.014710
 478	2.3850e-01	19.1305	46.605596	0.000163	1.631723	0.552843	0.013342
 479	2.3900e-01	19.1594	46.680430	0.000183	1.830458	0.620176	0.014967
 480	2.3950e-01	19.2027	46.755692	0.000184	1.840918	0.623720	0.015052
 481	2.4000e-01	19.2604	46.836086	0.000197	1.966435	0.666246	0.016079
 482	2.4050e-01	19.3118	46.910920	0.000183	1.830458	0.620176	0.014967
 483	2.4100e-01	19.3069	46.994307	-0.000204	-2.039653	-0.691053	0.016677
 484	2.4150e-01	19.3599	47.061444	0.000164	1.642182	0.556386	0.013427
 485	2.4200e-01	19.4144	47.132430	0.000174	1.736320	0.588281	0.014197
 486	2.4250e-01	19.4273	47.211968	0.000195	1.945515	0.659158	0.015908
 487	2.4300e-01	19.4706	47.273119	0.000150	1.495746	0.506772	0.012230
 488	2.4350e-01	19.5187	47.341967	0.000168	1.684021	0.570562	0.013770
 489	2.4400e-01	19.5636	47.406538	0.000158	1.579424	0.535123	0.012914
 490	2.4450e-01	19.5989	47.477524	0.000174	1.736320	0.588281	0.014197
 491	2.4500e-01	19.6294	47.560055	0.000202	2.018734	0.683965	0.016506
 492	2.4550e-01	19.6727	47.633607	0.000180	1.799079	0.609544	0.014710
 493	2.4600e-01	19.7208	47.697751	0.000157	1.568964	0.531579	0.012829
 494	2.4650e-01	19.7850	47.766598	0.000168	1.684021	0.570562	0.013770
 495	2.4700e-01	19.8091	47.841433	0.000183	1.830458	0.620176	0.014967
 496	2.4750e-01	19.8283	47.921826	0.000197	1.966435	0.666246	0.016079
 497	2.4800e-01	19.8829	47.992385	0.000173	1.725860	0.584737	0.014112
 498	2.4850e-01	19.8877	48.061660	0.000169	1.694481	0.574106	0.013855
 499	2.4900e-01	19.9663	48.132218	0.000173	1.725860	0.584737	0.014112
 500	2.4950e-01	19.9775	48.210046	0.000190	1.903676	0.644983	0.015566
 501	2.5000e-01	20.0176	48.277183	0.000164	1.642182	0.556386	0.013427
 502	2.5050e-01	19.9743	48.316097	-0.000095	-0.951838	-0.322492	0.007783
 503	2.5100e-01	19.9518	48.296854	0.000047	0.470689	0.159474	-0.003849
 504	2.5150e-01	19.9037	48.227151	0.000170	1.704941	0.577650	-0.013941
 505	2.5200e-01	19.8684	48.175408	0.000127	1.265631	0.428807	-0.010349
 506	2.5250e-01	19.8476	48.112547	0.000154	1.537585	0.520948	-0.012572
 507	2.5300e-01	19.7754	48.061660	0.000124	1.244711	0.421720	-0.010177
 508	2.5350e-01	19.7593	47.997516	0.000157	1.568964	0.531579	-0.012829
 509	2.5400e-01	19.6823	47.936366	0.000150	1.495746	0.506772	-0.012230
 510	2.5450e-01	19.6535	47.873077	0.000155	1.548044	0.524492	-0.012658
 511	2.5500e-01	19.6117	47.808933	0.000157	1.568964	0.531579	-0.012829
 512	2.5550e-01	19.5941	47.754197	0.000134	1.338849	0.453614	-0.010947
 513	2.5600e-01	19.5299	47.698178	0.000137	1.370229	0.464246	-0.011204
 514	2.5650e-01	19.4962	47.623344	0.000183	1.830458	0.620176	-0.014967
 515	2.5700e-01	19.4722	47.573739	0.000121	1.213332	0.411088	-0.009921
 516	2.5750e-01	19.4224	47.489497	0.000206	2.060573	0.698141	-0.016848
 517	2.5800e-01	19.4064	47.426636	0.000154	1.537585	0.520948	-0.012572
 518	2.5850e-01	19.3583	47.354795	0.000176	1.757240	0.595369	-0.014368
 519	2.5900e-01	19.3278	47.306901	0.000117	1.171493	0.396913	-0.009579
 520	2.5950e-01	19.2604	47.256441	0.000123	1.234252	0.418176	-0.010092
 521	2.6000e-01	19.2203	47.198712	0.000141	1.412068	0.478421	-0.011546
 522	2.6050e-01	19.1642	47.121312	0.000189	1.893217	0.641439	-0.015480
 523	2.6100e-01	19.1401	47.067003	0.000133	1.328390	0.450071	-0.010862
 524	2.6150e-01	19.1064	46.996873	0.000172	1.715401	0.581193	-0.014026
 525	2.6200e-01	19.0535	46.940426	0.000138	1.380688	0.467790	-0.011289
 526	2.6250e-01	19.0005	46.875855	0.000158	1.579424	0.535123	-0.012914
 527	2.6300e-01	18.9957	46.801021	0.000183	1.830458	0.620176	-0.014967
 528	2.6350e-01	18.9364	46.753127	0.000117	1.171493	0.396913	-0.009579
 529	2.6400e-01	18.9235	46.676154	0.000188	1.882757	0.637895	-0.015395
 530	2.6450e-01	18.8594	46.620135	0.000137	1.370229	0.464246	-0.011204
 531	2.6500e-01	18.8385	46.547439	0.000178	1.778159	0.602457	-0.014539
 532	2.6550e-01	18.7840	46.475598	0.000176	1.757240	0.595369	-0.014368
 533	2.6600e-01	18.7599	46.402474	0.000179	1.788619	0.606001	-0.014625
 534	2.6650e-01	18.6893	46.365698	0.000090	0.899539	0.304772	-0.007355
 535	2.6700e-01	18.6685	46.273759	0.000225	2.248848	0.761930	-0.018388
 536	2.6750e-01	18.6075	46.213463	0.000147	1.474826	0.499685	-0.012059
 537	2.6800e-01	18.5770	46.144616	0.000168	1.684021	0.570562	-0.013770
 538	2.6850e-01	18.5546	46.072347	0.000177	1.767699	0.598913	-0.014454
 539	2.6900e-01	18.4952	46.010341	0.000152	1.516665	0.513860	-0.012401
 540	2.6950e-01	18.4663	45.949619	0.000149	1.485286	0.503228	-0.012145
 541	2.7000e-01	18.4246	45.892317	0.000140	1.401608	0.474878	-0.011460
 542	2.7050e-01	18.3781	45.822186	0.000172	1.715401	0.581193	-0.014026
 543	2.7100e-01	18.3284	45.758043	0.000157	1.568964	0.531579	-0.012829
 544	2.7150e-01	18.3043	45.682353	0.000185	1.851378	0.627264	-0.015138
 545	2.7200e-01	18.3011	45.608374	0.000181	1.809538	0.613088	-0.014796
 546	2.7250e-01	18.2305	45.560480	0.000117	1.171493	0.396913	-0.009579
 547	2.7300e-01	18.1760	45.496336	0.000157	1.568964	0.531579	-0.012829
 548	2.7350e-01	18.1439	45.411238	0.000208	2.081492	0.705229	-0.017019
 549	2.7400e-01	18.1230	45.347095	0.000157	1.568964	0.531579	-0.012829
 550	2.7450e-01	18.0669	45.267556	0.000195	1.945515	0.659158	-0.015908
 551	2.7500e-01	18.0252	45.202985	0.000158	1.579424	0.535123	-0.012914
 552	2.7550e-01	17.9738	45.135420	0.000165	1.652642	0.559930	-0.013513
 553	2.7600e-01	17.9241	45.075980	0.000145	1.453907	0.492597	-0.011888
 554	2.7650e-01	17.8936	45.006277	0.000170	1.704941	0.577650	-0.013941
 555	2.7700e-01	17.8567	44.951541	0.000134	1.338849	0.453614	-0.010947
 556	2.7750e-01	17.8150	44.876707	0.000183	1.830458	0.620176	-0.014967
 557	2.7800e-01	17.7813	44.803155	0.000180	1.799079	0.609544	-0.014710
 558	2.7850e-01	17.7204	44.717630	0.000209	2.091952	0.708773	-0.017105
 559	2.7900e-01	17.7171	44.659901	0.000141	1.412068	0.478421	-0.011546
 560	2.7950e-01	17.6466	44.604737	0.000135	1.349309	0.457158	-0.011033
 561	2.8000e-01	17.6209	44.524771	0.000196	1.955975	0.662702	-0.015993
 562	2.8050e-01	17.5647	44.462338	0.000153	1.527125	0.517404	-0.012487
 563	2.8100e-01	17.5054	44.401188	0.000150	1.495746	0.506772	-0.012230
 564	2.8150e-01	17.5054	44.334478	0.000163	1.631723	0.552843	-0.013342
 565	2.8200e-01	17.4637	44.251519	0.000203	2.029193	0.687509	-0.016592
 566	2.8250e-01	17.4252	44.178822	0.000178	1.778159	0.602457	-0.014539
 567	2.8300e-01	17.3706	44.100139	0.000192	1.924596	0.652071	-0.015737
 568	2.8350e-01	17.3562	44.026160	0.000181	1.809538	0.613088	-0.014796
 569	2.8400e-01	17.3177	43.958595	0.000165	1.652642	0.559930	-0.013513
 570	2.8450e-01	17.2712	43.894879	0.000156	1.558504	0.528036	-0.012743
 571	2.8500e-01	17.2198	43.830735	0.000157	1.568964	0.531579	-0.012829
 572	2.8550e-01	17.1765	43.754190	0.000187	1.872297	0.634351	-0.015309
 573	2.8600e-01	17.1268	43.681494	0.000178	1.778159	0.602457	-0.014539
 574	2.8650e-01	17.1043	43.613929	0.000165	1.652642	0.559930	-0.013513
 575	2.8700e-01	17.0722	43.551068	0.000154	1.537585	0.520948	-0.012572
 576	2.8750e-01	17.0225	43.479655	0.000175	1.746780	0.591825	-0.014283
 577	2.8800e-01	16.9920	43.422353	0.000140	1.401608	0.474878	-0.011460
 578	2.8850e-01	16.9696	43.347091	0.000184	1.840918	0.623720	-0.015052
 579	2.8900e-01	16.8958	43.275250	0.000176	1.757240	0.595369	-0.014368
 580	2.8950e-01	16.8509	43.199133	0.000186	1.861837	0.630808	-0.015223
 581	2.9000e-01	16.8220	43.133279	0.000161	1.610803	0.545755	-0.013171
 582	2.9050e-01	16.7658	43.068280	0.000159	1.589884	0.538667	-0.013000
 583	2.9100e-01	16.7161	42.991735	0.000187	1.872297	0.634351	-0.015309
 584	2.9150e-01	16.6888	42.919038	0.000178	1.778159	0.602457	-0.014539
 585	2.9200e-01	16.6664	42.854039	0.000159	1.589884	0.538667	-0.013000
 586	2.9250e-01	16.6391	42.753120	0.000247	2.468503	0.836352	-0.020184
 587	2.9300e-01	16.5814	42.696673	0.000138	1.380688	0.467790	-0.011289
 588	2.9350e-01	16.5461	42.638944	0.000141	1.412068	0.478421	-0.011546
 589	2.9400e-01	16.4739	42.553846	0.000208	2.081492	0.705229	-0.017019
 590	2.9450e-01	16.4723	42.478157	0.000185	1.851378	0.627264	-0.015138
 591	2.9500e-01	16.4322	42.407171	0.000174	1.736320	0.588281	-0.014197
 592	2.9550e-01	16.3680	42.353718	0.000131	1.307470	0.442983	-0.010691
 593	2.9600e-01	16.3343	42.266055	0.000214	2.144251	0.726492	-0.017533
 594	2.9650e-01	16.3231	42.181385	0.000207	2.071032	0.701685	-0.016934
 595	2.9700e-01	16.2332	42.128787	0.000129	1.286550	0.435895	-0.010520
 596	2.9750e-01	16.2252	42.052242	0.000187	1.872297	0.634351	-0.015309
 597	2.9800e-01	16.1659	41.982539	0.000170	1.704941	0.577650	-0.013941
 598	2.9850e-01	16.1642	41.886751	0.000234	2.342986	0.793825	-0.019158
 599	2.9900e-01	16.0937	41.817048	0.000170	1.704941	0.577650	-0.013941
 600	2.9950e-01	16.0439	41.755898	0.000150	1.495746	0.506772	-0.012230
 601	3.0000e-01	15.9974	41.686622	0.000169	1.694481	0.574106	-0.013855
 602	3.0050e-01	15.9669	41.619057	0.000165	1.652642	0.559930	-0.013513
 603	3.0100e-01	15.9445	41.539092	0.000196	1.955975	0.662702	-0.015993
 604	3.0150e-01	15.9060	41.458698	0.000197	1.966435	0.666246	-0.016079
 605	3.0200e-01	15.8450	41.394982	0.000156	1.558504	0.528036	-0.012743
 606	3.0250e-01	15.8001	41.321858	0.000179	1.788619	0.606001	-0.014625
 607	3.0300e-01	15.7520	41.249162	0.000178	1.778159	0.602457	-0.014539
 608	3.0350e-01	15.7423	41.173900	0.000184	1.840918	0.623720	-0.015052
 609	3.0400e-01	15.6910	41.109756	0.000157	1.568964	0.531579	-0.012829
 610	3.0450e-01	15.6573	41.029362	0.000197	1.966435	0.666246	-0.016079
 611	3.0500e-01	15.6140	40.950252	0.000194	1.935056	0.655615	-0.015822
 612	3.0550e-01	15.5835	40.884397	0.000161	1.610803	0.545755	-0.013171
 613	3.0600e-01	15.5595	40.798445	0.000210	2.102412	0.712316	-0.017191
 614	3.0650e-01	15.5001	40.733446	0.000159	1.589884	0.538667	-0.013000
 615	3.0700e-01	15.4841	40.648348	0.000208	2.081492	0.705229	-0.017019
 616	3.0750e-01	15.4135	40.585060	0.000155	1.548044	0.524492	-0.012658
 617	3.0800e-01	15.4038	40.505949	0.000194	1.935056	0.655615	-0.015822
 618	3.0850e-01	15.3750	40.434108	0.000176	1.757240	0.595369	-0.014368
 619	3.0900e-01	15.2964	40.352004	0.000201	2.008274	0.680422	-0.016421
 620	3.0950e-01	15.2306	40.284867	0.000164	1.642182	0.556386	-0.013427
 621	3.1000e-01	15.2001	40.197631	0.000213	2.133791	0.722948	-0.017447
 622	3.1050e-01	15.1648	40.141185	0.000138	1.380688	0.467790	-0.011289
 623	3.1100e-01	15.1568	40.056515	0.000207	2.071032	0.701685	-0.016934
 624	3.1150e-01	15.1039	39.985101	0.000175	1.746780	0.591825	-0.014283
 625	3.1200e-01	15.0605	39.901714	0.000204	2.039653	0.691053	-0.016677
 626	3.1250e-01	15.0236	39.837998	0.000156	1.558504	0.528036	-0.012743
 627	3.1300e-01	14.9932	39.760598	0.000189	1.893217	0.641439	-0.015480
 628	3.1350e-01	14.9691	39.663099	0.000238	2.384825	0.808001	-0.019500
 629	3.1400e-01	14.8953	39.591258	0.000176	1.757240	0.595369	-0.014368
 630	3.1450e-01	14.8424	39.542937	0.000118	1.181953	0.400456	-0.009664
 631	3.1500e-01	14.8135	39.449287	0.000229	2.290687	0.776106	-0.018730
 632	3.1550e-01	14.7734	39.372314	0.000188	1.882757	0.637895	-0.015395
 633	3.1600e-01	14.7269	39.300046	0.000177	1.767699	0.598913	-0.014454
 634	3.1650e-01	14.7028	39.229060	0.000174	1.736320	0.588281	-0.014197
 635	3.1700e-01	14.6563	39.146956	0.000201	2.008274	0.680422	-0.016421
 636	3.1750e-01	14.6482	39.068273	0.000192	1.924596	0.652071	-0.015737
 637	3.1800e-01	14.6033	38.986169	0.000201	2.008274	0.680422	-0.016421
 638	3.1850e-01	14.5648	38.919031	0.000164	1.642182	0.556386	-0.013427
 639	3.1900e-01	14.5119	38.837783	0.000199	1.987354	0.673334	-0.016250
 640	3.1950e-01	14.4622	38.771928	0.000161	1.610803	0.545755	-0.013171
 641	3.2000e-01	14.4333	38.678278	0.000229	2.290687	0.776106	-0.018730
 642	3.2050e-01	14.3691	38.609003	0.000169	1.694481	0.574106	-0.013855
 643	3.2100e-01	14.3450	38.511077	0.000240	2.395285	0.811545	-0.019585
 644	3.2150e-01	14.3178	38.444367	0.000163	1.631723	0.552843	-0.013342
 645	3.2200e-01	14.2600	38.378513	0.000161	1.610803	0.545755	-0.013171
 646	3.2250e-01	14.2263	38.300258	0.000191	1.914136	0.648527	-0.015651
 647	3.2300e-01	14.1750	38.227561	0.000178	1.778159	0.602457	-0.014539
 648	3.2350e-01	14.1317	38.136050	0.000224	2.238389	0.758387	-0.018302
 649	3.2400e-01	14.1108	38.049242	0.000212	2.123331	0.719404	-0.017362
 650	3.2450e-01	14.0771	37.994506	0.000134	1.338849	0.453614	-0.010947
 651	3.2500e-01	14.0082	37.914112	0.000197	1.966435	0.666246	-0.016079
 652	3.2550e-01	13.9985	37.817896	0.000235	2.353446	0.797369	-0.019243
 653	3.2600e-01	13.9296	37.753325	0.000158	1.579424	0.535123	-0.012914
 654	3.2650e-01	13.8894	37.675070	0.000191	1.914136	0.648527	-0.015651
 655	3.2700e-01	13.8702	37.589117	0.000210	2.102412	0.712316	-0.017191
 656	3.2750e-01	13.8189	37.526684	0.000153	1.527125	0.517404	-0.012487
 657	3.2800e-01	13.7804	37.438593	0.000215	2.154711	0.730036	-0.017618
 658	3.2850e-01	13.7146	37.361620	0.000188	1.882757	0.637895	-0.015395
 659	3.2900e-01	13.7018	37.274812	0.000212	2.123331	0.719404	-0.017362
 660	3.2950e-01	13.6504	37.200406	0.000182	1.819998	0.616632	-0.014881
 661	3.3000e-01	13.6183	37.115736	0.000207	2.071032	0.701685	-0.016934
 662	3.3050e-01	13.5670	37.060572	0.000135	1.349309	0.457158	-0.011033
 663	3.3100e-01	13.5349	36.963073	0.000238	2.384825	0.808001	-0.019500
 664	3.3150e-01	13.4980	36.868568	0.000231	2.311607	0.783194	-0.018901
 665	3.3200e-01	13.4611	36.810411	0.000142	1.422527	0.481965	-0.011631
 666	3.3250e-01	13.4034	36.724459	0.000210	2.102412	0.712316	-0.017191
 667	3.3300e-01	13.3729	36.633374	0.000223	2.227929	0.754843	-0.018217
 668	3.3350e-01	13.3199	36.555119	0.000191	1.914136	0.648527	-0.015651
 669	3.3400e-01	13.2991	36.490120	0.000159	1.589884	0.538667	-0.013000
 670	3.3450e-01	13.2847	36.396898	0.000228	2.280228	0.772562	-0.018644
 671	3.3500e-01	13.2301	36.316932	0.000196	1.955975	0.662702	-0.015993
 672	3.3550e-01	13.1708	36.252788	0.000157	1.568964	0.531579	-0.012829
 673	3.3600e-01	13.1355	36.174960	0.000190	1.903676	0.644983	-0.015566
 674	3.3650e-01	13.0937	36.084731	0.000221	2.207009	0.747755	-0.018046
 675	3.3700e-01	13.0649	35.991509	0.000228	2.280228	0.772562	-0.018644
 676	3.3750e-01	13.0183	35.923516	0.000166	1.663102	0.563474	-0.013598
 677	3.3800e-01	12.9911	35.828156	0.000233	2.332526	0.790281	-0.019072
 678	3.3850e-01	12.9349	35.750756	0.000189	1.893217	0.641439	-0.015480
 679	3.3900e-01	12.9397	35.658816	-0.000225	-2.248848	-0.761930	-0.018388
 680	3.3950e-01	12.8467	35.590824	0.000166	1.663102	0.563474	-0.013598
 681	3.4000e-01	12.7986	35.512141	0.000192	1.924596	0.652071	-0.015737
 682	3.4050e-01	12.7633	35.432603	0.000195	1.945515	0.659158	-0.015908
 683	3.4100e-01	12.7376	35.338097	0.000231	2.311607	0.783194	-0.018901
 684	3.4150e-01	12.6831	35.272671	0.000160	1.600343	0.542211	-0.013085
 685	3.4200e-01	12.6590	35.194843	0.000190	1.903676	0.644983	-0.015566
 686	3.4250e-01	12.6269	35.102048	0.000227	2.269768	0.769018	-0.018559
 687	3.4300e-01	12.5611	35.016096	0.000210	2.102412	0.712316	-0.017191
 688	3.4350e-01	12.5355	34.931853	0.000206	2.060573	0.698141	-0.016848
 689	3.4400e-01	12.4922	34.838204	0.000229	2.290687	0.776106	-0.018730
 690	3.4450e-01	12.4456	34.781757	0.000138	1.380688	0.467790	-0.011289
 691	3.4500e-01	12.4023	34.698798	0.000203	2.029193	0.687509	-0.016592
 692	3.4550e-01	12.3879	34.600016	0.000242	2.416205	0.818632	-0.019756
 693	3.4600e-01	12.3253	34.520050	0.000196	1.955975	0.662702	-0.015993
 694	3.4650e-01	12.2868	34.440940	0.000194	1.935056	0.655615	-0.015822
 695	3.4700e-01	12.2387	34.347290	0.000229	2.290687	0.776106	-0.018730
 696	3.4750e-01	12.2451	34.265186	-0.000201	-2.008274	-0.680422	-0.016421
 697	3.4800e-01	12.1858	34.202325	0.000154	1.537585	0.520948	-0.012572
 698	3.4850e-01	12.1440	34.112523	0.000220	2.196550	0.744211	-0.017960
 699	3.4900e-01	12.1184	34.015452	0.000237	2.374366	0.804457	-0.019414
 700	3.4950e-01	12.0638	33.944894	0.000173	1.725860	0.584737	-0.014112
 701	3.5000e-01	12.0157	33.862363	0.000202	2.018734	0.683965	-0.016506
 702	3.5050e-01	11.9547	33.775555	0.000212	2.123331	0.719404	-0.017362
 703	3.5100e-01	11.9676	33.690457	-0.000208	-2.081492	-0.705229	-0.017019
 704	3.5150e-01	11.9130	33.601511	0.000218	2.175630	0.737123	-0.017789
 705	3.5200e-01	11.8777	33.501447	0.000245	2.447584	0.829264	-0.020013
 706	3.5250e-01	11.8184	33.420626	0.000198	1.976895	0.669790	-0.016164
 707	3.5300e-01	11.7847	33.341515	0.000194	1.935056	0.655615	-0.015822
 708	3.5350e-01	11.7462	33.256418	0.000208	2.081492	0.705229	-0.017019
 709	3.5400e-01	11.7045	33.167472	0.000218	2.175630	0.737123	-0.017789
 710	3.5450e-01	11.6772	33.076387	0.000223	2.227929	0.754843	-0.018217
 711	3.5500e-01	11.6243	33.006684	0.000170	1.704941	0.577650	-0.013941
 712	3.5550e-01	11.5681	32.925008	0.000200	1.997814	0.676878	-0.016335
 713	3.5600e-01	11.5489	32.826654	0.000241	2.405745	0.815088	-0.019671
 714	3.5650e-01	11.4767	32.745833	0.000198	1.976895	0.669790	-0.016164
 715	3.5700e-01	11.4574	32.657315	0.000217	2.165170	0.733580	-0.017704
 716	3.5750e-01	11.4221	32.571790	0.000209	2.091952	0.708773	-0.017105
 717	3.5800e-01	11.3564	32.491396	0.000197	1.966435	0.666246	-0.016079
 718	3.5850e-01	11.3387	32.389194	0.000250	2.499883	0.846983	-0.020440
 719	3.5900e-01	11.2986	32.305807	0.000204	2.039653	0.691053	-0.016677
 720	3.5950e-01	11.2681	32.214722	0.000223	2.227929	0.754843	-0.018217
 721	3.6000e-01	11.2248	32.115941	0.000242	2.416205	0.818632	-0.019756
 722	3.6050e-01	11.1719	32.054791	0.000150	1.495746	0.506772	-0.012230
 723	3.6100e-01	11.1398	31.965845	0.000218	2.175630	0.737123	-0.017789
 724	3.6150e-01	11.1157	31.858083	0.000264	2.635860	0.893053	-0.021552
 725	3.6200e-01	11.0612	31.777262	0.000198	1.976895	0.669790	-0.016164
 726	3.6250e-01	11.0147	31.693875	0.000204	2.039653	0.691053	-0.016677
 727	3.6300e-01	11.0131	31.618613	0.000184	1.840918	0.623720	-0.015052
 728	3.6350e-01	10.9264	31.537364	0.000199	1.987354	0.673334	-0.016250
 729	3.6400e-01	10.9008	31.444569	0.000227	2.269768	0.769018	-0.018559
 730	3.6450e-01	10.8607	31.348781	0.000234	2.342986	0.793825	-0.019158
 731	3.6500e-01	10.8286	31.266250	0.000202	2.018734	0.683965	-0.016506
 732	3.6550e-01	10.7837	31.170889	0.000233	2.332526	0.790281	-0.019072
 733	3.6600e-01	10.7532	31.081943	0.000218	2.175630	0.737123	-0.017789
 734	3.6650e-01	10.7050	30.986155	0.000234	2.342986	0.793825	-0.019158
 735	3.6700e-01	10.6505	30.896354	0.000220	2.196550	0.744211	-0.017960
 736	3.6750e-01	10.6296	30.810401	0.000210	2.102412	0.712316	-0.017191
 737	3.6800e-01	10.5799	30.714613	0.000234	2.342986	0.793825	-0.019158
 738	3.6850e-01	10.5350	30.632937	0.000200	1.997814	0.676878	-0.016335
 739	3.6900e-01	10.5174	30.512774	0.000294	2.939193	0.995825	-0.024033
 740	3.6950e-01	10.4612	30.447775	0.000159	1.589884	0.538667	-0.013000
 741	3.7000e-01	10.4131	30.362677	0.000208	2.081492	0.705229	-0.017019
 742	3.7050e-01	10.3922	30.279290	0.000204	2.039653	0.691053	-0.016677
 743	3.7100e-01	10.3585	30.178371	0.000247	2.468503	0.836352	-0.020184
 744	3.7150e-01	10.2831	30.082583	0.000234	2.342986	0.793825	-0.019158
 745	3.7200e-01	10.2270	30.008604	0.000181	1.809538	0.613088	-0.014796
 746	3.7250e-01	10.1933	29.909822	0.000242	2.416205	0.818632	-0.019756
 747	3.7300e-01	10.1933	29.817883	0.000225	2.248848	0.761930	-0.018388
 748	3.7350e-01	10.1179	29.728509	0.000219	2.186090	0.740667	-0.017875
 749	3.7400e-01	10.0698	29.640846	0.000214	2.144251	0.726492	-0.017533
 750	3.7450e-01	10.0617	29.549334	0.000224	2.238389	0.758387	-0.018302
 751	3.7500e-01	9.9912	29.456539	0.000227	2.269768	0.769018	-0.018559
 752	3.7550e-01	9.9687	29.352626	0.000254	2.541722	0.861159	-0.020783
 753	3.7600e-01	9.9222	29.291904	0.000149	1.485286	0.503228	-0.012145
 754	3.7650e-01	9.8901	29.190129	0.000249	2.489423	0.843439	-0.020355
 755	3.7700e-01	9.8692	29.091775	0.000241	2.405745	0.815088	-0.019671
 756	3.7750e-01	9.8099	28.997270	0.000231	2.311607	0.783194	-0.018901
 757	3.7800e-01	9.7698	28.913883	0.000204	2.039653	0.691053	-0.016677
 758	3.7850e-01	9.7281	28.822371	0.000224	2.238389	0.758387	-0.018302
 759	3.7900e-01	9.7040	28.717603	0.000256	2.562641	0.868246	-0.020954
 760	3.7950e-01	9.6286	28.641486	0.000186	1.861837	0.630808	-0.015223
 761	3.8000e-01	9.6254	28.538856	0.000251	2.510342	0.850527	-0.020526
 762	3.8050e-01	9.5564	28.450765	0.000215	2.154711	0.730036	-0.017618
 763	3.8100e-01	9.5436	28.359681	0.000223	2.227929	0.754843	-0.018217
 764	3.8150e-01	9.5035	28.244222	0.000282	2.824135	0.956843	-0.023092
 765	3.8200e-01	9.4313	28.164683	0.000195	1.945515	0.659158	-0.015908
 766	3.8250e-01	9.4008	28.088566	0.000186	1.861837	0.630808	-0.015223
 767	3.8300e-01	9.3976	27.977384	0.000272	2.719538	0.921404	-0.022237
 768	3.8350e-01	9.3350	27.879885	0.000238	2.384825	0.808001	-0.019500
 769	3.8400e-01	9.3142	27.781959	0.000240	2.395285	0.811545	-0.019585
 770	3.8450e-01	9.2660	27.704986	0.000188	1.882757	0.637895	-0.015395
 771	3.8500e-01	9.1987	27.620744	0.000206	2.060573	0.698141	-0.016848
 772	3.8550e-01	9.1586	27.506568	0.000279	2.792756	0.946211	-0.022835
 773	3.8600e-01	9.1409	27.418050	0.000217	2.165170	0.733580	-0.017704
 774	3.8650e-01	9.1040	27.331242	0.000212	2.123331	0.719404	-0.017362
 775	3.8700e-01	9.0318	27.226474	0.000256	2.562641	0.868246	-0.020954
 776	3.8750e-01	8.9917	27.140949	0.000209	2.091952	0.708773	-0.017105
 777	3.8800e-01	8.9645	27.046871	0.000230	2.301147	0.779650	-0.018816
 778	3.8850e-01	8.9516	26.936971	0.000269	2.688158	0.910773	-0.021980
 779	3.8900e-01	8.9099	26.838617	0.000241	2.405745	0.815088	-0.019671
 780	3.8950e-01	8.8377	26.749671	0.000218	2.175630	0.737123	-0.017789
 781	3.9000e-01	8.8137	26.648752	0.000247	2.468503	0.836352	-0.020184
 782	3.9050e-01	8.7752	26.560233	0.000217	2.165170	0.733580	-0.017704
 783	3.9100e-01	8.7671	26.464018	0.000235	2.353446	0.797369	-0.019243
 784	3.9150e-01	8.6837	26.365236	0.000242	2.416205	0.818632	-0.019756
 785	3.9200e-01	8.6532	26.281849	0.000204	2.039653	0.691053	-0.016677
 786	3.9250e-01	8.6035	26.172377	0.000268	2.677699	0.907229	-0.021894
 787	3.9300e-01	8.5826	26.083004	0.000219	2.186090	0.740667	-0.017875
 788	3.9350e-01	8.5490	25.972249	0.000271	2.709078	0.917860	-0.022151
 789	3.9400e-01	8.4992	25.882020	0.000221	2.207009	0.747755	-0.018046
 790	3.9450e-01	8.4864	25.780673	0.000248	2.478963	0.839895	-0.020269
 791	3.9500e-01	8.4383	25.674194	0.000260	2.604480	0.882422	-0.021296
 792	3.9550e-01	8.3741	25.590807	0.000204	2.039653	0.691053	-0.016677
 793	3.9600e-01	8.3388	25.491598	0.000243	2.426664	0.822176	-0.019842
 794	3.9650e-01	8.3067	25.392389	0.000243	2.426664	0.822176	-0.019842
 795	3.9700e-01	8.2554	25.292752	0.000244	2.437124	0.825720	-0.019927
 796	3.9750e-01	8.2008	25.189267	0.000253	2.531262	0.857615	-0.020697
 797	3.9800e-01	8.1511	25.112722	0.000187	1.872297	0.634351	-0.015309
 798	3.9850e-01	8.1351	24.992559	0.000294	2.939193	0.995825	-0.024033
 799	3.9900e-01	8.0918	24.901903	0.000222	2.217469	0.751299	-0.018131
 800	3.9950e-01	8.0613	24.794141	0.000264	2.635860	0.893053	-0.021552
 801	4.0000e-01	8.0196	24.703057	0.000223	2.227929	0.754843	-0.018217
 802	4.0050e-01	7.9875	24.605986	0.000237	2.374366	0.804457	-0.019414
 803	4.0100e-01	7.9345	24.506777	0.000243	2.426664	0.822176	-0.019842
 804	4.0150e-01	7.8639	24.427239	0.000195	1.945515	0.659158	-0.015908
 805	4.0200e-01	7.8463	24.315628	0.000273	2.729997	0.924948	-0.022322
 806	4.0250e-01	7.8190	24.209150	0.000260	2.604480	0.882422	-0.021296
 807	4.0300e-01	7.7853	24.112934	0.000235	2.353446	0.797369	-0.019243
 808	4.0350e-01	7.7533	24.015435	0.000238	2.384825	0.808001	-0.019500
 809	4.0400e-01	7.6955	23.897838	0.000288	2.876434	0.974562	-0.023519
 810	4.0450e-01	7.6570	23.808465	0.000219	2.186090	0.740667	-0.017875
 811	4.0500e-01	7.5912	23.718236	0.000221	2.207009	0.747755	-0.018046
 812	4.0550e-01	7.5784	23.606198	0.000274	2.740457	0.928492	-0.022408
 813	4.0600e-01	7.5447	23.501002	0.000257	2.573101	0.871790	-0.021039
 814	4.0650e-01	7.5206	23.413339	0.000214	2.144251	0.726492	-0.017533
 815	4.0700e-01	7.4661	23.300446	0.000276	2.761377	0.935580	-0.022579
 816	4.0750e-01	7.4196	23.195250	0.000257	2.573101	0.871790	-0.021039
 817	4.0800e-01	7.3650	23.105449	0.000220	2.196550	0.744211	-0.017960
 818	4.0850e-01	7.3554	23.008378	0.000237	2.374366	0.804457	-0.019414
 819	4.0900e-01	7.2977	22.911735	0.000236	2.363906	0.800913	-0.019329
 820	4.0950e-01	7.2399	22.805256	0.000260	2.604480	0.882422	-0.021296
 821	4.1000e-01	7.2415	22.692790	-0.000275	-2.750917	-0.932036	-0.022493
 822	4.1050e-01	7.1950	22.604272	0.000217	2.165170	0.733580	-0.017704
 823	4.1100e-01	7.1260	22.484537	0.000293	2.928733	0.992282	-0.023947
 824	4.1150e-01	7.0875	22.383190	0.000248	2.478963	0.839895	-0.020269
 825	4.1200e-01	7.0506	22.290823	0.000226	2.259308	0.765474	-0.018473
 826	4.1250e-01	7.0009	22.194607	0.000235	2.353446	0.797369	-0.019243
 827	4.1300e-01	6.9608	22.090266	0.000255	2.552181	0.864702	-0.020868
 828	4.1350e-01	6.9207	21.975235	0.000281	2.813675	0.953299	-0.023006
 829	4.1400e-01	6.9094	21.881158	0.000230	2.301147	0.779650	-0.018816
 830	4.1450e-01	6.8773	21.775962	0.000257	2.573101	0.871790	-0.021039
 831	4.1500e-01	6.8164	21.672477	0.000253	2.531262	0.857615	-0.020697
 832	4.1550e-01	6.7731	21.568564	0.000254	2.541722	0.861159	-0.020783
 833	4.1600e-01	6.7570	21.470637	0.000240	2.395285	0.811545	-0.019585
 834	4.1650e-01	6.7073	21.370145	0.000246	2.458044	0.832808	-0.020098
 835	4.1700e-01	6.6624	21.263667	0.000260	2.604480	0.882422	-0.021296
 836	4.1750e-01	6.5950	21.154195	0.000268	2.677699	0.907229	-0.021894
 837	4.1800e-01	6.5581	21.051992	0.000250	2.499883	0.846983	-0.020440
 838	4.1850e-01	6.5485	20.952783	0.000243	2.426664	0.822176	-0.019842
 839	4.1900e-01	6.4939	20.833476	0.000292	2.918273	0.988738	-0.023861
 840	4.1950e-01	6.5164	20.694498	-0.000340	-3.399422	-1.151755	-0.027796
 841	4.2000e-01	6.3913	20.626933	0.000165	1.652642	0.559930	-0.013513
 842	4.2050e-01	6.3704	20.533710	0.000228	2.280228	0.772562	-0.018644
 843	4.2100e-01	6.3255	20.424666	0.000267	2.667239	0.903685	-0.021809
 844	4.2150e-01	6.2998	20.310490	0.000279	2.792756	0.946211	-0.022835
 845	4.2200e-01	6.2373	20.218123	0.000226	2.259308	0.765474	-0.018473
 846	4.2250e-01	6.2228	20.097105	0.000296	2.960112	1.002913	-0.024204
 847	4.2300e-01	6.1923	20.000889	0.000235	2.353446	0.797369	-0.019243
 848	4.2350e-01	6.1234	19.894838	0.000259	2.594020	0.878878	-0.021210
 849	4.2400e-01	6.0977	19.787504	0.000263	2.625400	0.889510	-0.021467
 850	4.2450e-01	6.0592	19.673756	0.000278	2.782296	0.942667	-0.022750
 851	4.2500e-01	6.0143	19.582672	0.000223	2.227929	0.754843	-0.018217
 852	4.2550e-01	5.9854	19.465930	0.000286	2.855514	0.967475	-0.023348
 853	4.2600e-01	5.9645	19.363300	0.000251	2.510342	0.850527	-0.020526
 854	4.2650e-01	5.9132	19.253828	0.000268	2.677699	0.907229	-0.021894
 855	4.2700e-01	5.8988	19.140935	0.000276	2.761377	0.935580	-0.022579
 856	4.2750e-01	5.8234	19.041298	0.000244	2.437124	0.825720	-0.019927
 857	4.2800e-01	5.7720	18.937385	0.000254	2.541722	0.861159	-0.020783
 858	4.2850e-01	5.7287	18.835610	0.000249	2.489423	0.843439	-0.020355
 859	4.2900e-01	5.7319	18.710316	-0.000306	-3.064710	-1.038352	-0.025059
 860	4.2950e-01	5.6854	18.589298	0.000296	2.960112	1.002913	-0.024204
 861	4.3000e-01	5.5956	18.500780	0.000217	2.165170	0.733580	-0.017704
 862	4.3050e-01	5.5843	18.391735	0.000267	2.667239	0.903685	-0.021809
 863	4.3100e-01	5.5314	18.285684	0.000259	2.594020	0.878878	-0.021210
 864	4.3150e-01	5.5041	18.180061	0.000258	2.583561	0.875334	-0.021125
 865	4.3200e-01	5.4576	18.071016	0.000267	2.667239	0.903685	-0.021809
 866	4.3250e-01	5.4287	17.943584	0.000312	3.117008	1.056071	-0.025486
 867	4.3300e-01	5.3742	17.843520	0.000245	2.447584	0.829264	-0.020013
 868	4.3350e-01	5.3694	17.720791	0.000300	3.001951	1.017089	-0.024546
 869	4.3400e-01	5.2827	17.632273	0.000217	2.165170	0.733580	-0.017704
 870	4.3450e-01	5.2571	17.507406	0.000305	3.054250	1.034808	-0.024973
 871	4.3500e-01	5.2266	17.399645	0.000264	2.635860	0.893053	-0.021552
 872	4.3550e-01	5.1544	17.301291	0.000241	2.405745	0.815088	-0.019671
 873	4.3600e-01	5.1319	17.185832	0.000282	2.824135	0.956843	-0.023092
 874	4.3650e-01	5.0614	17.083630	0.000250	2.499883	0.846983	-0.020440
 875	4.3700e-01	5.0694	16.964322	-0.000292	-2.918273	-0.988738	-0.023861
 876	4.3750e-01	5.0084	16.854850	0.000268	2.677699	0.907229	-0.021894
 877	4.3800e-01	4.9571	16.748799	0.000259	2.594020	0.878878	-0.021210
 878	4.3850e-01	4.9154	16.629064	0.000293	2.928733	0.992282	-0.023947
 879	4.3900e-01	4.8945	16.518309	0.000271	2.709078	0.917860	-0.022151
 880	4.3950e-01	4.8656	16.400712	0.000288	2.876434	0.974562	-0.023519
 881	4.4000e-01	4.8271	16.312194	0.000217	2.165170	0.733580	-0.017704
 882	4.4050e-01	4.7790	16.185189	0.000311	3.106549	1.052527	-0.025401
 883	4.4100e-01	4.7229	16.082559	0.000251	2.510342	0.850527	-0.020526
 884	4.4150e-01	4.7068	15.955554	0.000311	3.106549	1.052527	-0.025401
 885	4.4200e-01	4.6314	15.852069	0.000253	2.531262	0.857615	-0.020697
 886	4.4250e-01	4.6058	15.733189	0.000291	2.907813	0.985194	-0.023776
 887	4.4300e-01	4.5913	15.609178	0.000303	3.033330	1.027720	-0.024802
 888	4.4350e-01	4.5416	15.495857	0.000277	2.771836	0.939124	-0.022664
 889	4.4400e-01	4.5191	15.388096	0.000264	2.635860	0.893053	-0.021552
 890	4.4450e-01	4.4485	15.270071	0.000289	2.886894	0.978106	-0.023605
 891	4.4500e-01	4.4068	15.175138	0.000232	2.322067	0.786738	-0.018987
 892	4.4550e-01	4.3780	15.049416	0.000308	3.075169	1.041896	-0.025144
 893	4.4600e-01	4.3282	14.948497	0.000247	2.468503	0.836352	-0.020184
 894	4.4650e-01	4.2897	14.835176	0.000277	2.771836	0.939124	-0.022664
 895	4.4700e-01	4.2801	14.711592	0.000302	3.022871	1.024176	-0.024717
 896	4.4750e-01	4.2255	14.600837	0.000271	2.709078	0.917860	-0.022151
 897	4.4800e-01	4.1903	14.487089	0.000278	2.782296	0.942667	-0.022750
 898	4.4850e-01	4.1453	14.366499	0.000295	2.949652	0.999369	-0.024118
 899	4.4900e-01	4.0828	14.248902	0.000288	2.876434	0.974562	-0.023519
 900	4.4950e-01	4.0282	14.140713	0.000265	2.646319	0.896597	-0.021638
 901	4.5000e-01	3.9881	14.030385	0.000270	2.698618	0.914317	-0.022065
 902	4.5050e-01	3.9817	13.896966	0.000326	3.263445	1.105685	-0.026684
 903	4.5100e-01	3.9320	13.785784	0.000272	2.719538	0.921404	-0.022237
 904	4.5150e-01	3.8871	13.672891	0.000276	2.761377	0.935580	-0.022579
 905	4.5200e-01	3.8646	13.557859	0.000281	2.813675	0.953299	-0.023006
 906	4.5250e-01	3.8052	13.451808	0.000259	2.594020	0.878878	-0.021210
 907	4.5300e-01	3.7844	13.330790	0.000296	2.960112	1.002913	-0.024204
 908	4.5350e-01	3.7379	13.222601	0.000265	2.646319	0.896597	-0.021638
 909	4.5400e-01	3.7074	13.103721	0.000291	2.907813	0.985194	-0.023776
 910	4.5450e-01	3.6865	12.983131	0.000295	2.949652	0.999369	-0.024118
 911	4.5500e-01	3.6047	12.876225	0.000261	2.614940	0.885966	-0.021381
 912	4.5550e-01	3.5678	12.769746	0.000260	2.604480	0.882422	-0.021296
 913	4.5600e-01	3.5325	12.634616	0.000331	3.305284	1.119861	-0.027026
 914	4.5650e-01	3.4764	12.520440	0.000279	2.792756	0.946211	-0.022835
 915	4.5700e-01	3.4619	12.399422	0.000296	2.960112	1.002913	-0.024204
 916	4.5750e-01	3.4122	12.279687	0.000293	2.928733	0.992282	-0.023947
 917	4.5800e-01	3.3849	12.154821	0.000305	3.054250	1.034808	-0.024973
 918	4.5850e-01	3.3352	12.033375	0.000297	2.970572	1.006457	-0.024289
 919	4.5900e-01	3.3015	11.922620	0.000271	2.709078	0.917860	-0.022151
 920	4.5950e-01	3.2598	11.818280	0.000255	2.552181	0.864702	-0.020868
 921	4.6000e-01	3.2181	11.680157	0.000338	3.378503	1.144668	-0.027625
 922	4.6050e-01	3.1684	11.565981	0.000279	2.792756	0.946211	-0.022835
 923	4.6100e-01	3.1299	11.450522	0.000282	2.824135	0.956843	-0.023092
 924	4.6150e-01	3.1042	11.346181	0.000255	2.552181	0.864702	-0.020868
 925	4.6200e-01	3.0657	11.206348	0.000342	3.420342	1.158843	-0.027967
 926	4.6250e-01	3.0240	11.093883	0.000275	2.750917	0.932036	-0.022493
 927	4.6300e-01	2.9518	10.984410	0.000268	2.677699	0.907229	-0.021894
 928	4.6350e-01	2.9133	10.876221	0.000265	2.646319	0.896597	-0.021638
 929	4.6400e-01	2.9005	10.737671	0.000339	3.388962	1.148211	-0.027710
 930	4.6450e-01	2.8427	10.608528	0.000316	3.158848	1.070247	-0.025829
 931	4.6500e-01	2.8267	10.480668	0.000313	3.127468	1.059615	-0.025572
 932	4.6550e-01	2.7785	10.362643	0.000289	2.886894	0.978106	-0.023605
 933	4.6600e-01	2.7288	10.238204	0.000304	3.043790	1.031264	-0.024888
 934	4.6650e-01	2.6935	10.118042	0.000294	2.939193	0.995825	-0.024033
 935	4.6700e-01	2.6534	9.996596	0.000297	2.970572	1.006457	-0.024289
 936	4.6750e-01	2.6165	9.876006	0.000295	2.949652	0.999369	-0.024118
 937	4.6800e-01	2.5876	9.757554	0.000290	2.897354	0.981650	-0.023690
 938	4.6850e-01	2.5652	9.628838	0.000315	3.148388	1.066703	-0.025743
 939	4.6900e-01	2.4882	9.519366	0.000268	2.677699	0.907229	-0.021894
 940	4.6950e-01	2.4882	9.386802	0.000324	3.242526	1.098597	-0.026513
 941	4.7000e-01	2.4304	9.258942	0.000313	3.127468	1.059615	-0.025572
 942	4.7050e-01	2.3678	9.147760	0.000272	2.719538	0.921404	-0.022237
 943	4.7100e-01	2.3165	9.023321	0.000304	3.043790	1.031264	-0.024888
 944	4.7150e-01	2.2812	8.908717	0.000280	2.803216	0.949755	-0.022921
 945	4.7200e-01	2.2331	8.781713	0.000311	3.106549	1.052527	-0.025401
 946	4.7250e-01	2.1898	8.685925	0.000234	2.342986	0.793825	-0.019158
 947	4.7300e-01	2.1673	8.556354	0.000317	3.169307	1.073790	-0.025914
 948	4.7350e-01	2.1593	8.413955	0.000348	3.483100	1.180106	-0.028480
 949	4.7400e-01	2.0951	8.281391	0.000324	3.242526	1.098597	-0.026513
 950	4.7450e-01	2.0630	8.156524	0.000305	3.054250	1.034808	-0.024973
 951	4.7500e-01	2.0053	8.026526	0.000318	3.179767	1.077334	-0.026000
 952	4.7550e-01	1.9748	7.898239	0.000314	3.137928	1.063159	-0.025658
 953	4.7600e-01	1.9507	7.795181	0.000252	2.520802	0.854071	-0.020612
 954	4.7650e-01	1.9187	7.649361	0.000357	3.566778	1.208457	-0.029164
 955	4.7700e-01	1.8465	7.540316	0.000267	2.667239	0.903685	-0.021809
 956	4.7750e-01	1.8336	7.408180	0.000323	3.232066	1.095054	-0.026427
 957	4.7800e-01	1.8176	7.275616	0.000324	3.242526	1.098597	-0.026513
 958	4.7850e-01	1.7406	7.147329	0.000314	3.137928	1.063159	-0.025658
 959	4.7900e-01	1.6860	7.028449	0.000291	2.907813	0.985194	-0.023776
 960	4.7950e-01	1.6106	6.906576	0.000298	2.981032	1.010001	-0.024375
 961	4.8000e-01	1.6443	6.744078	-0.000397	-3.974709	-1.346668	-0.032500
 962	4.8050e-01	1.5465	6.636744	0.000263	2.625400	0.889510	-0.021467
 963	4.8100e-01	1.5160	6.513161	0.000302	3.022871	1.024176	-0.024717
 964	4.8150e-01	1.4775	6.398557	0.000280	2.803216	0.949755	-0.022921
 965	4.8200e-01	1.4534	6.262572	0.000333	3.326204	1.126948	-0.027197
 966	4.8250e-01	1.4278	6.131291	0.000321	3.211146	1.087966	-0.026256
 967	4.8300e-01	1.3877	6.007707	0.000302	3.022871	1.024176	-0.024717
 968	4.8350e-01	1.3251	5.891393	0.000285	2.845055	0.963931	-0.023263
 969	4.8400e-01	1.2850	5.758830	0.000324	3.242526	1.098597	-0.026513
 970	4.8450e-01	1.2321	5.624983	0.000327	3.273905	1.109229	-0.026769
 971	4.8500e-01	1.2192	5.487715	0.000336	3.357583	1.137580	-0.027454
 972	4.8550e-01	1.1567	5.357717	0.000318	3.179767	1.077334	-0.026000
 973	4.8600e-01	1.1037	5.243113	0.000280	2.803216	0.949755	-0.022921
 974	4.8650e-01	1.0748	5.102425	0.000344	3.441261	1.165931	-0.028138
 975	4.8700e-01	1.0379	4.957460	0.000355	3.545859	1.201369	-0.028993
 976	4.8750e-01	1.0155	4.830027	0.000312	3.117008	1.056071	-0.025486
 977	4.8800e-01	0.9609	4.709865	0.000294	2.939193	0.995825	-0.024033
 978	4.8850e-01	0.9369	4.584143	0.000308	3.075169	1.041896	-0.025144
 979	4.8900e-01	0.8968	4.452862	0.000321	3.211146	1.087966	-0.026256
 980	4.8950e-01	0.8551	4.324574	0.000314	3.137928	1.063159	-0.025658
 981	4.9000e-01	0.8214	4.173195	0.000370	3.702755	1.254527	-0.030276
 982	4.9050e-01	0.7797	4.058164	0.000281	2.813675	0.953299	-0.023006
 983	4.9100e-01	0.7444	3.926883	0.000321	3.211146	1.087966	-0.026256
 984	4.9150e-01	0.6978	3.793464	0.000326	3.263445	1.105685	-0.026684
 985	4.9200e-01	0.6369	3.654058	0.000341	3.409882	1.155299	-0.027881
 986	4.9250e-01	0.6064	3.523205	0.000320	3.200687	1.084422	-0.026171
 987	4.9300e-01	0.5454	3.394917	0.000314	3.137928	1.063159	-0.025658
 988	4.9350e-01	0.5230	3.251235	0.000351	3.514479	1.190738	-0.028736
 989	4.9400e-01	0.4925	3.118671	0.000324	3.242526	1.098597	-0.026513
 990	4.9450e-01	0.4492	2.978410	0.000343	3.430801	1.162387	-0.028052
 991	4.9500e-01	0.4123	2.853543	0.000305	3.054250	1.034808	-0.024973
 992	4.9550e-01	0.3577	2.717131	0.000334	3.336663	1.130492	-0.027282
 993	4.9600e-01	0.3401	2.581146	0.000333	3.326204	1.126948	-0.027197
 994	4.9650e-01	0.2984	2.448155	0.000325	3.252985	1.102141	-0.026598
 995	4.9700e-01	0.2406	2.310887	0.000336	3.357583	1.137580	-0.027454
 996	4.9750e-01	0.2053	2.162929	0.000362	3.619077	1.226176	-0.029592
 997	4.9800e-01	0.1524	2.050463	0.000275	2.750917	0.932036	-0.022493
 998	4.9850e-01	0.1588	1.900367	-0.000367	-3.671376	-1.243896	-0.030019
 999	4.9900e-01	0.0706	1.766948	0.000326	3.263445	1.105685	-0.026684
1000	4.9950e-01	0.0545	1.630963	0.000333	3.326204	1.126948	-0.027197
1001	5.0000e-01	0.0561	1.463761	-0.000409	-4.089766	-1.385650	-0.033440
1002	5.0050e-01	-0.0289	1.372250	0.000224	2.238389	0.758387	-0.018302
1003	5.0100e-01	-0.0513	1.255508	0.000286	2.855514	0.967475	-0.023348
1004	5.0150e-01	-0.0690	1.091727	0.000401	4.006088	1.357299	-0.032756
1005	5.0200e-01	-0.1492	0.969426	0.000299	2.991491	1.013545	-0.024460
1006	5.0250e-01	-0.1973	0.833014	0.000334	3.336663	1.130492	-0.027282
1007	5.0300e-01	-0.2358	0.707292	0.000308	3.075169	1.041896	-0.025144
1008	5.0350e-01	-0.2599	0.561900	0.000356	3.556318	1.204913	-0.029079
1009	5.0400e-01	-0.3048	0.413941	0.000362	3.619077	1.226176	-0.029592
1010	5.0450e-01	-0.3353	0.294206	0.000293	2.928733	0.992282	-0.023947
1011	5.0500e-01	-0.3834	0.154373	0.000342	3.420342	1.158843	-0.027967
1012	5.0550e-01	-0.4155	0.002993	0.000370	3.702755	1.254527	-0.030276
1013	5.0600e-01	-0.4444	-0.146675	0.000366	3.660916	1.240352	-0.029934
1014	5.0650e-01	-0.5085	-0.277101	0.000319	3.190227	1.080878	-0.026085
1015	5.0700e-01	-0.5583	-0.405389	0.000314	3.137928	1.063159	-0.025658
1016	5.0750e-01	-0.5727	-0.549498	0.000352	3.524939	1.194282	-0.028822
1017	5.0800e-01	-0.6224	-0.686766	0.000336	3.357583	1.137580	-0.027454
1018	5.0850e-01	-0.6609	-0.830448	0.000351	3.514479	1.190738	-0.028736
1019	5.0900e-01	-0.6930	-0.975841	0.000356	3.556318	1.204913	-0.029079
1020	5.0950e-01	-0.7331	-1.127648	0.000371	3.713215	1.258071	-0.030361
1021	5.1000e-01	-0.7941	-1.251659	0.000303	3.033330	1.027720	-0.024802
1022	5.1050e-01	-0.7973	-1.389782	0.000338	3.378503	1.144668	-0.027625
1023	5.1100e-01	-0.8470	-1.538596	0.000364	3.639997	1.233264	-0.029763
1024	5.1150e-01	-0.9064	-1.667311	0.000315	3.148388	1.066703	-0.025743
1025	5.1200e-01	-0.9657	-1.799447	0.000323	3.232066	1.095054	-0.026427
1026	5.1250e-01	-0.9609	-1.968359	-0.000413	-4.131605	-1.399826	-0.033782
1027	5.1300e-01	-1.0139	-2.112896	0.000354	3.535399	1.197826	-0.028907
1028	5.1350e-01	-1.0636	-2.253585	0.000344	3.441261	1.165931	-0.028138
1029	5.1400e-01	-1.0877	-2.385294	0.000322	3.221606	1.091510	-0.026342
1030	5.1450e-01	-1.1230	-2.533680	0.000363	3.629537	1.229720	-0.029677
1031	5.1500e-01	-1.2016	-2.652987	0.000292	2.918273	0.988738	-0.023861
1032	5.1550e-01	-1.2240	-2.798380	0.000356	3.556318	1.204913	-0.029079
1033	5.1600e-01	-1.2449	-2.948476	0.000367	3.671376	1.243896	-0.030019
1034	5.1650e-01	-1.3107	-3.077619	0.000316	3.158848	1.070247	-0.025829
1035	5.1700e-01	-1.3123	-3.225577	0.000362	3.619077	1.226176	-0.029592
1036	5.1750e-01	-1.4037	-3.381233	0.000381	3.807353	1.289966	-0.031131
1037	5.1800e-01	-1.4454	-3.507810	0.000310	3.096089	1.048983	-0.025315
1038	5.1850e-01	-1.4358	-3.660472	-0.000373	-3.734134	-1.265159	-0.030532
1039	5.1900e-01	-1.5000	-3.790470	0.000318	3.179767	1.077334	-0.026000
1040	5.1950e-01	-1.5128	-3.954251	0.000401	4.006088	1.357299	-0.032756
1041	5.2000e-01	-1.5705	-4.075269	0.000296	2.960112	1.002913	-0.024204
1042	5.2050e-01	-1.6010	-4.233918	0.000388	3.880571	1.314773	-0.031730
1043	5.2100e-01	-1.6748	-4.357502	0.000302	3.022871	1.024176	-0.024717
1044	5.2150e-01	-1.6877	-4.510164	0.000373	3.734134	1.265159	-0.030532
1045	5.2200e-01	-1.7390	-4.640589	0.000319	3.190227	1.080878	-0.026085
1046	5.2250e-01	-1.7679	-4.790258	0.000366	3.660916	1.240352	-0.029934
1047	5.2300e-01	-1.8160	-4.912559	0.000299	2.991491	1.013545	-0.024460
1048	5.2350e-01	-1.8641	-5.054103	0.000346	3.462181	1.173019	-0.028309
1049	5.2400e-01	-1.8930	-5.206338	0.000372	3.723675	1.261615	-0.030447
1050	5.2450e-01	-1.9427	-5.332487	0.000309	3.085629	1.045439	-0.025230
1051	5.2500e-01	-1.9652	-5.488143	0.000381	3.807353	1.289966	-0.031131
1052	5.2550e-01	-2.0213	-5.616430	0.000314	3.137928	1.063159	-0.025658
1053	5.2600e-01	-2.0630	-5.775935	0.000390	3.901491	1.321861	-0.031901
1054	5.2650e-01	-2.1160	-5.897380	0.000297	2.970572	1.006457	-0.024289
1055	5.2700e-01	-2.1144	-6.035931	-0.000339	-3.388962	-1.148211	-0.027710
1056	5.2750e-01	-2.1737	-6.166356	0.000319	3.190227	1.080878	-0.026085
1057	5.2800e-01	-2.2395	-6.318163	0.000371	3.713215	1.258071	-0.030361
1058	5.2850e-01	-2.2539	-6.450300	0.000323	3.232066	1.095054	-0.026427
1059	5.2900e-01	-2.2748	-6.606810	0.000383	3.828272	1.297054	-0.031302
1060	5.2950e-01	-2.3277	-6.740230	0.000326	3.263445	1.105685	-0.026684
1061	5.3000e-01	-2.3983	-6.859109	0.000291	2.907813	0.985194	-0.023776
1062	5.3050e-01	-2.4384	-7.001509	0.000348	3.483100	1.180106	-0.028480
1063	5.3100e-01	-2.4657	-7.143480	0.000347	3.472640	1.176562	-0.028394
1064	5.3150e-01	-2.5122	-7.278182	0.000329	3.294824	1.116317	-0.026940
1065	5.3200e-01	-2.5379	-7.427851	0.000366	3.660916	1.240352	-0.029934
1066	5.3250e-01	-2.5764	-7.557421	0.000317	3.169307	1.073790	-0.025914
1067	5.3300e-01	-2.6261	-7.691696	0.000328	3.284365	1.112773	-0.026855
1068	5.3350e-01	-2.6582	-7.833667	0.000347	3.472640	1.176562	-0.028394
1069	5.3400e-01	-2.6710	-7.973928	0.000343	3.430801	1.162387	-0.028052
1070	5.3450e-01	-2.7432	-8.090670	0.000286	2.855514	0.967475	-0.023348
1071	5.3500e-01	-2.7737	-8.240339	0.000366	3.660916	1.240352	-0.029934
1072	5.3550e-01	-2.8010	-8.371192	0.000320	3.200687	1.084422	-0.026171
1073	5.3600e-01	-2.8539	-8.504184	0.000325	3.252985	1.102141	-0.026598
1074	5.3650e-01	-2.8972	-8.638458	0.000328	3.284365	1.112773	-0.026855
1075	5.3700e-01	-2.9534	-8.762897	0.000304	3.043790	1.031264	-0.024888
1076	5.3750e-01	-2.9855	-8.904013	0.000345	3.451721	1.169475	-0.028223
1077	5.3800e-01	-2.9999	-9.039143	0.000331	3.305284	1.119861	-0.027026
1078	5.3850e-01	-3.0416	-9.178121	0.000340	3.399422	1.151755	-0.027796
1079	5.3900e-01	-3.0946	-9.299994	0.000298	2.981032	1.010001	-0.024375
1080	5.3950e-01	-3.1170	-9.435552	0.000332	3.315744	1.123404	-0.027111
1081	5.4000e-01	-3.1700	-9.571964	0.000334	3.336663	1.130492	-0.027282
1082	5.4050e-01	-3.2037	-9.724199	0.000372	3.723675	1.261615	-0.030447
1083	5.4100e-01	-3.2678	-9.856763	0.000324	3.242526	1.098597	-0.026513
1084	5.4150e-01	-3.3159	-9.961531	0.000256	2.562641	0.868246	-0.020954
1085	5.4200e-01	-3.3416	-10.092812	0.000321	3.211146	1.087966	-0.026256
1086	5.4250e-01	-3.3769	-10.218961	0.000309	3.085629	1.045439	-0.025230
1087	5.4300e-01	-3.4411	-10.351953	0.000325	3.252985	1.102141	-0.026598
1088	5.4350e-01	-3.4716	-10.468267	0.000285	2.845055	0.963931	-0.023263
1089	5.4400e-01	-3.5052	-10.605534	0.000336	3.357583	1.137580	-0.027454
1090	5.4450e-01	-3.5389	-10.735960	0.000319	3.190227	1.080878	-0.026085
1091	5.4500e-01	-3.5887	-10.866386	0.000319	3.190227	1.080878	-0.026085
1092	5.4550e-01	-3.5983	-11.010496	0.000352	3.524939	1.194282	-0.028822
1093	5.4600e-01	-3.6625	-11.137928	0.000312	3.117008	1.056071	-0.025486
1094	5.4650e-01	-3.7154	-11.247828	0.000269	2.688158	0.910773	-0.021980
1095	5.4700e-01	-3.7427	-11.364569	0.000286	2.855514	0.967475	-0.023348
1096	5.4750e-01	-3.7699	-11.514238	0.000366	3.660916	1.240352	-0.029934
1097	5.4800e-01	-3.8277	-11.639960	0.000308	3.075169	1.041896	-0.025144
1098	5.4850e-01	-3.8550	-11.744301	0.000255	2.552181	0.864702	-0.020868
1099	5.4900e-01	-3.8951	-11.898673	0.000378	3.775973	1.279334	-0.030875
1100	5.4950e-01	-3.9159	-12.017981	0.000292	2.918273	0.988738	-0.023861
1101	5.5000e-01	-3.9673	-12.140709	0.000300	3.001951	1.017089	-0.024546
1102	5.5050e-01	-3.9849	-12.268569	0.000313	3.127468	1.059615	-0.025572
1103	5.5100e-01	-4.0507	-12.390015	0.000297	2.970572	1.006457	-0.024289
1104	5.5150e-01	-4.1020	-12.511888	0.000298	2.981032	1.010001	-0.024375
1105	5.5200e-01	-4.1405	-12.629057	0.000287	2.865974	0.971018	-0.023434
1106	5.5250e-01	-4.1678	-12.750503	0.000297	2.970572	1.006457	-0.024289
1107	5.5300e-01	-4.2079	-12.877508	0.000311	3.106549	1.052527	-0.025401
1108	5.5350e-01	-4.2480	-13.001946	0.000304	3.043790	1.031264	-0.024888
1109	5.5400e-01	-4.3042	-13.132800	0.000320	3.200687	1.084422	-0.026171
1110	5.5450e-01	-4.3106	-13.256811	0.000303	3.033330	1.027720	-0.024802
1111	5.5500e-01	-4.3523	-13.385099	0.000314	3.137928	1.063159	-0.025658
1112	5.5550e-01	-4.4116	-13.489867	0.000256	2.562641	0.868246	-0.020954
1113	5.5600e-01	-4.4598	-13.613451	0.000302	3.022871	1.024176	-0.024717
1114	5.5650e-01	-4.4710	-13.741311	0.000313	3.127468	1.059615	-0.025572
1115	5.5700e-01	-4.5512	-13.849072	0.000264	2.635860	0.893053	-0.021552
1116	5.5750e-01	-4.5705	-13.983774	0.000329	3.294824	1.116317	-0.026940
1117	5.5800e-01	-4.5865	-14.104792	0.000296	2.960112	1.002913	-0.024204
1118	5.5850e-01	-4.6683	-14.213409	0.000266	2.656779	0.900141	-0.021723
1119	5.5900e-01	-4.6795	-14.340414	0.000311	3.106549	1.052527	-0.025401
1120	5.5950e-01	-4.7758	-14.448603	0.000265	2.646319	0.896597	-0.021638
1121	5.6000e-01	-4.7710	-14.570048	-0.000297	-2.970572	-1.006457	-0.024289
1122	5.6050e-01	-4.8015	-14.715869	0.000357	3.566778	1.208457	-0.029164
1123	5.6100e-01	-4.8480	-14.818071	0.000250	2.499883	0.846983	-0.020440
1124	5.6150e-01	-4.9041	-14.921556	0.000253	2.531262	0.857615	-0.020697
1125	5.6200e-01	-4.9346	-15.061390	0.000342	3.420342	1.158843	-0.027967
1126	5.6250e-01	-4.9860	-15.170434	0.000267	2.667239	0.903685	-0.021809
1127	5.6300e-01	-5.0148	-15.284183	0.000278	2.782296	0.942667	-0.022750
1128	5.6350e-01	-5.0678	-15.402635	0.000290	2.897354	0.981650	-0.023690
1129	5.6400e-01	-5.0983	-15.513390	0.000271	2.709078	0.917860	-0.022151
1130	5.6450e-01	-5.1592	-15.618158	0.000256	2.562641	0.868246	-0.020954
1131	5.6500e-01	-5.2057	-15.746445	0.000314	3.137928	1.063159	-0.025658
1132	5.6550e-01	-5.2105	-15.871312	0.000305	3.054250	1.034808	-0.024973
1133	5.6600e-01	-5.2587	-15.972659	0.000248	2.478963	0.839895	-0.020269
1134	5.6650e-01	-5.3180	-16.081276	0.000266	2.656779	0.900141	-0.021723
1135	5.6700e-01	-5.3341	-16.207853	0.000310	3.096089	1.048983	-0.025315
1136	5.6750e-01	-5.3646	-16.320319	0.000275	2.750917	0.932036	-0.022493
1137	5.6800e-01	-5.4111	-16.450317	0.000318	3.179767	1.077334	-0.026000
1138	5.6850e-01	-5.4913	-16.554657	0.000255	2.552181	0.864702	-0.020868
1139	5.6900e-01	-5.4688	-16.676103	-0.000297	-2.970572	-1.006457	-0.024289
1140	5.6950e-01	-5.5410	-16.786430	0.000270	2.698618	0.914317	-0.022065
1141	5.7000e-01	-5.6004	-16.888205	0.000249	2.489423	0.843439	-0.020355
1142	5.7050e-01	-5.6132	-17.013927	0.000308	3.075169	1.041896	-0.025144
1143	5.7100e-01	-5.6758	-17.125537	0.000273	2.729997	0.924948	-0.022322
1144	5.7150e-01	-5.7271	-17.227739	0.000250	2.499883	0.846983	-0.020440
1145	5.7200e-01	-5.7399	-17.350468	0.000300	3.001951	1.017089	-0.024546
1146	5.7250e-01	-5.7496	-17.468920	0.000290	2.897354	0.981650	-0.023690
1147	5.7300e-01	-5.8105	-17.571550	0.000251	2.510342	0.850527	-0.020526
1148	5.7350e-01	-5.8779	-17.661779	0.000221	2.207009	0.747755	-0.018046
1149	5.7400e-01	-5.8827	-17.787501	0.000308	3.075169	1.041896	-0.025144
1150	5.7450e-01	-5.9308	-17.899966	0.000275	2.750917	0.932036	-0.022493
1151	5.7500e-01	-5.9758	-18.008156	0.000265	2.646319	0.896597	-0.021638
1152	5.7550e-01	-6.0046	-18.117628	0.000268	2.677699	0.907229	-0.021894
1153	5.7600e-01	-6.0335	-18.243349	0.000308	3.075169	1.041896	-0.025144
1154	5.7650e-01	-6.0897	-18.338710	0.000233	2.332526	0.790281	-0.019072
1155	5.7700e-01	-6.1410	-18.454596	0.000283	2.834595	0.960387	-0.023177
1156	5.7750e-01	-6.1506	-18.570483	0.000283	2.834595	0.960387	-0.023177
1157	5.7800e-01	-6.2212	-18.671402	0.000247	2.468503	0.836352	-0.020184
1158	5.7850e-01	-6.2549	-18.784723	0.000277	2.771836	0.939124	-0.022664
1159	5.7900e-01	-6.2998	-18.886070	0.000248	2.478963	0.839895	-0.020269
1160	5.7950e-01	-6.3463	-18.983996	0.000240	2.395285	0.811545	-0.019585
1161	5.8000e-01	-6.3752	-19.104587	0.000295	2.949652	0.999369	-0.024118
1162	5.8050e-01	-6.4250	-19.216197	0.000273	2.729997	0.924948	-0.022322
1163	5.8100e-01	-6.4250	-19.341064	0.000305	3.054250	1.034808	-0.024973
1164	5.8150e-01	-6.4731	-19.425733	0.000207	2.071032	0.701685	-0.016934
1165	5.8200e-01	-6.5292	-19.530929	0.000257	2.573101	0.871790	-0.021039
1166	5.8250e-01	-6.5597	-19.628855	0.000240	2.395285	0.811545	-0.019585
1167	5.8300e-01	-6.6255	-19.738327	0.000268	2.677699	0.907229	-0.021894
1168	5.8350e-01	-6.6624	-19.844806	0.000260	2.604480	0.882422	-0.021296
1169	5.8400e-01	-6.7009	-19.947864	0.000252	2.520802	0.854071	-0.020612
1170	5.8450e-01	-6.7201	-20.059474	0.000273	2.729997	0.924948	-0.022322
1171	5.8500e-01	-6.7843	-20.161249	0.000249	2.489423	0.843439	-0.020355
1172	5.8550e-01	-6.8340	-20.269010	0.000264	2.635860	0.893053	-0.021552
1173	5.8600e-01	-6.8292	-20.371640	-0.000251	-2.510342	-0.850527	-0.020526
1174	5.8650e-01	-6.9094	-20.484106	0.000275	2.750917	0.932036	-0.022493
1175	5.8700e-01	-6.9335	-20.581177	0.000237	2.374366	0.804457	-0.019414
1176	5.8750e-01	-6.9720	-20.670551	0.000219	2.186090	0.740667	-0.017875
1177	5.8800e-01	-7.0153	-20.790286	0.000293	2.928733	0.992282	-0.023947
1178	5.8850e-01	-7.0795	-20.890778	0.000246	2.458044	0.832808	-0.020098
1179	5.8900e-01	-7.0891	-20.995973	0.000257	2.573101	0.871790	-0.021039
1180	5.8950e-01	-7.1436	-21.120840	0.000305	3.054250	1.034808	-0.024973
1181	5.9000e-01	-7.1725	-21.228174	0.000263	2.625400	0.889510	-0.021467
1182	5.9050e-01	-7.2463	-21.305146	0.000188	1.882757	0.637895	-0.015395
1183	5.9100e-01	-7.2559	-21.424026	0.000291	2.907813	0.985194	-0.023776
1184	5.9150e-01	-7.2784	-21.528794	0.000256	2.562641	0.868246	-0.020954
1185	5.9200e-01	-7.3217	-21.628004	0.000243	2.426664	0.822176	-0.019842
1186	5.9250e-01	-7.3843	-21.730634	0.000251	2.510342	0.850527	-0.020526
1187	5.9300e-01	-7.4244	-21.822145	0.000224	2.238389	0.758387	-0.018302
1188	5.9350e-01	-7.4549	-21.931617	0.000268	2.677699	0.907229	-0.021894
1189	5.9400e-01	-7.4950	-22.041945	0.000270	2.698618	0.914317	-0.022065
1190	5.9450e-01	-7.5479	-22.137733	0.000234	2.342986	0.793825	-0.019158
1191	5.9500e-01	-7.5784	-22.241646	0.000254	2.541722	0.861159	-0.020783
1192	5.9550e-01	-7.5880	-22.350263	0.000266	2.656779	0.900141	-0.021723
1193	5.9600e-01	-7.6666	-22.421676	0.000175	1.746780	0.591825	-0.014283
1194	5.9650e-01	-7.7003	-22.522168	0.000246	2.458044	0.832808	-0.020098
1195	5.9700e-01	-7.7693	-22.629930	0.000264	2.635860	0.893053	-0.021552
1196	5.9750e-01	-7.7966	-22.709895	0.000196	1.955975	0.662702	-0.015993
1197	5.9800e-01	-7.8206	-22.840321	0.000319	3.190227	1.080878	-0.026085
1198	5.9850e-01	-7.8672	-22.947655	0.000263	2.625400	0.889510	-0.021467
1199	5.9900e-01	-7.8864	-23.052423	0.000256	2.562641	0.868246	-0.020954
1200	5.9950e-01	-7.9490	-23.142652	0.000221	2.207009	0.747755	-0.018046
1201	6.0000e-01	-7.9618	-23.245710	0.000252	2.520802	0.854071	-0.020612
1202	6.0050e-01	-8.0340	-23.335511	0.000220	2.196550	0.744211	-0.017960
1203	6.0100e-01	-8.0324	-23.450115	-0.000280	-2.803216	-0.949755	-0.022921
1204	6.0150e-01	-8.0982	-23.538206	0.000215	2.154711	0.730036	-0.017618
1205	6.0200e-01	-8.1415	-23.639553	0.000248	2.478963	0.839895	-0.020269
1206	6.0250e-01	-8.1655	-23.734058	0.000231	2.311607	0.783194	-0.018901
1207	6.0300e-01	-8.2057	-23.841392	0.000263	2.625400	0.889510	-0.021467
1208	6.0350e-01	-8.2618	-23.929055	0.000214	2.144251	0.726492	-0.017533
1209	6.0400e-01	-8.2891	-24.039810	0.000271	2.709078	0.917860	-0.022151
1210	6.0450e-01	-8.3645	-24.114644	0.000183	1.830458	0.620176	-0.014967
1211	6.0500e-01	-8.3901	-24.216847	0.000250	2.499883	0.846983	-0.020440
1212	6.0550e-01	-8.3869	-24.335727	-0.000291	-2.907813	-0.985194	-0.023776
1213	6.0600e-01	-8.4655	-24.421679	0.000210	2.102412	0.712316	-0.017191
1214	6.0650e-01	-8.5056	-24.513619	0.000225	2.248848	0.761930	-0.018388
1215	6.0700e-01	-8.5441	-24.612828	0.000243	2.426664	0.822176	-0.019842
1216	6.0750e-01	-8.5923	-24.715886	0.000252	2.520802	0.854071	-0.020612
1217	6.0800e-01	-8.6340	-24.813384	0.000238	2.384825	0.808001	-0.019500
1218	6.0850e-01	-8.6516	-24.913449	0.000245	2.447584	0.829264	-0.020013
1219	6.0900e-01	-8.6516	-25.026769	0.000277	2.771836	0.939124	-0.022664
1220	6.0950e-01	-8.7431	-25.103742	0.000188	1.882757	0.637895	-0.015395
1221	6.1000e-01	-8.7752	-25.179431	0.000185	1.851378	0.627264	-0.015138
1222	6.1050e-01	-8.8233	-25.290614	0.000272	2.719538	0.921404	-0.022237
1223	6.1100e-01	-8.8441	-25.388113	0.000238	2.384825	0.808001	-0.019500
1224	6.1150e-01	-8.9260	-25.490743	0.000251	2.510342	0.850527	-0.020526
1225	6.1200e-01	-8.9372	-25.582254	0.000224	2.238389	0.758387	-0.018302
1226	6.1250e-01	-8.9821	-25.681036	0.000242	2.416205	0.818632	-0.019756
1227	6.1300e-01	-9.0366	-25.784094	0.000252	2.520802	0.854071	-0.020612
1228	6.1350e-01	-9.0527	-25.865770	0.000200	1.997814	0.676878	-0.016335
1229	6.1400e-01	-9.0880	-25.970111	0.000255	2.552181	0.864702	-0.020868
1230	6.1450e-01	-9.1618	-26.050932	0.000198	1.976895	0.669790	-0.016164
1231	6.1500e-01	-9.1971	-26.151851	0.000247	2.468503	0.836352	-0.020184
1232	6.1550e-01	-9.2372	-26.263034	0.000272	2.719538	0.921404	-0.022237
1233	6.1600e-01	-9.2532	-26.343427	0.000197	1.966435	0.666246	-0.016079
1234	6.1650e-01	-9.3046	-26.440498	0.000237	2.374366	0.804457	-0.019414
1235	6.1700e-01	-9.3302	-26.542701	0.000250	2.499883	0.846983	-0.020440
1236	6.1750e-01	-9.3880	-26.622239	0.000195	1.945515	0.659158	-0.015908
1237	6.1800e-01	-9.4473	-26.708192	0.000210	2.102412	0.712316	-0.017191
1238	6.1850e-01	-9.4409	-26.816809	-0.000266	-2.656779	-0.900141	-0.021723
1239	6.1900e-01	-9.5131	-26.898485	0.000200	1.997814	0.676878	-0.016335
1240	6.1950e-01	-9.5468	-26.993845	0.000233	2.332526	0.790281	-0.019072
1241	6.2000e-01	-9.5853	-27.087923	0.000230	2.301147	0.779650	-0.018816
1242	6.2050e-01	-9.6142	-27.186277	0.000241	2.405745	0.815088	-0.019671
1243	6.2100e-01	-9.6559	-27.298742	0.000275	2.750917	0.932036	-0.022493
1244	6.2150e-01	-9.7040	-27.383840	0.000208	2.081492	0.705229	-0.017019
1245	6.2200e-01	-9.7425	-27.460385	0.000187	1.872297	0.634351	-0.015309
1246	6.2250e-01	-9.7842	-27.560449	0.000245	2.447584	0.829264	-0.020013
1247	6.2300e-01	-9.8195	-27.634856	0.000182	1.819998	0.616632	-0.014881
1248	6.2350e-01	-9.8660	-27.743900	0.000267	2.667239	0.903685	-0.021809
1249	6.2400e-01	-9.8805	-27.837978	0.000230	2.301147	0.779650	-0.018816
1250	6.2450e-01	-9.9366	-27.926924	0.000218	2.175630	0.737123	-0.017789
1251	6.2500e-01	-9.9735	-28.018436	0.000224	2.238389	0.758387	-0.018302
1252	6.2550e-01	-9.9960	-28.109092	0.000222	2.217469	0.751299	-0.018131
1253	6.2600e-01	-10.0666	-28.187348	0.000191	1.914136	0.648527	-0.015651
1254	6.2650e-01	-10.0986	-28.291688	0.000255	2.552181	0.864702	-0.020868
1255	6.2700e-01	-10.1564	-28.385338	0.000229	2.290687	0.776106	-0.018730
1256	6.2750e-01	-10.1821	-28.478133	0.000227	2.269768	0.769018	-0.018559
1257	6.2800e-01	-10.2206	-28.554678	0.000187	1.872297	0.634351	-0.015309
1258	6.2850e-01	-10.2655	-28.658163	0.000253	2.531262	0.857615	-0.020697
1259	6.2900e-01	-10.2992	-28.737274	0.000194	1.935056	0.655615	-0.015822
1260	6.2950e-01	-10.3232	-28.825792	0.000217	2.165170	0.733580	-0.017704
1261	6.3000e-01	-10.3954	-28.927567	0.000249	2.489423	0.843439	-0.020355
1262	6.3050e-01	-10.4259	-29.010099	0.000202	2.018734	0.683965	-0.016506
1263	6.3100e-01	-10.4403	-29.115294	0.000257	2.573101	0.871790	-0.021039
1264	6.3150e-01	-10.5109	-29.198681	0.000204	2.039653	0.691053	-0.016677
1265	6.3200e-01	-10.5109	-29.299601	0.000247	2.468503	0.836352	-0.020184
1266	6.3250e-01	-10.5879	-29.389830	0.000221	2.207009	0.747755	-0.018046
1267	6.3300e-01	-10.6120	-29.459960	0.000172	1.715401	0.581193	-0.014026
1268	6.3350e-01	-10.6698	-29.554893	0.000232	2.322067	0.786738	-0.018987
1269	6.3400e-01	-10.7099	-29.642556	0.000214	2.144251	0.726492	-0.017533
1270	6.3450e-01	-10.7468	-29.734068	0.000224	2.238389	0.758387	-0.018302
1271	6.3500e-01	-10.7708	-29.812324	0.000191	1.914136	0.648527	-0.015651
1272	6.3550e-01	-10.8286	-29.920085	0.000264	2.635860	0.893053	-0.021552
1273	6.3600e-01	-10.8655	-30.008176	0.000215	2.154711	0.730036	-0.017618
1274	6.3650e-01	-10.8863	-30.097122	0.000218	2.175630	0.737123	-0.017789
1275	6.3700e-01	-10.9633	-30.180081	0.000203	2.029193	0.687509	-0.016592
1276	6.3750e-01	-10.9697	-30.266034	0.000210	2.102412	0.712316	-0.017191
1277	6.3800e-01	-11.0291	-30.354552	0.000217	2.165170	0.733580	-0.017704
1278	6.3850e-01	-11.0548	-30.455472	0.000247	2.468503	0.836352	-0.020184
1279	6.3900e-01	-11.1125	-30.523892	0.000167	1.673562	0.567018	-0.013684
1280	6.3950e-01	-11.1462	-30.599582	0.000185	1.851378	0.627264	-0.015138
1281	6.4000e-01	-11.1703	-30.694515	0.000232	2.322067	0.786738	-0.018987
1282	6.4050e-01	-11.1975	-30.791586	0.000237	2.374366	0.804457	-0.019414
1283	6.4100e-01	-11.2473	-30.879676	0.000215	2.154711	0.730036	-0.017618
1284	6.4150e-01	-11.3034	-30.963063	0.000204	2.039653	0.691053	-0.016677
1285	6.4200e-01	-11.3243	-31.053720	0.000222	2.217469	0.751299	-0.018131
1286	6.4250e-01	-11.3868	-31.141811	0.000215	2.154711	0.730036	-0.017618
1287	6.4300e-01	-11.4157	-31.224342	0.000202	2.018734	0.683965	-0.016506
1288	6.4350e-01	-11.4574	-31.306446	0.000201	2.008274	0.680422	-0.016421
1289	6.4400e-01	-11.5088	-31.398813	0.000226	2.259308	0.765474	-0.018473
1290	6.4450e-01	-11.5473	-31.474075	0.000184	1.840918	0.623720	-0.015052
1291	6.4500e-01	-11.5874	-31.579271	0.000257	2.573101	0.871790	-0.021039
1292	6.4550e-01	-11.6307	-31.647691	0.000167	1.673562	0.567018	-0.013684
1293	6.4600e-01	-11.6291	-31.758446	-0.000271	-2.709078	-0.917860	-0.022151
1294	6.4650e-01	-11.7205	-31.826011	0.000165	1.652642	0.559930	-0.013513
1295	6.4700e-01	-11.7302	-31.898707	0.000178	1.778159	0.602457	-0.014539
1296	6.4750e-01	-11.7847	-32.001337	0.000251	2.510342	0.850527	-0.020526
1297	6.4800e-01	-11.7975	-32.092849	0.000224	2.238389	0.758387	-0.018302
1298	6.4850e-01	-11.8665	-32.174526	0.000200	1.997814	0.676878	-0.016335
1299	6.4900e-01	-11.9211	-32.245084	0.000173	1.725860	0.584737	-0.014112
1300	6.4950e-01	-11.9563	-32.326333	0.000199	1.987354	0.673334	-0.016250
1301	6.5000e-01	-11.9660	-32.425969	0.000244	2.437124	0.825720	-0.019927
1302	6.5050e-01	-12.0205	-32.512777	0.000212	2.123331	0.719404	-0.017362
1303	6.5100e-01	-12.0542	-32.597875	0.000208	2.081492	0.705229	-0.017019
1304	6.5150e-01	-12.0847	-32.695801	0.000240	2.395285	0.811545	-0.019585
1305	6.5200e-01	-12.1360	-32.776622	0.000198	1.976895	0.669790	-0.016164
1306	6.5250e-01	-12.1938	-32.851029	0.000182	1.819998	0.616632	-0.014881
1307	6.5300e-01	-12.2178	-32.922870	0.000176	1.757240	0.595369	-0.014368
1308	6.5350e-01	-12.2403	-33.030204	0.000263	2.625400	0.889510	-0.021467
1309	6.5400e-01	-12.2756	-33.110597	0.000197	1.966435	0.666246	-0.016079
1310	6.5450e-01	-12.3510	-33.177307	0.000163	1.631723	0.552843	-0.013342
1311	6.5500e-01	-12.3991	-33.257273	0.000196	1.955975	0.662702	-0.015993
1312	6.5550e-01	-12.4328	-33.358192	0.000247	2.468503	0.836352	-0.020184
1313	6.5600e-01	-12.4392	-33.449277	0.000223	2.227929	0.754843	-0.018217
1314	6.5650e-01	-12.4713	-33.530098	0.000198	1.976895	0.669790	-0.016164
1315	6.5700e-01	-12.5323	-33.613057	0.000203	2.029193	0.687509	-0.016592
1316	6.5750e-01	-12.5724	-33.702431	0.000219	2.186090	0.740667	-0.017875
1317	6.5800e-01	-12.6141	-33.781114	0.000192	1.924596	0.652071	-0.015737
1318	6.5850e-01	-12.6702	-33.867922	0.000212	2.123331	0.719404	-0.017362
1319	6.5900e-01	-12.7007	-33.933348	0.000160	1.600343	0.542211	-0.013085
1320	6.5950e-01	-12.7216	-34.013314	0.000196	1.955975	0.662702	-0.015993
1321	6.6000e-01	-12.7729	-34.112523	0.000243	2.426664	0.822176	-0.019842
1322	6.6050e-01	-12.8499	-34.179661	0.000164	1.642182	0.556386	-0.013427
1323	6.6100e-01	-12.8868	-34.261337	0.000200	1.997814	0.676878	-0.016335
1324	6.6150e-01	-12.8627	-34.371664	-0.000270	-2.698618	-0.914317	-0.022065
1325	6.6200e-01	-12.9574	-34.422979	0.000126	1.255171	0.425264	-0.010263
1326	6.6250e-01	-12.9590	-34.522188	0.000243	2.426664	0.822176	-0.019842
1327	6.6300e-01	-13.0456	-34.581628	0.000145	1.453907	0.492597	-0.011888
1328	6.6350e-01	-13.0761	-34.666298	0.000207	2.071032	0.701685	-0.016934
1329	6.6400e-01	-13.1146	-34.752678	0.000211	2.112872	0.715860	-0.017276
1330	6.6450e-01	-13.1499	-34.851032	0.000241	2.405745	0.815088	-0.019671
1331	6.6500e-01	-13.1499	-34.916459	0.000160	1.600343	0.542211	-0.013085
1332	6.6550e-01	-13.2237	-35.003694	0.000213	2.133791	0.722948	-0.017447
1333	6.6600e-01	-13.2702	-35.071259	0.000165	1.652642	0.559930	-0.013513
1334	6.6650e-01	-13.3119	-35.164482	0.000228	2.280228	0.772562	-0.018644
1335	6.6700e-01	-13.3601	-35.242309	0.000190	1.903676	0.644983	-0.015566
1336	6.6750e-01	-13.3745	-35.320565	0.000191	1.914136	0.648527	-0.015651
1337	6.6800e-01	-13.4387	-35.430465	0.000269	2.688158	0.910773	-0.021980
1338	6.6850e-01	-13.4371	-35.506154	-0.000185	-1.851378	-0.627264	-0.015138
1339	6.6900e-01	-13.5060	-35.576285	0.000172	1.715401	0.581193	-0.014026
1340	6.6950e-01	-13.5558	-35.656678	0.000197	1.966435	0.666246	-0.016079
1341	6.7000e-01	-13.5590	-35.746480	0.000220	2.196550	0.744211	-0.017960
1342	6.7050e-01	-13.6071	-35.819604	0.000179	1.788619	0.606001	-0.014625
1343	6.7100e-01	-13.6520	-35.907267	0.000214	2.144251	0.726492	-0.017533
1344	6.7150e-01	-13.6921	-35.967562	0.000147	1.474826	0.499685	-0.012059
1345	6.7200e-01	-13.7467	-36.065060	0.000238	2.384825	0.808001	-0.019500
1346	6.7250e-01	-13.7707	-36.130915	0.000161	1.610803	0.545755	-0.013171
1347	6.7300e-01	-13.8301	-36.217723	0.000212	2.123331	0.719404	-0.017362
1348	6.7350e-01	-13.8381	-36.301537	0.000205	2.050113	0.694597	-0.016763
1349	6.7400e-01	-13.8814	-36.400746	0.000243	2.426664	0.822176	-0.019842
1350	6.7450e-01	-13.9392	-36.473015	0.000177	1.767699	0.598913	-0.014454
1351	6.7500e-01	-13.9905	-36.529889	0.000139	1.391148	0.471334	-0.011375
1352	6.7550e-01	-14.0098	-36.624822	0.000232	2.322067	0.786738	-0.018987
1353	6.7600e-01	-14.0611	-36.684689	0.000146	1.464366	0.496141	-0.011974
1354	6.7650e-01	-14.0868	-36.797583	0.000276	2.761377	0.935580	-0.022579
1355	6.7700e-01	-14.1381	-36.858733	0.000150	1.495746	0.506772	-0.012230
1356	6.7750e-01	-14.2055	-36.931429	0.000178	1.778159	0.602457	-0.014539
1357	6.7800e-01	-14.2119	-37.014389	0.000203	2.029193	0.687509	-0.016592
1358	6.7850e-01	-14.2937	-37.094354	0.000196	1.955975	0.662702	-0.015993
1359	6.7900e-01	-14.3001	-37.161919	0.000165	1.652642	0.559930	-0.013513
1360	6.7950e-01	-14.3691	-37.247444	0.000209	2.091952	0.708773	-0.017105
1361	6.8000e-01	-14.3643	-37.337673	-0.000221	-2.207009	-0.747755	-0.018046
1362	6.8050e-01	-14.4076	-37.413363	0.000185	1.851378	0.627264	-0.015138
1363	6.8100e-01	-14.4654	-37.494184	0.000198	1.976895	0.669790	-0.016164
1364	6.8150e-01	-14.5023	-37.580564	0.000211	2.112872	0.715860	-0.017276
1365	6.8200e-01	-14.5472	-37.649412	0.000168	1.684021	0.570562	-0.013770
1366	6.8250e-01	-14.6065	-37.710135	0.000149	1.485286	0.503228	-0.012145
1367	6.8300e-01	-14.6386	-37.810627	0.000246	2.458044	0.832808	-0.020098
1368	6.8350e-01	-14.6210	-37.900428	-0.000220	-2.196550	-0.744211	-0.017960
1369	6.8400e-01	-14.7269	-37.963717	0.000155	1.548044	0.524492	-0.012658
1370	6.8450e-01	-14.7445	-38.038551	0.000183	1.830458	0.620176	-0.014967
1371	6.8500e-01	-14.7718	-38.112103	0.000180	1.799079	0.609544	-0.014710
1372	6.8550e-01	-14.8055	-38.196772	0.000207	2.071032	0.701685	-0.016934
1373	6.8600e-01	-14.8568	-38.285718	0.000218	2.175630	0.737123	-0.017789
1374	6.8650e-01	-14.8937	-38.381507	0.000234	2.342986	0.793825	-0.019158
1375	6.8700e-01	-14.9659	-38.434960	0.000131	1.307470	0.442983	-0.010691
1376	6.8750e-01	-14.9819	-38.501242	0.000162	1.621263	0.549299	-0.013256
1377	6.8800e-01	-15.0349	-38.600023	0.000242	2.416205	0.818632	-0.019756
1378	6.8850e-01	-15.0525	-38.669298	0.000169	1.694481	0.574106	-0.013855
1379	6.8900e-01	-15.0990	-38.747554	0.000191	1.914136	0.648527	-0.015651
1380	6.8950e-01	-15.1424	-38.819822	0.000177	1.767699	0.598913	-0.014454
1381	6.9000e-01	-15.1809	-38.907913	0.000215	2.154711	0.730036	-0.017618
1382	6.9050e-01	-15.2627	-38.978899	0.000174	1.736320	0.588281	-0.014197
1383	6.9100e-01	-15.2691	-39.053733	0.000183	1.830458	0.620176	-0.014967
1384	6.9150e-01	-15.3092	-39.135410	0.000200	1.997814	0.676878	-0.016335
1385	6.9200e-01	-15.3333	-39.214948	0.000195	1.945515	0.659158	-0.015908
1386	6.9250e-01	-15.3894	-39.291493	0.000187	1.872297	0.634351	-0.015309
1387	6.9300e-01	-15.4231	-39.349223	0.000141	1.412068	0.478421	-0.011546
1388	6.9350e-01	-15.4664	-39.430044	0.000198	1.976895	0.669790	-0.016164
1389	6.9400e-01	-15.5113	-39.519417	0.000219	2.186090	0.740667	-0.017875
1390	6.9450e-01	-15.5482	-39.598100	0.000192	1.924596	0.652071	-0.015737
1391	6.9500e-01	-15.5851	-39.682343	0.000206	2.060573	0.698141	-0.016848
1392	6.9550e-01	-15.6204	-39.763164	0.000198	1.976895	0.669790	-0.016164
1393	6.9600e-01	-15.6718	-39.831584	0.000167	1.673562	0.567018	-0.013684
1394	6.9650e-01	-15.6974	-39.911977	0.000197	1.966435	0.666246	-0.016079
1395	6.9700e-01	-15.7439	-40.003062	0.000223	2.227929	0.754843	-0.018217
1396	6.9750e-01	-15.7857	-40.065495	0.000153	1.527125	0.517404	-0.012487
1397	6.9800e-01	-15.8209	-40.143750	0.000191	1.914136	0.648527	-0.015651
1398	6.9850e-01	-15.8450	-40.229275	0.000209	2.091952	0.708773	-0.017105
1399	6.9900e-01	-15.9220	-40.286577	0.000140	1.401608	0.474878	-0.011460
1400	6.9950e-01	-15.9332	-40.370392	0.000205	2.050113	0.694597	-0.016763
1401	7.0000e-01	-15.9798	-40.456772	0.000211	2.112872	0.715860	-0.017276
1402	7.0050e-01	-16.0295	-40.530751	0.000181	1.809538	0.613088	-0.014796
1403	7.0100e-01	-16.0616	-40.599171	0.000167	1.673562	0.567018	-0.013684
1404	7.0150e-01	-16.1257	-40.697953	0.000242	2.416205	0.818632	-0.019756
1405	7.0200e-01	-16.1257	-40.776208	0.000191	1.914136	0.648527	-0.015651
1406	7.0250e-01	-16.1899	-40.824530	0.000118	1.181953	0.400456	-0.009664
1407	7.0300e-01	-16.2268	-40.903640	0.000194	1.935056	0.655615	-0.015822
1408	7.0350e-01	-16.2396	-40.996435	0.000227	2.269768	0.769018	-0.018559
1409	7.0400e-01	-16.2910	-41.079822	0.000204	2.039653	0.691053	-0.016677
1410	7.0450e-01	-16.3535	-41.139690	0.000146	1.464366	0.496141	-0.011974
1411	7.0500e-01	-16.3760	-41.216662	0.000188	1.882757	0.637895	-0.015395
1412	7.0550e-01	-16.3953	-41.300477	0.000205	2.050113	0.694597	-0.016763
1413	7.0600e-01	-16.4498	-41.378304	0.000190	1.903676	0.644983	-0.015566
1414	7.0650e-01	-16.4963	-41.455277	0.000188	1.882757	0.637895	-0.015395
1415	7.0700e-01	-16.5348	-41.526263	0.000174	1.736320	0.588281	-0.014197
1416	7.0750e-01	-16.5894	-41.597676	0.000175	1.746780	0.591825	-0.014283
1417	7.0800e-01	-16.5894	-41.688333	0.000222	2.217469	0.751299	-0.018131
1418	7.0850e-01	-16.6632	-41.760174	0.000176	1.757240	0.595369	-0.014368
1419	7.0900e-01	-16.7081	-41.834153	0.000181	1.809538	0.613088	-0.014796
1420	7.0950e-01	-16.7594	-41.902145	0.000166	1.663102	0.563474	-0.013598
1421	7.1000e-01	-16.7883	-41.998361	0.000235	2.353446	0.797369	-0.019243
1422	7.1050e-01	-16.8108	-42.066354	0.000166	1.663102	0.563474	-0.013598
1423	7.1100e-01	-16.8653	-42.151023	0.000207	2.071032	0.701685	-0.016934
1424	7.1150e-01	-16.9134	-42.206615	0.000136	1.359769	0.460702	-0.011118
1425	7.1200e-01	-16.9214	-42.288291	0.000200	1.997814	0.676878	-0.016335
1426	7.1250e-01	-16.9551	-42.382369	0.000230	2.301147	0.779650	-0.018816
1427	7.1300e-01	-17.0049	-42.458058	0.000185	1.851378	0.627264	-0.015138
1428	7.1350e-01	-17.0706	-42.525623	0.000165	1.652642	0.559930	-0.013513
1429	7.1400e-01	-17.1107	-42.602596	0.000188	1.882757	0.637895	-0.015395
1430	7.1450e-01	-17.1476	-42.676147	0.000180	1.799079	0.609544	-0.014710
1431	7.1500e-01	-17.1781	-42.757396	0.000199	1.987354	0.673334	-0.016250
1432	7.1550e-01	-17.1637	-42.852756	-0.000233	-2.332526	-0.790281	-0.019072
1433	7.1600e-01	-17.2487	-42.903216	0.000123	1.234252	0.418176	-0.010092
1434	7.1650e-01	-17.3145	-42.981044	0.000190	1.903676	0.644983	-0.015566
1435	7.1700e-01	-17.3193	-43.058444	0.000189	1.893217	0.641439	-0.015480
1436	7.1750e-01	-17.3947	-43.123871	0.000160	1.600343	0.542211	-0.013085
1437	7.1800e-01	-17.4252	-43.212817	0.000218	2.175630	0.737123	-0.017789
1438	7.1850e-01	-17.4653	-43.292783	0.000196	1.955975	0.662702	-0.015993
1439	7.1900e-01	-17.4942	-43.377453	0.000207	2.071032	0.701685	-0.016934
1440	7.1950e-01	-17.5375	-43.447583	0.000172	1.715401	0.581193	-0.014026
1441	7.2000e-01	-17.5583	-43.520707	0.000179	1.788619	0.606001	-0.014625
1442	7.2050e-01	-17.6097	-43.609226	0.000217	2.165170	0.733580	-0.017704
1443	7.2100e-01	-17.6658	-43.680211	0.000174	1.736320	0.588281	-0.014197
1444	7.2150e-01	-17.6819	-43.757611	0.000189	1.893217	0.641439	-0.015480
1445	7.2200e-01	-17.7460	-43.829880	0.000177	1.767699	0.598913	-0.014454
1446	7.2250e-01	-17.7765	-43.912839	0.000203	2.029193	0.687509	-0.016592
1447	7.2300e-01	-17.8086	-43.982542	0.000170	1.704941	0.577650	-0.013941
1448	7.2350e-01	-17.8535	-44.062936	0.000197	1.966435	0.666246	-0.016079
1449	7.2400e-01	-17.9016	-44.127080	0.000157	1.568964	0.531579	-0.012829
1450	7.2450e-01	-17.9289	-44.229710	0.000251	2.510342	0.850527	-0.020526
1451	7.2500e-01	-17.9546	-44.308393	0.000192	1.924596	0.652071	-0.015737
1452	7.2550e-01	-18.0027	-44.376385	0.000166	1.663102	0.563474	-0.013598
1453	7.2600e-01	-18.0717	-44.437963	0.000151	1.506205	0.510316	-0.012316
1454	7.2650e-01	-18.0990	-44.523916	0.000210	2.102412	0.712316	-0.017191
1455	7.2700e-01	-18.1631	-44.599178	0.000184	1.840918	0.623720	-0.015052
1456	7.2750e-01	-18.1824	-44.697959	0.000242	2.416205	0.818632	-0.019756
1457	7.2800e-01	-18.2241	-44.776215	0.000191	1.914136	0.648527	-0.015651
1458	7.2850e-01	-18.2401	-44.847201	0.000174	1.736320	0.588281	-0.014197
1459	7.2900e-01	-18.2883	-44.923746	0.000187	1.872297	0.634351	-0.015309
1460	7.2950e-01	-18.3300	-44.996870	0.000179	1.788619	0.606001	-0.014625
1461	7.3000e-01	-18.3829	-45.069993	0.000179	1.788619	0.606001	-0.014625
1462	7.3050e-01	-18.4230	-45.156374	0.000211	2.112872	0.715860	-0.017276
1463	7.3100e-01	-18.4567	-45.231208	0.000183	1.830458	0.620176	-0.014967
1464	7.3150e-01	-18.5080	-45.306043	0.000183	1.830458	0.620176	-0.014967
1465	7.3200e-01	-18.5305	-45.379594	0.000180	1.799079	0.609544	-0.014710
1466	7.3250e-01	-18.5947	-45.456994	0.000189	1.893217	0.641439	-0.015480
1467	7.3300e-01	-18.6508	-45.542092	0.000208	2.081492	0.705229	-0.017019
1468	7.3350e-01	-18.6556	-45.624623	0.000202	2.018734	0.683965	-0.016506
1469	7.3400e-01	-18.7214	-45.690905	0.000162	1.621263	0.549299	-0.013256
1470	7.3450e-01	-18.7519	-45.779851	0.000218	2.175630	0.737123	-0.017789
1471	7.3500e-01	-18.7743	-45.853403	0.000180	1.799079	0.609544	-0.014710
1472	7.3550e-01	-18.8401	-45.927810	0.000182	1.819998	0.616632	-0.014881
1473	7.3600e-01	-18.8706	-46.009486	0.000200	1.997814	0.676878	-0.016335
1474	7.3650e-01	-18.9027	-46.105702	0.000235	2.353446	0.797369	-0.019243
1475	7.3700e-01	-18.9765	-46.160010	0.000133	1.328390	0.450071	-0.010862
1476	7.3750e-01	-18.9684	-46.254943	-0.000232	-2.322067	-0.786738	-0.018987
1477	7.3800e-01	-19.0150	-46.327212	0.000177	1.767699	0.598913	-0.014454
1478	7.3850e-01	-19.0647	-46.399908	0.000178	1.778159	0.602457	-0.014539
1479	7.3900e-01	-19.0936	-46.484150	0.000206	2.060573	0.698141	-0.016848
1480	7.3950e-01	-19.1449	-46.567965	0.000205	2.050113	0.694597	-0.016763
1481	7.4000e-01	-19.1722	-46.646220	0.000191	1.914136	0.648527	-0.015651
1482	7.4050e-01	-19.1995	-46.739015	0.000227	2.269768	0.769018	-0.018559
1483	7.4100e-01	-19.2540	-46.801876	0.000154	1.537585	0.520948	-0.012572
1484	7.4150e-01	-19.2909	-46.889111	0.000213	2.133791	0.722948	-0.017447
1485	7.4200e-01	-19.3214	-46.987465	0.000241	2.405745	0.815088	-0.019671
1486	7.4250e-01	-19.4080	-47.051181	0.000156	1.558504	0.528036	-0.012743
1487	7.4300e-01	-19.4064	-47.136279	-0.000208	-2.081492	-0.705229	-0.017019
1488	7.4350e-01	-19.4321	-47.203844	0.000165	1.652642	0.559930	-0.013513
1489	7.4400e-01	-19.4898	-47.295783	0.000225	2.248848	0.761930	-0.018388
1490	7.4450e-01	-19.5347	-47.346670	0.000124	1.244711	0.421720	-0.010177
1491	7.4500e-01	-19.5925	-47.436044	0.000219	2.186090	0.740667	-0.017875
1492	7.4550e-01	-19.6166	-47.526273	0.000221	2.207009	0.747755	-0.018046
1493	7.4600e-01	-19.6535	-47.596831	0.000173	1.725860	0.584737	-0.014112
1494	7.4650e-01	-19.7000	-47.676369	0.000195	1.945515	0.659158	-0.015908
1495	7.4700e-01	-19.7337	-47.766171	0.000220	2.196550	0.744211	-0.017960
1496	7.4750e-01	-19.7898	-47.838012	0.000176	1.757240	0.595369	-0.014368
1497	7.4800e-01	-19.8139	-47.923965	0.000210	2.102412	0.712316	-0.017191
1498	7.4850e-01	-19.8684	-48.000082	0.000186	1.861837	0.630808	-0.015223
1499	7.4900e-01	-19.9021	-48.092877	0.000227	2.269768	0.769018	-0.018559
1500	7.4950e-01	-19.9326	-48.181395	0.000217	2.165170	0.733580	-0.017704
1501	7.5000e-01	-19.9887	-48.249815	0.000167	1.673562	0.567018	-0.013684
1502	7.5050e-01	-19.9262	-48.316097	-0.000162	-1.621263	-0.549299	-0.013256
1503	7.5100e-01	-19.8524	-48.297709	0.000045	0.449770	0.152386	0.003678
1504	7.5150e-01	-19.8428	-48.251098	0.000114	1.140114	0.386281	0.009322
1505	7.5200e-01	-19.7930	-48.208763	0.000104	1.035516	0.350842	0.008467
1506	7.5250e-01	-19.7593	-48.174125	0.000085	0.847241	0.287053	0.006928
1507	7.5300e-01	-19.7160	-48.126659	0.000116	1.161033	0.393369	0.009493
1508	7.5350e-01	-19.6631	-48.083469	0.000106	1.056436	0.357930	0.008638
1509	7.5400e-01	-19.6182	-48.038996	0.000109	1.087815	0.368562	0.008895
1510	7.5450e-01	-19.5540	-47.991102	0.000117	1.171493	0.396913	0.009579
1511	7.5500e-01	-19.5444	-47.953898	0.000091	0.909999	0.308316	0.007441
1512	7.5550e-01	-19.5428	-47.897879	0.000137	1.370229	0.464246	0.011204
1513	7.5600e-01	-19.4626	-47.869656	0.000069	0.690344	0.233895	0.005645
1514	7.5650e-01	-19.4128	-47.804657	0.000159	1.589884	0.538667	0.013000
1515	7.5700e-01	-19.3904	-47.765316	0.000096	0.962298	0.326035	0.007868
1516	7.5750e-01	-19.3454	-47.708869	0.000138	1.380688	0.467790	0.011289
1517	7.5800e-01	-19.3294	-47.657982	0.000124	1.244711	0.421720	0.010177
1518	7.5850e-01	-19.2941	-47.587423	0.000173	1.725860	0.584737	0.014112
1519	7.5900e-01	-19.2235	-47.551931	0.000087	0.868160	0.294141	0.007099
1520	7.5950e-01	-19.1850	-47.508740	0.000106	1.056436	0.357930	0.008638
1521	7.6000e-01	-19.1385	-47.453149	0.000136	1.359769	0.460702	0.011118
1522	7.6050e-01	-19.1096	-47.399696	0.000131	1.307470	0.442983	0.010691
1523	7.6100e-01	-19.0775	-47.340684	0.000144	1.443447	0.489053	0.011802
1524	7.6150e-01	-19.0422	-47.285520	0.000135	1.349309	0.457158	0.011033
1525	7.6200e-01	-18.9781	-47.254303	0.000076	0.763562	0.258702	0.006243
1526	7.6250e-01	-18.9316	-47.202133	0.000128	1.276091	0.432351	0.010434
1527	7.6300e-01	-18.8995	-47.146114	0.000137	1.370229	0.464246	0.011204
1528	7.6350e-01	-18.8545	-47.083681	0.000153	1.527125	0.517404	0.012487
1529	7.6400e-01	-18.8481	-47.021675	0.000152	1.516665	0.513860	0.012401
1530	7.6450e-01	-18.7791	-46.992169	0.000072	0.721723	0.244527	0.005901
1531	7.6500e-01	-18.7551	-46.927170	0.000159	1.589884	0.538667	0.013000
1532	7.6550e-01	-18.7246	-46.865592	0.000151	1.506205	0.510316	0.012316
1533	7.6600e-01	-18.6797	-46.813422	0.000128	1.276091	0.432351	0.010434
1534	7.6650e-01	-18.6364	-46.752699	0.000149	1.485286	0.503228	0.012145
1535	7.6700e-01	-18.5931	-46.697963	0.000134	1.338849	0.453614	0.010947
1536	7.6750e-01	-18.5337	-46.627832	0.000172	1.715401	0.581193	0.014026
1537	7.6800e-01	-18.5032	-46.570103	0.000141	1.412068	0.478421	0.011546
1538	7.6850e-01	-18.4631	-46.519643	0.000123	1.234252	0.418176	0.010092
1539	7.6900e-01	-18.4583	-46.466190	0.000131	1.307470	0.442983	0.010691
1540	7.6950e-01	-18.3973	-46.395204	0.000174	1.736320	0.588281	0.014197
1541	7.7000e-01	-18.3316	-46.336620	0.000143	1.432987	0.485509	0.011717
1542	7.7050e-01	-18.2899	-46.297278	0.000096	0.962298	0.326035	0.007868
1543	7.7100e-01	-18.2481	-46.241259	0.000137	1.370229	0.464246	0.011204
1544	7.7150e-01	-18.2530	-46.172411	-0.000168	-1.684021	-0.570562	0.013770
1545	7.7200e-01	-18.2000	-46.107840	0.000158	1.579424	0.535123	0.012914
1546	7.7250e-01	-18.1551	-46.053104	0.000134	1.338849	0.453614	0.010947
1547	7.7300e-01	-18.1310	-45.991098	0.000152	1.516665	0.513860	0.012401
1548	7.7350e-01	-18.0669	-45.922678	0.000167	1.673562	0.567018	0.013684
1549	7.7400e-01	-17.9979	-45.879060	0.000107	1.066896	0.361474	0.008724
1550	7.7450e-01	-18.0059	-45.814917	-0.000157	-1.568964	-0.531579	0.012829
1551	7.7500e-01	-17.9706	-45.746497	0.000167	1.673562	0.567018	0.013684
1552	7.7550e-01	-17.9097	-45.677649	0.000168	1.684021	0.570562	0.013770
1553	7.7600e-01	-17.8663	-45.640018	0.000092	0.920459	0.311860	0.007526
1554	7.7650e-01	-17.8278	-45.581861	0.000142	1.422527	0.481965	0.011631
1555	7.7700e-01	-17.7749	-45.511730	0.000172	1.715401	0.581193	0.014026
1556	7.7750e-01	-17.7460	-45.448014	0.000156	1.558504	0.528036	0.012743
1557	7.7800e-01	-17.6995	-45.396272	0.000127	1.265631	0.428807	0.010349
1558	7.7850e-01	-17.6915	-45.322292	0.000181	1.809538	0.613088	0.014796
1559	7.7900e-01	-17.6466	-45.264991	0.000140	1.401608	0.474878	0.011460
1560	7.7950e-01	-17.5968	-45.193150	0.000176	1.757240	0.595369	0.014368
1561	7.8000e-01	-17.5471	-45.154663	0.000094	0.941378	0.318948	0.007697
1562	7.8050e-01	-17.5262	-45.085388	0.000169	1.694481	0.574106	0.013855
1563	7.8100e-01	-17.4717	-45.018251	0.000164	1.642182	0.556386	0.013427
1564	7.8150e-01	-17.4300	-44.965225	0.000130	1.297010	0.439439	0.010605
1565	7.8200e-01	-17.4091	-44.898088	0.000164	1.642182	0.556386	0.013427
1566	7.8250e-01	-17.3546	-44.845490	0.000129	1.286550	0.435895	0.010520
1567	7.8300e-01	-17.3113	-44.775360	0.000172	1.715401	0.581193	0.014026
1568	7.8350e-01	-17.2664	-44.700953	0.000182	1.819998	0.616632	0.014881
1569	7.8400e-01	-17.2295	-44.638947	0.000152	1.516665	0.513860	0.012401
1570	7.8450e-01	-17.1990	-44.579507	0.000145	1.453907	0.492597	0.011888
1571	7.8500e-01	-17.1268	-44.520495	0.000144	1.443447	0.489053	0.011802
1572	7.8550e-01	-17.0915	-44.457634	0.000154	1.537585	0.520948	0.012572
1573	7.8600e-01	-17.0530	-44.397767	0.000146	1.464366	0.496141	0.011974
1574	7.8650e-01	-17.0097	-44.338327	0.000145	1.453907	0.492597	0.011888
1575	7.8700e-01	-16.9744	-44.273328	0.000159	1.589884	0.538667	0.013000
1576	7.8750e-01	-16.9680	-44.216881	0.000138	1.380688	0.467790	0.011289
1577	7.8800e-01	-16.9263	-44.142474	0.000182	1.819998	0.616632	0.014881
1578	7.8850e-01	-16.8829	-44.078758	0.000156	1.558504	0.528036	0.012743
1579	7.8900e-01	-16.8380	-44.011193	0.000165	1.652642	0.559930	0.013513
1580	7.8950e-01	-16.7835	-43.957740	0.000131	1.307470	0.442983	0.010691
1581	7.9000e-01	-16.7690	-43.894879	0.000154	1.537585	0.520948	0.012572
1582	7.9050e-01	-16.6776	-43.816196	0.000192	1.924596	0.652071	0.015737
1583	7.9100e-01	-16.6648	-43.757184	0.000144	1.443447	0.489053	0.011802
1584	7.9150e-01	-16.6471	-43.696461	0.000149	1.485286	0.503228	0.012145
1585	7.9200e-01	-16.5781	-43.628041	0.000167	1.673562	0.567018	0.013684
1586	7.9250e-01	-16.5509	-43.577154	0.000124	1.244711	0.421720	0.010177
1587	7.9300e-01	-16.5348	-43.491201	0.000210	2.102412	0.712316	0.017191
1588	7.9350e-01	-16.4674	-43.443307	0.000117	1.171493	0.396913	0.009579
1589	7.9400e-01	-16.3969	-43.378735	0.000158	1.579424	0.535123	0.012914
1590	7.9450e-01	-16.3872	-43.321006	0.000141	1.412068	0.478421	0.011546
1591	7.9500e-01	-16.3487	-43.257290	0.000156	1.558504	0.528036	0.012743
1592	7.9550e-01	-16.2958	-43.176896	0.000197	1.966435	0.666246	0.016079
1593	7.9600e-01	-16.2782	-43.108049	0.000168	1.684021	0.570562	0.013770
1594	7.9650e-01	-16.2332	-43.044333	0.000156	1.558504	0.528036	0.012743
1595	7.9700e-01	-16.1867	-42.965222	0.000194	1.935056	0.655615	0.015822
1596	7.9750e-01	-16.1482	-42.911341	0.000132	1.317930	0.446527	0.010776
1597	7.9800e-01	-16.1049	-42.849335	0.000152	1.516665	0.513860	0.012401
1598	7.9850e-01	-16.0343	-42.777494	0.000176	1.757240	0.595369	0.014368
1599	7.9900e-01	-16.0391	-42.714206	-0.000155	-1.548044	-0.524492	0.012658
1600	7.9950e-01	-15.9589	-42.656049	0.000142	1.422527	0.481965	0.011631
1601	8.0000e-01	-15.9381	-42.591905	0.000157	1.568964	0.531579	0.012829
1602	8.0050e-01	-15.9076	-42.527334	0.000158	1.579424	0.535123	0.012914
1603	8.0100e-01	-15.8659	-42.463617	0.000156	1.558504	0.528036	0.012743
1604	8.0150e-01	-15.8562	-42.382796	0.000198	1.976895	0.669790	0.016164
1605	8.0200e-01	-15.8017	-42.327633	0.000135	1.349309	0.457158	0.011033
1606	8.0250e-01	-15.7504	-42.252798	0.000183	1.830458	0.620176	0.014967
1607	8.0300e-01	-15.6990	-42.209180	0.000107	1.066896	0.361474	0.008724
1608	8.0350e-01	-15.6846	-42.118524	0.000222	2.217469	0.751299	0.018131
1609	8.0400e-01	-15.6429	-42.040696	0.000190	1.903676	0.644983	0.015566
1610	8.0450e-01	-15.5627	-41.993657	0.000115	1.150574	0.389825	0.009408
1611	8.0500e-01	-15.5418	-41.929941	0.000156	1.558504	0.528036	0.012743
1612	8.0550e-01	-15.5049	-41.861521	0.000167	1.673562	0.567018	0.013684
1613	8.0600e-01	-15.4664	-41.791390	0.000172	1.715401	0.581193	0.014026
1614	8.0650e-01	-15.4343	-41.712280	0.000194	1.935056	0.655615	0.015822
1615	8.0700e-01	-15.3846	-41.640011	0.000177	1.767699	0.598913	0.014454
1616	8.0750e-01	-15.3349	-41.586130	0.000132	1.317930	0.446527	0.010776
1617	8.0800e-01	-15.3220	-41.510868	0.000184	1.840918	0.623720	0.015052
1618	8.0850e-01	-15.2755	-41.441165	0.000170	1.704941	0.577650	0.013941
1619	8.0900e-01	-15.2258	-41.383008	0.000142	1.422527	0.481965	0.011631
1620	8.0950e-01	-15.1776	-41.303042	0.000196	1.955975	0.662702	0.015993
1621	8.1000e-01	-15.1424	-41.242747	0.000147	1.474826	0.499685	0.012059
1622	8.1050e-01	-15.1231	-41.179886	0.000154	1.537585	0.520948	0.012572
1623	8.1100e-01	-15.0589	-41.083243	0.000236	2.363906	0.800913	0.019329
1624	8.1150e-01	-15.0445	-41.031928	0.000126	1.255171	0.425264	0.010263
1625	8.1200e-01	-14.9643	-40.968212	0.000156	1.558504	0.528036	0.012743
1626	8.1250e-01	-14.9547	-40.896798	0.000175	1.746780	0.591825	0.014283
1627	8.1300e-01	-14.8761	-40.830089	0.000163	1.631723	0.552843	0.013342
1628	8.1350e-01	-14.8584	-40.750123	0.000196	1.955975	0.662702	0.015993
1629	8.1400e-01	-14.8456	-40.679565	0.000173	1.725860	0.584737	0.014112
1630	8.1450e-01	-14.7798	-40.636802	0.000105	1.045976	0.354386	0.008553
1631	8.1500e-01	-14.7493	-40.547429	0.000219	2.186090	0.740667	0.017875
1632	8.1550e-01	-14.7493	-40.477298	-0.000172	-1.715401	-0.581193	0.014026
1633	8.1600e-01	-14.6851	-40.411444	0.000161	1.610803	0.545755	0.013171
1634	8.1650e-01	-14.6178	-40.353287	0.000142	1.422527	0.481965	0.011631
1635	8.1700e-01	-14.5857	-40.284867	0.000167	1.673562	0.567018	0.013684
1636	8.1750e-01	-14.5295	-40.217729	0.000164	1.642182	0.556386	0.013427
1637	8.1800e-01	-14.5167	-40.134770	0.000203	2.029193	0.687509	0.016592
1638	8.1850e-01	-14.4862	-40.074047	0.000149	1.485286	0.503228	0.012145
1639	8.1900e-01	-14.4188	-39.993226	0.000198	1.976895	0.669790	0.016164
1640	8.1950e-01	-14.3627	-39.931648	0.000151	1.506205	0.510316	0.012316
1641	8.2000e-01	-14.3418	-39.851255	0.000197	1.966435	0.666246	0.016079
1642	8.2050e-01	-14.3033	-39.787966	0.000155	1.548044	0.524492	0.012658
1643	8.2100e-01	-14.2584	-39.710138	0.000190	1.903676	0.644983	0.015566
1644	8.2150e-01	-14.2536	-39.633166	0.000188	1.882757	0.637895	0.015395
1645	8.2200e-01	-14.1830	-39.566029	0.000164	1.642182	0.556386	0.013427
1646	8.2250e-01	-14.1445	-39.503168	0.000154	1.537585	0.520948	0.012572
1647	8.2300e-01	-14.1012	-39.429188	0.000181	1.809538	0.613088	0.014796
1648	8.2350e-01	-14.0595	-39.365900	0.000155	1.548044	0.524492	0.012658
1649	8.2400e-01	-14.0418	-39.288500	0.000189	1.893217	0.641439	0.015480
1650	8.2450e-01	-13.9889	-39.222218	0.000162	1.621263	0.549299	0.013256
1651	8.2500e-01	-13.9536	-39.145245	0.000188	1.882757	0.637895	0.015395
1652	8.2550e-01	-13.9247	-39.080246	0.000159	1.589884	0.538667	0.013000
1653	8.2600e-01	-13.8766	-39.009688	0.000173	1.725860	0.584737	0.014112
1654	8.2650e-01	-13.8189	-38.963932	0.000112	1.119194	0.379193	0.009151
1655	8.2700e-01	-13.8076	-38.858309	0.000258	2.583561	0.875334	0.021125
1656	8.2750e-01	-13.7659	-38.791599	0.000163	1.631723	0.552843	0.013342
1657	8.2800e-01	-13.7226	-38.714627	0.000188	1.882757	0.637895	0.015395
1658	8.2850e-01	-13.6584	-38.641503	0.000179	1.788619	0.606001	0.014625
1659	8.2900e-01	-13.6633	-38.567524	-0.000181	-1.809538	-0.613088	0.014796
1660	8.2950e-01	-13.5975	-38.497821	0.000170	1.704941	0.577650	0.013941
1661	8.3000e-01	-13.5365	-38.418710	0.000194	1.935056	0.655615	0.015822
1662	8.3050e-01	-13.4916	-38.357987	0.000149	1.485286	0.503228	0.012145
1663	8.3100e-01	-13.4467	-38.289567	0.000167	1.673562	0.567018	0.013684
1664	8.3150e-01	-13.4274	-38.207035	0.000202	2.018734	0.683965	0.016506
1665	8.3200e-01	-13.4002	-38.136905	0.000172	1.715401	0.581193	0.014026
1666	8.3250e-01	-13.3424	-38.068485	0.000167	1.673562	0.567018	0.013684
1667	8.3300e-01	-13.3039	-38.001775	0.000163	1.631723	0.552843	0.013342
1668	8.3350e-01	-13.2686	-37.922237	0.000195	1.945515	0.659158	0.015908
1669	8.3400e-01	-13.2157	-37.837567	0.000207	2.071032	0.701685	0.016934
1670	8.3450e-01	-13.2060	-37.754180	0.000204	2.039653	0.691053	0.016677
1671	8.3500e-01	-13.1339	-37.698161	0.000137	1.370229	0.464246	0.011204
1672	8.3550e-01	-13.0697	-37.633590	0.000158	1.579424	0.535123	0.012914
1673	8.3600e-01	-13.0889	-37.558755	-0.000183	-1.830458	-0.620176	0.014967
1674	8.3650e-01	-13.0216	-37.486487	0.000177	1.767699	0.598913	0.014454
1675	8.3700e-01	-12.9798	-37.394120	0.000226	2.259308	0.765474	0.018473
1676	8.3750e-01	-12.9638	-37.324844	0.000169	1.694481	0.574106	0.013855
1677	8.3800e-01	-12.8996	-37.264122	0.000149	1.485286	0.503228	0.012145
1678	8.3850e-01	-12.8547	-37.189287	0.000183	1.830458	0.620176	0.014967
1679	8.3900e-01	-12.8531	-37.083236	0.000259	2.594020	0.878878	0.021210
1680	8.3950e-01	-12.7922	-37.034487	0.000119	1.192413	0.404000	0.009750
1681	8.4000e-01	-12.7312	-36.954521	0.000196	1.955975	0.662702	0.015993
1682	8.4050e-01	-12.6815	-36.892088	0.000153	1.527125	0.517404	0.012487
1683	8.4100e-01	-12.6574	-36.818109	0.000181	1.809538	0.613088	0.014796
1684	8.4150e-01	-12.6221	-36.744129	0.000181	1.809538	0.613088	0.014796
1685	8.4200e-01	-12.5900	-36.650907	0.000228	2.280228	0.772562	0.018644
1686	8.4250e-01	-12.5531	-36.584625	0.000162	1.621263	0.549299	0.013256
1687	8.4300e-01	-12.5210	-36.515777	0.000168	1.684021	0.570562	0.013770
1688	8.4350e-01	-12.4569	-36.437950	0.000190	1.903676	0.644983	0.015566
1689	8.4400e-01	-12.4216	-36.373378	0.000158	1.579424	0.535123	0.012914
1690	8.4450e-01	-12.3831	-36.291702	0.000200	1.997814	0.676878	0.016335
1691	8.4500e-01	-12.3558	-36.218150	0.000180	1.799079	0.609544	0.014710
1692	8.4550e-01	-12.2964	-36.131342	0.000212	2.123331	0.719404	0.017362
1693	8.4600e-01	-12.2579	-36.063778	0.000165	1.652642	0.559930	0.013513
1694	8.4650e-01	-12.2435	-35.986377	0.000189	1.893217	0.641439	0.015480
1695	8.4700e-01	-12.1874	-35.905984	0.000197	1.966435	0.666246	0.016079
1696	8.4750e-01	-12.1745	-35.828584	0.000189	1.893217	0.641439	0.015480
1697	8.4800e-01	-12.1007	-35.761446	0.000164	1.642182	0.556386	0.013427
1698	8.4850e-01	-12.0815	-35.682763	0.000192	1.924596	0.652071	0.015737
1699	8.4900e-01	-12.0398	-35.599804	0.000203	2.029193	0.687509	0.016592
1700	8.4950e-01	-11.9997	-35.520693	0.000194	1.935056	0.655615	0.015822
1701	8.5000e-01	-11.9612	-35.442866	0.000190	1.903676	0.644983	0.015566
1702	8.5050e-01	-11.8793	-35.382570	0.000147	1.474826	0.499685	0.012059
1703	8.5100e-01	-11.8890	-35.277802	-0.000256	-2.562641	-0.868246	0.020954
1704	8.5150e-01	-11.8408	-35.205961	0.000176	1.757240	0.595369	0.014368
1705	8.5200e-01	-11.7735	-35.147804	0.000142	1.422527	0.481965	0.011631
1706	8.5250e-01	-11.7414	-35.063562	0.000206	2.060573	0.698141	0.016848
1707	8.5300e-01	-11.7350	-34.977182	0.000211	2.112872	0.715860	0.017276
1708	8.5350e-01	-11.6676	-34.907479	0.000170	1.704941	0.577650	0.013941
1709	8.5400e-01	-11.6082	-34.839486	0.000166	1.663102	0.563474	0.013598
1710	8.5450e-01	-11.5986	-34.752251	0.000213	2.133791	0.722948	0.017447
1711	8.5500e-01	-11.5328	-34.683403	0.000168	1.684021	0.570562	0.013770
1712	8.5550e-01	-11.4959	-34.604720	0.000192	1.924596	0.652071	0.015737
1713	8.5600e-01	-11.4606	-34.518767	0.000210	2.102412	0.712316	0.017191
1714	8.5650e-01	-11.4029	-34.440940	0.000190	1.903676	0.644983	0.015566
1715	8.5700e-01	-11.3884	-34.337454	0.000253	2.531262	0.857615	0.020697
1716	8.5750e-01	-11.3548	-34.277587	0.000146	1.464366	0.496141	0.011974
1717	8.5800e-01	-11.3307	-34.192917	0.000207	2.071032	0.701685	0.016934
1718	8.5850e-01	-11.2601	-34.119793	0.000179	1.788619	0.606001	0.014625
1719	8.5900e-01	-11.2537	-34.035123	0.000207	2.071032	0.701685	0.016934
1720	8.5950e-01	-11.1927	-33.956440	0.000192	1.924596	0.652071	0.015737
1721	8.6000e-01	-11.1639	-33.875191	0.000199	1.987354	0.673334	0.016250
1722	8.6050e-01	-11.1462	-33.788383	0.000212	2.123331	0.719404	0.017362
1723	8.6100e-01	-11.0692	-33.725095	0.000155	1.548044	0.524492	0.012658
1724	8.6150e-01	-11.0227	-33.641708	0.000204	2.039653	0.691053	0.016677
1725	8.6200e-01	-10.9874	-33.561742	0.000196	1.955975	0.662702	0.015993
1726	8.6250e-01	-10.9473	-33.483059	0.000192	1.924596	0.652071	0.015737
1727	8.6300e-01	-10.9184	-33.412501	0.000173	1.725860	0.584737	0.014112
1728	8.6350e-01	-10.8671	-33.312009	0.000246	2.458044	0.832808	0.020098
1729	8.6400e-01	-10.8077	-33.241451	0.000173	1.725860	0.584737	0.014112
1730	8.6450e-01	-10.7756	-33.166616	0.000183	1.830458	0.620176	0.014967
1731	8.6500e-01	-10.7564	-33.072966	0.000229	2.290687	0.776106	0.018730
1732	8.6550e-01	-10.7403	-32.990862	0.000201	2.008274	0.680422	0.016421
1733	8.6600e-01	-10.6617	-32.901916	0.000218	2.175630	0.737123	0.017789
1734	8.6650e-01	-10.6168	-32.843759	0.000142	1.422527	0.481965	0.011631
1735	8.6700e-01	-10.6024	-32.756096	0.000214	2.144251	0.726492	0.017533
1736	8.6750e-01	-10.5462	-32.686821	0.000169	1.694481	0.574106	0.013855
1737	8.6800e-01	-10.5125	-32.581625	0.000257	2.573101	0.871790	0.021039
1738	8.6850e-01	-10.4580	-32.511067	0.000173	1.725860	0.584737	0.014112
1739	8.6900e-01	-10.4371	-32.430246	0.000198	1.976895	0.669790	0.016164
1740	8.6950e-01	-10.4259	-32.344293	0.000210	2.102412	0.712316	0.017191
1741	8.7000e-01	-10.3313	-32.271597	0.000178	1.778159	0.602457	0.014539
1742	8.7050e-01	-10.3120	-32.187354	0.000206	2.060573	0.698141	0.016848
1743	8.7100e-01	-10.2815	-32.095843	0.000224	2.238389	0.758387	0.018302
1744	8.7150e-01	-10.2254	-32.015877	0.000196	1.955975	0.662702	0.015993
1745	8.7200e-01	-10.1917	-31.938904	0.000188	1.882757	0.637895	0.015395
1746	8.7250e-01	-10.1388	-31.860221	0.000192	1.924596	0.652071	0.015737
1747	8.7300e-01	-10.0874	-31.789235	0.000174	1.736320	0.588281	0.014197
1748	8.7350e-01	-10.0730	-31.679763	0.000268	2.677699	0.907229	0.021894
1749	8.7400e-01	-10.0361	-31.605784	0.000181	1.809538	0.613088	0.014796
1750	8.7450e-01	-9.9960	-31.524108	0.000200	1.997814	0.676878	0.016335
1751	8.7500e-01	-9.9174	-31.452694	0.000175	1.746780	0.591825	0.014283
1752	8.7550e-01	-9.8853	-31.357334	0.000233	2.332526	0.790281	0.019072
1753	8.7600e-01	-9.8692	-31.279934	0.000189	1.893217	0.641439	0.015480
1754	8.7650e-01	-9.8516	-31.195264	0.000207	2.071032	0.701685	0.016934
1755	8.7700e-01	-9.8067	-31.098193	0.000237	2.374366	0.804457	0.019414
1756	8.7750e-01	-9.6960	-31.033194	0.000159	1.589884	0.538667	0.013000
1757	8.7800e-01	-9.7313	-30.936550	-0.000236	-2.363906	-0.800913	0.019329
1758	8.7850e-01	-9.6639	-30.859150	0.000189	1.893217	0.641439	0.015480
1759	8.7900e-01	-9.6463	-30.770204	0.000218	2.175630	0.737123	0.017789
1760	8.7950e-01	-9.6206	-30.661587	0.000266	2.656779	0.900141	0.021723
1761	8.8000e-01	-9.5709	-30.591457	0.000172	1.715401	0.581193	0.014026
1762	8.8050e-01	-9.5227	-30.514912	0.000187	1.872297	0.634351	0.015309
1763	8.8100e-01	-9.4553	-30.422117	0.000227	2.269768	0.769018	0.018559
1764	8.8150e-01	-9.4185	-30.345572	0.000187	1.872297	0.634351	0.015309
1765	8.8200e-01	-9.3864	-30.253633	0.000225	2.248848	0.761930	0.018388
1766	8.8250e-01	-9.3414	-30.182647	0.000174	1.736320	0.588281	0.014197
1767	8.8300e-01	-9.3110	-30.093273	0.000219	2.186090	0.740667	0.017875
1768	8.8350e-01	-9.2644	-29.996203	0.000237	2.374366	0.804457	0.019414
1769	8.8400e-01	-9.2340	-29.906829	0.000219	2.186090	0.740667	0.017875
1770	8.8450e-01	-9.1874	-29.835415	0.000175	1.746780	0.591825	0.014283
1771	8.8500e-01	-9.1505	-29.749035	0.000211	2.112872	0.715860	0.017276
1772	8.8550e-01	-9.1185	-29.660517	0.000217	2.165170	0.733580	0.017704
1773	8.8600e-01	-9.0591	-29.571571	0.000218	2.175630	0.737123	0.017789
1774	8.8650e-01	-9.0527	-29.474927	0.000236	2.363906	0.800913	0.019329
1775	8.8700e-01	-8.9965	-29.398382	0.000187	1.872297	0.634351	0.015309
1776	8.8750e-01	-8.9661	-29.303450	0.000232	2.322067	0.786738	0.018987
1777	8.8800e-01	-8.9051	-29.222628	0.000198	1.976895	0.669790	0.016164
1778	8.8850e-01	-8.8538	-29.125985	0.000236	2.363906	0.800913	0.019329
1779	8.8900e-01	-8.8409	-29.036611	0.000219	2.186090	0.740667	0.017875
1780	8.8950e-01	-8.7752	-28.951942	0.000207	2.071032	0.701685	0.016934
1781	8.9000e-01	-8.7334	-28.864278	0.000214	2.144251	0.726492	0.017533
1782	8.9050e-01	-8.7254	-28.770201	0.000230	2.301147	0.779650	0.018816
1783	8.9100e-01	-8.6661	-28.688952	0.000199	1.987354	0.673334	0.016250
1784	8.9150e-01	-8.6436	-28.608131	0.000198	1.976895	0.669790	0.016164
1785	8.9200e-01	-8.5907	-28.522178	0.000210	2.102412	0.712316	0.017191
1786	8.9250e-01	-8.5538	-28.425535	0.000236	2.363906	0.800913	0.019329
1787	8.9300e-01	-8.5217	-28.342148	0.000204	2.039653	0.691053	0.016677
1788	8.9350e-01	-8.4928	-28.245505	0.000236	2.363906	0.800913	0.019329
1789	8.9400e-01	-8.4222	-28.166394	0.000194	1.935056	0.655615	0.015822
1790	8.9450e-01	-8.3468	-28.084718	0.000200	1.997814	0.676878	0.016335
1791	8.9500e-01	-8.3500	-27.988929	-0.000234	-2.342986	-0.793825	0.019158
1792	8.9550e-01	-8.2987	-27.891859	0.000237	2.374366	0.804457	0.019414
1793	8.9600e-01	-8.2538	-27.800347	0.000224	2.238389	0.758387	0.018302
1794	8.9650e-01	-8.2393	-27.705414	0.000232	2.322067	0.786738	0.018987
1795	8.9700e-01	-8.2089	-27.627158	0.000191	1.914136	0.648527	0.015651
1796	8.9750e-01	-8.1367	-27.543772	0.000204	2.039653	0.691053	0.016677
1797	8.9800e-01	-8.0918	-27.458247	0.000209	2.091952	0.708773	0.017105
1798	8.9850e-01	-8.0773	-27.364597	0.000229	2.290687	0.776106	0.018730
1799	8.9900e-01	-8.0244	-27.270091	0.000231	2.311607	0.783194	0.018901
1800	8.9950e-01	-8.0035	-27.154205	0.000283	2.834595	0.960387	0.023177
1801	9.0000e-01	-7.9281	-27.078515	0.000185	1.851378	0.627264	0.015138
1802	9.0050e-01	-7.9233	-26.991707	0.000212	2.123331	0.719404	0.017362
1803	9.0100e-01	-7.8752	-26.897202	0.000231	2.311607	0.783194	0.018901
1804	9.0150e-01	-7.8479	-26.802269	0.000232	2.322067	0.786738	0.018987
1805	9.0200e-01	-7.8046	-26.720593	0.000200	1.997814	0.676878	0.016335
1806	9.0250e-01	-7.7115	-26.621811	0.000242	2.416205	0.818632	0.019756
1807	9.0300e-01	-7.7212	-26.532438	-0.000219	-2.186090	-0.740667	0.017875
1808	9.0350e-01	-7.6779	-26.438360	0.000230	2.301147	0.779650	0.018816
1809	9.0400e-01	-7.6297	-26.338296	0.000245	2.447584	0.829264	0.020013
1810	9.0450e-01	-7.5768	-26.246356	0.000225	2.248848	0.761930	0.018388
1811	9.0500e-01	-7.5110	-26.153989	0.000226	2.259308	0.765474	0.018473
1812	9.0550e-01	-7.4886	-26.050932	0.000252	2.520802	0.854071	0.020612
1813	9.0600e-01	-7.4677	-25.974387	0.000187	1.872297	0.634351	0.015309
1814	9.0650e-01	-7.4019	-25.891428	0.000203	2.029193	0.687509	0.016592
1815	9.0700e-01	-7.3907	-25.791791	0.000244	2.437124	0.825720	0.019927
1816	9.0750e-01	-7.3490	-25.699851	0.000225	2.248848	0.761930	0.018388
1817	9.0800e-01	-7.2896	-25.608340	0.000224	2.238389	0.758387	0.018302
1818	9.0850e-01	-7.2800	-25.488177	0.000294	2.939193	0.995825	0.024033
1819	9.0900e-01	-7.2367	-25.403507	0.000207	2.071032	0.701685	0.016934
1820	9.0950e-01	-7.2014	-25.304726	0.000242	2.416205	0.818632	0.019756
1821	9.1000e-01	-7.1340	-25.223904	0.000198	1.976895	0.669790	0.016164
1822	9.1050e-01	-7.1212	-25.110156	0.000278	2.782296	0.942667	0.022750
1823	9.1100e-01	-7.0731	-25.024203	0.000210	2.102412	0.712316	0.017191
1824	9.1150e-01	-7.0201	-24.924139	0.000245	2.447584	0.829264	0.020013
1825	9.1200e-01	-6.9736	-24.844173	0.000196	1.955975	0.662702	0.015993
1826	9.1250e-01	-6.9543	-24.741116	0.000252	2.520802	0.854071	0.020612
1827	9.1300e-01	-6.9158	-24.661577	0.000195	1.945515	0.659158	0.015908
1828	9.1350e-01	-6.8709	-24.553816	0.000264	2.635860	0.893053	0.021552
1829	9.1400e-01	-6.8485	-24.465297	0.000217	2.165170	0.733580	0.017704
1830	9.1450e-01	-6.7923	-24.375496	0.000220	2.196550	0.744211	0.017960
1831	9.1500e-01	-6.7410	-24.277997	0.000238	2.384825	0.808001	0.019500
1832	9.1550e-01	-6.6961	-24.188196	0.000220	2.196550	0.744211	0.017960
1833	9.1600e-01	-6.6768	-24.069316	0.000291	2.907813	0.985194	0.023776
1834	9.1650e-01	-6.6511	-23.958561	0.000271	2.709078	0.917860	0.022151
1835	9.1700e-01	-6.5838	-23.879023	0.000195	1.945515	0.659158	0.015908
1836	9.1750e-01	-6.5549	-23.778531	0.000246	2.458044	0.832808	0.020098
1837	9.1800e-01	-6.5405	-23.676756	0.000249	2.489423	0.843439	0.020355
1838	9.1850e-01	-6.4378	-23.585672	0.000223	2.227929	0.754843	0.018217
1839	9.1900e-01	-6.4442	-23.480049	-0.000258	-2.583561	-0.875334	0.021125
1840	9.1950e-01	-6.4217	-23.359031	0.000296	2.960112	1.002913	0.024204
1841	9.2000e-01	-6.3271	-23.288472	0.000173	1.725860	0.584737	0.014112
1842	9.2050e-01	-6.2998	-23.198671	0.000220	2.196550	0.744211	0.017960
1843	9.2100e-01	-6.2613	-23.105021	0.000229	2.290687	0.776106	0.018730
1844	9.2150e-01	-6.2421	-22.998115	0.000261	2.614940	0.885966	0.021381
1845	9.2200e-01	-6.2004	-22.892919	0.000257	2.573101	0.871790	0.021039
1846	9.2250e-01	-6.1410	-22.799269	0.000229	2.290687	0.776106	0.018730
1847	9.2300e-01	-6.1169	-22.697922	0.000248	2.478963	0.839895	0.020269
1848	9.2350e-01	-6.0736	-22.601279	0.000236	2.363906	0.800913	0.019329
1849	9.2400e-01	-6.0303	-22.500359	0.000247	2.468503	0.836352	0.020184
1850	9.2450e-01	-6.0079	-22.393025	0.000263	2.625400	0.889510	0.021467
1851	9.2500e-01	-5.9694	-22.298092	0.000232	2.322067	0.786738	0.018987
1852	9.2550e-01	-5.9180	-22.184772	0.000277	2.771836	0.939124	0.022664
1853	9.2600e-01	-5.8923	-22.103095	0.000200	1.997814	0.676878	0.016335
1854	9.2650e-01	-5.8442	-21.983360	0.000293	2.928733	0.992282	0.023947
1855	9.2700e-01	-5.7640	-21.905960	0.000189	1.893217	0.641439	0.015480
1856	9.2750e-01	-5.7367	-21.795633	0.000270	2.698618	0.914317	0.022065
1857	9.2800e-01	-5.6966	-21.698134	0.000238	2.384825	0.808001	0.019500
1858	9.2850e-01	-5.6726	-21.583530	0.000280	2.803216	0.949755	0.022921
1859	9.2900e-01	-5.6004	-21.509124	0.000182	1.819998	0.616632	0.014881
1860	9.2950e-01	-5.6020	-21.386823	-0.000299	-2.991491	-1.013545	0.024460
1861	9.3000e-01	-5.5362	-21.291462	0.000233	2.332526	0.790281	0.019072
1862	9.3050e-01	-5.5266	-21.182846	0.000266	2.656779	0.900141	0.021723
1863	9.3100e-01	-5.4817	-21.084492	0.000241	2.405745	0.815088	0.019671
1864	9.3150e-01	-5.4175	-20.962619	0.000298	2.981032	1.010001	0.024375
1865	9.3200e-01	-5.3982	-20.870252	0.000226	2.259308	0.765474	0.018473
1866	9.3250e-01	-5.3597	-20.779595	0.000222	2.217469	0.751299	0.018131
1867	9.3300e-01	-5.3100	-20.654301	0.000306	3.064710	1.038352	0.025059
1868	9.3350e-01	-5.2763	-20.563644	0.000222	2.217469	0.751299	0.018131
1869	9.3400e-01	-5.2266	-20.452034	0.000273	2.729997	0.924948	0.022322
1870	9.3450e-01	-5.1961	-20.353253	0.000242	2.416205	0.818632	0.019756
1871	9.3500e-01	-5.1416	-20.250623	0.000251	2.510342	0.850527	0.020526
1872	9.3550e-01	-5.1031	-20.131743	0.000291	2.907813	0.985194	0.023776
1873	9.3600e-01	-5.0694	-20.018422	0.000277	2.771836	0.939124	0.022664
1874	9.3650e-01	-5.0212	-19.921779	0.000236	2.363906	0.800913	0.019329
1875	9.3700e-01	-5.0020	-19.814445	0.000263	2.625400	0.889510	0.021467
1876	9.3750e-01	-4.9763	-19.714808	0.000244	2.437124	0.825720	0.019927
1877	9.3800e-01	-4.9041	-19.604908	0.000269	2.688158	0.910773	0.021980
1878	9.3850e-01	-4.8464	-19.502706	0.000250	2.499883	0.846983	0.020440
1879	9.3900e-01	-4.7999	-19.392379	0.000270	2.698618	0.914317	0.022065
1880	9.3950e-01	-4.8159	-19.276065	-0.000285	-2.845055	-0.963931	0.023263
1881	9.4000e-01	-4.7614	-19.176855	0.000243	2.426664	0.822176	0.019842
1882	9.4050e-01	-4.7245	-19.062679	0.000279	2.792756	0.946211	0.022835
1883	9.4100e-01	-4.6667	-18.965181	0.000238	2.384825	0.808001	0.019500
1884	9.4150e-01	-4.6443	-18.854854	0.000270	2.698618	0.914317	0.022065
1885	9.4200e-01	-4.5913	-18.726994	0.000313	3.127468	1.059615	0.025572
1886	9.4250e-01	-4.5512	-18.633771	0.000228	2.280228	0.772562	0.018644
1887	9.4300e-01	-4.4999	-18.524727	0.000267	2.667239	0.903685	0.021809
1888	9.4350e-01	-4.4517	-18.414400	0.000270	2.698618	0.914317	0.022065
1889	9.4400e-01	-4.4245	-18.301079	0.000277	2.771836	0.939124	0.022664
1890	9.4450e-01	-4.4100	-18.196738	0.000255	2.552181	0.864702	0.020868
1891	9.4500e-01	-4.3555	-18.086839	0.000269	2.688158	0.910773	0.021980
1892	9.4550e-01	-4.2977	-17.991051	0.000234	2.342986	0.793825	0.019158
1893	9.4600e-01	-4.2929	-17.867039	0.000303	3.033330	1.027720	0.024802
1894	9.4650e-01	-4.2047	-17.761843	0.000257	2.573101	0.871790	0.021039
1895	9.4700e-01	-4.1983	-17.652799	0.000267	2.667239	0.903685	0.021809
1896	9.4750e-01	-4.1582	-17.517242	0.000332	3.315744	1.123404	0.027111
1897	9.4800e-01	-4.1149	-17.403493	0.000278	2.782296	0.942667	0.022750
1898	9.4850e-01	-4.0715	-17.308561	0.000232	2.322067	0.786738	0.018987
1899	9.4900e-01	-4.0218	-17.189681	0.000291	2.907813	0.985194	0.023776
1900	9.4950e-01	-3.9737	-17.078071	0.000273	2.729997	0.924948	0.022322
1901	9.5000e-01	-3.9512	-16.949783	0.000314	3.137928	1.063159	0.025658
1902	9.5050e-01	-3.9143	-16.850146	0.000244	2.437124	0.825720	0.019927
1903	9.5100e-01	-3.8710	-16.747516	0.000251	2.510342	0.850527	0.020526
1904	9.5150e-01	-3.8405	-16.637617	0.000269	2.688158	0.910773	0.021980
1905	9.5200e-01	-3.7924	-16.501632	0.000333	3.326204	1.126948	0.027197
1906	9.5250e-01	-3.7411	-16.399429	0.000250	2.499883	0.846983	0.020440
1907	9.5300e-01	-3.7282	-16.281405	0.000289	2.886894	0.978106	0.023605
1908	9.5350e-01	-3.6464	-16.177064	0.000255	2.552181	0.864702	0.020868
1909	9.5400e-01	-3.6352	-16.047494	0.000317	3.169307	1.073790	0.025914
1910	9.5450e-01	-3.5855	-15.924338	0.000301	3.012411	1.020632	0.024631
1911	9.5500e-01	-3.5614	-15.815293	0.000267	2.667239	0.903685	0.021809
1912	9.5550e-01	-3.4876	-15.702400	0.000276	2.761377	0.935580	0.022579
1913	9.5600e-01	-3.4684	-15.586514	0.000283	2.834595	0.960387	0.023177
1914	9.5650e-01	-3.4202	-15.459081	0.000312	3.117008	1.056071	0.025486
1915	9.5700e-01	-3.3833	-15.357306	0.000249	2.489423	0.843439	0.020355
1916	9.5750e-01	-3.3176	-15.229019	0.000314	3.137928	1.063159	0.025658
1917	9.5800e-01	-3.3127	-15.099876	0.000316	3.158848	1.070247	0.025829
1918	9.5850e-01	-3.2438	-15.001095	0.000242	2.416205	0.818632	0.019756
1919	9.5900e-01	-3.2694	-14.866393	-0.000329	-3.294824	-1.116317	0.026940
1920	9.5950e-01	-3.2053	-14.751361	0.000281	2.813675	0.953299	0.023006
1921	9.6000e-01	-3.1459	-14.626495	0.000305	3.054250	1.034808	0.024973
1922	9.6050e-01	-3.1042	-14.514457	0.000274	2.740457	0.928492	0.022408
1923	9.6100e-01	-3.0529	-14.389163	0.000306	3.064710	1.038352	0.025059
1924	9.6150e-01	-3.0368	-14.270283	0.000291	2.907813	0.985194	0.023776
1925	9.6200e-01	-2.9726	-14.148837	0.000297	2.970572	1.006457	0.024289
1926	9.6250e-01	-2.9502	-14.019695	0.000316	3.158848	1.070247	0.025829
1927	9.6300e-01	-2.9117	-13.904236	0.000282	2.824135	0.956843	0.023092
1928	9.6350e-01	-2.8700	-13.784928	0.000292	2.918273	0.988738	0.023861
1929	9.6400e-01	-2.8106	-13.668187	0.000286	2.855514	0.967475	0.023348
1930	9.6450e-01	-2.7898	-13.536906	0.000321	3.211146	1.087966	0.026256
1931	9.6500e-01	-2.7416	-13.413322	0.000302	3.022871	1.024176	0.024717
1932	9.6550e-01	-2.7208	-13.292732	0.000295	2.949652	0.999369	0.024118
1933	9.6600e-01	-2.6390	-13.190102	0.000251	2.510342	0.850527	0.020526
1934	9.6650e-01	-2.6229	-13.067373	0.000300	3.001951	1.017089	0.024546
1935	9.6700e-01	-2.6101	-12.929250	0.000338	3.378503	1.144668	0.027625
1936	9.6750e-01	-2.5604	-12.805239	0.000303	3.033330	1.027720	0.024802
1937	9.6800e-01	-2.5186	-12.675241	0.000318	3.179767	1.077334	0.026000
1938	9.6850e-01	-2.4593	-12.543960	0.000321	3.211146	1.087966	0.026256
1939	9.6900e-01	-2.4513	-12.423797	0.000294	2.939193	0.995825	0.024033
1940	9.6950e-01	-2.3582	-12.308338	0.000282	2.824135	0.956843	0.023092
1941	9.7000e-01	-2.3422	-12.176202	0.000323	3.232066	1.095054	0.026427
1942	9.7050e-01	-2.3293	-12.054329	0.000298	2.981032	1.010001	0.024375
1943	9.7100e-01	-2.2876	-11.920482	0.000327	3.273905	1.109229	0.026769
1944	9.7150e-01	-2.2058	-11.806306	0.000279	2.792756	0.946211	0.022835
1945	9.7200e-01	-2.1882	-11.661341	0.000355	3.545859	1.201369	0.028993
1946	9.7250e-01	-2.1561	-11.532198	0.000316	3.158848	1.070247	0.025829
1947	9.7300e-01	-2.1112	-11.426575	0.000258	2.583561	0.875334	0.021125
1948	9.7350e-01	-2.0775	-11.271775	0.000379	3.786433	1.282878	0.030960
1949	9.7400e-01	-2.0326	-11.177269	0.000231	2.311607	0.783194	0.018901
1950	9.7450e-01	-1.9652	-11.034015	0.000350	3.504020	1.187194	0.028651
1951	9.7500e-01	-1.9652	-10.896747	-0.000336	-3.357583	-1.137580	0.027454
1952	9.7550e-01	-1.8946	-10.768460	0.000314	3.137928	1.063159	0.025658
1953	9.7600e-01	-1.8705	-10.653428	0.000281	2.813675	0.953299	0.023006
1954	9.7650e-01	-1.8625	-10.499483	0.000377	3.765514	1.275791	0.030789
1955	9.7700e-01	-1.7951	-10.364781	0.000329	3.294824	1.116317	0.026940
1956	9.7750e-01	-1.7406	-10.221955	0.000349	3.493560	1.183650	0.028565
1957	9.7800e-01	-1.7390	-10.093667	0.000314	3.137928	1.063159	0.025658
1958	9.7850e-01	-1.6796	-9.973932	0.000293	2.928733	0.992282	0.023947
1959	9.7900e-01	-1.6267	-9.840513	0.000326	3.263445	1.105685	0.026684
1960	9.7950e-01	-1.5866	-9.708377	0.000323	3.232066	1.095054	0.026427
1961	9.8000e-01	-1.5625	-9.568116	0.000343	3.430801	1.162387	0.028052
1962	9.8050e-01	-1.5064	-9.441966	0.000309	3.085629	1.045439	0.025230
1963	9.8100e-01	-1.4550	-9.306836	0.000331	3.305284	1.119861	0.027026
1964	9.8150e-01	-1.4197	-9.184963	0.000298	2.981032	1.010001	0.024375
1965	9.8200e-01	-1.3524	-9.045985	0.000340	3.399422	1.151755	0.027796
1966	9.8250e-01	-1.3620	-8.901020	-0.000355	-3.545859	-1.201369	0.028993
1967	9.8300e-01	-1.2930	-8.774443	0.000310	3.096089	1.048983	0.025315
1968	9.8350e-01	-1.3042	-8.629050	-0.000356	-3.556318	-1.204913	0.029079
1969	9.8400e-01	-1.2513	-8.517868	0.000272	2.719538	0.921404	0.022237
1970	9.8450e-01	-1.1903	-8.361785	0.000382	3.817812	1.293510	0.031217
1971	9.8500e-01	-1.1374	-8.236490	0.000306	3.064710	1.038352	0.025059
1972	9.8550e-01	-1.1246	-8.097085	0.000341	3.409882	1.155299	0.027881
1973	9.8600e-01	-1.0668	-7.964093	0.000325	3.252985	1.102141	0.026598
1974	9.8650e-01	-1.0187	-7.828964	0.000331	3.305284	1.119861	0.027026
1975	9.8700e-01	-0.9738	-7.681860	0.000360	3.598157	1.219089	0.029421
1976	9.8750e-01	-0.9545	-7.535185	0.000359	3.587698	1.215545	0.029335
1977	9.8800e-01	-0.9176	-7.407753	0.000312	3.117008	1.056071	0.025486
1978	9.8850e-01	-0.8647	-7.276472	0.000321	3.211146	1.087966	0.026256
1979	9.8900e-01	-0.8663	-7.110553	-0.000406	-4.058387	-1.375019	0.033184
1980	9.8950e-01	-0.7716	-6.999370	0.000272	2.719538	0.921404	0.022237
1981	9.9000e-01	-0.7379	-6.865524	0.000327	3.273905	1.109229	0.026769
1982	9.9050e-01	-0.7219	-6.720559	0.000355	3.545859	1.201369	0.028993
1983	9.9100e-01	-0.6497	-6.578587	0.000347	3.472640	1.176562	0.028394
1984	9.9150e-01	-0.6224	-6.460135	0.000290	2.897354	0.981650	0.023690
1985	9.9200e-01	-0.6080	-6.301058	0.000389	3.891031	1.318317	0.031815
1986	9.9250e-01	-0.5454	-6.165074	0.000333	3.326204	1.126948	0.027197
1987	9.9300e-01	-0.5085	-6.016260	0.000364	3.639997	1.233264	0.029763
1988	9.9350e-01	-0.4620	-5.891821	0.000304	3.043790	1.031264	0.024888
1989	9.9400e-01	-0.4251	-5.743863	0.000362	3.619077	1.226176	0.029592
1990	9.9450e-01	-0.3706	-5.605740	0.000338	3.378503	1.144668	0.027625
1991	9.9500e-01	-0.3417	-5.459920	0.000357	3.566778	1.208457	0.029164
1992	9.9550e-01	-0.3257	-5.328639	0.000321	3.211146	1.087966	0.026256
1993	9.9600e-01	-0.2663	-5.181963	0.000359	3.587698	1.215545	0.029335
1994	9.9650e-01	-0.2005	-5.051110	0.000320	3.200687	1.084422	0.026171
1995	9.9700e-01	-0.1989	-4.883908	0.000409	4.089766	1.385650	0.033440
1996	9.9750e-01	-0.1219	-4.765028	0.000291	2.907813	0.985194	0.023776
1997	9.9800e-01	-0.1219	-4.600820	-0.000402	-4.016548	-1.360843	0.032842
1998	9.9850e-01	-0.0481	-4.487927	0.000276	2.761377	0.935580	0.022579
1999	9.9900e-01	0.0016	-4.341679	0.000358	3.577238	1.212001	0.029250
2000	9.9950e-01	0.0257	-4.213392	0.000314	3.137928	1.063159	0.025658
2001	1.0000e+00	0.0497	-4.057309	0.000314	3.137928	1.063159	0.031217

Center data before PMax,+/-Pr and +/-Vc Calc.

PMax (uC/cm2):	4.83e+01
Pr (uC/cm2):	1.40e+00
-Pr (uC/cm2):	-4.06e+00
PLoss (uC/cm2):	-2.23e+00
Vc:	6.91e-01
-Vc:	-4.16e-01
C (Max-Eff) (nF):	2.41e-01
K (Eff):	8.17e+02
Vert. (+/-Pr) Shift (uC/cm2):	-1.33e+00
Horiz. Shift (+/-Vc):	1.38e-01
Offset (uC/cm2):	1.83e+00

A (Loop Area - uC/cm2·Volts):	1.21e-01



Hysteresis Version: 5.48.1 - Radiant Technologies, Inc., 1999 - 9/12/24

