»»»»»»»»»»»»»»»»»»»»»»»»»»»»»»»»»»»» Hysteresis ««««««««««««««««««««««««««««««««««««
»»»  Executed Version:	5.48.1
»»»  Vision Version:	5.48.4 (R)
»»»  Vision Compiled:	9/18/24
»»»  Driver Version:	5.47.0
»»»  Windows Version:	Windows 8 or 8.1
»»»  Processor Information:	x86 (AMD or Intel) - 32 Processors
»»»  Tester Name:	PMF21124-494 (100V)
»»»  Tester S/N:	PMF21124-494
»»»  Internal Amp Type:	100V RevK 270k
»»»  Internal Amp S/N:	iAB2-596/K     
»»»  Execution Count:	1
»»»»»»»»»»»»»»»»»»»»»»»»»»»»»»»»»»»»»»»»»»««««««««««««««««««««««««««««««««««««««««««

Stored:	6/13/2025 - 14:25:24
Configured:	06/13/25 01:30:53 PM
Executed:	06/13/25 02:24:54 PM

»»»»»»»»»»»»»»»»»»»»»»»»»»»»»»»»»»» Sample Info ««««««««««««««««««««««««««««««««««««
Sample Name:	
Lot Name:	
Wafer Name:	
Die Row/Column:	0/0
Capacitor Number:	0
Sample Area (cm2):	1.00e-04
Sample Thickness (microns):	3.00e-01

Amplifier:	Internal

»»»»»»»»»»»»»»»»»»»»»»»»»»»»»»»»»»» Tester Info «««««««««««««««««««««««««««««««««««
Tester Name:	PMF21124-494 (100V)
Tester Serial Number:	PMF21124-494
Return Signal Amp. Level:	0.19 [Index: 3]

»»»»»»»»»»»»»»»»»»»»»»»»»»»»»»»» Hysteresis Info ««««««««««««««««««««««««««««««««««
Task Name:	Hyst-1922
Volts:	20.00
Field:	666.67 (kV/cm)
DCBias:	0.00
DCField:	0.00 (kV/cm)
Hysteresis Period (ms):	2.00e+02
Preset:	Enabled
Preset Delay (ms):	1.00e+03
Profile:	Standard Bipolar

»»»»»»»»»»»»»»»»»»»»»»»»»»»»»»»»»»»»»» Data «««««««««««««««««««««««««««««««««««««««
Points:	2009

Valid Data

Point	Time (ms)	Drive Voltage	Measured Polarization (uC/cm2)	Capacitance (uF)	Normalized Capacitance (uF/cm2)	Dielectric Constant	Instantaneous Current (mA)
   1	0.0000e+00	0.0000	-3.092446	0.000193	1.925583	0.652405	0.000077
   2	9.9500e-02	0.0305	-3.015740	0.000193	1.925583	0.652405	0.000077
   3	1.9900e-01	0.0642	-2.850218	0.000416	4.155206	1.407822	0.000166
   4	2.9850e-01	0.1203	-2.616064	0.000588	5.878096	1.991553	0.000235
   5	3.9800e-01	0.1508	-2.434393	0.000456	4.560592	1.545170	0.000183
   6	4.9750e-01	0.1941	-2.276945	0.000395	3.952513	1.339148	0.000158
   7	5.9700e-01	0.2342	-2.135645	0.000355	3.547127	1.201799	0.000142
   8	6.9650e-01	0.2727	-1.893417	0.000608	6.080789	2.060227	0.000243
   9	7.9600e-01	0.3112	-1.723857	0.000426	4.256552	1.442159	0.000170
  10	8.9550e-01	0.3545	-1.542186	0.000456	4.560592	1.545170	0.000183
  11	9.9500e-01	0.3882	-1.421072	0.000304	3.040395	1.030114	0.000122
  12	1.0945e+00	0.4364	-1.199029	0.000557	5.574057	1.888542	0.000223
  13	1.1940e+00	0.4668	-1.005247	0.000486	4.864631	1.648182	0.000195
  14	1.2935e+00	0.5118	-0.867984	0.000345	3.445780	1.167462	0.000138
  15	1.3930e+00	0.5486	-0.682276	0.000466	4.661938	1.579507	0.000187
  16	1.4925e+00	0.5904	-0.476382	0.000517	5.168671	1.751193	0.000207
  17	1.5920e+00	0.6321	-0.278562	0.000497	4.965978	1.682519	0.000199
  18	1.6915e+00	0.6754	-0.137263	0.000355	3.547127	1.201799	0.000142
  19	1.7910e+00	0.7059	0.056520	0.000486	4.864631	1.648182	0.000195
  20	1.8905e+00	0.7508	0.222042	0.000416	4.155206	1.407822	0.000166
  21	1.9900e+00	0.7829	0.423899	0.000507	5.067324	1.716856	0.000203
  22	2.0895e+00	0.8326	0.577310	0.000385	3.851166	1.304810	0.000154
  23	2.1890e+00	0.8743	0.767056	0.000476	4.763285	1.613845	0.000191
  24	2.2885e+00	0.9048	0.989098	0.000557	5.574057	1.888542	0.000223
  25	2.3880e+00	0.9481	1.174806	0.000466	4.661938	1.579507	0.000187
  26	2.4875e+00	0.9866	1.336292	0.000405	4.053859	1.373485	0.000162
  27	2.5870e+00	1.0347	1.530074	0.000486	4.864631	1.648182	0.000195
  28	2.6865e+00	1.0700	1.679448	0.000375	3.749820	1.270473	0.000150
  29	2.7860e+00	1.1069	1.881305	0.000507	5.067324	1.716856	0.000203
  30	2.8855e+00	1.1454	2.046828	0.000416	4.155206	1.407822	0.000166
  31	2.9850e+00	1.1887	2.240610	0.000486	4.864631	1.648182	0.000195
  32	3.0845e+00	1.2401	2.377873	0.000345	3.445780	1.167462	0.000138
  33	3.1840e+00	1.2673	2.547433	0.000426	4.256552	1.442159	0.000170
  34	3.2835e+00	1.3155	2.725067	0.000446	4.459245	1.510833	0.000179
  35	3.3830e+00	1.3524	2.930961	0.000517	5.168671	1.751193	0.000207
  36	3.4825e+00	1.3828	3.140892	0.000527	5.270017	1.785530	0.000211
  37	3.5820e+00	1.4294	3.274117	0.000334	3.344434	1.133125	0.000134
  38	3.6815e+00	1.4711	3.475974	0.000507	5.067324	1.716856	0.000203
  39	3.7810e+00	1.5112	3.669756	0.000486	4.864631	1.648182	0.000195
  40	3.8805e+00	1.5465	3.835279	0.000416	4.155206	1.407822	0.000166
  41	3.9800e+00	1.5802	4.020987	0.000466	4.661938	1.579507	0.000187
  42	4.0795e+00	1.6235	4.259178	0.000598	5.979443	2.025890	0.000239
  43	4.1790e+00	1.6716	4.428738	0.000426	4.256552	1.442159	0.000170
  44	4.2785e+00	1.7101	4.598298	0.000426	4.256552	1.442159	0.000170
  45	4.3780e+00	1.7502	4.759783	0.000405	4.053859	1.373485	0.000162
  46	4.4775e+00	1.7919	4.921268	0.000405	4.053859	1.373485	0.000162
  47	4.5770e+00	1.8304	5.131200	0.000527	5.270017	1.785530	0.000211
  48	4.6765e+00	1.8657	5.276536	0.000365	3.648473	1.236136	0.000146
  49	4.7760e+00	1.9074	5.490505	0.000537	5.371364	1.819867	0.000215
  50	4.8755e+00	1.9524	5.660064	0.000426	4.256552	1.442159	0.000170
  51	4.9750e+00	1.9748	5.869995	0.000527	5.270017	1.785530	0.000211
  52	5.0745e+00	2.0213	6.019369	0.000375	3.749820	1.270473	0.000150
  53	5.1740e+00	2.0727	6.233338	0.000537	5.371364	1.819867	0.000215
  54	5.2735e+00	2.1096	6.398860	0.000416	4.155206	1.407822	0.000166
  55	5.3730e+00	2.1417	6.596680	0.000497	4.965978	1.682519	0.000199
  56	5.4725e+00	2.1769	6.802574	0.000517	5.168671	1.751193	0.000207
  57	5.5720e+00	2.2251	7.000393	0.000497	4.965978	1.682519	0.000199
  58	5.6715e+00	2.2684	7.165916	0.000416	4.155206	1.407822	0.000166
  59	5.7710e+00	2.2973	7.351624	0.000466	4.661938	1.579507	0.000187
  60	5.8705e+00	2.3534	7.565592	0.000537	5.371364	1.819867	0.000215
  61	5.9700e+00	2.3871	7.723041	0.000395	3.952513	1.339148	0.000158
  62	6.0695e+00	2.4240	7.860303	0.000345	3.445780	1.167462	0.000138
  63	6.1690e+00	2.4737	8.058123	0.000497	4.965978	1.682519	0.000199
  64	6.2685e+00	2.5042	8.272091	0.000537	5.371364	1.819867	0.000215
  65	6.3680e+00	2.5443	8.465874	0.000486	4.864631	1.648182	0.000195
  66	6.4675e+00	2.5828	8.631396	0.000416	4.155206	1.407822	0.000166
  67	6.5670e+00	2.6245	8.788845	0.000395	3.952513	1.339148	0.000158
  68	6.6665e+00	2.6534	8.978590	0.000476	4.763285	1.613845	0.000191
  69	6.7660e+00	2.6967	9.180447	0.000507	5.067324	1.716856	0.000203
  70	6.8655e+00	2.7545	9.362118	0.000456	4.560592	1.545170	0.000183
  71	6.9650e+00	2.7849	9.535715	0.000436	4.357899	1.476496	0.000174
  72	7.0645e+00	2.8251	9.721423	0.000466	4.661938	1.579507	0.000187
  73	7.1640e+00	2.8587	9.890983	0.000426	4.256552	1.442159	0.000170
  74	7.2635e+00	2.9085	10.100914	0.000527	5.270017	1.785530	0.000211
  75	7.3630e+00	2.9406	10.278548	0.000446	4.459245	1.510833	0.000179
  76	7.4625e+00	2.9855	10.480404	0.000507	5.067324	1.716856	0.000203
  77	7.5620e+00	3.0240	10.678224	0.000497	4.965978	1.682519	0.000199
  78	7.6615e+00	3.0721	10.763004	0.000213	2.128276	0.721079	0.000085
  79	7.7610e+00	3.1138	10.985046	0.000557	5.574057	1.888542	0.000223
  80	7.8605e+00	3.1459	11.162680	0.000446	4.459245	1.510833	0.000179
  81	7.9600e+00	3.1908	11.360500	0.000497	4.965978	1.682519	0.000199
  82	8.0595e+00	3.2213	11.517948	0.000395	3.952513	1.339148	0.000158
  83	8.1590e+00	3.2646	11.711731	0.000486	4.864631	1.648182	0.000195
  84	8.2585e+00	3.3095	11.861105	0.000375	3.749820	1.270473	0.000150
  85	8.3580e+00	3.3400	12.038739	0.000446	4.459245	1.510833	0.000179
  86	8.4575e+00	3.3785	12.224447	0.000466	4.661938	1.579507	0.000187
  87	8.5570e+00	3.4250	12.398044	0.000436	4.357899	1.476496	0.000174
  88	8.6565e+00	3.4684	12.579715	0.000456	4.560592	1.545170	0.000183
  89	8.7560e+00	3.4988	12.777535	0.000497	4.965978	1.682519	0.000199
  90	8.8555e+00	3.5421	12.991503	0.000537	5.371364	1.819867	0.000215
  91	8.9550e+00	3.5806	13.116654	0.000314	3.141741	1.064451	0.000126
  92	9.0545e+00	3.6127	13.310437	0.000486	4.864631	1.648182	0.000195
  93	9.1540e+00	3.6560	13.500182	0.000476	4.763285	1.613845	0.000191
  94	9.2535e+00	3.7042	13.665704	0.000416	4.155206	1.407822	0.000166
  95	9.3530e+00	3.7427	13.883710	0.000547	5.472710	1.854204	0.000219
  96	9.4525e+00	3.7796	14.041158	0.000395	3.952513	1.339148	0.000158
  97	9.5520e+00	3.8181	14.214755	0.000436	4.357899	1.476496	0.000174
  98	9.6515e+00	3.8614	14.372203	0.000395	3.952513	1.339148	0.000158
  99	9.7510e+00	3.9079	14.533689	0.000405	4.053859	1.373485	0.000162
 100	9.8505e+00	3.9400	14.707285	0.000436	4.357899	1.476496	0.000174
 101	9.9500e+00	3.9833	14.917217	0.000527	5.270017	1.785530	0.000211
 102	1.0050e+01	4.0234	15.086776	0.000426	4.256552	1.442159	0.000170
 103	1.0149e+01	4.0571	15.260373	0.000436	4.357899	1.476496	0.000174
 104	1.0248e+01	4.0988	15.409747	0.000375	3.749820	1.270473	0.000150
 105	1.0348e+01	4.1373	15.583344	0.000436	4.357899	1.476496	0.000174
 106	1.0447e+01	4.1790	15.797312	0.000537	5.371364	1.819867	0.000215
 107	1.0547e+01	4.2127	15.930538	0.000334	3.344434	1.133125	0.000134
 108	1.0646e+01	4.2560	16.192951	0.000659	6.587521	2.231913	0.000264
 109	1.0746e+01	4.2945	16.326177	0.000334	3.344434	1.133125	0.000134
 110	1.0845e+01	4.3443	16.499774	0.000436	4.357899	1.476496	0.000174
 111	1.0945e+01	4.3747	16.653185	0.000385	3.851166	1.304810	0.000154
 112	1.1044e+01	4.4213	16.859079	0.000517	5.168671	1.751193	0.000207
 113	1.1144e+01	4.4534	17.073047	0.000537	5.371364	1.819867	0.000215
 114	1.1243e+01	4.4967	17.246644	0.000436	4.357899	1.476496	0.000174
 115	1.1343e+01	4.5352	17.412166	0.000416	4.155206	1.407822	0.000166
 116	1.1443e+01	4.5689	17.537318	0.000314	3.141741	1.064451	0.000126
 117	1.1542e+01	4.6154	17.755323	0.000547	5.472710	1.854204	0.000219
 118	1.1642e+01	4.6571	17.916808	0.000405	4.053859	1.373485	0.000162
 119	1.1741e+01	4.6940	18.074257	0.000395	3.952513	1.339148	0.000158
 120	1.1841e+01	4.7389	18.219594	0.000365	3.648473	1.236136	0.000146
 121	1.1940e+01	4.7806	18.401265	0.000456	4.560592	1.545170	0.000183
 122	1.2040e+01	4.8207	18.578899	0.000446	4.459245	1.510833	0.000179
 123	1.2139e+01	4.8512	18.756533	0.000446	4.459245	1.510833	0.000179
 124	1.2239e+01	4.8961	18.930129	0.000436	4.357899	1.476496	0.000174
 125	1.2338e+01	4.9250	19.115838	0.000466	4.661938	1.579507	0.000187
 126	1.2438e+01	4.9779	19.261175	0.000365	3.648473	1.236136	0.000146
 127	1.2537e+01	5.0148	19.434771	0.000436	4.357899	1.476496	0.000174
 128	1.2636e+01	5.0598	19.592220	0.000395	3.952513	1.339148	0.000158
 129	1.2736e+01	5.0950	19.830411	0.000598	5.979443	2.025890	0.000239
 130	1.2835e+01	5.1335	20.016119	0.000466	4.661938	1.579507	0.000187
 131	1.2935e+01	5.1785	20.157419	0.000355	3.547127	1.201799	0.000142
 132	1.3034e+01	5.2170	20.326978	0.000426	4.256552	1.442159	0.000170
 133	1.3134e+01	5.2667	20.460204	0.000334	3.344434	1.133125	0.000134
 134	1.3233e+01	5.3036	20.617652	0.000395	3.952513	1.339148	0.000158
 135	1.3333e+01	5.3357	20.827583	0.000527	5.270017	1.785530	0.000211
 136	1.3432e+01	5.3790	20.972920	0.000365	3.648473	1.236136	0.000146
 137	1.3532e+01	5.4175	21.150554	0.000446	4.459245	1.510833	0.000179
 138	1.3632e+01	5.4544	21.308002	0.000395	3.952513	1.339148	0.000158
 139	1.3731e+01	5.4913	21.477562	0.000426	4.256552	1.442159	0.000170
 140	1.3831e+01	5.5314	21.635010	0.000395	3.952513	1.339148	0.000158
 141	1.3930e+01	5.5667	21.832830	0.000497	4.965978	1.682519	0.000199
 142	1.4030e+01	5.6052	21.998353	0.000416	4.155206	1.407822	0.000166
 143	1.4129e+01	5.6517	22.119467	0.000304	3.040395	1.030114	0.000122
 144	1.4229e+01	5.6998	22.337472	0.000547	5.472710	1.854204	0.000219
 145	1.4328e+01	5.7287	22.519143	0.000456	4.560592	1.545170	0.000183
 146	1.4428e+01	5.7672	22.688703	0.000426	4.256552	1.442159	0.000170
 147	1.4527e+01	5.8057	22.846151	0.000395	3.952513	1.339148	0.000158
 148	1.4627e+01	5.8587	23.031859	0.000466	4.661938	1.579507	0.000187
 149	1.4726e+01	5.8988	23.189308	0.000395	3.952513	1.339148	0.000158
 150	1.4825e+01	5.9405	23.286199	0.000243	2.432316	0.824091	0.000097
 151	1.4925e+01	5.9677	23.459796	0.000436	4.357899	1.476496	0.000174
 152	1.5024e+01	6.0159	23.601096	0.000355	3.547127	1.201799	0.000142
 153	1.5124e+01	6.0464	23.811027	0.000527	5.270017	1.785530	0.000211
 154	1.5223e+01	6.0929	23.924066	0.000284	2.837702	0.961439	0.000114
 155	1.5323e+01	6.1266	24.109775	0.000466	4.661938	1.579507	0.000187
 156	1.5422e+01	6.1683	24.259149	0.000375	3.749820	1.270473	0.000150
 157	1.5522e+01	6.2116	24.452931	0.000486	4.864631	1.648182	0.000195
 158	1.5621e+01	6.2629	24.614417	0.000405	4.053859	1.373485	0.000162
 159	1.5721e+01	6.2854	24.751679	0.000345	3.445780	1.167462	0.000138
 160	1.5820e+01	6.3319	24.913165	0.000405	4.053859	1.373485	0.000162
 161	1.5920e+01	6.3720	25.110984	0.000497	4.965978	1.682519	0.000199
 162	1.6020e+01	6.4073	25.288618	0.000446	4.459245	1.510833	0.000179
 163	1.6119e+01	6.4474	25.466252	0.000446	4.459245	1.510833	0.000179
 164	1.6218e+01	6.4891	25.595441	0.000324	3.243087	1.098788	0.000130
 165	1.6318e+01	6.5244	25.789223	0.000486	4.864631	1.648182	0.000195
 166	1.6418e+01	6.5758	25.922449	0.000334	3.344434	1.133125	0.000134
 167	1.6517e+01	6.6110	26.059711	0.000345	3.445780	1.167462	0.000138
 168	1.6616e+01	6.6479	26.229271	0.000426	4.256552	1.442159	0.000170
 169	1.6716e+01	6.6864	26.382682	0.000385	3.851166	1.304810	0.000154
 170	1.6816e+01	6.7298	26.552242	0.000426	4.256552	1.442159	0.000170
 171	1.6915e+01	6.7634	26.709690	0.000395	3.952513	1.339148	0.000158
 172	1.7015e+01	6.7987	26.859064	0.000375	3.749820	1.270473	0.000150
 173	1.7114e+01	6.8388	27.024587	0.000416	4.155206	1.407822	0.000166
 174	1.7213e+01	6.8966	27.210295	0.000466	4.661938	1.579507	0.000187
 175	1.7313e+01	6.9287	27.347557	0.000345	3.445780	1.167462	0.000138
 176	1.7413e+01	6.9656	27.537303	0.000476	4.763285	1.613845	0.000191
 177	1.7512e+01	7.0041	27.666491	0.000324	3.243087	1.098788	0.000130
 178	1.7611e+01	7.0474	27.852199	0.000466	4.661938	1.579507	0.000187
 179	1.7711e+01	7.0907	28.041945	0.000476	4.763285	1.613845	0.000191
 180	1.7811e+01	7.1228	28.195356	0.000385	3.851166	1.304810	0.000154
 181	1.7910e+01	7.1581	28.348767	0.000385	3.851166	1.304810	0.000154
 182	1.8009e+01	7.2062	28.510253	0.000405	4.053859	1.373485	0.000162
 183	1.8109e+01	7.2447	28.655589	0.000365	3.648473	1.236136	0.000146
 184	1.8209e+01	7.2848	28.857446	0.000507	5.067324	1.716856	0.000203
 185	1.8308e+01	7.3281	28.954338	0.000243	2.432316	0.824091	0.000097
 186	1.8407e+01	7.3698	29.107749	0.000385	3.851166	1.304810	0.000154
 187	1.8507e+01	7.4067	29.269234	0.000405	4.053859	1.373485	0.000162
 188	1.8607e+01	7.4501	29.463017	0.000486	4.864631	1.648182	0.000195
 189	1.8706e+01	7.4789	29.588168	0.000314	3.141741	1.064451	0.000126
 190	1.8805e+01	7.5303	29.757728	0.000426	4.256552	1.442159	0.000170
 191	1.8905e+01	7.5624	29.854619	0.000243	2.432316	0.824091	0.000097
 192	1.9005e+01	7.6105	30.040327	0.000466	4.661938	1.579507	0.000187
 193	1.9104e+01	7.6458	30.230072	0.000476	4.763285	1.613845	0.000191
 194	1.9203e+01	7.6939	30.391558	0.000405	4.053859	1.373485	0.000162
 195	1.9303e+01	7.7276	30.532858	0.000355	3.547127	1.201799	0.000142
 196	1.9402e+01	7.7693	30.718566	0.000466	4.661938	1.579507	0.000187
 197	1.9502e+01	7.7982	30.888126	0.000426	4.256552	1.442159	0.000170
 198	1.9602e+01	7.8447	31.057685	0.000426	4.256552	1.442159	0.000170
 199	1.9701e+01	7.8688	31.211096	0.000385	3.851166	1.304810	0.000154
 200	1.9800e+01	7.9249	31.388730	0.000446	4.459245	1.510833	0.000179
 201	1.9900e+01	7.9634	31.509844	0.000304	3.040395	1.030114	0.000122
 202	2.0000e+01	8.0115	31.639033	0.000324	3.243087	1.098788	0.000130
 203	2.0099e+01	8.0452	31.760147	0.000304	3.040395	1.030114	0.000122
 204	2.0198e+01	8.0885	31.917595	0.000395	3.952513	1.339148	0.000158
 205	2.0298e+01	8.1206	32.062932	0.000365	3.648473	1.236136	0.000146
 206	2.0398e+01	8.1607	32.228455	0.000416	4.155206	1.407822	0.000166
 207	2.0497e+01	8.2024	32.369754	0.000355	3.547127	1.201799	0.000142
 208	2.0596e+01	8.2490	32.539314	0.000426	4.256552	1.442159	0.000170
 209	2.0696e+01	8.2843	32.692725	0.000385	3.851166	1.304810	0.000154
 210	2.0796e+01	8.3212	32.805765	0.000284	2.837702	0.961439	0.000114
 211	2.0895e+01	8.3645	32.987436	0.000456	4.560592	1.545170	0.000183
 212	2.0994e+01	8.4014	33.156996	0.000426	4.256552	1.442159	0.000170
 213	2.1094e+01	8.4351	33.346741	0.000476	4.763285	1.613845	0.000191
 214	2.1194e+01	8.4848	33.488041	0.000355	3.547127	1.201799	0.000142
 215	2.1293e+01	8.5137	33.657601	0.000426	4.256552	1.442159	0.000170
 216	2.1392e+01	8.5602	33.851383	0.000486	4.864631	1.648182	0.000195
 217	2.1492e+01	8.5955	33.988646	0.000345	3.445780	1.167462	0.000138
 218	2.1591e+01	8.6468	34.166280	0.000446	4.459245	1.510833	0.000179
 219	2.1691e+01	8.6805	34.283357	0.000294	2.939048	0.995776	0.000118
 220	2.1791e+01	8.7190	34.440805	0.000395	3.952513	1.339148	0.000158
 221	2.1890e+01	8.7575	34.618439	0.000446	4.459245	1.510833	0.000179
 222	2.1989e+01	8.7992	34.731479	0.000284	2.837702	0.961439	0.000114
 223	2.2089e+01	8.8377	34.872779	0.000355	3.547127	1.201799	0.000142
 224	2.2189e+01	8.8874	34.977744	0.000264	2.635009	0.892765	0.000105
 225	2.2288e+01	8.9227	35.127118	0.000375	3.749820	1.270473	0.000150
 226	2.2387e+01	8.9564	35.320901	0.000486	4.864631	1.648182	0.000195
 227	2.2487e+01	9.0030	35.446052	0.000314	3.141741	1.064451	0.000126
 228	2.2587e+01	9.0447	35.643871	0.000497	4.965978	1.682519	0.000199
 229	2.2686e+01	9.0800	35.789208	0.000365	3.648473	1.236136	0.000146
 230	2.2785e+01	9.1217	35.970879	0.000456	4.560592	1.545170	0.000183
 231	2.2885e+01	9.1586	36.120253	0.000375	3.749820	1.270473	0.000150
 232	2.2985e+01	9.1971	36.277702	0.000395	3.952513	1.339148	0.000158
 233	2.3084e+01	9.2388	36.414964	0.000345	3.445780	1.167462	0.000138
 234	2.3183e+01	9.2805	36.592598	0.000446	4.459245	1.510833	0.000179
 235	2.3283e+01	9.3142	36.778307	0.000466	4.661938	1.579507	0.000187
 236	2.3383e+01	9.3607	36.903458	0.000314	3.141741	1.064451	0.000126
 237	2.3482e+01	9.3896	37.056869	0.000385	3.851166	1.304810	0.000154
 238	2.3581e+01	9.4377	37.177983	0.000304	3.040395	1.030114	0.000122
 239	2.3681e+01	9.4810	37.343506	0.000416	4.155206	1.407822	0.000166
 240	2.3780e+01	9.5147	37.476731	0.000334	3.344434	1.133125	0.000134
 241	2.3880e+01	9.5484	37.601882	0.000314	3.141741	1.064451	0.000126
 242	2.3980e+01	9.5997	37.727033	0.000314	3.141741	1.064451	0.000126
 243	2.4079e+01	9.6382	37.880445	0.000385	3.851166	1.304810	0.000154
 244	2.4178e+01	9.6831	38.037893	0.000395	3.952513	1.339148	0.000158
 245	2.4278e+01	9.7184	38.223601	0.000466	4.661938	1.579507	0.000187
 246	2.4378e+01	9.7618	38.413347	0.000476	4.763285	1.613845	0.000191
 247	2.4477e+01	9.7890	38.510238	0.000243	2.432316	0.824091	0.000097
 248	2.4576e+01	9.8307	38.695946	0.000466	4.661938	1.579507	0.000187
 249	2.4676e+01	9.8628	38.813023	0.000294	2.939048	0.995776	0.000118
 250	2.4776e+01	9.9158	38.930100	0.000294	2.939048	0.995776	0.000118
 251	2.4875e+01	9.9495	39.168291	0.000598	5.979443	2.025890	0.000239
 252	2.4974e+01	9.9880	39.285368	0.000294	2.939048	0.995776	0.000118
 253	2.5074e+01	10.0425	39.434742	0.000375	3.749820	1.270473	0.000150
 254	2.5174e+01	10.0730	39.584116	0.000375	3.749820	1.270473	0.000150
 255	2.5273e+01	10.1179	39.737527	0.000385	3.851166	1.304810	0.000154
 256	2.5372e+01	10.1468	39.846530	0.000274	2.736355	0.927102	0.000110
 257	2.5472e+01	10.1965	39.979755	0.000334	3.344434	1.133125	0.000134
 258	2.5572e+01	10.2254	40.117018	0.000345	3.445780	1.167462	0.000138
 259	2.5671e+01	10.2767	40.254280	0.000345	3.445780	1.167462	0.000138
 260	2.5770e+01	10.3104	40.399617	0.000365	3.648473	1.236136	0.000146
 261	2.5870e+01	10.3505	40.524769	0.000314	3.141741	1.064451	0.000126
 262	2.5970e+01	10.3954	40.698365	0.000436	4.357899	1.476496	0.000174
 263	2.6069e+01	10.4371	40.839665	0.000355	3.547127	1.201799	0.000142
 264	2.6169e+01	10.4821	41.025373	0.000466	4.661938	1.579507	0.000187
 265	2.6268e+01	10.5190	41.166673	0.000355	3.547127	1.201799	0.000142
 266	2.6367e+01	10.5350	41.340270	0.000436	4.357899	1.476496	0.000174
 267	2.6467e+01	10.5847	41.449273	0.000274	2.736355	0.927102	0.000110
 268	2.6567e+01	10.6329	41.647092	0.000497	4.965978	1.682519	0.000199
 269	2.6666e+01	10.6714	41.756095	0.000274	2.736355	0.927102	0.000110
 270	2.6765e+01	10.7163	41.893358	0.000345	3.445780	1.167462	0.000138
 271	2.6865e+01	10.7419	42.026583	0.000334	3.344434	1.133125	0.000134
 272	2.6965e+01	10.7853	42.151734	0.000314	3.141741	1.064451	0.000126
 273	2.7064e+01	10.8302	42.284960	0.000334	3.344434	1.133125	0.000134
 274	2.7163e+01	10.8687	42.402037	0.000294	2.939048	0.995776	0.000118
 275	2.7263e+01	10.9104	42.571596	0.000426	4.256552	1.442159	0.000170
 276	2.7363e+01	10.9489	42.729045	0.000395	3.952513	1.339148	0.000158
 277	2.7462e+01	10.9954	42.870344	0.000355	3.547127	1.201799	0.000142
 278	2.7561e+01	11.0339	43.023756	0.000385	3.851166	1.304810	0.000154
 279	2.7661e+01	11.0708	43.152944	0.000324	3.243087	1.098788	0.000130
 280	2.7761e+01	11.1173	43.290207	0.000345	3.445780	1.167462	0.000138
 281	2.7860e+01	11.1446	43.479952	0.000476	4.763285	1.613845	0.000191
 282	2.7959e+01	11.1927	43.617215	0.000345	3.445780	1.167462	0.000138
 283	2.8059e+01	11.2216	43.726217	0.000274	2.736355	0.927102	0.000110
 284	2.8159e+01	11.2665	43.899814	0.000436	4.357899	1.476496	0.000174
 285	2.8258e+01	11.3195	44.065337	0.000416	4.155206	1.407822	0.000166
 286	2.8358e+01	11.3451	44.190488	0.000314	3.141741	1.064451	0.000126
 287	2.8457e+01	11.3997	44.339862	0.000375	3.749820	1.270473	0.000150
 288	2.8556e+01	11.4334	44.440790	0.000253	2.533662	0.858428	0.000101
 289	2.8656e+01	11.4655	44.557867	0.000294	2.939048	0.995776	0.000118
 290	2.8756e+01	11.5088	44.723390	0.000416	4.155206	1.407822	0.000166
 291	2.8855e+01	11.5457	44.852578	0.000324	3.243087	1.098788	0.000130
 292	2.8954e+01	11.5906	44.997915	0.000365	3.648473	1.236136	0.000146
 293	2.9054e+01	11.6371	45.131140	0.000334	3.344434	1.133125	0.000134
 294	2.9154e+01	11.6628	45.284552	0.000385	3.851166	1.304810	0.000154
 295	2.9253e+01	11.7093	45.433926	0.000375	3.749820	1.270473	0.000150
 296	2.9352e+01	11.7430	45.563114	0.000324	3.243087	1.098788	0.000130
 297	2.9452e+01	11.7895	45.668079	0.000264	2.635009	0.892765	0.000105
 298	2.9552e+01	11.8264	45.849751	0.000456	4.560592	1.545170	0.000183
 299	2.9651e+01	11.8681	45.962790	0.000284	2.837702	0.961439	0.000114
 300	2.9750e+01	11.9146	46.071793	0.000274	2.736355	0.927102	0.000110
 301	2.9850e+01	11.9483	46.257501	0.000466	4.661938	1.579507	0.000187
 302	2.9950e+01	11.9852	46.414950	0.000395	3.952513	1.339148	0.000158
 303	3.0049e+01	12.0350	46.588546	0.000436	4.357899	1.476496	0.000174
 304	3.0148e+01	12.0590	46.713698	0.000314	3.141741	1.064451	0.000126
 305	3.0248e+01	12.0975	46.826737	0.000284	2.837702	0.961439	0.000114
 306	3.0348e+01	12.1440	46.931703	0.000264	2.635009	0.892765	0.000105
 307	3.0447e+01	12.1922	47.060891	0.000324	3.243087	1.098788	0.000130
 308	3.0547e+01	12.2307	47.198154	0.000345	3.445780	1.167462	0.000138
 309	3.0646e+01	12.2740	47.339454	0.000355	3.547127	1.201799	0.000142
 310	3.0745e+01	12.3141	47.436345	0.000243	2.432316	0.824091	0.000097
 311	3.0845e+01	12.3462	47.565533	0.000324	3.243087	1.098788	0.000130
 312	3.0945e+01	12.3847	47.690684	0.000314	3.141741	1.064451	0.000126
 313	3.1044e+01	12.4296	47.876393	0.000466	4.661938	1.579507	0.000187
 314	3.1143e+01	12.4649	48.001544	0.000314	3.141741	1.064451	0.000126
 315	3.1243e+01	12.4922	48.118621	0.000294	2.939048	0.995776	0.000118
 316	3.1343e+01	12.5419	48.255883	0.000345	3.445780	1.167462	0.000138
 317	3.1442e+01	12.5884	48.409295	0.000385	3.851166	1.304810	0.000154
 318	3.1541e+01	12.6349	48.473889	0.000162	1.621544	0.549394	0.000065
 319	3.1641e+01	12.6702	48.704006	0.000578	5.776750	1.957216	0.000231
 320	3.1741e+01	12.7023	48.800897	0.000243	2.432316	0.824091	0.000097
 321	3.1840e+01	12.7472	48.950271	0.000375	3.749820	1.270473	0.000150
 322	3.1939e+01	12.7873	49.091571	0.000355	3.547127	1.201799	0.000142
 323	3.2039e+01	12.8226	49.224796	0.000334	3.344434	1.133125	0.000134
 324	3.2139e+01	12.8659	49.341873	0.000294	2.939048	0.995776	0.000118
 325	3.2238e+01	12.9061	49.434727	0.000233	2.330969	0.789754	0.000093
 326	3.2337e+01	12.9397	49.584101	0.000375	3.749820	1.270473	0.000150
 327	3.2437e+01	12.9782	49.729438	0.000365	3.648473	1.236136	0.000146
 328	3.2536e+01	13.0151	49.830366	0.000253	2.533662	0.858428	0.000101
 329	3.2636e+01	13.0649	49.955518	0.000314	3.141741	1.064451	0.000126
 330	3.2736e+01	13.0954	50.100855	0.000365	3.648473	1.236136	0.000146
 331	3.2835e+01	13.1435	50.213894	0.000284	2.837702	0.961439	0.000114
 332	3.2934e+01	13.1788	50.363268	0.000375	3.749820	1.270473	0.000150
 333	3.3034e+01	13.2221	50.532828	0.000426	4.256552	1.442159	0.000170
 334	3.3133e+01	13.2590	50.637794	0.000264	2.635009	0.892765	0.000105
 335	3.3233e+01	13.2911	50.730648	0.000233	2.330969	0.789754	0.000093
 336	3.3333e+01	13.3424	50.851762	0.000304	3.040395	1.030114	0.000122
 337	3.3432e+01	13.3825	51.021321	0.000426	4.256552	1.442159	0.000170
 338	3.3532e+01	13.4194	51.194918	0.000436	4.357899	1.476496	0.000174
 339	3.3631e+01	13.4579	51.348329	0.000385	3.851166	1.304810	0.000154
 340	3.3730e+01	13.4996	51.477518	0.000324	3.243087	1.098788	0.000130
 341	3.3830e+01	13.5397	51.550186	0.000182	1.824237	0.618068	0.000073
 342	3.3929e+01	13.5862	51.655152	0.000264	2.635009	0.892765	0.000105
 343	3.4029e+01	13.6119	51.808563	0.000385	3.851166	1.304810	0.000154
 344	3.4129e+01	13.6633	51.921603	0.000284	2.837702	0.961439	0.000114
 345	3.4228e+01	13.6953	52.026568	0.000264	2.635009	0.892765	0.000105
 346	3.4328e+01	13.7370	52.196128	0.000426	4.256552	1.442159	0.000170
 347	3.4427e+01	13.7820	52.341465	0.000365	3.648473	1.236136	0.000146
 348	3.4526e+01	13.8140	52.410096	0.000172	1.722890	0.583731	0.000069
 349	3.4626e+01	13.8574	52.559470	0.000375	3.749820	1.270473	0.000150
 350	3.4725e+01	13.8975	52.708844	0.000375	3.749820	1.270473	0.000150
 351	3.4825e+01	13.9376	52.846107	0.000345	3.445780	1.167462	0.000138
 352	3.4925e+01	13.9761	52.938961	0.000233	2.330969	0.789754	0.000093
 353	3.5024e+01	14.0210	53.112558	0.000436	4.357899	1.476496	0.000174
 354	3.5123e+01	14.0483	53.233672	0.000304	3.040395	1.030114	0.000122
 355	3.5223e+01	14.1012	53.399194	0.000416	4.155206	1.407822	0.000166
 356	3.5322e+01	14.1365	53.508197	0.000274	2.736355	0.927102	0.000110
 357	3.5422e+01	14.1702	53.637385	0.000324	3.243087	1.098788	0.000130
 358	3.5522e+01	14.2135	53.758499	0.000304	3.040395	1.030114	0.000122
 359	3.5621e+01	14.2632	53.907874	0.000375	3.749820	1.270473	0.000150
 360	3.5721e+01	14.3001	53.996690	0.000223	2.229623	0.755417	0.000089
 361	3.5820e+01	14.3402	54.129916	0.000334	3.344434	1.133125	0.000134
 362	3.5919e+01	14.3691	54.242956	0.000284	2.837702	0.961439	0.000114
 363	3.6019e+01	14.4188	54.351958	0.000274	2.736355	0.927102	0.000110
 364	3.6118e+01	14.4606	54.481147	0.000324	3.243087	1.098788	0.000130
 365	3.6218e+01	14.4942	54.594187	0.000284	2.837702	0.961439	0.000114
 366	3.6318e+01	14.5456	54.719338	0.000314	3.141741	1.064451	0.000126
 367	3.6417e+01	14.5745	54.836415	0.000294	2.939048	0.995776	0.000118
 368	3.6517e+01	14.6194	54.937343	0.000253	2.533662	0.858428	0.000101
 369	3.6616e+01	14.6563	55.082680	0.000365	3.648473	1.236136	0.000146
 370	3.6715e+01	14.6884	55.207831	0.000314	3.141741	1.064451	0.000126
 371	3.6815e+01	14.7317	55.405651	0.000497	4.965978	1.682519	0.000199
 372	3.6914e+01	14.7814	55.555025	0.000375	3.749820	1.270473	0.000150
 373	3.7014e+01	14.8103	55.635768	0.000203	2.026930	0.686742	0.000081
 374	3.7114e+01	14.8536	55.809364	0.000436	4.357899	1.476496	0.000174
 375	3.7213e+01	14.8889	55.914330	0.000264	2.635009	0.892765	0.000105
 376	3.7313e+01	14.9290	56.011221	0.000243	2.432316	0.824091	0.000097
 377	3.7412e+01	14.9787	56.172707	0.000405	4.053859	1.373485	0.000162
 378	3.7511e+01	15.0156	56.273635	0.000253	2.533662	0.858428	0.000101
 379	3.7611e+01	15.0557	56.370526	0.000243	2.432316	0.824091	0.000097
 380	3.7711e+01	15.0894	56.483566	0.000284	2.837702	0.961439	0.000114
 381	3.7810e+01	15.1311	56.620829	0.000345	3.445780	1.167462	0.000138
 382	3.7910e+01	15.1728	56.701571	0.000203	2.026930	0.686742	0.000081
 383	3.8009e+01	15.2097	56.879205	0.000446	4.459245	1.510833	0.000179
 384	3.8108e+01	15.2546	56.968022	0.000223	2.229623	0.755417	0.000089
 385	3.8208e+01	15.2915	57.064914	0.000243	2.432316	0.824091	0.000097
 386	3.8307e+01	15.3300	57.206213	0.000355	3.547127	1.201799	0.000142
 387	3.8407e+01	15.3782	57.351550	0.000365	3.648473	1.236136	0.000146
 388	3.8507e+01	15.4103	57.500924	0.000375	3.749820	1.270473	0.000150
 389	3.8606e+01	15.4520	57.646261	0.000365	3.648473	1.236136	0.000146
 390	3.8706e+01	15.4953	57.779487	0.000334	3.344434	1.133125	0.000134
 391	3.8805e+01	15.5386	57.920786	0.000355	3.547127	1.201799	0.000142
 392	3.8904e+01	15.5723	58.066123	0.000365	3.648473	1.236136	0.000146
 393	3.9004e+01	15.6076	58.215497	0.000375	3.749820	1.270473	0.000150
 394	3.9103e+01	15.6525	58.300277	0.000213	2.128276	0.721079	0.000085
 395	3.9203e+01	15.6926	58.433503	0.000334	3.344434	1.133125	0.000134
 396	3.9303e+01	15.7391	58.554617	0.000304	3.040395	1.030114	0.000122
 397	3.9402e+01	15.7760	58.663619	0.000274	2.736355	0.927102	0.000110
 398	3.9502e+01	15.8097	58.772622	0.000274	2.736355	0.927102	0.000110
 399	3.9601e+01	15.8643	58.889699	0.000294	2.939048	0.995776	0.000118
 400	3.9700e+01	15.8851	58.994665	0.000264	2.635009	0.892765	0.000105
 401	3.9800e+01	15.9332	59.144039	0.000375	3.749820	1.270473	0.000150
 402	3.9900e+01	15.9669	59.232856	0.000223	2.229623	0.755417	0.000089
 403	3.9999e+01	16.0118	59.362044	0.000324	3.243087	1.098788	0.000130
 404	4.0099e+01	16.0487	59.503344	0.000355	3.547127	1.201799	0.000142
 405	4.0198e+01	16.0856	59.604272	0.000253	2.533662	0.858428	0.000101
 406	4.0297e+01	16.1274	59.741535	0.000345	3.445780	1.167462	0.000138
 407	4.0397e+01	16.1691	59.866686	0.000314	3.141741	1.064451	0.000126
 408	4.0496e+01	16.2076	60.040283	0.000436	4.357899	1.476496	0.000174
 409	4.0596e+01	16.2573	60.161397	0.000304	3.040395	1.030114	0.000122
 410	4.0696e+01	16.2894	60.266362	0.000264	2.635009	0.892765	0.000105
 411	4.0795e+01	16.3247	60.419773	0.000385	3.851166	1.304810	0.000154
 412	4.0895e+01	16.3664	60.500516	0.000203	2.026930	0.686742	0.000081
 413	4.0994e+01	16.3985	60.645853	0.000365	3.648473	1.236136	0.000146
 414	4.1093e+01	16.4514	60.799264	0.000385	3.851166	1.304810	0.000154
 415	4.1193e+01	16.4883	60.880007	0.000203	2.026930	0.686742	0.000081
 416	4.1292e+01	16.5316	60.948638	0.000172	1.722890	0.583731	0.000069
 417	4.1392e+01	16.5733	61.098012	0.000375	3.749820	1.270473	0.000150
 418	4.1492e+01	16.6054	61.182792	0.000213	2.128276	0.721079	0.000085
 419	4.1591e+01	16.6439	61.295832	0.000284	2.837702	0.961439	0.000114
 420	4.1691e+01	16.6953	61.425020	0.000324	3.243087	1.098788	0.000130
 421	4.1790e+01	16.7177	61.558246	0.000334	3.344434	1.133125	0.000134
 422	4.1889e+01	16.7739	61.659174	0.000253	2.533662	0.858428	0.000101
 423	4.1989e+01	16.8092	61.784325	0.000314	3.141741	1.064451	0.000126
 424	4.2089e+01	16.8412	61.949848	0.000416	4.155206	1.407822	0.000166
 425	4.2188e+01	16.8910	62.091148	0.000355	3.547127	1.201799	0.000142
 426	4.2288e+01	16.9263	62.232447	0.000355	3.547127	1.201799	0.000142
 427	4.2387e+01	16.9728	62.313190	0.000203	2.026930	0.686742	0.000081
 428	4.2486e+01	17.0097	62.418156	0.000264	2.635009	0.892765	0.000105
 429	4.2586e+01	17.0498	62.539270	0.000304	3.040395	1.030114	0.000122
 430	4.2685e+01	17.0835	62.684607	0.000365	3.648473	1.236136	0.000146
 431	4.2785e+01	17.1252	62.813795	0.000324	3.243087	1.098788	0.000130
 432	4.2885e+01	17.1685	62.938946	0.000314	3.141741	1.064451	0.000126
 433	4.2984e+01	17.2054	63.011615	0.000182	1.824237	0.618068	0.000073
 434	4.3084e+01	17.2551	63.124654	0.000284	2.837702	0.961439	0.000114
 435	4.3183e+01	17.2904	63.233657	0.000274	2.736355	0.927102	0.000110
 436	4.3282e+01	17.3305	63.330548	0.000243	2.432316	0.824091	0.000097
 437	4.3382e+01	17.3642	63.435514	0.000264	2.635009	0.892765	0.000105
 438	4.3481e+01	17.4139	63.552591	0.000294	2.939048	0.995776	0.000118
 439	4.3581e+01	17.4460	63.697928	0.000365	3.648473	1.236136	0.000146
 440	4.3681e+01	17.4829	63.806930	0.000274	2.736355	0.927102	0.000110
 441	4.3780e+01	17.5327	63.899784	0.000233	2.330969	0.789754	0.000093
 442	4.3880e+01	17.5663	64.057233	0.000395	3.952513	1.339148	0.000158
 443	4.3979e+01	17.5984	64.194495	0.000345	3.445780	1.167462	0.000138
 444	4.4078e+01	17.6466	64.343869	0.000375	3.749820	1.270473	0.000150
 445	4.4178e+01	17.6867	64.424612	0.000203	2.026930	0.686742	0.000081
 446	4.4278e+01	17.7123	64.545726	0.000304	3.040395	1.030114	0.000122
 447	4.4377e+01	17.7637	64.691063	0.000365	3.648473	1.236136	0.000146
 448	4.4477e+01	17.8134	64.783917	0.000233	2.330969	0.789754	0.000093
 449	4.4576e+01	17.8423	64.888883	0.000264	2.635009	0.892765	0.000105
 450	4.4675e+01	17.8824	65.046331	0.000395	3.952513	1.339148	0.000158
 451	4.4775e+01	17.9209	65.147259	0.000253	2.533662	0.858428	0.000101
 452	4.4874e+01	17.9722	65.232039	0.000213	2.128276	0.721079	0.000085
 453	4.4974e+01	17.9947	65.328931	0.000243	2.432316	0.824091	0.000097
 454	4.5074e+01	18.0396	65.429859	0.000253	2.533662	0.858428	0.000101
 455	4.5173e+01	18.0861	65.530787	0.000253	2.533662	0.858428	0.000101
 456	4.5273e+01	18.1246	65.704384	0.000436	4.357899	1.476496	0.000174
 457	4.5372e+01	18.1727	65.789164	0.000213	2.128276	0.721079	0.000085
 458	4.5471e+01	18.1984	65.894130	0.000264	2.635009	0.892765	0.000105
 459	4.5571e+01	18.2433	66.023318	0.000324	3.243087	1.098788	0.000130
 460	4.5670e+01	18.2690	66.160580	0.000345	3.445780	1.167462	0.000138
 461	4.5770e+01	18.3203	66.285732	0.000314	3.141741	1.064451	0.000126
 462	4.5870e+01	18.3604	66.374549	0.000223	2.229623	0.755417	0.000089
 463	4.5969e+01	18.4022	66.536034	0.000405	4.053859	1.373485	0.000162
 464	4.6069e+01	18.4391	66.600628	0.000162	1.621544	0.549394	0.000065
 465	4.6168e+01	18.4808	66.774225	0.000436	4.357899	1.476496	0.000174
 466	4.6267e+01	18.5257	66.915525	0.000355	3.547127	1.201799	0.000142
 467	4.6367e+01	18.5594	66.984156	0.000172	1.722890	0.583731	0.000069
 468	4.6467e+01	18.6043	67.089122	0.000264	2.635009	0.892765	0.000105
 469	4.6566e+01	18.6380	67.177939	0.000223	2.229623	0.755417	0.000089
 470	4.6666e+01	18.6829	67.290978	0.000284	2.837702	0.961439	0.000114
 471	4.6765e+01	18.7166	67.375758	0.000213	2.128276	0.721079	0.000085
 472	4.6864e+01	18.7599	67.428241	0.000132	1.317504	0.446383	0.000053
 473	4.6964e+01	18.7984	67.569541	0.000355	3.547127	1.201799	0.000142
 474	4.7063e+01	18.8433	67.674506	0.000264	2.635009	0.892765	0.000105
 475	4.7163e+01	18.8786	67.795620	0.000304	3.040395	1.030114	0.000122
 476	4.7263e+01	18.9203	67.896549	0.000253	2.533662	0.858428	0.000101
 477	4.7362e+01	18.9524	68.005552	0.000274	2.736355	0.927102	0.000110
 478	4.7462e+01	19.0053	68.150888	0.000365	3.648473	1.236136	0.000146
 479	4.7561e+01	19.0374	68.235668	0.000213	2.128276	0.721079	0.000085
 480	4.7660e+01	19.0775	68.389079	0.000385	3.851166	1.304810	0.000154
 481	4.7760e+01	19.1192	68.494045	0.000264	2.635009	0.892765	0.000105
 482	4.7859e+01	19.1674	68.643419	0.000375	3.749820	1.270473	0.000150
 483	4.7959e+01	19.1995	68.760496	0.000294	2.939048	0.995776	0.000118
 484	4.8059e+01	19.2364	68.825090	0.000162	1.621544	0.549394	0.000065
 485	4.8158e+01	19.2716	68.974464	0.000375	3.749820	1.270473	0.000150
 486	4.8258e+01	19.3166	69.043095	0.000172	1.722890	0.583731	0.000069
 487	4.8357e+01	19.3567	69.127875	0.000213	2.128276	0.721079	0.000085
 488	4.8456e+01	19.3952	69.277249	0.000375	3.749820	1.270473	0.000150
 489	4.8556e+01	19.4369	69.374141	0.000243	2.432316	0.824091	0.000097
 490	4.8656e+01	19.4754	69.466995	0.000233	2.330969	0.789754	0.000093
 491	4.8755e+01	19.5203	69.499292	0.000081	0.810772	0.274697	0.000032
 492	4.8855e+01	19.5572	69.632517	0.000334	3.344434	1.133125	0.000134
 493	4.8954e+01	19.5893	69.757668	0.000314	3.141741	1.064451	0.000126
 494	4.9053e+01	19.6294	69.850523	0.000233	2.330969	0.789754	0.000093
 495	4.9153e+01	19.6759	69.935302	0.000213	2.128276	0.721079	0.000085
 496	4.9252e+01	19.7144	70.108899	0.000436	4.357899	1.476496	0.000174
 497	4.9352e+01	19.7625	70.201753	0.000233	2.330969	0.789754	0.000093
 498	4.9452e+01	19.7930	70.351127	0.000375	3.749820	1.270473	0.000150
 499	4.9551e+01	19.8363	70.460130	0.000274	2.736355	0.927102	0.000110
 500	4.9651e+01	19.8764	70.557021	0.000243	2.432316	0.824091	0.000097
 501	4.9750e+01	19.9117	70.686210	0.000324	3.243087	1.098788	0.000130
 502	4.9849e+01	19.9567	70.791175	0.000264	2.635009	0.892765	0.000105
 503	4.9949e+01	19.9968	70.884029	0.000233	2.330969	0.789754	0.000093
 504	5.0048e+01	19.9470	70.775027	0.000274	2.736355	0.927102	-0.000110
 505	5.0148e+01	19.9166	70.714470	0.000152	1.520197	0.515057	-0.000061
 506	5.0248e+01	19.8764	70.649875	0.000162	1.621544	0.549394	-0.000065
 507	5.0347e+01	19.8315	70.504539	0.000365	3.648473	1.236136	-0.000146
 508	5.0447e+01	19.7994	70.403610	0.000253	2.533662	0.858428	-0.000101
 509	5.0546e+01	19.7513	70.318830	0.000213	2.128276	0.721079	-0.000085
 510	5.0645e+01	19.7144	70.205790	0.000284	2.837702	0.961439	-0.000114
 511	5.0745e+01	19.6759	70.133122	0.000182	1.824237	0.618068	-0.000073
 512	5.0844e+01	19.6326	70.060454	0.000182	1.824237	0.618068	-0.000073
 513	5.0944e+01	19.5941	69.931265	0.000324	3.243087	1.098788	-0.000130
 514	5.1044e+01	19.5652	69.842448	0.000223	2.229623	0.755417	-0.000089
 515	5.1143e+01	19.5123	69.769780	0.000182	1.824237	0.618068	-0.000073
 516	5.1242e+01	19.4786	69.705186	0.000162	1.621544	0.549394	-0.000065
 517	5.1342e+01	19.4433	69.640591	0.000162	1.621544	0.549394	-0.000065
 518	5.1441e+01	19.4000	69.523515	0.000294	2.939048	0.995776	-0.000118
 519	5.1541e+01	19.3535	69.438735	0.000213	2.128276	0.721079	-0.000085
 520	5.1641e+01	19.3134	69.353955	0.000213	2.128276	0.721079	-0.000085
 521	5.1740e+01	19.2781	69.244952	0.000274	2.736355	0.927102	-0.000110
 522	5.1840e+01	19.2428	69.164209	0.000203	2.026930	0.686742	-0.000081
 523	5.1939e+01	19.2043	69.059244	0.000264	2.635009	0.892765	-0.000105
 524	5.2038e+01	19.1577	68.962353	0.000243	2.432316	0.824091	-0.000097
 525	5.2138e+01	19.1257	68.808942	0.000385	3.851166	1.304810	-0.000154
 526	5.2237e+01	19.0791	68.728199	0.000203	2.026930	0.686742	-0.000081
 527	5.2337e+01	19.0390	68.651493	0.000193	1.925583	0.652405	-0.000077
 528	5.2437e+01	18.9909	68.534416	0.000294	2.939048	0.995776	-0.000118
 529	5.2536e+01	18.9652	68.429451	0.000264	2.635009	0.892765	-0.000105
 530	5.2636e+01	18.9235	68.320448	0.000274	2.736355	0.927102	-0.000110
 531	5.2735e+01	18.8770	68.235668	0.000213	2.128276	0.721079	-0.000085
 532	5.2834e+01	18.8401	68.118591	0.000294	2.939048	0.995776	-0.000118
 533	5.2934e+01	18.7936	68.058034	0.000152	1.520197	0.515057	-0.000061
 534	5.3033e+01	18.7503	67.957106	0.000253	2.533662	0.858428	-0.000101
 535	5.3133e+01	18.7150	67.900586	0.000142	1.418851	0.480720	-0.000057
 536	5.3233e+01	18.6701	67.815806	0.000213	2.128276	0.721079	-0.000085
 537	5.3332e+01	18.6300	67.686618	0.000324	3.243087	1.098788	-0.000130
 538	5.3431e+01	18.6059	67.622024	0.000162	1.621544	0.549394	-0.000065
 539	5.3531e+01	18.5690	67.496872	0.000314	3.141741	1.064451	-0.000126
 540	5.3630e+01	18.5177	67.424204	0.000182	1.824237	0.618068	-0.000073
 541	5.3730e+01	18.4904	67.331350	0.000233	2.330969	0.789754	-0.000093
 542	5.3830e+01	18.4439	67.169864	0.000405	4.053859	1.373485	-0.000162
 543	5.3929e+01	18.4054	67.024528	0.000365	3.648473	1.236136	-0.000146
 544	5.4029e+01	18.3637	66.939748	0.000213	2.128276	0.721079	-0.000085
 545	5.4128e+01	18.3155	66.822671	0.000294	2.939048	0.995776	-0.000118
 546	5.4227e+01	18.2802	66.701557	0.000304	3.040395	1.030114	-0.000122
 547	5.4327e+01	18.2530	66.645037	0.000142	1.418851	0.480720	-0.000057
 548	5.4426e+01	18.1984	66.544108	0.000253	2.533662	0.858428	-0.000101
 549	5.4526e+01	18.1615	66.439143	0.000264	2.635009	0.892765	-0.000105
 550	5.4626e+01	18.1214	66.354363	0.000213	2.128276	0.721079	-0.000085
 551	5.4725e+01	18.0813	66.249397	0.000264	2.635009	0.892765	-0.000105
 552	5.4825e+01	18.0492	66.172692	0.000193	1.925583	0.652405	-0.000077
 553	5.4924e+01	18.0043	66.091949	0.000203	2.026930	0.686742	-0.000081
 554	5.5023e+01	17.9674	65.999095	0.000233	2.330969	0.789754	-0.000093
 555	5.5123e+01	17.9193	65.934501	0.000162	1.621544	0.549394	-0.000065
 556	5.5222e+01	17.8776	65.825498	0.000274	2.736355	0.927102	-0.000110
 557	5.5322e+01	17.8423	65.716496	0.000274	2.736355	0.927102	-0.000110
 558	5.5422e+01	17.8150	65.639790	0.000193	1.925583	0.652405	-0.000077
 559	5.5521e+01	17.7573	65.518676	0.000304	3.040395	1.030114	-0.000122
 560	5.5620e+01	17.7236	65.421785	0.000243	2.432316	0.824091	-0.000097
 561	5.5720e+01	17.6851	65.300671	0.000304	3.040395	1.030114	-0.000122
 562	5.5819e+01	17.6385	65.191668	0.000274	2.736355	0.927102	-0.000110
 563	5.5919e+01	17.6065	65.086702	0.000264	2.635009	0.892765	-0.000105
 564	5.6019e+01	17.5680	64.957514	0.000324	3.243087	1.098788	-0.000130
 565	5.6118e+01	17.5198	64.848511	0.000274	2.736355	0.927102	-0.000110
 566	5.6218e+01	17.4813	64.727397	0.000304	3.040395	1.030114	-0.000122
 567	5.6317e+01	17.4380	64.630506	0.000243	2.432316	0.824091	-0.000097
 568	5.6416e+01	17.3979	64.529578	0.000253	2.533662	0.858428	-0.000101
 569	5.6516e+01	17.3626	64.456909	0.000182	1.824237	0.618068	-0.000073
 570	5.6615e+01	17.3289	64.351944	0.000264	2.635009	0.892765	-0.000105
 571	5.6715e+01	17.2888	64.251015	0.000253	2.533662	0.858428	-0.000101
 572	5.6815e+01	17.2471	64.158161	0.000233	2.330969	0.789754	-0.000093
 573	5.6914e+01	17.1990	64.085493	0.000182	1.824237	0.618068	-0.000073
 574	5.7014e+01	17.1749	64.012824	0.000182	1.824237	0.618068	-0.000073
 575	5.7113e+01	17.1252	63.875562	0.000345	3.445780	1.167462	-0.000138
 576	5.7212e+01	17.0883	63.815005	0.000152	1.520197	0.515057	-0.000061
 577	5.7312e+01	17.0450	63.706002	0.000274	2.736355	0.927102	-0.000110
 578	5.7411e+01	17.0129	63.592962	0.000284	2.837702	0.961439	-0.000114
 579	5.7511e+01	16.9648	63.508182	0.000213	2.128276	0.721079	-0.000085
 580	5.7611e+01	16.9214	63.403217	0.000264	2.635009	0.892765	-0.000105
 581	5.7710e+01	16.8894	63.225583	0.000446	4.459245	1.510833	-0.000179
 582	5.7809e+01	16.8493	63.120617	0.000264	2.635009	0.892765	-0.000105
 583	5.7909e+01	16.8059	63.007577	0.000284	2.837702	0.961439	-0.000114
 584	5.8008e+01	16.7739	62.910686	0.000243	2.432316	0.824091	-0.000097
 585	5.8108e+01	16.7370	62.777461	0.000334	3.344434	1.133125	-0.000134
 586	5.8208e+01	16.6936	62.676532	0.000253	2.533662	0.858428	-0.000101
 587	5.8307e+01	16.6471	62.628087	0.000122	1.216158	0.412045	-0.000049
 588	5.8407e+01	16.6054	62.506973	0.000304	3.040395	1.030114	-0.000122
 589	5.8506e+01	16.5685	62.410081	0.000243	2.432316	0.824091	-0.000097
 590	5.8605e+01	16.5300	62.317227	0.000233	2.330969	0.789754	-0.000093
 591	5.8705e+01	16.4915	62.236485	0.000203	2.026930	0.686742	-0.000081
 592	5.8804e+01	16.4498	62.119408	0.000294	2.939048	0.995776	-0.000118
 593	5.8904e+01	16.4081	62.010405	0.000274	2.736355	0.927102	-0.000110
 594	5.9004e+01	16.3664	61.897365	0.000284	2.837702	0.961439	-0.000114
 595	5.9103e+01	16.3343	61.820660	0.000193	1.925583	0.652405	-0.000077
 596	5.9203e+01	16.2958	61.691471	0.000324	3.243087	1.098788	-0.000130
 597	5.9302e+01	16.2493	61.610728	0.000203	2.026930	0.686742	-0.000081
 598	5.9401e+01	16.2108	61.433095	0.000446	4.459245	1.510833	-0.000179
 599	5.9501e+01	16.1755	61.299869	0.000334	3.344434	1.133125	-0.000134
 600	5.9600e+01	16.1306	61.227201	0.000182	1.824237	0.618068	-0.000073
 601	5.9700e+01	16.0921	61.081864	0.000365	3.648473	1.236136	-0.000146
 602	5.9800e+01	16.0552	61.009195	0.000182	1.824237	0.618068	-0.000073
 603	5.9899e+01	16.0070	60.892118	0.000294	2.939048	0.995776	-0.000118
 604	5.9998e+01	15.9717	60.791190	0.000253	2.533662	0.858428	-0.000101
 605	6.0098e+01	15.9300	60.678150	0.000284	2.837702	0.961439	-0.000114
 606	6.0197e+01	15.8835	60.565110	0.000284	2.837702	0.961439	-0.000114
 607	6.0297e+01	15.8546	60.504553	0.000152	1.520197	0.515057	-0.000061
 608	6.0397e+01	15.8081	60.391514	0.000284	2.837702	0.961439	-0.000114
 609	6.0496e+01	15.7728	60.310771	0.000203	2.026930	0.686742	-0.000081
 610	6.0596e+01	15.7231	60.181582	0.000324	3.243087	1.098788	-0.000130
 611	6.0695e+01	15.6910	60.088728	0.000233	2.330969	0.789754	-0.000093
 612	6.0794e+01	15.6477	59.959540	0.000324	3.243087	1.098788	-0.000130
 613	6.0894e+01	15.6172	59.874760	0.000213	2.128276	0.721079	-0.000085
 614	6.0993e+01	15.5723	59.741535	0.000334	3.344434	1.133125	-0.000134
 615	6.1093e+01	15.5258	59.620421	0.000304	3.040395	1.030114	-0.000122
 616	6.1193e+01	15.4905	59.515455	0.000264	2.635009	0.892765	-0.000105
 617	6.1292e+01	15.4520	59.382230	0.000334	3.344434	1.133125	-0.000134
 618	6.1392e+01	15.4135	59.285338	0.000243	2.432316	0.824091	-0.000097
 619	6.1491e+01	15.3734	59.111741	0.000436	4.357899	1.476496	-0.000174
 620	6.1590e+01	15.3349	59.039073	0.000182	1.824237	0.618068	-0.000073
 621	6.1690e+01	15.2980	58.938145	0.000253	2.533662	0.858428	-0.000101
 622	6.1789e+01	15.2563	58.817031	0.000304	3.040395	1.030114	-0.000122
 623	6.1889e+01	15.2161	58.732251	0.000213	2.128276	0.721079	-0.000085
 624	6.1989e+01	15.1760	58.639397	0.000233	2.330969	0.789754	-0.000093
 625	6.2088e+01	15.1343	58.542505	0.000243	2.432316	0.824091	-0.000097
 626	6.2188e+01	15.0878	58.405243	0.000345	3.445780	1.167462	-0.000138
 627	6.2287e+01	15.0525	58.316426	0.000223	2.229623	0.755417	-0.000089
 628	6.2386e+01	15.0140	58.211460	0.000264	2.635009	0.892765	-0.000105
 629	6.2486e+01	14.9675	58.114569	0.000243	2.432316	0.824091	-0.000097
 630	6.2586e+01	14.9402	57.989418	0.000314	3.141741	1.064451	-0.000126
 631	6.2685e+01	14.8921	57.856192	0.000334	3.344434	1.133125	-0.000134
 632	6.2785e+01	14.8616	57.755264	0.000253	2.533662	0.858428	-0.000101
 633	6.2884e+01	14.8103	57.618001	0.000345	3.445780	1.167462	-0.000138
 634	6.2983e+01	14.7862	57.484776	0.000334	3.344434	1.133125	-0.000134
 635	6.3083e+01	14.7269	57.363662	0.000304	3.040395	1.030114	-0.000122
 636	6.3182e+01	14.7044	57.286956	0.000193	1.925583	0.652405	-0.000077
 637	6.3282e+01	14.6563	57.117396	0.000426	4.256552	1.442159	-0.000170
 638	6.3382e+01	14.6274	56.984171	0.000334	3.344434	1.133125	-0.000134
 639	6.3481e+01	14.5729	56.903428	0.000203	2.026930	0.686742	-0.000081
 640	6.3581e+01	14.5343	56.822686	0.000203	2.026930	0.686742	-0.000081
 641	6.3680e+01	14.4991	56.685423	0.000345	3.445780	1.167462	-0.000138
 642	6.3779e+01	14.4573	56.604680	0.000203	2.026930	0.686742	-0.000081
 643	6.3879e+01	14.4140	56.491640	0.000284	2.837702	0.961439	-0.000114
 644	6.3978e+01	14.3755	56.346303	0.000365	3.648473	1.236136	-0.000146
 645	6.4078e+01	14.3290	56.241338	0.000264	2.635009	0.892765	-0.000105
 646	6.4177e+01	14.2969	56.108112	0.000334	3.344434	1.133125	-0.000134
 647	6.4277e+01	14.2536	56.011221	0.000243	2.432316	0.824091	-0.000097
 648	6.4376e+01	14.2135	55.894144	0.000294	2.939048	0.995776	-0.000118
 649	6.4476e+01	14.1734	55.764956	0.000324	3.243087	1.098788	-0.000130
 650	6.4576e+01	14.1381	55.655953	0.000274	2.736355	0.927102	-0.000110
 651	6.4675e+01	14.0900	55.518691	0.000345	3.445780	1.167462	-0.000138
 652	6.4775e+01	14.0563	55.328945	0.000476	4.763285	1.613845	-0.000191
 653	6.4874e+01	14.0242	55.260314	0.000172	1.722890	0.583731	-0.000069
 654	6.4974e+01	13.9793	55.098829	0.000405	4.053859	1.373485	-0.000162
 655	6.5073e+01	13.9344	55.038272	0.000152	1.520197	0.515057	-0.000061
 656	6.5172e+01	13.8959	54.953492	0.000213	2.128276	0.721079	-0.000085
 657	6.5272e+01	13.8558	54.808155	0.000365	3.648473	1.236136	-0.000146
 658	6.5371e+01	13.8205	54.666855	0.000355	3.547127	1.201799	-0.000142
 659	6.5471e+01	13.7691	54.557852	0.000274	2.736355	0.927102	-0.000110
 660	6.5570e+01	13.7386	54.469035	0.000223	2.229623	0.755417	-0.000089
 661	6.5670e+01	13.6985	54.331773	0.000345	3.445780	1.167462	-0.000138
 662	6.5769e+01	13.6584	54.234882	0.000243	2.432316	0.824091	-0.000097
 663	6.5869e+01	13.6199	54.121842	0.000284	2.837702	0.961439	-0.000114
 664	6.5969e+01	13.5830	54.008802	0.000284	2.837702	0.961439	-0.000114
 665	6.6068e+01	13.5397	53.855391	0.000385	3.851166	1.304810	-0.000154
 666	6.6168e+01	13.4948	53.782722	0.000182	1.824237	0.618068	-0.000073
 667	6.6267e+01	13.4563	53.613163	0.000426	4.256552	1.442159	-0.000170
 668	6.6367e+01	13.4162	53.463789	0.000375	3.749820	1.270473	-0.000150
 669	6.6466e+01	13.3825	53.362860	0.000253	2.533662	0.858428	-0.000101
 670	6.6566e+01	13.3376	53.189263	0.000436	4.357899	1.476496	-0.000174
 671	6.6665e+01	13.3055	53.108521	0.000203	2.026930	0.686742	-0.000081
 672	6.6764e+01	13.2638	52.971258	0.000345	3.445780	1.167462	-0.000138
 673	6.6864e+01	13.2237	52.866292	0.000264	2.635009	0.892765	-0.000105
 674	6.6963e+01	13.1756	52.817847	0.000122	1.216158	0.412045	-0.000049
 675	6.7063e+01	13.1499	52.672510	0.000365	3.648473	1.236136	-0.000146
 676	6.7162e+01	13.1034	52.551396	0.000304	3.040395	1.030114	-0.000122
 677	6.7262e+01	13.0536	52.426245	0.000314	3.141741	1.064451	-0.000126
 678	6.7362e+01	13.0248	52.313205	0.000284	2.837702	0.961439	-0.000114
 679	6.7461e+01	12.9750	52.171905	0.000355	3.547127	1.201799	-0.000142
 680	6.7561e+01	12.9430	52.107311	0.000162	1.621544	0.549394	-0.000065
 681	6.7660e+01	12.9125	51.961974	0.000365	3.648473	1.236136	-0.000146
 682	6.7760e+01	12.8627	51.824711	0.000345	3.445780	1.167462	-0.000138
 683	6.7859e+01	12.8226	51.703597	0.000304	3.040395	1.030114	-0.000122
 684	6.7959e+01	12.7905	51.566335	0.000345	3.445780	1.167462	-0.000138
 685	6.8058e+01	12.7537	51.449258	0.000294	2.939048	0.995776	-0.000118
 686	6.8157e+01	12.7103	51.291810	0.000395	3.952513	1.339148	-0.000158
 687	6.8257e+01	12.6670	51.182807	0.000274	2.736355	0.927102	-0.000110
 688	6.8356e+01	12.6237	51.041507	0.000355	3.547127	1.201799	-0.000142
 689	6.8456e+01	12.5868	50.916356	0.000314	3.141741	1.064451	-0.000126
 690	6.8555e+01	12.5515	50.811390	0.000264	2.635009	0.892765	-0.000105
 691	6.8655e+01	12.5018	50.706425	0.000264	2.635009	0.892765	-0.000105
 692	6.8754e+01	12.4617	50.625682	0.000203	2.026930	0.686742	-0.000081
 693	6.8854e+01	12.4232	50.508605	0.000294	2.939048	0.995776	-0.000118
 694	6.8954e+01	12.3847	50.379417	0.000324	3.243087	1.098788	-0.000130
 695	6.9053e+01	12.3430	50.250229	0.000324	3.243087	1.098788	-0.000130
 696	6.9153e+01	12.3061	50.117003	0.000334	3.344434	1.133125	-0.000134
 697	6.9252e+01	12.2708	50.036260	0.000203	2.026930	0.686742	-0.000081
 698	6.9352e+01	12.2307	49.862664	0.000436	4.357899	1.476496	-0.000174
 699	6.9451e+01	12.1874	49.737512	0.000314	3.141741	1.064451	-0.000126
 700	6.9550e+01	12.1424	49.620435	0.000294	2.939048	0.995776	-0.000118
 701	6.9650e+01	12.1055	49.499321	0.000304	3.040395	1.030114	-0.000122
 702	6.9749e+01	12.0783	49.329762	0.000426	4.256552	1.442159	-0.000170
 703	6.9849e+01	12.0317	49.204610	0.000314	3.141741	1.064451	-0.000126
 704	6.9948e+01	11.9932	49.047162	0.000395	3.952513	1.339148	-0.000158
 705	7.0048e+01	11.9483	48.909899	0.000345	3.445780	1.167462	-0.000138
 706	7.0147e+01	11.9082	48.808971	0.000253	2.533662	0.858428	-0.000101
 707	7.0247e+01	11.8681	48.667671	0.000355	3.547127	1.201799	-0.000142
 708	7.0347e+01	11.8248	48.538483	0.000324	3.243087	1.098788	-0.000130
 709	7.0446e+01	11.7815	48.425443	0.000284	2.837702	0.961439	-0.000114
 710	7.0546e+01	11.7542	48.304329	0.000304	3.040395	1.030114	-0.000122
 711	7.0645e+01	11.7141	48.235698	0.000172	1.722890	0.583731	-0.000069
 712	7.0745e+01	11.6708	48.054027	0.000456	4.560592	1.545170	-0.000183
 713	7.0844e+01	11.6291	47.985395	0.000172	1.722890	0.583731	-0.000069
 714	7.0944e+01	11.5874	47.860244	0.000314	3.141741	1.064451	-0.000126
 715	7.1043e+01	11.5537	47.731056	0.000324	3.243087	1.098788	-0.000130
 716	7.1142e+01	11.5056	47.577645	0.000385	3.851166	1.304810	-0.000154
 717	7.1242e+01	11.4703	47.460568	0.000294	2.939048	0.995776	-0.000118
 718	7.1341e+01	11.4286	47.327342	0.000334	3.344434	1.133125	-0.000134
 719	7.1441e+01	11.3901	47.202191	0.000314	3.141741	1.064451	-0.000126
 720	7.1540e+01	11.3532	47.032631	0.000426	4.256552	1.442159	-0.000170
 721	7.1640e+01	11.3147	46.895369	0.000345	3.445780	1.167462	-0.000138
 722	7.1740e+01	11.2729	46.782329	0.000284	2.837702	0.961439	-0.000114
 723	7.1839e+01	11.2296	46.632955	0.000375	3.749820	1.270473	-0.000150
 724	7.1939e+01	11.1943	46.540101	0.000233	2.330969	0.789754	-0.000093
 725	7.2038e+01	11.1462	46.402838	0.000345	3.445780	1.167462	-0.000138
 726	7.2138e+01	11.1221	46.305947	0.000243	2.432316	0.824091	-0.000097
 727	7.2237e+01	11.0724	46.184833	0.000304	3.040395	1.030114	-0.000122
 728	7.2337e+01	11.0275	46.083904	0.000253	2.533662	0.858428	-0.000101
 729	7.2436e+01	10.9954	45.950679	0.000334	3.344434	1.133125	-0.000134
 730	7.2535e+01	10.9361	45.797268	0.000385	3.851166	1.304810	-0.000154
 731	7.2635e+01	10.9120	45.704414	0.000233	2.330969	0.789754	-0.000093
 732	7.2734e+01	10.8767	45.538891	0.000416	4.155206	1.407822	-0.000166
 733	7.2834e+01	10.8318	45.462186	0.000193	1.925583	0.652405	-0.000077
 734	7.2933e+01	10.7965	45.316849	0.000365	3.648473	1.236136	-0.000146
 735	7.3033e+01	10.7500	45.179586	0.000345	3.445780	1.167462	-0.000138
 736	7.3132e+01	10.7099	45.038286	0.000355	3.547127	1.201799	-0.000142
 737	7.3232e+01	10.6762	44.892949	0.000365	3.648473	1.236136	-0.000146
 738	7.3332e+01	10.6457	44.751650	0.000355	3.547127	1.201799	-0.000142
 739	7.3431e+01	10.5831	44.610350	0.000355	3.547127	1.201799	-0.000142
 740	7.3531e+01	10.5526	44.485199	0.000314	3.141741	1.064451	-0.000126
 741	7.3630e+01	10.5109	44.372159	0.000284	2.837702	0.961439	-0.000114
 742	7.3730e+01	10.4756	44.226822	0.000365	3.648473	1.236136	-0.000146
 743	7.3829e+01	10.4403	44.089559	0.000345	3.445780	1.167462	-0.000138
 744	7.3928e+01	10.3938	43.988631	0.000253	2.533662	0.858428	-0.000101
 745	7.4028e+01	10.3505	43.903851	0.000213	2.128276	0.721079	-0.000085
 746	7.4127e+01	10.3216	43.734291	0.000426	4.256552	1.442159	-0.000170
 747	7.4227e+01	10.2767	43.605103	0.000324	3.243087	1.098788	-0.000130
 748	7.4326e+01	10.2414	43.496100	0.000274	2.736355	0.927102	-0.000110
 749	7.4426e+01	10.1965	43.391135	0.000264	2.635009	0.892765	-0.000105
 750	7.4525e+01	10.1532	43.237724	0.000385	3.851166	1.304810	-0.000154
 751	7.4625e+01	10.1195	43.084313	0.000385	3.851166	1.304810	-0.000154
 752	7.4725e+01	10.0698	42.971273	0.000284	2.837702	0.961439	-0.000114
 753	7.4824e+01	10.0457	42.793639	0.000446	4.459245	1.510833	-0.000179
 754	7.4924e+01	9.9896	42.656376	0.000345	3.445780	1.167462	-0.000138
 755	7.5023e+01	9.9575	42.523151	0.000334	3.344434	1.133125	-0.000134
 756	7.5123e+01	9.9254	42.365702	0.000395	3.952513	1.339148	-0.000158
 757	7.5222e+01	9.8676	42.228440	0.000345	3.445780	1.167462	-0.000138
 758	7.5322e+01	9.8404	42.123474	0.000264	2.635009	0.892765	-0.000105
 759	7.5421e+01	9.7970	42.002360	0.000304	3.040395	1.030114	-0.000122
 760	7.5520e+01	9.7569	41.852986	0.000375	3.749820	1.270473	-0.000150
 761	7.5620e+01	9.7217	41.780318	0.000182	1.824237	0.618068	-0.000073
 762	7.5719e+01	9.6783	41.643055	0.000345	3.445780	1.167462	-0.000138
 763	7.5819e+01	9.6350	41.477533	0.000416	4.155206	1.407822	-0.000166
 764	7.5918e+01	9.5933	41.360456	0.000294	2.939048	0.995776	-0.000118
 765	7.6018e+01	9.5548	41.243379	0.000294	2.939048	0.995776	-0.000118
 766	7.6118e+01	9.5163	41.069782	0.000436	4.357899	1.476496	-0.000174
 767	7.6217e+01	9.4762	40.932519	0.000345	3.445780	1.167462	-0.000138
 768	7.6317e+01	9.4393	40.803331	0.000324	3.243087	1.098788	-0.000130
 769	7.6416e+01	9.3992	40.653957	0.000375	3.749820	1.270473	-0.000150
 770	7.6516e+01	9.3527	40.452100	0.000507	5.067324	1.716856	-0.000203
 771	7.6615e+01	9.3126	40.330986	0.000304	3.040395	1.030114	-0.000122
 772	7.6715e+01	9.2821	40.165463	0.000416	4.155206	1.407822	-0.000166
 773	7.6814e+01	9.2484	40.080684	0.000213	2.128276	0.721079	-0.000085
 774	7.6913e+01	9.1939	39.907087	0.000436	4.357899	1.476496	-0.000174
 775	7.7013e+01	9.1586	39.753676	0.000385	3.851166	1.304810	-0.000154
 776	7.7112e+01	9.1185	39.656784	0.000243	2.432316	0.824091	-0.000097
 777	7.7212e+01	9.0864	39.555856	0.000253	2.533662	0.858428	-0.000101
 778	7.7311e+01	9.0399	39.410519	0.000365	3.648473	1.236136	-0.000146
 779	7.7411e+01	8.9981	39.301516	0.000274	2.736355	0.927102	-0.000110
 780	7.7510e+01	8.9548	39.152142	0.000375	3.749820	1.270473	-0.000150
 781	7.7610e+01	8.9163	39.006806	0.000365	3.648473	1.236136	-0.000146
 782	7.7710e+01	8.8746	38.897803	0.000274	2.736355	0.927102	-0.000110
 783	7.7809e+01	8.8377	38.764577	0.000334	3.344434	1.133125	-0.000134
 784	7.7909e+01	8.8104	38.643463	0.000304	3.040395	1.030114	-0.000122
 785	7.8008e+01	8.7687	38.461792	0.000456	4.560592	1.545170	-0.000183
 786	7.8108e+01	8.7158	38.296270	0.000416	4.155206	1.407822	-0.000166
 787	7.8207e+01	8.6805	38.154970	0.000355	3.547127	1.201799	-0.000142
 788	7.8306e+01	8.6404	37.993484	0.000405	4.053859	1.373485	-0.000162
 789	7.8406e+01	8.5955	37.860259	0.000334	3.344434	1.133125	-0.000134
 790	7.8505e+01	8.5602	37.706848	0.000385	3.851166	1.304810	-0.000154
 791	7.8605e+01	8.5217	37.601882	0.000264	2.635009	0.892765	-0.000105
 792	7.8704e+01	8.4768	37.440397	0.000405	4.053859	1.373485	-0.000162
 793	7.8804e+01	8.4383	37.307171	0.000334	3.344434	1.133125	-0.000134
 794	7.8903e+01	8.4062	37.161834	0.000365	3.648473	1.236136	-0.000146
 795	7.9003e+01	8.3613	37.068980	0.000233	2.330969	0.789754	-0.000093
 796	7.9103e+01	8.3212	36.939792	0.000324	3.243087	1.098788	-0.000130
 797	7.9202e+01	8.2843	36.794455	0.000365	3.648473	1.236136	-0.000146
 798	7.9302e+01	8.2409	36.665267	0.000324	3.243087	1.098788	-0.000130
 799	7.9401e+01	8.2040	36.475521	0.000476	4.763285	1.613845	-0.000191
 800	7.9501e+01	8.1575	36.342296	0.000334	3.344434	1.133125	-0.000134
 801	7.9600e+01	8.1254	36.172736	0.000426	4.256552	1.442159	-0.000170
 802	7.9700e+01	8.0805	36.019325	0.000385	3.851166	1.304810	-0.000154
 803	7.9799e+01	8.0372	35.869951	0.000375	3.749820	1.270473	-0.000150
 804	7.9898e+01	8.0083	35.708466	0.000405	4.053859	1.373485	-0.000162
 805	7.9998e+01	7.9586	35.567166	0.000355	3.547127	1.201799	-0.000142
 806	8.0097e+01	7.9217	35.413755	0.000385	3.851166	1.304810	-0.000154
 807	8.0197e+01	7.8832	35.300715	0.000284	2.837702	0.961439	-0.000114
 808	8.0296e+01	7.8431	35.123081	0.000446	4.459245	1.510833	-0.000179
 809	8.0396e+01	7.8062	34.997930	0.000314	3.141741	1.064451	-0.000126
 810	8.0496e+01	7.7677	34.848556	0.000375	3.749820	1.270473	-0.000150
 811	8.0595e+01	7.7212	34.670922	0.000446	4.459245	1.510833	-0.000179
 812	8.0695e+01	7.6827	34.569993	0.000253	2.533662	0.858428	-0.000101
 813	8.0794e+01	7.6458	34.420619	0.000375	3.749820	1.270473	-0.000150
 814	8.0894e+01	7.5960	34.271245	0.000375	3.749820	1.270473	-0.000150
 815	8.0993e+01	7.5640	34.121871	0.000375	3.749820	1.270473	-0.000150
 816	8.1093e+01	7.5271	34.012869	0.000274	2.736355	0.927102	-0.000110
 817	8.1192e+01	7.4854	33.819086	0.000486	4.864631	1.648182	-0.000195
 818	8.1291e+01	7.4420	33.653564	0.000416	4.155206	1.407822	-0.000166
 819	8.1391e+01	7.4116	33.536487	0.000294	2.939048	0.995776	-0.000118
 820	8.1490e+01	7.3586	33.342704	0.000486	4.864631	1.648182	-0.000195
 821	8.1590e+01	7.3313	33.205441	0.000345	3.445780	1.167462	-0.000138
 822	8.1689e+01	7.2896	33.023770	0.000456	4.560592	1.545170	-0.000183
 823	8.1789e+01	7.2479	32.898619	0.000314	3.141741	1.064451	-0.000126
 824	8.1888e+01	7.2062	32.733097	0.000416	4.155206	1.407822	-0.000166
 825	8.1988e+01	7.1597	32.579685	0.000385	3.851166	1.304810	-0.000154
 826	8.2088e+01	7.1292	32.398014	0.000456	4.560592	1.545170	-0.000183
 827	8.2187e+01	7.0859	32.313234	0.000213	2.128276	0.721079	-0.000085
 828	8.2287e+01	7.0538	32.135600	0.000446	4.459245	1.510833	-0.000179
 829	8.2386e+01	7.0025	31.998338	0.000345	3.445780	1.167462	-0.000138
 830	8.2486e+01	6.9592	31.824741	0.000436	4.357899	1.476496	-0.000174
 831	8.2585e+01	6.9207	31.723813	0.000253	2.533662	0.858428	-0.000101
 832	8.2684e+01	6.8918	31.574439	0.000375	3.749820	1.270473	-0.000150
 833	8.2784e+01	6.8388	31.416990	0.000395	3.952513	1.339148	-0.000158
 834	8.2883e+01	6.8084	31.295876	0.000304	3.040395	1.030114	-0.000122
 835	8.2983e+01	6.7554	31.146502	0.000375	3.749820	1.270473	-0.000150
 836	8.3082e+01	6.7346	31.009240	0.000345	3.445780	1.167462	-0.000138
 837	8.3182e+01	6.6897	30.831606	0.000446	4.459245	1.510833	-0.000179
 838	8.3281e+01	6.6431	30.686269	0.000365	3.648473	1.236136	-0.000146
 839	8.3381e+01	6.6110	30.508635	0.000446	4.459245	1.510833	-0.000179
 840	8.3481e+01	6.5597	30.351186	0.000395	3.952513	1.339148	-0.000158
 841	8.3580e+01	6.5244	30.129144	0.000557	5.574057	1.888542	-0.000223
 842	8.3680e+01	6.4891	29.991881	0.000345	3.445780	1.167462	-0.000138
 843	8.3779e+01	6.4522	29.842507	0.000375	3.749820	1.270473	-0.000150
 844	8.3879e+01	6.4121	29.697170	0.000365	3.648473	1.236136	-0.000146
 845	8.3978e+01	6.3672	29.527611	0.000426	4.256552	1.442159	-0.000170
 846	8.4078e+01	6.3239	29.386311	0.000355	3.547127	1.201799	-0.000142
 847	8.4177e+01	6.2886	29.281346	0.000264	2.635009	0.892765	-0.000105
 848	8.4276e+01	6.2517	29.083526	0.000497	4.965978	1.682519	-0.000199
 849	8.4376e+01	6.2100	28.958375	0.000314	3.141741	1.064451	-0.000126
 850	8.4475e+01	6.1747	28.813038	0.000365	3.648473	1.236136	-0.000146
 851	8.4575e+01	6.1250	28.663664	0.000375	3.749820	1.270473	-0.000150
 852	8.4674e+01	6.0929	28.518327	0.000365	3.648473	1.236136	-0.000146
 853	8.4774e+01	6.0496	28.352804	0.000416	4.155206	1.407822	-0.000166
 854	8.4874e+01	6.0079	28.187282	0.000416	4.155206	1.407822	-0.000166
 855	8.4973e+01	5.9677	28.045982	0.000355	3.547127	1.201799	-0.000142
 856	8.5073e+01	5.9276	27.916794	0.000324	3.243087	1.098788	-0.000130
 857	8.5172e+01	5.8956	27.751271	0.000416	4.155206	1.407822	-0.000166
 858	8.5272e+01	5.8506	27.545377	0.000517	5.168671	1.751193	-0.000207
 859	8.5371e+01	5.8186	27.363706	0.000456	4.560592	1.545170	-0.000183
 860	8.5471e+01	5.7704	27.226443	0.000345	3.445780	1.167462	-0.000138
 861	8.5570e+01	5.7351	27.016512	0.000527	5.270017	1.785530	-0.000211
 862	8.5669e+01	5.6806	26.879250	0.000345	3.445780	1.167462	-0.000138
 863	8.5769e+01	5.6533	26.766210	0.000284	2.837702	0.961439	-0.000114
 864	8.5868e+01	5.6148	26.564353	0.000507	5.067324	1.716856	-0.000203
 865	8.5968e+01	5.5683	26.467462	0.000243	2.432316	0.824091	-0.000097
 866	8.6067e+01	5.5314	26.310014	0.000395	3.952513	1.339148	-0.000158
 867	8.6167e+01	5.4929	26.148528	0.000405	4.053859	1.373485	-0.000162
 868	8.6266e+01	5.4576	26.003191	0.000365	3.648473	1.236136	-0.000146
 869	8.6366e+01	5.4175	25.865929	0.000345	3.445780	1.167462	-0.000138
 870	8.6466e+01	5.3742	25.692332	0.000436	4.357899	1.476496	-0.000174
 871	8.6565e+01	5.3357	25.514698	0.000446	4.459245	1.510833	-0.000179
 872	8.6665e+01	5.2876	25.320915	0.000486	4.864631	1.648182	-0.000195
 873	8.6764e+01	5.2571	25.211913	0.000274	2.736355	0.927102	-0.000110
 874	8.6864e+01	5.2154	25.014093	0.000497	4.965978	1.682519	-0.000199
 875	8.6963e+01	5.1769	24.828385	0.000466	4.661938	1.579507	-0.000187
 876	8.7063e+01	5.1335	24.666899	0.000405	4.053859	1.373485	-0.000162
 877	8.7162e+01	5.1031	24.489265	0.000446	4.459245	1.510833	-0.000179
 878	8.7261e+01	5.0614	24.347966	0.000355	3.547127	1.201799	-0.000142
 879	8.7361e+01	5.0116	24.166295	0.000456	4.560592	1.545170	-0.000183
 880	8.7460e+01	4.9763	24.016921	0.000375	3.749820	1.270473	-0.000150
 881	8.7560e+01	4.9346	23.859472	0.000395	3.952513	1.339148	-0.000158
 882	8.7659e+01	4.8993	23.730284	0.000324	3.243087	1.098788	-0.000130
 883	8.7759e+01	4.8528	23.552650	0.000446	4.459245	1.510833	-0.000179
 884	8.7859e+01	4.8223	23.407313	0.000365	3.648473	1.236136	-0.000146
 885	8.7958e+01	4.7742	23.266013	0.000355	3.547127	1.201799	-0.000142
 886	8.8058e+01	4.7357	23.080305	0.000466	4.661938	1.579507	-0.000187
 887	8.8157e+01	4.6988	22.926894	0.000385	3.851166	1.304810	-0.000154
 888	8.8257e+01	4.6507	22.753297	0.000436	4.357899	1.476496	-0.000174
 889	8.8356e+01	4.6122	22.607960	0.000365	3.648473	1.236136	-0.000146
 890	8.8456e+01	4.5737	22.438400	0.000426	4.256552	1.442159	-0.000170
 891	8.8555e+01	4.5336	22.317286	0.000304	3.040395	1.030114	-0.000122
 892	8.8654e+01	4.4983	22.127541	0.000476	4.763285	1.613845	-0.000191
 893	8.8754e+01	4.4582	21.974130	0.000385	3.851166	1.304810	-0.000154
 894	8.8853e+01	4.4148	21.756124	0.000547	5.472710	1.854204	-0.000219
 895	8.8953e+01	4.3731	21.586565	0.000426	4.256552	1.442159	-0.000170
 896	8.9052e+01	4.3378	21.433154	0.000385	3.851166	1.304810	-0.000154
 897	8.9152e+01	4.2961	21.287817	0.000365	3.648473	1.236136	-0.000146
 898	8.9251e+01	4.2608	21.146517	0.000355	3.547127	1.201799	-0.000142
 899	8.9351e+01	4.2207	20.964846	0.000456	4.560592	1.545170	-0.000183
 900	8.9451e+01	4.1774	20.859880	0.000264	2.635009	0.892765	-0.000105
 901	8.9550e+01	4.1309	20.670135	0.000476	4.763285	1.613845	-0.000191
 902	8.9650e+01	4.1004	20.468278	0.000507	5.067324	1.716856	-0.000203
 903	8.9749e+01	4.0571	20.318904	0.000375	3.749820	1.270473	-0.000150
 904	8.9849e+01	4.0154	20.181642	0.000345	3.445780	1.167462	-0.000138
 905	8.9948e+01	3.9753	19.991896	0.000476	4.763285	1.613845	-0.000191
 906	9.0047e+01	3.9304	19.822336	0.000426	4.256552	1.442159	-0.000170
 907	9.0147e+01	3.8983	19.672962	0.000375	3.749820	1.270473	-0.000150
 908	9.0246e+01	3.8518	19.454957	0.000547	5.472710	1.854204	-0.000219
 909	9.0346e+01	3.8101	19.366140	0.000223	2.229623	0.755417	-0.000089
 910	9.0445e+01	3.7860	19.148135	0.000547	5.472710	1.854204	-0.000219
 911	9.0545e+01	3.7475	18.970501	0.000446	4.459245	1.510833	-0.000179
 912	9.0644e+01	3.7026	18.780755	0.000476	4.763285	1.613845	-0.000191
 913	9.0744e+01	3.6657	18.627344	0.000385	3.851166	1.304810	-0.000154
 914	9.0844e+01	3.6208	18.486045	0.000355	3.547127	1.201799	-0.000142
 915	9.0943e+01	3.5774	18.292262	0.000486	4.864631	1.648182	-0.000195
 916	9.1043e+01	3.5389	18.142888	0.000375	3.749820	1.270473	-0.000150
 917	9.1142e+01	3.5069	18.017737	0.000314	3.141741	1.064451	-0.000126
 918	9.1242e+01	3.4587	17.840103	0.000446	4.459245	1.510833	-0.000179
 919	9.1341e+01	3.4331	17.670543	0.000426	4.256552	1.442159	-0.000170
 920	9.1441e+01	3.3801	17.525206	0.000365	3.648473	1.236136	-0.000146
 921	9.1540e+01	3.3432	17.299127	0.000568	5.675403	1.922879	-0.000227
 922	9.1639e+01	3.2887	17.169938	0.000324	3.243087	1.098788	-0.000130
 923	9.1739e+01	3.2518	16.988267	0.000456	4.560592	1.545170	-0.000183
 924	9.1838e+01	3.2245	16.814670	0.000436	4.357899	1.476496	-0.000174
 925	9.1938e+01	3.1764	16.673371	0.000355	3.547127	1.201799	-0.000142
 926	9.2037e+01	3.1395	16.455365	0.000547	5.472710	1.854204	-0.000219
 927	9.2137e+01	3.1090	16.314066	0.000355	3.547127	1.201799	-0.000142
 928	9.2237e+01	3.0625	16.087986	0.000568	5.675403	1.922879	-0.000227
 929	9.2336e+01	3.0304	15.914389	0.000436	4.357899	1.476496	-0.000174
 930	9.2436e+01	2.9807	15.704458	0.000527	5.270017	1.785530	-0.000211
 931	9.2535e+01	2.9518	15.563158	0.000355	3.547127	1.201799	-0.000142
 932	9.2635e+01	2.8956	15.405710	0.000395	3.952513	1.339148	-0.000158
 933	9.2734e+01	2.8748	15.244225	0.000405	4.053859	1.373485	-0.000162
 934	9.2834e+01	2.8202	15.066591	0.000446	4.459245	1.510833	-0.000179
 935	9.2933e+01	2.7833	14.917217	0.000375	3.749820	1.270473	-0.000150
 936	9.3032e+01	2.7384	14.751694	0.000416	4.155206	1.407822	-0.000166
 937	9.3132e+01	2.7063	14.565986	0.000466	4.661938	1.579507	-0.000187
 938	9.3231e+01	2.6582	14.436797	0.000324	3.243087	1.098788	-0.000130
 939	9.3331e+01	2.6181	14.218792	0.000547	5.472710	1.854204	-0.000219
 940	9.3430e+01	2.5876	14.089604	0.000324	3.243087	1.098788	-0.000130
 941	9.3530e+01	2.5427	13.863524	0.000568	5.675403	1.922879	-0.000227
 942	9.3629e+01	2.5170	13.750484	0.000284	2.837702	0.961439	-0.000114
 943	9.3729e+01	2.4625	13.471922	0.000699	6.992907	2.369261	-0.000280
 944	9.3829e+01	2.4400	13.342734	0.000324	3.243087	1.098788	-0.000130
 945	9.3928e+01	2.3807	13.128765	0.000537	5.371364	1.819867	-0.000215
 946	9.4028e+01	2.3438	12.987466	0.000355	3.547127	1.201799	-0.000142
 947	9.4127e+01	2.2973	12.805795	0.000456	4.560592	1.545170	-0.000183
 948	9.4227e+01	2.2668	12.668532	0.000345	3.445780	1.167462	-0.000138
 949	9.4326e+01	2.2267	12.446489	0.000557	5.574057	1.888542	-0.000223
 950	9.4425e+01	2.1914	12.289041	0.000395	3.952513	1.339148	-0.000158
 951	9.4525e+01	2.1545	12.091222	0.000497	4.965978	1.682519	-0.000199
 952	9.4624e+01	2.1015	11.917625	0.000436	4.357899	1.476496	-0.000174
 953	9.4724e+01	2.0727	11.731916	0.000466	4.661938	1.579507	-0.000187
 954	9.4823e+01	2.0229	11.586580	0.000365	3.648473	1.236136	-0.000146
 955	9.4923e+01	1.9828	11.417020	0.000426	4.256552	1.442159	-0.000170
 956	9.5022e+01	1.9491	11.239386	0.000446	4.459245	1.510833	-0.000179
 957	9.5122e+01	1.9106	11.081938	0.000395	3.952513	1.339148	-0.000158
 958	9.5222e+01	1.8705	10.880081	0.000507	5.067324	1.716856	-0.000203
 959	9.5321e+01	1.8208	10.678224	0.000507	5.067324	1.716856	-0.000203
 960	9.5421e+01	1.7871	10.500590	0.000446	4.459245	1.510833	-0.000179
 961	9.5520e+01	1.7502	10.351216	0.000375	3.749820	1.270473	-0.000150
 962	9.5620e+01	1.6973	10.165508	0.000466	4.661938	1.579507	-0.000187
 963	9.5719e+01	1.6732	9.967688	0.000497	4.965978	1.682519	-0.000199
 964	9.5819e+01	1.6187	9.761794	0.000517	5.168671	1.751193	-0.000207
 965	9.5918e+01	1.5850	9.572049	0.000476	4.763285	1.613845	-0.000191
 966	9.6017e+01	1.5513	9.414601	0.000395	3.952513	1.339148	-0.000158
 967	9.6117e+01	1.5016	9.232929	0.000456	4.560592	1.545170	-0.000183
 968	9.6216e+01	1.4631	9.067407	0.000416	4.155206	1.407822	-0.000166
 969	9.6316e+01	1.4262	8.893810	0.000436	4.357899	1.476496	-0.000174
 970	9.6415e+01	1.3893	8.716176	0.000446	4.459245	1.510833	-0.000179
 971	9.6515e+01	1.3508	8.542579	0.000436	4.357899	1.476496	-0.000174
 972	9.6615e+01	1.3058	8.405317	0.000345	3.445780	1.167462	-0.000138
 973	9.6714e+01	1.2657	8.211534	0.000486	4.864631	1.648182	-0.000195
 974	9.6814e+01	1.2192	8.005640	0.000517	5.168671	1.751193	-0.000207
 975	9.6913e+01	1.1919	7.775523	0.000578	5.776750	1.957216	-0.000231
 976	9.7013e+01	1.1454	7.646335	0.000324	3.243087	1.098788	-0.000130
 977	9.7112e+01	1.1101	7.379884	0.000669	6.688868	2.266250	-0.000268
 978	9.7212e+01	1.0700	7.210324	0.000426	4.256552	1.442159	-0.000170
 979	9.7311e+01	1.0299	7.044802	0.000416	4.155206	1.407822	-0.000166
 980	9.7410e+01	0.9866	6.859094	0.000466	4.661938	1.579507	-0.000187
 981	9.7510e+01	0.9497	6.637051	0.000557	5.574057	1.888542	-0.000223
 982	9.7609e+01	0.9096	6.459417	0.000446	4.459245	1.510833	-0.000179
 983	9.7709e+01	0.8663	6.249486	0.000527	5.270017	1.785530	-0.000211
 984	9.7808e+01	0.8278	6.092038	0.000395	3.952513	1.339148	-0.000158
 985	9.7908e+01	0.7925	5.874032	0.000547	5.472710	1.854204	-0.000219
 986	9.8007e+01	0.7508	5.688324	0.000466	4.661938	1.579507	-0.000187
 987	9.8107e+01	0.6994	5.526839	0.000405	4.053859	1.373485	-0.000162
 988	9.8207e+01	0.6690	5.345168	0.000456	4.560592	1.545170	-0.000183
 989	9.8306e+01	0.6273	5.175608	0.000426	4.256552	1.442159	-0.000170
 990	9.8406e+01	0.5920	4.969714	0.000517	5.168671	1.751193	-0.000207
 991	9.8505e+01	0.5503	4.848600	0.000304	3.040395	1.030114	-0.000122
 992	9.8605e+01	0.5134	4.598298	0.000628	6.283482	2.128901	-0.000252
 993	9.8704e+01	0.4765	4.408552	0.000476	4.763285	1.613845	-0.000191
 994	9.8803e+01	0.4331	4.206695	0.000507	5.067324	1.716856	-0.000203
 995	9.8903e+01	0.3962	4.037136	0.000426	4.256552	1.442159	-0.000170
 996	9.9002e+01	0.3593	3.843353	0.000486	4.864631	1.648182	-0.000195
 997	9.9102e+01	0.3128	3.637459	0.000517	5.168671	1.751193	-0.000207
 998	9.9201e+01	0.2679	3.459825	0.000446	4.459245	1.510833	-0.000179
 999	9.9301e+01	0.2390	3.245857	0.000537	5.371364	1.819867	-0.000215
1000	9.9400e+01	0.1925	3.023815	0.000557	5.574057	1.888542	-0.000223
1001	9.9500e+01	0.1508	2.866366	0.000395	3.952513	1.339148	-0.000158
1002	9.9600e+01	0.1187	2.656435	0.000527	5.270017	1.785530	-0.000211
1003	9.9699e+01	0.0722	2.482838	0.000436	4.357899	1.476496	-0.000174
1004	9.9799e+01	0.0273	2.309242	0.000436	4.357899	1.476496	-0.000174
1005	9.9898e+01	-0.0048	2.220425	0.000223	2.229623	0.755417	-0.000089
1006	9.9998e+01	-0.0369	1.982234	0.000598	5.979443	2.025890	-0.000239
1007	1.0010e+02	-0.0690	1.824785	0.000395	3.952513	1.339148	-0.000158
1008	1.0020e+02	-0.1299	1.618891	0.000517	5.168671	1.751193	-0.000207
1009	1.0030e+02	-0.1588	1.449332	0.000426	4.256552	1.442159	-0.000170
1010	1.0040e+02	-0.1973	1.263623	0.000466	4.661938	1.579507	-0.000187
1011	1.0050e+02	-0.2326	1.033507	0.000578	5.776750	1.957216	-0.000231
1012	1.0059e+02	-0.2823	0.779167	0.000638	6.384829	2.163238	-0.000256
1013	1.0069e+02	-0.3225	0.625756	0.000385	3.851166	1.304810	-0.000154
1014	1.0079e+02	-0.3593	0.407751	0.000547	5.472710	1.854204	-0.000219
1015	1.0089e+02	-0.3995	0.234154	0.000436	4.357899	1.476496	-0.000174
1016	1.0099e+02	-0.4396	0.028260	0.000517	5.168671	1.751193	-0.000207
1017	1.0109e+02	-0.4749	-0.141300	0.000426	4.256552	1.442159	-0.000170
1018	1.0119e+02	-0.5262	-0.327008	0.000466	4.661938	1.579507	-0.000187
1019	1.0129e+02	-0.5615	-0.540976	0.000537	5.371364	1.819867	-0.000215
1020	1.0139e+02	-0.6000	-0.730722	0.000476	4.763285	1.613845	-0.000191
1021	1.0149e+02	-0.6385	-0.888170	0.000395	3.952513	1.339148	-0.000158
1022	1.0159e+02	-0.6706	-1.118287	0.000578	5.776750	1.957216	-0.000231
1023	1.0169e+02	-0.7139	-1.243438	0.000314	3.141741	1.064451	-0.000126
1024	1.0179e+02	-0.7588	-1.445295	0.000507	5.067324	1.716856	-0.000203
1025	1.0189e+02	-0.7973	-1.626966	0.000456	4.560592	1.545170	-0.000183
1026	1.0199e+02	-0.8310	-1.844971	0.000547	5.472710	1.854204	-0.000219
1027	1.0209e+02	-0.8807	-2.030679	0.000466	4.661938	1.579507	-0.000187
1028	1.0219e+02	-0.9144	-2.236573	0.000517	5.168671	1.751193	-0.000207
1029	1.0229e+02	-0.9561	-2.434393	0.000497	4.965978	1.682519	-0.000199
1030	1.0239e+02	-0.9962	-2.660472	0.000568	5.675403	1.922879	-0.000227
1031	1.0248e+02	-1.0315	-2.825995	0.000416	4.155206	1.407822	-0.000166
1032	1.0258e+02	-1.0716	-3.027852	0.000507	5.067324	1.716856	-0.000203
1033	1.0268e+02	-1.1165	-3.237783	0.000527	5.270017	1.785530	-0.000211
1034	1.0278e+02	-1.1502	-3.435603	0.000497	4.965978	1.682519	-0.000199
1035	1.0288e+02	-1.1984	-3.625348	0.000476	4.763285	1.613845	-0.000191
1036	1.0298e+02	-1.2321	-3.807019	0.000456	4.560592	1.545170	-0.000183
1037	1.0308e+02	-1.2706	-4.020987	0.000537	5.371364	1.819867	-0.000215
1038	1.0318e+02	-1.3187	-4.198621	0.000446	4.459245	1.510833	-0.000179
1039	1.0328e+02	-1.3492	-4.392404	0.000486	4.864631	1.648182	-0.000195
1040	1.0338e+02	-1.3925	-4.598298	0.000517	5.168671	1.751193	-0.000207
1041	1.0348e+02	-1.4310	-4.763820	0.000416	4.155206	1.407822	-0.000166
1042	1.0358e+02	-1.4775	-4.888971	0.000314	3.141741	1.064451	-0.000126
1043	1.0368e+02	-1.5096	-5.115051	0.000568	5.675403	1.922879	-0.000227
1044	1.0378e+02	-1.5545	-5.341131	0.000568	5.675403	1.922879	-0.000227
1045	1.0388e+02	-1.5930	-5.518765	0.000446	4.459245	1.510833	-0.000179
1046	1.0398e+02	-1.6283	-5.700436	0.000456	4.560592	1.545170	-0.000183
1047	1.0408e+02	-1.6652	-5.918441	0.000547	5.472710	1.854204	-0.000219
1048	1.0418e+02	-1.7149	-6.148558	0.000578	5.776750	1.957216	-0.000231
1049	1.0428e+02	-1.7566	-6.318117	0.000426	4.256552	1.442159	-0.000170
1050	1.0438e+02	-1.7887	-6.532086	0.000537	5.371364	1.819867	-0.000215
1051	1.0447e+02	-1.8192	-6.709720	0.000446	4.459245	1.510833	-0.000179
1052	1.0457e+02	-1.8673	-6.907539	0.000497	4.965978	1.682519	-0.000199
1053	1.0467e+02	-1.9171	-7.085173	0.000446	4.459245	1.510833	-0.000179
1054	1.0477e+02	-1.9443	-7.295104	0.000527	5.270017	1.785530	-0.000211
1055	1.0487e+02	-1.9876	-7.500998	0.000517	5.168671	1.751193	-0.000207
1056	1.0497e+02	-2.0358	-7.702855	0.000507	5.067324	1.716856	-0.000203
1057	1.0507e+02	-2.0775	-7.868378	0.000416	4.155206	1.407822	-0.000166
1058	1.0517e+02	-2.1192	-8.046012	0.000446	4.459245	1.510833	-0.000179
1059	1.0527e+02	-2.1529	-8.211534	0.000416	4.155206	1.407822	-0.000166
1060	1.0537e+02	-2.1898	-8.360908	0.000375	3.749820	1.270473	-0.000150
1061	1.0547e+02	-2.2235	-8.570839	0.000527	5.270017	1.785530	-0.000211
1062	1.0557e+02	-2.2796	-8.756547	0.000466	4.661938	1.579507	-0.000187
1063	1.0567e+02	-2.3213	-8.934181	0.000446	4.459245	1.510833	-0.000179
1064	1.0577e+02	-2.3502	-9.136038	0.000507	5.067324	1.716856	-0.000203
1065	1.0587e+02	-2.3887	-9.305598	0.000426	4.256552	1.442159	-0.000170
1066	1.0597e+02	-2.4256	-9.507455	0.000507	5.067324	1.716856	-0.000203
1067	1.0607e+02	-2.4689	-9.721423	0.000537	5.371364	1.819867	-0.000215
1068	1.0617e+02	-2.5026	-9.923280	0.000507	5.067324	1.716856	-0.000203
1069	1.0627e+02	-2.5459	-10.113025	0.000476	4.763285	1.613845	-0.000191
1070	1.0637e+02	-2.5876	-10.262399	0.000375	3.749820	1.270473	-0.000150
1071	1.0647e+02	-2.6229	-10.464256	0.000507	5.067324	1.716856	-0.000203
1072	1.0656e+02	-2.6662	-10.637853	0.000436	4.357899	1.476496	-0.000174
1073	1.0666e+02	-2.7047	-10.835672	0.000497	4.965978	1.682519	-0.000199
1074	1.0676e+02	-2.7513	-11.021381	0.000466	4.661938	1.579507	-0.000187
1075	1.0686e+02	-2.7849	-11.231312	0.000527	5.270017	1.785530	-0.000211
1076	1.0696e+02	-2.8395	-11.384723	0.000385	3.851166	1.304810	-0.000154
1077	1.0706e+02	-2.8700	-11.517948	0.000334	3.344434	1.133125	-0.000134
1078	1.0716e+02	-2.9213	-11.727879	0.000527	5.270017	1.785530	-0.000211
1079	1.0726e+02	-2.9566	-11.933773	0.000517	5.168671	1.751193	-0.000207
1080	1.0736e+02	-2.9967	-12.054887	0.000304	3.040395	1.030114	-0.000122
1081	1.0746e+02	-3.0336	-12.317301	0.000659	6.587521	2.231913	-0.000264
1082	1.0756e+02	-3.0625	-12.462638	0.000365	3.648473	1.236136	-0.000146
1083	1.0766e+02	-3.1170	-12.664495	0.000507	5.067324	1.716856	-0.000203
1084	1.0776e+02	-3.1587	-12.854240	0.000476	4.763285	1.613845	-0.000191
1085	1.0786e+02	-3.1908	-13.043986	0.000476	4.763285	1.613845	-0.000191
1086	1.0796e+02	-3.2309	-13.245842	0.000507	5.067324	1.716856	-0.000203
1087	1.0806e+02	-3.2582	-13.423476	0.000446	4.459245	1.510833	-0.000179
1088	1.0816e+02	-3.2999	-13.621296	0.000497	4.965978	1.682519	-0.000199
1089	1.0826e+02	-3.3545	-13.746447	0.000314	3.141741	1.064451	-0.000126
1090	1.0836e+02	-3.3737	-13.988675	0.000608	6.080789	2.060227	-0.000243
1091	1.0845e+02	-3.4218	-14.134012	0.000365	3.648473	1.236136	-0.000146
1092	1.0855e+02	-3.4619	-14.303572	0.000426	4.256552	1.442159	-0.000170
1093	1.0865e+02	-3.5069	-14.489280	0.000466	4.661938	1.579507	-0.000187
1094	1.0875e+02	-3.5405	-14.658840	0.000426	4.256552	1.442159	-0.000170
1095	1.0885e+02	-3.5887	-14.844548	0.000466	4.661938	1.579507	-0.000187
1096	1.0895e+02	-3.6191	-14.989885	0.000365	3.648473	1.236136	-0.000146
1097	1.0905e+02	-3.6673	-15.199816	0.000527	5.270017	1.785530	-0.000211
1098	1.0915e+02	-3.7074	-15.329004	0.000324	3.243087	1.098788	-0.000130
1099	1.0925e+02	-3.7443	-15.551047	0.000557	5.574057	1.888542	-0.000223
1100	1.0935e+02	-3.7828	-15.748867	0.000497	4.965978	1.682519	-0.000199
1101	1.0945e+02	-3.8293	-15.898241	0.000375	3.749820	1.270473	-0.000150
1102	1.0955e+02	-3.8566	-16.063763	0.000416	4.155206	1.407822	-0.000166
1103	1.0965e+02	-3.9031	-16.289843	0.000568	5.675403	1.922879	-0.000227
1104	1.0975e+02	-3.9400	-16.475551	0.000466	4.661938	1.579507	-0.000187
1105	1.0985e+02	-3.9865	-16.657222	0.000456	4.560592	1.545170	-0.000183
1106	1.0995e+02	-4.0234	-16.798522	0.000355	3.547127	1.201799	-0.000142
1107	1.1005e+02	-4.0587	-17.008453	0.000527	5.270017	1.785530	-0.000211
1108	1.1015e+02	-4.1052	-17.145715	0.000345	3.445780	1.167462	-0.000138
1109	1.1025e+02	-4.1389	-17.343535	0.000497	4.965978	1.682519	-0.000199
1110	1.1035e+02	-4.1790	-17.500983	0.000395	3.952513	1.339148	-0.000158
1111	1.1044e+02	-4.2255	-17.678617	0.000446	4.459245	1.510833	-0.000179
1112	1.1054e+02	-4.2592	-17.807806	0.000324	3.243087	1.098788	-0.000130
1113	1.1064e+02	-4.2993	-18.013700	0.000517	5.168671	1.751193	-0.000207
1114	1.1074e+02	-4.3427	-18.159037	0.000365	3.648473	1.236136	-0.000146
1115	1.1084e+02	-4.3780	-18.336671	0.000446	4.459245	1.510833	-0.000179
1116	1.1094e+02	-4.4261	-18.510267	0.000436	4.357899	1.476496	-0.000174
1117	1.1104e+02	-4.4662	-18.691938	0.000456	4.560592	1.545170	-0.000183
1118	1.1114e+02	-4.5111	-18.845350	0.000385	3.851166	1.304810	-0.000154
1119	1.1124e+02	-4.5368	-19.018946	0.000436	4.357899	1.476496	-0.000174
1120	1.1134e+02	-4.5833	-19.228878	0.000527	5.270017	1.785530	-0.000211
1121	1.1144e+02	-4.6266	-19.422660	0.000486	4.864631	1.648182	-0.000195
1122	1.1154e+02	-4.6571	-19.567997	0.000365	3.648473	1.236136	-0.000146
1123	1.1164e+02	-4.6988	-19.709297	0.000355	3.547127	1.201799	-0.000142
1124	1.1174e+02	-4.7373	-19.858671	0.000375	3.749820	1.270473	-0.000150
1125	1.1184e+02	-4.7726	-20.064565	0.000517	5.168671	1.751193	-0.000207
1126	1.1194e+02	-4.8223	-20.181642	0.000294	2.939048	0.995776	-0.000118
1127	1.1204e+02	-4.8608	-20.399647	0.000547	5.472710	1.854204	-0.000219
1128	1.1214e+02	-4.8961	-20.544984	0.000365	3.648473	1.236136	-0.000146
1129	1.1224e+02	-4.9378	-20.710506	0.000416	4.155206	1.407822	-0.000166
1130	1.1234e+02	-4.9844	-20.884103	0.000436	4.357899	1.476496	-0.000174
1131	1.1244e+02	-5.0180	-21.073849	0.000476	4.763285	1.613845	-0.000191
1132	1.1253e+02	-5.0565	-21.215148	0.000355	3.547127	1.201799	-0.000142
1133	1.1263e+02	-5.1063	-21.388745	0.000436	4.357899	1.476496	-0.000174
1134	1.1273e+02	-5.1384	-21.574453	0.000466	4.661938	1.579507	-0.000187
1135	1.1283e+02	-5.1833	-21.764199	0.000476	4.763285	1.613845	-0.000191
1136	1.1293e+02	-5.2218	-21.921647	0.000395	3.952513	1.339148	-0.000158
1137	1.1303e+02	-5.2603	-22.135615	0.000537	5.371364	1.819867	-0.000215
1138	1.1313e+02	-5.2956	-22.260766	0.000314	3.141741	1.064451	-0.000126
1139	1.1323e+02	-5.3405	-22.410140	0.000375	3.749820	1.270473	-0.000150
1140	1.1333e+02	-5.3870	-22.587774	0.000446	4.459245	1.510833	-0.000179
1141	1.1343e+02	-5.4143	-22.725037	0.000345	3.445780	1.167462	-0.000138
1142	1.1353e+02	-5.4592	-22.878448	0.000385	3.851166	1.304810	-0.000154
1143	1.1363e+02	-5.5009	-23.076268	0.000497	4.965978	1.682519	-0.000199
1144	1.1373e+02	-5.5314	-23.278125	0.000507	5.067324	1.716856	-0.000203
1145	1.1383e+02	-5.5859	-23.431536	0.000385	3.851166	1.304810	-0.000154
1146	1.1393e+02	-5.6164	-23.588984	0.000395	3.952513	1.339148	-0.000158
1147	1.1403e+02	-5.6613	-23.718172	0.000324	3.243087	1.098788	-0.000130
1148	1.1413e+02	-5.7030	-23.903881	0.000466	4.661938	1.579507	-0.000187
1149	1.1423e+02	-5.7415	-24.069403	0.000416	4.155206	1.407822	-0.000166
1150	1.1433e+02	-5.7768	-24.230889	0.000405	4.053859	1.373485	-0.000162
1151	1.1442e+02	-5.8169	-24.465043	0.000588	5.878096	1.991553	-0.000235
1152	1.1452e+02	-5.8506	-24.606342	0.000355	3.547127	1.201799	-0.000142
1153	1.1462e+02	-5.9004	-24.751679	0.000365	3.648473	1.236136	-0.000146
1154	1.1472e+02	-5.9341	-24.965647	0.000537	5.371364	1.819867	-0.000215
1155	1.1482e+02	-5.9806	-25.082724	0.000294	2.939048	0.995776	-0.000118
1156	1.1492e+02	-6.0143	-25.191727	0.000274	2.736355	0.927102	-0.000110
1157	1.1502e+02	-6.0656	-25.373398	0.000456	4.560592	1.545170	-0.000183
1158	1.1512e+02	-6.0993	-25.551032	0.000446	4.459245	1.510833	-0.000179
1159	1.1522e+02	-6.1362	-25.676183	0.000314	3.141741	1.064451	-0.000126
1160	1.1532e+02	-6.1731	-25.857854	0.000456	4.560592	1.545170	-0.000183
1161	1.1542e+02	-6.2196	-25.987043	0.000324	3.243087	1.098788	-0.000130
1162	1.1552e+02	-6.2629	-26.188900	0.000507	5.067324	1.716856	-0.000203
1163	1.1562e+02	-6.2998	-26.350385	0.000405	4.053859	1.373485	-0.000162
1164	1.1572e+02	-6.3367	-26.552242	0.000507	5.067324	1.716856	-0.000203
1165	1.1582e+02	-6.3720	-26.693541	0.000355	3.547127	1.201799	-0.000142
1166	1.1592e+02	-6.4121	-26.871175	0.000446	4.459245	1.510833	-0.000179
1167	1.1602e+02	-6.4522	-27.032661	0.000405	4.053859	1.373485	-0.000162
1168	1.1612e+02	-6.4827	-27.121478	0.000223	2.229623	0.755417	-0.000089
1169	1.1622e+02	-6.5340	-27.303149	0.000456	4.560592	1.545170	-0.000183
1170	1.1632e+02	-6.5661	-27.492894	0.000476	4.763285	1.613845	-0.000191
1171	1.1642e+02	-6.6191	-27.618046	0.000314	3.141741	1.064451	-0.000126
1172	1.1651e+02	-6.6544	-27.771457	0.000385	3.851166	1.304810	-0.000154
1173	1.1661e+02	-6.6880	-27.904682	0.000334	3.344434	1.133125	-0.000134
1174	1.1671e+02	-6.7346	-28.074242	0.000426	4.256552	1.442159	-0.000170
1175	1.1681e+02	-6.7731	-28.191319	0.000294	2.939048	0.995776	-0.000118
1176	1.1691e+02	-6.8084	-28.340693	0.000375	3.749820	1.270473	-0.000150
1177	1.1701e+02	-6.8501	-28.506215	0.000416	4.155206	1.407822	-0.000166
1178	1.1711e+02	-6.8966	-28.675775	0.000426	4.256552	1.442159	-0.000170
1179	1.1721e+02	-6.9303	-28.800926	0.000314	3.141741	1.064451	-0.000126
1180	1.1731e+02	-6.9704	-28.994709	0.000486	4.864631	1.648182	-0.000195
1181	1.1741e+02	-7.0153	-29.160231	0.000416	4.155206	1.407822	-0.000166
1182	1.1751e+02	-7.0538	-29.333828	0.000436	4.357899	1.476496	-0.000174
1183	1.1761e+02	-7.0907	-29.475128	0.000355	3.547127	1.201799	-0.000142
1184	1.1771e+02	-7.1260	-29.636613	0.000405	4.053859	1.373485	-0.000162
1185	1.1781e+02	-7.1773	-29.802136	0.000416	4.155206	1.407822	-0.000166
1186	1.1791e+02	-7.2158	-29.963621	0.000405	4.053859	1.373485	-0.000162
1187	1.1801e+02	-7.2431	-30.117033	0.000385	3.851166	1.304810	-0.000154
1188	1.1811e+02	-7.2912	-30.266407	0.000375	3.749820	1.270473	-0.000150
1189	1.1821e+02	-7.3233	-30.407706	0.000355	3.547127	1.201799	-0.000142
1190	1.1831e+02	-7.3682	-30.569192	0.000405	4.053859	1.373485	-0.000162
1191	1.1841e+02	-7.4083	-30.714529	0.000365	3.648473	1.236136	-0.000146
1192	1.1850e+02	-7.4468	-30.835643	0.000304	3.040395	1.030114	-0.000122
1193	1.1860e+02	-7.4950	-30.948683	0.000284	2.837702	0.961439	-0.000114
1194	1.1870e+02	-7.5319	-31.073834	0.000314	3.141741	1.064451	-0.000126
1195	1.1880e+02	-7.5688	-31.283765	0.000527	5.270017	1.785530	-0.000211
1196	1.1890e+02	-7.6057	-31.437176	0.000385	3.851166	1.304810	-0.000154
1197	1.1900e+02	-7.6554	-31.594624	0.000395	3.952513	1.339148	-0.000158
1198	1.1910e+02	-7.6843	-31.776295	0.000456	4.560592	1.545170	-0.000183
1199	1.1920e+02	-7.7212	-31.913558	0.000345	3.445780	1.167462	-0.000138
1200	1.1930e+02	-7.7597	-32.087155	0.000436	4.357899	1.476496	-0.000174
1201	1.1940e+02	-7.7966	-32.200195	0.000284	2.837702	0.961439	-0.000114
1202	1.1950e+02	-7.8479	-32.398014	0.000497	4.965978	1.682519	-0.000199
1203	1.1960e+02	-7.8864	-32.527203	0.000324	3.243087	1.098788	-0.000130
1204	1.1970e+02	-7.9265	-32.660428	0.000334	3.344434	1.133125	-0.000134
1205	1.1980e+02	-7.9698	-32.777505	0.000294	2.939048	0.995776	-0.000118
1206	1.1990e+02	-8.0051	-32.951102	0.000436	4.357899	1.476496	-0.000174
1207	1.2000e+02	-8.0452	-33.100476	0.000375	3.749820	1.270473	-0.000150
1208	1.2010e+02	-8.0853	-33.270036	0.000426	4.256552	1.442159	-0.000170
1209	1.2020e+02	-8.1238	-33.387113	0.000294	2.939048	0.995776	-0.000118
1210	1.2030e+02	-8.1591	-33.508227	0.000304	3.040395	1.030114	-0.000122
1211	1.2039e+02	-8.2121	-33.613192	0.000264	2.635009	0.892765	-0.000105
1212	1.2049e+02	-8.2313	-33.806975	0.000486	4.864631	1.648182	-0.000195
1213	1.2059e+02	-8.2907	-34.000757	0.000486	4.864631	1.648182	-0.000195
1214	1.2069e+02	-8.3308	-34.162243	0.000405	4.053859	1.373485	-0.000162
1215	1.2079e+02	-8.3661	-34.315654	0.000385	3.851166	1.304810	-0.000154
1216	1.2089e+02	-8.3966	-34.448879	0.000334	3.344434	1.133125	-0.000134
1217	1.2099e+02	-8.4543	-34.614402	0.000416	4.155206	1.407822	-0.000166
1218	1.2109e+02	-8.4800	-34.711293	0.000243	2.432316	0.824091	-0.000097
1219	1.2119e+02	-8.5249	-34.860667	0.000375	3.749820	1.270473	-0.000150
1220	1.2129e+02	-8.5698	-35.026190	0.000416	4.155206	1.407822	-0.000166
1221	1.2139e+02	-8.6019	-35.139229	0.000284	2.837702	0.961439	-0.000114
1222	1.2149e+02	-8.6468	-35.304752	0.000416	4.155206	1.407822	-0.000166
1223	1.2159e+02	-8.6821	-35.437978	0.000334	3.344434	1.133125	-0.000134
1224	1.2169e+02	-8.7270	-35.591389	0.000385	3.851166	1.304810	-0.000154
1225	1.2179e+02	-8.7591	-35.712503	0.000304	3.040395	1.030114	-0.000122
1226	1.2189e+02	-8.8104	-35.829580	0.000294	2.939048	0.995776	-0.000118
1227	1.2199e+02	-8.8361	-35.966842	0.000345	3.445780	1.167462	-0.000138
1228	1.2209e+02	-8.8842	-36.100068	0.000334	3.344434	1.133125	-0.000134
1229	1.2219e+02	-8.9227	-36.301925	0.000507	5.067324	1.716856	-0.000203
1230	1.2229e+02	-8.9645	-36.431113	0.000324	3.243087	1.098788	-0.000130
1231	1.2239e+02	-8.9997	-36.588561	0.000395	3.952513	1.339148	-0.000158
1232	1.2248e+02	-9.0495	-36.717750	0.000324	3.243087	1.098788	-0.000130
1233	1.2258e+02	-9.0784	-36.830789	0.000284	2.837702	0.961439	-0.000114
1234	1.2268e+02	-9.1201	-36.988238	0.000395	3.952513	1.339148	-0.000158
1235	1.2278e+02	-9.1650	-37.125500	0.000345	3.445780	1.167462	-0.000138
1236	1.2288e+02	-9.1955	-37.278911	0.000385	3.851166	1.304810	-0.000154
1237	1.2298e+02	-9.2516	-37.428285	0.000375	3.749820	1.270473	-0.000150
1238	1.2308e+02	-9.2725	-37.537288	0.000274	2.736355	0.927102	-0.000110
1239	1.2318e+02	-9.3190	-37.710885	0.000436	4.357899	1.476496	-0.000174
1240	1.2328e+02	-9.3607	-37.799702	0.000223	2.229623	0.755417	-0.000089
1241	1.2338e+02	-9.4088	-37.953113	0.000385	3.851166	1.304810	-0.000154
1242	1.2348e+02	-9.4393	-38.062116	0.000274	2.736355	0.927102	-0.000110
1243	1.2358e+02	-9.4794	-38.239750	0.000446	4.459245	1.510833	-0.000179
1244	1.2368e+02	-9.5179	-38.360864	0.000304	3.040395	1.030114	-0.000122
1245	1.2378e+02	-9.5660	-38.461792	0.000253	2.533662	0.858428	-0.000101
1246	1.2388e+02	-9.5981	-38.639426	0.000446	4.459245	1.510833	-0.000179
1247	1.2398e+02	-9.6350	-38.748429	0.000274	2.736355	0.927102	-0.000110
1248	1.2408e+02	-9.6703	-38.881654	0.000334	3.344434	1.133125	-0.000134
1249	1.2418e+02	-9.7104	-39.039103	0.000395	3.952513	1.339148	-0.000158
1250	1.2428e+02	-9.7505	-39.212699	0.000436	4.357899	1.476496	-0.000174
1251	1.2438e+02	-9.8003	-39.333813	0.000304	3.040395	1.030114	-0.000122
1252	1.2447e+02	-9.8323	-39.438779	0.000264	2.635009	0.892765	-0.000105
1253	1.2457e+02	-9.8805	-39.584116	0.000365	3.648473	1.236136	-0.000146
1254	1.2467e+02	-9.9238	-39.729453	0.000365	3.648473	1.236136	-0.000146
1255	1.2477e+02	-9.9623	-39.870753	0.000355	3.547127	1.201799	-0.000142
1256	1.2487e+02	-10.0056	-40.008015	0.000345	3.445780	1.167462	-0.000138
1257	1.2497e+02	-10.0361	-40.129129	0.000304	3.040395	1.030114	-0.000122
1258	1.2507e+02	-10.0794	-40.262355	0.000334	3.344434	1.133125	-0.000134
1259	1.2517e+02	-10.1227	-40.423840	0.000405	4.053859	1.373485	-0.000162
1260	1.2527e+02	-10.1564	-40.512657	0.000223	2.229623	0.755417	-0.000089
1261	1.2537e+02	-10.1933	-40.645883	0.000334	3.344434	1.133125	-0.000134
1262	1.2547e+02	-10.2286	-40.762960	0.000294	2.939048	0.995776	-0.000118
1263	1.2557e+02	-10.2783	-40.952705	0.000476	4.763285	1.613845	-0.000191
1264	1.2567e+02	-10.3104	-41.085930	0.000334	3.344434	1.133125	-0.000134
1265	1.2577e+02	-10.3521	-41.267602	0.000456	4.560592	1.545170	-0.000183
1266	1.2587e+02	-10.4034	-41.396790	0.000324	3.243087	1.098788	-0.000130
1267	1.2597e+02	-10.4339	-41.493681	0.000243	2.432316	0.824091	-0.000097
1268	1.2607e+02	-10.4740	-41.663241	0.000426	4.256552	1.442159	-0.000170
1269	1.2617e+02	-10.5254	-41.743984	0.000203	2.026930	0.686742	-0.000081
1270	1.2627e+02	-10.5510	-41.941803	0.000497	4.965978	1.682519	-0.000199
1271	1.2636e+02	-10.6008	-42.030620	0.000223	2.229623	0.755417	-0.000089
1272	1.2646e+02	-10.6409	-42.163846	0.000334	3.344434	1.133125	-0.000134
1273	1.2656e+02	-10.6778	-42.293034	0.000324	3.243087	1.098788	-0.000130
1274	1.2666e+02	-10.7195	-42.458557	0.000416	4.155206	1.407822	-0.000166
1275	1.2676e+02	-10.7628	-42.567559	0.000274	2.736355	0.927102	-0.000110
1276	1.2686e+02	-10.8029	-42.700785	0.000334	3.344434	1.133125	-0.000134
1277	1.2696e+02	-10.8270	-42.797676	0.000243	2.432316	0.824091	-0.000097
1278	1.2706e+02	-10.8815	-42.902641	0.000264	2.635009	0.892765	-0.000105
1279	1.2716e+02	-10.9072	-43.047978	0.000365	3.648473	1.236136	-0.000146
1280	1.2726e+02	-10.9505	-43.185241	0.000345	3.445780	1.167462	-0.000138
1281	1.2736e+02	-10.9954	-43.358838	0.000436	4.357899	1.476496	-0.000174
1282	1.2746e+02	-11.0323	-43.504175	0.000365	3.648473	1.236136	-0.000146
1283	1.2756e+02	-11.0740	-43.665660	0.000405	4.053859	1.373485	-0.000162
1284	1.2766e+02	-11.1157	-43.738329	0.000182	1.824237	0.618068	-0.000073
1285	1.2776e+02	-11.1558	-43.875591	0.000345	3.445780	1.167462	-0.000138
1286	1.2786e+02	-11.1975	-44.000742	0.000314	3.141741	1.064451	-0.000126
1287	1.2796e+02	-11.2377	-44.174339	0.000436	4.357899	1.476496	-0.000174
1288	1.2806e+02	-11.2617	-44.247008	0.000182	1.824237	0.618068	-0.000073
1289	1.2816e+02	-11.3130	-44.380233	0.000334	3.344434	1.133125	-0.000134
1290	1.2826e+02	-11.3548	-44.513459	0.000334	3.344434	1.133125	-0.000134
1291	1.2835e+02	-11.4061	-44.662833	0.000375	3.749820	1.270473	-0.000150
1292	1.2845e+02	-11.4302	-44.759724	0.000243	2.432316	0.824091	-0.000097
1293	1.2855e+02	-11.4895	-44.896987	0.000345	3.445780	1.167462	-0.000138
1294	1.2865e+02	-11.5104	-45.018101	0.000304	3.040395	1.030114	-0.000122
1295	1.2875e+02	-11.5585	-45.187660	0.000426	4.256552	1.442159	-0.000170
1296	1.2885e+02	-11.5858	-45.264366	0.000193	1.925583	0.652405	-0.000077
1297	1.2895e+02	-11.6259	-45.401629	0.000345	3.445780	1.167462	-0.000138
1298	1.2905e+02	-11.6676	-45.575225	0.000436	4.357899	1.476496	-0.000174
1299	1.2915e+02	-11.7125	-45.716525	0.000355	3.547127	1.201799	-0.000142
1300	1.2925e+02	-11.7446	-45.809379	0.000233	2.330969	0.789754	-0.000093
1301	1.2935e+02	-11.7911	-45.958753	0.000375	3.749820	1.270473	-0.000150
1302	1.2945e+02	-11.8344	-46.079867	0.000304	3.040395	1.030114	-0.000122
1303	1.2955e+02	-11.8761	-46.188870	0.000274	2.736355	0.927102	-0.000110
1304	1.2965e+02	-11.9082	-46.386690	0.000497	4.965978	1.682519	-0.000199
1305	1.2975e+02	-11.9483	-46.463395	0.000193	1.925583	0.652405	-0.000077
1306	1.2985e+02	-11.9900	-46.616806	0.000385	3.851166	1.304810	-0.000154
1307	1.2995e+02	-12.0334	-46.741958	0.000314	3.141741	1.064451	-0.000126
1308	1.3005e+02	-12.0670	-46.834812	0.000233	2.330969	0.789754	-0.000093
1309	1.3015e+02	-12.1184	-46.955926	0.000304	3.040395	1.030114	-0.000122
1310	1.3025e+02	-12.1489	-47.081077	0.000314	3.141741	1.064451	-0.000126
1311	1.3034e+02	-12.1906	-47.242562	0.000405	4.053859	1.373485	-0.000162
1312	1.3044e+02	-12.2515	-47.331379	0.000223	2.229623	0.755417	-0.000089
1313	1.3054e+02	-12.2788	-47.476716	0.000365	3.648473	1.236136	-0.000146
1314	1.3064e+02	-12.3061	-47.638202	0.000405	4.053859	1.373485	-0.000162
1315	1.3074e+02	-12.3382	-47.751242	0.000284	2.837702	0.961439	-0.000114
1316	1.3084e+02	-12.3831	-47.896578	0.000365	3.648473	1.236136	-0.000146
1317	1.3094e+02	-12.4296	-48.062101	0.000416	4.155206	1.407822	-0.000166
1318	1.3104e+02	-12.4713	-48.146881	0.000213	2.128276	0.721079	-0.000085
1319	1.3114e+02	-12.5050	-48.267995	0.000304	3.040395	1.030114	-0.000122
1320	1.3124e+02	-12.5515	-48.437555	0.000426	4.256552	1.442159	-0.000170
1321	1.3134e+02	-12.5948	-48.607114	0.000426	4.256552	1.442159	-0.000170
1322	1.3144e+02	-12.6269	-48.691894	0.000213	2.128276	0.721079	-0.000085
1323	1.3154e+02	-12.6734	-48.829157	0.000345	3.445780	1.167462	-0.000138
1324	1.3164e+02	-12.7135	-48.934122	0.000264	2.635009	0.892765	-0.000105
1325	1.3174e+02	-12.7408	-49.022939	0.000223	2.229623	0.755417	-0.000089
1326	1.3184e+02	-12.7986	-49.152128	0.000324	3.243087	1.098788	-0.000130
1327	1.3194e+02	-12.8290	-49.253056	0.000253	2.533662	0.858428	-0.000101
1328	1.3204e+02	-12.8740	-49.382244	0.000324	3.243087	1.098788	-0.000130
1329	1.3214e+02	-12.9044	-49.475098	0.000233	2.330969	0.789754	-0.000093
1330	1.3224e+02	-12.9462	-49.632547	0.000395	3.952513	1.339148	-0.000158
1331	1.3234e+02	-12.9831	-49.785958	0.000385	3.851166	1.304810	-0.000154
1332	1.3243e+02	-13.0183	-49.911109	0.000314	3.141741	1.064451	-0.000126
1333	1.3253e+02	-13.0633	-50.052409	0.000355	3.547127	1.201799	-0.000142
1334	1.3263e+02	-13.1066	-50.189671	0.000345	3.445780	1.167462	-0.000138
1335	1.3273e+02	-13.1499	-50.335008	0.000365	3.648473	1.236136	-0.000146
1336	1.3283e+02	-13.1804	-50.460160	0.000314	3.141741	1.064451	-0.000126
1337	1.3293e+02	-13.2285	-50.609534	0.000375	3.749820	1.270473	-0.000150
1338	1.3303e+02	-13.2686	-50.670091	0.000152	1.520197	0.515057	-0.000061
1339	1.3313e+02	-13.3071	-50.827539	0.000395	3.952513	1.339148	-0.000158
1340	1.3323e+02	-13.3376	-50.956727	0.000324	3.243087	1.098788	-0.000130
1341	1.3333e+02	-13.3793	-51.045544	0.000223	2.229623	0.755417	-0.000089
1342	1.3343e+02	-13.4194	-51.198955	0.000385	3.851166	1.304810	-0.000154
1343	1.3353e+02	-13.4659	-51.299884	0.000253	2.533662	0.858428	-0.000101
1344	1.3363e+02	-13.4964	-51.404849	0.000264	2.635009	0.892765	-0.000105
1345	1.3373e+02	-13.5494	-51.530001	0.000314	3.141741	1.064451	-0.000126
1346	1.3383e+02	-13.5830	-51.602669	0.000182	1.824237	0.618068	-0.000073
1347	1.3393e+02	-13.6231	-51.760117	0.000395	3.952513	1.339148	-0.000158
1348	1.3403e+02	-13.6600	-51.897380	0.000345	3.445780	1.167462	-0.000138
1349	1.3413e+02	-13.7098	-52.014457	0.000294	2.939048	0.995776	-0.000118
1350	1.3423e+02	-13.7419	-52.151719	0.000345	3.445780	1.167462	-0.000138
1351	1.3432e+02	-13.7820	-52.305131	0.000385	3.851166	1.304810	-0.000154
1352	1.3442e+02	-13.8221	-52.422208	0.000294	2.939048	0.995776	-0.000118
1353	1.3452e+02	-13.8542	-52.531210	0.000274	2.736355	0.927102	-0.000110
1354	1.3462e+02	-13.8959	-52.692696	0.000405	4.053859	1.373485	-0.000162
1355	1.3472e+02	-13.9520	-52.789587	0.000243	2.432316	0.824091	-0.000097
1356	1.3482e+02	-13.9841	-52.922812	0.000334	3.344434	1.133125	-0.000134
1357	1.3492e+02	-14.0226	-52.991444	0.000172	1.722890	0.583731	-0.000069
1358	1.3502e+02	-14.0611	-53.156966	0.000416	4.155206	1.407822	-0.000166
1359	1.3512e+02	-14.1028	-53.282117	0.000314	3.141741	1.064451	-0.000126
1360	1.3522e+02	-14.1477	-53.395157	0.000284	2.837702	0.961439	-0.000114
1361	1.3532e+02	-14.1766	-53.524346	0.000324	3.243087	1.098788	-0.000130
1362	1.3542e+02	-14.2199	-53.613163	0.000223	2.229623	0.755417	-0.000089
1363	1.3552e+02	-14.2697	-53.706017	0.000233	2.330969	0.789754	-0.000093
1364	1.3562e+02	-14.3065	-53.839242	0.000334	3.344434	1.133125	-0.000134
1365	1.3572e+02	-14.3386	-53.936133	0.000243	2.432316	0.824091	-0.000097
1366	1.3582e+02	-14.3836	-54.129916	0.000486	4.864631	1.648182	-0.000195
1367	1.3592e+02	-14.4156	-54.271216	0.000355	3.547127	1.201799	-0.000142
1368	1.3602e+02	-14.4702	-54.388293	0.000294	2.939048	0.995776	-0.000118
1369	1.3612e+02	-14.4958	-54.460961	0.000182	1.824237	0.618068	-0.000073
1370	1.3622e+02	-14.5504	-54.646669	0.000466	4.661938	1.579507	-0.000187
1371	1.3631e+02	-14.5809	-54.743561	0.000243	2.432316	0.824091	-0.000097
1372	1.3641e+02	-14.6226	-54.832378	0.000223	2.229623	0.755417	-0.000089
1373	1.3651e+02	-14.6579	-54.969640	0.000345	3.445780	1.167462	-0.000138
1374	1.3661e+02	-14.7060	-55.147274	0.000446	4.459245	1.510833	-0.000179
1375	1.3671e+02	-14.7381	-55.240128	0.000233	2.330969	0.789754	-0.000093
1376	1.3681e+02	-14.7798	-55.357205	0.000294	2.939048	0.995776	-0.000118
1377	1.3691e+02	-14.8215	-55.441985	0.000213	2.128276	0.721079	-0.000085
1378	1.3701e+02	-14.8552	-55.587322	0.000365	3.648473	1.236136	-0.000146
1379	1.3711e+02	-14.9033	-55.668065	0.000203	2.026930	0.686742	-0.000081
1380	1.3721e+02	-14.9402	-55.768993	0.000253	2.533662	0.858428	-0.000101
1381	1.3731e+02	-14.9739	-55.869921	0.000253	2.533662	0.858428	-0.000101
1382	1.3741e+02	-15.0156	-56.015258	0.000365	3.648473	1.236136	-0.000146
1383	1.3751e+02	-15.0654	-56.132335	0.000294	2.939048	0.995776	-0.000118
1384	1.3761e+02	-15.0926	-56.293821	0.000405	4.053859	1.373485	-0.000162
1385	1.3771e+02	-15.1359	-56.443195	0.000375	3.749820	1.270473	-0.000150
1386	1.3781e+02	-15.1744	-56.556235	0.000284	2.837702	0.961439	-0.000114
1387	1.3791e+02	-15.2210	-56.653126	0.000243	2.432316	0.824091	-0.000097
1388	1.3801e+02	-15.2450	-56.770203	0.000294	2.939048	0.995776	-0.000118
1389	1.3811e+02	-15.2932	-56.903428	0.000334	3.344434	1.133125	-0.000134
1390	1.3821e+02	-15.3477	-57.004357	0.000253	2.533662	0.858428	-0.000101
1391	1.3831e+02	-15.3846	-57.145656	0.000355	3.547127	1.201799	-0.000142
1392	1.3840e+02	-15.4151	-57.286956	0.000355	3.547127	1.201799	-0.000142
1393	1.3850e+02	-15.4536	-57.355587	0.000172	1.722890	0.583731	-0.000069
1394	1.3860e+02	-15.4937	-57.480739	0.000314	3.141741	1.064451	-0.000126
1395	1.3870e+02	-15.5338	-57.581667	0.000253	2.533662	0.858428	-0.000101
1396	1.3880e+02	-15.5755	-57.710855	0.000324	3.243087	1.098788	-0.000130
1397	1.3890e+02	-15.6220	-57.795635	0.000213	2.128276	0.721079	-0.000085
1398	1.3900e+02	-15.6589	-57.900601	0.000264	2.635009	0.892765	-0.000105
1399	1.3910e+02	-15.6958	-58.013641	0.000284	2.837702	0.961439	-0.000114
1400	1.3920e+02	-15.7375	-58.090346	0.000193	1.925583	0.652405	-0.000077
1401	1.3930e+02	-15.7728	-58.219534	0.000324	3.243087	1.098788	-0.000130
1402	1.3940e+02	-15.8081	-58.376983	0.000395	3.952513	1.339148	-0.000158
1403	1.3950e+02	-15.8562	-58.522320	0.000365	3.648473	1.236136	-0.000146
1404	1.3960e+02	-15.9012	-58.599025	0.000193	1.925583	0.652405	-0.000077
1405	1.3970e+02	-15.9348	-58.728214	0.000324	3.243087	1.098788	-0.000130
1406	1.3980e+02	-15.9733	-58.853365	0.000314	3.141741	1.064451	-0.000126
1407	1.3990e+02	-16.0199	-58.982553	0.000324	3.243087	1.098788	-0.000130
1408	1.4000e+02	-16.0536	-59.075407	0.000233	2.330969	0.789754	-0.000093
1409	1.4010e+02	-16.0953	-59.216707	0.000355	3.547127	1.201799	-0.000142
1410	1.4020e+02	-16.1338	-59.305524	0.000223	2.229623	0.755417	-0.000089
1411	1.4029e+02	-16.1739	-59.422601	0.000294	2.939048	0.995776	-0.000118
1412	1.4039e+02	-16.2188	-59.539678	0.000294	2.939048	0.995776	-0.000118
1413	1.4049e+02	-16.2621	-59.668866	0.000324	3.243087	1.098788	-0.000130
1414	1.4059e+02	-16.3006	-59.769795	0.000253	2.533662	0.858428	-0.000101
1415	1.4069e+02	-16.3359	-59.826315	0.000142	1.418851	0.480720	-0.000057
1416	1.4079e+02	-16.3776	-59.975689	0.000375	3.749820	1.270473	-0.000150
1417	1.4089e+02	-16.4241	-60.060468	0.000213	2.128276	0.721079	-0.000085
1418	1.4099e+02	-16.4578	-60.141211	0.000203	2.026930	0.686742	-0.000081
1419	1.4109e+02	-16.5011	-60.294622	0.000385	3.851166	1.304810	-0.000154
1420	1.4119e+02	-16.5268	-60.480330	0.000466	4.661938	1.579507	-0.000187
1421	1.4129e+02	-16.5637	-60.552999	0.000182	1.824237	0.618068	-0.000073
1422	1.4139e+02	-16.6070	-60.686224	0.000334	3.344434	1.133125	-0.000134
1423	1.4149e+02	-16.6471	-60.819450	0.000334	3.344434	1.133125	-0.000134
1424	1.4159e+02	-16.6920	-60.936527	0.000294	2.939048	0.995776	-0.000118
1425	1.4169e+02	-16.7338	-61.061678	0.000314	3.141741	1.064451	-0.000126
1426	1.4179e+02	-16.7739	-61.186829	0.000314	3.141741	1.064451	-0.000126
1427	1.4189e+02	-16.8220	-61.291795	0.000264	2.635009	0.892765	-0.000105
1428	1.4199e+02	-16.8541	-61.396760	0.000264	2.635009	0.892765	-0.000105
1429	1.4209e+02	-16.8878	-61.550171	0.000385	3.851166	1.304810	-0.000154
1430	1.4219e+02	-16.9359	-61.630914	0.000203	2.026930	0.686742	-0.000081
1431	1.4228e+02	-16.9648	-61.735880	0.000264	2.635009	0.892765	-0.000105
1432	1.4238e+02	-17.0113	-61.877179	0.000355	3.547127	1.201799	-0.000142
1433	1.4248e+02	-17.0562	-61.937736	0.000152	1.520197	0.515057	-0.000061
1434	1.4258e+02	-17.0947	-62.046739	0.000274	2.736355	0.927102	-0.000110
1435	1.4268e+02	-17.1156	-62.188039	0.000355	3.547127	1.201799	-0.000142
1436	1.4278e+02	-17.1685	-62.305116	0.000294	2.939048	0.995776	-0.000118
1437	1.4288e+02	-17.2054	-62.434304	0.000324	3.243087	1.098788	-0.000130
1438	1.4298e+02	-17.2535	-62.559455	0.000314	3.141741	1.064451	-0.000126
1439	1.4308e+02	-17.2952	-62.680569	0.000304	3.040395	1.030114	-0.000122
1440	1.4318e+02	-17.3305	-62.801684	0.000304	3.040395	1.030114	-0.000122
1441	1.4328e+02	-17.3738	-62.906649	0.000264	2.635009	0.892765	-0.000105
1442	1.4338e+02	-17.4172	-63.027763	0.000304	3.040395	1.030114	-0.000122
1443	1.4348e+02	-17.4508	-63.169063	0.000355	3.547127	1.201799	-0.000142
1444	1.4358e+02	-17.4942	-63.257880	0.000223	2.229623	0.755417	-0.000089
1445	1.4368e+02	-17.5246	-63.399180	0.000355	3.547127	1.201799	-0.000142
1446	1.4378e+02	-17.5808	-63.500108	0.000253	2.533662	0.858428	-0.000101
1447	1.4388e+02	-17.6049	-63.605074	0.000264	2.635009	0.892765	-0.000105
1448	1.4398e+02	-17.6546	-63.738299	0.000334	3.344434	1.133125	-0.000134
1449	1.4408e+02	-17.6883	-63.831153	0.000233	2.330969	0.789754	-0.000093
1450	1.4418e+02	-17.7236	-63.899784	0.000172	1.722890	0.583731	-0.000069
1451	1.4428e+02	-17.7669	-64.024936	0.000314	3.141741	1.064451	-0.000126
1452	1.4437e+02	-17.8086	-64.133938	0.000274	2.736355	0.927102	-0.000110
1453	1.4447e+02	-17.8519	-64.299461	0.000416	4.155206	1.407822	-0.000166
1454	1.4457e+02	-17.8840	-64.388278	0.000223	2.229623	0.755417	-0.000089
1455	1.4467e+02	-17.9305	-64.521503	0.000334	3.344434	1.133125	-0.000134
1456	1.4477e+02	-17.9578	-64.670877	0.000375	3.749820	1.270473	-0.000150
1457	1.4487e+02	-18.0107	-64.735472	0.000162	1.621544	0.549394	-0.000065
1458	1.4497e+02	-18.0460	-64.880808	0.000365	3.648473	1.236136	-0.000146
1459	1.4507e+02	-18.0829	-64.989811	0.000274	2.736355	0.927102	-0.000110
1460	1.4517e+02	-18.1198	-65.106888	0.000294	2.939048	0.995776	-0.000118
1461	1.4527e+02	-18.1631	-65.272411	0.000416	4.155206	1.407822	-0.000166
1462	1.4537e+02	-18.2145	-65.328931	0.000142	1.418851	0.480720	-0.000057
1463	1.4547e+02	-18.2449	-65.441970	0.000284	2.837702	0.961439	-0.000114
1464	1.4557e+02	-18.2834	-65.575196	0.000334	3.344434	1.133125	-0.000134
1465	1.4567e+02	-18.3316	-65.704384	0.000324	3.243087	1.098788	-0.000130
1466	1.4577e+02	-18.3717	-65.793201	0.000223	2.229623	0.755417	-0.000089
1467	1.4587e+02	-18.4006	-65.906241	0.000284	2.837702	0.961439	-0.000114
1468	1.4597e+02	-18.4471	-65.991021	0.000213	2.128276	0.721079	-0.000085
1469	1.4607e+02	-18.4840	-66.104061	0.000284	2.837702	0.961439	-0.000114
1470	1.4617e+02	-18.5128	-66.273620	0.000426	4.256552	1.442159	-0.000170
1471	1.4626e+02	-18.5562	-66.386660	0.000284	2.837702	0.961439	-0.000114
1472	1.4636e+02	-18.6011	-66.523923	0.000345	3.445780	1.167462	-0.000138
1473	1.4646e+02	-18.6476	-66.653111	0.000324	3.243087	1.098788	-0.000130
1474	1.4656e+02	-18.6845	-66.778262	0.000314	3.141741	1.064451	-0.000126
1475	1.4666e+02	-18.7262	-66.915525	0.000345	3.445780	1.167462	-0.000138
1476	1.4676e+02	-18.7583	-66.996268	0.000203	2.026930	0.686742	-0.000081
1477	1.4686e+02	-18.8080	-67.113345	0.000294	2.939048	0.995776	-0.000118
1478	1.4696e+02	-18.8417	-67.258681	0.000365	3.648473	1.236136	-0.000146
1479	1.4706e+02	-18.8802	-67.408055	0.000375	3.749820	1.270473	-0.000150
1480	1.4716e+02	-18.9316	-67.513021	0.000264	2.635009	0.892765	-0.000105
1481	1.4726e+02	-18.9588	-67.646246	0.000334	3.344434	1.133125	-0.000134
1482	1.4736e+02	-19.0037	-67.747175	0.000253	2.533662	0.858428	-0.000101
1483	1.4746e+02	-19.0455	-67.844066	0.000243	2.432316	0.824091	-0.000097
1484	1.4756e+02	-19.0872	-67.965180	0.000304	3.040395	1.030114	-0.000122
1485	1.4766e+02	-19.1209	-68.066109	0.000253	2.533662	0.858428	-0.000101
1486	1.4776e+02	-19.1610	-68.239705	0.000436	4.357899	1.476496	-0.000174
1487	1.4786e+02	-19.1979	-68.368894	0.000324	3.243087	1.098788	-0.000130
1488	1.4796e+02	-19.2412	-68.485971	0.000294	2.939048	0.995776	-0.000118
1489	1.4806e+02	-19.2797	-68.615159	0.000324	3.243087	1.098788	-0.000130
1490	1.4816e+02	-19.3214	-68.744347	0.000324	3.243087	1.098788	-0.000130
1491	1.4825e+02	-19.3679	-68.865461	0.000304	3.040395	1.030114	-0.000122
1492	1.4835e+02	-19.4032	-69.002724	0.000345	3.445780	1.167462	-0.000138
1493	1.4845e+02	-19.4401	-69.119801	0.000294	2.939048	0.995776	-0.000118
1494	1.4855e+02	-19.4706	-69.236878	0.000294	2.939048	0.995776	-0.000118
1495	1.4865e+02	-19.5235	-69.345881	0.000274	2.736355	0.927102	-0.000110
1496	1.4875e+02	-19.5524	-69.519477	0.000436	4.357899	1.476496	-0.000174
1497	1.4885e+02	-19.6069	-69.555812	0.000091	0.912118	0.309034	-0.000037
1498	1.4895e+02	-19.6374	-69.737483	0.000456	4.560592	1.545170	-0.000183
1499	1.4905e+02	-19.6887	-69.830337	0.000233	2.330969	0.789754	-0.000093
1500	1.4915e+02	-19.7144	-69.951451	0.000304	3.040395	1.030114	-0.000122
1501	1.4925e+02	-19.7593	-70.076602	0.000314	3.141741	1.064451	-0.000126
1502	1.4935e+02	-19.7946	-70.209828	0.000334	3.344434	1.133125	-0.000134
1503	1.4945e+02	-19.8235	-70.347090	0.000345	3.445780	1.167462	-0.000138
1504	1.4955e+02	-19.8813	-70.460130	0.000284	2.837702	0.961439	-0.000114
1505	1.4965e+02	-19.9214	-70.581244	0.000304	3.040395	1.030114	-0.000122
1506	1.4975e+02	-19.9583	-70.738692	0.000395	3.952513	1.339148	-0.000158
1507	1.4985e+02	-19.9968	-70.884029	0.000365	3.648473	1.236136	-0.000146
1508	1.4995e+02	-19.9583	-70.791175	0.000233	2.330969	0.789754	0.000093
1509	1.5005e+02	-19.9294	-70.811361	-0.000051	-0.506732	-0.171686	-0.000020
1510	1.5015e+02	-19.8925	-70.718507	0.000233	2.330969	0.789754	0.000093
1511	1.5025e+02	-19.8363	-70.653913	0.000162	1.621544	0.549394	0.000065
1512	1.5034e+02	-19.8026	-70.561058	0.000233	2.330969	0.789754	0.000093
1513	1.5044e+02	-19.7738	-70.524724	0.000091	0.912118	0.309034	0.000037
1514	1.5054e+02	-19.7305	-70.443981	0.000203	2.026930	0.686742	0.000081
1515	1.5064e+02	-19.6743	-70.371313	0.000182	1.824237	0.618068	0.000073
1516	1.5074e+02	-19.6326	-70.302682	0.000172	1.722890	0.583731	0.000069
1517	1.5084e+02	-19.6053	-70.266348	0.000091	0.912118	0.309034	0.000037
1518	1.5094e+02	-19.5620	-70.161382	0.000264	2.635009	0.892765	0.000105
1519	1.5104e+02	-19.5219	-70.125048	0.000091	0.912118	0.309034	0.000037
1520	1.5114e+02	-19.4738	-70.016045	0.000274	2.736355	0.927102	0.000110
1521	1.5124e+02	-19.4305	-69.975674	0.000101	1.013465	0.343371	0.000041
1522	1.5134e+02	-19.3968	-69.907042	0.000172	1.722890	0.583731	0.000069
1523	1.5144e+02	-19.3663	-69.858597	0.000122	1.216158	0.412045	0.000049
1524	1.5154e+02	-19.3214	-69.765743	0.000233	2.330969	0.789754	0.000093
1525	1.5164e+02	-19.2813	-69.676926	0.000223	2.229623	0.755417	0.000089
1526	1.5174e+02	-19.2380	-69.644629	0.000081	0.810772	0.274697	0.000032
1527	1.5184e+02	-19.2059	-69.523515	0.000304	3.040395	1.030114	0.000122
1528	1.5194e+02	-19.1577	-69.454883	0.000172	1.722890	0.583731	0.000069
1529	1.5204e+02	-19.1160	-69.390289	0.000162	1.621544	0.549394	0.000065
1530	1.5214e+02	-19.0840	-69.329732	0.000152	1.520197	0.515057	0.000061
1531	1.5224e+02	-19.0471	-69.269175	0.000152	1.520197	0.515057	0.000061
1532	1.5233e+02	-18.9989	-69.220729	0.000122	1.216158	0.412045	0.000049
1533	1.5243e+02	-18.9620	-69.139987	0.000203	2.026930	0.686742	0.000081
1534	1.5253e+02	-18.9251	-68.994650	0.000365	3.648473	1.236136	0.000146
1535	1.5263e+02	-18.8850	-68.913907	0.000203	2.026930	0.686742	0.000081
1536	1.5273e+02	-18.8353	-68.877573	0.000091	0.912118	0.309034	0.000037
1537	1.5283e+02	-18.8096	-68.756459	0.000304	3.040395	1.030114	0.000122
1538	1.5293e+02	-18.7663	-68.647456	0.000274	2.736355	0.927102	0.000110
1539	1.5303e+02	-18.7262	-68.586899	0.000152	1.520197	0.515057	0.000061
1540	1.5313e+02	-18.6877	-68.510193	0.000193	1.925583	0.652405	0.000077
1541	1.5323e+02	-18.6492	-68.449636	0.000152	1.520197	0.515057	0.000061
1542	1.5333e+02	-18.6075	-68.356782	0.000233	2.330969	0.789754	0.000093
1543	1.5343e+02	-18.5658	-68.267965	0.000223	2.229623	0.755417	0.000089
1544	1.5353e+02	-18.5321	-68.227594	0.000101	1.013465	0.343371	0.000041
1545	1.5363e+02	-18.4856	-68.146851	0.000203	2.026930	0.686742	0.000081
1546	1.5373e+02	-18.4439	-68.033811	0.000284	2.837702	0.961439	0.000114
1547	1.5383e+02	-18.4150	-67.981329	0.000132	1.317504	0.446383	0.000053
1548	1.5393e+02	-18.3669	-67.904623	0.000193	1.925583	0.652405	0.000077
1549	1.5403e+02	-18.3203	-67.840029	0.000162	1.621544	0.549394	0.000065
1550	1.5413e+02	-18.2899	-67.702766	0.000345	3.445780	1.167462	0.000138
1551	1.5422e+02	-18.2433	-67.650284	0.000132	1.317504	0.446383	0.000053
1552	1.5432e+02	-18.1936	-67.601838	0.000122	1.216158	0.412045	0.000049
1553	1.5442e+02	-18.1647	-67.500910	0.000253	2.533662	0.858428	0.000101
1554	1.5452e+02	-18.1326	-67.339424	0.000405	4.053859	1.373485	0.000162
1555	1.5462e+02	-18.0829	-67.238496	0.000253	2.533662	0.858428	0.000101
1556	1.5472e+02	-18.0412	-67.190050	0.000122	1.216158	0.412045	0.000049
1557	1.5482e+02	-18.0139	-67.068936	0.000304	3.040395	1.030114	0.000122
1558	1.5492e+02	-17.9610	-67.004342	0.000162	1.621544	0.549394	0.000065
1559	1.5502e+02	-17.9337	-66.907451	0.000243	2.432316	0.824091	0.000097
1560	1.5512e+02	-17.8856	-66.830745	0.000193	1.925583	0.652405	0.000077
1561	1.5522e+02	-17.8503	-66.737891	0.000233	2.330969	0.789754	0.000093
1562	1.5532e+02	-17.8070	-66.636962	0.000253	2.533662	0.858428	0.000101
1563	1.5542e+02	-17.7765	-66.519886	0.000294	2.939048	0.995776	0.000118
1564	1.5552e+02	-17.7204	-66.467403	0.000132	1.317504	0.446383	0.000053
1565	1.5562e+02	-17.6963	-66.394734	0.000182	1.824237	0.618068	0.000073
1566	1.5572e+02	-17.6514	-66.330140	0.000162	1.621544	0.549394	0.000065
1567	1.5582e+02	-17.6161	-66.225175	0.000264	2.635009	0.892765	0.000105
1568	1.5592e+02	-17.5744	-66.168655	0.000142	1.418851	0.480720	0.000057
1569	1.5602e+02	-17.5166	-66.051578	0.000294	2.939048	0.995776	0.000118
1570	1.5612e+02	-17.4974	-65.942575	0.000274	2.736355	0.927102	0.000110
1571	1.5622e+02	-17.4444	-65.861832	0.000203	2.026930	0.686742	0.000081
1572	1.5631e+02	-17.4075	-65.760904	0.000253	2.533662	0.858428	0.000101
1573	1.5641e+02	-17.3787	-65.627679	0.000334	3.344434	1.133125	0.000134
1574	1.5651e+02	-17.3305	-65.482342	0.000365	3.648473	1.236136	0.000146
1575	1.5661e+02	-17.2888	-65.441970	0.000101	1.013465	0.343371	0.000041
1576	1.5671e+02	-17.2487	-65.328931	0.000284	2.837702	0.961439	0.000114
1577	1.5681e+02	-17.2166	-65.264336	0.000162	1.621544	0.549394	0.000065
1578	1.5691e+02	-17.1733	-65.131111	0.000334	3.344434	1.133125	0.000134
1579	1.5701e+02	-17.1332	-65.046331	0.000213	2.128276	0.721079	0.000085
1580	1.5711e+02	-17.0835	-64.953477	0.000233	2.330969	0.789754	0.000093
1581	1.5721e+02	-17.0530	-64.872734	0.000203	2.026930	0.686742	0.000081
1582	1.5731e+02	-17.0097	-64.812177	0.000152	1.520197	0.515057	0.000061
1583	1.5741e+02	-16.9583	-64.707212	0.000264	2.635009	0.892765	0.000105
1584	1.5751e+02	-16.9311	-64.618395	0.000223	2.229623	0.755417	0.000089
1585	1.5761e+02	-16.8878	-64.549763	0.000172	1.722890	0.583731	0.000069
1586	1.5771e+02	-16.8557	-64.444798	0.000264	2.635009	0.892765	0.000105
1587	1.5781e+02	-16.8027	-64.339832	0.000264	2.635009	0.892765	0.000105
1588	1.5791e+02	-16.7658	-64.246978	0.000233	2.330969	0.789754	0.000093
1589	1.5801e+02	-16.7321	-64.166235	0.000203	2.026930	0.686742	0.000081
1590	1.5811e+02	-16.7001	-64.037047	0.000324	3.243087	1.098788	0.000130
1591	1.5821e+02	-16.6503	-63.936119	0.000253	2.533662	0.858428	0.000101
1592	1.5830e+02	-16.6118	-63.790782	0.000365	3.648473	1.236136	0.000146
1593	1.5840e+02	-16.5797	-63.718113	0.000182	1.824237	0.618068	0.000073
1594	1.5850e+02	-16.5332	-63.629296	0.000223	2.229623	0.755417	0.000089
1595	1.5860e+02	-16.4931	-63.500108	0.000324	3.243087	1.098788	0.000130
1596	1.5870e+02	-16.4546	-63.427440	0.000182	1.824237	0.618068	0.000073
1597	1.5880e+02	-16.4129	-63.346697	0.000203	2.026930	0.686742	0.000081
1598	1.5890e+02	-16.3760	-63.241731	0.000264	2.635009	0.892765	0.000105
1599	1.5900e+02	-16.3311	-63.185211	0.000142	1.418851	0.480720	0.000057
1600	1.5910e+02	-16.2942	-63.072172	0.000284	2.837702	0.961439	0.000114
1601	1.5920e+02	-16.2589	-62.999503	0.000182	1.824237	0.618068	0.000073
1602	1.5930e+02	-16.2124	-62.886463	0.000284	2.837702	0.961439	0.000114
1603	1.5940e+02	-16.1755	-62.781498	0.000264	2.635009	0.892765	0.000105
1604	1.5950e+02	-16.1322	-62.688644	0.000233	2.330969	0.789754	0.000093
1605	1.5960e+02	-16.0921	-62.595790	0.000233	2.330969	0.789754	0.000093
1606	1.5970e+02	-16.0552	-62.498898	0.000243	2.432316	0.824091	0.000097
1607	1.5980e+02	-16.0167	-62.410081	0.000223	2.229623	0.755417	0.000089
1608	1.5990e+02	-15.9750	-62.288967	0.000304	3.040395	1.030114	0.000122
1609	1.6000e+02	-15.9381	-62.228410	0.000152	1.520197	0.515057	0.000061
1610	1.6010e+02	-15.8963	-62.062888	0.000416	4.155206	1.407822	0.000166
1611	1.6019e+02	-15.8578	-61.978108	0.000213	2.128276	0.721079	0.000085
1612	1.6029e+02	-15.8193	-61.869105	0.000274	2.736355	0.927102	0.000110
1613	1.6039e+02	-15.7776	-61.747991	0.000304	3.040395	1.030114	0.000122
1614	1.6049e+02	-15.7295	-61.643026	0.000264	2.635009	0.892765	0.000105
1615	1.6059e+02	-15.6942	-61.558246	0.000213	2.128276	0.721079	0.000085
1616	1.6069e+02	-15.6589	-61.489614	0.000172	1.722890	0.583731	0.000069
1617	1.6079e+02	-15.6172	-61.384649	0.000264	2.635009	0.892765	0.000105
1618	1.6089e+02	-15.5771	-61.311980	0.000182	1.824237	0.618068	0.000073
1619	1.6099e+02	-15.5338	-61.235275	0.000193	1.925583	0.652405	0.000077
1620	1.6109e+02	-15.4905	-61.126272	0.000274	2.736355	0.927102	0.000110
1621	1.6119e+02	-15.4584	-61.013232	0.000284	2.837702	0.961439	0.000114
1622	1.6129e+02	-15.4199	-60.912304	0.000253	2.533662	0.858428	0.000101
1623	1.6139e+02	-15.3766	-60.803301	0.000274	2.736355	0.927102	0.000110
1624	1.6149e+02	-15.3429	-60.730633	0.000182	1.824237	0.618068	0.000073
1625	1.6159e+02	-15.2932	-60.585296	0.000365	3.648473	1.236136	0.000146
1626	1.6169e+02	-15.2530	-60.468219	0.000294	2.939048	0.995776	0.000118
1627	1.6179e+02	-15.2097	-60.343068	0.000314	3.141741	1.064451	0.000126
1628	1.6189e+02	-15.1776	-60.258288	0.000213	2.128276	0.721079	0.000085
1629	1.6199e+02	-15.1343	-60.121025	0.000345	3.445780	1.167462	0.000138
1630	1.6209e+02	-15.1071	-60.020097	0.000253	2.533662	0.858428	0.000101
1631	1.6219e+02	-15.0605	-59.927243	0.000233	2.330969	0.789754	0.000093
1632	1.6228e+02	-15.0172	-59.838426	0.000223	2.229623	0.755417	0.000089
1633	1.6238e+02	-14.9595	-59.789980	0.000122	1.216158	0.412045	0.000049
1634	1.6248e+02	-14.9306	-59.680978	0.000274	2.736355	0.927102	0.000110
1635	1.6258e+02	-14.9017	-59.576012	0.000264	2.635009	0.892765	0.000105
1636	1.6268e+02	-14.8600	-59.495269	0.000203	2.026930	0.686742	0.000081
1637	1.6278e+02	-14.8183	-59.362044	0.000334	3.344434	1.133125	0.000134
1638	1.6288e+02	-14.7734	-59.261115	0.000253	2.533662	0.858428	0.000101
1639	1.6298e+02	-14.7285	-59.192484	0.000172	1.722890	0.583731	0.000069
1640	1.6308e+02	-14.7012	-59.079444	0.000284	2.837702	0.961439	0.000114
1641	1.6318e+02	-14.6643	-58.974479	0.000264	2.635009	0.892765	0.000105
1642	1.6328e+02	-14.6178	-58.881625	0.000233	2.330969	0.789754	0.000093
1643	1.6338e+02	-14.5857	-58.744362	0.000345	3.445780	1.167462	0.000138
1644	1.6348e+02	-14.5424	-58.631322	0.000284	2.837702	0.961439	0.000114
1645	1.6358e+02	-14.5039	-58.506171	0.000314	3.141741	1.064451	0.000126
1646	1.6368e+02	-14.4557	-58.421391	0.000213	2.128276	0.721079	0.000085
1647	1.6378e+02	-14.4188	-58.312389	0.000274	2.736355	0.927102	0.000110
1648	1.6388e+02	-14.3932	-58.219534	0.000233	2.330969	0.789754	0.000093
1649	1.6398e+02	-14.3386	-58.094383	0.000314	3.141741	1.064451	0.000126
1650	1.6408e+02	-14.2969	-58.009603	0.000213	2.128276	0.721079	0.000085
1651	1.6418e+02	-14.2632	-57.965195	0.000111	1.114811	0.377708	0.000045
1652	1.6427e+02	-14.2231	-57.840044	0.000314	3.141741	1.064451	0.000126
1653	1.6437e+02	-14.1814	-57.727004	0.000284	2.837702	0.961439	0.000114
1654	1.6447e+02	-14.1397	-57.646261	0.000203	2.026930	0.686742	0.000081
1655	1.6457e+02	-14.0916	-57.521110	0.000314	3.141741	1.064451	0.000126
1656	1.6467e+02	-14.0611	-57.420182	0.000253	2.533662	0.858428	0.000101
1657	1.6477e+02	-14.0162	-57.307142	0.000284	2.837702	0.961439	0.000114
1658	1.6487e+02	-13.9873	-57.230436	0.000193	1.925583	0.652405	0.000077
1659	1.6497e+02	-13.9488	-57.121434	0.000274	2.736355	0.927102	0.000110
1660	1.6507e+02	-13.9023	-57.004357	0.000294	2.939048	0.995776	0.000118
1661	1.6517e+02	-13.8670	-56.863057	0.000355	3.547127	1.201799	0.000142
1662	1.6527e+02	-13.8173	-56.814611	0.000122	1.216158	0.412045	0.000049
1663	1.6537e+02	-13.7900	-56.665237	0.000375	3.749820	1.270473	0.000150
1664	1.6547e+02	-13.7435	-56.499715	0.000416	4.155206	1.407822	0.000166
1665	1.6557e+02	-13.7082	-56.459343	0.000101	1.013465	0.343371	0.000041
1666	1.6567e+02	-13.6568	-56.390712	0.000172	1.722890	0.583731	0.000069
1667	1.6577e+02	-13.6231	-56.289784	0.000253	2.533662	0.858428	0.000101
1668	1.6587e+02	-13.5766	-56.209041	0.000203	2.026930	0.686742	0.000081
1669	1.6597e+02	-13.5429	-56.059667	0.000375	3.749820	1.270473	0.000150
1670	1.6607e+02	-13.5012	-55.918367	0.000355	3.547127	1.201799	0.000142
1671	1.6616e+02	-13.4675	-55.841662	0.000193	1.925583	0.652405	0.000077
1672	1.6626e+02	-13.4258	-55.748807	0.000233	2.330969	0.789754	0.000093
1673	1.6636e+02	-13.3793	-55.688250	0.000152	1.520197	0.515057	0.000061
1674	1.6646e+02	-13.3456	-55.526765	0.000405	4.053859	1.373485	0.000162
1675	1.6656e+02	-13.2991	-55.433911	0.000233	2.330969	0.789754	0.000093
1676	1.6666e+02	-13.2702	-55.349131	0.000213	2.128276	0.721079	0.000085
1677	1.6676e+02	-13.2285	-55.207831	0.000355	3.547127	1.201799	0.000142
1678	1.6686e+02	-13.1820	-55.086717	0.000304	3.040395	1.030114	0.000122
1679	1.6696e+02	-13.1371	-54.949455	0.000345	3.445780	1.167462	0.000138
1680	1.6706e+02	-13.1146	-54.824303	0.000314	3.141741	1.064451	0.000126
1681	1.6716e+02	-13.0681	-54.715301	0.000274	2.736355	0.927102	0.000110
1682	1.6726e+02	-13.0248	-54.634558	0.000203	2.026930	0.686742	0.000081
1683	1.6736e+02	-12.9863	-54.489221	0.000365	3.648473	1.236136	0.000146
1684	1.6746e+02	-12.9510	-54.412515	0.000193	1.925583	0.652405	0.000077
1685	1.6756e+02	-12.9044	-54.327736	0.000213	2.128276	0.721079	0.000085
1686	1.6766e+02	-12.8611	-54.246993	0.000203	2.026930	0.686742	0.000081
1687	1.6776e+02	-12.8226	-54.113767	0.000334	3.344434	1.133125	0.000134
1688	1.6786e+02	-12.7809	-54.037062	0.000193	1.925583	0.652405	0.000077
1689	1.6796e+02	-12.7504	-53.903836	0.000334	3.344434	1.133125	0.000134
1690	1.6806e+02	-12.7103	-53.798871	0.000264	2.635009	0.892765	0.000105
1691	1.6816e+02	-12.6686	-53.706017	0.000233	2.330969	0.789754	0.000093
1692	1.6825e+02	-12.6269	-53.592977	0.000284	2.837702	0.961439	0.000114
1693	1.6835e+02	-12.5916	-53.435529	0.000395	3.952513	1.339148	0.000158
1694	1.6845e+02	-12.5563	-53.334600	0.000253	2.533662	0.858428	0.000101
1695	1.6855e+02	-12.5050	-53.173115	0.000405	4.053859	1.373485	0.000162
1696	1.6865e+02	-12.4649	-53.100446	0.000182	1.824237	0.618068	0.000073
1697	1.6875e+02	-12.4296	-52.979332	0.000304	3.040395	1.030114	0.000122
1698	1.6885e+02	-12.3815	-52.850144	0.000324	3.243087	1.098788	0.000130
1699	1.6895e+02	-12.3494	-52.757290	0.000233	2.330969	0.789754	0.000093
1700	1.6905e+02	-12.3205	-52.632139	0.000314	3.141741	1.064451	0.000126
1701	1.6915e+02	-12.2772	-52.531210	0.000253	2.533662	0.858428	0.000101
1702	1.6925e+02	-12.2243	-52.414133	0.000294	2.939048	0.995776	0.000118
1703	1.6935e+02	-12.1938	-52.341465	0.000182	1.824237	0.618068	0.000073
1704	1.6945e+02	-12.1537	-52.276871	0.000162	1.621544	0.549394	0.000065
1705	1.6955e+02	-12.1136	-52.123460	0.000385	3.851166	1.304810	0.000154
1706	1.6965e+02	-12.0767	-52.042717	0.000203	2.026930	0.686742	0.000081
1707	1.6975e+02	-12.0173	-51.869120	0.000436	4.357899	1.476496	0.000174
1708	1.6985e+02	-11.9997	-51.836823	0.000081	0.810772	0.274697	0.000032
1709	1.6995e+02	-11.9563	-51.683412	0.000385	3.851166	1.304810	0.000154
1710	1.7005e+02	-11.9050	-51.590558	0.000233	2.330969	0.789754	0.000093
1711	1.7015e+02	-11.8729	-51.477518	0.000284	2.837702	0.961439	0.000114
1712	1.7024e+02	-11.8408	-51.283735	0.000486	4.864631	1.648182	0.000195
1713	1.7034e+02	-11.7927	-51.190881	0.000233	2.330969	0.789754	0.000093
1714	1.7044e+02	-11.7414	-51.053619	0.000345	3.445780	1.167462	0.000138
1715	1.7054e+02	-11.7189	-50.968839	0.000213	2.128276	0.721079	0.000085
1716	1.7064e+02	-11.6724	-50.827539	0.000355	3.547127	1.201799	0.000142
1717	1.7074e+02	-11.6339	-50.657979	0.000426	4.256552	1.442159	0.000170
1718	1.7084e+02	-11.5906	-50.597422	0.000152	1.520197	0.515057	0.000061
1719	1.7094e+02	-11.5569	-50.496494	0.000253	2.533662	0.858428	0.000101
1720	1.7104e+02	-11.5184	-50.359231	0.000345	3.445780	1.167462	0.000138
1721	1.7114e+02	-11.4799	-50.266377	0.000233	2.330969	0.789754	0.000093
1722	1.7124e+02	-11.4253	-50.181597	0.000213	2.128276	0.721079	0.000085
1723	1.7134e+02	-11.3852	-50.096817	0.000213	2.128276	0.721079	0.000085
1724	1.7144e+02	-11.3580	-49.983778	0.000284	2.837702	0.961439	0.000114
1725	1.7154e+02	-11.3130	-49.862664	0.000304	3.040395	1.030114	0.000122
1726	1.7164e+02	-11.2762	-49.697141	0.000416	4.155206	1.407822	0.000166
1727	1.7174e+02	-11.2328	-49.604287	0.000233	2.330969	0.789754	0.000093
1728	1.7184e+02	-11.1943	-49.479136	0.000314	3.141741	1.064451	0.000126
1729	1.7194e+02	-11.1574	-49.349947	0.000324	3.243087	1.098788	0.000130
1730	1.7204e+02	-11.1109	-49.208648	0.000355	3.547127	1.201799	0.000142
1731	1.7213e+02	-11.0676	-49.099645	0.000274	2.736355	0.927102	0.000110
1732	1.7223e+02	-11.0371	-48.966419	0.000334	3.344434	1.133125	0.000134
1733	1.7233e+02	-11.0066	-48.821082	0.000365	3.648473	1.236136	0.000146
1734	1.7243e+02	-10.9553	-48.712080	0.000274	2.736355	0.927102	0.000110
1735	1.7253e+02	-10.9168	-48.578854	0.000334	3.344434	1.133125	0.000134
1736	1.7263e+02	-10.8783	-48.421406	0.000395	3.952513	1.339148	0.000158
1737	1.7273e+02	-10.8366	-48.348738	0.000182	1.824237	0.618068	0.000073
1738	1.7283e+02	-10.7853	-48.223586	0.000314	3.141741	1.064451	0.000126
1739	1.7293e+02	-10.7532	-48.114584	0.000274	2.736355	0.927102	0.000110
1740	1.7303e+02	-10.7147	-47.997507	0.000294	2.939048	0.995776	0.000118
1741	1.7313e+02	-10.6842	-47.908690	0.000223	2.229623	0.755417	0.000089
1742	1.7323e+02	-10.6393	-47.771427	0.000345	3.445780	1.167462	0.000138
1743	1.7333e+02	-10.5895	-47.650313	0.000304	3.040395	1.030114	0.000122
1744	1.7343e+02	-10.5575	-47.537273	0.000284	2.837702	0.961439	0.000114
1745	1.7353e+02	-10.5190	-47.395974	0.000355	3.547127	1.201799	0.000142
1746	1.7363e+02	-10.4821	-47.286971	0.000274	2.736355	0.927102	0.000110
1747	1.7373e+02	-10.4387	-47.085114	0.000507	5.067324	1.716856	0.000203
1748	1.7383e+02	-10.4051	-46.988223	0.000243	2.432316	0.824091	0.000097
1749	1.7393e+02	-10.3585	-46.830775	0.000395	3.952513	1.339148	0.000158
1750	1.7403e+02	-10.3136	-46.741958	0.000223	2.229623	0.755417	0.000089
1751	1.7413e+02	-10.2815	-46.616806	0.000314	3.141741	1.064451	0.000126
1752	1.7422e+02	-10.2286	-46.479544	0.000345	3.445780	1.167462	0.000138
1753	1.7432e+02	-10.1885	-46.362467	0.000294	2.939048	0.995776	0.000118
1754	1.7442e+02	-10.1692	-46.245390	0.000294	2.939048	0.995776	0.000118
1755	1.7452e+02	-10.1259	-46.128313	0.000294	2.939048	0.995776	0.000118
1756	1.7462e+02	-10.0778	-45.970865	0.000395	3.952513	1.339148	0.000158
1757	1.7472e+02	-10.0409	-45.865899	0.000264	2.635009	0.892765	0.000105
1758	1.7482e+02	-9.9912	-45.813416	0.000132	1.317504	0.446383	0.000053
1759	1.7492e+02	-9.9511	-45.680191	0.000334	3.344434	1.133125	0.000134
1760	1.7502e+02	-9.9126	-45.526780	0.000385	3.851166	1.304810	0.000154
1761	1.7512e+02	-9.8724	-45.429888	0.000243	2.432316	0.824091	0.000097
1762	1.7522e+02	-9.8323	-45.320886	0.000274	2.736355	0.927102	0.000110
1763	1.7532e+02	-9.8067	-45.135178	0.000466	4.661938	1.579507	0.000187
1764	1.7542e+02	-9.7521	-44.973692	0.000405	4.053859	1.373485	0.000162
1765	1.7552e+02	-9.7233	-44.876801	0.000243	2.432316	0.824091	0.000097
1766	1.7562e+02	-9.6703	-44.727427	0.000375	3.749820	1.270473	0.000150
1767	1.7572e+02	-9.6414	-44.602276	0.000314	3.141741	1.064451	0.000126
1768	1.7582e+02	-9.6078	-44.501347	0.000253	2.533662	0.858428	0.000101
1769	1.7592e+02	-9.5628	-44.400419	0.000253	2.533662	0.858428	0.000101
1770	1.7602e+02	-9.5211	-44.230859	0.000426	4.256552	1.442159	0.000170
1771	1.7612e+02	-9.4890	-44.113782	0.000294	2.939048	0.995776	0.000118
1772	1.7621e+02	-9.4473	-44.008817	0.000264	2.635009	0.892765	0.000105
1773	1.7631e+02	-9.4056	-43.855406	0.000385	3.851166	1.304810	0.000154
1774	1.7641e+02	-9.3511	-43.778700	0.000193	1.925583	0.652405	0.000077
1775	1.7651e+02	-9.3158	-43.657586	0.000304	3.040395	1.030114	0.000122
1776	1.7661e+02	-9.2773	-43.536472	0.000304	3.040395	1.030114	0.000122
1777	1.7671e+02	-9.2404	-43.407283	0.000324	3.243087	1.098788	0.000130
1778	1.7681e+02	-9.1955	-43.253872	0.000385	3.851166	1.304810	0.000154
1779	1.7691e+02	-9.1618	-43.128721	0.000314	3.141741	1.064451	0.000126
1780	1.7701e+02	-9.1249	-42.975310	0.000385	3.851166	1.304810	0.000154
1781	1.7711e+02	-9.0784	-42.862270	0.000284	2.837702	0.961439	0.000114
1782	1.7721e+02	-9.0415	-42.741156	0.000304	3.040395	1.030114	0.000122
1783	1.7731e+02	-9.0062	-42.579671	0.000405	4.053859	1.373485	0.000162
1784	1.7741e+02	-8.9612	-42.478742	0.000253	2.533662	0.858428	0.000101
1785	1.7751e+02	-8.9179	-42.313220	0.000416	4.155206	1.407822	0.000166
1786	1.7761e+02	-8.8874	-42.232477	0.000203	2.026930	0.686742	0.000081
1787	1.7771e+02	-8.8425	-42.066954	0.000416	4.155206	1.407822	0.000166
1788	1.7781e+02	-8.8024	-41.929692	0.000345	3.445780	1.167462	0.000138
1789	1.7791e+02	-8.7591	-41.784355	0.000365	3.648473	1.236136	0.000146
1790	1.7801e+02	-8.7254	-41.699575	0.000213	2.128276	0.721079	0.000085
1791	1.7810e+02	-8.6789	-41.558275	0.000355	3.547127	1.201799	0.000142
1792	1.7820e+02	-8.6340	-41.461384	0.000243	2.432316	0.824091	0.000097
1793	1.7830e+02	-8.5923	-41.312010	0.000375	3.749820	1.270473	0.000150
1794	1.7840e+02	-8.5682	-41.166673	0.000365	3.648473	1.236136	0.000146
1795	1.7850e+02	-8.5233	-41.009225	0.000395	3.952513	1.339148	0.000158
1796	1.7860e+02	-8.4848	-40.896185	0.000284	2.837702	0.961439	0.000114
1797	1.7870e+02	-8.4447	-40.771034	0.000314	3.141741	1.064451	0.000126
1798	1.7880e+02	-8.4014	-40.625697	0.000365	3.648473	1.236136	0.000146
1799	1.7890e+02	-8.3693	-40.472286	0.000385	3.851166	1.304810	0.000154
1800	1.7900e+02	-8.3196	-40.339060	0.000334	3.344434	1.133125	0.000134
1801	1.7910e+02	-8.2762	-40.193723	0.000365	3.648473	1.236136	0.000146
1802	1.7920e+02	-8.2393	-40.088758	0.000264	2.635009	0.892765	0.000105
1803	1.7930e+02	-8.2089	-39.903050	0.000466	4.661938	1.579507	0.000187
1804	1.7940e+02	-8.1688	-39.806158	0.000243	2.432316	0.824091	0.000097
1805	1.7950e+02	-8.1254	-39.701193	0.000264	2.635009	0.892765	0.000105
1806	1.7960e+02	-8.0918	-39.543745	0.000395	3.952513	1.339148	0.000158
1807	1.7970e+02	-8.0468	-39.434742	0.000274	2.736355	0.927102	0.000110
1808	1.7980e+02	-8.0035	-39.309591	0.000314	3.141741	1.064451	0.000126
1809	1.7990e+02	-7.9618	-39.208662	0.000253	2.533662	0.858428	0.000101
1810	1.8000e+02	-7.9233	-39.006806	0.000507	5.067324	1.716856	0.000203
1811	1.8009e+02	-7.8832	-38.909914	0.000243	2.432316	0.824091	0.000097
1812	1.8019e+02	-7.8351	-38.768614	0.000355	3.547127	1.201799	0.000142
1813	1.8029e+02	-7.8126	-38.623278	0.000365	3.648473	1.236136	0.000146
1814	1.8039e+02	-7.7661	-38.506201	0.000294	2.939048	0.995776	0.000118
1815	1.8049e+02	-7.7260	-38.348752	0.000395	3.952513	1.339148	0.000158
1816	1.8059e+02	-7.6939	-38.219564	0.000324	3.243087	1.098788	0.000130
1817	1.8069e+02	-7.6490	-38.098450	0.000304	3.040395	1.030114	0.000122
1818	1.8079e+02	-7.6089	-37.981373	0.000294	2.939048	0.995776	0.000118
1819	1.8089e+02	-7.5688	-37.819888	0.000405	4.053859	1.373485	0.000162
1820	1.8099e+02	-7.5335	-37.674551	0.000365	3.648473	1.236136	0.000146
1821	1.8109e+02	-7.4805	-37.537288	0.000345	3.445780	1.167462	0.000138
1822	1.8119e+02	-7.4420	-37.408100	0.000324	3.243087	1.098788	0.000130
1823	1.8129e+02	-7.4083	-37.282949	0.000314	3.141741	1.064451	0.000126
1824	1.8139e+02	-7.3763	-37.125500	0.000395	3.952513	1.339148	0.000158
1825	1.8149e+02	-7.3329	-36.996312	0.000324	3.243087	1.098788	0.000130
1826	1.8159e+02	-7.2848	-36.887309	0.000274	2.736355	0.927102	0.000110
1827	1.8169e+02	-7.2447	-36.701601	0.000466	4.661938	1.579507	0.000187
1828	1.8179e+02	-7.2030	-36.580487	0.000304	3.040395	1.030114	0.000122
1829	1.8189e+02	-7.1677	-36.455336	0.000314	3.141741	1.064451	0.000126
1830	1.8199e+02	-7.1324	-36.305962	0.000375	3.749820	1.270473	0.000150
1831	1.8209e+02	-7.0891	-36.209070	0.000243	2.432316	0.824091	0.000097
1832	1.8218e+02	-7.0458	-36.023362	0.000466	4.661938	1.579507	0.000187
1833	1.8228e+02	-7.0009	-35.882062	0.000355	3.547127	1.201799	0.000142
1834	1.8238e+02	-6.9768	-35.773060	0.000274	2.736355	0.927102	0.000110
1835	1.8248e+02	-6.9158	-35.631760	0.000355	3.547127	1.201799	0.000142
1836	1.8258e+02	-6.8918	-35.482386	0.000375	3.749820	1.270473	0.000150
1837	1.8268e+02	-6.8517	-35.337049	0.000365	3.648473	1.236136	0.000146
1838	1.8278e+02	-6.8100	-35.232084	0.000264	2.635009	0.892765	0.000105
1839	1.8288e+02	-6.7843	-35.078672	0.000385	3.851166	1.304810	0.000154
1840	1.8298e+02	-6.7265	-34.937373	0.000355	3.547127	1.201799	0.000142
1841	1.8308e+02	-6.6864	-34.796073	0.000355	3.547127	1.201799	0.000142
1842	1.8318e+02	-6.6544	-34.594216	0.000507	5.067324	1.716856	0.000203
1843	1.8328e+02	-6.6078	-34.460991	0.000334	3.344434	1.133125	0.000134
1844	1.8338e+02	-6.5709	-34.299505	0.000405	4.053859	1.373485	0.000162
1845	1.8348e+02	-6.5324	-34.174354	0.000314	3.141741	1.064451	0.000126
1846	1.8358e+02	-6.4923	-34.057277	0.000294	2.939048	0.995776	0.000118
1847	1.8368e+02	-6.4474	-33.932126	0.000314	3.141741	1.064451	0.000126
1848	1.8378e+02	-6.4169	-33.798900	0.000334	3.344434	1.133125	0.000134
1849	1.8388e+02	-6.3736	-33.673749	0.000314	3.141741	1.064451	0.000126
1850	1.8398e+02	-6.3303	-33.536487	0.000345	3.445780	1.167462	0.000138
1851	1.8407e+02	-6.2950	-33.407298	0.000324	3.243087	1.098788	0.000130
1852	1.8417e+02	-6.2517	-33.278110	0.000324	3.243087	1.098788	0.000130
1853	1.8427e+02	-6.2100	-33.112587	0.000416	4.155206	1.407822	0.000166
1854	1.8437e+02	-6.1763	-32.947065	0.000416	4.155206	1.407822	0.000166
1855	1.8447e+02	-6.1250	-32.777505	0.000426	4.256552	1.442159	0.000170
1856	1.8457e+02	-6.0977	-32.652354	0.000314	3.141741	1.064451	0.000126
1857	1.8467e+02	-6.0576	-32.470683	0.000456	4.560592	1.545170	0.000183
1858	1.8477e+02	-6.0175	-32.345532	0.000314	3.141741	1.064451	0.000126
1859	1.8487e+02	-5.9806	-32.171935	0.000436	4.357899	1.476496	0.000174
1860	1.8497e+02	-5.9373	-32.006412	0.000416	4.155206	1.407822	0.000166
1861	1.8507e+02	-5.8956	-31.861075	0.000365	3.648473	1.236136	0.000146
1862	1.8517e+02	-5.8490	-31.711701	0.000375	3.749820	1.270473	0.000150
1863	1.8527e+02	-5.8202	-31.530030	0.000456	4.560592	1.545170	0.000183
1864	1.8537e+02	-5.7801	-31.433139	0.000243	2.432316	0.824091	0.000097
1865	1.8547e+02	-5.7335	-31.316062	0.000294	2.939048	0.995776	0.000118
1866	1.8557e+02	-5.6838	-31.162651	0.000385	3.851166	1.304810	0.000154
1867	1.8567e+02	-5.6645	-31.057685	0.000264	2.635009	0.892765	0.000105
1868	1.8577e+02	-5.6196	-30.880051	0.000446	4.459245	1.510833	0.000179
1869	1.8587e+02	-5.5715	-30.767011	0.000284	2.837702	0.961439	0.000114
1870	1.8597e+02	-5.5282	-30.569192	0.000497	4.965978	1.682519	0.000199
1871	1.8606e+02	-5.4913	-30.419818	0.000375	3.749820	1.270473	0.000150
1872	1.8616e+02	-5.4544	-30.254295	0.000416	4.155206	1.407822	0.000166
1873	1.8626e+02	-5.4175	-30.092810	0.000405	4.053859	1.373485	0.000162
1874	1.8636e+02	-5.3806	-29.939399	0.000385	3.851166	1.304810	0.000154
1875	1.8646e+02	-5.3437	-29.806173	0.000334	3.344434	1.133125	0.000134
1876	1.8656e+02	-5.2956	-29.656799	0.000375	3.749820	1.270473	0.000150
1877	1.8666e+02	-5.2555	-29.463017	0.000486	4.864631	1.648182	0.000195
1878	1.8676e+02	-5.2154	-29.321717	0.000355	3.547127	1.201799	0.000142
1879	1.8686e+02	-5.1897	-29.188491	0.000334	3.344434	1.133125	0.000134
1880	1.8696e+02	-5.1416	-29.031043	0.000395	3.952513	1.339148	0.000158
1881	1.8706e+02	-5.0950	-28.869558	0.000405	4.053859	1.373485	0.000162
1882	1.8716e+02	-5.0565	-28.724221	0.000365	3.648473	1.236136	0.000146
1883	1.8726e+02	-5.0180	-28.615218	0.000274	2.736355	0.927102	0.000110
1884	1.8736e+02	-4.9731	-28.421436	0.000486	4.864631	1.648182	0.000195
1885	1.8746e+02	-4.9362	-28.272062	0.000375	3.749820	1.270473	0.000150
1886	1.8756e+02	-4.9041	-28.199393	0.000182	1.824237	0.618068	0.000073
1887	1.8766e+02	-4.8576	-27.997536	0.000507	5.067324	1.716856	0.000203
1888	1.8776e+02	-4.8175	-27.819902	0.000446	4.459245	1.510833	0.000179
1889	1.8786e+02	-4.7822	-27.654380	0.000416	4.155206	1.407822	0.000166
1890	1.8796e+02	-4.7325	-27.492894	0.000405	4.053859	1.373485	0.000162
1891	1.8806e+02	-4.6988	-27.347557	0.000365	3.648473	1.236136	0.000146
1892	1.8815e+02	-4.6571	-27.186072	0.000405	4.053859	1.373485	0.000162
1893	1.8825e+02	-4.6170	-27.016512	0.000426	4.256552	1.442159	0.000170
1894	1.8835e+02	-4.5817	-26.834841	0.000456	4.560592	1.545170	0.000183
1895	1.8845e+02	-4.5416	-26.665282	0.000426	4.256552	1.442159	0.000170
1896	1.8855e+02	-4.5063	-26.507833	0.000395	3.952513	1.339148	0.000158
1897	1.8865e+02	-4.4710	-26.293865	0.000537	5.371364	1.819867	0.000215
1898	1.8875e+02	-4.4229	-26.176788	0.000294	2.939048	0.995776	0.000118
1899	1.8885e+02	-4.3731	-26.003191	0.000436	4.357899	1.476496	0.000174
1900	1.8895e+02	-4.3394	-25.869966	0.000334	3.344434	1.133125	0.000134
1901	1.8905e+02	-4.2993	-25.712518	0.000395	3.952513	1.339148	0.000158
1902	1.8915e+02	-4.2657	-25.607552	0.000264	2.635009	0.892765	0.000105
1903	1.8925e+02	-4.2223	-25.425881	0.000456	4.560592	1.545170	0.000183
1904	1.8935e+02	-4.1838	-25.232098	0.000486	4.864631	1.648182	0.000195
1905	1.8945e+02	-4.1405	-25.115021	0.000294	2.939048	0.995776	0.000118
1906	1.8955e+02	-4.1116	-24.937387	0.000446	4.459245	1.510833	0.000179
1907	1.8965e+02	-4.0571	-24.747642	0.000476	4.763285	1.613845	0.000191
1908	1.8975e+02	-4.0266	-24.590194	0.000395	3.952513	1.339148	0.000158
1909	1.8985e+02	-3.9817	-24.440820	0.000375	3.749820	1.270473	0.000150
1910	1.8995e+02	-3.9480	-24.202629	0.000598	5.979443	2.025890	0.000239
1911	1.9004e+02	-3.9047	-24.041143	0.000405	4.053859	1.373485	0.000162
1912	1.9014e+02	-3.8662	-23.867546	0.000436	4.357899	1.476496	0.000174
1913	1.9024e+02	-3.8197	-23.750470	0.000294	2.939048	0.995776	0.000118
1914	1.9034e+02	-3.7812	-23.552650	0.000497	4.965978	1.682519	0.000199
1915	1.9044e+02	-3.7427	-23.391164	0.000405	4.053859	1.373485	0.000162
1916	1.9054e+02	-3.7026	-23.213530	0.000446	4.459245	1.510833	0.000179
1917	1.9064e+02	-3.6753	-23.084342	0.000324	3.243087	1.098788	0.000130
1918	1.9074e+02	-3.6191	-22.910745	0.000436	4.357899	1.476496	0.000174
1919	1.9084e+02	-3.5806	-22.733111	0.000446	4.459245	1.510833	0.000179
1920	1.9094e+02	-3.5405	-22.502995	0.000578	5.776750	1.957216	0.000231
1921	1.9104e+02	-3.5052	-22.345546	0.000395	3.952513	1.339148	0.000158
1922	1.9114e+02	-3.4635	-22.184061	0.000405	4.053859	1.373485	0.000162
1923	1.9124e+02	-3.4058	-22.087170	0.000243	2.432316	0.824091	0.000097
1924	1.9134e+02	-3.3769	-21.889350	0.000497	4.965978	1.682519	0.000199
1925	1.9144e+02	-3.3448	-21.768236	0.000304	3.040395	1.030114	0.000122
1926	1.9154e+02	-3.3127	-21.566379	0.000507	5.067324	1.716856	0.000203
1927	1.9164e+02	-3.2710	-21.384708	0.000456	4.560592	1.545170	0.000183
1928	1.9174e+02	-3.2293	-21.231297	0.000385	3.851166	1.304810	0.000154
1929	1.9184e+02	-3.1812	-21.021366	0.000527	5.270017	1.785530	0.000211
1930	1.9194e+02	-3.1443	-20.888140	0.000334	3.344434	1.133125	0.000134
1931	1.9203e+02	-3.1106	-20.694358	0.000486	4.864631	1.648182	0.000195
1932	1.9213e+02	-3.0705	-20.476352	0.000547	5.472710	1.854204	0.000219
1933	1.9223e+02	-3.0336	-20.322941	0.000385	3.851166	1.304810	0.000154
1934	1.9233e+02	-2.9951	-20.157419	0.000416	4.155206	1.407822	0.000166
1935	1.9243e+02	-2.9518	-19.991896	0.000416	4.155206	1.407822	0.000166
1936	1.9253e+02	-2.9101	-19.826374	0.000416	4.155206	1.407822	0.000166
1937	1.9263e+02	-2.8652	-19.701222	0.000314	3.141741	1.064451	0.000126
1938	1.9273e+02	-2.8251	-19.467069	0.000588	5.878096	1.991553	0.000235
1939	1.9283e+02	-2.7930	-19.333843	0.000334	3.344434	1.133125	0.000134
1940	1.9293e+02	-2.7464	-19.119875	0.000537	5.371364	1.819867	0.000215
1941	1.9303e+02	-2.7047	-18.970501	0.000375	3.749820	1.270473	0.000150
1942	1.9313e+02	-2.6566	-18.760570	0.000527	5.270017	1.785530	0.000211
1943	1.9323e+02	-2.6325	-18.562750	0.000497	4.965978	1.682519	0.000199
1944	1.9333e+02	-2.5940	-18.417413	0.000365	3.648473	1.236136	0.000146
1945	1.9343e+02	-2.5491	-18.247854	0.000426	4.256552	1.442159	0.000170
1946	1.9353e+02	-2.5138	-18.074257	0.000436	4.357899	1.476496	0.000174
1947	1.9363e+02	-2.4689	-17.860289	0.000537	5.371364	1.819867	0.000215
1948	1.9373e+02	-2.4272	-17.702840	0.000395	3.952513	1.339148	0.000158
1949	1.9383e+02	-2.3903	-17.533281	0.000426	4.256552	1.442159	0.000170
1950	1.9393e+02	-2.3470	-17.347572	0.000466	4.661938	1.579507	0.000187
1951	1.9403e+02	-2.3101	-17.149753	0.000497	4.965978	1.682519	0.000199
1952	1.9412e+02	-2.2636	-16.955970	0.000486	4.864631	1.648182	0.000195
1953	1.9422e+02	-2.2347	-16.822745	0.000334	3.344434	1.133125	0.000134
1954	1.9432e+02	-2.1914	-16.616851	0.000517	5.168671	1.751193	0.000207
1955	1.9442e+02	-2.1513	-16.471514	0.000365	3.648473	1.236136	0.000146
1956	1.9452e+02	-2.1096	-16.265620	0.000517	5.168671	1.751193	0.000207
1957	1.9462e+02	-2.0775	-16.096060	0.000426	4.256552	1.442159	0.000170
1958	1.9472e+02	-2.0326	-15.890166	0.000517	5.168671	1.751193	0.000207
1959	1.9482e+02	-1.9989	-15.716569	0.000436	4.357899	1.476496	0.000174
1960	1.9492e+02	-1.9443	-15.526824	0.000476	4.763285	1.613845	0.000191
1961	1.9502e+02	-1.9138	-15.349190	0.000446	4.459245	1.510833	0.000179
1962	1.9512e+02	-1.8721	-15.143296	0.000517	5.168671	1.751193	0.000207
1963	1.9522e+02	-1.8336	-14.949514	0.000486	4.864631	1.648182	0.000195
1964	1.9532e+02	-1.7983	-14.808214	0.000355	3.547127	1.201799	0.000142
1965	1.9542e+02	-1.7566	-14.586171	0.000557	5.574057	1.888542	0.000223
1966	1.9552e+02	-1.7165	-14.420649	0.000416	4.155206	1.407822	0.000166
1967	1.9562e+02	-1.6716	-14.238978	0.000456	4.560592	1.545170	0.000183
1968	1.9572e+02	-1.6395	-14.061344	0.000446	4.459245	1.510833	0.000179
1969	1.9582e+02	-1.5914	-13.843338	0.000547	5.472710	1.854204	0.000219
1970	1.9592e+02	-1.5561	-13.677816	0.000416	4.155206	1.407822	0.000166
1971	1.9601e+02	-1.5144	-13.484033	0.000486	4.864631	1.648182	0.000195
1972	1.9611e+02	-1.4743	-13.274102	0.000527	5.270017	1.785530	0.000211
1973	1.9621e+02	-1.4374	-13.161063	0.000284	2.837702	0.961439	0.000114
1974	1.9631e+02	-1.4005	-12.930946	0.000578	5.776750	1.957216	0.000231
1975	1.9641e+02	-1.3556	-12.733126	0.000497	4.965978	1.682519	0.000199
1976	1.9651e+02	-1.3107	-12.531269	0.000507	5.067324	1.716856	0.000203
1977	1.9661e+02	-1.2722	-12.365747	0.000416	4.155206	1.407822	0.000166
1978	1.9671e+02	-1.2288	-12.139667	0.000568	5.675403	1.922879	0.000227
1979	1.9681e+02	-1.2000	-11.994330	0.000365	3.648473	1.236136	0.000146
1980	1.9691e+02	-1.1470	-11.828808	0.000416	4.155206	1.407822	0.000166
1981	1.9701e+02	-1.1133	-11.630988	0.000497	4.965978	1.682519	0.000199
1982	1.9711e+02	-1.0764	-11.441243	0.000476	4.763285	1.613845	0.000191
1983	1.9721e+02	-1.0331	-11.267646	0.000436	4.357899	1.476496	0.000174
1984	1.9731e+02	-0.9914	-11.061752	0.000517	5.168671	1.751193	0.000207
1985	1.9741e+02	-0.9593	-10.888155	0.000436	4.357899	1.476496	0.000174
1986	1.9751e+02	-0.9160	-10.702447	0.000466	4.661938	1.579507	0.000187
1987	1.9761e+02	-0.8759	-10.496553	0.000517	5.168671	1.751193	0.000207
1988	1.9771e+02	-0.8390	-10.282585	0.000537	5.371364	1.819867	0.000215
1989	1.9781e+02	-0.7989	-10.133211	0.000375	3.749820	1.270473	0.000150
1990	1.9791e+02	-0.7636	-9.939428	0.000486	4.864631	1.648182	0.000195
1991	1.9800e+02	-0.7155	-9.765831	0.000436	4.357899	1.476496	0.000174
1992	1.9810e+02	-0.6706	-9.559937	0.000517	5.168671	1.751193	0.000207
1993	1.9820e+02	-0.6369	-9.329821	0.000578	5.776750	1.957216	0.000231
1994	1.9830e+02	-0.5936	-9.127964	0.000507	5.067324	1.716856	0.000203
1995	1.9840e+02	-0.5567	-8.966478	0.000405	4.053859	1.373485	0.000162
1996	1.9850e+02	-0.5150	-8.800956	0.000416	4.155206	1.407822	0.000166
1997	1.9860e+02	-0.4749	-8.574876	0.000568	5.675403	1.922879	0.000227
1998	1.9870e+02	-0.4380	-8.389168	0.000466	4.661938	1.579507	0.000187
1999	1.9880e+02	-0.4075	-8.227683	0.000405	4.053859	1.373485	0.000162
2000	1.9890e+02	-0.3529	-8.066197	0.000405	4.053859	1.373485	0.000162
2001	1.9900e+02	-0.3160	-7.807821	0.000649	6.486175	2.197576	0.000260
2002	1.9910e+02	-0.2743	-7.650372	0.000395	3.952513	1.339148	0.000158
2003	1.9920e+02	-0.2262	-7.432367	0.000547	5.472710	1.854204	0.000219
2004	1.9930e+02	-0.1925	-7.287030	0.000365	3.648473	1.236136	0.000146
2005	1.9940e+02	-0.1604	-7.052876	0.000588	5.878096	1.991553	0.000235
2006	1.9950e+02	-0.1203	-6.855056	0.000497	4.965978	1.682519	0.000199
2007	1.9960e+02	-0.0818	-6.645125	0.000527	5.270017	1.785530	0.000211
2008	1.9970e+02	-0.0417	-6.519974	0.000314	3.141741	1.064451	0.000126
2009	1.9980e+02	0.0016	-6.265635	0.000314	3.141741	1.064451	0.000256

Center data before PMax,+/-Pr and +/-Vc Calc.

PMax (uC/cm2):	7.09e+01
Pr (uC/cm2):	2.23e+00
-Pr (uC/cm2):	-6.27e+00
PLoss (uC/cm2):	-3.17e+00
Vc:	6.97e-01
-Vc:	-4.45e-01
C (Max-Eff) (nF):	3.54e-01
K (Eff):	1.20e+03
Vert. (+/-Pr) Shift (uC/cm2):	-2.02e+00
Horiz. Shift (+/-Vc):	1.26e-01
Offset (uC/cm2):	3.08e+00

A (Loop Area - uC/cm2·Volts):	3.65e-02



Hysteresis Version: 5.48.1 - Radiant Technologies, Inc., 1999 - 9/12/24

