»»»»»»»»»»»»»»»»»»»»»»»»»»»»»»»»»»»» Hysteresis ««««««««««««««««««««««««««««««««««««
»»»  Executed Version:	5.48.1
»»»  Vision Version:	5.48.4 (R)
»»»  Vision Compiled:	9/18/24
»»»  Driver Version:	5.47.0
»»»  Windows Version:	Windows 8 or 8.1
»»»  Processor Information:	x86 (AMD or Intel) - 32 Processors
»»»  Tester Name:	PMF21124-494 (100V)
»»»  Tester S/N:	PMF21124-494
»»»  Internal Amp Type:	100V RevK 270k
»»»  Internal Amp S/N:	iAB2-596/K     
»»»  Execution Count:	1
»»»»»»»»»»»»»»»»»»»»»»»»»»»»»»»»»»»»»»»»»»««««««««««««««««««««««««««««««««««««««««««

Stored:	6/13/2025 - 14:42:36
Configured:	06/13/25 01:30:53 PM
Executed:	06/13/25 02:42:06 PM

»»»»»»»»»»»»»»»»»»»»»»»»»»»»»»»»»»» Sample Info ««««««««««««««««««««««««««««««««««««
Sample Name:	
Lot Name:	
Wafer Name:	
Die Row/Column:	0/0
Capacitor Number:	0
Sample Area (cm2):	1.00e-04
Sample Thickness (microns):	3.00e-01

Amplifier:	Internal

»»»»»»»»»»»»»»»»»»»»»»»»»»»»»»»»»»» Tester Info «««««««««««««««««««««««««««««««««««
Tester Name:	PMF21124-494 (100V)
Tester Serial Number:	PMF21124-494
Return Signal Amp. Level:	0.19 [Index: 3]

»»»»»»»»»»»»»»»»»»»»»»»»»»»»»»»» Hysteresis Info ««««««««««««««««««««««««««««««««««
Task Name:	Hyst-1922
Volts:	20.00
Field:	666.67 (kV/cm)
DCBias:	0.00
DCField:	0.00 (kV/cm)
Hysteresis Period (ms):	2.00e+02
Preset:	Enabled
Preset Delay (ms):	1.00e+03
Profile:	Standard Bipolar

»»»»»»»»»»»»»»»»»»»»»»»»»»»»»»»»»»»»»» Data «««««««««««««««««««««««««««««««««««««««
Points:	2009

Valid Data

Point	Time (ms)	Drive Voltage	Measured Polarization (uC/cm2)	Capacitance (uF)	Normalized Capacitance (uF/cm2)	Dielectric Constant	Instantaneous Current (mA)
   1	0.0000e+00	0.0128	-2.692770	0.000385	3.851630	1.304968	0.000154
   2	9.9500e-02	0.0353	-2.539358	0.000385	3.851630	1.304968	0.000154
   3	1.9900e-01	0.0754	-2.434393	0.000264	2.635326	0.892873	0.000105
   4	2.9850e-01	0.1123	-2.252722	0.000456	4.561141	1.545356	0.000183
   5	3.9800e-01	0.1556	-2.111422	0.000355	3.547554	1.201944	0.000142
   6	4.9750e-01	0.2005	-1.949937	0.000405	4.054347	1.373650	0.000162
   7	5.9700e-01	0.2374	-1.800563	0.000375	3.750271	1.270626	0.000150
   8	6.9650e-01	0.2727	-1.691560	0.000274	2.736684	0.927214	0.000110
   9	7.9600e-01	0.3128	-1.481629	0.000527	5.270651	1.785745	0.000211
  10	8.9550e-01	0.3433	-1.372626	0.000274	2.736684	0.927214	0.000110
  11	9.9500e-01	0.3898	-1.243438	0.000324	3.243478	1.098920	0.000130
  12	1.0945e+00	0.4251	-1.090027	0.000385	3.851630	1.304968	0.000154
  13	1.1940e+00	0.4700	-0.956801	0.000334	3.344836	1.133261	0.000134
  14	1.2935e+00	0.5101	-0.775130	0.000456	4.561141	1.545356	0.000183
  15	1.3930e+00	0.5454	-0.670165	0.000264	2.635326	0.892873	0.000105
  16	1.4925e+00	0.5888	-0.492531	0.000446	4.459782	1.511015	0.000179
  17	1.5920e+00	0.6257	-0.343157	0.000375	3.750271	1.270626	0.000150
  18	1.6915e+00	0.6674	-0.250302	0.000233	2.331250	0.789849	0.000093
  19	1.7910e+00	0.7075	-0.016149	0.000588	5.878804	1.991793	0.000235
  20	1.8905e+00	0.7492	0.141300	0.000395	3.952989	1.339309	0.000158
  21	1.9900e+00	0.7957	0.242228	0.000253	2.533967	0.858531	0.000101
  22	2.0895e+00	0.8326	0.431974	0.000476	4.763858	1.614039	0.000191
  23	2.1890e+00	0.8759	0.573273	0.000355	3.547554	1.201944	0.000142
  24	2.2885e+00	0.9192	0.738796	0.000416	4.155706	1.407991	0.000166
  25	2.3880e+00	0.9417	0.884133	0.000365	3.648913	1.236285	0.000146
  26	2.4875e+00	0.9930	1.021395	0.000345	3.446195	1.167603	0.000138
  27	2.5870e+00	1.0267	1.166732	0.000365	3.648913	1.236285	0.000146
  28	2.6865e+00	1.0780	1.328218	0.000405	4.054347	1.373650	0.000162
  29	2.7860e+00	1.1085	1.489703	0.000405	4.054347	1.373650	0.000162
  30	2.8855e+00	1.1518	1.626966	0.000345	3.446195	1.167603	0.000138
  31	2.9850e+00	1.1839	1.796525	0.000426	4.257065	1.442333	0.000170
  32	3.0845e+00	1.2385	1.949937	0.000385	3.851630	1.304968	0.000154
  33	3.1840e+00	1.2706	2.067013	0.000294	2.939402	0.995896	0.000118
  34	3.2835e+00	1.3058	2.196202	0.000324	3.243478	1.098920	0.000130
  35	3.3830e+00	1.3460	2.373836	0.000446	4.459782	1.511015	0.000179
  36	3.4825e+00	1.3925	2.515136	0.000355	3.547554	1.201944	0.000142
  37	3.5820e+00	1.4246	2.648361	0.000334	3.344836	1.133261	0.000134
  38	3.6815e+00	1.4599	2.870404	0.000557	5.574727	1.888769	0.000223
  39	3.7810e+00	1.5080	3.027852	0.000395	3.952989	1.339309	0.000158
  40	3.8805e+00	1.5449	3.185300	0.000395	3.952989	1.339309	0.000158
  41	3.9800e+00	1.5834	3.330637	0.000365	3.648913	1.236285	0.000146
  42	4.0795e+00	1.6251	3.463862	0.000334	3.344836	1.133261	0.000134
  43	4.1790e+00	1.6668	3.629385	0.000416	4.155706	1.407991	0.000166
  44	4.2785e+00	1.7085	3.794908	0.000416	4.155706	1.407991	0.000166
  45	4.3780e+00	1.7390	3.944282	0.000375	3.750271	1.270626	0.000150
  46	4.4775e+00	1.7855	4.129990	0.000466	4.662499	1.579698	0.000187
  47	4.5770e+00	1.8224	4.263215	0.000334	3.344836	1.133261	0.000134
  48	4.6765e+00	1.8577	4.428738	0.000416	4.155706	1.407991	0.000166
  49	4.7760e+00	1.9122	4.570038	0.000355	3.547554	1.201944	0.000142
  50	4.8755e+00	1.9395	4.679040	0.000274	2.736684	0.927214	0.000110
  51	4.9750e+00	1.9925	4.848600	0.000426	4.257065	1.442333	0.000170
  52	5.0745e+00	2.0294	5.002011	0.000385	3.851630	1.304968	0.000154
  53	5.1740e+00	2.0711	5.131200	0.000324	3.243478	1.098920	0.000130
  54	5.2735e+00	2.1128	5.272499	0.000355	3.547554	1.201944	0.000142
  55	5.3730e+00	2.1400	5.438022	0.000416	4.155706	1.407991	0.000166
  56	5.4725e+00	2.1914	5.664101	0.000568	5.676086	1.923110	0.000227
  57	5.5720e+00	2.2267	5.781178	0.000294	2.939402	0.995896	0.000118
  58	5.6715e+00	2.2636	5.983035	0.000507	5.067934	1.717063	0.000203
  59	5.7710e+00	2.2924	6.108186	0.000314	3.142119	1.064579	0.000126
  60	5.8705e+00	2.3486	6.245449	0.000345	3.446195	1.167603	0.000138
  61	5.9700e+00	2.3871	6.431157	0.000466	4.662499	1.579698	0.000187
  62	6.0695e+00	2.4240	6.568420	0.000345	3.446195	1.167603	0.000138
  63	6.1690e+00	2.4561	6.721831	0.000385	3.851630	1.304968	0.000154
  64	6.2685e+00	2.5090	6.875242	0.000385	3.851630	1.304968	0.000154
  65	6.3680e+00	2.5459	7.020579	0.000365	3.648913	1.236285	0.000146
  66	6.4675e+00	2.5860	7.182064	0.000405	4.054347	1.373650	0.000162
  67	6.5670e+00	2.6261	7.278956	0.000243	2.432608	0.824190	0.000097
  68	6.6665e+00	2.6598	7.448515	0.000426	4.257065	1.442333	0.000170
  69	6.7660e+00	2.7079	7.610001	0.000405	4.054347	1.373650	0.000162
  70	6.8655e+00	2.7448	7.743226	0.000334	3.344836	1.133261	0.000134
  71	6.9650e+00	2.7833	7.904712	0.000405	4.054347	1.373650	0.000162
  72	7.0645e+00	2.8218	8.046012	0.000355	3.547554	1.201944	0.000142
  73	7.1640e+00	2.8507	8.231720	0.000466	4.662499	1.579698	0.000187
  74	7.2635e+00	2.9005	8.401279	0.000426	4.257065	1.442333	0.000170
  75	7.3630e+00	2.9438	8.510282	0.000274	2.736684	0.927214	0.000110
  76	7.4625e+00	2.9855	8.663693	0.000385	3.851630	1.304968	0.000154
  77	7.5620e+00	3.0256	8.813067	0.000375	3.750271	1.270626	0.000150
  78	7.6615e+00	3.0657	8.990701	0.000446	4.459782	1.511015	0.000179
  79	7.7610e+00	3.1042	9.123927	0.000334	3.344836	1.133261	0.000134
  80	7.8605e+00	3.1459	9.301561	0.000446	4.459782	1.511015	0.000179
  81	7.9600e+00	3.1892	9.430749	0.000324	3.243478	1.098920	0.000130
  82	8.0595e+00	3.2133	9.559937	0.000324	3.243478	1.098920	0.000130
  83	8.1590e+00	3.2662	9.721423	0.000405	4.054347	1.373650	0.000162
  84	8.2585e+00	3.2999	9.846574	0.000314	3.142119	1.064579	0.000126
  85	8.3580e+00	3.3400	9.963651	0.000294	2.939402	0.995896	0.000118
  86	8.4575e+00	3.3817	10.117062	0.000385	3.851630	1.304968	0.000154
  87	8.5570e+00	3.4170	10.286622	0.000426	4.257065	1.442333	0.000170
  88	8.6565e+00	3.4667	10.440033	0.000385	3.851630	1.304968	0.000154
  89	8.7560e+00	3.5004	10.613630	0.000436	4.358423	1.476674	0.000174
  90	8.8555e+00	3.5373	10.767041	0.000385	3.851630	1.304968	0.000154
  91	8.9550e+00	3.5887	10.908341	0.000355	3.547554	1.201944	0.000142
  92	9.0545e+00	3.6256	11.098086	0.000476	4.763858	1.614039	0.000191
  93	9.1540e+00	3.6625	11.219200	0.000304	3.040760	1.030238	0.000122
  94	9.2535e+00	3.6929	11.368574	0.000375	3.750271	1.270626	0.000150
  95	9.3530e+00	3.7314	11.530060	0.000405	4.054347	1.373650	0.000162
  96	9.4525e+00	3.7764	11.659248	0.000324	3.243478	1.098920	0.000130
  97	9.5520e+00	3.8165	11.800548	0.000355	3.547554	1.201944	0.000142
  98	9.6515e+00	3.8534	11.945885	0.000365	3.648913	1.236285	0.000146
  99	9.7510e+00	3.9031	12.066999	0.000304	3.040760	1.030238	0.000122
 100	9.8505e+00	3.9304	12.216373	0.000375	3.750271	1.270626	0.000150
 101	9.9500e+00	3.9897	12.321338	0.000264	2.635326	0.892873	0.000105
 102	1.0050e+01	4.0202	12.498972	0.000446	4.459782	1.511015	0.000179
 103	1.0149e+01	4.0587	12.624123	0.000314	3.142119	1.064579	0.000126
 104	1.0248e+01	4.1004	12.789646	0.000416	4.155706	1.407991	0.000166
 105	1.0348e+01	4.1309	12.918834	0.000324	3.243478	1.098920	0.000130
 106	1.0447e+01	4.1726	13.100505	0.000456	4.561141	1.545356	0.000183
 107	1.0547e+01	4.2223	13.294288	0.000487	4.865217	1.648380	0.000195
 108	1.0646e+01	4.2576	13.391179	0.000243	2.432608	0.824190	0.000097
 109	1.0746e+01	4.2961	13.568813	0.000446	4.459782	1.511015	0.000179
 110	1.0845e+01	4.3394	13.754521	0.000466	4.662499	1.579698	0.000187
 111	1.0945e+01	4.3715	13.847376	0.000233	2.331250	0.789849	0.000093
 112	1.1044e+01	4.4132	14.008861	0.000405	4.054347	1.373650	0.000162
 113	1.1144e+01	4.4517	14.142086	0.000334	3.344836	1.133261	0.000134
 114	1.1243e+01	4.4999	14.275312	0.000334	3.344836	1.133261	0.000134
 115	1.1343e+01	4.5384	14.456983	0.000456	4.561141	1.545356	0.000183
 116	1.1443e+01	4.5673	14.533689	0.000193	1.925815	0.652484	0.000077
 117	1.1542e+01	4.6234	14.687100	0.000385	3.851630	1.304968	0.000154
 118	1.1642e+01	4.6475	14.836474	0.000375	3.750271	1.270626	0.000150
 119	1.1741e+01	4.7036	14.989885	0.000385	3.851630	1.304968	0.000154
 120	1.1841e+01	4.7261	15.123110	0.000334	3.344836	1.133261	0.000134
 121	1.1940e+01	4.7774	15.236150	0.000284	2.838043	0.961555	0.000114
 122	1.2040e+01	4.8111	15.353227	0.000294	2.939402	0.995896	0.000118
 123	1.2139e+01	4.8592	15.551047	0.000497	4.966575	1.682721	0.000199
 124	1.2239e+01	4.8945	15.724644	0.000436	4.358423	1.476674	0.000174
 125	1.2338e+01	4.9314	15.886129	0.000405	4.054347	1.373650	0.000162
 126	1.2438e+01	4.9683	16.003206	0.000294	2.939402	0.995896	0.000118
 127	1.2537e+01	5.0132	16.184877	0.000456	4.561141	1.545356	0.000183
 128	1.2636e+01	5.0517	16.301954	0.000294	2.939402	0.995896	0.000118
 129	1.2736e+01	5.0983	16.447291	0.000365	3.648913	1.236285	0.000146
 130	1.2835e+01	5.1368	16.552257	0.000264	2.635326	0.892873	0.000105
 131	1.2935e+01	5.1801	16.733928	0.000456	4.561141	1.545356	0.000183
 132	1.3034e+01	5.2186	16.879265	0.000365	3.648913	1.236285	0.000146
 133	1.3134e+01	5.2587	16.996341	0.000294	2.939402	0.995896	0.000118
 134	1.3233e+01	5.2892	17.145715	0.000375	3.750271	1.270626	0.000150
 135	1.3333e+01	5.3421	17.246644	0.000253	2.533967	0.858531	0.000101
 136	1.3432e+01	5.3710	17.359684	0.000284	2.838043	0.961555	0.000114
 137	1.3532e+01	5.4127	17.505021	0.000365	3.648913	1.236285	0.000146
 138	1.3632e+01	5.4576	17.638246	0.000334	3.344836	1.133261	0.000134
 139	1.3731e+01	5.4929	17.783583	0.000365	3.648913	1.236285	0.000146
 140	1.3831e+01	5.5330	17.928920	0.000365	3.648913	1.236285	0.000146
 141	1.3930e+01	5.5699	18.082331	0.000385	3.851630	1.304968	0.000154
 142	1.4030e+01	5.6180	18.264002	0.000456	4.561141	1.545356	0.000183
 143	1.4129e+01	5.6533	18.413376	0.000375	3.750271	1.270626	0.000150
 144	1.4229e+01	5.6886	18.546602	0.000334	3.344836	1.133261	0.000134
 145	1.4328e+01	5.7303	18.675790	0.000324	3.243478	1.098920	0.000130
 146	1.4428e+01	5.7752	18.841312	0.000416	4.155706	1.407991	0.000166
 147	1.4527e+01	5.8089	18.986649	0.000365	3.648913	1.236285	0.000146
 148	1.4627e+01	5.8571	19.136023	0.000375	3.750271	1.270626	0.000150
 149	1.4726e+01	5.8988	19.281360	0.000365	3.648913	1.236285	0.000146
 150	1.4825e+01	5.9325	19.410549	0.000324	3.243478	1.098920	0.000130
 151	1.4925e+01	5.9726	19.531663	0.000304	3.040760	1.030238	0.000122
 152	1.5024e+01	6.0079	19.616443	0.000213	2.128532	0.721166	0.000085
 153	1.5124e+01	6.0544	19.761779	0.000365	3.648913	1.236285	0.000146
 154	1.5223e+01	6.0929	19.899042	0.000345	3.446195	1.167603	0.000138
 155	1.5323e+01	6.1426	20.040342	0.000355	3.547554	1.201944	0.000142
 156	1.5422e+01	6.1667	20.197790	0.000395	3.952989	1.339309	0.000158
 157	1.5522e+01	6.2132	20.310830	0.000284	2.838043	0.961555	0.000114
 158	1.5621e+01	6.2533	20.472315	0.000405	4.054347	1.373650	0.000162
 159	1.5721e+01	6.2774	20.613615	0.000355	3.547554	1.201944	0.000142
 160	1.5820e+01	6.3335	20.742803	0.000324	3.243478	1.098920	0.000130
 161	1.5920e+01	6.3720	20.932549	0.000476	4.763858	1.614039	0.000191
 162	1.6020e+01	6.4041	21.085960	0.000385	3.851630	1.304968	0.000154
 163	1.6119e+01	6.4554	21.219185	0.000334	3.344836	1.133261	0.000134
 164	1.6218e+01	6.4859	21.396819	0.000446	4.459782	1.511015	0.000179
 165	1.6318e+01	6.5324	21.501785	0.000264	2.635326	0.892873	0.000105
 166	1.6418e+01	6.5709	21.635010	0.000334	3.344836	1.133261	0.000134
 167	1.6517e+01	6.6094	21.764199	0.000324	3.243478	1.098920	0.000130
 168	1.6616e+01	6.6528	21.909536	0.000365	3.648913	1.236285	0.000146
 169	1.6716e+01	6.6977	22.050835	0.000355	3.547554	1.201944	0.000142
 170	1.6816e+01	6.7233	22.127541	0.000193	1.925815	0.652484	0.000077
 171	1.6915e+01	6.7699	22.284989	0.000395	3.952989	1.339309	0.000158
 172	1.7015e+01	6.8180	22.438400	0.000385	3.851630	1.304968	0.000154
 173	1.7114e+01	6.8485	22.571626	0.000334	3.344836	1.133261	0.000134
 174	1.7213e+01	6.8806	22.684666	0.000284	2.838043	0.961555	0.000114
 175	1.7313e+01	6.9271	22.854225	0.000426	4.257065	1.442333	0.000170
 176	1.7413e+01	6.9592	23.019748	0.000416	4.155706	1.407991	0.000166
 177	1.7512e+01	7.0121	23.169122	0.000375	3.750271	1.270626	0.000150
 178	1.7611e+01	7.0426	23.298310	0.000324	3.243478	1.098920	0.000130
 179	1.7711e+01	7.0875	23.423462	0.000314	3.142119	1.064579	0.000126
 180	1.7811e+01	7.1308	23.597058	0.000436	4.358423	1.476674	0.000174
 181	1.7910e+01	7.1693	23.710098	0.000284	2.838043	0.961555	0.000114
 182	1.8009e+01	7.2094	23.871584	0.000405	4.054347	1.373650	0.000162
 183	1.8109e+01	7.2383	24.024995	0.000385	3.851630	1.304968	0.000154
 184	1.8209e+01	7.2961	24.117849	0.000233	2.331250	0.789849	0.000093
 185	1.8308e+01	7.3233	24.259149	0.000355	3.547554	1.201944	0.000142
 186	1.8407e+01	7.3714	24.388337	0.000324	3.243478	1.098920	0.000130
 187	1.8507e+01	7.4067	24.493303	0.000264	2.635326	0.892873	0.000105
 188	1.8607e+01	7.4404	24.654788	0.000405	4.054347	1.373650	0.000162
 189	1.8706e+01	7.4966	24.812236	0.000395	3.952989	1.339309	0.000158
 190	1.8805e+01	7.5190	24.937387	0.000314	3.142119	1.064579	0.000126
 191	1.8905e+01	7.5688	25.042353	0.000264	2.635326	0.892873	0.000105
 192	1.9005e+01	7.6041	25.179616	0.000345	3.446195	1.167603	0.000138
 193	1.9104e+01	7.6458	25.369361	0.000476	4.763858	1.614039	0.000191
 194	1.9203e+01	7.6891	25.518735	0.000375	3.750271	1.270626	0.000150
 195	1.9303e+01	7.7228	25.660035	0.000355	3.547554	1.201944	0.000142
 196	1.9402e+01	7.7597	25.777112	0.000294	2.939402	0.995896	0.000118
 197	1.9502e+01	7.8014	25.938597	0.000405	4.054347	1.373650	0.000162
 198	1.9602e+01	7.8351	26.067785	0.000324	3.243478	1.098920	0.000130
 199	1.9701e+01	7.8864	26.213122	0.000365	3.648913	1.236285	0.000146
 200	1.9800e+01	7.9249	26.354422	0.000355	3.547554	1.201944	0.000142
 201	1.9900e+01	7.9554	26.487648	0.000334	3.344836	1.133261	0.000134
 202	2.0000e+01	7.9987	26.632984	0.000365	3.648913	1.236285	0.000146
 203	2.0099e+01	8.0388	26.746024	0.000284	2.838043	0.961555	0.000114
 204	2.0198e+01	8.0789	26.822730	0.000193	1.925815	0.652484	0.000077
 205	2.0298e+01	8.1206	26.976141	0.000385	3.851630	1.304968	0.000154
 206	2.0398e+01	8.1688	27.105329	0.000324	3.243478	1.098920	0.000130
 207	2.0497e+01	8.1928	27.287000	0.000456	4.561141	1.545356	0.000183
 208	2.0596e+01	8.2377	27.412152	0.000314	3.142119	1.064579	0.000126
 209	2.0696e+01	8.2843	27.529229	0.000294	2.939402	0.995896	0.000118
 210	2.0796e+01	8.3212	27.706863	0.000446	4.459782	1.511015	0.000179
 211	2.0895e+01	8.3581	27.860274	0.000385	3.851630	1.304968	0.000154
 212	2.0994e+01	8.4046	27.981388	0.000304	3.040760	1.030238	0.000122
 213	2.1094e+01	8.4399	28.070205	0.000223	2.229891	0.755508	0.000089
 214	2.1194e+01	8.4848	28.255913	0.000466	4.662499	1.579698	0.000187
 215	2.1293e+01	8.5169	28.389139	0.000334	3.344836	1.133261	0.000134
 216	2.1392e+01	8.5490	28.534475	0.000365	3.648913	1.236285	0.000146
 217	2.1492e+01	8.5939	28.671738	0.000345	3.446195	1.167603	0.000138
 218	2.1591e+01	8.6388	28.788815	0.000294	2.939402	0.995896	0.000118
 219	2.1691e+01	8.6773	28.930115	0.000355	3.547554	1.201944	0.000142
 220	2.1791e+01	8.7302	29.039117	0.000274	2.736684	0.927214	0.000110
 221	2.1890e+01	8.7687	29.180417	0.000355	3.547554	1.201944	0.000142
 222	2.1989e+01	8.8008	29.245011	0.000162	1.621739	0.549460	0.000065
 223	2.2089e+01	8.8441	29.406497	0.000405	4.054347	1.373650	0.000162
 224	2.2189e+01	8.8810	29.527611	0.000304	3.040760	1.030238	0.000122
 225	2.2288e+01	8.9147	29.664873	0.000345	3.446195	1.167603	0.000138
 226	2.2387e+01	8.9677	29.814247	0.000375	3.750271	1.270626	0.000150
 227	2.2487e+01	8.9997	29.971696	0.000395	3.952989	1.339309	0.000158
 228	2.2587e+01	9.0366	30.104921	0.000334	3.344836	1.133261	0.000134
 229	2.2686e+01	9.0751	30.254295	0.000375	3.750271	1.270626	0.000150
 230	2.2785e+01	9.1104	30.355224	0.000253	2.533967	0.858531	0.000101
 231	2.2885e+01	9.1586	30.540932	0.000466	4.662499	1.579698	0.000187
 232	2.2985e+01	9.2019	30.653972	0.000284	2.838043	0.961555	0.000114
 233	2.3084e+01	9.2372	30.779123	0.000314	3.142119	1.064579	0.000126
 234	2.3183e+01	9.2853	30.912348	0.000334	3.344836	1.133261	0.000134
 235	2.3283e+01	9.3222	31.073834	0.000405	4.054347	1.373650	0.000162
 236	2.3383e+01	9.3559	31.190911	0.000294	2.939402	0.995896	0.000118
 237	2.3482e+01	9.4040	31.299913	0.000274	2.736684	0.927214	0.000110
 238	2.3581e+01	9.4425	31.396805	0.000243	2.432608	0.824190	0.000097
 239	2.3681e+01	9.4730	31.501770	0.000264	2.635326	0.892873	0.000105
 240	2.3780e+01	9.5227	31.618847	0.000294	2.939402	0.995896	0.000118
 241	2.3880e+01	9.5532	31.743998	0.000314	3.142119	1.064579	0.000126
 242	2.3980e+01	9.5853	31.897409	0.000385	3.851630	1.304968	0.000154
 243	2.4079e+01	9.6382	32.026598	0.000324	3.243478	1.098920	0.000130
 244	2.4178e+01	9.6783	32.184046	0.000395	3.952989	1.339309	0.000158
 245	2.4278e+01	9.7184	32.317272	0.000334	3.344836	1.133261	0.000134
 246	2.4378e+01	9.7553	32.474720	0.000395	3.952989	1.339309	0.000158
 247	2.4477e+01	9.7874	32.587760	0.000284	2.838043	0.961555	0.000114
 248	2.4576e+01	9.8339	32.725022	0.000345	3.446195	1.167603	0.000138
 249	2.4676e+01	9.8724	32.834025	0.000274	2.736684	0.927214	0.000110
 250	2.4776e+01	9.9077	33.011659	0.000446	4.459782	1.511015	0.000179
 251	2.4875e+01	9.9511	33.092402	0.000203	2.027174	0.686825	0.000081
 252	2.4974e+01	9.9863	33.229664	0.000345	3.446195	1.167603	0.000138
 253	2.5074e+01	10.0393	33.322518	0.000233	2.331250	0.789849	0.000093
 254	2.5174e+01	10.0810	33.435558	0.000284	2.838043	0.961555	0.000114
 255	2.5273e+01	10.1179	33.584932	0.000375	3.750271	1.270626	0.000150
 256	2.5372e+01	10.1596	33.702009	0.000294	2.939402	0.995896	0.000118
 257	2.5472e+01	10.1949	33.798900	0.000243	2.432608	0.824190	0.000097
 258	2.5572e+01	10.2430	33.899829	0.000253	2.533967	0.858531	0.000101
 259	2.5671e+01	10.2687	33.996720	0.000243	2.432608	0.824190	0.000097
 260	2.5770e+01	10.3104	34.158205	0.000405	4.054347	1.373650	0.000162
 261	2.5870e+01	10.3457	34.307580	0.000375	3.750271	1.270626	0.000150
 262	2.5970e+01	10.4018	34.456954	0.000375	3.750271	1.270626	0.000150
 263	2.6069e+01	10.4291	34.574030	0.000294	2.939402	0.995896	0.000118
 264	2.6169e+01	10.4740	34.727442	0.000385	3.851630	1.304968	0.000154
 265	2.6268e+01	10.5125	34.832407	0.000264	2.635326	0.892873	0.000105
 266	2.6367e+01	10.5575	34.957558	0.000314	3.142119	1.064579	0.000126
 267	2.6467e+01	10.5927	35.094821	0.000345	3.446195	1.167603	0.000138
 268	2.6567e+01	10.6345	35.232084	0.000345	3.446195	1.167603	0.000138
 269	2.6666e+01	10.6778	35.304752	0.000182	1.824456	0.618143	0.000073
 270	2.6765e+01	10.7131	35.433940	0.000324	3.243478	1.098920	0.000130
 271	2.6865e+01	10.7532	35.542943	0.000274	2.736684	0.927214	0.000110
 272	2.6965e+01	10.7901	35.631760	0.000223	2.229891	0.755508	0.000089
 273	2.7064e+01	10.8398	35.752874	0.000304	3.040760	1.030238	0.000122
 274	2.7163e+01	10.8671	35.878025	0.000314	3.142119	1.064579	0.000126
 275	2.7263e+01	10.9152	35.995102	0.000294	2.939402	0.995896	0.000118
 276	2.7363e+01	10.9505	36.120253	0.000314	3.142119	1.064579	0.000126
 277	2.7462e+01	10.9906	36.257516	0.000345	3.446195	1.167603	0.000138
 278	2.7561e+01	11.0387	36.374593	0.000294	2.939402	0.995896	0.000118
 279	2.7661e+01	11.0628	36.528004	0.000385	3.851630	1.304968	0.000154
 280	2.7761e+01	11.1077	36.677378	0.000375	3.750271	1.270626	0.000150
 281	2.7860e+01	11.1542	36.794455	0.000294	2.939402	0.995896	0.000118
 282	2.7959e+01	11.1895	36.899421	0.000264	2.635326	0.892873	0.000105
 283	2.8059e+01	11.2280	37.036683	0.000345	3.446195	1.167603	0.000138
 284	2.8159e+01	11.2697	37.137612	0.000253	2.533967	0.858531	0.000101
 285	2.8258e+01	11.3163	37.270837	0.000334	3.344836	1.133261	0.000134
 286	2.8358e+01	11.3516	37.371766	0.000253	2.533967	0.858531	0.000101
 287	2.8457e+01	11.3981	37.529214	0.000395	3.952989	1.339309	0.000158
 288	2.8556e+01	11.4221	37.593808	0.000162	1.621739	0.549460	0.000065
 289	2.8656e+01	11.4767	37.686662	0.000233	2.331250	0.789849	0.000093
 290	2.8756e+01	11.5088	37.827962	0.000355	3.547554	1.201944	0.000142
 291	2.8855e+01	11.5505	37.920816	0.000233	2.331250	0.789849	0.000093
 292	2.8954e+01	11.5906	38.021744	0.000253	2.533967	0.858531	0.000101
 293	2.9054e+01	11.6275	38.175156	0.000385	3.851630	1.304968	0.000154
 294	2.9154e+01	11.6692	38.280121	0.000264	2.635326	0.892873	0.000105
 295	2.9253e+01	11.7061	38.421421	0.000355	3.547554	1.201944	0.000142
 296	2.9352e+01	11.7446	38.574832	0.000385	3.851630	1.304968	0.000154
 297	2.9452e+01	11.7879	38.663649	0.000223	2.229891	0.755508	0.000089
 298	2.9552e+01	11.8312	38.772652	0.000274	2.736684	0.927214	0.000110
 299	2.9651e+01	11.8713	38.954323	0.000456	4.561141	1.545356	0.000183
 300	2.9750e+01	11.9066	39.031028	0.000193	1.925815	0.652484	0.000077
 301	2.9850e+01	11.9612	39.127920	0.000243	2.432608	0.824190	0.000097
 302	2.9950e+01	11.9868	39.249034	0.000304	3.040760	1.030238	0.000122
 303	3.0049e+01	12.0366	39.353999	0.000264	2.635326	0.892873	0.000105
 304	3.0148e+01	12.0735	39.499336	0.000365	3.648913	1.236285	0.000146
 305	3.0248e+01	12.1071	39.584116	0.000213	2.128532	0.721166	0.000085
 306	3.0348e+01	12.1392	39.693119	0.000274	2.736684	0.927214	0.000110
 307	3.0447e+01	12.1858	39.785973	0.000233	2.331250	0.789849	0.000093
 308	3.0547e+01	12.2259	39.874790	0.000223	2.229891	0.755508	0.000089
 309	3.0646e+01	12.2660	39.991867	0.000294	2.939402	0.995896	0.000118
 310	3.0745e+01	12.3141	40.165463	0.000436	4.358423	1.476674	0.000174
 311	3.0845e+01	12.3333	40.242169	0.000193	1.925815	0.652484	0.000077
 312	3.0945e+01	12.3943	40.403654	0.000405	4.054347	1.373650	0.000162
 313	3.1044e+01	12.4264	40.528806	0.000314	3.142119	1.064579	0.000126
 314	3.1143e+01	12.4681	40.637808	0.000274	2.736684	0.927214	0.000110
 315	3.1243e+01	12.5114	40.734700	0.000243	2.432608	0.824190	0.000097
 316	3.1343e+01	12.5467	40.875999	0.000355	3.547554	1.201944	0.000142
 317	3.1442e+01	12.5868	41.017299	0.000355	3.547554	1.201944	0.000142
 318	3.1541e+01	12.6237	41.106116	0.000223	2.229891	0.755508	0.000089
 319	3.1641e+01	12.6670	41.251453	0.000365	3.648913	1.236285	0.000146
 320	3.1741e+01	12.7071	41.307973	0.000142	1.419022	0.480778	0.000057
 321	3.1840e+01	12.7360	41.473495	0.000416	4.155706	1.407991	0.000166
 322	3.1939e+01	12.7857	41.542127	0.000172	1.723098	0.583801	0.000069
 323	3.2039e+01	12.8194	41.634981	0.000233	2.331250	0.789849	0.000093
 324	3.2139e+01	12.8659	41.760132	0.000314	3.142119	1.064579	0.000126
 325	3.2238e+01	12.9077	41.852986	0.000233	2.331250	0.789849	0.000093
 326	3.2337e+01	12.9494	41.945840	0.000233	2.331250	0.789849	0.000093
 327	3.2437e+01	12.9879	42.095214	0.000375	3.750271	1.270626	0.000150
 328	3.2536e+01	13.0232	42.175957	0.000203	2.027174	0.686825	0.000081
 329	3.2636e+01	13.0633	42.329368	0.000385	3.851630	1.304968	0.000154
 330	3.2736e+01	13.1082	42.474705	0.000365	3.648913	1.236285	0.000146
 331	3.2835e+01	13.1483	42.595819	0.000304	3.040760	1.030238	0.000122
 332	3.2934e+01	13.1740	42.684636	0.000223	2.229891	0.755508	0.000089
 333	3.3034e+01	13.2349	42.854196	0.000426	4.257065	1.442333	0.000170
 334	3.3133e+01	13.2574	42.963199	0.000274	2.736684	0.927214	0.000110
 335	3.3233e+01	13.3119	43.039904	0.000193	1.925815	0.652484	0.000077
 336	3.3333e+01	13.3360	43.173130	0.000334	3.344836	1.133261	0.000134
 337	3.3432e+01	13.3777	43.322504	0.000375	3.750271	1.270626	0.000150
 338	3.3532e+01	13.4178	43.407283	0.000213	2.128532	0.721166	0.000085
 339	3.3631e+01	13.4531	43.504175	0.000243	2.432608	0.824190	0.000097
 340	3.3730e+01	13.4852	43.641437	0.000345	3.446195	1.167603	0.000138
 341	3.3830e+01	13.5461	43.734291	0.000233	2.331250	0.789849	0.000093
 342	3.3929e+01	13.5814	43.835220	0.000253	2.533967	0.858531	0.000101
 343	3.4029e+01	13.6215	43.920000	0.000213	2.128532	0.721166	0.000085
 344	3.4129e+01	13.6584	44.012854	0.000233	2.331250	0.789849	0.000093
 345	3.4228e+01	13.6985	44.142042	0.000324	3.243478	1.098920	0.000130
 346	3.4328e+01	13.7386	44.279305	0.000345	3.446195	1.167603	0.000138
 347	3.4427e+01	13.7772	44.404456	0.000314	3.142119	1.064579	0.000126
 348	3.4526e+01	13.8173	44.582090	0.000446	4.459782	1.511015	0.000179
 349	3.4626e+01	13.8558	44.654758	0.000182	1.824456	0.618143	0.000073
 350	3.4725e+01	13.9023	44.767798	0.000284	2.838043	0.961555	0.000114
 351	3.4825e+01	13.9376	44.896987	0.000324	3.243478	1.098920	0.000130
 352	3.4925e+01	13.9713	44.969655	0.000182	1.824456	0.618143	0.000073
 353	3.5024e+01	14.0146	45.123066	0.000385	3.851630	1.304968	0.000154
 354	3.5123e+01	14.0531	45.223995	0.000253	2.533967	0.858531	0.000101
 355	3.5223e+01	14.0964	45.328960	0.000264	2.635326	0.892873	0.000105
 356	3.5322e+01	14.1477	45.413740	0.000213	2.128532	0.721166	0.000085
 357	3.5422e+01	14.1798	45.567151	0.000385	3.851630	1.304968	0.000154
 358	3.5522e+01	14.2119	45.651931	0.000213	2.128532	0.721166	0.000085
 359	3.5621e+01	14.2600	45.813416	0.000405	4.054347	1.373650	0.000162
 360	3.5721e+01	14.2921	45.865899	0.000132	1.317663	0.446436	0.000053
 361	3.5820e+01	14.3370	45.970865	0.000264	2.635326	0.892873	0.000105
 362	3.5919e+01	14.3755	46.079867	0.000274	2.736684	0.927214	0.000110
 363	3.6019e+01	14.4140	46.225204	0.000365	3.648913	1.236285	0.000146
 364	3.6118e+01	14.4654	46.326133	0.000253	2.533967	0.858531	0.000101
 365	3.6218e+01	14.4991	46.459358	0.000334	3.344836	1.133261	0.000134
 366	3.6318e+01	14.5376	46.596621	0.000345	3.446195	1.167603	0.000138
 367	3.6417e+01	14.5777	46.705623	0.000274	2.736684	0.927214	0.000110
 368	3.6517e+01	14.6097	46.838849	0.000334	3.344836	1.133261	0.000134
 369	3.6616e+01	14.6499	46.947851	0.000274	2.736684	0.927214	0.000110
 370	3.6715e+01	14.6980	47.093188	0.000365	3.648913	1.236285	0.000146
 371	3.6815e+01	14.7365	47.137597	0.000111	1.114945	0.377754	0.000045
 372	3.6914e+01	14.7798	47.291008	0.000385	3.851630	1.304968	0.000154
 373	3.7014e+01	14.8103	47.379825	0.000223	2.229891	0.755508	0.000089
 374	3.7114e+01	14.8584	47.517088	0.000345	3.446195	1.167603	0.000138
 375	3.7213e+01	14.8889	47.605905	0.000223	2.229891	0.755508	0.000089
 376	3.7313e+01	14.9370	47.718944	0.000284	2.838043	0.961555	0.000114
 377	3.7412e+01	14.9691	47.803724	0.000213	2.128532	0.721166	0.000085
 378	3.7511e+01	15.0204	47.892541	0.000223	2.229891	0.755508	0.000089
 379	3.7611e+01	15.0509	48.009618	0.000294	2.939402	0.995896	0.000118
 380	3.7711e+01	15.0894	48.106509	0.000243	2.432608	0.824190	0.000097
 381	3.7810e+01	15.1311	48.231661	0.000314	3.142119	1.064579	0.000126
 382	3.7910e+01	15.1776	48.389109	0.000395	3.952989	1.339309	0.000158
 383	3.8009e+01	15.2145	48.502149	0.000284	2.838043	0.961555	0.000114
 384	3.8108e+01	15.2546	48.623263	0.000304	3.040760	1.030238	0.000122
 385	3.8208e+01	15.2883	48.716117	0.000233	2.331250	0.789849	0.000093
 386	3.8307e+01	15.3365	48.881640	0.000416	4.155706	1.407991	0.000166
 387	3.8407e+01	15.3830	48.978531	0.000243	2.432608	0.824190	0.000097
 388	3.8507e+01	15.4135	49.059273	0.000203	2.027174	0.686825	0.000081
 389	3.8606e+01	15.4504	49.192499	0.000334	3.344836	1.133261	0.000134
 390	3.8706e+01	15.4937	49.293427	0.000253	2.533967	0.858531	0.000101
 391	3.8805e+01	15.5322	49.462987	0.000426	4.257065	1.442333	0.000170
 392	3.8904e+01	15.5739	49.527581	0.000162	1.621739	0.549460	0.000065
 393	3.9004e+01	15.6204	49.636584	0.000274	2.736684	0.927214	0.000110
 394	3.9103e+01	15.6541	49.676955	0.000101	1.013587	0.343413	0.000041
 395	3.9203e+01	15.7022	49.794032	0.000294	2.939402	0.995896	0.000118
 396	3.9303e+01	15.7263	49.911109	0.000294	2.939402	0.995896	0.000118
 397	3.9402e+01	15.7824	50.032223	0.000304	3.040760	1.030238	0.000122
 398	3.9502e+01	15.8065	50.117003	0.000213	2.128532	0.721166	0.000085
 399	3.9601e+01	15.8514	50.266377	0.000375	3.750271	1.270626	0.000150
 400	3.9700e+01	15.9012	50.435937	0.000426	4.257065	1.442333	0.000170
 401	3.9800e+01	15.9364	50.484382	0.000122	1.216304	0.412095	0.000049
 402	3.9900e+01	15.9733	50.609534	0.000314	3.142119	1.064579	0.000126
 403	3.9999e+01	16.0151	50.698351	0.000223	2.229891	0.755508	0.000089
 404	4.0099e+01	16.0455	50.811390	0.000284	2.838043	0.961555	0.000114
 405	4.0198e+01	16.0889	50.936542	0.000314	3.142119	1.064579	0.000126
 406	4.0297e+01	16.1290	51.033433	0.000243	2.432608	0.824190	0.000097
 407	4.0397e+01	16.1642	51.142436	0.000274	2.736684	0.927214	0.000110
 408	4.0496e+01	16.2060	51.263550	0.000304	3.040760	1.030238	0.000122
 409	4.0596e+01	16.2429	51.356404	0.000233	2.331250	0.789849	0.000093
 410	4.0696e+01	16.2862	51.501741	0.000365	3.648913	1.236285	0.000146
 411	4.0795e+01	16.3359	51.534038	0.000081	0.810869	0.274730	0.000032
 412	4.0895e+01	16.3648	51.626892	0.000233	2.331250	0.789849	0.000093
 413	4.0994e+01	16.4001	51.699560	0.000182	1.824456	0.618143	0.000073
 414	4.1093e+01	16.4546	51.844897	0.000365	3.648913	1.236285	0.000146
 415	4.1193e+01	16.4835	51.945826	0.000253	2.533967	0.858531	0.000101
 416	4.1292e+01	16.5332	52.087125	0.000355	3.547554	1.201944	0.000142
 417	4.1392e+01	16.5717	52.188054	0.000253	2.533967	0.858531	0.000101
 418	4.1492e+01	16.6102	52.276871	0.000223	2.229891	0.755508	0.000089
 419	4.1591e+01	16.6567	52.406059	0.000324	3.243478	1.098920	0.000130
 420	4.1691e+01	16.6920	52.506987	0.000253	2.533967	0.858531	0.000101
 421	4.1790e+01	16.7145	52.591767	0.000213	2.128532	0.721166	0.000085
 422	4.1889e+01	16.7658	52.757290	0.000416	4.155706	1.407991	0.000166
 423	4.1989e+01	16.8011	52.842070	0.000213	2.128532	0.721166	0.000085
 424	4.2089e+01	16.8493	52.902627	0.000152	1.520380	0.515119	0.000061
 425	4.2188e+01	16.8781	53.052001	0.000375	3.750271	1.270626	0.000150
 426	4.2288e+01	16.9279	53.108521	0.000142	1.419022	0.480778	0.000057
 427	4.2387e+01	16.9664	53.201375	0.000233	2.331250	0.789849	0.000093
 428	4.2486e+01	17.0033	53.310377	0.000274	2.736684	0.927214	0.000110
 429	4.2586e+01	17.0466	53.419380	0.000274	2.736684	0.927214	0.000110
 430	4.2685e+01	17.0883	53.467826	0.000122	1.216304	0.412095	0.000049
 431	4.2785e+01	17.1220	53.576828	0.000274	2.736684	0.927214	0.000110
 432	4.2885e+01	17.1589	53.726202	0.000375	3.750271	1.270626	0.000150
 433	4.2984e+01	17.2006	53.831168	0.000264	2.635326	0.892873	0.000105
 434	4.3084e+01	17.2455	53.968431	0.000345	3.446195	1.167603	0.000138
 435	4.3183e+01	17.2936	54.024950	0.000142	1.419022	0.480778	0.000057
 436	4.3282e+01	17.3225	54.170287	0.000365	3.648913	1.236285	0.000146
 437	4.3382e+01	17.3642	54.279290	0.000274	2.736684	0.927214	0.000110
 438	4.3481e+01	17.4059	54.372144	0.000233	2.331250	0.789849	0.000093
 439	4.3581e+01	17.4460	54.452887	0.000203	2.027174	0.686825	0.000081
 440	4.3681e+01	17.4765	54.586112	0.000334	3.344836	1.133261	0.000134
 441	4.3780e+01	17.5262	54.646669	0.000152	1.520380	0.515119	0.000061
 442	4.3880e+01	17.5567	54.771821	0.000314	3.142119	1.064579	0.000126
 443	4.3979e+01	17.6016	54.852563	0.000203	2.027174	0.686825	0.000081
 444	4.4078e+01	17.6450	54.965603	0.000284	2.838043	0.961555	0.000114
 445	4.4178e+01	17.6770	55.062494	0.000243	2.432608	0.824190	0.000097
 446	4.4278e+01	17.7204	55.086717	0.000061	0.608152	0.206048	0.000024
 447	4.4377e+01	17.7637	55.183608	0.000243	2.432608	0.824190	0.000097
 448	4.4477e+01	17.7974	55.320871	0.000345	3.446195	1.167603	0.000138
 449	4.4576e+01	17.8487	55.425837	0.000264	2.635326	0.892873	0.000105
 450	4.4675e+01	17.8888	55.522728	0.000243	2.432608	0.824190	0.000097
 451	4.4775e+01	17.9145	55.635768	0.000284	2.838043	0.961555	0.000114
 452	4.4874e+01	17.9674	55.760919	0.000314	3.142119	1.064579	0.000126
 453	4.4974e+01	18.0011	55.890107	0.000324	3.243478	1.098920	0.000130
 454	4.5074e+01	18.0444	55.966813	0.000193	1.925815	0.652484	0.000077
 455	4.5173e+01	18.0893	56.079853	0.000284	2.838043	0.961555	0.000114
 456	4.5273e+01	18.1150	56.148484	0.000172	1.723098	0.583801	0.000069
 457	4.5372e+01	18.1631	56.273635	0.000314	3.142119	1.064579	0.000126
 458	4.5471e+01	18.1904	56.338229	0.000162	1.621739	0.549460	0.000065
 459	4.5571e+01	18.2449	56.475492	0.000345	3.446195	1.167603	0.000138
 460	4.5670e+01	18.2834	56.532012	0.000142	1.419022	0.480778	0.000057
 461	4.5770e+01	18.3203	56.657163	0.000314	3.142119	1.064579	0.000126
 462	4.5870e+01	18.3572	56.713683	0.000142	1.419022	0.480778	0.000057
 463	4.5969e+01	18.4022	56.786351	0.000182	1.824456	0.618143	0.000073
 464	4.6069e+01	18.4471	56.871131	0.000213	2.128532	0.721166	0.000085
 465	4.6168e+01	18.4808	56.988208	0.000294	2.939402	0.995896	0.000118
 466	4.6267e+01	18.5209	57.097211	0.000274	2.736684	0.927214	0.000110
 467	4.6367e+01	18.5658	57.173916	0.000193	1.925815	0.652484	0.000077
 468	4.6467e+01	18.6011	57.286956	0.000284	2.838043	0.961555	0.000114
 469	4.6566e+01	18.6412	57.416144	0.000324	3.243478	1.098920	0.000130
 470	4.6666e+01	18.6749	57.488813	0.000182	1.824456	0.618143	0.000073
 471	4.6765e+01	18.7150	57.613964	0.000314	3.142119	1.064579	0.000126
 472	4.6864e+01	18.7695	57.731041	0.000294	2.939402	0.995896	0.000118
 473	4.6964e+01	18.7984	57.840044	0.000274	2.736684	0.927214	0.000110
 474	4.7063e+01	18.8321	57.848118	0.000020	0.202717	0.068683	0.000008
 475	4.7163e+01	18.8786	57.981343	0.000334	3.344836	1.133261	0.000134
 476	4.7263e+01	18.9267	58.126680	0.000365	3.648913	1.236285	0.000146
 477	4.7362e+01	18.9524	58.146866	0.000051	0.506793	0.171706	0.000020
 478	4.7462e+01	18.9973	58.219534	0.000182	1.824456	0.618143	0.000073
 479	4.7561e+01	19.0487	58.340649	0.000304	3.040760	1.030238	0.000122
 480	4.7660e+01	19.0856	58.441577	0.000253	2.533967	0.858531	0.000101
 481	4.7760e+01	19.1192	58.510208	0.000172	1.723098	0.583801	0.000069
 482	4.7859e+01	19.1577	58.574802	0.000162	1.621739	0.549460	0.000065
 483	4.7959e+01	19.1979	58.699954	0.000314	3.142119	1.064579	0.000126
 484	4.8059e+01	19.2380	58.792808	0.000233	2.331250	0.789849	0.000093
 485	4.8158e+01	19.2829	58.905848	0.000284	2.838043	0.961555	0.000114
 486	4.8258e+01	19.3246	59.002739	0.000243	2.432608	0.824190	0.000097
 487	4.8357e+01	19.3551	59.127890	0.000314	3.142119	1.064579	0.000126
 488	4.8456e+01	19.4016	59.188447	0.000152	1.520380	0.515119	0.000061
 489	4.8556e+01	19.4385	59.321673	0.000334	3.344836	1.133261	0.000134
 490	4.8656e+01	19.4706	59.414527	0.000233	2.331250	0.789849	0.000093
 491	4.8755e+01	19.5219	59.523529	0.000274	2.736684	0.927214	0.000110
 492	4.8855e+01	19.5540	59.632532	0.000274	2.736684	0.927214	0.000110
 493	4.8954e+01	19.6037	59.721349	0.000223	2.229891	0.755508	0.000089
 494	4.9053e+01	19.6278	59.802092	0.000203	2.027174	0.686825	0.000081
 495	4.9153e+01	19.6727	59.923206	0.000304	3.040760	1.030238	0.000122
 496	4.9252e+01	19.7144	60.016060	0.000233	2.331250	0.789849	0.000093
 497	4.9352e+01	19.7609	60.088728	0.000182	1.824456	0.618143	0.000073
 498	4.9452e+01	19.7914	60.149285	0.000152	1.520380	0.515119	0.000061
 499	4.9551e+01	19.8347	60.242139	0.000233	2.331250	0.789849	0.000093
 500	4.9651e+01	19.8797	60.334994	0.000233	2.331250	0.789849	0.000093
 501	4.9750e+01	19.9166	60.443996	0.000274	2.736684	0.927214	0.000110
 502	4.9849e+01	19.9567	60.520702	0.000193	1.925815	0.652484	0.000077
 503	4.9949e+01	19.9952	60.613556	0.000233	2.331250	0.789849	0.000093
 504	5.0048e+01	19.9534	60.609519	0.000010	0.101359	0.034341	-0.000004
 505	5.0148e+01	19.9198	60.544925	0.000162	1.621739	0.549460	-0.000065
 506	5.0248e+01	19.8716	60.472256	0.000182	1.824456	0.618143	-0.000073
 507	5.0347e+01	19.8315	60.379402	0.000233	2.331250	0.789849	-0.000093
 508	5.0447e+01	19.7914	60.310771	0.000172	1.723098	0.583801	-0.000069
 509	5.0546e+01	19.7625	60.242139	0.000172	1.723098	0.583801	-0.000069
 510	5.0645e+01	19.7160	60.185620	0.000142	1.419022	0.480778	-0.000057
 511	5.0745e+01	19.6775	60.104877	0.000203	2.027174	0.686825	-0.000081
 512	5.0844e+01	19.6294	60.020097	0.000213	2.128532	0.721166	-0.000085
 513	5.0944e+01	19.5909	59.923206	0.000243	2.432608	0.824190	-0.000097
 514	5.1044e+01	19.5572	59.858612	0.000162	1.621739	0.549460	-0.000065
 515	5.1143e+01	19.5203	59.773832	0.000213	2.128532	0.721166	-0.000085
 516	5.1242e+01	19.4738	59.628495	0.000365	3.648913	1.236285	-0.000146
 517	5.1342e+01	19.4337	59.584086	0.000111	1.114945	0.377754	-0.000045
 518	5.1441e+01	19.4000	59.442787	0.000355	3.547554	1.201944	-0.000142
 519	5.1541e+01	19.3583	59.394341	0.000122	1.216304	0.412095	-0.000049
 520	5.1641e+01	19.3134	59.309561	0.000213	2.128532	0.721166	-0.000085
 521	5.1740e+01	19.2813	59.249004	0.000152	1.520380	0.515119	-0.000061
 522	5.1840e+01	19.2380	59.188447	0.000152	1.520380	0.515119	-0.000061
 523	5.1939e+01	19.1914	59.135964	0.000132	1.317663	0.446436	-0.000053
 524	5.2038e+01	19.1577	59.055222	0.000203	2.027174	0.686825	-0.000081
 525	5.2138e+01	19.1144	58.994665	0.000152	1.520380	0.515119	-0.000061
 526	5.2237e+01	19.0775	58.942182	0.000132	1.317663	0.446436	-0.000053
 527	5.2337e+01	19.0390	58.833179	0.000274	2.736684	0.927214	-0.000110
 528	5.2437e+01	18.9989	58.764548	0.000172	1.723098	0.583801	-0.000069
 529	5.2536e+01	18.9604	58.655545	0.000274	2.736684	0.927214	-0.000110
 530	5.2636e+01	18.9187	58.586914	0.000172	1.723098	0.583801	-0.000069
 531	5.2735e+01	18.8914	58.498097	0.000223	2.229891	0.755508	-0.000089
 532	5.2834e+01	18.8385	58.393131	0.000264	2.635326	0.892873	-0.000105
 533	5.2934e+01	18.7968	58.288166	0.000264	2.635326	0.892873	-0.000105
 534	5.3033e+01	18.7583	58.191275	0.000243	2.432608	0.824190	-0.000097
 535	5.3133e+01	18.7262	58.090346	0.000253	2.533967	0.858531	-0.000101
 536	5.3233e+01	18.6781	58.037863	0.000132	1.317663	0.446436	-0.000053
 537	5.3332e+01	18.6332	57.961158	0.000193	1.925815	0.652484	-0.000077
 538	5.3431e+01	18.5995	57.864267	0.000243	2.432608	0.824190	-0.000097
 539	5.3531e+01	18.5642	57.815821	0.000122	1.216304	0.412095	-0.000049
 540	5.3630e+01	18.5289	57.727004	0.000223	2.229891	0.755508	-0.000089
 541	5.3730e+01	18.4824	57.702781	0.000061	0.608152	0.206048	-0.000024
 542	5.3830e+01	18.4423	57.561481	0.000355	3.547554	1.201944	-0.000142
 543	5.3929e+01	18.4086	57.464590	0.000243	2.432608	0.824190	-0.000097
 544	5.4029e+01	18.3588	57.424219	0.000101	1.013587	0.343413	-0.000041
 545	5.4128e+01	18.3203	57.379810	0.000111	1.114945	0.377754	-0.000045
 546	5.4227e+01	18.2834	57.238510	0.000355	3.547554	1.201944	-0.000142
 547	5.4327e+01	18.2369	57.165842	0.000182	1.824456	0.618143	-0.000073
 548	5.4426e+01	18.2032	57.109322	0.000142	1.419022	0.480778	-0.000057
 549	5.4526e+01	18.1567	57.004357	0.000264	2.635326	0.892873	-0.000105
 550	5.4626e+01	18.1326	56.891317	0.000284	2.838043	0.961555	-0.000114
 551	5.4725e+01	18.0861	56.834797	0.000142	1.419022	0.480778	-0.000057
 552	5.4825e+01	18.0476	56.697534	0.000345	3.446195	1.167603	-0.000138
 553	5.4924e+01	17.9995	56.641014	0.000142	1.419022	0.480778	-0.000057
 554	5.5023e+01	17.9706	56.519900	0.000304	3.040760	1.030238	-0.000122
 555	5.5123e+01	17.9289	56.439158	0.000203	2.027174	0.686825	-0.000081
 556	5.5222e+01	17.8808	56.350341	0.000223	2.229891	0.755508	-0.000089
 557	5.5322e+01	17.8487	56.289784	0.000152	1.520380	0.515119	-0.000061
 558	5.5422e+01	17.8086	56.237301	0.000132	1.317663	0.446436	-0.000053
 559	5.5521e+01	17.7589	56.160595	0.000193	1.925815	0.652484	-0.000077
 560	5.5620e+01	17.7204	56.047555	0.000284	2.838043	0.961555	-0.000114
 561	5.5720e+01	17.6851	56.003147	0.000111	1.114945	0.377754	-0.000045
 562	5.5819e+01	17.6385	55.910293	0.000233	2.331250	0.789849	-0.000093
 563	5.5919e+01	17.6081	55.833587	0.000193	1.925815	0.652484	-0.000077
 564	5.6019e+01	17.5647	55.700362	0.000334	3.344836	1.133261	-0.000134
 565	5.6118e+01	17.5214	55.635768	0.000162	1.621739	0.549460	-0.000065
 566	5.6218e+01	17.4910	55.550988	0.000213	2.128532	0.721166	-0.000085
 567	5.6317e+01	17.4428	55.474282	0.000193	1.925815	0.652484	-0.000077
 568	5.6416e+01	17.4059	55.389502	0.000213	2.128532	0.721166	-0.000085
 569	5.6516e+01	17.3626	55.268388	0.000304	3.040760	1.030238	-0.000122
 570	5.6615e+01	17.3273	55.147274	0.000304	3.040760	1.030238	-0.000122
 571	5.6715e+01	17.2888	55.070569	0.000193	1.925815	0.652484	-0.000077
 572	5.6815e+01	17.2439	54.953492	0.000294	2.939402	0.995896	-0.000118
 573	5.6914e+01	17.1974	54.856600	0.000243	2.432608	0.824190	-0.000097
 574	5.7014e+01	17.1781	54.828340	0.000071	0.709511	0.240389	-0.000028
 575	5.7113e+01	17.1396	54.755672	0.000182	1.824456	0.618143	-0.000073
 576	5.7212e+01	17.0915	54.646669	0.000274	2.736684	0.927214	-0.000110
 577	5.7312e+01	17.0466	54.529592	0.000294	2.939402	0.995896	-0.000118
 578	5.7411e+01	17.0097	54.477110	0.000132	1.317663	0.446436	-0.000053
 579	5.7511e+01	16.9712	54.376181	0.000253	2.533967	0.858531	-0.000101
 580	5.7611e+01	16.9295	54.311587	0.000162	1.621739	0.549460	-0.000065
 581	5.7710e+01	16.8765	54.242956	0.000172	1.723098	0.583801	-0.000069
 582	5.7809e+01	16.8364	54.125879	0.000294	2.939402	0.995896	-0.000118
 583	5.7909e+01	16.8156	54.073396	0.000132	1.317663	0.446436	-0.000053
 584	5.8008e+01	16.7674	53.948245	0.000314	3.142119	1.064579	-0.000126
 585	5.8108e+01	16.7305	53.867502	0.000203	2.027174	0.686825	-0.000081
 586	5.8208e+01	16.6920	53.750425	0.000294	2.939402	0.995896	-0.000118
 587	5.8307e+01	16.6455	53.592977	0.000395	3.952989	1.339309	-0.000158
 588	5.8407e+01	16.6118	53.516271	0.000193	1.925815	0.652484	-0.000077
 589	5.8506e+01	16.5637	53.387083	0.000324	3.243478	1.098920	-0.000130
 590	5.8605e+01	16.5236	53.326526	0.000152	1.520380	0.515119	-0.000061
 591	5.8705e+01	16.4851	53.257895	0.000172	1.723098	0.583801	-0.000069
 592	5.8804e+01	16.4562	53.152929	0.000264	2.635326	0.892873	-0.000105
 593	5.8904e+01	16.4033	53.096409	0.000142	1.419022	0.480778	-0.000057
 594	5.9004e+01	16.3728	52.979332	0.000294	2.939402	0.995896	-0.000118
 595	5.9103e+01	16.3295	52.882441	0.000243	2.432608	0.824190	-0.000097
 596	5.9203e+01	16.2894	52.817847	0.000162	1.621739	0.549460	-0.000065
 597	5.9302e+01	16.2429	52.704807	0.000284	2.838043	0.961555	-0.000114
 598	5.9401e+01	16.2044	52.636176	0.000172	1.723098	0.583801	-0.000069
 599	5.9501e+01	16.1707	52.527173	0.000274	2.736684	0.927214	-0.000110
 600	5.9600e+01	16.1322	52.402022	0.000314	3.142119	1.064579	-0.000126
 601	5.9700e+01	16.0792	52.345502	0.000142	1.419022	0.480778	-0.000057
 602	5.9800e+01	16.0455	52.248611	0.000243	2.432608	0.824190	-0.000097
 603	5.9899e+01	16.0070	52.107311	0.000355	3.547554	1.201944	-0.000142
 604	5.9998e+01	15.9814	51.986197	0.000304	3.040760	1.030238	-0.000122
 605	6.0098e+01	15.9316	51.945826	0.000101	1.013587	0.343413	-0.000041
 606	6.0197e+01	15.8883	51.812600	0.000334	3.344836	1.133261	-0.000134
 607	6.0297e+01	15.8498	51.675337	0.000345	3.446195	1.167603	-0.000138
 608	6.0397e+01	15.8065	51.622855	0.000132	1.317663	0.446436	-0.000053
 609	6.0496e+01	15.7712	51.530001	0.000233	2.331250	0.789849	-0.000093
 610	6.0596e+01	15.7391	51.477518	0.000132	1.317663	0.446436	-0.000053
 611	6.0695e+01	15.6910	51.356404	0.000304	3.040760	1.030238	-0.000122
 612	6.0794e+01	15.6461	51.247401	0.000274	2.736684	0.927214	-0.000110
 613	6.0894e+01	15.6044	51.166658	0.000203	2.027174	0.686825	-0.000081
 614	6.0993e+01	15.5755	51.093990	0.000182	1.824456	0.618143	-0.000073
 615	6.1093e+01	15.5338	50.984987	0.000274	2.736684	0.927214	-0.000110
 616	6.1193e+01	15.5017	50.880022	0.000264	2.635326	0.892873	-0.000105
 617	6.1292e+01	15.4520	50.795242	0.000213	2.128532	0.721166	-0.000085
 618	6.1392e+01	15.4199	50.694313	0.000253	2.533967	0.858531	-0.000101
 619	6.1491e+01	15.3814	50.605496	0.000223	2.229891	0.755508	-0.000089
 620	6.1590e+01	15.3365	50.476308	0.000324	3.243478	1.098920	-0.000130
 621	6.1690e+01	15.2851	50.326934	0.000375	3.750271	1.270626	-0.000150
 622	6.1789e+01	15.2530	50.209857	0.000294	2.939402	0.995896	-0.000118
 623	6.1889e+01	15.2242	50.141226	0.000172	1.723098	0.583801	-0.000069
 624	6.1989e+01	15.1728	50.003963	0.000345	3.446195	1.167603	-0.000138
 625	6.2088e+01	15.1311	49.959555	0.000111	1.114945	0.377754	-0.000045
 626	6.2188e+01	15.0926	49.830366	0.000324	3.243478	1.098920	-0.000130
 627	6.2287e+01	15.0557	49.806144	0.000061	0.608152	0.206048	-0.000024
 628	6.2386e+01	15.0220	49.652732	0.000385	3.851630	1.304968	-0.000154
 629	6.2486e+01	14.9739	49.559878	0.000233	2.331250	0.789849	-0.000093
 630	6.2586e+01	14.9418	49.495284	0.000162	1.621739	0.549460	-0.000065
 631	6.2685e+01	14.8889	49.349947	0.000365	3.648913	1.236285	-0.000146
 632	6.2785e+01	14.8584	49.281316	0.000172	1.723098	0.583801	-0.000069
 633	6.2884e+01	14.8103	49.148090	0.000334	3.344836	1.133261	-0.000134
 634	6.2983e+01	14.7702	49.079459	0.000172	1.723098	0.583801	-0.000069
 635	6.3083e+01	14.7429	48.990642	0.000223	2.229891	0.755508	-0.000089
 636	6.3182e+01	14.6996	48.881640	0.000274	2.736684	0.927214	-0.000110
 637	6.3282e+01	14.6563	48.756488	0.000314	3.142119	1.064579	-0.000126
 638	6.3382e+01	14.6178	48.623263	0.000334	3.344836	1.133261	-0.000134
 639	6.3481e+01	14.5745	48.506186	0.000294	2.939402	0.995896	-0.000118
 640	6.3581e+01	14.5360	48.413332	0.000233	2.331250	0.789849	-0.000093
 641	6.3680e+01	14.5023	48.332589	0.000203	2.027174	0.686825	-0.000081
 642	6.3779e+01	14.4606	48.227624	0.000264	2.635326	0.892873	-0.000105
 643	6.3879e+01	14.4188	48.090361	0.000345	3.446195	1.167603	-0.000138
 644	6.3978e+01	14.3755	48.045952	0.000111	1.114945	0.377754	-0.000045
 645	6.4078e+01	14.3402	47.973284	0.000182	1.824456	0.618143	-0.000073
 646	6.4177e+01	14.2953	47.836021	0.000345	3.446195	1.167603	-0.000138
 647	6.4277e+01	14.2664	47.755279	0.000203	2.027174	0.686825	-0.000081
 648	6.4376e+01	14.2183	47.658387	0.000243	2.432608	0.824190	-0.000097
 649	6.4476e+01	14.1766	47.533236	0.000314	3.142119	1.064579	-0.000126
 650	6.4576e+01	14.1381	47.424234	0.000274	2.736684	0.927214	-0.000110
 651	6.4675e+01	14.0996	47.323305	0.000253	2.533967	0.858531	-0.000101
 652	6.4775e+01	14.0579	47.234488	0.000223	2.229891	0.755508	-0.000089
 653	6.4874e+01	14.0210	47.145671	0.000223	2.229891	0.755508	-0.000089
 654	6.4974e+01	13.9873	47.008409	0.000345	3.446195	1.167603	-0.000138
 655	6.5073e+01	13.9424	46.927666	0.000203	2.027174	0.686825	-0.000081
 656	6.5172e+01	13.9023	46.745995	0.000456	4.561141	1.545356	-0.000183
 657	6.5272e+01	13.8606	46.641029	0.000264	2.635326	0.892873	-0.000105
 658	6.5371e+01	13.8173	46.560286	0.000203	2.027174	0.686825	-0.000081
 659	6.5471e+01	13.7836	46.451284	0.000274	2.736684	0.927214	-0.000110
 660	6.5570e+01	13.7354	46.358430	0.000233	2.331250	0.789849	-0.000093
 661	6.5670e+01	13.6969	46.314021	0.000111	1.114945	0.377754	-0.000045
 662	6.5769e+01	13.6600	46.188870	0.000314	3.142119	1.064579	-0.000126
 663	6.5869e+01	13.6135	46.096016	0.000233	2.331250	0.789849	-0.000093
 664	6.5969e+01	13.5846	46.003162	0.000233	2.331250	0.789849	-0.000093
 665	6.6068e+01	13.5333	45.898196	0.000264	2.635326	0.892873	-0.000105
 666	6.6168e+01	13.4932	45.760934	0.000345	3.446195	1.167603	-0.000138
 667	6.6267e+01	13.4643	45.712488	0.000122	1.216304	0.412095	-0.000049
 668	6.6367e+01	13.4162	45.583300	0.000324	3.243478	1.098920	-0.000130
 669	6.6466e+01	13.3793	45.494483	0.000223	2.229891	0.755508	-0.000089
 670	6.6566e+01	13.3344	45.417777	0.000193	1.925815	0.652484	-0.000077
 671	6.6665e+01	13.3071	45.264366	0.000385	3.851630	1.304968	-0.000154
 672	6.6764e+01	13.2558	45.167475	0.000243	2.432608	0.824190	-0.000097
 673	6.6864e+01	13.2205	45.050398	0.000294	2.939402	0.995896	-0.000118
 674	6.6963e+01	13.1820	44.969655	0.000203	2.027174	0.686825	-0.000081
 675	6.7063e+01	13.1451	44.836430	0.000334	3.344836	1.133261	-0.000134
 676	6.7162e+01	13.1050	44.687055	0.000375	3.750271	1.270626	-0.000150
 677	6.7262e+01	13.0601	44.614387	0.000182	1.824456	0.618143	-0.000073
 678	6.7362e+01	13.0232	44.513459	0.000253	2.533967	0.858531	-0.000101
 679	6.7461e+01	12.9782	44.408493	0.000264	2.635326	0.892873	-0.000105
 680	6.7561e+01	12.9446	44.347936	0.000152	1.520380	0.515119	-0.000061
 681	6.7660e+01	12.8980	44.255082	0.000233	2.331250	0.789849	-0.000093
 682	6.7760e+01	12.8643	44.133968	0.000304	3.040760	1.030238	-0.000122
 683	6.7859e+01	12.8210	44.037077	0.000243	2.432608	0.824190	-0.000097
 684	6.7959e+01	12.7873	43.940185	0.000243	2.432608	0.824190	-0.000097
 685	6.8058e+01	12.7504	43.843294	0.000243	2.432608	0.824190	-0.000097
 686	6.8157e+01	12.7039	43.726217	0.000294	2.939402	0.995896	-0.000118
 687	6.8257e+01	12.6622	43.629326	0.000243	2.432608	0.824190	-0.000097
 688	6.8356e+01	12.6285	43.500138	0.000324	3.243478	1.098920	-0.000130
 689	6.8456e+01	12.5900	43.431506	0.000172	1.723098	0.583801	-0.000069
 690	6.8555e+01	12.5451	43.322504	0.000274	2.736684	0.927214	-0.000110
 691	6.8655e+01	12.5130	43.197352	0.000314	3.142119	1.064579	-0.000126
 692	6.8754e+01	12.4713	43.096424	0.000253	2.533967	0.858531	-0.000101
 693	6.8854e+01	12.4248	42.979347	0.000294	2.939402	0.995896	-0.000118
 694	6.8954e+01	12.3879	42.817862	0.000405	4.054347	1.373650	-0.000162
 695	6.9053e+01	12.3462	42.725008	0.000233	2.331250	0.789849	-0.000093
 696	6.9153e+01	12.3013	42.624079	0.000253	2.533967	0.858531	-0.000101
 697	6.9252e+01	12.2644	42.507002	0.000294	2.939402	0.995896	-0.000118
 698	6.9352e+01	12.2275	42.442408	0.000162	1.621739	0.549460	-0.000065
 699	6.9451e+01	12.1970	42.385888	0.000142	1.419022	0.480778	-0.000057
 700	6.9550e+01	12.1505	42.236514	0.000375	3.750271	1.270626	-0.000150
 701	6.9650e+01	12.1071	42.151734	0.000213	2.128532	0.721166	-0.000085
 702	6.9749e+01	12.0702	42.050806	0.000253	2.533967	0.858531	-0.000101
 703	6.9849e+01	12.0350	41.941803	0.000274	2.736684	0.927214	-0.000110
 704	6.9948e+01	11.9948	41.852986	0.000223	2.229891	0.755508	-0.000089
 705	7.0048e+01	11.9435	41.760132	0.000233	2.331250	0.789849	-0.000093
 706	7.0147e+01	11.9066	41.610758	0.000375	3.750271	1.270626	-0.000150
 707	7.0247e+01	11.8713	41.538090	0.000182	1.824456	0.618143	-0.000073
 708	7.0347e+01	11.8248	41.425050	0.000284	2.838043	0.961555	-0.000114
 709	7.0446e+01	11.7895	41.320084	0.000264	2.635326	0.892873	-0.000105
 710	7.0546e+01	11.7590	41.158599	0.000405	4.054347	1.373650	-0.000162
 711	7.0645e+01	11.7109	41.021336	0.000345	3.446195	1.167603	-0.000138
 712	7.0745e+01	11.6724	40.912334	0.000274	2.736684	0.927214	-0.000110
 713	7.0844e+01	11.6307	40.839665	0.000182	1.824456	0.618143	-0.000073
 714	7.0944e+01	11.5826	40.690291	0.000375	3.750271	1.270626	-0.000150
 715	7.1043e+01	11.5489	40.617623	0.000182	1.824456	0.618143	-0.000073
 716	7.1142e+01	11.5120	40.532843	0.000213	2.128532	0.721166	-0.000085
 717	7.1242e+01	11.4831	40.439989	0.000233	2.331250	0.789849	-0.000093
 718	7.1341e+01	11.4286	40.310800	0.000324	3.243478	1.098920	-0.000130
 719	7.1441e+01	11.3884	40.270429	0.000101	1.013587	0.343413	-0.000041
 720	7.1540e+01	11.3580	40.108944	0.000405	4.054347	1.373650	-0.000162
 721	7.1640e+01	11.3211	40.040312	0.000172	1.723098	0.583801	-0.000069
 722	7.1740e+01	11.2665	39.894975	0.000365	3.648913	1.236285	-0.000146
 723	7.1839e+01	11.2232	39.814233	0.000203	2.027174	0.686825	-0.000081
 724	7.1939e+01	11.1975	39.685044	0.000324	3.243478	1.098920	-0.000130
 725	7.2038e+01	11.1494	39.584116	0.000253	2.533967	0.858531	-0.000101
 726	7.2138e+01	11.1013	39.503373	0.000203	2.027174	0.686825	-0.000081
 727	7.2237e+01	11.0756	39.370148	0.000334	3.344836	1.133261	-0.000134
 728	7.2337e+01	11.0403	39.257108	0.000284	2.838043	0.961555	-0.000114
 729	7.2436e+01	10.9906	39.067363	0.000476	4.763858	1.614039	-0.000191
 730	7.2535e+01	10.9601	38.966434	0.000253	2.533967	0.858531	-0.000101
 731	7.2635e+01	10.9136	38.901840	0.000162	1.621739	0.549460	-0.000065
 732	7.2734e+01	10.8735	38.708057	0.000487	4.865217	1.648380	-0.000195
 733	7.2834e+01	10.8414	38.635389	0.000182	1.824456	0.618143	-0.000073
 734	7.2933e+01	10.7901	38.558683	0.000193	1.925815	0.652484	-0.000077
 735	7.3033e+01	10.7500	38.437569	0.000304	3.040760	1.030238	-0.000122
 736	7.3132e+01	10.7099	38.360864	0.000193	1.925815	0.652484	-0.000077
 737	7.3232e+01	10.6665	38.255898	0.000264	2.635326	0.892873	-0.000105
 738	7.3332e+01	10.6296	38.154970	0.000253	2.533967	0.858531	-0.000101
 739	7.3431e+01	10.5895	38.041930	0.000284	2.838043	0.961555	-0.000114
 740	7.3531e+01	10.5559	37.949076	0.000233	2.331250	0.789849	-0.000093
 741	7.3630e+01	10.5109	37.819888	0.000324	3.243478	1.098920	-0.000130
 742	7.3730e+01	10.4772	37.731071	0.000223	2.229891	0.755508	-0.000089
 743	7.3829e+01	10.4355	37.573622	0.000395	3.952989	1.339309	-0.000158
 744	7.3928e+01	10.3858	37.452508	0.000304	3.040760	1.030238	-0.000122
 745	7.4028e+01	10.3553	37.351580	0.000253	2.533967	0.858531	-0.000101
 746	7.4127e+01	10.3216	37.218354	0.000334	3.344836	1.133261	-0.000134
 747	7.4227e+01	10.2767	37.060906	0.000395	3.952989	1.339309	-0.000158
 748	7.4326e+01	10.2382	36.931718	0.000324	3.243478	1.098920	-0.000130
 749	7.4426e+01	10.1981	36.842901	0.000223	2.229891	0.755508	-0.000089
 750	7.4525e+01	10.1548	36.746009	0.000243	2.432608	0.824190	-0.000097
 751	7.4625e+01	10.1195	36.620858	0.000314	3.142119	1.064579	-0.000126
 752	7.4725e+01	10.0698	36.523967	0.000243	2.432608	0.824190	-0.000097
 753	7.4824e+01	10.0393	36.414964	0.000274	2.736684	0.927214	-0.000110
 754	7.4924e+01	9.9944	36.301925	0.000284	2.838043	0.961555	-0.000114
 755	7.5023e+01	9.9607	36.160625	0.000355	3.547554	1.201944	-0.000142
 756	7.5123e+01	9.9093	36.079882	0.000203	2.027174	0.686825	-0.000081
 757	7.5222e+01	9.8741	35.982991	0.000243	2.432608	0.824190	-0.000097
 758	7.5322e+01	9.8323	35.853802	0.000324	3.243478	1.098920	-0.000130
 759	7.5421e+01	9.7938	35.712503	0.000355	3.547554	1.201944	-0.000142
 760	7.5520e+01	9.7569	35.619649	0.000233	2.331250	0.789849	-0.000093
 761	7.5620e+01	9.7136	35.470275	0.000375	3.750271	1.270626	-0.000150
 762	7.5719e+01	9.6799	35.345123	0.000314	3.142119	1.064579	-0.000126
 763	7.5819e+01	9.6414	35.240158	0.000264	2.635326	0.892873	-0.000105
 764	7.5918e+01	9.6061	35.082710	0.000395	3.952989	1.339309	-0.000158
 765	7.6018e+01	9.5548	34.973707	0.000274	2.736684	0.927214	-0.000110
 766	7.6118e+01	9.5163	34.844519	0.000324	3.243478	1.098920	-0.000130
 767	7.6217e+01	9.4810	34.695145	0.000375	3.750271	1.270626	-0.000150
 768	7.6317e+01	9.4361	34.565956	0.000324	3.243478	1.098920	-0.000130
 769	7.6416e+01	9.4072	34.489251	0.000193	1.925815	0.652484	-0.000077
 770	7.6516e+01	9.3575	34.356025	0.000334	3.344836	1.133261	-0.000134
 771	7.6615e+01	9.3158	34.242985	0.000284	2.838043	0.961555	-0.000114
 772	7.6715e+01	9.2773	34.138020	0.000264	2.635326	0.892873	-0.000105
 773	7.6814e+01	9.2404	34.024980	0.000284	2.838043	0.961555	-0.000114
 774	7.6913e+01	9.1971	33.907903	0.000294	2.939402	0.995896	-0.000118
 775	7.7013e+01	9.1505	33.794863	0.000284	2.838043	0.961555	-0.000114
 776	7.7112e+01	9.1120	33.653564	0.000355	3.547554	1.201944	-0.000142
 777	7.7212e+01	9.0816	33.536487	0.000294	2.939402	0.995896	-0.000118
 778	7.7311e+01	9.0399	33.439595	0.000243	2.432608	0.824190	-0.000097
 779	7.7411e+01	8.9949	33.265998	0.000436	4.358423	1.476674	-0.000174
 780	7.7510e+01	8.9548	33.189293	0.000193	1.925815	0.652484	-0.000077
 781	7.7610e+01	8.9195	33.019733	0.000426	4.257065	1.442333	-0.000170
 782	7.7710e+01	8.8746	32.947065	0.000182	1.824456	0.618143	-0.000073
 783	7.7809e+01	8.8377	32.757319	0.000476	4.763858	1.614039	-0.000191
 784	7.7909e+01	8.7896	32.660428	0.000243	2.432608	0.824190	-0.000097
 785	7.8008e+01	8.7527	32.515091	0.000365	3.648913	1.236285	-0.000146
 786	7.8108e+01	8.7158	32.430311	0.000213	2.128532	0.721166	-0.000085
 787	7.8207e+01	8.6709	32.329383	0.000253	2.533967	0.858531	-0.000101
 788	7.8306e+01	8.6308	32.212306	0.000294	2.939402	0.995896	-0.000118
 789	7.8406e+01	8.5987	32.058895	0.000385	3.851630	1.304968	-0.000154
 790	7.8505e+01	8.5602	31.966041	0.000233	2.331250	0.789849	-0.000093
 791	7.8605e+01	8.5169	31.808592	0.000395	3.952989	1.339309	-0.000158
 792	7.8704e+01	8.4800	31.695553	0.000284	2.838043	0.961555	-0.000114
 793	7.8804e+01	8.4415	31.574439	0.000304	3.040760	1.030238	-0.000122
 794	7.8903e+01	8.4062	31.485622	0.000223	2.229891	0.755508	-0.000089
 795	7.9003e+01	8.3629	31.352396	0.000334	3.344836	1.133261	-0.000134
 796	7.9103e+01	8.3147	31.198985	0.000385	3.851630	1.304968	-0.000154
 797	7.9202e+01	8.2730	31.061722	0.000345	3.446195	1.167603	-0.000138
 798	7.9302e+01	8.2425	30.936571	0.000314	3.142119	1.064579	-0.000126
 799	7.9401e+01	8.2040	30.795271	0.000355	3.547554	1.201944	-0.000142
 800	7.9501e+01	8.1688	30.621675	0.000436	4.358423	1.476674	-0.000174
 801	7.9600e+01	8.1238	30.508635	0.000284	2.838043	0.961555	-0.000114
 802	7.9700e+01	8.0805	30.367335	0.000355	3.547554	1.201944	-0.000142
 803	7.9799e+01	8.0404	30.262369	0.000264	2.635326	0.892873	-0.000105
 804	7.9898e+01	7.9987	30.157404	0.000264	2.635326	0.892873	-0.000105
 805	7.9998e+01	7.9682	30.028216	0.000324	3.243478	1.098920	-0.000130
 806	8.0097e+01	7.9265	29.907102	0.000304	3.040760	1.030238	-0.000122
 807	8.0197e+01	7.8832	29.757728	0.000375	3.750271	1.270626	-0.000150
 808	8.0296e+01	7.8431	29.656799	0.000253	2.533967	0.858531	-0.000101
 809	8.0396e+01	7.8030	29.527611	0.000324	3.243478	1.098920	-0.000130
 810	8.0496e+01	7.7597	29.410534	0.000294	2.939402	0.995896	-0.000118
 811	8.0595e+01	7.7292	29.265197	0.000365	3.648913	1.236285	-0.000146
 812	8.0695e+01	7.6843	29.172343	0.000233	2.331250	0.789849	-0.000093
 813	8.0794e+01	7.6522	28.998746	0.000436	4.358423	1.476674	-0.000174
 814	8.0894e+01	7.6009	28.857446	0.000355	3.547554	1.201944	-0.000142
 815	8.0993e+01	7.5640	28.752481	0.000264	2.635326	0.892873	-0.000105
 816	8.1093e+01	7.5287	28.639441	0.000284	2.838043	0.961555	-0.000114
 817	8.1192e+01	7.4837	28.502178	0.000345	3.446195	1.167603	-0.000138
 818	8.1291e+01	7.4517	28.328581	0.000436	4.358423	1.476674	-0.000174
 819	8.1391e+01	7.4019	28.163059	0.000416	4.155706	1.407991	-0.000166
 820	8.1490e+01	7.3634	28.058093	0.000264	2.635326	0.892873	-0.000105
 821	8.1590e+01	7.3201	27.949091	0.000274	2.736684	0.927214	-0.000110
 822	8.1689e+01	7.2752	27.827977	0.000304	3.040760	1.030238	-0.000122
 823	8.1789e+01	7.2383	27.682640	0.000365	3.648913	1.236285	-0.000146
 824	8.1888e+01	7.2094	27.561526	0.000304	3.040760	1.030238	-0.000122
 825	8.1988e+01	7.1613	27.456560	0.000264	2.635326	0.892873	-0.000105
 826	8.2088e+01	7.1324	27.303149	0.000385	3.851630	1.304968	-0.000154
 827	8.2187e+01	7.0811	27.169924	0.000334	3.344836	1.133261	-0.000134
 828	8.2287e+01	7.0378	27.036698	0.000334	3.344836	1.133261	-0.000134
 829	8.2386e+01	7.0057	26.955955	0.000203	2.027174	0.686825	-0.000081
 830	8.2486e+01	6.9704	26.830804	0.000314	3.142119	1.064579	-0.000126
 831	8.2585e+01	6.9223	26.661244	0.000426	4.257065	1.442333	-0.000170
 832	8.2684e+01	6.8870	26.560316	0.000253	2.533967	0.858531	-0.000101
 833	8.2784e+01	6.8485	26.394793	0.000416	4.155706	1.407991	-0.000166
 834	8.2883e+01	6.8084	26.293865	0.000253	2.533967	0.858531	-0.000101
 835	8.2983e+01	6.7699	26.148528	0.000365	3.648913	1.236285	-0.000146
 836	8.3082e+01	6.7298	25.958783	0.000476	4.763858	1.614039	-0.000191
 837	8.3182e+01	6.6913	25.841706	0.000294	2.939402	0.995896	-0.000118
 838	8.3281e+01	6.6431	25.728666	0.000284	2.838043	0.961555	-0.000114
 839	8.3381e+01	6.6143	25.627738	0.000253	2.533967	0.858531	-0.000101
 840	8.3481e+01	6.5677	25.490475	0.000345	3.446195	1.167603	-0.000138
 841	8.3580e+01	6.5244	25.385510	0.000264	2.635326	0.892873	-0.000105
 842	8.3680e+01	6.4811	25.244210	0.000355	3.547554	1.201944	-0.000142
 843	8.3779e+01	6.4554	25.119059	0.000314	3.142119	1.064579	-0.000126
 844	8.3879e+01	6.4121	25.026204	0.000233	2.331250	0.789849	-0.000093
 845	8.3978e+01	6.3688	24.836459	0.000476	4.763858	1.614039	-0.000191
 846	8.4078e+01	6.3255	24.735531	0.000253	2.533967	0.858531	-0.000101
 847	8.4177e+01	6.2854	24.622491	0.000284	2.838043	0.961555	-0.000114
 848	8.4276e+01	6.2597	24.493303	0.000324	3.243478	1.098920	-0.000130
 849	8.4376e+01	6.2084	24.347966	0.000365	3.648913	1.236285	-0.000146
 850	8.4475e+01	6.1699	24.210703	0.000345	3.446195	1.167603	-0.000138
 851	8.4575e+01	6.1378	24.024995	0.000466	4.662499	1.579698	-0.000187
 852	8.4674e+01	6.0913	23.956363	0.000172	1.723098	0.583801	-0.000069
 853	8.4774e+01	6.0576	23.758544	0.000497	4.966575	1.682721	-0.000199
 854	8.4874e+01	6.0271	23.637430	0.000304	3.040760	1.030238	-0.000122
 855	8.4973e+01	5.9726	23.500167	0.000345	3.446195	1.167603	-0.000138
 856	8.5073e+01	5.9373	23.366942	0.000334	3.344836	1.133261	-0.000134
 857	8.5172e+01	5.8923	23.270050	0.000243	2.432608	0.824190	-0.000097
 858	8.5272e+01	5.8506	23.136825	0.000334	3.344836	1.133261	-0.000134
 859	8.5371e+01	5.8105	22.991488	0.000365	3.648913	1.236285	-0.000146
 860	8.5471e+01	5.7656	22.858263	0.000334	3.344836	1.133261	-0.000134
 861	8.5570e+01	5.7367	22.757334	0.000253	2.533967	0.858531	-0.000101
 862	8.5669e+01	5.6902	22.599886	0.000395	3.952989	1.339309	-0.000158
 863	8.5769e+01	5.6501	22.466660	0.000334	3.344836	1.133261	-0.000134
 864	8.5868e+01	5.6068	22.357658	0.000274	2.736684	0.927214	-0.000110
 865	8.5968e+01	5.5731	22.220395	0.000345	3.446195	1.167603	-0.000138
 866	8.6067e+01	5.5346	22.054873	0.000416	4.155706	1.407991	-0.000166
 867	8.6167e+01	5.4913	21.933758	0.000304	3.040760	1.030238	-0.000122
 868	8.6266e+01	5.4528	21.796496	0.000345	3.446195	1.167603	-0.000138
 869	8.6366e+01	5.4095	21.626936	0.000426	4.257065	1.442333	-0.000170
 870	8.6466e+01	5.3822	21.481599	0.000365	3.648913	1.236285	-0.000146
 871	8.6565e+01	5.3228	21.344337	0.000345	3.446195	1.167603	-0.000138
 872	8.6665e+01	5.2924	21.223223	0.000304	3.040760	1.030238	-0.000122
 873	8.6764e+01	5.2539	21.166703	0.000142	1.419022	0.480778	-0.000057
 874	8.6864e+01	5.2186	20.985032	0.000456	4.561141	1.545356	-0.000183
 875	8.6963e+01	5.1737	20.851806	0.000334	3.344836	1.133261	-0.000134
 876	8.7063e+01	5.1335	20.726655	0.000314	3.142119	1.064579	-0.000126
 877	8.7162e+01	5.0886	20.613615	0.000284	2.838043	0.961555	-0.000114
 878	8.7261e+01	5.0549	20.464241	0.000375	3.750271	1.270626	-0.000150
 879	8.7361e+01	5.0148	20.335053	0.000324	3.243478	1.098920	-0.000130
 880	8.7460e+01	4.9619	20.205864	0.000324	3.243478	1.098920	-0.000130
 881	8.7560e+01	4.9378	20.032268	0.000436	4.358423	1.476674	-0.000174
 882	8.7659e+01	4.8977	19.935376	0.000243	2.432608	0.824190	-0.000097
 883	8.7759e+01	4.8576	19.786002	0.000375	3.750271	1.270626	-0.000150
 884	8.7859e+01	4.8079	19.656814	0.000324	3.243478	1.098920	-0.000130
 885	8.7958e+01	4.7662	19.503403	0.000385	3.851630	1.304968	-0.000154
 886	8.8058e+01	4.7309	19.354029	0.000375	3.750271	1.270626	-0.000150
 887	8.8157e+01	4.6972	19.240989	0.000284	2.838043	0.961555	-0.000114
 888	8.8257e+01	4.6667	19.063355	0.000446	4.459782	1.511015	-0.000179
 889	8.8356e+01	4.6122	18.918018	0.000365	3.648913	1.236285	-0.000146
 890	8.8456e+01	4.5721	18.821127	0.000243	2.432608	0.824190	-0.000097
 891	8.8555e+01	4.5400	18.691938	0.000324	3.243478	1.098920	-0.000130
 892	8.8654e+01	4.5079	18.582936	0.000274	2.736684	0.927214	-0.000110
 893	8.8754e+01	4.4517	18.445673	0.000345	3.446195	1.167603	-0.000138
 894	8.8853e+01	4.4213	18.288225	0.000395	3.952989	1.339309	-0.000158
 895	8.8953e+01	4.3876	18.154999	0.000334	3.344836	1.133261	-0.000134
 896	8.9052e+01	4.3394	17.997551	0.000395	3.952989	1.339309	-0.000158
 897	8.9152e+01	4.2961	17.876437	0.000304	3.040760	1.030238	-0.000122
 898	8.9251e+01	4.2576	17.735137	0.000355	3.547554	1.201944	-0.000142
 899	8.9351e+01	4.2175	17.597875	0.000345	3.446195	1.167603	-0.000138
 900	8.9451e+01	4.1774	17.468686	0.000324	3.243478	1.098920	-0.000130
 901	8.9550e+01	4.1325	17.335461	0.000334	3.344836	1.133261	-0.000134
 902	8.9650e+01	4.0988	17.198198	0.000345	3.446195	1.167603	-0.000138
 903	8.9749e+01	4.0587	17.093233	0.000264	2.635326	0.892873	-0.000105
 904	8.9849e+01	4.0186	16.859079	0.000588	5.878804	1.991793	-0.000235
 905	8.9948e+01	3.9753	16.713742	0.000365	3.648913	1.236285	-0.000146
 906	9.0047e+01	3.9352	16.556294	0.000395	3.952989	1.339309	-0.000158
 907	9.0147e+01	3.8983	16.451328	0.000264	2.635326	0.892873	-0.000105
 908	9.0246e+01	3.8630	16.305991	0.000365	3.648913	1.236285	-0.000146
 909	9.0346e+01	3.8261	16.156617	0.000375	3.750271	1.270626	-0.000150
 910	9.0445e+01	3.7748	16.027429	0.000324	3.243478	1.098920	-0.000130
 911	9.0545e+01	3.7411	15.898241	0.000324	3.243478	1.098920	-0.000130
 912	9.0644e+01	3.7010	15.769052	0.000324	3.243478	1.098920	-0.000130
 913	9.0744e+01	3.6657	15.611604	0.000395	3.952989	1.339309	-0.000158
 914	9.0844e+01	3.6240	15.494527	0.000294	2.939402	0.995896	-0.000118
 915	9.0943e+01	3.5758	15.349190	0.000365	3.648913	1.236285	-0.000146
 916	9.1043e+01	3.5421	15.151370	0.000497	4.966575	1.682721	-0.000199
 917	9.1142e+01	3.5020	15.018145	0.000334	3.344836	1.133261	-0.000134
 918	9.1242e+01	3.4587	14.897031	0.000304	3.040760	1.030238	-0.000122
 919	9.1341e+01	3.4218	14.747657	0.000375	3.750271	1.270626	-0.000150
 920	9.1441e+01	3.3817	14.598283	0.000375	3.750271	1.270626	-0.000150
 921	9.1540e+01	3.3496	14.444872	0.000385	3.851630	1.304968	-0.000154
 922	9.1639e+01	3.3015	14.263201	0.000456	4.561141	1.545356	-0.000183
 923	9.1739e+01	3.2646	14.101715	0.000405	4.054347	1.373650	-0.000162
 924	9.1838e+01	3.2197	13.980601	0.000304	3.040760	1.030238	-0.000122
 925	9.1938e+01	3.1892	13.807004	0.000436	4.358423	1.476674	-0.000174
 926	9.2037e+01	3.1475	13.726262	0.000203	2.027174	0.686825	-0.000081
 927	9.2137e+01	3.1058	13.576887	0.000375	3.750271	1.270626	-0.000150
 928	9.2237e+01	3.0641	13.415402	0.000405	4.054347	1.373650	-0.000162
 929	9.2336e+01	3.0208	13.261991	0.000385	3.851630	1.304968	-0.000154
 930	9.2436e+01	2.9935	13.112617	0.000375	3.750271	1.270626	-0.000150
 931	9.2535e+01	2.9438	13.015726	0.000243	2.432608	0.824190	-0.000097
 932	9.2635e+01	2.9117	12.793683	0.000557	5.574727	1.888769	-0.000223
 933	9.2734e+01	2.8603	12.700829	0.000233	2.331250	0.789849	-0.000093
 934	9.2834e+01	2.8202	12.539344	0.000405	4.054347	1.373650	-0.000162
 935	9.2933e+01	2.7898	12.373821	0.000416	4.155706	1.407991	-0.000166
 936	9.3032e+01	2.7368	12.224447	0.000375	3.750271	1.270626	-0.000150
 937	9.3132e+01	2.7047	12.075073	0.000375	3.750271	1.270626	-0.000150
 938	9.3231e+01	2.6646	11.909550	0.000416	4.155706	1.407991	-0.000166
 939	9.3331e+01	2.6165	11.719805	0.000476	4.763858	1.614039	-0.000191
 940	9.3430e+01	2.5908	11.622914	0.000243	2.432608	0.824190	-0.000097
 941	9.3530e+01	2.5443	11.449317	0.000436	4.358423	1.476674	-0.000174
 942	9.3629e+01	2.5010	11.336277	0.000284	2.838043	0.961555	-0.000114
 943	9.3729e+01	2.4513	11.150569	0.000466	4.662499	1.579698	-0.000187
 944	9.3829e+01	2.4224	11.033492	0.000294	2.939402	0.995896	-0.000118
 945	9.3928e+01	2.3823	10.859895	0.000436	4.358423	1.476674	-0.000174
 946	9.4028e+01	2.3422	10.722633	0.000345	3.446195	1.167603	-0.000138
 947	9.4127e+01	2.3005	10.532887	0.000476	4.763858	1.614039	-0.000191
 948	9.4227e+01	2.2588	10.435996	0.000243	2.432608	0.824190	-0.000097
 949	9.4326e+01	2.2283	10.250288	0.000466	4.662499	1.579698	-0.000187
 950	9.4425e+01	2.1898	10.104951	0.000365	3.648913	1.236285	-0.000146
 951	9.4525e+01	2.1433	9.959614	0.000365	3.648913	1.236285	-0.000146
 952	9.4624e+01	2.1080	9.753720	0.000517	5.169293	1.751404	-0.000207
 953	9.4724e+01	2.0695	9.636643	0.000294	2.939402	0.995896	-0.000118
 954	9.4823e+01	2.0326	9.426712	0.000527	5.270651	1.785745	-0.000211
 955	9.4923e+01	1.9941	9.301561	0.000314	3.142119	1.064579	-0.000126
 956	9.5022e+01	1.9491	9.160261	0.000355	3.547554	1.201944	-0.000142
 957	9.5122e+01	1.9090	9.035110	0.000314	3.142119	1.064579	-0.000126
 958	9.5222e+01	1.8673	8.861513	0.000436	4.358423	1.476674	-0.000174
 959	9.5321e+01	1.8240	8.691953	0.000426	4.257065	1.442333	-0.000170
 960	9.5421e+01	1.7839	8.554691	0.000345	3.446195	1.167603	-0.000138
 961	9.5520e+01	1.7422	8.405317	0.000375	3.750271	1.270626	-0.000150
 962	9.5620e+01	1.7197	8.276128	0.000324	3.243478	1.098920	-0.000130
 963	9.5719e+01	1.6652	8.094457	0.000456	4.561141	1.545356	-0.000183
 964	9.5819e+01	1.6363	7.916823	0.000446	4.459782	1.511015	-0.000179
 965	9.5918e+01	1.5898	7.779561	0.000345	3.446195	1.167603	-0.000138
 966	9.6017e+01	1.5481	7.638261	0.000355	3.547554	1.201944	-0.000142
 967	9.6117e+01	1.5016	7.468701	0.000426	4.257065	1.442333	-0.000170
 968	9.6216e+01	1.4695	7.291067	0.000446	4.459782	1.511015	-0.000179
 969	9.6316e+01	1.4262	7.125545	0.000416	4.155706	1.407991	-0.000166
 970	9.6415e+01	1.3941	6.976171	0.000375	3.750271	1.270626	-0.000150
 971	9.6515e+01	1.3476	6.742017	0.000588	5.878804	1.991793	-0.000235
 972	9.6615e+01	1.3074	6.637051	0.000264	2.635326	0.892873	-0.000105
 973	9.6714e+01	1.2722	6.487677	0.000375	3.750271	1.270626	-0.000150
 974	9.6814e+01	1.2304	6.314080	0.000436	4.358423	1.476674	-0.000174
 975	9.6913e+01	1.1919	6.213152	0.000253	2.533967	0.858531	-0.000101
 976	9.7013e+01	1.1486	6.011295	0.000507	5.067934	1.717063	-0.000203
 977	9.7112e+01	1.1085	5.894218	0.000294	2.939402	0.995896	-0.000118
 978	9.7212e+01	1.0636	5.692361	0.000507	5.067934	1.717063	-0.000203
 979	9.7311e+01	1.0315	5.559136	0.000334	3.344836	1.133261	-0.000134
 980	9.7410e+01	0.9834	5.425910	0.000334	3.344836	1.133261	-0.000134
 981	9.7510e+01	0.9385	5.232128	0.000487	4.865217	1.648380	-0.000195
 982	9.7609e+01	0.9160	5.062568	0.000426	4.257065	1.442333	-0.000170
 983	9.7709e+01	0.8679	4.969714	0.000233	2.331250	0.789849	-0.000093
 984	9.7808e+01	0.8230	4.763820	0.000517	5.169293	1.751404	-0.000207
 985	9.7908e+01	0.7877	4.586186	0.000446	4.459782	1.511015	-0.000179
 986	9.8007e+01	0.7476	4.432775	0.000385	3.851630	1.304968	-0.000154
 987	9.8107e+01	0.7171	4.307624	0.000314	3.142119	1.064579	-0.000126
 988	9.8207e+01	0.6738	4.097693	0.000527	5.270651	1.785745	-0.000211
 989	9.8306e+01	0.6353	3.928133	0.000426	4.257065	1.442333	-0.000170
 990	9.8406e+01	0.5952	3.798945	0.000324	3.243478	1.098920	-0.000130
 991	9.8505e+01	0.5454	3.681868	0.000294	2.939402	0.995896	-0.000118
 992	9.8605e+01	0.5118	3.504234	0.000446	4.459782	1.511015	-0.000179
 993	9.8704e+01	0.4781	3.358897	0.000365	3.648913	1.236285	-0.000146
 994	9.8803e+01	0.4315	3.197412	0.000405	4.054347	1.373650	-0.000162
 995	9.8903e+01	0.3978	3.019778	0.000446	4.459782	1.511015	-0.000179
 996	9.9002e+01	0.3481	2.870404	0.000375	3.750271	1.270626	-0.000150
 997	9.9102e+01	0.3112	2.716992	0.000385	3.851630	1.304968	-0.000154
 998	9.9201e+01	0.2823	2.551470	0.000416	4.155706	1.407991	-0.000166
 999	9.9301e+01	0.2294	2.377873	0.000436	4.358423	1.476674	-0.000174
1000	9.9400e+01	0.1861	2.256759	0.000304	3.040760	1.030238	-0.000122
1001	9.9500e+01	0.1524	2.062976	0.000487	4.865217	1.648380	-0.000195
1002	9.9600e+01	0.1107	1.889380	0.000436	4.358423	1.476674	-0.000174
1003	9.9699e+01	0.0786	1.780377	0.000274	2.736684	0.927214	-0.000110
1004	9.9799e+01	0.0385	1.578520	0.000507	5.067934	1.717063	-0.000203
1005	9.9898e+01	0.0080	1.453369	0.000314	3.142119	1.064579	-0.000126
1006	9.9998e+01	-0.0369	1.255549	0.000497	4.966575	1.682721	-0.000199
1007	1.0010e+02	-0.0754	1.154621	0.000253	2.533967	0.858531	-0.000101
1008	1.0020e+02	-0.1091	0.993135	0.000405	4.054347	1.373650	-0.000162
1009	1.0030e+02	-0.1636	0.827613	0.000416	4.155706	1.407991	-0.000166
1010	1.0040e+02	-0.2005	0.698424	0.000324	3.243478	1.098920	-0.000130
1011	1.0050e+02	-0.2471	0.516753	0.000456	4.561141	1.545356	-0.000183
1012	1.0059e+02	-0.2775	0.375454	0.000355	3.547554	1.201944	-0.000142
1013	1.0069e+02	-0.3160	0.201857	0.000436	4.358423	1.476674	-0.000174
1014	1.0079e+02	-0.3545	0.052483	0.000375	3.750271	1.270626	-0.000150
1015	1.0089e+02	-0.4059	-0.129188	0.000456	4.561141	1.545356	-0.000183
1016	1.0099e+02	-0.4315	-0.274525	0.000365	3.648913	1.236285	-0.000146
1017	1.0109e+02	-0.4781	-0.444085	0.000426	4.257065	1.442333	-0.000170
1018	1.0119e+02	-0.5134	-0.585385	0.000355	3.547554	1.201944	-0.000142
1019	1.0129e+02	-0.5551	-0.730722	0.000365	3.648913	1.236285	-0.000146
1020	1.0139e+02	-0.5920	-0.924504	0.000487	4.865217	1.648380	-0.000195
1021	1.0149e+02	-0.6337	-1.118287	0.000487	4.865217	1.648380	-0.000195
1022	1.0159e+02	-0.6786	-1.279772	0.000405	4.054347	1.373650	-0.000162
1023	1.0169e+02	-0.7203	-1.408960	0.000324	3.243478	1.098920	-0.000130
1024	1.0179e+02	-0.7540	-1.534112	0.000314	3.142119	1.064579	-0.000126
1025	1.0189e+02	-0.8021	-1.740006	0.000517	5.169293	1.751404	-0.000207
1026	1.0199e+02	-0.8390	-1.893417	0.000385	3.851630	1.304968	-0.000154
1027	1.0209e+02	-0.8695	-1.998382	0.000264	2.635326	0.892873	-0.000105
1028	1.0219e+02	-0.9192	-2.171979	0.000436	4.358423	1.476674	-0.000174
1029	1.0229e+02	-0.9529	-2.337502	0.000416	4.155706	1.407991	-0.000166
1030	1.0239e+02	-0.9946	-2.503024	0.000416	4.155706	1.407991	-0.000166
1031	1.0248e+02	-1.0411	-2.668547	0.000416	4.155706	1.407991	-0.000166
1032	1.0258e+02	-1.0732	-2.850218	0.000456	4.561141	1.545356	-0.000183
1033	1.0268e+02	-1.1085	-2.995555	0.000365	3.648913	1.236285	-0.000146
1034	1.0278e+02	-1.1615	-3.132817	0.000345	3.446195	1.167603	-0.000138
1035	1.0288e+02	-1.1952	-3.306414	0.000436	4.358423	1.476674	-0.000174
1036	1.0298e+02	-1.2304	-3.435603	0.000324	3.243478	1.098920	-0.000130
1037	1.0308e+02	-1.2738	-3.653608	0.000547	5.473369	1.854428	-0.000219
1038	1.0318e+02	-1.3107	-3.778759	0.000314	3.142119	1.064579	-0.000126
1039	1.0328e+02	-1.3604	-3.960430	0.000456	4.561141	1.545356	-0.000183
1040	1.0338e+02	-1.3925	-4.097693	0.000345	3.446195	1.167603	-0.000138
1041	1.0348e+02	-1.4326	-4.271290	0.000436	4.358423	1.476674	-0.000174
1042	1.0358e+02	-1.4743	-4.404515	0.000334	3.344836	1.133261	-0.000134
1043	1.0368e+02	-1.5160	-4.549852	0.000365	3.648913	1.236285	-0.000146
1044	1.0378e+02	-1.5577	-4.735560	0.000466	4.662499	1.579698	-0.000187
1045	1.0388e+02	-1.5882	-4.876860	0.000355	3.547554	1.201944	-0.000142
1046	1.0398e+02	-1.6347	-5.050457	0.000436	4.358423	1.476674	-0.000174
1047	1.0408e+02	-1.6748	-5.171571	0.000304	3.040760	1.030238	-0.000122
1048	1.0418e+02	-1.7133	-5.341131	0.000426	4.257065	1.442333	-0.000170
1049	1.0428e+02	-1.7566	-5.478393	0.000345	3.446195	1.167603	-0.000138
1050	1.0438e+02	-1.7919	-5.651990	0.000436	4.358423	1.476674	-0.000174
1051	1.0447e+02	-1.8256	-5.797327	0.000365	3.648913	1.236285	-0.000146
1052	1.0457e+02	-1.8705	-5.958812	0.000405	4.054347	1.373650	-0.000162
1053	1.0467e+02	-1.9155	-6.124335	0.000416	4.155706	1.407991	-0.000166
1054	1.0477e+02	-1.9604	-6.301969	0.000446	4.459782	1.511015	-0.000179
1055	1.0487e+02	-1.9844	-6.398860	0.000243	2.432608	0.824190	-0.000097
1056	1.0497e+02	-2.0229	-6.604754	0.000517	5.169293	1.751404	-0.000207
1057	1.0507e+02	-2.0711	-6.766239	0.000405	4.054347	1.373650	-0.000162
1058	1.0517e+02	-2.1112	-6.891391	0.000314	3.142119	1.064579	-0.000126
1059	1.0527e+02	-2.1465	-7.036728	0.000365	3.648913	1.236285	-0.000146
1060	1.0537e+02	-2.1978	-7.169953	0.000334	3.344836	1.133261	-0.000134
1061	1.0547e+02	-2.2283	-7.339513	0.000426	4.257065	1.442333	-0.000170
1062	1.0557e+02	-2.2732	-7.500998	0.000405	4.054347	1.373650	-0.000162
1063	1.0567e+02	-2.3133	-7.662484	0.000405	4.054347	1.373650	-0.000162
1064	1.0577e+02	-2.3534	-7.828006	0.000416	4.155706	1.407991	-0.000166
1065	1.0587e+02	-2.3823	-7.977380	0.000375	3.750271	1.270626	-0.000150
1066	1.0597e+02	-2.4384	-8.126754	0.000375	3.750271	1.270626	-0.000150
1067	1.0607e+02	-2.4753	-8.288240	0.000405	4.054347	1.373650	-0.000162
1068	1.0617e+02	-2.5090	-8.445688	0.000395	3.952989	1.339309	-0.000158
1069	1.0627e+02	-2.5491	-8.631396	0.000466	4.662499	1.579698	-0.000187
1070	1.0637e+02	-2.5908	-8.708102	0.000193	1.925815	0.652484	-0.000077
1071	1.0647e+02	-2.6245	-8.913996	0.000517	5.169293	1.751404	-0.000207
1072	1.0656e+02	-2.6550	-9.087593	0.000436	4.358423	1.476674	-0.000174
1073	1.0666e+02	-2.7031	-9.232929	0.000365	3.648913	1.236285	-0.000146
1074	1.0676e+02	-2.7384	-9.422675	0.000476	4.763858	1.614039	-0.000191
1075	1.0686e+02	-2.7898	-9.555900	0.000334	3.344836	1.133261	-0.000134
1076	1.0696e+02	-2.8234	-9.640680	0.000213	2.128532	0.721166	-0.000085
1077	1.0706e+02	-2.8603	-9.826388	0.000466	4.662499	1.579698	-0.000187
1078	1.0716e+02	-2.9037	-9.987874	0.000405	4.054347	1.373650	-0.000162
1079	1.0726e+02	-2.9502	-10.141285	0.000385	3.851630	1.304968	-0.000154
1080	1.0736e+02	-2.9903	-10.286622	0.000365	3.648913	1.236285	-0.000146
1081	1.0746e+02	-3.0288	-10.419847	0.000334	3.344836	1.133261	-0.000134
1082	1.0756e+02	-3.0721	-10.573258	0.000385	3.851630	1.304968	-0.000154
1083	1.0766e+02	-3.1138	-10.750892	0.000446	4.459782	1.511015	-0.000179
1084	1.0776e+02	-3.1459	-10.892192	0.000355	3.547554	1.201944	-0.000142
1085	1.0786e+02	-3.1828	-11.045603	0.000385	3.851630	1.304968	-0.000154
1086	1.0796e+02	-3.2261	-11.190940	0.000365	3.648913	1.236285	-0.000146
1087	1.0806e+02	-3.2630	-11.364537	0.000436	4.358423	1.476674	-0.000174
1088	1.0816e+02	-3.3111	-11.509874	0.000365	3.648913	1.236285	-0.000146
1089	1.0826e+02	-3.3512	-11.687508	0.000446	4.459782	1.511015	-0.000179
1090	1.0836e+02	-3.3801	-11.857068	0.000426	4.257065	1.442333	-0.000170
1091	1.0845e+02	-3.4186	-11.998367	0.000355	3.547554	1.201944	-0.000142
1092	1.0855e+02	-3.4700	-12.180039	0.000456	4.561141	1.545356	-0.000183
1093	1.0865e+02	-3.4956	-12.317301	0.000345	3.446195	1.167603	-0.000138
1094	1.0875e+02	-3.5373	-12.410155	0.000233	2.331250	0.789849	-0.000093
1095	1.0885e+02	-3.5871	-12.575678	0.000416	4.155706	1.407991	-0.000166
1096	1.0895e+02	-3.6224	-12.721015	0.000365	3.648913	1.236285	-0.000146
1097	1.0905e+02	-3.6657	-12.890574	0.000426	4.257065	1.442333	-0.000170
1098	1.0915e+02	-3.6962	-13.052060	0.000405	4.054347	1.373650	-0.000162
1099	1.0925e+02	-3.7379	-13.205471	0.000385	3.851630	1.304968	-0.000154
1100	1.0935e+02	-3.7876	-13.322548	0.000294	2.939402	0.995896	-0.000118
1101	1.0945e+02	-3.8261	-13.496145	0.000436	4.358423	1.476674	-0.000174
1102	1.0955e+02	-3.8710	-13.613222	0.000294	2.939402	0.995896	-0.000118
1103	1.0965e+02	-3.9111	-13.750484	0.000345	3.446195	1.167603	-0.000138
1104	1.0975e+02	-3.9480	-13.948304	0.000497	4.966575	1.682721	-0.000199
1105	1.0985e+02	-3.9865	-14.081529	0.000334	3.344836	1.133261	-0.000134
1106	1.0995e+02	-4.0170	-14.259163	0.000446	4.459782	1.511015	-0.000179
1107	1.1005e+02	-4.0667	-14.368166	0.000274	2.736684	0.927214	-0.000110
1108	1.1015e+02	-4.1020	-14.549837	0.000456	4.561141	1.545356	-0.000183
1109	1.1025e+02	-4.1453	-14.699211	0.000375	3.750271	1.270626	-0.000150
1110	1.1035e+02	-4.1806	-14.864734	0.000416	4.155706	1.407991	-0.000166
1111	1.1044e+02	-4.2159	-14.969699	0.000264	2.635326	0.892873	-0.000105
1112	1.1054e+02	-4.2544	-15.139259	0.000426	4.257065	1.442333	-0.000170
1113	1.1064e+02	-4.3026	-15.280559	0.000355	3.547554	1.201944	-0.000142
1114	1.1074e+02	-4.3459	-15.425896	0.000365	3.648913	1.236285	-0.000146
1115	1.1084e+02	-4.3860	-15.563158	0.000345	3.446195	1.167603	-0.000138
1116	1.1094e+02	-4.4197	-15.732718	0.000426	4.257065	1.442333	-0.000170
1117	1.1104e+02	-4.4646	-15.857869	0.000314	3.142119	1.064579	-0.000126
1118	1.1114e+02	-4.5015	-15.978983	0.000304	3.040760	1.030238	-0.000122
1119	1.1124e+02	-4.5432	-16.132394	0.000385	3.851630	1.304968	-0.000154
1120	1.1134e+02	-4.5849	-16.277731	0.000365	3.648913	1.236285	-0.000146
1121	1.1144e+02	-4.6218	-16.419031	0.000355	3.547554	1.201944	-0.000142
1122	1.1154e+02	-4.6651	-16.572442	0.000385	3.851630	1.304968	-0.000154
1123	1.1164e+02	-4.7052	-16.746039	0.000436	4.358423	1.476674	-0.000174
1124	1.1174e+02	-4.7309	-16.891376	0.000365	3.648913	1.236285	-0.000146
1125	1.1184e+02	-4.7790	-17.016527	0.000314	3.142119	1.064579	-0.000126
1126	1.1194e+02	-4.8111	-17.165901	0.000375	3.750271	1.270626	-0.000150
1127	1.1204e+02	-4.8640	-17.331424	0.000416	4.155706	1.407991	-0.000166
1128	1.1214e+02	-4.8929	-17.480798	0.000375	3.750271	1.270626	-0.000150
1129	1.1224e+02	-4.9346	-17.618060	0.000345	3.446195	1.167603	-0.000138
1130	1.1234e+02	-4.9844	-17.755323	0.000345	3.446195	1.167603	-0.000138
1131	1.1244e+02	-5.0148	-17.900660	0.000365	3.648913	1.236285	-0.000146
1132	1.1253e+02	-5.0581	-18.078294	0.000446	4.459782	1.511015	-0.000179
1133	1.1263e+02	-5.0999	-18.191334	0.000284	2.838043	0.961555	-0.000114
1134	1.1273e+02	-5.1368	-18.356856	0.000416	4.155706	1.407991	-0.000166
1135	1.1283e+02	-5.1849	-18.498156	0.000355	3.547554	1.201944	-0.000142
1136	1.1293e+02	-5.2266	-18.623307	0.000314	3.142119	1.064579	-0.000126
1137	1.1303e+02	-5.2667	-18.764607	0.000355	3.547554	1.201944	-0.000142
1138	1.1313e+02	-5.2811	-18.918018	0.000385	3.851630	1.304968	-0.000154
1139	1.1323e+02	-5.3341	-19.067392	0.000375	3.750271	1.270626	-0.000150
1140	1.1333e+02	-5.3758	-19.204655	0.000345	3.446195	1.167603	-0.000138
1141	1.1343e+02	-5.4223	-19.321732	0.000294	2.939402	0.995896	-0.000118
1142	1.1353e+02	-5.4640	-19.463031	0.000355	3.547554	1.201944	-0.000142
1143	1.1363e+02	-5.5025	-19.616443	0.000385	3.851630	1.304968	-0.000154
1144	1.1373e+02	-5.5394	-19.705260	0.000223	2.229891	0.755508	-0.000089
1145	1.1383e+02	-5.5795	-19.870782	0.000416	4.155706	1.407991	-0.000166
1146	1.1393e+02	-5.6100	-20.032268	0.000405	4.054347	1.373650	-0.000162
1147	1.1403e+02	-5.6565	-20.185679	0.000385	3.851630	1.304968	-0.000154
1148	1.1413e+02	-5.6934	-20.266421	0.000203	2.027174	0.686825	-0.000081
1149	1.1423e+02	-5.7432	-20.452130	0.000466	4.662499	1.579698	-0.000187
1150	1.1433e+02	-5.7768	-20.597467	0.000365	3.648913	1.236285	-0.000146
1151	1.1442e+02	-5.8218	-20.746841	0.000375	3.750271	1.270626	-0.000150
1152	1.1452e+02	-5.8538	-20.876029	0.000324	3.243478	1.098920	-0.000130
1153	1.1462e+02	-5.9020	-21.029440	0.000385	3.851630	1.304968	-0.000154
1154	1.1472e+02	-5.9405	-21.134406	0.000264	2.635326	0.892873	-0.000105
1155	1.1482e+02	-5.9790	-21.328188	0.000487	4.865217	1.648380	-0.000195
1156	1.1492e+02	-6.0127	-21.441228	0.000284	2.838043	0.961555	-0.000114
1157	1.1502e+02	-6.0624	-21.538119	0.000243	2.432608	0.824190	-0.000097
1158	1.1512e+02	-6.0945	-21.707679	0.000426	4.257065	1.442333	-0.000170
1159	1.1522e+02	-6.1362	-21.804570	0.000243	2.432608	0.824190	-0.000097
1160	1.1532e+02	-6.1747	-21.957981	0.000385	3.851630	1.304968	-0.000154
1161	1.1542e+02	-6.2132	-22.103318	0.000365	3.648913	1.236285	-0.000146
1162	1.1552e+02	-6.2533	-22.232507	0.000324	3.243478	1.098920	-0.000130
1163	1.1562e+02	-6.2950	-22.398029	0.000416	4.155706	1.407991	-0.000166
1164	1.1572e+02	-6.3383	-22.494920	0.000243	2.432608	0.824190	-0.000097
1165	1.1582e+02	-6.3688	-22.644294	0.000375	3.750271	1.270626	-0.000150
1166	1.1592e+02	-6.4089	-22.761371	0.000294	2.939402	0.995896	-0.000118
1167	1.1602e+02	-6.4570	-22.894597	0.000334	3.344836	1.133261	-0.000134
1168	1.1612e+02	-6.4923	-23.007637	0.000284	2.838043	0.961555	-0.000114
1169	1.1622e+02	-6.5324	-23.181233	0.000436	4.358423	1.476674	-0.000174
1170	1.1632e+02	-6.5661	-23.294273	0.000284	2.838043	0.961555	-0.000114
1171	1.1642e+02	-6.6078	-23.419424	0.000314	3.142119	1.064579	-0.000126
1172	1.1651e+02	-6.6592	-23.556687	0.000345	3.446195	1.167603	-0.000138
1173	1.1661e+02	-6.6848	-23.722210	0.000416	4.155706	1.407991	-0.000166
1174	1.1671e+02	-6.7314	-23.839287	0.000294	2.939402	0.995896	-0.000118
1175	1.1681e+02	-6.7650	-23.960401	0.000304	3.040760	1.030238	-0.000122
1176	1.1691e+02	-6.8100	-24.089589	0.000324	3.243478	1.098920	-0.000130
1177	1.1701e+02	-6.8469	-24.206666	0.000294	2.939402	0.995896	-0.000118
1178	1.1711e+02	-6.8806	-24.343929	0.000345	3.446195	1.167603	-0.000138
1179	1.1721e+02	-6.9319	-24.477154	0.000334	3.344836	1.133261	-0.000134
1180	1.1731e+02	-6.9672	-24.594231	0.000294	2.939402	0.995896	-0.000118
1181	1.1741e+02	-7.0025	-24.723419	0.000324	3.243478	1.098920	-0.000130
1182	1.1751e+02	-7.0522	-24.856645	0.000334	3.344836	1.133261	-0.000134
1183	1.1761e+02	-7.0907	-24.965647	0.000274	2.736684	0.927214	-0.000110
1184	1.1771e+02	-7.1308	-25.131170	0.000416	4.155706	1.407991	-0.000166
1185	1.1781e+02	-7.1725	-25.252284	0.000304	3.040760	1.030238	-0.000122
1186	1.1791e+02	-7.2094	-25.377435	0.000314	3.142119	1.064579	-0.000126
1187	1.1801e+02	-7.2463	-25.510661	0.000334	3.344836	1.133261	-0.000134
1188	1.1811e+02	-7.2944	-25.643886	0.000334	3.344836	1.133261	-0.000134
1189	1.1821e+02	-7.3249	-25.777112	0.000334	3.344836	1.133261	-0.000134
1190	1.1831e+02	-7.3714	-25.890151	0.000284	2.838043	0.961555	-0.000114
1191	1.1841e+02	-7.4100	-25.995117	0.000264	2.635326	0.892873	-0.000105
1192	1.1850e+02	-7.4404	-26.124305	0.000324	3.243478	1.098920	-0.000130
1193	1.1860e+02	-7.4821	-26.253494	0.000324	3.243478	1.098920	-0.000130
1194	1.1870e+02	-7.5158	-26.402868	0.000375	3.750271	1.270626	-0.000150
1195	1.1880e+02	-7.5704	-26.503796	0.000253	2.533967	0.858531	-0.000101
1196	1.1890e+02	-7.6009	-26.657207	0.000385	3.851630	1.304968	-0.000154
1197	1.1900e+02	-7.6554	-26.758136	0.000253	2.533967	0.858531	-0.000101
1198	1.1910e+02	-7.6923	-26.891361	0.000334	3.344836	1.133261	-0.000134
1199	1.1920e+02	-7.7260	-26.980178	0.000223	2.229891	0.755508	-0.000089
1200	1.1930e+02	-7.7645	-27.145701	0.000416	4.155706	1.407991	-0.000166
1201	1.1940e+02	-7.8030	-27.258741	0.000284	2.838043	0.961555	-0.000114
1202	1.1950e+02	-7.8527	-27.404077	0.000365	3.648913	1.236285	-0.000146
1203	1.1960e+02	-7.8896	-27.553451	0.000375	3.750271	1.270626	-0.000150
1204	1.1970e+02	-7.9265	-27.622083	0.000172	1.723098	0.583801	-0.000069
1205	1.1980e+02	-7.9746	-27.799717	0.000446	4.459782	1.511015	-0.000179
1206	1.1990e+02	-8.0099	-27.868348	0.000172	1.723098	0.583801	-0.000069
1207	1.2000e+02	-8.0581	-28.013685	0.000365	3.648913	1.236285	-0.000146
1208	1.2010e+02	-8.0805	-28.130762	0.000294	2.939402	0.995896	-0.000118
1209	1.2020e+02	-8.1303	-28.239764	0.000274	2.736684	0.927214	-0.000110
1210	1.2030e+02	-8.1511	-28.368953	0.000324	3.243478	1.098920	-0.000130
1211	1.2039e+02	-8.2024	-28.502178	0.000334	3.344836	1.133261	-0.000134
1212	1.2049e+02	-8.2490	-28.627330	0.000314	3.142119	1.064579	-0.000126
1213	1.2059e+02	-8.2859	-28.748444	0.000304	3.040760	1.030238	-0.000122
1214	1.2069e+02	-8.3260	-28.845335	0.000243	2.432608	0.824190	-0.000097
1215	1.2079e+02	-8.3597	-29.002783	0.000395	3.952989	1.339309	-0.000158
1216	1.2089e+02	-8.4110	-29.148120	0.000365	3.648913	1.236285	-0.000146
1217	1.2099e+02	-8.4367	-29.249048	0.000253	2.533967	0.858531	-0.000101
1218	1.2109e+02	-8.4848	-29.362088	0.000284	2.838043	0.961555	-0.000114
1219	1.2119e+02	-8.5345	-29.483202	0.000304	3.040760	1.030238	-0.000122
1220	1.2129e+02	-8.5714	-29.600279	0.000294	2.939402	0.995896	-0.000118
1221	1.2139e+02	-8.5955	-29.729468	0.000324	3.243478	1.098920	-0.000130
1222	1.2149e+02	-8.6484	-29.838470	0.000274	2.736684	0.927214	-0.000110
1223	1.2159e+02	-8.6821	-29.943436	0.000264	2.635326	0.892873	-0.000105
1224	1.2169e+02	-8.7254	-30.072624	0.000324	3.243478	1.098920	-0.000130
1225	1.2179e+02	-8.7671	-30.201812	0.000324	3.243478	1.098920	-0.000130
1226	1.2189e+02	-8.8040	-30.294667	0.000233	2.331250	0.789849	-0.000093
1227	1.2199e+02	-8.8377	-30.427892	0.000334	3.344836	1.133261	-0.000134
1228	1.2209e+02	-8.8778	-30.553043	0.000314	3.142119	1.064579	-0.000126
1229	1.2219e+02	-8.9147	-30.674157	0.000304	3.040760	1.030238	-0.000122
1230	1.2229e+02	-8.9564	-30.819494	0.000365	3.648913	1.236285	-0.000146
1231	1.2239e+02	-8.9997	-30.892163	0.000182	1.824456	0.618143	-0.000073
1232	1.2248e+02	-9.0463	-31.009240	0.000294	2.939402	0.995896	-0.000118
1233	1.2258e+02	-9.0800	-31.134391	0.000314	3.142119	1.064579	-0.000126
1234	1.2268e+02	-9.1185	-31.267616	0.000334	3.344836	1.133261	-0.000134
1235	1.2278e+02	-9.1602	-31.356433	0.000223	2.229891	0.755508	-0.000089
1236	1.2288e+02	-9.2131	-31.493696	0.000345	3.446195	1.167603	-0.000138
1237	1.2298e+02	-9.2468	-31.618847	0.000314	3.142119	1.064579	-0.000126
1238	1.2308e+02	-9.2853	-31.719775	0.000253	2.533967	0.858531	-0.000101
1239	1.2318e+02	-9.3158	-31.804555	0.000213	2.128532	0.721166	-0.000085
1240	1.2328e+02	-9.3623	-31.994301	0.000476	4.763858	1.614039	-0.000191
1241	1.2338e+02	-9.4088	-32.075043	0.000203	2.027174	0.686825	-0.000081
1242	1.2348e+02	-9.4489	-32.180009	0.000264	2.635326	0.892873	-0.000105
1243	1.2358e+02	-9.4762	-32.321309	0.000355	3.547554	1.201944	-0.000142
1244	1.2368e+02	-9.5195	-32.462608	0.000355	3.547554	1.201944	-0.000142
1245	1.2378e+02	-9.5612	-32.575648	0.000284	2.838043	0.961555	-0.000114
1246	1.2388e+02	-9.6013	-32.708874	0.000334	3.344836	1.133261	-0.000134
1247	1.2398e+02	-9.6366	-32.821914	0.000284	2.838043	0.961555	-0.000114
1248	1.2408e+02	-9.6815	-32.951102	0.000324	3.243478	1.098920	-0.000130
1249	1.2418e+02	-9.7088	-33.035882	0.000213	2.128532	0.721166	-0.000085
1250	1.2428e+02	-9.7602	-33.140847	0.000264	2.635326	0.892873	-0.000105
1251	1.2438e+02	-9.7987	-33.253887	0.000284	2.838043	0.961555	-0.000114
1252	1.2447e+02	-9.8452	-33.411335	0.000395	3.952989	1.339309	-0.000158
1253	1.2457e+02	-9.8805	-33.516301	0.000264	2.635326	0.892873	-0.000105
1254	1.2467e+02	-9.9110	-33.649526	0.000334	3.344836	1.133261	-0.000134
1255	1.2477e+02	-9.9639	-33.774678	0.000314	3.142119	1.064579	-0.000126
1256	1.2487e+02	-9.9960	-33.875606	0.000253	2.533967	0.858531	-0.000101
1257	1.2497e+02	-10.0329	-34.008831	0.000334	3.344836	1.133261	-0.000134
1258	1.2507e+02	-10.0778	-34.146094	0.000345	3.446195	1.167603	-0.000138
1259	1.2517e+02	-10.1099	-34.242985	0.000243	2.432608	0.824190	-0.000097
1260	1.2527e+02	-10.1564	-34.343914	0.000253	2.533967	0.858531	-0.000101
1261	1.2537e+02	-10.2093	-34.452916	0.000274	2.736684	0.927214	-0.000110
1262	1.2547e+02	-10.2462	-34.590179	0.000345	3.446195	1.167603	-0.000138
1263	1.2557e+02	-10.2751	-34.666885	0.000193	1.925815	0.652484	-0.000077
1264	1.2567e+02	-10.3200	-34.824333	0.000395	3.952989	1.339309	-0.000158
1265	1.2577e+02	-10.3553	-34.917187	0.000233	2.331250	0.789849	-0.000093
1266	1.2587e+02	-10.3954	-35.078672	0.000405	4.054347	1.373650	-0.000162
1267	1.2597e+02	-10.4323	-35.179601	0.000253	2.533967	0.858531	-0.000101
1268	1.2607e+02	-10.4772	-35.316863	0.000345	3.446195	1.167603	-0.000138
1269	1.2617e+02	-10.5174	-35.429903	0.000284	2.838043	0.961555	-0.000114
1270	1.2627e+02	-10.5510	-35.498535	0.000172	1.723098	0.583801	-0.000069
1271	1.2636e+02	-10.5944	-35.647909	0.000375	3.750271	1.270626	-0.000150
1272	1.2646e+02	-10.6377	-35.748837	0.000253	2.533967	0.858531	-0.000101
1273	1.2656e+02	-10.6698	-35.869951	0.000304	3.040760	1.030238	-0.000122
1274	1.2666e+02	-10.7195	-35.974917	0.000264	2.635326	0.892873	-0.000105
1275	1.2676e+02	-10.7612	-36.091993	0.000294	2.939402	0.995896	-0.000118
1276	1.2686e+02	-10.7885	-36.225219	0.000334	3.344836	1.133261	-0.000134
1277	1.2696e+02	-10.8398	-36.314036	0.000223	2.229891	0.755508	-0.000089
1278	1.2706e+02	-10.8751	-36.419001	0.000264	2.635326	0.892873	-0.000105
1279	1.2716e+02	-10.9152	-36.528004	0.000274	2.736684	0.927214	-0.000110
1280	1.2726e+02	-10.9585	-36.641044	0.000284	2.838043	0.961555	-0.000114
1281	1.2736e+02	-10.9906	-36.778307	0.000345	3.446195	1.167603	-0.000138
1282	1.2746e+02	-11.0339	-36.923643	0.000365	3.648913	1.236285	-0.000146
1283	1.2756e+02	-11.0788	-37.056869	0.000334	3.344836	1.133261	-0.000134
1284	1.2766e+02	-11.1141	-37.165872	0.000274	2.736684	0.927214	-0.000110
1285	1.2776e+02	-11.1590	-37.270837	0.000264	2.635326	0.892873	-0.000105
1286	1.2786e+02	-11.1879	-37.367728	0.000243	2.432608	0.824190	-0.000097
1287	1.2796e+02	-11.2328	-37.484805	0.000294	2.939402	0.995896	-0.000118
1288	1.2806e+02	-11.2713	-37.622068	0.000345	3.446195	1.167603	-0.000138
1289	1.2816e+02	-11.3179	-37.751256	0.000324	3.243478	1.098920	-0.000130
1290	1.2826e+02	-11.3612	-37.844110	0.000233	2.331250	0.789849	-0.000093
1291	1.2835e+02	-11.3917	-37.904667	0.000152	1.520380	0.515119	-0.000061
1292	1.2845e+02	-11.4430	-38.070190	0.000416	4.155706	1.407991	-0.000166
1293	1.2855e+02	-11.4767	-38.167081	0.000243	2.432608	0.824190	-0.000097
1294	1.2865e+02	-11.5104	-38.296270	0.000324	3.243478	1.098920	-0.000130
1295	1.2875e+02	-11.5489	-38.409309	0.000284	2.838043	0.961555	-0.000114
1296	1.2885e+02	-11.5858	-38.522349	0.000284	2.838043	0.961555	-0.000114
1297	1.2895e+02	-11.6307	-38.627315	0.000264	2.635326	0.892873	-0.000105
1298	1.2905e+02	-11.6660	-38.724206	0.000243	2.432608	0.824190	-0.000097
1299	1.2915e+02	-11.7173	-38.889729	0.000416	4.155706	1.407991	-0.000166
1300	1.2925e+02	-11.7542	-38.966434	0.000193	1.925815	0.652484	-0.000077
1301	1.2935e+02	-11.7943	-39.123882	0.000395	3.952989	1.339309	-0.000158
1302	1.2945e+02	-11.8264	-39.196551	0.000182	1.824456	0.618143	-0.000073
1303	1.2955e+02	-11.8777	-39.337851	0.000355	3.547554	1.201944	-0.000142
1304	1.2965e+02	-11.9018	-39.422630	0.000213	2.128532	0.721166	-0.000085
1305	1.2975e+02	-11.9563	-39.535670	0.000284	2.838043	0.961555	-0.000114
1306	1.2985e+02	-11.9820	-39.656784	0.000304	3.040760	1.030238	-0.000122
1307	1.2995e+02	-12.0301	-39.781936	0.000314	3.142119	1.064579	-0.000126
1308	1.3005e+02	-12.0767	-39.915161	0.000334	3.344836	1.133261	-0.000134
1309	1.3015e+02	-12.1136	-40.024164	0.000274	2.736684	0.927214	-0.000110
1310	1.3025e+02	-12.1537	-40.121055	0.000243	2.432608	0.824190	-0.000097
1311	1.3034e+02	-12.1938	-40.173538	0.000132	1.317663	0.446436	-0.000053
1312	1.3044e+02	-12.2259	-40.363283	0.000476	4.763858	1.614039	-0.000191
1313	1.3054e+02	-12.2676	-40.492471	0.000324	3.243478	1.098920	-0.000130
1314	1.3064e+02	-12.3077	-40.561103	0.000172	1.723098	0.583801	-0.000069
1315	1.3074e+02	-12.3478	-40.645883	0.000213	2.128532	0.721166	-0.000085
1316	1.3084e+02	-12.3911	-40.819479	0.000436	4.358423	1.476674	-0.000174
1317	1.3094e+02	-12.4280	-40.928482	0.000274	2.736684	0.927214	-0.000110
1318	1.3104e+02	-12.4665	-41.017299	0.000223	2.229891	0.755508	-0.000089
1319	1.3114e+02	-12.5210	-41.118227	0.000253	2.533967	0.858531	-0.000101
1320	1.3124e+02	-12.5531	-41.235304	0.000294	2.939402	0.995896	-0.000118
1321	1.3134e+02	-12.5916	-41.328159	0.000233	2.331250	0.789849	-0.000093
1322	1.3144e+02	-12.6381	-41.473495	0.000365	3.648913	1.236285	-0.000146
1323	1.3154e+02	-12.6783	-41.562312	0.000223	2.229891	0.755508	-0.000089
1324	1.3164e+02	-12.7039	-41.655167	0.000233	2.331250	0.789849	-0.000093
1325	1.3174e+02	-12.7392	-41.788392	0.000334	3.344836	1.133261	-0.000134
1326	1.3184e+02	-12.7857	-41.897395	0.000274	2.736684	0.927214	-0.000110
1327	1.3194e+02	-12.8130	-41.966026	0.000172	1.723098	0.583801	-0.000069
1328	1.3204e+02	-12.8611	-42.083103	0.000294	2.939402	0.995896	-0.000118
1329	1.3214e+02	-12.8980	-42.236514	0.000385	3.851630	1.304968	-0.000154
1330	1.3224e+02	-12.9526	-42.325331	0.000223	2.229891	0.755508	-0.000089
1331	1.3234e+02	-12.9831	-42.438371	0.000284	2.838043	0.961555	-0.000114
1332	1.3243e+02	-13.0280	-42.535262	0.000243	2.432608	0.824190	-0.000097
1333	1.3253e+02	-13.0681	-42.636191	0.000253	2.533967	0.858531	-0.000101
1334	1.3263e+02	-13.0970	-42.725008	0.000223	2.229891	0.755508	-0.000089
1335	1.3273e+02	-13.1451	-42.850159	0.000314	3.142119	1.064579	-0.000126
1336	1.3283e+02	-13.1900	-42.963199	0.000284	2.838043	0.961555	-0.000114
1337	1.3293e+02	-13.2253	-43.060090	0.000243	2.432608	0.824190	-0.000097
1338	1.3303e+02	-13.2670	-43.197352	0.000345	3.446195	1.167603	-0.000138
1339	1.3313e+02	-13.3119	-43.298281	0.000253	2.533967	0.858531	-0.000101
1340	1.3323e+02	-13.3392	-43.383061	0.000213	2.128532	0.721166	-0.000085
1341	1.3333e+02	-13.3873	-43.524360	0.000355	3.547554	1.201944	-0.000142
1342	1.3343e+02	-13.4242	-43.588955	0.000162	1.621739	0.549460	-0.000065
1343	1.3353e+02	-13.4643	-43.693920	0.000264	2.635326	0.892873	-0.000105
1344	1.3363e+02	-13.5076	-43.782737	0.000223	2.229891	0.755508	-0.000089
1345	1.3373e+02	-13.5381	-43.903851	0.000304	3.040760	1.030238	-0.000122
1346	1.3383e+02	-13.5879	-44.000742	0.000243	2.432608	0.824190	-0.000097
1347	1.3393e+02	-13.6264	-44.138005	0.000345	3.446195	1.167603	-0.000138
1348	1.3403e+02	-13.6681	-44.230859	0.000233	2.331250	0.789849	-0.000093
1349	1.3413e+02	-13.7146	-44.351973	0.000304	3.040760	1.030238	-0.000122
1350	1.3423e+02	-13.7451	-44.436753	0.000213	2.128532	0.721166	-0.000085
1351	1.3432e+02	-13.7852	-44.578053	0.000355	3.547554	1.201944	-0.000142
1352	1.3442e+02	-13.8189	-44.658796	0.000203	2.027174	0.686825	-0.000081
1353	1.3452e+02	-13.8606	-44.747613	0.000223	2.229891	0.755508	-0.000089
1354	1.3462e+02	-13.9023	-44.892949	0.000365	3.648913	1.236285	-0.000146
1355	1.3472e+02	-13.9472	-44.997915	0.000264	2.635326	0.892873	-0.000105
1356	1.3482e+02	-13.9809	-45.054435	0.000142	1.419022	0.480778	-0.000057
1357	1.3492e+02	-14.0322	-45.171512	0.000294	2.939402	0.995896	-0.000118
1358	1.3502e+02	-14.0531	-45.272440	0.000253	2.533967	0.858531	-0.000101
1359	1.3512e+02	-14.1108	-45.365294	0.000233	2.331250	0.789849	-0.000093
1360	1.3522e+02	-14.1477	-45.482371	0.000294	2.939402	0.995896	-0.000118
1361	1.3532e+02	-14.1718	-45.587337	0.000264	2.635326	0.892873	-0.000105
1362	1.3542e+02	-14.2215	-45.692302	0.000264	2.635326	0.892873	-0.000105
1363	1.3552e+02	-14.2584	-45.785156	0.000233	2.331250	0.789849	-0.000093
1364	1.3562e+02	-14.2937	-45.873973	0.000223	2.229891	0.755508	-0.000089
1365	1.3572e+02	-14.3354	-46.019310	0.000365	3.648913	1.236285	-0.000146
1366	1.3582e+02	-14.3739	-46.100053	0.000203	2.027174	0.686825	-0.000081
1367	1.3592e+02	-14.4188	-46.196944	0.000243	2.432608	0.824190	-0.000097
1368	1.3602e+02	-14.4638	-46.289798	0.000233	2.331250	0.789849	-0.000093
1369	1.3612e+02	-14.4958	-46.435135	0.000365	3.648913	1.236285	-0.000146
1370	1.3622e+02	-14.5327	-46.499729	0.000162	1.621739	0.549460	-0.000065
1371	1.3631e+02	-14.5857	-46.612769	0.000284	2.838043	0.961555	-0.000114
1372	1.3641e+02	-14.6146	-46.693512	0.000203	2.027174	0.686825	-0.000081
1373	1.3651e+02	-14.6595	-46.818663	0.000314	3.142119	1.064579	-0.000126
1374	1.3661e+02	-14.7044	-46.915554	0.000243	2.432608	0.824190	-0.000097
1375	1.3671e+02	-14.7461	-47.016483	0.000253	2.533967	0.858531	-0.000101
1376	1.3681e+02	-14.7814	-47.125485	0.000274	2.736684	0.927214	-0.000110
1377	1.3691e+02	-14.8215	-47.218340	0.000233	2.331250	0.789849	-0.000093
1378	1.3701e+02	-14.8536	-47.295045	0.000193	1.925815	0.652484	-0.000077
1379	1.3711e+02	-14.8969	-47.424234	0.000324	3.243478	1.098920	-0.000130
1380	1.3721e+02	-14.9370	-47.521125	0.000243	2.432608	0.824190	-0.000097
1381	1.3731e+02	-14.9803	-47.593793	0.000182	1.824456	0.618143	-0.000073
1382	1.3741e+02	-15.0140	-47.682610	0.000223	2.229891	0.755508	-0.000089
1383	1.3751e+02	-15.0525	-47.807761	0.000314	3.142119	1.064579	-0.000126
1384	1.3761e+02	-15.0910	-47.900616	0.000233	2.331250	0.789849	-0.000093
1385	1.3771e+02	-15.1359	-48.045952	0.000365	3.648913	1.236285	-0.000146
1386	1.3781e+02	-15.1809	-48.122658	0.000193	1.925815	0.652484	-0.000077
1387	1.3791e+02	-15.2210	-48.199364	0.000193	1.925815	0.652484	-0.000077
1388	1.3801e+02	-15.2450	-48.348738	0.000375	3.750271	1.270626	-0.000150
1389	1.3811e+02	-15.3060	-48.401220	0.000132	1.317663	0.446436	-0.000053
1390	1.3821e+02	-15.3300	-48.506186	0.000264	2.635326	0.892873	-0.000105
1391	1.3831e+02	-15.3846	-48.570780	0.000162	1.621739	0.549460	-0.000065
1392	1.3840e+02	-15.4247	-48.671708	0.000253	2.533967	0.858531	-0.000101
1393	1.3850e+02	-15.4600	-48.788785	0.000294	2.939402	0.995896	-0.000118
1394	1.3860e+02	-15.4889	-48.909899	0.000304	3.040760	1.030238	-0.000122
1395	1.3870e+02	-15.5386	-49.026976	0.000294	2.939402	0.995896	-0.000118
1396	1.3880e+02	-15.5835	-49.144053	0.000294	2.939402	0.995896	-0.000118
1397	1.3890e+02	-15.6140	-49.208648	0.000162	1.621739	0.549460	-0.000065
1398	1.3900e+02	-15.6589	-49.281316	0.000182	1.824456	0.618143	-0.000073
1399	1.3910e+02	-15.6958	-49.398393	0.000294	2.939402	0.995896	-0.000118
1400	1.3920e+02	-15.7455	-49.495284	0.000243	2.432608	0.824190	-0.000097
1401	1.3930e+02	-15.7840	-49.567953	0.000182	1.824456	0.618143	-0.000073
1402	1.3940e+02	-15.8097	-49.640621	0.000182	1.824456	0.618143	-0.000073
1403	1.3950e+02	-15.8627	-49.794032	0.000385	3.851630	1.304968	-0.000154
1404	1.3960e+02	-15.8979	-49.838441	0.000111	1.114945	0.377754	-0.000045
1405	1.3970e+02	-15.9413	-49.979740	0.000355	3.547554	1.201944	-0.000142
1406	1.3980e+02	-15.9766	-50.060483	0.000203	2.027174	0.686825	-0.000081
1407	1.3990e+02	-16.0151	-50.177560	0.000294	2.939402	0.995896	-0.000118
1408	1.4000e+02	-16.0503	-50.250229	0.000182	1.824456	0.618143	-0.000073
1409	1.4010e+02	-16.0969	-50.395565	0.000365	3.648913	1.236285	-0.000146
1410	1.4020e+02	-16.1418	-50.468234	0.000182	1.824456	0.618143	-0.000073
1411	1.4029e+02	-16.1723	-50.609534	0.000355	3.547554	1.201944	-0.000142
1412	1.4039e+02	-16.2028	-50.746796	0.000345	3.446195	1.167603	-0.000138
1413	1.4049e+02	-16.2573	-50.819465	0.000182	1.824456	0.618143	-0.000073
1414	1.4059e+02	-16.2910	-50.952690	0.000334	3.344836	1.133261	-0.000134
1415	1.4069e+02	-16.3279	-51.017284	0.000162	1.621739	0.549460	-0.000065
1416	1.4079e+02	-16.3744	-51.093990	0.000193	1.925815	0.652484	-0.000077
1417	1.4089e+02	-16.4129	-51.182807	0.000223	2.229891	0.755508	-0.000089
1418	1.4099e+02	-16.4498	-51.275661	0.000233	2.331250	0.789849	-0.000093
1419	1.4109e+02	-16.4947	-51.425035	0.000375	3.750271	1.270626	-0.000150
1420	1.4119e+02	-16.5316	-51.469444	0.000111	1.114945	0.377754	-0.000045
1421	1.4129e+02	-16.5733	-51.530001	0.000152	1.520380	0.515119	-0.000061
1422	1.4139e+02	-16.6150	-51.711672	0.000456	4.561141	1.545356	-0.000183
1423	1.4149e+02	-16.6535	-51.768192	0.000142	1.419022	0.480778	-0.000057
1424	1.4159e+02	-16.7001	-51.889306	0.000304	3.040760	1.030238	-0.000122
1425	1.4169e+02	-16.7418	-52.006383	0.000294	2.939402	0.995896	-0.000118
1426	1.4179e+02	-16.7706	-52.099237	0.000233	2.331250	0.789849	-0.000093
1427	1.4189e+02	-16.8156	-52.204202	0.000264	2.635326	0.892873	-0.000105
1428	1.4199e+02	-16.8541	-52.297056	0.000233	2.331250	0.789849	-0.000093
1429	1.4209e+02	-16.8829	-52.442393	0.000365	3.648913	1.236285	-0.000146
1430	1.4219e+02	-16.9359	-52.543322	0.000253	2.533967	0.858531	-0.000101
1431	1.4228e+02	-16.9696	-52.652324	0.000274	2.736684	0.927214	-0.000110
1432	1.4238e+02	-17.0113	-52.777476	0.000314	3.142119	1.064579	-0.000126
1433	1.4248e+02	-17.0434	-52.789587	0.000030	0.304076	0.103024	-0.000012
1434	1.4258e+02	-17.0883	-52.902627	0.000284	2.838043	0.961555	-0.000114
1435	1.4268e+02	-17.1300	-53.011629	0.000274	2.736684	0.927214	-0.000110
1436	1.4278e+02	-17.1653	-53.112558	0.000253	2.533967	0.858531	-0.000101
1437	1.4288e+02	-17.2102	-53.241746	0.000324	3.243478	1.098920	-0.000130
1438	1.4298e+02	-17.2503	-53.350749	0.000274	2.736684	0.927214	-0.000110
1439	1.4308e+02	-17.2920	-53.431491	0.000203	2.027174	0.686825	-0.000081
1440	1.4318e+02	-17.3353	-53.556643	0.000314	3.142119	1.064579	-0.000126
1441	1.4328e+02	-17.3722	-53.621237	0.000162	1.621739	0.549460	-0.000065
1442	1.4338e+02	-17.4156	-53.697942	0.000193	1.925815	0.652484	-0.000077
1443	1.4348e+02	-17.4557	-53.887688	0.000476	4.763858	1.614039	-0.000191
1444	1.4358e+02	-17.4942	-53.928059	0.000101	1.013587	0.343413	-0.000041
1445	1.4368e+02	-17.5327	-54.101656	0.000436	4.358423	1.476674	-0.000174
1446	1.4378e+02	-17.5551	-54.170287	0.000172	1.723098	0.583801	-0.000069
1447	1.4388e+02	-17.6129	-54.263141	0.000233	2.331250	0.789849	-0.000093
1448	1.4398e+02	-17.6482	-54.416553	0.000385	3.851630	1.304968	-0.000154
1449	1.4408e+02	-17.6931	-54.481147	0.000162	1.621739	0.549460	-0.000065
1450	1.4418e+02	-17.7252	-54.594187	0.000284	2.838043	0.961555	-0.000114
1451	1.4428e+02	-17.7605	-54.683004	0.000223	2.229891	0.755508	-0.000089
1452	1.4437e+02	-17.8070	-54.719338	0.000091	0.912228	0.309071	-0.000037
1453	1.4447e+02	-17.8519	-54.880823	0.000405	4.054347	1.373650	-0.000162
1454	1.4457e+02	-17.8824	-54.969640	0.000223	2.229891	0.755508	-0.000089
1455	1.4467e+02	-17.9337	-55.074606	0.000264	2.635326	0.892873	-0.000105
1456	1.4477e+02	-17.9674	-55.195720	0.000304	3.040760	1.030238	-0.000122
1457	1.4487e+02	-18.0043	-55.240128	0.000111	1.114945	0.377754	-0.000045
1458	1.4497e+02	-18.0412	-55.405651	0.000416	4.155706	1.407991	-0.000166
1459	1.4507e+02	-18.0877	-55.490431	0.000213	2.128532	0.721166	-0.000085
1460	1.4517e+02	-18.1326	-55.595396	0.000264	2.635326	0.892873	-0.000105
1461	1.4527e+02	-18.1695	-55.728622	0.000334	3.344836	1.133261	-0.000134
1462	1.4537e+02	-18.2064	-55.809364	0.000203	2.027174	0.686825	-0.000081
1463	1.4547e+02	-18.2433	-55.966813	0.000395	3.952989	1.339309	-0.000158
1464	1.4557e+02	-18.2899	-56.059667	0.000233	2.331250	0.789849	-0.000093
1465	1.4567e+02	-18.3316	-56.184818	0.000314	3.142119	1.064579	-0.000126
1466	1.4577e+02	-18.3669	-56.261524	0.000193	1.925815	0.652484	-0.000077
1467	1.4587e+02	-18.3989	-56.354378	0.000233	2.331250	0.789849	-0.000093
1468	1.4597e+02	-18.4423	-56.435120	0.000203	2.027174	0.686825	-0.000081
1469	1.4607e+02	-18.4824	-56.515863	0.000203	2.027174	0.686825	-0.000081
1470	1.4617e+02	-18.5289	-56.653126	0.000345	3.446195	1.167603	-0.000138
1471	1.4626e+02	-18.5674	-56.762128	0.000274	2.736684	0.927214	-0.000110
1472	1.4636e+02	-18.6123	-56.867094	0.000264	2.635326	0.892873	-0.000105
1473	1.4646e+02	-18.6524	-56.959948	0.000233	2.331250	0.789849	-0.000093
1474	1.4656e+02	-18.6829	-57.125471	0.000416	4.155706	1.407991	-0.000166
1475	1.4666e+02	-18.7198	-57.206213	0.000203	2.027174	0.686825	-0.000081
1476	1.4676e+02	-18.7599	-57.315216	0.000274	2.736684	0.927214	-0.000110
1477	1.4686e+02	-18.8064	-57.416144	0.000253	2.533967	0.858531	-0.000101
1478	1.4696e+02	-18.8449	-57.537259	0.000304	3.040760	1.030238	-0.000122
1479	1.4706e+02	-18.8882	-57.662410	0.000314	3.142119	1.064579	-0.000126
1480	1.4716e+02	-18.9203	-57.775450	0.000284	2.838043	0.961555	-0.000114
1481	1.4726e+02	-18.9604	-57.872341	0.000243	2.432608	0.824190	-0.000097
1482	1.4736e+02	-19.0053	-57.928861	0.000142	1.419022	0.480778	-0.000057
1483	1.4746e+02	-19.0422	-58.070160	0.000355	3.547554	1.201944	-0.000142
1484	1.4756e+02	-19.0743	-58.163015	0.000233	2.331250	0.789849	-0.000093
1485	1.4766e+02	-19.1305	-58.280092	0.000294	2.939402	0.995896	-0.000118
1486	1.4776e+02	-19.1594	-58.348723	0.000172	1.723098	0.583801	-0.000069
1487	1.4786e+02	-19.2059	-58.485985	0.000345	3.446195	1.167603	-0.000138
1488	1.4796e+02	-19.2460	-58.590951	0.000264	2.635326	0.892873	-0.000105
1489	1.4806e+02	-19.2893	-58.679768	0.000223	2.229891	0.755508	-0.000089
1490	1.4816e+02	-19.3198	-58.800882	0.000304	3.040760	1.030238	-0.000122
1491	1.4825e+02	-19.3583	-58.901810	0.000253	2.533967	0.858531	-0.000101
1492	1.4835e+02	-19.4080	-59.022924	0.000304	3.040760	1.030238	-0.000122
1493	1.4845e+02	-19.4417	-59.140001	0.000294	2.939402	0.995896	-0.000118
1494	1.4855e+02	-19.4802	-59.216707	0.000193	1.925815	0.652484	-0.000077
1495	1.4865e+02	-19.5267	-59.333784	0.000294	2.939402	0.995896	-0.000118
1496	1.4875e+02	-19.5540	-59.487195	0.000385	3.851630	1.304968	-0.000154
1497	1.4885e+02	-19.6021	-59.588123	0.000253	2.533967	0.858531	-0.000101
1498	1.4895e+02	-19.6374	-59.713275	0.000314	3.142119	1.064579	-0.000126
1499	1.4905e+02	-19.6823	-59.810166	0.000243	2.432608	0.824190	-0.000097
1500	1.4915e+02	-19.7160	-59.878797	0.000172	1.723098	0.583801	-0.000069
1501	1.4925e+02	-19.7577	-59.975689	0.000243	2.432608	0.824190	-0.000097
1502	1.4935e+02	-19.7946	-60.112951	0.000345	3.446195	1.167603	-0.000138
1503	1.4945e+02	-19.8347	-60.201768	0.000223	2.229891	0.755508	-0.000089
1504	1.4955e+02	-19.8797	-60.322882	0.000304	3.040760	1.030238	-0.000122
1505	1.4965e+02	-19.9149	-60.431885	0.000274	2.736684	0.927214	-0.000110
1506	1.4975e+02	-19.9486	-60.516665	0.000213	2.128532	0.721166	-0.000085
1507	1.4985e+02	-20.0016	-60.613556	0.000243	2.432608	0.824190	-0.000097
1508	1.4995e+02	-19.9518	-60.581259	0.000081	0.810869	0.274730	0.000032
1509	1.5005e+02	-19.9262	-60.516665	0.000162	1.621739	0.549460	0.000065
1510	1.5015e+02	-19.8716	-60.480330	0.000091	0.912228	0.309071	0.000037
1511	1.5025e+02	-19.8363	-60.423811	0.000142	1.419022	0.480778	0.000057
1512	1.5034e+02	-19.7962	-60.367291	0.000142	1.419022	0.480778	0.000057
1513	1.5044e+02	-19.7545	-60.359216	0.000020	0.202717	0.068683	0.000008
1514	1.5054e+02	-19.7192	-60.278474	0.000203	2.027174	0.686825	0.000081
1515	1.5064e+02	-19.6759	-60.258288	0.000051	0.506793	0.171706	0.000020
1516	1.5074e+02	-19.6294	-60.181582	0.000193	1.925815	0.652484	0.000077
1517	1.5084e+02	-19.6021	-60.096803	0.000213	2.128532	0.721166	0.000085
1518	1.5094e+02	-19.5540	-59.999911	0.000243	2.432608	0.824190	0.000097
1519	1.5104e+02	-19.5203	-59.931280	0.000172	1.723098	0.583801	0.000069
1520	1.5114e+02	-19.4786	-59.898983	0.000081	0.810869	0.274730	0.000032
1521	1.5124e+02	-19.4353	-59.830352	0.000172	1.723098	0.583801	0.000069
1522	1.5134e+02	-19.3984	-59.753646	0.000193	1.925815	0.652484	0.000077
1523	1.5144e+02	-19.3535	-59.693089	0.000152	1.520380	0.515119	0.000061
1524	1.5154e+02	-19.3230	-59.648681	0.000111	1.114945	0.377754	0.000045
1525	1.5164e+02	-19.2797	-59.567938	0.000203	2.027174	0.686825	0.000081
1526	1.5174e+02	-19.2444	-59.479121	0.000223	2.229891	0.755508	0.000089
1527	1.5184e+02	-19.1995	-59.446824	0.000081	0.810869	0.274730	0.000032
1528	1.5194e+02	-19.1626	-59.325710	0.000304	3.040760	1.030238	0.000122
1529	1.5204e+02	-19.1176	-59.293413	0.000081	0.810869	0.274730	0.000032
1530	1.5214e+02	-19.0743	-59.261115	0.000081	0.810869	0.274730	0.000032
1531	1.5224e+02	-19.0487	-59.224781	0.000091	0.912228	0.309071	0.000037
1532	1.5233e+02	-19.0005	-59.119816	0.000264	2.635326	0.892873	0.000105
1533	1.5243e+02	-18.9636	-59.026962	0.000233	2.331250	0.789849	0.000093
1534	1.5253e+02	-18.9283	-58.917959	0.000274	2.736684	0.927214	0.000110
1535	1.5263e+02	-18.8834	-58.853365	0.000162	1.621739	0.549460	0.000065
1536	1.5273e+02	-18.8449	-58.784733	0.000172	1.723098	0.583801	0.000069
1537	1.5283e+02	-18.8128	-58.728214	0.000142	1.419022	0.480778	0.000057
1538	1.5293e+02	-18.7631	-58.663619	0.000162	1.621739	0.549460	0.000065
1539	1.5303e+02	-18.7230	-58.594988	0.000172	1.723098	0.583801	0.000069
1540	1.5313e+02	-18.6893	-58.473874	0.000304	3.040760	1.030238	0.000122
1541	1.5323e+02	-18.6476	-58.421391	0.000132	1.317663	0.446436	0.000053
1542	1.5333e+02	-18.6107	-58.312389	0.000274	2.736684	0.927214	0.000110
1543	1.5343e+02	-18.5722	-58.288166	0.000061	0.608152	0.206048	0.000024
1544	1.5353e+02	-18.5241	-58.179163	0.000274	2.736684	0.927214	0.000110
1545	1.5363e+02	-18.4776	-58.130717	0.000122	1.216304	0.412095	0.000049
1546	1.5373e+02	-18.4439	-58.054012	0.000193	1.925815	0.652484	0.000077
1547	1.5383e+02	-18.4006	-57.969232	0.000213	2.128532	0.721166	0.000085
1548	1.5393e+02	-18.3604	-57.924824	0.000111	1.114945	0.377754	0.000045
1549	1.5403e+02	-18.3203	-57.872341	0.000132	1.317663	0.446436	0.000053
1550	1.5413e+02	-18.2850	-57.775450	0.000243	2.432608	0.824190	0.000097
1551	1.5422e+02	-18.2401	-57.682595	0.000233	2.331250	0.789849	0.000093
1552	1.5432e+02	-18.2048	-57.601853	0.000203	2.027174	0.686825	0.000081
1553	1.5442e+02	-18.1647	-57.468627	0.000334	3.344836	1.133261	0.000134
1554	1.5452e+02	-18.1278	-57.399996	0.000172	1.723098	0.583801	0.000069
1555	1.5462e+02	-18.0797	-57.327327	0.000182	1.824456	0.618143	0.000073
1556	1.5472e+02	-18.0428	-57.242548	0.000213	2.128532	0.721166	0.000085
1557	1.5482e+02	-18.0091	-57.173916	0.000172	1.723098	0.583801	0.000069
1558	1.5492e+02	-17.9738	-57.121434	0.000132	1.317663	0.446436	0.000053
1559	1.5502e+02	-17.9257	-56.996282	0.000314	3.142119	1.064579	0.000126
1560	1.5512e+02	-17.8840	-56.943800	0.000132	1.317663	0.446436	0.000053
1561	1.5522e+02	-17.8471	-56.846908	0.000243	2.432608	0.824190	0.000097
1562	1.5532e+02	-17.7925	-56.770203	0.000193	1.925815	0.652484	0.000077
1563	1.5542e+02	-17.7621	-56.685423	0.000213	2.128532	0.721166	0.000085
1564	1.5552e+02	-17.7188	-56.657163	0.000071	0.709511	0.240389	0.000028
1565	1.5562e+02	-17.6770	-56.527975	0.000324	3.243478	1.098920	0.000130
1566	1.5572e+02	-17.6401	-56.463380	0.000162	1.621739	0.549460	0.000065
1567	1.5582e+02	-17.6016	-56.374563	0.000223	2.229891	0.755508	0.000089
1568	1.5592e+02	-17.5744	-56.281709	0.000233	2.331250	0.789849	0.000093
1569	1.5602e+02	-17.5295	-56.192892	0.000223	2.229891	0.755508	0.000089
1570	1.5612e+02	-17.4958	-56.096001	0.000243	2.432608	0.824190	0.000097
1571	1.5622e+02	-17.4557	-56.039481	0.000142	1.419022	0.480778	0.000057
1572	1.5631e+02	-17.3995	-55.914330	0.000314	3.142119	1.064579	0.000126
1573	1.5641e+02	-17.3642	-55.833587	0.000203	2.027174	0.686825	0.000081
1574	1.5651e+02	-17.3337	-55.801290	0.000081	0.810869	0.274730	0.000032
1575	1.5661e+02	-17.2936	-55.704399	0.000243	2.432608	0.824190	0.000097
1576	1.5671e+02	-17.2503	-55.615582	0.000223	2.229891	0.755508	0.000089
1577	1.5681e+02	-17.2102	-55.567136	0.000122	1.216304	0.412095	0.000049
1578	1.5691e+02	-17.1669	-55.474282	0.000233	2.331250	0.789849	0.000093
1579	1.5701e+02	-17.1300	-55.429874	0.000111	1.114945	0.377754	0.000045
1580	1.5711e+02	-17.0899	-55.345094	0.000213	2.128532	0.721166	0.000085
1581	1.5721e+02	-17.0482	-55.240128	0.000264	2.635326	0.892873	0.000105
1582	1.5731e+02	-17.0081	-55.195720	0.000111	1.114945	0.377754	0.000045
1583	1.5741e+02	-16.9616	-55.090754	0.000264	2.635326	0.892873	0.000105
1584	1.5751e+02	-16.9279	-55.018086	0.000182	1.824456	0.618143	0.000073
1585	1.5761e+02	-16.8926	-54.945417	0.000182	1.824456	0.618143	0.000073
1586	1.5771e+02	-16.8541	-54.800081	0.000365	3.648913	1.236285	0.000146
1587	1.5781e+02	-16.8108	-54.715301	0.000213	2.128532	0.721166	0.000085
1588	1.5791e+02	-16.7706	-54.626484	0.000223	2.229891	0.755508	0.000089
1589	1.5801e+02	-16.7338	-54.549778	0.000193	1.925815	0.652484	0.000077
1590	1.5811e+02	-16.6920	-54.485184	0.000162	1.621739	0.549460	0.000065
1591	1.5821e+02	-16.6519	-54.384256	0.000253	2.533967	0.858531	0.000101
1592	1.5830e+02	-16.6182	-54.315624	0.000172	1.723098	0.583801	0.000069
1593	1.5840e+02	-16.5717	-54.234882	0.000203	2.027174	0.686825	0.000081
1594	1.5850e+02	-16.5332	-54.206622	0.000071	0.709511	0.240389	0.000028
1595	1.5860e+02	-16.4883	-54.113767	0.000233	2.331250	0.789849	0.000093
1596	1.5870e+02	-16.4530	-54.016876	0.000243	2.432608	0.824190	0.000097
1597	1.5880e+02	-16.4097	-53.924022	0.000233	2.331250	0.789849	0.000093
1598	1.5890e+02	-16.3776	-53.835205	0.000223	2.229891	0.755508	0.000089
1599	1.5900e+02	-16.3279	-53.762537	0.000182	1.824456	0.618143	0.000073
1600	1.5910e+02	-16.2990	-53.685831	0.000193	1.925815	0.652484	0.000077
1601	1.5920e+02	-16.2589	-53.629311	0.000142	1.419022	0.480778	0.000057
1602	1.5930e+02	-16.2092	-53.536457	0.000233	2.331250	0.789849	0.000093
1603	1.5940e+02	-16.1755	-53.374972	0.000405	4.054347	1.373650	0.000162
1604	1.5950e+02	-16.1322	-53.318452	0.000142	1.419022	0.480778	0.000057
1605	1.5960e+02	-16.0953	-53.217523	0.000253	2.533967	0.858531	0.000101
1606	1.5970e+02	-16.0584	-53.169078	0.000122	1.216304	0.412095	0.000049
1607	1.5980e+02	-16.0167	-53.064112	0.000264	2.635326	0.892873	0.000105
1608	1.5990e+02	-15.9750	-52.971258	0.000233	2.331250	0.789849	0.000093
1609	1.6000e+02	-15.9316	-52.910701	0.000152	1.520380	0.515119	0.000061
1610	1.6010e+02	-15.8963	-52.838033	0.000182	1.824456	0.618143	0.000073
1611	1.6019e+02	-15.8498	-52.793624	0.000111	1.114945	0.377754	0.000045
1612	1.6029e+02	-15.8193	-52.656361	0.000345	3.446195	1.167603	0.000138
1613	1.6039e+02	-15.7744	-52.607916	0.000122	1.216304	0.412095	0.000049
1614	1.6049e+02	-15.7327	-52.494876	0.000284	2.838043	0.961555	0.000114
1615	1.6059e+02	-15.6990	-52.434319	0.000152	1.520380	0.515119	0.000061
1616	1.6069e+02	-15.6637	-52.345502	0.000223	2.229891	0.755508	0.000089
1617	1.6079e+02	-15.6172	-52.264759	0.000203	2.027174	0.686825	0.000081
1618	1.6089e+02	-15.5707	-52.171905	0.000233	2.331250	0.789849	0.000093
1619	1.6099e+02	-15.5370	-52.075014	0.000243	2.432608	0.824190	0.000097
1620	1.6109e+02	-15.4889	-51.986197	0.000223	2.229891	0.755508	0.000089
1621	1.6119e+02	-15.4552	-51.893343	0.000233	2.331250	0.789849	0.000093
1622	1.6129e+02	-15.4231	-51.796452	0.000243	2.432608	0.824190	0.000097
1623	1.6139e+02	-15.3766	-51.719746	0.000193	1.925815	0.652484	0.000077
1624	1.6149e+02	-15.3284	-51.655152	0.000162	1.621739	0.549460	0.000065
1625	1.6159e+02	-15.2948	-51.582483	0.000182	1.824456	0.618143	0.000073
1626	1.6169e+02	-15.2611	-51.505778	0.000193	1.925815	0.652484	0.000077
1627	1.6179e+02	-15.2226	-51.408886	0.000243	2.432608	0.824190	0.000097
1628	1.6189e+02	-15.1744	-51.316032	0.000233	2.331250	0.789849	0.000093
1629	1.6199e+02	-15.1391	-51.247401	0.000172	1.723098	0.583801	0.000069
1630	1.6209e+02	-15.0942	-51.174733	0.000182	1.824456	0.618143	0.000073
1631	1.6219e+02	-15.0605	-51.057656	0.000294	2.939402	0.995896	0.000118
1632	1.6228e+02	-15.0236	-50.976913	0.000203	2.027174	0.686825	0.000081
1633	1.6238e+02	-14.9771	-50.932504	0.000111	1.114945	0.377754	0.000045
1634	1.6248e+02	-14.9402	-50.819465	0.000284	2.838043	0.961555	0.000114
1635	1.6258e+02	-14.8985	-50.690276	0.000324	3.243478	1.098920	0.000130
1636	1.6268e+02	-14.8568	-50.617608	0.000182	1.824456	0.618143	0.000073
1637	1.6278e+02	-14.8183	-50.520717	0.000243	2.432608	0.824190	0.000097
1638	1.6288e+02	-14.7766	-50.419788	0.000253	2.533967	0.858531	0.000101
1639	1.6298e+02	-14.7317	-50.343083	0.000193	1.925815	0.652484	0.000077
1640	1.6308e+02	-14.7076	-50.262340	0.000203	2.027174	0.686825	0.000081
1641	1.6318e+02	-14.6531	-50.189671	0.000182	1.824456	0.618143	0.000073
1642	1.6328e+02	-14.6258	-50.104892	0.000213	2.128532	0.721166	0.000085
1643	1.6338e+02	-14.5761	-50.020112	0.000213	2.128532	0.721166	0.000085
1644	1.6348e+02	-14.5376	-49.955518	0.000162	1.621739	0.549460	0.000065
1645	1.6358e+02	-14.5039	-49.830366	0.000314	3.142119	1.064579	0.000126
1646	1.6368e+02	-14.4638	-49.765772	0.000162	1.621739	0.549460	0.000065
1647	1.6378e+02	-14.4204	-49.668881	0.000243	2.432608	0.824190	0.000097
1648	1.6388e+02	-14.3884	-49.588138	0.000203	2.027174	0.686825	0.000081
1649	1.6398e+02	-14.3450	-49.539693	0.000122	1.216304	0.412095	0.000049
1650	1.6408e+02	-14.3001	-49.418579	0.000304	3.040760	1.030238	0.000122
1651	1.6418e+02	-14.2600	-49.325724	0.000233	2.331250	0.789849	0.000093
1652	1.6427e+02	-14.2167	-49.236907	0.000223	2.229891	0.755508	0.000089
1653	1.6437e+02	-14.1830	-49.148090	0.000223	2.229891	0.755508	0.000089
1654	1.6447e+02	-14.1381	-49.039088	0.000274	2.736684	0.927214	0.000110
1655	1.6457e+02	-14.0996	-48.905862	0.000334	3.344836	1.133261	0.000134
1656	1.6467e+02	-14.0547	-48.873565	0.000081	0.810869	0.274730	0.000032
1657	1.6477e+02	-14.0210	-48.804934	0.000172	1.723098	0.583801	0.000069
1658	1.6487e+02	-13.9937	-48.675746	0.000324	3.243478	1.098920	0.000130
1659	1.6497e+02	-13.9504	-48.595003	0.000203	2.027174	0.686825	0.000081
1660	1.6507e+02	-13.9071	-48.546557	0.000122	1.216304	0.412095	0.000049
1661	1.6517e+02	-13.8590	-48.409295	0.000345	3.446195	1.167603	0.000138
1662	1.6527e+02	-13.8189	-48.308366	0.000253	2.533967	0.858531	0.000101
1663	1.6537e+02	-13.7932	-48.251846	0.000142	1.419022	0.480778	0.000057
1664	1.6547e+02	-13.7483	-48.171104	0.000203	2.027174	0.686825	0.000081
1665	1.6557e+02	-13.7018	-48.070175	0.000253	2.533967	0.858531	0.000101
1666	1.6567e+02	-13.6729	-47.969247	0.000253	2.533967	0.858531	0.000101
1667	1.6577e+02	-13.6183	-47.884467	0.000213	2.128532	0.721166	0.000085
1668	1.6587e+02	-13.5911	-47.763353	0.000304	3.040760	1.030238	0.000122
1669	1.6597e+02	-13.5477	-47.658387	0.000264	2.635326	0.892873	0.000105
1670	1.6607e+02	-13.4932	-47.565533	0.000233	2.331250	0.789849	0.000093
1671	1.6616e+02	-13.4707	-47.448456	0.000294	2.939402	0.995896	0.000118
1672	1.6626e+02	-13.4194	-47.355602	0.000233	2.331250	0.789849	0.000093
1673	1.6636e+02	-13.3793	-47.303119	0.000132	1.317663	0.446436	0.000053
1674	1.6646e+02	-13.3360	-47.186043	0.000294	2.939402	0.995896	0.000118
1675	1.6656e+02	-13.3023	-47.101263	0.000213	2.128532	0.721166	0.000085
1676	1.6666e+02	-13.2590	-46.988223	0.000284	2.838043	0.961555	0.000114
1677	1.6676e+02	-13.2221	-46.935740	0.000132	1.317663	0.446436	0.000053
1678	1.6686e+02	-13.1916	-46.790403	0.000365	3.648913	1.236285	0.000146
1679	1.6696e+02	-13.1419	-46.717735	0.000182	1.824456	0.618143	0.000073
1680	1.6706e+02	-13.1002	-46.632955	0.000213	2.128532	0.721166	0.000085
1681	1.6716e+02	-13.0601	-46.527989	0.000264	2.635326	0.892873	0.000105
1682	1.6726e+02	-13.0264	-46.479544	0.000122	1.216304	0.412095	0.000049
1683	1.6736e+02	-12.9959	-46.334207	0.000365	3.648913	1.236285	0.000146
1684	1.6746e+02	-12.9542	-46.233278	0.000253	2.533967	0.858531	0.000101
1685	1.6756e+02	-12.8964	-46.136387	0.000243	2.432608	0.824190	0.000097
1686	1.6766e+02	-12.8724	-46.047570	0.000223	2.229891	0.755508	0.000089
1687	1.6776e+02	-12.8323	-45.946642	0.000253	2.533967	0.858531	0.000101
1688	1.6786e+02	-12.7857	-45.898196	0.000122	1.216304	0.412095	0.000049
1689	1.6796e+02	-12.7520	-45.740748	0.000395	3.952989	1.339309	0.000158
1690	1.6806e+02	-12.7071	-45.655968	0.000213	2.128532	0.721166	0.000085
1691	1.6816e+02	-12.6638	-45.559077	0.000243	2.432608	0.824190	0.000097
1692	1.6825e+02	-12.6317	-45.437963	0.000304	3.040760	1.030238	0.000122
1693	1.6835e+02	-12.5884	-45.369331	0.000172	1.723098	0.583801	0.000069
1694	1.6845e+02	-12.5371	-45.260329	0.000274	2.736684	0.927214	0.000110
1695	1.6855e+02	-12.5210	-45.183623	0.000193	1.925815	0.652484	0.000077
1696	1.6865e+02	-12.4793	-45.046361	0.000345	3.446195	1.167603	0.000138
1697	1.6875e+02	-12.4248	-44.953506	0.000233	2.331250	0.789849	0.000093
1698	1.6885e+02	-12.3879	-44.864689	0.000223	2.229891	0.755508	0.000089
1699	1.6895e+02	-12.3478	-44.739538	0.000314	3.142119	1.064579	0.000126
1700	1.6905e+02	-12.3125	-44.674944	0.000162	1.621739	0.549460	0.000065
1701	1.6915e+02	-12.2692	-44.594201	0.000203	2.027174	0.686825	0.000081
1702	1.6925e+02	-12.2355	-44.473087	0.000304	3.040760	1.030238	0.000122
1703	1.6935e+02	-12.1938	-44.400419	0.000182	1.824456	0.618143	0.000073
1704	1.6945e+02	-12.1424	-44.287379	0.000284	2.838043	0.961555	0.000114
1705	1.6955e+02	-12.1152	-44.166265	0.000304	3.040760	1.030238	0.000122
1706	1.6965e+02	-12.0654	-44.105708	0.000152	1.520380	0.515119	0.000061
1707	1.6975e+02	-12.0398	-43.988631	0.000294	2.939402	0.995896	0.000118
1708	1.6985e+02	-11.9916	-43.875591	0.000284	2.838043	0.961555	0.000114
1709	1.6995e+02	-11.9547	-43.754477	0.000304	3.040760	1.030238	0.000122
1710	1.7005e+02	-11.9066	-43.697957	0.000142	1.419022	0.480778	0.000057
1711	1.7015e+02	-11.8729	-43.496100	0.000507	5.067934	1.717063	0.000203
1712	1.7024e+02	-11.8264	-43.504175	-0.000020	-0.202717	-0.068683	-0.000008
1713	1.7034e+02	-11.7927	-43.362875	0.000355	3.547554	1.201944	0.000142
1714	1.7044e+02	-11.7478	-43.245798	0.000294	2.939402	0.995896	0.000118
1715	1.7054e+02	-11.7109	-43.169092	0.000193	1.925815	0.652484	0.000077
1716	1.7064e+02	-11.6724	-43.056053	0.000284	2.838043	0.961555	0.000114
1717	1.7074e+02	-11.6355	-42.922827	0.000334	3.344836	1.133261	0.000134
1718	1.7084e+02	-11.5938	-42.789602	0.000334	3.344836	1.133261	0.000134
1719	1.7094e+02	-11.5585	-42.688673	0.000253	2.533967	0.858531	0.000101
1720	1.7104e+02	-11.5184	-42.632153	0.000142	1.419022	0.480778	0.000057
1721	1.7114e+02	-11.4751	-42.531225	0.000253	2.533967	0.858531	0.000101
1722	1.7124e+02	-11.4302	-42.426259	0.000264	2.635326	0.892873	0.000105
1723	1.7134e+02	-11.3965	-42.353591	0.000182	1.824456	0.618143	0.000073
1724	1.7144e+02	-11.3451	-42.248625	0.000264	2.635326	0.892873	0.000105
1725	1.7154e+02	-11.3147	-42.091177	0.000395	3.952989	1.339309	0.000158
1726	1.7164e+02	-11.2713	-42.002360	0.000223	2.229891	0.755508	0.000089
1727	1.7174e+02	-11.2328	-41.865098	0.000345	3.446195	1.167603	0.000138
1728	1.7184e+02	-11.1895	-41.788392	0.000193	1.925815	0.652484	0.000077
1729	1.7194e+02	-11.1558	-41.679389	0.000274	2.736684	0.927214	0.000110
1730	1.7204e+02	-11.1157	-41.550201	0.000324	3.243478	1.098920	0.000130
1731	1.7213e+02	-11.0756	-41.501755	0.000122	1.216304	0.412095	0.000049
1732	1.7223e+02	-11.0291	-41.396790	0.000264	2.635326	0.892873	0.000105
1733	1.7233e+02	-10.9986	-41.239342	0.000395	3.952989	1.339309	0.000158
1734	1.7243e+02	-10.9569	-41.174747	0.000162	1.621739	0.549460	0.000065
1735	1.7253e+02	-10.9168	-41.045559	0.000324	3.243478	1.098920	0.000130
1736	1.7263e+02	-10.8735	-40.892148	0.000385	3.851630	1.304968	0.000154
1737	1.7273e+02	-10.8350	-40.827554	0.000162	1.621739	0.549460	0.000065
1738	1.7283e+02	-10.7949	-40.758922	0.000172	1.723098	0.583801	0.000069
1739	1.7293e+02	-10.7452	-40.662031	0.000243	2.432608	0.824190	0.000097
1740	1.7303e+02	-10.7083	-40.581288	0.000203	2.027174	0.686825	0.000081
1741	1.7313e+02	-10.6746	-40.439989	0.000355	3.547554	1.201944	0.000142
1742	1.7323e+02	-10.6313	-40.330986	0.000274	2.736684	0.927214	0.000110
1743	1.7333e+02	-10.5895	-40.205835	0.000314	3.142119	1.064579	0.000126
1744	1.7343e+02	-10.5575	-40.108944	0.000243	2.432608	0.824190	0.000097
1745	1.7353e+02	-10.5141	-39.975718	0.000334	3.344836	1.133261	0.000134
1746	1.7363e+02	-10.4805	-39.923235	0.000132	1.317663	0.446436	0.000053
1747	1.7373e+02	-10.4387	-39.806158	0.000294	2.939402	0.995896	0.000118
1748	1.7383e+02	-10.3890	-39.676970	0.000324	3.243478	1.098920	0.000130
1749	1.7393e+02	-10.3537	-39.547782	0.000324	3.243478	1.098920	0.000130
1750	1.7403e+02	-10.3168	-39.442816	0.000264	2.635326	0.892873	0.000105
1751	1.7413e+02	-10.2751	-39.353999	0.000223	2.229891	0.755508	0.000089
1752	1.7422e+02	-10.2382	-39.261145	0.000233	2.331250	0.789849	0.000093
1753	1.7432e+02	-10.2013	-39.160217	0.000253	2.533967	0.858531	0.000101
1754	1.7442e+02	-10.1516	-39.059288	0.000253	2.533967	0.858531	0.000101
1755	1.7452e+02	-10.1179	-38.958360	0.000253	2.533967	0.858531	0.000101
1756	1.7462e+02	-10.0778	-38.893766	0.000162	1.621739	0.549460	0.000065
1757	1.7472e+02	-10.0297	-38.748429	0.000365	3.648913	1.236285	0.000146
1758	1.7482e+02	-9.9912	-38.643463	0.000264	2.635326	0.892873	0.000105
1759	1.7492e+02	-9.9559	-38.506201	0.000345	3.446195	1.167603	0.000138
1760	1.7502e+02	-9.9142	-38.433532	0.000182	1.824456	0.618143	0.000073
1761	1.7512e+02	-9.8821	-38.288195	0.000365	3.648913	1.236285	0.000146
1762	1.7522e+02	-9.8404	-38.203415	0.000213	2.128532	0.721166	0.000085
1763	1.7532e+02	-9.8003	-38.094413	0.000274	2.736684	0.927214	0.000110
1764	1.7542e+02	-9.7585	-37.993484	0.000253	2.533967	0.858531	0.000101
1765	1.7552e+02	-9.7200	-37.860259	0.000334	3.344836	1.133261	0.000134
1766	1.7562e+02	-9.6799	-37.763368	0.000243	2.432608	0.824190	0.000097
1767	1.7572e+02	-9.6430	-37.642254	0.000304	3.040760	1.030238	0.000122
1768	1.7582e+02	-9.6110	-37.565548	0.000193	1.925815	0.652484	0.000077
1769	1.7592e+02	-9.5676	-37.448471	0.000294	2.939402	0.995896	0.000118
1770	1.7602e+02	-9.5211	-37.327357	0.000304	3.040760	1.030238	0.000122
1771	1.7612e+02	-9.4890	-37.194132	0.000334	3.344836	1.133261	0.000134
1772	1.7621e+02	-9.4345	-37.165872	0.000071	0.709511	0.240389	0.000028
1773	1.7631e+02	-9.3960	-37.048795	0.000294	2.939402	0.995896	0.000118
1774	1.7641e+02	-9.3479	-36.955941	0.000233	2.331250	0.789849	0.000093
1775	1.7651e+02	-9.3254	-36.875198	0.000203	2.027174	0.686825	0.000081
1776	1.7661e+02	-9.2789	-36.721787	0.000385	3.851630	1.304968	0.000154
1777	1.7671e+02	-9.2292	-36.596635	0.000314	3.142119	1.064579	0.000126
1778	1.7681e+02	-9.2035	-36.463410	0.000334	3.344836	1.133261	0.000134
1779	1.7691e+02	-9.1634	-36.346333	0.000294	2.939402	0.995896	0.000118
1780	1.7701e+02	-9.1104	-36.245405	0.000253	2.533967	0.858531	0.000101
1781	1.7711e+02	-9.0832	-36.148513	0.000243	2.432608	0.824190	0.000097
1782	1.7721e+02	-9.0366	-36.015288	0.000334	3.344836	1.133261	0.000134
1783	1.7731e+02	-8.9965	-35.910322	0.000264	2.635326	0.892873	0.000105
1784	1.7741e+02	-8.9661	-35.805357	0.000264	2.635326	0.892873	0.000105
1785	1.7751e+02	-8.9227	-35.736726	0.000172	1.723098	0.583801	0.000069
1786	1.7761e+02	-8.8842	-35.591389	0.000365	3.648913	1.236285	0.000146
1787	1.7771e+02	-8.8409	-35.490460	0.000253	2.533967	0.858531	0.000101
1788	1.7781e+02	-8.8121	-35.365309	0.000314	3.142119	1.064579	0.000126
1789	1.7791e+02	-8.7623	-35.300715	0.000162	1.621739	0.549460	0.000065
1790	1.7801e+02	-8.7190	-35.171527	0.000324	3.243478	1.098920	0.000130
1791	1.7810e+02	-8.6837	-35.115007	0.000142	1.419022	0.480778	0.000057
1792	1.7820e+02	-8.6404	-34.969670	0.000365	3.648913	1.236285	0.000146
1793	1.7830e+02	-8.6019	-34.844519	0.000314	3.142119	1.064579	0.000126
1794	1.7840e+02	-8.5666	-34.727442	0.000294	2.939402	0.995896	0.000118
1795	1.7850e+02	-8.5265	-34.626513	0.000253	2.533967	0.858531	0.000101
1796	1.7860e+02	-8.4880	-34.521548	0.000264	2.635326	0.892873	0.000105
1797	1.7870e+02	-8.4415	-34.384285	0.000345	3.446195	1.167603	0.000138
1798	1.7880e+02	-8.4110	-34.287394	0.000243	2.432608	0.824190	0.000097
1799	1.7890e+02	-8.3661	-34.146094	0.000355	3.547554	1.201944	0.000142
1800	1.7900e+02	-8.3324	-34.069388	0.000193	1.925815	0.652484	0.000077
1801	1.7910e+02	-8.2875	-33.948274	0.000304	3.040760	1.030238	0.000122
1802	1.7920e+02	-8.2425	-33.827160	0.000304	3.040760	1.030238	0.000122
1803	1.7930e+02	-8.2089	-33.742380	0.000213	2.128532	0.721166	0.000085
1804	1.7940e+02	-8.1704	-33.584932	0.000395	3.952989	1.339309	0.000158
1805	1.7950e+02	-8.1174	-33.463818	0.000304	3.040760	1.030238	0.000122
1806	1.7960e+02	-8.0885	-33.354815	0.000274	2.736684	0.927214	0.000110
1807	1.7970e+02	-8.0452	-33.342704	0.000030	0.304076	0.103024	0.000012
1808	1.7980e+02	-8.0051	-33.193330	0.000375	3.750271	1.270626	0.000150
1809	1.7990e+02	-7.9618	-33.072216	0.000304	3.040760	1.030238	0.000122
1810	1.8000e+02	-7.9185	-32.951102	0.000304	3.040760	1.030238	0.000122
1811	1.8009e+02	-7.8832	-32.817876	0.000334	3.344836	1.133261	0.000134
1812	1.8019e+02	-7.8367	-32.708874	0.000274	2.736684	0.927214	0.000110
1813	1.8029e+02	-7.8078	-32.648317	0.000152	1.520380	0.515119	0.000061
1814	1.8039e+02	-7.7597	-32.462608	0.000466	4.662499	1.579698	0.000187
1815	1.8049e+02	-7.7308	-32.373791	0.000223	2.229891	0.755508	0.000089
1816	1.8059e+02	-7.6875	-32.256715	0.000294	2.939402	0.995896	0.000118
1817	1.8069e+02	-7.6474	-32.131563	0.000314	3.142119	1.064579	0.000126
1818	1.8079e+02	-7.6105	-32.034672	0.000243	2.432608	0.824190	0.000097
1819	1.8089e+02	-7.5624	-31.921632	0.000284	2.838043	0.961555	0.000114
1820	1.8099e+02	-7.5335	-31.792444	0.000324	3.243478	1.098920	0.000130
1821	1.8109e+02	-7.4982	-31.675367	0.000294	2.939402	0.995896	0.000118
1822	1.8119e+02	-7.4533	-31.590587	0.000213	2.128532	0.721166	0.000085
1823	1.8129e+02	-7.4067	-31.469473	0.000304	3.040760	1.030238	0.000122
1824	1.8139e+02	-7.3682	-31.316062	0.000385	3.851630	1.304968	0.000154
1825	1.8149e+02	-7.3281	-31.291839	0.000061	0.608152	0.206048	0.000024
1826	1.8159e+02	-7.2800	-31.150539	0.000355	3.547554	1.201944	0.000142
1827	1.8169e+02	-7.2511	-30.972905	0.000446	4.459782	1.511015	0.000179
1828	1.8179e+02	-7.2126	-30.843717	0.000324	3.243478	1.098920	0.000130
1829	1.8189e+02	-7.1661	-30.775086	0.000172	1.723098	0.583801	0.000069
1830	1.8199e+02	-7.1324	-30.666083	0.000274	2.736684	0.927214	0.000110
1831	1.8209e+02	-7.0907	-30.544969	0.000304	3.040760	1.030238	0.000122
1832	1.8218e+02	-7.0586	-30.371372	0.000436	4.358423	1.476674	0.000174
1833	1.8228e+02	-7.0057	-30.262369	0.000274	2.736684	0.927214	0.000110
1834	1.8238e+02	-6.9704	-30.117033	0.000365	3.648913	1.236285	0.000146
1835	1.8248e+02	-6.9287	-30.024178	0.000233	2.331250	0.789849	0.000093
1836	1.8258e+02	-6.8966	-29.919213	0.000264	2.635326	0.892873	0.000105
1837	1.8268e+02	-6.8437	-29.773876	0.000365	3.648913	1.236285	0.000146
1838	1.8278e+02	-6.8180	-29.693133	0.000203	2.027174	0.686825	0.000081
1839	1.8288e+02	-6.7763	-29.551834	0.000355	3.547554	1.201944	0.000142
1840	1.8298e+02	-6.7346	-29.422645	0.000324	3.243478	1.098920	0.000130
1841	1.8308e+02	-6.6929	-29.297494	0.000314	3.142119	1.064579	0.000126
1842	1.8318e+02	-6.6528	-29.204640	0.000233	2.331250	0.789849	0.000093
1843	1.8328e+02	-6.6094	-29.119860	0.000213	2.128532	0.721166	0.000085
1844	1.8338e+02	-6.5725	-28.970486	0.000375	3.750271	1.270626	0.000150
1845	1.8348e+02	-6.5244	-28.833223	0.000345	3.446195	1.167603	0.000138
1846	1.8358e+02	-6.4939	-28.716147	0.000294	2.939402	0.995896	0.000118
1847	1.8368e+02	-6.4683	-28.566772	0.000375	3.750271	1.270626	0.000150
1848	1.8378e+02	-6.4105	-28.417398	0.000375	3.750271	1.270626	0.000150
1849	1.8388e+02	-6.3704	-28.316470	0.000253	2.533967	0.858531	0.000101
1850	1.8398e+02	-6.3383	-28.231690	0.000213	2.128532	0.721166	0.000085
1851	1.8407e+02	-6.2950	-28.066168	0.000416	4.155706	1.407991	0.000166
1852	1.8417e+02	-6.2501	-27.965239	0.000253	2.533967	0.858531	0.000101
1853	1.8427e+02	-6.2148	-27.832014	0.000334	3.344836	1.133261	0.000134
1854	1.8437e+02	-6.1811	-27.690714	0.000355	3.547554	1.201944	0.000142
1855	1.8447e+02	-6.1378	-27.545377	0.000365	3.648913	1.236285	0.000146
1856	1.8457e+02	-6.0993	-27.440412	0.000264	2.635326	0.892873	0.000105
1857	1.8467e+02	-6.0512	-27.319298	0.000304	3.040760	1.030238	0.000122
1858	1.8477e+02	-6.0223	-27.254703	0.000162	1.621739	0.549460	0.000065
1859	1.8487e+02	-5.9742	-27.113404	0.000355	3.547554	1.201944	0.000142
1860	1.8497e+02	-5.9341	-26.968067	0.000365	3.648913	1.236285	0.000146
1861	1.8507e+02	-5.8988	-26.838878	0.000324	3.243478	1.098920	0.000130
1862	1.8517e+02	-5.8554	-26.713727	0.000314	3.142119	1.064579	0.000126
1863	1.8527e+02	-5.8218	-26.560316	0.000385	3.851630	1.304968	0.000154
1864	1.8537e+02	-5.7817	-26.431128	0.000324	3.243478	1.098920	0.000130
1865	1.8547e+02	-5.7255	-26.305976	0.000314	3.142119	1.064579	0.000126
1866	1.8557e+02	-5.6950	-26.144491	0.000405	4.054347	1.373650	0.000162
1867	1.8567e+02	-5.6597	-26.015303	0.000324	3.243478	1.098920	0.000130
1868	1.8577e+02	-5.6148	-25.882077	0.000334	3.344836	1.133261	0.000134
1869	1.8587e+02	-5.5747	-25.765000	0.000294	2.939402	0.995896	0.000118
1870	1.8597e+02	-5.5250	-25.639849	0.000314	3.142119	1.064579	0.000126
1871	1.8606e+02	-5.5089	-25.514698	0.000314	3.142119	1.064579	0.000126
1872	1.8616e+02	-5.4560	-25.377435	0.000345	3.446195	1.167603	0.000138
1873	1.8626e+02	-5.4175	-25.284581	0.000233	2.331250	0.789849	0.000093
1874	1.8636e+02	-5.3774	-25.123096	0.000405	4.054347	1.373650	0.000162
1875	1.8646e+02	-5.3373	-25.062539	0.000152	1.520380	0.515119	0.000061
1876	1.8656e+02	-5.3020	-24.897016	0.000416	4.155706	1.407991	0.000166
1877	1.8666e+02	-5.2635	-24.792051	0.000264	2.635326	0.892873	0.000105
1878	1.8676e+02	-5.2170	-24.630565	0.000405	4.054347	1.373650	0.000162
1879	1.8686e+02	-5.1769	-24.456968	0.000436	4.358423	1.476674	0.000174
1880	1.8696e+02	-5.1416	-24.311631	0.000365	3.648913	1.236285	0.000146
1881	1.8706e+02	-5.0966	-24.230889	0.000203	2.027174	0.686825	0.000081
1882	1.8716e+02	-5.0662	-24.097663	0.000334	3.344836	1.133261	0.000134
1883	1.8726e+02	-5.0261	-23.903881	0.000487	4.865217	1.648380	0.000195
1884	1.8736e+02	-4.9892	-23.811027	0.000233	2.331250	0.789849	0.000093
1885	1.8746e+02	-4.9442	-23.661653	0.000375	3.750271	1.270626	0.000150
1886	1.8756e+02	-4.9073	-23.512279	0.000375	3.750271	1.270626	0.000150
1887	1.8766e+02	-4.8528	-23.391164	0.000304	3.040760	1.030238	0.000122
1888	1.8776e+02	-4.8319	-23.241790	0.000375	3.750271	1.270626	0.000150
1889	1.8786e+02	-4.7806	-23.136825	0.000264	2.635326	0.892873	0.000105
1890	1.8796e+02	-4.7389	-22.999562	0.000345	3.446195	1.167603	0.000138
1891	1.8806e+02	-4.7036	-22.898634	0.000253	2.533967	0.858531	0.000101
1892	1.8815e+02	-4.6587	-22.753297	0.000365	3.648913	1.236285	0.000146
1893	1.8825e+02	-4.6234	-22.640257	0.000284	2.838043	0.961555	0.000114
1894	1.8835e+02	-4.5785	-22.458586	0.000456	4.561141	1.545356	0.000183
1895	1.8845e+02	-4.5432	-22.341509	0.000294	2.939402	0.995896	0.000118
1896	1.8855e+02	-4.5047	-22.159838	0.000456	4.561141	1.545356	0.000183
1897	1.8865e+02	-4.4662	-22.042761	0.000294	2.939402	0.995896	0.000118
1898	1.8875e+02	-4.4261	-21.897424	0.000365	3.648913	1.236285	0.000146
1899	1.8885e+02	-4.3796	-21.735939	0.000405	4.054347	1.373650	0.000162
1900	1.8895e+02	-4.3378	-21.647122	0.000223	2.229891	0.755508	0.000089
1901	1.8905e+02	-4.3009	-21.489674	0.000395	3.952989	1.339309	0.000158
1902	1.8915e+02	-4.2641	-21.332225	0.000395	3.952989	1.339309	0.000158
1903	1.8925e+02	-4.2288	-21.219185	0.000284	2.838043	0.961555	0.000114
1904	1.8935e+02	-4.1854	-21.053663	0.000416	4.155706	1.407991	0.000166
1905	1.8945e+02	-4.1437	-20.880066	0.000436	4.358423	1.476674	0.000174
1906	1.8955e+02	-4.0940	-20.758952	0.000304	3.040760	1.030238	0.000122
1907	1.8965e+02	-4.0651	-20.710506	0.000122	1.216304	0.412095	0.000049
1908	1.8975e+02	-4.0266	-20.577281	0.000334	3.344836	1.133261	0.000134
1909	1.8985e+02	-3.9833	-20.403684	0.000436	4.358423	1.476674	0.000174
1910	1.8995e+02	-3.9272	-20.262384	0.000355	3.547554	1.201944	0.000142
1911	1.9004e+02	-3.9031	-20.169530	0.000233	2.331250	0.789849	0.000093
1912	1.9014e+02	-3.8614	-19.975748	0.000487	4.865217	1.648380	0.000195
1913	1.9024e+02	-3.8181	-19.798114	0.000446	4.459782	1.511015	0.000179
1914	1.9034e+02	-3.7796	-19.681037	0.000294	2.939402	0.995896	0.000118
1915	1.9044e+02	-3.7475	-19.539737	0.000355	3.547554	1.201944	0.000142
1916	1.9054e+02	-3.7026	-19.374214	0.000416	4.155706	1.407991	0.000166
1917	1.9064e+02	-3.6593	-19.253100	0.000304	3.040760	1.030238	0.000122
1918	1.9074e+02	-3.6191	-19.099689	0.000385	3.851630	1.304968	0.000154
1919	1.9084e+02	-3.5855	-18.962427	0.000345	3.446195	1.167603	0.000138
1920	1.9094e+02	-3.5454	-18.796904	0.000416	4.155706	1.407991	0.000166
1921	1.9104e+02	-3.5085	-18.679827	0.000294	2.939402	0.995896	0.000118
1922	1.9114e+02	-3.4651	-18.522379	0.000395	3.952989	1.339309	0.000158
1923	1.9124e+02	-3.4266	-18.405302	0.000294	2.939402	0.995896	0.000118
1924	1.9134e+02	-3.3785	-18.292262	0.000284	2.838043	0.961555	0.000114
1925	1.9144e+02	-3.3464	-18.195371	0.000243	2.432608	0.824190	0.000097
1926	1.9154e+02	-3.3079	-18.045997	0.000375	3.750271	1.270626	0.000150
1927	1.9164e+02	-3.2710	-17.912771	0.000334	3.344836	1.133261	0.000134
1928	1.9174e+02	-3.2181	-17.795694	0.000294	2.939402	0.995896	0.000118
1929	1.9184e+02	-3.1876	-17.618060	0.000446	4.459782	1.511015	0.000179
1930	1.9194e+02	-3.1475	-17.468686	0.000375	3.750271	1.270626	0.000150
1931	1.9203e+02	-3.1042	-17.327387	0.000355	3.547554	1.201944	0.000142
1932	1.9213e+02	-3.0625	-17.129567	0.000497	4.966575	1.682721	0.000199
1933	1.9223e+02	-3.0288	-17.004416	0.000314	3.142119	1.064579	0.000126
1934	1.9233e+02	-2.9887	-16.790448	0.000537	5.372010	1.820086	0.000215
1935	1.9243e+02	-2.9470	-16.725853	0.000162	1.621739	0.549460	0.000065
1936	1.9253e+02	-2.9069	-16.528034	0.000497	4.966575	1.682721	0.000199
1937	1.9263e+02	-2.8620	-16.378660	0.000375	3.750271	1.270626	0.000150
1938	1.9273e+02	-2.8251	-16.277731	0.000253	2.533967	0.858531	0.000101
1939	1.9283e+02	-2.7914	-16.132394	0.000365	3.648913	1.236285	0.000146
1940	1.9293e+02	-2.7448	-15.978983	0.000385	3.851630	1.304968	0.000154
1941	1.9303e+02	-2.7095	-15.898241	0.000203	2.027174	0.686825	0.000081
1942	1.9313e+02	-2.6646	-15.696384	0.000507	5.067934	1.717063	0.000203
1943	1.9323e+02	-2.6213	-15.583344	0.000284	2.838043	0.961555	0.000114
1944	1.9333e+02	-2.5892	-15.450118	0.000334	3.344836	1.133261	0.000134
1945	1.9343e+02	-2.5443	-15.272484	0.000446	4.459782	1.511015	0.000179
1946	1.9353e+02	-2.5010	-15.147333	0.000314	3.142119	1.064579	0.000126
1947	1.9363e+02	-2.4705	-14.977774	0.000426	4.257065	1.442333	0.000170
1948	1.9373e+02	-2.4304	-14.820325	0.000395	3.952989	1.339309	0.000158
1949	1.9383e+02	-2.3919	-14.670951	0.000375	3.750271	1.270626	0.000150
1950	1.9393e+02	-2.3438	-14.529652	0.000355	3.547554	1.201944	0.000142
1951	1.9403e+02	-2.3165	-14.380277	0.000375	3.750271	1.270626	0.000150
1952	1.9412e+02	-2.2796	-14.243015	0.000345	3.446195	1.167603	0.000138
1953	1.9422e+02	-2.2347	-14.109789	0.000334	3.344836	1.133261	0.000134
1954	1.9432e+02	-2.1962	-13.920044	0.000476	4.763858	1.614039	0.000191
1955	1.9442e+02	-2.1593	-13.770670	0.000375	3.750271	1.270626	0.000150
1956	1.9452e+02	-2.1160	-13.613222	0.000395	3.952989	1.339309	0.000158
1957	1.9462e+02	-2.0791	-13.524405	0.000223	2.229891	0.755508	0.000089
1958	1.9472e+02	-2.0358	-13.403291	0.000304	3.040760	1.030238	0.000122
1959	1.9482e+02	-1.9941	-13.253917	0.000375	3.750271	1.270626	0.000150
1960	1.9492e+02	-1.9459	-13.104543	0.000375	3.750271	1.270626	0.000150
1961	1.9502e+02	-1.9090	-12.967280	0.000345	3.446195	1.167603	0.000138
1962	1.9512e+02	-1.8786	-12.793683	0.000436	4.358423	1.476674	0.000174
1963	1.9522e+02	-1.8240	-12.640272	0.000385	3.851630	1.304968	0.000154
1964	1.9532e+02	-1.7919	-12.515121	0.000314	3.142119	1.064579	0.000126
1965	1.9542e+02	-1.7534	-12.313264	0.000507	5.067934	1.717063	0.000203
1966	1.9552e+02	-1.7117	-12.176001	0.000345	3.446195	1.167603	0.000138
1967	1.9562e+02	-1.6748	-11.986256	0.000476	4.763858	1.614039	0.000191
1968	1.9572e+02	-1.6315	-11.865142	0.000304	3.040760	1.030238	0.000122
1969	1.9582e+02	-1.5978	-11.699619	0.000416	4.155706	1.407991	0.000166
1970	1.9592e+02	-1.5529	-11.538134	0.000405	4.054347	1.373650	0.000162
1971	1.9601e+02	-1.5160	-11.384723	0.000385	3.851630	1.304968	0.000154
1972	1.9611e+02	-1.4711	-11.283794	0.000253	2.533967	0.858531	0.000101
1973	1.9621e+02	-1.4326	-11.073863	0.000527	5.270651	1.785745	0.000211
1974	1.9631e+02	-1.3957	-10.956786	0.000294	2.939402	0.995896	0.000118
1975	1.9641e+02	-1.3524	-10.811450	0.000365	3.648913	1.236285	0.000146
1976	1.9651e+02	-1.3171	-10.686298	0.000314	3.142119	1.064579	0.000126
1977	1.9661e+02	-1.2738	-10.516739	0.000426	4.257065	1.442333	0.000170
1978	1.9671e+02	-1.2369	-10.387550	0.000324	3.243478	1.098920	0.000130
1979	1.9681e+02	-1.2064	-10.246251	0.000355	3.547554	1.201944	0.000142
1980	1.9691e+02	-1.1583	-10.076691	0.000426	4.257065	1.442333	0.000170
1981	1.9701e+02	-1.1198	-9.935391	0.000355	3.547554	1.201944	0.000142
1982	1.9711e+02	-1.0732	-9.733534	0.000507	5.067934	1.717063	0.000203
1983	1.9721e+02	-1.0444	-9.596272	0.000345	3.446195	1.167603	0.000138
1984	1.9731e+02	-0.9882	-9.402489	0.000487	4.865217	1.648380	0.000195
1985	1.9741e+02	-0.9545	-9.273301	0.000324	3.243478	1.098920	0.000130
1986	1.9751e+02	-0.9144	-9.071444	0.000507	5.067934	1.717063	0.000203
1987	1.9761e+02	-0.8759	-8.934181	0.000345	3.446195	1.167603	0.000138
1988	1.9771e+02	-0.8342	-8.821142	0.000284	2.838043	0.961555	0.000114
1989	1.9781e+02	-0.7909	-8.631396	0.000476	4.763858	1.614039	0.000191
1990	1.9791e+02	-0.7508	-8.490096	0.000355	3.547554	1.201944	0.000142
1991	1.9800e+02	-0.7155	-8.344760	0.000365	3.648913	1.236285	0.000146
1992	1.9810e+02	-0.6754	-8.150977	0.000487	4.865217	1.648380	0.000195
1993	1.9820e+02	-0.6289	-8.041974	0.000274	2.736684	0.927214	0.000110
1994	1.9830e+02	-0.5888	-7.904712	0.000345	3.446195	1.167603	0.000138
1995	1.9840e+02	-0.5519	-7.739189	0.000416	4.155706	1.407991	0.000166
1996	1.9850e+02	-0.5118	-7.585778	0.000385	3.851630	1.304968	0.000154
1997	1.9860e+02	-0.4749	-7.404107	0.000456	4.561141	1.545356	0.000183
1998	1.9870e+02	-0.4347	-7.270881	0.000334	3.344836	1.133261	0.000134
1999	1.9880e+02	-0.3882	-7.093247	0.000446	4.459782	1.511015	0.000179
2000	1.9890e+02	-0.3561	-6.947911	0.000365	3.648913	1.236285	0.000146
2001	1.9900e+02	-0.3273	-6.762202	0.000466	4.662499	1.579698	0.000187
2002	1.9910e+02	-0.2839	-6.592643	0.000426	4.257065	1.442333	0.000170
2003	1.9920e+02	-0.2374	-6.390786	0.000507	5.067934	1.717063	0.000203
2004	1.9930e+02	-0.1957	-6.281783	0.000274	2.736684	0.927214	0.000110
2005	1.9940e+02	-0.1556	-6.112224	0.000426	4.257065	1.442333	0.000170
2006	1.9950e+02	-0.1235	-5.914404	0.000497	4.966575	1.682721	0.000199
2007	1.9960e+02	-0.0818	-5.748881	0.000416	4.155706	1.407991	0.000166
2008	1.9970e+02	-0.0321	-5.627767	0.000304	3.040760	1.030238	0.000122
2009	1.9980e+02	-0.0016	-5.482430	0.000304	3.040760	1.030238	0.000146

Center data before PMax,+/-Pr and +/-Vc Calc.

PMax (uC/cm2):	6.06e+01
Pr (uC/cm2):	1.42e+00
-Pr (uC/cm2):	-5.48e+00
PLoss (uC/cm2):	-2.79e+00
Vc:	7.12e-01
-Vc:	-3.69e-01
C (Max-Eff) (nF):	3.03e-01
K (Eff):	1.03e+03
Vert. (+/-Pr) Shift (uC/cm2):	-2.03e+00
Horiz. Shift (+/-Vc):	1.71e-01
Offset (uC/cm2):	2.65e+00

A (Loop Area - uC/cm2·Volts):	7.37e-03



Hysteresis Version: 5.48.1 - Radiant Technologies, Inc., 1999 - 9/12/24

