»»»»»»»»»»»»»»»»»»»»»»»»»»»»»»»»»»»» Hysteresis ««««««««««««««««««««««««««««««««««««
»»»  Executed Version:	5.48.1
»»»  Vision Version:	5.48.4 (R)
»»»  Vision Compiled:	9/18/24
»»»  Driver Version:	5.47.0
»»»  Windows Version:	Windows 8 or 8.1
»»»  Processor Information:	x86 (AMD or Intel) - 32 Processors
»»»  Tester Name:	PMF21124-494 (100V)
»»»  Tester S/N:	PMF21124-494
»»»  Internal Amp Type:	100V RevK 270k
»»»  Internal Amp S/N:	iAB2-596/K     
»»»  Execution Count:	1
»»»»»»»»»»»»»»»»»»»»»»»»»»»»»»»»»»»»»»»»»»««««««««««««««««««««««««««««««««««««««««««

Stored:	6/13/2025 - 14:50:40
Configured:	06/13/25 01:30:53 PM
Executed:	06/13/25 02:50:11 PM

»»»»»»»»»»»»»»»»»»»»»»»»»»»»»»»»»»» Sample Info ««««««««««««««««««««««««««««««««««««
Sample Name:	
Lot Name:	
Wafer Name:	
Die Row/Column:	0/0
Capacitor Number:	0
Sample Area (cm2):	1.00e-04
Sample Thickness (microns):	3.00e-01

Amplifier:	Internal

»»»»»»»»»»»»»»»»»»»»»»»»»»»»»»»»»»» Tester Info «««««««««««««««««««««««««««««««««««
Tester Name:	PMF21124-494 (100V)
Tester Serial Number:	PMF21124-494
Return Signal Amp. Level:	0.19 [Index: 3]

»»»»»»»»»»»»»»»»»»»»»»»»»»»»»»»» Hysteresis Info ««««««««««««««««««««««««««««««««««
Task Name:	Hyst-1922
Volts:	20.00
Field:	666.67 (kV/cm)
DCBias:	0.00
DCField:	0.00 (kV/cm)
Hysteresis Period (ms):	2.00e+02
Preset:	Enabled
Preset Delay (ms):	1.00e+03
Profile:	Standard Bipolar

»»»»»»»»»»»»»»»»»»»»»»»»»»»»»»»»»»»»»» Data «««««««««««««««««««««««««««««««««««««««
Points:	2009

Valid Data

Point	Time (ms)	Drive Voltage	Measured Polarization (uC/cm2)	Capacitance (uF)	Normalized Capacitance (uF/cm2)	Dielectric Constant	Instantaneous Current (mA)
   1	0.0000e+00	0.0096	-4.989900	0.000193	1.925699	0.652445	0.000077
   2	9.9500e-02	0.0433	-4.913194	0.000193	1.925699	0.652445	0.000077
   3	1.9900e-01	0.0738	-4.719412	0.000486	4.864924	1.648281	0.000195
   4	2.9850e-01	0.1107	-4.582149	0.000345	3.445988	1.167532	0.000138
   5	3.9800e-01	0.1524	-4.473146	0.000274	2.736520	0.927158	0.000110
   6	4.9750e-01	0.1797	-4.311661	0.000405	4.054103	1.373567	0.000162
   7	5.9700e-01	0.2310	-4.186510	0.000314	3.141930	1.064515	0.000126
   8	6.9650e-01	0.2647	-4.057321	0.000324	3.243283	1.098854	0.000130
   9	7.9600e-01	0.3048	-3.920059	0.000345	3.445988	1.167532	0.000138
  10	8.9550e-01	0.3593	-3.746462	0.000436	4.358161	1.476585	0.000174
  11	9.9500e-01	0.3914	-3.637459	0.000274	2.736520	0.927158	0.000110
  12	1.0945e+00	0.4396	-3.492122	0.000365	3.648693	1.236211	0.000146
  13	1.1940e+00	0.4668	-3.354860	0.000345	3.445988	1.167532	0.000138
  14	1.2935e+00	0.5053	-3.225671	0.000324	3.243283	1.098854	0.000130
  15	1.3930e+00	0.5583	-3.092446	0.000334	3.344635	1.133193	0.000134
  16	1.4925e+00	0.5920	-2.926923	0.000416	4.155456	1.407907	0.000166
  17	1.5920e+00	0.6353	-2.817921	0.000274	2.736520	0.927158	0.000110
  18	1.6915e+00	0.6754	-2.672584	0.000365	3.648693	1.236211	0.000146
  19	1.7910e+00	0.7075	-2.551470	0.000304	3.040577	1.030176	0.000122
  20	1.8905e+00	0.7444	-2.402096	0.000375	3.750046	1.270550	0.000150
  21	1.9900e+00	0.7941	-2.228499	0.000436	4.358161	1.476585	0.000174
  22	2.0895e+00	0.8326	-2.083162	0.000365	3.648693	1.236211	0.000146
  23	2.1890e+00	0.8759	-1.978197	0.000264	2.635167	0.892819	0.000105
  24	2.2885e+00	0.9144	-1.849008	0.000324	3.243283	1.098854	0.000130
  25	2.3880e+00	0.9449	-1.707708	0.000355	3.547340	1.201871	0.000142
  26	2.4875e+00	0.9882	-1.566409	0.000355	3.547340	1.201871	0.000142
  27	2.5870e+00	1.0347	-1.449332	0.000294	2.939225	0.995836	0.000118
  28	2.6865e+00	1.0684	-1.283809	0.000416	4.155456	1.407907	0.000166
  29	2.7860e+00	1.1069	-1.166732	0.000294	2.939225	0.995836	0.000118
  30	2.8855e+00	1.1390	-0.981024	0.000466	4.662219	1.579602	0.000187
  31	2.9850e+00	1.1903	-0.851836	0.000324	3.243283	1.098854	0.000130
  32	3.0845e+00	1.2208	-0.702462	0.000375	3.750046	1.270550	0.000150
  33	3.1840e+00	1.2722	-0.613645	0.000223	2.229757	0.755462	0.000089
  34	3.2835e+00	1.3123	-0.448122	0.000416	4.155456	1.407907	0.000166
  35	3.3830e+00	1.3460	-0.306822	0.000355	3.547340	1.201871	0.000142
  36	3.4825e+00	1.3877	-0.169560	0.000345	3.445988	1.167532	0.000138
  37	3.5820e+00	1.4310	-0.008074	0.000405	4.054103	1.373567	0.000162
  38	3.6815e+00	1.4695	0.100928	0.000274	2.736520	0.927158	0.000110
  39	3.7810e+00	1.5112	0.226080	0.000314	3.141930	1.064515	0.000126
  40	3.8805e+00	1.5513	0.367379	0.000355	3.547340	1.201871	0.000142
  41	3.9800e+00	1.5914	0.553088	0.000466	4.662219	1.579602	0.000187
  42	4.0795e+00	1.6219	0.678239	0.000314	3.141930	1.064515	0.000126
  43	4.1790e+00	1.6684	0.803390	0.000314	3.141930	1.064515	0.000126
  44	4.2785e+00	1.7005	0.985061	0.000456	4.560866	1.545263	0.000183
  45	4.3780e+00	1.7438	1.090027	0.000264	2.635167	0.892819	0.000105
  46	4.4775e+00	1.7791	1.239401	0.000375	3.750046	1.270550	0.000150
  47	4.5770e+00	1.8352	1.412998	0.000436	4.358161	1.476585	0.000174
  48	4.6765e+00	1.8673	1.534112	0.000304	3.040577	1.030176	0.000122
  49	4.7760e+00	1.9074	1.683486	0.000375	3.750046	1.270550	0.000150
  50	4.8755e+00	1.9491	1.865157	0.000456	4.560866	1.545263	0.000183
  51	4.9750e+00	1.9892	1.933788	0.000172	1.722994	0.583766	0.000069
  52	5.0745e+00	2.0326	2.087199	0.000385	3.851398	1.304889	0.000154
  53	5.1740e+00	2.0775	2.236573	0.000375	3.750046	1.270550	0.000150
  54	5.2735e+00	2.1080	2.353650	0.000294	2.939225	0.995836	0.000118
  55	5.3730e+00	2.1481	2.515136	0.000405	4.054103	1.373567	0.000162
  56	5.4725e+00	2.1834	2.648361	0.000334	3.344635	1.133193	0.000134
  57	5.5720e+00	2.2267	2.785624	0.000345	3.445988	1.167532	0.000138
  58	5.6715e+00	2.2780	2.943072	0.000395	3.952751	1.339228	0.000158
  59	5.7710e+00	2.2989	3.076297	0.000334	3.344635	1.133193	0.000134
  60	5.8705e+00	2.3486	3.217597	0.000355	3.547340	1.201871	0.000142
  61	5.9700e+00	2.3855	3.354860	0.000345	3.445988	1.167532	0.000138
  62	6.0695e+00	2.4320	3.496160	0.000355	3.547340	1.201871	0.000142
  63	6.1690e+00	2.4609	3.625348	0.000324	3.243283	1.098854	0.000130
  64	6.2685e+00	2.5010	3.778759	0.000385	3.851398	1.304889	0.000154
  65	6.3680e+00	2.5379	3.903910	0.000314	3.141930	1.064515	0.000126
  66	6.4675e+00	2.5892	4.077507	0.000436	4.358161	1.476585	0.000174
  67	6.5670e+00	2.6229	4.198621	0.000304	3.040577	1.030176	0.000122
  68	6.6665e+00	2.6598	4.331847	0.000334	3.344635	1.133193	0.000134
  69	6.7660e+00	2.6999	4.461035	0.000324	3.243283	1.098854	0.000130
  70	6.8655e+00	2.7464	4.590223	0.000324	3.243283	1.098854	0.000130
  71	6.9650e+00	2.7914	4.731523	0.000355	3.547340	1.201871	0.000142
  72	7.0645e+00	2.8234	4.848600	0.000294	2.939225	0.995836	0.000118
  73	7.1640e+00	2.8652	4.981826	0.000334	3.344635	1.133193	0.000134
  74	7.2635e+00	2.9005	5.167534	0.000466	4.662219	1.579602	0.000187
  75	7.3630e+00	2.9422	5.312871	0.000365	3.648693	1.236211	0.000146
  76	7.4625e+00	2.9823	5.393613	0.000203	2.027052	0.686784	0.000081
  77	7.5620e+00	3.0127	5.547025	0.000385	3.851398	1.304889	0.000154
  78	7.6615e+00	3.0641	5.716584	0.000426	4.256808	1.442246	0.000170
  79	7.7610e+00	3.0962	5.833661	0.000294	2.939225	0.995836	0.000118
  80	7.8605e+00	3.1475	5.983035	0.000375	3.750046	1.270550	0.000150
  81	7.9600e+00	3.1796	6.108186	0.000314	3.141930	1.064515	0.000126
  82	8.0595e+00	3.2293	6.253523	0.000365	3.648693	1.236211	0.000146
  83	8.1590e+00	3.2598	6.390786	0.000345	3.445988	1.167532	0.000138
  84	8.2585e+00	3.3031	6.491714	0.000253	2.533815	0.858480	0.000101
  85	8.3580e+00	3.3432	6.677423	0.000466	4.662219	1.579602	0.000187
  86	8.4575e+00	3.3817	6.794499	0.000294	2.939225	0.995836	0.000118
  87	8.5570e+00	3.4202	6.931762	0.000345	3.445988	1.167532	0.000138
  88	8.6565e+00	3.4619	7.060950	0.000324	3.243283	1.098854	0.000130
  89	8.7560e+00	3.5004	7.226473	0.000416	4.155456	1.407907	0.000166
  90	8.8555e+00	3.5373	7.331439	0.000264	2.635167	0.892819	0.000105
  91	8.9550e+00	3.5823	7.492924	0.000405	4.054103	1.373567	0.000162
  92	9.0545e+00	3.6191	7.614038	0.000304	3.040577	1.030176	0.000122
  93	9.1540e+00	3.6625	7.771486	0.000395	3.952751	1.339228	0.000158
  94	9.2535e+00	3.6913	7.836080	0.000162	1.621641	0.549427	0.000065
  95	9.3530e+00	3.7411	8.017752	0.000456	4.560866	1.545263	0.000183
  96	9.4525e+00	3.7699	8.138866	0.000304	3.040577	1.030176	0.000122
  97	9.5520e+00	3.8165	8.264017	0.000314	3.141930	1.064515	0.000126
  98	9.6515e+00	3.8566	8.397242	0.000334	3.344635	1.133193	0.000134
  99	9.7510e+00	3.8999	8.574876	0.000446	4.459514	1.510924	0.000179
 100	9.8505e+00	3.9352	8.700028	0.000314	3.141930	1.064515	0.000126
 101	9.9500e+00	3.9785	8.833253	0.000334	3.344635	1.133193	0.000134
 102	1.0050e+01	4.0186	8.994738	0.000405	4.054103	1.373567	0.000162
 103	1.0149e+01	4.0555	9.079518	0.000213	2.128404	0.721123	0.000085
 104	1.0248e+01	4.1004	9.212744	0.000334	3.344635	1.133193	0.000134
 105	1.0348e+01	4.1373	9.374229	0.000405	4.054103	1.373567	0.000162
 106	1.0447e+01	4.1790	9.519566	0.000365	3.648693	1.236211	0.000146
 107	1.0547e+01	4.2143	9.612420	0.000233	2.331109	0.789801	0.000093
 108	1.0646e+01	4.2528	9.773906	0.000405	4.054103	1.373567	0.000162
 109	1.0746e+01	4.2993	9.907131	0.000334	3.344635	1.133193	0.000134
 110	1.0845e+01	4.3427	10.056505	0.000375	3.750046	1.270550	0.000150
 111	1.0945e+01	4.3780	10.193768	0.000345	3.445988	1.167532	0.000138
 112	1.1044e+01	4.4181	10.310845	0.000294	2.939225	0.995836	0.000118
 113	1.1144e+01	4.4614	10.452144	0.000355	3.547340	1.201871	0.000142
 114	1.1243e+01	4.4967	10.577296	0.000314	3.141930	1.064515	0.000126
 115	1.1343e+01	4.5480	10.710521	0.000334	3.344635	1.133193	0.000134
 116	1.1443e+01	4.5769	10.791264	0.000203	2.027052	0.686784	0.000081
 117	1.1542e+01	4.6154	10.960824	0.000426	4.256808	1.442246	0.000170
 118	1.1642e+01	4.6539	11.061752	0.000253	2.533815	0.858480	0.000101
 119	1.1741e+01	4.6956	11.247460	0.000466	4.662219	1.579602	0.000187
 120	1.1841e+01	4.7373	11.380686	0.000334	3.344635	1.133193	0.000134
 121	1.1940e+01	4.7774	11.501800	0.000304	3.040577	1.030176	0.000122
 122	1.2040e+01	4.8175	11.614840	0.000284	2.837872	0.961497	0.000114
 123	1.2139e+01	4.8512	11.784399	0.000426	4.256808	1.442246	0.000170
 124	1.2239e+01	4.8945	11.921662	0.000345	3.445988	1.167532	0.000138
 125	1.2338e+01	4.9330	12.042776	0.000304	3.040577	1.030176	0.000122
 126	1.2438e+01	4.9763	12.159853	0.000294	2.939225	0.995836	0.000118
 127	1.2537e+01	5.0164	12.337487	0.000446	4.459514	1.510924	0.000179
 128	1.2636e+01	5.0565	12.446489	0.000274	2.736520	0.927158	0.000110
 129	1.2736e+01	5.0934	12.575678	0.000324	3.243283	1.098854	0.000130
 130	1.2835e+01	5.1416	12.692755	0.000294	2.939225	0.995836	0.000118
 131	1.2935e+01	5.1656	12.850203	0.000395	3.952751	1.339228	0.000158
 132	1.3034e+01	5.2202	12.967280	0.000294	2.939225	0.995836	0.000118
 133	1.3134e+01	5.2571	13.124728	0.000395	3.952751	1.339228	0.000158
 134	1.3233e+01	5.3004	13.233731	0.000274	2.736520	0.927158	0.000110
 135	1.3333e+01	5.3325	13.346771	0.000284	2.837872	0.961497	0.000114
 136	1.3432e+01	5.3870	13.508256	0.000405	4.054103	1.373567	0.000162
 137	1.3532e+01	5.4159	13.621296	0.000284	2.837872	0.961497	0.000114
 138	1.3632e+01	5.4544	13.766633	0.000365	3.648693	1.236211	0.000146
 139	1.3731e+01	5.4913	13.899858	0.000334	3.344635	1.133193	0.000134
 140	1.3831e+01	5.5330	14.029047	0.000324	3.243283	1.098854	0.000130
 141	1.3930e+01	5.5715	14.162272	0.000334	3.344635	1.133193	0.000134
 142	1.4030e+01	5.6196	14.299535	0.000345	3.445988	1.167532	0.000138
 143	1.4129e+01	5.6501	14.404500	0.000264	2.635167	0.892819	0.000105
 144	1.4229e+01	5.6950	14.533689	0.000324	3.243283	1.098854	0.000130
 145	1.4328e+01	5.7303	14.658840	0.000314	3.141930	1.064515	0.000126
 146	1.4428e+01	5.7720	14.808214	0.000375	3.750046	1.270550	0.000150
 147	1.4527e+01	5.8186	14.933365	0.000314	3.141930	1.064515	0.000126
 148	1.4627e+01	5.8571	15.102925	0.000426	4.256808	1.442246	0.000170
 149	1.4726e+01	5.8907	15.215965	0.000284	2.837872	0.961497	0.000114
 150	1.4825e+01	5.9341	15.373413	0.000395	3.952751	1.339228	0.000158
 151	1.4925e+01	5.9694	15.478378	0.000264	2.635167	0.892819	0.000105
 152	1.5024e+01	6.0143	15.607567	0.000324	3.243283	1.098854	0.000130
 153	1.5124e+01	6.0544	15.752904	0.000365	3.648693	1.236211	0.000146
 154	1.5223e+01	6.0961	15.849795	0.000243	2.432462	0.824140	0.000097
 155	1.5323e+01	6.1250	16.043577	0.000486	4.864924	1.648281	0.000195
 156	1.5422e+01	6.1715	16.148543	0.000264	2.635167	0.892819	0.000105
 157	1.5522e+01	6.2148	16.281768	0.000334	3.344635	1.133193	0.000134
 158	1.5621e+01	6.2469	16.402883	0.000304	3.040577	1.030176	0.000122
 159	1.5721e+01	6.2838	16.548219	0.000365	3.648693	1.236211	0.000146
 160	1.5820e+01	6.3287	16.632999	0.000213	2.128404	0.721123	0.000085
 161	1.5920e+01	6.3672	16.802559	0.000426	4.256808	1.442246	0.000170
 162	1.6020e+01	6.4105	16.947896	0.000365	3.648693	1.236211	0.000146
 163	1.6119e+01	6.4474	17.056898	0.000274	2.736520	0.927158	0.000110
 164	1.6218e+01	6.4891	17.190124	0.000334	3.344635	1.133193	0.000134
 165	1.6318e+01	6.5260	17.295090	0.000264	2.635167	0.892819	0.000105
 166	1.6418e+01	6.5693	17.444464	0.000375	3.750046	1.270550	0.000150
 167	1.6517e+01	6.6110	17.565578	0.000304	3.040577	1.030176	0.000122
 168	1.6616e+01	6.6511	17.735137	0.000426	4.256808	1.442246	0.000170
 169	1.6716e+01	6.6864	17.864326	0.000324	3.243283	1.098854	0.000130
 170	1.6816e+01	6.7298	17.949105	0.000213	2.128404	0.721123	0.000085
 171	1.6915e+01	6.7650	18.094442	0.000365	3.648693	1.236211	0.000146
 172	1.7015e+01	6.8116	18.231705	0.000345	3.445988	1.167532	0.000138
 173	1.7114e+01	6.8437	18.340708	0.000274	2.736520	0.927158	0.000110
 174	1.7213e+01	6.8822	18.502193	0.000405	4.054103	1.373567	0.000162
 175	1.7313e+01	6.9271	18.635419	0.000334	3.344635	1.133193	0.000134
 176	1.7413e+01	6.9704	18.752496	0.000294	2.939225	0.995836	0.000118
 177	1.7512e+01	7.0121	18.881684	0.000324	3.243283	1.098854	0.000130
 178	1.7611e+01	7.0458	19.022984	0.000355	3.547340	1.201871	0.000142
 179	1.7711e+01	7.0907	19.119875	0.000243	2.432462	0.824140	0.000097
 180	1.7811e+01	7.1212	19.289435	0.000426	4.256808	1.442246	0.000170
 181	1.7910e+01	7.1677	19.378252	0.000223	2.229757	0.755462	0.000089
 182	1.8009e+01	7.2078	19.572034	0.000486	4.864924	1.648281	0.000195
 183	1.8109e+01	7.2383	19.689111	0.000294	2.939225	0.995836	0.000118
 184	1.8209e+01	7.2832	19.802151	0.000284	2.837872	0.961497	0.000114
 185	1.8308e+01	7.3297	19.935376	0.000334	3.344635	1.133193	0.000134
 186	1.8407e+01	7.3586	20.084750	0.000375	3.750046	1.270550	0.000150
 187	1.8507e+01	7.4067	20.189716	0.000264	2.635167	0.892819	0.000105
 188	1.8607e+01	7.4372	20.318904	0.000324	3.243283	1.098854	0.000130
 189	1.8706e+01	7.4886	20.480390	0.000405	4.054103	1.373567	0.000162
 190	1.8805e+01	7.5222	20.605541	0.000314	3.141930	1.064515	0.000126
 191	1.8905e+01	7.5575	20.734729	0.000324	3.243283	1.098854	0.000130
 192	1.9005e+01	7.6089	20.839695	0.000264	2.635167	0.892819	0.000105
 193	1.9104e+01	7.6345	20.976957	0.000345	3.445988	1.167532	0.000138
 194	1.9203e+01	7.6843	21.110183	0.000334	3.344635	1.133193	0.000134
 195	1.9303e+01	7.7212	21.219185	0.000274	2.736520	0.927158	0.000110
 196	1.9402e+01	7.7661	21.348374	0.000324	3.243283	1.098854	0.000130
 197	1.9502e+01	7.8014	21.437191	0.000223	2.229757	0.755462	0.000089
 198	1.9602e+01	7.8511	21.602713	0.000416	4.155456	1.407907	0.000166
 199	1.9701e+01	7.8848	21.723827	0.000304	3.040577	1.030176	0.000122
 200	1.9800e+01	7.9169	21.848979	0.000314	3.141930	1.064515	0.000126
 201	1.9900e+01	7.9650	21.990278	0.000355	3.547340	1.201871	0.000142
 202	2.0000e+01	8.0083	22.159838	0.000426	4.256808	1.442246	0.000170
 203	2.0099e+01	8.0468	22.248655	0.000223	2.229757	0.755462	0.000089
 204	2.0198e+01	8.0789	22.385918	0.000345	3.445988	1.167532	0.000138
 205	2.0298e+01	8.1238	22.478772	0.000233	2.331109	0.789801	0.000093
 206	2.0398e+01	8.1655	22.628146	0.000375	3.750046	1.270550	0.000150
 207	2.0497e+01	8.1992	22.785594	0.000395	3.952751	1.339228	0.000158
 208	2.0596e+01	8.2409	22.866337	0.000203	2.027052	0.686784	0.000081
 209	2.0696e+01	8.2810	22.995525	0.000324	3.243283	1.098854	0.000130
 210	2.0796e+01	8.3276	23.144899	0.000375	3.750046	1.270550	0.000150
 211	2.0895e+01	8.3564	23.253902	0.000274	2.736520	0.927158	0.000110
 212	2.0994e+01	8.4030	23.379053	0.000314	3.141930	1.064515	0.000126
 213	2.1094e+01	8.4415	23.496130	0.000294	2.939225	0.995836	0.000118
 214	2.1194e+01	8.4864	23.641467	0.000365	3.648693	1.236211	0.000146
 215	2.1293e+01	8.5233	23.746432	0.000264	2.635167	0.892819	0.000105
 216	2.1392e+01	8.5602	23.879658	0.000334	3.344635	1.133193	0.000134
 217	2.1492e+01	8.6003	23.964438	0.000213	2.128404	0.721123	0.000085
 218	2.1591e+01	8.6324	24.093626	0.000324	3.243283	1.098854	0.000130
 219	2.1691e+01	8.6869	24.234926	0.000355	3.547340	1.201871	0.000142
 220	2.1791e+01	8.7190	24.384300	0.000375	3.750046	1.270550	0.000150
 221	2.1890e+01	8.7495	24.521562	0.000345	3.445988	1.167532	0.000138
 222	2.1989e+01	8.7992	24.622491	0.000253	2.533815	0.858480	0.000101
 223	2.2089e+01	8.8361	24.767828	0.000365	3.648693	1.236211	0.000146
 224	2.2189e+01	8.8762	24.884905	0.000294	2.939225	0.995836	0.000118
 225	2.2288e+01	8.9131	25.010056	0.000314	3.141930	1.064515	0.000126
 226	2.2387e+01	8.9645	25.110984	0.000253	2.533815	0.858480	0.000101
 227	2.2487e+01	9.0030	25.252284	0.000355	3.547340	1.201871	0.000142
 228	2.2587e+01	9.0431	25.345138	0.000233	2.331109	0.789801	0.000093
 229	2.2686e+01	9.0751	25.486438	0.000355	3.547340	1.201871	0.000142
 230	2.2785e+01	9.1185	25.619663	0.000334	3.344635	1.133193	0.000134
 231	2.2885e+01	9.1586	25.688295	0.000172	1.722994	0.583766	0.000069
 232	2.2985e+01	9.1971	25.813446	0.000314	3.141930	1.064515	0.000126
 233	2.3084e+01	9.2404	25.995117	0.000456	4.560866	1.545263	0.000183
 234	2.3183e+01	9.2757	26.071823	0.000193	1.925699	0.652445	0.000077
 235	2.3283e+01	9.3190	26.229271	0.000395	3.952751	1.339228	0.000158
 236	2.3383e+01	9.3591	26.305976	0.000193	1.925699	0.652445	0.000077
 237	2.3482e+01	9.3880	26.427091	0.000304	3.040577	1.030176	0.000122
 238	2.3581e+01	9.4425	26.552242	0.000314	3.141930	1.064515	0.000126
 239	2.3681e+01	9.4858	26.669319	0.000294	2.939225	0.995836	0.000118
 240	2.3780e+01	9.5195	26.818693	0.000375	3.750046	1.270550	0.000150
 241	2.3880e+01	9.5500	26.923658	0.000264	2.635167	0.892819	0.000105
 242	2.3980e+01	9.5981	26.976141	0.000132	1.317584	0.446409	0.000053
 243	2.4079e+01	9.6463	27.161849	0.000466	4.662219	1.579602	0.000187
 244	2.4178e+01	9.6719	27.246629	0.000213	2.128404	0.721123	0.000085
 245	2.4278e+01	9.7152	27.391966	0.000365	3.648693	1.236211	0.000146
 246	2.4378e+01	9.7569	27.529229	0.000345	3.445988	1.167532	0.000138
 247	2.4477e+01	9.7890	27.622083	0.000233	2.331109	0.789801	0.000093
 248	2.4576e+01	9.8372	27.735123	0.000284	2.837872	0.961497	0.000114
 249	2.4676e+01	9.8708	27.819902	0.000213	2.128404	0.721123	0.000085
 250	2.4776e+01	9.9222	27.981388	0.000405	4.054103	1.373567	0.000162
 251	2.4875e+01	9.9607	28.102502	0.000304	3.040577	1.030176	0.000122
 252	2.4974e+01	9.9944	28.191319	0.000223	2.229757	0.755462	0.000089
 253	2.5074e+01	10.0393	28.300322	0.000274	2.736520	0.927158	0.000110
 254	2.5174e+01	10.0698	28.445658	0.000365	3.648693	1.236211	0.000146
 255	2.5273e+01	10.1147	28.530438	0.000213	2.128404	0.721123	0.000085
 256	2.5372e+01	10.1564	28.679812	0.000375	3.750046	1.270550	0.000150
 257	2.5472e+01	10.1933	28.800926	0.000304	3.040577	1.030176	0.000122
 258	2.5572e+01	10.2366	28.901855	0.000253	2.533815	0.858480	0.000101
 259	2.5671e+01	10.2815	29.022969	0.000304	3.040577	1.030176	0.000122
 260	2.5770e+01	10.3136	29.148120	0.000314	3.141930	1.064515	0.000126
 261	2.5870e+01	10.3409	29.273271	0.000314	3.141930	1.064515	0.000126
 262	2.5970e+01	10.3874	29.370162	0.000243	2.432462	0.824140	0.000097
 263	2.6069e+01	10.4355	29.475128	0.000264	2.635167	0.892819	0.000105
 264	2.6169e+01	10.4788	29.572019	0.000243	2.432462	0.824140	0.000097
 265	2.6268e+01	10.5141	29.709282	0.000345	3.445988	1.167532	0.000138
 266	2.6367e+01	10.5575	29.838470	0.000324	3.243283	1.098854	0.000130
 267	2.6467e+01	10.5815	29.927287	0.000223	2.229757	0.755462	0.000089
 268	2.6567e+01	10.6296	30.048401	0.000304	3.040577	1.030176	0.000122
 269	2.6666e+01	10.6746	30.141255	0.000233	2.331109	0.789801	0.000093
 270	2.6765e+01	10.7099	30.262369	0.000304	3.040577	1.030176	0.000122
 271	2.6865e+01	10.7516	30.387521	0.000314	3.141930	1.064515	0.000126
 272	2.6965e+01	10.7853	30.476338	0.000223	2.229757	0.755462	0.000089
 273	2.7064e+01	10.8398	30.617637	0.000355	3.547340	1.201871	0.000142
 274	2.7163e+01	10.8639	30.726640	0.000274	2.736520	0.927158	0.000110
 275	2.7263e+01	10.9088	30.843717	0.000294	2.939225	0.995836	0.000118
 276	2.7363e+01	10.9569	30.952720	0.000274	2.736520	0.927158	0.000110
 277	2.7462e+01	10.9890	31.041537	0.000223	2.229757	0.755462	0.000089
 278	2.7561e+01	11.0291	31.158614	0.000294	2.939225	0.995836	0.000118
 279	2.7661e+01	11.0660	31.255505	0.000243	2.432462	0.824140	0.000097
 280	2.7761e+01	11.1077	31.380656	0.000314	3.141930	1.064515	0.000126
 281	2.7860e+01	11.1526	31.481584	0.000253	2.533815	0.858480	0.000101
 282	2.7959e+01	11.1911	31.647107	0.000416	4.155456	1.407907	0.000166
 283	2.8059e+01	11.2312	31.707664	0.000152	1.520289	0.515088	0.000061
 284	2.8159e+01	11.2713	31.844927	0.000345	3.445988	1.167532	0.000138
 285	2.8258e+01	11.3098	31.945855	0.000253	2.533815	0.858480	0.000101
 286	2.8358e+01	11.3483	32.062932	0.000294	2.939225	0.995836	0.000118
 287	2.8457e+01	11.3804	32.180009	0.000294	2.939225	0.995836	0.000118
 288	2.8556e+01	11.4302	32.289012	0.000274	2.736520	0.927158	0.000110
 289	2.8656e+01	11.4767	32.393977	0.000264	2.635167	0.892819	0.000105
 290	2.8756e+01	11.5104	32.486831	0.000233	2.331109	0.789801	0.000093
 291	2.8855e+01	11.5521	32.611982	0.000314	3.141930	1.064515	0.000126
 292	2.8954e+01	11.5890	32.692725	0.000203	2.027052	0.686784	0.000081
 293	2.9054e+01	11.6243	32.817876	0.000314	3.141930	1.064515	0.000126
 294	2.9154e+01	11.6708	32.926879	0.000274	2.736520	0.927158	0.000110
 295	2.9253e+01	11.7173	33.076253	0.000375	3.750046	1.270550	0.000150
 296	2.9352e+01	11.7510	33.136810	0.000152	1.520289	0.515088	0.000061
 297	2.9452e+01	11.7911	33.265998	0.000324	3.243283	1.098854	0.000130
 298	2.9552e+01	11.8312	33.370964	0.000264	2.635167	0.892819	0.000105
 299	2.9651e+01	11.8713	33.512264	0.000355	3.547340	1.201871	0.000142
 300	2.9750e+01	11.9098	33.617229	0.000264	2.635167	0.892819	0.000105
 301	2.9850e+01	11.9483	33.706046	0.000223	2.229757	0.755462	0.000089
 302	2.9950e+01	11.9916	33.806975	0.000253	2.533815	0.858480	0.000101
 303	3.0049e+01	12.0334	33.920014	0.000284	2.837872	0.961497	0.000114
 304	3.0148e+01	12.0735	34.004794	0.000213	2.128404	0.721123	0.000085
 305	3.0248e+01	12.1023	34.142057	0.000345	3.445988	1.167532	0.000138
 306	3.0348e+01	12.1424	34.271245	0.000324	3.243283	1.098854	0.000130
 307	3.0447e+01	12.1809	34.380248	0.000274	2.736520	0.927158	0.000110
 308	3.0547e+01	12.2323	34.485213	0.000264	2.635167	0.892819	0.000105
 309	3.0646e+01	12.2740	34.630550	0.000365	3.648693	1.236211	0.000146
 310	3.0745e+01	12.3125	34.687070	0.000142	1.418936	0.480749	0.000057
 311	3.0845e+01	12.3462	34.832407	0.000365	3.648693	1.236211	0.000146
 312	3.0945e+01	12.3815	34.941410	0.000274	2.736520	0.927158	0.000110
 313	3.1044e+01	12.4280	34.993893	0.000132	1.317584	0.446409	0.000053
 314	3.1143e+01	12.4713	35.143267	0.000375	3.750046	1.270550	0.000150
 315	3.1243e+01	12.5146	35.228046	0.000213	2.128404	0.721123	0.000085
 316	3.1343e+01	12.5483	35.337049	0.000274	2.736520	0.927158	0.000110
 317	3.1442e+01	12.5820	35.437978	0.000253	2.533815	0.858480	0.000101
 318	3.1541e+01	12.6221	35.555054	0.000294	2.939225	0.995836	0.000118
 319	3.1641e+01	12.6686	35.708466	0.000385	3.851398	1.304889	0.000154
 320	3.1741e+01	12.7151	35.764986	0.000142	1.418936	0.480749	0.000057
 321	3.1840e+01	12.7504	35.886100	0.000304	3.040577	1.030176	0.000122
 322	3.1939e+01	12.7825	36.015288	0.000324	3.243283	1.098854	0.000130
 323	3.2039e+01	12.8307	36.116216	0.000253	2.533815	0.858480	0.000101
 324	3.2139e+01	12.8724	36.233293	0.000294	2.939225	0.995836	0.000118
 325	3.2238e+01	12.8964	36.374593	0.000355	3.547340	1.201871	0.000142
 326	3.2337e+01	12.9478	36.439187	0.000162	1.621641	0.549427	0.000065
 327	3.2437e+01	12.9815	36.528004	0.000223	2.229757	0.755462	0.000089
 328	3.2536e+01	13.0296	36.632970	0.000264	2.635167	0.892819	0.000105
 329	3.2636e+01	13.0536	36.762158	0.000324	3.243283	1.098854	0.000130
 330	3.2736e+01	13.0970	36.923643	0.000405	4.054103	1.373567	0.000162
 331	3.2835e+01	13.1435	37.032646	0.000274	2.736520	0.927158	0.000110
 332	3.2934e+01	13.1724	37.101277	0.000172	1.722994	0.583766	0.000069
 333	3.3034e+01	13.2237	37.169909	0.000172	1.722994	0.583766	0.000069
 334	3.3133e+01	13.2558	37.295060	0.000314	3.141930	1.064515	0.000126
 335	3.3233e+01	13.3007	37.400025	0.000264	2.635167	0.892819	0.000105
 336	3.3333e+01	13.3408	37.541325	0.000355	3.547340	1.201871	0.000142
 337	3.3432e+01	13.3793	37.658402	0.000294	2.939225	0.995836	0.000118
 338	3.3532e+01	13.4226	37.791628	0.000334	3.344635	1.133193	0.000134
 339	3.3631e+01	13.4707	37.912742	0.000304	3.040577	1.030176	0.000122
 340	3.3730e+01	13.4980	37.973299	0.000152	1.520289	0.515088	0.000061
 341	3.3830e+01	13.5317	38.086339	0.000284	2.837872	0.961497	0.000114
 342	3.3929e+01	13.5830	38.183230	0.000243	2.432462	0.824140	0.000097
 343	3.4029e+01	13.6167	38.288195	0.000264	2.635167	0.892819	0.000105
 344	3.4129e+01	13.6681	38.401235	0.000284	2.837872	0.961497	0.000114
 345	3.4228e+01	13.6953	38.506201	0.000264	2.635167	0.892819	0.000105
 346	3.4328e+01	13.7467	38.611166	0.000264	2.635167	0.892819	0.000105
 347	3.4427e+01	13.7723	38.736317	0.000314	3.141930	1.064515	0.000126
 348	3.4526e+01	13.8157	38.837246	0.000253	2.533815	0.858480	0.000101
 349	3.4626e+01	13.8526	38.950286	0.000284	2.837872	0.961497	0.000114
 350	3.4725e+01	13.8943	39.039103	0.000223	2.229757	0.755462	0.000089
 351	3.4825e+01	13.9247	39.180402	0.000355	3.547340	1.201871	0.000142
 352	3.4925e+01	13.9745	39.281331	0.000253	2.533815	0.858480	0.000101
 353	3.5024e+01	14.0242	39.390333	0.000274	2.736520	0.927158	0.000110
 354	3.5123e+01	14.0579	39.527596	0.000345	3.445988	1.167532	0.000138
 355	3.5223e+01	14.0964	39.596227	0.000172	1.722994	0.583766	0.000069
 356	3.5322e+01	14.1429	39.721379	0.000314	3.141930	1.064515	0.000126
 357	3.5422e+01	14.1766	39.822307	0.000253	2.533815	0.858480	0.000101
 358	3.5522e+01	14.2231	39.947458	0.000314	3.141930	1.064515	0.000126
 359	3.5621e+01	14.2648	40.024164	0.000193	1.925699	0.652445	0.000077
 360	3.5721e+01	14.2921	40.133166	0.000274	2.736520	0.927158	0.000110
 361	3.5820e+01	14.3306	40.258318	0.000314	3.141930	1.064515	0.000126
 362	3.5919e+01	14.3819	40.363283	0.000264	2.635167	0.892819	0.000105
 363	3.6019e+01	14.4221	40.444026	0.000203	2.027052	0.686784	0.000081
 364	3.6118e+01	14.4525	40.553028	0.000274	2.736520	0.927158	0.000110
 365	3.6218e+01	14.5055	40.686254	0.000334	3.344635	1.133193	0.000134
 366	3.6318e+01	14.5295	40.758922	0.000182	1.824346	0.618105	0.000073
 367	3.6417e+01	14.5777	40.924445	0.000416	4.155456	1.407907	0.000166
 368	3.6517e+01	14.6146	40.993076	0.000172	1.722994	0.583766	0.000069
 369	3.6616e+01	14.6531	41.085930	0.000233	2.331109	0.789801	0.000093
 370	3.6715e+01	14.6996	41.186859	0.000253	2.533815	0.858480	0.000101
 371	3.6815e+01	14.7317	41.312010	0.000314	3.141930	1.064515	0.000126
 372	3.6914e+01	14.7766	41.441198	0.000324	3.243283	1.098854	0.000130
 373	3.7014e+01	14.8135	41.521941	0.000203	2.027052	0.686784	0.000081
 374	3.7114e+01	14.8504	41.663241	0.000355	3.547340	1.201871	0.000142
 375	3.7213e+01	14.8937	41.731872	0.000172	1.722994	0.583766	0.000069
 376	3.7313e+01	14.9386	41.844912	0.000284	2.837872	0.961497	0.000114
 377	3.7412e+01	14.9803	41.941803	0.000243	2.432462	0.824140	0.000097
 378	3.7511e+01	15.0076	42.087140	0.000365	3.648693	1.236211	0.000146
 379	3.7611e+01	15.0637	42.200180	0.000284	2.837872	0.961497	0.000114
 380	3.7711e+01	15.0942	42.268811	0.000172	1.722994	0.583766	0.000069
 381	3.7810e+01	15.1263	42.365702	0.000243	2.432462	0.824140	0.000097
 382	3.7910e+01	15.1760	42.486817	0.000304	3.040577	1.030176	0.000122
 383	3.8009e+01	15.2113	42.563522	0.000193	1.925699	0.652445	0.000077
 384	3.8108e+01	15.2546	42.680599	0.000294	2.939225	0.995836	0.000118
 385	3.8208e+01	15.2964	42.813825	0.000334	3.344635	1.133193	0.000134
 386	3.8307e+01	15.3300	42.906679	0.000233	2.331109	0.789801	0.000093
 387	3.8407e+01	15.3814	43.019718	0.000284	2.837872	0.961497	0.000114
 388	3.8507e+01	15.4135	43.080275	0.000152	1.520289	0.515088	0.000061
 389	3.8606e+01	15.4568	43.229649	0.000375	3.750046	1.270550	0.000150
 390	3.8706e+01	15.4953	43.330578	0.000253	2.533815	0.858480	0.000101
 391	3.8805e+01	15.5274	43.403246	0.000182	1.824346	0.618105	0.000073
 392	3.8904e+01	15.5755	43.540509	0.000345	3.445988	1.167532	0.000138
 393	3.9004e+01	15.6124	43.641437	0.000253	2.533815	0.858480	0.000101
 394	3.9103e+01	15.6589	43.762551	0.000304	3.040577	1.030176	0.000122
 395	3.9203e+01	15.6926	43.827146	0.000162	1.621641	0.549427	0.000065
 396	3.9303e+01	15.7263	43.952297	0.000314	3.141930	1.064515	0.000126
 397	3.9402e+01	15.7712	44.085522	0.000334	3.344635	1.133193	0.000134
 398	3.9502e+01	15.8097	44.162228	0.000193	1.925699	0.652445	0.000077
 399	3.9601e+01	15.8450	44.263156	0.000253	2.533815	0.858480	0.000101
 400	3.9700e+01	15.8851	44.384270	0.000304	3.040577	1.030176	0.000122
 401	3.9800e+01	15.9364	44.485199	0.000253	2.533815	0.858480	0.000101
 402	3.9900e+01	15.9717	44.557867	0.000182	1.824346	0.618105	0.000073
 403	3.9999e+01	16.0054	44.662833	0.000264	2.635167	0.892819	0.000105
 404	4.0099e+01	16.0487	44.771835	0.000274	2.736520	0.927158	0.000110
 405	4.0198e+01	16.0921	44.884875	0.000284	2.837872	0.961497	0.000114
 406	4.0297e+01	16.1338	45.005989	0.000304	3.040577	1.030176	0.000122
 407	4.0397e+01	16.1659	45.082695	0.000193	1.925699	0.652445	0.000077
 408	4.0496e+01	16.2060	45.183623	0.000253	2.533815	0.858480	0.000101
 409	4.0596e+01	16.2541	45.292626	0.000274	2.736520	0.927158	0.000110
 410	4.0696e+01	16.2830	45.405666	0.000284	2.837872	0.961497	0.000114
 411	4.0795e+01	16.3247	45.470260	0.000162	1.621641	0.549427	0.000065
 412	4.0895e+01	16.3664	45.623671	0.000385	3.851398	1.304889	0.000154
 413	4.0994e+01	16.4049	45.700377	0.000193	1.925699	0.652445	0.000077
 414	4.1093e+01	16.4514	45.797268	0.000243	2.432462	0.824140	0.000097
 415	4.1193e+01	16.4867	45.886085	0.000223	2.229757	0.755462	0.000089
 416	4.1292e+01	16.5332	45.987013	0.000253	2.533815	0.858480	0.000101
 417	4.1392e+01	16.5637	46.112164	0.000314	3.141930	1.064515	0.000126
 418	4.1492e+01	16.6118	46.205019	0.000233	2.331109	0.789801	0.000093
 419	4.1591e+01	16.6487	46.366504	0.000405	4.054103	1.373567	0.000162
 420	4.1691e+01	16.6808	46.406875	0.000101	1.013526	0.343392	0.000041
 421	4.1790e+01	16.7273	46.503767	0.000243	2.432462	0.824140	0.000097
 422	4.1889e+01	16.7706	46.616806	0.000284	2.837872	0.961497	0.000114
 423	4.1989e+01	16.8108	46.721772	0.000264	2.635167	0.892819	0.000105
 424	4.2089e+01	16.8364	46.859035	0.000345	3.445988	1.167532	0.000138
 425	4.2188e+01	16.8862	46.927666	0.000172	1.722994	0.583766	0.000069
 426	4.2288e+01	16.9263	47.036668	0.000274	2.736520	0.927158	0.000110
 427	4.2387e+01	16.9567	47.101263	0.000162	1.621641	0.549427	0.000065
 428	4.2486e+01	17.0065	47.218340	0.000294	2.939225	0.995836	0.000118
 429	4.2586e+01	17.0466	47.335417	0.000294	2.939225	0.995836	0.000118
 430	4.2685e+01	17.0835	47.428271	0.000233	2.331109	0.789801	0.000093
 431	4.2785e+01	17.1188	47.496902	0.000172	1.722994	0.583766	0.000069
 432	4.2885e+01	17.1653	47.634165	0.000345	3.445988	1.167532	0.000138
 433	4.2984e+01	17.2054	47.718944	0.000213	2.128404	0.721123	0.000085
 434	4.3084e+01	17.2407	47.831984	0.000284	2.837872	0.961497	0.000114
 435	4.3183e+01	17.2872	47.932913	0.000253	2.533815	0.858480	0.000101
 436	4.3282e+01	17.3321	48.021730	0.000223	2.229757	0.755462	0.000089
 437	4.3382e+01	17.3674	48.110547	0.000223	2.229757	0.755462	0.000089
 438	4.3481e+01	17.4059	48.243772	0.000334	3.344635	1.133193	0.000134
 439	4.3581e+01	17.4428	48.352775	0.000274	2.736520	0.927158	0.000110
 440	4.3681e+01	17.4861	48.441592	0.000223	2.229757	0.755462	0.000089
 441	4.3780e+01	17.5166	48.510223	0.000172	1.722994	0.583766	0.000069
 442	4.3880e+01	17.5663	48.663634	0.000385	3.851398	1.304889	0.000154
 443	4.3979e+01	17.6049	48.768600	0.000264	2.635167	0.892819	0.000105
 444	4.4078e+01	17.6562	48.849342	0.000203	2.027052	0.686784	0.000081
 445	4.4178e+01	17.6883	48.966419	0.000294	2.939225	0.995836	0.000118
 446	4.4278e+01	17.7268	49.022939	0.000142	1.418936	0.480749	0.000057
 447	4.4377e+01	17.7669	49.156165	0.000334	3.344635	1.133193	0.000134
 448	4.4477e+01	17.8070	49.269205	0.000284	2.837872	0.961497	0.000114
 449	4.4576e+01	17.8471	49.353984	0.000213	2.128404	0.721123	0.000085
 450	4.4675e+01	17.8792	49.462987	0.000274	2.736520	0.927158	0.000110
 451	4.4775e+01	17.9257	49.576027	0.000284	2.837872	0.961497	0.000114
 452	4.4874e+01	17.9610	49.676955	0.000253	2.533815	0.858480	0.000101
 453	4.4974e+01	18.0043	49.757698	0.000203	2.027052	0.686784	0.000081
 454	4.5074e+01	18.0476	49.898998	0.000355	3.547340	1.201871	0.000142
 455	4.5173e+01	18.0813	49.983778	0.000213	2.128404	0.721123	0.000085
 456	4.5273e+01	18.1230	50.088743	0.000264	2.635167	0.892819	0.000105
 457	4.5372e+01	18.1711	50.173523	0.000213	2.128404	0.721123	0.000085
 458	4.5471e+01	18.1888	50.286563	0.000284	2.837872	0.961497	0.000114
 459	4.5571e+01	18.2369	50.411714	0.000314	3.141930	1.064515	0.000126
 460	4.5670e+01	18.2610	50.480345	0.000172	1.722994	0.583766	0.000069
 461	4.5770e+01	18.3187	50.609534	0.000324	3.243283	1.098854	0.000130
 462	4.5870e+01	18.3588	50.698351	0.000223	2.229757	0.755462	0.000089
 463	4.5969e+01	18.4038	50.839650	0.000355	3.547340	1.201871	0.000142
 464	4.6069e+01	18.4342	50.924430	0.000213	2.128404	0.721123	0.000085
 465	4.6168e+01	18.4727	51.025359	0.000253	2.533815	0.858480	0.000101
 466	4.6267e+01	18.5209	51.142436	0.000294	2.939225	0.995836	0.000118
 467	4.6367e+01	18.5562	51.251438	0.000274	2.736520	0.927158	0.000110
 468	4.6467e+01	18.5931	51.311995	0.000152	1.520289	0.515088	0.000061
 469	4.6566e+01	18.6396	51.429072	0.000294	2.939225	0.995836	0.000118
 470	4.6666e+01	18.6877	51.566335	0.000345	3.445988	1.167532	0.000138
 471	4.6765e+01	18.7214	51.626892	0.000152	1.520289	0.515088	0.000061
 472	4.6864e+01	18.7535	51.764154	0.000345	3.445988	1.167532	0.000138
 473	4.6964e+01	18.7904	51.873157	0.000274	2.736520	0.927158	0.000110
 474	4.7063e+01	18.8401	52.006383	0.000334	3.344635	1.133193	0.000134
 475	4.7163e+01	18.8786	52.099237	0.000233	2.331109	0.789801	0.000093
 476	4.7263e+01	18.9219	52.232462	0.000334	3.344635	1.133193	0.000134
 477	4.7362e+01	18.9572	52.288982	0.000142	1.418936	0.480749	0.000057
 478	4.7462e+01	18.9941	52.418170	0.000324	3.243283	1.098854	0.000130
 479	4.7561e+01	19.0471	52.519099	0.000253	2.533815	0.858480	0.000101
 480	4.7660e+01	19.0840	52.628101	0.000274	2.736520	0.927158	0.000110
 481	4.7760e+01	19.1112	52.733067	0.000264	2.635167	0.892819	0.000105
 482	4.7859e+01	19.1545	52.878404	0.000365	3.648693	1.236211	0.000146
 483	4.7959e+01	19.1914	53.003555	0.000314	3.141930	1.064515	0.000126
 484	4.8059e+01	19.2364	53.076224	0.000182	1.824346	0.618105	0.000073
 485	4.8158e+01	19.2781	53.177152	0.000253	2.533815	0.858480	0.000101
 486	4.8258e+01	19.3118	53.310377	0.000334	3.344635	1.133193	0.000134
 487	4.8357e+01	19.3519	53.443603	0.000334	3.344635	1.133193	0.000134
 488	4.8456e+01	19.4032	53.528383	0.000213	2.128404	0.721123	0.000085
 489	4.8556e+01	19.4369	53.665645	0.000345	3.445988	1.167532	0.000138
 490	4.8656e+01	19.4674	53.786759	0.000304	3.040577	1.030176	0.000122
 491	4.8755e+01	19.5155	53.895762	0.000274	2.736520	0.927158	0.000110
 492	4.8855e+01	19.5604	53.968431	0.000182	1.824346	0.618105	0.000073
 493	4.8954e+01	19.6005	54.081470	0.000284	2.837872	0.961497	0.000114
 494	4.9053e+01	19.6310	54.234882	0.000385	3.851398	1.304889	0.000154
 495	4.9153e+01	19.6775	54.368107	0.000334	3.344635	1.133193	0.000134
 496	4.9252e+01	19.7160	54.448850	0.000203	2.027052	0.686784	0.000081
 497	4.9352e+01	19.7545	54.557852	0.000274	2.736520	0.927158	0.000110
 498	4.9452e+01	19.8010	54.691078	0.000334	3.344635	1.133193	0.000134
 499	4.9551e+01	19.8315	54.836415	0.000365	3.648693	1.236211	0.000146
 500	4.9651e+01	19.8700	54.880823	0.000111	1.114878	0.377731	0.000045
 501	4.9750e+01	19.9149	55.050383	0.000426	4.256808	1.442246	0.000170
 502	4.9849e+01	19.9551	55.155348	0.000264	2.635167	0.892819	0.000105
 503	4.9949e+01	19.9952	55.256277	0.000253	2.533815	0.858480	0.000101
 504	5.0048e+01	19.9615	55.207831	0.000122	1.216231	0.412070	-0.000049
 505	5.0148e+01	19.9037	55.179571	0.000071	0.709468	0.240374	-0.000028
 506	5.0248e+01	19.8797	55.143237	0.000091	0.912173	0.309053	-0.000037
 507	5.0347e+01	19.8347	55.127089	0.000041	0.405410	0.137357	-0.000016
 508	5.0447e+01	19.7898	55.074606	0.000132	1.317584	0.446409	-0.000053
 509	5.0546e+01	19.7641	55.010012	0.000162	1.621641	0.549427	-0.000065
 510	5.0645e+01	19.7080	54.977714	0.000081	0.810821	0.274713	-0.000032
 511	5.0745e+01	19.6695	54.925232	0.000132	1.317584	0.446409	-0.000053
 512	5.0844e+01	19.6310	54.860638	0.000162	1.621641	0.549427	-0.000065
 513	5.0944e+01	19.6021	54.836415	0.000061	0.608115	0.206035	-0.000024
 514	5.1044e+01	19.5476	54.751635	0.000213	2.128404	0.721123	-0.000085
 515	5.1143e+01	19.5155	54.775858	-0.000061	-0.608115	-0.206035	0.000024
 516	5.1242e+01	19.4754	54.678966	0.000243	2.432462	0.824140	-0.000097
 517	5.1342e+01	19.4401	54.638595	0.000101	1.013526	0.343392	-0.000041
 518	5.1441e+01	19.3936	54.574001	0.000162	1.621641	0.549427	-0.000065
 519	5.1541e+01	19.3631	54.569964	0.000010	0.101353	0.034339	-0.000004
 520	5.1641e+01	19.3246	54.501332	0.000172	1.722994	0.583766	-0.000069
 521	5.1740e+01	19.2797	54.440775	0.000152	1.520289	0.515088	-0.000061
 522	5.1840e+01	19.2348	54.360033	0.000203	2.027052	0.686784	-0.000081
 523	5.1939e+01	19.1930	54.343884	0.000041	0.405410	0.137357	-0.000016
 524	5.2038e+01	19.1577	54.283327	0.000152	1.520289	0.515088	-0.000061
 525	5.2138e+01	19.1160	54.238919	0.000111	1.114878	0.377731	-0.000045
 526	5.2237e+01	19.0840	54.174324	0.000162	1.621641	0.549427	-0.000065
 527	5.2337e+01	19.0374	54.121842	0.000132	1.317584	0.446409	-0.000053
 528	5.2437e+01	18.9973	54.045136	0.000193	1.925699	0.652445	-0.000077
 529	5.2536e+01	18.9508	53.988616	0.000142	1.418936	0.480749	-0.000057
 530	5.2636e+01	18.9251	53.940171	0.000122	1.216231	0.412070	-0.000049
 531	5.2735e+01	18.8738	53.911911	0.000071	0.709468	0.240374	-0.000028
 532	5.2834e+01	18.8385	53.823094	0.000223	2.229757	0.755462	-0.000089
 533	5.2934e+01	18.7952	53.794834	0.000071	0.709468	0.240374	-0.000028
 534	5.3033e+01	18.7615	53.734277	0.000152	1.520289	0.515088	-0.000061
 535	5.3133e+01	18.7214	53.633348	0.000253	2.533815	0.858480	-0.000101
 536	5.3233e+01	18.6749	53.580866	0.000132	1.317584	0.446409	-0.000053
 537	5.3332e+01	18.6364	53.560680	0.000051	0.506763	0.171696	-0.000020
 538	5.3431e+01	18.6027	53.492049	0.000172	1.722994	0.583766	-0.000069
 539	5.3531e+01	18.5658	53.403232	0.000223	2.229757	0.755462	-0.000089
 540	5.3630e+01	18.5145	53.374972	0.000071	0.709468	0.240374	-0.000028
 541	5.3730e+01	18.4759	53.294229	0.000203	2.027052	0.686784	-0.000081
 542	5.3830e+01	18.4487	53.229635	0.000162	1.621641	0.549427	-0.000065
 543	5.3929e+01	18.4038	53.140818	0.000223	2.229757	0.755462	-0.000089
 544	5.4029e+01	18.3620	53.092372	0.000122	1.216231	0.412070	-0.000049
 545	5.4128e+01	18.3252	53.047964	0.000111	1.114878	0.377731	-0.000045
 546	5.4227e+01	18.2770	52.951072	0.000243	2.432462	0.824140	-0.000097
 547	5.4327e+01	18.2337	52.906664	0.000111	1.114878	0.377731	-0.000045
 548	5.4426e+01	18.2064	52.838033	0.000172	1.722994	0.583766	-0.000069
 549	5.4526e+01	18.1631	52.777476	0.000152	1.520289	0.515088	-0.000061
 550	5.4626e+01	18.1182	52.724993	0.000132	1.317584	0.446409	-0.000053
 551	5.4725e+01	18.0893	52.632139	0.000233	2.331109	0.789801	-0.000093
 552	5.4825e+01	18.0428	52.567544	0.000162	1.621641	0.549427	-0.000065
 553	5.4924e+01	18.0011	52.539284	0.000071	0.709468	0.240374	-0.000028
 554	5.5023e+01	17.9706	52.454505	0.000213	2.128404	0.721123	-0.000085
 555	5.5123e+01	17.9273	52.402022	0.000132	1.317584	0.446409	-0.000053
 556	5.5222e+01	17.8856	52.305131	0.000243	2.432462	0.824140	-0.000097
 557	5.5322e+01	17.8391	52.268796	0.000091	0.912173	0.309053	-0.000037
 558	5.5422e+01	17.7974	52.188054	0.000203	2.027052	0.686784	-0.000081
 559	5.5521e+01	17.7685	52.139608	0.000122	1.216231	0.412070	-0.000049
 560	5.5620e+01	17.7300	52.062902	0.000193	1.925699	0.652445	-0.000077
 561	5.5720e+01	17.6883	51.966011	0.000243	2.432462	0.824140	-0.000097
 562	5.5819e+01	17.6434	51.889306	0.000193	1.925699	0.652445	-0.000077
 563	5.5919e+01	17.6065	51.824711	0.000162	1.621641	0.549427	-0.000065
 564	5.6019e+01	17.5615	51.731857	0.000233	2.331109	0.789801	-0.000093
 565	5.6118e+01	17.5311	51.707635	0.000061	0.608115	0.206035	-0.000024
 566	5.6218e+01	17.4813	51.598632	0.000274	2.736520	0.927158	-0.000110
 567	5.6317e+01	17.4524	51.534038	0.000162	1.621641	0.549427	-0.000065
 568	5.6416e+01	17.4107	51.501741	0.000081	0.810821	0.274713	-0.000032
 569	5.6516e+01	17.3690	51.396775	0.000264	2.635167	0.892819	-0.000105
 570	5.6615e+01	17.3241	51.332181	0.000162	1.621641	0.549427	-0.000065
 571	5.6715e+01	17.2856	51.259512	0.000182	1.824346	0.618105	-0.000073
 572	5.6815e+01	17.2439	51.178770	0.000203	2.027052	0.686784	-0.000081
 573	5.6914e+01	17.2054	51.093990	0.000213	2.128404	0.721123	-0.000085
 574	5.7014e+01	17.1717	51.017284	0.000193	1.925699	0.652445	-0.000077
 575	5.7113e+01	17.1204	50.940579	0.000193	1.925699	0.652445	-0.000077
 576	5.7212e+01	17.0915	50.884059	0.000142	1.418936	0.480749	-0.000057
 577	5.7312e+01	17.0418	50.815428	0.000172	1.722994	0.583766	-0.000069
 578	5.7411e+01	17.0033	50.754870	0.000152	1.520289	0.515088	-0.000061
 579	5.7511e+01	16.9567	50.625682	0.000324	3.243283	1.098854	-0.000130
 580	5.7611e+01	16.9247	50.565125	0.000152	1.520289	0.515088	-0.000061
 581	5.7710e+01	16.8942	50.480345	0.000213	2.128404	0.721123	-0.000085
 582	5.7809e+01	16.8477	50.444011	0.000091	0.912173	0.309053	-0.000037
 583	5.7909e+01	16.8075	50.375380	0.000172	1.722994	0.583766	-0.000069
 584	5.8008e+01	16.7658	50.270414	0.000264	2.635167	0.892819	-0.000105
 585	5.8108e+01	16.7193	50.153337	0.000294	2.939225	0.995836	-0.000118
 586	5.8208e+01	16.6888	50.084706	0.000172	1.722994	0.583766	-0.000069
 587	5.8307e+01	16.6487	50.024149	0.000152	1.520289	0.515088	-0.000061
 588	5.8407e+01	16.6118	49.975703	0.000122	1.216231	0.412070	-0.000049
 589	5.8506e+01	16.5605	49.858626	0.000294	2.939225	0.995836	-0.000118
 590	5.8605e+01	16.5204	49.777884	0.000203	2.027052	0.686784	-0.000081
 591	5.8705e+01	16.4947	49.717327	0.000152	1.520289	0.515088	-0.000061
 592	5.8804e+01	16.4386	49.648695	0.000172	1.722994	0.583766	-0.000069
 593	5.8904e+01	16.4097	49.503358	0.000365	3.648693	1.236211	-0.000146
 594	5.9004e+01	16.3696	49.467024	0.000091	0.912173	0.309053	-0.000037
 595	5.9103e+01	16.3295	49.358022	0.000274	2.736520	0.927158	-0.000110
 596	5.9203e+01	16.2733	49.277279	0.000203	2.027052	0.686784	-0.000081
 597	5.9302e+01	16.2429	49.164239	0.000284	2.837872	0.961497	-0.000114
 598	5.9401e+01	16.2140	49.087533	0.000193	1.925699	0.652445	-0.000077
 599	5.9501e+01	16.1771	49.079459	0.000020	0.202705	0.068678	-0.000008
 600	5.9600e+01	16.1241	48.926048	0.000385	3.851398	1.304889	-0.000154
 601	5.9700e+01	16.0840	48.869528	0.000142	1.418936	0.480749	-0.000057
 602	5.9800e+01	16.0568	48.817045	0.000132	1.317584	0.446409	-0.000053
 603	5.9899e+01	16.0135	48.683820	0.000334	3.344635	1.133193	-0.000134
 604	5.9998e+01	15.9685	48.595003	0.000223	2.229757	0.755462	-0.000089
 605	6.0098e+01	15.9268	48.481963	0.000284	2.837872	0.961497	-0.000114
 606	6.0197e+01	15.8915	48.417369	0.000162	1.621641	0.549427	-0.000065
 607	6.0297e+01	15.8466	48.352775	0.000162	1.621641	0.549427	-0.000065
 608	6.0397e+01	15.8049	48.255883	0.000243	2.432462	0.824140	-0.000097
 609	6.0496e+01	15.7776	48.175141	0.000203	2.027052	0.686784	-0.000081
 610	6.0596e+01	15.7311	48.114584	0.000152	1.520289	0.515088	-0.000061
 611	6.0695e+01	15.6942	47.997507	0.000294	2.939225	0.995836	-0.000118
 612	6.0794e+01	15.6493	47.953098	0.000111	1.114878	0.377731	-0.000045
 613	6.0894e+01	15.6140	47.831984	0.000304	3.040577	1.030176	-0.000122
 614	6.0993e+01	15.5803	47.747204	0.000213	2.128404	0.721123	-0.000085
 615	6.1093e+01	15.5386	47.658387	0.000223	2.229757	0.755462	-0.000089
 616	6.1193e+01	15.4873	47.581682	0.000193	1.925699	0.652445	-0.000077
 617	6.1292e+01	15.4600	47.500939	0.000203	2.027052	0.686784	-0.000081
 618	6.1392e+01	15.4022	47.408085	0.000233	2.331109	0.789801	-0.000093
 619	6.1491e+01	15.3702	47.291008	0.000294	2.939225	0.995836	-0.000118
 620	6.1590e+01	15.3349	47.226414	0.000162	1.621641	0.549427	-0.000065
 621	6.1690e+01	15.2915	47.117411	0.000274	2.736520	0.927158	-0.000110
 622	6.1789e+01	15.2563	47.020520	0.000243	2.432462	0.824140	-0.000097
 623	6.1889e+01	15.2129	46.972074	0.000122	1.216231	0.412070	-0.000049
 624	6.1989e+01	15.1760	46.871146	0.000253	2.533815	0.858480	-0.000101
 625	6.2088e+01	15.1407	46.794440	0.000193	1.925699	0.652445	-0.000077
 626	6.2188e+01	15.0862	46.697549	0.000243	2.432462	0.824140	-0.000097
 627	6.2287e+01	15.0557	46.620844	0.000193	1.925699	0.652445	-0.000077
 628	6.2386e+01	15.0156	46.503767	0.000294	2.939225	0.995836	-0.000118
 629	6.2486e+01	14.9643	46.406875	0.000243	2.432462	0.824140	-0.000097
 630	6.2586e+01	14.9274	46.354393	0.000132	1.317584	0.446409	-0.000053
 631	6.2685e+01	14.8985	46.245390	0.000274	2.736520	0.927158	-0.000110
 632	6.2785e+01	14.8568	46.164647	0.000203	2.027052	0.686784	-0.000081
 633	6.2884e+01	14.8151	46.039496	0.000314	3.141930	1.064515	-0.000126
 634	6.2983e+01	14.7798	45.974902	0.000162	1.621641	0.549427	-0.000065
 635	6.3083e+01	14.7301	45.849751	0.000314	3.141930	1.064515	-0.000126
 636	6.3182e+01	14.6932	45.805342	0.000111	1.114878	0.377731	-0.000045
 637	6.3282e+01	14.6595	45.688265	0.000294	2.939225	0.995836	-0.000118
 638	6.3382e+01	14.6097	45.579262	0.000274	2.736520	0.927158	-0.000110
 639	6.3481e+01	14.5712	45.514668	0.000162	1.621641	0.549427	-0.000065
 640	6.3581e+01	14.5408	45.425851	0.000223	2.229757	0.755462	-0.000089
 641	6.3680e+01	14.4958	45.316849	0.000274	2.736520	0.927158	-0.000110
 642	6.3779e+01	14.4557	45.199772	0.000294	2.939225	0.995836	-0.000118
 643	6.3879e+01	14.4156	45.143252	0.000142	1.418936	0.480749	-0.000057
 644	6.3978e+01	14.3803	45.046361	0.000243	2.432462	0.824140	-0.000097
 645	6.4078e+01	14.3354	44.957544	0.000223	2.229757	0.755462	-0.000089
 646	6.4177e+01	14.2969	44.828355	0.000324	3.243283	1.098854	-0.000130
 647	6.4277e+01	14.2536	44.792021	0.000091	0.912173	0.309053	-0.000037
 648	6.4376e+01	14.2119	44.678981	0.000284	2.837872	0.961497	-0.000114
 649	6.4476e+01	14.1750	44.602276	0.000193	1.925699	0.652445	-0.000077
 650	6.4576e+01	14.1381	44.465013	0.000345	3.445988	1.167532	-0.000138
 651	6.4675e+01	14.1028	44.392345	0.000182	1.824346	0.618105	-0.000073
 652	6.4775e+01	14.0595	44.307565	0.000213	2.128404	0.721123	-0.000085
 653	6.4874e+01	14.0274	44.198562	0.000274	2.736520	0.927158	-0.000110
 654	6.4974e+01	13.9825	44.133968	0.000162	1.621641	0.549427	-0.000065
 655	6.5073e+01	13.9536	43.984594	0.000375	3.750046	1.270550	-0.000150
 656	6.5172e+01	13.8943	43.952297	0.000081	0.810821	0.274713	-0.000032
 657	6.5272e+01	13.8558	43.839257	0.000284	2.837872	0.961497	-0.000114
 658	6.5371e+01	13.8189	43.750440	0.000223	2.229757	0.755462	-0.000089
 659	6.5471e+01	13.7675	43.645474	0.000264	2.635167	0.892819	-0.000105
 660	6.5570e+01	13.7386	43.564732	0.000203	2.027052	0.686784	-0.000081
 661	6.5670e+01	13.6985	43.455729	0.000274	2.736520	0.927158	-0.000110
 662	6.5769e+01	13.6536	43.338652	0.000294	2.939225	0.995836	-0.000118
 663	6.5869e+01	13.6135	43.286169	0.000132	1.317584	0.446409	-0.000053
 664	6.5969e+01	13.5846	43.177167	0.000274	2.736520	0.927158	-0.000110
 665	6.6068e+01	13.5365	43.100461	0.000193	1.925699	0.652445	-0.000077
 666	6.6168e+01	13.4948	42.999533	0.000253	2.533815	0.858480	-0.000101
 667	6.6267e+01	13.4579	42.922827	0.000193	1.925699	0.652445	-0.000077
 668	6.6367e+01	13.4258	42.821899	0.000253	2.533815	0.858480	-0.000101
 669	6.6466e+01	13.3793	42.704822	0.000294	2.939225	0.995836	-0.000118
 670	6.6566e+01	13.3408	42.607931	0.000243	2.432462	0.824140	-0.000097
 671	6.6665e+01	13.3055	42.502965	0.000264	2.635167	0.892819	-0.000105
 672	6.6764e+01	13.2670	42.434334	0.000172	1.722994	0.583766	-0.000069
 673	6.6864e+01	13.2253	42.333405	0.000253	2.533815	0.858480	-0.000101
 674	6.6963e+01	13.1772	42.232477	0.000253	2.533815	0.858480	-0.000101
 675	6.7063e+01	13.1547	42.131549	0.000253	2.533815	0.858480	-0.000101
 676	6.7162e+01	13.0970	42.054843	0.000193	1.925699	0.652445	-0.000077
 677	6.7262e+01	13.0601	41.949877	0.000264	2.635167	0.892819	-0.000105
 678	6.7362e+01	13.0248	41.857023	0.000233	2.331109	0.789801	-0.000093
 679	6.7461e+01	12.9815	41.780318	0.000193	1.925699	0.652445	-0.000077
 680	6.7561e+01	12.9462	41.683426	0.000243	2.432462	0.824140	-0.000097
 681	6.7660e+01	12.9109	41.606721	0.000193	1.925699	0.652445	-0.000077
 682	6.7760e+01	12.8692	41.513867	0.000233	2.331109	0.789801	-0.000093
 683	6.7859e+01	12.8258	41.404864	0.000274	2.736520	0.927158	-0.000110
 684	6.7959e+01	12.7954	41.303936	0.000253	2.533815	0.858480	-0.000101
 685	6.8058e+01	12.7472	41.198970	0.000264	2.635167	0.892819	-0.000105
 686	6.8157e+01	12.7151	41.118227	0.000203	2.027052	0.686784	-0.000081
 687	6.8257e+01	12.6606	40.976928	0.000355	3.547340	1.201871	-0.000142
 688	6.8356e+01	12.6398	40.936556	0.000101	1.013526	0.343392	-0.000041
 689	6.8456e+01	12.5836	40.871962	0.000162	1.621641	0.549427	-0.000065
 690	6.8555e+01	12.5531	40.734700	0.000345	3.445988	1.167532	-0.000138
 691	6.8655e+01	12.5082	40.633771	0.000253	2.533815	0.858480	-0.000101
 692	6.8754e+01	12.4681	40.548991	0.000213	2.128404	0.721123	-0.000085
 693	6.8854e+01	12.4264	40.464212	0.000213	2.128404	0.721123	-0.000085
 694	6.8954e+01	12.3911	40.347135	0.000294	2.939225	0.995836	-0.000118
 695	6.9053e+01	12.3446	40.234095	0.000284	2.837872	0.961497	-0.000114
 696	6.9153e+01	12.3093	40.157389	0.000193	1.925699	0.652445	-0.000077
 697	6.9252e+01	12.2563	40.044349	0.000284	2.837872	0.961497	-0.000114
 698	6.9352e+01	12.2243	39.967644	0.000193	1.925699	0.652445	-0.000077
 699	6.9451e+01	12.1809	39.838455	0.000324	3.243283	1.098854	-0.000130
 700	6.9550e+01	12.1505	39.741564	0.000243	2.432462	0.824140	-0.000097
 701	6.9650e+01	12.1071	39.652747	0.000223	2.229757	0.755462	-0.000089
 702	6.9749e+01	12.0702	39.531633	0.000304	3.040577	1.030176	-0.000122
 703	6.9849e+01	12.0173	39.467039	0.000162	1.621641	0.549427	-0.000065
 704	6.9948e+01	11.9948	39.329776	0.000345	3.445988	1.167532	-0.000138
 705	7.0048e+01	11.9403	39.244997	0.000213	2.128404	0.721123	-0.000085
 706	7.0147e+01	11.9018	39.160217	0.000213	2.128404	0.721123	-0.000085
 707	7.0247e+01	11.8745	39.079474	0.000203	2.027052	0.686784	-0.000081
 708	7.0347e+01	11.8216	38.966434	0.000284	2.837872	0.961497	-0.000114
 709	7.0446e+01	11.7943	38.869543	0.000243	2.432462	0.824140	-0.000097
 710	7.0546e+01	11.7478	38.764577	0.000264	2.635167	0.892819	-0.000105
 711	7.0645e+01	11.7077	38.663649	0.000253	2.533815	0.858480	-0.000101
 712	7.0745e+01	11.6740	38.534461	0.000324	3.243283	1.098854	-0.000130
 713	7.0844e+01	11.6227	38.481978	0.000132	1.317584	0.446409	-0.000053
 714	7.0944e+01	11.5842	38.344715	0.000345	3.445988	1.167532	-0.000138
 715	7.1043e+01	11.5585	38.235713	0.000274	2.736520	0.927158	-0.000110
 716	7.1142e+01	11.5007	38.122673	0.000284	2.837872	0.961497	-0.000114
 717	7.1242e+01	11.4671	38.045967	0.000193	1.925699	0.652445	-0.000077
 718	7.1341e+01	11.4302	37.953113	0.000233	2.331109	0.789801	-0.000093
 719	7.1441e+01	11.3901	37.844110	0.000274	2.736520	0.927158	-0.000110
 720	7.1540e+01	11.3516	37.751256	0.000233	2.331109	0.789801	-0.000093
 721	7.1640e+01	11.3147	37.658402	0.000233	2.331109	0.789801	-0.000093
 722	7.1740e+01	11.2745	37.569585	0.000223	2.229757	0.755462	-0.000089
 723	7.1839e+01	11.2312	37.448471	0.000304	3.040577	1.030176	-0.000122
 724	7.1939e+01	11.1927	37.343506	0.000264	2.635167	0.892819	-0.000105
 725	7.2038e+01	11.1590	37.230466	0.000284	2.837872	0.961497	-0.000114
 726	7.2138e+01	11.1125	37.129537	0.000253	2.533815	0.858480	-0.000101
 727	7.2237e+01	11.0692	37.056869	0.000182	1.824346	0.618105	-0.000073
 728	7.2337e+01	11.0323	36.935755	0.000304	3.040577	1.030176	-0.000122
 729	7.2436e+01	10.9970	36.838864	0.000243	2.432462	0.824140	-0.000097
 730	7.2535e+01	10.9425	36.701601	0.000345	3.445988	1.167532	-0.000138
 731	7.2635e+01	10.9104	36.632970	0.000172	1.722994	0.583766	-0.000069
 732	7.2734e+01	10.8671	36.519930	0.000284	2.837872	0.961497	-0.000114
 733	7.2834e+01	10.8318	36.410927	0.000274	2.736520	0.927158	-0.000110
 734	7.2933e+01	10.7853	36.261553	0.000375	3.750046	1.270550	-0.000150
 735	7.3033e+01	10.7500	36.176773	0.000213	2.128404	0.721123	-0.000085
 736	7.3132e+01	10.7179	36.096031	0.000203	2.027052	0.686784	-0.000081
 737	7.3232e+01	10.6826	35.978954	0.000294	2.939225	0.995836	-0.000118
 738	7.3332e+01	10.6377	35.873988	0.000264	2.635167	0.892819	-0.000105
 739	7.3431e+01	10.5911	35.732688	0.000355	3.547340	1.201871	-0.000142
 740	7.3531e+01	10.5478	35.664057	0.000172	1.722994	0.583766	-0.000069
 741	7.3630e+01	10.5141	35.567166	0.000243	2.432462	0.824140	-0.000097
 742	7.3730e+01	10.4708	35.421829	0.000365	3.648693	1.236211	-0.000146
 743	7.3829e+01	10.4275	35.320901	0.000253	2.533815	0.858480	-0.000101
 744	7.3928e+01	10.3938	35.248232	0.000182	1.824346	0.618105	-0.000073
 745	7.4028e+01	10.3441	35.102895	0.000365	3.648693	1.236211	-0.000146
 746	7.4127e+01	10.3136	35.026190	0.000193	1.925699	0.652445	-0.000077
 747	7.4227e+01	10.2655	34.880853	0.000365	3.648693	1.236211	-0.000146
 748	7.4326e+01	10.2350	34.796073	0.000213	2.128404	0.721123	-0.000085
 749	7.4426e+01	10.2013	34.674959	0.000304	3.040577	1.030176	-0.000122
 750	7.4525e+01	10.1532	34.549808	0.000314	3.141930	1.064515	-0.000126
 751	7.4625e+01	10.1179	34.444842	0.000264	2.635167	0.892819	-0.000105
 752	7.4725e+01	10.0762	34.319691	0.000314	3.141930	1.064515	-0.000126
 753	7.4824e+01	10.0232	34.218763	0.000253	2.533815	0.858480	-0.000101
 754	7.4924e+01	9.9912	34.125908	0.000233	2.331109	0.789801	-0.000093
 755	7.5023e+01	9.9575	34.004794	0.000304	3.040577	1.030176	-0.000122
 756	7.5123e+01	9.9238	33.932126	0.000182	1.824346	0.618105	-0.000073
 757	7.5222e+01	9.8708	33.802938	0.000324	3.243283	1.098854	-0.000130
 758	7.5322e+01	9.8388	33.693935	0.000274	2.736520	0.927158	-0.000110
 759	7.5421e+01	9.8019	33.601081	0.000233	2.331109	0.789801	-0.000093
 760	7.5520e+01	9.7553	33.455744	0.000365	3.648693	1.236211	-0.000146
 761	7.5620e+01	9.7088	33.354815	0.000253	2.533815	0.858480	-0.000101
 762	7.5719e+01	9.6703	33.229664	0.000314	3.141930	1.064515	-0.000126
 763	7.5819e+01	9.6350	33.136810	0.000233	2.331109	0.789801	-0.000093
 764	7.5918e+01	9.6013	33.023770	0.000284	2.837872	0.961497	-0.000114
 765	7.6018e+01	9.5580	32.902656	0.000304	3.040577	1.030176	-0.000122
 766	7.6118e+01	9.5163	32.769431	0.000334	3.344635	1.133193	-0.000134
 767	7.6217e+01	9.4762	32.668502	0.000253	2.533815	0.858480	-0.000101
 768	7.6317e+01	9.4361	32.567574	0.000253	2.533815	0.858480	-0.000101
 769	7.6416e+01	9.3992	32.446460	0.000304	3.040577	1.030176	-0.000122
 770	7.6516e+01	9.3623	32.341494	0.000264	2.635167	0.892819	-0.000105
 771	7.6615e+01	9.3254	32.224417	0.000294	2.939225	0.995836	-0.000118
 772	7.6715e+01	9.2821	32.119452	0.000264	2.635167	0.892819	-0.000105
 773	7.6814e+01	9.2404	31.994301	0.000314	3.141930	1.064515	-0.000126
 774	7.6913e+01	9.1971	31.877224	0.000294	2.939225	0.995836	-0.000118
 775	7.7013e+01	9.1650	31.743998	0.000334	3.344635	1.133193	-0.000134
 776	7.7112e+01	9.1297	31.659218	0.000213	2.128404	0.721123	-0.000085
 777	7.7212e+01	9.0832	31.521956	0.000345	3.445988	1.167532	-0.000138
 778	7.7311e+01	9.0382	31.421027	0.000253	2.533815	0.858480	-0.000101
 779	7.7411e+01	9.0062	31.279728	0.000355	3.547340	1.201871	-0.000142
 780	7.7510e+01	8.9564	31.194948	0.000213	2.128404	0.721123	-0.000085
 781	7.7610e+01	8.9292	31.053648	0.000355	3.547340	1.201871	-0.000142
 782	7.7710e+01	8.8858	30.972905	0.000203	2.027052	0.686784	-0.000081
 783	7.7809e+01	8.8377	30.815457	0.000395	3.952751	1.339228	-0.000158
 784	7.7909e+01	8.8104	30.718566	0.000243	2.432462	0.824140	-0.000097
 785	7.8008e+01	8.7559	30.613600	0.000264	2.635167	0.892819	-0.000105
 786	7.8108e+01	8.7254	30.520746	0.000233	2.331109	0.789801	-0.000093
 787	7.8207e+01	8.6885	30.363298	0.000395	3.952751	1.339228	-0.000158
 788	7.8306e+01	8.6340	30.262369	0.000253	2.533815	0.858480	-0.000101
 789	7.8406e+01	8.6019	30.177590	0.000213	2.128404	0.721123	-0.000085
 790	7.8505e+01	8.5602	30.032253	0.000365	3.648693	1.236211	-0.000146
 791	7.8605e+01	8.5249	29.927287	0.000264	2.635167	0.892819	-0.000105
 792	7.8704e+01	8.4816	29.842507	0.000213	2.128404	0.721123	-0.000085
 793	7.8804e+01	8.4270	29.656799	0.000466	4.662219	1.579602	-0.000187
 794	7.8903e+01	8.3966	29.567982	0.000223	2.229757	0.755462	-0.000089
 795	7.9003e+01	8.3629	29.467054	0.000253	2.533815	0.858480	-0.000101
 796	7.9103e+01	8.3196	29.317680	0.000375	3.750046	1.270550	-0.000150
 797	7.9202e+01	8.2827	29.228863	0.000223	2.229757	0.755462	-0.000089
 798	7.9302e+01	8.2442	29.099674	0.000324	3.243283	1.098854	-0.000130
 799	7.9401e+01	8.2073	28.978560	0.000304	3.040577	1.030176	-0.000122
 800	7.9501e+01	8.1688	28.873595	0.000264	2.635167	0.892819	-0.000105
 801	7.9600e+01	8.1190	28.732295	0.000355	3.547340	1.201871	-0.000142
 802	7.9700e+01	8.0853	28.647515	0.000213	2.128404	0.721123	-0.000085
 803	7.9799e+01	8.0484	28.526401	0.000304	3.040577	1.030176	-0.000122
 804	7.9898e+01	8.0035	28.377027	0.000375	3.750046	1.270550	-0.000150
 805	7.9998e+01	7.9618	28.284173	0.000233	2.331109	0.789801	-0.000093
 806	8.0097e+01	7.9217	28.138836	0.000365	3.648693	1.236211	-0.000146
 807	8.0197e+01	7.8976	28.054056	0.000213	2.128404	0.721123	-0.000085
 808	8.0296e+01	7.8447	27.912756	0.000355	3.547340	1.201871	-0.000142
 809	8.0396e+01	7.8094	27.791642	0.000304	3.040577	1.030176	-0.000122
 810	8.0496e+01	7.7677	27.686677	0.000264	2.635167	0.892819	-0.000105
 811	8.0595e+01	7.7292	27.565563	0.000304	3.040577	1.030176	-0.000122
 812	8.0695e+01	7.6907	27.420226	0.000365	3.648693	1.236211	-0.000146
 813	8.0794e+01	7.6490	27.331409	0.000223	2.229757	0.755462	-0.000089
 814	8.0894e+01	7.6025	27.202221	0.000324	3.243283	1.098854	-0.000130
 815	8.0993e+01	7.5640	27.097255	0.000264	2.635167	0.892819	-0.000105
 816	8.1093e+01	7.5271	26.955955	0.000355	3.547340	1.201871	-0.000142
 817	8.1192e+01	7.4805	26.850990	0.000264	2.635167	0.892819	-0.000105
 818	8.1291e+01	7.4388	26.685467	0.000416	4.155456	1.407907	-0.000166
 819	8.1391e+01	7.4019	26.624910	0.000152	1.520289	0.515088	-0.000061
 820	8.1490e+01	7.3586	26.475536	0.000375	3.750046	1.270550	-0.000150
 821	8.1590e+01	7.3346	26.386719	0.000223	2.229757	0.755462	-0.000089
 822	8.1689e+01	7.2896	26.265605	0.000304	3.040577	1.030176	-0.000122
 823	8.1789e+01	7.2447	26.136417	0.000324	3.243283	1.098854	-0.000130
 824	8.1888e+01	7.2078	25.978968	0.000395	3.952751	1.339228	-0.000158
 825	8.1988e+01	7.1693	25.874003	0.000264	2.635167	0.892819	-0.000105
 826	8.2088e+01	7.1196	25.732703	0.000355	3.547340	1.201871	-0.000142
 827	8.2187e+01	7.0843	25.639849	0.000233	2.331109	0.789801	-0.000093
 828	8.2287e+01	7.0442	25.534884	0.000264	2.635167	0.892819	-0.000105
 829	8.2386e+01	7.0041	25.425881	0.000274	2.736520	0.927158	-0.000110
 830	8.2486e+01	6.9608	25.296693	0.000324	3.243283	1.098854	-0.000130
 831	8.2585e+01	6.9287	25.175578	0.000304	3.040577	1.030176	-0.000122
 832	8.2684e+01	6.8902	25.034279	0.000355	3.547340	1.201871	-0.000142
 833	8.2784e+01	6.8469	24.929313	0.000264	2.635167	0.892819	-0.000105
 834	8.2883e+01	6.8084	24.852608	0.000193	1.925699	0.652445	-0.000077
 835	8.2983e+01	6.7634	24.662862	0.000476	4.763571	1.613942	-0.000191
 836	8.3082e+01	6.7265	24.570008	0.000233	2.331109	0.789801	-0.000093
 837	8.3182e+01	6.6880	24.448894	0.000304	3.040577	1.030176	-0.000122
 838	8.3281e+01	6.6431	24.327780	0.000304	3.040577	1.030176	-0.000122
 839	8.3381e+01	6.6175	24.202629	0.000314	3.141930	1.064515	-0.000126
 840	8.3481e+01	6.5645	24.105737	0.000243	2.432462	0.824140	-0.000097
 841	8.3580e+01	6.5180	23.964438	0.000355	3.547340	1.201871	-0.000142
 842	8.3680e+01	6.4907	23.867546	0.000243	2.432462	0.824140	-0.000097
 843	8.3779e+01	6.4474	23.706061	0.000405	4.054103	1.373567	-0.000162
 844	8.3879e+01	6.4153	23.621281	0.000213	2.128404	0.721123	-0.000085
 845	8.3978e+01	6.3752	23.504204	0.000294	2.939225	0.995836	-0.000118
 846	8.4078e+01	6.3255	23.346756	0.000395	3.952751	1.339228	-0.000158
 847	8.4177e+01	6.2870	23.261976	0.000213	2.128404	0.721123	-0.000085
 848	8.4276e+01	6.2565	23.148936	0.000284	2.837872	0.961497	-0.000114
 849	8.4376e+01	6.2052	23.039934	0.000274	2.736520	0.927158	-0.000110
 850	8.4475e+01	6.1715	22.910745	0.000324	3.243283	1.098854	-0.000130
 851	8.4575e+01	6.1378	22.793668	0.000294	2.939225	0.995836	-0.000118
 852	8.4674e+01	6.0833	22.644294	0.000375	3.750046	1.270550	-0.000150
 853	8.4774e+01	6.0496	22.543366	0.000253	2.533815	0.858480	-0.000101
 854	8.4874e+01	6.0079	22.393992	0.000375	3.750046	1.270550	-0.000150
 855	8.4973e+01	5.9726	22.284989	0.000274	2.736520	0.927158	-0.000110
 856	8.5073e+01	5.9276	22.151764	0.000334	3.344635	1.133193	-0.000134
 857	8.5172e+01	5.8875	22.054873	0.000243	2.432462	0.824140	-0.000097
 858	8.5272e+01	5.8554	21.897424	0.000395	3.952751	1.339228	-0.000158
 859	8.5371e+01	5.8057	21.808607	0.000223	2.229757	0.755462	-0.000089
 860	8.5471e+01	5.7688	21.643085	0.000416	4.155456	1.407907	-0.000166
 861	8.5570e+01	5.7255	21.554268	0.000223	2.229757	0.755462	-0.000089
 862	8.5669e+01	5.6934	21.408931	0.000365	3.648693	1.236211	-0.000146
 863	8.5769e+01	5.6549	21.287817	0.000304	3.040577	1.030176	-0.000122
 864	8.5868e+01	5.6132	21.190925	0.000243	2.432462	0.824140	-0.000097
 865	8.5968e+01	5.5683	21.025403	0.000416	4.155456	1.407907	-0.000166
 866	8.6067e+01	5.5346	20.908326	0.000294	2.939225	0.995836	-0.000118
 867	8.6167e+01	5.4881	20.819509	0.000223	2.229757	0.755462	-0.000089
 868	8.6266e+01	5.4512	20.670135	0.000375	3.750046	1.270550	-0.000150
 869	8.6366e+01	5.4095	20.561132	0.000274	2.736520	0.927158	-0.000110
 870	8.6466e+01	5.3742	20.411758	0.000375	3.750046	1.270550	-0.000150
 871	8.6565e+01	5.3261	20.322941	0.000223	2.229757	0.755462	-0.000089
 872	8.6665e+01	5.2956	20.137233	0.000466	4.662219	1.579602	-0.000187
 873	8.6764e+01	5.2523	20.044379	0.000233	2.331109	0.789801	-0.000093
 874	8.6864e+01	5.2186	19.931339	0.000284	2.837872	0.961497	-0.000114
 875	8.6963e+01	5.1688	19.790039	0.000355	3.547340	1.201871	-0.000142
 876	8.7063e+01	5.1287	19.632591	0.000395	3.952751	1.339228	-0.000158
 877	8.7162e+01	5.0966	19.555886	0.000193	1.925699	0.652445	-0.000077
 878	8.7261e+01	5.0565	19.434771	0.000304	3.040577	1.030176	-0.000122
 879	8.7361e+01	5.0212	19.309620	0.000314	3.141930	1.064515	-0.000126
 880	8.7460e+01	4.9795	19.172358	0.000345	3.445988	1.167532	-0.000138
 881	8.7560e+01	4.9394	19.059318	0.000284	2.837872	0.961497	-0.000114
 882	8.7659e+01	4.9041	18.881684	0.000446	4.459514	1.510924	-0.000179
 883	8.7759e+01	4.8528	18.772681	0.000274	2.736520	0.927158	-0.000110
 884	8.7859e+01	4.8191	18.643493	0.000324	3.243283	1.098854	-0.000130
 885	8.7958e+01	4.7710	18.546602	0.000243	2.432462	0.824140	-0.000097
 886	8.8058e+01	4.7341	18.377042	0.000426	4.256808	1.442246	-0.000170
 887	8.8157e+01	4.7004	18.255928	0.000304	3.040577	1.030176	-0.000122
 888	8.8257e+01	4.6603	18.138851	0.000294	2.939225	0.995836	-0.000118
 889	8.8356e+01	4.6154	18.021774	0.000294	2.939225	0.995836	-0.000118
 890	8.8456e+01	4.5721	17.924883	0.000243	2.432462	0.824140	-0.000097
 891	8.8555e+01	4.5432	17.763397	0.000405	4.054103	1.373567	-0.000162
 892	8.8654e+01	4.5031	17.682655	0.000203	2.027052	0.686784	-0.000081
 893	8.8754e+01	4.4550	17.541355	0.000355	3.547340	1.201871	-0.000142
 894	8.8853e+01	4.4197	17.371795	0.000426	4.256808	1.442246	-0.000170
 895	8.8953e+01	4.3812	17.238570	0.000334	3.344635	1.133193	-0.000134
 896	8.9052e+01	4.3330	17.109381	0.000324	3.243283	1.098854	-0.000130
 897	8.9152e+01	4.2913	16.972119	0.000345	3.445988	1.167532	-0.000138
 898	8.9251e+01	4.2576	16.855042	0.000294	2.939225	0.995836	-0.000118
 899	8.9351e+01	4.2223	16.681445	0.000436	4.358161	1.476585	-0.000174
 900	8.9451e+01	4.1903	16.580516	0.000253	2.533815	0.858480	-0.000101
 901	8.9550e+01	4.1421	16.455365	0.000314	3.141930	1.064515	-0.000126
 902	8.9650e+01	4.1036	16.322140	0.000334	3.344635	1.133193	-0.000134
 903	8.9749e+01	4.0539	16.184877	0.000345	3.445988	1.167532	-0.000138
 904	8.9849e+01	4.0266	16.019355	0.000416	4.155456	1.407907	-0.000166
 905	8.9948e+01	3.9721	15.954760	0.000162	1.621641	0.549427	-0.000065
 906	9.0047e+01	3.9464	15.813461	0.000355	3.547340	1.201871	-0.000142
 907	9.0147e+01	3.9047	15.651975	0.000405	4.054103	1.373567	-0.000162
 908	9.0246e+01	3.8550	15.482416	0.000426	4.256808	1.442246	-0.000170
 909	9.0346e+01	3.8229	15.401673	0.000203	2.027052	0.686784	-0.000081
 910	9.0445e+01	3.7812	15.228076	0.000436	4.358161	1.476585	-0.000174
 911	9.0545e+01	3.7411	15.098888	0.000324	3.243283	1.098854	-0.000130
 912	9.0644e+01	3.6897	15.001996	0.000243	2.432462	0.824140	-0.000097
 913	9.0744e+01	3.6625	14.812251	0.000476	4.763571	1.613942	-0.000191
 914	9.0844e+01	3.6256	14.711323	0.000253	2.533815	0.858480	-0.000101
 915	9.0943e+01	3.5871	14.565986	0.000365	3.648693	1.236211	-0.000146
 916	9.1043e+01	3.5325	14.448909	0.000294	2.939225	0.995836	-0.000118
 917	9.1142e+01	3.5004	14.291461	0.000395	3.952751	1.339228	-0.000158
 918	9.1242e+01	3.4667	14.170346	0.000304	3.040577	1.030176	-0.000122
 919	9.1341e+01	3.4138	14.000787	0.000426	4.256808	1.442246	-0.000170
 920	9.1441e+01	3.3865	13.920044	0.000203	2.027052	0.686784	-0.000081
 921	9.1540e+01	3.3432	13.754521	0.000416	4.155456	1.407907	-0.000166
 922	9.1639e+01	3.2999	13.629370	0.000314	3.141930	1.064515	-0.000126
 923	9.1739e+01	3.2630	13.516330	0.000284	2.837872	0.961497	-0.000114
 924	9.1838e+01	3.2197	13.306399	0.000527	5.270334	1.785638	-0.000211
 925	9.1938e+01	3.1812	13.221620	0.000213	2.128404	0.721123	-0.000085
 926	9.2037e+01	3.1331	13.064171	0.000395	3.952751	1.339228	-0.000158
 927	9.2137e+01	3.1090	12.914797	0.000375	3.750046	1.270550	-0.000150
 928	9.2237e+01	3.0705	12.825980	0.000223	2.229757	0.755462	-0.000089
 929	9.2336e+01	3.0224	12.644309	0.000456	4.560866	1.545263	-0.000183
 930	9.2436e+01	2.9775	12.571641	0.000182	1.824346	0.618105	-0.000073
 931	9.2535e+01	2.9422	12.377858	0.000486	4.864924	1.648281	-0.000195
 932	9.2635e+01	2.9053	12.232521	0.000365	3.648693	1.236211	-0.000146
 933	9.2734e+01	2.8620	12.131593	0.000253	2.533815	0.858480	-0.000101
 934	9.2834e+01	2.8154	11.949922	0.000456	4.560866	1.545263	-0.000183
 935	9.2933e+01	2.7769	11.840919	0.000274	2.736520	0.927158	-0.000110
 936	9.3032e+01	2.7416	11.635025	0.000517	5.168982	1.751298	-0.000207
 937	9.3132e+01	2.7031	11.546208	0.000223	2.229757	0.755462	-0.000089
 938	9.3231e+01	2.6678	11.433168	0.000284	2.837872	0.961497	-0.000114
 939	9.3331e+01	2.6309	11.259572	0.000436	4.358161	1.476585	-0.000174
 940	9.3430e+01	2.5860	11.134420	0.000314	3.141930	1.064515	-0.000126
 941	9.3530e+01	2.5475	10.989083	0.000365	3.648693	1.236211	-0.000146
 942	9.3629e+01	2.4978	10.863932	0.000314	3.141930	1.064515	-0.000126
 943	9.3729e+01	2.4689	10.722633	0.000355	3.547340	1.201871	-0.000142
 944	9.3829e+01	2.4240	10.577296	0.000365	3.648693	1.236211	-0.000146
 945	9.3928e+01	2.3791	10.419847	0.000395	3.952751	1.339228	-0.000158
 946	9.4028e+01	2.3422	10.274510	0.000365	3.648693	1.236211	-0.000146
 947	9.4127e+01	2.3085	10.145322	0.000324	3.243283	1.098854	-0.000130
 948	9.4227e+01	2.2668	10.004022	0.000355	3.547340	1.201871	-0.000142
 949	9.4326e+01	2.2283	9.838500	0.000416	4.155456	1.407907	-0.000166
 950	9.4425e+01	2.1898	9.721423	0.000294	2.939225	0.995836	-0.000118
 951	9.4525e+01	2.1513	9.547826	0.000436	4.358161	1.476585	-0.000174
 952	9.4624e+01	2.1031	9.406526	0.000355	3.547340	1.201871	-0.000142
 953	9.4724e+01	2.0646	9.289449	0.000294	2.939225	0.995836	-0.000118
 954	9.4823e+01	2.0165	9.140075	0.000375	3.750046	1.270550	-0.000150
 955	9.4923e+01	1.9925	8.978590	0.000405	4.054103	1.373567	-0.000162
 956	9.5022e+01	1.9411	8.877661	0.000253	2.533815	0.858480	-0.000101
 957	9.5122e+01	1.8994	8.728287	0.000375	3.750046	1.270550	-0.000150
 958	9.5222e+01	1.8737	8.558728	0.000426	4.256808	1.442246	-0.000170
 959	9.5321e+01	1.8288	8.445688	0.000284	2.837872	0.961497	-0.000114
 960	9.5421e+01	1.7839	8.336685	0.000274	2.736520	0.927158	-0.000110
 961	9.5520e+01	1.7486	8.142903	0.000486	4.864924	1.648281	-0.000195
 962	9.5620e+01	1.7101	8.050049	0.000233	2.331109	0.789801	-0.000093
 963	9.5719e+01	1.6716	7.852229	0.000497	4.966277	1.682620	-0.000199
 964	9.5819e+01	1.6267	7.731115	0.000304	3.040577	1.030176	-0.000122
 965	9.5918e+01	1.5834	7.565592	0.000416	4.155456	1.407907	-0.000166
 966	9.6017e+01	1.5513	7.416218	0.000375	3.750046	1.270550	-0.000150
 967	9.6117e+01	1.5096	7.307216	0.000274	2.736520	0.927158	-0.000110
 968	9.6216e+01	1.4727	7.153805	0.000385	3.851398	1.304889	-0.000154
 969	9.6316e+01	1.4374	7.000393	0.000385	3.851398	1.304889	-0.000154
 970	9.6415e+01	1.3877	6.842945	0.000395	3.952751	1.339228	-0.000158
 971	9.6515e+01	1.3476	6.709720	0.000334	3.344635	1.133193	-0.000134
 972	9.6615e+01	1.3171	6.580531	0.000324	3.243283	1.098854	-0.000130
 973	9.6714e+01	1.2673	6.439232	0.000355	3.547340	1.201871	-0.000142
 974	9.6814e+01	1.2288	6.297932	0.000355	3.547340	1.201871	-0.000142
 975	9.6913e+01	1.1855	6.124335	0.000436	4.358161	1.476585	-0.000174
 976	9.7013e+01	1.1454	5.987072	0.000345	3.445988	1.167532	-0.000138
 977	9.7112e+01	1.1133	5.841735	0.000365	3.648693	1.236211	-0.000146
 978	9.7212e+01	1.0732	5.664101	0.000446	4.459514	1.510924	-0.000179
 979	9.7311e+01	1.0299	5.579322	0.000213	2.128404	0.721123	-0.000085
 980	9.7410e+01	1.0042	5.405725	0.000436	4.358161	1.476585	-0.000174
 981	9.7510e+01	0.9577	5.260388	0.000365	3.648693	1.236211	-0.000146
 982	9.7609e+01	0.9064	5.131200	0.000324	3.243283	1.098854	-0.000130
 983	9.7709e+01	0.8647	4.929343	0.000507	5.067629	1.716959	-0.000203
 984	9.7808e+01	0.8326	4.824377	0.000264	2.635167	0.892819	-0.000105
 985	9.7908e+01	0.7797	4.739597	0.000213	2.128404	0.721123	-0.000085
 986	9.8007e+01	0.7572	4.513518	0.000568	5.675745	1.922994	-0.000227
 987	9.8107e+01	0.7123	4.372218	0.000355	3.547340	1.201871	-0.000142
 988	9.8207e+01	0.6770	4.243030	0.000324	3.243283	1.098854	-0.000130
 989	9.8306e+01	0.6353	4.097693	0.000365	3.648693	1.236211	-0.000146
 990	9.8406e+01	0.5888	3.972542	0.000314	3.141930	1.064515	-0.000126
 991	9.8505e+01	0.5438	3.778759	0.000486	4.864924	1.648281	-0.000195
 992	9.8605e+01	0.5085	3.677831	0.000253	2.533815	0.858480	-0.000101
 993	9.8704e+01	0.4684	3.552679	0.000314	3.141930	1.064515	-0.000126
 994	9.8803e+01	0.4364	3.379083	0.000436	4.358161	1.476585	-0.000174
 995	9.8903e+01	0.3914	3.225671	0.000385	3.851398	1.304889	-0.000154
 996	9.9002e+01	0.3561	3.116669	0.000274	2.736520	0.927158	-0.000110
 997	9.9102e+01	0.3144	2.947109	0.000426	4.256808	1.442246	-0.000170
 998	9.9201e+01	0.2839	2.821958	0.000314	3.141930	1.064515	-0.000126
 999	9.9301e+01	0.2358	2.636250	0.000466	4.662219	1.579602	-0.000187
1000	9.9400e+01	0.1925	2.535321	0.000253	2.533815	0.858480	-0.000101
1001	9.9500e+01	0.1460	2.385947	0.000375	3.750046	1.270550	-0.000150
1002	9.9600e+01	0.1091	2.244647	0.000355	3.547340	1.201871	-0.000142
1003	9.9699e+01	0.0738	2.071051	0.000436	4.358161	1.476585	-0.000174
1004	9.9799e+01	0.0257	1.933788	0.000345	3.445988	1.167532	-0.000138
1005	9.9898e+01	0.0016	1.820748	0.000284	2.837872	0.961497	-0.000114
1006	9.9998e+01	-0.0401	1.691560	0.000324	3.243283	1.098854	-0.000130
1007	1.0010e+02	-0.0834	1.554297	0.000345	3.445988	1.167532	-0.000138
1008	1.0020e+02	-0.1091	1.408960	0.000365	3.648693	1.236211	-0.000146
1009	1.0030e+02	-0.1556	1.239401	0.000426	4.256808	1.442246	-0.000170
1010	1.0040e+02	-0.1989	1.069841	0.000426	4.256808	1.442246	-0.000170
1011	1.0050e+02	-0.2406	0.960838	0.000274	2.736520	0.927158	-0.000110
1012	1.0059e+02	-0.2839	0.803390	0.000395	3.952751	1.339228	-0.000158
1013	1.0069e+02	-0.3128	0.666127	0.000345	3.445988	1.167532	-0.000138
1014	1.0079e+02	-0.3610	0.508679	0.000395	3.952751	1.339228	-0.000158
1015	1.0089e+02	-0.3882	0.399676	0.000274	2.736520	0.927158	-0.000110
1016	1.0099e+02	-0.4444	0.213968	0.000466	4.662219	1.579602	-0.000187
1017	1.0109e+02	-0.4781	0.096891	0.000294	2.939225	0.995836	-0.000118
1018	1.0119e+02	-0.5182	-0.076706	0.000436	4.358161	1.476585	-0.000174
1019	1.0129e+02	-0.5615	-0.205894	0.000324	3.243283	1.098854	-0.000130
1020	1.0139e+02	-0.5920	-0.363342	0.000395	3.952751	1.339228	-0.000158
1021	1.0149e+02	-0.6321	-0.488493	0.000314	3.141930	1.064515	-0.000126
1022	1.0159e+02	-0.6834	-0.654016	0.000416	4.155456	1.407907	-0.000166
1023	1.0169e+02	-0.7171	-0.746870	0.000233	2.331109	0.789801	-0.000093
1024	1.0179e+02	-0.7508	-0.900281	0.000385	3.851398	1.304889	-0.000154
1025	1.0189e+02	-0.7877	-1.041581	0.000355	3.547340	1.201871	-0.000142
1026	1.0199e+02	-0.8406	-1.211141	0.000426	4.256808	1.442246	-0.000170
1027	1.0209e+02	-0.8759	-1.340329	0.000324	3.243283	1.098854	-0.000130
1028	1.0219e+02	-0.9112	-1.469517	0.000324	3.243283	1.098854	-0.000130
1029	1.0229e+02	-0.9545	-1.647151	0.000446	4.459514	1.510924	-0.000179
1030	1.0239e+02	-0.9914	-1.768265	0.000304	3.040577	1.030176	-0.000122
1031	1.0248e+02	-1.0379	-1.941862	0.000436	4.358161	1.476585	-0.000174
1032	1.0258e+02	-1.0877	-2.067013	0.000314	3.141930	1.064515	-0.000126
1033	1.0268e+02	-1.1101	-2.200239	0.000334	3.344635	1.133193	-0.000134
1034	1.0278e+02	-1.1534	-2.402096	0.000507	5.067629	1.716959	-0.000203
1035	1.0288e+02	-1.1935	-2.494950	0.000233	2.331109	0.789801	-0.000093
1036	1.0298e+02	-1.2449	-2.684695	0.000476	4.763571	1.613942	-0.000191
1037	1.0308e+02	-1.2673	-2.809846	0.000314	3.141930	1.064515	-0.000126
1038	1.0318e+02	-1.3123	-2.967295	0.000395	3.952751	1.339228	-0.000158
1039	1.0328e+02	-1.3476	-3.124743	0.000395	3.952751	1.339228	-0.000158
1040	1.0338e+02	-1.3925	-3.253931	0.000324	3.243283	1.098854	-0.000130
1041	1.0348e+02	-1.4374	-3.415417	0.000405	4.054103	1.373567	-0.000162
1042	1.0358e+02	-1.4615	-3.524419	0.000274	2.736520	0.927158	-0.000110
1043	1.0368e+02	-1.5144	-3.681868	0.000395	3.952751	1.339228	-0.000158
1044	1.0378e+02	-1.5481	-3.798945	0.000294	2.939225	0.995836	-0.000118
1045	1.0388e+02	-1.5898	-3.972542	0.000436	4.358161	1.476585	-0.000174
1046	1.0398e+02	-1.6219	-4.073470	0.000253	2.533815	0.858480	-0.000101
1047	1.0408e+02	-1.6732	-4.259178	0.000466	4.662219	1.579602	-0.000187
1048	1.0418e+02	-1.7117	-4.376255	0.000294	2.939225	0.995836	-0.000118
1049	1.0428e+02	-1.7470	-4.557926	0.000456	4.560866	1.545263	-0.000183
1050	1.0438e+02	-1.7919	-4.670966	0.000284	2.837872	0.961497	-0.000114
1051	1.0447e+02	-1.8352	-4.844563	0.000436	4.358161	1.476585	-0.000174
1052	1.0457e+02	-1.8721	-4.985863	0.000355	3.547340	1.201871	-0.000142
1053	1.0467e+02	-1.9187	-5.102940	0.000294	2.939225	0.995836	-0.000118
1054	1.0477e+02	-1.9395	-5.264425	0.000405	4.054103	1.373567	-0.000162
1055	1.0487e+02	-1.9909	-5.397650	0.000334	3.344635	1.133193	-0.000134
1056	1.0497e+02	-2.0261	-5.555099	0.000395	3.952751	1.339228	-0.000158
1057	1.0507e+02	-2.0630	-5.684287	0.000324	3.243283	1.098854	-0.000130
1058	1.0517e+02	-2.1080	-5.849810	0.000416	4.155456	1.407907	-0.000166
1059	1.0527e+02	-2.1465	-5.950738	0.000253	2.533815	0.858480	-0.000101
1060	1.0537e+02	-2.1930	-6.136446	0.000466	4.662219	1.579602	-0.000187
1061	1.0547e+02	-2.2347	-6.241412	0.000264	2.635167	0.892819	-0.000105
1062	1.0557e+02	-2.2668	-6.435194	0.000486	4.864924	1.648281	-0.000195
1063	1.0567e+02	-2.3053	-6.511900	0.000193	1.925699	0.652445	-0.000077
1064	1.0577e+02	-2.3566	-6.673385	0.000405	4.054103	1.373567	-0.000162
1065	1.0587e+02	-2.3903	-6.846982	0.000436	4.358161	1.476585	-0.000174
1066	1.0597e+02	-2.4368	-6.968096	0.000304	3.040577	1.030176	-0.000122
1067	1.0607e+02	-2.4673	-7.097285	0.000324	3.243283	1.098854	-0.000130
1068	1.0617e+02	-2.5219	-7.238584	0.000355	3.547340	1.201871	-0.000142
1069	1.0627e+02	-2.5523	-7.387958	0.000375	3.750046	1.270550	-0.000150
1070	1.0637e+02	-2.5908	-7.500998	0.000284	2.837872	0.961497	-0.000114
1071	1.0647e+02	-2.6277	-7.678632	0.000446	4.459514	1.510924	-0.000179
1072	1.0656e+02	-2.6694	-7.848192	0.000426	4.256808	1.442246	-0.000170
1073	1.0666e+02	-2.7015	-7.969306	0.000304	3.040577	1.030176	-0.000122
1074	1.0676e+02	-2.7513	-8.122717	0.000385	3.851398	1.304889	-0.000154
1075	1.0686e+02	-2.7930	-8.268054	0.000365	3.648693	1.236211	-0.000146
1076	1.0696e+02	-2.8251	-8.381094	0.000284	2.837872	0.961497	-0.000114
1077	1.0706e+02	-2.8668	-8.518356	0.000345	3.445988	1.167532	-0.000138
1078	1.0716e+02	-2.9117	-8.683879	0.000416	4.155456	1.407907	-0.000166
1079	1.0726e+02	-2.9406	-8.833253	0.000375	3.750046	1.270550	-0.000150
1080	1.0736e+02	-2.9903	-8.958404	0.000314	3.141930	1.064515	-0.000126
1081	1.0746e+02	-3.0272	-9.115852	0.000395	3.952751	1.339228	-0.000158
1082	1.0756e+02	-3.0689	-9.245041	0.000324	3.243283	1.098854	-0.000130
1083	1.0766e+02	-3.1138	-9.422675	0.000446	4.459514	1.510924	-0.000179
1084	1.0776e+02	-3.1411	-9.515529	0.000233	2.331109	0.789801	-0.000093
1085	1.0786e+02	-3.1812	-9.681051	0.000416	4.155456	1.407907	-0.000166
1086	1.0796e+02	-3.2309	-9.810240	0.000324	3.243283	1.098854	-0.000130
1087	1.0806e+02	-3.2710	-9.951540	0.000355	3.547340	1.201871	-0.000142
1088	1.0816e+02	-3.3143	-10.084765	0.000334	3.344635	1.133193	-0.000134
1089	1.0826e+02	-3.3448	-10.222028	0.000345	3.445988	1.167532	-0.000138
1090	1.0836e+02	-3.3721	-10.367365	0.000365	3.648693	1.236211	-0.000146
1091	1.0845e+02	-3.4331	-10.496553	0.000324	3.243283	1.098854	-0.000130
1092	1.0855e+02	-3.4700	-10.633816	0.000345	3.445988	1.167532	-0.000138
1093	1.0865e+02	-3.5085	-10.763004	0.000324	3.243283	1.098854	-0.000130
1094	1.0875e+02	-3.5357	-10.916415	0.000385	3.851398	1.304889	-0.000154
1095	1.0885e+02	-3.5790	-11.065789	0.000375	3.750046	1.270550	-0.000150
1096	1.0895e+02	-3.6256	-11.215163	0.000375	3.750046	1.270550	-0.000150
1097	1.0905e+02	-3.6641	-11.364537	0.000375	3.750046	1.270550	-0.000150
1098	1.0915e+02	-3.7122	-11.497763	0.000334	3.344635	1.133193	-0.000134
1099	1.0925e+02	-3.7363	-11.651174	0.000385	3.851398	1.304889	-0.000154
1100	1.0935e+02	-3.7780	-11.768251	0.000294	2.939225	0.995836	-0.000118
1101	1.0945e+02	-3.8357	-11.893402	0.000314	3.141930	1.064515	-0.000126
1102	1.0955e+02	-3.8678	-12.042776	0.000375	3.750046	1.270550	-0.000150
1103	1.0965e+02	-3.9015	-12.200224	0.000395	3.952751	1.339228	-0.000158
1104	1.0975e+02	-3.9432	-12.337487	0.000345	3.445988	1.167532	-0.000138
1105	1.0985e+02	-3.9865	-12.462638	0.000314	3.141930	1.064515	-0.000126
1106	1.0995e+02	-4.0250	-12.612012	0.000375	3.750046	1.270550	-0.000150
1107	1.1005e+02	-4.0587	-12.737163	0.000314	3.141930	1.064515	-0.000126
1108	1.1015e+02	-4.1020	-12.894612	0.000395	3.952751	1.339228	-0.000158
1109	1.1025e+02	-4.1453	-13.027837	0.000334	3.344635	1.133193	-0.000134
1110	1.1035e+02	-4.1919	-13.177211	0.000375	3.750046	1.270550	-0.000150
1111	1.1044e+02	-4.2255	-13.306399	0.000324	3.243283	1.098854	-0.000130
1112	1.1054e+02	-4.2576	-13.443662	0.000345	3.445988	1.167532	-0.000138
1113	1.1064e+02	-4.3106	-13.613222	0.000426	4.256808	1.442246	-0.000170
1114	1.1074e+02	-4.3394	-13.718187	0.000264	2.635167	0.892819	-0.000105
1115	1.1084e+02	-4.3812	-13.847376	0.000324	3.243283	1.098854	-0.000130
1116	1.1094e+02	-4.4213	-13.980601	0.000334	3.344635	1.133193	-0.000134
1117	1.1104e+02	-4.4678	-14.117864	0.000345	3.445988	1.167532	-0.000138
1118	1.1114e+02	-4.5031	-14.226866	0.000274	2.736520	0.927158	-0.000110
1119	1.1124e+02	-4.5448	-14.360092	0.000334	3.344635	1.133193	-0.000134
1120	1.1134e+02	-4.5865	-14.497354	0.000345	3.445988	1.167532	-0.000138
1121	1.1144e+02	-4.6218	-14.606357	0.000274	2.736520	0.927158	-0.000110
1122	1.1154e+02	-4.6587	-14.771880	0.000416	4.155456	1.407907	-0.000166
1123	1.1164e+02	-4.7036	-14.929328	0.000395	3.952751	1.339228	-0.000158
1124	1.1174e+02	-4.7501	-15.062553	0.000334	3.344635	1.133193	-0.000134
1125	1.1184e+02	-4.7854	-15.183668	0.000304	3.040577	1.030176	-0.000122
1126	1.1194e+02	-4.8127	-15.324967	0.000355	3.547340	1.201871	-0.000142
1127	1.1204e+02	-4.8512	-15.466267	0.000355	3.547340	1.201871	-0.000142
1128	1.1214e+02	-4.9009	-15.599492	0.000334	3.344635	1.133193	-0.000134
1129	1.1224e+02	-4.9475	-15.736755	0.000345	3.445988	1.167532	-0.000138
1130	1.1234e+02	-4.9779	-15.833646	0.000243	2.432462	0.824140	-0.000097
1131	1.1244e+02	-5.0180	-15.966872	0.000334	3.344635	1.133193	-0.000134
1132	1.1253e+02	-5.0581	-16.096060	0.000324	3.243283	1.098854	-0.000130
1133	1.1263e+02	-5.1063	-16.269657	0.000436	4.358161	1.476585	-0.000174
1134	1.1273e+02	-5.1464	-16.390771	0.000304	3.040577	1.030176	-0.000122
1135	1.1283e+02	-5.1817	-16.528034	0.000345	3.445988	1.167532	-0.000138
1136	1.1293e+02	-5.2170	-16.649148	0.000304	3.040577	1.030176	-0.000122
1137	1.1303e+02	-5.2523	-16.786410	0.000345	3.445988	1.167532	-0.000138
1138	1.1313e+02	-5.2940	-16.887339	0.000253	2.533815	0.858480	-0.000101
1139	1.1323e+02	-5.3261	-17.077084	0.000476	4.763571	1.613942	-0.000191
1140	1.1333e+02	-5.3822	-17.182050	0.000264	2.635167	0.892819	-0.000105
1141	1.1343e+02	-5.4271	-17.311238	0.000324	3.243283	1.098854	-0.000130
1142	1.1353e+02	-5.4512	-17.383906	0.000182	1.824346	0.618105	-0.000073
1143	1.1363e+02	-5.5009	-17.573652	0.000476	4.763571	1.613942	-0.000191
1144	1.1373e+02	-5.5346	-17.690729	0.000294	2.939225	0.995836	-0.000118
1145	1.1383e+02	-5.5811	-17.787620	0.000243	2.432462	0.824140	-0.000097
1146	1.1393e+02	-5.6212	-17.945068	0.000395	3.952751	1.339228	-0.000158
1147	1.1403e+02	-5.6533	-18.078294	0.000334	3.344635	1.133193	-0.000134
1148	1.1413e+02	-5.6982	-18.171148	0.000233	2.331109	0.789801	-0.000093
1149	1.1423e+02	-5.7367	-18.312448	0.000355	3.547340	1.201871	-0.000142
1150	1.1433e+02	-5.7720	-18.482007	0.000426	4.256808	1.442246	-0.000170
1151	1.1442e+02	-5.8218	-18.603121	0.000304	3.040577	1.030176	-0.000122
1152	1.1452e+02	-5.8522	-18.691938	0.000223	2.229757	0.755462	-0.000089
1153	1.1462e+02	-5.8988	-18.833238	0.000355	3.547340	1.201871	-0.000142
1154	1.1472e+02	-5.9389	-18.958389	0.000314	3.141930	1.064515	-0.000126
1155	1.1482e+02	-5.9742	-19.075466	0.000294	2.939225	0.995836	-0.000118
1156	1.1492e+02	-6.0143	-19.212729	0.000345	3.445988	1.167532	-0.000138
1157	1.1502e+02	-6.0592	-19.309620	0.000243	2.432462	0.824140	-0.000097
1158	1.1512e+02	-6.0961	-19.475143	0.000416	4.155456	1.407907	-0.000166
1159	1.1522e+02	-6.1346	-19.612405	0.000345	3.445988	1.167532	-0.000138
1160	1.1532e+02	-6.1763	-19.648740	0.000091	0.912173	0.309053	-0.000037
1161	1.1542e+02	-6.2132	-19.846559	0.000497	4.966277	1.682620	-0.000199
1162	1.1552e+02	-6.2469	-19.947488	0.000253	2.533815	0.858480	-0.000101
1163	1.1562e+02	-6.3078	-20.084750	0.000345	3.445988	1.167532	-0.000138
1164	1.1572e+02	-6.3383	-20.193753	0.000274	2.736520	0.927158	-0.000110
1165	1.1582e+02	-6.3865	-20.331016	0.000345	3.445988	1.167532	-0.000138
1166	1.1592e+02	-6.4137	-20.399647	0.000172	1.722994	0.583766	-0.000069
1167	1.1602e+02	-6.4522	-20.549021	0.000375	3.750046	1.270550	-0.000150
1168	1.1612e+02	-6.4923	-20.710506	0.000405	4.054103	1.373567	-0.000162
1169	1.1622e+02	-6.5308	-20.791249	0.000203	2.027052	0.686784	-0.000081
1170	1.1632e+02	-6.5677	-20.956772	0.000416	4.155456	1.407907	-0.000166
1171	1.1642e+02	-6.6110	-21.037514	0.000203	2.027052	0.686784	-0.000081
1172	1.1651e+02	-6.6511	-21.134406	0.000243	2.432462	0.824140	-0.000097
1173	1.1661e+02	-6.6864	-21.263594	0.000324	3.243283	1.098854	-0.000130
1174	1.1671e+02	-6.7298	-21.404894	0.000355	3.547340	1.201871	-0.000142
1175	1.1681e+02	-6.7634	-21.505822	0.000253	2.533815	0.858480	-0.000101
1176	1.1691e+02	-6.8212	-21.659233	0.000385	3.851398	1.304889	-0.000154
1177	1.1701e+02	-6.8517	-21.756124	0.000243	2.432462	0.824140	-0.000097
1178	1.1711e+02	-6.8902	-21.824756	0.000172	1.722994	0.583766	-0.000069
1179	1.1721e+02	-6.9271	-21.994316	0.000426	4.256808	1.442246	-0.000170
1180	1.1731e+02	-6.9688	-22.127541	0.000334	3.344635	1.133193	-0.000134
1181	1.1741e+02	-7.0041	-22.256729	0.000324	3.243283	1.098854	-0.000130
1182	1.1751e+02	-7.0426	-22.373806	0.000294	2.939225	0.995836	-0.000118
1183	1.1761e+02	-7.0811	-22.490883	0.000294	2.939225	0.995836	-0.000118
1184	1.1771e+02	-7.1276	-22.599886	0.000274	2.736520	0.927158	-0.000110
1185	1.1781e+02	-7.1757	-22.692740	0.000233	2.331109	0.789801	-0.000093
1186	1.1791e+02	-7.2014	-22.789631	0.000243	2.432462	0.824140	-0.000097
1187	1.1801e+02	-7.2447	-22.922857	0.000334	3.344635	1.133193	-0.000134
1188	1.1811e+02	-7.2816	-23.056082	0.000334	3.344635	1.133193	-0.000134
1189	1.1821e+02	-7.3346	-23.173159	0.000294	2.939225	0.995836	-0.000118
1190	1.1831e+02	-7.3747	-23.282162	0.000274	2.736520	0.927158	-0.000110
1191	1.1841e+02	-7.4132	-23.407313	0.000314	3.141930	1.064515	-0.000126
1192	1.1850e+02	-7.4533	-23.496130	0.000223	2.229757	0.755462	-0.000089
1193	1.1860e+02	-7.4854	-23.645504	0.000375	3.750046	1.270550	-0.000150
1194	1.1870e+02	-7.5303	-23.746432	0.000253	2.533815	0.858480	-0.000101
1195	1.1880e+02	-7.5591	-23.863509	0.000294	2.939225	0.995836	-0.000118
1196	1.1890e+02	-7.6121	-23.996735	0.000334	3.344635	1.133193	-0.000134
1197	1.1900e+02	-7.6474	-24.065366	0.000172	1.722994	0.583766	-0.000069
1198	1.1910e+02	-7.6955	-24.234926	0.000426	4.256808	1.442246	-0.000170
1199	1.1920e+02	-7.7212	-24.343929	0.000274	2.736520	0.927158	-0.000110
1200	1.1930e+02	-7.7629	-24.420634	0.000193	1.925699	0.652445	-0.000077
1201	1.1940e+02	-7.8062	-24.574045	0.000385	3.851398	1.304889	-0.000154
1202	1.1950e+02	-7.8495	-24.711308	0.000345	3.445988	1.167532	-0.000138
1203	1.1960e+02	-7.8816	-24.779939	0.000172	1.722994	0.583766	-0.000069
1204	1.1970e+02	-7.9297	-24.880868	0.000253	2.533815	0.858480	-0.000101
1205	1.1980e+02	-7.9618	-25.046390	0.000416	4.155456	1.407907	-0.000166
1206	1.1990e+02	-8.0067	-25.139244	0.000233	2.331109	0.789801	-0.000093
1207	1.2000e+02	-8.0468	-25.256321	0.000294	2.939225	0.995836	-0.000118
1208	1.2010e+02	-8.0869	-25.369361	0.000284	2.837872	0.961497	-0.000114
1209	1.2020e+02	-8.1238	-25.478364	0.000274	2.736520	0.927158	-0.000110
1210	1.2030e+02	-8.1607	-25.563143	0.000213	2.128404	0.721123	-0.000085
1211	1.2039e+02	-8.2121	-25.728666	0.000416	4.155456	1.407907	-0.000166
1212	1.2049e+02	-8.2474	-25.853817	0.000314	3.141930	1.064515	-0.000126
1213	1.2059e+02	-8.2891	-25.926486	0.000182	1.824346	0.618105	-0.000073
1214	1.2069e+02	-8.3228	-26.063748	0.000345	3.445988	1.167532	-0.000138
1215	1.2079e+02	-8.3629	-26.172751	0.000274	2.736520	0.927158	-0.000110
1216	1.2089e+02	-8.4062	-26.297902	0.000314	3.141930	1.064515	-0.000126
1217	1.2099e+02	-8.4415	-26.431128	0.000334	3.344635	1.133193	-0.000134
1218	1.2109e+02	-8.4912	-26.499759	0.000172	1.722994	0.583766	-0.000069
1219	1.2119e+02	-8.5313	-26.576465	0.000193	1.925699	0.652445	-0.000077
1220	1.2129e+02	-8.5682	-26.717764	0.000355	3.547340	1.201871	-0.000142
1221	1.2139e+02	-8.6147	-26.846953	0.000324	3.243283	1.098854	-0.000130
1222	1.2149e+02	-8.6436	-26.959992	0.000284	2.837872	0.961497	-0.000114
1223	1.2159e+02	-8.6805	-27.060921	0.000253	2.533815	0.858480	-0.000101
1224	1.2169e+02	-8.7238	-27.190109	0.000324	3.243283	1.098854	-0.000130
1225	1.2179e+02	-8.7655	-27.282963	0.000233	2.331109	0.789801	-0.000093
1226	1.2189e+02	-8.8072	-27.367743	0.000213	2.128404	0.721123	-0.000085
1227	1.2199e+02	-8.8361	-27.513080	0.000365	3.648693	1.236211	-0.000146
1228	1.2209e+02	-8.8746	-27.634194	0.000304	3.040577	1.030176	-0.000122
1229	1.2219e+02	-8.9147	-27.718974	0.000213	2.128404	0.721123	-0.000085
1230	1.2229e+02	-8.9693	-27.819902	0.000253	2.533815	0.858480	-0.000101
1231	1.2239e+02	-9.0046	-27.953128	0.000334	3.344635	1.133193	-0.000134
1232	1.2248e+02	-9.0495	-28.066168	0.000284	2.837872	0.961497	-0.000114
1233	1.2258e+02	-9.0784	-28.183245	0.000294	2.939225	0.995836	-0.000118
1234	1.2268e+02	-9.1297	-28.308396	0.000314	3.141930	1.064515	-0.000126
1235	1.2278e+02	-9.1618	-28.409324	0.000253	2.533815	0.858480	-0.000101
1236	1.2288e+02	-9.1987	-28.538513	0.000324	3.243283	1.098854	-0.000130
1237	1.2298e+02	-9.2420	-28.675775	0.000345	3.445988	1.167532	-0.000138
1238	1.2308e+02	-9.2869	-28.728258	0.000132	1.317584	0.446409	-0.000053
1239	1.2318e+02	-9.3222	-28.865521	0.000345	3.445988	1.167532	-0.000138
1240	1.2328e+02	-9.3639	-28.958375	0.000233	2.331109	0.789801	-0.000093
1241	1.2338e+02	-9.4120	-29.107749	0.000375	3.750046	1.270550	-0.000150
1242	1.2348e+02	-9.4441	-29.176380	0.000172	1.722994	0.583766	-0.000069
1243	1.2358e+02	-9.4730	-29.285383	0.000274	2.736520	0.927158	-0.000110
1244	1.2368e+02	-9.5227	-29.418608	0.000334	3.344635	1.133193	-0.000134
1245	1.2378e+02	-9.5676	-29.499351	0.000203	2.027052	0.686784	-0.000081
1246	1.2388e+02	-9.6142	-29.648725	0.000375	3.750046	1.270550	-0.000150
1247	1.2398e+02	-9.6350	-29.773876	0.000314	3.141930	1.064515	-0.000126
1248	1.2408e+02	-9.6815	-29.886916	0.000284	2.837872	0.961497	-0.000114
1249	1.2418e+02	-9.7136	-30.003993	0.000294	2.939225	0.995836	-0.000118
1250	1.2428e+02	-9.7618	-30.092810	0.000223	2.229757	0.755462	-0.000089
1251	1.2438e+02	-9.7987	-30.201812	0.000274	2.736520	0.927158	-0.000110
1252	1.2447e+02	-9.8339	-30.294667	0.000233	2.331109	0.789801	-0.000093
1253	1.2457e+02	-9.8837	-30.395595	0.000253	2.533815	0.858480	-0.000101
1254	1.2467e+02	-9.9158	-30.492486	0.000243	2.432462	0.824140	-0.000097
1255	1.2477e+02	-9.9623	-30.629749	0.000345	3.445988	1.167532	-0.000138
1256	1.2487e+02	-10.0008	-30.730677	0.000253	2.533815	0.858480	-0.000101
1257	1.2497e+02	-10.0361	-30.847754	0.000294	2.939225	0.995836	-0.000118
1258	1.2507e+02	-10.0762	-30.944645	0.000243	2.432462	0.824140	-0.000097
1259	1.2517e+02	-10.1179	-31.077871	0.000334	3.344635	1.133193	-0.000134
1260	1.2527e+02	-10.1548	-31.207059	0.000324	3.243283	1.098854	-0.000130
1261	1.2537e+02	-10.1933	-31.267616	0.000152	1.520289	0.515088	-0.000061
1262	1.2547e+02	-10.2366	-31.368545	0.000253	2.533815	0.858480	-0.000101
1263	1.2557e+02	-10.2863	-31.530030	0.000405	4.054103	1.373567	-0.000162
1264	1.2567e+02	-10.3136	-31.614810	0.000213	2.128404	0.721123	-0.000085
1265	1.2577e+02	-10.3569	-31.723813	0.000274	2.736520	0.927158	-0.000110
1266	1.2587e+02	-10.3938	-31.853001	0.000324	3.243283	1.098854	-0.000130
1267	1.2597e+02	-10.4355	-31.953929	0.000253	2.533815	0.858480	-0.000101
1268	1.2607e+02	-10.4772	-32.079081	0.000314	3.141930	1.064515	-0.000126
1269	1.2617e+02	-10.5109	-32.155786	0.000193	1.925699	0.652445	-0.000077
1270	1.2627e+02	-10.5639	-32.293049	0.000345	3.445988	1.167532	-0.000138
1271	1.2636e+02	-10.5927	-32.393977	0.000253	2.533815	0.858480	-0.000101
1272	1.2646e+02	-10.6361	-32.494906	0.000253	2.533815	0.858480	-0.000101
1273	1.2656e+02	-10.6794	-32.587760	0.000233	2.331109	0.789801	-0.000093
1274	1.2666e+02	-10.7195	-32.688688	0.000253	2.533815	0.858480	-0.000101
1275	1.2676e+02	-10.7532	-32.817876	0.000324	3.243283	1.098854	-0.000130
1276	1.2686e+02	-10.7997	-32.930916	0.000284	2.837872	0.961497	-0.000114
1277	1.2696e+02	-10.8286	-33.035882	0.000264	2.635167	0.892819	-0.000105
1278	1.2706e+02	-10.8815	-33.165070	0.000324	3.243283	1.098854	-0.000130
1279	1.2716e+02	-10.9152	-33.265998	0.000253	2.533815	0.858480	-0.000101
1280	1.2726e+02	-10.9537	-33.366927	0.000253	2.533815	0.858480	-0.000101
1281	1.2736e+02	-10.9874	-33.488041	0.000304	3.040577	1.030176	-0.000122
1282	1.2746e+02	-11.0387	-33.572821	0.000213	2.128404	0.721123	-0.000085
1283	1.2756e+02	-11.0740	-33.697972	0.000314	3.141930	1.064515	-0.000126
1284	1.2766e+02	-11.1157	-33.831197	0.000334	3.344635	1.133193	-0.000134
1285	1.2776e+02	-11.1590	-33.936163	0.000264	2.635167	0.892819	-0.000105
1286	1.2786e+02	-11.2008	-34.000757	0.000162	1.621641	0.549427	-0.000065
1287	1.2796e+02	-11.2296	-34.125908	0.000314	3.141930	1.064515	-0.000126
1288	1.2806e+02	-11.2778	-34.230874	0.000264	2.635167	0.892819	-0.000105
1289	1.2816e+02	-11.3179	-34.311617	0.000203	2.027052	0.686784	-0.000081
1290	1.2826e+02	-11.3580	-34.436768	0.000314	3.141930	1.064515	-0.000126
1291	1.2835e+02	-11.3917	-34.513473	0.000193	1.925699	0.652445	-0.000077
1292	1.2845e+02	-11.4286	-34.646699	0.000334	3.344635	1.133193	-0.000134
1293	1.2855e+02	-11.4735	-34.735516	0.000223	2.229757	0.755462	-0.000089
1294	1.2865e+02	-11.5040	-34.848556	0.000284	2.837872	0.961497	-0.000114
1295	1.2875e+02	-11.5553	-34.997930	0.000375	3.750046	1.270550	-0.000150
1296	1.2885e+02	-11.5954	-35.062524	0.000162	1.621641	0.549427	-0.000065
1297	1.2895e+02	-11.6323	-35.179601	0.000294	2.939225	0.995836	-0.000118
1298	1.2905e+02	-11.6660	-35.276492	0.000243	2.432462	0.824140	-0.000097
1299	1.2915e+02	-11.7125	-35.405680	0.000324	3.243283	1.098854	-0.000130
1300	1.2925e+02	-11.7462	-35.498535	0.000233	2.331109	0.789801	-0.000093
1301	1.2935e+02	-11.7927	-35.583314	0.000213	2.128404	0.721123	-0.000085
1302	1.2945e+02	-11.8296	-35.700391	0.000294	2.939225	0.995836	-0.000118
1303	1.2955e+02	-11.8617	-35.817468	0.000294	2.939225	0.995836	-0.000118
1304	1.2965e+02	-11.9146	-35.942619	0.000314	3.141930	1.064515	-0.000126
1305	1.2975e+02	-11.9499	-36.023362	0.000203	2.027052	0.686784	-0.000081
1306	1.2985e+02	-12.0013	-36.136402	0.000284	2.837872	0.961497	-0.000114
1307	1.2995e+02	-12.0285	-36.200996	0.000162	1.621641	0.549427	-0.000065
1308	1.3005e+02	-12.0686	-36.318073	0.000294	2.939225	0.995836	-0.000118
1309	1.3015e+02	-12.1136	-36.443224	0.000314	3.141930	1.064515	-0.000126
1310	1.3025e+02	-12.1473	-36.528004	0.000213	2.128404	0.721123	-0.000085
1311	1.3034e+02	-12.1874	-36.653155	0.000314	3.141930	1.064515	-0.000126
1312	1.3044e+02	-12.2339	-36.790418	0.000345	3.445988	1.167532	-0.000138
1313	1.3054e+02	-12.2676	-36.842901	0.000132	1.317584	0.446409	-0.000053
1314	1.3064e+02	-12.3093	-36.947866	0.000264	2.635167	0.892819	-0.000105
1315	1.3074e+02	-12.3494	-37.052832	0.000264	2.635167	0.892819	-0.000105
1316	1.3084e+02	-12.3831	-37.133575	0.000203	2.027052	0.686784	-0.000081
1317	1.3094e+02	-12.4296	-37.230466	0.000243	2.432462	0.824140	-0.000097
1318	1.3104e+02	-12.4729	-37.343506	0.000284	2.837872	0.961497	-0.000114
1319	1.3114e+02	-12.5114	-37.468657	0.000314	3.141930	1.064515	-0.000126
1320	1.3124e+02	-12.5451	-37.565548	0.000243	2.432462	0.824140	-0.000097
1321	1.3134e+02	-12.5868	-37.650328	0.000213	2.128404	0.721123	-0.000085
1322	1.3144e+02	-12.6237	-37.775479	0.000314	3.141930	1.064515	-0.000126
1323	1.3154e+02	-12.6622	-37.880445	0.000264	2.635167	0.892819	-0.000105
1324	1.3164e+02	-12.7039	-37.941002	0.000152	1.520289	0.515088	-0.000061
1325	1.3174e+02	-12.7456	-38.082301	0.000355	3.547340	1.201871	-0.000142
1326	1.3184e+02	-12.7938	-38.130747	0.000122	1.216231	0.412070	-0.000049
1327	1.3194e+02	-12.8274	-38.231675	0.000253	2.533815	0.858480	-0.000101
1328	1.3204e+02	-12.8611	-38.340678	0.000274	2.736520	0.927158	-0.000110
1329	1.3214e+02	-12.9077	-38.445644	0.000264	2.635167	0.892819	-0.000105
1330	1.3224e+02	-12.9478	-38.554646	0.000274	2.736520	0.927158	-0.000110
1331	1.3234e+02	-12.9879	-38.659612	0.000264	2.635167	0.892819	-0.000105
1332	1.3243e+02	-13.0328	-38.756503	0.000243	2.432462	0.824140	-0.000097
1333	1.3253e+02	-13.0569	-38.817060	0.000152	1.520289	0.515088	-0.000061
1334	1.3263e+02	-13.1098	-38.905877	0.000223	2.229757	0.755462	-0.000089
1335	1.3273e+02	-13.1515	-39.043140	0.000345	3.445988	1.167532	-0.000138
1336	1.3283e+02	-13.1836	-39.144068	0.000253	2.533815	0.858480	-0.000101
1337	1.3293e+02	-13.2301	-39.208662	0.000162	1.621641	0.549427	-0.000065
1338	1.3303e+02	-13.2638	-39.366111	0.000395	3.952751	1.339228	-0.000158
1339	1.3313e+02	-13.3135	-39.458965	0.000233	2.331109	0.789801	-0.000093
1340	1.3323e+02	-13.3376	-39.559893	0.000253	2.533815	0.858480	-0.000101
1341	1.3333e+02	-13.3873	-39.616413	0.000142	1.418936	0.480749	-0.000057
1342	1.3343e+02	-13.4306	-39.705230	0.000223	2.229757	0.755462	-0.000089
1343	1.3353e+02	-13.4643	-39.777898	0.000182	1.824346	0.618105	-0.000073
1344	1.3363e+02	-13.5092	-39.907087	0.000324	3.243283	1.098854	-0.000130
1345	1.3373e+02	-13.5413	-39.963607	0.000142	1.418936	0.480749	-0.000057
1346	1.3383e+02	-13.5782	-40.145278	0.000456	4.560866	1.545263	-0.000183
1347	1.3393e+02	-13.6247	-40.173538	0.000071	0.709468	0.240374	-0.000028
1348	1.3403e+02	-13.6584	-40.306763	0.000334	3.344635	1.133193	-0.000134
1349	1.3413e+02	-13.7082	-40.403654	0.000243	2.432462	0.824140	-0.000097
1350	1.3423e+02	-13.7386	-40.472286	0.000172	1.722994	0.583766	-0.000069
1351	1.3432e+02	-13.7932	-40.573214	0.000253	2.533815	0.858480	-0.000101
1352	1.3442e+02	-13.8253	-40.670105	0.000243	2.432462	0.824140	-0.000097
1353	1.3452e+02	-13.8622	-40.775071	0.000264	2.635167	0.892819	-0.000105
1354	1.3462e+02	-13.9039	-40.855814	0.000203	2.027052	0.686784	-0.000081
1355	1.3472e+02	-13.9472	-40.960779	0.000264	2.635167	0.892819	-0.000105
1356	1.3482e+02	-13.9841	-41.029411	0.000172	1.722994	0.583766	-0.000069
1357	1.3492e+02	-14.0290	-41.150525	0.000304	3.040577	1.030176	-0.000122
1358	1.3502e+02	-14.0611	-41.247416	0.000243	2.432462	0.824140	-0.000097
1359	1.3512e+02	-14.1124	-41.352381	0.000264	2.635167	0.892819	-0.000105
1360	1.3522e+02	-14.1461	-41.433124	0.000203	2.027052	0.686784	-0.000081
1361	1.3532e+02	-14.1830	-41.521941	0.000223	2.229757	0.755462	-0.000089
1362	1.3542e+02	-14.2263	-41.598647	0.000193	1.925699	0.652445	-0.000077
1363	1.3552e+02	-14.2552	-41.723798	0.000314	3.141930	1.064515	-0.000126
1364	1.3562e+02	-14.3017	-41.764169	0.000101	1.013526	0.343392	-0.000041
1365	1.3572e+02	-14.3450	-41.897395	0.000334	3.344635	1.133193	-0.000134
1366	1.3582e+02	-14.3852	-41.994286	0.000243	2.432462	0.824140	-0.000097
1367	1.3592e+02	-14.4301	-42.095214	0.000253	2.533815	0.858480	-0.000101
1368	1.3602e+02	-14.4525	-42.167883	0.000182	1.824346	0.618105	-0.000073
1369	1.3612e+02	-14.5023	-42.297071	0.000324	3.243283	1.098854	-0.000130
1370	1.3622e+02	-14.5392	-42.406074	0.000274	2.736520	0.927158	-0.000110
1371	1.3631e+02	-14.5696	-42.462594	0.000142	1.418936	0.480749	-0.000057
1372	1.3641e+02	-14.6146	-42.551411	0.000223	2.229757	0.755462	-0.000089
1373	1.3651e+02	-14.6611	-42.620042	0.000172	1.722994	0.583766	-0.000069
1374	1.3661e+02	-14.7028	-42.733082	0.000284	2.837872	0.961497	-0.000114
1375	1.3671e+02	-14.7413	-42.850159	0.000294	2.939225	0.995836	-0.000118
1376	1.3681e+02	-14.7782	-42.951087	0.000253	2.533815	0.858480	-0.000101
1377	1.3691e+02	-14.8167	-43.043941	0.000233	2.331109	0.789801	-0.000093
1378	1.3701e+02	-14.8568	-43.104498	0.000152	1.520289	0.515088	-0.000061
1379	1.3711e+02	-14.8969	-43.213501	0.000274	2.736520	0.927158	-0.000110
1380	1.3721e+02	-14.9466	-43.286169	0.000182	1.824346	0.618105	-0.000073
1381	1.3731e+02	-14.9819	-43.387098	0.000253	2.533815	0.858480	-0.000101
1382	1.3741e+02	-15.0172	-43.496100	0.000274	2.736520	0.927158	-0.000110
1383	1.3751e+02	-15.0621	-43.572806	0.000193	1.925699	0.652445	-0.000077
1384	1.3761e+02	-15.0926	-43.665660	0.000233	2.331109	0.789801	-0.000093
1385	1.3771e+02	-15.1295	-43.750440	0.000213	2.128404	0.721123	-0.000085
1386	1.3781e+02	-15.1776	-43.887703	0.000345	3.445988	1.167532	-0.000138
1387	1.3791e+02	-15.2242	-43.956334	0.000172	1.722994	0.583766	-0.000069
1388	1.3801e+02	-15.2530	-44.020928	0.000162	1.621641	0.549427	-0.000065
1389	1.3811e+02	-15.2996	-44.146079	0.000314	3.141930	1.064515	-0.000126
1390	1.3821e+02	-15.3381	-44.251045	0.000264	2.635167	0.892819	-0.000105
1391	1.3831e+02	-15.3782	-44.323713	0.000182	1.824346	0.618105	-0.000073
1392	1.3840e+02	-15.4135	-44.343899	0.000051	0.506763	0.171696	-0.000020
1393	1.3850e+02	-15.4584	-44.485199	0.000355	3.547340	1.201871	-0.000142
1394	1.3860e+02	-15.4969	-44.561904	0.000193	1.925699	0.652445	-0.000077
1395	1.3870e+02	-15.5306	-44.699167	0.000345	3.445988	1.167532	-0.000138
1396	1.3880e+02	-15.5819	-44.796058	0.000243	2.432462	0.824140	-0.000097
1397	1.3890e+02	-15.6140	-44.836430	0.000101	1.013526	0.343392	-0.000041
1398	1.3900e+02	-15.6525	-45.014063	0.000446	4.459514	1.510924	-0.000179
1399	1.3910e+02	-15.6942	-45.074621	0.000152	1.520289	0.515088	-0.000061
1400	1.3920e+02	-15.7359	-45.135178	0.000152	1.520289	0.515088	-0.000061
1401	1.3930e+02	-15.7776	-45.244180	0.000274	2.736520	0.927158	-0.000110
1402	1.3940e+02	-15.8097	-45.349146	0.000264	2.635167	0.892819	-0.000105
1403	1.3950e+02	-15.8530	-45.466223	0.000294	2.939225	0.995836	-0.000118
1404	1.3960e+02	-15.8963	-45.534854	0.000172	1.722994	0.583766	-0.000069
1405	1.3970e+02	-15.9316	-45.643857	0.000274	2.736520	0.927158	-0.000110
1406	1.3980e+02	-15.9717	-45.696339	0.000132	1.317584	0.446409	-0.000053
1407	1.3990e+02	-16.0167	-45.833602	0.000345	3.445988	1.167532	-0.000138
1408	1.4000e+02	-16.0503	-45.894159	0.000152	1.520289	0.515088	-0.000061
1409	1.4010e+02	-16.0953	-45.995087	0.000253	2.533815	0.858480	-0.000101
1410	1.4020e+02	-16.1354	-46.108127	0.000284	2.837872	0.961497	-0.000114
1411	1.4029e+02	-16.1771	-46.160610	0.000132	1.317584	0.446409	-0.000053
1412	1.4039e+02	-16.2156	-46.257501	0.000243	2.432462	0.824140	-0.000097
1413	1.4049e+02	-16.2525	-46.366504	0.000274	2.736520	0.927158	-0.000110
1414	1.4059e+02	-16.2990	-46.479544	0.000284	2.837872	0.961497	-0.000114
1415	1.4069e+02	-16.3311	-46.564324	0.000213	2.128404	0.721123	-0.000085
1416	1.4079e+02	-16.3728	-46.612769	0.000122	1.216231	0.412070	-0.000049
1417	1.4089e+02	-16.4129	-46.721772	0.000274	2.736520	0.927158	-0.000110
1418	1.4099e+02	-16.4578	-46.854997	0.000334	3.344635	1.133193	-0.000134
1419	1.4109e+02	-16.4995	-46.923629	0.000172	1.722994	0.583766	-0.000069
1420	1.4119e+02	-16.5316	-47.036668	0.000284	2.837872	0.961497	-0.000114
1421	1.4129e+02	-16.5701	-47.113374	0.000193	1.925699	0.652445	-0.000077
1422	1.4139e+02	-16.6118	-47.214302	0.000253	2.533815	0.858480	-0.000101
1423	1.4149e+02	-16.6600	-47.274859	0.000152	1.520289	0.515088	-0.000061
1424	1.4159e+02	-16.6936	-47.367714	0.000233	2.331109	0.789801	-0.000093
1425	1.4169e+02	-16.7354	-47.452493	0.000213	2.128404	0.721123	-0.000085
1426	1.4179e+02	-16.7658	-47.585719	0.000334	3.344635	1.133193	-0.000134
1427	1.4189e+02	-16.8059	-47.678573	0.000233	2.331109	0.789801	-0.000093
1428	1.4199e+02	-16.8493	-47.755279	0.000193	1.925699	0.652445	-0.000077
1429	1.4209e+02	-16.8862	-47.856207	0.000253	2.533815	0.858480	-0.000101
1430	1.4219e+02	-16.9311	-47.920801	0.000162	1.621641	0.549427	-0.000065
1431	1.4228e+02	-16.9776	-48.017692	0.000243	2.432462	0.824140	-0.000097
1432	1.4238e+02	-17.0177	-48.150918	0.000334	3.344635	1.133193	-0.000134
1433	1.4248e+02	-17.0530	-48.235698	0.000213	2.128404	0.721123	-0.000085
1434	1.4258e+02	-17.0899	-48.340663	0.000264	2.635167	0.892819	-0.000105
1435	1.4268e+02	-17.1252	-48.433517	0.000233	2.331109	0.789801	-0.000093
1436	1.4278e+02	-17.1733	-48.562706	0.000324	3.243283	1.098854	-0.000130
1437	1.4288e+02	-17.2102	-48.574817	0.000030	0.304058	0.103018	-0.000012
1438	1.4298e+02	-17.2535	-48.699968	0.000314	3.141930	1.064515	-0.000126
1439	1.4308e+02	-17.2920	-48.849342	0.000375	3.750046	1.270550	-0.000150
1440	1.4318e+02	-17.3369	-48.901825	0.000132	1.317584	0.446409	-0.000053
1441	1.4328e+02	-17.3690	-49.031014	0.000324	3.243283	1.098854	-0.000130
1442	1.4338e+02	-17.4139	-49.140016	0.000274	2.736520	0.927158	-0.000110
1443	1.4348e+02	-17.4444	-49.208648	0.000172	1.722994	0.583766	-0.000069
1444	1.4358e+02	-17.4893	-49.265167	0.000142	1.418936	0.480749	-0.000057
1445	1.4368e+02	-17.5214	-49.394356	0.000324	3.243283	1.098854	-0.000130
1446	1.4378e+02	-17.5631	-49.475098	0.000203	2.027052	0.686784	-0.000081
1447	1.4388e+02	-17.6065	-49.604287	0.000324	3.243283	1.098854	-0.000130
1448	1.4398e+02	-17.6434	-49.632547	0.000071	0.709468	0.240374	-0.000028
1449	1.4408e+02	-17.6883	-49.765772	0.000334	3.344635	1.133193	-0.000134
1450	1.4418e+02	-17.7268	-49.894961	0.000324	3.243283	1.098854	-0.000130
1451	1.4428e+02	-17.7733	-49.939369	0.000111	1.114878	0.377731	-0.000045
1452	1.4437e+02	-17.8118	-50.056446	0.000294	2.939225	0.995836	-0.000118
1453	1.4447e+02	-17.8503	-50.100855	0.000111	1.114878	0.377731	-0.000045
1454	1.4457e+02	-17.8856	-50.266377	0.000416	4.155456	1.407907	-0.000166
1455	1.4467e+02	-17.9305	-50.339046	0.000182	1.824346	0.618105	-0.000073
1456	1.4477e+02	-17.9610	-50.431900	0.000233	2.331109	0.789801	-0.000093
1457	1.4487e+02	-18.0155	-50.504568	0.000182	1.824346	0.618105	-0.000073
1458	1.4497e+02	-18.0556	-50.605496	0.000253	2.533815	0.858480	-0.000101
1459	1.4507e+02	-18.0813	-50.710462	0.000264	2.635167	0.892819	-0.000105
1460	1.4517e+02	-18.1262	-50.775056	0.000162	1.621641	0.549427	-0.000065
1461	1.4527e+02	-18.1695	-50.875985	0.000253	2.533815	0.858480	-0.000101
1462	1.4537e+02	-18.2016	-50.989024	0.000284	2.837872	0.961497	-0.000114
1463	1.4547e+02	-18.2417	-51.081878	0.000233	2.331109	0.789801	-0.000093
1464	1.4557e+02	-18.2850	-51.170695	0.000223	2.229757	0.755462	-0.000089
1465	1.4567e+02	-18.3252	-51.267587	0.000243	2.432462	0.824140	-0.000097
1466	1.4577e+02	-18.3685	-51.368515	0.000253	2.533815	0.858480	-0.000101
1467	1.4587e+02	-18.4086	-51.469444	0.000253	2.533815	0.858480	-0.000101
1468	1.4597e+02	-18.4455	-51.530001	0.000152	1.520289	0.515088	-0.000061
1469	1.4607e+02	-18.4904	-51.639003	0.000274	2.736520	0.927158	-0.000110
1470	1.4617e+02	-18.5209	-51.752043	0.000284	2.837872	0.961497	-0.000114
1471	1.4626e+02	-18.5594	-51.820674	0.000172	1.722994	0.583766	-0.000069
1472	1.4636e+02	-18.6043	-51.905454	0.000213	2.128404	0.721123	-0.000085
1473	1.4646e+02	-18.6444	-52.046754	0.000355	3.547340	1.201871	-0.000142
1474	1.4656e+02	-18.6845	-52.163831	0.000294	2.939225	0.995836	-0.000118
1475	1.4666e+02	-18.7262	-52.256685	0.000233	2.331109	0.789801	-0.000093
1476	1.4676e+02	-18.7647	-52.288982	0.000081	0.810821	0.274713	-0.000032
1477	1.4686e+02	-18.8032	-52.402022	0.000284	2.837872	0.961497	-0.000114
1478	1.4696e+02	-18.8385	-52.490839	0.000223	2.229757	0.755462	-0.000089
1479	1.4706e+02	-18.8866	-52.595804	0.000264	2.635167	0.892819	-0.000105
1480	1.4716e+02	-18.9171	-52.700770	0.000264	2.635167	0.892819	-0.000105
1481	1.4726e+02	-18.9588	-52.801698	0.000253	2.533815	0.858480	-0.000101
1482	1.4736e+02	-18.9973	-52.894552	0.000233	2.331109	0.789801	-0.000093
1483	1.4746e+02	-19.0390	-52.987407	0.000233	2.331109	0.789801	-0.000093
1484	1.4756e+02	-19.0856	-53.056038	0.000172	1.722994	0.583766	-0.000069
1485	1.4766e+02	-19.1257	-53.205412	0.000375	3.750046	1.270550	-0.000150
1486	1.4776e+02	-19.1690	-53.282117	0.000193	1.925699	0.652445	-0.000077
1487	1.4786e+02	-19.2043	-53.318452	0.000091	0.912173	0.309053	-0.000037
1488	1.4796e+02	-19.2492	-53.439566	0.000304	3.040577	1.030176	-0.000122
1489	1.4806e+02	-19.2813	-53.552606	0.000284	2.837872	0.961497	-0.000114
1490	1.4816e+02	-19.3246	-53.609125	0.000142	1.418936	0.480749	-0.000057
1491	1.4825e+02	-19.3679	-53.718128	0.000274	2.736520	0.927158	-0.000110
1492	1.4835e+02	-19.4032	-53.823094	0.000264	2.635167	0.892819	-0.000105
1493	1.4845e+02	-19.4513	-53.899799	0.000193	1.925699	0.652445	-0.000077
1494	1.4855e+02	-19.4770	-54.020913	0.000304	3.040577	1.030176	-0.000122
1495	1.4865e+02	-19.5219	-54.097619	0.000193	1.925699	0.652445	-0.000077
1496	1.4875e+02	-19.5524	-54.186436	0.000223	2.229757	0.755462	-0.000089
1497	1.4885e+02	-19.6085	-54.295439	0.000274	2.736520	0.927158	-0.000110
1498	1.4895e+02	-19.6422	-54.412515	0.000294	2.939225	0.995836	-0.000118
1499	1.4905e+02	-19.6807	-54.497295	0.000213	2.128404	0.721123	-0.000085
1500	1.4915e+02	-19.7273	-54.598224	0.000253	2.533815	0.858480	-0.000101
1501	1.4925e+02	-19.7561	-54.678966	0.000203	2.027052	0.686784	-0.000081
1502	1.4935e+02	-19.8075	-54.731449	0.000132	1.317584	0.446409	-0.000053
1503	1.4945e+02	-19.8428	-54.864675	0.000334	3.344635	1.133193	-0.000134
1504	1.4955e+02	-19.8813	-54.953492	0.000223	2.229757	0.755462	-0.000089
1505	1.4965e+02	-19.9214	-55.038272	0.000213	2.128404	0.721123	-0.000085
1506	1.4975e+02	-19.9599	-55.127089	0.000223	2.229757	0.755462	-0.000089
1507	1.4985e+02	-20.0000	-55.256277	0.000324	3.243283	1.098854	-0.000130
1508	1.4995e+02	-19.9583	-55.183608	0.000182	1.824346	0.618105	0.000073
1509	1.5005e+02	-19.9198	-55.131126	0.000132	1.317584	0.446409	0.000053
1510	1.5015e+02	-19.8797	-55.062494	0.000172	1.722994	0.583766	0.000069
1511	1.5025e+02	-19.8379	-55.042309	0.000051	0.506763	0.171696	0.000020
1512	1.5034e+02	-19.7946	-54.973677	0.000172	1.722994	0.583766	0.000069
1513	1.5044e+02	-19.7577	-54.933306	0.000101	1.013526	0.343392	0.000041
1514	1.5054e+02	-19.7144	-54.868712	0.000162	1.621641	0.549427	0.000065
1515	1.5064e+02	-19.6839	-54.792006	0.000193	1.925699	0.652445	0.000077
1516	1.5074e+02	-19.6470	-54.699152	0.000233	2.331109	0.789801	0.000093
1517	1.5084e+02	-19.5925	-54.703189	-0.000010	-0.101353	-0.034339	-0.000004
1518	1.5094e+02	-19.5588	-54.626484	0.000193	1.925699	0.652445	0.000077
1519	1.5104e+02	-19.5155	-54.574001	0.000132	1.317584	0.446409	0.000053
1520	1.5114e+02	-19.4754	-54.505370	0.000172	1.722994	0.583766	0.000069
1521	1.5124e+02	-19.4401	-54.416553	0.000223	2.229757	0.755462	0.000089
1522	1.5134e+02	-19.4000	-54.355996	0.000152	1.520289	0.515088	0.000061
1523	1.5144e+02	-19.3615	-54.287364	0.000172	1.722994	0.583766	0.000069
1524	1.5154e+02	-19.3230	-54.218733	0.000172	1.722994	0.583766	0.000069
1525	1.5164e+02	-19.2829	-54.186436	0.000081	0.810821	0.274713	0.000032
1526	1.5174e+02	-19.2476	-54.081470	0.000264	2.635167	0.892819	0.000105
1527	1.5184e+02	-19.2043	-54.041099	0.000101	1.013526	0.343392	0.000041
1528	1.5194e+02	-19.1674	-53.948245	0.000233	2.331109	0.789801	0.000093
1529	1.5204e+02	-19.1241	-53.879614	0.000172	1.722994	0.583766	0.000069
1530	1.5214e+02	-19.0759	-53.786759	0.000233	2.331109	0.789801	0.000093
1531	1.5224e+02	-19.0406	-53.762537	0.000061	0.608115	0.206035	0.000024
1532	1.5233e+02	-19.0021	-53.693905	0.000172	1.722994	0.583766	0.000069
1533	1.5243e+02	-18.9636	-53.601051	0.000233	2.331109	0.789801	0.000093
1534	1.5253e+02	-18.9219	-53.540494	0.000152	1.520289	0.515088	0.000061
1535	1.5263e+02	-18.8866	-53.443603	0.000243	2.432462	0.824140	0.000097
1536	1.5273e+02	-18.8465	-53.443603	0.000000	0.000000	0.000000	0.000000
1537	1.5283e+02	-18.8048	-53.346712	0.000243	2.432462	0.824140	0.000097
1538	1.5293e+02	-18.7615	-53.257895	0.000223	2.229757	0.755462	0.000089
1539	1.5303e+02	-18.7262	-53.229635	0.000071	0.709468	0.240374	0.000028
1540	1.5313e+02	-18.6781	-53.120632	0.000274	2.736520	0.927158	0.000110
1541	1.5323e+02	-18.6428	-53.080261	0.000101	1.013526	0.343392	0.000041
1542	1.5333e+02	-18.6091	-52.983369	0.000243	2.432462	0.824140	0.000097
1543	1.5343e+02	-18.5690	-52.930887	0.000132	1.317584	0.446409	0.000053
1544	1.5353e+02	-18.5257	-52.858218	0.000182	1.824346	0.618105	0.000073
1545	1.5363e+02	-18.4920	-52.761327	0.000243	2.432462	0.824140	0.000097
1546	1.5373e+02	-18.4583	-52.708844	0.000132	1.317584	0.446409	0.000053
1547	1.5383e+02	-18.4118	-52.603879	0.000264	2.635167	0.892819	0.000105
1548	1.5393e+02	-18.3733	-52.567544	0.000091	0.912173	0.309053	0.000037
1549	1.5403e+02	-18.3332	-52.486802	0.000203	2.027052	0.686784	0.000081
1550	1.5413e+02	-18.2834	-52.397985	0.000223	2.229757	0.755462	0.000089
1551	1.5422e+02	-18.2514	-52.337428	0.000152	1.520289	0.515088	0.000061
1552	1.5432e+02	-18.2096	-52.224388	0.000284	2.837872	0.961497	0.000114
1553	1.5442e+02	-18.1711	-52.196128	0.000071	0.709468	0.240374	0.000028
1554	1.5452e+02	-18.1359	-52.123460	0.000182	1.824346	0.618105	0.000073
1555	1.5462e+02	-18.0877	-52.034643	0.000223	2.229757	0.755462	0.000089
1556	1.5472e+02	-18.0540	-51.978123	0.000142	1.418936	0.480749	0.000057
1557	1.5482e+02	-18.0091	-51.905454	0.000182	1.824346	0.618105	0.000073
1558	1.5492e+02	-17.9594	-51.828749	0.000193	1.925699	0.652445	0.000077
1559	1.5502e+02	-17.9241	-51.743969	0.000213	2.128404	0.721123	0.000085
1560	1.5512e+02	-17.8856	-51.630929	0.000284	2.837872	0.961497	0.000114
1561	1.5522e+02	-17.8487	-51.610743	0.000051	0.506763	0.171696	0.000020
1562	1.5532e+02	-17.8070	-51.505778	0.000264	2.635167	0.892819	0.000105
1563	1.5542e+02	-17.7637	-51.445221	0.000152	1.520289	0.515088	0.000061
1564	1.5552e+02	-17.7348	-51.356404	0.000223	2.229757	0.755462	0.000089
1565	1.5562e+02	-17.6867	-51.303921	0.000132	1.317584	0.446409	0.000053
1566	1.5572e+02	-17.6530	-51.198955	0.000264	2.635167	0.892819	0.000105
1567	1.5582e+02	-17.6049	-51.146473	0.000132	1.317584	0.446409	0.000053
1568	1.5592e+02	-17.5760	-51.053619	0.000233	2.331109	0.789801	0.000093
1569	1.5602e+02	-17.5343	-50.984987	0.000172	1.722994	0.583766	0.000069
1570	1.5612e+02	-17.4893	-50.904245	0.000203	2.027052	0.686784	0.000081
1571	1.5622e+02	-17.4428	-50.835613	0.000172	1.722994	0.583766	0.000069
1572	1.5631e+02	-17.4059	-50.714499	0.000304	3.040577	1.030176	0.000122
1573	1.5641e+02	-17.3770	-50.742759	-0.000071	-0.709468	-0.240374	-0.000028
1574	1.5651e+02	-17.3241	-50.609534	0.000334	3.344635	1.133193	0.000134
1575	1.5661e+02	-17.2952	-50.516679	0.000233	2.331109	0.789801	0.000093
1576	1.5671e+02	-17.2551	-50.427863	0.000223	2.229757	0.755462	0.000089
1577	1.5681e+02	-17.2150	-50.407677	0.000051	0.506763	0.171696	0.000020
1578	1.5691e+02	-17.1733	-50.322897	0.000213	2.128404	0.721123	0.000085
1579	1.5701e+02	-17.1268	-50.238117	0.000213	2.128404	0.721123	0.000085
1580	1.5711e+02	-17.0851	-50.169486	0.000172	1.722994	0.583766	0.000069
1581	1.5721e+02	-17.0482	-50.088743	0.000203	2.027052	0.686784	0.000081
1582	1.5731e+02	-17.0113	-50.020112	0.000172	1.722994	0.583766	0.000069
1583	1.5741e+02	-16.9712	-49.963592	0.000142	1.418936	0.480749	0.000057
1584	1.5751e+02	-16.9295	-49.822292	0.000355	3.547340	1.201871	0.000142
1585	1.5761e+02	-16.8894	-49.773847	0.000122	1.216231	0.412070	0.000049
1586	1.5771e+02	-16.8541	-49.693104	0.000203	2.027052	0.686784	0.000081
1587	1.5781e+02	-16.8092	-49.604287	0.000223	2.229757	0.755462	0.000089
1588	1.5791e+02	-16.7723	-49.555841	0.000122	1.216231	0.412070	0.000049
1589	1.5801e+02	-16.7370	-49.450876	0.000264	2.635167	0.892819	0.000105
1590	1.5811e+02	-16.6953	-49.414541	0.000091	0.912173	0.309053	0.000037
1591	1.5821e+02	-16.6567	-49.281316	0.000334	3.344635	1.133193	0.000134
1592	1.5830e+02	-16.6118	-49.224796	0.000142	1.418936	0.480749	0.000057
1593	1.5840e+02	-16.5765	-49.160202	0.000162	1.621641	0.549427	0.000065
1594	1.5850e+02	-16.5300	-49.087533	0.000182	1.824346	0.618105	0.000073
1595	1.5860e+02	-16.4915	-49.026976	0.000152	1.520289	0.515088	0.000061
1596	1.5870e+02	-16.4562	-48.950271	0.000193	1.925699	0.652445	0.000077
1597	1.5880e+02	-16.4033	-48.877602	0.000182	1.824346	0.618105	0.000073
1598	1.5890e+02	-16.3792	-48.804934	0.000182	1.824346	0.618105	0.000073
1599	1.5900e+02	-16.3375	-48.679783	0.000314	3.141930	1.064515	0.000126
1600	1.5910e+02	-16.2958	-48.655560	0.000061	0.608115	0.206035	0.000024
1601	1.5920e+02	-16.2557	-48.518297	0.000345	3.445988	1.167532	0.000138
1602	1.5930e+02	-16.2124	-48.469852	0.000122	1.216231	0.412070	0.000049
1603	1.5940e+02	-16.1739	-48.376998	0.000233	2.331109	0.789801	0.000093
1604	1.5950e+02	-16.1370	-48.312403	0.000162	1.621641	0.549427	0.000065
1605	1.5960e+02	-16.0840	-48.267995	0.000111	1.114878	0.377731	0.000045
1606	1.5970e+02	-16.0552	-48.171104	0.000243	2.432462	0.824140	0.000097
1607	1.5980e+02	-16.0118	-48.102472	0.000172	1.722994	0.583766	0.000069
1608	1.5990e+02	-15.9701	-47.969247	0.000334	3.344635	1.133193	0.000134
1609	1.6000e+02	-15.9381	-47.924838	0.000111	1.114878	0.377731	0.000045
1610	1.6010e+02	-15.8931	-47.900616	0.000061	0.608115	0.206035	0.000024
1611	1.6019e+02	-15.8562	-47.767390	0.000334	3.344635	1.133193	0.000134
1612	1.6029e+02	-15.8113	-47.686647	0.000203	2.027052	0.686784	0.000081
1613	1.6039e+02	-15.7664	-47.613979	0.000182	1.824346	0.618105	0.000073
1614	1.6049e+02	-15.7311	-47.557459	0.000142	1.418936	0.480749	0.000057
1615	1.6059e+02	-15.6942	-47.484791	0.000182	1.824346	0.618105	0.000073
1616	1.6069e+02	-15.6557	-47.436345	0.000122	1.216231	0.412070	0.000049
1617	1.6079e+02	-15.6156	-47.335417	0.000253	2.533815	0.858480	0.000101
1618	1.6089e+02	-15.5819	-47.230451	0.000264	2.635167	0.892819	0.000105
1619	1.6099e+02	-15.5370	-47.169894	0.000152	1.520289	0.515088	0.000061
1620	1.6109e+02	-15.4985	-47.085114	0.000213	2.128404	0.721123	0.000085
1621	1.6119e+02	-15.4568	-47.004371	0.000203	2.027052	0.686784	0.000081
1622	1.6129e+02	-15.4103	-46.907480	0.000243	2.432462	0.824140	0.000097
1623	1.6139e+02	-15.3718	-46.842886	0.000162	1.621641	0.549427	0.000065
1624	1.6149e+02	-15.3381	-46.762143	0.000203	2.027052	0.686784	0.000081
1625	1.6159e+02	-15.3028	-46.697549	0.000162	1.621641	0.549427	0.000065
1626	1.6169e+02	-15.2595	-46.584509	0.000284	2.837872	0.961497	0.000114
1627	1.6179e+02	-15.2161	-46.511841	0.000182	1.824346	0.618105	0.000073
1628	1.6189e+02	-15.1744	-46.431098	0.000203	2.027052	0.686784	0.000081
1629	1.6199e+02	-15.1407	-46.366504	0.000162	1.621641	0.549427	0.000065
1630	1.6209e+02	-15.1039	-46.293836	0.000182	1.824346	0.618105	0.000073
1631	1.6219e+02	-15.0525	-46.200981	0.000233	2.331109	0.789801	0.000093
1632	1.6228e+02	-15.0317	-46.120239	0.000203	2.027052	0.686784	0.000081
1633	1.6238e+02	-14.9819	-45.999125	0.000304	3.040577	1.030176	0.000122
1634	1.6248e+02	-14.9354	-45.970865	0.000071	0.709468	0.240374	0.000028
1635	1.6258e+02	-14.9001	-45.861862	0.000274	2.736520	0.927158	0.000110
1636	1.6268e+02	-14.8552	-45.805342	0.000142	1.418936	0.480749	0.000057
1637	1.6278e+02	-14.8215	-45.748822	0.000142	1.418936	0.480749	0.000057
1638	1.6288e+02	-14.7846	-45.619634	0.000324	3.243283	1.098854	0.000130
1639	1.6298e+02	-14.7333	-45.567151	0.000132	1.317584	0.446409	0.000053
1640	1.6308e+02	-14.7044	-45.462186	0.000264	2.635167	0.892819	0.000105
1641	1.6318e+02	-14.6611	-45.385480	0.000193	1.925699	0.652445	0.000077
1642	1.6328e+02	-14.6274	-45.280514	0.000264	2.635167	0.892819	0.000105
1643	1.6338e+02	-14.5857	-45.219957	0.000152	1.520289	0.515088	0.000061
1644	1.6348e+02	-14.5440	-45.127103	0.000233	2.331109	0.789801	0.000093
1645	1.6358e+02	-14.4958	-45.030212	0.000243	2.432462	0.824140	0.000097
1646	1.6368e+02	-14.4606	-44.993878	0.000091	0.912173	0.309053	0.000037
1647	1.6378e+02	-14.4253	-44.921209	0.000182	1.824346	0.618105	0.000073
1648	1.6388e+02	-14.3787	-44.804132	0.000294	2.939225	0.995836	0.000118
1649	1.6398e+02	-14.3434	-44.751650	0.000132	1.317584	0.446409	0.000053
1650	1.6408e+02	-14.3114	-44.634573	0.000294	2.939225	0.995836	0.000118
1651	1.6418e+02	-14.2568	-44.541719	0.000233	2.331109	0.789801	0.000093
1652	1.6427e+02	-14.2215	-44.469050	0.000182	1.824346	0.618105	0.000073
1653	1.6437e+02	-14.1878	-44.384270	0.000213	2.128404	0.721123	0.000085
1654	1.6447e+02	-14.1445	-44.299490	0.000213	2.128404	0.721123	0.000085
1655	1.6457e+02	-14.1012	-44.202599	0.000243	2.432462	0.824140	0.000097
1656	1.6467e+02	-14.0579	-44.093597	0.000274	2.736520	0.927158	0.000110
1657	1.6477e+02	-14.0210	-44.000742	0.000233	2.331109	0.789801	0.000093
1658	1.6487e+02	-13.9889	-43.968445	0.000081	0.810821	0.274713	0.000032
1659	1.6497e+02	-13.9392	-43.871554	0.000243	2.432462	0.824140	0.000097
1660	1.6507e+02	-13.9087	-43.754477	0.000294	2.939225	0.995836	0.000118
1661	1.6517e+02	-13.8734	-43.697957	0.000142	1.418936	0.480749	0.000057
1662	1.6527e+02	-13.8157	-43.597029	0.000253	2.533815	0.858480	0.000101
1663	1.6537e+02	-13.7772	-43.520323	0.000193	1.925699	0.652445	0.000077
1664	1.6547e+02	-13.7483	-43.439581	0.000203	2.027052	0.686784	0.000081
1665	1.6557e+02	-13.7050	-43.338652	0.000253	2.533815	0.858480	0.000101
1666	1.6567e+02	-13.6649	-43.253872	0.000213	2.128404	0.721123	0.000085
1667	1.6577e+02	-13.6215	-43.189278	0.000162	1.621641	0.549427	0.000065
1668	1.6587e+02	-13.5814	-43.064127	0.000314	3.141930	1.064515	0.000126
1669	1.6597e+02	-13.5494	-42.999533	0.000162	1.621641	0.549427	0.000065
1670	1.6607e+02	-13.4996	-42.918790	0.000203	2.027052	0.686784	0.000081
1671	1.6616e+02	-13.4611	-42.809787	0.000274	2.736520	0.927158	0.000110
1672	1.6626e+02	-13.4258	-42.729045	0.000203	2.027052	0.686784	0.000081
1673	1.6636e+02	-13.3986	-42.603893	0.000314	3.141930	1.064515	0.000126
1674	1.6646e+02	-13.3424	-42.575633	0.000071	0.709468	0.240374	0.000028
1675	1.6656e+02	-13.3007	-42.434334	0.000355	3.547340	1.201871	0.000142
1676	1.6666e+02	-13.2654	-42.353591	0.000203	2.027052	0.686784	0.000081
1677	1.6676e+02	-13.2253	-42.276885	0.000193	1.925699	0.652445	0.000077
1678	1.6686e+02	-13.1852	-42.179994	0.000243	2.432462	0.824140	0.000097
1679	1.6696e+02	-13.1451	-42.099251	0.000203	2.027052	0.686784	0.000081
1680	1.6706e+02	-13.1098	-41.990249	0.000274	2.736520	0.927158	0.000110
1681	1.6716e+02	-13.0729	-41.921618	0.000172	1.722994	0.583766	0.000069
1682	1.6726e+02	-13.0216	-41.828763	0.000233	2.331109	0.789801	0.000093
1683	1.6736e+02	-12.9782	-41.739946	0.000223	2.229757	0.755462	0.000089
1684	1.6746e+02	-12.9574	-41.639018	0.000253	2.533815	0.858480	0.000101
1685	1.6756e+02	-12.9141	-41.546164	0.000233	2.331109	0.789801	0.000093
1686	1.6766e+02	-12.8611	-41.445235	0.000253	2.533815	0.858480	0.000101
1687	1.6776e+02	-12.8258	-41.324121	0.000304	3.040577	1.030176	0.000122
1688	1.6786e+02	-12.7905	-41.235304	0.000223	2.229757	0.755462	0.000089
1689	1.6796e+02	-12.7472	-41.146487	0.000223	2.229757	0.755462	0.000089
1690	1.6806e+02	-12.7087	-41.098042	0.000122	1.216231	0.412070	0.000049
1691	1.6816e+02	-12.6702	-41.001151	0.000243	2.432462	0.824140	0.000097
1692	1.6825e+02	-12.6269	-40.888111	0.000284	2.837872	0.961497	0.000114
1693	1.6835e+02	-12.5868	-40.811405	0.000193	1.925699	0.652445	0.000077
1694	1.6845e+02	-12.5547	-40.706440	0.000264	2.635167	0.892819	0.000105
1695	1.6855e+02	-12.5146	-40.605511	0.000253	2.533815	0.858480	0.000101
1696	1.6865e+02	-12.4633	-40.524769	0.000203	2.027052	0.686784	0.000081
1697	1.6875e+02	-12.4296	-40.391543	0.000334	3.344635	1.133193	0.000134
1698	1.6885e+02	-12.3911	-40.318875	0.000182	1.824346	0.618105	0.000073
1699	1.6895e+02	-12.3542	-40.238132	0.000203	2.027052	0.686784	0.000081
1700	1.6905e+02	-12.3029	-40.145278	0.000233	2.331109	0.789801	0.000093
1701	1.6915e+02	-12.2724	-40.012052	0.000334	3.344635	1.133193	0.000134
1702	1.6925e+02	-12.2307	-39.955532	0.000142	1.418936	0.480749	0.000057
1703	1.6935e+02	-12.1890	-39.822307	0.000334	3.344635	1.133193	0.000134
1704	1.6945e+02	-12.1456	-39.777898	0.000111	1.114878	0.377731	0.000045
1705	1.6955e+02	-12.1168	-39.656784	0.000304	3.040577	1.030176	0.000122
1706	1.6965e+02	-12.0735	-39.592190	0.000162	1.621641	0.549427	0.000065
1707	1.6975e+02	-12.0269	-39.527596	0.000162	1.621641	0.549427	0.000065
1708	1.6985e+02	-11.9948	-39.414556	0.000284	2.837872	0.961497	0.000114
1709	1.6995e+02	-11.9451	-39.317665	0.000243	2.432462	0.824140	0.000097
1710	1.7005e+02	-11.9114	-39.180402	0.000345	3.445988	1.167532	0.000138
1711	1.7015e+02	-11.8601	-39.111771	0.000172	1.722994	0.583766	0.000069
1712	1.7024e+02	-11.8232	-39.014880	0.000243	2.432462	0.824140	0.000097
1713	1.7034e+02	-11.7863	-38.950286	0.000162	1.621641	0.549427	0.000065
1714	1.7044e+02	-11.7542	-38.833209	0.000294	2.939225	0.995836	0.000118
1715	1.7054e+02	-11.7125	-38.716132	0.000294	2.939225	0.995836	0.000118
1716	1.7064e+02	-11.6708	-38.615203	0.000253	2.533815	0.858480	0.000101
1717	1.7074e+02	-11.6339	-38.530423	0.000213	2.128404	0.721123	0.000085
1718	1.7084e+02	-11.5858	-38.429495	0.000253	2.533815	0.858480	0.000101
1719	1.7094e+02	-11.5521	-38.300307	0.000324	3.243283	1.098854	0.000130
1720	1.7104e+02	-11.5152	-38.263973	0.000091	0.912173	0.309053	0.000037
1721	1.7114e+02	-11.4703	-38.150933	0.000284	2.837872	0.961497	0.000114
1722	1.7124e+02	-11.4350	-38.066153	0.000213	2.128404	0.721123	0.000085
1723	1.7134e+02	-11.3917	-37.957150	0.000274	2.736520	0.927158	0.000110
1724	1.7144e+02	-11.3580	-37.852185	0.000264	2.635167	0.892819	0.000105
1725	1.7154e+02	-11.3114	-37.755293	0.000243	2.432462	0.824140	0.000097
1726	1.7164e+02	-11.2649	-37.662439	0.000233	2.331109	0.789801	0.000093
1727	1.7174e+02	-11.2393	-37.561511	0.000253	2.533815	0.858480	0.000101
1728	1.7184e+02	-11.1879	-37.488842	0.000182	1.824346	0.618105	0.000073
1729	1.7194e+02	-11.1574	-37.387914	0.000253	2.533815	0.858480	0.000101
1730	1.7204e+02	-11.1157	-37.286986	0.000253	2.533815	0.858480	0.000101
1731	1.7213e+02	-11.0724	-37.165872	0.000304	3.040577	1.030176	0.000122
1732	1.7223e+02	-11.0371	-37.097240	0.000172	1.722994	0.583766	0.000069
1733	1.7233e+02	-10.9922	-36.984200	0.000284	2.837872	0.961497	0.000114
1734	1.7243e+02	-10.9521	-36.887309	0.000243	2.432462	0.824140	0.000097
1735	1.7253e+02	-10.9168	-36.786381	0.000253	2.533815	0.858480	0.000101
1736	1.7263e+02	-10.8623	-36.645081	0.000355	3.547340	1.201871	0.000142
1737	1.7273e+02	-10.8334	-36.612784	0.000081	0.810821	0.274713	0.000032
1738	1.7283e+02	-10.7901	-36.495707	0.000294	2.939225	0.995836	0.000118
1739	1.7293e+02	-10.7564	-36.427076	0.000172	1.722994	0.583766	0.000069
1740	1.7303e+02	-10.7163	-36.289813	0.000345	3.445988	1.167532	0.000138
1741	1.7313e+02	-10.6714	-36.221182	0.000172	1.722994	0.583766	0.000069
1742	1.7323e+02	-10.6409	-36.091993	0.000324	3.243283	1.098854	0.000130
1743	1.7333e+02	-10.5911	-36.027399	0.000162	1.621641	0.549427	0.000065
1744	1.7343e+02	-10.5591	-35.926471	0.000253	2.533815	0.858480	0.000101
1745	1.7353e+02	-10.5141	-35.833617	0.000233	2.331109	0.789801	0.000093
1746	1.7363e+02	-10.4837	-35.769023	0.000162	1.621641	0.549427	0.000065
1747	1.7373e+02	-10.4355	-35.664057	0.000264	2.635167	0.892819	0.000105
1748	1.7383e+02	-10.3970	-35.538906	0.000314	3.141930	1.064515	0.000126
1749	1.7393e+02	-10.3666	-35.397606	0.000355	3.547340	1.201871	0.000142
1750	1.7403e+02	-10.3200	-35.369346	0.000071	0.709468	0.240374	0.000028
1751	1.7413e+02	-10.2799	-35.232084	0.000345	3.445988	1.167532	0.000138
1752	1.7422e+02	-10.2318	-35.143267	0.000223	2.229757	0.755462	0.000089
1753	1.7432e+02	-10.1949	-35.034264	0.000274	2.736520	0.927158	0.000110
1754	1.7442e+02	-10.1500	-34.985818	0.000122	1.216231	0.412070	0.000049
1755	1.7452e+02	-10.1131	-34.901038	0.000213	2.128404	0.721123	0.000085
1756	1.7462e+02	-10.0826	-34.739553	0.000405	4.054103	1.373567	0.000162
1757	1.7472e+02	-10.0441	-34.650736	0.000223	2.229757	0.755462	0.000089
1758	1.7482e+02	-9.9992	-34.553845	0.000243	2.432462	0.824140	0.000097
1759	1.7492e+02	-9.9591	-34.473102	0.000203	2.027052	0.686784	0.000081
1760	1.7502e+02	-9.9174	-34.351988	0.000304	3.040577	1.030176	0.000122
1761	1.7512e+02	-9.8853	-34.259134	0.000233	2.331109	0.789801	0.000093
1762	1.7522e+02	-9.8307	-34.182428	0.000193	1.925699	0.652445	0.000077
1763	1.7532e+02	-9.8003	-34.065351	0.000294	2.939225	0.995836	0.000118
1764	1.7542e+02	-9.7698	-33.956349	0.000274	2.736520	0.927158	0.000110
1765	1.7552e+02	-9.7217	-33.859457	0.000243	2.432462	0.824140	0.000097
1766	1.7562e+02	-9.6831	-33.742380	0.000294	2.939225	0.995836	0.000118
1767	1.7572e+02	-9.6430	-33.657601	0.000213	2.128404	0.721123	0.000085
1768	1.7582e+02	-9.6045	-33.588969	0.000172	1.722994	0.583766	0.000069
1769	1.7592e+02	-9.5596	-33.508227	0.000203	2.027052	0.686784	0.000081
1770	1.7602e+02	-9.5211	-33.362890	0.000365	3.648693	1.236211	0.000146
1771	1.7612e+02	-9.4858	-33.261961	0.000253	2.533815	0.858480	0.000101
1772	1.7621e+02	-9.4441	-33.181219	0.000203	2.027052	0.686784	0.000081
1773	1.7631e+02	-9.4088	-33.068179	0.000284	2.837872	0.961497	0.000114
1774	1.7641e+02	-9.3639	-33.023770	0.000111	1.114878	0.377731	0.000045
1775	1.7651e+02	-9.3222	-32.898619	0.000314	3.141930	1.064515	0.000126
1776	1.7661e+02	-9.2773	-32.785579	0.000284	2.837872	0.961497	0.000114
1777	1.7671e+02	-9.2500	-32.700799	0.000213	2.128404	0.721123	0.000085
1778	1.7681e+02	-9.1971	-32.547388	0.000385	3.851398	1.304889	0.000154
1779	1.7691e+02	-9.1618	-32.458571	0.000223	2.229757	0.755462	0.000089
1780	1.7701e+02	-9.1201	-32.381866	0.000193	1.925699	0.652445	0.000077
1781	1.7711e+02	-9.0880	-32.268826	0.000284	2.837872	0.961497	0.000114
1782	1.7721e+02	-9.0463	-32.196158	0.000182	1.824346	0.618105	0.000073
1783	1.7731e+02	-9.0014	-32.058895	0.000345	3.445988	1.167532	0.000138
1784	1.7741e+02	-8.9580	-31.937781	0.000304	3.040577	1.030176	0.000122
1785	1.7751e+02	-8.9179	-31.873187	0.000162	1.621641	0.549427	0.000065
1786	1.7761e+02	-8.8858	-31.772258	0.000253	2.533815	0.858480	0.000101
1787	1.7771e+02	-8.8425	-31.671330	0.000253	2.533815	0.858480	0.000101
1788	1.7781e+02	-8.8024	-31.558290	0.000284	2.837872	0.961497	0.000114
1789	1.7791e+02	-8.7575	-31.505807	0.000132	1.317584	0.446409	0.000053
1790	1.7801e+02	-8.7318	-31.376619	0.000324	3.243283	1.098854	0.000130
1791	1.7810e+02	-8.6789	-31.243393	0.000334	3.344635	1.133193	0.000134
1792	1.7820e+02	-8.6404	-31.154576	0.000223	2.229757	0.755462	0.000089
1793	1.7830e+02	-8.6019	-31.009240	0.000365	3.648693	1.236211	0.000146
1794	1.7840e+02	-8.5666	-30.976943	0.000081	0.810821	0.274713	0.000032
1795	1.7850e+02	-8.5233	-30.823531	0.000385	3.851398	1.304889	0.000154
1796	1.7860e+02	-8.4784	-30.742789	0.000203	2.027052	0.686784	0.000081
1797	1.7870e+02	-8.4447	-30.617637	0.000314	3.141930	1.064515	0.000126
1798	1.7880e+02	-8.4094	-30.553043	0.000162	1.621641	0.549427	0.000065
1799	1.7890e+02	-8.3661	-30.456152	0.000243	2.432462	0.824140	0.000097
1800	1.7900e+02	-8.3372	-30.326964	0.000324	3.243283	1.098854	0.000130
1801	1.7910e+02	-8.2827	-30.230072	0.000243	2.432462	0.824140	0.000097
1802	1.7920e+02	-8.2425	-30.080698	0.000375	3.750046	1.270550	0.000150
1803	1.7930e+02	-8.1960	-29.987844	0.000233	2.331109	0.789801	0.000093
1804	1.7940e+02	-8.1623	-29.915176	0.000182	1.824346	0.618105	0.000073
1805	1.7950e+02	-8.1206	-29.785987	0.000324	3.243283	1.098854	0.000130
1806	1.7960e+02	-8.0918	-29.664873	0.000304	3.040577	1.030176	0.000122
1807	1.7970e+02	-8.0420	-29.596242	0.000172	1.722994	0.583766	0.000069
1808	1.7980e+02	-8.0051	-29.495314	0.000253	2.533815	0.858480	0.000101
1809	1.7990e+02	-7.9698	-29.398422	0.000243	2.432462	0.824140	0.000097
1810	1.8000e+02	-7.9393	-29.261160	0.000345	3.445988	1.167532	0.000138
1811	1.8009e+02	-7.8832	-29.184454	0.000193	1.925699	0.652445	0.000077
1812	1.8019e+02	-7.8495	-29.083526	0.000253	2.533815	0.858480	0.000101
1813	1.8029e+02	-7.8062	-28.962412	0.000304	3.040577	1.030176	0.000122
1814	1.8039e+02	-7.7725	-28.833223	0.000324	3.243283	1.098854	0.000130
1815	1.8049e+02	-7.7276	-28.720184	0.000284	2.837872	0.961497	0.000114
1816	1.8059e+02	-7.6955	-28.619255	0.000253	2.533815	0.858480	0.000101
1817	1.8069e+02	-7.6458	-28.526401	0.000233	2.331109	0.789801	0.000093
1818	1.8079e+02	-7.6137	-28.445658	0.000203	2.027052	0.686784	0.000081
1819	1.8089e+02	-7.5672	-28.296284	0.000375	3.750046	1.270550	0.000150
1820	1.8099e+02	-7.5255	-28.187282	0.000274	2.736520	0.927158	0.000110
1821	1.8109e+02	-7.4886	-28.114613	0.000182	1.824346	0.618105	0.000073
1822	1.8119e+02	-7.4533	-27.997536	0.000294	2.939225	0.995836	0.000118
1823	1.8129e+02	-7.4067	-27.892571	0.000264	2.635167	0.892819	0.000105
1824	1.8139e+02	-7.3634	-27.787605	0.000264	2.635167	0.892819	0.000105
1825	1.8149e+02	-7.3249	-27.646306	0.000355	3.547340	1.201871	0.000142
1826	1.8159e+02	-7.2848	-27.533266	0.000284	2.837872	0.961497	0.000114
1827	1.8169e+02	-7.2495	-27.408115	0.000314	3.141930	1.064515	0.000126
1828	1.8179e+02	-7.2110	-27.295075	0.000284	2.837872	0.961497	0.000114
1829	1.8189e+02	-7.1741	-27.210295	0.000213	2.128404	0.721123	0.000085
1830	1.8199e+02	-7.1308	-27.117441	0.000233	2.331109	0.789801	0.000093
1831	1.8209e+02	-7.0955	-26.964030	0.000385	3.851398	1.304889	0.000154
1832	1.8218e+02	-7.0506	-26.895398	0.000172	1.722994	0.583766	0.000069
1833	1.8228e+02	-7.0089	-26.733913	0.000405	4.054103	1.373567	0.000162
1834	1.8238e+02	-6.9560	-26.620873	0.000284	2.837872	0.961497	0.000114
1835	1.8248e+02	-6.9255	-26.544167	0.000193	1.925699	0.652445	0.000077
1836	1.8258e+02	-6.8918	-26.435165	0.000274	2.736520	0.927158	0.000110
1837	1.8268e+02	-6.8340	-26.301939	0.000334	3.344635	1.133193	0.000134
1838	1.8278e+02	-6.8164	-26.192937	0.000274	2.736520	0.927158	0.000110
1839	1.8288e+02	-6.7634	-26.063748	0.000324	3.243283	1.098854	0.000130
1840	1.8298e+02	-6.7314	-25.942634	0.000304	3.040577	1.030176	0.000122
1841	1.8308e+02	-6.6913	-25.837669	0.000264	2.635167	0.892819	0.000105
1842	1.8318e+02	-6.6479	-25.752889	0.000213	2.128404	0.721123	0.000085
1843	1.8328e+02	-6.6094	-25.643886	0.000274	2.736520	0.927158	0.000110
1844	1.8338e+02	-6.5741	-25.530846	0.000284	2.837872	0.961497	0.000114
1845	1.8348e+02	-6.5276	-25.405695	0.000314	3.141930	1.064515	0.000126
1846	1.8358e+02	-6.4939	-25.256321	0.000375	3.750046	1.270550	0.000150
1847	1.8368e+02	-6.4586	-25.171541	0.000213	2.128404	0.721123	0.000085
1848	1.8378e+02	-6.4121	-25.054464	0.000294	2.939225	0.995836	0.000118
1849	1.8388e+02	-6.3768	-24.917202	0.000345	3.445988	1.167532	0.000138
1850	1.8398e+02	-6.3319	-24.836459	0.000203	2.027052	0.686784	0.000081
1851	1.8407e+02	-6.3030	-24.695159	0.000355	3.547340	1.201871	0.000142
1852	1.8417e+02	-6.2581	-24.590194	0.000264	2.635167	0.892819	0.000105
1853	1.8427e+02	-6.2132	-24.473117	0.000294	2.939225	0.995836	0.000118
1854	1.8437e+02	-6.1859	-24.343929	0.000324	3.243283	1.098854	0.000130
1855	1.8447e+02	-6.1410	-24.226852	0.000294	2.939225	0.995836	0.000118
1856	1.8457e+02	-6.1025	-24.125923	0.000253	2.533815	0.858480	0.000101
1857	1.8467e+02	-6.0496	-23.992698	0.000334	3.344635	1.133193	0.000134
1858	1.8477e+02	-6.0159	-23.911955	0.000203	2.027052	0.686784	0.000081
1859	1.8487e+02	-5.9726	-23.762581	0.000375	3.750046	1.270550	0.000150
1860	1.8497e+02	-5.9389	-23.645504	0.000294	2.939225	0.995836	0.000118
1861	1.8507e+02	-5.9052	-23.500167	0.000365	3.648693	1.236211	0.000146
1862	1.8517e+02	-5.8538	-23.419424	0.000203	2.027052	0.686784	0.000081
1863	1.8527e+02	-5.8153	-23.290236	0.000324	3.243283	1.098854	0.000130
1864	1.8537e+02	-5.7720	-23.165085	0.000314	3.141930	1.064515	0.000126
1865	1.8547e+02	-5.7367	-23.043971	0.000304	3.040577	1.030176	0.000122
1866	1.8557e+02	-5.6998	-22.926894	0.000294	2.939225	0.995836	0.000118
1867	1.8567e+02	-5.6565	-22.805780	0.000304	3.040577	1.030176	0.000122
1868	1.8577e+02	-5.6244	-22.668517	0.000345	3.445988	1.167532	0.000138
1869	1.8587e+02	-5.5779	-22.559515	0.000274	2.736520	0.927158	0.000110
1870	1.8597e+02	-5.5410	-22.462623	0.000243	2.432462	0.824140	0.000097
1871	1.8606e+02	-5.4961	-22.313249	0.000375	3.750046	1.270550	0.000150
1872	1.8616e+02	-5.4560	-22.192135	0.000304	3.040577	1.030176	0.000122
1873	1.8626e+02	-5.4207	-22.083132	0.000274	2.736520	0.927158	0.000110
1874	1.8636e+02	-5.3806	-21.925684	0.000395	3.952751	1.339228	0.000158
1875	1.8646e+02	-5.3357	-21.832830	0.000233	2.331109	0.789801	0.000093
1876	1.8656e+02	-5.2972	-21.711716	0.000304	3.040577	1.030176	0.000122
1877	1.8666e+02	-5.2523	-21.562342	0.000375	3.750046	1.270550	0.000150
1878	1.8676e+02	-5.2202	-21.445265	0.000294	2.939225	0.995836	0.000118
1879	1.8686e+02	-5.1817	-21.348374	0.000243	2.432462	0.824140	0.000097
1880	1.8696e+02	-5.1351	-21.186888	0.000405	4.054103	1.373567	0.000162
1881	1.8706e+02	-5.0999	-21.114220	0.000182	1.824346	0.618105	0.000073
1882	1.8716e+02	-5.0581	-20.976957	0.000345	3.445988	1.167532	0.000138
1883	1.8726e+02	-5.0164	-20.843732	0.000334	3.344635	1.133193	0.000134
1884	1.8736e+02	-4.9795	-20.714543	0.000324	3.243283	1.098854	0.000130
1885	1.8746e+02	-4.9442	-20.589392	0.000314	3.141930	1.064515	0.000126
1886	1.8756e+02	-4.8977	-20.464241	0.000314	3.141930	1.064515	0.000126
1887	1.8766e+02	-4.8608	-20.379461	0.000213	2.128404	0.721123	0.000085
1888	1.8776e+02	-4.8255	-20.222013	0.000395	3.952751	1.339228	0.000158
1889	1.8786e+02	-4.7758	-20.121085	0.000253	2.533815	0.858480	0.000101
1890	1.8796e+02	-4.7437	-19.963636	0.000395	3.952751	1.339228	0.000158
1891	1.8806e+02	-4.7052	-19.874819	0.000223	2.229757	0.755462	0.000089
1892	1.8815e+02	-4.6555	-19.721408	0.000385	3.851398	1.304889	0.000154
1893	1.8825e+02	-4.6234	-19.588183	0.000334	3.344635	1.133193	0.000134
1894	1.8835e+02	-4.5817	-19.475143	0.000284	2.837872	0.961497	0.000114
1895	1.8845e+02	-4.5400	-19.366140	0.000274	2.736520	0.927158	0.000110
1896	1.8855e+02	-4.4967	-19.240989	0.000314	3.141930	1.064515	0.000126
1897	1.8865e+02	-4.4678	-19.087578	0.000385	3.851398	1.304889	0.000154
1898	1.8875e+02	-4.4229	-18.946278	0.000355	3.547340	1.201871	0.000142
1899	1.8885e+02	-4.3780	-18.825164	0.000304	3.040577	1.030176	0.000122
1900	1.8895e+02	-4.3427	-18.671753	0.000385	3.851398	1.304889	0.000154
1901	1.8905e+02	-4.2961	-18.570824	0.000253	2.533815	0.858480	0.000101
1902	1.8915e+02	-4.2689	-18.457785	0.000284	2.837872	0.961497	0.000114
1903	1.8925e+02	-4.2143	-18.348782	0.000274	2.736520	0.927158	0.000110
1904	1.8935e+02	-4.1838	-18.195371	0.000385	3.851398	1.304889	0.000154
1905	1.8945e+02	-4.1437	-18.070220	0.000314	3.141930	1.064515	0.000126
1906	1.8955e+02	-4.1100	-17.969291	0.000253	2.533815	0.858480	0.000101
1907	1.8965e+02	-4.0635	-17.791657	0.000446	4.459514	1.510924	0.000179
1908	1.8975e+02	-4.0202	-17.731100	0.000152	1.520289	0.515088	0.000061
1909	1.8985e+02	-3.9801	-17.605949	0.000314	3.141930	1.064515	0.000126
1910	1.8995e+02	-3.9464	-17.436389	0.000426	4.256808	1.442246	0.000170
1911	1.9004e+02	-3.9127	-17.323349	0.000284	2.837872	0.961497	0.000114
1912	1.9014e+02	-3.8742	-17.222421	0.000253	2.533815	0.858480	0.000101
1913	1.9024e+02	-3.8133	-17.085158	0.000345	3.445988	1.167532	0.000138
1914	1.9034e+02	-3.7908	-16.939822	0.000365	3.648693	1.236211	0.000146
1915	1.9044e+02	-3.7395	-16.826782	0.000284	2.837872	0.961497	0.000114
1916	1.9054e+02	-3.7122	-16.669333	0.000395	3.952751	1.339228	0.000158
1917	1.9064e+02	-3.6641	-16.580516	0.000223	2.229757	0.755462	0.000089
1918	1.9074e+02	-3.6256	-16.443254	0.000345	3.445988	1.167532	0.000138
1919	1.9084e+02	-3.5887	-16.310028	0.000334	3.344635	1.133193	0.000134
1920	1.9094e+02	-3.5470	-16.160654	0.000375	3.750046	1.270550	0.000150
1921	1.9104e+02	-3.5036	-16.031466	0.000324	3.243283	1.098854	0.000130
1922	1.9114e+02	-3.4700	-15.914389	0.000294	2.939225	0.995836	0.000118
1923	1.9124e+02	-3.4282	-15.777126	0.000345	3.445988	1.167532	0.000138
1924	1.9134e+02	-3.3849	-15.623715	0.000385	3.851398	1.304889	0.000154
1925	1.9144e+02	-3.3400	-15.530861	0.000233	2.331109	0.789801	0.000093
1926	1.9154e+02	-3.3159	-15.417821	0.000284	2.837872	0.961497	0.000114
1927	1.9164e+02	-3.2758	-15.288633	0.000324	3.243283	1.098854	0.000130
1928	1.9174e+02	-3.2245	-15.155408	0.000334	3.344635	1.133193	0.000134
1929	1.9184e+02	-3.1844	-15.001996	0.000385	3.851398	1.304889	0.000154
1930	1.9194e+02	-3.1507	-14.860697	0.000355	3.547340	1.201871	0.000142
1931	1.9203e+02	-3.1106	-14.739583	0.000304	3.040577	1.030176	0.000122
1932	1.9213e+02	-3.0721	-14.602320	0.000345	3.445988	1.167532	0.000138
1933	1.9223e+02	-3.0240	-14.473132	0.000324	3.243283	1.098854	0.000130
1934	1.9233e+02	-2.9855	-14.368166	0.000264	2.635167	0.892819	0.000105
1935	1.9243e+02	-2.9470	-14.226866	0.000355	3.547340	1.201871	0.000142
1936	1.9253e+02	-2.9037	-14.081529	0.000365	3.648693	1.236211	0.000146
1937	1.9263e+02	-2.8587	-13.903895	0.000446	4.459514	1.510924	0.000179
1938	1.9273e+02	-2.8299	-13.859487	0.000111	1.114878	0.377731	0.000045
1939	1.9283e+02	-2.7914	-13.677816	0.000456	4.560866	1.545263	0.000183
1940	1.9293e+02	-2.7481	-13.597073	0.000203	2.027052	0.686784	0.000081
1941	1.9303e+02	-2.7144	-13.407328	0.000476	4.763571	1.613942	0.000191
1942	1.9313e+02	-2.6694	-13.334659	0.000182	1.824346	0.618105	0.000073
1943	1.9323e+02	-2.6309	-13.152988	0.000456	4.560866	1.545263	0.000183
1944	1.9333e+02	-2.5940	-13.052060	0.000253	2.533815	0.858480	0.000101
1945	1.9343e+02	-2.5539	-12.943057	0.000274	2.736520	0.927158	0.000110
1946	1.9353e+02	-2.5154	-12.741200	0.000507	5.067629	1.716959	0.000203
1947	1.9363e+02	-2.4753	-12.660458	0.000203	2.027052	0.686784	0.000081
1948	1.9373e+02	-2.4288	-12.531269	0.000324	3.243283	1.098854	0.000130
1949	1.9383e+02	-2.3903	-12.414192	0.000294	2.939225	0.995836	0.000118
1950	1.9393e+02	-2.3422	-12.244633	0.000426	4.256808	1.442246	0.000170
1951	1.9403e+02	-2.3085	-12.111407	0.000334	3.344635	1.133193	0.000134
1952	1.9412e+02	-2.2636	-11.962033	0.000375	3.750046	1.270550	0.000150
1953	1.9422e+02	-2.2283	-11.824771	0.000345	3.445988	1.167532	0.000138
1954	1.9432e+02	-2.1882	-11.699619	0.000314	3.141930	1.064515	0.000126
1955	1.9442e+02	-2.1449	-11.602728	0.000243	2.432462	0.824140	0.000097
1956	1.9452e+02	-2.1096	-11.457391	0.000365	3.648693	1.236211	0.000146
1957	1.9462e+02	-2.0743	-11.295906	0.000405	4.054103	1.373567	0.000162
1958	1.9472e+02	-2.0294	-11.166717	0.000324	3.243283	1.098854	0.000130
1959	1.9482e+02	-1.9973	-11.021381	0.000365	3.648693	1.236211	0.000146
1960	1.9492e+02	-1.9411	-10.867969	0.000385	3.851398	1.304889	0.000154
1961	1.9502e+02	-1.9171	-10.779152	0.000223	2.229757	0.755462	0.000089
1962	1.9512e+02	-1.8689	-10.585370	0.000486	4.864924	1.648281	0.000195
1963	1.9522e+02	-1.8320	-10.448107	0.000345	3.445988	1.167532	0.000138
1964	1.9532e+02	-1.7919	-10.314882	0.000334	3.344635	1.133193	0.000134
1965	1.9542e+02	-1.7534	-10.193768	0.000304	3.040577	1.030176	0.000122
1966	1.9552e+02	-1.7069	-10.064579	0.000324	3.243283	1.098854	0.000130
1967	1.9562e+02	-1.6700	-9.923280	0.000355	3.547340	1.201871	0.000142
1968	1.9572e+02	-1.6315	-9.786017	0.000345	3.445988	1.167532	0.000138
1969	1.9582e+02	-1.5930	-9.677014	0.000274	2.736520	0.927158	0.000110
1970	1.9592e+02	-1.5577	-9.515529	0.000405	4.054103	1.373567	0.000162
1971	1.9601e+02	-1.5224	-9.362118	0.000385	3.851398	1.304889	0.000154
1972	1.9611e+02	-1.4759	-9.245041	0.000294	2.939225	0.995836	0.000118
1973	1.9621e+02	-1.4230	-9.095667	0.000375	3.750046	1.270550	0.000150
1974	1.9631e+02	-1.3941	-8.946293	0.000375	3.750046	1.270550	0.000150
1975	1.9641e+02	-1.3540	-8.796919	0.000375	3.750046	1.270550	0.000150
1976	1.9651e+02	-1.3171	-8.659656	0.000345	3.445988	1.167532	0.000138
1977	1.9661e+02	-1.2802	-8.510282	0.000375	3.750046	1.270550	0.000150
1978	1.9671e+02	-1.2321	-8.360908	0.000375	3.750046	1.270550	0.000150
1979	1.9681e+02	-1.2000	-8.264017	0.000243	2.432462	0.824140	0.000097
1980	1.9691e+02	-1.1567	-8.126754	0.000345	3.445988	1.167532	0.000138
1981	1.9701e+02	-1.1117	-7.965269	0.000405	4.054103	1.373567	0.000162
1982	1.9711e+02	-1.0764	-7.803783	0.000405	4.054103	1.373567	0.000162
1983	1.9721e+02	-1.0460	-7.694781	0.000274	2.736520	0.927158	0.000110
1984	1.9731e+02	-1.0010	-7.557518	0.000345	3.445988	1.167532	0.000138
1985	1.9741e+02	-0.9529	-7.387958	0.000426	4.256808	1.442246	0.000170
1986	1.9751e+02	-0.9144	-7.242622	0.000365	3.648693	1.236211	0.000146
1987	1.9761e+02	-0.8663	-7.109396	0.000334	3.344635	1.133193	0.000134
1988	1.9771e+02	-0.8342	-6.931762	0.000446	4.459514	1.510924	0.000179
1989	1.9781e+02	-0.7877	-6.826797	0.000264	2.635167	0.892819	0.000105
1990	1.9791e+02	-0.7572	-6.681460	0.000365	3.648693	1.236211	0.000146
1991	1.9800e+02	-0.7219	-6.511900	0.000426	4.256808	1.442246	0.000170
1992	1.9810e+02	-0.6834	-6.370600	0.000355	3.547340	1.201871	0.000142
1993	1.9820e+02	-0.6305	-6.237375	0.000334	3.344635	1.133193	0.000134
1994	1.9830e+02	-0.5904	-6.112224	0.000314	3.141930	1.064515	0.000126
1995	1.9840e+02	-0.5631	-5.958812	0.000385	3.851398	1.304889	0.000154
1996	1.9850e+02	-0.5166	-5.785216	0.000436	4.358161	1.476585	0.000174
1997	1.9860e+02	-0.4813	-5.639879	0.000365	3.648693	1.236211	0.000146
1998	1.9870e+02	-0.4299	-5.466282	0.000436	4.358161	1.476585	0.000174
1999	1.9880e+02	-0.4011	-5.361316	0.000264	2.635167	0.892819	0.000105
2000	1.9890e+02	-0.3610	-5.232128	0.000324	3.243283	1.098854	0.000130
2001	1.9900e+02	-0.3144	-5.066605	0.000416	4.155456	1.407907	0.000166
2002	1.9910e+02	-0.2743	-4.933380	0.000334	3.344635	1.133193	0.000134
2003	1.9920e+02	-0.2406	-4.779969	0.000385	3.851398	1.304889	0.000154
2004	1.9930e+02	-0.2021	-4.662892	0.000294	2.939225	0.995836	0.000118
2005	1.9940e+02	-0.1572	-4.456998	0.000517	5.168982	1.751298	0.000207
2006	1.9950e+02	-0.1219	-4.327810	0.000324	3.243283	1.098854	0.000130
2007	1.9960e+02	-0.0850	-4.174398	0.000385	3.851398	1.304889	0.000154
2008	1.9970e+02	-0.0433	-4.025024	0.000375	3.750046	1.270550	0.000150
2009	1.9980e+02	0.0032	-3.863539	0.000375	3.750046	1.270550	0.000162

Center data before PMax,+/-Pr and +/-Vc Calc.

PMax (uC/cm2):	5.53e+01
Pr (uC/cm2):	1.82e+00
-Pr (uC/cm2):	-3.86e+00
PLoss (uC/cm2):	1.13e+00
Vc:	1.43e+00
-Vc:	-5.00e-01
C (Max-Eff) (nF):	2.76e-01
K (Eff):	9.36e+02
Vert. (+/-Pr) Shift (uC/cm2):	-1.02e+00
Horiz. Shift (+/-Vc):	4.67e-01
Offset (uC/cm2):	4.97e+00

A (Loop Area - uC/cm2·Volts):	-7.62e-02



Hysteresis Version: 5.48.1 - Radiant Technologies, Inc., 1999 - 9/12/24

