»»»»»»»»»»»»»»»»»»»»»»»»»»»»»»»»»»»» Hysteresis ««««««««««««««««««««««««««««««««««««
»»»  Executed Version:	5.48.1
»»»  Vision Version:	5.48.4 (R)
»»»  Vision Compiled:	9/18/24
»»»  Driver Version:	5.47.0
»»»  Windows Version:	Windows 8 or 8.1
»»»  Processor Information:	x86 (AMD or Intel) - 32 Processors
»»»  Tester Name:	PMF21124-494 (100V)
»»»  Tester S/N:	PMF21124-494
»»»  Internal Amp Type:	100V RevK 270k
»»»  Internal Amp S/N:	iAB2-596/K     
»»»  Execution Count:	1
»»»»»»»»»»»»»»»»»»»»»»»»»»»»»»»»»»»»»»»»»»««««««««««««««««««««««««««««««««««««««««««

Stored:	6/13/2025 - 14:21:15
Configured:	06/13/25 01:30:53 PM
Executed:	06/13/25 02:19:37 PM

»»»»»»»»»»»»»»»»»»»»»»»»»»»»»»»»»»» Sample Info ««««««««««««««««««««««««««««««««««««
Sample Name:	
Lot Name:	
Wafer Name:	
Die Row/Column:	0/0
Capacitor Number:	0
Sample Area (cm2):	1.00e-04
Sample Thickness (microns):	3.00e-01

Amplifier:	Internal

»»»»»»»»»»»»»»»»»»»»»»»»»»»»»»»»»»» Tester Info «««««««««««««««««««««««««««««««««««
Tester Name:	PMF21124-494 (100V)
Tester Serial Number:	PMF21124-494
Return Signal Amp. Level:	0.19 [Index: 3]

»»»»»»»»»»»»»»»»»»»»»»»»»»»»»»»» Hysteresis Info ««««««««««««««««««««««««««««««««««
Task Name:	Hyst-1922
Volts:	20.00
Field:	666.67 (kV/cm)
DCBias:	0.00
DCField:	0.00 (kV/cm)
Hysteresis Period (ms):	2.00e+02
Preset:	Enabled
Preset Delay (ms):	1.00e+03
Profile:	Standard Bipolar

»»»»»»»»»»»»»»»»»»»»»»»»»»»»»»»»»»»»»» Data «««««««««««««««««««««««««««««««««««««««
Points:	2009

Valid Data

Point	Time (ms)	Drive Voltage	Measured Polarization (uC/cm2)	Capacitance (uF)	Normalized Capacitance (uF/cm2)	Dielectric Constant	Instantaneous Current (mA)
   1	0.0000e+00	0.0032	-4.406534	0.000274	2.735477	0.926805	0.000110
   2	9.9500e-02	0.0257	-4.297531	0.000274	2.735477	0.926805	0.000110
   3	1.9900e-01	0.0802	-4.132008	0.000415	4.153873	1.407370	0.000166
   4	2.9850e-01	0.1203	-3.942263	0.000476	4.761757	1.613327	0.000191
   5	3.9800e-01	0.1476	-3.720221	0.000557	5.572269	1.887936	0.000223
   6	4.9750e-01	0.1957	-3.615255	0.000263	2.634163	0.892479	0.000105
   7	5.9700e-01	0.2262	-3.409361	0.000517	5.167013	1.750631	0.000207
   8	6.9650e-01	0.2727	-3.235764	0.000436	4.356501	1.476022	0.000174
   9	7.9600e-01	0.3096	-3.037945	0.000496	4.964385	1.681979	0.000199
  10	8.9550e-01	0.3465	-2.876459	0.000405	4.052559	1.373044	0.000162
  11	9.9500e-01	0.3882	-2.702862	0.000436	4.356501	1.476022	0.000174
  12	1.0945e+00	0.4347	-2.529266	0.000436	4.356501	1.476022	0.000174
  13	1.1940e+00	0.4668	-2.355669	0.000436	4.356501	1.476022	0.000174
  14	1.2935e+00	0.5150	-2.178035	0.000446	4.457815	1.510349	0.000179
  15	1.3930e+00	0.5503	-1.988289	0.000476	4.761757	1.613327	0.000191
  16	1.4925e+00	0.5920	-1.822767	0.000415	4.153873	1.407370	0.000166
  17	1.5920e+00	0.6257	-1.665318	0.000395	3.951245	1.338718	0.000158
  18	1.6915e+00	0.6770	-1.495759	0.000426	4.255187	1.441696	0.000170
  19	1.7910e+00	0.7171	-1.273716	0.000557	5.572269	1.887936	0.000223
  20	1.8905e+00	0.7540	-1.096082	0.000446	4.457815	1.510349	0.000179
  21	1.9900e+00	0.7893	-0.942671	0.000385	3.849931	1.304392	0.000154
  22	2.0895e+00	0.8278	-0.744852	0.000496	4.964385	1.681979	0.000199
  23	2.1890e+00	0.8711	-0.603552	0.000355	3.545989	1.201414	0.000142
  24	2.2885e+00	0.9112	-0.393621	0.000527	5.268327	1.784957	0.000211
  25	2.3880e+00	0.9481	-0.203875	0.000476	4.761757	1.613327	0.000191
  26	2.4875e+00	0.9946	-0.054501	0.000375	3.748617	1.270066	0.000150
  27	2.5870e+00	1.0283	0.163504	0.000547	5.470955	1.853610	0.000219
  28	2.6865e+00	1.0700	0.312878	0.000375	3.748617	1.270066	0.000150
  29	2.7860e+00	1.1117	0.478401	0.000415	4.153873	1.407370	0.000166
  30	2.8855e+00	1.1502	0.647960	0.000426	4.255187	1.441696	0.000170
  31	2.9850e+00	1.1935	0.890188	0.000608	6.078838	2.059566	0.000243
  32	3.0845e+00	1.2369	1.051674	0.000405	4.052559	1.373044	0.000162
  33	3.1840e+00	1.2641	1.209122	0.000395	3.951245	1.338718	0.000158
  34	3.2835e+00	1.3058	1.410979	0.000507	5.065699	1.716305	0.000203
  35	3.3830e+00	1.3508	1.624947	0.000537	5.369641	1.819283	0.000215
  36	3.4825e+00	1.3957	1.786433	0.000405	4.052559	1.373044	0.000162
  37	3.5820e+00	1.4230	1.964067	0.000446	4.457815	1.510349	0.000179
  38	3.6815e+00	1.4695	2.133626	0.000426	4.255187	1.441696	0.000170
  39	3.7810e+00	1.5080	2.327409	0.000486	4.863071	1.647653	0.000195
  40	3.8805e+00	1.5561	2.492931	0.000415	4.153873	1.407370	0.000166
  41	3.9800e+00	1.5962	2.674602	0.000456	4.559129	1.544675	0.000183
  42	4.0795e+00	1.6299	2.852236	0.000446	4.457815	1.510349	0.000179
  43	4.1790e+00	1.6684	3.033908	0.000456	4.559129	1.544675	0.000183
  44	4.2785e+00	1.7085	3.219616	0.000466	4.660443	1.579001	0.000187
  45	4.3780e+00	1.7502	3.368990	0.000375	3.748617	1.270066	0.000150
  46	4.4775e+00	1.7855	3.558735	0.000476	4.761757	1.613327	0.000191
  47	4.5770e+00	1.8320	3.732332	0.000436	4.356501	1.476022	0.000174
  48	4.6765e+00	1.8689	3.934189	0.000507	5.065699	1.716305	0.000203
  49	4.7760e+00	1.9155	4.083563	0.000375	3.748617	1.270066	0.000150
  50	4.8755e+00	1.9475	4.281382	0.000496	4.964385	1.681979	0.000199
  51	4.9750e+00	1.9860	4.491314	0.000527	5.268327	1.784957	0.000211
  52	5.0745e+00	2.0261	4.644725	0.000385	3.849931	1.304392	0.000154
  53	5.1740e+00	2.0550	4.830433	0.000466	4.660443	1.579001	0.000187
  54	5.2735e+00	2.1128	5.012104	0.000456	4.559129	1.544675	0.000183
  55	5.3730e+00	2.1497	5.153404	0.000355	3.545989	1.201414	0.000142
  56	5.4725e+00	2.1882	5.359298	0.000517	5.167013	1.750631	0.000207
  57	5.5720e+00	2.2203	5.524820	0.000415	4.153873	1.407370	0.000166
  58	5.6715e+00	2.2636	5.750900	0.000567	5.673583	1.922262	0.000227
  59	5.7710e+00	2.3053	5.924497	0.000436	4.356501	1.476022	0.000174
  60	5.8705e+00	2.3374	6.090019	0.000415	4.153873	1.407370	0.000166
  61	5.9700e+00	2.3823	6.227282	0.000344	3.444675	1.167088	0.000138
  62	6.0695e+00	2.4320	6.441250	0.000537	5.369641	1.819283	0.000215
  63	6.1690e+00	2.4609	6.610810	0.000426	4.255187	1.441696	0.000170
  64	6.2685e+00	2.5010	6.828815	0.000547	5.470955	1.853610	0.000219
  65	6.3680e+00	2.5443	6.970115	0.000355	3.545989	1.201414	0.000142
  66	6.4675e+00	2.5812	7.155823	0.000466	4.660443	1.579001	0.000187
  67	6.5670e+00	2.6261	7.341531	0.000466	4.660443	1.579001	0.000187
  68	6.6665e+00	2.6582	7.498980	0.000395	3.951245	1.338718	0.000158
  69	6.7660e+00	2.7112	7.725059	0.000567	5.673583	1.922262	0.000227
  70	6.8655e+00	2.7497	7.874433	0.000375	3.748617	1.270066	0.000150
  71	6.9650e+00	2.7753	8.048030	0.000436	4.356501	1.476022	0.000174
  72	7.0645e+00	2.8251	8.270073	0.000557	5.572269	1.887936	0.000223
  73	7.1640e+00	2.8539	8.399261	0.000324	3.242047	1.098435	0.000130
  74	7.2635e+00	2.8956	8.584969	0.000466	4.660443	1.579001	0.000187
  75	7.3630e+00	2.9438	8.766640	0.000456	4.559129	1.544675	0.000183
  76	7.4625e+00	2.9823	8.952348	0.000466	4.660443	1.579001	0.000187
  77	7.5620e+00	3.0240	9.097685	0.000365	3.647303	1.235740	0.000146
  78	7.6615e+00	3.0641	9.283394	0.000466	4.660443	1.579001	0.000187
  79	7.7610e+00	3.1010	9.461028	0.000446	4.457815	1.510349	0.000179
  80	7.8605e+00	3.1443	9.666922	0.000517	5.167013	1.750631	0.000207
  81	7.9600e+00	3.1780	9.828407	0.000405	4.052559	1.373044	0.000162
  82	8.0595e+00	3.2245	9.981818	0.000385	3.849931	1.304392	0.000154
  83	8.1590e+00	3.2598	10.183675	0.000507	5.065699	1.716305	0.000203
  84	8.2585e+00	3.3079	10.361309	0.000446	4.457815	1.510349	0.000179
  85	8.3580e+00	3.3400	10.534906	0.000436	4.356501	1.476022	0.000174
  86	8.4575e+00	3.3801	10.684280	0.000375	3.748617	1.270066	0.000150
  87	8.5570e+00	3.4170	10.890174	0.000517	5.167013	1.750631	0.000207
  88	8.6565e+00	3.4619	11.063770	0.000436	4.356501	1.476022	0.000174
  89	8.7560e+00	3.5004	11.233330	0.000426	4.255187	1.441696	0.000170
  90	8.8555e+00	3.5405	11.390778	0.000395	3.951245	1.338718	0.000158
  91	8.9550e+00	3.5774	11.572450	0.000456	4.559129	1.544675	0.000183
  92	9.0545e+00	3.6208	11.754121	0.000456	4.559129	1.544675	0.000183
  93	9.1540e+00	3.6593	11.960015	0.000517	5.167013	1.750631	0.000207
  94	9.2535e+00	3.6978	12.117463	0.000395	3.951245	1.338718	0.000158
  95	9.3530e+00	3.7379	12.311245	0.000486	4.863071	1.647653	0.000195
  96	9.4525e+00	3.7796	12.460619	0.000375	3.748617	1.270066	0.000150
  97	9.5520e+00	3.8101	12.650365	0.000476	4.761757	1.613327	0.000191
  98	9.6515e+00	3.8630	12.823962	0.000436	4.356501	1.476022	0.000174
  99	9.7510e+00	3.9079	12.989484	0.000415	4.153873	1.407370	0.000166
 100	9.8505e+00	3.9352	13.207490	0.000547	5.470955	1.853610	0.000219
 101	9.9500e+00	3.9785	13.385124	0.000446	4.457815	1.510349	0.000179
 102	1.0050e+01	4.0170	13.562758	0.000446	4.457815	1.510349	0.000179
 103	1.0149e+01	4.0619	13.691946	0.000324	3.242047	1.098435	0.000130
 104	1.0248e+01	4.0988	13.873617	0.000456	4.559129	1.544675	0.000183
 105	1.0348e+01	4.1405	14.018954	0.000365	3.647303	1.235740	0.000146
 106	1.0447e+01	4.1742	14.228885	0.000527	5.268327	1.784957	0.000211
 107	1.0547e+01	4.2111	14.422667	0.000486	4.863071	1.647653	0.000195
 108	1.0646e+01	4.2608	14.592227	0.000426	4.255187	1.441696	0.000170
 109	1.0746e+01	4.2993	14.769861	0.000446	4.457815	1.510349	0.000179
 110	1.0845e+01	4.3346	14.890975	0.000304	3.039419	1.029783	0.000122
 111	1.0945e+01	4.3844	15.113018	0.000557	5.572269	1.887936	0.000223
 112	1.1044e+01	4.4165	15.298726	0.000466	4.660443	1.579001	0.000187
 113	1.1144e+01	4.4614	15.448100	0.000375	3.748617	1.270066	0.000150
 114	1.1243e+01	4.5015	15.609585	0.000405	4.052559	1.373044	0.000162
 115	1.1343e+01	4.5352	15.791256	0.000456	4.559129	1.544675	0.000183
 116	1.1443e+01	4.5817	15.960816	0.000426	4.255187	1.441696	0.000170
 117	1.1542e+01	4.6202	16.106153	0.000365	3.647303	1.235740	0.000146
 118	1.1642e+01	4.6603	16.303973	0.000496	4.964385	1.681979	0.000199
 119	1.1741e+01	4.6988	16.485644	0.000456	4.559129	1.544675	0.000183
 120	1.1841e+01	4.7437	16.667315	0.000456	4.559129	1.544675	0.000183
 121	1.1940e+01	4.7742	16.820726	0.000385	3.849931	1.304392	0.000154
 122	1.2040e+01	4.8207	16.966063	0.000365	3.647303	1.235740	0.000146
 123	1.2139e+01	4.8512	17.143697	0.000446	4.457815	1.510349	0.000179
 124	1.2239e+01	4.8993	17.341517	0.000496	4.964385	1.681979	0.000199
 125	1.2338e+01	4.9298	17.511076	0.000426	4.255187	1.441696	0.000170
 126	1.2438e+01	4.9715	17.680636	0.000426	4.255187	1.441696	0.000170
 127	1.2537e+01	5.0132	17.821936	0.000355	3.545989	1.201414	0.000142
 128	1.2636e+01	5.0469	18.003607	0.000456	4.559129	1.544675	0.000183
 129	1.2736e+01	5.0966	18.157018	0.000385	3.849931	1.304392	0.000154
 130	1.2835e+01	5.1335	18.326578	0.000426	4.255187	1.441696	0.000170
 131	1.2935e+01	5.1833	18.556694	0.000577	5.774896	1.956588	0.000231
 132	1.3034e+01	5.2186	18.710106	0.000385	3.849931	1.304392	0.000154
 133	1.3134e+01	5.2458	18.847368	0.000344	3.444675	1.167088	0.000138
 134	1.3233e+01	5.2908	19.020965	0.000436	4.356501	1.476022	0.000174
 135	1.3333e+01	5.3261	19.198599	0.000446	4.457815	1.510349	0.000179
 136	1.3432e+01	5.3838	19.364122	0.000415	4.153873	1.407370	0.000166
 137	1.3532e+01	5.4159	19.545793	0.000456	4.559129	1.544675	0.000183
 138	1.3632e+01	5.4576	19.687092	0.000355	3.545989	1.201414	0.000142
 139	1.3731e+01	5.4929	19.860689	0.000436	4.356501	1.476022	0.000174
 140	1.3831e+01	5.5330	20.054472	0.000486	4.863071	1.647653	0.000195
 141	1.3930e+01	5.5715	20.211920	0.000395	3.951245	1.338718	0.000158
 142	1.4030e+01	5.6132	20.369368	0.000395	3.951245	1.338718	0.000158
 143	1.4129e+01	5.6517	20.542965	0.000436	4.356501	1.476022	0.000174
 144	1.4229e+01	5.6918	20.700413	0.000395	3.951245	1.338718	0.000158
 145	1.4328e+01	5.7271	20.882085	0.000456	4.559129	1.544675	0.000183
 146	1.4428e+01	5.7720	21.039533	0.000395	3.951245	1.338718	0.000158
 147	1.4527e+01	5.8041	21.213130	0.000436	4.356501	1.476022	0.000174
 148	1.4627e+01	5.8619	21.326170	0.000284	2.836791	0.961131	0.000114
 149	1.4726e+01	5.8875	21.544175	0.000547	5.470955	1.853610	0.000219
 150	1.4825e+01	5.9292	21.729883	0.000466	4.660443	1.579001	0.000187
 151	1.4925e+01	5.9645	21.842923	0.000284	2.836791	0.961131	0.000114
 152	1.5024e+01	6.0127	22.052854	0.000527	5.268327	1.784957	0.000211
 153	1.5124e+01	6.0512	22.246636	0.000486	4.863071	1.647653	0.000195
 154	1.5223e+01	6.0897	22.412159	0.000415	4.153873	1.407370	0.000166
 155	1.5323e+01	6.1378	22.541347	0.000324	3.242047	1.098435	0.000130
 156	1.5422e+01	6.1795	22.690721	0.000375	3.748617	1.270066	0.000150
 157	1.5522e+01	6.2068	22.844133	0.000385	3.849931	1.304392	0.000154
 158	1.5621e+01	6.2485	23.037915	0.000486	4.863071	1.647653	0.000195
 159	1.5721e+01	6.2838	23.195363	0.000395	3.951245	1.338718	0.000158
 160	1.5820e+01	6.3367	23.364923	0.000426	4.255187	1.441696	0.000170
 161	1.5920e+01	6.3704	23.510260	0.000365	3.647303	1.235740	0.000146
 162	1.6020e+01	6.4025	23.687894	0.000446	4.457815	1.510349	0.000179
 163	1.6119e+01	6.4474	23.837268	0.000375	3.748617	1.270066	0.000150
 164	1.6218e+01	6.4907	24.014902	0.000446	4.457815	1.510349	0.000179
 165	1.6318e+01	6.5292	24.140053	0.000314	3.140733	1.064109	0.000126
 166	1.6418e+01	6.5725	24.337873	0.000496	4.964385	1.681979	0.000199
 167	1.6517e+01	6.6078	24.475135	0.000344	3.444675	1.167088	0.000138
 168	1.6616e+01	6.6415	24.664881	0.000476	4.761757	1.613327	0.000191
 169	1.6716e+01	6.6800	24.838478	0.000436	4.356501	1.476022	0.000174
 170	1.6816e+01	6.7282	24.987852	0.000375	3.748617	1.270066	0.000150
 171	1.6915e+01	6.7731	25.125114	0.000344	3.444675	1.167088	0.000138
 172	1.7015e+01	6.8052	25.310823	0.000466	4.660443	1.579001	0.000187
 173	1.7114e+01	6.8404	25.456159	0.000365	3.647303	1.235740	0.000146
 174	1.7213e+01	6.8773	25.629756	0.000436	4.356501	1.476022	0.000174
 175	1.7313e+01	6.9303	25.758945	0.000324	3.242047	1.098435	0.000130
 176	1.7413e+01	6.9640	25.948690	0.000476	4.761757	1.613327	0.000191
 177	1.7512e+01	7.0057	26.094027	0.000365	3.647303	1.235740	0.000146
 178	1.7611e+01	7.0506	26.231289	0.000344	3.444675	1.167088	0.000138
 179	1.7711e+01	7.0827	26.408923	0.000446	4.457815	1.510349	0.000179
 180	1.7811e+01	7.1212	26.586557	0.000446	4.457815	1.510349	0.000179
 181	1.7910e+01	7.1661	26.748043	0.000405	4.052559	1.373044	0.000162
 182	1.8009e+01	7.2046	26.917603	0.000426	4.255187	1.441696	0.000170
 183	1.8109e+01	7.2447	27.042754	0.000314	3.140733	1.064109	0.000126
 184	1.8209e+01	7.2912	27.224425	0.000456	4.559129	1.544675	0.000183
 185	1.8308e+01	7.3265	27.333428	0.000274	2.735477	0.926805	0.000110
 186	1.8407e+01	7.3602	27.470690	0.000344	3.444675	1.167088	0.000138
 187	1.8507e+01	7.4035	27.692733	0.000557	5.572269	1.887936	0.000223
 188	1.8607e+01	7.4468	27.821921	0.000324	3.242047	1.098435	0.000130
 189	1.8706e+01	7.4902	28.031852	0.000527	5.268327	1.784957	0.000211
 190	1.8805e+01	7.5142	28.181226	0.000375	3.748617	1.270066	0.000150
 191	1.8905e+01	7.5640	28.290229	0.000274	2.735477	0.926805	0.000110
 192	1.9005e+01	7.5993	28.451714	0.000405	4.052559	1.373044	0.000162
 193	1.9104e+01	7.6394	28.584940	0.000334	3.343361	1.132761	0.000134
 194	1.9203e+01	7.6827	28.778722	0.000486	4.863071	1.647653	0.000195
 195	1.9303e+01	7.7164	28.936170	0.000395	3.951245	1.338718	0.000158
 196	1.9402e+01	7.7629	29.109767	0.000436	4.356501	1.476022	0.000174
 197	1.9502e+01	7.8078	29.230881	0.000304	3.039419	1.029783	0.000122
 198	1.9602e+01	7.8415	29.400441	0.000426	4.255187	1.441696	0.000170
 199	1.9701e+01	7.8816	29.541741	0.000355	3.545989	1.201414	0.000142
 200	1.9800e+01	7.9153	29.691115	0.000375	3.748617	1.270066	0.000150
 201	1.9900e+01	7.9554	29.884897	0.000486	4.863071	1.647653	0.000195
 202	2.0000e+01	8.0019	30.014086	0.000324	3.242047	1.098435	0.000130
 203	2.0099e+01	8.0468	30.207868	0.000486	4.863071	1.647653	0.000195
 204	2.0198e+01	8.0853	30.353205	0.000365	3.647303	1.235740	0.000146
 205	2.0298e+01	8.1238	30.506616	0.000385	3.849931	1.304392	0.000154
 206	2.0398e+01	8.1607	30.615619	0.000274	2.735477	0.926805	0.000110
 207	2.0497e+01	8.2105	30.809401	0.000486	4.863071	1.647653	0.000195
 208	2.0596e+01	8.2361	30.942627	0.000334	3.343361	1.132761	0.000134
 209	2.0696e+01	8.2794	31.075852	0.000334	3.343361	1.132761	0.000134
 210	2.0796e+01	8.3244	31.253486	0.000446	4.457815	1.510349	0.000179
 211	2.0895e+01	8.3581	31.394786	0.000355	3.545989	1.201414	0.000142
 212	2.0994e+01	8.4030	31.523974	0.000324	3.242047	1.098435	0.000130
 213	2.1094e+01	8.4335	31.693534	0.000426	4.255187	1.441696	0.000170
 214	2.1194e+01	8.4800	31.879242	0.000466	4.660443	1.579001	0.000187
 215	2.1293e+01	8.5233	32.020542	0.000355	3.545989	1.201414	0.000142
 216	2.1392e+01	8.5618	32.157805	0.000344	3.444675	1.167088	0.000138
 217	2.1492e+01	8.6035	32.274882	0.000294	2.938105	0.995457	0.000118
 218	2.1591e+01	8.6436	32.420219	0.000365	3.647303	1.235740	0.000146
 219	2.1691e+01	8.6853	32.601890	0.000456	4.559129	1.544675	0.000183
 220	2.1791e+01	8.7222	32.731078	0.000324	3.242047	1.098435	0.000130
 221	2.1890e+01	8.7575	32.916786	0.000466	4.660443	1.579001	0.000187
 222	2.1989e+01	8.8008	33.074235	0.000395	3.951245	1.338718	0.000158
 223	2.2089e+01	8.8425	33.187274	0.000284	2.836791	0.961131	0.000114
 224	2.2189e+01	8.8858	33.377020	0.000476	4.761757	1.613327	0.000191
 225	2.2288e+01	8.9179	33.502171	0.000314	3.140733	1.064109	0.000126
 226	2.2387e+01	8.9645	33.667693	0.000415	4.153873	1.407370	0.000166
 227	2.2487e+01	8.9981	33.796882	0.000324	3.242047	1.098435	0.000130
 228	2.2587e+01	9.0495	33.978553	0.000456	4.559129	1.544675	0.000183
 229	2.2686e+01	9.0735	34.083518	0.000263	2.634163	0.892479	0.000105
 230	2.2785e+01	9.1217	34.261152	0.000446	4.457815	1.510349	0.000179
 231	2.2885e+01	9.1457	34.406489	0.000365	3.647303	1.235740	0.000146
 232	2.2985e+01	9.1955	34.580086	0.000436	4.356501	1.476022	0.000174
 233	2.3084e+01	9.2484	34.681015	0.000253	2.532849	0.858153	0.000101
 234	2.3183e+01	9.2773	34.854611	0.000436	4.356501	1.476022	0.000174
 235	2.3283e+01	9.3222	34.999948	0.000365	3.647303	1.235740	0.000146
 236	2.3383e+01	9.3543	35.141248	0.000355	3.545989	1.201414	0.000142
 237	2.3482e+01	9.4008	35.339068	0.000496	4.964385	1.681979	0.000199
 238	2.3581e+01	9.4409	35.439996	0.000253	2.532849	0.858153	0.000101
 239	2.3681e+01	9.4730	35.585333	0.000365	3.647303	1.235740	0.000146
 240	2.3780e+01	9.5163	35.734707	0.000375	3.748617	1.270066	0.000150
 241	2.3880e+01	9.5580	35.867932	0.000334	3.343361	1.132761	0.000134
 242	2.3980e+01	9.5901	36.041529	0.000436	4.356501	1.476022	0.000174
 243	2.4079e+01	9.6318	36.194940	0.000385	3.849931	1.304392	0.000154
 244	2.4178e+01	9.6703	36.279720	0.000213	2.127593	0.720848	0.000085
 245	2.4278e+01	9.7152	36.477540	0.000496	4.964385	1.681979	0.000199
 246	2.4378e+01	9.7521	36.626914	0.000375	3.748617	1.270066	0.000150
 247	2.4477e+01	9.7954	36.739954	0.000284	2.836791	0.961131	0.000114
 248	2.4576e+01	9.8307	36.901439	0.000405	4.052559	1.373044	0.000162
 249	2.4676e+01	9.8789	37.042739	0.000355	3.545989	1.201414	0.000142
 250	2.4776e+01	9.9238	37.196150	0.000385	3.849931	1.304392	0.000154
 251	2.4875e+01	9.9559	37.341487	0.000365	3.647303	1.235740	0.000146
 252	2.4974e+01	9.9783	37.446453	0.000263	2.634163	0.892479	0.000105
 253	2.5074e+01	10.0361	37.611975	0.000415	4.153873	1.407370	0.000166
 254	2.5174e+01	10.0778	37.793646	0.000456	4.559129	1.544675	0.000183
 255	2.5273e+01	10.1163	37.906686	0.000284	2.836791	0.961131	0.000114
 256	2.5372e+01	10.1532	38.064134	0.000395	3.951245	1.338718	0.000158
 257	2.5472e+01	10.1949	38.173137	0.000274	2.735477	0.926805	0.000110
 258	2.5572e+01	10.2334	38.362882	0.000476	4.761757	1.613327	0.000191
 259	2.5671e+01	10.2783	38.447662	0.000213	2.127593	0.720848	0.000085
 260	2.5770e+01	10.3120	38.609148	0.000405	4.052559	1.373044	0.000162
 261	2.5870e+01	10.3537	38.730262	0.000304	3.039419	1.029783	0.000122
 262	2.5970e+01	10.3954	38.928081	0.000496	4.964385	1.681979	0.000199
 263	2.6069e+01	10.4323	39.057270	0.000324	3.242047	1.098435	0.000130
 264	2.6169e+01	10.4724	39.190495	0.000334	3.343361	1.132761	0.000134
 265	2.6268e+01	10.5061	39.327758	0.000344	3.444675	1.167088	0.000138
 266	2.6367e+01	10.5623	39.509429	0.000456	4.559129	1.544675	0.000183
 267	2.6467e+01	10.5895	39.622469	0.000284	2.836791	0.961131	0.000114
 268	2.6567e+01	10.6377	39.759731	0.000344	3.444675	1.167088	0.000138
 269	2.6666e+01	10.6714	39.913142	0.000385	3.849931	1.304392	0.000154
 270	2.6765e+01	10.7131	40.034257	0.000304	3.039419	1.029783	0.000122
 271	2.6865e+01	10.7484	40.191705	0.000395	3.951245	1.338718	0.000158
 272	2.6965e+01	10.7965	40.288596	0.000243	2.431535	0.823826	0.000097
 273	2.7064e+01	10.8254	40.506601	0.000547	5.470955	1.853610	0.000219
 274	2.7163e+01	10.8639	40.595418	0.000223	2.228907	0.755174	0.000089
 275	2.7263e+01	10.9136	40.744792	0.000375	3.748617	1.270066	0.000150
 276	2.7363e+01	10.9633	40.918389	0.000436	4.356501	1.476022	0.000174
 277	2.7462e+01	10.9890	41.047578	0.000324	3.242047	1.098435	0.000130
 278	2.7561e+01	11.0243	41.164655	0.000294	2.938105	0.995457	0.000118
 279	2.7661e+01	11.0676	41.309991	0.000365	3.647303	1.235740	0.000146
 280	2.7761e+01	11.1141	41.443217	0.000334	3.343361	1.132761	0.000134
 281	2.7860e+01	11.1446	41.592591	0.000375	3.748617	1.270066	0.000150
 282	2.7959e+01	11.1927	41.717742	0.000314	3.140733	1.064109	0.000126
 283	2.8059e+01	11.2328	41.846930	0.000324	3.242047	1.098435	0.000130
 284	2.8159e+01	11.2697	42.012453	0.000415	4.153873	1.407370	0.000166
 285	2.8258e+01	11.3130	42.149716	0.000344	3.444675	1.167088	0.000138
 286	2.8358e+01	11.3371	42.315238	0.000415	4.153873	1.407370	0.000166
 287	2.8457e+01	11.3884	42.456538	0.000355	3.545989	1.201414	0.000142
 288	2.8556e+01	11.4286	42.561504	0.000263	2.634163	0.892479	0.000105
 289	2.8656e+01	11.4767	42.670506	0.000274	2.735477	0.926805	0.000110
 290	2.8756e+01	11.5104	42.831992	0.000405	4.052559	1.373044	0.000162
 291	2.8855e+01	11.5537	42.957143	0.000314	3.140733	1.064109	0.000126
 292	2.8954e+01	11.5842	43.106517	0.000375	3.748617	1.270066	0.000150
 293	2.9054e+01	11.6323	43.243779	0.000344	3.444675	1.167088	0.000138
 294	2.9154e+01	11.6708	43.356819	0.000284	2.836791	0.961131	0.000114
 295	2.9253e+01	11.7093	43.498119	0.000355	3.545989	1.201414	0.000142
 296	2.9352e+01	11.7462	43.631344	0.000334	3.343361	1.132761	0.000134
 297	2.9452e+01	11.7895	43.792830	0.000405	4.052559	1.373044	0.000162
 298	2.9552e+01	11.8312	43.901833	0.000274	2.735477	0.926805	0.000110
 299	2.9651e+01	11.8633	44.083504	0.000456	4.559129	1.544675	0.000183
 300	2.9750e+01	11.9194	44.212692	0.000324	3.242047	1.098435	0.000130
 301	2.9850e+01	11.9451	44.325732	0.000284	2.836791	0.961131	0.000114
 302	2.9950e+01	11.9836	44.430697	0.000263	2.634163	0.892479	0.000105
 303	3.0049e+01	12.0334	44.644666	0.000537	5.369641	1.819283	0.000215
 304	3.0148e+01	12.0735	44.737520	0.000233	2.330221	0.789500	0.000093
 305	3.0248e+01	12.1039	44.858634	0.000304	3.039419	1.029783	0.000122
 306	3.0348e+01	12.1456	44.971674	0.000284	2.836791	0.961131	0.000114
 307	3.0447e+01	12.1938	45.104899	0.000334	3.343361	1.132761	0.000134
 308	3.0547e+01	12.2291	45.274459	0.000426	4.255187	1.441696	0.000170
 309	3.0646e+01	12.2724	45.419796	0.000365	3.647303	1.235740	0.000146
 310	3.0745e+01	12.3077	45.532835	0.000284	2.836791	0.961131	0.000114
 311	3.0845e+01	12.3382	45.686247	0.000385	3.849931	1.304392	0.000154
 312	3.0945e+01	12.3879	45.815435	0.000324	3.242047	1.098435	0.000130
 313	3.1044e+01	12.4328	45.960772	0.000365	3.647303	1.235740	0.000146
 314	3.1143e+01	12.4601	46.065737	0.000263	2.634163	0.892479	0.000105
 315	3.1243e+01	12.5114	46.223186	0.000395	3.951245	1.338718	0.000158
 316	3.1343e+01	12.5451	46.340263	0.000294	2.938105	0.995457	0.000118
 317	3.1442e+01	12.5868	46.477525	0.000344	3.444675	1.167088	0.000138
 318	3.1541e+01	12.6157	46.582491	0.000263	2.634163	0.892479	0.000105
 319	3.1641e+01	12.6638	46.699568	0.000294	2.938105	0.995457	0.000118
 320	3.1741e+01	12.7071	46.885276	0.000466	4.660443	1.579001	0.000187
 321	3.1840e+01	12.7328	46.974093	0.000223	2.228907	0.755174	0.000089
 322	3.1939e+01	12.7889	47.127504	0.000385	3.849931	1.304392	0.000154
 323	3.2039e+01	12.8371	47.236507	0.000274	2.735477	0.926805	0.000110
 324	3.2139e+01	12.8643	47.389918	0.000385	3.849931	1.304392	0.000154
 325	3.2238e+01	12.9125	47.494883	0.000263	2.634163	0.892479	0.000105
 326	3.2337e+01	12.9430	47.636183	0.000355	3.545989	1.201414	0.000142
 327	3.2437e+01	12.9847	47.753260	0.000294	2.938105	0.995457	0.000118
 328	3.2536e+01	13.0344	47.882448	0.000324	3.242047	1.098435	0.000130
 329	3.2636e+01	13.0520	48.039897	0.000395	3.951245	1.338718	0.000158
 330	3.2736e+01	13.1082	48.152937	0.000284	2.836791	0.961131	0.000114
 331	3.2835e+01	13.1403	48.302311	0.000375	3.748617	1.270066	0.000150
 332	3.2934e+01	13.1772	48.451685	0.000375	3.748617	1.270066	0.000150
 333	3.3034e+01	13.2237	48.572799	0.000304	3.039419	1.029783	0.000122
 334	3.3133e+01	13.2558	48.697950	0.000314	3.140733	1.064109	0.000126
 335	3.3233e+01	13.3007	48.823101	0.000314	3.140733	1.064109	0.000126
 336	3.3333e+01	13.3424	48.940178	0.000294	2.938105	0.995457	0.000118
 337	3.3432e+01	13.3777	49.081478	0.000355	3.545989	1.201414	0.000142
 338	3.3532e+01	13.4146	49.230852	0.000375	3.748617	1.270066	0.000150
 339	3.3631e+01	13.4563	49.343892	0.000284	2.836791	0.961131	0.000114
 340	3.3730e+01	13.4948	49.481154	0.000344	3.444675	1.167088	0.000138
 341	3.3830e+01	13.5381	49.630528	0.000375	3.748617	1.270066	0.000150
 342	3.3929e+01	13.5846	49.731457	0.000253	2.532849	0.858153	0.000101
 343	3.4029e+01	13.6183	49.852571	0.000304	3.039419	1.029783	0.000122
 344	3.4129e+01	13.6600	49.997908	0.000365	3.647303	1.235740	0.000146
 345	3.4228e+01	13.6969	50.098836	0.000253	2.532849	0.858153	0.000101
 346	3.4328e+01	13.7370	50.232061	0.000334	3.343361	1.132761	0.000134
 347	3.4427e+01	13.7772	50.361250	0.000324	3.242047	1.098435	0.000130
 348	3.4526e+01	13.8237	50.498512	0.000344	3.444675	1.167088	0.000138
 349	3.4626e+01	13.8558	50.615589	0.000294	2.938105	0.995457	0.000118
 350	3.4725e+01	13.8943	50.732666	0.000294	2.938105	0.995457	0.000118
 351	3.4825e+01	13.9440	50.886077	0.000385	3.849931	1.304392	0.000154
 352	3.4925e+01	13.9889	50.991043	0.000263	2.634163	0.892479	0.000105
 353	3.5024e+01	14.0146	51.112157	0.000304	3.039419	1.029783	0.000122
 354	3.5123e+01	14.0499	51.233271	0.000304	3.039419	1.029783	0.000122
 355	3.5223e+01	14.0964	51.362459	0.000324	3.242047	1.098435	0.000130
 356	3.5322e+01	14.1461	51.455314	0.000233	2.330221	0.789500	0.000093
 357	3.5422e+01	14.1814	51.628910	0.000436	4.356501	1.476022	0.000174
 358	3.5522e+01	14.2119	51.762136	0.000334	3.343361	1.132761	0.000134
 359	3.5621e+01	14.2600	51.875176	0.000284	2.836791	0.961131	0.000114
 360	3.5721e+01	14.2953	51.988215	0.000284	2.836791	0.961131	0.000114
 361	3.5820e+01	14.3402	52.165849	0.000446	4.457815	1.510349	0.000179
 362	3.5919e+01	14.3803	52.274852	0.000274	2.735477	0.926805	0.000110
 363	3.6019e+01	14.4237	52.359632	0.000213	2.127593	0.720848	0.000085
 364	3.6118e+01	14.4525	52.529192	0.000426	4.255187	1.441696	0.000170
 365	3.6218e+01	14.4958	52.662417	0.000334	3.343361	1.132761	0.000134
 366	3.6318e+01	14.5376	52.747197	0.000213	2.127593	0.720848	0.000085
 367	3.6417e+01	14.5745	52.892534	0.000365	3.647303	1.235740	0.000146
 368	3.6517e+01	14.6178	53.013648	0.000304	3.039419	1.029783	0.000122
 369	3.6616e+01	14.6418	53.163022	0.000375	3.748617	1.270066	0.000150
 370	3.6715e+01	14.6980	53.288173	0.000314	3.140733	1.064109	0.000126
 371	3.6815e+01	14.7365	53.397176	0.000274	2.735477	0.926805	0.000110
 372	3.6914e+01	14.7766	53.526364	0.000324	3.242047	1.098435	0.000130
 373	3.7014e+01	14.8183	53.643441	0.000294	2.938105	0.995457	0.000118
 374	3.7114e+01	14.8616	53.756481	0.000284	2.836791	0.961131	0.000114
 375	3.7213e+01	14.8921	53.869521	0.000284	2.836791	0.961131	0.000114
 376	3.7313e+01	14.9306	53.986598	0.000294	2.938105	0.995457	0.000118
 377	3.7412e+01	14.9771	54.148083	0.000405	4.052559	1.373044	0.000162
 378	3.7511e+01	15.0172	54.257086	0.000274	2.735477	0.926805	0.000110
 379	3.7611e+01	15.0493	54.362051	0.000263	2.634163	0.892479	0.000105
 380	3.7711e+01	15.0926	54.491240	0.000324	3.242047	1.098435	0.000130
 381	3.7810e+01	15.1311	54.600242	0.000274	2.735477	0.926805	0.000110
 382	3.7910e+01	15.1744	54.749616	0.000375	3.748617	1.270066	0.000150
 383	3.8009e+01	15.2145	54.858619	0.000274	2.735477	0.926805	0.000110
 384	3.8108e+01	15.2530	54.987807	0.000324	3.242047	1.098435	0.000130
 385	3.8208e+01	15.2980	55.108921	0.000304	3.039419	1.029783	0.000122
 386	3.8307e+01	15.3349	55.234073	0.000314	3.140733	1.064109	0.000126
 387	3.8407e+01	15.3686	55.335001	0.000253	2.532849	0.858153	0.000101
 388	3.8507e+01	15.4071	55.500524	0.000415	4.153873	1.407370	0.000166
 389	3.8606e+01	15.4423	55.613563	0.000284	2.836791	0.961131	0.000114
 390	3.8706e+01	15.4889	55.746789	0.000334	3.343361	1.132761	0.000134
 391	3.8805e+01	15.5466	55.835606	0.000223	2.228907	0.755174	0.000089
 392	3.8904e+01	15.5707	55.972868	0.000344	3.444675	1.167088	0.000138
 393	3.9004e+01	15.6092	56.077834	0.000263	2.634163	0.892479	0.000105
 394	3.9103e+01	15.6637	56.219134	0.000355	3.545989	1.201414	0.000142
 395	3.9203e+01	15.6958	56.332174	0.000284	2.836791	0.961131	0.000114
 396	3.9303e+01	15.7407	56.465399	0.000334	3.343361	1.132761	0.000134
 397	3.9402e+01	15.7664	56.586513	0.000304	3.039419	1.029783	0.000122
 398	3.9502e+01	15.8065	56.695516	0.000274	2.735477	0.926805	0.000110
 399	3.9601e+01	15.8546	56.808556	0.000284	2.836791	0.961131	0.000114
 400	3.9700e+01	15.8899	56.957930	0.000375	3.748617	1.270066	0.000150
 401	3.9800e+01	15.9316	57.070969	0.000284	2.836791	0.961131	0.000114
 402	3.9900e+01	15.9814	57.167861	0.000243	2.431535	0.823826	0.000097
 403	3.9999e+01	16.0118	57.313198	0.000365	3.647303	1.235740	0.000146
 404	4.0099e+01	16.0423	57.422200	0.000274	2.735477	0.926805	0.000110
 405	4.0198e+01	16.0792	57.543314	0.000304	3.039419	1.029783	0.000122
 406	4.0297e+01	16.1274	57.636168	0.000233	2.330221	0.789500	0.000093
 407	4.0397e+01	16.1691	57.757282	0.000304	3.039419	1.029783	0.000122
 408	4.0496e+01	16.2060	57.922805	0.000415	4.153873	1.407370	0.000166
 409	4.0596e+01	16.2541	58.023733	0.000253	2.532849	0.858153	0.000101
 410	4.0696e+01	16.2878	58.140810	0.000294	2.938105	0.995457	0.000118
 411	4.0795e+01	16.3295	58.249813	0.000274	2.735477	0.926805	0.000110
 412	4.0895e+01	16.3680	58.391113	0.000355	3.545989	1.201414	0.000142
 413	4.0994e+01	16.4065	58.516264	0.000314	3.140733	1.064109	0.000126
 414	4.1093e+01	16.4530	58.641415	0.000314	3.140733	1.064109	0.000126
 415	4.1193e+01	16.4835	58.738306	0.000243	2.431535	0.823826	0.000097
 416	4.1292e+01	16.5220	58.863458	0.000314	3.140733	1.064109	0.000126
 417	4.1392e+01	16.5685	58.964386	0.000253	2.532849	0.858153	0.000101
 418	4.1492e+01	16.6070	59.142020	0.000446	4.457815	1.510349	0.000179
 419	4.1591e+01	16.6471	59.198540	0.000142	1.418396	0.480565	0.000057
 420	4.1691e+01	16.6792	59.331765	0.000334	3.343361	1.132761	0.000134
 421	4.1790e+01	16.7321	59.452879	0.000304	3.039419	1.029783	0.000122
 422	4.1889e+01	16.7690	59.549771	0.000243	2.431535	0.823826	0.000097
 423	4.1989e+01	16.8027	59.699145	0.000375	3.748617	1.270066	0.000150
 424	4.2089e+01	16.8493	59.796036	0.000243	2.431535	0.823826	0.000097
 425	4.2188e+01	16.8813	59.949447	0.000385	3.849931	1.304392	0.000154
 426	4.2288e+01	16.9279	60.094784	0.000365	3.647303	1.235740	0.000146
 427	4.2387e+01	16.9616	60.203787	0.000274	2.735477	0.926805	0.000110
 428	4.2486e+01	17.0001	60.300678	0.000243	2.431535	0.823826	0.000097
 429	4.2586e+01	17.0514	60.433903	0.000334	3.343361	1.132761	0.000134
 430	4.2685e+01	17.0883	60.538869	0.000263	2.634163	0.892479	0.000105
 431	4.2785e+01	17.1268	60.635760	0.000243	2.431535	0.823826	0.000097
 432	4.2885e+01	17.1685	60.781097	0.000365	3.647303	1.235740	0.000146
 433	4.2984e+01	17.2070	60.898174	0.000294	2.938105	0.995457	0.000118
 434	4.3084e+01	17.2551	61.035437	0.000344	3.444675	1.167088	0.000138
 435	4.3183e+01	17.2936	61.140402	0.000263	2.634163	0.892479	0.000105
 436	4.3282e+01	17.3161	61.265553	0.000314	3.140733	1.064109	0.000126
 437	4.3382e+01	17.3722	61.398779	0.000334	3.343361	1.132761	0.000134
 438	4.3481e+01	17.4011	61.519893	0.000304	3.039419	1.029783	0.000122
 439	4.3581e+01	17.4524	61.620821	0.000253	2.532849	0.858153	0.000101
 440	4.3681e+01	17.4813	61.713675	0.000233	2.330221	0.789500	0.000093
 441	4.3780e+01	17.5262	61.875161	0.000405	4.052559	1.373044	0.000162
 442	4.3880e+01	17.5631	61.996275	0.000304	3.039419	1.029783	0.000122
 443	4.3979e+01	17.6065	62.097203	0.000253	2.532849	0.858153	0.000101
 444	4.4078e+01	17.6450	62.206206	0.000274	2.735477	0.926805	0.000110
 445	4.4178e+01	17.6867	62.327320	0.000304	3.039419	1.029783	0.000122
 446	4.4278e+01	17.7188	62.468620	0.000355	3.545989	1.201414	0.000142
 447	4.4377e+01	17.7605	62.605882	0.000344	3.444675	1.167088	0.000138
 448	4.4477e+01	17.8086	62.731034	0.000314	3.140733	1.064109	0.000126
 449	4.4576e+01	17.8375	62.807739	0.000192	1.924965	0.652196	0.000077
 450	4.4675e+01	17.8824	62.940965	0.000334	3.343361	1.132761	0.000134
 451	4.4775e+01	17.9209	63.054005	0.000284	2.836791	0.961131	0.000114
 452	4.4874e+01	17.9626	63.199341	0.000365	3.647303	1.235740	0.000146
 453	4.4974e+01	18.0011	63.263936	0.000162	1.621024	0.549218	0.000065
 454	4.5074e+01	18.0444	63.457718	0.000486	4.863071	1.647653	0.000195
 455	4.5173e+01	18.0829	63.542498	0.000213	2.127593	0.720848	0.000085
 456	4.5273e+01	18.1166	63.671686	0.000324	3.242047	1.098435	0.000130
 457	4.5372e+01	18.1599	63.792800	0.000304	3.039419	1.029783	0.000122
 458	4.5471e+01	18.2032	63.897766	0.000263	2.634163	0.892479	0.000105
 459	4.5571e+01	18.2449	64.035029	0.000344	3.444675	1.167088	0.000138
 460	4.5670e+01	18.2722	64.152105	0.000294	2.938105	0.995457	0.000118
 461	4.5770e+01	18.3203	64.281294	0.000324	3.242047	1.098435	0.000130
 462	4.5870e+01	18.3620	64.406445	0.000314	3.140733	1.064109	0.000126
 463	4.5969e+01	18.3941	64.515448	0.000274	2.735477	0.926805	0.000110
 464	4.6069e+01	18.4374	64.636562	0.000304	3.039419	1.029783	0.000122
 465	4.6168e+01	18.4808	64.737490	0.000253	2.532849	0.858153	0.000101
 466	4.6267e+01	18.5128	64.874753	0.000344	3.444675	1.167088	0.000138
 467	4.6367e+01	18.5642	65.028164	0.000385	3.849931	1.304392	0.000154
 468	4.6467e+01	18.5995	65.096795	0.000172	1.722338	0.583544	0.000069
 469	4.6566e+01	18.6380	65.266355	0.000426	4.255187	1.441696	0.000170
 470	4.6666e+01	18.6877	65.375358	0.000274	2.735477	0.926805	0.000110
 471	4.6765e+01	18.7294	65.468212	0.000233	2.330221	0.789500	0.000093
 472	4.6864e+01	18.7647	65.585289	0.000294	2.938105	0.995457	0.000118
 473	4.6964e+01	18.7968	65.762923	0.000446	4.457815	1.510349	0.000179
 474	4.7063e+01	18.8337	65.851740	0.000223	2.228907	0.755174	0.000089
 475	4.7163e+01	18.8834	65.989002	0.000344	3.444675	1.167088	0.000138
 476	4.7263e+01	18.9283	66.073782	0.000213	2.127593	0.720848	0.000085
 477	4.7362e+01	18.9540	66.211045	0.000344	3.444675	1.167088	0.000138
 478	4.7462e+01	18.9973	66.340233	0.000324	3.242047	1.098435	0.000130
 479	4.7561e+01	19.0342	66.473458	0.000334	3.343361	1.132761	0.000134
 480	4.7660e+01	19.0840	66.622833	0.000375	3.748617	1.270066	0.000150
 481	4.7760e+01	19.1176	66.715687	0.000233	2.330221	0.789500	0.000093
 482	4.7859e+01	19.1658	66.873135	0.000395	3.951245	1.338718	0.000158
 483	4.7959e+01	19.2011	66.974063	0.000253	2.532849	0.858153	0.000101
 484	4.8059e+01	19.2315	67.095177	0.000304	3.039419	1.029783	0.000122
 485	4.8158e+01	19.2845	67.212254	0.000294	2.938105	0.995457	0.000118
 486	4.8258e+01	19.3214	67.349517	0.000344	3.444675	1.167088	0.000138
 487	4.8357e+01	19.3631	67.422185	0.000182	1.823652	0.617870	0.000073
 488	4.8456e+01	19.3968	67.543299	0.000304	3.039419	1.029783	0.000122
 489	4.8556e+01	19.4401	67.761305	0.000547	5.470955	1.853610	0.000219
 490	4.8656e+01	19.4818	67.829936	0.000172	1.722338	0.583544	0.000069
 491	4.8755e+01	19.5187	67.967199	0.000344	3.444675	1.167088	0.000138
 492	4.8855e+01	19.5556	68.104461	0.000344	3.444675	1.167088	0.000138
 493	4.8954e+01	19.5957	68.249798	0.000365	3.647303	1.235740	0.000146
 494	4.9053e+01	19.6326	68.358801	0.000274	2.735477	0.926805	0.000110
 495	4.9153e+01	19.6679	68.467804	0.000274	2.735477	0.926805	0.000110
 496	4.9252e+01	19.7176	68.653512	0.000466	4.660443	1.579001	0.000187
 497	4.9352e+01	19.7609	68.742329	0.000223	2.228907	0.755174	0.000089
 498	4.9452e+01	19.7898	68.891703	0.000375	3.748617	1.270066	0.000150
 499	4.9551e+01	19.8363	68.976483	0.000213	2.127593	0.720848	0.000085
 500	4.9651e+01	19.8732	69.121820	0.000365	3.647303	1.235740	0.000146
 501	4.9750e+01	19.9149	69.279268	0.000395	3.951245	1.338718	0.000158
 502	4.9849e+01	19.9583	69.408456	0.000324	3.242047	1.098435	0.000130
 503	4.9949e+01	19.9984	69.533607	0.000314	3.140733	1.064109	0.000126
 504	5.0048e+01	19.9518	69.505347	0.000071	0.709198	0.240283	-0.000028
 505	5.0148e+01	19.9166	69.432679	0.000182	1.823652	0.617870	-0.000073
 506	5.0248e+01	19.8684	69.384233	0.000122	1.215768	0.411913	-0.000049
 507	5.0347e+01	19.8476	69.295416	0.000223	2.228907	0.755174	-0.000089
 508	5.0447e+01	19.7914	69.222748	0.000182	1.823652	0.617870	-0.000073
 509	5.0546e+01	19.7561	69.146042	0.000192	1.924965	0.652196	-0.000077
 510	5.0645e+01	19.7112	69.073374	0.000182	1.823652	0.617870	-0.000073
 511	5.0745e+01	19.6727	69.045114	0.000071	0.709198	0.240283	-0.000028
 512	5.0844e+01	19.6326	68.960334	0.000213	2.127593	0.720848	-0.000085
 513	5.0944e+01	19.5925	68.887666	0.000182	1.823652	0.617870	-0.000073
 514	5.1044e+01	19.5620	68.831146	0.000142	1.418396	0.480565	-0.000057
 515	5.1143e+01	19.5171	68.754440	0.000192	1.924965	0.652196	-0.000077
 516	5.1242e+01	19.4658	68.697920	0.000142	1.418396	0.480565	-0.000057
 517	5.1342e+01	19.4385	68.653512	0.000111	1.114454	0.377587	-0.000045
 518	5.1441e+01	19.4000	68.544509	0.000274	2.735477	0.926805	-0.000110
 519	5.1541e+01	19.3647	68.479915	0.000162	1.621024	0.549218	-0.000065
 520	5.1641e+01	19.3182	68.415321	0.000162	1.621024	0.549218	-0.000065
 521	5.1740e+01	19.2797	68.358801	0.000142	1.418396	0.480565	-0.000057
 522	5.1840e+01	19.2476	68.257872	0.000253	2.532849	0.858153	-0.000101
 523	5.1939e+01	19.1962	68.189241	0.000172	1.722338	0.583544	-0.000069
 524	5.2038e+01	19.1642	68.120610	0.000172	1.722338	0.583544	-0.000069
 525	5.2138e+01	19.1112	68.080239	0.000101	1.013140	0.343261	-0.000041
 526	5.2237e+01	19.0759	67.995459	0.000213	2.127593	0.720848	-0.000085
 527	5.2337e+01	19.0374	67.906642	0.000223	2.228907	0.755174	-0.000089
 528	5.2437e+01	19.0037	67.850122	0.000142	1.418396	0.480565	-0.000057
 529	5.2536e+01	18.9620	67.745156	0.000263	2.634163	0.892479	-0.000105
 530	5.2636e+01	18.9107	67.708822	0.000091	0.911826	0.308935	-0.000037
 531	5.2735e+01	18.8802	67.611931	0.000243	2.431535	0.823826	-0.000097
 532	5.2834e+01	18.8449	67.543299	0.000172	1.722338	0.583544	-0.000069
 533	5.2934e+01	18.8016	67.462557	0.000203	2.026279	0.686522	-0.000081
 534	5.3033e+01	18.7647	67.410074	0.000132	1.317082	0.446239	-0.000053
 535	5.3133e+01	18.7182	67.305108	0.000263	2.634163	0.892479	-0.000105
 536	5.3233e+01	18.6765	67.236477	0.000172	1.722338	0.583544	-0.000069
 537	5.3332e+01	18.6380	67.167846	0.000172	1.722338	0.583544	-0.000069
 538	5.3431e+01	18.6011	67.087103	0.000203	2.026279	0.686522	-0.000081
 539	5.3531e+01	18.5578	66.990212	0.000243	2.431535	0.823826	-0.000097
 540	5.3630e+01	18.5193	66.929655	0.000152	1.519710	0.514892	-0.000061
 541	5.3730e+01	18.4759	66.861024	0.000172	1.722338	0.583544	-0.000069
 542	5.3830e+01	18.4358	66.764132	0.000243	2.431535	0.823826	-0.000097
 543	5.3929e+01	18.4006	66.695501	0.000172	1.722338	0.583544	-0.000069
 544	5.4029e+01	18.3717	66.610721	0.000213	2.127593	0.720848	-0.000085
 545	5.4128e+01	18.3268	66.521904	0.000223	2.228907	0.755174	-0.000089
 546	5.4227e+01	18.2899	66.437124	0.000213	2.127593	0.720848	-0.000085
 547	5.4327e+01	18.2369	66.348307	0.000223	2.228907	0.755174	-0.000089
 548	5.4426e+01	18.2000	66.259490	0.000223	2.228907	0.755174	-0.000089
 549	5.4526e+01	18.1647	66.211045	0.000122	1.215768	0.411913	-0.000049
 550	5.4626e+01	18.1294	66.134339	0.000192	1.924965	0.652196	-0.000077
 551	5.4725e+01	18.0813	66.001114	0.000334	3.343361	1.132761	-0.000134
 552	5.4825e+01	18.0444	65.972854	0.000071	0.709198	0.240283	-0.000028
 553	5.4924e+01	18.0027	65.859814	0.000284	2.836791	0.961131	-0.000114
 554	5.5023e+01	17.9706	65.775034	0.000213	2.127593	0.720848	-0.000085
 555	5.5123e+01	17.9225	65.678143	0.000243	2.431535	0.823826	-0.000097
 556	5.5222e+01	17.8824	65.625660	0.000132	1.317082	0.446239	-0.000053
 557	5.5322e+01	17.8423	65.561066	0.000162	1.621024	0.549218	-0.000065
 558	5.5422e+01	17.7990	65.427840	0.000334	3.343361	1.132761	-0.000134
 559	5.5521e+01	17.7637	65.383432	0.000111	1.114454	0.377587	-0.000045
 560	5.5620e+01	17.7284	65.294615	0.000223	2.228907	0.755174	-0.000089
 561	5.5720e+01	17.6931	65.177538	0.000294	2.938105	0.995457	-0.000118
 562	5.5819e+01	17.6353	65.112944	0.000162	1.621024	0.549218	-0.000065
 563	5.5919e+01	17.5920	65.003941	0.000274	2.735477	0.926805	-0.000110
 564	5.6019e+01	17.5567	64.903013	0.000253	2.532849	0.858153	-0.000101
 565	5.6118e+01	17.5295	64.874753	0.000071	0.709198	0.240283	-0.000028
 566	5.6218e+01	17.4781	64.745564	0.000324	3.242047	1.098435	-0.000130
 567	5.6317e+01	17.4541	64.656747	0.000223	2.228907	0.755174	-0.000089
 568	5.6416e+01	17.4139	64.588116	0.000172	1.722338	0.583544	-0.000069
 569	5.6516e+01	17.3658	64.491225	0.000243	2.431535	0.823826	-0.000097
 570	5.6615e+01	17.3321	64.398371	0.000233	2.330221	0.789500	-0.000093
 571	5.6715e+01	17.2856	64.317628	0.000203	2.026279	0.686522	-0.000081
 572	5.6815e+01	17.2455	64.204588	0.000284	2.836791	0.961131	-0.000114
 573	5.6914e+01	17.2102	64.099623	0.000263	2.634163	0.892479	-0.000105
 574	5.7014e+01	17.1589	64.039066	0.000152	1.519710	0.514892	-0.000061
 575	5.7113e+01	17.1204	63.946212	0.000233	2.330221	0.789500	-0.000093
 576	5.7212e+01	17.0835	63.841246	0.000263	2.634163	0.892479	-0.000105
 577	5.7312e+01	17.0370	63.712058	0.000324	3.242047	1.098435	-0.000130
 578	5.7411e+01	17.0001	63.663612	0.000122	1.215768	0.411913	-0.000049
 579	5.7511e+01	16.9648	63.558646	0.000263	2.634163	0.892479	-0.000105
 580	5.7611e+01	16.9247	63.473867	0.000213	2.127593	0.720848	-0.000085
 581	5.7710e+01	16.8894	63.376975	0.000243	2.431535	0.823826	-0.000097
 582	5.7809e+01	16.8509	63.280084	0.000243	2.431535	0.823826	-0.000097
 583	5.7909e+01	16.8027	63.183193	0.000243	2.431535	0.823826	-0.000097
 584	5.8008e+01	16.7642	63.074190	0.000274	2.735477	0.926805	-0.000110
 585	5.8108e+01	16.7305	62.965188	0.000274	2.735477	0.926805	-0.000110
 586	5.8208e+01	16.6904	62.908668	0.000142	1.418396	0.480565	-0.000057
 587	5.8307e+01	16.6503	62.791591	0.000294	2.938105	0.995457	-0.000118
 588	5.8407e+01	16.6022	62.739108	0.000132	1.317082	0.446239	-0.000053
 589	5.8506e+01	16.5717	62.609920	0.000324	3.242047	1.098435	-0.000130
 590	5.8605e+01	16.5284	62.545325	0.000162	1.621024	0.549218	-0.000065
 591	5.8705e+01	16.4851	62.404026	0.000355	3.545989	1.201414	-0.000142
 592	5.8804e+01	16.4482	62.339431	0.000162	1.621024	0.549218	-0.000065
 593	5.8904e+01	16.4065	62.270800	0.000172	1.722338	0.583544	-0.000069
 594	5.9004e+01	16.3696	62.157760	0.000284	2.836791	0.961131	-0.000114
 595	5.9103e+01	16.3311	62.060869	0.000243	2.431535	0.823826	-0.000097
 596	5.9203e+01	16.2846	61.939755	0.000304	3.039419	1.029783	-0.000122
 597	5.9302e+01	16.2477	61.854975	0.000213	2.127593	0.720848	-0.000085
 598	5.9401e+01	16.2188	61.782307	0.000182	1.823652	0.617870	-0.000073
 599	5.9501e+01	16.1707	61.661193	0.000304	3.039419	1.029783	-0.000122
 600	5.9600e+01	16.1338	61.564301	0.000243	2.431535	0.823826	-0.000097
 601	5.9700e+01	16.0953	61.467410	0.000243	2.431535	0.823826	-0.000097
 602	5.9800e+01	16.0552	61.362445	0.000263	2.634163	0.892479	-0.000105
 603	5.9899e+01	16.0102	61.269591	0.000233	2.330221	0.789500	-0.000093
 604	5.9998e+01	15.9750	61.124254	0.000365	3.647303	1.235740	-0.000146
 605	6.0098e+01	15.9300	61.059659	0.000162	1.621024	0.549218	-0.000065
 606	6.0197e+01	15.8931	60.978917	0.000203	2.026279	0.686522	-0.000081
 607	6.0297e+01	15.8498	60.861840	0.000294	2.938105	0.995457	-0.000118
 608	6.0397e+01	15.8049	60.728614	0.000334	3.343361	1.132761	-0.000134
 609	6.0496e+01	15.7792	60.643834	0.000213	2.127593	0.720848	-0.000085
 610	6.0596e+01	15.7343	60.555018	0.000223	2.228907	0.755174	-0.000089
 611	6.0695e+01	15.6830	60.437941	0.000294	2.938105	0.995457	-0.000118
 612	6.0794e+01	15.6605	60.341049	0.000243	2.431535	0.823826	-0.000097
 613	6.0894e+01	15.6220	60.264344	0.000192	1.924965	0.652196	-0.000077
 614	6.0993e+01	15.5675	60.143230	0.000304	3.039419	1.029783	-0.000122
 615	6.1093e+01	15.5274	60.046338	0.000243	2.431535	0.823826	-0.000097
 616	6.1193e+01	15.4985	59.937336	0.000274	2.735477	0.926805	-0.000110
 617	6.1292e+01	15.4616	59.820259	0.000294	2.938105	0.995457	-0.000118
 618	6.1392e+01	15.4135	59.747590	0.000182	1.823652	0.617870	-0.000073
 619	6.1491e+01	15.3734	59.598216	0.000375	3.748617	1.270066	-0.000150
 620	6.1590e+01	15.3397	59.521511	0.000192	1.924965	0.652196	-0.000077
 621	6.1690e+01	15.2803	59.428657	0.000233	2.330221	0.789500	-0.000093
 622	6.1789e+01	15.2595	59.343877	0.000213	2.127593	0.720848	-0.000085
 623	6.1889e+01	15.2161	59.206614	0.000344	3.444675	1.167088	-0.000138
 624	6.1989e+01	15.1648	59.142020	0.000162	1.621024	0.549218	-0.000065
 625	6.2088e+01	15.1247	59.000720	0.000355	3.545989	1.201414	-0.000142
 626	6.2188e+01	15.0926	58.875569	0.000314	3.140733	1.064109	-0.000126
 627	6.2287e+01	15.0557	58.774641	0.000253	2.532849	0.858153	-0.000101
 628	6.2386e+01	15.0060	58.681787	0.000233	2.330221	0.789500	-0.000093
 629	6.2486e+01	14.9595	58.552598	0.000324	3.242047	1.098435	-0.000130
 630	6.2586e+01	14.9242	58.447633	0.000263	2.634163	0.892479	-0.000105
 631	6.2685e+01	14.9001	58.391113	0.000142	1.418396	0.480565	-0.000057
 632	6.2785e+01	14.8616	58.237702	0.000385	3.849931	1.304392	-0.000154
 633	6.2884e+01	14.8103	58.148885	0.000223	2.228907	0.755174	-0.000089
 634	6.2983e+01	14.7782	58.080253	0.000172	1.722338	0.583544	-0.000069
 635	6.3083e+01	14.7317	57.934916	0.000365	3.647303	1.235740	-0.000146
 636	6.3182e+01	14.6980	57.850137	0.000213	2.127593	0.720848	-0.000085
 637	6.3282e+01	14.6627	57.737097	0.000284	2.836791	0.961131	-0.000114
 638	6.3382e+01	14.6130	57.620020	0.000294	2.938105	0.995457	-0.000118
 639	6.3481e+01	14.5761	57.527166	0.000233	2.330221	0.789500	-0.000093
 640	6.3581e+01	14.5424	57.397977	0.000324	3.242047	1.098435	-0.000130
 641	6.3680e+01	14.4958	57.272826	0.000314	3.140733	1.064109	-0.000126
 642	6.3779e+01	14.4525	57.196121	0.000192	1.924965	0.652196	-0.000077
 643	6.3879e+01	14.4156	57.070969	0.000314	3.140733	1.064109	-0.000126
 644	6.3978e+01	14.3771	56.961967	0.000274	2.735477	0.926805	-0.000110
 645	6.4078e+01	14.3370	56.857001	0.000263	2.634163	0.892479	-0.000105
 646	6.4177e+01	14.2921	56.731850	0.000314	3.140733	1.064109	-0.000126
 647	6.4277e+01	14.2600	56.643033	0.000223	2.228907	0.755174	-0.000089
 648	6.4376e+01	14.2183	56.513845	0.000324	3.242047	1.098435	-0.000130
 649	6.4476e+01	14.1766	56.408879	0.000263	2.634163	0.892479	-0.000105
 650	6.4576e+01	14.1333	56.263542	0.000365	3.647303	1.235740	-0.000146
 651	6.4675e+01	14.0996	56.146465	0.000294	2.938105	0.995457	-0.000118
 652	6.4775e+01	14.0611	56.081871	0.000162	1.621024	0.549218	-0.000065
 653	6.4874e+01	14.0242	55.964794	0.000294	2.938105	0.995457	-0.000118
 654	6.4974e+01	13.9761	55.819457	0.000365	3.647303	1.235740	-0.000146
 655	6.5073e+01	13.9376	55.754863	0.000162	1.621024	0.549218	-0.000065
 656	6.5172e+01	13.9007	55.621638	0.000334	3.343361	1.132761	-0.000134
 657	6.5272e+01	13.8590	55.484375	0.000344	3.444675	1.167088	-0.000138
 658	6.5371e+01	13.8189	55.403632	0.000203	2.026279	0.686522	-0.000081
 659	6.5471e+01	13.7755	55.262333	0.000355	3.545989	1.201414	-0.000142
 660	6.5570e+01	13.7338	55.153330	0.000274	2.735477	0.926805	-0.000110
 661	6.5670e+01	13.7018	55.048364	0.000263	2.634163	0.892479	-0.000105
 662	6.5769e+01	13.6649	54.955510	0.000233	2.330221	0.789500	-0.000093
 663	6.5869e+01	13.6231	54.846508	0.000274	2.735477	0.926805	-0.000110
 664	6.5969e+01	13.5862	54.725393	0.000304	3.039419	1.029783	-0.000122
 665	6.6068e+01	13.5365	54.580057	0.000365	3.647303	1.235740	-0.000146
 666	6.6168e+01	13.4980	54.503351	0.000192	1.924965	0.652196	-0.000077
 667	6.6267e+01	13.4579	54.362051	0.000355	3.545989	1.201414	-0.000142
 668	6.6367e+01	13.4242	54.289383	0.000182	1.823652	0.617870	-0.000073
 669	6.6466e+01	13.3809	54.127897	0.000405	4.052559	1.373044	-0.000162
 670	6.6566e+01	13.3344	54.022932	0.000263	2.634163	0.892479	-0.000105
 671	6.6665e+01	13.3055	53.913929	0.000274	2.735477	0.926805	-0.000110
 672	6.6764e+01	13.2526	53.788778	0.000314	3.140733	1.064109	-0.000126
 673	6.6864e+01	13.2189	53.671701	0.000294	2.938105	0.995457	-0.000118
 674	6.6963e+01	13.1691	53.594995	0.000192	1.924965	0.652196	-0.000077
 675	6.7063e+01	13.1322	53.453696	0.000355	3.545989	1.201414	-0.000142
 676	6.7162e+01	13.1002	53.364879	0.000223	2.228907	0.755174	-0.000089
 677	6.7262e+01	13.0569	53.195319	0.000426	4.255187	1.441696	-0.000170
 678	6.7362e+01	13.0135	53.118613	0.000192	1.924965	0.652196	-0.000077
 679	6.7461e+01	12.9911	52.961165	0.000395	3.951245	1.338718	-0.000158
 680	6.7561e+01	12.9446	52.848125	0.000284	2.836791	0.961131	-0.000114
 681	6.7660e+01	12.9044	52.771420	0.000192	1.924965	0.652196	-0.000077
 682	6.7760e+01	12.8659	52.658380	0.000284	2.836791	0.961131	-0.000114
 683	6.7859e+01	12.8226	52.504969	0.000385	3.849931	1.304392	-0.000154
 684	6.7959e+01	12.7873	52.387892	0.000294	2.938105	0.995457	-0.000118
 685	6.8058e+01	12.7408	52.274852	0.000284	2.836791	0.961131	-0.000114
 686	6.8157e+01	12.7087	52.153738	0.000304	3.039419	1.029783	-0.000122
 687	6.8257e+01	12.6590	52.052810	0.000253	2.532849	0.858153	-0.000101
 688	6.8356e+01	12.6349	51.959956	0.000233	2.330221	0.789500	-0.000093
 689	6.8456e+01	12.5868	51.822693	0.000344	3.444675	1.167088	-0.000138
 690	6.8555e+01	12.5467	51.689467	0.000334	3.343361	1.132761	-0.000134
 691	6.8655e+01	12.5066	51.552205	0.000344	3.444675	1.167088	-0.000138
 692	6.8754e+01	12.4729	51.439165	0.000284	2.836791	0.961131	-0.000114
 693	6.8854e+01	12.4248	51.326125	0.000284	2.836791	0.961131	-0.000114
 694	6.8954e+01	12.3911	51.180788	0.000365	3.647303	1.235740	-0.000146
 695	6.9053e+01	12.3414	51.083897	0.000243	2.431535	0.823826	-0.000097
 696	6.9153e+01	12.2997	50.962783	0.000304	3.039419	1.029783	-0.000122
 697	6.9252e+01	12.2628	50.837632	0.000314	3.140733	1.064109	-0.000126
 698	6.9352e+01	12.2291	50.708443	0.000324	3.242047	1.098435	-0.000130
 699	6.9451e+01	12.1922	50.603478	0.000263	2.634163	0.892479	-0.000105
 700	6.9550e+01	12.1473	50.474290	0.000324	3.242047	1.098435	-0.000130
 701	6.9650e+01	12.1087	50.385473	0.000223	2.228907	0.755174	-0.000089
 702	6.9749e+01	12.0654	50.236099	0.000375	3.748617	1.270066	-0.000150
 703	6.9849e+01	12.0285	50.106910	0.000324	3.242047	1.098435	-0.000130
 704	6.9948e+01	11.9804	49.997908	0.000274	2.735477	0.926805	-0.000110
 705	7.0048e+01	11.9403	49.872756	0.000314	3.140733	1.064109	-0.000126
 706	7.0147e+01	11.9018	49.735494	0.000344	3.444675	1.167088	-0.000138
 707	7.0247e+01	11.8713	49.638602	0.000243	2.431535	0.823826	-0.000097
 708	7.0347e+01	11.8312	49.493266	0.000365	3.647303	1.235740	-0.000146
 709	7.0446e+01	11.7879	49.384263	0.000274	2.735477	0.926805	-0.000110
 710	7.0546e+01	11.7510	49.267186	0.000294	2.938105	0.995457	-0.000118
 711	7.0645e+01	11.7205	49.121849	0.000365	3.647303	1.235740	-0.000146
 712	7.0745e+01	11.6708	48.992661	0.000324	3.242047	1.098435	-0.000130
 713	7.0844e+01	11.6323	48.891732	0.000253	2.532849	0.858153	-0.000101
 714	7.0944e+01	11.5906	48.734284	0.000395	3.951245	1.338718	-0.000158
 715	7.1043e+01	11.5441	48.617207	0.000294	2.938105	0.995457	-0.000118
 716	7.1142e+01	11.5184	48.516279	0.000253	2.532849	0.858153	-0.000101
 717	7.1242e+01	11.4703	48.366905	0.000375	3.748617	1.270066	-0.000150
 718	7.1341e+01	11.4253	48.261939	0.000263	2.634163	0.892479	-0.000105
 719	7.1441e+01	11.3868	48.181196	0.000203	2.026279	0.686522	-0.000081
 720	7.1540e+01	11.3548	48.027785	0.000385	3.849931	1.304392	-0.000154
 721	7.1640e+01	11.3130	47.874374	0.000385	3.849931	1.304392	-0.000154
 722	7.1740e+01	11.2745	47.773446	0.000253	2.532849	0.858153	-0.000101
 723	7.1839e+01	11.2248	47.611960	0.000405	4.052559	1.373044	-0.000162
 724	7.1939e+01	11.1927	47.498921	0.000284	2.836791	0.961131	-0.000114
 725	7.2038e+01	11.1526	47.369732	0.000324	3.242047	1.098435	-0.000130
 726	7.2138e+01	11.1093	47.228432	0.000355	3.545989	1.201414	-0.000142
 727	7.2237e+01	11.0708	47.135578	0.000233	2.330221	0.789500	-0.000093
 728	7.2337e+01	11.0307	47.014464	0.000304	3.039419	1.029783	-0.000122
 729	7.2436e+01	10.9970	46.869127	0.000365	3.647303	1.235740	-0.000146
 730	7.2535e+01	10.9537	46.723790	0.000365	3.647303	1.235740	-0.000146
 731	7.2635e+01	10.9088	46.598639	0.000314	3.140733	1.064109	-0.000126
 732	7.2734e+01	10.8719	46.465414	0.000334	3.343361	1.132761	-0.000134
 733	7.2834e+01	10.8302	46.376597	0.000223	2.228907	0.755174	-0.000089
 734	7.2933e+01	10.7885	46.231260	0.000365	3.647303	1.235740	-0.000146
 735	7.3033e+01	10.7500	46.098034	0.000334	3.343361	1.132761	-0.000134
 736	7.3132e+01	10.7195	45.997106	0.000253	2.532849	0.858153	-0.000101
 737	7.3232e+01	10.6698	45.859843	0.000344	3.444675	1.167088	-0.000138
 738	7.3332e+01	10.6361	45.702395	0.000395	3.951245	1.338718	-0.000158
 739	7.3431e+01	10.5944	45.617615	0.000213	2.127593	0.720848	-0.000085
 740	7.3531e+01	10.5575	45.484390	0.000334	3.343361	1.132761	-0.000134
 741	7.3630e+01	10.5141	45.339053	0.000365	3.647303	1.235740	-0.000146
 742	7.3730e+01	10.4644	45.205827	0.000334	3.343361	1.132761	-0.000134
 743	7.3829e+01	10.4307	45.060491	0.000365	3.647303	1.235740	-0.000146
 744	7.3928e+01	10.3938	44.947451	0.000284	2.836791	0.961131	-0.000114
 745	7.4028e+01	10.3521	44.818262	0.000324	3.242047	1.098435	-0.000130
 746	7.4127e+01	10.3168	44.709260	0.000274	2.735477	0.926805	-0.000110
 747	7.4227e+01	10.2703	44.527589	0.000456	4.559129	1.544675	-0.000183
 748	7.4326e+01	10.2318	44.374177	0.000385	3.849931	1.304392	-0.000154
 749	7.4426e+01	10.1933	44.277286	0.000243	2.431535	0.823826	-0.000097
 750	7.4525e+01	10.1500	44.156172	0.000304	3.039419	1.029783	-0.000122
 751	7.4625e+01	10.1115	44.010835	0.000365	3.647303	1.235740	-0.000146
 752	7.4725e+01	10.0714	43.873573	0.000344	3.444675	1.167088	-0.000138
 753	7.4824e+01	10.0313	43.756496	0.000294	2.938105	0.995457	-0.000118
 754	7.4924e+01	9.9912	43.590973	0.000415	4.153873	1.407370	-0.000166
 755	7.5023e+01	9.9575	43.498119	0.000233	2.330221	0.789500	-0.000093
 756	7.5123e+01	9.9142	43.352782	0.000365	3.647303	1.235740	-0.000146
 757	7.5222e+01	9.8869	43.219557	0.000334	3.343361	1.132761	-0.000134
 758	7.5322e+01	9.8436	43.094405	0.000314	3.140733	1.064109	-0.000126
 759	7.5421e+01	9.8035	42.961180	0.000334	3.343361	1.132761	-0.000134
 760	7.5520e+01	9.7505	42.811806	0.000375	3.748617	1.270066	-0.000150
 761	7.5620e+01	9.7184	42.694729	0.000294	2.938105	0.995457	-0.000118
 762	7.5719e+01	9.6783	42.533244	0.000405	4.052559	1.373044	-0.000162
 763	7.5819e+01	9.6414	42.456538	0.000192	1.924965	0.652196	-0.000077
 764	7.5918e+01	9.5981	42.315238	0.000355	3.545989	1.201414	-0.000142
 765	7.6018e+01	9.5580	42.157790	0.000395	3.951245	1.338718	-0.000158
 766	7.6118e+01	9.5163	42.044750	0.000284	2.836791	0.961131	-0.000114
 767	7.6217e+01	9.4842	41.891339	0.000385	3.849931	1.304392	-0.000154
 768	7.6317e+01	9.4377	41.746002	0.000365	3.647303	1.235740	-0.000146
 769	7.6416e+01	9.3992	41.636999	0.000274	2.735477	0.926805	-0.000110
 770	7.6516e+01	9.3591	41.491663	0.000365	3.647303	1.235740	-0.000146
 771	7.6615e+01	9.3206	41.374586	0.000294	2.938105	0.995457	-0.000118
 772	7.6715e+01	9.2757	41.225212	0.000375	3.748617	1.270066	-0.000150
 773	7.6814e+01	9.2227	41.100060	0.000314	3.140733	1.064109	-0.000126
 774	7.6913e+01	9.2051	40.962798	0.000344	3.444675	1.167088	-0.000138
 775	7.7013e+01	9.1650	40.817461	0.000365	3.647303	1.235740	-0.000146
 776	7.7112e+01	9.1185	40.680198	0.000344	3.444675	1.167088	-0.000138
 777	7.7212e+01	9.0800	40.546973	0.000334	3.343361	1.132761	-0.000134
 778	7.7311e+01	9.0463	40.437970	0.000274	2.735477	0.926805	-0.000110
 779	7.7411e+01	8.9997	40.256299	0.000456	4.559129	1.544675	-0.000183
 780	7.7510e+01	8.9596	40.151333	0.000263	2.634163	0.892479	-0.000105
 781	7.7610e+01	8.9195	39.977737	0.000436	4.356501	1.476022	-0.000174
 782	7.7710e+01	8.8842	39.917180	0.000152	1.519710	0.514892	-0.000061
 783	7.7809e+01	8.8425	39.699174	0.000547	5.470955	1.853610	-0.000219
 784	7.7909e+01	8.8024	39.602283	0.000243	2.431535	0.823826	-0.000097
 785	7.8008e+01	8.7575	39.489243	0.000284	2.836791	0.961131	-0.000114
 786	7.8108e+01	8.7190	39.303535	0.000466	4.660443	1.579001	-0.000187
 787	7.8207e+01	8.6805	39.194532	0.000274	2.735477	0.926805	-0.000110
 788	7.8306e+01	8.6340	39.016898	0.000446	4.457815	1.510349	-0.000179
 789	7.8406e+01	8.5955	38.883673	0.000334	3.343361	1.132761	-0.000134
 790	7.8505e+01	8.5554	38.734299	0.000375	3.748617	1.270066	-0.000150
 791	7.8605e+01	8.5169	38.657593	0.000192	1.924965	0.652196	-0.000077
 792	7.8704e+01	8.4752	38.483996	0.000436	4.356501	1.476022	-0.000174
 793	7.8804e+01	8.4367	38.362882	0.000304	3.039419	1.029783	-0.000122
 794	7.8903e+01	8.4062	38.205434	0.000395	3.951245	1.338718	-0.000158
 795	7.9003e+01	8.3661	38.072209	0.000334	3.343361	1.132761	-0.000134
 796	7.9103e+01	8.3196	37.926872	0.000365	3.647303	1.235740	-0.000146
 797	7.9202e+01	8.2810	37.793646	0.000334	3.343361	1.132761	-0.000134
 798	7.9302e+01	8.2474	37.636198	0.000395	3.951245	1.338718	-0.000158
 799	7.9401e+01	8.2024	37.535270	0.000253	2.532849	0.858153	-0.000101
 800	7.9501e+01	8.1591	37.341487	0.000486	4.863071	1.647653	-0.000195
 801	7.9600e+01	8.1254	37.244596	0.000243	2.431535	0.823826	-0.000097
 802	7.9700e+01	8.0725	37.062925	0.000456	4.559129	1.544675	-0.000183
 803	7.9799e+01	8.0436	36.949885	0.000284	2.836791	0.961131	-0.000114
 804	7.9898e+01	8.0051	36.796474	0.000385	3.849931	1.304392	-0.000154
 805	7.9998e+01	7.9554	36.663248	0.000334	3.343361	1.132761	-0.000134
 806	8.0097e+01	7.9217	36.461391	0.000507	5.065699	1.716305	-0.000203
 807	8.0197e+01	7.8832	36.376612	0.000213	2.127593	0.720848	-0.000085
 808	8.0296e+01	7.8463	36.223200	0.000385	3.849931	1.304392	-0.000154
 809	8.0396e+01	7.7982	36.069789	0.000385	3.849931	1.304392	-0.000154
 810	8.0496e+01	7.7645	35.896192	0.000436	4.356501	1.476022	-0.000174
 811	8.0595e+01	7.7212	35.771041	0.000314	3.140733	1.064109	-0.000126
 812	8.0695e+01	7.6811	35.629741	0.000355	3.545989	1.201414	-0.000142
 813	8.0794e+01	7.6490	35.488442	0.000355	3.545989	1.201414	-0.000142
 814	8.0894e+01	7.5993	35.335031	0.000385	3.849931	1.304392	-0.000154
 815	8.0993e+01	7.5672	35.238139	0.000243	2.431535	0.823826	-0.000097
 816	8.1093e+01	7.5222	35.056468	0.000456	4.559129	1.544675	-0.000183
 817	8.1192e+01	7.4950	34.931317	0.000314	3.140733	1.064109	-0.000126
 818	8.1291e+01	7.4597	34.769832	0.000405	4.052559	1.373044	-0.000162
 819	8.1391e+01	7.3987	34.628532	0.000355	3.545989	1.201414	-0.000142
 820	8.1490e+01	7.3618	34.503381	0.000314	3.140733	1.064109	-0.000126
 821	8.1590e+01	7.3281	34.337858	0.000415	4.153873	1.407370	-0.000166
 822	8.1689e+01	7.2848	34.184447	0.000385	3.849931	1.304392	-0.000154
 823	8.1789e+01	7.2431	34.055259	0.000324	3.242047	1.098435	-0.000130
 824	8.1888e+01	7.2062	33.877625	0.000446	4.457815	1.510349	-0.000179
 825	8.1988e+01	7.1549	33.728251	0.000375	3.748617	1.270066	-0.000150
 826	8.2088e+01	7.1244	33.607136	0.000304	3.039419	1.029783	-0.000122
 827	8.2187e+01	7.0875	33.465837	0.000355	3.545989	1.201414	-0.000142
 828	8.2287e+01	7.0506	33.320500	0.000365	3.647303	1.235740	-0.000146
 829	8.2386e+01	6.9929	33.171126	0.000375	3.748617	1.270066	-0.000150
 830	8.2486e+01	6.9624	33.025789	0.000365	3.647303	1.235740	-0.000146
 831	8.2585e+01	6.9223	32.860266	0.000415	4.153873	1.407370	-0.000166
 832	8.2684e+01	6.8886	32.727041	0.000334	3.343361	1.132761	-0.000134
 833	8.2784e+01	6.8469	32.549407	0.000446	4.457815	1.510349	-0.000179
 834	8.2883e+01	6.8116	32.440404	0.000274	2.735477	0.926805	-0.000110
 835	8.2983e+01	6.7538	32.295067	0.000365	3.647303	1.235740	-0.000146
 836	8.3082e+01	6.7249	32.113396	0.000456	4.559129	1.544675	-0.000183
 837	8.3182e+01	6.6816	31.984208	0.000324	3.242047	1.098435	-0.000130
 838	8.3281e+01	6.6495	31.798500	0.000466	4.660443	1.579001	-0.000187
 839	8.3381e+01	6.6046	31.677386	0.000304	3.039419	1.029783	-0.000122
 840	8.3481e+01	6.5693	31.503789	0.000436	4.356501	1.476022	-0.000174
 841	8.3580e+01	6.5292	31.378638	0.000314	3.140733	1.064109	-0.000126
 842	8.3680e+01	6.4923	31.205041	0.000436	4.356501	1.476022	-0.000174
 843	8.3779e+01	6.4474	31.079889	0.000314	3.140733	1.064109	-0.000126
 844	8.3879e+01	6.4057	30.926478	0.000385	3.849931	1.304392	-0.000154
 845	8.3978e+01	6.3688	30.829587	0.000243	2.431535	0.823826	-0.000097
 846	8.4078e+01	6.3367	30.619656	0.000527	5.268327	1.784957	-0.000211
 847	8.4177e+01	6.2838	30.474319	0.000365	3.647303	1.235740	-0.000146
 848	8.4276e+01	6.2453	30.296685	0.000446	4.457815	1.510349	-0.000179
 849	8.4376e+01	6.2116	30.135200	0.000405	4.052559	1.373044	-0.000162
 850	8.4475e+01	6.1763	30.050420	0.000213	2.127593	0.720848	-0.000085
 851	8.4575e+01	6.1330	29.860674	0.000476	4.761757	1.613327	-0.000191
 852	8.4674e+01	6.0865	29.683041	0.000446	4.457815	1.510349	-0.000179
 853	8.4774e+01	6.0560	29.549815	0.000334	3.343361	1.132761	-0.000134
 854	8.4874e+01	6.0079	29.420627	0.000324	3.242047	1.098435	-0.000130
 855	8.4973e+01	5.9742	29.226844	0.000486	4.863071	1.647653	-0.000195
 856	8.5073e+01	5.9357	29.093619	0.000334	3.343361	1.132761	-0.000134
 857	8.5172e+01	5.8875	28.952319	0.000355	3.545989	1.201414	-0.000142
 858	8.5272e+01	5.8506	28.794871	0.000395	3.951245	1.338718	-0.000158
 859	8.5371e+01	5.8089	28.629348	0.000415	4.153873	1.407370	-0.000166
 860	8.5471e+01	5.7720	28.467863	0.000405	4.052559	1.373044	-0.000162
 861	8.5570e+01	5.7351	28.306377	0.000405	4.052559	1.373044	-0.000162
 862	8.5669e+01	5.6982	28.173152	0.000334	3.343361	1.132761	-0.000134
 863	8.5769e+01	5.6533	28.023778	0.000375	3.748617	1.270066	-0.000150
 864	8.5868e+01	5.6132	27.862292	0.000405	4.052559	1.373044	-0.000162
 865	8.5968e+01	5.5731	27.680621	0.000456	4.559129	1.544675	-0.000183
 866	8.6067e+01	5.5330	27.527210	0.000385	3.849931	1.304392	-0.000154
 867	8.6167e+01	5.4929	27.410133	0.000294	2.938105	0.995457	-0.000118
 868	8.6266e+01	5.4528	27.212313	0.000496	4.964385	1.681979	-0.000199
 869	8.6366e+01	5.4095	27.095237	0.000294	2.938105	0.995457	-0.000118
 870	8.6466e+01	5.3774	26.897417	0.000496	4.964385	1.681979	-0.000199
 871	8.6565e+01	5.3373	26.748043	0.000375	3.748617	1.270066	-0.000150
 872	8.6665e+01	5.2940	26.606743	0.000355	3.545989	1.201414	-0.000142
 873	8.6764e+01	5.2619	26.449295	0.000395	3.951245	1.338718	-0.000158
 874	8.6864e+01	5.2089	26.307995	0.000355	3.545989	1.201414	-0.000142
 875	8.6963e+01	5.1624	26.110175	0.000496	4.964385	1.681979	-0.000199
 876	8.7063e+01	5.1303	25.940616	0.000426	4.255187	1.441696	-0.000170
 877	8.7162e+01	5.0918	25.847762	0.000233	2.330221	0.789500	-0.000093
 878	8.7261e+01	5.0581	25.637831	0.000527	5.268327	1.784957	-0.000211
 879	8.7361e+01	5.0132	25.476345	0.000405	4.052559	1.373044	-0.000162
 880	8.7460e+01	4.9731	25.322934	0.000385	3.849931	1.304392	-0.000154
 881	8.7560e+01	4.9410	25.177597	0.000365	3.647303	1.235740	-0.000146
 882	8.7659e+01	4.8945	25.040334	0.000344	3.444675	1.167088	-0.000138
 883	8.7759e+01	4.8480	24.866738	0.000436	4.356501	1.476022	-0.000174
 884	8.7859e+01	4.8191	24.664881	0.000507	5.065699	1.716305	-0.000203
 885	8.7958e+01	4.7694	24.523581	0.000355	3.545989	1.201414	-0.000142
 886	8.8058e+01	4.7341	24.370170	0.000385	3.849931	1.304392	-0.000154
 887	8.8157e+01	4.6956	24.236944	0.000334	3.343361	1.132761	-0.000134
 888	8.8257e+01	4.6619	24.047199	0.000476	4.761757	1.613327	-0.000191
 889	8.8356e+01	4.6154	23.918011	0.000324	3.242047	1.098435	-0.000130
 890	8.8456e+01	4.5817	23.748451	0.000426	4.255187	1.441696	-0.000170
 891	8.8555e+01	4.5336	23.566780	0.000456	4.559129	1.544675	-0.000183
 892	8.8654e+01	4.4967	23.393183	0.000436	4.356501	1.476022	-0.000174
 893	8.8754e+01	4.4550	23.239772	0.000385	3.849931	1.304392	-0.000154
 894	8.8853e+01	4.4116	23.078286	0.000405	4.052559	1.373044	-0.000162
 895	8.8953e+01	4.3747	22.888541	0.000476	4.761757	1.613327	-0.000191
 896	8.9052e+01	4.3394	22.747241	0.000355	3.545989	1.201414	-0.000142
 897	8.9152e+01	4.2977	22.565570	0.000456	4.559129	1.544675	-0.000183
 898	8.9251e+01	4.2657	22.400048	0.000415	4.153873	1.407370	-0.000166
 899	8.9351e+01	4.2207	22.250674	0.000375	3.748617	1.270066	-0.000150
 900	8.9451e+01	4.1806	22.101300	0.000375	3.748617	1.270066	-0.000150
 901	8.9550e+01	4.1437	21.899443	0.000507	5.065699	1.716305	-0.000203
 902	8.9650e+01	4.0940	21.754106	0.000365	3.647303	1.235740	-0.000146
 903	8.9749e+01	4.0667	21.624918	0.000324	3.242047	1.098435	-0.000130
 904	8.9849e+01	4.0170	21.463432	0.000405	4.052559	1.373044	-0.000162
 905	8.9948e+01	3.9865	21.277724	0.000466	4.660443	1.579001	-0.000187
 906	9.0047e+01	3.9336	21.112201	0.000415	4.153873	1.407370	-0.000166
 907	9.0147e+01	3.9015	20.950716	0.000405	4.052559	1.373044	-0.000162
 908	9.0246e+01	3.8502	20.801342	0.000375	3.748617	1.270066	-0.000150
 909	9.0346e+01	3.8277	20.607559	0.000486	4.863071	1.647653	-0.000195
 910	9.0445e+01	3.7780	20.429925	0.000446	4.457815	1.510349	-0.000179
 911	9.0545e+01	3.7411	20.244217	0.000466	4.660443	1.579001	-0.000187
 912	9.0644e+01	3.6945	20.094843	0.000375	3.748617	1.270066	-0.000150
 913	9.0744e+01	3.6560	19.941432	0.000385	3.849931	1.304392	-0.000154
 914	9.0844e+01	3.6240	19.763798	0.000446	4.457815	1.510349	-0.000179
 915	9.0943e+01	3.5806	19.626535	0.000344	3.444675	1.167088	-0.000138
 916	9.1043e+01	3.5421	19.392382	0.000588	5.876210	1.990914	-0.000235
 917	9.1142e+01	3.5052	19.287416	0.000263	2.634163	0.892479	-0.000105
 918	9.1242e+01	3.4587	19.081522	0.000517	5.167013	1.750631	-0.000207
 919	9.1341e+01	3.4218	18.924074	0.000395	3.951245	1.338718	-0.000158
 920	9.1441e+01	3.3785	18.750477	0.000436	4.356501	1.476022	-0.000174
 921	9.1540e+01	3.3432	18.605140	0.000365	3.647303	1.235740	-0.000146
 922	9.1639e+01	3.2967	18.407320	0.000496	4.964385	1.681979	-0.000199
 923	9.1739e+01	3.2646	18.286206	0.000304	3.039419	1.029783	-0.000122
 924	9.1838e+01	3.2149	18.084350	0.000507	5.065699	1.716305	-0.000203
 925	9.1938e+01	3.1796	17.886530	0.000496	4.964385	1.681979	-0.000199
 926	9.2037e+01	3.1475	17.757342	0.000324	3.242047	1.098435	-0.000130
 927	9.2137e+01	3.1058	17.555485	0.000507	5.065699	1.716305	-0.000203
 928	9.2237e+01	3.0577	17.398036	0.000395	3.951245	1.338718	-0.000158
 929	9.2336e+01	3.0224	17.244625	0.000385	3.849931	1.304392	-0.000154
 930	9.2436e+01	2.9871	17.083140	0.000405	4.052559	1.373044	-0.000162
 931	9.2535e+01	2.9341	16.909543	0.000436	4.356501	1.476022	-0.000174
 932	9.2635e+01	2.9053	16.739983	0.000426	4.255187	1.441696	-0.000170
 933	9.2734e+01	2.8571	16.562349	0.000446	4.457815	1.510349	-0.000179
 934	9.2834e+01	2.8267	16.400864	0.000405	4.052559	1.373044	-0.000162
 935	9.2933e+01	2.7866	16.255527	0.000365	3.647303	1.235740	-0.000146
 936	9.3032e+01	2.7497	16.045596	0.000527	5.268327	1.784957	-0.000211
 937	9.3132e+01	2.7031	15.859888	0.000466	4.660443	1.579001	-0.000187
 938	9.3231e+01	2.6630	15.698402	0.000405	4.052559	1.373044	-0.000162
 939	9.3331e+01	2.6213	15.561140	0.000344	3.444675	1.167088	-0.000138
 940	9.3430e+01	2.5828	15.379469	0.000456	4.559129	1.544675	-0.000183
 941	9.3530e+01	2.5475	15.197797	0.000456	4.559129	1.544675	-0.000183
 942	9.3629e+01	2.5074	15.008052	0.000476	4.761757	1.613327	-0.000191
 943	9.3729e+01	2.4689	14.842530	0.000415	4.153873	1.407370	-0.000166
 944	9.3829e+01	2.4208	14.672970	0.000426	4.255187	1.441696	-0.000170
 945	9.3928e+01	2.3871	14.487262	0.000466	4.660443	1.579001	-0.000187
 946	9.4028e+01	2.3454	14.301553	0.000466	4.660443	1.579001	-0.000187
 947	9.4127e+01	2.2989	14.123919	0.000446	4.457815	1.510349	-0.000179
 948	9.4227e+01	2.2604	13.962434	0.000405	4.052559	1.373044	-0.000162
 949	9.4326e+01	2.2283	13.821134	0.000355	3.545989	1.201414	-0.000142
 950	9.4425e+01	2.1834	13.591017	0.000577	5.774896	1.956588	-0.000231
 951	9.4525e+01	2.1417	13.453755	0.000344	3.444675	1.167088	-0.000138
 952	9.4624e+01	2.0919	13.239787	0.000537	5.369641	1.819283	-0.000215
 953	9.4724e+01	2.0711	13.098487	0.000355	3.545989	1.201414	-0.000142
 954	9.4823e+01	2.0197	12.924890	0.000436	4.356501	1.476022	-0.000174
 955	9.4923e+01	1.9860	12.743219	0.000456	4.559129	1.544675	-0.000183
 956	9.5022e+01	1.9459	12.569622	0.000436	4.356501	1.476022	-0.000174
 957	9.5122e+01	1.9042	12.383914	0.000466	4.660443	1.579001	-0.000187
 958	9.5222e+01	1.8705	12.202243	0.000456	4.559129	1.544675	-0.000183
 959	9.5321e+01	1.8240	12.008460	0.000486	4.863071	1.647653	-0.000195
 960	9.5421e+01	1.7871	11.810641	0.000496	4.964385	1.681979	-0.000199
 961	9.5520e+01	1.7470	11.657229	0.000385	3.849931	1.304392	-0.000154
 962	9.5620e+01	1.7085	11.487670	0.000426	4.255187	1.441696	-0.000170
 963	9.5719e+01	1.6716	11.326184	0.000405	4.052559	1.373044	-0.000162
 964	9.5819e+01	1.6251	11.108179	0.000547	5.470955	1.853610	-0.000219
 965	9.5918e+01	1.5882	10.950731	0.000395	3.951245	1.338718	-0.000158
 966	9.6017e+01	1.5545	10.760985	0.000476	4.761757	1.613327	-0.000191
 967	9.6117e+01	1.5096	10.631797	0.000324	3.242047	1.098435	-0.000130
 968	9.6216e+01	1.4711	10.425903	0.000517	5.167013	1.750631	-0.000207
 969	9.6316e+01	1.4165	10.268455	0.000395	3.951245	1.338718	-0.000158
 970	9.6415e+01	1.3893	10.050449	0.000547	5.470955	1.853610	-0.000219
 971	9.6515e+01	1.3476	9.893001	0.000395	3.951245	1.338718	-0.000158
 972	9.6615e+01	1.3074	9.695181	0.000496	4.964385	1.681979	-0.000199
 973	9.6714e+01	1.2722	9.497362	0.000496	4.964385	1.681979	-0.000199
 974	9.6814e+01	1.2272	9.311654	0.000466	4.660443	1.579001	-0.000187
 975	9.6913e+01	1.1887	9.142094	0.000426	4.255187	1.441696	-0.000170
 976	9.7013e+01	1.1470	8.988683	0.000385	3.849931	1.304392	-0.000154
 977	9.7112e+01	1.1069	8.819123	0.000426	4.255187	1.441696	-0.000170
 978	9.7212e+01	1.0716	8.613229	0.000517	5.167013	1.750631	-0.000207
 979	9.7311e+01	1.0347	8.435595	0.000446	4.457815	1.510349	-0.000179
 980	9.7410e+01	0.9898	8.209516	0.000567	5.673583	1.922262	-0.000227
 981	9.7510e+01	0.9545	8.092439	0.000294	2.938105	0.995457	-0.000118
 982	9.7609e+01	0.9048	7.898656	0.000486	4.863071	1.647653	-0.000195
 983	9.7709e+01	0.8791	7.692762	0.000517	5.167013	1.750631	-0.000207
 984	9.7808e+01	0.8358	7.519165	0.000436	4.356501	1.476022	-0.000174
 985	9.7908e+01	0.7909	7.341531	0.000446	4.457815	1.510349	-0.000179
 986	9.8007e+01	0.7556	7.147749	0.000486	4.863071	1.647653	-0.000195
 987	9.8107e+01	0.7155	6.949929	0.000496	4.964385	1.681979	-0.000199
 988	9.8207e+01	0.6738	6.780369	0.000426	4.255187	1.441696	-0.000170
 989	9.8306e+01	0.6273	6.586587	0.000486	4.863071	1.647653	-0.000195
 990	9.8406e+01	0.6016	6.396842	0.000476	4.761757	1.613327	-0.000191
 991	9.8505e+01	0.5486	6.211133	0.000466	4.660443	1.579001	-0.000187
 992	9.8605e+01	0.5053	6.053685	0.000395	3.951245	1.338718	-0.000158
 993	9.8704e+01	0.4732	5.880088	0.000436	4.356501	1.476022	-0.000174
 994	9.8803e+01	0.4283	5.658046	0.000557	5.572269	1.887936	-0.000223
 995	9.8903e+01	0.3882	5.484449	0.000436	4.356501	1.476022	-0.000174
 996	9.9002e+01	0.3529	5.302778	0.000456	4.559129	1.544675	-0.000183
 997	9.9102e+01	0.3064	5.149367	0.000385	3.849931	1.304392	-0.000154
 998	9.9201e+01	0.2695	4.927324	0.000557	5.572269	1.887936	-0.000223
 999	9.9301e+01	0.2390	4.769876	0.000395	3.951245	1.338718	-0.000158
1000	9.9400e+01	0.1941	4.592242	0.000446	4.457815	1.510349	-0.000179
1001	9.9500e+01	0.1636	4.390385	0.000507	5.065699	1.716305	-0.000203
1002	9.9600e+01	0.1075	4.220825	0.000426	4.255187	1.441696	-0.000170
1003	9.9699e+01	0.0818	4.002820	0.000547	5.470955	1.853610	-0.000219
1004	9.9799e+01	0.0289	3.821149	0.000456	4.559129	1.544675	-0.000183
1005	9.9898e+01	-0.0048	3.695998	0.000314	3.140733	1.064109	-0.000126
1006	9.9998e+01	-0.0433	3.494141	0.000507	5.065699	1.716305	-0.000203
1007	1.0010e+02	-0.0850	3.288247	0.000517	5.167013	1.750631	-0.000207
1008	1.0020e+02	-0.1171	3.142910	0.000365	3.647303	1.235740	-0.000146
1009	1.0030e+02	-0.1636	2.945091	0.000496	4.964385	1.681979	-0.000199
1010	1.0040e+02	-0.1989	2.747271	0.000496	4.964385	1.681979	-0.000199
1011	1.0050e+02	-0.2390	2.517154	0.000577	5.774896	1.956588	-0.000231
1012	1.0059e+02	-0.2823	2.355669	0.000405	4.052559	1.373044	-0.000162
1013	1.0069e+02	-0.3176	2.202258	0.000385	3.849931	1.304392	-0.000154
1014	1.0079e+02	-0.3593	1.976178	0.000567	5.673583	1.922262	-0.000227
1015	1.0089e+02	-0.3898	1.810655	0.000415	4.153873	1.407370	-0.000166
1016	1.0099e+02	-0.4444	1.624947	0.000466	4.660443	1.579001	-0.000187
1017	1.0109e+02	-0.4829	1.443276	0.000456	4.559129	1.544675	-0.000183
1018	1.0119e+02	-0.5166	1.221234	0.000557	5.572269	1.887936	-0.000223
1019	1.0129e+02	-0.5583	1.055711	0.000415	4.153873	1.407370	-0.000166
1020	1.0139e+02	-0.6000	0.857891	0.000496	4.964385	1.681979	-0.000199
1021	1.0149e+02	-0.6353	0.664109	0.000486	4.863071	1.647653	-0.000195
1022	1.0159e+02	-0.6770	0.498586	0.000415	4.153873	1.407370	-0.000166
1023	1.0169e+02	-0.7155	0.268470	0.000577	5.774896	1.956588	-0.000231
1024	1.0179e+02	-0.7540	0.151393	0.000294	2.938105	0.995457	-0.000118
1025	1.0189e+02	-0.7957	-0.078724	0.000577	5.774896	1.956588	-0.000231
1026	1.0199e+02	-0.8422	-0.260395	0.000456	4.559129	1.544675	-0.000183
1027	1.0209e+02	-0.8695	-0.446103	0.000466	4.660443	1.579001	-0.000187
1028	1.0219e+02	-0.9112	-0.684295	0.000598	5.977524	2.025240	-0.000239
1029	1.0229e+02	-0.9545	-0.841743	0.000395	3.951245	1.338718	-0.000158
1030	1.0239e+02	-1.0026	-1.059748	0.000547	5.470955	1.853610	-0.000219
1031	1.0248e+02	-1.0283	-1.233345	0.000436	4.356501	1.476022	-0.000174
1032	1.0258e+02	-1.0652	-1.423090	0.000476	4.761757	1.613327	-0.000191
1033	1.0268e+02	-1.1133	-1.616873	0.000486	4.863071	1.647653	-0.000195
1034	1.0278e+02	-1.1567	-1.798544	0.000456	4.559129	1.544675	-0.000183
1035	1.0288e+02	-1.1903	-1.992326	0.000486	4.863071	1.647653	-0.000195
1036	1.0298e+02	-1.2272	-2.173998	0.000456	4.559129	1.544675	-0.000183
1037	1.0308e+02	-1.2738	-2.387966	0.000537	5.369641	1.819283	-0.000215
1038	1.0318e+02	-1.3219	-2.569637	0.000456	4.559129	1.544675	-0.000183
1039	1.0328e+02	-1.3508	-2.751308	0.000456	4.559129	1.544675	-0.000183
1040	1.0338e+02	-1.3845	-2.977388	0.000567	5.673583	1.922262	-0.000227
1041	1.0348e+02	-1.4390	-3.171170	0.000486	4.863071	1.647653	-0.000195
1042	1.0358e+02	-1.4663	-3.308433	0.000344	3.444675	1.167088	-0.000138
1043	1.0368e+02	-1.5144	-3.538549	0.000577	5.774896	1.956588	-0.000231
1044	1.0378e+02	-1.5577	-3.691961	0.000385	3.849931	1.304392	-0.000154
1045	1.0388e+02	-1.5898	-3.922077	0.000577	5.774896	1.956588	-0.000231
1046	1.0398e+02	-1.6235	-4.095674	0.000436	4.356501	1.476022	-0.000174
1047	1.0408e+02	-1.6796	-4.236974	0.000355	3.545989	1.201414	-0.000142
1048	1.0418e+02	-1.7149	-4.459016	0.000557	5.572269	1.887936	-0.000223
1049	1.0428e+02	-1.7631	-4.656836	0.000496	4.964385	1.681979	-0.000199
1050	1.0438e+02	-1.7951	-4.818322	0.000405	4.052559	1.373044	-0.000162
1051	1.0447e+02	-1.8352	-5.048438	0.000577	5.774896	1.956588	-0.000231
1052	1.0457e+02	-1.8545	-5.226072	0.000446	4.457815	1.510349	-0.000179
1053	1.0467e+02	-1.9090	-5.423892	0.000496	4.964385	1.681979	-0.000199
1054	1.0477e+02	-1.9443	-5.589414	0.000415	4.153873	1.407370	-0.000166
1055	1.0487e+02	-1.9925	-5.754937	0.000415	4.153873	1.407370	-0.000166
1056	1.0497e+02	-2.0294	-5.968905	0.000537	5.369641	1.819283	-0.000215
1057	1.0507e+02	-2.0775	-6.158651	0.000476	4.761757	1.613327	-0.000191
1058	1.0517e+02	-2.1160	-6.316099	0.000395	3.951245	1.338718	-0.000158
1059	1.0527e+02	-2.1529	-6.554290	0.000598	5.977524	2.025240	-0.000239
1060	1.0537e+02	-2.1914	-6.739998	0.000466	4.660443	1.579001	-0.000187
1061	1.0547e+02	-2.2315	-6.901484	0.000405	4.052559	1.373044	-0.000162
1062	1.0557e+02	-2.2716	-7.075080	0.000436	4.356501	1.476022	-0.000174
1063	1.0567e+02	-2.3149	-7.289049	0.000537	5.369641	1.819283	-0.000215
1064	1.0577e+02	-2.3534	-7.490905	0.000507	5.065699	1.716305	-0.000203
1065	1.0587e+02	-2.3983	-7.668539	0.000446	4.457815	1.510349	-0.000179
1066	1.0597e+02	-2.4368	-7.813876	0.000365	3.647303	1.235740	-0.000146
1067	1.0607e+02	-2.4657	-8.039956	0.000567	5.673583	1.922262	-0.000227
1068	1.0617e+02	-2.5106	-8.209516	0.000426	4.255187	1.441696	-0.000170
1069	1.0627e+02	-2.5507	-8.419447	0.000527	5.268327	1.784957	-0.000211
1070	1.0637e+02	-2.5860	-8.597081	0.000446	4.457815	1.510349	-0.000179
1071	1.0647e+02	-2.6277	-8.778752	0.000456	4.559129	1.544675	-0.000183
1072	1.0656e+02	-2.6662	-8.948311	0.000426	4.255187	1.441696	-0.000170
1073	1.0666e+02	-2.7079	-9.146131	0.000496	4.964385	1.681979	-0.000199
1074	1.0676e+02	-2.7448	-9.335876	0.000476	4.761757	1.613327	-0.000191
1075	1.0686e+02	-2.7849	-9.533696	0.000496	4.964385	1.681979	-0.000199
1076	1.0696e+02	-2.8251	-9.735553	0.000507	5.065699	1.716305	-0.000203
1077	1.0706e+02	-2.8684	-9.913187	0.000446	4.457815	1.510349	-0.000179
1078	1.0716e+02	-2.9149	-10.082747	0.000426	4.255187	1.441696	-0.000170
1079	1.0726e+02	-2.9534	-10.252306	0.000426	4.255187	1.441696	-0.000170
1080	1.0736e+02	-2.9887	-10.438014	0.000466	4.660443	1.579001	-0.000187
1081	1.0746e+02	-3.0256	-10.639871	0.000507	5.065699	1.716305	-0.000203
1082	1.0756e+02	-3.0673	-10.853839	0.000537	5.369641	1.819283	-0.000215
1083	1.0766e+02	-3.1058	-11.003213	0.000375	3.748617	1.270066	-0.000150
1084	1.0776e+02	-3.1427	-11.176810	0.000436	4.356501	1.476022	-0.000174
1085	1.0786e+02	-3.1812	-11.415001	0.000598	5.977524	2.025240	-0.000239
1086	1.0796e+02	-3.2277	-11.552264	0.000344	3.444675	1.167088	-0.000138
1087	1.0806e+02	-3.2614	-11.721824	0.000426	4.255187	1.441696	-0.000170
1088	1.0816e+02	-3.3079	-11.899458	0.000446	4.457815	1.510349	-0.000179
1089	1.0826e+02	-3.3480	-12.089203	0.000476	4.761757	1.613327	-0.000191
1090	1.0836e+02	-3.3849	-12.303171	0.000537	5.369641	1.819283	-0.000215
1091	1.0845e+02	-3.4315	-12.460619	0.000395	3.951245	1.338718	-0.000158
1092	1.0855e+02	-3.4716	-12.634216	0.000436	4.356501	1.476022	-0.000174
1093	1.0865e+02	-3.5020	-12.795702	0.000405	4.052559	1.373044	-0.000162
1094	1.0875e+02	-3.5438	-13.005633	0.000527	5.268327	1.784957	-0.000211
1095	1.0885e+02	-3.5839	-13.187304	0.000456	4.559129	1.544675	-0.000183
1096	1.0895e+02	-3.6256	-13.360901	0.000436	4.356501	1.476022	-0.000174
1097	1.0905e+02	-3.6625	-13.542572	0.000456	4.559129	1.544675	-0.000183
1098	1.0915e+02	-3.7042	-13.728280	0.000466	4.660443	1.579001	-0.000187
1099	1.0925e+02	-3.7411	-13.901877	0.000436	4.356501	1.476022	-0.000174
1100	1.0935e+02	-3.7828	-14.083548	0.000456	4.559129	1.544675	-0.000183
1101	1.0945e+02	-3.8309	-14.269256	0.000466	4.660443	1.579001	-0.000187
1102	1.0955e+02	-3.8694	-14.418630	0.000375	3.748617	1.270066	-0.000150
1103	1.0965e+02	-3.9015	-14.616450	0.000496	4.964385	1.681979	-0.000199
1104	1.0975e+02	-3.9448	-14.794084	0.000446	4.457815	1.510349	-0.000179
1105	1.0985e+02	-3.9881	-14.955569	0.000405	4.052559	1.373044	-0.000162
1106	1.0995e+02	-4.0218	-15.125129	0.000426	4.255187	1.441696	-0.000170
1107	1.1005e+02	-4.0651	-15.302763	0.000446	4.457815	1.510349	-0.000179
1108	1.1015e+02	-4.1020	-15.476360	0.000436	4.356501	1.476022	-0.000174
1109	1.1025e+02	-4.1469	-15.629771	0.000385	3.849931	1.304392	-0.000154
1110	1.1035e+02	-4.1806	-15.855851	0.000567	5.673583	1.922262	-0.000227
1111	1.1044e+02	-4.2239	-16.017336	0.000405	4.052559	1.373044	-0.000162
1112	1.1054e+02	-4.2721	-16.199007	0.000456	4.559129	1.544675	-0.000183
1113	1.1064e+02	-4.3009	-16.336270	0.000344	3.444675	1.167088	-0.000138
1114	1.1074e+02	-4.3523	-16.534089	0.000496	4.964385	1.681979	-0.000199
1115	1.1084e+02	-4.3796	-16.719798	0.000466	4.660443	1.579001	-0.000187
1116	1.1094e+02	-4.4181	-16.885320	0.000415	4.153873	1.407370	-0.000166
1117	1.1104e+02	-4.4694	-17.083140	0.000496	4.964385	1.681979	-0.000199
1118	1.1114e+02	-4.4999	-17.244625	0.000405	4.052559	1.373044	-0.000162
1119	1.1124e+02	-4.5384	-17.381888	0.000344	3.444675	1.167088	-0.000138
1120	1.1134e+02	-4.5785	-17.551448	0.000426	4.255187	1.441696	-0.000170
1121	1.1144e+02	-4.6218	-17.696785	0.000365	3.647303	1.235740	-0.000146
1122	1.1154e+02	-4.6603	-17.926901	0.000577	5.774896	1.956588	-0.000231
1123	1.1164e+02	-4.7036	-18.072238	0.000365	3.647303	1.235740	-0.000146
1124	1.1174e+02	-4.7517	-18.241798	0.000426	4.255187	1.441696	-0.000170
1125	1.1184e+02	-4.7854	-18.427506	0.000466	4.660443	1.579001	-0.000187
1126	1.1194e+02	-4.8207	-18.584954	0.000395	3.951245	1.338718	-0.000158
1127	1.1204e+02	-4.8592	-18.718180	0.000334	3.343361	1.132761	-0.000134
1128	1.1214e+02	-4.9009	-18.920037	0.000507	5.065699	1.716305	-0.000203
1129	1.1224e+02	-4.9426	-19.061336	0.000355	3.545989	1.201414	-0.000142
1130	1.1234e+02	-4.9763	-19.247045	0.000466	4.660443	1.579001	-0.000187
1131	1.1244e+02	-5.0180	-19.404493	0.000395	3.951245	1.338718	-0.000158
1132	1.1253e+02	-5.0614	-19.570015	0.000415	4.153873	1.407370	-0.000166
1133	1.1263e+02	-5.0983	-19.707278	0.000344	3.444675	1.167088	-0.000138
1134	1.1273e+02	-5.1319	-19.872801	0.000415	4.153873	1.407370	-0.000166
1135	1.1283e+02	-5.1849	-20.086769	0.000537	5.369641	1.819283	-0.000215
1136	1.1293e+02	-5.2266	-20.264403	0.000446	4.457815	1.510349	-0.000179
1137	1.1303e+02	-5.2571	-20.389554	0.000314	3.140733	1.064109	-0.000126
1138	1.1313e+02	-5.2988	-20.607559	0.000547	5.470955	1.853610	-0.000219
1139	1.1323e+02	-5.3405	-20.752896	0.000365	3.647303	1.235740	-0.000146
1140	1.1333e+02	-5.3790	-20.930530	0.000446	4.457815	1.510349	-0.000179
1141	1.1343e+02	-5.4255	-21.096053	0.000415	4.153873	1.407370	-0.000166
1142	1.1353e+02	-5.4592	-21.233315	0.000344	3.444675	1.167088	-0.000138
1143	1.1363e+02	-5.5041	-21.398838	0.000415	4.153873	1.407370	-0.000166
1144	1.1373e+02	-5.5282	-21.580509	0.000456	4.559129	1.544675	-0.000183
1145	1.1383e+02	-5.5795	-21.733920	0.000385	3.849931	1.304392	-0.000154
1146	1.1393e+02	-5.6196	-21.919628	0.000466	4.660443	1.579001	-0.000187
1147	1.1403e+02	-5.6565	-22.060928	0.000355	3.545989	1.201414	-0.000142
1148	1.1413e+02	-5.6918	-22.214339	0.000385	3.849931	1.304392	-0.000154
1149	1.1423e+02	-5.7335	-22.408122	0.000486	4.863071	1.647653	-0.000195
1150	1.1433e+02	-5.7704	-22.541347	0.000334	3.343361	1.132761	-0.000134
1151	1.1442e+02	-5.8153	-22.694759	0.000385	3.849931	1.304392	-0.000154
1152	1.1452e+02	-5.8635	-22.888541	0.000486	4.863071	1.647653	-0.000195
1153	1.1462e+02	-5.8972	-23.013692	0.000314	3.140733	1.064109	-0.000126
1154	1.1472e+02	-5.9325	-23.199401	0.000466	4.660443	1.579001	-0.000187
1155	1.1482e+02	-5.9758	-23.377034	0.000446	4.457815	1.510349	-0.000179
1156	1.1492e+02	-6.0159	-23.534483	0.000395	3.951245	1.338718	-0.000158
1157	1.1502e+02	-6.0592	-23.655597	0.000304	3.039419	1.029783	-0.000122
1158	1.1512e+02	-6.0945	-23.865528	0.000527	5.268327	1.784957	-0.000211
1159	1.1522e+02	-6.1426	-23.974531	0.000274	2.735477	0.926805	-0.000110
1160	1.1532e+02	-6.1747	-24.168313	0.000486	4.863071	1.647653	-0.000195
1161	1.1542e+02	-6.2260	-24.321724	0.000385	3.849931	1.304392	-0.000154
1162	1.1552e+02	-6.2565	-24.458987	0.000344	3.444675	1.167088	-0.000138
1163	1.1562e+02	-6.3046	-24.616435	0.000395	3.951245	1.338718	-0.000158
1164	1.1572e+02	-6.3399	-24.761772	0.000365	3.647303	1.235740	-0.000146
1165	1.1582e+02	-6.3832	-24.870775	0.000274	2.735477	0.926805	-0.000110
1166	1.1592e+02	-6.4185	-25.100891	0.000577	5.774896	1.956588	-0.000231
1167	1.1602e+02	-6.4586	-25.217968	0.000294	2.938105	0.995457	-0.000118
1168	1.1612e+02	-6.4971	-25.387528	0.000426	4.255187	1.441696	-0.000170
1169	1.1622e+02	-6.5324	-25.553051	0.000415	4.153873	1.407370	-0.000166
1170	1.1632e+02	-6.5629	-25.706462	0.000385	3.849931	1.304392	-0.000154
1171	1.1642e+02	-6.6078	-25.859873	0.000385	3.849931	1.304392	-0.000154
1172	1.1651e+02	-6.6463	-26.033470	0.000436	4.356501	1.476022	-0.000174
1173	1.1661e+02	-6.6880	-26.130361	0.000243	2.431535	0.823826	-0.000097
1174	1.1671e+02	-6.7378	-26.316069	0.000466	4.660443	1.579001	-0.000187
1175	1.1681e+02	-6.7715	-26.465443	0.000375	3.748617	1.270066	-0.000150
1176	1.1691e+02	-6.8148	-26.651152	0.000466	4.660443	1.579001	-0.000187
1177	1.1701e+02	-6.8469	-26.788414	0.000344	3.444675	1.167088	-0.000138
1178	1.1711e+02	-6.8950	-26.933751	0.000365	3.647303	1.235740	-0.000146
1179	1.1721e+02	-6.9271	-27.091199	0.000395	3.951245	1.338718	-0.000158
1180	1.1731e+02	-6.9704	-27.232499	0.000355	3.545989	1.201414	-0.000142
1181	1.1741e+02	-7.0073	-27.398022	0.000415	4.153873	1.407370	-0.000166
1182	1.1751e+02	-7.0586	-27.547396	0.000375	3.748617	1.270066	-0.000150
1183	1.1761e+02	-7.0907	-27.733104	0.000466	4.660443	1.579001	-0.000187
1184	1.1771e+02	-7.1260	-27.842107	0.000274	2.735477	0.926805	-0.000110
1185	1.1781e+02	-7.1822	-28.064149	0.000557	5.572269	1.887936	-0.000223
1186	1.1791e+02	-7.2062	-28.181226	0.000294	2.938105	0.995457	-0.000118
1187	1.1801e+02	-7.2575	-28.338674	0.000395	3.951245	1.338718	-0.000158
1188	1.1811e+02	-7.2816	-28.455751	0.000294	2.938105	0.995457	-0.000118
1189	1.1821e+02	-7.3169	-28.621274	0.000415	4.153873	1.407370	-0.000166
1190	1.1831e+02	-7.3602	-28.790834	0.000426	4.255187	1.441696	-0.000170
1191	1.1841e+02	-7.4067	-28.903873	0.000284	2.836791	0.961131	-0.000114
1192	1.1850e+02	-7.4468	-29.077470	0.000436	4.356501	1.476022	-0.000174
1193	1.1860e+02	-7.4902	-29.210696	0.000334	3.343361	1.132761	-0.000134
1194	1.1870e+02	-7.5303	-29.372181	0.000405	4.052559	1.373044	-0.000162
1195	1.1880e+02	-7.5672	-29.513481	0.000355	3.545989	1.201414	-0.000142
1196	1.1890e+02	-7.6089	-29.646706	0.000334	3.343361	1.132761	-0.000134
1197	1.1900e+02	-7.6474	-29.816266	0.000426	4.255187	1.441696	-0.000170
1198	1.1910e+02	-7.6907	-29.949491	0.000334	3.343361	1.132761	-0.000134
1199	1.1920e+02	-7.7308	-30.139237	0.000476	4.761757	1.613327	-0.000191
1200	1.1930e+02	-7.7741	-30.232091	0.000233	2.330221	0.789500	-0.000093
1201	1.1940e+02	-7.8094	-30.401651	0.000426	4.255187	1.441696	-0.000170
1202	1.1950e+02	-7.8383	-30.551025	0.000375	3.748617	1.270066	-0.000150
1203	1.1960e+02	-7.8848	-30.696362	0.000365	3.647303	1.235740	-0.000146
1204	1.1970e+02	-7.9249	-30.878033	0.000456	4.559129	1.544675	-0.000183
1205	1.1980e+02	-7.9698	-31.003184	0.000314	3.140733	1.064109	-0.000126
1206	1.1990e+02	-8.0099	-31.188892	0.000466	4.660443	1.579001	-0.000187
1207	1.2000e+02	-8.0468	-31.281746	0.000233	2.330221	0.789500	-0.000093
1208	1.2010e+02	-8.0805	-31.471492	0.000476	4.761757	1.613327	-0.000191
1209	1.2020e+02	-8.1238	-31.600680	0.000324	3.242047	1.098435	-0.000130
1210	1.2030e+02	-8.1655	-31.750054	0.000375	3.748617	1.270066	-0.000150
1211	1.2039e+02	-8.2169	-31.891354	0.000355	3.545989	1.201414	-0.000142
1212	1.2049e+02	-8.2377	-32.012468	0.000304	3.039419	1.029783	-0.000122
1213	1.2059e+02	-8.2875	-32.165879	0.000385	3.849931	1.304392	-0.000154
1214	1.2069e+02	-8.3292	-32.282956	0.000294	2.938105	0.995457	-0.000118
1215	1.2079e+02	-8.3693	-32.452516	0.000426	4.255187	1.441696	-0.000170
1216	1.2089e+02	-8.4110	-32.614001	0.000405	4.052559	1.373044	-0.000162
1217	1.2099e+02	-8.4527	-32.763375	0.000375	3.748617	1.270066	-0.000150
1218	1.2109e+02	-8.4800	-32.908712	0.000365	3.647303	1.235740	-0.000146
1219	1.2119e+02	-8.5185	-33.021752	0.000284	2.836791	0.961131	-0.000114
1220	1.2129e+02	-8.5586	-33.171126	0.000375	3.748617	1.270066	-0.000150
1221	1.2139e+02	-8.6003	-33.280128	0.000274	2.735477	0.926805	-0.000110
1222	1.2149e+02	-8.6452	-33.469874	0.000476	4.761757	1.613327	-0.000191
1223	1.2159e+02	-8.6869	-33.619248	0.000375	3.748617	1.270066	-0.000150
1224	1.2169e+02	-8.7206	-33.772659	0.000385	3.849931	1.304392	-0.000154
1225	1.2179e+02	-8.7607	-33.881662	0.000274	2.735477	0.926805	-0.000110
1226	1.2189e+02	-8.8072	-34.039110	0.000395	3.951245	1.338718	-0.000158
1227	1.2199e+02	-8.8361	-34.168298	0.000324	3.242047	1.098435	-0.000130
1228	1.2209e+02	-8.8778	-34.345932	0.000446	4.457815	1.510349	-0.000179
1229	1.2219e+02	-8.9227	-34.434749	0.000223	2.228907	0.755174	-0.000089
1230	1.2229e+02	-8.9628	-34.580086	0.000365	3.647303	1.235740	-0.000146
1231	1.2239e+02	-9.0126	-34.709275	0.000324	3.242047	1.098435	-0.000130
1232	1.2248e+02	-9.0527	-34.866723	0.000395	3.951245	1.338718	-0.000158
1233	1.2258e+02	-9.0848	-35.036283	0.000426	4.255187	1.441696	-0.000170
1234	1.2268e+02	-9.1217	-35.117025	0.000203	2.026279	0.686522	-0.000081
1235	1.2278e+02	-9.1538	-35.306771	0.000476	4.761757	1.613327	-0.000191
1236	1.2288e+02	-9.2003	-35.423848	0.000294	2.938105	0.995457	-0.000118
1237	1.2298e+02	-9.2420	-35.573222	0.000375	3.748617	1.270066	-0.000150
1238	1.2308e+02	-9.2757	-35.702410	0.000324	3.242047	1.098435	-0.000130
1239	1.2318e+02	-9.3270	-35.863895	0.000405	4.052559	1.373044	-0.000162
1240	1.2328e+02	-9.3623	-35.980972	0.000294	2.938105	0.995457	-0.000118
1241	1.2338e+02	-9.4072	-36.102086	0.000304	3.039419	1.029783	-0.000122
1242	1.2348e+02	-9.4457	-36.299906	0.000496	4.964385	1.681979	-0.000199
1243	1.2358e+02	-9.4874	-36.408909	0.000274	2.735477	0.926805	-0.000110
1244	1.2368e+02	-9.5259	-36.542134	0.000334	3.343361	1.132761	-0.000134
1245	1.2378e+02	-9.5660	-36.679397	0.000344	3.444675	1.167088	-0.000138
1246	1.2388e+02	-9.5949	-36.796474	0.000294	2.938105	0.995457	-0.000118
1247	1.2398e+02	-9.6446	-36.978145	0.000456	4.559129	1.544675	-0.000183
1248	1.2408e+02	-9.6751	-37.115407	0.000344	3.444675	1.167088	-0.000138
1249	1.2418e+02	-9.7168	-37.208262	0.000233	2.330221	0.789500	-0.000093
1250	1.2428e+02	-9.7682	-37.341487	0.000334	3.343361	1.132761	-0.000134
1251	1.2438e+02	-9.7970	-37.511047	0.000426	4.255187	1.441696	-0.000170
1252	1.2447e+02	-9.8356	-37.620049	0.000274	2.735477	0.926805	-0.000110
1253	1.2457e+02	-9.8805	-37.773461	0.000385	3.849931	1.304392	-0.000154
1254	1.2467e+02	-9.9270	-37.894575	0.000304	3.039419	1.029783	-0.000122
1255	1.2477e+02	-9.9655	-38.064134	0.000426	4.255187	1.441696	-0.000170
1256	1.2487e+02	-9.9976	-38.152951	0.000223	2.228907	0.755174	-0.000089
1257	1.2497e+02	-10.0377	-38.302325	0.000375	3.748617	1.270066	-0.000150
1258	1.2507e+02	-10.0730	-38.471885	0.000426	4.255187	1.441696	-0.000170
1259	1.2517e+02	-10.1211	-38.584925	0.000284	2.836791	0.961131	-0.000114
1260	1.2527e+02	-10.1548	-38.746410	0.000405	4.052559	1.373044	-0.000162
1261	1.2537e+02	-10.1997	-38.883673	0.000344	3.444675	1.167088	-0.000138
1262	1.2547e+02	-10.2334	-38.976527	0.000233	2.330221	0.789500	-0.000093
1263	1.2557e+02	-10.2767	-39.158198	0.000456	4.559129	1.544675	-0.000183
1264	1.2567e+02	-10.3088	-39.275275	0.000294	2.938105	0.995457	-0.000118
1265	1.2577e+02	-10.3585	-39.376203	0.000253	2.532849	0.858153	-0.000101
1266	1.2587e+02	-10.4002	-39.533652	0.000395	3.951245	1.338718	-0.000158
1267	1.2597e+02	-10.4323	-39.654766	0.000304	3.039419	1.029783	-0.000122
1268	1.2607e+02	-10.4740	-39.759731	0.000263	2.634163	0.892479	-0.000105
1269	1.2617e+02	-10.5174	-39.896994	0.000344	3.444675	1.167088	-0.000138
1270	1.2627e+02	-10.5575	-40.046368	0.000375	3.748617	1.270066	-0.000150
1271	1.2636e+02	-10.5976	-40.167482	0.000304	3.039419	1.029783	-0.000122
1272	1.2646e+02	-10.6313	-40.288596	0.000304	3.039419	1.029783	-0.000122
1273	1.2656e+02	-10.6714	-40.433933	0.000365	3.647303	1.235740	-0.000146
1274	1.2666e+02	-10.7211	-40.575233	0.000355	3.545989	1.201414	-0.000142
1275	1.2676e+02	-10.7644	-40.716532	0.000355	3.545989	1.201414	-0.000142
1276	1.2686e+02	-10.7901	-40.829572	0.000284	2.836791	0.961131	-0.000114
1277	1.2696e+02	-10.8302	-40.974909	0.000365	3.647303	1.235740	-0.000146
1278	1.2706e+02	-10.8751	-41.096023	0.000304	3.039419	1.029783	-0.000122
1279	1.2716e+02	-10.9296	-41.164655	0.000172	1.722338	0.583544	-0.000069
1280	1.2726e+02	-10.9521	-41.322103	0.000395	3.951245	1.338718	-0.000158
1281	1.2736e+02	-11.0002	-41.491663	0.000426	4.255187	1.441696	-0.000170
1282	1.2746e+02	-11.0291	-41.624888	0.000334	3.343361	1.132761	-0.000134
1283	1.2756e+02	-11.0772	-41.758114	0.000334	3.343361	1.132761	-0.000134
1284	1.2766e+02	-11.1141	-41.875190	0.000294	2.938105	0.995457	-0.000118
1285	1.2776e+02	-11.1542	-42.016490	0.000355	3.545989	1.201414	-0.000142
1286	1.2786e+02	-11.1991	-42.145679	0.000324	3.242047	1.098435	-0.000130
1287	1.2796e+02	-11.2296	-42.274867	0.000324	3.242047	1.098435	-0.000130
1288	1.2806e+02	-11.2601	-42.391944	0.000294	2.938105	0.995457	-0.000118
1289	1.2816e+02	-11.3130	-42.525169	0.000334	3.343361	1.132761	-0.000134
1290	1.2826e+02	-11.3467	-42.686655	0.000405	4.052559	1.373044	-0.000162
1291	1.2835e+02	-11.4013	-42.807769	0.000304	3.039419	1.029783	-0.000122
1292	1.2845e+02	-11.4366	-42.892549	0.000213	2.127593	0.720848	-0.000085
1293	1.2855e+02	-11.4719	-43.058071	0.000415	4.153873	1.407370	-0.000166
1294	1.2865e+02	-11.5136	-43.142851	0.000213	2.127593	0.720848	-0.000085
1295	1.2875e+02	-11.5569	-43.276077	0.000334	3.343361	1.132761	-0.000134
1296	1.2885e+02	-11.5938	-43.441599	0.000415	4.153873	1.407370	-0.000166
1297	1.2895e+02	-11.6259	-43.590973	0.000375	3.748617	1.270066	-0.000150
1298	1.2905e+02	-11.6708	-43.679790	0.000223	2.228907	0.755174	-0.000089
1299	1.2915e+02	-11.7125	-43.780719	0.000253	2.532849	0.858153	-0.000101
1300	1.2925e+02	-11.7462	-43.938167	0.000395	3.951245	1.338718	-0.000158
1301	1.2935e+02	-11.7943	-44.055244	0.000294	2.938105	0.995457	-0.000118
1302	1.2945e+02	-11.8360	-44.152135	0.000243	2.431535	0.823826	-0.000097
1303	1.2955e+02	-11.8761	-44.313620	0.000405	4.052559	1.373044	-0.000162
1304	1.2965e+02	-11.9194	-44.442809	0.000324	3.242047	1.098435	-0.000130
1305	1.2975e+02	-11.9419	-44.555849	0.000284	2.836791	0.961131	-0.000114
1306	1.2985e+02	-11.9948	-44.697148	0.000355	3.545989	1.201414	-0.000142
1307	1.2995e+02	-12.0317	-44.834411	0.000344	3.444675	1.167088	-0.000138
1308	1.3005e+02	-12.0686	-44.947451	0.000284	2.836791	0.961131	-0.000114
1309	1.3015e+02	-12.1232	-45.060491	0.000284	2.836791	0.961131	-0.000114
1310	1.3025e+02	-12.1553	-45.185642	0.000314	3.140733	1.064109	-0.000126
1311	1.3034e+02	-12.1858	-45.306756	0.000304	3.039419	1.029783	-0.000122
1312	1.3044e+02	-12.2291	-45.456130	0.000375	3.748617	1.270066	-0.000150
1313	1.3054e+02	-12.2740	-45.569170	0.000284	2.836791	0.961131	-0.000114
1314	1.3064e+02	-12.3125	-45.690284	0.000304	3.039419	1.029783	-0.000122
1315	1.3074e+02	-12.3462	-45.811398	0.000304	3.039419	1.029783	-0.000122
1316	1.3084e+02	-12.3863	-45.944623	0.000334	3.343361	1.132761	-0.000134
1317	1.3094e+02	-12.4232	-46.069774	0.000314	3.140733	1.064109	-0.000126
1318	1.3104e+02	-12.4713	-46.198963	0.000324	3.242047	1.098435	-0.000130
1319	1.3114e+02	-12.5034	-46.328151	0.000324	3.242047	1.098435	-0.000130
1320	1.3124e+02	-12.5467	-46.449265	0.000304	3.039419	1.029783	-0.000122
1321	1.3134e+02	-12.5964	-46.578454	0.000324	3.242047	1.098435	-0.000130
1322	1.3144e+02	-12.6221	-46.723790	0.000365	3.647303	1.235740	-0.000146
1323	1.3154e+02	-12.6654	-46.824719	0.000253	2.532849	0.858153	-0.000101
1324	1.3164e+02	-12.7119	-46.933722	0.000274	2.735477	0.926805	-0.000110
1325	1.3174e+02	-12.7537	-47.066947	0.000334	3.343361	1.132761	-0.000134
1326	1.3184e+02	-12.7922	-47.163838	0.000243	2.431535	0.823826	-0.000097
1327	1.3194e+02	-12.8323	-47.293027	0.000324	3.242047	1.098435	-0.000130
1328	1.3204e+02	-12.8708	-47.426252	0.000334	3.343361	1.132761	-0.000134
1329	1.3214e+02	-12.9028	-47.523143	0.000243	2.431535	0.823826	-0.000097
1330	1.3224e+02	-12.9494	-47.672517	0.000375	3.748617	1.270066	-0.000150
1331	1.3234e+02	-12.9766	-47.789594	0.000294	2.938105	0.995457	-0.000118
1332	1.3243e+02	-13.0376	-47.886486	0.000243	2.431535	0.823826	-0.000097
1333	1.3253e+02	-13.0633	-48.039897	0.000385	3.849931	1.304392	-0.000154
1334	1.3263e+02	-13.1002	-48.181196	0.000355	3.545989	1.201414	-0.000142
1335	1.3273e+02	-13.1451	-48.278088	0.000243	2.431535	0.823826	-0.000097
1336	1.3283e+02	-13.1964	-48.411313	0.000334	3.343361	1.132761	-0.000134
1337	1.3293e+02	-13.2285	-48.524353	0.000284	2.836791	0.961131	-0.000114
1338	1.3303e+02	-13.2638	-48.661616	0.000344	3.444675	1.167088	-0.000138
1339	1.3313e+02	-13.3151	-48.798878	0.000344	3.444675	1.167088	-0.000138
1340	1.3323e+02	-13.3440	-48.895769	0.000243	2.431535	0.823826	-0.000097
1341	1.3333e+02	-13.3825	-49.016884	0.000304	3.039419	1.029783	-0.000122
1342	1.3343e+02	-13.4306	-49.109738	0.000233	2.330221	0.789500	-0.000093
1343	1.3353e+02	-13.4691	-49.226815	0.000294	2.938105	0.995457	-0.000118
1344	1.3363e+02	-13.5028	-49.384263	0.000395	3.951245	1.338718	-0.000158
1345	1.3373e+02	-13.5365	-49.517488	0.000334	3.343361	1.132761	-0.000134
1346	1.3383e+02	-13.5830	-49.590157	0.000182	1.823652	0.617870	-0.000073
1347	1.3393e+02	-13.6231	-49.739531	0.000375	3.748617	1.270066	-0.000150
1348	1.3403e+02	-13.6649	-49.836422	0.000243	2.431535	0.823826	-0.000097
1349	1.3413e+02	-13.7034	-50.001945	0.000415	4.153873	1.407370	-0.000166
1350	1.3423e+02	-13.7451	-50.131133	0.000324	3.242047	1.098435	-0.000130
1351	1.3432e+02	-13.7804	-50.264359	0.000334	3.343361	1.132761	-0.000134
1352	1.3442e+02	-13.8269	-50.316841	0.000132	1.317082	0.446239	-0.000053
1353	1.3452e+02	-13.8654	-50.482364	0.000415	4.153873	1.407370	-0.000166
1354	1.3462e+02	-13.9103	-50.599441	0.000294	2.938105	0.995457	-0.000118
1355	1.3472e+02	-13.9520	-50.732666	0.000334	3.343361	1.132761	-0.000134
1356	1.3482e+02	-13.9793	-50.821483	0.000223	2.228907	0.755174	-0.000089
1357	1.3492e+02	-14.0274	-50.966820	0.000365	3.647303	1.235740	-0.000146
1358	1.3502e+02	-14.0675	-51.067749	0.000253	2.532849	0.858153	-0.000101
1359	1.3512e+02	-14.1044	-51.156566	0.000223	2.228907	0.755174	-0.000089
1360	1.3522e+02	-14.1525	-51.293828	0.000344	3.444675	1.167088	-0.000138
1361	1.3532e+02	-14.1830	-51.455314	0.000405	4.052559	1.373044	-0.000162
1362	1.3542e+02	-14.2215	-51.568353	0.000284	2.836791	0.961131	-0.000114
1363	1.3552e+02	-14.2697	-51.661207	0.000233	2.330221	0.789500	-0.000093
1364	1.3562e+02	-14.2985	-51.806544	0.000365	3.647303	1.235740	-0.000146
1365	1.3572e+02	-14.3450	-51.915547	0.000274	2.735477	0.926805	-0.000110
1366	1.3582e+02	-14.3868	-52.056847	0.000355	3.545989	1.201414	-0.000142
1367	1.3592e+02	-14.4204	-52.169887	0.000284	2.836791	0.961131	-0.000114
1368	1.3602e+02	-14.4590	-52.311186	0.000355	3.545989	1.201414	-0.000142
1369	1.3612e+02	-14.5007	-52.400003	0.000223	2.228907	0.755174	-0.000089
1370	1.3622e+02	-14.5456	-52.496895	0.000243	2.431535	0.823826	-0.000097
1371	1.3631e+02	-14.5809	-52.650306	0.000385	3.849931	1.304392	-0.000154
1372	1.3641e+02	-14.6178	-52.739123	0.000223	2.228907	0.755174	-0.000089
1373	1.3651e+02	-14.6595	-52.840051	0.000253	2.532849	0.858153	-0.000101
1374	1.3661e+02	-14.6900	-52.965202	0.000314	3.140733	1.064109	-0.000126
1375	1.3671e+02	-14.7365	-53.122651	0.000395	3.951245	1.338718	-0.000158
1376	1.3681e+02	-14.7782	-53.263950	0.000355	3.545989	1.201414	-0.000142
1377	1.3691e+02	-14.8135	-53.360842	0.000243	2.431535	0.823826	-0.000097
1378	1.3701e+02	-14.8600	-53.494067	0.000334	3.343361	1.132761	-0.000134
1379	1.3711e+02	-14.9017	-53.554624	0.000152	1.519710	0.514892	-0.000061
1380	1.3721e+02	-14.9418	-53.720147	0.000415	4.153873	1.407370	-0.000166
1381	1.3731e+02	-14.9739	-53.833186	0.000284	2.836791	0.961131	-0.000114
1382	1.3741e+02	-15.0140	-53.938152	0.000263	2.634163	0.892479	-0.000105
1383	1.3751e+02	-15.0589	-54.087526	0.000375	3.748617	1.270066	-0.000150
1384	1.3761e+02	-15.0958	-54.168269	0.000203	2.026279	0.686522	-0.000081
1385	1.3771e+02	-15.1472	-54.309569	0.000355	3.545989	1.201414	-0.000142
1386	1.3781e+02	-15.1809	-54.402423	0.000233	2.330221	0.789500	-0.000093
1387	1.3791e+02	-15.2194	-54.495277	0.000233	2.330221	0.789500	-0.000093
1388	1.3801e+02	-15.2498	-54.640614	0.000365	3.647303	1.235740	-0.000146
1389	1.3811e+02	-15.2996	-54.781913	0.000355	3.545989	1.201414	-0.000142
1390	1.3821e+02	-15.3284	-54.894953	0.000284	2.836791	0.961131	-0.000114
1391	1.3831e+02	-15.3798	-55.024142	0.000324	3.242047	1.098435	-0.000130
1392	1.3840e+02	-15.4231	-55.116996	0.000233	2.330221	0.789500	-0.000093
1393	1.3850e+02	-15.4712	-55.230035	0.000284	2.836791	0.961131	-0.000114
1394	1.3860e+02	-15.4953	-55.355187	0.000314	3.140733	1.064109	-0.000126
1395	1.3870e+02	-15.5434	-55.444004	0.000223	2.228907	0.755174	-0.000089
1396	1.3880e+02	-15.5691	-55.633749	0.000476	4.761757	1.613327	-0.000191
1397	1.3890e+02	-15.6108	-55.702380	0.000172	1.722338	0.583544	-0.000069
1398	1.3900e+02	-15.6589	-55.847717	0.000365	3.647303	1.235740	-0.000146
1399	1.3910e+02	-15.7006	-55.980943	0.000334	3.343361	1.132761	-0.000134
1400	1.3920e+02	-15.7439	-56.053611	0.000182	1.823652	0.617870	-0.000073
1401	1.3930e+02	-15.7792	-56.219134	0.000415	4.153873	1.407370	-0.000166
1402	1.3940e+02	-15.8193	-56.320062	0.000253	2.532849	0.858153	-0.000101
1403	1.3950e+02	-15.8546	-56.420991	0.000253	2.532849	0.858153	-0.000101
1404	1.3960e+02	-15.9012	-56.566327	0.000365	3.647303	1.235740	-0.000146
1405	1.3970e+02	-15.9348	-56.634959	0.000172	1.722338	0.583544	-0.000069
1406	1.3980e+02	-15.9830	-56.760110	0.000314	3.140733	1.064109	-0.000126
1407	1.3990e+02	-16.0183	-56.921595	0.000405	4.052559	1.373044	-0.000162
1408	1.4000e+02	-16.0503	-56.990227	0.000172	1.722338	0.583544	-0.000069
1409	1.4010e+02	-16.1001	-57.115378	0.000314	3.140733	1.064109	-0.000126
1410	1.4020e+02	-16.1290	-57.272826	0.000395	3.951245	1.338718	-0.000158
1411	1.4029e+02	-16.1755	-57.385866	0.000284	2.836791	0.961131	-0.000114
1412	1.4039e+02	-16.2060	-57.506980	0.000304	3.039419	1.029783	-0.000122
1413	1.4049e+02	-16.2509	-57.644243	0.000344	3.444675	1.167088	-0.000138
1414	1.4059e+02	-16.2862	-57.737097	0.000233	2.330221	0.789500	-0.000093
1415	1.4069e+02	-16.3327	-57.825914	0.000223	2.228907	0.755174	-0.000089
1416	1.4079e+02	-16.3696	-57.942991	0.000294	2.938105	0.995457	-0.000118
1417	1.4089e+02	-16.4113	-58.104476	0.000405	4.052559	1.373044	-0.000162
1418	1.4099e+02	-16.4530	-58.173107	0.000172	1.722338	0.583544	-0.000069
1419	1.4109e+02	-16.4899	-58.286147	0.000284	2.836791	0.961131	-0.000114
1420	1.4119e+02	-16.5300	-58.435521	0.000375	3.748617	1.270066	-0.000150
1421	1.4129e+02	-16.5717	-58.564710	0.000324	3.242047	1.098435	-0.000130
1422	1.4139e+02	-16.6150	-58.706009	0.000355	3.545989	1.201414	-0.000142
1423	1.4149e+02	-16.6551	-58.823086	0.000294	2.938105	0.995457	-0.000118
1424	1.4159e+02	-16.6953	-58.887680	0.000162	1.621024	0.549218	-0.000065
1425	1.4169e+02	-16.7321	-59.065314	0.000446	4.457815	1.510349	-0.000179
1426	1.4179e+02	-16.7739	-59.178354	0.000284	2.836791	0.961131	-0.000114
1427	1.4189e+02	-16.8059	-59.291394	0.000284	2.836791	0.961131	-0.000114
1428	1.4199e+02	-16.8525	-59.388285	0.000243	2.431535	0.823826	-0.000097
1429	1.4209e+02	-16.8926	-59.529585	0.000355	3.545989	1.201414	-0.000142
1430	1.4219e+02	-16.9343	-59.646662	0.000294	2.938105	0.995457	-0.000118
1431	1.4228e+02	-16.9696	-59.755665	0.000274	2.735477	0.926805	-0.000110
1432	1.4238e+02	-17.0065	-59.864667	0.000274	2.735477	0.926805	-0.000110
1433	1.4248e+02	-17.0482	-60.010004	0.000365	3.647303	1.235740	-0.000146
1434	1.4258e+02	-17.0787	-60.106895	0.000243	2.431535	0.823826	-0.000097
1435	1.4268e+02	-17.1364	-60.260307	0.000385	3.849931	1.304392	-0.000154
1436	1.4278e+02	-17.1733	-60.353161	0.000233	2.330221	0.789500	-0.000093
1437	1.4288e+02	-17.2054	-60.454089	0.000253	2.532849	0.858153	-0.000101
1438	1.4298e+02	-17.2471	-60.603463	0.000375	3.748617	1.270066	-0.000150
1439	1.4308e+02	-17.2888	-60.748800	0.000365	3.647303	1.235740	-0.000146
1440	1.4318e+02	-17.3289	-60.849728	0.000253	2.532849	0.858153	-0.000101
1441	1.4328e+02	-17.3706	-60.954694	0.000263	2.634163	0.892479	-0.000105
1442	1.4338e+02	-17.4123	-61.079845	0.000314	3.140733	1.064109	-0.000126
1443	1.4348e+02	-17.4444	-61.213071	0.000334	3.343361	1.132761	-0.000134
1444	1.4358e+02	-17.4893	-61.289776	0.000192	1.924965	0.652196	-0.000077
1445	1.4368e+02	-17.5230	-61.451262	0.000405	4.052559	1.373044	-0.000162
1446	1.4378e+02	-17.5647	-61.576413	0.000314	3.140733	1.064109	-0.000126
1447	1.4388e+02	-17.6113	-61.681378	0.000263	2.634163	0.892479	-0.000105
1448	1.4398e+02	-17.6514	-61.822678	0.000355	3.545989	1.201414	-0.000142
1449	1.4408e+02	-17.6963	-61.935718	0.000284	2.836791	0.961131	-0.000114
1450	1.4418e+02	-17.7252	-62.044721	0.000274	2.735477	0.926805	-0.000110
1451	1.4428e+02	-17.7637	-62.157760	0.000284	2.836791	0.961131	-0.000114
1452	1.4437e+02	-17.8166	-62.339431	0.000456	4.559129	1.544675	-0.000183
1453	1.4447e+02	-17.8567	-62.440360	0.000253	2.532849	0.858153	-0.000101
1454	1.4457e+02	-17.8808	-62.533214	0.000233	2.330221	0.789500	-0.000093
1455	1.4467e+02	-17.9305	-62.674514	0.000355	3.545989	1.201414	-0.000142
1456	1.4477e+02	-17.9754	-62.783516	0.000274	2.735477	0.926805	-0.000110
1457	1.4487e+02	-18.0075	-62.920779	0.000344	3.444675	1.167088	-0.000138
1458	1.4497e+02	-18.0364	-63.062079	0.000355	3.545989	1.201414	-0.000142
1459	1.4507e+02	-18.0877	-63.187230	0.000314	3.140733	1.064109	-0.000126
1460	1.4517e+02	-18.1246	-63.284121	0.000243	2.431535	0.823826	-0.000097
1461	1.4527e+02	-18.1744	-63.417347	0.000334	3.343361	1.132761	-0.000134
1462	1.4537e+02	-18.2080	-63.550572	0.000334	3.343361	1.132761	-0.000134
1463	1.4547e+02	-18.2449	-63.659575	0.000274	2.735477	0.926805	-0.000110
1464	1.4557e+02	-18.2883	-63.768578	0.000274	2.735477	0.926805	-0.000110
1465	1.4567e+02	-18.3300	-63.938137	0.000426	4.255187	1.441696	-0.000170
1466	1.4577e+02	-18.3669	-64.047140	0.000274	2.735477	0.926805	-0.000110
1467	1.4587e+02	-18.4054	-64.152105	0.000263	2.634163	0.892479	-0.000105
1468	1.4597e+02	-18.4535	-64.305517	0.000385	3.849931	1.304392	-0.000154
1469	1.4607e+02	-18.4840	-64.410482	0.000263	2.634163	0.892479	-0.000105
1470	1.4617e+02	-18.5161	-64.559856	0.000375	3.748617	1.270066	-0.000150
1471	1.4626e+02	-18.5722	-64.709230	0.000375	3.748617	1.270066	-0.000150
1472	1.4636e+02	-18.6011	-64.794010	0.000213	2.127593	0.720848	-0.000085
1473	1.4646e+02	-18.6492	-64.943384	0.000375	3.748617	1.270066	-0.000150
1474	1.4656e+02	-18.6845	-65.068535	0.000314	3.140733	1.064109	-0.000126
1475	1.4666e+02	-18.7310	-65.189649	0.000304	3.039419	1.029783	-0.000122
1476	1.4676e+02	-18.7599	-65.302689	0.000284	2.836791	0.961131	-0.000114
1477	1.4686e+02	-18.8112	-65.456100	0.000385	3.849931	1.304392	-0.000154
1478	1.4696e+02	-18.8417	-65.565103	0.000274	2.735477	0.926805	-0.000110
1479	1.4706e+02	-18.8914	-65.714477	0.000375	3.748617	1.270066	-0.000150
1480	1.4716e+02	-18.9235	-65.827517	0.000284	2.836791	0.961131	-0.000114
1481	1.4726e+02	-18.9701	-65.944594	0.000294	2.938105	0.995457	-0.000118
1482	1.4736e+02	-19.0037	-66.093968	0.000375	3.748617	1.270066	-0.000150
1483	1.4746e+02	-19.0455	-66.275639	0.000456	4.559129	1.544675	-0.000183
1484	1.4756e+02	-19.0856	-66.392716	0.000294	2.938105	0.995457	-0.000118
1485	1.4766e+02	-19.1209	-66.477496	0.000213	2.127593	0.720848	-0.000085
1486	1.4776e+02	-19.1722	-66.634944	0.000395	3.951245	1.338718	-0.000158
1487	1.4786e+02	-19.2059	-66.776244	0.000355	3.545989	1.201414	-0.000142
1488	1.4796e+02	-19.2396	-66.945803	0.000426	4.255187	1.441696	-0.000170
1489	1.4806e+02	-19.2877	-67.014435	0.000172	1.722338	0.583544	-0.000069
1490	1.4816e+02	-19.3246	-67.159772	0.000365	3.647303	1.235740	-0.000146
1491	1.4825e+02	-19.3551	-67.284923	0.000314	3.140733	1.064109	-0.000126
1492	1.4835e+02	-19.3920	-67.474668	0.000476	4.761757	1.613327	-0.000191
1493	1.4845e+02	-19.4417	-67.615968	0.000355	3.545989	1.201414	-0.000142
1494	1.4855e+02	-19.4834	-67.720933	0.000263	2.634163	0.892479	-0.000105
1495	1.4865e+02	-19.5187	-67.842048	0.000304	3.039419	1.029783	-0.000122
1496	1.4875e+02	-19.5588	-67.951050	0.000274	2.735477	0.926805	-0.000110
1497	1.4885e+02	-19.6069	-68.132721	0.000456	4.559129	1.544675	-0.000183
1498	1.4895e+02	-19.6519	-68.237687	0.000263	2.634163	0.892479	-0.000105
1499	1.4905e+02	-19.6775	-68.366875	0.000324	3.242047	1.098435	-0.000130
1500	1.4915e+02	-19.7192	-68.496063	0.000324	3.242047	1.098435	-0.000130
1501	1.4925e+02	-19.7609	-68.710032	0.000537	5.369641	1.819283	-0.000215
1502	1.4935e+02	-19.8026	-68.790774	0.000203	2.026279	0.686522	-0.000081
1503	1.4945e+02	-19.8428	-68.948223	0.000395	3.951245	1.338718	-0.000158
1504	1.4955e+02	-19.8764	-69.097597	0.000375	3.748617	1.270066	-0.000150
1505	1.4965e+02	-19.9230	-69.218711	0.000304	3.039419	1.029783	-0.000122
1506	1.4975e+02	-19.9502	-69.372122	0.000385	3.849931	1.304392	-0.000154
1507	1.4985e+02	-20.0064	-69.533607	0.000405	4.052559	1.373044	-0.000162
1508	1.4995e+02	-19.9567	-69.444790	0.000223	2.228907	0.755174	0.000089
1509	1.5005e+02	-19.9182	-69.436716	0.000020	0.202628	0.068652	0.000008
1510	1.5015e+02	-19.8780	-69.412493	0.000061	0.607884	0.205957	0.000024
1511	1.5025e+02	-19.8395	-69.372122	0.000101	1.013140	0.343261	0.000041
1512	1.5034e+02	-19.7978	-69.303491	0.000172	1.722338	0.583544	0.000069
1513	1.5044e+02	-19.7641	-69.259082	0.000111	1.114454	0.377587	0.000045
1514	1.5054e+02	-19.7144	-69.194488	0.000162	1.621024	0.549218	0.000065
1515	1.5064e+02	-19.6823	-69.182377	0.000030	0.303942	0.102978	0.000012
1516	1.5074e+02	-19.6422	-69.105671	0.000192	1.924965	0.652196	0.000077
1517	1.5084e+02	-19.5973	-69.085485	0.000051	0.506570	0.171631	0.000020
1518	1.5094e+02	-19.5668	-69.041077	0.000111	1.114454	0.377587	0.000045
1519	1.5104e+02	-19.5235	-68.936111	0.000263	2.634163	0.892479	0.000105
1520	1.5114e+02	-19.4754	-68.919963	0.000041	0.405256	0.137304	0.000016
1521	1.5124e+02	-19.4465	-68.827109	0.000233	2.330221	0.789500	0.000093
1522	1.5134e+02	-19.3968	-68.758477	0.000172	1.722338	0.583544	0.000069
1523	1.5144e+02	-19.3679	-68.722143	0.000091	0.911826	0.308935	0.000037
1524	1.5154e+02	-19.3198	-68.649475	0.000182	1.823652	0.617870	0.000073
1525	1.5164e+02	-19.2781	-68.605066	0.000111	1.114454	0.377587	0.000045
1526	1.5174e+02	-19.2492	-68.516249	0.000223	2.228907	0.755174	0.000089
1527	1.5184e+02	-19.2075	-68.487989	0.000071	0.709198	0.240283	0.000028
1528	1.5194e+02	-19.1786	-68.439544	0.000122	1.215768	0.411913	0.000049
1529	1.5204e+02	-19.1176	-68.370912	0.000172	1.722338	0.583544	0.000069
1530	1.5214e+02	-19.0823	-68.282095	0.000223	2.228907	0.755174	0.000089
1531	1.5224e+02	-19.0487	-68.237687	0.000111	1.114454	0.377587	0.000045
1532	1.5233e+02	-19.0150	-68.100424	0.000344	3.444675	1.167088	0.000138
1533	1.5243e+02	-18.9588	-68.068127	0.000081	0.810512	0.274609	0.000032
1534	1.5253e+02	-18.9283	-67.979310	0.000223	2.228907	0.755174	0.000089
1535	1.5263e+02	-18.8850	-67.930864	0.000122	1.215768	0.411913	0.000049
1536	1.5273e+02	-18.8513	-67.886456	0.000111	1.114454	0.377587	0.000045
1537	1.5283e+02	-18.8000	-67.781490	0.000263	2.634163	0.892479	0.000105
1538	1.5293e+02	-18.7615	-67.720933	0.000152	1.519710	0.514892	0.000061
1539	1.5303e+02	-18.7262	-67.652302	0.000172	1.722338	0.583544	0.000069
1540	1.5313e+02	-18.6829	-67.523114	0.000324	3.242047	1.098435	0.000130
1541	1.5323e+02	-18.6412	-67.466594	0.000142	1.418396	0.480565	0.000057
1542	1.5333e+02	-18.5995	-67.418148	0.000122	1.215768	0.411913	0.000049
1543	1.5343e+02	-18.5722	-67.345480	0.000182	1.823652	0.617870	0.000073
1544	1.5353e+02	-18.5273	-67.240514	0.000263	2.634163	0.892479	0.000105
1545	1.5363e+02	-18.4711	-67.171883	0.000172	1.722338	0.583544	0.000069
1546	1.5373e+02	-18.4423	-67.115363	0.000142	1.418396	0.480565	0.000057
1547	1.5383e+02	-18.4006	-67.030583	0.000213	2.127593	0.720848	0.000085
1548	1.5393e+02	-18.3717	-66.961952	0.000172	1.722338	0.583544	0.000069
1549	1.5403e+02	-18.3268	-66.856986	0.000263	2.634163	0.892479	0.000105
1550	1.5413e+02	-18.2866	-66.816615	0.000101	1.013140	0.343261	0.000041
1551	1.5422e+02	-18.2449	-66.723761	0.000233	2.330221	0.789500	0.000093
1552	1.5432e+02	-18.2048	-66.671278	0.000132	1.317082	0.446239	0.000053
1553	1.5442e+02	-18.1599	-66.513830	0.000395	3.951245	1.338718	0.000158
1554	1.5452e+02	-18.1182	-66.469421	0.000111	1.114454	0.377587	0.000045
1555	1.5462e+02	-18.0893	-66.380604	0.000223	2.228907	0.755174	0.000089
1556	1.5472e+02	-18.0524	-66.307936	0.000182	1.823652	0.617870	0.000073
1557	1.5482e+02	-18.0155	-66.259490	0.000122	1.215768	0.411913	0.000049
1558	1.5492e+02	-17.9722	-66.154525	0.000263	2.634163	0.892479	0.000105
1559	1.5502e+02	-17.9305	-66.069745	0.000213	2.127593	0.720848	0.000085
1560	1.5512e+02	-17.8792	-65.948631	0.000304	3.039419	1.029783	0.000122
1561	1.5522e+02	-17.8535	-65.888074	0.000152	1.519710	0.514892	0.000061
1562	1.5532e+02	-17.8118	-65.831554	0.000142	1.418396	0.480565	0.000057
1563	1.5542e+02	-17.7685	-65.722551	0.000274	2.735477	0.926805	0.000110
1564	1.5552e+02	-17.7268	-65.605474	0.000294	2.938105	0.995457	0.000118
1565	1.5562e+02	-17.6947	-65.552992	0.000132	1.317082	0.446239	0.000053
1566	1.5572e+02	-17.6514	-65.480323	0.000182	1.823652	0.617870	0.000073
1567	1.5582e+02	-17.6129	-65.407655	0.000182	1.823652	0.617870	0.000073
1568	1.5592e+02	-17.5696	-65.286541	0.000304	3.039419	1.029783	0.000122
1569	1.5602e+02	-17.5311	-65.225984	0.000152	1.519710	0.514892	0.000061
1570	1.5612e+02	-17.4974	-65.153315	0.000182	1.823652	0.617870	0.000073
1571	1.5622e+02	-17.4524	-65.040275	0.000284	2.836791	0.961131	0.000114
1572	1.5631e+02	-17.4123	-64.967607	0.000182	1.823652	0.617870	0.000073
1573	1.5641e+02	-17.3803	-64.830344	0.000344	3.444675	1.167088	0.000138
1574	1.5651e+02	-17.3177	-64.753639	0.000192	1.924965	0.652196	0.000077
1575	1.5661e+02	-17.2888	-64.680970	0.000182	1.823652	0.617870	0.000073
1576	1.5671e+02	-17.2455	-64.584079	0.000243	2.431535	0.823826	0.000097
1577	1.5681e+02	-17.2054	-64.531596	0.000132	1.317082	0.446239	0.000053
1578	1.5691e+02	-17.1685	-64.438742	0.000233	2.330221	0.789500	0.000093
1579	1.5701e+02	-17.1268	-64.313591	0.000314	3.140733	1.064109	0.000126
1580	1.5711e+02	-17.0899	-64.257071	0.000142	1.418396	0.480565	0.000057
1581	1.5721e+02	-17.0370	-64.184403	0.000182	1.823652	0.617870	0.000073
1582	1.5731e+02	-17.0145	-64.099623	0.000213	2.127593	0.720848	0.000085
1583	1.5741e+02	-16.9744	-63.966397	0.000334	3.343361	1.132761	0.000134
1584	1.5751e+02	-16.9295	-63.917952	0.000122	1.215768	0.411913	0.000049
1585	1.5761e+02	-16.8942	-63.825097	0.000233	2.330221	0.789500	0.000093
1586	1.5771e+02	-16.8541	-63.712058	0.000284	2.836791	0.961131	0.000114
1587	1.5781e+02	-16.8124	-63.667649	0.000111	1.114454	0.377587	0.000045
1588	1.5791e+02	-16.7771	-63.546535	0.000304	3.039419	1.029783	0.000122
1589	1.5801e+02	-16.7289	-63.437532	0.000274	2.735477	0.926805	0.000110
1590	1.5811e+02	-16.6920	-63.344678	0.000233	2.330221	0.789500	0.000093
1591	1.5821e+02	-16.6503	-63.251824	0.000233	2.330221	0.789500	0.000093
1592	1.5830e+02	-16.6102	-63.203379	0.000122	1.215768	0.411913	0.000049
1593	1.5840e+02	-16.5765	-63.086302	0.000294	2.938105	0.995457	0.000118
1594	1.5850e+02	-16.5364	-62.997485	0.000223	2.228907	0.755174	0.000089
1595	1.5860e+02	-16.4931	-62.912705	0.000213	2.127593	0.720848	0.000085
1596	1.5870e+02	-16.4450	-62.831962	0.000203	2.026279	0.686522	0.000081
1597	1.5880e+02	-16.4049	-62.731034	0.000253	2.532849	0.858153	0.000101
1598	1.5890e+02	-16.3728	-62.626068	0.000263	2.634163	0.892479	0.000105
1599	1.5900e+02	-16.3343	-62.573585	0.000132	1.317082	0.446239	0.000053
1600	1.5910e+02	-16.2974	-62.404026	0.000426	4.255187	1.441696	0.000170
1601	1.5920e+02	-16.2477	-62.351543	0.000132	1.317082	0.446239	0.000053
1602	1.5930e+02	-16.2156	-62.270800	0.000203	2.026279	0.686522	0.000081
1603	1.5940e+02	-16.1707	-62.145649	0.000314	3.140733	1.064109	0.000126
1604	1.5950e+02	-16.1241	-62.052795	0.000233	2.330221	0.789500	0.000093
1605	1.5960e+02	-16.0969	-61.988201	0.000162	1.621024	0.549218	0.000065
1606	1.5970e+02	-16.0471	-61.891309	0.000243	2.431535	0.823826	0.000097
1607	1.5980e+02	-16.0279	-61.790381	0.000253	2.532849	0.858153	0.000101
1608	1.5990e+02	-15.9669	-61.677341	0.000284	2.836791	0.961131	0.000114
1609	1.6000e+02	-15.9429	-61.580450	0.000243	2.431535	0.823826	0.000097
1610	1.6010e+02	-15.9044	-61.503744	0.000192	1.924965	0.652196	0.000077
1611	1.6019e+02	-15.8610	-61.394742	0.000274	2.735477	0.926805	0.000110
1612	1.6029e+02	-15.8161	-61.269591	0.000314	3.140733	1.064109	0.000126
1613	1.6039e+02	-15.7744	-61.188848	0.000203	2.026279	0.686522	0.000081
1614	1.6049e+02	-15.7423	-61.140402	0.000122	1.215768	0.411913	0.000049
1615	1.6059e+02	-15.7022	-60.982954	0.000395	3.951245	1.338718	0.000158
1616	1.6069e+02	-15.6605	-60.914323	0.000172	1.722338	0.583544	0.000069
1617	1.6079e+02	-15.6140	-60.801283	0.000284	2.836791	0.961131	0.000114
1618	1.6089e+02	-15.5771	-60.744763	0.000142	1.418396	0.480565	0.000057
1619	1.6099e+02	-15.5274	-60.668057	0.000192	1.924965	0.652196	0.000077
1620	1.6109e+02	-15.5017	-60.555018	0.000284	2.836791	0.961131	0.000114
1621	1.6119e+02	-15.4423	-60.425829	0.000324	3.242047	1.098435	0.000130
1622	1.6129e+02	-15.4167	-60.341049	0.000213	2.127593	0.720848	0.000085
1623	1.6139e+02	-15.3798	-60.272418	0.000172	1.722338	0.583544	0.000069
1624	1.6149e+02	-15.3349	-60.123044	0.000375	3.748617	1.270066	0.000150
1625	1.6159e+02	-15.2964	-60.042301	0.000203	2.026279	0.686522	0.000081
1626	1.6169e+02	-15.2595	-59.953484	0.000223	2.228907	0.755174	0.000089
1627	1.6179e+02	-15.2258	-59.852556	0.000253	2.532849	0.858153	0.000101
1628	1.6189e+02	-15.1728	-59.763739	0.000223	2.228907	0.755174	0.000089
1629	1.6199e+02	-15.1391	-59.674922	0.000223	2.228907	0.755174	0.000089
1630	1.6209e+02	-15.1039	-59.521511	0.000385	3.849931	1.304392	0.000154
1631	1.6219e+02	-15.0589	-59.440768	0.000203	2.026279	0.686522	0.000081
1632	1.6228e+02	-15.0252	-59.372137	0.000172	1.722338	0.583544	0.000069
1633	1.6238e+02	-14.9883	-59.255060	0.000294	2.938105	0.995457	0.000118
1634	1.6248e+02	-14.9418	-59.142020	0.000284	2.836791	0.961131	0.000114
1635	1.6258e+02	-14.8889	-59.069352	0.000182	1.823652	0.617870	0.000073
1636	1.6268e+02	-14.8568	-58.972460	0.000243	2.431535	0.823826	0.000097
1637	1.6278e+02	-14.8183	-58.863458	0.000274	2.735477	0.926805	0.000110
1638	1.6288e+02	-14.7782	-58.778678	0.000213	2.127593	0.720848	0.000085
1639	1.6298e+02	-14.7397	-58.697935	0.000203	2.026279	0.686522	0.000081
1640	1.6308e+02	-14.7012	-58.609118	0.000223	2.228907	0.755174	0.000089
1641	1.6318e+02	-14.6643	-58.516264	0.000233	2.330221	0.789500	0.000093
1642	1.6328e+02	-14.6242	-58.387076	0.000324	3.242047	1.098435	0.000130
1643	1.6338e+02	-14.5825	-58.290184	0.000243	2.431535	0.823826	0.000097
1644	1.6348e+02	-14.5456	-58.169070	0.000304	3.039419	1.029783	0.000122
1645	1.6358e+02	-14.4958	-58.060068	0.000274	2.735477	0.926805	0.000110
1646	1.6368e+02	-14.4654	-57.971251	0.000223	2.228907	0.755174	0.000089
1647	1.6378e+02	-14.4301	-57.858211	0.000284	2.836791	0.961131	0.000114
1648	1.6388e+02	-14.3771	-57.785542	0.000182	1.823652	0.617870	0.000073
1649	1.6398e+02	-14.3450	-57.676540	0.000274	2.735477	0.926805	0.000110
1650	1.6408e+02	-14.3049	-57.575611	0.000253	2.532849	0.858153	0.000101
1651	1.6418e+02	-14.2632	-57.458534	0.000294	2.938105	0.995457	0.000118
1652	1.6427e+02	-14.2151	-57.365680	0.000233	2.330221	0.789500	0.000093
1653	1.6437e+02	-14.1798	-57.260715	0.000263	2.634163	0.892479	0.000105
1654	1.6447e+02	-14.1445	-57.192083	0.000172	1.722338	0.583544	0.000069
1655	1.6457e+02	-14.0996	-57.070969	0.000304	3.039419	1.029783	0.000122
1656	1.6467e+02	-14.0627	-56.978115	0.000233	2.330221	0.789500	0.000093
1657	1.6477e+02	-14.0194	-56.869113	0.000274	2.735477	0.926805	0.000110
1658	1.6487e+02	-13.9793	-56.743961	0.000314	3.140733	1.064109	0.000126
1659	1.6497e+02	-13.9376	-56.675330	0.000172	1.722338	0.583544	0.000069
1660	1.6507e+02	-13.9007	-56.590550	0.000213	2.127593	0.720848	0.000085
1661	1.6517e+02	-13.8622	-56.473473	0.000294	2.938105	0.995457	0.000118
1662	1.6527e+02	-13.8253	-56.348322	0.000314	3.140733	1.064109	0.000126
1663	1.6537e+02	-13.7852	-56.231245	0.000294	2.938105	0.995457	0.000118
1664	1.6547e+02	-13.7370	-56.118205	0.000284	2.836791	0.961131	0.000114
1665	1.6557e+02	-13.7034	-56.001128	0.000294	2.938105	0.995457	0.000118
1666	1.6567e+02	-13.6713	-55.904237	0.000243	2.431535	0.823826	0.000097
1667	1.6577e+02	-13.6247	-55.835606	0.000172	1.722338	0.583544	0.000069
1668	1.6587e+02	-13.5846	-55.714492	0.000304	3.039419	1.029783	0.000122
1669	1.6597e+02	-13.5413	-55.585303	0.000324	3.242047	1.098435	0.000130
1670	1.6607e+02	-13.5012	-55.516672	0.000172	1.722338	0.583544	0.000069
1671	1.6616e+02	-13.4691	-55.395558	0.000304	3.039419	1.029783	0.000122
1672	1.6626e+02	-13.4226	-55.306741	0.000223	2.228907	0.755174	0.000089
1673	1.6636e+02	-13.3873	-55.205813	0.000253	2.532849	0.858153	0.000101
1674	1.6646e+02	-13.3440	-55.104884	0.000253	2.532849	0.858153	0.000101
1675	1.6656e+02	-13.3023	-54.983770	0.000304	3.039419	1.029783	0.000122
1676	1.6666e+02	-13.2686	-54.862656	0.000304	3.039419	1.029783	0.000122
1677	1.6676e+02	-13.2381	-54.757691	0.000263	2.634163	0.892479	0.000105
1678	1.6686e+02	-13.1916	-54.664836	0.000233	2.330221	0.789500	0.000093
1679	1.6696e+02	-13.1483	-54.551797	0.000284	2.836791	0.961131	0.000114
1680	1.6706e+02	-13.1114	-54.446831	0.000263	2.634163	0.892479	0.000105
1681	1.6716e+02	-13.0649	-54.341866	0.000263	2.634163	0.892479	0.000105
1682	1.6726e+02	-13.0232	-54.204603	0.000344	3.444675	1.167088	0.000138
1683	1.6736e+02	-12.9782	-54.107712	0.000243	2.431535	0.823826	0.000097
1684	1.6746e+02	-12.9446	-53.986598	0.000304	3.039419	1.029783	0.000122
1685	1.6756e+02	-12.9109	-53.897781	0.000223	2.228907	0.755174	0.000089
1686	1.6766e+02	-12.8676	-53.800889	0.000243	2.431535	0.823826	0.000097
1687	1.6776e+02	-12.8242	-53.695924	0.000263	2.634163	0.892479	0.000105
1688	1.6786e+02	-12.7922	-53.627293	0.000172	1.722338	0.583544	0.000069
1689	1.6796e+02	-12.7456	-53.469844	0.000395	3.951245	1.338718	0.000158
1690	1.6806e+02	-12.7087	-53.417362	0.000132	1.317082	0.446239	0.000053
1691	1.6816e+02	-12.6718	-53.300285	0.000294	2.938105	0.995457	0.000118
1692	1.6825e+02	-12.6269	-53.183208	0.000294	2.938105	0.995457	0.000118
1693	1.6835e+02	-12.5836	-53.098428	0.000213	2.127593	0.720848	0.000085
1694	1.6845e+02	-12.5467	-52.961165	0.000344	3.444675	1.167088	0.000138
1695	1.6855e+02	-12.5130	-52.868311	0.000233	2.330221	0.789500	0.000093
1696	1.6865e+02	-12.4649	-52.731048	0.000344	3.444675	1.167088	0.000138
1697	1.6875e+02	-12.4344	-52.622046	0.000274	2.735477	0.926805	0.000110
1698	1.6885e+02	-12.3959	-52.529192	0.000233	2.330221	0.789500	0.000093
1699	1.6895e+02	-12.3446	-52.440375	0.000223	2.228907	0.755174	0.000089
1700	1.6905e+02	-12.3125	-52.282926	0.000395	3.951245	1.338718	0.000158
1701	1.6915e+02	-12.2788	-52.181998	0.000253	2.532849	0.858153	0.000101
1702	1.6925e+02	-12.2243	-52.081070	0.000253	2.532849	0.858153	0.000101
1703	1.6935e+02	-12.1874	-51.943807	0.000344	3.444675	1.167088	0.000138
1704	1.6945e+02	-12.1537	-51.838841	0.000263	2.634163	0.892479	0.000105
1705	1.6955e+02	-12.1071	-51.741950	0.000243	2.431535	0.823826	0.000097
1706	1.6965e+02	-12.0719	-51.628910	0.000284	2.836791	0.961131	0.000114
1707	1.6975e+02	-12.0237	-51.515871	0.000284	2.836791	0.961131	0.000114
1708	1.6985e+02	-11.9884	-51.410905	0.000263	2.634163	0.892479	0.000105
1709	1.6995e+02	-11.9483	-51.305940	0.000263	2.634163	0.892479	0.000105
1710	1.7005e+02	-11.9098	-51.188863	0.000294	2.938105	0.995457	0.000118
1711	1.7015e+02	-11.8745	-51.067749	0.000304	3.039419	1.029783	0.000122
1712	1.7024e+02	-11.8424	-50.987006	0.000203	2.026279	0.686522	0.000081
1713	1.7034e+02	-11.7927	-50.882040	0.000263	2.634163	0.892479	0.000105
1714	1.7044e+02	-11.7526	-50.748815	0.000334	3.343361	1.132761	0.000134
1715	1.7054e+02	-11.7093	-50.643849	0.000263	2.634163	0.892479	0.000105
1716	1.7064e+02	-11.6676	-50.518698	0.000314	3.140733	1.064109	0.000126
1717	1.7074e+02	-11.6291	-50.417770	0.000253	2.532849	0.858153	0.000101
1718	1.7084e+02	-11.6018	-50.272433	0.000365	3.647303	1.235740	0.000146
1719	1.7094e+02	-11.5505	-50.167467	0.000263	2.634163	0.892479	0.000105
1720	1.7104e+02	-11.5168	-50.070576	0.000243	2.431535	0.823826	0.000097
1721	1.7114e+02	-11.4735	-49.977722	0.000233	2.330221	0.789500	0.000093
1722	1.7124e+02	-11.4302	-49.804125	0.000436	4.356501	1.476022	0.000174
1723	1.7134e+02	-11.3901	-49.747605	0.000142	1.418396	0.480565	0.000057
1724	1.7144e+02	-11.3516	-49.614380	0.000334	3.343361	1.132761	0.000134
1725	1.7154e+02	-11.3082	-49.497303	0.000294	2.938105	0.995457	0.000118
1726	1.7164e+02	-11.2729	-49.412523	0.000213	2.127593	0.720848	0.000085
1727	1.7174e+02	-11.2409	-49.238926	0.000436	4.356501	1.476022	0.000174
1728	1.7184e+02	-11.2008	-49.162220	0.000192	1.924965	0.652196	0.000077
1729	1.7194e+02	-11.1542	-49.020921	0.000355	3.545989	1.201414	0.000142
1730	1.7204e+02	-11.1141	-48.915955	0.000263	2.634163	0.892479	0.000105
1731	1.7213e+02	-11.0836	-48.823101	0.000233	2.330221	0.789500	0.000093
1732	1.7223e+02	-11.0371	-48.710061	0.000284	2.836791	0.961131	0.000114
1733	1.7233e+02	-10.9986	-48.625281	0.000213	2.127593	0.720848	0.000085
1734	1.7243e+02	-10.9585	-48.451685	0.000436	4.356501	1.476022	0.000174
1735	1.7253e+02	-10.9152	-48.346719	0.000263	2.634163	0.892479	0.000105
1736	1.7263e+02	-10.8783	-48.241754	0.000263	2.634163	0.892479	0.000105
1737	1.7273e+02	-10.8414	-48.104491	0.000344	3.444675	1.167088	0.000138
1738	1.7283e+02	-10.7869	-47.983377	0.000304	3.039419	1.029783	0.000122
1739	1.7293e+02	-10.7532	-47.878411	0.000263	2.634163	0.892479	0.000105
1740	1.7303e+02	-10.7227	-47.753260	0.000314	3.140733	1.064109	0.000126
1741	1.7313e+02	-10.6762	-47.640220	0.000284	2.836791	0.961131	0.000114
1742	1.7323e+02	-10.6377	-47.539292	0.000253	2.532849	0.858153	0.000101
1743	1.7333e+02	-10.5911	-47.426252	0.000284	2.836791	0.961131	0.000114
1744	1.7343e+02	-10.5478	-47.284952	0.000355	3.545989	1.201414	0.000142
1745	1.7353e+02	-10.5238	-47.159801	0.000314	3.140733	1.064109	0.000126
1746	1.7363e+02	-10.4772	-47.030613	0.000324	3.242047	1.098435	0.000130
1747	1.7373e+02	-10.4436	-46.913536	0.000294	2.938105	0.995457	0.000118
1748	1.7383e+02	-10.3986	-46.848942	0.000162	1.621024	0.549218	0.000065
1749	1.7393e+02	-10.3617	-46.671308	0.000446	4.457815	1.510349	0.000179
1750	1.7403e+02	-10.3232	-46.550194	0.000304	3.039419	1.029783	0.000122
1751	1.7413e+02	-10.2799	-46.485599	0.000162	1.621024	0.549218	0.000065
1752	1.7422e+02	-10.2494	-46.352374	0.000334	3.343361	1.132761	0.000134
1753	1.7432e+02	-10.2045	-46.239334	0.000284	2.836791	0.961131	0.000114
1754	1.7442e+02	-10.1644	-46.093997	0.000365	3.647303	1.235740	0.000146
1755	1.7452e+02	-10.1179	-45.997106	0.000243	2.431535	0.823826	0.000097
1756	1.7462e+02	-10.0762	-45.859843	0.000344	3.444675	1.167088	0.000138
1757	1.7472e+02	-10.0393	-45.726618	0.000334	3.343361	1.132761	0.000134
1758	1.7482e+02	-9.9976	-45.609541	0.000294	2.938105	0.995457	0.000118
1759	1.7492e+02	-9.9639	-45.476316	0.000334	3.343361	1.132761	0.000134
1760	1.7502e+02	-9.9158	-45.367313	0.000274	2.735477	0.926805	0.000110
1761	1.7512e+02	-9.8805	-45.262347	0.000263	2.634163	0.892479	0.000105
1762	1.7522e+02	-9.8452	-45.133159	0.000324	3.242047	1.098435	0.000130
1763	1.7532e+02	-9.8003	-45.012045	0.000304	3.039419	1.029783	0.000122
1764	1.7542e+02	-9.7585	-44.907079	0.000263	2.634163	0.892479	0.000105
1765	1.7552e+02	-9.7104	-44.785965	0.000304	3.039419	1.029783	0.000122
1766	1.7562e+02	-9.6799	-44.600257	0.000466	4.660443	1.579001	0.000187
1767	1.7572e+02	-9.6446	-44.515477	0.000213	2.127593	0.720848	0.000085
1768	1.7582e+02	-9.6078	-44.382252	0.000334	3.343361	1.132761	0.000134
1769	1.7592e+02	-9.5644	-44.273249	0.000274	2.735477	0.926805	0.000110
1770	1.7602e+02	-9.5243	-44.123875	0.000375	3.748617	1.270066	0.000150
1771	1.7612e+02	-9.4810	-44.014872	0.000274	2.735477	0.926805	0.000110
1772	1.7621e+02	-9.4393	-43.881647	0.000334	3.343361	1.132761	0.000134
1773	1.7631e+02	-9.3992	-43.748421	0.000334	3.343361	1.132761	0.000134
1774	1.7641e+02	-9.3559	-43.627307	0.000304	3.039419	1.029783	0.000122
1775	1.7651e+02	-9.3222	-43.534453	0.000233	2.330221	0.789500	0.000093
1776	1.7661e+02	-9.2805	-43.417376	0.000294	2.938105	0.995457	0.000118
1777	1.7671e+02	-9.2500	-43.276077	0.000355	3.545989	1.201414	0.000142
1778	1.7681e+02	-9.2035	-43.142851	0.000334	3.343361	1.132761	0.000134
1779	1.7691e+02	-9.1650	-43.037886	0.000263	2.634163	0.892479	0.000105
1780	1.7701e+02	-9.1281	-42.896586	0.000355	3.545989	1.201414	0.000142
1781	1.7711e+02	-9.0912	-42.747212	0.000375	3.748617	1.270066	0.000150
1782	1.7721e+02	-9.0366	-42.634172	0.000284	2.836791	0.961131	0.000114
1783	1.7731e+02	-8.9949	-42.541318	0.000233	2.330221	0.789500	0.000093
1784	1.7741e+02	-8.9628	-42.416167	0.000314	3.140733	1.064109	0.000126
1785	1.7751e+02	-8.9243	-42.230458	0.000466	4.660443	1.579001	0.000187
1786	1.7761e+02	-8.8858	-42.137604	0.000233	2.330221	0.789500	0.000093
1787	1.7771e+02	-8.8393	-42.000342	0.000344	3.444675	1.167088	0.000138
1788	1.7781e+02	-8.8088	-41.903450	0.000243	2.431535	0.823826	0.000097
1789	1.7791e+02	-8.7575	-41.725816	0.000446	4.457815	1.510349	0.000179
1790	1.7801e+02	-8.7238	-41.576442	0.000375	3.748617	1.270066	0.000150
1791	1.7810e+02	-8.6869	-41.511848	0.000162	1.621024	0.549218	0.000065
1792	1.7820e+02	-8.6436	-41.346326	0.000415	4.153873	1.407370	0.000166
1793	1.7830e+02	-8.5987	-41.213100	0.000334	3.343361	1.132761	0.000134
1794	1.7840e+02	-8.5698	-41.091986	0.000304	3.039419	1.029783	0.000122
1795	1.7850e+02	-8.5185	-40.966835	0.000314	3.140733	1.064109	0.000126
1796	1.7860e+02	-8.4912	-40.841684	0.000314	3.140733	1.064109	0.000126
1797	1.7870e+02	-8.4415	-40.724607	0.000294	2.938105	0.995457	0.000118
1798	1.7880e+02	-8.4030	-40.587344	0.000344	3.444675	1.167088	0.000138
1799	1.7890e+02	-8.3597	-40.429896	0.000395	3.951245	1.338718	0.000158
1800	1.7900e+02	-8.3292	-40.312819	0.000294	2.938105	0.995457	0.000118
1801	1.7910e+02	-8.2730	-40.207853	0.000263	2.634163	0.892479	0.000105
1802	1.7920e+02	-8.2361	-40.030219	0.000446	4.457815	1.510349	0.000179
1803	1.7930e+02	-8.1976	-39.929291	0.000253	2.532849	0.858153	0.000101
1804	1.7940e+02	-8.1639	-39.804140	0.000314	3.140733	1.064109	0.000126
1805	1.7950e+02	-8.1254	-39.670914	0.000334	3.343361	1.132761	0.000134
1806	1.7960e+02	-8.0869	-39.533652	0.000344	3.444675	1.167088	0.000138
1807	1.7970e+02	-8.0484	-39.408501	0.000314	3.140733	1.064109	0.000126
1808	1.7980e+02	-8.0067	-39.291424	0.000294	2.938105	0.995457	0.000118
1809	1.7990e+02	-7.9634	-39.142050	0.000375	3.748617	1.270066	0.000150
1810	1.8000e+02	-7.9313	-39.008824	0.000334	3.343361	1.132761	0.000134
1811	1.8009e+02	-7.8880	-38.867524	0.000355	3.545989	1.201414	0.000142
1812	1.8019e+02	-7.8591	-38.786782	0.000203	2.026279	0.686522	0.000081
1813	1.8029e+02	-7.8014	-38.609148	0.000446	4.457815	1.510349	0.000179
1814	1.8039e+02	-7.7693	-38.500145	0.000274	2.735477	0.926805	0.000110
1815	1.8049e+02	-7.7340	-38.354808	0.000365	3.647303	1.235740	0.000146
1816	1.8059e+02	-7.6923	-38.221583	0.000334	3.343361	1.132761	0.000134
1817	1.8069e+02	-7.6554	-38.084320	0.000344	3.444675	1.167088	0.000138
1818	1.8079e+02	-7.6009	-37.922835	0.000405	4.052559	1.373044	0.000162
1819	1.8089e+02	-7.5607	-37.781535	0.000355	3.545989	1.201414	0.000142
1820	1.8099e+02	-7.5239	-37.652346	0.000324	3.242047	1.098435	0.000130
1821	1.8109e+02	-7.4870	-37.523158	0.000324	3.242047	1.098435	0.000130
1822	1.8119e+02	-7.4452	-37.410118	0.000284	2.836791	0.961131	0.000114
1823	1.8129e+02	-7.4132	-37.305153	0.000263	2.634163	0.892479	0.000105
1824	1.8139e+02	-7.3618	-37.103296	0.000507	5.065699	1.716305	0.000203
1825	1.8149e+02	-7.3297	-36.994293	0.000274	2.735477	0.926805	0.000110
1826	1.8159e+02	-7.2896	-36.852994	0.000355	3.545989	1.201414	0.000142
1827	1.8169e+02	-7.2592	-36.768214	0.000213	2.127593	0.720848	0.000085
1828	1.8179e+02	-7.2142	-36.586543	0.000456	4.559129	1.544675	0.000183
1829	1.8189e+02	-7.1661	-36.416983	0.000426	4.255187	1.441696	0.000170
1830	1.8199e+02	-7.1260	-36.299906	0.000294	2.938105	0.995457	0.000118
1831	1.8209e+02	-7.0923	-36.174755	0.000314	3.140733	1.064109	0.000126
1832	1.8218e+02	-7.0522	-36.001158	0.000436	4.356501	1.476022	0.000174
1833	1.8228e+02	-7.0137	-35.908304	0.000233	2.330221	0.789500	0.000093
1834	1.8238e+02	-6.9720	-35.767004	0.000355	3.545989	1.201414	0.000142
1835	1.8248e+02	-6.9271	-35.605519	0.000405	4.052559	1.373044	0.000162
1836	1.8258e+02	-6.8806	-35.452107	0.000385	3.849931	1.304392	0.000154
1837	1.8268e+02	-6.8501	-35.335031	0.000294	2.938105	0.995457	0.000118
1838	1.8278e+02	-6.8068	-35.161434	0.000436	4.356501	1.476022	0.000174
1839	1.8288e+02	-6.7715	-35.008023	0.000385	3.849931	1.304392	0.000154
1840	1.8298e+02	-6.7282	-34.903057	0.000263	2.634163	0.892479	0.000105
1841	1.8308e+02	-6.6961	-34.765794	0.000344	3.444675	1.167088	0.000138
1842	1.8318e+02	-6.6624	-34.624495	0.000355	3.545989	1.201414	0.000142
1843	1.8328e+02	-6.6078	-34.434749	0.000476	4.761757	1.613327	0.000191
1844	1.8338e+02	-6.5693	-34.329784	0.000263	2.634163	0.892479	0.000105
1845	1.8348e+02	-6.5308	-34.168298	0.000405	4.052559	1.373044	0.000162
1846	1.8358e+02	-6.4955	-34.071407	0.000243	2.431535	0.823826	0.000097
1847	1.8368e+02	-6.4538	-33.909922	0.000405	4.052559	1.373044	0.000162
1848	1.8378e+02	-6.4185	-33.764585	0.000365	3.647303	1.235740	0.000146
1849	1.8388e+02	-6.3720	-33.627322	0.000344	3.444675	1.167088	0.000138
1850	1.8398e+02	-6.3351	-33.481985	0.000365	3.647303	1.235740	0.000146
1851	1.8407e+02	-6.3046	-33.368945	0.000284	2.836791	0.961131	0.000114
1852	1.8417e+02	-6.2661	-33.211497	0.000395	3.951245	1.338718	0.000158
1853	1.8427e+02	-6.2132	-33.021752	0.000476	4.761757	1.613327	0.000191
1854	1.8437e+02	-6.1731	-32.945046	0.000192	1.924965	0.652196	0.000077
1855	1.8447e+02	-6.1346	-32.779524	0.000415	4.153873	1.407370	0.000166
1856	1.8457e+02	-6.0977	-32.638224	0.000355	3.545989	1.201414	0.000142
1857	1.8467e+02	-6.0512	-32.504998	0.000334	3.343361	1.132761	0.000134
1858	1.8477e+02	-6.0127	-32.315253	0.000476	4.761757	1.613327	0.000191
1859	1.8487e+02	-5.9854	-32.210287	0.000263	2.634163	0.892479	0.000105
1860	1.8497e+02	-5.9308	-32.016505	0.000486	4.863071	1.647653	0.000195
1861	1.8507e+02	-5.8956	-31.915577	0.000253	2.532849	0.858153	0.000101
1862	1.8517e+02	-5.8522	-31.746017	0.000426	4.255187	1.441696	0.000170
1863	1.8527e+02	-5.8169	-31.620866	0.000314	3.140733	1.064109	0.000126
1864	1.8537e+02	-5.7865	-31.459380	0.000405	4.052559	1.373044	0.000162
1865	1.8547e+02	-5.7383	-31.293858	0.000415	4.153873	1.407370	0.000166
1866	1.8557e+02	-5.7047	-31.164669	0.000324	3.242047	1.098435	0.000130
1867	1.8567e+02	-5.6581	-30.999147	0.000415	4.153873	1.407370	0.000166
1868	1.8577e+02	-5.6212	-30.873996	0.000314	3.140733	1.064109	0.000126
1869	1.8587e+02	-5.5747	-30.696362	0.000446	4.457815	1.510349	0.000179
1870	1.8597e+02	-5.5458	-30.567173	0.000324	3.242047	1.098435	0.000130
1871	1.8606e+02	-5.5041	-30.413762	0.000385	3.849931	1.304392	0.000154
1872	1.8616e+02	-5.4512	-30.268425	0.000365	3.647303	1.235740	0.000146
1873	1.8626e+02	-5.4207	-30.139237	0.000324	3.242047	1.098435	0.000130
1874	1.8636e+02	-5.3758	-29.961603	0.000446	4.457815	1.510349	0.000179
1875	1.8646e+02	-5.3309	-29.816266	0.000365	3.647303	1.235740	0.000146
1876	1.8656e+02	-5.2972	-29.707263	0.000274	2.735477	0.926805	0.000110
1877	1.8666e+02	-5.2619	-29.473109	0.000588	5.876210	1.990914	0.000235
1878	1.8676e+02	-5.2234	-29.396404	0.000192	1.924965	0.652196	0.000077
1879	1.8686e+02	-5.1833	-29.182436	0.000537	5.369641	1.819283	0.000215
1880	1.8696e+02	-5.1464	-29.016913	0.000415	4.153873	1.407370	0.000166
1881	1.8706e+02	-5.1015	-28.895799	0.000304	3.039419	1.029783	0.000122
1882	1.8716e+02	-5.0517	-28.730276	0.000415	4.153873	1.407370	0.000166
1883	1.8726e+02	-5.0212	-28.556680	0.000436	4.356501	1.476022	0.000174
1884	1.8736e+02	-4.9795	-28.479974	0.000192	1.924965	0.652196	0.000077
1885	1.8746e+02	-4.9362	-28.282154	0.000496	4.964385	1.681979	0.000199
1886	1.8756e+02	-4.9009	-28.140855	0.000355	3.545989	1.201414	0.000142
1887	1.8766e+02	-4.8608	-28.003592	0.000344	3.444675	1.167088	0.000138
1888	1.8776e+02	-4.8207	-27.850181	0.000385	3.849931	1.304392	0.000154
1889	1.8786e+02	-4.7886	-27.684658	0.000415	4.153873	1.407370	0.000166
1890	1.8796e+02	-4.7501	-27.551433	0.000334	3.343361	1.132761	0.000134
1891	1.8806e+02	-4.7020	-27.361687	0.000476	4.761757	1.613327	0.000191
1892	1.8815e+02	-4.6539	-27.204239	0.000395	3.951245	1.338718	0.000158
1893	1.8825e+02	-4.6170	-27.026605	0.000446	4.457815	1.510349	0.000179
1894	1.8835e+02	-4.5753	-26.873194	0.000385	3.849931	1.304392	0.000154
1895	1.8845e+02	-4.5432	-26.699597	0.000436	4.356501	1.476022	0.000174
1896	1.8855e+02	-4.5063	-26.554260	0.000365	3.647303	1.235740	0.000146
1897	1.8865e+02	-4.4517	-26.433146	0.000304	3.039419	1.029783	0.000122
1898	1.8875e+02	-4.4261	-26.271661	0.000405	4.052559	1.373044	0.000162
1899	1.8885e+02	-4.3892	-26.069804	0.000507	5.065699	1.716305	0.000203
1900	1.8895e+02	-4.3443	-25.932541	0.000344	3.444675	1.167088	0.000138
1901	1.8905e+02	-4.3058	-25.767019	0.000415	4.153873	1.407370	0.000166
1902	1.8915e+02	-4.2608	-25.625719	0.000355	3.545989	1.201414	0.000142
1903	1.8925e+02	-4.2207	-25.444048	0.000456	4.559129	1.544675	0.000183
1904	1.8935e+02	-4.1854	-25.290637	0.000385	3.849931	1.304392	0.000154
1905	1.8945e+02	-4.1373	-25.129151	0.000405	4.052559	1.373044	0.000162
1906	1.8955e+02	-4.1004	-24.959592	0.000426	4.255187	1.441696	0.000170
1907	1.8965e+02	-4.0667	-24.818292	0.000355	3.545989	1.201414	0.000142
1908	1.8975e+02	-4.0250	-24.656807	0.000405	4.052559	1.373044	0.000162
1909	1.8985e+02	-3.9849	-24.475135	0.000456	4.559129	1.544675	0.000183
1910	1.8995e+02	-3.9464	-24.341910	0.000334	3.343361	1.132761	0.000134
1911	1.9004e+02	-3.9079	-24.136016	0.000517	5.167013	1.750631	0.000207
1912	1.9014e+02	-3.8598	-23.994716	0.000355	3.545989	1.201414	0.000142
1913	1.9024e+02	-3.8165	-23.813045	0.000456	4.559129	1.544675	0.000183
1914	1.9034e+02	-3.7876	-23.647523	0.000415	4.153873	1.407370	0.000166
1915	1.9044e+02	-3.7507	-23.534483	0.000284	2.836791	0.961131	0.000114
1916	1.9054e+02	-3.7074	-23.320515	0.000537	5.369641	1.819283	0.000215
1917	1.9064e+02	-3.6544	-23.175178	0.000365	3.647303	1.235740	0.000146
1918	1.9074e+02	-3.6208	-23.017729	0.000395	3.951245	1.338718	0.000158
1919	1.9084e+02	-3.5919	-22.844133	0.000436	4.356501	1.476022	0.000174
1920	1.9094e+02	-3.5470	-22.690721	0.000385	3.849931	1.304392	0.000154
1921	1.9104e+02	-3.5020	-22.517125	0.000436	4.356501	1.476022	0.000174
1922	1.9114e+02	-3.4651	-22.327379	0.000476	4.761757	1.613327	0.000191
1923	1.9124e+02	-3.4331	-22.226451	0.000253	2.532849	0.858153	0.000101
1924	1.9134e+02	-3.3930	-22.028631	0.000496	4.964385	1.681979	0.000199
1925	1.9144e+02	-3.3464	-21.855034	0.000436	4.356501	1.476022	0.000174
1926	1.9154e+02	-3.3031	-21.677400	0.000446	4.457815	1.510349	0.000179
1927	1.9164e+02	-3.2646	-21.483618	0.000486	4.863071	1.647653	0.000195
1928	1.9174e+02	-3.2357	-21.354429	0.000324	3.242047	1.098435	0.000130
1929	1.9184e+02	-3.1876	-21.148536	0.000517	5.167013	1.750631	0.000207
1930	1.9194e+02	-3.1523	-20.999162	0.000375	3.748617	1.270066	0.000150
1931	1.9203e+02	-3.1090	-20.829602	0.000426	4.255187	1.441696	0.000170
1932	1.9213e+02	-3.0625	-20.643894	0.000466	4.660443	1.579001	0.000187
1933	1.9223e+02	-3.0336	-20.502594	0.000355	3.545989	1.201414	0.000142
1934	1.9233e+02	-2.9919	-20.316886	0.000466	4.660443	1.579001	0.000187
1935	1.9243e+02	-2.9486	-20.151363	0.000415	4.153873	1.407370	0.000166
1936	1.9253e+02	-2.9053	-19.965655	0.000466	4.660443	1.579001	0.000187
1937	1.9263e+02	-2.8636	-19.783984	0.000456	4.559129	1.544675	0.000183
1938	1.9273e+02	-2.8186	-19.586164	0.000496	4.964385	1.681979	0.000199
1939	1.9283e+02	-2.7994	-19.477161	0.000274	2.735477	0.926805	0.000110
1940	1.9293e+02	-2.7416	-19.271267	0.000517	5.167013	1.750631	0.000207
1941	1.9303e+02	-2.7063	-19.093633	0.000446	4.457815	1.510349	0.000179
1942	1.9313e+02	-2.6743	-18.907925	0.000466	4.660443	1.579001	0.000187
1943	1.9323e+02	-2.6374	-18.702031	0.000517	5.167013	1.750631	0.000207
1944	1.9333e+02	-2.5780	-18.540546	0.000405	4.052559	1.373044	0.000162
1945	1.9343e+02	-2.5475	-18.387135	0.000385	3.849931	1.304392	0.000154
1946	1.9353e+02	-2.5042	-18.221612	0.000415	4.153873	1.407370	0.000166
1947	1.9363e+02	-2.4721	-17.991495	0.000577	5.774896	1.956588	0.000231
1948	1.9373e+02	-2.4384	-17.854233	0.000344	3.444675	1.167088	0.000138
1949	1.9383e+02	-2.3935	-17.680636	0.000436	4.356501	1.476022	0.000174
1950	1.9393e+02	-2.3502	-17.519151	0.000405	4.052559	1.373044	0.000162
1951	1.9403e+02	-2.3005	-17.321331	0.000496	4.964385	1.681979	0.000199
1952	1.9412e+02	-2.2716	-17.107363	0.000537	5.369641	1.819283	0.000215
1953	1.9422e+02	-2.2331	-16.949914	0.000395	3.951245	1.338718	0.000158
1954	1.9432e+02	-2.1914	-16.812652	0.000344	3.444675	1.167088	0.000138
1955	1.9442e+02	-2.1449	-16.558312	0.000638	6.382780	2.162545	0.000256
1956	1.9452e+02	-2.1080	-16.408938	0.000375	3.748617	1.270066	0.000150
1957	1.9462e+02	-2.0727	-16.235341	0.000436	4.356501	1.476022	0.000174
1958	1.9472e+02	-2.0342	-16.102116	0.000334	3.343361	1.132761	0.000134
1959	1.9482e+02	-1.9957	-15.892185	0.000527	5.268327	1.784957	0.000211
1960	1.9492e+02	-1.9540	-15.670142	0.000557	5.572269	1.887936	0.000223
1961	1.9502e+02	-1.9122	-15.496546	0.000436	4.356501	1.476022	0.000174
1962	1.9512e+02	-1.8705	-15.306800	0.000476	4.761757	1.613327	0.000191
1963	1.9522e+02	-1.8352	-15.161463	0.000365	3.647303	1.235740	0.000146
1964	1.9532e+02	-1.7855	-14.951532	0.000527	5.268327	1.784957	0.000211
1965	1.9542e+02	-1.7470	-14.794084	0.000395	3.951245	1.338718	0.000158
1966	1.9552e+02	-1.7213	-14.616450	0.000446	4.457815	1.510349	0.000179
1967	1.9562e+02	-1.6748	-14.390370	0.000567	5.673583	1.922262	0.000227
1968	1.9572e+02	-1.6283	-14.204662	0.000466	4.660443	1.579001	0.000187
1969	1.9582e+02	-1.5914	-14.035102	0.000426	4.255187	1.441696	0.000170
1970	1.9592e+02	-1.5545	-13.909951	0.000314	3.140733	1.064109	0.000126
1971	1.9601e+02	-1.5144	-13.679834	0.000577	5.774896	1.956588	0.000231
1972	1.9611e+02	-1.4566	-13.482015	0.000496	4.964385	1.681979	0.000199
1973	1.9621e+02	-1.4326	-13.284195	0.000496	4.964385	1.681979	0.000199
1974	1.9631e+02	-1.3973	-13.146933	0.000344	3.444675	1.167088	0.000138
1975	1.9641e+02	-1.3524	-12.928927	0.000547	5.470955	1.853610	0.000219
1976	1.9651e+02	-1.3139	-12.775516	0.000385	3.849931	1.304392	0.000154
1977	1.9661e+02	-1.2722	-12.577696	0.000496	4.964385	1.681979	0.000199
1978	1.9671e+02	-1.2321	-12.379877	0.000496	4.964385	1.681979	0.000199
1979	1.9681e+02	-1.1968	-12.206280	0.000436	4.356501	1.476022	0.000174
1980	1.9691e+02	-1.1534	-12.040757	0.000415	4.153873	1.407370	0.000166
1981	1.9701e+02	-1.1214	-11.867161	0.000436	4.356501	1.476022	0.000174
1982	1.9711e+02	-1.0813	-11.653192	0.000537	5.369641	1.819283	0.000215
1983	1.9721e+02	-1.0428	-11.447298	0.000517	5.167013	1.750631	0.000207
1984	1.9731e+02	-0.9946	-11.245442	0.000507	5.065699	1.716305	0.000203
1985	1.9741e+02	-0.9609	-11.075882	0.000426	4.255187	1.441696	0.000170
1986	1.9751e+02	-0.9224	-10.890174	0.000466	4.660443	1.579001	0.000187
1987	1.9761e+02	-0.8743	-10.716577	0.000436	4.356501	1.476022	0.000174
1988	1.9771e+02	-0.8374	-10.530869	0.000466	4.660443	1.579001	0.000187
1989	1.9781e+02	-0.8021	-10.308826	0.000557	5.572269	1.887936	0.000223
1990	1.9791e+02	-0.7524	-10.102932	0.000517	5.167013	1.750631	0.000207
1991	1.9800e+02	-0.7155	-9.953558	0.000375	3.748617	1.270066	0.000150
1992	1.9810e+02	-0.6722	-9.759776	0.000486	4.863071	1.647653	0.000195
1993	1.9820e+02	-0.6305	-9.578105	0.000456	4.559129	1.544675	0.000183
1994	1.9830e+02	-0.6000	-9.368173	0.000527	5.268327	1.784957	0.000211
1995	1.9840e+02	-0.5535	-9.166317	0.000507	5.065699	1.716305	0.000203
1996	1.9850e+02	-0.5230	-9.008868	0.000395	3.951245	1.338718	0.000158
1997	1.9860e+02	-0.4829	-8.798937	0.000527	5.268327	1.784957	0.000211
1998	1.9870e+02	-0.4380	-8.584969	0.000537	5.369641	1.819283	0.000215
1999	1.9880e+02	-0.3995	-8.391187	0.000486	4.863071	1.647653	0.000195
2000	1.9890e+02	-0.3561	-8.201441	0.000476	4.761757	1.613327	0.000191
2001	1.9900e+02	-0.3241	-8.043993	0.000395	3.951245	1.338718	0.000158
2002	1.9910e+02	-0.2856	-7.874433	0.000426	4.255187	1.441696	0.000170
2003	1.9920e+02	-0.2422	-7.660465	0.000537	5.369641	1.819283	0.000215
2004	1.9930e+02	-0.1925	-7.466683	0.000486	4.863071	1.647653	0.000195
2005	1.9940e+02	-0.1556	-7.236566	0.000577	5.774896	1.956588	0.000231
2006	1.9950e+02	-0.1235	-7.083155	0.000385	3.849931	1.304392	0.000154
2007	1.9960e+02	-0.0674	-6.869186	0.000537	5.369641	1.819283	0.000215
2008	1.9970e+02	-0.0289	-6.691552	0.000446	4.457815	1.510349	0.000179
2009	1.9980e+02	0.0080	-6.501807	0.000446	4.457815	1.510349	0.000191

Center data before PMax,+/-Pr and +/-Vc Calc.

PMax (uC/cm2):	6.95e+01
Pr (uC/cm2):	3.71e+00
-Pr (uC/cm2):	-6.50e+00
PLoss (uC/cm2):	-2.10e+00
Vc:	1.00e+00
-Vc:	-7.81e-01
C (Max-Eff) (nF):	3.48e-01
K (Eff):	1.18e+03
Vert. (+/-Pr) Shift (uC/cm2):	-1.39e+00
Horiz. Shift (+/-Vc):	1.11e-01
Offset (uC/cm2):	4.40e+00

A (Loop Area - uC/cm2·Volts):	3.73e-02



Hysteresis Version: 5.48.1 - Radiant Technologies, Inc., 1999 - 9/12/24

