»»»»»»»»»»»»»»»»»»»»»»»»»»»»»»»»»»»» Hysteresis ««««««««««««««««««««««««««««««««««««
»»»  Executed Version:	5.48.1
»»»  Vision Version:	5.48.4 (R)
»»»  Vision Compiled:	9/18/24
»»»  Driver Version:	5.47.0
»»»  Windows Version:	Windows 8 or 8.1
»»»  Processor Information:	x86 (AMD or Intel) - 32 Processors
»»»  Tester Name:	PMF21124-494 (100V)
»»»  Tester S/N:	PMF21124-494
»»»  Internal Amp Type:	100V RevK 270k
»»»  Internal Amp S/N:	iAB2-596/K     
»»»  Execution Count:	1
»»»»»»»»»»»»»»»»»»»»»»»»»»»»»»»»»»»»»»»»»»««««««««««««««««««««««««««««««««««««««««««

Stored:	6/13/2025 - 14:36:27
Configured:	06/13/25 01:30:53 PM
Executed:	06/13/25 02:36:01 PM

»»»»»»»»»»»»»»»»»»»»»»»»»»»»»»»»»»» Sample Info ««««««««««««««««««««««««««««««««««««
Sample Name:	
Lot Name:	
Wafer Name:	
Die Row/Column:	0/0
Capacitor Number:	0
Sample Area (cm2):	1.00e-04
Sample Thickness (microns):	3.00e-01

Amplifier:	Internal

»»»»»»»»»»»»»»»»»»»»»»»»»»»»»»»»»»» Tester Info «««««««««««««««««««««««««««««««««««
Tester Name:	PMF21124-494 (100V)
Tester Serial Number:	PMF21124-494
Return Signal Amp. Level:	1.79 [Index: 2]

»»»»»»»»»»»»»»»»»»»»»»»»»»»»»»»» Hysteresis Info ««««««««««««««««««««««««««««««««««
Task Name:	Hyst-1922
Volts:	20.00
Field:	666.67 (kV/cm)
DCBias:	0.00
DCField:	0.00 (kV/cm)
Hysteresis Period (ms):	1.00e+00
Preset:	Enabled
Preset Delay (ms):	1.00e+03
Profile:	Standard Bipolar

»»»»»»»»»»»»»»»»»»»»»»»»»»»»»»»»»»»»»» Data «««««««««««««««««««««««««««««««««««««««
Points:	2001

Valid Data

Point	Time (ms)	Drive Voltage	Measured Polarization (uC/cm2)	Capacitance (uF)	Normalized Capacitance (uF/cm2)	Dielectric Constant	Instantaneous Current (mA)
   1	0.0000e+00	0.0176	-1.374174	0.000279	2.789341	0.945054	0.022493
   2	5.0000e-04	0.0305	-1.261708	0.000279	2.789341	0.945054	0.022493
   3	1.0000e-03	0.1171	-1.283945	-0.000055	-0.551505	-0.186855	-0.004447
   4	1.5000e-03	0.1572	-1.211676	0.000179	1.792390	0.607278	0.014454
   5	2.0000e-03	0.1989	-1.145394	0.000164	1.643908	0.556971	0.013256
   6	2.5000e-03	0.2342	-1.047040	0.000244	2.439348	0.826473	0.019671
   7	3.0000e-03	0.2839	-0.966647	0.000199	1.993902	0.675552	0.016079
   8	3.5000e-03	0.3144	-0.877273	0.000222	2.216625	0.751013	0.017875
   9	4.0000e-03	0.3770	-0.828096	0.000122	1.219674	0.413237	0.009835
  10	4.5000e-03	0.4059	-0.739578	0.000220	2.195413	0.743826	0.017704
  11	5.0000e-03	0.4267	-0.639941	0.000247	2.471165	0.837253	0.019927
  12	5.5000e-03	0.4925	-0.584350	0.000138	1.378762	0.467137	0.011118
  13	6.0000e-03	0.5182	-0.513364	0.000176	1.760573	0.596498	0.014197
  14	6.5000e-03	0.5486	-0.422708	0.000225	2.248442	0.761793	0.018131
  15	7.0000e-03	0.6048	-0.366261	0.000140	1.399974	0.474324	0.011289
  16	7.5000e-03	0.6465	-0.282874	0.000207	2.068143	0.700706	0.016677
  17	8.0000e-03	0.6866	-0.189652	0.000231	2.312077	0.783353	0.018644
  18	8.5000e-03	0.7235	-0.106265	0.000207	2.068143	0.700706	0.016677
  19	9.0000e-03	0.7347	-0.054522	0.000128	1.283309	0.434797	0.010349
  20	9.5000e-03	0.7861	0.031003	0.000212	2.121172	0.718673	0.017105
  21	1.0000e-02	0.8214	0.103272	0.000179	1.792390	0.607278	0.014454
  22	1.0500e-02	0.8791	0.207612	0.000259	2.587830	0.876780	0.020868
  23	1.1000e-02	0.9401	0.248664	0.000102	1.018163	0.344963	0.008210
  24	1.1500e-02	0.9738	0.338893	0.000224	2.237836	0.758200	0.018046
  25	1.2000e-02	1.0026	0.452641	0.000282	2.821159	0.955834	0.022750
  26	1.2500e-02	1.0395	0.497114	0.000110	1.103009	0.373710	0.008895
  27	1.3000e-02	1.0813	0.608725	0.000277	2.768129	0.937868	0.022322
  28	1.3500e-02	1.1021	0.682704	0.000183	1.834814	0.621652	0.014796
  29	1.4000e-02	1.1615	0.764808	0.000204	2.036325	0.689926	0.016421
  30	1.4500e-02	1.2096	0.809708	0.000111	1.113615	0.377303	0.008980
  31	1.5000e-02	1.2256	0.873425	0.000158	1.580273	0.535411	0.012743
  32	1.5500e-02	1.2914	0.970496	0.000241	2.407530	0.815693	0.019414
  33	1.6000e-02	1.3379	1.035495	0.000161	1.612091	0.546191	0.013000
  34	1.6500e-02	1.3588	1.162499	0.000315	3.149940	1.067229	0.025401
  35	1.7000e-02	1.4069	1.245459	0.000206	2.057537	0.697112	0.016592
  36	1.7500e-02	1.4246	1.342957	0.000242	2.418136	0.819287	0.019500
  37	1.8000e-02	1.4679	1.388713	0.000113	1.134827	0.384490	0.009151
  38	1.8500e-02	1.4984	1.479797	0.000226	2.259048	0.765386	0.018217
  39	1.9000e-02	1.5689	1.502461	0.000056	0.562111	0.190448	0.004533
  40	1.9500e-02	1.5818	1.593546	0.000226	2.259048	0.765386	0.018217
  41	2.0000e-02	1.6203	1.730386	0.000339	3.393875	1.149876	0.027368
  42	2.0500e-02	1.6716	1.792819	0.000155	1.548456	0.524631	0.012487
  43	2.1000e-02	1.7005	1.848410	0.000138	1.378762	0.467137	0.011118
  44	2.1500e-02	1.7550	1.936501	0.000218	2.184807	0.740233	0.017618
  45	2.2000e-02	1.7951	1.985250	0.000121	1.209068	0.409643	0.009750
  46	2.2500e-02	1.8481	2.085315	0.000248	2.481771	0.840847	0.020013
  47	2.3000e-02	1.8802	2.156728	0.000177	1.771179	0.600092	0.014283
  48	2.3500e-02	1.9315	2.229424	0.000180	1.802996	0.610872	0.014539
  49	2.4000e-02	1.9588	2.327351	0.000243	2.428742	0.822880	0.019585
  50	2.4500e-02	2.0053	2.369685	0.000105	1.049980	0.355743	0.008467
  51	2.5000e-02	2.0229	2.489421	0.000297	2.969641	1.006142	0.023947
  52	2.5500e-02	2.0518	2.598893	0.000272	2.715100	0.919901	0.021894
  53	2.6000e-02	2.1272	2.653201	0.000135	1.346944	0.456357	0.010862
  54	2.6500e-02	2.1802	2.716062	0.000156	1.559061	0.528224	0.012572
  55	2.7000e-02	2.2106	2.816981	0.000250	2.502983	0.848034	0.020184
  56	2.7500e-02	2.2203	2.910631	0.000232	2.322683	0.786946	0.018730
  57	2.8000e-02	2.2780	2.996584	0.000213	2.131778	0.722266	0.017191
  58	2.8500e-02	2.3197	3.009840	0.000033	0.328782	0.111394	0.002651
  59	2.9000e-02	2.3582	3.134707	0.000310	3.096911	1.049262	0.024973
  60	2.9500e-02	2.4176	3.157799	0.000057	0.572716	0.194042	0.004618
  61	3.0000e-02	2.4384	3.249311	0.000227	2.269654	0.768980	0.018302
  62	3.0500e-02	2.4625	3.355789	0.000264	2.640859	0.894747	0.021296
  63	3.1000e-02	2.5058	3.467827	0.000278	2.778735	0.941461	0.022408
  64	3.1500e-02	2.5555	3.534109	0.000164	1.643908	0.556971	0.013256
  65	3.2000e-02	2.6069	3.603384	0.000172	1.718149	0.582125	0.013855
  66	3.2500e-02	2.6309	3.670094	0.000165	1.654514	0.560565	0.013342
  67	3.3000e-02	2.6662	3.766310	0.000239	2.386318	0.808507	0.019243
  68	3.3500e-02	2.6919	3.877065	0.000275	2.746918	0.930681	0.022151
  69	3.4000e-02	2.7513	3.912557	0.000088	0.880286	0.298249	0.007099
  70	3.4500e-02	2.8186	3.963445	0.000126	1.262097	0.427610	0.010177
  71	3.5000e-02	2.8539	4.037424	0.000183	1.834814	0.621652	0.014796
  72	3.5500e-02	2.8700	4.166567	0.000320	3.202970	1.085196	0.025829
  73	3.6000e-02	2.9037	4.232849	0.000164	1.643908	0.556971	0.013256
  74	3.6500e-02	2.9582	4.335051	0.000253	2.534801	0.858814	0.020440
  75	3.7000e-02	3.0047	4.367978	0.000082	0.816651	0.276689	0.006585
  76	3.7500e-02	3.0545	4.470181	0.000253	2.534801	0.858814	0.020440
  77	3.8000e-02	3.0865	4.532614	0.000155	1.548456	0.524631	0.012487
  78	3.8500e-02	3.1411	4.612580	0.000198	1.983296	0.671959	0.015993
  79	3.9000e-02	3.1523	4.675441	0.000156	1.559061	0.528224	0.012572
  80	3.9500e-02	3.1908	4.775933	0.000249	2.492377	0.844440	0.020098
  81	4.0000e-02	3.2277	4.863596	0.000217	2.174201	0.736639	0.017533
  82	4.0500e-02	3.2630	4.955963	0.000229	2.290866	0.776166	0.018473
  83	4.1000e-02	3.3063	5.061159	0.000261	2.609042	0.883967	0.021039
  84	4.1500e-02	3.3448	5.099218	0.000094	0.943922	0.319809	0.007612
  85	4.2000e-02	3.3962	5.153954	0.000136	1.357550	0.459950	0.010947
  86	4.2500e-02	3.4539	5.224939	0.000176	1.760573	0.596498	0.014197
  87	4.3000e-02	3.4860	5.322438	0.000242	2.418136	0.819287	0.019500
  88	4.3500e-02	3.5229	5.407963	0.000212	2.121172	0.718673	0.017105
  89	4.4000e-02	3.5742	5.493488	0.000212	2.121172	0.718673	0.017105
  90	4.4500e-02	3.6047	5.559770	0.000164	1.643908	0.556971	0.013256
  91	4.5000e-02	3.6528	5.648288	0.000220	2.195413	0.743826	0.017704
  92	4.5500e-02	3.6625	5.748353	0.000248	2.481771	0.840847	0.020013
  93	4.6000e-02	3.7026	5.793253	0.000111	1.113615	0.377303	0.008980
  94	4.6500e-02	3.7667	5.901015	0.000267	2.672677	0.905527	0.021552
  95	4.7000e-02	3.8101	5.924534	0.000058	0.583322	0.197635	0.004704
  96	4.7500e-02	3.8437	5.997658	0.000181	1.813602	0.614465	0.014625
  97	4.8000e-02	3.8758	6.093874	0.000239	2.386318	0.808507	0.019243
  98	4.8500e-02	3.9127	6.186241	0.000229	2.290866	0.776166	0.018473
  99	4.9000e-02	3.9544	6.249957	0.000158	1.580273	0.535411	0.012743
 100	4.9500e-02	4.0074	6.340186	0.000224	2.237836	0.758200	0.018046
 101	5.0000e-02	4.0282	6.374824	0.000086	0.859075	0.291062	0.006928
 102	5.0500e-02	4.0780	6.485579	0.000275	2.746918	0.930681	0.022151
 103	5.1000e-02	4.1181	6.598899	0.000281	2.810553	0.952241	0.022664
 104	5.1500e-02	4.1437	6.652353	0.000133	1.325732	0.449170	0.010691
 105	5.2000e-02	4.2095	6.715641	0.000157	1.569667	0.531818	0.012658
 106	5.2500e-02	4.2400	6.792614	0.000191	1.909055	0.646805	0.015395
 107	5.3000e-02	4.2416	6.942283	0.000371	3.712051	1.257677	0.029934
 108	5.3500e-02	4.2993	6.953401	0.000028	0.275752	0.093427	0.002224
 109	5.4000e-02	4.3571	7.026952	0.000182	1.824208	0.618058	0.014710
 110	5.4500e-02	4.4020	7.078695	0.000128	1.283309	0.434797	0.010349
 111	5.5000e-02	4.4309	7.189450	0.000275	2.746918	0.930681	0.022151
 112	5.5500e-02	4.4806	7.266850	0.000192	1.919661	0.650399	0.015480
 113	5.6000e-02	4.5159	7.339546	0.000180	1.802996	0.610872	0.014539
 114	5.6500e-02	4.5448	7.439183	0.000247	2.471165	0.837253	0.019927
 115	5.7000e-02	4.6058	7.469544	0.000075	0.753016	0.255129	0.006072
 116	5.7500e-02	4.6394	7.546517	0.000191	1.909055	0.646805	0.015395
 117	5.8000e-02	4.6908	7.610233	0.000158	1.580273	0.535411	0.012743
 118	5.8500e-02	4.7132	7.753488	0.000355	3.552963	1.203776	0.028651
 119	5.9000e-02	4.7469	7.798388	0.000111	1.113615	0.377303	0.008980
 120	5.9500e-02	4.7886	7.898880	0.000249	2.492377	0.844440	0.020098
 121	6.0000e-02	4.8207	7.983978	0.000211	2.110566	0.715079	0.017019
 122	6.0500e-02	4.8881	8.025885	0.000104	1.039374	0.352150	0.008381
 123	6.1000e-02	4.9138	8.090884	0.000161	1.612091	0.546191	0.013000
 124	6.1500e-02	4.9651	8.125522	0.000086	0.859075	0.291062	0.006928
 125	6.2000e-02	4.9876	8.267493	0.000352	3.521145	1.192996	0.028394
 126	6.2500e-02	5.0469	8.294006	0.000066	0.657563	0.222788	0.005303
 127	6.3000e-02	5.0806	8.430418	0.000338	3.383269	1.146283	0.027282
 128	6.3500e-02	5.1351	8.480451	0.000124	1.240886	0.420423	0.010006
 129	6.4000e-02	5.1640	8.578377	0.000243	2.428742	0.822880	0.019585
 130	6.4500e-02	5.1993	8.622422	0.000109	1.092404	0.370116	0.008809
 131	6.5000e-02	5.2202	8.723342	0.000250	2.502983	0.848034	0.020184
 132	6.5500e-02	5.2876	8.788341	0.000161	1.612091	0.546191	0.013000
 133	6.6000e-02	5.3052	8.895247	0.000265	2.651465	0.898341	0.021381
 134	6.6500e-02	5.3373	8.979917	0.000210	2.099960	0.711486	0.016934
 135	6.7000e-02	5.4031	8.998732	0.000047	0.466658	0.158108	0.003763
 136	6.7500e-02	5.4480	9.113336	0.000284	2.842370	0.963021	0.022921
 137	6.8000e-02	5.4560	9.173631	0.000150	1.495426	0.506664	0.012059
 138	6.8500e-02	5.5266	9.239485	0.000163	1.633302	0.553378	0.013171
 139	6.9000e-02	5.5555	9.350668	0.000276	2.757524	0.934274	0.022237
 140	6.9500e-02	5.5843	9.422937	0.000179	1.792390	0.607278	0.014454
 141	7.0000e-02	5.6341	9.495205	0.000179	1.792390	0.607278	0.014454
 142	7.0500e-02	5.6678	9.576454	0.000202	2.015113	0.682739	0.016250
 143	7.1000e-02	5.7127	9.646157	0.000173	1.728755	0.585718	0.013941
 144	7.1500e-02	5.7688	9.721847	0.000188	1.877237	0.636025	0.015138
 145	7.2000e-02	5.8041	9.774872	0.000132	1.315127	0.445577	0.010605
 146	7.2500e-02	5.8458	9.859115	0.000209	2.089354	0.707892	0.016848
 147	7.3000e-02	5.9004	9.934377	0.000187	1.866631	0.632432	0.015052
 148	7.3500e-02	5.9308	9.992961	0.000145	1.453003	0.492291	0.011717
 149	7.4000e-02	5.9533	10.112269	0.000296	2.959035	1.002548	0.023861
 150	7.4500e-02	5.9886	10.179833	0.000168	1.675726	0.567751	0.013513
 151	7.5000e-02	6.0447	10.264503	0.000210	2.099960	0.711486	0.016934
 152	7.5500e-02	6.0512	10.345324	0.000200	2.004508	0.679146	0.016164
 153	7.6000e-02	6.1025	10.419304	0.000183	1.834814	0.621652	0.014796
 154	7.6500e-02	6.1763	10.427856	0.000021	0.212117	0.071867	0.001711
 155	7.7000e-02	6.1731	10.541604	-0.000282	-2.821159	-0.955834	0.022750
 156	7.7500e-02	6.2308	10.621570	0.000198	1.983296	0.671959	0.015993
 157	7.8000e-02	6.2870	10.678017	0.000140	1.399974	0.474324	0.011289
 158	7.8500e-02	6.3046	10.772094	0.000233	2.333289	0.790540	0.018816
 159	7.9000e-02	6.3447	10.848212	0.000189	1.887843	0.639619	0.015223
 160	7.9500e-02	6.3897	10.903803	0.000138	1.378762	0.467137	0.011118
 161	8.0000e-02	6.4410	11.011992	0.000268	2.683283	0.909121	0.021638
 162	8.0500e-02	6.4618	11.059459	0.000118	1.177250	0.398863	0.009493
 163	8.1000e-02	6.4522	11.225377	-0.000412	-4.115074	-1.394225	0.033184
 164	8.1500e-02	6.5533	11.209983	-0.000038	-0.381811	-0.129361	-0.003079
 165	8.2000e-02	6.6191	11.268140	0.000144	1.442397	0.488697	0.011631
 166	8.2500e-02	6.6319	11.357086	0.000221	2.206019	0.747419	0.017789
 167	8.3000e-02	6.6544	11.440900	0.000208	2.078749	0.704299	0.016763
 168	8.3500e-02	6.7121	11.513597	0.000180	1.802996	0.610872	0.014539
 169	8.4000e-02	6.7490	11.575175	0.000153	1.527244	0.517444	0.012316
 170	8.4500e-02	6.7923	11.612806	0.000093	0.933316	0.316216	0.007526
 171	8.5000e-02	6.8533	11.756915	0.000357	3.574175	1.210963	0.028822
 172	8.5500e-02	6.8886	11.793264	0.000090	0.901498	0.305436	0.007270
 173	8.6000e-02	6.9126	11.889907	0.000240	2.396924	0.812100	0.019329
 174	8.6500e-02	6.9576	11.905301	0.000038	0.381811	0.129361	0.003079
 175	8.7000e-02	7.0041	11.981419	0.000189	1.887843	0.639619	0.015223
 176	8.7500e-02	7.0394	12.088753	0.000266	2.662071	0.901934	0.021467
 177	8.8000e-02	7.0715	12.129805	0.000102	1.018163	0.344963	0.008210
 178	8.8500e-02	7.1196	12.236711	0.000265	2.651465	0.898341	0.021381
 179	8.9000e-02	7.1517	12.313256	0.000190	1.898449	0.643212	0.015309
 180	8.9500e-02	7.2046	12.368420	0.000137	1.368156	0.463544	0.011033
 181	9.0000e-02	7.2463	12.469767	0.000251	2.513589	0.851627	0.020269
 182	9.0500e-02	7.2800	12.530062	0.000150	1.495426	0.506664	0.012059
 183	9.1000e-02	7.3346	12.576673	0.000116	1.156039	0.391677	0.009322
 184	9.1500e-02	7.3442	12.719928	0.000355	3.552963	1.203776	0.028651
 185	9.2000e-02	7.4116	12.719500	-0.000001	-0.010606	-0.003593	-0.000086
 186	9.2500e-02	7.4083	12.808018	-0.000220	-2.195413	-0.743826	0.017704
 187	9.3000e-02	7.4613	12.894399	0.000214	2.142384	0.725859	0.017276
 188	9.3500e-02	7.5351	12.972227	0.000193	1.930267	0.653992	0.015566
 189	9.4000e-02	7.5816	13.014134	0.000104	1.039374	0.352150	0.008381
 190	9.4500e-02	7.5976	13.114198	0.000248	2.481771	0.840847	0.020013
 191	9.5000e-02	7.6426	13.192026	0.000193	1.930267	0.653992	0.015566
 192	9.5500e-02	7.6795	13.229229	0.000092	0.922710	0.312623	0.007441
 193	9.6000e-02	7.7148	13.319458	0.000224	2.237836	0.758200	0.018046
 194	9.6500e-02	7.7517	13.424654	0.000261	2.609042	0.883967	0.021039
 195	9.7000e-02	7.7869	13.483666	0.000146	1.463609	0.495884	0.011802
 196	9.7500e-02	7.8287	13.514883	0.000077	0.774228	0.262315	0.006243
 197	9.8000e-02	7.8639	13.655144	0.000348	3.478722	1.178623	0.028052
 198	9.8500e-02	7.9073	13.679946	0.000062	0.615140	0.208415	0.004960
 199	9.9000e-02	7.9506	13.754781	0.000186	1.856025	0.628838	0.014967
 200	9.9500e-02	7.9907	13.803530	0.000121	1.209068	0.409643	0.009750
 201	1.0000e-01	8.0244	13.884351	0.000200	2.004508	0.679146	0.016164
 202	1.0050e-01	8.0581	13.959186	0.000186	1.856025	0.628838	0.014967
 203	1.0100e-01	8.1158	14.022474	0.000157	1.569667	0.531818	0.012658
 204	1.0150e-01	8.1655	14.100302	0.000193	1.930267	0.653992	0.015566
 205	1.0200e-01	8.2105	14.181123	0.000200	2.004508	0.679146	0.016164
 206	1.0250e-01	8.2297	14.256385	0.000187	1.866631	0.632432	0.015052
 207	1.0300e-01	8.2778	14.331647	0.000187	1.866631	0.632432	0.015052
 208	1.0350e-01	8.3228	14.388521	0.000141	1.410579	0.477917	0.011375
 209	1.0400e-01	8.3500	14.455659	0.000167	1.665120	0.564158	0.013427
 210	1.0450e-01	8.3917	14.535625	0.000198	1.983296	0.671959	0.015993
 211	1.0500e-01	8.4511	14.604900	0.000172	1.718149	0.582125	0.013855
 212	1.0550e-01	8.4832	14.657498	0.000130	1.304521	0.441984	0.010520
 213	1.0600e-01	8.5169	14.763549	0.000263	2.630253	0.891154	0.021210
 214	1.0650e-01	8.5586	14.806739	0.000107	1.071192	0.362930	0.008638
 215	1.0700e-01	8.5939	14.890554	0.000208	2.078749	0.704299	0.016763
 216	1.0750e-01	8.6388	14.928612	0.000094	0.943922	0.319809	0.007612
 217	1.0800e-01	8.6757	15.014992	0.000214	2.142384	0.725859	0.017276
 218	1.0850e-01	8.7222	15.078281	0.000157	1.569667	0.531818	0.012658
 219	1.0900e-01	8.7543	15.179628	0.000251	2.513589	0.851627	0.020269
 220	1.0950e-01	8.8072	15.221963	0.000105	1.049980	0.355743	0.008467
 221	1.1000e-01	8.8473	15.290811	0.000171	1.707543	0.578531	0.013770
 222	1.1050e-01	8.8602	15.358376	0.000168	1.675726	0.567751	0.013513
 223	1.1100e-01	8.9324	15.433210	0.000186	1.856025	0.628838	0.014967
 224	1.1150e-01	8.9532	15.530281	0.000241	2.407530	0.815693	0.019414
 225	1.1200e-01	8.9837	15.549524	0.000048	0.477264	0.161701	0.003849
 226	1.1250e-01	9.0543	15.645740	0.000239	2.386318	0.808507	0.019243
 227	1.1300e-01	9.0912	15.708601	0.000156	1.559061	0.528224	0.012572
 228	1.1350e-01	9.1345	15.753929	0.000112	1.124221	0.380896	0.009066
 229	1.1400e-01	9.1489	15.818500	0.000160	1.601485	0.542598	0.012914
 230	1.1450e-01	9.2083	15.890341	0.000178	1.781784	0.603685	0.014368
 231	1.1500e-01	9.2356	15.962182	0.000178	1.781784	0.603685	0.014368
 232	1.1550e-01	9.2677	16.069089	0.000265	2.651465	0.898341	0.021381
 233	1.1600e-01	9.3158	16.105009	0.000089	0.890892	0.301842	0.007184
 234	1.1650e-01	9.3607	16.189251	0.000209	2.089354	0.707892	0.016848
 235	1.1700e-01	9.3832	16.257244	0.000169	1.686332	0.571345	0.013598
 236	1.1750e-01	9.4393	16.328657	0.000177	1.771179	0.600092	0.014283
 237	1.1800e-01	9.4634	16.377407	0.000121	1.209068	0.409643	0.009750
 238	1.1850e-01	9.5163	16.472339	0.000235	2.354501	0.797727	0.018987
 239	1.1900e-01	9.5484	16.540332	0.000169	1.686332	0.571345	0.013598
 240	1.1950e-01	9.5901	16.590364	0.000124	1.240886	0.420423	0.010006
 241	1.2000e-01	9.6366	16.692994	0.000255	2.545406	0.862407	0.020526
 242	1.2050e-01	9.6639	16.739605	0.000116	1.156039	0.391677	0.009322
 243	1.2100e-01	9.7184	16.808025	0.000170	1.696938	0.574938	0.013684
 244	1.2150e-01	9.7361	16.892267	0.000209	2.089354	0.707892	0.016848
 245	1.2200e-01	9.7730	16.941872	0.000123	1.230280	0.416830	0.009921
 246	1.2250e-01	9.8372	16.994042	0.000129	1.293915	0.438390	0.010434
 247	1.2300e-01	9.8789	17.097955	0.000258	2.577224	0.873187	0.020783
 248	1.2350e-01	9.9158	17.120192	0.000055	0.551505	0.186855	0.004447
 249	1.2400e-01	9.9334	17.224960	0.000260	2.598436	0.880374	0.020954
 250	1.2450e-01	10.0056	17.231374	0.000016	0.159088	0.053900	0.001283
 251	1.2500e-01	10.0281	17.339136	0.000267	2.672677	0.905527	0.021552
 252	1.2550e-01	10.0778	17.387457	0.000120	1.198462	0.406050	0.009664
 253	1.2600e-01	10.1099	17.470417	0.000206	2.057537	0.697112	0.016592
 254	1.2650e-01	10.1596	17.527719	0.000142	1.421185	0.481511	0.011460
 255	1.2700e-01	10.2045	17.584165	0.000140	1.399974	0.474324	0.011289
 256	1.2750e-01	10.2462	17.656434	0.000179	1.792390	0.607278	0.014454
 257	1.2800e-01	10.2687	17.756926	0.000249	2.492377	0.844440	0.020098
 258	1.2850e-01	10.2976	17.814228	0.000142	1.421185	0.481511	0.011460
 259	1.2900e-01	10.3441	17.913009	0.000245	2.449954	0.830067	0.019756
 260	1.2950e-01	10.4067	17.940377	0.000068	0.678775	0.229975	0.005474
 261	1.3000e-01	10.4676	17.978008	0.000093	0.933316	0.316216	0.007526
 262	1.3050e-01	10.4853	18.056263	0.000194	1.940872	0.657585	0.015651
 263	1.3100e-01	10.5222	18.158893	0.000255	2.545406	0.862407	0.020526
 264	1.3150e-01	10.5462	18.193959	0.000087	0.869681	0.294656	0.007013
 265	1.3200e-01	10.5879	18.289747	0.000238	2.375713	0.804913	0.019158
 266	1.3250e-01	10.6152	18.350470	0.000151	1.506032	0.510257	0.012145
 267	1.3300e-01	10.6762	18.416752	0.000164	1.643908	0.556971	0.013256
 268	1.3350e-01	10.7259	18.445830	0.000072	0.721198	0.244349	0.005816
 269	1.3400e-01	10.7484	18.540763	0.000235	2.354501	0.797727	0.018987
 270	1.3450e-01	10.7804	18.595927	0.000137	1.368156	0.463544	0.011033
 271	1.3500e-01	10.8639	18.651518	0.000138	1.378762	0.467137	0.011118
 272	1.3550e-01	10.8751	18.694708	0.000107	1.071192	0.362930	0.008638
 273	1.3600e-01	10.9120	18.771253	0.000190	1.898449	0.643212	0.015309
 274	1.3650e-01	10.9505	18.877304	0.000263	2.630253	0.891154	0.021210
 275	1.3700e-01	10.9938	18.919211	0.000104	1.039374	0.352150	0.008381
 276	1.3750e-01	11.0371	18.958980	0.000099	0.986345	0.334183	0.007954
 277	1.3800e-01	11.0756	19.004309	0.000112	1.124221	0.380896	0.009066
 278	1.3850e-01	11.1061	19.105656	0.000251	2.513589	0.851627	0.020269
 279	1.3900e-01	11.1655	19.171938	0.000164	1.643908	0.556971	0.013256
 280	1.3950e-01	11.1879	19.240785	0.000171	1.707543	0.578531	0.013770
 281	1.4000e-01	11.2537	19.310061	0.000172	1.718149	0.582125	0.013855
 282	1.4050e-01	11.2713	19.376343	0.000164	1.643908	0.556971	0.013256
 283	1.4100e-01	11.3082	19.432362	0.000139	1.389368	0.470731	0.011204
 284	1.4150e-01	11.3371	19.536274	0.000258	2.577224	0.873187	0.020783
 285	1.4200e-01	11.3933	19.592293	0.000139	1.389368	0.470731	0.011204
 286	1.4250e-01	11.4462	19.663279	0.000176	1.760573	0.596498	0.014197
 287	1.4300e-01	11.4751	19.716305	0.000132	1.315127	0.445577	0.010605
 288	1.4350e-01	11.5168	19.772324	0.000139	1.389368	0.470731	0.011204
 289	1.4400e-01	11.5681	19.822356	0.000124	1.240886	0.420423	0.010006
 290	1.4450e-01	11.5922	19.876664	0.000135	1.346944	0.456357	0.010862
 291	1.4500e-01	11.6387	19.967748	0.000226	2.259048	0.765386	0.018217
 292	1.4550e-01	11.6836	20.017353	0.000123	1.230280	0.416830	0.009921
 293	1.4600e-01	11.7205	20.070806	0.000133	1.325732	0.449170	0.010691
 294	1.4650e-01	11.7494	20.149917	0.000196	1.962084	0.664772	0.015822
 295	1.4700e-01	11.7943	20.189258	0.000098	0.975739	0.330589	0.007868
 296	1.4750e-01	11.8312	20.281625	0.000229	2.290866	0.776166	0.018473
 297	1.4800e-01	11.8826	20.306000	0.000060	0.604534	0.204822	0.004875
 298	1.4850e-01	11.9259	20.376986	0.000176	1.760573	0.596498	0.014197
 299	1.4900e-01	11.9563	20.412479	0.000088	0.880286	0.298249	0.007099
 300	1.4950e-01	12.0077	20.494583	0.000204	2.036325	0.689926	0.016421
 301	1.5000e-01	12.0526	20.555306	0.000151	1.506032	0.510257	0.012145
 302	1.5050e-01	12.0847	20.603200	0.000119	1.187856	0.402457	0.009579
 303	1.5100e-01	12.1184	20.725928	0.000304	3.043882	1.031295	0.024546
 304	1.5150e-01	12.1505	20.748592	0.000056	0.562111	0.190448	0.004533
 305	1.5200e-01	12.1825	20.836683	0.000218	2.184807	0.740233	0.017618
 306	1.5250e-01	12.2162	20.880728	0.000109	1.092404	0.370116	0.008809
 307	1.5300e-01	12.2628	21.000891	0.000298	2.980247	1.009735	0.024033
 308	1.5350e-01	12.3109	21.015003	0.000035	0.349993	0.118581	0.002822
 309	1.5400e-01	12.3478	21.048785	0.000084	0.837863	0.283876	0.006756
 310	1.5450e-01	12.4103	21.145428	0.000240	2.396924	0.812100	0.019329
 311	1.5500e-01	12.4408	21.217697	0.000179	1.792390	0.607278	0.014454
 312	1.5550e-01	12.4890	21.255756	0.000094	0.943922	0.319809	0.007612
 313	1.5600e-01	12.5210	21.330163	0.000185	1.845420	0.625245	0.014881
 314	1.5650e-01	12.5563	21.378912	0.000121	1.209068	0.409643	0.009750
 315	1.5700e-01	12.5820	21.447759	0.000171	1.707543	0.578531	0.013770
 316	1.5750e-01	12.6381	21.537561	0.000223	2.227231	0.754606	0.017960
 317	1.5800e-01	12.6718	21.605981	0.000170	1.696938	0.574938	0.013684
 318	1.5850e-01	12.7119	21.664565	0.000145	1.453003	0.492291	0.011717
 319	1.5900e-01	12.7617	21.671835	0.000018	0.180300	0.061087	0.001454
 320	1.5950e-01	12.7873	21.759071	0.000216	2.163595	0.733046	0.017447
 321	1.6000e-01	12.8387	21.770189	0.000028	0.275752	0.093427	0.002224
 322	1.6050e-01	12.8676	21.896766	0.000314	3.139335	1.063635	0.025315
 323	1.6100e-01	12.9157	21.921996	0.000063	0.625746	0.212008	0.005046
 324	1.6150e-01	12.9109	22.080645	-0.000393	-3.934774	-1.333138	0.031730
 325	1.6200e-01	12.9879	22.104592	0.000059	0.593928	0.201228	0.004789
 326	1.6250e-01	13.0376	22.108013	0.000008	0.084847	0.028747	0.000684
 327	1.6300e-01	13.0713	22.179426	0.000177	1.771179	0.600092	0.014283
 328	1.6350e-01	13.1162	22.252978	0.000182	1.824208	0.618058	0.014710
 329	1.6400e-01	13.1547	22.278208	0.000063	0.625746	0.212008	0.005046
 330	1.6450e-01	13.1868	22.354325	0.000189	1.887843	0.639619	0.015223
 331	1.6500e-01	13.2349	22.415903	0.000153	1.527244	0.517444	0.012316
 332	1.6550e-01	13.2750	22.487744	0.000178	1.781784	0.603685	0.014368
 333	1.6600e-01	13.3055	22.530079	0.000105	1.049980	0.355743	0.008467
 334	1.6650e-01	13.3552	22.574124	0.000109	1.092404	0.370116	0.008809
 335	1.6700e-01	13.3857	22.649386	0.000187	1.866631	0.632432	0.015052
 336	1.6750e-01	13.4050	22.716951	0.000168	1.675726	0.567751	0.013513
 337	1.6800e-01	13.4563	22.772115	0.000137	1.368156	0.463544	0.011033
 338	1.6850e-01	13.5365	22.816588	0.000110	1.103009	0.373710	0.008895
 339	1.6900e-01	13.5494	22.888429	0.000178	1.781784	0.603685	0.014368
 340	1.6950e-01	13.5895	22.917080	0.000071	0.710593	0.240755	0.005730
 341	1.7000e-01	13.6376	23.017144	0.000248	2.481771	0.840847	0.020013
 342	1.7050e-01	13.6809	23.091979	0.000186	1.856025	0.628838	0.014967
 343	1.7100e-01	13.7306	23.091979	0.000000	0.000000	0.000000	0.000000
 344	1.7150e-01	13.7643	23.178359	0.000214	2.142384	0.725859	0.017276
 345	1.7200e-01	13.7980	23.233950	0.000138	1.378762	0.467137	0.011118
 346	1.7250e-01	13.8413	23.296384	0.000155	1.548456	0.524631	0.012487
 347	1.7300e-01	13.8606	23.351975	0.000138	1.378762	0.467137	0.011118
 348	1.7350e-01	13.9151	23.419540	0.000168	1.675726	0.567751	0.013513
 349	1.7400e-01	13.9632	23.461447	0.000104	1.039374	0.352150	0.008381
 350	1.7450e-01	13.9905	23.538847	0.000192	1.919661	0.650399	0.015480
 351	1.7500e-01	14.0418	23.619241	0.000199	1.993902	0.675552	0.016079
 352	1.7550e-01	14.0852	23.630786	0.000029	0.286358	0.097021	0.002309
 353	1.7600e-01	14.0980	23.690654	0.000148	1.484820	0.503071	0.011974
 354	1.7650e-01	14.1381	23.771048	0.000199	1.993902	0.675552	0.016079
 355	1.7700e-01	14.1975	23.830915	0.000148	1.484820	0.503071	0.011974
 356	1.7750e-01	14.2295	23.877099	0.000115	1.145433	0.388083	0.009237
 357	1.7800e-01	14.2616	23.967755	0.000225	2.248442	0.761793	0.018131
 358	1.7850e-01	14.3146	24.013511	0.000113	1.134827	0.384490	0.009151
 359	1.7900e-01	14.3515	24.086635	0.000181	1.813602	0.614465	0.014625
 360	1.7950e-01	14.3868	24.138805	0.000129	1.293915	0.438390	0.010434
 361	1.8000e-01	14.4253	24.196107	0.000142	1.421185	0.481511	0.011460
 362	1.8050e-01	14.4734	24.204232	0.000020	0.201511	0.068274	0.001625
 363	1.8100e-01	14.5071	24.304296	0.000248	2.481771	0.840847	0.020013
 364	1.8150e-01	14.5424	24.349197	0.000111	1.113615	0.377303	0.008980
 365	1.8200e-01	14.5745	24.438998	0.000223	2.227231	0.754606	0.017960
 366	1.8250e-01	14.6338	24.500576	0.000153	1.527244	0.517444	0.012316
 367	1.8300e-01	14.6723	24.512550	0.000030	0.296964	0.100614	0.002395
 368	1.8350e-01	14.7285	24.572417	0.000148	1.484820	0.503071	0.011974
 369	1.8400e-01	14.7573	24.615180	0.000106	1.060586	0.359336	0.008553
 370	1.8450e-01	14.7814	24.697284	0.000204	2.036325	0.689926	0.016421
 371	1.8500e-01	14.8359	24.746888	0.000123	1.230280	0.416830	0.009921
 372	1.8550e-01	14.8825	24.785802	0.000097	0.965133	0.326996	0.007783
 373	1.8600e-01	14.9210	24.845670	0.000148	1.484820	0.503071	0.011974
 374	1.8650e-01	14.9579	24.915800	0.000174	1.739361	0.589311	0.014026
 375	1.8700e-01	15.0076	24.988924	0.000181	1.813602	0.614465	0.014625
 376	1.8750e-01	15.0349	25.023134	0.000085	0.848469	0.287469	0.006842
 377	1.8800e-01	15.0750	25.097969	0.000186	1.856025	0.628838	0.014967
 378	1.8850e-01	15.1151	25.163395	0.000162	1.622697	0.549784	0.013085
 379	1.8900e-01	15.1712	25.227112	0.000158	1.580273	0.535411	0.012743
 380	1.8950e-01	15.2033	25.269447	0.000105	1.049980	0.355743	0.008467
 381	1.9000e-01	15.2386	25.312209	0.000106	1.060586	0.359336	0.008553
 382	1.9050e-01	15.2787	25.409280	0.000241	2.407530	0.815693	0.019414
 383	1.9100e-01	15.3268	25.416122	0.000017	0.169694	0.057494	0.001368
 384	1.9150e-01	15.3541	25.487963	0.000178	1.781784	0.603685	0.014368
 385	1.9200e-01	15.4054	25.563653	0.000188	1.877237	0.636025	0.015138
 386	1.9250e-01	15.4231	25.575199	0.000029	0.286358	0.097021	0.002309
 387	1.9300e-01	15.4728	25.647895	0.000180	1.802996	0.610872	0.014539
 388	1.9350e-01	15.5001	25.742828	0.000235	2.354501	0.797727	0.018987
 389	1.9400e-01	15.5466	25.778321	0.000088	0.880286	0.298249	0.007099
 390	1.9450e-01	15.5819	25.837333	0.000146	1.463609	0.495884	0.011802
 391	1.9500e-01	15.6349	25.907463	0.000174	1.739361	0.589311	0.014026
 392	1.9550e-01	15.6718	25.919437	0.000030	0.296964	0.100614	0.002395
 393	1.9600e-01	15.6990	26.013087	0.000232	2.322683	0.786946	0.018730
 394	1.9650e-01	15.7455	26.031902	0.000047	0.466658	0.158108	0.003763
 395	1.9700e-01	15.7873	26.087921	0.000139	1.389368	0.470731	0.011204
 396	1.9750e-01	15.8402	26.184137	0.000239	2.386318	0.808507	0.019243
 397	1.9800e-01	15.8803	26.252985	0.000171	1.707543	0.578531	0.013770
 398	1.9850e-01	15.9316	26.282063	0.000072	0.721198	0.244349	0.005816
 399	1.9900e-01	15.9573	26.306438	0.000060	0.604534	0.204822	0.004875
 400	1.9950e-01	16.0006	26.393246	0.000215	2.152990	0.729453	0.017362
 401	2.0000e-01	16.0263	26.427883	0.000086	0.859075	0.291062	0.006928
 402	2.0050e-01	16.0696	26.501435	0.000182	1.824208	0.618058	0.014710
 403	2.0100e-01	16.1306	26.548474	0.000117	1.166645	0.395270	0.009408
 404	2.0150e-01	16.1402	26.654097	0.000262	2.619647	0.887561	0.021125
 405	2.0200e-01	16.1723	26.713965	0.000148	1.484820	0.503071	0.011974
 406	2.0250e-01	16.2284	26.740477	0.000066	0.657563	0.222788	0.005303
 407	2.0300e-01	16.2605	26.786233	0.000113	1.134827	0.384490	0.009151
 408	2.0350e-01	16.3054	26.859357	0.000181	1.813602	0.614465	0.014625
 409	2.0400e-01	16.3648	26.883304	0.000059	0.593928	0.201228	0.004789
 410	2.0450e-01	16.3937	26.926494	0.000107	1.071192	0.362930	0.008638
 411	2.0500e-01	16.4273	26.996197	0.000173	1.728755	0.585718	0.013941
 412	2.0550e-01	16.4771	27.041098	0.000111	1.113615	0.377303	0.008980
 413	2.0600e-01	16.5284	27.056493	0.000038	0.381811	0.129361	0.003079
 414	2.0650e-01	16.5412	27.161688	0.000261	2.609042	0.883967	0.021039
 415	2.0700e-01	16.6070	27.226687	0.000161	1.612091	0.546191	0.013000
 416	2.0750e-01	16.6359	27.263036	0.000090	0.901498	0.305436	0.007270
 417	2.0800e-01	16.6696	27.335732	0.000180	1.802996	0.610872	0.014539
 418	2.0850e-01	16.7081	27.371652	0.000089	0.890892	0.301842	0.007184
 419	2.0900e-01	16.7626	27.455895	0.000209	2.089354	0.707892	0.016848
 420	2.0950e-01	16.7867	27.493526	0.000093	0.933316	0.316216	0.007526
 421	2.1000e-01	16.8477	27.515762	0.000055	0.551505	0.186855	0.004447
 422	2.1050e-01	16.8846	27.577340	0.000153	1.527244	0.517444	0.012316
 423	2.1100e-01	16.8942	27.634642	0.000142	1.421185	0.481511	0.011460
 424	2.1150e-01	16.9471	27.745825	0.000276	2.757524	0.934274	0.022237
 425	2.1200e-01	16.9920	27.753522	0.000019	0.190905	0.064681	0.001539
 426	2.1250e-01	17.0289	27.826646	0.000181	1.813602	0.614465	0.014625
 427	2.1300e-01	17.0546	27.894638	0.000169	1.686332	0.571345	0.013598
 428	2.1350e-01	17.1172	27.920723	0.000065	0.646957	0.219195	0.005217
 429	2.1400e-01	17.1396	27.972038	0.000127	1.272703	0.431204	0.010263
 430	2.1450e-01	17.1829	28.049011	0.000191	1.909055	0.646805	0.015395
 431	2.1500e-01	17.2118	28.093484	0.000110	1.103009	0.373710	0.008895
 432	2.1550e-01	17.2776	28.159338	0.000163	1.633302	0.553378	0.013171
 433	2.1600e-01	17.3289	28.157628	-0.000004	-0.042423	-0.014373	-0.000342
 434	2.1650e-01	17.3337	28.237594	0.000198	1.983296	0.671959	0.015993
 435	2.1700e-01	17.3931	28.269238	0.000078	0.784834	0.265909	0.006329
 436	2.1750e-01	17.4284	28.379138	0.000273	2.725706	0.923494	0.021980
 437	2.1800e-01	17.4958	28.402657	0.000058	0.583322	0.197635	0.004704
 438	2.1850e-01	17.5166	28.470649	0.000169	1.686332	0.571345	0.013598
 439	2.1900e-01	17.5744	28.506570	0.000089	0.890892	0.301842	0.007184
 440	2.1950e-01	17.6129	28.550188	0.000108	1.081798	0.366523	0.008724
 441	2.2000e-01	17.6401	28.609200	0.000146	1.463609	0.495884	0.011802
 442	2.2050e-01	17.6626	28.704133	0.000235	2.354501	0.797727	0.018987
 443	2.2100e-01	17.6995	28.775546	0.000177	1.771179	0.600092	0.014283
 444	2.2150e-01	17.7476	28.773836	-0.000004	-0.042423	-0.014373	-0.000342
 445	2.2200e-01	17.7749	28.876038	0.000253	2.534801	0.858814	0.020440
 446	2.2250e-01	17.8375	28.900840	0.000062	0.615140	0.208415	0.004960
 447	2.2300e-01	17.8663	28.909393	0.000021	0.212117	0.071867	0.001711
 448	2.2350e-01	17.9161	28.999194	0.000223	2.227231	0.754606	0.017960
 449	2.2400e-01	17.9449	29.046233	0.000117	1.166645	0.395270	0.009408
 450	2.2450e-01	17.9979	29.083436	0.000092	0.922710	0.312623	0.007441
 451	2.2500e-01	18.0268	29.142021	0.000145	1.453003	0.492291	0.011717
 452	2.2550e-01	18.0733	29.206165	0.000159	1.590879	0.539004	0.012829
 453	2.2600e-01	18.1310	29.261328	0.000137	1.368156	0.463544	0.011033
 454	2.2650e-01	18.1359	29.297677	0.000090	0.901498	0.305436	0.007270
 455	2.2700e-01	18.2000	29.381064	0.000207	2.068143	0.700706	0.016677
 456	2.2750e-01	18.2289	29.396886	0.000039	0.392417	0.132954	0.003164
 457	2.2800e-01	18.2706	29.443924	0.000117	1.166645	0.395270	0.009408
 458	2.2850e-01	18.3171	29.519614	0.000188	1.877237	0.636025	0.015138
 459	2.2900e-01	18.3653	29.557245	0.000093	0.933316	0.316216	0.007526
 460	2.2950e-01	18.3877	29.643198	0.000213	2.131778	0.722266	0.017191
 461	2.3000e-01	18.4214	29.684678	0.000103	1.028768	0.348556	0.008296
 462	2.3050e-01	18.4663	29.723164	0.000095	0.954527	0.323403	0.007697
 463	2.3100e-01	18.5048	29.793722	0.000175	1.749967	0.592905	0.014112
 464	2.3150e-01	18.5401	29.839905	0.000115	1.145433	0.388083	0.009237
 465	2.3200e-01	18.6043	29.863852	0.000059	0.593928	0.201228	0.004789
 466	2.3250e-01	18.6364	29.933555	0.000173	1.728755	0.585718	0.013941
 467	2.3300e-01	18.6652	29.985726	0.000129	1.293915	0.438390	0.010434
 468	2.3350e-01	18.6989	30.052863	0.000167	1.665120	0.564158	0.013427
 469	2.3400e-01	18.7791	30.062698	0.000024	0.243935	0.082647	0.001967
 470	2.3450e-01	18.8000	30.129835	0.000167	1.665120	0.564158	0.013427
 471	2.3500e-01	18.8225	30.193552	0.000158	1.580273	0.535411	0.012743
 472	2.3550e-01	18.8818	30.225623	0.000080	0.795439	0.269502	0.006414
 473	2.3600e-01	18.9059	30.281642	0.000139	1.389368	0.470731	0.011204
 474	2.3650e-01	18.9733	30.327398	0.000113	1.134827	0.384490	0.009151
 475	2.3700e-01	18.9925	30.356049	0.000071	0.710593	0.240755	0.005730
 476	2.3750e-01	19.0198	30.428318	0.000179	1.792390	0.607278	0.014454
 477	2.3800e-01	19.0872	30.495455	0.000167	1.665120	0.564158	0.013427
 478	2.3850e-01	19.1241	30.557033	0.000153	1.527244	0.517444	0.012316
 479	2.3900e-01	19.1561	30.583546	0.000066	0.657563	0.222788	0.005303
 480	2.3950e-01	19.1722	30.628019	0.000110	1.103009	0.373710	0.008895
 481	2.4000e-01	19.2187	30.720386	0.000229	2.290866	0.776166	0.018473
 482	2.4050e-01	19.2925	30.723379	0.000007	0.074241	0.025154	0.000599
 483	2.4100e-01	19.3262	30.814463	0.000226	2.259048	0.765386	0.018217
 484	2.4150e-01	19.3406	30.838410	0.000059	0.593928	0.201228	0.004789
 485	2.4200e-01	19.3872	30.875614	0.000092	0.922710	0.312623	0.007441
 486	2.4250e-01	19.4016	30.987652	0.000278	2.778735	0.941461	0.022408
 487	2.4300e-01	19.4449	30.986369	-0.000003	-0.031818	-0.010780	-0.000257
 488	2.4350e-01	19.4962	31.043243	0.000141	1.410579	0.477917	0.011375
 489	2.4400e-01	19.5444	31.096696	0.000133	1.325732	0.449170	0.010691
 490	2.4450e-01	19.5716	31.174952	0.000194	1.940872	0.657585	0.015651
 491	2.4500e-01	19.6246	31.212155	0.000092	0.922710	0.312623	0.007441
 492	2.4550e-01	19.6679	31.244655	0.000081	0.806045	0.273096	0.006500
 493	2.4600e-01	19.7160	31.278865	0.000085	0.848469	0.287469	0.006842
 494	2.4650e-01	19.7369	31.349850	0.000176	1.760573	0.596498	0.014197
 495	2.4700e-01	19.7850	31.373797	0.000059	0.593928	0.201228	0.004789
 496	2.4750e-01	19.8444	31.455474	0.000203	2.025719	0.686332	0.016335
 497	2.4800e-01	19.8684	31.478993	0.000058	0.583322	0.197635	0.004704
 498	2.4850e-01	19.9133	31.520045	0.000102	1.018163	0.344963	0.008210
 499	2.4900e-01	19.9518	31.591031	0.000176	1.760573	0.596498	0.014197
 500	2.4950e-01	19.9919	31.656030	0.000161	1.612091	0.546191	0.013000
 501	2.5000e-01	20.0224	31.682115	0.000065	0.646957	0.219195	0.005217
 502	2.5050e-01	19.9936	31.602149	0.000198	1.983296	0.671959	-0.015993
 503	2.5100e-01	19.9470	31.599583	0.000006	0.063635	0.021560	-0.000513
 504	2.5150e-01	19.9069	31.568794	0.000076	0.763622	0.258722	-0.006158
 505	2.5200e-01	19.8700	31.505934	0.000156	1.559061	0.528224	-0.012572
 506	2.5250e-01	19.8187	31.477283	0.000071	0.710593	0.240755	-0.005730
 507	2.5300e-01	19.7914	31.417415	0.000148	1.484820	0.503071	-0.011974
 508	2.5350e-01	19.7449	31.396889	0.000051	0.509081	0.172481	-0.004105
 509	2.5400e-01	19.7224	31.348567	0.000120	1.198462	0.406050	-0.009664
 510	2.5450e-01	19.6535	31.330180	0.000046	0.456052	0.154515	-0.003678
 511	2.5500e-01	19.6374	31.288272	0.000104	1.039374	0.352150	-0.008381
 512	2.5550e-01	19.5797	31.243799	0.000110	1.103009	0.373710	-0.008895
 513	2.5600e-01	19.5347	31.216859	0.000067	0.668169	0.226382	-0.005388
 514	2.5650e-01	19.5059	31.163833	0.000132	1.315127	0.445577	-0.010605
 515	2.5700e-01	19.4706	31.106959	0.000141	1.410579	0.477917	-0.011375
 516	2.5750e-01	19.4128	31.038539	0.000170	1.696938	0.574938	-0.013684
 517	2.5800e-01	19.4016	30.972685	0.000163	1.633302	0.553378	-0.013171
 518	2.5850e-01	19.3198	30.981237	-0.000021	-0.212117	-0.071867	0.001711
 519	2.5900e-01	19.3182	30.976961	0.000011	0.106059	0.035934	-0.000855
 520	2.5950e-01	19.2524	30.893574	0.000207	2.068143	0.700706	-0.016677
 521	2.6000e-01	19.2251	30.841404	0.000129	1.293915	0.438390	-0.010434
 522	2.6050e-01	19.1834	30.756734	0.000210	2.099960	0.711486	-0.016934
 523	2.6100e-01	19.1305	30.762721	-0.000015	-0.148482	-0.050307	0.001197
 524	2.6150e-01	19.0968	30.741340	0.000053	0.530293	0.179668	-0.004276
 525	2.6200e-01	19.0663	30.691735	0.000123	1.230280	0.416830	-0.009921
 526	2.6250e-01	19.0086	30.671637	0.000050	0.498475	0.168888	-0.004020
 527	2.6300e-01	18.9765	30.598513	0.000181	1.813602	0.614465	-0.014625
 528	2.6350e-01	18.9588	30.533941	0.000160	1.601485	0.542598	-0.012914
 529	2.6400e-01	18.9091	30.506573	0.000068	0.678775	0.229975	-0.005474
 530	2.6450e-01	18.8642	30.463383	0.000107	1.071192	0.362930	-0.008638
 531	2.6500e-01	18.8064	30.406081	0.000142	1.421185	0.481511	-0.011460
 532	2.6550e-01	18.7856	30.367167	0.000097	0.965133	0.326996	-0.007783
 533	2.6600e-01	18.7423	30.294471	0.000180	1.802996	0.610872	-0.014539
 534	2.6650e-01	18.7005	30.265393	0.000072	0.721198	0.244349	-0.005816
 535	2.6700e-01	18.6669	30.236742	0.000071	0.710593	0.240755	-0.005730
 536	2.6750e-01	18.6251	30.159342	0.000192	1.919661	0.650399	-0.015480
 537	2.6800e-01	18.5882	30.161907	-0.000006	-0.063635	-0.021560	0.000513
 538	2.6850e-01	18.5465	30.097336	0.000160	1.601485	0.542598	-0.012914
 539	2.6900e-01	18.4856	30.044738	0.000130	1.304521	0.441984	-0.010520
 540	2.6950e-01	18.4679	30.032337	0.000031	0.307570	0.104208	-0.002480
 541	2.7000e-01	18.4166	29.957075	0.000187	1.866631	0.632432	-0.015052
 542	2.7050e-01	18.3813	29.919871	0.000092	0.922710	0.312623	-0.007441
 543	2.7100e-01	18.3444	29.911747	0.000020	0.201511	0.068274	-0.001625
 544	2.7150e-01	18.3043	29.824511	0.000216	2.163595	0.733046	-0.017447
 545	2.7200e-01	18.2562	29.779183	0.000112	1.124221	0.380896	-0.009066
 546	2.7250e-01	18.2257	29.750532	0.000071	0.710593	0.240755	-0.005730
 547	2.7300e-01	18.1888	29.698789	0.000128	1.283309	0.434797	-0.010349
 548	2.7350e-01	18.1278	29.698789	-0.000000	-0.000000	-0.000000	0.000000
 549	2.7400e-01	18.0893	29.617968	0.000200	2.004508	0.679146	-0.016164
 550	2.7450e-01	18.0637	29.561521	0.000140	1.399974	0.474324	-0.011289
 551	2.7500e-01	18.0284	29.505503	0.000139	1.389368	0.470731	-0.011204
 552	2.7550e-01	17.9754	29.420833	0.000210	2.099960	0.711486	-0.016934
 553	2.7600e-01	17.9289	29.428530	-0.000019	-0.190905	-0.064681	0.001539
 554	2.7650e-01	17.9113	29.360110	0.000170	1.696938	0.574938	-0.013684
 555	2.7700e-01	17.8583	29.310078	0.000124	1.240886	0.420423	-0.010006
 556	2.7750e-01	17.7958	29.275440	0.000086	0.859075	0.291062	-0.006928
 557	2.7800e-01	17.7749	29.236099	0.000098	0.975739	0.330589	-0.007868
 558	2.7850e-01	17.7653	29.157843	0.000194	1.940872	0.657585	-0.015651
 559	2.7900e-01	17.7123	29.159981	-0.000005	-0.053029	-0.017967	0.000428
 560	2.7950e-01	17.6899	29.050509	0.000272	2.715100	0.919901	-0.021894
 561	2.8000e-01	17.6097	29.097120	-0.000116	-1.156039	-0.391677	0.009322
 562	2.8050e-01	17.5760	29.018865	0.000194	1.940872	0.657585	-0.015651
 563	2.8100e-01	17.5391	28.964557	0.000135	1.346944	0.456357	-0.010862
 564	2.8150e-01	17.5022	28.888012	0.000190	1.898449	0.643212	-0.015309
 565	2.8200e-01	17.4492	28.834558	0.000133	1.325732	0.449170	-0.010691
 566	2.8250e-01	17.4011	28.815743	0.000047	0.466658	0.158108	-0.003763
 567	2.8300e-01	17.3562	28.785809	0.000074	0.742410	0.251535	-0.005987
 568	2.8350e-01	17.3498	28.681041	0.000260	2.598436	0.880374	-0.020954
 569	2.8400e-01	17.2760	28.664791	0.000040	0.403023	0.136548	-0.003250
 570	2.8450e-01	17.2487	28.661798	0.000007	0.074241	0.025154	-0.000599
 571	2.8500e-01	17.2230	28.586536	0.000187	1.866631	0.632432	-0.015052
 572	2.8550e-01	17.1894	28.543346	0.000107	1.071192	0.362930	-0.008638
 573	2.8600e-01	17.1348	28.476208	0.000167	1.665120	0.564158	-0.013427
 574	2.8650e-01	17.0931	28.447985	0.000070	0.699987	0.237162	-0.005645
 575	2.8700e-01	17.0626	28.386835	0.000152	1.516638	0.513851	-0.012230
 576	2.8750e-01	17.0225	28.362033	0.000062	0.615140	0.208415	-0.004960
 577	2.8800e-01	16.9808	28.279928	0.000204	2.036325	0.689926	-0.016421
 578	2.8850e-01	16.9407	28.232462	0.000118	1.177250	0.398863	-0.009493
 579	2.8900e-01	16.8829	28.231607	0.000002	0.021212	0.007187	-0.000171
 580	2.8950e-01	16.8541	28.154207	0.000192	1.919661	0.650399	-0.015480
 581	2.9000e-01	16.7979	28.122135	0.000080	0.795439	0.269502	-0.006414
 582	2.9050e-01	16.7642	28.069537	0.000130	1.304521	0.441984	-0.010520
 583	2.9100e-01	16.7418	27.999834	0.000173	1.728755	0.585718	-0.013941
 584	2.9150e-01	16.7097	27.954933	0.000111	1.113615	0.377303	-0.008980
 585	2.9200e-01	16.6776	27.897631	0.000142	1.421185	0.481511	-0.011460
 586	2.9250e-01	16.6118	27.833915	0.000158	1.580273	0.535411	-0.012743
 587	2.9300e-01	16.5445	27.811251	0.000056	0.562111	0.190448	-0.004533
 588	2.9350e-01	16.5412	27.747535	0.000158	1.580273	0.535411	-0.012743
 589	2.9400e-01	16.5172	27.681681	0.000163	1.633302	0.553378	-0.013171
 590	2.9450e-01	16.4803	27.615826	0.000163	1.633302	0.553378	-0.013171
 591	2.9500e-01	16.4402	27.568788	0.000117	1.166645	0.395270	-0.009408
 592	2.9550e-01	16.3808	27.549972	0.000047	0.466658	0.158108	-0.003763
 593	2.9600e-01	16.3327	27.530301	0.000049	0.487870	0.165295	-0.003934
 594	2.9650e-01	16.3006	27.487966	0.000105	1.049980	0.355743	-0.008467
 595	2.9700e-01	16.2685	27.410566	0.000192	1.919661	0.650399	-0.015480
 596	2.9750e-01	16.2076	27.389185	0.000053	0.530293	0.179668	-0.004276
 597	2.9800e-01	16.1659	27.351554	0.000093	0.933316	0.316216	-0.007526
 598	2.9850e-01	16.1514	27.243365	0.000268	2.683283	0.909121	-0.021638
 599	2.9900e-01	16.1001	27.232247	0.000028	0.275752	0.093427	-0.002224
 600	2.9950e-01	16.0568	27.186918	0.000112	1.124221	0.380896	-0.009066
 601	3.0000e-01	16.0167	27.156557	0.000075	0.753016	0.255129	-0.006072
 602	3.0050e-01	15.9910	27.047085	0.000272	2.715100	0.919901	-0.021894
 603	3.0100e-01	15.9782	26.982513	0.000160	1.601485	0.542598	-0.012914
 604	3.0150e-01	15.9204	26.953007	0.000073	0.731804	0.247942	-0.005901
 605	3.0200e-01	15.8562	26.951724	0.000003	0.031818	0.010780	-0.000257
 606	3.0250e-01	15.8370	26.867055	0.000210	2.099960	0.711486	-0.016934
 607	3.0300e-01	15.7857	26.839259	0.000069	0.689381	0.233569	-0.005559
 608	3.0350e-01	15.7311	26.770839	0.000170	1.696938	0.574938	-0.013684
 609	3.0400e-01	15.6958	26.714820	0.000139	1.389368	0.470731	-0.011204
 610	3.0450e-01	15.6349	26.682748	0.000080	0.795439	0.269502	-0.006414
 611	3.0500e-01	15.6108	26.628012	0.000136	1.357550	0.459950	-0.010947
 612	3.0550e-01	15.5723	26.598934	0.000072	0.721198	0.244349	-0.005816
 613	3.0600e-01	15.5242	26.560447	0.000095	0.954527	0.323403	-0.007697
 614	3.0650e-01	15.4841	26.460383	0.000248	2.481771	0.840847	-0.020013
 615	3.0700e-01	15.4712	26.420614	0.000099	0.986345	0.334183	-0.007954
 616	3.0750e-01	15.4311	26.362884	0.000143	1.431791	0.485104	-0.011546
 617	3.0800e-01	15.3653	26.329102	0.000084	0.837863	0.283876	-0.006756
 618	3.0850e-01	15.3429	26.267096	0.000154	1.537850	0.521038	-0.012401
 619	3.0900e-01	15.2915	26.221768	0.000112	1.124221	0.380896	-0.009066
 620	3.0950e-01	15.2659	26.153776	0.000169	1.686332	0.571345	-0.013598
 621	3.1000e-01	15.1969	26.138381	0.000038	0.381811	0.129361	-0.003079
 622	3.1050e-01	15.1680	26.087494	0.000126	1.262097	0.427610	-0.010177
 623	3.1100e-01	15.1215	26.058415	0.000072	0.721198	0.244349	-0.005816
 624	3.1150e-01	15.0878	25.996410	0.000154	1.537850	0.521038	-0.012401
 625	3.1200e-01	15.0461	25.957923	0.000095	0.954527	0.323403	-0.007697
 626	3.1250e-01	15.0172	25.901049	0.000141	1.410579	0.477917	-0.011375
 627	3.1300e-01	14.9707	25.824504	0.000190	1.898449	0.643212	-0.015309
 628	3.1350e-01	14.9482	25.764637	0.000148	1.484820	0.503071	-0.011974
 629	3.1400e-01	14.9162	25.699210	0.000162	1.622697	0.549784	-0.013085
 630	3.1450e-01	14.8600	25.683815	0.000038	0.381811	0.129361	-0.003079
 631	3.1500e-01	14.8135	25.606843	0.000191	1.909055	0.646805	-0.015395
 632	3.1550e-01	14.7670	25.621382	-0.000036	-0.360599	-0.122174	0.002908
 633	3.1600e-01	14.7429	25.499937	0.000301	3.012064	1.020515	-0.024289
 634	3.1650e-01	14.7204	25.456746	0.000107	1.071192	0.362930	-0.008638
 635	3.1700e-01	14.6579	25.405004	0.000128	1.283309	0.434797	-0.010349
 636	3.1750e-01	14.6338	25.327604	0.000192	1.919661	0.650399	-0.015480
 637	3.1800e-01	14.6065	25.274150	0.000133	1.325732	0.449170	-0.010691
 638	3.1850e-01	14.5600	25.246355	0.000069	0.689381	0.233569	-0.005559
 639	3.1900e-01	14.5151	25.179218	0.000167	1.665120	0.564158	-0.013427
 640	3.1950e-01	14.4573	25.139876	0.000098	0.975739	0.330589	-0.007868
 641	3.2000e-01	14.4140	25.091554	0.000120	1.198462	0.406050	-0.009664
 642	3.2050e-01	14.3803	25.029976	0.000153	1.527244	0.517444	-0.012316
 643	3.2100e-01	14.3114	25.017148	0.000032	0.318176	0.107801	-0.002566
 644	3.2150e-01	14.3001	24.918366	0.000245	2.449954	0.830067	-0.019756
 645	3.2200e-01	14.2504	24.917939	0.000001	0.010606	0.003593	-0.000086
 646	3.2250e-01	14.2007	24.849946	0.000169	1.686332	0.571345	-0.013598
 647	3.2300e-01	14.1654	24.802907	0.000117	1.166645	0.395270	-0.009408
 648	3.2350e-01	14.1397	24.735770	0.000167	1.665120	0.564158	-0.013427
 649	3.2400e-01	14.1140	24.678041	0.000143	1.431791	0.485104	-0.011546
 650	3.2450e-01	14.0595	24.633995	0.000109	1.092404	0.370116	-0.008809
 651	3.2500e-01	14.0194	24.573273	0.000151	1.506032	0.510257	-0.012145
 652	3.2550e-01	14.0082	24.455676	0.000292	2.916611	0.988175	-0.023519
 653	3.2600e-01	13.9360	24.455676	-0.000000	-0.000000	-0.000000	0.000000
 654	3.2650e-01	13.8959	24.389821	0.000163	1.633302	0.553378	-0.013171
 655	3.2700e-01	13.8702	24.319263	0.000175	1.749967	0.592905	-0.014112
 656	3.2750e-01	13.8076	24.259823	0.000147	1.474215	0.499477	-0.011888
 657	3.2800e-01	13.7900	24.239725	0.000050	0.498475	0.168888	-0.004020
 658	3.2850e-01	13.7290	24.182851	0.000141	1.410579	0.477917	-0.011375
 659	3.2900e-01	13.6873	24.151206	0.000078	0.784834	0.265909	-0.006329
 660	3.2950e-01	13.6600	24.107161	0.000109	1.092404	0.370116	-0.008809
 661	3.3000e-01	13.6199	24.041734	0.000162	1.622697	0.549784	-0.013085
 662	3.3050e-01	13.5766	23.957920	0.000208	2.078749	0.704299	-0.016763
 663	3.3100e-01	13.5301	23.917723	0.000100	0.996951	0.337776	-0.008039
 664	3.3150e-01	13.4980	23.882230	0.000088	0.880286	0.298249	-0.007099
 665	3.3200e-01	13.4515	23.827922	0.000135	1.346944	0.456357	-0.010862
 666	3.3250e-01	13.4034	23.752232	0.000188	1.877237	0.636025	-0.015138
 667	3.3300e-01	13.3617	23.729568	0.000056	0.562111	0.190448	-0.004533
 668	3.3350e-01	13.3248	23.674832	0.000136	1.357550	0.459950	-0.010947
 669	3.3400e-01	13.3023	23.539275	0.000336	3.362058	1.139096	-0.027111
 670	3.3450e-01	13.2638	23.531577	0.000019	0.190905	0.064681	-0.001539
 671	3.3500e-01	13.2173	23.493946	0.000093	0.933316	0.316216	-0.007526
 672	3.3550e-01	13.1675	23.452039	0.000104	1.039374	0.352150	-0.008381
 673	3.3600e-01	13.1419	23.372073	0.000198	1.983296	0.671959	-0.015993
 674	3.3650e-01	13.0921	23.340429	0.000078	0.784834	0.265909	-0.006329
 675	3.3700e-01	13.0536	23.253621	0.000215	2.152990	0.729453	-0.017362
 676	3.3750e-01	13.0119	23.189905	0.000158	1.580273	0.535411	-0.012743
 677	3.3800e-01	12.9863	23.146287	0.000108	1.081798	0.366523	-0.008724
 678	3.3850e-01	12.9494	23.074018	0.000179	1.792390	0.607278	-0.014454
 679	3.3900e-01	12.9317	22.987638	0.000214	2.142384	0.725859	-0.017276
 680	3.3950e-01	12.8595	22.953428	0.000085	0.848469	0.287469	-0.006842
 681	3.4000e-01	12.8146	22.962836	-0.000023	-0.233329	-0.079054	0.001882
 682	3.4050e-01	12.7697	22.877738	0.000211	2.110566	0.715079	-0.017019
 683	3.4100e-01	12.7392	22.819154	0.000145	1.453003	0.492291	-0.011717
 684	3.4150e-01	12.7248	22.783233	0.000089	0.890892	0.301842	-0.007184
 685	3.4200e-01	12.6446	22.702840	0.000199	1.993902	0.675552	-0.016079
 686	3.4250e-01	12.6173	22.687018	0.000039	0.392417	0.132954	-0.003164
 687	3.4300e-01	12.5868	22.598499	0.000220	2.195413	0.743826	-0.017704
 688	3.4350e-01	12.5387	22.544191	0.000135	1.346944	0.456357	-0.010862
 689	3.4400e-01	12.5258	22.490310	0.000134	1.336338	0.452764	-0.010776
 690	3.4450e-01	12.4633	22.429587	0.000151	1.506032	0.510257	-0.012145
 691	3.4500e-01	12.4408	22.344062	0.000212	2.121172	0.718673	-0.017105
 692	3.4550e-01	12.3767	22.382976	-0.000097	-0.965133	-0.326996	0.007783
 693	3.4600e-01	12.3510	22.303438	0.000197	1.972690	0.668365	-0.015908
 694	3.4650e-01	12.2932	22.216202	0.000216	2.163595	0.733046	-0.017447
 695	3.4700e-01	12.2660	22.161894	0.000135	1.346944	0.456357	-0.010862
 696	3.4750e-01	12.2243	22.087487	0.000185	1.845420	0.625245	-0.014881
 697	3.4800e-01	12.1922	22.048573	0.000097	0.965133	0.326996	-0.007783
 698	3.4850e-01	12.1312	21.991271	0.000142	1.421185	0.481511	-0.011460
 699	3.4900e-01	12.1120	21.944232	0.000117	1.166645	0.395270	-0.009408
 700	3.4950e-01	12.0767	21.873674	0.000175	1.749967	0.592905	-0.014112
 701	3.5000e-01	12.0109	21.816800	0.000141	1.410579	0.477917	-0.011375
 702	3.5050e-01	11.9965	21.756505	0.000150	1.495426	0.506664	-0.012059
 703	3.5100e-01	11.9323	21.675684	0.000200	2.004508	0.679146	-0.016164
 704	3.5150e-01	11.9018	21.638480	0.000092	0.922710	0.312623	-0.007441
 705	3.5200e-01	11.8473	21.587165	0.000127	1.272703	0.431204	-0.010263
 706	3.5250e-01	11.8168	21.539699	0.000118	1.177250	0.398863	-0.009493
 707	3.5300e-01	11.7670	21.483680	0.000139	1.389368	0.470731	-0.011204
 708	3.5350e-01	11.7462	21.397300	0.000214	2.142384	0.725859	-0.017276
 709	3.5400e-01	11.7173	21.368221	0.000072	0.721198	0.244349	-0.005816
 710	3.5450e-01	11.6596	21.310919	0.000142	1.421185	0.481511	-0.011460
 711	3.5500e-01	11.5810	21.282696	0.000070	0.699987	0.237162	-0.005645
 712	3.5550e-01	11.5697	21.192040	0.000225	2.248442	0.761793	-0.018131
 713	3.5600e-01	11.5457	21.124902	0.000167	1.665120	0.564158	-0.013427
 714	3.5650e-01	11.4927	21.112501	0.000031	0.307570	0.104208	-0.002480
 715	3.5700e-01	11.4574	21.048357	0.000159	1.590879	0.539004	-0.012829
 716	3.5750e-01	11.4013	20.955990	0.000229	2.290866	0.776166	-0.018473
 717	3.5800e-01	11.3804	20.907669	0.000120	1.198462	0.406050	-0.009664
 718	3.5850e-01	11.3419	20.769546	0.000343	3.425693	1.160656	-0.027625
 719	3.5900e-01	11.3259	20.751158	0.000046	0.456052	0.154515	-0.003678
 720	3.5950e-01	11.2585	20.735763	0.000038	0.381811	0.129361	-0.003079
 721	3.6000e-01	11.2377	20.608759	0.000315	3.149940	1.067229	-0.025401
 722	3.6050e-01	11.1911	20.582674	0.000065	0.646957	0.219195	-0.005217
 723	3.6100e-01	11.1221	20.554023	0.000071	0.710593	0.240755	-0.005730
 724	3.6150e-01	11.0836	20.508267	0.000113	1.134827	0.384490	-0.009151
 725	3.6200e-01	11.0612	20.441130	0.000167	1.665120	0.564158	-0.013427
 726	3.6250e-01	11.0467	20.333796	0.000266	2.662071	0.901934	-0.021467
 727	3.6300e-01	10.9906	20.279060	0.000136	1.357550	0.459950	-0.010947
 728	3.6350e-01	10.9361	20.241429	0.000093	0.933316	0.316216	-0.007526
 729	3.6400e-01	10.8799	20.233731	0.000019	0.190905	0.064681	-0.001539
 730	3.6450e-01	10.8558	20.129391	0.000259	2.587830	0.876780	-0.020868
 731	3.6500e-01	10.8238	20.075082	0.000135	1.346944	0.456357	-0.010862
 732	3.6550e-01	10.7452	19.998965	0.000189	1.887843	0.639619	-0.015223
 733	3.6600e-01	10.7259	19.957913	0.000102	1.018163	0.344963	-0.008210
 734	3.6650e-01	10.7034	19.867684	0.000224	2.237836	0.758200	-0.018046
 735	3.6700e-01	10.6473	19.817652	0.000124	1.240886	0.420423	-0.010006
 736	3.6750e-01	10.6184	19.786008	0.000078	0.784834	0.265909	-0.006329
 737	3.6800e-01	10.5607	19.716732	0.000172	1.718149	0.582125	-0.013855
 738	3.6850e-01	10.5462	19.667555	0.000122	1.219674	0.413237	-0.009835
 739	3.6900e-01	10.4949	19.637194	0.000075	0.753016	0.255129	-0.006072
 740	3.6950e-01	10.4596	19.489663	0.000366	3.659022	1.239710	-0.029506
 741	3.7000e-01	10.4195	19.423809	0.000163	1.633302	0.553378	-0.013171
 742	3.7050e-01	10.3842	19.419533	0.000011	0.106059	0.035934	-0.000855
 743	3.7100e-01	10.3489	19.339994	0.000197	1.972690	0.668365	-0.015908
 744	3.7150e-01	10.3008	19.289107	0.000126	1.262097	0.427610	-0.010177
 745	3.7200e-01	10.2559	19.219832	0.000172	1.718149	0.582125	-0.013855
 746	3.7250e-01	10.1917	19.197168	0.000056	0.562111	0.190448	-0.004533
 747	3.7300e-01	10.1917	19.129603	0.000168	1.675726	0.567751	-0.013513
 748	3.7350e-01	10.1612	18.997039	0.000329	3.287817	1.113942	-0.026513
 749	3.7400e-01	10.1131	18.976513	0.000051	0.509081	0.172481	-0.004105
 750	3.7450e-01	10.0601	18.932468	0.000109	1.092404	0.370116	-0.008809
 751	3.7500e-01	10.0088	18.885001	0.000118	1.177250	0.398863	-0.009493
 752	3.7550e-01	9.9847	18.818719	0.000164	1.643908	0.556971	-0.013256
 753	3.7600e-01	9.9142	18.753720	0.000161	1.612091	0.546191	-0.013000
 754	3.7650e-01	9.8933	18.658787	0.000235	2.354501	0.797727	-0.018987
 755	3.7700e-01	9.8628	18.632702	0.000065	0.646957	0.219195	-0.005217
 756	3.7750e-01	9.8211	18.566420	0.000164	1.643908	0.556971	-0.013256
 757	3.7800e-01	9.7618	18.514678	0.000128	1.283309	0.434797	-0.010349
 758	3.7850e-01	9.7313	18.423166	0.000227	2.269654	0.768980	-0.018302
 759	3.7900e-01	9.7136	18.357312	0.000163	1.633302	0.553378	-0.013171
 760	3.7950e-01	9.6543	18.341917	0.000038	0.381811	0.129361	-0.003079
 761	3.8000e-01	9.6174	18.262806	0.000196	1.962084	0.664772	-0.015822
 762	3.8050e-01	9.5821	18.161032	0.000252	2.524195	0.855220	-0.020355
 763	3.8100e-01	9.5227	18.128960	0.000080	0.795439	0.269502	-0.006414
 764	3.8150e-01	9.4938	18.042152	0.000215	2.152990	0.729453	-0.017362
 765	3.8200e-01	9.4746	17.973732	0.000170	1.696938	0.574938	-0.013684
 766	3.8250e-01	9.4185	17.960048	0.000034	0.339388	0.114988	-0.002737
 767	3.8300e-01	9.3896	17.870246	0.000223	2.227231	0.754606	-0.017960
 768	3.8350e-01	9.3286	17.811662	0.000145	1.453003	0.492291	-0.011717
 769	3.8400e-01	9.2885	17.751794	0.000148	1.484820	0.503071	-0.011974
 770	3.8450e-01	9.2612	17.669263	0.000205	2.046931	0.693519	-0.016506
 771	3.8500e-01	9.2163	17.629921	0.000098	0.975739	0.330589	-0.007868
 772	3.8550e-01	9.1955	17.559790	0.000174	1.739361	0.589311	-0.014026
 773	3.8600e-01	9.1441	17.484528	0.000187	1.866631	0.632432	-0.015052
 774	3.8650e-01	9.1040	17.406273	0.000194	1.940872	0.657585	-0.015651
 775	3.8700e-01	9.0543	17.335715	0.000175	1.749967	0.592905	-0.014112
 776	3.8750e-01	9.0190	17.321603	0.000035	0.349993	0.118581	-0.002822
 777	3.8800e-01	8.9885	17.210848	0.000275	2.746918	0.930681	-0.022151
 778	3.8850e-01	8.9452	17.199730	0.000028	0.275752	0.093427	-0.002224
 779	3.8900e-01	8.8891	17.098810	0.000250	2.502983	0.848034	-0.020184
 780	3.8950e-01	8.8473	17.056903	0.000104	1.039374	0.352150	-0.008381
 781	3.9000e-01	8.8201	16.968812	0.000218	2.184807	0.740233	-0.017618
 782	3.9050e-01	8.7848	16.913649	0.000137	1.368156	0.463544	-0.011033
 783	3.9100e-01	8.7367	16.858485	0.000137	1.368156	0.463544	-0.011033
 784	3.9150e-01	8.6917	16.756283	0.000253	2.534801	0.858814	-0.020440
 785	3.9200e-01	8.6516	16.726349	0.000074	0.742410	0.251535	-0.005987
 786	3.9250e-01	8.6051	16.670758	0.000138	1.378762	0.467137	-0.011118
 787	3.9300e-01	8.5939	16.602337	0.000170	1.696938	0.574938	-0.013684
 788	3.9350e-01	8.5666	16.504411	0.000243	2.428742	0.822880	-0.019585
 789	3.9400e-01	8.5024	16.474905	0.000073	0.731804	0.247942	-0.005901
 790	3.9450e-01	8.4463	16.417176	0.000143	1.431791	0.485104	-0.011546
 791	3.9500e-01	8.4270	16.330795	0.000214	2.142384	0.725859	-0.017276
 792	3.9550e-01	8.3789	16.264086	0.000165	1.654514	0.560565	-0.013342
 793	3.9600e-01	8.3452	16.185830	0.000194	1.940872	0.657585	-0.015651
 794	3.9650e-01	8.2714	16.144778	0.000102	1.018163	0.344963	-0.008210
 795	3.9700e-01	8.2409	16.078069	0.000165	1.654514	0.560565	-0.013342
 796	3.9750e-01	8.2057	15.997675	0.000199	1.993902	0.675552	-0.016079
 797	3.9800e-01	8.1639	15.973728	0.000059	0.593928	0.201228	-0.004789
 798	3.9850e-01	8.1254	15.883072	0.000225	2.248442	0.761793	-0.018131
 799	3.9900e-01	8.0885	15.852283	0.000076	0.763622	0.258722	-0.006158
 800	3.9950e-01	8.0805	15.773600	0.000195	1.951478	0.661179	-0.015737
 801	4.0000e-01	8.0147	15.672680	0.000250	2.502983	0.848034	-0.020184
 802	4.0050e-01	7.9746	15.614523	0.000144	1.442397	0.488697	-0.011631
 803	4.0100e-01	7.9570	15.555083	0.000147	1.474215	0.499477	-0.011888
 804	4.0150e-01	7.8848	15.525149	0.000074	0.742410	0.251535	-0.005987
 805	4.0200e-01	7.8607	15.417815	0.000266	2.662071	0.901934	-0.021467
 806	4.0250e-01	7.8287	15.327587	0.000224	2.237836	0.758200	-0.018046
 807	4.0300e-01	7.7902	15.283114	0.000110	1.103009	0.373710	-0.008895
 808	4.0350e-01	7.7324	15.199299	0.000208	2.078749	0.704299	-0.016763
 809	4.0400e-01	7.6859	15.175780	0.000058	0.583322	0.197635	-0.004704
 810	4.0450e-01	7.6586	15.074432	0.000251	2.513589	0.851627	-0.020269
 811	4.0500e-01	7.6265	14.998743	0.000188	1.877237	0.636025	-0.015138
 812	4.0550e-01	7.5752	14.954270	0.000110	1.103009	0.373710	-0.008895
 813	4.0600e-01	7.5271	14.902527	0.000128	1.283309	0.434797	-0.010349
 814	4.0650e-01	7.4966	14.817002	0.000212	2.121172	0.718673	-0.017105
 815	4.0700e-01	7.4565	14.798186	0.000047	0.466658	0.158108	-0.003763
 816	4.0750e-01	7.4292	14.692135	0.000263	2.630253	0.891154	-0.021210
 817	4.0800e-01	7.3891	14.639110	0.000132	1.315127	0.445577	-0.010605
 818	4.0850e-01	7.3458	14.546743	0.000229	2.290866	0.776166	-0.018473
 819	4.0900e-01	7.2848	14.499704	0.000117	1.166645	0.395270	-0.009408
 820	4.0950e-01	7.2543	14.397502	0.000253	2.534801	0.858814	-0.020440
 821	4.1000e-01	7.1998	14.395791	0.000004	0.042423	0.014373	-0.000342
 822	4.1050e-01	7.1822	14.276911	0.000295	2.948429	0.998955	-0.023776
 823	4.1100e-01	7.1453	14.223886	0.000132	1.315127	0.445577	-0.010605
 824	4.1150e-01	7.1003	14.159314	0.000160	1.601485	0.542598	-0.012914
 825	4.1200e-01	7.0634	14.040434	0.000295	2.948429	0.998955	-0.023776
 826	4.1250e-01	7.0073	13.995106	0.000112	1.124221	0.380896	-0.009066
 827	4.1300e-01	6.9624	13.957475	0.000093	0.933316	0.316216	-0.007526
 828	4.1350e-01	6.9351	13.883496	0.000183	1.834814	0.621652	-0.014796
 829	4.1400e-01	6.8806	13.805668	0.000193	1.930267	0.653992	-0.015566
 830	4.1450e-01	6.8549	13.719288	0.000214	2.142384	0.725859	-0.017276
 831	4.1500e-01	6.8196	13.643598	0.000188	1.877237	0.636025	-0.015138
 832	4.1550e-01	6.7859	13.605540	0.000094	0.943922	0.319809	-0.007612
 833	4.1600e-01	6.7249	13.551659	0.000134	1.336338	0.452764	-0.010776
 834	4.1650e-01	6.7057	13.452450	0.000246	2.460560	0.833660	-0.019842
 835	4.1700e-01	6.6463	13.403273	0.000122	1.219674	0.413237	-0.009835
 836	4.1750e-01	6.5998	13.300215	0.000256	2.556012	0.866000	-0.020612
 837	4.1800e-01	6.5741	13.281400	0.000047	0.466658	0.158108	-0.003763
 838	4.1850e-01	6.5340	13.176204	0.000261	2.609042	0.883967	-0.021039
 839	4.1900e-01	6.4811	13.152684	0.000058	0.583322	0.197635	-0.004704
 840	4.1950e-01	6.4907	13.008575	-0.000357	-3.574175	-1.210963	-0.028822
 841	4.2000e-01	6.4233	12.961964	0.000116	1.156039	0.391677	-0.009322
 842	4.2050e-01	6.3640	12.915352	0.000116	1.156039	0.391677	-0.009322
 843	4.2100e-01	6.3544	12.788348	0.000315	3.149940	1.067229	-0.025401
 844	4.2150e-01	6.3207	12.741309	0.000117	1.166645	0.395270	-0.009408
 845	4.2200e-01	6.2709	12.668185	0.000181	1.813602	0.614465	-0.014625
 846	4.2250e-01	6.2100	12.636541	0.000078	0.784834	0.265909	-0.006329
 847	4.2300e-01	6.1779	12.583088	0.000133	1.325732	0.449170	-0.010691
 848	4.2350e-01	6.1362	12.489438	0.000232	2.322683	0.786946	-0.018730
 849	4.2400e-01	6.0929	12.446247	0.000107	1.071192	0.362930	-0.008638
 850	4.2450e-01	6.0592	12.340196	0.000263	2.630253	0.891154	-0.021210
 851	4.2500e-01	6.0223	12.294440	0.000113	1.134827	0.384490	-0.009151
 852	4.2550e-01	5.9806	12.199080	0.000237	2.365107	0.801320	-0.019072
 853	4.2600e-01	5.9373	12.146910	0.000129	1.293915	0.438390	-0.010434
 854	4.2650e-01	5.9052	12.097305	0.000123	1.230280	0.416830	-0.009921
 855	4.2700e-01	5.8635	12.015629	0.000203	2.025719	0.686332	-0.016335
 856	4.2750e-01	5.7977	11.924545	0.000226	2.259048	0.765386	-0.018217
 857	4.2800e-01	5.7720	11.863394	0.000152	1.516638	0.513851	-0.012230
 858	4.2850e-01	5.7255	11.823197	0.000100	0.996951	0.337776	-0.008039
 859	4.2900e-01	5.7223	11.683364	0.000347	3.468116	1.175030	-0.027967
 860	4.2950e-01	5.6581	11.667114	0.000040	0.403023	0.136548	-0.003250
 861	4.3000e-01	5.6116	11.570471	0.000240	2.396924	0.812100	-0.019329
 862	4.3050e-01	5.5940	11.498202	0.000179	1.792390	0.607278	-0.014454
 863	4.3100e-01	5.5442	11.411822	0.000214	2.142384	0.725859	-0.017276
 864	4.3150e-01	5.5025	11.331428	0.000199	1.993902	0.675552	-0.016079
 865	4.3200e-01	5.4576	11.276692	0.000136	1.357550	0.459950	-0.010947
 866	4.3250e-01	5.4143	11.222812	0.000134	1.336338	0.452764	-0.010776
 867	4.3300e-01	5.3774	11.184325	0.000095	0.954527	0.323403	-0.007697
 868	4.3350e-01	5.3437	11.022683	0.000401	4.009015	1.358291	-0.032328
 869	4.3400e-01	5.3180	11.008144	0.000036	0.360599	0.122174	-0.002908
 870	4.3450e-01	5.2699	10.919625	0.000220	2.195413	0.743826	-0.017704
 871	4.3500e-01	5.2009	10.862323	0.000142	1.421185	0.481511	-0.011460
 872	4.3550e-01	5.1672	10.772950	0.000222	2.216625	0.751013	-0.017875
 873	4.3600e-01	5.1560	10.687425	0.000212	2.121172	0.718673	-0.017105
 874	4.3650e-01	5.0918	10.662195	0.000063	0.625746	0.212008	-0.005046
 875	4.3700e-01	5.0581	10.559992	0.000253	2.534801	0.858814	-0.020440
 876	4.3750e-01	5.0405	10.512954	0.000117	1.166645	0.395270	-0.009408
 877	4.3800e-01	4.9699	10.389797	0.000305	3.054488	1.034888	-0.024631
 878	4.3850e-01	4.9394	10.347463	0.000105	1.049980	0.355743	-0.008467
 879	4.3900e-01	4.9057	10.247398	0.000248	2.481771	0.840847	-0.020013
 880	4.3950e-01	4.8801	10.163156	0.000209	2.089354	0.707892	-0.016848
 881	4.4000e-01	4.8239	10.128946	0.000085	0.848469	0.287469	-0.006842
 882	4.4050e-01	4.7886	9.999376	0.000321	3.213576	1.088789	-0.025914
 883	4.4100e-01	4.7405	9.977567	0.000054	0.540899	0.183261	-0.004362
 884	4.4150e-01	4.7164	9.917272	0.000150	1.495426	0.506664	-0.012059
 885	4.4200e-01	4.6491	9.843292	0.000183	1.834814	0.621652	-0.014796
 886	4.4250e-01	4.6058	9.784708	0.000145	1.453003	0.492291	-0.011717
 887	4.4300e-01	4.5656	9.691058	0.000232	2.322683	0.786946	-0.018730
 888	4.4350e-01	4.5352	9.641453	0.000123	1.230280	0.416830	-0.009921
 889	4.4400e-01	4.4951	9.540534	0.000250	2.502983	0.848034	-0.020184
 890	4.4450e-01	4.4485	9.479811	0.000151	1.506032	0.510257	-0.012145
 891	4.4500e-01	4.4148	9.374615	0.000261	2.609042	0.883967	-0.021039
 892	4.4550e-01	4.3812	9.354517	0.000050	0.498475	0.168888	-0.004020
 893	4.4600e-01	4.3266	9.245472	0.000270	2.704494	0.916307	-0.021809
 894	4.4650e-01	4.2865	9.176625	0.000171	1.707543	0.578531	-0.013770
 895	4.4700e-01	4.2608	9.062021	0.000284	2.842370	0.963021	-0.022921
 896	4.4750e-01	4.2143	9.026956	0.000087	0.869681	0.294656	-0.007013
 897	4.4800e-01	4.1790	8.924753	0.000253	2.534801	0.858814	-0.020440
 898	4.4850e-01	4.1245	8.880708	0.000109	1.092404	0.370116	-0.008809
 899	4.4900e-01	4.0988	8.781499	0.000246	2.460560	0.833660	-0.019842
 900	4.4950e-01	4.0635	8.747716	0.000084	0.837863	0.283876	-0.006756
 901	4.5000e-01	4.0314	8.636534	0.000276	2.757524	0.934274	-0.022237
 902	4.5050e-01	3.9913	8.583081	0.000133	1.325732	0.449170	-0.010691
 903	4.5100e-01	3.9544	8.459497	0.000307	3.065094	1.038482	-0.024717
 904	4.5150e-01	3.9047	8.393215	0.000164	1.643908	0.556971	-0.013256
 905	4.5200e-01	3.8598	8.342328	0.000126	1.262097	0.427610	-0.010177
 906	4.5250e-01	3.7988	8.285454	0.000141	1.410579	0.477917	-0.011375
 907	4.5300e-01	3.7555	8.211902	0.000182	1.824208	0.618058	-0.014710
 908	4.5350e-01	3.7603	8.084897	-0.000315	-3.149940	-1.067229	-0.025401
 909	4.5400e-01	3.6978	8.016905	0.000169	1.686332	0.571345	-0.013598
 910	4.5450e-01	3.6560	7.979274	0.000093	0.933316	0.316216	-0.007526
 911	4.5500e-01	3.6288	7.855262	0.000308	3.075699	1.042075	-0.024802
 912	4.5550e-01	3.5662	7.802237	0.000132	1.315127	0.445577	-0.010605
 913	4.5600e-01	3.5277	7.727830	0.000185	1.845420	0.625245	-0.014881
 914	4.5650e-01	3.4940	7.638029	0.000223	2.227231	0.754606	-0.017960
 915	4.5700e-01	3.4475	7.604674	0.000083	0.827257	0.280282	-0.006671
 916	4.5750e-01	3.4090	7.489643	0.000285	2.852976	0.966615	-0.023006
 917	4.5800e-01	3.3673	7.447736	0.000104	1.039374	0.352150	-0.008381
 918	4.5850e-01	3.3400	7.353230	0.000234	2.343895	0.794133	-0.018901
 919	4.5900e-01	3.2983	7.255304	0.000243	2.428742	0.822880	-0.019585
 920	4.5950e-01	3.2550	7.168924	0.000214	2.142384	0.725859	-0.017276
 921	4.6000e-01	3.2438	7.079978	0.000221	2.206019	0.747419	-0.017789
 922	4.6050e-01	3.1700	7.044485	0.000088	0.880286	0.298249	-0.007099
 923	4.6100e-01	3.1523	6.930737	0.000282	2.821159	0.955834	-0.022750
 924	4.6150e-01	3.1010	6.873435	0.000142	1.421185	0.481511	-0.011460
 925	4.6200e-01	3.0577	6.806298	0.000167	1.665120	0.564158	-0.013427
 926	4.6250e-01	3.0240	6.728042	0.000194	1.940872	0.657585	-0.015651
 927	4.6300e-01	2.9855	6.683997	0.000109	1.092404	0.370116	-0.008809
 928	4.6350e-01	2.9390	6.570676	0.000281	2.810553	0.952241	-0.022664
 929	4.6400e-01	2.9085	6.487717	0.000206	2.057537	0.697112	-0.016592
 930	4.6450e-01	2.8347	6.433408	0.000135	1.346944	0.456357	-0.010862
 931	4.6500e-01	2.7978	6.345745	0.000217	2.174201	0.736639	-0.017533
 932	4.6550e-01	2.7737	6.264924	0.000200	2.004508	0.679146	-0.016164
 933	4.6600e-01	2.7529	6.143906	0.000300	3.001458	1.016922	-0.024204
 934	4.6650e-01	2.7095	6.094729	0.000122	1.219674	0.413237	-0.009835
 935	4.6700e-01	2.6759	6.021178	0.000182	1.824208	0.618058	-0.014710
 936	4.6750e-01	2.6309	5.936080	0.000211	2.110566	0.715079	-0.017019
 937	4.6800e-01	2.5876	5.858680	0.000192	1.919661	0.650399	-0.015480
 938	4.6850e-01	2.5379	5.795392	0.000157	1.569667	0.531818	-0.012658
 939	4.6900e-01	2.4994	5.721840	0.000182	1.824208	0.618058	-0.014710
 940	4.6950e-01	2.4497	5.635887	0.000213	2.131778	0.722266	-0.017191
 941	4.7000e-01	2.4112	5.523849	0.000278	2.778735	0.941461	-0.022408
 942	4.7050e-01	2.3951	5.430627	0.000231	2.312077	0.783353	-0.018644
 943	4.7100e-01	2.3310	5.369477	0.000152	1.516638	0.513851	-0.012230
 944	4.7150e-01	2.2989	5.330990	0.000095	0.954527	0.323403	-0.007697
 945	4.7200e-01	2.2636	5.267274	0.000158	1.580273	0.535411	-0.012743
 946	4.7250e-01	2.2379	5.133000	0.000333	3.330240	1.128316	-0.026855
 947	4.7300e-01	2.1834	5.034219	0.000245	2.449954	0.830067	-0.019756
 948	4.7350e-01	2.1513	4.973068	0.000152	1.516638	0.513851	-0.012230
 949	4.7400e-01	2.1144	4.881556	0.000227	2.269654	0.768980	-0.018302
 950	4.7450e-01	2.0807	4.838366	0.000107	1.071192	0.362930	-0.008638
 951	4.7500e-01	2.0342	4.726328	0.000278	2.778735	0.941461	-0.022408
 952	4.7550e-01	1.9828	4.681000	0.000112	1.124221	0.380896	-0.009066
 953	4.7600e-01	1.9379	4.599751	0.000202	2.015113	0.682739	-0.016250
 954	4.7650e-01	1.8882	4.535180	0.000160	1.601485	0.542598	-0.012914
 955	4.7700e-01	1.8497	4.421859	0.000281	2.810553	0.952241	-0.022664
 956	4.7750e-01	1.8144	4.333341	0.000220	2.195413	0.743826	-0.017704
 957	4.7800e-01	1.7582	4.276039	0.000142	1.421185	0.481511	-0.011460
 958	4.7850e-01	1.7294	4.185810	0.000224	2.237836	0.758200	-0.018046
 959	4.7900e-01	1.6844	4.126798	0.000146	1.463609	0.495884	-0.011802
 960	4.7950e-01	1.6492	4.037424	0.000222	2.216625	0.751013	-0.017875
 961	4.8000e-01	1.6010	3.936932	0.000249	2.492377	0.844440	-0.020098
 962	4.8050e-01	1.5738	3.900584	0.000090	0.901498	0.305436	-0.007270
 963	4.8100e-01	1.5449	3.749205	0.000375	3.754474	1.272050	-0.030276
 964	4.8150e-01	1.4823	3.692330	0.000141	1.410579	0.477917	-0.011375
 965	4.8200e-01	1.4422	3.601674	0.000225	2.248442	0.761793	-0.018131
 966	4.8250e-01	1.4069	3.587135	0.000036	0.360599	0.122174	-0.002908
 967	4.8300e-01	1.3572	3.435328	0.000377	3.765080	1.275644	-0.030361
 968	4.8350e-01	1.3508	3.387006	0.000120	1.198462	0.406050	-0.009664
 969	4.8400e-01	1.3026	3.255297	0.000327	3.266605	1.106756	-0.026342
 970	4.8450e-01	1.2834	3.213818	0.000103	1.028768	0.348556	-0.008296
 971	4.8500e-01	1.2208	3.094938	0.000295	2.948429	0.998955	-0.023776
 972	4.8550e-01	1.1711	3.007275	0.000217	2.174201	0.736639	-0.017533
 973	4.8600e-01	1.1149	2.949545	0.000143	1.431791	0.485104	-0.011546
 974	4.8650e-01	1.0925	2.881125	0.000170	1.696938	0.574938	-0.013684
 975	4.8700e-01	1.0588	2.764811	0.000288	2.884794	0.977395	-0.023263
 976	4.8750e-01	1.0026	2.704944	0.000148	1.484820	0.503071	-0.011974
 977	4.8800e-01	0.9802	2.637379	0.000168	1.675726	0.567751	-0.013513
 978	4.8850e-01	0.9256	2.552281	0.000211	2.110566	0.715079	-0.017019
 979	4.8900e-01	0.8887	2.500539	0.000128	1.283309	0.434797	-0.010349
 980	4.8950e-01	0.8486	2.341035	0.000396	3.955986	1.340324	-0.031901
 981	4.9000e-01	0.8133	2.315377	0.000064	0.636352	0.215602	-0.005132
 982	4.9050e-01	0.7684	2.237977	0.000192	1.919661	0.650399	-0.015480
 983	4.9100e-01	0.7107	2.142189	0.000238	2.375713	0.804913	-0.019158
 984	4.9150e-01	0.6946	2.035710	0.000264	2.640859	0.894747	-0.021296
 985	4.9200e-01	0.6625	1.924528	0.000276	2.757524	0.934274	-0.022237
 986	4.9250e-01	0.6032	1.876206	0.000120	1.198462	0.406050	-0.009664
 987	4.9300e-01	0.5743	1.768872	0.000266	2.662071	0.901934	-0.021467
 988	4.9350e-01	0.5406	1.688478	0.000199	1.993902	0.675552	-0.016079
 989	4.9400e-01	0.4941	1.644433	0.000109	1.092404	0.370116	-0.008809
 990	4.9450e-01	0.4412	1.566605	0.000193	1.930267	0.653992	-0.015566
 991	4.9500e-01	0.4139	1.481080	0.000212	2.121172	0.718673	-0.017105
 992	4.9550e-01	0.3722	1.345095	0.000337	3.372663	1.142689	-0.027197
 993	4.9600e-01	0.3353	1.265557	0.000197	1.972690	0.668365	-0.015908
 994	4.9650e-01	0.2872	1.174045	0.000227	2.269654	0.768980	-0.018302
 995	4.9700e-01	0.2535	1.116316	0.000143	1.431791	0.485104	-0.011546
 996	4.9750e-01	0.2310	1.017107	0.000246	2.460560	0.833660	-0.019842
 997	4.9800e-01	0.1604	0.917898	0.000246	2.460560	0.833660	-0.019842
 998	4.9850e-01	0.1283	0.852471	0.000162	1.622697	0.549784	-0.013085
 999	4.9900e-01	0.0802	0.807143	0.000112	1.124221	0.380896	-0.009066
1000	4.9950e-01	0.0770	0.683987	0.000305	3.054488	1.034888	-0.024631
1001	5.0000e-01	0.0786	0.537739	-0.000363	-3.627204	-1.228930	-0.029250
1002	5.0050e-01	-0.0096	0.513364	0.000060	0.604534	0.204822	-0.004875
1003	5.0100e-01	-0.0433	0.432543	0.000200	2.004508	0.679146	-0.016164
1004	5.0150e-01	-0.0898	0.363695	0.000171	1.707543	0.578531	-0.013770
1005	5.0200e-01	-0.1203	0.262776	0.000250	2.502983	0.848034	-0.020184
1006	5.0250e-01	-0.1588	0.188369	0.000185	1.845420	0.625245	-0.014881
1007	5.0300e-01	-0.2214	0.084456	0.000258	2.577224	0.873187	-0.020783
1008	5.0350e-01	-0.2503	0.045114	0.000098	0.975739	0.330589	-0.007868
1009	5.0400e-01	-0.2807	-0.068206	0.000281	2.810553	0.952241	-0.022664
1010	5.0450e-01	-0.3176	-0.146889	0.000195	1.951478	0.661179	-0.015737
1011	5.0500e-01	-0.3610	-0.287150	0.000348	3.478722	1.178623	-0.028052
1012	5.0550e-01	-0.4059	-0.339748	0.000130	1.304521	0.441984	-0.010520
1013	5.0600e-01	-0.4604	-0.411162	0.000177	1.771179	0.600092	-0.014283
1014	5.0650e-01	-0.4797	-0.486424	0.000187	1.866631	0.632432	-0.015052
1015	5.0700e-01	-0.5535	-0.576653	0.000224	2.237836	0.758200	-0.018046
1016	5.0750e-01	-0.5791	-0.687408	0.000275	2.746918	0.930681	-0.022151
1017	5.0800e-01	-0.6176	-0.744709	0.000142	1.421185	0.481511	-0.011460
1018	5.0850e-01	-0.6625	-0.817406	0.000180	1.802996	0.610872	-0.014539
1019	5.0900e-01	-0.6946	-0.902931	0.000212	2.121172	0.718673	-0.017105
1020	5.0950e-01	-0.7267	-1.036350	0.000331	3.309028	1.121129	-0.026684
1021	5.1000e-01	-0.7845	-1.098356	0.000154	1.537850	0.521038	-0.012401
1022	5.1050e-01	-0.8005	-1.204407	0.000263	2.630253	0.891154	-0.021210
1023	5.1100e-01	-0.8438	-1.285655	0.000202	2.015113	0.682739	-0.016250
1024	5.1150e-01	-0.8759	-1.387430	0.000252	2.524195	0.855220	-0.020355
1025	5.1200e-01	-0.9289	-1.421213	0.000084	0.837863	0.283876	-0.006756
1026	5.1250e-01	-0.9898	-1.511869	0.000225	2.248442	0.761793	-0.018131
1027	5.1300e-01	-1.0251	-1.605947	0.000233	2.333289	0.790540	-0.018816
1028	5.1350e-01	-1.0363	-1.748346	0.000353	3.531751	1.196590	-0.028480
1029	5.1400e-01	-1.0941	-1.792819	0.000110	1.103009	0.373710	-0.008895
1030	5.1450e-01	-1.1486	-1.847127	0.000135	1.346944	0.456357	-0.010862
1031	5.1500e-01	-1.1968	-1.918541	0.000177	1.771179	0.600092	-0.014283
1032	5.1550e-01	-1.2176	-2.014329	0.000238	2.375713	0.804913	-0.019158
1033	5.1600e-01	-1.2625	-2.117814	0.000257	2.566618	0.869594	-0.020697
1034	5.1650e-01	-1.2962	-2.171695	0.000134	1.336338	0.452764	-0.010776
1035	5.1700e-01	-1.3267	-2.329916	0.000392	3.924168	1.329544	-0.031644
1036	5.1750e-01	-1.3652	-2.400902	0.000176	1.760573	0.596498	-0.014197
1037	5.1800e-01	-1.4149	-2.477875	0.000191	1.909055	0.646805	-0.015395
1038	5.1850e-01	-1.4679	-2.508236	0.000075	0.753016	0.255129	-0.006072
1039	5.1900e-01	-1.4919	-2.632675	0.000309	3.086305	1.045669	-0.024888
1040	5.1950e-01	-1.5288	-2.718200	0.000212	2.121172	0.718673	-0.017105
1041	5.2000e-01	-1.5770	-2.807574	0.000222	2.216625	0.751013	-0.017875
1042	5.2050e-01	-1.5946	-2.902079	0.000234	2.343895	0.794133	-0.018901
1043	5.2100e-01	-1.6347	-2.949545	0.000118	1.177250	0.398863	-0.009493
1044	5.2150e-01	-1.7005	-3.110332	0.000399	3.987803	1.351104	-0.032157
1045	5.2200e-01	-1.7278	-3.148391	0.000094	0.943922	0.319809	-0.007612
1046	5.2250e-01	-1.7679	-3.218949	0.000175	1.749967	0.592905	-0.014112
1047	5.2300e-01	-1.8096	-3.327994	0.000270	2.704494	0.916307	-0.021809
1048	5.2350e-01	-1.8401	-3.412664	0.000210	2.099960	0.711486	-0.016934
1049	5.2400e-01	-1.8898	-3.479373	0.000165	1.654514	0.560565	-0.013342
1050	5.2450e-01	-1.9155	-3.567036	0.000217	2.174201	0.736639	-0.017533
1051	5.2500e-01	-1.9764	-3.646147	0.000196	1.962084	0.664772	-0.015822
1052	5.2550e-01	-2.0181	-3.683350	0.000092	0.922710	0.312623	-0.007441
1053	5.2600e-01	-2.0374	-3.867229	0.000456	4.560520	1.545146	-0.036776
1054	5.2650e-01	-2.0839	-3.941208	0.000183	1.834814	0.621652	-0.014796
1055	5.2700e-01	-2.1384	-3.998938	0.000143	1.431791	0.485104	-0.011546
1056	5.2750e-01	-2.1657	-4.061371	0.000155	1.548456	0.524631	-0.012487
1057	5.2800e-01	-2.2203	-4.157159	0.000238	2.375713	0.804913	-0.019158
1058	5.2850e-01	-2.2684	-4.228573	0.000177	1.771179	0.600092	-0.014283
1059	5.2900e-01	-2.2973	-4.344459	0.000287	2.874188	0.973801	-0.023177
1060	5.2950e-01	-2.3245	-4.415445	0.000176	1.760573	0.596498	-0.014197
1061	5.3000e-01	-2.3823	-4.458207	0.000106	1.060586	0.359336	-0.008553
1062	5.3050e-01	-2.4160	-4.579225	0.000300	3.001458	1.016922	-0.024204
1063	5.3100e-01	-2.4737	-4.710506	0.000326	3.255999	1.103162	-0.026256
1064	5.3150e-01	-2.5235	-4.745144	0.000086	0.859075	0.291062	-0.006928
1065	5.3200e-01	-2.5251	-4.809715	0.000160	1.601485	0.542598	-0.012914
1066	5.3250e-01	-2.5973	-4.879846	0.000174	1.739361	0.589311	-0.014026
1067	5.3300e-01	-2.6037	-4.977772	0.000243	2.428742	0.822880	-0.019585
1068	5.3350e-01	-2.6582	-5.075698	0.000243	2.428742	0.822880	-0.019585
1069	5.3400e-01	-2.7063	-5.118461	0.000106	1.060586	0.359336	-0.008553
1070	5.3450e-01	-2.7481	-5.187308	0.000171	1.707543	0.578531	-0.013770
1071	5.3500e-01	-2.7673	-5.316024	0.000319	3.192364	1.081602	-0.025743
1072	5.3550e-01	-2.8010	-5.403259	0.000216	2.163595	0.733046	-0.017447
1073	5.3600e-01	-2.8459	-5.471679	0.000170	1.696938	0.574938	-0.013684
1074	5.3650e-01	-2.8603	-5.545658	0.000183	1.834814	0.621652	-0.014796
1075	5.3700e-01	-2.9438	-5.612368	0.000165	1.654514	0.560565	-0.013342
1076	5.3750e-01	-2.9518	-5.754767	0.000353	3.531751	1.196590	-0.028480
1077	5.3800e-01	-3.0127	-5.823615	0.000171	1.707543	0.578531	-0.013770
1078	5.3850e-01	-3.0609	-5.839009	0.000038	0.381811	0.129361	-0.003079
1079	5.3900e-01	-3.1106	-5.983974	0.000360	3.595387	1.218150	-0.028993
1080	5.3950e-01	-3.1443	-6.016474	0.000081	0.806045	0.273096	-0.006500
1081	5.4000e-01	-3.1908	-6.112262	0.000238	2.375713	0.804913	-0.019158
1082	5.4050e-01	-3.1924	-6.230714	0.000294	2.937823	0.995361	-0.023690
1083	5.4100e-01	-3.2518	-6.306404	0.000188	1.877237	0.636025	-0.015138
1084	5.4150e-01	-3.2999	-6.391074	0.000210	2.099960	0.711486	-0.016934
1085	5.4200e-01	-3.3320	-6.408179	0.000042	0.424234	0.143735	-0.003421
1086	5.4250e-01	-3.3753	-6.528769	0.000299	2.990852	1.013328	-0.024118
1087	5.4300e-01	-3.4074	-6.606169	0.000192	1.919661	0.650399	-0.015480
1088	5.4350e-01	-3.4716	-6.637386	0.000077	0.774228	0.262315	-0.006243
1089	5.4400e-01	-3.5101	-6.736167	0.000245	2.449954	0.830067	-0.019756
1090	5.4450e-01	-3.5133	-6.870441	0.000333	3.330240	1.128316	-0.026855
1091	5.4500e-01	-3.5534	-6.952118	0.000203	2.025719	0.686332	-0.016335
1092	5.4550e-01	-3.6159	-7.031656	0.000197	1.972690	0.668365	-0.015908
1093	5.4600e-01	-3.6673	-7.069287	0.000093	0.933316	0.316216	-0.007526
1094	5.4650e-01	-3.7042	-7.133003	0.000158	1.580273	0.535411	-0.012743
1095	5.4700e-01	-3.7250	-7.255732	0.000304	3.043882	1.031295	-0.024546
1096	5.4750e-01	-3.7635	-7.341685	0.000213	2.131778	0.722266	-0.017191
1097	5.4800e-01	-3.8261	-7.428492	0.000215	2.152990	0.729453	-0.017362
1098	5.4850e-01	-3.8598	-7.483656	0.000137	1.368156	0.463544	-0.011033
1099	5.4900e-01	-3.9159	-7.555497	0.000178	1.781784	0.603685	-0.014368
1100	5.4950e-01	-3.9512	-7.601681	0.000115	1.145433	0.388083	-0.009237
1101	5.5000e-01	-3.9769	-7.711153	0.000272	2.715100	0.919901	-0.021894
1102	5.5050e-01	-4.0042	-7.824901	0.000282	2.821159	0.955834	-0.022750
1103	5.5100e-01	-4.0571	-7.892894	0.000169	1.686332	0.571345	-0.013598
1104	5.5150e-01	-4.0956	-7.918123	0.000063	0.625746	0.212008	-0.005046
1105	5.5200e-01	-4.1389	-8.028451	0.000274	2.736312	0.927088	-0.022065
1106	5.5250e-01	-4.1870	-8.095160	0.000165	1.654514	0.560565	-0.013342
1107	5.5300e-01	-4.2079	-8.152462	0.000142	1.421185	0.481511	-0.011460
1108	5.5350e-01	-4.2576	-8.273052	0.000299	2.990852	1.013328	-0.024118
1109	5.5400e-01	-4.2961	-8.294861	0.000054	0.540899	0.183261	-0.004362
1110	5.5450e-01	-4.3138	-8.406471	0.000277	2.768129	0.937868	-0.022322
1111	5.5500e-01	-4.3844	-8.468477	0.000154	1.537850	0.521038	-0.012401
1112	5.5550e-01	-4.4197	-8.544167	0.000188	1.877237	0.636025	-0.015138
1113	5.5600e-01	-4.4646	-8.600613	0.000140	1.399974	0.474324	-0.011289
1114	5.5650e-01	-4.4919	-8.730184	0.000321	3.213576	1.088789	-0.025914
1115	5.5700e-01	-4.5255	-8.788768	0.000145	1.453003	0.492291	-0.011717
1116	5.5750e-01	-4.5769	-8.843932	0.000137	1.368156	0.463544	-0.011033
1117	5.5800e-01	-4.6282	-8.936727	0.000230	2.301472	0.779760	-0.018559
1118	5.5850e-01	-4.6667	-8.966233	0.000073	0.731804	0.247942	-0.005901
1119	5.5900e-01	-4.7052	-9.071001	0.000260	2.598436	0.880374	-0.020954
1120	5.5950e-01	-4.7405	-9.124882	0.000134	1.336338	0.452764	-0.010776
1121	5.6000e-01	-4.7951	-9.247183	0.000303	3.033276	1.027702	-0.024460
1122	5.6050e-01	-4.8191	-9.353661	0.000264	2.640859	0.894747	-0.021296
1123	5.6100e-01	-4.8480	-9.406259	0.000130	1.304521	0.441984	-0.010520
1124	5.6150e-01	-4.9106	-9.428923	0.000056	0.562111	0.190448	-0.004533
1125	5.6200e-01	-4.9314	-9.539678	0.000275	2.746918	0.930681	-0.022151
1126	5.6250e-01	-4.9924	-9.576027	0.000090	0.901498	0.305436	-0.007270
1127	5.6300e-01	-5.0277	-9.688064	0.000278	2.778735	0.941461	-0.022408
1128	5.6350e-01	-5.0758	-9.733393	0.000112	1.124221	0.380896	-0.009066
1129	5.6400e-01	-5.0950	-9.815069	0.000203	2.025719	0.686332	-0.016335
1130	5.6450e-01	-5.1271	-9.927107	0.000278	2.778735	0.941461	-0.022408
1131	5.6500e-01	-5.1865	-10.008356	0.000202	2.015113	0.682739	-0.016250
1132	5.6550e-01	-5.2266	-10.069079	0.000151	1.506032	0.510257	-0.012145
1133	5.6600e-01	-5.2715	-10.099012	0.000074	0.742410	0.251535	-0.005987
1134	5.6650e-01	-5.3004	-10.203780	0.000260	2.598436	0.880374	-0.020954
1135	5.6700e-01	-5.3549	-10.277332	0.000182	1.824208	0.618058	-0.014710
1136	5.6750e-01	-5.3806	-10.328647	0.000127	1.272703	0.431204	-0.010263
1137	5.6800e-01	-5.4223	-10.395784	0.000167	1.665120	0.564158	-0.013427
1138	5.6850e-01	-5.4592	-10.474467	0.000195	1.951478	0.661179	-0.015737
1139	5.6900e-01	-5.4833	-10.578380	0.000258	2.577224	0.873187	-0.020783
1140	5.6950e-01	-5.5330	-10.650649	0.000179	1.792390	0.607278	-0.014454
1141	5.7000e-01	-5.5683	-10.706668	0.000139	1.389368	0.470731	-0.011204
1142	5.7050e-01	-5.6260	-10.800745	0.000233	2.333289	0.790540	-0.018816
1143	5.7100e-01	-5.6694	-10.829824	0.000072	0.721198	0.244349	-0.005816
1144	5.7150e-01	-5.7063	-10.933309	0.000257	2.566618	0.869594	-0.020697
1145	5.7200e-01	-5.7480	-10.972651	0.000098	0.975739	0.330589	-0.007868
1146	5.7250e-01	-5.7656	-11.069294	0.000240	2.396924	0.812100	-0.019329
1147	5.7300e-01	-5.8121	-11.174917	0.000262	2.619647	0.887561	-0.021125
1148	5.7350e-01	-5.8651	-11.240344	0.000162	1.622697	0.549784	-0.013085
1149	5.7400e-01	-5.9116	-11.242482	0.000005	0.053029	0.017967	-0.000428
1150	5.7450e-01	-5.9341	-11.352810	0.000274	2.736312	0.927088	-0.022065
1151	5.7500e-01	-5.9838	-11.435341	0.000205	2.046931	0.693519	-0.016506
1152	5.7550e-01	-6.0239	-11.462282	0.000067	0.668169	0.226382	-0.005388
1153	5.7600e-01	-6.0720	-11.605964	0.000356	3.563569	1.207370	-0.028736
1154	5.7650e-01	-6.0833	-11.634615	0.000071	0.710593	0.240755	-0.005730
1155	5.7700e-01	-6.1121	-11.705173	0.000175	1.749967	0.592905	-0.014112
1156	5.7750e-01	-6.1875	-11.763757	0.000145	1.453003	0.492291	-0.011717
1157	5.7800e-01	-6.2180	-11.813362	0.000123	1.230280	0.416830	-0.009921
1158	5.7850e-01	-6.2822	-11.894183	0.000200	2.004508	0.679146	-0.016164
1159	5.7900e-01	-6.3207	-11.969873	0.000188	1.877237	0.636025	-0.015138
1160	5.7950e-01	-6.3768	-12.095167	0.000311	3.107517	1.052855	-0.025059
1161	5.8000e-01	-6.4025	-12.115265	0.000050	0.498475	0.168888	-0.004020
1162	5.8050e-01	-6.4217	-12.184541	0.000172	1.718149	0.582125	-0.013855
1163	5.8100e-01	-6.4201	-12.358157	-0.000431	-4.305979	-1.458905	-0.034723
1164	5.8150e-01	-6.5068	-12.335065	-0.000057	-0.572716	-0.194042	0.004618
1165	5.8200e-01	-6.5421	-12.400919	0.000163	1.633302	0.553378	-0.013171
1166	5.8250e-01	-6.5677	-12.464208	0.000157	1.569667	0.531818	-0.012658
1167	5.8300e-01	-6.6143	-12.558713	0.000234	2.343895	0.794133	-0.018901
1168	5.8350e-01	-6.6511	-12.629699	0.000176	1.760573	0.596498	-0.014197
1169	5.8400e-01	-6.6993	-12.666474	0.000091	0.912104	0.309029	-0.007355
1170	5.8450e-01	-6.7378	-12.746013	0.000197	1.972690	0.668365	-0.015908
1171	5.8500e-01	-6.7779	-12.795617	0.000123	1.230280	0.416830	-0.009921
1172	5.8550e-01	-6.8180	-12.884563	0.000221	2.206019	0.747419	-0.017789
1173	5.8600e-01	-6.8581	-12.959825	0.000187	1.866631	0.632432	-0.015052
1174	5.8650e-01	-6.9046	-13.018838	0.000146	1.463609	0.495884	-0.011802
1175	5.8700e-01	-6.9255	-13.111205	0.000229	2.290866	0.776166	-0.018473
1176	5.8750e-01	-6.9961	-13.127882	0.000041	0.413629	0.140141	-0.003335
1177	5.8800e-01	-7.0217	-13.230512	0.000255	2.545406	0.862407	-0.020526
1178	5.8850e-01	-7.0731	-13.298077	0.000168	1.675726	0.567751	-0.013513
1179	5.8900e-01	-7.1019	-13.384457	0.000214	2.142384	0.725859	-0.017276
1180	5.8950e-01	-7.1276	-13.469555	0.000211	2.110566	0.715079	-0.017019
1181	5.9000e-01	-7.1998	-13.502909	0.000083	0.827257	0.280282	-0.006671
1182	5.9050e-01	-7.2126	-13.581593	0.000195	1.951478	0.661179	-0.015737
1183	5.9100e-01	-7.2511	-13.687644	0.000263	2.630253	0.891154	-0.021210
1184	5.9150e-01	-7.3105	-13.676098	-0.000029	-0.286358	-0.097021	0.002309
1185	5.9200e-01	-7.3137	-13.797116	0.000300	3.001458	1.016922	-0.024204
1186	5.9250e-01	-7.3666	-13.841161	0.000109	1.092404	0.370116	-0.008809
1187	5.9300e-01	-7.4116	-13.900601	0.000147	1.474215	0.499477	-0.011888
1188	5.9350e-01	-7.4725	-13.978429	0.000193	1.930267	0.653992	-0.015566
1189	5.9400e-01	-7.4998	-14.040434	0.000154	1.537850	0.521038	-0.012401
1190	5.9450e-01	-7.5575	-14.079348	0.000097	0.965133	0.326996	-0.007783
1191	5.9500e-01	-7.5575	-14.196518	0.000291	2.906006	0.984581	-0.023434
1192	5.9550e-01	-7.5928	-14.263655	0.000167	1.665120	0.564158	-0.013427
1193	5.9600e-01	-7.6426	-14.308128	0.000110	1.103009	0.373710	-0.008895
1194	5.9650e-01	-7.7164	-14.397502	0.000222	2.216625	0.751013	-0.017875
1195	5.9700e-01	-7.7356	-14.476185	0.000195	1.951478	0.661179	-0.015737
1196	5.9750e-01	-7.8030	-14.485165	0.000022	0.222723	0.075461	-0.001796
1197	5.9800e-01	-7.8367	-14.552302	0.000167	1.665120	0.564158	-0.013427
1198	5.9850e-01	-7.8431	-14.709668	0.000390	3.902956	1.322357	-0.031473
1199	5.9900e-01	-7.8992	-14.691708	-0.000045	-0.445446	-0.150921	0.003592
1200	5.9950e-01	-7.9265	-14.778516	0.000215	2.152990	0.729453	-0.017362
1201	6.0000e-01	-7.9762	-14.806739	0.000070	0.699987	0.237162	-0.005645
1202	6.0050e-01	-8.0404	-14.896968	0.000224	2.237836	0.758200	-0.018046
1203	6.0100e-01	-8.0645	-14.995749	0.000245	2.449954	0.830067	-0.019756
1204	6.0150e-01	-8.0773	-15.039795	0.000109	1.092404	0.370116	-0.008809
1205	6.0200e-01	-8.1447	-15.133872	0.000233	2.333289	0.790540	-0.018816
1206	6.0250e-01	-8.1800	-15.159102	0.000063	0.625746	0.212008	-0.005046
1207	6.0300e-01	-8.2345	-15.224956	0.000163	1.633302	0.553378	-0.013171
1208	6.0350e-01	-8.2554	-15.264298	0.000098	0.975739	0.330589	-0.007868
1209	6.0400e-01	-8.2907	-15.380612	0.000288	2.884794	0.977395	-0.023263
1210	6.0450e-01	-8.3003	-15.452025	0.000177	1.771179	0.600092	-0.014283
1211	6.0500e-01	-8.3917	-15.504623	0.000130	1.304521	0.441984	-0.010520
1212	6.0550e-01	-8.3901	-15.550807	-0.000115	-1.145433	-0.388083	-0.009237
1213	6.0600e-01	-8.4591	-15.608109	0.000142	1.421185	0.481511	-0.011460
1214	6.0650e-01	-8.4896	-15.655575	0.000118	1.177250	0.398863	-0.009493
1215	6.0700e-01	-8.5217	-15.773600	0.000293	2.927217	0.991768	-0.023605
1216	6.0750e-01	-8.5441	-15.851855	0.000194	1.940872	0.657585	-0.015651
1217	6.0800e-01	-8.6260	-15.857414	0.000014	0.137876	0.046714	-0.001112
1218	6.0850e-01	-8.6596	-15.948071	0.000225	2.248442	0.761793	-0.018131
1219	6.0900e-01	-8.6998	-15.989978	0.000104	1.039374	0.352150	-0.008381
1220	6.0950e-01	-8.7527	-16.079352	0.000222	2.216625	0.751013	-0.017875
1221	6.1000e-01	-8.7992	-16.132805	0.000133	1.325732	0.449170	-0.010691
1222	6.1050e-01	-8.8233	-16.227310	0.000234	2.343895	0.794133	-0.018901
1223	6.1100e-01	-8.8522	-16.267507	0.000100	0.996951	0.337776	-0.008039
1224	6.1150e-01	-8.9003	-16.349611	0.000204	2.036325	0.689926	-0.016421
1225	6.1200e-01	-8.9612	-16.347473	-0.000005	-0.053029	-0.017967	0.000428
1226	6.1250e-01	-8.9837	-16.471057	0.000307	3.065094	1.038482	-0.024717
1227	6.1300e-01	-9.0254	-16.564706	0.000232	2.322683	0.786946	-0.018730
1228	6.1350e-01	-9.0511	-16.563424	-0.000003	-0.031818	-0.010780	0.000257
1229	6.1400e-01	-9.0944	-16.648949	0.000212	2.121172	0.718673	-0.017105
1230	6.1450e-01	-9.1233	-16.701974	0.000132	1.315127	0.445577	-0.010605
1231	6.1500e-01	-9.1778	-16.784506	0.000205	2.046931	0.693519	-0.016506
1232	6.1550e-01	-9.2195	-16.815295	0.000076	0.763622	0.258722	-0.006158
1233	6.1600e-01	-9.2468	-16.863617	0.000120	1.198462	0.406050	-0.009664
1234	6.1650e-01	-9.3062	-16.960687	0.000241	2.407530	0.815693	-0.019414
1235	6.1700e-01	-9.3495	-16.992759	0.000080	0.795439	0.269502	-0.006414
1236	6.1750e-01	-9.3912	-17.047923	0.000137	1.368156	0.463544	-0.011033
1237	6.1800e-01	-9.4281	-17.148415	0.000249	2.492377	0.844440	-0.020098
1238	6.1850e-01	-9.4602	-17.215980	0.000168	1.675726	0.567751	-0.013513
1239	6.1900e-01	-9.5019	-17.286110	0.000174	1.739361	0.589311	-0.014026
1240	6.1950e-01	-9.5436	-17.335287	0.000122	1.219674	0.413237	-0.009835
1241	6.2000e-01	-9.5949	-17.366504	0.000077	0.774228	0.262315	-0.006243
1242	6.2050e-01	-9.6142	-17.470417	0.000258	2.577224	0.873187	-0.020783
1243	6.2100e-01	-9.6591	-17.518311	0.000119	1.187856	0.402457	-0.009579
1244	6.2150e-01	-9.6912	-17.620941	0.000255	2.545406	0.862407	-0.020526
1245	6.2200e-01	-9.7200	-17.622224	0.000003	0.031818	0.010780	-0.000257
1246	6.2250e-01	-9.7970	-17.734689	0.000279	2.789341	0.945054	-0.022493
1247	6.2300e-01	-9.7954	-17.777452	-0.000106	-1.060586	-0.359336	-0.008553
1248	6.2350e-01	-9.8468	-17.856562	0.000196	1.962084	0.664772	-0.015822
1249	6.2400e-01	-9.8997	-17.906595	0.000124	1.240886	0.420423	-0.010006
1250	6.2450e-01	-9.9478	-17.921989	0.000038	0.381811	0.129361	-0.003079
1251	6.2500e-01	-9.9719	-18.039586	0.000292	2.916611	0.988175	-0.023519
1252	6.2550e-01	-10.0249	-18.060967	0.000053	0.530293	0.179668	-0.004276
1253	6.2600e-01	-10.0489	-18.161459	0.000249	2.492377	0.844440	-0.020098
1254	6.2650e-01	-10.0890	-18.152479	-0.000022	-0.222723	-0.075461	0.001796
1255	6.2700e-01	-10.1420	-18.264089	0.000277	2.768129	0.937868	-0.022322
1256	6.2750e-01	-10.1869	-18.329088	0.000161	1.612091	0.546191	-0.013000
1257	6.2800e-01	-10.2398	-18.394515	0.000162	1.622697	0.549784	-0.013085
1258	6.2850e-01	-10.2655	-18.403923	0.000023	0.233329	0.079054	-0.001882
1259	6.2900e-01	-10.2992	-18.514678	0.000275	2.746918	0.930681	-0.022151
1260	6.2950e-01	-10.3168	-18.572407	0.000143	1.431791	0.485104	-0.011546
1261	6.3000e-01	-10.3649	-18.593788	0.000053	0.530293	0.179668	-0.004276
1262	6.3050e-01	-10.4195	-18.681879	0.000218	2.184807	0.740233	-0.017618
1263	6.3100e-01	-10.4403	-18.760562	0.000195	1.951478	0.661179	-0.015737
1264	6.3150e-01	-10.4917	-18.849936	0.000222	2.216625	0.751013	-0.017875
1265	6.3200e-01	-10.5270	-18.862765	0.000032	0.318176	0.107801	-0.002566
1266	6.3250e-01	-10.5799	-18.933323	0.000175	1.749967	0.592905	-0.014112
1267	6.3300e-01	-10.6168	-18.979506	0.000115	1.145433	0.388083	-0.009237
1268	6.3350e-01	-10.6714	-19.030821	0.000127	1.272703	0.431204	-0.010263
1269	6.3400e-01	-10.7179	-19.096248	0.000162	1.622697	0.549784	-0.013085
1270	6.3450e-01	-10.7387	-19.177069	0.000200	2.004508	0.679146	-0.016164
1271	6.3500e-01	-10.7853	-19.208714	0.000078	0.784834	0.265909	-0.006329
1272	6.3550e-01	-10.8302	-19.308778	0.000248	2.481771	0.840847	-0.020013
1273	6.3600e-01	-10.8639	-19.334435	0.000064	0.636352	0.215602	-0.005132
1274	6.3650e-01	-10.9120	-19.347692	0.000033	0.328782	0.111394	-0.002651
1275	6.3700e-01	-10.9345	-19.472131	0.000309	3.086305	1.045669	-0.024888
1276	6.3750e-01	-10.9922	-19.513183	0.000102	1.018163	0.344963	-0.008210
1277	6.3800e-01	-11.0211	-19.583313	0.000174	1.739361	0.589311	-0.014026
1278	6.3850e-01	-11.0516	-19.610681	0.000068	0.678775	0.229975	-0.005474
1279	6.3900e-01	-11.0965	-19.683378	0.000180	1.802996	0.610872	-0.014539
1280	6.3950e-01	-11.1398	-19.737258	0.000134	1.336338	0.452764	-0.010776
1281	6.4000e-01	-11.1879	-19.816369	0.000196	1.962084	0.664772	-0.015822
1282	6.4050e-01	-11.2088	-19.880940	0.000160	1.601485	0.542598	-0.012914
1283	6.4100e-01	-11.2553	-19.927124	0.000115	1.145433	0.388083	-0.009237
1284	6.4150e-01	-11.3114	-19.990840	0.000158	1.580273	0.535411	-0.012743
1285	6.4200e-01	-11.3419	-20.006662	0.000039	0.392417	0.132954	-0.003164
1286	6.4250e-01	-11.3676	-20.075938	0.000172	1.718149	0.582125	-0.013855
1287	6.4300e-01	-11.4302	-20.152910	0.000191	1.909055	0.646805	-0.015395
1288	6.4350e-01	-11.4558	-20.199521	0.000116	1.156039	0.391677	-0.009322
1289	6.4400e-01	-11.5007	-20.284619	0.000211	2.110566	0.715079	-0.017019
1290	6.4450e-01	-11.5409	-20.277349	-0.000018	-0.180300	-0.061087	0.001454
1291	6.4500e-01	-11.5810	-20.398795	0.000301	3.012064	1.020515	-0.024289
1292	6.4550e-01	-11.6146	-20.433005	0.000085	0.848469	0.287469	-0.006842
1293	6.4600e-01	-11.6451	-20.530076	0.000241	2.407530	0.815693	-0.019414
1294	6.4650e-01	-11.7045	-20.575404	0.000112	1.124221	0.380896	-0.009066
1295	6.4700e-01	-11.7654	-20.608331	0.000082	0.816651	0.276689	-0.006585
1296	6.4750e-01	-11.7911	-20.685731	0.000192	1.919661	0.650399	-0.015480
1297	6.4800e-01	-11.8296	-20.737046	0.000127	1.272703	0.431204	-0.010263
1298	6.4850e-01	-11.8553	-20.811025	0.000183	1.834814	0.621652	-0.014796
1299	6.4900e-01	-11.8858	-20.886287	0.000187	1.866631	0.632432	-0.015052
1300	6.4950e-01	-11.9547	-20.903392	0.000042	0.424234	0.143735	-0.003421
1301	6.5000e-01	-11.9756	-20.931188	0.000069	0.689381	0.233569	-0.005559
1302	6.5050e-01	-12.0301	-21.030397	0.000246	2.460560	0.833660	-0.019842
1303	6.5100e-01	-12.0462	-21.100100	0.000173	1.728755	0.585718	-0.013941
1304	6.5150e-01	-12.1007	-21.149277	0.000122	1.219674	0.413237	-0.009835
1305	6.5200e-01	-12.1408	-21.227105	0.000193	1.930267	0.653992	-0.015566
1306	6.5250e-01	-12.1777	-21.253190	0.000065	0.646957	0.219195	-0.005217
1307	6.5300e-01	-12.2194	-21.295952	0.000106	1.060586	0.359336	-0.008553
1308	6.5350e-01	-12.2595	-21.371642	0.000188	1.877237	0.636025	-0.015138
1309	6.5400e-01	-12.3125	-21.400721	0.000072	0.721198	0.244349	-0.005816
1310	6.5450e-01	-12.3398	-21.512759	0.000278	2.778735	0.941461	-0.022408
1311	6.5500e-01	-12.3991	-21.493088	-0.000049	-0.487870	-0.165295	0.003934
1312	6.5550e-01	-12.4424	-21.591442	0.000244	2.439348	0.826473	-0.019671
1313	6.5600e-01	-12.4537	-21.635915	0.000110	1.103009	0.373710	-0.008895
1314	6.5650e-01	-12.4873	-21.753084	0.000291	2.906006	0.984581	-0.023434
1315	6.5700e-01	-12.5242	-21.776603	0.000058	0.583322	0.197635	-0.004704
1316	6.5750e-01	-12.5868	-21.839037	0.000155	1.548456	0.524631	-0.012487
1317	6.5800e-01	-12.6125	-21.854859	0.000039	0.392417	0.132954	-0.003164
1318	6.5850e-01	-12.6702	-21.945943	0.000226	2.259048	0.765386	-0.018217
1319	6.5900e-01	-12.7264	-21.964758	0.000047	0.466658	0.158108	-0.003763
1320	6.5950e-01	-12.7312	-22.037027	0.000179	1.792390	0.607278	-0.014454
1321	6.6000e-01	-12.7825	-22.088770	0.000128	1.283309	0.434797	-0.010349
1322	6.6050e-01	-12.8050	-22.168308	0.000197	1.972690	0.668365	-0.015908
1323	6.6100e-01	-12.8579	-22.245708	0.000192	1.919661	0.650399	-0.015480
1324	6.6150e-01	-12.8547	-22.339358	-0.000232	-2.322683	-0.786946	-0.018730
1325	6.6200e-01	-12.9462	-22.329523	-0.000024	-0.243935	-0.082647	0.001967
1326	6.6250e-01	-12.9638	-22.384259	0.000136	1.357550	0.459950	-0.010947
1327	6.6300e-01	-13.0087	-22.457383	0.000181	1.813602	0.614465	-0.014625
1328	6.6350e-01	-13.0456	-22.464225	0.000017	0.169694	0.057494	-0.001368
1329	6.6400e-01	-13.0954	-22.535211	0.000176	1.760573	0.596498	-0.014197
1330	6.6450e-01	-13.1322	-22.557019	0.000054	0.540899	0.183261	-0.004362
1331	6.6500e-01	-13.1691	-22.676755	0.000297	2.969641	1.006142	-0.023947
1332	6.6550e-01	-13.2285	-22.705833	0.000072	0.721198	0.244349	-0.005816
1333	6.6600e-01	-13.2830	-22.730208	0.000060	0.604534	0.204822	-0.004875
1334	6.6650e-01	-13.2959	-22.825140	0.000235	2.354501	0.797727	-0.018987
1335	6.6700e-01	-13.3424	-22.864482	0.000098	0.975739	0.330589	-0.007868
1336	6.6750e-01	-13.3745	-22.920073	0.000138	1.378762	0.467137	-0.011118
1337	6.6800e-01	-13.4226	-22.965402	0.000112	1.124221	0.380896	-0.009066
1338	6.6850e-01	-13.4659	-23.056913	0.000227	2.269654	0.768980	-0.018302
1339	6.6900e-01	-13.5141	-23.078295	0.000053	0.530293	0.179668	-0.004276
1340	6.6950e-01	-13.5429	-23.110367	0.000080	0.795439	0.269502	-0.006414
1341	6.7000e-01	-13.5702	-23.215990	0.000262	2.619647	0.887561	-0.021125
1342	6.7050e-01	-13.6215	-23.276713	0.000151	1.506032	0.510257	-0.012145
1343	6.7100e-01	-13.6633	-23.296811	0.000050	0.498475	0.168888	-0.004020
1344	6.7150e-01	-13.7034	-23.363521	0.000165	1.654514	0.560565	-0.013342
1345	6.7200e-01	-13.7515	-23.418257	0.000136	1.357550	0.459950	-0.010947
1346	6.7250e-01	-13.7755	-23.489670	0.000177	1.771179	0.600092	-0.014283
1347	6.7300e-01	-13.8365	-23.494802	0.000013	0.127270	0.043120	-0.001026
1348	6.7350e-01	-13.8542	-23.577333	0.000205	2.046931	0.693519	-0.016506
1349	6.7400e-01	-13.8943	-23.643188	0.000163	1.633302	0.553378	-0.013171
1350	6.7450e-01	-13.9312	-23.692792	0.000123	1.230280	0.416830	-0.009921
1351	6.7500e-01	-13.9841	-23.758646	0.000163	1.633302	0.553378	-0.013171
1352	6.7550e-01	-14.0017	-23.753943	-0.000012	-0.116664	-0.039527	0.000941
1353	6.7600e-01	-14.0579	-23.885651	0.000327	3.266605	1.106756	-0.026342
1354	6.7650e-01	-14.0836	-23.907888	0.000055	0.551505	0.186855	-0.004447
1355	6.7700e-01	-14.1541	-23.958775	0.000126	1.262097	0.427610	-0.010177
1356	6.7750e-01	-14.1991	-23.954926	-0.000010	-0.095453	-0.032340	0.000770
1357	6.7800e-01	-14.2311	-24.040024	0.000211	2.110566	0.715079	-0.017019
1358	6.7850e-01	-14.2664	-24.137950	0.000243	2.428742	0.822880	-0.019585
1359	6.7900e-01	-14.3001	-24.165318	0.000068	0.678775	0.229975	-0.005474
1360	6.7950e-01	-14.3370	-24.237587	0.000179	1.792390	0.607278	-0.014454
1361	6.8000e-01	-14.3932	-24.280777	0.000107	1.071192	0.362930	-0.008638
1362	6.8050e-01	-14.4317	-24.307290	0.000066	0.657563	0.222788	-0.005303
1363	6.8100e-01	-14.4638	-24.414196	0.000265	2.651465	0.898341	-0.021381
1364	6.8150e-01	-14.4910	-24.454820	0.000101	1.007557	0.341369	-0.008125
1365	6.8200e-01	-14.5295	-24.543339	0.000220	2.195413	0.743826	-0.017704
1366	6.8250e-01	-14.5841	-24.539063	-0.000011	-0.106059	-0.035934	0.000855
1367	6.8300e-01	-14.6274	-24.590378	0.000127	1.272703	0.431204	-0.010263
1368	6.8350e-01	-14.6611	-24.651100	0.000151	1.506032	0.510257	-0.012145
1369	6.8400e-01	-14.6531	-24.740474	-0.000222	-2.216625	-0.751013	-0.017875
1370	6.8450e-01	-14.7349	-24.758007	0.000043	0.434840	0.147328	-0.003507
1371	6.8500e-01	-14.7830	-24.817447	0.000147	1.474215	0.499477	-0.011888
1372	6.8550e-01	-14.8247	-24.868762	0.000127	1.272703	0.431204	-0.010263
1373	6.8600e-01	-14.8440	-24.938037	0.000172	1.718149	0.582125	-0.013855
1374	6.8650e-01	-14.8809	-24.991062	0.000132	1.315127	0.445577	-0.010605
1375	6.8700e-01	-14.9402	-25.078298	0.000216	2.163595	0.733046	-0.017447
1376	6.8750e-01	-15.0044	-25.059910	-0.000046	-0.456052	-0.154515	0.003678
1377	6.8800e-01	-15.0140	-25.115074	0.000137	1.368156	0.463544	-0.011033
1378	6.8850e-01	-15.0413	-25.226684	0.000277	2.768129	0.937868	-0.022322
1379	6.8900e-01	-15.0894	-25.228395	0.000004	0.042423	0.014373	-0.000342
1380	6.8950e-01	-15.1231	-25.285269	0.000141	1.410579	0.477917	-0.011375
1381	6.9000e-01	-15.1664	-25.356254	0.000176	1.760573	0.596498	-0.014197
1382	6.9050e-01	-15.2129	-25.399872	0.000108	1.081798	0.366523	-0.008724
1383	6.9100e-01	-15.2691	-25.446056	0.000115	1.145433	0.388083	-0.009237
1384	6.9150e-01	-15.3044	-25.507634	0.000153	1.527244	0.517444	-0.012316
1385	6.9200e-01	-15.3589	-25.535857	0.000070	0.699987	0.237162	-0.005645
1386	6.9250e-01	-15.3910	-25.608553	0.000180	1.802996	0.610872	-0.014539
1387	6.9300e-01	-15.4183	-25.645329	0.000091	0.912104	0.309029	-0.007355
1388	6.9350e-01	-15.4600	-25.701776	0.000140	1.399974	0.474324	-0.011289
1389	6.9400e-01	-15.5097	-25.777038	0.000187	1.866631	0.632432	-0.015052
1390	6.9450e-01	-15.5643	-25.819373	0.000105	1.049980	0.355743	-0.008467
1391	6.9500e-01	-15.5739	-25.857431	0.000094	0.943922	0.319809	-0.007612
1392	6.9550e-01	-15.6316	-25.914733	0.000142	1.421185	0.481511	-0.011460
1393	6.9600e-01	-15.6685	-25.953647	0.000097	0.965133	0.326996	-0.007783
1394	6.9650e-01	-15.6878	-26.027626	0.000183	1.834814	0.621652	-0.014796
1395	6.9700e-01	-15.7439	-26.105026	0.000192	1.919661	0.650399	-0.015480
1396	6.9750e-01	-15.7969	-26.170025	0.000161	1.612091	0.546191	-0.013000
1397	6.9800e-01	-15.8081	-26.174729	0.000012	0.116664	0.039527	-0.000941
1398	6.9850e-01	-15.8514	-26.262392	0.000217	2.174201	0.736639	-0.017533
1399	6.9900e-01	-15.9092	-26.287195	0.000062	0.615140	0.208415	-0.004960
1400	6.9950e-01	-15.9525	-26.361174	0.000183	1.834814	0.621652	-0.014796
1401	7.0000e-01	-15.9942	-26.375713	0.000036	0.360599	0.122174	-0.002908
1402	7.0050e-01	-16.0070	-26.474067	0.000244	2.439348	0.826473	-0.019671
1403	7.0100e-01	-16.0632	-26.502718	0.000071	0.710593	0.240755	-0.005730
1404	7.0150e-01	-16.0905	-26.595940	0.000231	2.312077	0.783353	-0.018644
1405	7.0200e-01	-16.1274	-26.595940	-0.000000	-0.000000	-0.000000	0.000000
1406	7.0250e-01	-16.1787	-26.673768	0.000193	1.930267	0.653992	-0.015566
1407	7.0300e-01	-16.2140	-26.715675	0.000104	1.039374	0.352150	-0.008381
1408	7.0350e-01	-16.2685	-26.773405	0.000143	1.431791	0.485104	-0.011546
1409	7.0400e-01	-16.2862	-26.802483	0.000072	0.721198	0.244349	-0.005816
1410	7.0450e-01	-16.3375	-26.899982	0.000242	2.418136	0.819287	-0.019500
1411	7.0500e-01	-16.3872	-26.911100	0.000028	0.275752	0.093427	-0.002224
1412	7.0550e-01	-16.4306	-26.952152	0.000102	1.018163	0.344963	-0.008210
1413	7.0600e-01	-16.4771	-27.028697	0.000190	1.898449	0.643212	-0.015309
1414	7.0650e-01	-16.5188	-27.074025	0.000112	1.124221	0.380896	-0.009066
1415	7.0700e-01	-16.5685	-27.118498	0.000110	1.103009	0.373710	-0.008895
1416	7.0750e-01	-16.5878	-27.164682	0.000115	1.145433	0.388083	-0.009237
1417	7.0800e-01	-16.6199	-27.231391	0.000165	1.654514	0.560565	-0.013342
1418	7.0850e-01	-16.6600	-27.308364	0.000191	1.909055	0.646805	-0.015395
1419	7.0900e-01	-16.7161	-27.308364	-0.000000	-0.000000	-0.000000	0.000000
1420	7.0950e-01	-16.7289	-27.387902	0.000197	1.972690	0.668365	-0.015908
1421	7.1000e-01	-16.7787	-27.460171	0.000179	1.792390	0.607278	-0.014454
1422	7.1050e-01	-16.8268	-27.483263	0.000057	0.572716	0.194042	-0.004618
1423	7.1100e-01	-16.8557	-27.514479	0.000077	0.774228	0.262315	-0.006243
1424	7.1150e-01	-16.8862	-27.604281	0.000223	2.227231	0.754606	-0.017960
1425	7.1200e-01	-16.9503	-27.659872	0.000138	1.378762	0.467137	-0.011118
1426	7.1250e-01	-16.9632	-27.724443	0.000160	1.601485	0.542598	-0.012914
1427	7.1300e-01	-17.0113	-27.747963	0.000058	0.583322	0.197635	-0.004704
1428	7.1350e-01	-17.0418	-27.782600	0.000086	0.859075	0.291062	-0.006928
1429	7.1400e-01	-17.0899	-27.883520	0.000250	2.502983	0.848034	-0.020184
1430	7.1450e-01	-17.1300	-27.911743	0.000070	0.699987	0.237162	-0.005645
1431	7.1500e-01	-17.1813	-27.981446	0.000173	1.728755	0.585718	-0.013941
1432	7.1550e-01	-17.2455	-27.999834	0.000046	0.456052	0.154515	-0.003678
1433	7.1600e-01	-17.2407	-28.065261	-0.000162	-1.622697	-0.549784	-0.013085
1434	7.1650e-01	-17.3081	-28.079372	0.000035	0.349993	0.118581	-0.002822
1435	7.1700e-01	-17.3017	-28.174305	-0.000235	-2.354501	-0.797727	-0.018987
1436	7.1750e-01	-17.3851	-28.246574	0.000179	1.792390	0.607278	-0.014454
1437	7.1800e-01	-17.4123	-28.271804	0.000063	0.625746	0.212008	-0.005046
1438	7.1850e-01	-17.4605	-28.319698	0.000119	1.187856	0.402457	-0.009579
1439	7.1900e-01	-17.5134	-28.413775	0.000233	2.333289	0.790540	-0.018816
1440	7.1950e-01	-17.5262	-28.436867	0.000057	0.572716	0.194042	-0.004618
1441	7.2000e-01	-17.5680	-28.508708	0.000178	1.781784	0.603685	-0.014368
1442	7.2050e-01	-17.6097	-28.544201	0.000088	0.880286	0.298249	-0.007099
1443	7.2100e-01	-17.6690	-28.597654	0.000133	1.325732	0.449170	-0.010691
1444	7.2150e-01	-17.6979	-28.684890	0.000216	2.163595	0.733046	-0.017447
1445	7.2200e-01	-17.7107	-28.700284	0.000038	0.381811	0.129361	-0.003079
1446	7.2250e-01	-17.7765	-28.779395	0.000196	1.962084	0.664772	-0.015822
1447	7.2300e-01	-17.7813	-28.809756	0.000075	0.753016	0.255129	-0.006072
1448	7.2350e-01	-17.8760	-28.877321	0.000168	1.675726	0.567751	-0.013513
1449	7.2400e-01	-17.9113	-28.901696	0.000060	0.604534	0.204822	-0.004875
1450	7.2450e-01	-17.9690	-28.905544	0.000010	0.095453	0.032340	-0.000770
1451	7.2500e-01	-17.9658	-29.012878	-0.000266	-2.662071	-0.901934	-0.021467
1452	7.2550e-01	-18.0236	-29.086002	0.000181	1.813602	0.614465	-0.014625
1453	7.2600e-01	-18.0428	-29.124916	0.000097	0.965133	0.326996	-0.007783
1454	7.2650e-01	-18.0877	-29.159981	0.000087	0.869681	0.294656	-0.007013
1455	7.2700e-01	-18.1375	-29.225408	0.000162	1.622697	0.549784	-0.013085
1456	7.2750e-01	-18.1663	-29.264749	0.000098	0.975739	0.330589	-0.007868
1457	7.2800e-01	-18.1936	-29.340867	0.000189	1.887843	0.639619	-0.015223
1458	7.2850e-01	-18.2257	-29.369090	0.000070	0.699987	0.237162	-0.005645
1459	7.2900e-01	-18.2963	-29.446490	0.000192	1.919661	0.650399	-0.015480
1460	7.2950e-01	-18.3380	-29.476424	0.000074	0.742410	0.251535	-0.005987
1461	7.3000e-01	-18.3861	-29.532871	0.000140	1.399974	0.474324	-0.011289
1462	7.3050e-01	-18.4278	-29.547410	0.000036	0.360599	0.122174	-0.002908
1463	7.3100e-01	-18.4695	-29.632507	0.000211	2.110566	0.715079	-0.017019
1464	7.3150e-01	-18.5241	-29.667145	0.000086	0.859075	0.291062	-0.006928
1465	7.3200e-01	-18.5433	-29.783459	0.000288	2.884794	0.977395	-0.023263
1466	7.3250e-01	-18.5979	-29.785169	0.000004	0.042423	0.014373	-0.000342
1467	7.3300e-01	-18.6476	-29.836912	0.000128	1.283309	0.434797	-0.010349
1468	7.3350e-01	-18.6476	-29.887800	0.000126	1.262097	0.427610	-0.010177
1469	7.3400e-01	-18.7150	-29.961779	0.000183	1.834814	0.621652	-0.014796
1470	7.3450e-01	-18.7118	-29.987864	-0.000065	-0.646957	-0.219195	-0.005217
1471	7.3500e-01	-18.7695	-30.079376	0.000227	2.269654	0.768980	-0.018302
1472	7.3550e-01	-18.8417	-30.118717	0.000098	0.975739	0.330589	-0.007868
1473	7.3600e-01	-18.8786	-30.160624	0.000104	1.039374	0.352150	-0.008381
1474	7.3650e-01	-18.8866	-30.212795	0.000129	1.293915	0.438390	-0.010434
1475	7.3700e-01	-18.9316	-30.263682	0.000126	1.262097	0.427610	-0.010177
1476	7.3750e-01	-18.9861	-30.327826	0.000159	1.590879	0.539004	-0.012829
1477	7.3800e-01	-19.0037	-30.404798	0.000191	1.909055	0.646805	-0.015395
1478	7.3850e-01	-19.0535	-30.461673	0.000141	1.410579	0.477917	-0.011375
1479	7.3900e-01	-19.0936	-30.509567	0.000119	1.187856	0.402457	-0.009579
1480	7.3950e-01	-19.1273	-30.559599	0.000124	1.240886	0.420423	-0.010006
1481	7.4000e-01	-19.1818	-30.601078	0.000103	1.028768	0.348556	-0.008296
1482	7.4050e-01	-19.2267	-30.631012	0.000074	0.742410	0.251535	-0.005987
1483	7.4100e-01	-19.2829	-30.731077	0.000248	2.481771	0.840847	-0.020013
1484	7.4150e-01	-19.3294	-30.724662	-0.000016	-0.159088	-0.053900	0.001283
1485	7.4200e-01	-19.2813	-30.856798	-0.000328	-3.277211	-1.110349	-0.026427
1486	7.4250e-01	-19.3791	-30.912817	0.000139	1.389368	0.470731	-0.011204
1487	7.4300e-01	-19.4032	-30.923936	0.000028	0.275752	0.093427	-0.002224
1488	7.4350e-01	-19.4626	-30.954725	0.000076	0.763622	0.258722	-0.006158
1489	7.4400e-01	-19.4802	-31.036401	0.000203	2.025719	0.686332	-0.016335
1490	7.4450e-01	-19.5299	-31.080874	0.000110	1.103009	0.373710	-0.008895
1491	7.4500e-01	-19.5748	-31.119360	0.000095	0.954527	0.323403	-0.007697
1492	7.4550e-01	-19.6069	-31.213010	0.000232	2.322683	0.786946	-0.018730
1493	7.4600e-01	-19.6278	-31.206168	-0.000017	-0.169694	-0.057494	0.001368
1494	7.4650e-01	-19.7016	-31.309226	0.000256	2.556012	0.866000	-0.020612
1495	7.4700e-01	-19.7289	-31.398600	0.000222	2.216625	0.751013	-0.017875
1496	7.4750e-01	-19.7690	-31.386626	-0.000030	-0.296964	-0.100614	0.002395
1497	7.4800e-01	-19.8075	-31.443073	0.000140	1.399974	0.474324	-0.011289
1498	7.4850e-01	-19.8668	-31.510637	0.000168	1.675726	0.567751	-0.013513
1499	7.4900e-01	-19.8780	-31.572643	0.000154	1.537850	0.521038	-0.012401
1500	7.4950e-01	-19.9262	-31.593169	0.000051	0.509081	0.172481	-0.004105
1501	7.5000e-01	-19.9807	-31.682115	0.000221	2.206019	0.747419	-0.017789
1502	7.5050e-01	-19.9230	-31.645767	0.000090	0.901498	0.305436	0.007270
1503	7.5100e-01	-19.8877	-31.607281	0.000095	0.954527	0.323403	0.007697
1504	7.5150e-01	-19.8187	-31.590603	0.000041	0.413629	0.140141	0.003335
1505	7.5200e-01	-19.8043	-31.563663	0.000067	0.668169	0.226382	0.005388
1506	7.5250e-01	-19.7545	-31.553828	0.000024	0.243935	0.082647	0.001967
1507	7.5300e-01	-19.7369	-31.486690	0.000167	1.665120	0.564158	0.013427
1508	7.5350e-01	-19.6647	-31.490111	-0.000008	-0.084847	-0.028747	-0.000684
1509	7.5400e-01	-19.6134	-31.457612	0.000081	0.806045	0.273096	0.006500
1510	7.5450e-01	-19.5957	-31.432382	0.000063	0.625746	0.212008	0.005046
1511	7.5500e-01	-19.5588	-31.363534	0.000171	1.707543	0.578531	0.013770
1512	7.5550e-01	-19.5043	-31.366528	-0.000007	-0.074241	-0.025154	-0.000599
1513	7.5600e-01	-19.4754	-31.287417	0.000196	1.962084	0.664772	0.015822
1514	7.5650e-01	-19.4224	-31.271595	0.000039	0.392417	0.132954	0.003164
1515	7.5700e-01	-19.4048	-31.198899	0.000180	1.802996	0.610872	0.014539
1516	7.5750e-01	-19.3711	-31.186070	0.000032	0.318176	0.107801	0.002566
1517	7.5800e-01	-19.3326	-31.153143	0.000082	0.816651	0.276689	0.006585
1518	7.5850e-01	-19.3037	-31.111235	0.000104	1.039374	0.352150	0.008381
1519	7.5900e-01	-19.2652	-31.069328	0.000104	1.039374	0.352150	0.008381
1520	7.5950e-01	-19.1914	-31.052223	0.000042	0.424234	0.143735	0.003421
1521	7.6000e-01	-19.1449	-31.026993	0.000063	0.625746	0.212008	0.005046
1522	7.6050e-01	-19.0936	-31.012882	0.000035	0.349993	0.118581	0.002822
1523	7.6100e-01	-19.0663	-30.932916	0.000198	1.983296	0.671959	0.015993
1524	7.6150e-01	-19.0310	-30.935481	-0.000006	-0.063635	-0.021560	-0.000513
1525	7.6200e-01	-18.9749	-30.925646	0.000024	0.243935	0.082647	0.001967
1526	7.6250e-01	-18.9540	-30.861075	0.000160	1.601485	0.542598	0.012914
1527	7.6300e-01	-18.9075	-30.806339	0.000136	1.357550	0.459950	0.010947
1528	7.6350e-01	-18.8738	-30.770418	0.000089	0.890892	0.301842	0.007184
1529	7.6400e-01	-18.8305	-30.729794	0.000101	1.007557	0.341369	0.008125
1530	7.6450e-01	-18.7904	-30.706274	0.000058	0.583322	0.197635	0.004704
1531	7.6500e-01	-18.7503	-30.633578	0.000180	1.802996	0.610872	0.014539
1532	7.6550e-01	-18.7150	-30.639137	-0.000014	-0.137876	-0.046714	-0.001112
1533	7.6600e-01	-18.6941	-30.546770	0.000229	2.290866	0.776166	0.018473
1534	7.6650e-01	-18.6380	-30.496310	0.000125	1.251491	0.424017	0.010092
1535	7.6700e-01	-18.5834	-30.515553	-0.000048	-0.477264	-0.161701	-0.003849
1536	7.6750e-01	-18.5626	-30.427035	0.000220	2.195413	0.743826	0.017704
1537	7.6800e-01	-18.5225	-30.449271	-0.000055	-0.551505	-0.186855	-0.004447
1538	7.6850e-01	-18.4727	-30.378286	0.000176	1.760573	0.596498	0.014197
1539	7.6900e-01	-18.4439	-30.317563	0.000151	1.506032	0.510257	0.012145
1540	7.6950e-01	-18.3797	-30.342365	-0.000062	-0.615140	-0.208415	-0.004960
1541	7.7000e-01	-18.3653	-30.245294	0.000241	2.407530	0.815693	0.019414
1542	7.7050e-01	-18.3123	-30.213650	0.000078	0.784834	0.265909	0.006329
1543	7.7100e-01	-18.2899	-30.143092	0.000175	1.749967	0.592905	0.014112
1544	7.7150e-01	-18.2465	-30.106744	0.000090	0.901498	0.305436	0.007270
1545	7.7200e-01	-18.1968	-30.084935	0.000054	0.540899	0.183261	0.004362
1546	7.7250e-01	-18.1760	-30.062698	0.000055	0.551505	0.186855	0.004447
1547	7.7300e-01	-18.0845	-30.014377	0.000120	1.198462	0.406050	0.009664
1548	7.7350e-01	-18.0588	-29.976318	0.000094	0.943922	0.319809	0.007612
1549	7.7400e-01	-18.0268	-29.879247	0.000241	2.407530	0.815693	0.019414
1550	7.7450e-01	-18.0011	-29.890365	-0.000028	-0.275752	-0.093427	-0.002224
1551	7.7500e-01	-17.9546	-29.836484	0.000134	1.336338	0.452764	0.010776
1552	7.7550e-01	-17.9064	-29.792867	0.000108	1.081798	0.366523	0.008724
1553	7.7600e-01	-17.8631	-29.730006	0.000156	1.559061	0.528224	0.012572
1554	7.7650e-01	-17.8134	-29.719743	0.000025	0.254541	0.086241	0.002053
1555	7.7700e-01	-17.7893	-29.656027	0.000158	1.580273	0.535411	0.012743
1556	7.7750e-01	-17.7589	-29.682539	-0.000066	-0.657563	-0.222788	-0.005303
1557	7.7800e-01	-17.7075	-29.592738	0.000223	2.227231	0.754606	0.017960
1558	7.7850e-01	-17.6674	-29.535009	0.000143	1.431791	0.485104	0.011546
1559	7.7900e-01	-17.6032	-29.513200	0.000054	0.540899	0.183261	0.004362
1560	7.7950e-01	-17.5583	-29.484977	0.000070	0.699987	0.237162	0.005645
1561	7.8000e-01	-17.5631	-29.413563	-0.000177	-1.771179	-0.600092	0.014283
1562	7.8050e-01	-17.5166	-29.351130	0.000155	1.548456	0.524631	0.012487
1563	7.8100e-01	-17.4605	-29.354551	-0.000008	-0.084847	-0.028747	-0.000684
1564	7.8150e-01	-17.4492	-29.320341	0.000085	0.848469	0.287469	0.006842
1565	7.8200e-01	-17.4107	-29.221559	0.000245	2.449954	0.830067	0.019756
1566	7.8250e-01	-17.3450	-29.219849	0.000004	0.042423	0.014373	0.000342
1567	7.8300e-01	-17.3081	-29.177514	0.000105	1.049980	0.355743	0.008467
1568	7.8350e-01	-17.2567	-29.100969	0.000190	1.898449	0.643212	0.015309
1569	7.8400e-01	-17.2375	-29.097120	0.000010	0.095453	0.032340	0.000770
1570	7.8450e-01	-17.1845	-29.099259	-0.000005	-0.053029	-0.017967	-0.000428
1571	7.8500e-01	-17.1605	-28.961136	0.000343	3.425693	1.160656	0.027625
1572	7.8550e-01	-17.1204	-28.985938	-0.000062	-0.615140	-0.208415	-0.004960
1573	7.8600e-01	-17.0546	-28.912386	0.000182	1.824208	0.618058	0.014710
1574	7.8650e-01	-17.0450	-28.873045	0.000098	0.975739	0.330589	0.007868
1575	7.8700e-01	-17.0001	-28.761862	0.000276	2.757524	0.934274	0.022237
1576	7.8750e-01	-16.9247	-28.784526	-0.000056	-0.562111	-0.190448	-0.004533
1577	7.8800e-01	-16.9118	-28.734494	0.000124	1.240886	0.420423	0.010006
1578	7.8850e-01	-16.8589	-28.703277	0.000077	0.774228	0.262315	0.006243
1579	7.8900e-01	-16.8140	-28.700712	0.000006	0.063635	0.021560	0.000513
1580	7.8950e-01	-16.8092	-28.586963	0.000282	2.821159	0.955834	0.022750
1581	7.9000e-01	-16.7386	-28.562589	0.000060	0.604534	0.204822	0.004875
1582	7.9050e-01	-16.7129	-28.552326	0.000025	0.254541	0.086241	0.002053
1583	7.9100e-01	-16.6519	-28.479202	0.000181	1.813602	0.614465	0.014625
1584	7.9150e-01	-16.6295	-28.454400	0.000062	0.615140	0.208415	0.004960
1585	7.9200e-01	-16.5765	-28.385124	0.000172	1.718149	0.582125	0.013855
1586	7.9250e-01	-16.5412	-28.387690	-0.000006	-0.063635	-0.021560	-0.000513
1587	7.9300e-01	-16.5380	-28.294895	0.000230	2.301472	0.779760	0.018559
1588	7.9350e-01	-16.4739	-28.252133	0.000106	1.060586	0.359336	0.008553
1589	7.9400e-01	-16.4161	-28.203811	0.000120	1.198462	0.406050	0.009664
1590	7.9450e-01	-16.3921	-28.185423	0.000046	0.456052	0.154515	0.003678
1591	7.9500e-01	-16.3455	-28.129832	0.000138	1.378762	0.467137	0.011118
1592	7.9550e-01	-16.3022	-28.112299	0.000043	0.434840	0.147328	0.003507
1593	7.9600e-01	-16.2717	-28.025491	0.000215	2.152990	0.729453	0.017362
1594	7.9650e-01	-16.2380	-28.009242	0.000040	0.403023	0.136548	0.003250
1595	7.9700e-01	-16.1915	-27.934835	0.000185	1.845420	0.625245	0.014881
1596	7.9750e-01	-16.1338	-27.896349	0.000095	0.954527	0.323403	0.007697
1597	7.9800e-01	-16.1241	-27.809113	0.000216	2.163595	0.733046	0.017447
1598	7.9850e-01	-16.0696	-27.814245	-0.000013	-0.127270	-0.043120	-0.001026
1599	7.9900e-01	-16.0279	-27.753522	0.000151	1.506032	0.510257	0.012145
1600	7.9950e-01	-15.9717	-27.767633	-0.000035	-0.349993	-0.118581	-0.002822
1601	8.0000e-01	-15.9381	-27.669707	0.000243	2.428742	0.822880	0.019585
1602	8.0050e-01	-15.8899	-27.643622	0.000065	0.646957	0.219195	0.005217
1603	8.0100e-01	-15.8562	-27.593590	0.000124	1.240886	0.420423	0.010006
1604	8.0150e-01	-15.8338	-27.537999	0.000138	1.378762	0.467137	0.011118
1605	8.0200e-01	-15.7760	-27.500368	0.000093	0.933316	0.316216	0.007526
1606	8.0250e-01	-15.7327	-27.464019	0.000090	0.901498	0.305436	0.007270
1607	8.0300e-01	-15.7054	-27.413560	0.000125	1.251491	0.424017	0.010092
1608	8.0350e-01	-15.6814	-27.354120	0.000147	1.474215	0.499477	0.011888
1609	8.0400e-01	-15.6332	-27.300667	0.000133	1.325732	0.449170	0.010691
1610	8.0450e-01	-15.5707	-27.273726	0.000067	0.668169	0.226382	0.005388
1611	8.0500e-01	-15.5466	-27.244648	0.000072	0.721198	0.244349	0.005816
1612	8.0550e-01	-15.4985	-27.195043	0.000123	1.230280	0.416830	0.009921
1613	8.0600e-01	-15.4472	-27.145439	0.000123	1.230280	0.416830	0.009921
1614	8.0650e-01	-15.4215	-27.086854	0.000145	1.453003	0.492291	0.011717
1615	8.0700e-01	-15.3718	-27.057348	0.000073	0.731804	0.247942	0.005901
1616	8.0750e-01	-15.3509	-26.983369	0.000183	1.834814	0.621652	0.014796
1617	8.0800e-01	-15.3060	-26.979520	0.000010	0.095453	0.032340	0.000770
1618	8.0850e-01	-15.2530	-26.904258	0.000187	1.866631	0.632432	0.015052
1619	8.0900e-01	-15.2210	-26.882021	0.000055	0.551505	0.186855	0.004447
1620	8.0950e-01	-15.1632	-26.831562	0.000125	1.251491	0.424017	0.010092
1621	8.1000e-01	-15.1632	-26.751596	-0.000198	-1.983296	-0.671959	0.015993
1622	8.1050e-01	-15.1006	-26.719096	0.000081	0.806045	0.273096	0.006500
1623	8.1100e-01	-15.0766	-26.690873	0.000070	0.699987	0.237162	0.005645
1624	8.1150e-01	-15.0252	-26.674623	0.000040	0.403023	0.136548	0.003250
1625	8.1200e-01	-14.9595	-26.604493	0.000174	1.739361	0.589311	0.014026
1626	8.1250e-01	-14.9242	-26.540776	0.000158	1.580273	0.535411	0.012743
1627	8.1300e-01	-14.8985	-26.517685	0.000057	0.572716	0.194042	0.004618
1628	8.1350e-01	-14.8632	-26.428739	0.000221	2.206019	0.747419	0.017789
1629	8.1400e-01	-14.8231	-26.372720	0.000139	1.389368	0.470731	0.011204
1630	8.1450e-01	-14.8103	-26.333378	0.000098	0.975739	0.330589	0.007868
1631	8.1500e-01	-14.7605	-26.281208	0.000129	1.293915	0.438390	0.010434
1632	8.1550e-01	-14.7028	-26.282491	-0.000003	-0.031818	-0.010780	-0.000257
1633	8.1600e-01	-14.6723	-26.180716	0.000252	2.524195	0.855220	0.020355
1634	8.1650e-01	-14.5937	-26.162328	0.000046	0.456052	0.154515	0.003678
1635	8.1700e-01	-14.5696	-26.087494	0.000186	1.856025	0.628838	0.014967
1636	8.1750e-01	-14.5360	-26.104599	-0.000042	-0.424234	-0.143735	-0.003421
1637	8.1800e-01	-14.5007	-26.025060	0.000197	1.972690	0.668365	0.015908
1638	8.1850e-01	-14.4750	-26.006245	0.000047	0.466658	0.158108	0.003763
1639	8.1900e-01	-14.4349	-25.934404	0.000178	1.781784	0.603685	0.014368
1640	8.1950e-01	-14.3643	-25.895918	0.000095	0.954527	0.323403	0.007697
1641	8.2000e-01	-14.3595	-25.842464	0.000133	1.325732	0.449170	0.010691
1642	8.2050e-01	-14.2985	-25.782597	0.000148	1.484820	0.503071	0.011974
1643	8.2100e-01	-14.2857	-25.752235	0.000075	0.753016	0.255129	0.006072
1644	8.2150e-01	-14.1975	-25.702203	0.000124	1.240886	0.420423	0.010006
1645	8.2200e-01	-14.1878	-25.627797	0.000185	1.845420	0.625245	0.014881
1646	8.2250e-01	-14.1317	-25.612402	0.000038	0.381811	0.129361	0.003079
1647	8.2300e-01	-14.1028	-25.544837	0.000168	1.675726	0.567751	0.013513
1648	8.2350e-01	-14.0451	-25.461878	0.000206	2.057537	0.697112	0.016592
1649	8.2400e-01	-14.0194	-25.484542	-0.000056	-0.562111	-0.190448	-0.004533
1650	8.2450e-01	-13.9793	-25.443062	0.000103	1.028768	0.348556	0.008296
1651	8.2500e-01	-13.9296	-25.360958	0.000204	2.036325	0.689926	0.016421
1652	8.2550e-01	-13.8750	-25.341288	0.000049	0.487870	0.165295	0.003934
1653	8.2600e-01	-13.8622	-25.283558	0.000143	1.431791	0.485104	0.011546
1654	8.2650e-01	-13.7868	-25.221980	0.000153	1.527244	0.517444	0.012316
1655	8.2700e-01	-13.7788	-25.168099	0.000134	1.336338	0.452764	0.010776
1656	8.2750e-01	-13.7547	-25.072311	0.000238	2.375713	0.804913	0.019158
1657	8.2800e-01	-13.7114	-25.066325	0.000015	0.148482	0.050307	0.001197
1658	8.2850e-01	-13.6633	-25.022707	0.000108	1.081798	0.366523	0.008724
1659	8.2900e-01	-13.6344	-24.944024	0.000195	1.951478	0.661179	0.015737
1660	8.2950e-01	-13.5766	-24.961556	-0.000043	-0.434840	-0.147328	-0.003507
1661	8.3000e-01	-13.5445	-24.878597	0.000206	2.057537	0.697112	0.016592
1662	8.3050e-01	-13.4820	-24.802907	0.000188	1.877237	0.636025	0.015138
1663	8.3100e-01	-13.4451	-24.776395	0.000066	0.657563	0.222788	0.005303
1664	8.3150e-01	-13.4082	-24.719948	0.000140	1.399974	0.474324	0.011289
1665	8.3200e-01	-13.3953	-24.645541	0.000185	1.845420	0.625245	0.014881
1666	8.3250e-01	-13.3167	-24.611331	0.000085	0.848469	0.287469	0.006842
1667	8.3300e-01	-13.3103	-24.580970	0.000075	0.753016	0.255129	0.006072
1668	8.3350e-01	-13.2494	-24.539490	0.000103	1.028768	0.348556	0.008296
1669	8.3400e-01	-13.2093	-24.515543	0.000059	0.593928	0.201228	0.004789
1670	8.3450e-01	-13.1820	-24.410347	0.000261	2.609042	0.883967	0.021039
1671	8.3500e-01	-13.1435	-24.371433	0.000097	0.965133	0.326996	0.007783
1672	8.3550e-01	-13.1050	-24.303869	0.000168	1.675726	0.567751	0.013513
1673	8.3600e-01	-13.0552	-24.313276	-0.000023	-0.233329	-0.079054	-0.001882
1674	8.3650e-01	-13.0183	-24.205942	0.000266	2.662071	0.901934	0.021467
1675	8.3700e-01	-12.9718	-24.218771	-0.000032	-0.318176	-0.107801	-0.002566
1676	8.3750e-01	-12.9317	-24.125549	0.000231	2.312077	0.783353	0.018644
1677	8.3800e-01	-12.9157	-24.055846	0.000173	1.728755	0.585718	0.013941
1678	8.3850e-01	-12.8499	-23.998972	0.000141	1.410579	0.477917	0.011375
1679	8.3900e-01	-12.8451	-23.933545	0.000162	1.622697	0.549784	0.013085
1680	8.3950e-01	-12.7745	-23.944663	-0.000028	-0.275752	-0.093427	-0.002224
1681	8.4000e-01	-12.7312	-23.908315	0.000090	0.901498	0.305436	0.007270
1682	8.4050e-01	-12.7071	-23.795422	0.000280	2.799947	0.948648	0.022579
1683	8.4100e-01	-12.6590	-23.746673	0.000121	1.209068	0.409643	0.009750
1684	8.4150e-01	-12.6189	-23.728285	0.000046	0.456052	0.154515	0.003678
1685	8.4200e-01	-12.6077	-23.648319	0.000198	1.983296	0.671959	0.015993
1686	8.4250e-01	-12.5275	-23.635918	0.000031	0.307570	0.104208	0.002480
1687	8.4300e-01	-12.5194	-23.544834	0.000226	2.259048	0.765386	0.018217
1688	8.4350e-01	-12.4633	-23.539702	0.000013	0.127270	0.043120	0.001026
1689	8.4400e-01	-12.4184	-23.502927	0.000091	0.912104	0.309029	0.007355
1690	8.4450e-01	-12.3895	-23.431513	0.000177	1.771179	0.600092	0.014283
1691	8.4500e-01	-12.3414	-23.381053	0.000125	1.251491	0.424017	0.010092
1692	8.4550e-01	-12.3029	-23.289969	0.000226	2.259048	0.765386	0.018217
1693	8.4600e-01	-12.2660	-23.287831	0.000005	0.053029	0.017967	0.000428
1694	8.4650e-01	-12.2178	-23.219411	0.000170	1.696938	0.574938	0.013684
1695	8.4700e-01	-12.1858	-23.187767	0.000078	0.784834	0.265909	0.006329
1696	8.4750e-01	-12.1280	-23.137735	0.000124	1.240886	0.420423	0.010006
1697	8.4800e-01	-12.1184	-22.992770	0.000360	3.595387	1.218150	0.028993
1698	8.4850e-01	-12.0622	-23.041091	-0.000120	-1.198462	-0.406050	-0.009664
1699	8.4900e-01	-12.0093	-22.960270	0.000200	2.004508	0.679146	0.016164
1700	8.4950e-01	-11.9708	-22.911093	0.000122	1.219674	0.413237	0.009835
1701	8.5000e-01	-11.9291	-22.852081	0.000146	1.463609	0.495884	0.011802
1702	8.5050e-01	-11.9050	-22.813595	0.000095	0.954527	0.323403	0.007697
1703	8.5100e-01	-11.8104	-22.799911	0.000034	0.339388	0.114988	0.002737
1704	8.5150e-01	-11.8184	-22.706261	-0.000232	-2.322683	-0.786946	0.018730
1705	8.5200e-01	-11.7670	-22.651525	0.000136	1.357550	0.459950	0.010947
1706	8.5250e-01	-11.7430	-22.594650	0.000141	1.410579	0.477917	0.011375
1707	8.5300e-01	-11.6740	-22.596789	-0.000005	-0.053029	-0.017967	-0.000428
1708	8.5350e-01	-11.6676	-22.491593	0.000261	2.609042	0.883967	0.021039
1709	8.5400e-01	-11.6082	-22.453106	0.000095	0.954527	0.323403	0.007697
1710	8.5450e-01	-11.5697	-22.387252	0.000163	1.633302	0.553378	0.013171
1711	8.5500e-01	-11.5441	-22.293175	0.000233	2.333289	0.790540	0.018816
1712	8.5550e-01	-11.4975	-22.312845	-0.000049	-0.487870	-0.165295	-0.003934
1713	8.5600e-01	-11.4687	-22.236728	0.000189	1.887843	0.639619	0.015223
1714	8.5650e-01	-11.4318	-22.184130	0.000130	1.304521	0.441984	0.010520
1715	8.5700e-01	-11.3708	-22.144789	0.000098	0.975739	0.330589	0.007868
1716	8.5750e-01	-11.3307	-22.075086	0.000173	1.728755	0.585718	0.013941
1717	8.5800e-01	-11.3130	-22.004955	0.000174	1.739361	0.589311	0.014026
1718	8.5850e-01	-11.2312	-22.020350	-0.000038	-0.381811	-0.129361	-0.003079
1719	8.5900e-01	-11.1847	-21.963903	0.000140	1.399974	0.474324	0.011289
1720	8.5950e-01	-11.1879	-21.871964	-0.000228	-2.280260	-0.772573	0.018388
1721	8.6000e-01	-11.1462	-21.828774	0.000107	1.071192	0.362930	0.008638
1722	8.6050e-01	-11.1045	-21.743249	0.000212	2.121172	0.718673	0.017105
1723	8.6100e-01	-11.0740	-21.699203	0.000109	1.092404	0.370116	0.008809
1724	8.6150e-01	-11.0227	-21.660289	0.000097	0.965133	0.326996	0.007783
1725	8.6200e-01	-10.9746	-21.633776	0.000066	0.657563	0.222788	0.005303
1726	8.6250e-01	-10.9345	-21.537561	0.000239	2.386318	0.808507	0.019243
1727	8.6300e-01	-10.8879	-21.487956	0.000123	1.230280	0.416830	0.009921
1728	8.6350e-01	-10.8430	-21.446904	0.000102	1.018163	0.344963	0.008210
1729	8.6400e-01	-10.8206	-21.386181	0.000151	1.506032	0.510257	0.012145
1730	8.6450e-01	-10.7981	-21.341708	0.000110	1.103009	0.373710	0.008895
1731	8.6500e-01	-10.7307	-21.275854	0.000163	1.633302	0.553378	0.013171
1732	8.6550e-01	-10.6858	-21.228388	0.000118	1.177250	0.398863	0.009493
1733	8.6600e-01	-10.6505	-21.168520	0.000148	1.484820	0.503071	0.011974
1734	8.6650e-01	-10.6280	-21.130462	0.000094	0.943922	0.319809	0.007612
1735	8.6700e-01	-10.5751	-21.067173	0.000157	1.569667	0.531818	0.012658
1736	8.6750e-01	-10.5382	-21.005167	0.000154	1.537850	0.521038	0.012401
1737	8.6800e-01	-10.4772	-20.945300	0.000148	1.484820	0.503071	0.011974
1738	8.6850e-01	-10.4403	-20.886287	0.000146	1.463609	0.495884	0.011802
1739	8.6900e-01	-10.4387	-20.808460	0.000193	1.930267	0.653992	0.015566
1740	8.6950e-01	-10.3698	-20.794348	0.000035	0.349993	0.118581	0.002822
1741	8.7000e-01	-10.3425	-20.733625	0.000151	1.506032	0.510257	0.012145
1742	8.7050e-01	-10.2912	-20.663067	0.000175	1.749967	0.592905	0.014112
1743	8.7100e-01	-10.2607	-20.634844	0.000070	0.699987	0.237162	0.005645
1744	8.7150e-01	-10.2142	-20.603627	0.000077	0.774228	0.262315	0.006243
1745	8.7200e-01	-10.1773	-20.503563	0.000248	2.481771	0.840847	0.020013
1746	8.7250e-01	-10.1307	-20.459945	0.000108	1.081798	0.366523	0.008724
1747	8.7300e-01	-10.1002	-20.415044	0.000111	1.113615	0.377303	0.008980
1748	8.7350e-01	-10.0794	-20.322677	0.000229	2.290866	0.776166	0.018473
1749	8.7400e-01	-10.0088	-20.297875	0.000062	0.615140	0.208415	0.004960
1750	8.7450e-01	-9.9880	-20.267941	0.000074	0.742410	0.251535	0.005987
1751	8.7500e-01	-9.9286	-20.169160	0.000245	2.449954	0.830067	0.019756
1752	8.7550e-01	-9.9013	-20.155048	0.000035	0.349993	0.118581	0.002822
1753	8.7600e-01	-9.8532	-20.053273	0.000252	2.524195	0.855220	0.020355
1754	8.7650e-01	-9.8307	-20.008800	0.000110	1.103009	0.373710	0.008895
1755	8.7700e-01	-9.7682	-19.952782	0.000139	1.389368	0.470731	0.011204
1756	8.7750e-01	-9.7361	-19.910874	0.000104	1.039374	0.352150	0.008381
1757	8.7800e-01	-9.7104	-19.856993	0.000134	1.336338	0.452764	0.010776
1758	8.7850e-01	-9.6655	-19.786435	0.000175	1.749967	0.592905	0.014112
1759	8.7900e-01	-9.6061	-19.759067	0.000068	0.678775	0.229975	0.005474
1760	8.7950e-01	-9.5885	-19.647029	0.000278	2.778735	0.941461	0.022408
1761	8.8000e-01	-9.5227	-19.630780	0.000040	0.403023	0.136548	0.003250
1762	8.8050e-01	-9.5083	-19.544827	0.000213	2.131778	0.722266	0.017191
1763	8.8100e-01	-9.4746	-19.491801	0.000132	1.315127	0.445577	0.010605
1764	8.8150e-01	-9.3992	-19.455026	0.000091	0.912104	0.309029	0.007355
1765	8.8200e-01	-9.3896	-19.402428	0.000130	1.304521	0.441984	0.010520
1766	8.8250e-01	-9.3559	-19.343415	0.000146	1.463609	0.495884	0.011802
1767	8.8300e-01	-9.3254	-19.318613	0.000062	0.615140	0.208415	0.004960
1768	8.8350e-01	-9.2532	-19.213845	0.000260	2.598436	0.880374	0.020954
1769	8.8400e-01	-9.2083	-19.141576	0.000179	1.792390	0.607278	0.014454
1770	8.8450e-01	-9.1810	-19.079571	0.000154	1.537850	0.521038	0.012401
1771	8.8500e-01	-9.1554	-19.050920	0.000071	0.710593	0.240755	0.005730
1772	8.8550e-01	-9.0992	-18.996184	0.000136	1.357550	0.459950	0.010947
1773	8.8600e-01	-9.0495	-18.931612	0.000160	1.601485	0.542598	0.012914
1774	8.8650e-01	-9.0222	-18.881580	0.000124	1.240886	0.420423	0.010006
1775	8.8700e-01	-8.9709	-18.799476	0.000204	2.036325	0.689926	0.016421
1776	8.8750e-01	-8.9195	-18.788786	0.000027	0.265146	0.089834	0.002138
1777	8.8800e-01	-8.8794	-18.669050	0.000297	2.969641	1.006142	0.023947
1778	8.8850e-01	-8.8730	-18.636123	0.000082	0.816651	0.276689	0.006585
1779	8.8900e-01	-8.8313	-18.555730	0.000199	1.993902	0.675552	0.016079
1780	8.8950e-01	-8.7735	-18.521947	0.000084	0.837863	0.283876	0.006756
1781	8.9000e-01	-8.7367	-18.459942	0.000154	1.537850	0.521038	0.012401
1782	8.9050e-01	-8.6965	-18.414186	0.000113	1.134827	0.384490	0.009151
1783	8.9100e-01	-8.6613	-18.315404	0.000245	2.449954	0.830067	0.019756
1784	8.9150e-01	-8.6244	-18.303858	0.000029	0.286358	0.097021	0.002309
1785	8.9200e-01	-8.5457	-18.243136	0.000151	1.506032	0.510257	0.012145
1786	8.9250e-01	-8.5586	-18.133236	-0.000273	-2.725706	-0.923494	0.021980
1787	8.9300e-01	-8.5008	-18.162742	-0.000073	-0.731804	-0.247942	-0.005901
1788	8.9350e-01	-8.4351	-18.062250	0.000249	2.492377	0.844440	0.020098
1789	8.9400e-01	-8.4286	-17.999389	0.000156	1.559061	0.528224	0.012572
1790	8.9450e-01	-8.3869	-17.922844	0.000190	1.898449	0.643212	0.015309
1791	8.9500e-01	-8.3308	-17.885213	0.000093	0.933316	0.316216	0.007526
1792	8.9550e-01	-8.2939	-17.813372	0.000178	1.781784	0.603685	0.014368
1793	8.9600e-01	-8.2329	-17.818504	-0.000013	-0.127270	-0.043120	-0.001026
1794	8.9650e-01	-8.2281	-17.703900	0.000284	2.842370	0.963021	0.022921
1795	8.9700e-01	-8.1768	-17.659855	0.000109	1.092404	0.370116	0.008809
1796	8.9750e-01	-8.1335	-17.587586	0.000179	1.792390	0.607278	0.014454
1797	8.9800e-01	-8.0934	-17.543541	0.000109	1.092404	0.370116	0.008809
1798	8.9850e-01	-8.0677	-17.455450	0.000218	2.184807	0.740233	0.017618
1799	8.9900e-01	-8.0003	-17.395155	0.000150	1.495426	0.506664	0.012059
1800	8.9950e-01	-7.9939	-17.325879	0.000172	1.718149	0.582125	0.013855
1801	9.0000e-01	-7.9201	-17.307919	0.000045	0.445446	0.150921	0.003592
1802	9.0050e-01	-7.9201	-17.198447	-0.000272	-2.715100	-0.919901	0.021894
1803	9.0100e-01	-7.8656	-17.186474	0.000030	0.296964	0.100614	0.002395
1804	9.0150e-01	-7.8351	-17.084699	0.000252	2.524195	0.855220	0.020355
1805	9.0200e-01	-7.7549	-17.064173	0.000051	0.509081	0.172481	0.004105
1806	9.0250e-01	-7.7837	-16.924339	-0.000347	-3.468116	-1.175030	0.027967
1807	9.0300e-01	-7.6763	-16.941017	-0.000041	-0.413629	-0.140141	-0.003335
1808	9.0350e-01	-7.6426	-16.832827	0.000268	2.683283	0.909121	0.021638
1809	9.0400e-01	-7.6506	-16.777236	-0.000138	-1.378762	-0.467137	0.011118
1810	9.0450e-01	-7.5559	-16.767828	0.000023	0.233329	0.079054	0.001882
1811	9.0500e-01	-7.5206	-16.665198	0.000255	2.545406	0.862407	0.020526
1812	9.0550e-01	-7.5110	-16.612600	0.000130	1.304521	0.441984	0.010520
1813	9.0600e-01	-7.4517	-16.603193	0.000023	0.233329	0.079054	0.001882
1814	9.0650e-01	-7.4292	-16.505694	0.000242	2.418136	0.819287	0.019500
1815	9.0700e-01	-7.3811	-16.434281	0.000177	1.771179	0.600092	0.014283
1816	9.0750e-01	-7.3474	-16.326092	0.000268	2.683283	0.909121	0.021638
1817	9.0800e-01	-7.3041	-16.283757	0.000105	1.049980	0.355743	0.008467
1818	9.0850e-01	-7.2592	-16.234152	0.000123	1.230280	0.416830	0.009921
1819	9.0900e-01	-7.2287	-16.175567	0.000145	1.453003	0.492291	0.011717
1820	9.0950e-01	-7.1693	-16.134943	0.000101	1.007557	0.341369	0.008125
1821	9.1000e-01	-7.1388	-16.066951	0.000169	1.686332	0.571345	0.013598
1822	9.1050e-01	-7.1068	-16.006228	0.000151	1.506032	0.510257	0.012145
1823	9.1100e-01	-7.0490	-15.929683	0.000190	1.898449	0.643212	0.015309
1824	9.1150e-01	-7.0314	-15.860835	0.000171	1.707543	0.578531	0.013770
1825	9.1200e-01	-6.9736	-15.812941	0.000119	1.187856	0.402457	0.009579
1826	9.1250e-01	-6.9399	-15.779159	0.000084	0.837863	0.283876	0.006756
1827	9.1300e-01	-6.8918	-15.678667	0.000249	2.492377	0.844440	0.020098
1828	9.1350e-01	-6.8661	-15.583734	0.000235	2.354501	0.797727	0.018987
1829	9.1400e-01	-6.8148	-15.613240	-0.000073	-0.731804	-0.247942	-0.005901
1830	9.1450e-01	-6.7939	-15.463571	0.000371	3.712051	1.257677	0.029934
1831	9.1500e-01	-6.7362	-15.420809	0.000106	1.060586	0.359336	0.008553
1832	9.1550e-01	-6.6736	-15.378474	0.000105	1.049980	0.355743	0.008467
1833	9.1600e-01	-6.6624	-15.303212	0.000187	1.866631	0.632432	0.015052
1834	9.1650e-01	-6.6078	-15.254890	0.000120	1.198462	0.406050	0.009664
1835	9.1700e-01	-6.5854	-15.187753	0.000167	1.665120	0.564158	0.013427
1836	9.1750e-01	-6.5276	-15.098807	0.000221	2.206019	0.747419	0.017789
1837	9.1800e-01	-6.5020	-15.060748	0.000094	0.943922	0.319809	0.007612
1838	9.1850e-01	-6.4635	-14.976934	0.000208	2.078749	0.704299	0.016763
1839	9.1900e-01	-6.4314	-14.936309	0.000101	1.007557	0.341369	0.008125
1840	9.1950e-01	-6.3624	-14.812726	0.000307	3.065094	1.038482	0.024717
1841	9.2000e-01	-6.3463	-14.775522	0.000092	0.922710	0.312623	0.007441
1842	9.2050e-01	-6.2902	-14.715655	0.000148	1.484820	0.503071	0.011974
1843	9.2100e-01	-6.2597	-14.682728	0.000082	0.816651	0.276689	0.006585
1844	9.2150e-01	-6.2164	-14.608321	0.000185	1.845420	0.625245	0.014881
1845	9.2200e-01	-6.1891	-14.515954	0.000229	2.290866	0.776166	0.018473
1846	9.2250e-01	-6.1586	-14.439409	0.000190	1.898449	0.643212	0.015309
1847	9.2300e-01	-6.0993	-14.396646	0.000106	1.060586	0.359336	0.008553
1848	9.2350e-01	-6.0784	-14.308983	0.000217	2.174201	0.736639	0.017533
1849	9.2400e-01	-6.0383	-14.298720	0.000025	0.254541	0.086241	0.002053
1850	9.2450e-01	-5.9822	-14.226024	0.000180	1.802996	0.610872	0.014539
1851	9.2500e-01	-5.9437	-14.190959	0.000087	0.869681	0.294656	0.007013
1852	9.2550e-01	-5.9052	-14.061816	0.000320	3.202970	1.085196	0.025829
1853	9.2600e-01	-5.8474	-14.036158	0.000064	0.636352	0.215602	0.005132
1854	9.2650e-01	-5.8218	-13.937804	0.000244	2.439348	0.826473	0.019671
1855	9.2700e-01	-5.7608	-13.879220	0.000145	1.453003	0.492291	0.011717
1856	9.2750e-01	-5.7512	-13.839878	0.000098	0.975739	0.330589	0.007868
1857	9.2800e-01	-5.7159	-13.756064	0.000208	2.078749	0.704299	0.016763
1858	9.2850e-01	-5.6629	-13.690209	0.000163	1.633302	0.553378	0.013171
1859	9.2900e-01	-5.6405	-13.576889	0.000281	2.810553	0.952241	0.022664
1860	9.2950e-01	-5.5715	-13.602119	-0.000063	-0.625746	-0.212008	-0.005046
1861	9.3000e-01	-5.5506	-13.484094	0.000293	2.927217	0.991768	0.023605
1862	9.3050e-01	-5.4897	-13.433207	0.000126	1.262097	0.427610	0.010177
1863	9.3100e-01	-5.4720	-13.321596	0.000277	2.768129	0.937868	0.022322
1864	9.3150e-01	-5.4335	-13.292518	0.000072	0.721198	0.244349	0.005816
1865	9.3200e-01	-5.3742	-13.207848	0.000210	2.099960	0.711486	0.016934
1866	9.3250e-01	-5.3549	-13.143277	0.000160	1.601485	0.542598	0.012914
1867	9.3300e-01	-5.2763	-13.095810	0.000118	1.177250	0.398863	0.009493
1868	9.3350e-01	-5.2603	-13.005154	0.000225	2.248442	0.761793	0.018131
1869	9.3400e-01	-5.2282	-12.926471	0.000195	1.951478	0.661179	0.015737
1870	9.3450e-01	-5.1576	-12.939299	-0.000032	-0.318176	-0.107801	-0.002566
1871	9.3500e-01	-5.1223	-12.779795	0.000396	3.955986	1.340324	0.031901
1872	9.3550e-01	-5.1143	-12.731046	0.000121	1.209068	0.409643	0.009750
1873	9.3600e-01	-5.0806	-12.706244	0.000062	0.615140	0.208415	0.004960
1874	9.3650e-01	-5.0148	-12.632692	0.000182	1.824208	0.618058	0.014710
1875	9.3700e-01	-4.9844	-12.529634	0.000256	2.556012	0.866000	0.020612
1876	9.3750e-01	-4.9635	-12.457366	0.000179	1.792390	0.607278	0.014454
1877	9.3800e-01	-4.9041	-12.421018	0.000090	0.901498	0.305436	0.007270
1878	9.3850e-01	-4.8608	-12.301282	0.000297	2.969641	1.006142	0.023947
1879	9.3900e-01	-4.8336	-12.246974	0.000135	1.346944	0.456357	0.010862
1880	9.3950e-01	-4.7854	-12.205922	0.000102	1.018163	0.344963	0.008210
1881	9.4000e-01	-4.7517	-12.103720	0.000253	2.534801	0.858814	0.020440
1882	9.4050e-01	-4.6956	-12.052405	0.000127	1.272703	0.431204	0.010263
1883	9.4100e-01	-4.6555	-11.991682	0.000151	1.506032	0.510257	0.012145
1884	9.4150e-01	-4.6170	-11.972011	0.000049	0.487870	0.165295	0.003934
1885	9.4200e-01	-4.5769	-11.827901	0.000357	3.574175	1.210963	0.028822
1886	9.4250e-01	-4.5480	-11.802244	0.000064	0.636352	0.215602	0.005132
1887	9.4300e-01	-4.5015	-11.756915	0.000112	1.124221	0.380896	0.009066
1888	9.4350e-01	-4.4566	-11.612806	0.000357	3.574175	1.210963	0.028822
1889	9.4400e-01	-4.4501	-11.556787	0.000139	1.389368	0.470731	0.011204
1890	9.4450e-01	-4.3683	-11.520011	0.000091	0.912104	0.309029	0.007355
1891	9.4500e-01	-4.3330	-11.460144	0.000148	1.484820	0.503071	0.011974
1892	9.4550e-01	-4.3154	-11.369915	0.000224	2.237836	0.758200	0.018046
1893	9.4600e-01	-4.2496	-11.307054	0.000156	1.559061	0.528224	0.012572
1894	9.4650e-01	-4.2368	-11.248469	0.000145	1.453003	0.492291	0.011717
1895	9.4700e-01	-4.1710	-11.156530	0.000228	2.280260	0.772573	0.018388
1896	9.4750e-01	-4.1502	-11.061597	0.000235	2.354501	0.797727	0.018987
1897	9.4800e-01	-4.1277	-10.972223	0.000222	2.216625	0.751013	0.017875
1898	9.4850e-01	-4.0715	-10.901237	0.000176	1.760573	0.596498	0.014197
1899	9.4900e-01	-4.0395	-10.838376	0.000156	1.559061	0.528224	0.012572
1900	9.4950e-01	-3.9689	-10.831107	0.000018	0.180300	0.061087	0.001454
1901	9.5000e-01	-3.9256	-10.749430	0.000203	2.025719	0.686332	0.016335
1902	9.5050e-01	-3.9063	-10.666899	0.000205	2.046931	0.693519	0.016506
1903	9.5100e-01	-3.8550	-10.582656	0.000209	2.089354	0.707892	0.016848
1904	9.5150e-01	-3.8245	-10.499697	0.000206	2.057537	0.697112	0.016592
1905	9.5200e-01	-3.7956	-10.449665	0.000124	1.240886	0.420423	0.010006
1906	9.5250e-01	-3.7330	-10.379962	0.000173	1.728755	0.585718	0.013941
1907	9.5300e-01	-3.7074	-10.273483	0.000264	2.640859	0.894747	0.021296
1908	9.5350e-01	-3.6560	-10.243550	0.000074	0.742410	0.251535	0.005987
1909	9.5400e-01	-3.6191	-10.143485	0.000248	2.481771	0.840847	0.020013
1910	9.5450e-01	-3.5678	-10.115690	0.000069	0.689381	0.233569	0.005559
1911	9.5500e-01	-3.5421	-9.960034	0.000386	3.860533	1.307984	0.031131
1912	9.5550e-01	-3.5085	-9.949771	0.000025	0.254541	0.086241	0.002053
1913	9.5600e-01	-3.4395	-9.884772	0.000161	1.612091	0.546191	0.013000
1914	9.5650e-01	-3.4379	-9.760333	0.000309	3.086305	1.045669	0.024888
1915	9.5700e-01	-3.3769	-9.709446	0.000126	1.262097	0.427610	0.010177
1916	9.5750e-01	-3.3384	-9.677801	0.000078	0.784834	0.265909	0.006329
1917	9.5800e-01	-3.2935	-9.580730	0.000241	2.407530	0.815693	0.019414
1918	9.5850e-01	-3.2454	-9.564053	0.000041	0.413629	0.140141	0.003335
1919	9.5900e-01	-3.2117	-9.430634	0.000331	3.309028	1.121129	0.026684
1920	9.5950e-01	-3.1812	-9.353661	0.000191	1.909055	0.646805	0.015395
1921	9.6000e-01	-3.1571	-9.241196	0.000279	2.789341	0.945054	0.022493
1922	9.6050e-01	-3.1090	-9.215538	0.000064	0.636352	0.215602	0.005132
1923	9.6100e-01	-3.0641	-9.119750	0.000238	2.375713	0.804913	0.019158
1924	9.6150e-01	-3.0095	-9.035508	0.000209	2.089354	0.707892	0.016848
1925	9.6200e-01	-2.9759	-9.001298	0.000085	0.848469	0.287469	0.006842
1926	9.6250e-01	-2.9454	-8.877287	0.000308	3.075699	1.042075	0.024802
1927	9.6300e-01	-2.9213	-8.818702	0.000145	1.453003	0.492291	0.011717
1928	9.6350e-01	-2.8571	-8.753703	0.000161	1.612091	0.546191	0.013000
1929	9.6400e-01	-2.8074	-8.656632	0.000241	2.407530	0.815693	0.019414
1930	9.6450e-01	-2.7561	-8.645514	0.000028	0.275752	0.093427	0.002224
1931	9.6500e-01	-2.7497	-8.513378	0.000328	3.277211	1.110349	0.026427
1932	9.6550e-01	-2.6983	-8.438971	0.000185	1.845420	0.625245	0.014881
1933	9.6600e-01	-2.6662	-8.353446	0.000212	2.121172	0.718673	0.017105
1934	9.6650e-01	-2.6165	-8.309828	0.000108	1.081798	0.366523	0.008724
1935	9.6700e-01	-2.5956	-8.182396	0.000316	3.160546	1.070822	0.025486
1936	9.6750e-01	-2.5411	-8.144765	0.000093	0.933316	0.316216	0.007526
1937	9.6800e-01	-2.5299	-8.049404	0.000237	2.365107	0.801320	0.019072
1938	9.6850e-01	-2.4657	-7.973287	0.000189	1.887843	0.639619	0.015223
1939	9.6900e-01	-2.4096	-7.916413	0.000141	1.410579	0.477917	0.011375
1940	9.6950e-01	-2.3727	-7.796250	0.000298	2.980247	1.009735	0.024033
1941	9.7000e-01	-2.3390	-7.770165	0.000065	0.646957	0.219195	0.005217
1942	9.7050e-01	-2.3053	-7.644443	0.000312	3.118123	1.056449	0.025144
1943	9.7100e-01	-2.2347	-7.593128	0.000127	1.272703	0.431204	0.010263
1944	9.7150e-01	-2.2443	-7.475531	-0.000292	-2.916611	-0.988175	0.023519
1945	9.7200e-01	-2.1721	-7.468262	0.000018	0.180300	0.061087	0.001454
1946	9.7250e-01	-2.1176	-7.348527	0.000297	2.969641	1.006142	0.023947
1947	9.7300e-01	-2.1096	-7.263857	0.000210	2.099960	0.711486	0.016934
1948	9.7350e-01	-2.0679	-7.171917	0.000228	2.280260	0.772573	0.018388
1949	9.7400e-01	-2.0133	-7.094517	0.000192	1.919661	0.650399	0.015480
1950	9.7450e-01	-1.9764	-7.045768	0.000121	1.209068	0.409643	0.009750
1951	9.7500e-01	-1.9363	-6.959388	0.000214	2.142384	0.725859	0.017276
1952	9.7550e-01	-1.9074	-6.933302	0.000065	0.646957	0.219195	0.005217
1953	9.7600e-01	-1.8593	-6.805015	0.000318	3.181758	1.078009	0.025658
1954	9.7650e-01	-1.7967	-6.784489	0.000051	0.509081	0.172481	0.004105
1955	9.7700e-01	-1.7855	-6.661760	0.000304	3.043882	1.031295	0.024546
1956	9.7750e-01	-1.7454	-6.557847	0.000258	2.577224	0.873187	0.020783
1957	9.7800e-01	-1.6828	-6.515085	0.000106	1.060586	0.359336	0.008553
1958	9.7850e-01	-1.6459	-6.406468	0.000269	2.693888	0.912714	0.021723
1959	9.7900e-01	-1.6411	-6.306831	0.000247	2.471165	0.837253	0.019927
1960	9.7950e-01	-1.5850	-6.275187	0.000078	0.784834	0.265909	0.006329
1961	9.8000e-01	-1.5288	-6.190945	0.000209	2.089354	0.707892	0.016848
1962	9.8050e-01	-1.4967	-6.099005	0.000228	2.280260	0.772573	0.018388
1963	9.8100e-01	-1.4374	-6.037427	0.000153	1.527244	0.517444	0.012316
1964	9.8150e-01	-1.4181	-5.910423	0.000315	3.149940	1.067229	0.025401
1965	9.8200e-01	-1.3620	-5.849272	0.000152	1.516638	0.513851	0.012230
1966	9.8250e-01	-1.3427	-5.787267	0.000154	1.537850	0.521038	0.012401
1967	9.8300e-01	-1.2802	-5.719274	0.000169	1.686332	0.571345	0.013598
1968	9.8350e-01	-1.2818	-5.565757	-0.000381	-3.807504	-1.290017	0.030703
1969	9.8400e-01	-1.2032	-5.508027	0.000143	1.431791	0.485104	0.011546
1970	9.8450e-01	-1.1775	-5.395990	0.000278	2.778735	0.941461	0.022408
1971	9.8500e-01	-1.1518	-5.351516	0.000110	1.103009	0.373710	0.008895
1972	9.8550e-01	-1.0989	-5.262998	0.000220	2.195413	0.743826	0.017704
1973	9.8600e-01	-1.0813	-5.192868	0.000174	1.739361	0.589311	0.014026
1974	9.8650e-01	-1.0091	-5.123165	0.000173	1.728755	0.585718	0.013941
1975	9.8700e-01	-0.9914	-5.009416	0.000282	2.821159	0.955834	0.022750
1976	9.8750e-01	-0.9513	-4.961950	0.000118	1.177250	0.398863	0.009493
1977	9.8800e-01	-0.8952	-4.854188	0.000267	2.672677	0.905527	0.021552
1978	9.8850e-01	-0.8310	-4.827676	0.000066	0.657563	0.222788	0.005303
1979	9.8900e-01	-0.7973	-4.704092	0.000307	3.065094	1.038482	0.024717
1980	9.8950e-01	-0.7716	-4.648928	0.000137	1.368156	0.463544	0.011033
1981	9.9000e-01	-0.7283	-4.524917	0.000308	3.075699	1.042075	0.024802
1982	9.9050e-01	-0.7075	-4.471891	0.000132	1.315127	0.445577	0.010605
1983	9.9100e-01	-0.6529	-4.371399	0.000249	2.492377	0.844440	0.020098
1984	9.9150e-01	-0.6305	-4.292289	0.000196	1.962084	0.664772	0.015822
1985	9.9200e-01	-0.5759	-4.169560	0.000304	3.043882	1.031295	0.024546
1986	9.9250e-01	-0.5551	-4.122094	0.000118	1.177250	0.398863	0.009493
1987	9.9300e-01	-0.5037	-4.017753	0.000259	2.587830	0.876780	0.020868
1988	9.9350e-01	-0.4556	-3.947623	0.000174	1.739361	0.589311	0.014026
1989	9.9400e-01	-0.4251	-3.827460	0.000298	2.980247	1.009735	0.024033
1990	9.9450e-01	-0.3754	-3.761606	0.000163	1.633302	0.553378	0.013171
1991	9.9500e-01	-0.3465	-3.726113	0.000088	0.880286	0.298249	0.007099
1992	9.9550e-01	-0.3000	-3.580293	0.000362	3.616598	1.225337	0.029164
1993	9.9600e-01	-0.2631	-3.546083	0.000085	0.848469	0.287469	0.006842
1994	9.9650e-01	-0.2294	-3.395558	0.000373	3.733263	1.264864	0.030105
1995	9.9700e-01	-0.1957	-3.373322	0.000055	0.551505	0.186855	0.004447
1996	9.9750e-01	-0.1315	-3.304902	0.000170	1.696938	0.574938	0.013684
1997	9.9800e-01	-0.0850	-3.184312	0.000299	2.990852	1.013328	0.024118
1998	9.9850e-01	-0.0529	-3.153950	0.000075	0.753016	0.255129	0.006072
1999	9.9900e-01	-0.0064	-3.037636	0.000288	2.884794	0.977395	0.023263
2000	9.9950e-01	0.0064	-2.927309	0.000274	2.736312	0.927088	0.022065
2001	1.0000e+00	0.0578	-2.817409	0.000274	2.736312	0.927088	0.021980

Center data before PMax,+/-Pr and +/-Vc Calc.

PMax (uC/cm2):	3.17e+01
Pr (uC/cm2):	5.16e-01
-Pr (uC/cm2):	-2.82e+00
PLoss (uC/cm2):	-1.44e+00
Vc:	7.67e-01
-Vc:	-2.62e-01
C (Max-Eff) (nF):	1.58e-01
K (Eff):	5.36e+02
Vert. (+/-Pr) Shift (uC/cm2):	-1.15e+00
Horiz. Shift (+/-Vc):	2.53e-01
Offset (uC/cm2):	1.38e+00

A (Loop Area - uC/cm2·Volts):	1.24e-01



Hysteresis Version: 5.48.1 - Radiant Technologies, Inc., 1999 - 9/12/24

