»»»»»»»»»»»»»»»»»»»»»»»»»»»»»»»»»»»» Hysteresis ««««««««««««««««««««««««««««««««««««
»»»  Executed Version:	5.48.1
»»»  Vision Version:	5.48.4 (R)
»»»  Vision Compiled:	9/18/24
»»»  Driver Version:	5.47.0
»»»  Windows Version:	Windows 8 or 8.1
»»»  Processor Information:	x86 (AMD or Intel) - 32 Processors
»»»  Tester Name:	PMF21124-494 (100V)
»»»  Tester S/N:	PMF21124-494
»»»  Internal Amp Type:	100V RevK 270k
»»»  Internal Amp S/N:	iAB2-596/K     
»»»  Execution Count:	1
»»»»»»»»»»»»»»»»»»»»»»»»»»»»»»»»»»»»»»»»»»««««««««««««««««««««««««««««««««««««««««««

Stored:	6/13/2025 - 14:37:11
Configured:	06/13/25 01:30:53 PM
Executed:	06/13/25 02:36:39 PM

»»»»»»»»»»»»»»»»»»»»»»»»»»»»»»»»»»» Sample Info ««««««««««««««««««««««««««««««««««««
Sample Name:	
Lot Name:	
Wafer Name:	
Die Row/Column:	0/0
Capacitor Number:	0
Sample Area (cm2):	1.00e-04
Sample Thickness (microns):	3.00e-01

Amplifier:	Internal

»»»»»»»»»»»»»»»»»»»»»»»»»»»»»»»»»»» Tester Info «««««««««««««««««««««««««««««««««««
Tester Name:	PMF21124-494 (100V)
Tester Serial Number:	PMF21124-494
Return Signal Amp. Level:	1.9 [Index: 2]

»»»»»»»»»»»»»»»»»»»»»»»»»»»»»»»» Hysteresis Info ««««««««««««««««««««««««««««««««««
Task Name:	Hyst-1922
Volts:	20.00
Field:	666.67 (kV/cm)
DCBias:	0.00
DCField:	0.00 (kV/cm)
Hysteresis Period (ms):	2.00e+02
Preset:	Enabled
Preset Delay (ms):	1.00e+03
Profile:	Standard Bipolar

»»»»»»»»»»»»»»»»»»»»»»»»»»»»»»»»»»»»»» Data «««««««««««««««««««««««««««««««««««««««
Points:	2009

Valid Data

Point	Time (ms)	Drive Voltage	Measured Polarization (uC/cm2)	Capacitance (uF)	Normalized Capacitance (uF/cm2)	Dielectric Constant	Instantaneous Current (mA)
   1	0.0000e+00	0.0209	-1.170702	0.000132	1.318028	0.446560	0.000053
   2	9.9500e-02	0.0578	-1.117748	0.000132	1.318028	0.446560	0.000053
   3	1.9900e-01	0.0786	-1.042797	0.000187	1.865516	0.632054	0.000075
   4	2.9850e-01	0.1428	-0.973549	0.000172	1.723575	0.583963	0.000070
   5	3.9800e-01	0.1893	-0.896154	0.000193	1.926348	0.652664	0.000078
   6	4.9750e-01	0.2278	-0.825276	0.000176	1.764129	0.597703	0.000071
   7	5.9700e-01	0.2326	-0.744215	0.000202	2.017596	0.683580	0.000081
   8	6.9650e-01	0.2904	-0.659895	0.000210	2.098706	0.711061	0.000085
   9	7.9600e-01	0.3369	-0.581685	0.000195	1.946626	0.659535	0.000079
  10	8.9550e-01	0.3754	-0.503883	0.000194	1.936487	0.656099	0.000078
  11	9.9500e-01	0.4107	-0.418748	0.000212	2.118983	0.717931	0.000086
  12	1.0945e+00	0.4412	-0.335243	0.000208	2.078428	0.704191	0.000084
  13	1.1940e+00	0.4813	-0.255811	0.000198	1.977042	0.669840	0.000080
  14	1.2935e+00	0.5599	-0.162530	0.000232	2.321756	0.786632	0.000094
  15	1.3930e+00	0.5920	-0.088393	0.000185	1.845239	0.625184	0.000075
  16	1.4925e+00	0.6192	-0.008147	0.000200	1.997319	0.676710	0.000081
  17	1.5920e+00	0.6481	0.064360	0.000180	1.804684	0.611444	0.000073
  18	1.6915e+00	0.7155	0.145421	0.000202	2.017596	0.683580	0.000081
  19	1.7910e+00	0.7636	0.219150	0.000184	1.835100	0.621749	0.000074
  20	1.8905e+00	0.7764	0.296953	0.000194	1.936487	0.656099	0.000078
  21	1.9900e+00	0.7957	0.369867	0.000181	1.814823	0.614879	0.000073
  22	2.0895e+00	0.8631	0.452150	0.000205	2.048012	0.693885	0.000083
  23	2.1890e+00	0.8920	0.524250	0.000179	1.794545	0.608008	0.000072
  24	2.2885e+00	0.9449	0.600423	0.000190	1.895932	0.642359	0.000077
  25	2.3880e+00	0.9674	0.682299	0.000204	2.037874	0.690450	0.000082
  26	2.4875e+00	1.0075	0.768248	0.000214	2.139260	0.724801	0.000086
  27	2.5870e+00	1.0540	0.852975	0.000211	2.108844	0.714496	0.000085
  28	2.6865e+00	1.0716	0.937295	0.000210	2.098706	0.711061	0.000085
  29	2.7860e+00	1.1117	1.023244	0.000214	2.139260	0.724801	0.000086
  30	2.8855e+00	1.1727	1.107564	0.000210	2.098706	0.711061	0.000085
  31	2.9850e+00	1.2224	1.196772	0.000222	2.220370	0.752282	0.000090
  32	3.0845e+00	1.2481	1.283129	0.000215	2.149399	0.728236	0.000087
  33	3.1840e+00	1.2754	1.371522	0.000220	2.200092	0.745411	0.000089
  34	3.2835e+00	1.3556	1.448917	0.000193	1.926348	0.652664	0.000078
  35	3.3830e+00	1.3780	1.529571	0.000201	2.007458	0.680145	0.000081
  36	3.4825e+00	1.4101	1.607374	0.000194	1.936487	0.656099	0.000078
  37	3.5820e+00	1.4695	1.681103	0.000184	1.835100	0.621749	0.000074
  38	3.6815e+00	1.5000	1.758905	0.000194	1.936487	0.656099	0.000078
  39	3.7810e+00	1.5288	1.842818	0.000209	2.088567	0.707626	0.000084
  40	3.8805e+00	1.5673	1.925101	0.000205	2.048012	0.693885	0.000083
  41	3.9800e+00	1.6106	1.995571	0.000175	1.753991	0.594268	0.000071
  42	4.0795e+00	1.6684	2.079484	0.000209	2.088567	0.707626	0.000084
  43	4.1790e+00	1.6877	2.168692	0.000222	2.220370	0.752282	0.000090
  44	4.2785e+00	1.7181	2.257085	0.000220	2.200092	0.745411	0.000089
  45	4.3780e+00	1.7598	2.344256	0.000217	2.169676	0.735106	0.000088
  46	4.4775e+00	1.8112	2.425725	0.000203	2.027735	0.687015	0.000082
  47	4.5770e+00	1.8529	2.516155	0.000225	2.250786	0.762587	0.000091
  48	4.6765e+00	1.8818	2.602919	0.000216	2.159538	0.731671	0.000087
  49	4.7760e+00	1.9138	2.684387	0.000203	2.027735	0.687015	0.000082
  50	4.8755e+00	1.9716	2.770337	0.000214	2.139260	0.724801	0.000086
  51	4.9750e+00	2.0390	2.857915	0.000218	2.179815	0.738541	0.000088
  52	5.0745e+00	2.1015	2.936125	0.000195	1.946626	0.659535	0.000079
  53	5.1740e+00	2.0935	3.020445	-0.000210	-2.098706	-0.711061	0.000085
  54	5.2735e+00	2.1352	3.090101	0.000173	1.733713	0.587398	0.000070
  55	5.3730e+00	2.1497	3.175235	0.000212	2.118983	0.717931	0.000086
  56	5.4725e+00	2.2058	3.258740	0.000208	2.078428	0.704191	0.000084
  57	5.5720e+00	2.2812	3.336135	0.000193	1.926348	0.652664	0.000078
  58	5.6715e+00	2.2957	3.416382	0.000200	1.997319	0.676710	0.000081
  59	5.7710e+00	2.3245	3.491740	0.000188	1.875655	0.635489	0.000076
  60	5.8705e+00	2.3598	3.571579	0.000199	1.987180	0.673275	0.000080
  61	5.9700e+00	2.4031	3.644494	0.000181	1.814823	0.614879	0.000073
  62	6.0695e+00	2.4432	3.728814	0.000210	2.098706	0.711061	0.000085
  63	6.1690e+00	2.4785	3.808246	0.000198	1.977042	0.669840	0.000080
  64	6.2685e+00	2.5106	3.893380	0.000212	2.118983	0.717931	0.000086
  65	6.3680e+00	2.5588	3.976885	0.000208	2.078428	0.704191	0.000084
  66	6.4675e+00	2.6181	4.064057	0.000217	2.169676	0.735106	0.000088
  67	6.5670e+00	2.6614	4.150413	0.000215	2.149399	0.728236	0.000087
  68	6.6665e+00	2.6694	4.233104	0.000206	2.058151	0.697320	0.000083
  69	6.7660e+00	2.7529	4.311314	0.000195	1.946626	0.659535	0.000079
  70	6.8655e+00	2.7849	4.389931	0.000196	1.956764	0.662970	0.000079
  71	6.9650e+00	2.8154	4.464474	0.000186	1.855377	0.628619	0.000075
  72	7.0645e+00	2.8523	4.541462	0.000192	1.916209	0.649229	0.000077
  73	7.1640e+00	2.8828	4.620894	0.000198	1.977042	0.669840	0.000080
  74	7.2635e+00	2.9277	4.697882	0.000192	1.916209	0.649229	0.000077
  75	7.3630e+00	2.9470	4.777721	0.000199	1.987180	0.673275	0.000080
  76	7.4625e+00	2.9935	4.854709	0.000192	1.916209	0.649229	0.000077
  77	7.5620e+00	3.0561	4.928030	0.000182	1.824961	0.618314	0.000074
  78	7.6615e+00	3.0801	5.008277	0.000200	1.997319	0.676710	0.000081
  79	7.7610e+00	3.1186	5.086486	0.000195	1.946626	0.659535	0.000079
  80	7.8605e+00	3.1700	5.161437	0.000187	1.865516	0.632054	0.000075
  81	7.9600e+00	3.2133	5.238018	0.000191	1.906071	0.645794	0.000077
  82	8.0595e+00	3.2406	5.318264	0.000200	1.997319	0.676710	0.000081
  83	8.1590e+00	3.2694	5.403806	0.000213	2.129122	0.721366	0.000086
  84	8.2585e+00	3.3304	5.484460	0.000201	2.007458	0.680145	0.000081
  85	8.3580e+00	3.4138	5.572853	0.000220	2.200092	0.745411	0.000089
  86	8.4575e+00	3.4186	5.651063	0.000195	1.946626	0.659535	0.000079
  87	8.5570e+00	3.4764	5.726829	0.000189	1.885793	0.638924	0.000076
  88	8.6565e+00	3.4924	5.804631	0.000194	1.936487	0.656099	0.000078
  89	8.7560e+00	3.5245	5.884878	0.000200	1.997319	0.676710	0.000081
  90	8.8555e+00	3.5646	5.958200	0.000182	1.824961	0.618314	0.000074
  91	8.9550e+00	3.5903	6.034780	0.000191	1.906071	0.645794	0.000077
  92	9.0545e+00	3.6625	6.109731	0.000187	1.865516	0.632054	0.000075
  93	9.1540e+00	3.6994	6.191199	0.000203	2.027735	0.687015	0.000082
  94	9.2535e+00	3.7218	6.262077	0.000176	1.764129	0.597703	0.000071
  95	9.3530e+00	3.7603	6.337435	0.000188	1.875655	0.635489	0.000076
  96	9.4525e+00	3.7796	6.415238	0.000194	1.936487	0.656099	0.000078
  97	9.5520e+00	3.8357	6.493040	0.000194	1.936487	0.656099	0.000078
  98	9.6515e+00	3.8566	6.557400	0.000160	1.601911	0.542742	0.000065
  99	9.7510e+00	3.9079	6.639684	0.000205	2.048012	0.693885	0.000083
 100	9.8505e+00	3.9528	6.721559	0.000204	2.037874	0.690450	0.000082
 101	9.9500e+00	4.0042	6.803028	0.000203	2.027735	0.687015	0.000082
 102	1.0050e+01	4.0266	6.888977	0.000214	2.139260	0.724801	0.000086
 103	1.0149e+01	4.0764	6.968409	0.000198	1.977042	0.669840	0.000080
 104	1.0248e+01	4.1261	7.052729	0.000210	2.098706	0.711061	0.000085
 105	1.0348e+01	4.1614	7.126865	0.000185	1.845239	0.625184	0.000075
 106	1.0447e+01	4.2352	7.196114	0.000172	1.723575	0.583963	0.000070
 107	1.0547e+01	4.2641	7.273916	0.000194	1.936487	0.656099	0.000078
 108	1.0646e+01	4.2913	7.351718	0.000194	1.936487	0.656099	0.000078
 109	1.0746e+01	4.3282	7.425040	0.000182	1.824961	0.618314	0.000074
 110	1.0845e+01	4.3635	7.501620	0.000191	1.906071	0.645794	0.000077
 111	1.0945e+01	4.4084	7.575349	0.000184	1.835100	0.621749	0.000074
 112	1.1044e+01	4.4389	7.646634	0.000177	1.774268	0.601138	0.000072
 113	1.1144e+01	4.4646	7.720363	0.000184	1.835100	0.621749	0.000074
 114	1.1243e+01	4.5191	7.796944	0.000191	1.906071	0.645794	0.000077
 115	1.1343e+01	4.5769	7.863748	0.000166	1.662743	0.563352	0.000067
 116	1.1443e+01	4.5849	7.937884	0.000185	1.845239	0.625184	0.000075
 117	1.1542e+01	4.6362	8.015279	0.000193	1.926348	0.652664	0.000078
 118	1.1642e+01	4.6763	8.096341	0.000202	2.017596	0.683580	0.000081
 119	1.1741e+01	4.7036	8.176180	0.000199	1.987180	0.673275	0.000080
 120	1.1841e+01	4.7678	8.258463	0.000205	2.048012	0.693885	0.000083
 121	1.1940e+01	4.8191	8.333414	0.000187	1.865516	0.632054	0.000075
 122	1.2040e+01	4.8624	8.404699	0.000177	1.774268	0.601138	0.000072
 123	1.2139e+01	4.8769	8.475984	0.000177	1.774268	0.601138	0.000072
 124	1.2239e+01	4.9410	8.547676	0.000178	1.784407	0.604573	0.000072
 125	1.2338e+01	4.9571	8.614888	0.000167	1.672881	0.566788	0.000068
 126	1.2438e+01	5.0004	8.686580	0.000178	1.784407	0.604573	0.000072
 127	1.2537e+01	5.0662	8.759087	0.000180	1.804684	0.611444	0.000073
 128	1.2636e+01	5.0758	8.834853	0.000189	1.885793	0.638924	0.000076
 129	1.2736e+01	5.1095	8.900435	0.000163	1.632327	0.553047	0.000066
 130	1.2835e+01	5.1480	8.971720	0.000177	1.774268	0.601138	0.000072
 131	1.2935e+01	5.2170	9.041783	0.000174	1.743852	0.590833	0.000070
 132	1.3034e+01	5.2426	9.109809	0.000169	1.693159	0.573658	0.000068
 133	1.3134e+01	5.2603	9.194129	0.000210	2.098706	0.711061	0.000085
 134	1.3233e+01	5.3036	9.269487	0.000188	1.875655	0.635489	0.000076
 135	1.3333e+01	5.3437	9.350956	0.000203	2.027735	0.687015	0.000082
 136	1.3432e+01	5.3918	9.428351	0.000193	1.926348	0.652664	0.000078
 137	1.3532e+01	5.4335	9.502894	0.000186	1.855377	0.628619	0.000075
 138	1.3632e+01	5.4881	9.581511	0.000196	1.956764	0.662970	0.000079
 139	1.3731e+01	5.5234	9.655240	0.000184	1.835100	0.621749	0.000074
 140	1.3831e+01	5.5635	9.725711	0.000175	1.753991	0.594268	0.000071
 141	1.3930e+01	5.5972	9.795366	0.000173	1.733713	0.587398	0.000070
 142	1.4030e+01	5.6597	9.868688	0.000182	1.824961	0.618314	0.000074
 143	1.4129e+01	5.6437	9.943232	-0.000186	-1.855377	-0.628619	0.000075
 144	1.4229e+01	5.7159	10.013295	0.000174	1.743852	0.590833	0.000070
 145	1.4328e+01	5.7736	10.092726	0.000198	1.977042	0.669840	0.000080
 146	1.4428e+01	5.7961	10.164826	0.000179	1.794545	0.608008	0.000072
 147	1.4527e+01	5.8298	10.238148	0.000182	1.824961	0.618314	0.000074
 148	1.4627e+01	5.8715	10.310655	0.000180	1.804684	0.611444	0.000073
 149	1.4726e+01	5.9212	10.378681	0.000169	1.693159	0.573658	0.000068
 150	1.4825e+01	5.9501	10.457705	0.000197	1.966903	0.666405	0.000079
 151	1.4925e+01	5.9854	10.536322	0.000196	1.956764	0.662970	0.000079
 152	1.5024e+01	6.0512	10.614125	0.000194	1.936487	0.656099	0.000078
 153	1.5124e+01	6.0881	10.698037	0.000209	2.088567	0.707626	0.000084
 154	1.5223e+01	6.1201	10.776655	0.000196	1.956764	0.662970	0.000079
 155	1.5323e+01	6.1667	10.853642	0.000192	1.916209	0.649229	0.000077
 156	1.5422e+01	6.1779	10.924927	0.000177	1.774268	0.601138	0.000072
 157	1.5522e+01	6.2421	10.997842	0.000181	1.814823	0.614879	0.000073
 158	1.5621e+01	6.2758	11.072793	0.000187	1.865516	0.632054	0.000075
 159	1.5721e+01	6.2966	11.148558	0.000189	1.885793	0.638924	0.000076
 160	1.5820e+01	6.3608	11.216992	0.000170	1.703297	0.577093	0.000069
 161	1.5920e+01	6.4282	11.293165	0.000190	1.895932	0.642359	0.000077
 162	1.6020e+01	6.4250	11.369338	-0.000190	-1.895932	-0.642359	0.000077
 163	1.6119e+01	6.4522	11.441845	0.000180	1.804684	0.611444	0.000073
 164	1.6218e+01	6.5068	11.511501	0.000173	1.733713	0.587398	0.000070
 165	1.6318e+01	6.5356	11.586044	0.000186	1.855377	0.628619	0.000075
 166	1.6418e+01	6.6078	11.653663	0.000168	1.683020	0.570223	0.000068
 167	1.6517e+01	6.6335	11.732688	0.000197	1.966903	0.666405	0.000079
 168	1.6616e+01	6.6544	11.812119	0.000198	1.977042	0.669840	0.000080
 169	1.6716e+01	6.7137	11.888700	0.000191	1.906071	0.645794	0.000077
 170	1.6816e+01	6.7378	11.972205	0.000208	2.078428	0.704191	0.000084
 171	1.6915e+01	6.8019	12.047156	0.000187	1.865516	0.632054	0.000075
 172	1.7015e+01	6.8388	12.131476	0.000210	2.098706	0.711061	0.000085
 173	1.7114e+01	6.8966	12.199095	0.000168	1.683020	0.570223	0.000068
 174	1.7213e+01	6.9126	12.272824	0.000184	1.835100	0.621749	0.000074
 175	1.7313e+01	6.9463	12.345331	0.000180	1.804684	0.611444	0.000073
 176	1.7413e+01	7.0105	12.417838	0.000180	1.804684	0.611444	0.000073
 177	1.7512e+01	7.0586	12.491974	0.000185	1.845239	0.625184	0.000075
 178	1.7611e+01	7.0827	12.560408	0.000170	1.703297	0.577093	0.000069
 179	1.7711e+01	7.1148	12.637803	0.000193	1.926348	0.652664	0.000078
 180	1.7811e+01	7.1388	12.711124	0.000182	1.824961	0.618314	0.000074
 181	1.7910e+01	7.1838	12.786890	0.000189	1.885793	0.638924	0.000076
 182	1.8009e+01	7.2190	12.853694	0.000166	1.662743	0.563352	0.000067
 183	1.8109e+01	7.2592	12.923350	0.000173	1.733713	0.587398	0.000070
 184	1.8209e+01	7.2961	13.002374	0.000197	1.966903	0.666405	0.000079
 185	1.8308e+01	7.3570	13.082621	0.000200	1.997319	0.676710	0.000081
 186	1.8407e+01	7.3859	13.156757	0.000185	1.845239	0.625184	0.000075
 187	1.8507e+01	7.4164	13.235374	0.000196	1.956764	0.662970	0.000079
 188	1.8607e+01	7.4725	13.314399	0.000197	1.966903	0.666405	0.000079
 189	1.8706e+01	7.4982	13.389350	0.000187	1.865516	0.632054	0.000075
 190	1.8805e+01	7.5463	13.469596	0.000200	1.997319	0.676710	0.000081
 191	1.8905e+01	7.6057	13.541696	0.000179	1.794545	0.608008	0.000072
 192	1.9005e+01	7.6394	13.610129	0.000170	1.703297	0.577093	0.000069
 193	1.9104e+01	7.7115	13.683451	0.000182	1.824961	0.618314	0.000074
 194	1.9203e+01	7.7051	13.755551	-0.000179	-1.794545	-0.608008	0.000072
 195	1.9303e+01	7.7420	13.831316	0.000189	1.885793	0.638924	0.000076
 196	1.9402e+01	7.7918	13.901787	0.000175	1.753991	0.594268	0.000071
 197	1.9502e+01	7.8399	13.978774	0.000192	1.916209	0.649229	0.000077
 198	1.9602e+01	7.8688	14.049652	0.000176	1.764129	0.597703	0.000071
 199	1.9701e+01	7.9153	14.122974	0.000182	1.824961	0.618314	0.000074
 200	1.9800e+01	7.9313	14.192629	0.000173	1.733713	0.587398	0.000070
 201	1.9900e+01	7.9730	14.259026	0.000165	1.652604	0.559917	0.000067
 202	2.0000e+01	8.0244	14.336828	0.000194	1.936487	0.656099	0.000078
 203	2.0099e+01	8.0693	14.416668	0.000199	1.987180	0.673275	0.000080
 204	2.0198e+01	8.1174	14.492433	0.000189	1.885793	0.638924	0.000076
 205	2.0298e+01	8.1158	14.574716	-0.000205	-2.048012	-0.693885	0.000083
 206	2.0398e+01	8.1816	14.647223	0.000180	1.804684	0.611444	0.000073
 207	2.0497e+01	8.2377	14.731136	0.000209	2.088567	0.707626	0.000084
 208	2.0596e+01	8.2875	14.800384	0.000172	1.723575	0.583963	0.000070
 209	2.0696e+01	8.3083	14.875335	0.000187	1.865516	0.632054	0.000075
 210	2.0796e+01	8.3725	14.954360	0.000197	1.966903	0.666405	0.000079
 211	2.0895e+01	8.3998	15.028496	0.000185	1.845239	0.625184	0.000075
 212	2.0994e+01	8.4383	15.097744	0.000172	1.723575	0.583963	0.000070
 213	2.1094e+01	8.4687	15.169844	0.000179	1.794545	0.608008	0.000072
 214	2.1194e+01	8.4928	15.243980	0.000185	1.845239	0.625184	0.000075
 215	2.1293e+01	8.5425	15.319746	0.000189	1.885793	0.638924	0.000076
 216	2.1392e+01	8.5730	15.385736	0.000164	1.642465	0.556482	0.000066
 217	2.1492e+01	8.6292	15.457835	0.000179	1.794545	0.608008	0.000072
 218	2.1591e+01	8.6484	15.527491	0.000173	1.733713	0.587398	0.000070
 219	2.1691e+01	8.7030	15.598776	0.000177	1.774268	0.601138	0.000072
 220	2.1791e+01	8.7559	15.675763	0.000192	1.916209	0.649229	0.000077
 221	2.1890e+01	8.7687	15.751529	0.000189	1.885793	0.638924	0.000076
 222	2.1989e+01	8.7912	15.829332	0.000194	1.936487	0.656099	0.000078
 223	2.2089e+01	8.8602	15.904690	0.000188	1.875655	0.635489	0.000076
 224	2.2189e+01	8.9003	15.980863	0.000190	1.895932	0.642359	0.000077
 225	2.2288e+01	8.9564	16.057443	0.000191	1.906071	0.645794	0.000077
 226	2.2387e+01	9.0030	16.129543	0.000179	1.794545	0.608008	0.000072
 227	2.2487e+01	9.0655	16.194718	0.000162	1.622188	0.549612	0.000066
 228	2.2587e+01	9.0575	16.261522	-0.000166	-1.662743	-0.563352	0.000067
 229	2.2686e+01	9.1153	16.328326	0.000166	1.662743	0.563352	0.000067
 230	2.2785e+01	9.1586	16.395945	0.000168	1.683020	0.570223	0.000068
 231	2.2885e+01	9.1923	16.460713	0.000161	1.612049	0.546177	0.000065
 232	2.2985e+01	9.2115	16.529146	0.000170	1.703297	0.577093	0.000069
 233	2.3084e+01	9.2516	16.599616	0.000175	1.753991	0.594268	0.000071
 234	2.3183e+01	9.2965	16.663569	0.000159	1.591772	0.539307	0.000064
 235	2.3283e+01	9.3350	16.728337	0.000161	1.612049	0.546177	0.000065
 236	2.3383e+01	9.3767	16.797585	0.000172	1.723575	0.583963	0.000070
 237	2.3482e+01	9.4152	16.870906	0.000182	1.824961	0.618314	0.000074
 238	2.3581e+01	9.4377	16.943413	0.000180	1.804684	0.611444	0.000073
 239	2.3681e+01	9.5067	17.016328	0.000181	1.814823	0.614879	0.000073
 240	2.3780e+01	9.5484	17.080281	0.000159	1.591772	0.539307	0.000064
 241	2.3880e+01	9.5885	17.151158	0.000176	1.764129	0.597703	0.000071
 242	2.3980e+01	9.6286	17.225702	0.000186	1.855377	0.628619	0.000075
 243	2.4079e+01	9.6799	17.292099	0.000165	1.652604	0.559917	0.000067
 244	2.4178e+01	9.7217	17.357273	0.000162	1.622188	0.549612	0.000066
 245	2.4278e+01	9.7233	17.422041	0.000161	1.612049	0.546177	0.000065
 246	2.4378e+01	9.7874	17.485994	0.000159	1.591772	0.539307	0.000064
 247	2.4477e+01	9.8115	17.554835	0.000171	1.713436	0.580528	0.000069
 248	2.4576e+01	9.8757	17.614307	0.000148	1.480246	0.501521	0.000060
 249	2.4676e+01	9.9222	17.682333	0.000169	1.693159	0.573658	0.000068
 250	2.4776e+01	9.9430	17.745471	0.000157	1.571495	0.532437	0.000063
 251	2.4875e+01	10.0120	17.813090	0.000168	1.683020	0.570223	0.000068
 252	2.4974e+01	10.0072	17.870525	-0.000143	-1.429553	-0.484346	0.000058
 253	2.5074e+01	10.0473	17.936107	0.000163	1.632327	0.553047	0.000066
 254	2.5174e+01	10.1019	18.004133	0.000169	1.693159	0.573658	0.000068
 255	2.5273e+01	10.1339	18.072160	0.000169	1.693159	0.573658	0.000068
 256	2.5372e+01	10.1708	18.144667	0.000180	1.804684	0.611444	0.000073
 257	2.5472e+01	10.1965	18.216359	0.000178	1.784407	0.604573	0.000072
 258	2.5572e+01	10.2494	18.281126	0.000161	1.612049	0.546177	0.000065
 259	2.5671e+01	10.3184	18.352819	0.000178	1.784407	0.604573	0.000072
 260	2.5770e+01	10.3682	18.424104	0.000177	1.774268	0.601138	0.000072
 261	2.5870e+01	10.4195	18.481946	0.000144	1.439692	0.487781	0.000058
 262	2.5970e+01	10.4339	18.546714	0.000161	1.612049	0.546177	0.000065
 263	2.6069e+01	10.4901	18.609444	0.000156	1.561356	0.529002	0.000063
 264	2.6169e+01	10.5174	18.670139	0.000151	1.510663	0.511826	0.000061
 265	2.6268e+01	10.5366	18.732869	0.000156	1.561356	0.529002	0.000063
 266	2.6367e+01	10.5719	18.795600	0.000156	1.561356	0.529002	0.000063
 267	2.6467e+01	10.6136	18.861182	0.000163	1.632327	0.553047	0.000066
 268	2.6567e+01	10.6617	18.925135	0.000159	1.591772	0.539307	0.000064
 269	2.6666e+01	10.6810	18.987866	0.000156	1.561356	0.529002	0.000063
 270	2.6765e+01	10.7211	19.045708	0.000144	1.439692	0.487781	0.000058
 271	2.6865e+01	10.7612	19.100700	0.000137	1.368721	0.463735	0.000055
 272	2.6965e+01	10.8077	19.171170	0.000175	1.753991	0.594268	0.000071
 273	2.7064e+01	10.8494	19.242862	0.000178	1.784407	0.604573	0.000072
 274	2.7163e+01	10.8911	19.311296	0.000170	1.703297	0.577093	0.000069
 275	2.7263e+01	10.9457	19.377285	0.000164	1.642465	0.556482	0.000066
 276	2.7363e+01	10.9746	19.445719	0.000170	1.703297	0.577093	0.000069
 277	2.7462e+01	11.0259	19.514560	0.000171	1.713436	0.580528	0.000069
 278	2.7561e+01	11.0852	19.574439	0.000149	1.490385	0.504956	0.000060
 279	2.7661e+01	11.0933	19.633504	0.000147	1.470108	0.498086	0.000059
 280	2.7761e+01	11.1526	19.696642	0.000157	1.571495	0.532437	0.000063
 281	2.7860e+01	11.1895	19.751633	0.000137	1.368721	0.463735	0.000055
 282	2.7959e+01	11.2104	19.812327	0.000151	1.510663	0.511826	0.000061
 283	2.8059e+01	11.2553	19.869762	0.000143	1.429553	0.484346	0.000058
 284	2.8159e+01	11.3130	19.931271	0.000153	1.530940	0.518696	0.000062
 285	2.8258e+01	11.3451	19.994816	0.000158	1.581633	0.535872	0.000064
 286	2.8358e+01	11.3596	20.057547	0.000156	1.561356	0.529002	0.000063
 287	2.8457e+01	11.3901	20.114575	0.000142	1.419414	0.480911	0.000057
 288	2.8556e+01	11.4478	20.173640	0.000147	1.470108	0.498086	0.000059
 289	2.8656e+01	11.4863	20.227409	0.000134	1.338305	0.453430	0.000054
 290	2.8756e+01	11.5248	20.296657	0.000172	1.723575	0.583963	0.000070
 291	2.8855e+01	11.5729	20.356944	0.000150	1.500524	0.508391	0.000061
 292	2.8954e+01	11.6066	20.421304	0.000160	1.601911	0.542742	0.000065
 293	2.9054e+01	11.6483	20.480776	0.000148	1.480246	0.501521	0.000060
 294	2.9154e+01	11.6916	20.546358	0.000163	1.632327	0.553047	0.000066
 295	2.9253e+01	11.7558	20.603794	0.000143	1.429553	0.484346	0.000058
 296	2.9352e+01	11.7959	20.665710	0.000154	1.541079	0.522132	0.000062
 297	2.9452e+01	11.8376	20.724367	0.000146	1.459969	0.494651	0.000059
 298	2.9552e+01	11.8633	20.779358	0.000137	1.368721	0.463735	0.000055
 299	2.9651e+01	11.9130	20.842089	0.000156	1.561356	0.529002	0.000063
 300	2.9750e+01	11.9515	20.896266	0.000135	1.348444	0.456865	0.000054
 301	2.9850e+01	11.9868	20.957367	0.000152	1.520801	0.515261	0.000061
 302	2.9950e+01	12.0237	21.020505	0.000157	1.571495	0.532437	0.000063
 303	3.0049e+01	12.0558	21.079162	0.000146	1.459969	0.494651	0.000059
 304	3.0148e+01	12.1152	21.138634	0.000148	1.480246	0.501521	0.000060
 305	3.0248e+01	12.1408	21.196070	0.000143	1.429553	0.484346	0.000058
 306	3.0348e+01	12.1681	21.255949	0.000149	1.490385	0.504956	0.000060
 307	3.0447e+01	12.2130	21.309718	0.000134	1.338305	0.453430	0.000054
 308	3.0547e+01	12.2547	21.371634	0.000154	1.541079	0.522132	0.000062
 309	3.0646e+01	12.3013	21.438031	0.000165	1.652604	0.559917	0.000067
 310	3.0745e+01	12.3269	21.499947	0.000154	1.541079	0.522132	0.000062
 311	3.0845e+01	12.3734	21.566751	0.000166	1.662743	0.563352	0.000067
 312	3.0945e+01	12.4168	21.634370	0.000168	1.683020	0.570223	0.000068
 313	3.1044e+01	12.4488	21.697916	0.000158	1.581633	0.535872	0.000064
 314	3.1143e+01	12.5018	21.757795	0.000149	1.490385	0.504956	0.000060
 315	3.1243e+01	12.5291	21.818489	0.000151	1.510663	0.511826	0.000061
 316	3.1343e+01	12.5900	21.877961	0.000148	1.480246	0.501521	0.000060
 317	3.1442e+01	12.6045	21.941507	0.000158	1.581633	0.535872	0.000064
 318	3.1541e+01	12.6815	22.000979	0.000148	1.480246	0.501521	0.000060
 319	3.1641e+01	12.7023	22.060858	0.000149	1.490385	0.504956	0.000060
 320	3.1741e+01	12.7392	22.119515	0.000146	1.459969	0.494651	0.000059
 321	3.1840e+01	12.7825	22.181839	0.000155	1.551217	0.525567	0.000063
 322	3.1939e+01	12.8226	22.244569	0.000156	1.561356	0.529002	0.000063
 323	3.2039e+01	12.8371	22.301597	0.000142	1.419414	0.480911	0.000057
 324	3.2139e+01	12.8868	22.359847	0.000145	1.449830	0.491216	0.000059
 325	3.2238e+01	12.9205	22.413617	0.000134	1.338305	0.453430	0.000054
 326	3.2337e+01	12.9590	22.476755	0.000157	1.571495	0.532437	0.000063
 327	3.2437e+01	12.9943	22.543966	0.000167	1.672881	0.566788	0.000068
 328	3.2536e+01	13.0392	22.612807	0.000171	1.713436	0.580528	0.000069
 329	3.2636e+01	13.0713	22.674316	0.000153	1.530940	0.518696	0.000062
 330	3.2736e+01	13.1339	22.741120	0.000166	1.662743	0.563352	0.000067
 331	3.2835e+01	13.1964	22.800592	0.000148	1.480246	0.501521	0.000060
 332	3.2934e+01	13.2221	22.862101	0.000153	1.530940	0.518696	0.000062
 333	3.3034e+01	13.2574	22.924017	0.000154	1.541079	0.522132	0.000062
 334	3.3133e+01	13.2847	22.987155	0.000157	1.571495	0.532437	0.000063
 335	3.3233e+01	13.3617	23.049478	0.000155	1.551217	0.525567	0.000063
 336	3.3333e+01	13.3713	23.103655	0.000135	1.348444	0.456865	0.000054
 337	3.3432e+01	13.3921	23.166793	0.000157	1.571495	0.532437	0.000063
 338	3.3532e+01	13.4290	23.229931	0.000157	1.571495	0.532437	0.000063
 339	3.3631e+01	13.4707	23.286552	0.000141	1.409276	0.477476	0.000057
 340	3.3730e+01	13.5349	23.346431	0.000149	1.490385	0.504956	0.000060
 341	3.3830e+01	13.5718	23.406718	0.000150	1.500524	0.508391	0.000061
 342	3.3929e+01	13.5782	23.466190	0.000148	1.480246	0.501521	0.000060
 343	3.4029e+01	13.6328	23.524847	0.000146	1.459969	0.494651	0.000059
 344	3.4129e+01	13.6713	23.590022	0.000162	1.622188	0.549612	0.000066
 345	3.4228e+01	13.7210	23.653567	0.000158	1.581633	0.535872	0.000064
 346	3.4328e+01	13.7403	23.719964	0.000165	1.652604	0.559917	0.000067
 347	3.4427e+01	13.7916	23.788805	0.000171	1.713436	0.580528	0.000069
 348	3.4526e+01	13.8301	23.849499	0.000151	1.510663	0.511826	0.000061
 349	3.4626e+01	13.8830	23.912230	0.000156	1.561356	0.529002	0.000063
 350	3.4725e+01	13.9215	23.970887	0.000146	1.459969	0.494651	0.000059
 351	3.4825e+01	13.9648	24.033618	0.000156	1.561356	0.529002	0.000063
 352	3.4925e+01	14.0146	24.090238	0.000141	1.409276	0.477476	0.000057
 353	3.5024e+01	14.0499	24.151747	0.000153	1.530940	0.518696	0.000062
 354	3.5123e+01	14.0787	24.211219	0.000148	1.480246	0.501521	0.000060
 355	3.5223e+01	14.1108	24.271913	0.000151	1.510663	0.511826	0.000061
 356	3.5322e+01	14.1397	24.328941	0.000142	1.419414	0.480911	0.000057
 357	3.5422e+01	14.2135	24.388821	0.000149	1.490385	0.504956	0.000060
 358	3.5522e+01	14.2648	24.445034	0.000140	1.399137	0.474040	0.000056
 359	3.5621e+01	14.2889	24.502876	0.000144	1.439692	0.487781	0.000058
 360	3.5721e+01	14.3114	24.559904	0.000142	1.419414	0.480911	0.000057
 361	3.5820e+01	14.3531	24.630375	0.000175	1.753991	0.594268	0.000071
 362	3.5919e+01	14.3932	24.696364	0.000164	1.642465	0.556482	0.000066
 363	3.6019e+01	14.4237	24.757058	0.000151	1.510663	0.511826	0.000061
 364	3.6118e+01	14.4686	24.826714	0.000173	1.733713	0.587398	0.000070
 365	3.6218e+01	14.5231	24.892296	0.000163	1.632327	0.553047	0.000066
 366	3.6318e+01	14.5761	24.956656	0.000160	1.601911	0.542742	0.000065
 367	3.6417e+01	14.6162	25.017350	0.000151	1.510663	0.511826	0.000061
 368	3.6517e+01	14.6386	25.077637	0.000150	1.500524	0.508391	0.000061
 369	3.6616e+01	14.6851	25.133443	0.000139	1.388998	0.470605	0.000056
 370	3.6715e+01	14.7140	25.193322	0.000149	1.490385	0.504956	0.000060
 371	3.6815e+01	14.7670	25.251165	0.000144	1.439692	0.487781	0.000058
 372	3.6914e+01	14.7942	25.309415	0.000145	1.449830	0.491216	0.000059
 373	3.7014e+01	14.8472	25.372960	0.000158	1.581633	0.535872	0.000064
 374	3.7114e+01	14.9097	25.434062	0.000152	1.520801	0.515261	0.000061
 375	3.7213e+01	14.9242	25.495978	0.000154	1.541079	0.522132	0.000062
 376	3.7313e+01	14.9402	25.554228	0.000145	1.449830	0.491216	0.000059
 377	3.7412e+01	14.9851	25.608404	0.000135	1.348444	0.456865	0.000054
 378	3.7511e+01	15.0252	25.676838	0.000170	1.703297	0.577093	0.000069
 379	3.7611e+01	15.0782	25.744457	0.000168	1.683020	0.570223	0.000068
 380	3.7711e+01	15.1006	25.807187	0.000156	1.561356	0.529002	0.000063
 381	3.7810e+01	15.1520	25.874806	0.000168	1.683020	0.570223	0.000068
 382	3.7910e+01	15.2113	25.940388	0.000163	1.632327	0.553047	0.000066
 383	3.8009e+01	15.2210	26.001897	0.000153	1.530940	0.518696	0.000062
 384	3.8108e+01	15.2803	26.062184	0.000150	1.500524	0.508391	0.000061
 385	3.8208e+01	15.3284	26.125322	0.000157	1.571495	0.532437	0.000063
 386	3.8307e+01	15.3766	26.183979	0.000146	1.459969	0.494651	0.000059
 387	3.8407e+01	15.4151	26.239378	0.000138	1.378860	0.467170	0.000056
 388	3.8507e+01	15.4568	26.294369	0.000137	1.368721	0.463735	0.000055
 389	3.8606e+01	15.4825	26.357914	0.000158	1.581633	0.535872	0.000064
 390	3.8706e+01	15.5242	26.414128	0.000140	1.399137	0.474040	0.000056
 391	3.8805e+01	15.5707	26.476451	0.000155	1.551217	0.525567	0.000063
 392	3.8904e+01	15.5931	26.533886	0.000143	1.429553	0.484346	0.000058
 393	3.9004e+01	15.6172	26.589285	0.000138	1.378860	0.467170	0.000056
 394	3.9103e+01	15.6621	26.641832	0.000131	1.307889	0.443125	0.000053
 395	3.9203e+01	15.7038	26.701712	0.000149	1.490385	0.504956	0.000060
 396	3.9303e+01	15.7568	26.764035	0.000155	1.551217	0.525567	0.000063
 397	3.9402e+01	15.8225	26.822692	0.000146	1.459969	0.494651	0.000059
 398	3.9502e+01	15.8097	26.882572	-0.000149	-1.490385	-0.504956	0.000060
 399	3.9601e+01	15.8755	26.945710	0.000157	1.571495	0.532437	0.000063
 400	3.9700e+01	15.8867	27.005996	0.000150	1.500524	0.508391	0.000061
 401	3.9800e+01	15.9397	27.064654	0.000146	1.459969	0.494651	0.000059
 402	3.9900e+01	16.0423	27.120867	0.000140	1.399137	0.474040	0.000056
 403	3.9999e+01	16.0584	27.172192	0.000128	1.277473	0.432820	0.000052
 404	4.0099e+01	16.0712	27.224739	0.000131	1.307889	0.443125	0.000053
 405	4.0198e+01	16.1257	27.276065	0.000128	1.277473	0.432820	0.000052
 406	4.0297e+01	16.1819	27.330648	0.000136	1.358582	0.460300	0.000055
 407	4.0397e+01	16.2011	27.385640	0.000137	1.368721	0.463735	0.000055
 408	4.0496e+01	16.2380	27.440224	0.000136	1.358582	0.460300	0.000055
 409	4.0596e+01	16.2830	27.495215	0.000137	1.368721	0.463735	0.000055
 410	4.0696e+01	16.3070	27.546133	0.000127	1.267334	0.429384	0.000051
 411	4.0795e+01	16.3568	27.595828	0.000124	1.236918	0.419079	0.000050
 412	4.0895e+01	16.4065	27.650005	0.000135	1.348444	0.456865	0.000054
 413	4.0994e+01	16.4241	27.712736	0.000156	1.561356	0.529002	0.000063
 414	4.1093e+01	16.4466	27.776689	0.000159	1.591772	0.539307	0.000064
 415	4.1193e+01	16.4851	27.827606	0.000127	1.267334	0.429384	0.000051
 416	4.1292e+01	16.5669	27.890337	0.000156	1.561356	0.529002	0.000063
 417	4.1392e+01	16.5990	27.946143	0.000139	1.388998	0.470605	0.000056
 418	4.1492e+01	16.6279	28.006022	0.000149	1.490385	0.504956	0.000060
 419	4.1591e+01	16.6824	28.059384	0.000133	1.328166	0.449995	0.000054
 420	4.1691e+01	16.6953	28.112339	0.000132	1.318028	0.446560	0.000053
 421	4.1790e+01	16.7482	28.165293	0.000132	1.318028	0.446560	0.000053
 422	4.1889e+01	16.8124	28.219063	0.000134	1.338305	0.453430	0.000054
 423	4.1989e+01	16.8268	28.270795	0.000129	1.287612	0.436255	0.000052
 424	4.2089e+01	16.8894	28.320898	0.000125	1.247057	0.422514	0.000050
 425	4.2188e+01	16.9150	28.373038	0.000130	1.297750	0.439690	0.000052
 426	4.2288e+01	16.9648	28.422734	0.000124	1.236918	0.419079	0.000050
 427	4.2387e+01	17.0097	28.475688	0.000132	1.318028	0.446560	0.000053
 428	4.2486e+01	17.0177	28.514793	0.000097	0.973313	0.329767	0.000039
 429	4.2586e+01	17.0787	28.570192	0.000138	1.378860	0.467170	0.000056
 430	4.2685e+01	17.1011	28.629257	0.000147	1.470108	0.498086	0.000059
 431	4.2785e+01	17.1509	28.683840	0.000136	1.358582	0.460300	0.000055
 432	4.2885e+01	17.2022	28.742498	0.000146	1.459969	0.494651	0.000059
 433	4.2984e+01	17.2086	28.793823	0.000128	1.277473	0.432820	0.000052
 434	4.3084e+01	17.2696	28.851666	0.000144	1.439692	0.487781	0.000058
 435	4.3183e+01	17.2904	28.905435	0.000134	1.338305	0.453430	0.000054
 436	4.3282e+01	17.3546	28.960426	0.000137	1.368721	0.463735	0.000055
 437	4.3382e+01	17.3899	29.013788	0.000133	1.328166	0.449995	0.000054
 438	4.3481e+01	17.4300	29.070409	0.000141	1.409276	0.477476	0.000057
 439	4.3581e+01	17.4444	29.126214	0.000139	1.388998	0.470605	0.000056
 440	4.3681e+01	17.5311	29.178762	0.000131	1.307889	0.443125	0.000053
 441	4.3780e+01	17.5262	29.232938	-0.000135	-1.348444	-0.456865	0.000054
 442	4.3880e+01	17.6049	29.272043	0.000097	0.973313	0.329767	0.000039
 443	4.3979e+01	17.6498	29.326627	0.000136	1.358582	0.460300	0.000055
 444	4.4078e+01	17.6738	29.373879	0.000118	1.176086	0.398469	0.000047
 445	4.4178e+01	17.7220	29.420316	0.000116	1.155809	0.391599	0.000047
 446	4.4278e+01	17.7476	29.459421	0.000097	0.973313	0.329767	0.000039
 447	4.4377e+01	17.8038	29.510338	0.000127	1.267334	0.429384	0.000051
 448	4.4477e+01	17.8246	29.566144	0.000139	1.388998	0.470605	0.000056
 449	4.4576e+01	17.8712	29.619914	0.000134	1.338305	0.453430	0.000054
 450	4.4675e+01	17.9433	29.668387	0.000121	1.206502	0.408774	0.000049
 451	4.4775e+01	17.9305	29.724601	-0.000140	-1.399137	-0.474040	0.000056
 452	4.4874e+01	17.9626	29.782036	0.000143	1.429553	0.484346	0.000058
 453	4.4974e+01	18.0139	29.834583	0.000131	1.307889	0.443125	0.000053
 454	4.5074e+01	18.0524	29.887538	0.000132	1.318028	0.446560	0.000053
 455	4.5173e+01	18.0893	29.935197	0.000119	1.186225	0.401904	0.000048
 456	4.5273e+01	18.1326	29.992632	0.000143	1.429553	0.484346	0.000058
 457	4.5372e+01	18.1792	30.043957	0.000128	1.277473	0.432820	0.000052
 458	4.5471e+01	18.2193	30.092431	0.000121	1.206502	0.408774	0.000049
 459	4.5571e+01	18.2578	30.141312	0.000122	1.216641	0.412209	0.000049
 460	4.5670e+01	18.3091	30.186934	0.000114	1.135532	0.384729	0.000046
 461	4.5770e+01	18.3492	30.233779	0.000117	1.165948	0.395034	0.000047
 462	4.5870e+01	18.3925	30.271662	0.000094	0.942897	0.319462	0.000038
 463	4.5969e+01	18.4647	30.315655	0.000109	1.094977	0.370988	0.000044
 464	4.6069e+01	18.5048	30.351501	0.000089	0.892203	0.302287	0.000036
 465	4.6168e+01	18.5337	30.401604	0.000125	1.247057	0.422514	0.000050
 466	4.6267e+01	18.5546	30.458225	0.000141	1.409276	0.477476	0.000057
 467	4.6367e+01	18.5947	30.511994	0.000134	1.338305	0.453430	0.000054
 468	4.6467e+01	18.5963	30.563726	0.000129	1.287612	0.436255	0.000052
 469	4.6566e+01	18.6588	30.612607	0.000122	1.216641	0.412209	0.000049
 470	4.6666e+01	18.7198	30.669635	0.000142	1.419414	0.480911	0.000057
 471	4.6765e+01	18.7487	30.720146	0.000126	1.257196	0.425949	0.000051
 472	4.6864e+01	18.8064	30.766990	0.000117	1.165948	0.395034	0.000047
 473	4.6964e+01	18.8305	30.819537	0.000131	1.307889	0.443125	0.000053
 474	4.7063e+01	18.8562	30.873307	0.000134	1.338305	0.453430	0.000054
 475	4.7163e+01	18.9171	30.920966	0.000119	1.186225	0.401904	0.000048
 476	4.7263e+01	18.9332	30.975142	0.000135	1.348444	0.456865	0.000054
 477	4.7362e+01	18.9765	31.021579	0.000116	1.155809	0.391599	0.000047
 478	4.7462e+01	19.0198	31.069646	0.000120	1.196364	0.405339	0.000048
 479	4.7561e+01	19.0888	31.117305	0.000119	1.186225	0.401904	0.000048
 480	4.7660e+01	19.0807	31.162113	-0.000112	-1.115254	-0.377858	0.000045
 481	4.7760e+01	19.1529	31.201625	0.000098	0.983451	0.333202	0.000040
 482	4.7859e+01	19.1818	31.261097	0.000148	1.480246	0.501521	0.000060
 483	4.7959e+01	19.2331	31.308349	0.000118	1.176086	0.398469	0.000047
 484	4.8059e+01	19.2749	31.366191	0.000144	1.439692	0.487781	0.000058
 485	4.8158e+01	19.3085	31.418331	0.000130	1.297750	0.439690	0.000052
 486	4.8258e+01	19.3487	31.472915	0.000136	1.358582	0.460300	0.000055
 487	4.8357e+01	19.3952	31.527091	0.000135	1.348444	0.456865	0.000054
 488	4.8456e+01	19.4241	31.578417	0.000128	1.277473	0.432820	0.000052
 489	4.8556e+01	19.4481	31.633001	0.000136	1.358582	0.460300	0.000055
 490	4.8656e+01	19.4978	31.682696	0.000124	1.236918	0.419079	0.000050
 491	4.8755e+01	19.5396	31.737280	0.000136	1.358582	0.460300	0.000055
 492	4.8855e+01	19.5668	31.787383	0.000125	1.247057	0.422514	0.000050
 493	4.8954e+01	19.6182	31.841153	0.000134	1.338305	0.453430	0.000054
 494	4.9053e+01	19.6727	31.890441	0.000123	1.226780	0.415644	0.000050
 495	4.9153e+01	19.6791	31.942988	0.000131	1.307889	0.443125	0.000053
 496	4.9252e+01	19.7465	31.989833	0.000117	1.165948	0.395034	0.000047
 497	4.9352e+01	19.7818	32.034640	0.000112	1.115254	0.377858	0.000045
 498	4.9452e+01	19.8444	32.076597	0.000104	1.044283	0.353813	0.000042
 499	4.9551e+01	19.8620	32.131180	0.000136	1.358582	0.460300	0.000055
 500	4.9651e+01	19.9021	32.181691	0.000126	1.257196	0.425949	0.000051
 501	4.9750e+01	19.9278	32.241163	0.000148	1.480246	0.501521	0.000060
 502	4.9849e+01	19.9839	32.289229	0.000120	1.196364	0.405339	0.000048
 503	4.9949e+01	20.0272	32.341777	0.000131	1.307889	0.443125	0.000053
 504	5.0048e+01	19.9807	32.312855	0.000072	0.719846	0.243890	-0.000029
 505	5.0148e+01	19.9518	32.275787	0.000092	0.922619	0.312592	-0.000037
 506	5.0248e+01	19.9037	32.237497	0.000095	0.953035	0.322897	-0.000038
 507	5.0347e+01	19.8748	32.203280	0.000085	0.851649	0.288546	-0.000034
 508	5.0447e+01	19.8395	32.161324	0.000104	1.044283	0.353813	-0.000042
 509	5.0546e+01	19.7802	32.127514	0.000084	0.841510	0.285111	-0.000034
 510	5.0645e+01	19.7176	32.083929	0.000108	1.084838	0.367553	-0.000044
 511	5.0745e+01	19.6936	32.052156	0.000079	0.790817	0.267936	-0.000032
 512	5.0844e+01	19.6502	32.009792	0.000105	1.054422	0.357248	-0.000043
 513	5.0944e+01	19.6198	31.969058	0.000101	1.013867	0.343508	-0.000041
 514	5.1044e+01	19.5716	31.921399	0.000119	1.186225	0.401904	-0.000048
 515	5.1143e+01	19.5588	31.887590	0.000084	0.841510	0.285111	-0.000034
 516	5.1242e+01	19.5107	31.844819	0.000106	1.064561	0.360683	-0.000043
 517	5.1342e+01	19.4882	31.808158	0.000091	0.912481	0.309157	-0.000037
 518	5.1441e+01	19.4353	31.764572	0.000108	1.084838	0.367553	-0.000044
 519	5.1541e+01	19.3936	31.723838	0.000101	1.013867	0.343508	-0.000041
 520	5.1641e+01	19.3487	31.685140	0.000096	0.963174	0.326332	-0.000039
 521	5.1740e+01	19.3069	31.647258	0.000094	0.942897	0.319462	-0.000038
 522	5.1840e+01	19.2380	31.600413	0.000117	1.165948	0.395034	-0.000047
 523	5.1939e+01	19.2315	31.557235	0.000107	1.074699	0.364118	-0.000043
 524	5.2038e+01	19.1786	31.514871	0.000105	1.054422	0.357248	-0.000043
 525	5.2138e+01	19.1497	31.477396	0.000093	0.932758	0.316027	-0.000038
 526	5.2237e+01	19.1128	31.434625	0.000106	1.064561	0.360683	-0.000043
 527	5.2337e+01	19.0519	31.394705	0.000099	0.993590	0.336637	-0.000040
 528	5.2437e+01	19.0150	31.352342	0.000105	1.054422	0.357248	-0.000043
 529	5.2536e+01	18.9797	31.314459	0.000094	0.942897	0.319462	-0.000038
 530	5.2636e+01	18.9348	31.271688	0.000106	1.064561	0.360683	-0.000043
 531	5.2735e+01	18.9219	31.228102	0.000108	1.084838	0.367553	-0.000044
 532	5.2834e+01	18.8610	31.180443	0.000119	1.186225	0.401904	-0.000048
 533	5.2934e+01	18.8160	31.142153	0.000095	0.953035	0.322897	-0.000038
 534	5.3033e+01	18.7775	31.102233	0.000099	0.993590	0.336637	-0.000040
 535	5.3133e+01	18.7679	31.064758	0.000093	0.932758	0.316027	-0.000038
 536	5.3233e+01	18.7374	31.023616	0.000102	1.024006	0.346943	-0.000041
 537	5.3332e+01	18.6685	30.977994	0.000114	1.135532	0.384729	-0.000046
 538	5.3431e+01	18.6492	30.940518	0.000093	0.932758	0.316027	-0.000038
 539	5.3531e+01	18.5898	30.895303	0.000113	1.125393	0.381293	-0.000045
 540	5.3630e+01	18.5658	30.855384	0.000099	0.993590	0.336637	-0.000040
 541	5.3730e+01	18.4936	30.814649	0.000101	1.013867	0.343508	-0.000041
 542	5.3830e+01	18.4856	30.773915	0.000101	1.013867	0.343508	-0.000041
 543	5.3929e+01	18.4407	30.731551	0.000105	1.054422	0.357248	-0.000043
 544	5.4029e+01	18.3893	30.693261	0.000095	0.953035	0.322897	-0.000038
 545	5.4128e+01	18.3332	30.655378	0.000094	0.942897	0.319462	-0.000038
 546	5.4227e+01	18.3139	30.614237	0.000102	1.024006	0.346943	-0.000041
 547	5.4327e+01	18.2562	30.571466	0.000106	1.064561	0.360683	-0.000043
 548	5.4426e+01	18.2048	30.533176	0.000095	0.953035	0.322897	-0.000038
 549	5.4526e+01	18.1808	30.487553	0.000114	1.135532	0.384729	-0.000046
 550	5.4626e+01	18.1695	30.435413	0.000130	1.297750	0.439690	-0.000052
 551	5.4725e+01	18.1006	30.395087	0.000100	1.003729	0.340073	-0.000041
 552	5.4825e+01	18.0524	30.359648	0.000088	0.882065	0.298852	-0.000036
 553	5.4924e+01	18.0332	30.318506	0.000102	1.024006	0.346943	-0.000041
 554	5.5023e+01	17.9979	30.272884	0.000114	1.135532	0.384729	-0.000046
 555	5.5123e+01	17.9578	30.232964	0.000099	0.993590	0.336637	-0.000040
 556	5.5222e+01	17.9241	30.184083	0.000122	1.216641	0.412209	-0.000049
 557	5.5322e+01	17.8808	30.143349	0.000101	1.013867	0.343508	-0.000041
 558	5.5422e+01	17.8198	30.098948	0.000111	1.105116	0.374423	-0.000045
 559	5.5521e+01	17.8006	30.057400	0.000103	1.034145	0.350378	-0.000042
 560	5.5620e+01	17.7444	30.009740	0.000119	1.186225	0.401904	-0.000048
 561	5.5720e+01	17.7220	29.969414	0.000100	1.003729	0.340073	-0.000041
 562	5.5819e+01	17.6802	29.920532	0.000122	1.216641	0.412209	-0.000049
 563	5.5919e+01	17.6225	29.880613	0.000099	0.993590	0.336637	-0.000040
 564	5.6019e+01	17.5631	29.830102	0.000126	1.257196	0.425949	-0.000051
 565	5.6118e+01	17.5471	29.786109	0.000109	1.094977	0.370988	-0.000044
 566	5.6218e+01	17.5054	29.736821	0.000123	1.226780	0.415644	-0.000050
 567	5.6317e+01	17.4524	29.689569	0.000118	1.176086	0.398469	-0.000047
 568	5.6416e+01	17.4300	29.632949	0.000141	1.409276	0.477476	-0.000057
 569	5.6516e+01	17.3851	29.589363	0.000108	1.084838	0.367553	-0.000044
 570	5.6615e+01	17.3530	29.548629	0.000101	1.013867	0.343508	-0.000041
 571	5.6715e+01	17.3289	29.500562	0.000120	1.196364	0.405339	-0.000048
 572	5.6815e+01	17.2984	29.452496	0.000120	1.196364	0.405339	-0.000048
 573	5.6914e+01	17.2102	29.403615	0.000122	1.216641	0.412209	-0.000049
 574	5.7014e+01	17.2086	29.356363	0.000118	1.176086	0.398469	-0.000047
 575	5.7113e+01	17.1637	29.307075	0.000123	1.226780	0.415644	-0.000050
 576	5.7212e+01	17.1188	29.262267	0.000112	1.115254	0.377858	-0.000045
 577	5.7312e+01	17.0706	29.210942	0.000128	1.277473	0.432820	-0.000052
 578	5.7411e+01	17.0273	29.164912	0.000115	1.145670	0.388164	-0.000046
 579	5.7511e+01	17.0177	29.122141	0.000106	1.064561	0.360683	-0.000043
 580	5.7611e+01	16.9503	29.072038	0.000125	1.247057	0.422514	-0.000050
 581	5.7710e+01	16.9343	29.020713	0.000128	1.277473	0.432820	-0.000052
 582	5.7809e+01	16.8717	28.971424	0.000123	1.226780	0.415644	-0.000050
 583	5.7909e+01	16.8108	28.923358	0.000120	1.196364	0.405339	-0.000048
 584	5.8008e+01	16.7915	28.870811	0.000131	1.307889	0.443125	-0.000053
 585	5.8108e+01	16.7610	28.820300	0.000126	1.257196	0.425949	-0.000051
 586	5.8208e+01	16.7017	28.767753	0.000131	1.307889	0.443125	-0.000053
 587	5.8307e+01	16.6760	28.724167	0.000108	1.084838	0.367553	-0.000044
 588	5.8407e+01	16.6263	28.675286	0.000122	1.216641	0.412209	-0.000049
 589	5.8506e+01	16.5862	28.629664	0.000114	1.135532	0.384729	-0.000046
 590	5.8605e+01	16.5557	28.577524	0.000130	1.297750	0.439690	-0.000052
 591	5.8705e+01	16.5124	28.527828	0.000124	1.236918	0.419079	-0.000050
 592	5.8804e+01	16.5076	28.481391	0.000116	1.155809	0.391599	-0.000047
 593	5.8904e+01	16.4594	28.428844	0.000131	1.307889	0.443125	-0.000053
 594	5.9004e+01	16.3840	28.376297	0.000131	1.307889	0.443125	-0.000053
 595	5.9103e+01	16.3632	28.326601	0.000124	1.236918	0.419079	-0.000050
 596	5.9203e+01	16.3167	28.280164	0.000116	1.155809	0.391599	-0.000047
 597	5.9302e+01	16.2765	28.225580	0.000136	1.358582	0.460300	-0.000055
 598	5.9401e+01	16.1963	28.172626	0.000132	1.318028	0.446560	-0.000053
 599	5.9501e+01	16.1771	28.125781	0.000117	1.165948	0.395034	-0.000047
 600	5.9600e+01	16.1482	28.074456	0.000128	1.277473	0.432820	-0.000052
 601	5.9700e+01	16.1049	28.027204	0.000118	1.176086	0.398469	-0.000047
 602	5.9800e+01	16.0696	27.970176	0.000142	1.419414	0.480911	-0.000057
 603	5.9899e+01	16.0455	27.912741	0.000143	1.429553	0.484346	-0.000058
 604	5.9998e+01	15.9926	27.863860	0.000122	1.216641	0.412209	-0.000049
 605	6.0098e+01	15.9685	27.819460	0.000111	1.105116	0.374423	-0.000045
 606	6.0197e+01	15.9092	27.771393	0.000120	1.196364	0.405339	-0.000048
 607	6.0297e+01	15.8915	27.724956	0.000116	1.155809	0.391599	-0.000047
 608	6.0397e+01	15.8418	27.672816	0.000130	1.297750	0.439690	-0.000052
 609	6.0496e+01	15.8081	27.619862	0.000132	1.318028	0.446560	-0.000053
 610	6.0596e+01	15.7648	27.566500	0.000133	1.328166	0.449995	-0.000054
 611	6.0695e+01	15.7343	27.511916	0.000136	1.358582	0.460300	-0.000055
 612	6.0794e+01	15.6782	27.460998	0.000127	1.267334	0.429384	-0.000051
 613	6.0894e+01	15.6252	27.407636	0.000133	1.328166	0.449995	-0.000054
 614	6.0993e+01	15.5755	27.356311	0.000128	1.277473	0.432820	-0.000052
 615	6.1093e+01	15.5466	27.299283	0.000142	1.419414	0.480911	-0.000057
 616	6.1193e+01	15.5145	27.245514	0.000134	1.338305	0.453430	-0.000054
 617	6.1292e+01	15.4648	27.192152	0.000133	1.328166	0.449995	-0.000054
 618	6.1392e+01	15.4552	27.136753	0.000138	1.378860	0.467170	-0.000056
 619	6.1491e+01	15.3830	27.081355	0.000138	1.378860	0.467170	-0.000056
 620	6.1590e+01	15.3525	27.019846	0.000153	1.530940	0.518696	-0.000062
 621	6.1690e+01	15.3044	26.966892	0.000132	1.318028	0.446560	-0.000053
 622	6.1789e+01	15.2659	26.920047	0.000117	1.165948	0.395034	-0.000047
 623	6.1889e+01	15.2178	26.870759	0.000123	1.226780	0.415644	-0.000050
 624	6.1989e+01	15.1793	26.818212	0.000131	1.307889	0.443125	-0.000053
 625	6.2088e+01	15.1632	26.762813	0.000138	1.378860	0.467170	-0.000056
 626	6.2188e+01	15.1247	26.711080	0.000129	1.287612	0.436255	-0.000052
 627	6.2287e+01	15.1055	26.653238	0.000144	1.439692	0.487781	-0.000058
 628	6.2386e+01	15.0605	26.596210	0.000142	1.419414	0.480911	-0.000057
 629	6.2486e+01	14.9916	26.537960	0.000145	1.449830	0.491216	-0.000059
 630	6.2586e+01	14.9659	26.476859	0.000152	1.520801	0.515261	-0.000061
 631	6.2685e+01	14.9306	26.425533	0.000128	1.277473	0.432820	-0.000052
 632	6.2785e+01	14.8761	26.369320	0.000140	1.399137	0.474040	-0.000056
 633	6.2884e+01	14.8247	26.311477	0.000144	1.439692	0.487781	-0.000058
 634	6.2983e+01	14.8199	26.256079	0.000138	1.378860	0.467170	-0.000056
 635	6.3083e+01	14.7301	26.202310	0.000134	1.338305	0.453430	-0.000054
 636	6.3182e+01	14.7365	26.149355	-0.000132	-1.318028	-0.446560	-0.000053
 637	6.3282e+01	14.6563	26.095179	0.000135	1.348444	0.456865	-0.000054
 638	6.3382e+01	14.6370	26.035707	0.000148	1.480246	0.501521	-0.000060
 639	6.3481e+01	14.5793	25.977864	0.000144	1.439692	0.487781	-0.000058
 640	6.3581e+01	14.5504	25.929797	0.000120	1.196364	0.405339	-0.000048
 641	6.3680e+01	14.5135	25.875621	0.000135	1.348444	0.456865	-0.000054
 642	6.3779e+01	14.4766	25.824703	0.000127	1.267334	0.429384	-0.000051
 643	6.3879e+01	14.4445	25.770934	0.000134	1.338305	0.453430	-0.000054
 644	6.3978e+01	14.3964	25.714313	0.000141	1.409276	0.477476	-0.000057
 645	6.4078e+01	14.3900	25.663395	0.000127	1.267334	0.429384	-0.000051
 646	6.4177e+01	14.3370	25.606367	0.000142	1.419414	0.480911	-0.000057
 647	6.4277e+01	14.2809	25.551376	0.000137	1.368721	0.463735	-0.000055
 648	6.4376e+01	14.2584	25.496385	0.000137	1.368721	0.463735	-0.000055
 649	6.4476e+01	14.1959	25.448726	0.000119	1.186225	0.401904	-0.000048
 650	6.4576e+01	14.1574	25.392513	0.000140	1.399137	0.474040	-0.000056
 651	6.4675e+01	14.1301	25.339558	0.000132	1.318028	0.446560	-0.000053
 652	6.4775e+01	14.0820	25.282937	0.000141	1.409276	0.477476	-0.000057
 653	6.4874e+01	14.0162	25.233649	0.000123	1.226780	0.415644	-0.000050
 654	6.4974e+01	14.0033	25.174584	0.000147	1.470108	0.498086	-0.000059
 655	6.5073e+01	13.9488	25.122037	0.000131	1.307889	0.443125	-0.000053
 656	6.5172e+01	13.9183	25.060936	0.000152	1.520801	0.515261	-0.000061
 657	6.5272e+01	13.8862	25.010425	0.000126	1.257196	0.425949	-0.000051
 658	6.5371e+01	13.8590	24.962359	0.000120	1.196364	0.405339	-0.000048
 659	6.5471e+01	13.8060	24.911441	0.000127	1.267334	0.429384	-0.000051
 660	6.5570e+01	13.8092	24.859709	-0.000129	-1.287612	-0.436255	-0.000052
 661	6.5670e+01	13.7258	24.804310	0.000138	1.378860	0.467170	-0.000056
 662	6.5769e+01	13.6681	24.750541	0.000134	1.338305	0.453430	-0.000054
 663	6.5869e+01	13.6424	24.699216	0.000128	1.277473	0.432820	-0.000052
 664	6.5969e+01	13.5991	24.643002	0.000140	1.399137	0.474040	-0.000056
 665	6.6068e+01	13.5622	24.589640	0.000133	1.328166	0.449995	-0.000054
 666	6.6168e+01	13.5285	24.534649	0.000137	1.368721	0.463735	-0.000055
 667	6.6267e+01	13.4884	24.482102	0.000131	1.307889	0.443125	-0.000053
 668	6.6367e+01	13.4194	24.430370	0.000129	1.287612	0.436255	-0.000052
 669	6.6466e+01	13.3921	24.377415	0.000132	1.318028	0.446560	-0.000053
 670	6.6566e+01	13.3681	24.322831	0.000136	1.358582	0.460300	-0.000055
 671	6.6665e+01	13.3248	24.269469	0.000133	1.328166	0.449995	-0.000054
 672	6.6764e+01	13.2975	24.216515	0.000132	1.318028	0.446560	-0.000053
 673	6.6864e+01	13.2397	24.164375	0.000130	1.297750	0.439690	-0.000052
 674	6.6963e+01	13.1852	24.105718	0.000146	1.459969	0.494651	-0.000059
 675	6.7063e+01	13.1595	24.046245	0.000148	1.480246	0.501521	-0.000060
 676	6.7162e+01	13.1290	23.992884	0.000133	1.328166	0.449995	-0.000054
 677	6.7262e+01	13.1162	23.939929	0.000132	1.318028	0.446560	-0.000053
 678	6.7362e+01	13.0504	23.889011	0.000127	1.267334	0.429384	-0.000051
 679	6.7461e+01	13.0087	23.834427	0.000136	1.358582	0.460300	-0.000055
 680	6.7561e+01	12.9927	23.785546	0.000122	1.216641	0.412209	-0.000049
 681	6.7660e+01	12.9397	23.737073	0.000121	1.206502	0.408774	-0.000049
 682	6.7760e+01	12.9189	23.683303	0.000134	1.338305	0.453430	-0.000054
 683	6.7859e+01	12.8611	23.627090	0.000140	1.399137	0.474040	-0.000056
 684	6.7959e+01	12.8130	23.574950	0.000130	1.297750	0.439690	-0.000052
 685	6.8058e+01	12.7970	23.522403	0.000131	1.307889	0.443125	-0.000053
 686	6.8157e+01	12.7376	23.469856	0.000131	1.307889	0.443125	-0.000053
 687	6.8257e+01	12.7039	23.411198	0.000146	1.459969	0.494651	-0.000059
 688	6.8356e+01	12.6478	23.361095	0.000125	1.247057	0.422514	-0.000050
 689	6.8456e+01	12.6061	23.306104	0.000137	1.368721	0.463735	-0.000055
 690	6.8555e+01	12.5852	23.248261	0.000144	1.439692	0.487781	-0.000058
 691	6.8655e+01	12.5114	23.193270	0.000137	1.368721	0.463735	-0.000055
 692	6.8754e+01	12.4777	23.134613	0.000146	1.459969	0.494651	-0.000059
 693	6.8854e+01	12.4472	23.075141	0.000148	1.480246	0.501521	-0.000060
 694	6.8954e+01	12.3975	23.025038	0.000125	1.247057	0.422514	-0.000050
 695	6.9053e+01	12.3702	22.974935	0.000125	1.247057	0.422514	-0.000050
 696	6.9153e+01	12.3141	22.917092	0.000144	1.439692	0.487781	-0.000058
 697	6.9252e+01	12.3013	22.864545	0.000131	1.307889	0.443125	-0.000053
 698	6.9352e+01	12.2435	22.810368	0.000135	1.348444	0.456865	-0.000054
 699	6.9451e+01	12.2355	22.759858	0.000126	1.257196	0.425949	-0.000051
 700	6.9550e+01	12.1761	22.705274	0.000136	1.358582	0.460300	-0.000055
 701	6.9650e+01	12.1136	22.651097	0.000135	1.348444	0.456865	-0.000054
 702	6.9749e+01	12.0911	22.596921	0.000135	1.348444	0.456865	-0.000054
 703	6.9849e+01	12.0510	22.546003	0.000127	1.267334	0.429384	-0.000051
 704	6.9948e+01	12.0141	22.490604	0.000138	1.378860	0.467170	-0.000056
 705	7.0048e+01	11.9676	22.434391	0.000140	1.399137	0.474040	-0.000056
 706	7.0147e+01	11.9323	22.378178	0.000140	1.399137	0.474040	-0.000056
 707	7.0247e+01	11.8729	22.325223	0.000132	1.318028	0.446560	-0.000053
 708	7.0347e+01	11.8665	22.268603	0.000141	1.409276	0.477476	-0.000057
 709	7.0446e+01	11.8104	22.216870	0.000129	1.287612	0.436255	-0.000052
 710	7.0546e+01	11.7799	22.152510	0.000160	1.601911	0.542742	-0.000065
 711	7.0645e+01	11.7237	22.105666	0.000117	1.165948	0.395034	-0.000047
 712	7.0745e+01	11.6949	22.056377	0.000123	1.226780	0.415644	-0.000050
 713	7.0844e+01	11.6692	22.007089	0.000123	1.226780	0.415644	-0.000050
 714	7.0944e+01	11.6211	21.952097	0.000137	1.368721	0.463735	-0.000055
 715	7.1043e+01	11.6002	21.902402	0.000124	1.236918	0.419079	-0.000050
 716	7.1142e+01	11.5425	21.846188	0.000140	1.399137	0.474040	-0.000056
 717	7.1242e+01	11.5007	21.792419	0.000134	1.338305	0.453430	-0.000054
 718	7.1341e+01	11.4783	21.732132	0.000150	1.500524	0.508391	-0.000061
 719	7.1441e+01	11.4205	21.675919	0.000140	1.399137	0.474040	-0.000056
 720	7.1540e+01	11.3612	21.618891	0.000142	1.419414	0.480911	-0.000057
 721	7.1640e+01	11.3275	21.565122	0.000134	1.338305	0.453430	-0.000054
 722	7.1740e+01	11.3018	21.509723	0.000138	1.378860	0.467170	-0.000056
 723	7.1839e+01	11.2681	21.455140	0.000136	1.358582	0.460300	-0.000055
 724	7.1939e+01	11.1943	21.399741	0.000138	1.378860	0.467170	-0.000056
 725	7.2038e+01	11.1735	21.345157	0.000136	1.358582	0.460300	-0.000055
 726	7.2138e+01	11.1205	21.286907	0.000145	1.449830	0.491216	-0.000059
 727	7.2237e+01	11.0820	21.226213	0.000151	1.510663	0.511826	-0.000061
 728	7.2337e+01	11.0467	21.167963	0.000145	1.449830	0.491216	-0.000059
 729	7.2436e+01	11.0115	21.111342	0.000141	1.409276	0.477476	-0.000057
 730	7.2535e+01	10.9922	21.059610	0.000129	1.287612	0.436255	-0.000052
 731	7.2635e+01	10.9537	21.004211	0.000138	1.378860	0.467170	-0.000056
 732	7.2734e+01	10.9024	20.942703	0.000153	1.530940	0.518696	-0.000062
 733	7.2834e+01	10.8687	20.881601	0.000152	1.520801	0.515261	-0.000061
 734	7.2933e+01	10.8302	20.824166	0.000143	1.429553	0.484346	-0.000058
 735	7.3033e+01	10.7724	20.762250	0.000154	1.541079	0.522132	-0.000062
 736	7.3132e+01	10.7371	20.704815	0.000143	1.429553	0.484346	-0.000058
 737	7.3232e+01	10.7131	20.641676	0.000157	1.571495	0.532437	-0.000063
 738	7.3332e+01	10.6521	20.583019	0.000146	1.459969	0.494651	-0.000059
 739	7.3431e+01	10.6264	20.519474	0.000158	1.581633	0.535872	-0.000064
 740	7.3531e+01	10.5960	20.460409	0.000147	1.470108	0.498086	-0.000059
 741	7.3630e+01	10.5462	20.397678	0.000156	1.561356	0.529002	-0.000063
 742	7.3730e+01	10.4885	20.337799	0.000149	1.490385	0.504956	-0.000060
 743	7.3829e+01	10.4468	20.275883	0.000154	1.541079	0.522132	-0.000062
 744	7.3928e+01	10.4083	20.214781	0.000152	1.520801	0.515261	-0.000061
 745	7.4028e+01	10.3585	20.150829	0.000159	1.591772	0.539307	-0.000064
 746	7.4127e+01	10.3297	20.086876	0.000159	1.591772	0.539307	-0.000064
 747	7.4227e+01	10.2815	20.027811	0.000147	1.470108	0.498086	-0.000059
 748	7.4326e+01	10.2398	19.972005	0.000139	1.388998	0.470605	-0.000056
 749	7.4426e+01	10.2174	19.909682	0.000155	1.551217	0.525567	-0.000063
 750	7.4525e+01	10.1853	19.855505	0.000135	1.348444	0.456865	-0.000054
 751	7.4625e+01	10.1532	19.791553	0.000159	1.591772	0.539307	-0.000064
 752	7.4725e+01	10.1259	19.730044	0.000153	1.530940	0.518696	-0.000062
 753	7.4824e+01	10.0650	19.664054	0.000164	1.642465	0.556482	-0.000066
 754	7.4924e+01	10.0184	19.599287	0.000161	1.612049	0.546177	-0.000065
 755	7.5023e+01	9.9960	19.538593	0.000151	1.510663	0.511826	-0.000061
 756	7.5123e+01	9.9350	19.472603	0.000164	1.642465	0.556482	-0.000066
 757	7.5222e+01	9.8885	19.411909	0.000151	1.510663	0.511826	-0.000061
 758	7.5322e+01	9.8580	19.346734	0.000162	1.622188	0.549612	-0.000066
 759	7.5421e+01	9.8051	19.283596	0.000157	1.571495	0.532437	-0.000063
 760	7.5520e+01	9.7778	19.222902	0.000151	1.510663	0.511826	-0.000061
 761	7.5620e+01	9.7425	19.160172	0.000156	1.561356	0.529002	-0.000063
 762	7.5719e+01	9.6719	19.095404	0.000161	1.612049	0.546177	-0.000065
 763	7.5819e+01	9.6382	19.036339	0.000147	1.470108	0.498086	-0.000059
 764	7.5918e+01	9.6045	18.968313	0.000169	1.693159	0.573658	-0.000068
 765	7.6018e+01	9.5933	18.899472	0.000171	1.713436	0.580528	-0.000069
 766	7.6118e+01	9.5468	18.838371	0.000152	1.520801	0.515261	-0.000061
 767	7.6217e+01	9.5147	18.780121	0.000145	1.449830	0.491216	-0.000059
 768	7.6317e+01	9.4810	18.719834	0.000150	1.500524	0.508391	-0.000061
 769	7.6416e+01	9.4425	18.654659	0.000162	1.622188	0.549612	-0.000066
 770	7.6516e+01	9.4104	18.587855	0.000166	1.662743	0.563352	-0.000067
 771	7.6615e+01	9.3543	18.524717	0.000157	1.571495	0.532437	-0.000063
 772	7.6715e+01	9.3318	18.460357	0.000160	1.601911	0.542742	-0.000065
 773	7.6814e+01	9.2693	18.395997	0.000160	1.601911	0.542742	-0.000065
 774	7.6913e+01	9.2372	18.329193	0.000166	1.662743	0.563352	-0.000067
 775	7.7013e+01	9.2019	18.264425	0.000161	1.612049	0.546177	-0.000065
 776	7.7112e+01	9.1457	18.199658	0.000161	1.612049	0.546177	-0.000065
 777	7.7212e+01	9.0928	18.137334	0.000155	1.551217	0.525567	-0.000063
 778	7.7311e+01	9.0671	18.072567	0.000161	1.612049	0.546177	-0.000065
 779	7.7411e+01	9.0222	18.004133	0.000170	1.703297	0.577093	-0.000069
 780	7.7510e+01	8.9837	17.937329	0.000166	1.662743	0.563352	-0.000067
 781	7.7610e+01	8.9324	17.872562	0.000161	1.612049	0.546177	-0.000065
 782	7.7710e+01	8.8987	17.800462	0.000179	1.794545	0.608008	-0.000072
 783	7.7809e+01	8.8634	17.727548	0.000181	1.814823	0.614879	-0.000073
 784	7.7909e+01	8.8201	17.666039	0.000153	1.530940	0.518696	-0.000062
 785	7.8008e+01	8.7880	17.602901	0.000157	1.571495	0.532437	-0.000063
 786	7.8108e+01	8.7447	17.540578	0.000155	1.551217	0.525567	-0.000063
 787	7.8207e+01	8.6853	17.479476	0.000152	1.520801	0.515261	-0.000061
 788	7.8306e+01	8.6805	17.411043	0.000170	1.703297	0.577093	-0.000069
 789	7.8406e+01	8.6532	17.338943	0.000179	1.794545	0.608008	-0.000072
 790	7.8505e+01	8.5826	17.274990	0.000159	1.591772	0.539307	-0.000064
 791	7.8605e+01	8.5538	17.202891	0.000179	1.794545	0.608008	-0.000072
 792	7.8704e+01	8.5185	17.132828	0.000174	1.743852	0.590833	-0.000070
 793	7.8804e+01	8.4671	17.065209	0.000168	1.683020	0.570223	-0.000068
 794	7.8903e+01	8.4254	16.994331	0.000176	1.764129	0.597703	-0.000071
 795	7.9003e+01	8.3805	16.919788	0.000186	1.855377	0.628619	-0.000075
 796	7.9103e+01	8.3516	16.853391	0.000165	1.652604	0.559917	-0.000067
 797	7.9202e+01	8.3212	16.778032	0.000188	1.875655	0.635489	-0.000076
 798	7.9302e+01	8.2698	16.709191	0.000171	1.713436	0.580528	-0.000069
 799	7.9401e+01	8.2217	16.639943	0.000172	1.723575	0.583963	-0.000070
 800	7.9501e+01	8.1832	16.564992	0.000187	1.865516	0.632054	-0.000075
 801	7.9600e+01	8.1543	16.492893	0.000179	1.794545	0.608008	-0.000072
 802	7.9700e+01	8.1046	16.426088	0.000166	1.662743	0.563352	-0.000067
 803	7.9799e+01	8.0821	16.366616	0.000148	1.480246	0.501521	-0.000060
 804	7.9898e+01	8.0099	16.303478	0.000157	1.571495	0.532437	-0.000063
 805	7.9998e+01	7.9875	16.238303	0.000162	1.622188	0.549612	-0.000066
 806	8.0097e+01	7.9522	16.167426	0.000176	1.764129	0.597703	-0.000071
 807	8.0197e+01	7.9249	16.098585	0.000171	1.713436	0.580528	-0.000069
 808	8.0296e+01	7.8864	16.034225	0.000160	1.601911	0.542742	-0.000065
 809	8.0396e+01	7.8158	15.958052	0.000190	1.895932	0.642359	-0.000077
 810	8.0496e+01	7.7966	15.888804	0.000172	1.723575	0.583963	-0.000070
 811	8.0595e+01	7.7500	15.817926	0.000176	1.764129	0.597703	-0.000071
 812	8.0695e+01	7.7308	15.749900	0.000169	1.693159	0.573658	-0.000068
 813	8.0794e+01	7.6634	15.681059	0.000171	1.713436	0.580528	-0.000069
 814	8.0894e+01	7.6201	15.609774	0.000177	1.774268	0.601138	-0.000072
 815	8.0993e+01	7.5736	15.546228	0.000158	1.581633	0.535872	-0.000064
 816	8.1093e+01	7.5415	15.478202	0.000169	1.693159	0.573658	-0.000068
 817	8.1192e+01	7.5046	15.400807	0.000193	1.926348	0.652664	-0.000078
 818	8.1291e+01	7.4565	15.332781	0.000169	1.693159	0.573658	-0.000068
 819	8.1391e+01	7.4436	15.274124	0.000146	1.459969	0.494651	-0.000059
 820	8.1490e+01	7.3779	15.205690	0.000170	1.703297	0.577093	-0.000069
 821	8.1590e+01	7.3185	15.147440	0.000145	1.449830	0.491216	-0.000059
 822	8.1689e+01	7.3169	15.079414	0.000169	1.693159	0.573658	-0.000068
 823	8.1789e+01	7.3137	15.013424	0.000164	1.642465	0.556482	-0.000066
 824	8.1888e+01	7.2271	14.946620	0.000166	1.662743	0.563352	-0.000067
 825	8.1988e+01	7.2046	14.875335	0.000177	1.774268	0.601138	-0.000072
 826	8.2088e+01	7.1212	14.806494	0.000171	1.713436	0.580528	-0.000069
 827	8.2187e+01	7.1084	14.733580	0.000181	1.814823	0.614879	-0.000073
 828	8.2287e+01	7.0715	14.666369	0.000167	1.672881	0.566788	-0.000068
 829	8.2386e+01	7.0169	14.598750	0.000168	1.683020	0.570223	-0.000068
 830	8.2486e+01	7.0009	14.526650	0.000179	1.794545	0.608008	-0.000072
 831	8.2585e+01	6.9479	14.454958	0.000178	1.784407	0.604573	-0.000072
 832	8.2684e+01	6.9062	14.386117	0.000171	1.713436	0.580528	-0.000069
 833	8.2784e+01	6.8806	14.312795	0.000182	1.824961	0.618314	-0.000074
 834	8.2883e+01	6.8340	14.245584	0.000167	1.672881	0.566788	-0.000068
 835	8.2983e+01	6.7795	14.180002	0.000163	1.632327	0.553047	-0.000066
 836	8.3082e+01	6.7474	14.115234	0.000161	1.612049	0.546177	-0.000065
 837	8.3182e+01	6.6945	14.052096	0.000157	1.571495	0.532437	-0.000063
 838	8.3281e+01	6.6720	13.987736	0.000160	1.601911	0.542742	-0.000065
 839	8.3381e+01	6.6383	13.922561	0.000162	1.622188	0.549612	-0.000066
 840	8.3481e+01	6.5902	13.858201	0.000160	1.601911	0.542742	-0.000065
 841	8.3580e+01	6.5469	13.787731	0.000175	1.753991	0.594268	-0.000071
 842	8.3680e+01	6.5340	13.727444	0.000150	1.500524	0.508391	-0.000061
 843	8.3779e+01	6.4939	13.654122	0.000182	1.824961	0.618314	-0.000074
 844	8.3879e+01	6.4490	13.584467	0.000173	1.733713	0.587398	-0.000070
 845	8.3978e+01	6.3961	13.511145	0.000182	1.824961	0.618314	-0.000074
 846	8.4078e+01	6.3624	13.441082	0.000174	1.743852	0.590833	-0.000070
 847	8.4177e+01	6.3463	13.367761	0.000182	1.824961	0.618314	-0.000074
 848	8.4276e+01	6.2693	13.300549	0.000167	1.672881	0.566788	-0.000068
 849	8.4376e+01	6.2308	13.226820	0.000184	1.835100	0.621749	-0.000074
 850	8.4475e+01	6.1827	13.157979	0.000171	1.713436	0.580528	-0.000069
 851	8.4575e+01	6.1410	13.083843	0.000185	1.845239	0.625184	-0.000075
 852	8.4674e+01	6.0929	13.019483	0.000160	1.601911	0.542742	-0.000065
 853	8.4774e+01	6.0624	12.949827	0.000173	1.733713	0.587398	-0.000070
 854	8.4874e+01	6.0159	12.888318	0.000153	1.530940	0.518696	-0.000062
 855	8.4973e+01	5.9918	12.819477	0.000171	1.713436	0.580528	-0.000069
 856	8.5073e+01	5.9565	12.754303	0.000162	1.622188	0.549612	-0.000066
 857	8.5172e+01	5.8940	12.689535	0.000161	1.612049	0.546177	-0.000065
 858	8.5272e+01	5.8843	12.613769	0.000189	1.885793	0.638924	-0.000076
 859	8.5371e+01	5.8410	12.546965	0.000166	1.662743	0.563352	-0.000067
 860	8.5471e+01	5.8009	12.484642	0.000155	1.551217	0.525567	-0.000063
 861	8.5570e+01	5.7592	12.410913	0.000184	1.835100	0.621749	-0.000074
 862	8.5669e+01	5.7319	12.338406	0.000180	1.804684	0.611444	-0.000073
 863	8.5769e+01	5.6710	12.265492	0.000181	1.814823	0.614879	-0.000073
 864	8.5868e+01	5.6437	12.193392	0.000179	1.794545	0.608008	-0.000072
 865	8.5968e+01	5.5924	12.120885	0.000180	1.804684	0.611444	-0.000073
 866	8.6067e+01	5.5571	12.054895	0.000164	1.642465	0.556482	-0.000066
 867	8.6167e+01	5.5025	11.980759	0.000185	1.845239	0.625184	-0.000075
 868	8.6266e+01	5.4849	11.903771	0.000192	1.916209	0.649229	-0.000077
 869	8.6366e+01	5.4367	11.835745	0.000169	1.693159	0.573658	-0.000068
 870	8.6466e+01	5.4015	11.768941	0.000166	1.662743	0.563352	-0.000067
 871	8.6565e+01	5.3517	11.703766	0.000162	1.622188	0.549612	-0.000066
 872	8.6665e+01	5.3196	11.635740	0.000169	1.693159	0.573658	-0.000068
 873	8.6764e+01	5.2827	11.570973	0.000161	1.612049	0.546177	-0.000065
 874	8.6864e+01	5.2314	11.500502	0.000175	1.753991	0.594268	-0.000071
 875	8.6963e+01	5.1977	11.432883	0.000168	1.683020	0.570223	-0.000068
 876	8.7063e+01	5.1496	11.368931	0.000159	1.591772	0.539307	-0.000064
 877	8.7162e+01	5.1271	11.300904	0.000169	1.693159	0.573658	-0.000068
 878	8.7261e+01	5.1111	11.237766	0.000157	1.571495	0.532437	-0.000063
 879	8.7361e+01	5.0710	11.164852	0.000181	1.814823	0.614879	-0.000073
 880	8.7460e+01	4.9988	11.095604	0.000172	1.723575	0.583963	-0.000070
 881	8.7560e+01	4.9475	11.020653	0.000187	1.865516	0.632054	-0.000075
 882	8.7659e+01	4.9266	10.953034	0.000168	1.683020	0.570223	-0.000068
 883	8.7759e+01	4.8849	10.880934	0.000179	1.794545	0.608008	-0.000072
 884	8.7859e+01	4.8368	10.811279	0.000173	1.733713	0.587398	-0.000070
 885	8.7958e+01	4.8079	10.734291	0.000192	1.916209	0.649229	-0.000077
 886	8.8058e+01	4.7549	10.661784	0.000180	1.804684	0.611444	-0.000073
 887	8.8157e+01	4.7084	10.580315	0.000203	2.027735	0.687015	-0.000082
 888	8.8257e+01	4.6731	10.513919	0.000165	1.652604	0.559917	-0.000067
 889	8.8356e+01	4.6314	10.445892	0.000169	1.693159	0.573658	-0.000068
 890	8.8456e+01	4.5817	10.379088	0.000166	1.662743	0.563352	-0.000067
 891	8.8555e+01	4.5624	10.313506	0.000163	1.632327	0.553047	-0.000066
 892	8.8654e+01	4.5095	10.244258	0.000172	1.723575	0.583963	-0.000070
 893	8.8754e+01	4.4742	10.173788	0.000175	1.753991	0.594268	-0.000071
 894	8.8853e+01	4.4309	10.106983	0.000166	1.662743	0.563352	-0.000067
 895	8.8953e+01	4.4245	10.041401	0.000163	1.632327	0.553047	-0.000066
 896	8.9052e+01	4.3507	9.968080	0.000182	1.824961	0.618314	-0.000074
 897	8.9152e+01	4.3346	9.888648	0.000198	1.977042	0.669840	-0.000080
 898	8.9251e+01	4.3042	9.814511	0.000185	1.845239	0.625184	-0.000075
 899	8.9351e+01	4.2480	9.734265	0.000200	1.997319	0.676710	-0.000081
 900	8.9451e+01	4.2320	9.660536	0.000184	1.835100	0.621749	-0.000074
 901	8.9550e+01	4.1710	9.581511	0.000197	1.966903	0.666405	-0.000079
 902	8.9650e+01	4.1469	9.501265	0.000200	1.997319	0.676710	-0.000081
 903	8.9749e+01	4.0844	9.423870	0.000193	1.926348	0.652664	-0.000078
 904	8.9849e+01	4.0250	9.342809	0.000202	2.017596	0.683580	-0.000081
 905	8.9948e+01	3.9994	9.268265	0.000186	1.855377	0.628619	-0.000075
 906	9.0047e+01	3.9592	9.198202	0.000174	1.743852	0.590833	-0.000070
 907	9.0147e+01	3.8951	9.126917	0.000177	1.774268	0.601138	-0.000072
 908	9.0246e+01	3.8838	9.049522	0.000193	1.926348	0.652664	-0.000078
 909	9.0346e+01	3.8405	8.980274	0.000172	1.723575	0.583963	-0.000070
 910	9.0445e+01	3.7988	8.901657	0.000196	1.956764	0.662970	-0.000079
 911	9.0545e+01	3.7587	8.829150	0.000180	1.804684	0.611444	-0.000073
 912	9.0644e+01	3.7170	8.754199	0.000187	1.865516	0.632054	-0.000075
 913	9.0744e+01	3.6929	8.684136	0.000174	1.743852	0.590833	-0.000070
 914	9.0844e+01	3.6609	8.611629	0.000180	1.804684	0.611444	-0.000073
 915	9.0943e+01	3.6496	8.530568	0.000202	2.017596	0.683580	-0.000081
 916	9.1043e+01	3.5630	8.446655	0.000209	2.088567	0.707626	-0.000084
 917	9.1142e+01	3.5309	8.369667	0.000192	1.916209	0.649229	-0.000077
 918	9.1242e+01	3.4924	8.289421	0.000200	1.997319	0.676710	-0.000081
 919	9.1341e+01	3.4603	8.205916	0.000208	2.078428	0.704191	-0.000084
 920	9.1441e+01	3.4026	8.116708	0.000222	2.220370	0.752282	-0.000090
 921	9.1540e+01	3.3432	8.038498	0.000195	1.946626	0.659535	-0.000079
 922	9.1639e+01	3.3288	7.962325	0.000190	1.895932	0.642359	-0.000077
 923	9.1739e+01	3.2823	7.889411	0.000181	1.814823	0.614879	-0.000073
 924	9.1838e+01	3.2518	7.812423	0.000192	1.916209	0.649229	-0.000077
 925	9.1938e+01	3.2004	7.737472	0.000187	1.865516	0.632054	-0.000075
 926	9.2037e+01	3.1700	7.660077	0.000193	1.926348	0.652664	-0.000078
 927	9.2137e+01	3.1234	7.585126	0.000187	1.865516	0.632054	-0.000075
 928	9.2237e+01	3.0994	7.508138	0.000192	1.916209	0.649229	-0.000077
 929	9.2336e+01	3.0272	7.427484	0.000201	2.007458	0.680145	-0.000081
 930	9.2436e+01	3.0127	7.353348	0.000185	1.845239	0.625184	-0.000075
 931	9.2535e+01	2.9694	7.273509	0.000199	1.987180	0.673275	-0.000080
 932	9.2635e+01	2.9374	7.199372	0.000185	1.845239	0.625184	-0.000075
 933	9.2734e+01	2.9101	7.119126	0.000200	1.997319	0.676710	-0.000081
 934	9.2834e+01	2.8652	7.037657	0.000203	2.027735	0.687015	-0.000082
 935	9.2933e+01	2.8331	6.954559	0.000207	2.068290	0.700755	-0.000084
 936	9.3032e+01	2.8026	6.867795	0.000216	2.159538	0.731671	-0.000087
 937	9.3132e+01	2.7288	6.781846	0.000214	2.139260	0.724801	-0.000086
 938	9.3231e+01	2.7047	6.693453	0.000220	2.200092	0.745411	-0.000089
 939	9.3331e+01	2.6390	6.616465	0.000192	1.916209	0.649229	-0.000077
 940	9.3430e+01	2.6277	6.541107	0.000188	1.875655	0.635489	-0.000076
 941	9.3530e+01	2.5539	6.458009	0.000207	2.068290	0.700755	-0.000084
 942	9.3629e+01	2.5170	6.387131	0.000176	1.764129	0.597703	-0.000071
 943	9.3729e+01	2.4817	6.304441	0.000206	2.058151	0.697320	-0.000083
 944	9.3829e+01	2.4384	6.226638	0.000194	1.936487	0.656099	-0.000078
 945	9.3928e+01	2.4015	6.148428	0.000195	1.946626	0.659535	-0.000079
 946	9.4028e+01	2.3678	6.067367	0.000202	2.017596	0.683580	-0.000081
 947	9.4127e+01	2.3261	5.983047	0.000210	2.098706	0.711061	-0.000085
 948	9.4227e+01	2.2860	5.908911	0.000185	1.845239	0.625184	-0.000075
 949	9.4326e+01	2.2459	5.823369	0.000213	2.129122	0.721366	-0.000086
 950	9.4425e+01	2.2347	5.741493	0.000204	2.037874	0.690450	-0.000082
 951	9.4525e+01	2.2042	5.663283	0.000195	1.946626	0.659535	-0.000079
 952	9.4624e+01	2.1465	5.573668	0.000223	2.230508	0.755717	-0.000090
 953	9.4724e+01	2.1128	5.493422	0.000200	1.997319	0.676710	-0.000081
 954	9.4823e+01	2.0679	5.402992	0.000225	2.250786	0.762587	-0.000091
 955	9.4923e+01	2.0534	5.310118	0.000231	2.311618	0.783197	-0.000093
 956	9.5022e+01	1.9764	5.221724	0.000220	2.200092	0.745411	-0.000089
 957	9.5122e+01	1.9395	5.150847	0.000176	1.764129	0.597703	-0.000071
 958	9.5222e+01	1.8753	5.060009	0.000226	2.260924	0.766022	-0.000091
 959	9.5321e+01	1.8208	4.981392	0.000196	1.956764	0.662970	-0.000079
 960	9.5421e+01	1.8304	4.894221	-0.000217	-2.169676	-0.735106	-0.000088
 961	9.5520e+01	1.7839	4.817640	0.000191	1.906071	0.645794	-0.000077
 962	9.5620e+01	1.7342	4.728840	0.000221	2.210231	0.748847	-0.000089
 963	9.5719e+01	1.6828	4.647371	0.000203	2.027735	0.687015	-0.000082
 964	9.5819e+01	1.6443	4.557756	0.000223	2.230508	0.755717	-0.000090
 965	9.5918e+01	1.6123	4.473029	0.000211	2.108844	0.714496	-0.000085
 966	9.6017e+01	1.5786	4.391967	0.000202	2.017596	0.683580	-0.000081
 967	9.6117e+01	1.5385	4.306833	0.000212	2.118983	0.717931	-0.000086
 968	9.6216e+01	1.5048	4.221698	0.000212	2.118983	0.717931	-0.000086
 969	9.6316e+01	1.4631	4.149191	0.000180	1.804684	0.611444	-0.000073
 970	9.6415e+01	1.4262	4.060391	0.000221	2.210231	0.748847	-0.000089
 971	9.6515e+01	1.3845	3.973219	0.000217	2.169676	0.735106	-0.000088
 972	9.6615e+01	1.3363	3.884419	0.000221	2.210231	0.748847	-0.000089
 973	9.6714e+01	1.3042	3.792766	0.000228	2.281202	0.772892	-0.000092
 974	9.6814e+01	1.2577	3.698670	0.000234	2.342034	0.793503	-0.000095
 975	9.6913e+01	1.2272	3.618831	0.000199	1.987180	0.673275	-0.000080
 976	9.7013e+01	1.1599	3.534511	0.000210	2.098706	0.711061	-0.000085
 977	9.7112e+01	1.1085	3.450599	0.000209	2.088567	0.707626	-0.000084
 978	9.7212e+01	1.0829	3.368316	0.000205	2.048012	0.693885	-0.000083
 979	9.7311e+01	1.0604	3.290513	0.000194	1.936487	0.656099	-0.000078
 980	9.7410e+01	1.0139	3.207823	0.000206	2.058151	0.697320	-0.000083
 981	9.7510e+01	0.9898	3.125132	0.000206	2.058151	0.697320	-0.000083
 982	9.7609e+01	0.9272	3.044886	0.000200	1.997319	0.676710	-0.000081
 983	9.7709e+01	0.8775	2.962602	0.000205	2.048012	0.693885	-0.000083
 984	9.7808e+01	0.8326	2.881134	0.000203	2.027735	0.687015	-0.000082
 985	9.7908e+01	0.8101	2.795592	0.000213	2.129122	0.721366	-0.000086
 986	9.8007e+01	0.7732	2.716975	0.000196	1.956764	0.662970	-0.000079
 987	9.8107e+01	0.7347	2.636321	0.000201	2.007458	0.680145	-0.000081
 988	9.8207e+01	0.7139	2.554445	0.000204	2.037874	0.690450	-0.000082
 989	9.8306e+01	0.6834	2.468089	0.000215	2.149399	0.728236	-0.000087
 990	9.8406e+01	0.6032	2.377251	0.000226	2.260924	0.766022	-0.000091
 991	9.8505e+01	0.5743	2.282340	0.000236	2.362311	0.800373	-0.000095
 992	9.8605e+01	0.5214	2.204945	0.000193	1.926348	0.652664	-0.000078
 993	9.8704e+01	0.4941	2.118181	0.000216	2.159538	0.731671	-0.000087
 994	9.8803e+01	0.4508	2.036713	0.000203	2.027735	0.687015	-0.000082
 995	9.8903e+01	0.4283	1.952800	0.000209	2.088567	0.707626	-0.000084
 996	9.9002e+01	0.3786	1.875812	0.000192	1.916209	0.649229	-0.000077
 997	9.9102e+01	0.3369	1.791085	0.000211	2.108844	0.714496	-0.000085
 998	9.9201e+01	0.3064	1.705543	0.000213	2.129122	0.721366	-0.000086
 999	9.9301e+01	0.2390	1.622038	0.000208	2.078428	0.704191	-0.000084
1000	9.9400e+01	0.2262	1.541792	0.000200	1.997319	0.676710	-0.000081
1001	9.9500e+01	0.1636	1.461138	0.000201	2.007458	0.680145	-0.000081
1002	9.9600e+01	0.1332	1.378447	0.000206	2.058151	0.697320	-0.000083
1003	9.9699e+01	0.0995	1.293313	0.000212	2.118983	0.717931	-0.000086
1004	9.9799e+01	0.0529	1.210622	0.000206	2.058151	0.697320	-0.000083
1005	9.9898e+01	0.0385	1.150743	0.000149	1.490385	0.504956	-0.000060
1006	9.9998e+01	0.0064	1.069682	0.000202	2.017596	0.683580	-0.000081
1007	1.0010e+02	-0.0401	0.987398	0.000205	2.048012	0.693885	-0.000083
1008	1.0020e+02	-0.0786	0.892080	0.000237	2.372450	0.803808	-0.000096
1009	1.0030e+02	-0.1011	0.800428	0.000228	2.281202	0.772892	-0.000092
1010	1.0040e+02	-0.1749	0.716923	0.000208	2.078428	0.704191	-0.000084
1011	1.0050e+02	-0.1845	0.635454	0.000203	2.027735	0.687015	-0.000082
1012	1.0059e+02	-0.2262	0.557245	0.000195	1.946626	0.659535	-0.000079
1013	1.0069e+02	-0.2759	0.470888	0.000215	2.149399	0.728236	-0.000087
1014	1.0079e+02	-0.3128	0.388605	0.000205	2.048012	0.693885	-0.000083
1015	1.0089e+02	-0.3738	0.305914	0.000206	2.058151	0.697320	-0.000083
1016	1.0099e+02	-0.4187	0.222816	0.000207	2.068290	0.700755	-0.000084
1017	1.0109e+02	-0.4797	0.136052	0.000216	2.159538	0.731671	-0.000087
1018	1.0119e+02	-0.5037	0.056213	0.000199	1.987180	0.673275	-0.000080
1019	1.0129e+02	-0.5422	-0.020774	0.000192	1.916209	0.649229	-0.000077
1020	1.0139e+02	-0.5727	-0.107538	0.000216	2.159538	0.731671	-0.000087
1021	1.0149e+02	-0.6128	-0.187378	0.000199	1.987180	0.673275	-0.000080
1022	1.0159e+02	-0.6658	-0.275364	0.000219	2.189954	0.741976	-0.000088
1023	1.0169e+02	-0.6754	-0.355610	0.000200	1.997319	0.676710	-0.000081
1024	1.0179e+02	-0.7347	-0.440745	0.000212	2.118983	0.717931	-0.000086
1025	1.0189e+02	-0.7460	-0.516510	0.000189	1.885793	0.638924	-0.000076
1026	1.0199e+02	-0.7748	-0.613865	0.000242	2.423143	0.820983	-0.000098
1027	1.0209e+02	-0.8486	-0.698592	0.000211	2.108844	0.714496	-0.000085
1028	1.0219e+02	-0.8791	-0.783727	0.000212	2.118983	0.717931	-0.000086
1029	1.0229e+02	-0.9353	-0.862344	0.000196	1.956764	0.662970	-0.000079
1030	1.0239e+02	-0.9802	-0.948701	0.000215	2.149399	0.728236	-0.000087
1031	1.0248e+02	-0.9994	-1.037094	0.000220	2.200092	0.745411	-0.000089
1032	1.0258e+02	-1.0347	-1.111230	0.000185	1.845239	0.625184	-0.000075
1033	1.0268e+02	-1.1021	-1.200438	0.000222	2.220370	0.752282	-0.000090
1034	1.0278e+02	-1.1534	-1.276204	0.000189	1.885793	0.638924	-0.000076
1035	1.0288e+02	-1.1711	-1.365005	0.000221	2.210231	0.748847	-0.000089
1036	1.0298e+02	-1.2176	-1.443215	0.000195	1.946626	0.659535	-0.000079
1037	1.0308e+02	-1.2304	-1.523868	0.000201	2.007458	0.680145	-0.000081
1038	1.0318e+02	-1.2738	-1.606966	0.000207	2.068290	0.700755	-0.000084
1039	1.0328e+02	-1.3492	-1.689657	0.000206	2.058151	0.697320	-0.000083
1040	1.0338e+02	-1.3588	-1.769496	0.000199	1.987180	0.673275	-0.000080
1041	1.0348e+02	-1.4326	-1.855853	0.000215	2.149399	0.728236	-0.000087
1042	1.0358e+02	-1.4566	-1.931211	0.000188	1.875655	0.635489	-0.000076
1043	1.0368e+02	-1.4679	-2.021234	0.000224	2.240647	0.759152	-0.000090
1044	1.0378e+02	-1.5353	-2.103110	0.000204	2.037874	0.690450	-0.000082
1045	1.0388e+02	-1.5738	-2.180097	0.000192	1.916209	0.649229	-0.000077
1046	1.0398e+02	-1.5834	-2.260344	0.000200	1.997319	0.676710	-0.000081
1047	1.0408e+02	-1.6379	-2.347515	0.000217	2.169676	0.735106	-0.000088
1048	1.0418e+02	-1.6780	-2.422873	0.000188	1.875655	0.635489	-0.000076
1049	1.0428e+02	-1.7374	-2.500676	0.000194	1.936487	0.656099	-0.000078
1050	1.0438e+02	-1.7406	-2.577256	0.000191	1.906071	0.645794	-0.000077
1051	1.0447e+02	-1.8224	-2.663613	0.000215	2.149399	0.728236	-0.000087
1052	1.0457e+02	-1.8545	-2.745081	0.000203	2.027735	0.687015	-0.000082
1053	1.0467e+02	-1.8946	-2.828994	0.000209	2.088567	0.707626	-0.000084
1054	1.0477e+02	-1.9315	-2.910055	0.000202	2.017596	0.683580	-0.000081
1055	1.0487e+02	-1.9604	-2.994782	0.000211	2.108844	0.714496	-0.000085
1056	1.0497e+02	-2.0165	-3.077066	0.000205	2.048012	0.693885	-0.000083
1057	1.0507e+02	-2.0486	-3.156905	0.000199	1.987180	0.673275	-0.000080
1058	1.0517e+02	-2.0935	-3.242039	0.000212	2.118983	0.717931	-0.000086
1059	1.0527e+02	-2.1064	-3.318620	0.000191	1.906071	0.645794	-0.000077
1060	1.0537e+02	-2.1417	-3.400088	0.000203	2.027735	0.687015	-0.000082
1061	1.0547e+02	-2.2026	-3.484816	0.000211	2.108844	0.714496	-0.000085
1062	1.0557e+02	-2.2411	-3.566284	0.000203	2.027735	0.687015	-0.000082
1063	1.0567e+02	-2.2780	-3.644494	0.000195	1.946626	0.659535	-0.000079
1064	1.0577e+02	-2.3358	-3.728406	0.000209	2.088567	0.707626	-0.000084
1065	1.0587e+02	-2.3566	-3.813134	0.000211	2.108844	0.714496	-0.000085
1066	1.0597e+02	-2.4272	-3.897046	0.000209	2.088567	0.707626	-0.000084
1067	1.0607e+02	-2.4609	-3.977700	0.000201	2.007458	0.680145	-0.000081
1068	1.0617e+02	-2.4882	-4.062427	0.000211	2.108844	0.714496	-0.000085
1069	1.0627e+02	-2.5235	-4.147562	0.000212	2.118983	0.717931	-0.000086
1070	1.0637e+02	-2.5764	-4.235141	0.000218	2.179815	0.738541	-0.000088
1071	1.0647e+02	-2.5973	-4.316202	0.000202	2.017596	0.683580	-0.000081
1072	1.0656e+02	-2.6309	-4.398485	0.000205	2.048012	0.693885	-0.000083
1073	1.0666e+02	-2.6951	-4.488508	0.000224	2.240647	0.759152	-0.000090
1074	1.0676e+02	-2.7577	-4.570791	0.000205	2.048012	0.693885	-0.000083
1075	1.0686e+02	-2.7272	-4.657962	-0.000217	-2.169676	-0.735106	-0.000088
1076	1.0696e+02	-2.8026	-4.732506	0.000186	1.855377	0.628619	-0.000075
1077	1.0706e+02	-2.8427	-4.816011	0.000208	2.078428	0.704191	-0.000084
1078	1.0716e+02	-2.8860	-4.901146	0.000212	2.118983	0.717931	-0.000086
1079	1.0726e+02	-2.8908	-4.984651	0.000208	2.078428	0.704191	-0.000084
1080	1.0736e+02	-2.9518	-5.064490	0.000199	1.987180	0.673275	-0.000080
1081	1.0746e+02	-2.9935	-5.148810	0.000210	2.098706	0.711061	-0.000085
1082	1.0756e+02	-3.0448	-5.226612	0.000194	1.936487	0.656099	-0.000078
1083	1.0766e+02	-3.0930	-5.314191	0.000218	2.179815	0.738541	-0.000088
1084	1.0776e+02	-3.1170	-5.394030	0.000199	1.987180	0.673275	-0.000080
1085	1.0786e+02	-3.1619	-5.477943	0.000209	2.088567	0.707626	-0.000084
1086	1.0796e+02	-3.2101	-5.560226	0.000205	2.048012	0.693885	-0.000083
1087	1.0806e+02	-3.2470	-5.645360	0.000212	2.118983	0.717931	-0.000086
1088	1.0816e+02	-3.2935	-5.726422	0.000202	2.017596	0.683580	-0.000081
1089	1.0826e+02	-3.3352	-5.805039	0.000196	1.956764	0.662970	-0.000079
1090	1.0836e+02	-3.3930	-5.889359	0.000210	2.098706	0.711061	-0.000085
1091	1.0845e+02	-3.3994	-5.972049	0.000206	2.058151	0.697320	-0.000083
1092	1.0855e+02	-3.4555	-6.050666	0.000196	1.956764	0.662970	-0.000079
1093	1.0865e+02	-3.4555	-6.129691	0.000197	1.966903	0.666405	-0.000079
1094	1.0875e+02	-3.5004	-6.220121	0.000225	2.250786	0.762587	-0.000091
1095	1.0885e+02	-3.5550	-6.308107	0.000219	2.189954	0.741976	-0.000088
1096	1.0895e+02	-3.5806	-6.387946	0.000199	1.987180	0.673275	-0.000080
1097	1.0905e+02	-3.6288	-6.476747	0.000221	2.210231	0.748847	-0.000089
1098	1.0915e+02	-3.6978	-6.549254	0.000180	1.804684	0.611444	-0.000073
1099	1.0925e+02	-3.7363	-6.631944	0.000206	2.058151	0.697320	-0.000083
1100	1.0935e+02	-3.7683	-6.708932	0.000192	1.916209	0.649229	-0.000077
1101	1.0945e+02	-3.8004	-6.793252	0.000210	2.098706	0.711061	-0.000085
1102	1.0955e+02	-3.8277	-6.869017	0.000189	1.885793	0.638924	-0.000076
1103	1.0965e+02	-3.8550	-6.954967	0.000214	2.139260	0.724801	-0.000086
1104	1.0975e+02	-3.9159	-7.036843	0.000204	2.037874	0.690450	-0.000082
1105	1.0985e+02	-3.9625	-7.118718	0.000204	2.037874	0.690450	-0.000082
1106	1.0995e+02	-4.0234	-7.198150	0.000198	1.977042	0.669840	-0.000080
1107	1.1005e+02	-4.0330	-7.271879	0.000184	1.835100	0.621749	-0.000074
1108	1.1015e+02	-4.0780	-7.352533	0.000201	2.007458	0.680145	-0.000081
1109	1.1025e+02	-4.1004	-7.433187	0.000201	2.007458	0.680145	-0.000081
1110	1.1035e+02	-4.1598	-7.510989	0.000194	1.936487	0.656099	-0.000078
1111	1.1044e+02	-4.1854	-7.587570	0.000191	1.906071	0.645794	-0.000077
1112	1.1054e+02	-4.2239	-7.675148	0.000218	2.179815	0.738541	-0.000088
1113	1.1064e+02	-4.2721	-7.763542	0.000220	2.200092	0.745411	-0.000089
1114	1.1074e+02	-4.3218	-7.851528	0.000219	2.189954	0.741976	-0.000088
1115	1.1084e+02	-4.3443	-7.919554	0.000169	1.693159	0.573658	-0.000068
1116	1.1094e+02	-4.3763	-8.006318	0.000216	2.159538	0.731671	-0.000087
1117	1.1104e+02	-4.4277	-8.080862	0.000186	1.855377	0.628619	-0.000075
1118	1.1114e+02	-4.4758	-8.164774	0.000209	2.088567	0.707626	-0.000084
1119	1.1124e+02	-4.5320	-8.240947	0.000190	1.895932	0.642359	-0.000077
1120	1.1134e+02	-4.5560	-8.322823	0.000204	2.037874	0.690450	-0.000082
1121	1.1144e+02	-4.6138	-8.399403	0.000191	1.906071	0.645794	-0.000077
1122	1.1154e+02	-4.6202	-8.480872	0.000203	2.027735	0.687015	-0.000082
1123	1.1164e+02	-4.6539	-8.561118	0.000200	1.997319	0.676710	-0.000081
1124	1.1174e+02	-4.7485	-8.641365	0.000200	1.997319	0.676710	-0.000081
1125	1.1184e+02	-4.7710	-8.716316	0.000187	1.865516	0.632054	-0.000075
1126	1.1194e+02	-4.7951	-8.798599	0.000205	2.048012	0.693885	-0.000083
1127	1.1204e+02	-4.8255	-8.878438	0.000199	1.987180	0.673275	-0.000080
1128	1.1214e+02	-4.8528	-8.961129	0.000206	2.058151	0.697320	-0.000083
1129	1.1224e+02	-4.9186	-9.031599	0.000175	1.753991	0.594268	-0.000071
1130	1.1234e+02	-4.9266	-9.123251	0.000228	2.281202	0.772892	-0.000092
1131	1.1244e+02	-5.0084	-9.210830	0.000218	2.179815	0.738541	-0.000088
1132	1.1253e+02	-5.0261	-9.287818	0.000192	1.916209	0.649229	-0.000077
1133	1.1263e+02	-5.0630	-9.370508	0.000206	2.058151	0.697320	-0.000083
1134	1.1273e+02	-5.1063	-9.448310	0.000194	1.936487	0.656099	-0.000078
1135	1.1283e+02	-5.1560	-9.528557	0.000200	1.997319	0.676710	-0.000081
1136	1.1293e+02	-5.1720	-9.603915	0.000188	1.875655	0.635489	-0.000076
1137	1.1303e+02	-5.2587	-9.680903	0.000192	1.916209	0.649229	-0.000077
1138	1.1313e+02	-5.2859	-9.751781	0.000176	1.764129	0.597703	-0.000071
1139	1.1323e+02	-5.3148	-9.833249	0.000203	2.027735	0.687015	-0.000082
1140	1.1333e+02	-5.3565	-9.912681	0.000198	1.977042	0.669840	-0.000080
1141	1.1343e+02	-5.3950	-9.988039	0.000188	1.875655	0.635489	-0.000076
1142	1.1353e+02	-5.4287	-10.063398	0.000188	1.875655	0.635489	-0.000076
1143	1.1363e+02	-5.4881	-10.140385	0.000192	1.916209	0.649229	-0.000077
1144	1.1373e+02	-5.5186	-10.213300	0.000181	1.814823	0.614879	-0.000073
1145	1.1383e+02	-5.5474	-10.296398	0.000207	2.068290	0.700755	-0.000084
1146	1.1393e+02	-5.5619	-10.370127	0.000184	1.835100	0.621749	-0.000074
1147	1.1403e+02	-5.6373	-10.442226	0.000179	1.794545	0.608008	-0.000072
1148	1.1413e+02	-5.6758	-10.527361	0.000212	2.118983	0.717931	-0.000086
1149	1.1423e+02	-5.6982	-10.605571	0.000195	1.946626	0.659535	-0.000079
1150	1.1433e+02	-5.7383	-10.677670	0.000179	1.794545	0.608008	-0.000072
1151	1.1442e+02	-5.7801	-10.748955	0.000177	1.774268	0.601138	-0.000072
1152	1.1452e+02	-5.8202	-10.821055	0.000179	1.794545	0.608008	-0.000072
1153	1.1462e+02	-5.8923	-10.894784	0.000184	1.835100	0.621749	-0.000074
1154	1.1472e+02	-5.8940	-10.969735	0.000187	1.865516	0.632054	-0.000075
1155	1.1482e+02	-5.9790	-11.039798	0.000174	1.743852	0.590833	-0.000070
1156	1.1492e+02	-6.0030	-11.112712	0.000181	1.814823	0.614879	-0.000073
1157	1.1502e+02	-6.0351	-11.185219	0.000180	1.804684	0.611444	-0.000073
1158	1.1512e+02	-6.0768	-11.262207	0.000192	1.916209	0.649229	-0.000077
1159	1.1522e+02	-6.1009	-11.332270	0.000174	1.743852	0.590833	-0.000070
1160	1.1532e+02	-6.1522	-11.403555	0.000177	1.774268	0.601138	-0.000072
1161	1.1542e+02	-6.1955	-11.474025	0.000175	1.753991	0.594268	-0.000071
1162	1.1552e+02	-6.2405	-11.548161	0.000185	1.845239	0.625184	-0.000075
1163	1.1562e+02	-6.3094	-11.620261	0.000179	1.794545	0.608008	-0.000072
1164	1.1572e+02	-6.3062	-11.687065	-0.000166	-1.662743	-0.563352	-0.000067
1165	1.1582e+02	-6.3479	-11.768126	0.000202	2.017596	0.683580	-0.000081
1166	1.1592e+02	-6.3945	-11.840226	0.000179	1.794545	0.608008	-0.000072
1167	1.1602e+02	-6.4105	-11.902142	0.000154	1.541079	0.522132	-0.000062
1168	1.1612e+02	-6.4602	-11.978722	0.000191	1.906071	0.645794	-0.000077
1169	1.1622e+02	-6.4859	-12.045527	0.000166	1.662743	0.563352	-0.000067
1170	1.1632e+02	-6.5276	-12.113960	0.000170	1.703297	0.577093	-0.000069
1171	1.1642e+02	-6.5806	-12.181579	0.000168	1.683020	0.570223	-0.000068
1172	1.1651e+02	-6.6447	-12.252457	0.000176	1.764129	0.597703	-0.000071
1173	1.1661e+02	-6.6640	-12.317631	0.000162	1.622188	0.549612	-0.000066
1174	1.1671e+02	-6.7025	-12.390953	0.000182	1.824961	0.618314	-0.000074
1175	1.1681e+02	-6.7522	-12.458979	0.000169	1.693159	0.573658	-0.000068
1176	1.1691e+02	-6.8003	-12.529042	0.000174	1.743852	0.590833	-0.000070
1177	1.1701e+02	-6.8324	-12.597476	0.000170	1.703297	0.577093	-0.000069
1178	1.1711e+02	-6.8790	-12.666724	0.000172	1.723575	0.583963	-0.000070
1179	1.1721e+02	-6.8902	-12.736380	0.000173	1.733713	0.587398	-0.000070
1180	1.1731e+02	-6.9560	-12.811738	0.000188	1.875655	0.635489	-0.000076
1181	1.1741e+02	-6.9784	-12.877320	0.000163	1.632327	0.553047	-0.000066
1182	1.1751e+02	-7.0330	-12.950642	0.000182	1.824961	0.618314	-0.000074
1183	1.1761e+02	-7.0554	-13.019483	0.000171	1.713436	0.580528	-0.000069
1184	1.1771e+02	-7.0763	-13.085065	0.000163	1.632327	0.553047	-0.000066
1185	1.1781e+02	-7.1340	-13.152276	0.000167	1.672881	0.566788	-0.000068
1186	1.1791e+02	-7.1533	-13.217451	0.000162	1.622188	0.549612	-0.000066
1187	1.1801e+02	-7.2335	-13.288329	0.000176	1.764129	0.597703	-0.000071
1188	1.1811e+02	-7.2479	-13.354726	0.000165	1.652604	0.559917	-0.000067
1189	1.1821e+02	-7.3121	-13.421530	0.000166	1.662743	0.563352	-0.000067
1190	1.1831e+02	-7.3346	-13.489149	0.000168	1.683020	0.570223	-0.000068
1191	1.1841e+02	-7.3779	-13.556360	0.000167	1.672881	0.566788	-0.000068
1192	1.1850e+02	-7.4517	-13.623979	0.000168	1.683020	0.570223	-0.000068
1193	1.1860e+02	-7.4613	-13.696486	0.000180	1.804684	0.611444	-0.000073
1194	1.1870e+02	-7.5126	-13.756773	0.000150	1.500524	0.508391	-0.000061
1195	1.1880e+02	-7.5527	-13.821540	0.000161	1.612049	0.546177	-0.000065
1196	1.1890e+02	-7.5752	-13.891603	0.000174	1.743852	0.590833	-0.000070
1197	1.1900e+02	-7.6265	-13.957185	0.000163	1.632327	0.553047	-0.000066
1198	1.1910e+02	-7.6442	-14.024397	0.000167	1.672881	0.566788	-0.000068
1199	1.1920e+02	-7.6763	-14.088349	0.000159	1.591772	0.539307	-0.000064
1200	1.1930e+02	-7.7500	-14.163708	0.000188	1.875655	0.635489	-0.000076
1201	1.1940e+02	-7.7821	-14.232956	0.000172	1.723575	0.583963	-0.000070
1202	1.1950e+02	-7.8110	-14.293243	0.000150	1.500524	0.508391	-0.000061
1203	1.1960e+02	-7.8447	-14.358010	0.000161	1.612049	0.546177	-0.000065
1204	1.1970e+02	-7.8944	-14.419112	0.000152	1.520801	0.515261	-0.000061
1205	1.1980e+02	-7.9458	-14.481028	0.000154	1.541079	0.522132	-0.000062
1206	1.1990e+02	-7.9827	-14.545795	0.000161	1.612049	0.546177	-0.000065
1207	1.2000e+02	-8.0436	-14.609748	0.000159	1.591772	0.539307	-0.000064
1208	1.2010e+02	-8.0869	-14.670849	0.000152	1.520801	0.515261	-0.000061
1209	1.2020e+02	-8.1030	-14.732765	0.000154	1.541079	0.522132	-0.000062
1210	1.2030e+02	-8.1511	-14.807309	0.000186	1.855377	0.628619	-0.000075
1211	1.2039e+02	-8.2121	-14.864744	0.000143	1.429553	0.484346	-0.000058
1212	1.2049e+02	-8.2313	-14.924624	0.000149	1.490385	0.504956	-0.000060
1213	1.2059e+02	-8.2682	-14.985725	0.000152	1.520801	0.515261	-0.000061
1214	1.2069e+02	-8.2827	-15.046419	0.000151	1.510663	0.511826	-0.000061
1215	1.2079e+02	-8.3372	-15.100188	0.000134	1.338305	0.453430	-0.000054
1216	1.2089e+02	-8.3789	-15.166993	0.000166	1.662743	0.563352	-0.000067
1217	1.2099e+02	-8.4078	-15.231760	0.000161	1.612049	0.546177	-0.000065
1218	1.2109e+02	-8.4559	-15.305896	0.000185	1.845239	0.625184	-0.000075
1219	1.2119e+02	-8.5040	-15.370256	0.000160	1.601911	0.542742	-0.000065
1220	1.2129e+02	-8.5361	-15.438690	0.000170	1.703297	0.577093	-0.000069
1221	1.2139e+02	-8.5987	-15.499791	0.000152	1.520801	0.515261	-0.000061
1222	1.2149e+02	-8.6179	-15.558856	0.000147	1.470108	0.498086	-0.000059
1223	1.2159e+02	-8.6613	-15.615069	0.000140	1.399137	0.474040	-0.000056
1224	1.2169e+02	-8.6901	-15.674134	0.000147	1.470108	0.498086	-0.000059
1225	1.2179e+02	-8.7511	-15.737679	0.000158	1.581633	0.535872	-0.000064
1226	1.2189e+02	-8.7832	-15.798781	0.000152	1.520801	0.515261	-0.000061
1227	1.2199e+02	-8.8185	-15.859068	0.000150	1.500524	0.508391	-0.000061
1228	1.2209e+02	-8.8506	-15.920984	0.000154	1.541079	0.522132	-0.000062
1229	1.2219e+02	-8.9051	-15.982085	0.000152	1.520801	0.515261	-0.000061
1230	1.2229e+02	-8.9468	-16.041150	0.000147	1.470108	0.498086	-0.000059
1231	1.2239e+02	-8.9645	-16.105102	0.000159	1.591772	0.539307	-0.000064
1232	1.2248e+02	-9.0062	-16.171907	0.000166	1.662743	0.563352	-0.000067
1233	1.2258e+02	-9.0575	-16.233415	0.000153	1.530940	0.518696	-0.000062
1234	1.2268e+02	-9.0671	-16.303478	0.000174	1.743852	0.590833	-0.000070
1235	1.2278e+02	-9.1201	-16.370690	0.000167	1.672881	0.566788	-0.000068
1236	1.2288e+02	-9.1762	-16.444419	0.000184	1.835100	0.621749	-0.000074
1237	1.2298e+02	-9.2195	-16.512038	0.000168	1.683020	0.570223	-0.000068
1238	1.2308e+02	-9.2275	-16.573954	0.000154	1.541079	0.522132	-0.000062
1239	1.2318e+02	-9.2997	-16.637092	0.000157	1.571495	0.532437	-0.000063
1240	1.2328e+02	-9.3366	-16.696564	0.000148	1.480246	0.501521	-0.000060
1241	1.2338e+02	-9.3976	-16.762961	0.000165	1.652604	0.559917	-0.000067
1242	1.2348e+02	-9.4329	-16.821618	0.000146	1.459969	0.494651	-0.000059
1243	1.2358e+02	-9.4922	-16.879461	0.000144	1.439692	0.487781	-0.000058
1244	1.2368e+02	-9.5099	-16.946672	0.000167	1.672881	0.566788	-0.000068
1245	1.2378e+02	-9.5259	-17.013884	0.000167	1.672881	0.566788	-0.000068
1246	1.2388e+02	-9.5837	-17.070912	0.000142	1.419414	0.480911	-0.000057
1247	1.2398e+02	-9.6479	-17.129162	0.000145	1.449830	0.491216	-0.000059
1248	1.2408e+02	-9.6463	-17.195966	-0.000166	-1.662743	-0.563352	-0.000067
1249	1.2418e+02	-9.6623	-17.259104	0.000157	1.571495	0.532437	-0.000063
1250	1.2428e+02	-9.7377	-17.324279	0.000162	1.622188	0.549612	-0.000066
1251	1.2438e+02	-9.7393	-17.391490	0.000167	1.672881	0.566788	-0.000068
1252	1.2447e+02	-9.8019	-17.457072	0.000163	1.632327	0.553047	-0.000066
1253	1.2457e+02	-9.8628	-17.532023	0.000187	1.865516	0.632054	-0.000075
1254	1.2467e+02	-9.8837	-17.598013	0.000164	1.642465	0.556482	-0.000066
1255	1.2477e+02	-9.9222	-17.657078	0.000147	1.470108	0.498086	-0.000059
1256	1.2487e+02	-9.9639	-17.720216	0.000157	1.571495	0.532437	-0.000063
1257	1.2497e+02	-9.9863	-17.781317	0.000152	1.520801	0.515261	-0.000061
1258	1.2507e+02	-10.0521	-17.846085	0.000161	1.612049	0.546177	-0.000065
1259	1.2517e+02	-10.0986	-17.904742	0.000146	1.459969	0.494651	-0.000059
1260	1.2527e+02	-10.1371	-17.968695	0.000159	1.591772	0.539307	-0.000064
1261	1.2537e+02	-10.1516	-18.025315	0.000141	1.409276	0.477476	-0.000057
1262	1.2547e+02	-10.2077	-18.092527	0.000167	1.672881	0.566788	-0.000068
1263	1.2557e+02	-10.2559	-18.151184	0.000146	1.459969	0.494651	-0.000059
1264	1.2567e+02	-10.2799	-18.215137	0.000159	1.591772	0.539307	-0.000064
1265	1.2577e+02	-10.2928	-18.272980	0.000144	1.439692	0.487781	-0.000058
1266	1.2587e+02	-10.3569	-18.338562	0.000163	1.632327	0.553047	-0.000066
1267	1.2597e+02	-10.3906	-18.406181	0.000168	1.683020	0.570223	-0.000068
1268	1.2607e+02	-10.4420	-18.476243	0.000174	1.743852	0.590833	-0.000070
1269	1.2617e+02	-10.4788	-18.543862	0.000168	1.683020	0.570223	-0.000068
1270	1.2627e+02	-10.5109	-18.615962	0.000179	1.794545	0.608008	-0.000072
1271	1.2636e+02	-10.5799	-18.675434	0.000148	1.480246	0.501521	-0.000060
1272	1.2646e+02	-10.6136	-18.736943	0.000153	1.530940	0.518696	-0.000062
1273	1.2656e+02	-10.6537	-18.792749	0.000139	1.388998	0.470605	-0.000056
1274	1.2666e+02	-10.6938	-18.853035	0.000150	1.500524	0.508391	-0.000061
1275	1.2676e+02	-10.7435	-18.913729	0.000151	1.510663	0.511826	-0.000061
1276	1.2686e+02	-10.7804	-18.972794	0.000147	1.470108	0.498086	-0.000059
1277	1.2696e+02	-10.8077	-19.032266	0.000148	1.480246	0.501521	-0.000060
1278	1.2706e+02	-10.8542	-19.094589	0.000155	1.551217	0.525567	-0.000063
1279	1.2716e+02	-10.8911	-19.153654	0.000147	1.470108	0.498086	-0.000059
1280	1.2726e+02	-10.9296	-19.221680	0.000169	1.693159	0.573658	-0.000068
1281	1.2736e+02	-10.9713	-19.285226	0.000158	1.581633	0.535872	-0.000064
1282	1.2746e+02	-11.0050	-19.343476	0.000145	1.449830	0.491216	-0.000059
1283	1.2756e+02	-11.0371	-19.402540	0.000147	1.470108	0.498086	-0.000059
1284	1.2766e+02	-11.0836	-19.474233	0.000178	1.784407	0.604573	-0.000072
1285	1.2776e+02	-11.1173	-19.543481	0.000172	1.723575	0.583963	-0.000070
1286	1.2786e+02	-11.1446	-19.613137	0.000173	1.733713	0.587398	-0.000070
1287	1.2796e+02	-11.2024	-19.684014	0.000176	1.764129	0.597703	-0.000071
1288	1.2806e+02	-11.2184	-19.745115	0.000152	1.520801	0.515261	-0.000061
1289	1.2816e+02	-11.2906	-19.812327	0.000167	1.672881	0.566788	-0.000068
1290	1.2826e+02	-11.3451	-19.867318	0.000137	1.368721	0.463735	-0.000055
1291	1.2835e+02	-11.3917	-19.926383	0.000147	1.470108	0.498086	-0.000059
1292	1.2845e+02	-11.4221	-19.985448	0.000147	1.470108	0.498086	-0.000059
1293	1.2855e+02	-11.4462	-20.046142	0.000151	1.510663	0.511826	-0.000061
1294	1.2865e+02	-11.4767	-20.110502	0.000160	1.601911	0.542742	-0.000065
1295	1.2875e+02	-11.5441	-20.169566	0.000147	1.470108	0.498086	-0.000059
1296	1.2885e+02	-11.5649	-20.228631	0.000147	1.470108	0.498086	-0.000059
1297	1.2895e+02	-11.6146	-20.299509	0.000176	1.764129	0.597703	-0.000071
1298	1.2905e+02	-11.6564	-20.359795	0.000150	1.500524	0.508391	-0.000061
1299	1.2915e+02	-11.7013	-20.428636	0.000171	1.713436	0.580528	-0.000069
1300	1.2925e+02	-11.6852	-20.485664	-0.000142	-1.419414	-0.480911	-0.000057
1301	1.2935e+02	-11.7382	-20.553283	0.000168	1.683020	0.570223	-0.000068
1302	1.2945e+02	-11.7975	-20.618865	0.000163	1.632327	0.553047	-0.000066
1303	1.2955e+02	-11.8408	-20.693409	0.000186	1.855377	0.628619	-0.000075
1304	1.2965e+02	-11.8745	-20.755325	0.000154	1.541079	0.522132	-0.000062
1305	1.2975e+02	-11.9339	-20.817241	0.000154	1.541079	0.522132	-0.000062
1306	1.2985e+02	-11.9596	-20.879972	0.000156	1.561356	0.529002	-0.000063
1307	1.2995e+02	-11.9997	-20.938629	0.000146	1.459969	0.494651	-0.000059
1308	1.3005e+02	-12.0382	-20.997287	0.000146	1.459969	0.494651	-0.000059
1309	1.3015e+02	-12.1023	-21.053907	0.000141	1.409276	0.477476	-0.000057
1310	1.3025e+02	-12.1232	-21.112157	0.000145	1.449830	0.491216	-0.000059
1311	1.3034e+02	-12.1521	-21.174481	0.000155	1.551217	0.525567	-0.000063
1312	1.3044e+02	-12.2114	-21.231101	0.000141	1.409276	0.477476	-0.000057
1313	1.3054e+02	-12.2451	-21.287722	0.000141	1.409276	0.477476	-0.000057
1314	1.3064e+02	-12.2932	-21.346379	0.000146	1.459969	0.494651	-0.000059
1315	1.3074e+02	-12.3301	-21.409517	0.000157	1.571495	0.532437	-0.000063
1316	1.3084e+02	-12.3590	-21.473877	0.000160	1.601911	0.542742	-0.000065
1317	1.3094e+02	-12.3991	-21.527239	0.000133	1.328166	0.449995	-0.000054
1318	1.3104e+02	-12.4328	-21.588341	0.000152	1.520801	0.515261	-0.000061
1319	1.3114e+02	-12.4857	-21.645776	0.000143	1.429553	0.484346	-0.000058
1320	1.3124e+02	-12.5242	-21.712580	0.000166	1.662743	0.563352	-0.000067
1321	1.3134e+02	-12.5226	-21.772052	-0.000148	-1.480246	-0.501521	-0.000060
1322	1.3144e+02	-12.6173	-21.834375	0.000155	1.551217	0.525567	-0.000063
1323	1.3154e+02	-12.6446	-21.897106	0.000156	1.561356	0.529002	-0.000063
1324	1.3164e+02	-12.6783	-21.961466	0.000160	1.601911	0.542742	-0.000065
1325	1.3174e+02	-12.7087	-22.016050	0.000136	1.358582	0.460300	-0.000055
1326	1.3184e+02	-12.7809	-22.069005	0.000132	1.318028	0.446560	-0.000053
1327	1.3194e+02	-12.8210	-22.123589	0.000136	1.358582	0.460300	-0.000055
1328	1.3204e+02	-12.8467	-22.179395	0.000139	1.388998	0.470605	-0.000056
1329	1.3214e+02	-12.8916	-22.228276	0.000122	1.216641	0.412209	-0.000049
1330	1.3224e+02	-12.9317	-22.284489	0.000140	1.399137	0.474040	-0.000056
1331	1.3234e+02	-12.9847	-22.337036	0.000131	1.307889	0.443125	-0.000053
1332	1.3243e+02	-13.0119	-22.397323	0.000150	1.500524	0.508391	-0.000061
1333	1.3253e+02	-13.0504	-22.449870	0.000131	1.307889	0.443125	-0.000053
1334	1.3263e+02	-13.0841	-22.508527	0.000146	1.459969	0.494651	-0.000059
1335	1.3273e+02	-13.1066	-22.569221	0.000151	1.510663	0.511826	-0.000061
1336	1.3283e+02	-13.1162	-22.622991	0.000134	1.338305	0.453430	-0.000054
1337	1.3293e+02	-13.2093	-22.680019	0.000142	1.419414	0.480911	-0.000057
1338	1.3303e+02	-13.2269	-22.745601	0.000163	1.632327	0.553047	-0.000066
1339	1.3313e+02	-13.2911	-22.803443	0.000144	1.439692	0.487781	-0.000058
1340	1.3323e+02	-13.3215	-22.859657	0.000140	1.399137	0.474040	-0.000056
1341	1.3333e+02	-13.3520	-22.925646	0.000164	1.642465	0.556482	-0.000066
1342	1.3343e+02	-13.4034	-22.976157	0.000126	1.257196	0.425949	-0.000051
1343	1.3353e+02	-13.4451	-23.025445	0.000123	1.226780	0.415644	-0.000050
1344	1.3363e+02	-13.4723	-23.079214	0.000134	1.338305	0.453430	-0.000054
1345	1.3373e+02	-13.5317	-23.130132	0.000127	1.267334	0.429384	-0.000051
1346	1.3383e+02	-13.5718	-23.183087	0.000132	1.318028	0.446560	-0.000053
1347	1.3393e+02	-13.5943	-23.242151	0.000147	1.470108	0.498086	-0.000059
1348	1.3403e+02	-13.6280	-23.295513	0.000133	1.328166	0.449995	-0.000054
1349	1.3413e+02	-13.6937	-23.348468	0.000132	1.318028	0.446560	-0.000053
1350	1.3423e+02	-13.7322	-23.399793	0.000128	1.277473	0.432820	-0.000052
1351	1.3432e+02	-13.7531	-23.454784	0.000137	1.368721	0.463735	-0.000055
1352	1.3442e+02	-13.7723	-23.517108	0.000155	1.551217	0.525567	-0.000063
1353	1.3452e+02	-13.8205	-23.572099	0.000137	1.368721	0.463735	-0.000055
1354	1.3462e+02	-13.8654	-23.627905	0.000139	1.388998	0.470605	-0.000056
1355	1.3472e+02	-13.9055	-23.687377	0.000148	1.480246	0.501521	-0.000060
1356	1.3482e+02	-13.9344	-23.745627	0.000145	1.449830	0.491216	-0.000059
1357	1.3492e+02	-13.9985	-23.807135	0.000153	1.530940	0.518696	-0.000062
1358	1.3502e+02	-14.0274	-23.858053	0.000127	1.267334	0.429384	-0.000051
1359	1.3512e+02	-14.0836	-23.911008	0.000132	1.318028	0.446560	-0.000053
1360	1.3522e+02	-14.1237	-23.963148	0.000130	1.297750	0.439690	-0.000052
1361	1.3532e+02	-14.1622	-24.014065	0.000127	1.267334	0.429384	-0.000051
1362	1.3542e+02	-14.2119	-24.064169	0.000125	1.247057	0.422514	-0.000050
1363	1.3552e+02	-14.2504	-24.118752	0.000136	1.358582	0.460300	-0.000055
1364	1.3562e+02	-14.2825	-24.170892	0.000130	1.297750	0.439690	-0.000052
1365	1.3572e+02	-14.3370	-24.220995	0.000125	1.247057	0.422514	-0.000050
1366	1.3582e+02	-14.3659	-24.275172	0.000135	1.348444	0.456865	-0.000054
1367	1.3592e+02	-14.3627	-24.326905	-0.000129	-1.287612	-0.436255	-0.000052
1368	1.3602e+02	-14.4349	-24.385155	0.000145	1.449830	0.491216	-0.000059
1369	1.3612e+02	-14.4525	-24.438516	0.000133	1.328166	0.449995	-0.000054
1370	1.3622e+02	-14.5215	-24.497174	0.000146	1.459969	0.494651	-0.000059
1371	1.3631e+02	-14.5167	-24.548499	-0.000128	-1.277473	-0.432820	-0.000052
1372	1.3641e+02	-14.5857	-24.601046	0.000131	1.307889	0.443125	-0.000053
1373	1.3651e+02	-14.6418	-24.659296	0.000145	1.449830	0.491216	-0.000059
1374	1.3661e+02	-14.6803	-24.721619	0.000155	1.551217	0.525567	-0.000063
1375	1.3671e+02	-14.7172	-24.770908	0.000123	1.226780	0.415644	-0.000050
1376	1.3681e+02	-14.7638	-24.822640	0.000129	1.287612	0.436255	-0.000052
1377	1.3691e+02	-14.8135	-24.869485	0.000117	1.165948	0.395034	-0.000047
1378	1.3701e+02	-14.8263	-24.922032	0.000131	1.307889	0.443125	-0.000053
1379	1.3711e+02	-14.8744	-24.964396	0.000105	1.054422	0.357248	-0.000043
1380	1.3721e+02	-14.9097	-25.014906	0.000126	1.257196	0.425949	-0.000051
1381	1.3731e+02	-14.9691	-25.062973	0.000120	1.196364	0.405339	-0.000048
1382	1.3741e+02	-14.9851	-25.112668	0.000124	1.236918	0.419079	-0.000050
1383	1.3751e+02	-15.0413	-25.163586	0.000127	1.267334	0.429384	-0.000051
1384	1.3761e+02	-15.0285	-25.209208	-0.000114	-1.135532	-0.384729	-0.000046
1385	1.3771e+02	-15.1055	-25.267866	0.000146	1.459969	0.494651	-0.000059
1386	1.3781e+02	-15.1568	-25.323264	0.000138	1.378860	0.467170	-0.000056
1387	1.3791e+02	-15.1841	-25.379885	0.000141	1.409276	0.477476	-0.000057
1388	1.3801e+02	-15.2258	-25.430395	0.000126	1.257196	0.425949	-0.000051
1389	1.3811e+02	-15.2899	-25.487831	0.000143	1.429553	0.484346	-0.000058
1390	1.3821e+02	-15.3140	-25.539563	0.000129	1.287612	0.436255	-0.000052
1391	1.3831e+02	-15.3429	-25.596591	0.000142	1.419414	0.480911	-0.000057
1392	1.3840e+02	-15.4343	-25.658507	0.000154	1.541079	0.522132	-0.000062
1393	1.3850e+02	-15.4520	-25.704537	0.000115	1.145670	0.388164	-0.000046
1394	1.3860e+02	-15.4664	-25.750159	0.000114	1.135532	0.384729	-0.000046
1395	1.3870e+02	-15.5290	-25.799855	0.000124	1.236918	0.419079	-0.000050
1396	1.3880e+02	-15.5546	-25.845478	0.000114	1.135532	0.384729	-0.000046
1397	1.3890e+02	-15.6124	-25.904950	0.000148	1.480246	0.501521	-0.000060
1398	1.3900e+02	-15.6381	-25.950979	0.000115	1.145670	0.388164	-0.000046
1399	1.3910e+02	-15.6685	-26.002712	0.000129	1.287612	0.436255	-0.000052
1400	1.3920e+02	-15.7006	-26.056888	0.000135	1.348444	0.456865	-0.000054
1401	1.3930e+02	-15.7006	-26.115953	0.000147	1.470108	0.498086	-0.000059
1402	1.3940e+02	-15.7664	-26.169722	0.000134	1.338305	0.453430	-0.000054
1403	1.3950e+02	-15.8209	-26.229194	0.000148	1.480246	0.501521	-0.000060
1404	1.3960e+02	-15.8691	-26.283371	0.000135	1.348444	0.456865	-0.000054
1405	1.3970e+02	-15.9076	-26.344472	0.000152	1.520801	0.515261	-0.000061
1406	1.3980e+02	-15.9477	-26.394983	0.000126	1.257196	0.425949	-0.000051
1407	1.3990e+02	-15.9926	-26.451603	0.000141	1.409276	0.477476	-0.000057
1408	1.4000e+02	-16.0167	-26.508224	0.000141	1.409276	0.477476	-0.000057
1409	1.4010e+02	-16.0824	-26.568918	0.000151	1.510663	0.511826	-0.000061
1410	1.4020e+02	-16.1161	-26.626353	0.000143	1.429553	0.484346	-0.000058
1411	1.4029e+02	-16.1386	-26.677678	0.000128	1.277473	0.432820	-0.000052
1412	1.4039e+02	-16.1819	-26.731448	0.000134	1.338305	0.453430	-0.000054
1413	1.4049e+02	-16.2445	-26.777477	0.000115	1.145670	0.388164	-0.000046
1414	1.4059e+02	-16.2605	-26.838171	0.000151	1.510663	0.511826	-0.000061
1415	1.4069e+02	-16.2894	-26.885423	0.000118	1.176086	0.398469	-0.000047
1416	1.4079e+02	-16.3343	-26.944488	0.000147	1.470108	0.498086	-0.000059
1417	1.4089e+02	-16.3792	-26.999886	0.000138	1.378860	0.467170	-0.000056
1418	1.4099e+02	-16.4161	-27.060173	0.000150	1.500524	0.508391	-0.000061
1419	1.4109e+02	-16.4594	-27.112313	0.000130	1.297750	0.439690	-0.000052
1420	1.4119e+02	-16.5092	-27.170563	0.000145	1.449830	0.491216	-0.000059
1421	1.4129e+02	-16.5445	-27.225961	0.000138	1.378860	0.467170	-0.000056
1422	1.4139e+02	-16.5958	-27.287878	0.000154	1.541079	0.522132	-0.000062
1423	1.4149e+02	-16.6295	-27.342461	0.000136	1.358582	0.460300	-0.000055
1424	1.4159e+02	-16.6776	-27.405192	0.000156	1.561356	0.529002	-0.000063
1425	1.4169e+02	-16.6936	-27.457332	0.000130	1.297750	0.439690	-0.000052
1426	1.4179e+02	-16.7658	-27.520063	0.000156	1.561356	0.529002	-0.000063
1427	1.4189e+02	-16.7819	-27.573425	0.000133	1.328166	0.449995	-0.000054
1428	1.4199e+02	-16.8220	-27.625157	0.000129	1.287612	0.436255	-0.000052
1429	1.4209e+02	-16.8846	-27.683000	0.000144	1.439692	0.487781	-0.000058
1430	1.4219e+02	-16.9054	-27.732696	0.000124	1.236918	0.419079	-0.000050
1431	1.4228e+02	-16.9070	-27.785650	0.000132	1.318028	0.446560	-0.000053
1432	1.4238e+02	-16.9744	-27.844715	0.000147	1.470108	0.498086	-0.000059
1433	1.4248e+02	-17.0161	-27.898891	0.000135	1.348444	0.456865	-0.000054
1434	1.4258e+02	-17.0626	-27.962844	0.000159	1.591772	0.539307	-0.000064
1435	1.4268e+02	-17.0995	-28.018650	0.000139	1.388998	0.470605	-0.000056
1436	1.4278e+02	-17.1460	-28.076085	0.000143	1.429553	0.484346	-0.000058
1437	1.4288e+02	-17.1749	-28.139631	0.000158	1.581633	0.535872	-0.000064
1438	1.4298e+02	-17.2246	-28.192993	0.000133	1.328166	0.449995	-0.000054
1439	1.4308e+02	-17.2888	-28.252872	0.000149	1.490385	0.504956	-0.000060
1440	1.4318e+02	-17.3161	-28.311529	0.000146	1.459969	0.494651	-0.000059
1441	1.4328e+02	-17.3418	-28.371409	0.000149	1.490385	0.504956	-0.000060
1442	1.4338e+02	-17.3803	-28.435361	0.000159	1.591772	0.539307	-0.000064
1443	1.4348e+02	-17.4396	-28.491982	0.000141	1.409276	0.477476	-0.000057
1444	1.4358e+02	-17.4589	-28.546973	0.000137	1.368721	0.463735	-0.000055
1445	1.4368e+02	-17.5230	-28.594225	0.000118	1.176086	0.398469	-0.000047
1446	1.4378e+02	-17.5599	-28.652475	0.000145	1.449830	0.491216	-0.000059
1447	1.4388e+02	-17.5904	-28.706244	0.000134	1.338305	0.453430	-0.000054
1448	1.4398e+02	-17.5792	-28.764087	-0.000144	-1.439692	-0.487781	-0.000058
1449	1.4408e+02	-17.6658	-28.823152	0.000147	1.470108	0.498086	-0.000059
1450	1.4418e+02	-17.7252	-28.882624	0.000148	1.480246	0.501521	-0.000060
1451	1.4428e+02	-17.7460	-28.943725	0.000152	1.520801	0.515261	-0.000061
1452	1.4437e+02	-17.7605	-29.004012	0.000150	1.500524	0.508391	-0.000061
1453	1.4447e+02	-17.8086	-29.062669	0.000146	1.459969	0.494651	-0.000059
1454	1.4457e+02	-17.8695	-29.124992	0.000155	1.551217	0.525567	-0.000063
1455	1.4467e+02	-17.8952	-29.184057	0.000147	1.470108	0.498086	-0.000059
1456	1.4477e+02	-17.9353	-29.245566	0.000153	1.530940	0.518696	-0.000062
1457	1.4487e+02	-17.9979	-29.308704	0.000157	1.571495	0.532437	-0.000063
1458	1.4497e+02	-18.0428	-29.368176	0.000148	1.480246	0.501521	-0.000060
1459	1.4507e+02	-18.0605	-29.427241	0.000147	1.470108	0.498086	-0.000059
1460	1.4517e+02	-18.0990	-29.492008	0.000161	1.612049	0.546177	-0.000065
1461	1.4527e+02	-18.1567	-29.551887	0.000149	1.490385	0.504956	-0.000060
1462	1.4537e+02	-18.1888	-29.611359	0.000148	1.480246	0.501521	-0.000060
1463	1.4547e+02	-18.2289	-29.665536	0.000135	1.348444	0.456865	-0.000054
1464	1.4557e+02	-18.2658	-29.727859	0.000155	1.551217	0.525567	-0.000063
1465	1.4567e+02	-18.2850	-29.785702	0.000144	1.439692	0.487781	-0.000058
1466	1.4577e+02	-18.3364	-29.848025	0.000155	1.551217	0.525567	-0.000063
1467	1.4587e+02	-18.3637	-29.913200	0.000162	1.622188	0.549612	-0.000066
1468	1.4597e+02	-18.3941	-29.974302	0.000152	1.520801	0.515261	-0.000061
1469	1.4607e+02	-18.4342	-30.037032	0.000156	1.561356	0.529002	-0.000063
1470	1.4617e+02	-18.4872	-30.102615	0.000163	1.632327	0.553047	-0.000066
1471	1.4626e+02	-18.5321	-30.164123	0.000153	1.530940	0.518696	-0.000062
1472	1.4636e+02	-18.5690	-30.218300	0.000135	1.348444	0.456865	-0.000054
1473	1.4646e+02	-18.6107	-30.283475	0.000162	1.622188	0.549612	-0.000066
1474	1.4656e+02	-18.6733	-30.344576	0.000152	1.520801	0.515261	-0.000061
1475	1.4666e+02	-18.6845	-30.402011	0.000143	1.429553	0.484346	-0.000058
1476	1.4676e+02	-18.7326	-30.464335	0.000155	1.551217	0.525567	-0.000063
1477	1.4686e+02	-18.7775	-30.533990	0.000173	1.733713	0.587398	-0.000070
1478	1.4696e+02	-18.8369	-30.601609	0.000168	1.683020	0.570223	-0.000068
1479	1.4706e+02	-18.8642	-30.657822	0.000140	1.399137	0.474040	-0.000056
1480	1.4716e+02	-18.8866	-30.713221	0.000138	1.378860	0.467170	-0.000056
1481	1.4726e+02	-18.9364	-30.768620	0.000138	1.378860	0.467170	-0.000056
1482	1.4736e+02	-18.9797	-30.825240	0.000141	1.409276	0.477476	-0.000057
1483	1.4746e+02	-19.0358	-30.881861	0.000141	1.409276	0.477476	-0.000057
1484	1.4756e+02	-19.0471	-30.943370	0.000153	1.530940	0.518696	-0.000062
1485	1.4766e+02	-19.0631	-31.003249	0.000149	1.490385	0.504956	-0.000060
1486	1.4776e+02	-19.1417	-31.063536	0.000150	1.500524	0.508391	-0.000061
1487	1.4786e+02	-19.1529	-31.129118	0.000163	1.632327	0.553047	-0.000066
1488	1.4796e+02	-19.2139	-31.189404	0.000150	1.500524	0.508391	-0.000061
1489	1.4806e+02	-19.2492	-31.250506	0.000152	1.520801	0.515261	-0.000061
1490	1.4816e+02	-19.2925	-31.311607	0.000152	1.520801	0.515261	-0.000061
1491	1.4825e+02	-19.3310	-31.369450	0.000144	1.439692	0.487781	-0.000058
1492	1.4835e+02	-19.3599	-31.432588	0.000157	1.571495	0.532437	-0.000063
1493	1.4845e+02	-19.4593	-31.488394	0.000139	1.388998	0.470605	-0.000056
1494	1.4855e+02	-19.4401	-31.555605	-0.000167	-1.672881	-0.566788	-0.000068
1495	1.4865e+02	-19.5155	-31.613041	0.000143	1.429553	0.484346	-0.000058
1496	1.4875e+02	-19.5412	-31.672513	0.000148	1.480246	0.501521	-0.000060
1497	1.4885e+02	-19.5765	-31.747056	0.000186	1.855377	0.628619	-0.000075
1498	1.4895e+02	-19.6166	-31.801233	0.000135	1.348444	0.456865	-0.000054
1499	1.4905e+02	-19.6567	-31.859076	0.000144	1.439692	0.487781	-0.000058
1500	1.4915e+02	-19.7208	-31.913660	0.000136	1.358582	0.460300	-0.000055
1501	1.4925e+02	-19.7240	-31.975576	0.000154	1.541079	0.522132	-0.000062
1502	1.4935e+02	-19.7529	-32.037084	0.000153	1.530940	0.518696	-0.000062
1503	1.4945e+02	-19.7738	-32.098593	0.000153	1.530940	0.518696	-0.000062
1504	1.4955e+02	-19.8524	-32.157250	0.000146	1.459969	0.494651	-0.000059
1505	1.4965e+02	-19.8620	-32.219574	0.000155	1.551217	0.525567	-0.000063
1506	1.4975e+02	-19.9182	-32.273750	0.000135	1.348444	0.456865	-0.000054
1507	1.4985e+02	-19.9534	-32.341777	0.000169	1.693159	0.573658	-0.000068
1508	1.4995e+02	-19.9374	-32.314892	0.000067	0.669153	0.226715	0.000027
1509	1.5005e+02	-19.8973	-32.290859	0.000060	0.598182	0.202669	0.000024
1510	1.5015e+02	-19.8363	-32.269677	0.000053	0.527211	0.178624	0.000021
1511	1.5025e+02	-19.8139	-32.245644	0.000060	0.598182	0.202669	0.000024
1512	1.5034e+02	-19.7561	-32.220388	0.000063	0.628598	0.212975	0.000025
1513	1.5044e+02	-19.7417	-32.195948	0.000061	0.608320	0.206105	0.000025
1514	1.5054e+02	-19.7112	-32.166619	0.000073	0.729985	0.247325	0.000029
1515	1.5064e+02	-19.6502	-32.147882	0.000047	0.466379	0.158013	0.000019
1516	1.5074e+02	-19.6069	-32.113257	0.000086	0.861787	0.291981	0.000035
1517	1.5084e+02	-19.5572	-32.085151	0.000070	0.699569	0.237020	0.000028
1518	1.5094e+02	-19.5331	-32.049305	0.000089	0.892203	0.302287	0.000036
1519	1.5104e+02	-19.5107	-32.013866	0.000088	0.882065	0.298852	0.000036
1520	1.5114e+02	-19.4192	-31.982908	0.000077	0.770539	0.261066	0.000031
1521	1.5124e+02	-19.4208	-31.952764	-0.000075	-0.750262	-0.254196	0.000030
1522	1.5134e+02	-19.3807	-31.919362	0.000083	0.831371	0.281676	0.000034
1523	1.5144e+02	-19.3262	-31.887590	0.000079	0.790817	0.267936	0.000032
1524	1.5154e+02	-19.3085	-31.852965	0.000086	0.861787	0.291981	0.000035
1525	1.5164e+02	-19.2684	-31.819971	0.000082	0.821233	0.278241	0.000033
1526	1.5174e+02	-19.2283	-31.782088	0.000094	0.942897	0.319462	0.000038
1527	1.5184e+02	-19.1610	-31.751945	0.000075	0.750262	0.254196	0.000030
1528	1.5194e+02	-19.1529	-31.711210	0.000101	1.013867	0.343508	0.000041
1529	1.5204e+02	-19.0840	-31.677401	0.000084	0.841510	0.285111	0.000034
1530	1.5214e+02	-19.0791	-31.645628	0.000079	0.790817	0.267936	0.000032
1531	1.5224e+02	-19.0390	-31.604487	0.000102	1.024006	0.346943	0.000041
1532	1.5233e+02	-18.9909	-31.575973	0.000071	0.709707	0.240455	0.000029
1533	1.5243e+02	-18.9235	-31.544200	0.000079	0.790817	0.267936	0.000032
1534	1.5253e+02	-18.8914	-31.501022	0.000107	1.074699	0.364118	0.000043
1535	1.5263e+02	-18.8594	-31.466805	0.000085	0.851649	0.288546	0.000034
1536	1.5273e+02	-18.8160	-31.423219	0.000108	1.084838	0.367553	0.000044
1537	1.5283e+02	-18.7759	-31.387373	0.000089	0.892203	0.302287	0.000036
1538	1.5293e+02	-18.7166	-31.344195	0.000107	1.074699	0.364118	0.000043
1539	1.5303e+02	-18.6973	-31.305904	0.000095	0.953035	0.322897	0.000038
1540	1.5313e+02	-18.6652	-31.263948	0.000104	1.044283	0.353813	0.000042
1541	1.5323e+02	-18.6091	-31.220770	0.000107	1.074699	0.364118	0.000043
1542	1.5333e+02	-18.5818	-31.180443	0.000100	1.003729	0.340073	0.000041
1543	1.5343e+02	-18.5513	-31.144597	0.000089	0.892203	0.302287	0.000036
1544	1.5353e+02	-18.5161	-31.102233	0.000105	1.054422	0.357248	0.000043
1545	1.5363e+02	-18.4727	-31.059870	0.000105	1.054422	0.357248	0.000043
1546	1.5373e+02	-18.4374	-31.021172	0.000096	0.963174	0.326332	0.000039
1547	1.5383e+02	-18.3861	-30.977994	0.000107	1.074699	0.364118	0.000043
1548	1.5393e+02	-18.3572	-30.934001	0.000109	1.094977	0.370988	0.000044
1549	1.5403e+02	-18.2931	-30.885527	0.000121	1.206502	0.408774	0.000049
1550	1.5413e+02	-18.2706	-30.843163	0.000105	1.054422	0.357248	0.000043
1551	1.5422e+02	-18.2273	-30.805280	0.000094	0.942897	0.319462	0.000038
1552	1.5432e+02	-18.1744	-30.770249	0.000087	0.871926	0.295417	0.000035
1553	1.5442e+02	-18.1198	-30.727885	0.000105	1.054422	0.357248	0.000043
1554	1.5452e+02	-18.0909	-30.679412	0.000121	1.206502	0.408774	0.000049
1555	1.5462e+02	-18.0412	-30.641529	0.000094	0.942897	0.319462	0.000038
1556	1.5472e+02	-18.0236	-30.595906	0.000114	1.135532	0.384729	0.000046
1557	1.5482e+02	-18.0027	-30.549062	0.000117	1.165948	0.395034	0.000047
1558	1.5492e+02	-17.9241	-30.505476	0.000108	1.084838	0.367553	0.000044
1559	1.5502e+02	-17.8888	-30.463113	0.000105	1.054422	0.357248	0.000043
1560	1.5512e+02	-17.8695	-30.416268	0.000117	1.165948	0.395034	0.000047
1561	1.5522e+02	-17.8278	-30.370646	0.000114	1.135532	0.384729	0.000046
1562	1.5532e+02	-17.7701	-30.330726	0.000099	0.993590	0.336637	0.000040
1563	1.5542e+02	-17.7396	-30.290399	0.000100	1.003729	0.340073	0.000041
1564	1.5552e+02	-17.7123	-30.240296	0.000125	1.247057	0.422514	0.000050
1565	1.5562e+02	-17.6851	-30.201599	0.000096	0.963174	0.326332	0.000039
1566	1.5572e+02	-17.6305	-30.158828	0.000106	1.064561	0.360683	0.000043
1567	1.5582e+02	-17.6032	-30.113613	0.000113	1.125393	0.381293	0.000045
1568	1.5592e+02	-17.5423	-30.076545	0.000092	0.922619	0.312592	0.000037
1569	1.5602e+02	-17.5070	-30.041921	0.000086	0.861787	0.291981	0.000035
1570	1.5612e+02	-17.4637	-30.005260	0.000091	0.912481	0.309157	0.000037
1571	1.5622e+02	-17.4075	-29.960452	0.000112	1.115254	0.377858	0.000045
1572	1.5631e+02	-17.4027	-29.919718	0.000101	1.013867	0.343508	0.000041
1573	1.5641e+02	-17.3610	-29.876132	0.000108	1.084838	0.367553	0.000044
1574	1.5651e+02	-17.2920	-29.827658	0.000121	1.206502	0.408774	0.000049
1575	1.5661e+02	-17.2792	-29.788961	0.000096	0.963174	0.326332	0.000039
1576	1.5671e+02	-17.2214	-29.749041	0.000099	0.993590	0.336637	0.000040
1577	1.5681e+02	-17.2134	-29.702604	0.000116	1.155809	0.391599	0.000047
1578	1.5691e+02	-17.1412	-29.661463	0.000102	1.024006	0.346943	0.000041
1579	1.5701e+02	-17.0947	-29.620728	0.000101	1.013867	0.343508	0.000041
1580	1.5711e+02	-17.0819	-29.576735	0.000109	1.094977	0.370988	0.000044
1581	1.5721e+02	-17.0370	-29.530706	0.000115	1.145670	0.388164	0.000046
1582	1.5731e+02	-16.9696	-29.491193	0.000098	0.983451	0.333202	0.000040
1583	1.5741e+02	-16.9279	-29.446386	0.000112	1.115254	0.377858	0.000045
1584	1.5751e+02	-16.9166	-29.403207	0.000107	1.074699	0.364118	0.000043
1585	1.5761e+02	-16.8846	-29.364103	0.000097	0.973313	0.329767	0.000039
1586	1.5771e+02	-16.8220	-29.327034	0.000092	0.922619	0.312592	0.000037
1587	1.5781e+02	-16.7706	-29.293225	0.000084	0.841510	0.285111	0.000034
1588	1.5791e+02	-16.7225	-29.251676	0.000103	1.034145	0.350378	0.000042
1589	1.5801e+02	-16.6856	-29.209720	0.000104	1.044283	0.353813	0.000042
1590	1.5811e+02	-16.6471	-29.165319	0.000111	1.105116	0.374423	0.000045
1591	1.5821e+02	-16.6423	-29.117660	0.000119	1.186225	0.401904	0.000048
1592	1.5830e+02	-16.5990	-29.071631	0.000115	1.145670	0.388164	0.000046
1593	1.5840e+02	-16.5477	-29.030896	0.000101	1.013867	0.343508	0.000041
1594	1.5850e+02	-16.5060	-28.987311	0.000108	1.084838	0.367553	0.000044
1595	1.5860e+02	-16.4562	-28.941688	0.000114	1.135532	0.384729	0.000046
1596	1.5870e+02	-16.4530	-28.899732	0.000104	1.044283	0.353813	0.000042
1597	1.5880e+02	-16.3921	-28.856961	0.000106	1.064561	0.360683	0.000043
1598	1.5890e+02	-16.3648	-28.813783	0.000107	1.074699	0.364118	0.000043
1599	1.5900e+02	-16.3215	-28.768975	0.000112	1.115254	0.377858	0.000045
1600	1.5910e+02	-16.2733	-28.723353	0.000114	1.135532	0.384729	0.000046
1601	1.5920e+02	-16.2380	-28.682211	0.000102	1.024006	0.346943	0.000041
1602	1.5930e+02	-16.1771	-28.640662	0.000103	1.034145	0.350378	0.000042
1603	1.5940e+02	-16.1225	-28.604816	0.000089	0.892203	0.302287	0.000036
1604	1.5950e+02	-16.1145	-28.561638	0.000107	1.074699	0.364118	0.000043
1605	1.5960e+02	-16.0600	-28.528236	0.000083	0.831371	0.281676	0.000034
1606	1.5970e+02	-16.0167	-28.483021	0.000113	1.125393	0.381293	0.000045
1607	1.5980e+02	-15.9926	-28.441472	0.000103	1.034145	0.350378	0.000042
1608	1.5990e+02	-15.9300	-28.394220	0.000118	1.176086	0.398469	0.000047
1609	1.6000e+02	-15.9300	-28.350227	-0.000109	-1.094977	-0.370988	0.000044
1610	1.6010e+02	-15.8739	-28.304197	0.000115	1.145670	0.388164	0.000046
1611	1.6019e+02	-15.8322	-28.259390	0.000112	1.115254	0.377858	0.000045
1612	1.6029e+02	-15.7776	-28.213360	0.000115	1.145670	0.388164	0.000046
1613	1.6039e+02	-15.7664	-28.168552	0.000112	1.115254	0.377858	0.000045
1614	1.6049e+02	-15.7054	-28.124966	0.000108	1.084838	0.367553	0.000044
1615	1.6059e+02	-15.6621	-28.078529	0.000116	1.155809	0.391599	0.000047
1616	1.6069e+02	-15.6316	-28.034944	0.000108	1.084838	0.367553	0.000044
1617	1.6079e+02	-15.5947	-27.986877	0.000120	1.196364	0.405339	0.000048
1618	1.6089e+02	-15.5482	-27.949809	0.000092	0.922619	0.312592	0.000037
1619	1.6099e+02	-15.5306	-27.909482	0.000100	1.003729	0.340073	0.000041
1620	1.6109e+02	-15.4696	-27.865082	0.000111	1.105116	0.374423	0.000045
1621	1.6119e+02	-15.4359	-27.822718	0.000105	1.054422	0.357248	0.000043
1622	1.6129e+02	-15.3750	-27.788909	0.000084	0.841510	0.285111	0.000034
1623	1.6139e+02	-15.3317	-27.753063	0.000089	0.892203	0.302287	0.000036
1624	1.6149e+02	-15.2980	-27.706626	0.000116	1.155809	0.391599	0.000047
1625	1.6159e+02	-15.2563	-27.661411	0.000113	1.125393	0.381293	0.000045
1626	1.6169e+02	-15.2386	-27.614566	0.000117	1.165948	0.395034	0.000047
1627	1.6179e+02	-15.1937	-27.570981	0.000108	1.084838	0.367553	0.000044
1628	1.6189e+02	-15.1536	-27.526988	0.000109	1.094977	0.370988	0.000044
1629	1.6199e+02	-15.0942	-27.482180	0.000112	1.115254	0.377858	0.000045
1630	1.6209e+02	-15.0702	-27.440224	0.000104	1.044283	0.353813	0.000042
1631	1.6219e+02	-15.0252	-27.395416	0.000112	1.115254	0.377858	0.000045
1632	1.6228e+02	-14.9867	-27.350608	0.000112	1.115254	0.377858	0.000045
1633	1.6238e+02	-14.9354	-27.313947	0.000091	0.912481	0.309157	0.000037
1634	1.6248e+02	-14.9242	-27.268325	0.000114	1.135532	0.384729	0.000046
1635	1.6258e+02	-14.8953	-27.224739	0.000108	1.084838	0.367553	0.000044
1636	1.6268e+02	-14.8311	-27.185227	0.000098	0.983451	0.333202	0.000040
1637	1.6278e+02	-14.7830	-27.140420	0.000112	1.115254	0.377858	0.000045
1638	1.6288e+02	-14.7525	-27.101315	0.000097	0.973313	0.329767	0.000039
1639	1.6298e+02	-14.7028	-27.061395	0.000099	0.993590	0.336637	0.000040
1640	1.6308e+02	-14.6450	-27.019031	0.000105	1.054422	0.357248	0.000043
1641	1.6318e+02	-14.6354	-26.973816	0.000113	1.125393	0.381293	0.000045
1642	1.6328e+02	-14.5985	-26.925343	0.000121	1.206502	0.408774	0.000049
1643	1.6338e+02	-14.5392	-26.880128	0.000113	1.125393	0.381293	0.000045
1644	1.6348e+02	-14.5023	-26.837357	0.000106	1.064561	0.360683	0.000043
1645	1.6358e+02	-14.4718	-26.790512	0.000117	1.165948	0.395034	0.000047
1646	1.6368e+02	-14.4509	-26.743261	0.000118	1.176086	0.398469	0.000047
1647	1.6378e+02	-14.3948	-26.694787	0.000121	1.206502	0.408774	0.000049
1648	1.6388e+02	-14.3531	-26.651201	0.000108	1.084838	0.367553	0.000044
1649	1.6398e+02	-14.3130	-26.602320	0.000122	1.216641	0.412209	0.000049
1650	1.6408e+02	-14.2713	-26.559956	0.000105	1.054422	0.357248	0.000043
1651	1.6418e+02	-14.2328	-26.509446	0.000126	1.257196	0.425949	0.000051
1652	1.6427e+02	-14.2007	-26.463009	0.000116	1.155809	0.391599	0.000047
1653	1.6437e+02	-14.1606	-26.416979	0.000115	1.145670	0.388164	0.000046
1654	1.6447e+02	-14.1108	-26.374616	0.000105	1.054422	0.357248	0.000043
1655	1.6457e+02	-14.0852	-26.330623	0.000109	1.094977	0.370988	0.000044
1656	1.6467e+02	-14.0386	-26.275631	0.000137	1.368721	0.463735	0.000055
1657	1.6477e+02	-14.0033	-26.232046	0.000108	1.084838	0.367553	0.000044
1658	1.6487e+02	-13.9263	-26.183165	0.000122	1.216641	0.412209	0.000049
1659	1.6497e+02	-13.9167	-26.129803	0.000133	1.328166	0.449995	0.000054
1660	1.6507e+02	-13.8590	-26.083773	0.000115	1.145670	0.388164	0.000046
1661	1.6517e+02	-13.8349	-26.034484	0.000123	1.226780	0.415644	0.000050
1662	1.6527e+02	-13.8060	-25.985603	0.000122	1.216641	0.412209	0.000049
1663	1.6537e+02	-13.7563	-25.937944	0.000119	1.186225	0.401904	0.000048
1664	1.6547e+02	-13.7194	-25.885397	0.000131	1.307889	0.443125	0.000053
1665	1.6557e+02	-13.6873	-25.837331	0.000120	1.196364	0.405339	0.000048
1666	1.6567e+02	-13.6584	-25.791708	0.000114	1.135532	0.384729	0.000046
1667	1.6577e+02	-13.6071	-25.736310	0.000138	1.378860	0.467170	0.000056
1668	1.6587e+02	-13.5670	-25.690280	0.000115	1.145670	0.388164	0.000046
1669	1.6597e+02	-13.5397	-25.637326	0.000132	1.318028	0.446560	0.000053
1670	1.6607e+02	-13.4691	-25.589666	0.000119	1.186225	0.401904	0.000048
1671	1.6616e+02	-13.4515	-25.540785	0.000122	1.216641	0.412209	0.000049
1672	1.6626e+02	-13.3857	-25.498422	0.000105	1.054422	0.357248	0.000043
1673	1.6636e+02	-13.3857	-25.444245	-0.000135	-1.348444	-0.456865	0.000054
1674	1.6646e+02	-13.3103	-25.395771	0.000121	1.206502	0.408774	0.000049
1675	1.6656e+02	-13.2734	-25.345668	0.000125	1.247057	0.422514	0.000050
1676	1.6666e+02	-13.2285	-25.292306	0.000133	1.328166	0.449995	0.000054
1677	1.6676e+02	-13.2205	-25.236093	0.000140	1.399137	0.474040	0.000056
1678	1.6686e+02	-13.1451	-25.189249	0.000117	1.165948	0.395034	0.000047
1679	1.6696e+02	-13.1114	-25.131813	0.000143	1.429553	0.484346	0.000058
1680	1.6706e+02	-13.0809	-25.087006	0.000112	1.115254	0.377858	0.000045
1681	1.6716e+02	-13.0633	-25.031200	0.000139	1.388998	0.470605	0.000056
1682	1.6726e+02	-13.0055	-24.981504	0.000124	1.236918	0.419079	0.000050
1683	1.6736e+02	-12.9558	-24.925291	0.000140	1.399137	0.474040	0.000056
1684	1.6746e+02	-12.9093	-24.874373	0.000127	1.267334	0.429384	0.000051
1685	1.6756e+02	-12.8884	-24.821826	0.000131	1.307889	0.443125	0.000053
1686	1.6766e+02	-12.8483	-24.771723	0.000125	1.247057	0.422514	0.000050
1687	1.6776e+02	-12.8050	-24.716324	0.000138	1.378860	0.467170	0.000056
1688	1.6786e+02	-12.7857	-24.665814	0.000126	1.257196	0.425949	0.000051
1689	1.6796e+02	-12.7055	-24.620191	0.000114	1.135532	0.384729	0.000046
1690	1.6806e+02	-12.7103	-24.576606	-0.000108	-1.084838	-0.367553	0.000044
1691	1.6816e+02	-12.6285	-24.519170	0.000143	1.429553	0.484346	0.000058
1692	1.6825e+02	-12.5868	-24.471918	0.000118	1.176086	0.398469	0.000047
1693	1.6835e+02	-12.5371	-24.415298	0.000141	1.409276	0.477476	0.000057
1694	1.6845e+02	-12.5291	-24.362343	0.000132	1.318028	0.446560	0.000053
1695	1.6855e+02	-12.4761	-24.308574	0.000134	1.338305	0.453430	0.000054
1696	1.6865e+02	-12.4569	-24.255212	0.000133	1.328166	0.449995	0.000054
1697	1.6875e+02	-12.3815	-24.197370	0.000144	1.439692	0.487781	0.000058
1698	1.6885e+02	-12.3879	-24.147674	-0.000124	-1.236918	-0.419079	0.000050
1699	1.6895e+02	-12.3029	-24.089424	0.000145	1.449830	0.491216	0.000059
1700	1.6905e+02	-12.2980	-24.036877	0.000131	1.307889	0.443125	0.000053
1701	1.6915e+02	-12.2483	-23.980256	0.000141	1.409276	0.477476	0.000057
1702	1.6925e+02	-12.2018	-23.933412	0.000117	1.165948	0.395034	0.000047
1703	1.6935e+02	-12.1745	-23.873532	0.000149	1.490385	0.504956	0.000060
1704	1.6945e+02	-12.1328	-23.815690	0.000144	1.439692	0.487781	0.000058
1705	1.6955e+02	-12.0863	-23.763957	0.000129	1.287612	0.436255	0.000052
1706	1.6965e+02	-12.0109	-23.708151	0.000139	1.388998	0.470605	0.000056
1707	1.6975e+02	-12.0013	-23.660899	0.000118	1.176086	0.398469	0.000047
1708	1.6985e+02	-11.9547	-23.609982	0.000127	1.267334	0.429384	0.000051
1709	1.6995e+02	-11.9451	-23.555398	0.000136	1.358582	0.460300	0.000055
1710	1.7005e+02	-11.8729	-23.499999	0.000138	1.378860	0.467170	0.000056
1711	1.7015e+02	-11.8633	-23.445823	0.000135	1.348444	0.456865	0.000054
1712	1.7024e+02	-11.7959	-23.385129	0.000151	1.510663	0.511826	0.000061
1713	1.7034e+02	-11.7590	-23.324027	0.000152	1.520801	0.515261	0.000061
1714	1.7044e+02	-11.7205	-23.270258	0.000134	1.338305	0.453430	0.000054
1715	1.7054e+02	-11.6965	-23.209564	0.000151	1.510663	0.511826	0.000061
1716	1.7064e+02	-11.6387	-23.148463	0.000152	1.520801	0.515261	0.000061
1717	1.7074e+02	-11.6211	-23.090213	0.000145	1.449830	0.491216	0.000059
1718	1.7084e+02	-11.5649	-23.031555	0.000146	1.459969	0.494651	0.000059
1719	1.7094e+02	-11.5441	-22.974935	0.000141	1.409276	0.477476	0.000057
1720	1.7104e+02	-11.4863	-22.913426	0.000153	1.530940	0.518696	0.000062
1721	1.7114e+02	-11.4366	-22.854769	0.000146	1.459969	0.494651	0.000059
1722	1.7124e+02	-11.4061	-22.801407	0.000133	1.328166	0.449995	0.000054
1723	1.7134e+02	-11.3548	-22.748859	0.000131	1.307889	0.443125	0.000053
1724	1.7144e+02	-11.3275	-22.700793	0.000120	1.196364	0.405339	0.000048
1725	1.7154e+02	-11.2810	-22.654356	0.000116	1.155809	0.391599	0.000047
1726	1.7164e+02	-11.2441	-22.594069	0.000150	1.500524	0.508391	0.000061
1727	1.7174e+02	-11.2248	-22.535005	0.000147	1.470108	0.498086	0.000059
1728	1.7184e+02	-11.1558	-22.477162	0.000144	1.439692	0.487781	0.000058
1729	1.7194e+02	-11.1350	-22.420949	0.000140	1.399137	0.474040	0.000056
1730	1.7204e+02	-11.0724	-22.358625	0.000155	1.551217	0.525567	0.000063
1731	1.7213e+02	-11.0419	-22.298339	0.000150	1.500524	0.508391	0.000061
1732	1.7223e+02	-11.0307	-22.242125	0.000140	1.399137	0.474040	0.000056
1733	1.7233e+02	-10.9874	-22.181839	0.000150	1.500524	0.508391	0.000061
1734	1.7243e+02	-10.9505	-22.124811	0.000142	1.419414	0.480911	0.000057
1735	1.7253e+02	-10.8783	-22.066968	0.000144	1.439692	0.487781	0.000058
1736	1.7263e+02	-10.8783	-22.014014	-0.000132	-1.318028	-0.446560	0.000053
1737	1.7273e+02	-10.8109	-21.960652	0.000133	1.328166	0.449995	0.000054
1738	1.7283e+02	-10.7756	-21.906475	0.000135	1.348444	0.456865	0.000054
1739	1.7293e+02	-10.7195	-21.847410	0.000147	1.470108	0.498086	0.000059
1740	1.7303e+02	-10.6954	-21.796493	0.000127	1.267334	0.429384	0.000051
1741	1.7313e+02	-10.6184	-21.749241	0.000118	1.176086	0.398469	0.000047
1742	1.7323e+02	-10.5911	-21.704841	0.000111	1.105116	0.374423	0.000045
1743	1.7333e+02	-10.5735	-21.644961	0.000149	1.490385	0.504956	0.000060
1744	1.7343e+02	-10.5270	-21.586711	0.000145	1.449830	0.491216	0.000059
1745	1.7353e+02	-10.5061	-21.532942	0.000134	1.338305	0.453430	0.000054
1746	1.7363e+02	-10.4420	-21.475099	0.000144	1.439692	0.487781	0.000058
1747	1.7373e+02	-10.4067	-21.417664	0.000143	1.429553	0.484346	0.000058
1748	1.7383e+02	-10.3874	-21.362673	0.000137	1.368721	0.463735	0.000055
1749	1.7393e+02	-10.3393	-21.306052	0.000141	1.409276	0.477476	0.000057
1750	1.7403e+02	-10.3200	-21.251061	0.000137	1.368721	0.463735	0.000055
1751	1.7413e+02	-10.2462	-21.190367	0.000151	1.510663	0.511826	0.000061
1752	1.7422e+02	-10.2366	-21.135376	0.000137	1.368721	0.463735	0.000055
1753	1.7432e+02	-10.2061	-21.077533	0.000144	1.439692	0.487781	0.000058
1754	1.7442e+02	-10.1275	-21.023356	0.000135	1.348444	0.456865	0.000054
1755	1.7452e+02	-10.1019	-20.967143	0.000140	1.399137	0.474040	0.000056
1756	1.7462e+02	-10.0473	-20.912152	0.000137	1.368721	0.463735	0.000055
1757	1.7472e+02	-10.0056	-20.852273	0.000149	1.490385	0.504956	0.000060
1758	1.7482e+02	-9.9527	-20.803799	0.000121	1.206502	0.408774	0.000049
1759	1.7492e+02	-9.9334	-20.759806	0.000109	1.094977	0.370988	0.000044
1760	1.7502e+02	-9.8692	-20.708888	0.000127	1.267334	0.429384	0.000051
1761	1.7512e+02	-9.8484	-20.654304	0.000136	1.358582	0.460300	0.000055
1762	1.7522e+02	-9.8019	-20.591166	0.000157	1.571495	0.532437	0.000063
1763	1.7532e+02	-9.7810	-20.532916	0.000145	1.449830	0.491216	0.000059
1764	1.7542e+02	-9.7409	-20.473444	0.000148	1.480246	0.501521	0.000060
1765	1.7552e+02	-9.6976	-20.416009	0.000143	1.429553	0.484346	0.000058
1766	1.7562e+02	-9.6463	-20.355722	0.000150	1.500524	0.508391	0.000061
1767	1.7572e+02	-9.6078	-20.300731	0.000137	1.368721	0.463735	0.000055
1768	1.7582e+02	-9.5789	-20.246962	0.000134	1.338305	0.453430	0.000054
1769	1.7592e+02	-9.5500	-20.189119	0.000144	1.439692	0.487781	0.000058
1770	1.7602e+02	-9.5307	-20.131684	0.000143	1.429553	0.484346	0.000058
1771	1.7612e+02	-9.4441	-20.073434	0.000145	1.449830	0.491216	0.000059
1772	1.7621e+02	-9.4088	-20.020479	0.000132	1.318028	0.446560	0.000053
1773	1.7631e+02	-9.3880	-19.962229	0.000145	1.449830	0.491216	0.000059
1774	1.7641e+02	-9.3286	-19.909275	0.000132	1.318028	0.446560	0.000053
1775	1.7651e+02	-9.2869	-19.855505	0.000134	1.338305	0.453430	0.000054
1776	1.7661e+02	-9.2420	-19.806217	0.000123	1.226780	0.415644	0.000050
1777	1.7671e+02	-9.2308	-19.751633	0.000136	1.358582	0.460300	0.000055
1778	1.7681e+02	-9.1650	-19.702345	0.000123	1.226780	0.415644	0.000050
1779	1.7691e+02	-9.1136	-19.643687	0.000146	1.459969	0.494651	0.000059
1780	1.7701e+02	-9.0992	-19.581364	0.000155	1.551217	0.525567	0.000063
1781	1.7711e+02	-9.0431	-19.525558	0.000139	1.388998	0.470605	0.000056
1782	1.7721e+02	-9.0206	-19.460383	0.000162	1.622188	0.549612	0.000066
1783	1.7731e+02	-8.9789	-19.400096	0.000150	1.500524	0.508391	0.000061
1784	1.7741e+02	-8.9372	-19.342661	0.000143	1.429553	0.484346	0.000058
1785	1.7751e+02	-8.9163	-19.279523	0.000157	1.571495	0.532437	0.000063
1786	1.7761e+02	-8.8506	-19.226568	0.000132	1.318028	0.446560	0.000053
1787	1.7771e+02	-8.8345	-19.163430	0.000157	1.571495	0.532437	0.000063
1788	1.7781e+02	-8.7639	-19.112105	0.000128	1.277473	0.432820	0.000052
1789	1.7791e+02	-8.7334	-19.048967	0.000157	1.571495	0.532437	0.000063
1790	1.7801e+02	-8.6917	-18.995198	0.000134	1.338305	0.453430	0.000054
1791	1.7810e+02	-8.6211	-18.946724	0.000121	1.206502	0.408774	0.000049
1792	1.7820e+02	-8.6035	-18.891733	0.000137	1.368721	0.463735	0.000055
1793	1.7830e+02	-8.5650	-18.836334	0.000138	1.378860	0.467170	0.000056
1794	1.7840e+02	-8.5522	-18.784602	0.000129	1.287612	0.436255	0.000052
1795	1.7850e+02	-8.4832	-18.727574	0.000142	1.419414	0.480911	0.000057
1796	1.7860e+02	-8.4511	-18.683173	0.000111	1.105116	0.374423	0.000045
1797	1.7870e+02	-8.4367	-18.623701	0.000148	1.480246	0.501521	0.000060
1798	1.7880e+02	-8.3885	-18.566673	0.000142	1.419414	0.480911	0.000057
1799	1.7890e+02	-8.3308	-18.505165	0.000153	1.530940	0.518696	0.000062
1800	1.7900e+02	-8.2859	-18.446507	0.000146	1.459969	0.494651	0.000059
1801	1.7910e+02	-8.2762	-18.386221	0.000150	1.500524	0.508391	0.000061
1802	1.7920e+02	-8.2217	-18.329193	0.000142	1.419414	0.480911	0.000057
1803	1.7930e+02	-8.1864	-18.267277	0.000154	1.541079	0.522132	0.000062
1804	1.7940e+02	-8.1655	-18.213100	0.000135	1.348444	0.456865	0.000054
1805	1.7950e+02	-8.1062	-18.149147	0.000159	1.591772	0.539307	0.000064
1806	1.7960e+02	-8.0099	-18.092527	0.000141	1.409276	0.477476	0.000057
1807	1.7970e+02	-7.9923	-18.034684	0.000144	1.439692	0.487781	0.000058
1808	1.7980e+02	-7.9746	-17.982544	0.000130	1.297750	0.439690	0.000052
1809	1.7990e+02	-7.9329	-17.927960	0.000136	1.358582	0.460300	0.000055
1810	1.8000e+02	-7.8928	-17.865637	0.000155	1.551217	0.525567	0.000063
1811	1.8009e+02	-7.8495	-17.810238	0.000138	1.378860	0.467170	0.000056
1812	1.8019e+02	-7.8206	-17.752803	0.000143	1.429553	0.484346	0.000058
1813	1.8029e+02	-7.7789	-17.701885	0.000127	1.267334	0.429384	0.000051
1814	1.8039e+02	-7.7517	-17.647301	0.000136	1.358582	0.460300	0.000055
1815	1.8049e+02	-7.7035	-17.584978	0.000155	1.551217	0.525567	0.000063
1816	1.8059e+02	-7.6698	-17.521025	0.000159	1.591772	0.539307	0.000064
1817	1.8069e+02	-7.6554	-17.460331	0.000151	1.510663	0.511826	0.000061
1818	1.8079e+02	-7.5960	-17.391490	0.000171	1.713436	0.580528	0.000069
1819	1.8089e+02	-7.5447	-17.328352	0.000157	1.571495	0.532437	0.000063
1820	1.8099e+02	-7.5094	-17.265621	0.000156	1.561356	0.529002	0.000063
1821	1.8109e+02	-7.4436	-17.197188	0.000170	1.703297	0.577093	0.000069
1822	1.8119e+02	-7.4067	-17.130384	0.000166	1.662743	0.563352	0.000067
1823	1.8129e+02	-7.3618	-17.074170	0.000140	1.399137	0.474040	0.000056
1824	1.8139e+02	-7.3329	-17.011440	0.000156	1.561356	0.529002	0.000063
1825	1.8149e+02	-7.2752	-16.956448	0.000137	1.368721	0.463735	0.000055
1826	1.8159e+02	-7.2575	-16.889237	0.000167	1.672881	0.566788	0.000068
1827	1.8169e+02	-7.2463	-16.831394	0.000144	1.439692	0.487781	0.000058
1828	1.8179e+02	-7.1886	-16.765405	0.000164	1.642465	0.556482	0.000066
1829	1.8189e+02	-7.1485	-16.705933	0.000148	1.480246	0.501521	0.000060
1830	1.8199e+02	-7.1260	-16.644424	0.000153	1.530940	0.518696	0.000062
1831	1.8209e+02	-7.0699	-16.587803	0.000141	1.409276	0.477476	0.000057
1832	1.8218e+02	-7.0314	-16.525887	0.000154	1.541079	0.522132	0.000062
1833	1.8228e+02	-7.0041	-16.455417	0.000175	1.753991	0.594268	0.000071
1834	1.8238e+02	-6.9688	-16.393908	0.000153	1.530940	0.518696	0.000062
1835	1.8248e+02	-6.9239	-16.318143	0.000189	1.885793	0.638924	0.000076
1836	1.8258e+02	-6.8645	-16.249709	0.000170	1.703297	0.577093	0.000069
1837	1.8268e+02	-6.8180	-16.184127	0.000163	1.632327	0.553047	0.000066
1838	1.8278e+02	-6.7859	-16.118545	0.000163	1.632327	0.553047	0.000066
1839	1.8288e+02	-6.7474	-16.058665	0.000149	1.490385	0.504956	0.000060
1840	1.8298e+02	-6.7057	-15.992676	0.000164	1.642465	0.556482	0.000066
1841	1.8308e+02	-6.6560	-15.930353	0.000155	1.551217	0.525567	0.000063
1842	1.8318e+02	-6.6255	-15.865585	0.000161	1.612049	0.546177	0.000065
1843	1.8328e+02	-6.5902	-15.797151	0.000170	1.703297	0.577093	0.000069
1844	1.8338e+02	-6.5453	-15.729940	0.000167	1.672881	0.566788	0.000068
1845	1.8348e+02	-6.5100	-15.668431	0.000153	1.530940	0.518696	0.000062
1846	1.8358e+02	-6.4554	-15.598776	0.000173	1.733713	0.587398	0.000070
1847	1.8368e+02	-6.4169	-15.537674	0.000152	1.520801	0.515261	0.000061
1848	1.8378e+02	-6.3993	-15.475758	0.000154	1.541079	0.522132	0.000062
1849	1.8388e+02	-6.3431	-15.415472	0.000150	1.500524	0.508391	0.000061
1850	1.8398e+02	-6.3175	-15.350704	0.000161	1.612049	0.546177	0.000065
1851	1.8407e+02	-6.2998	-15.278604	0.000179	1.794545	0.608008	0.000072
1852	1.8417e+02	-6.2308	-15.210986	0.000168	1.683020	0.570223	0.000068
1853	1.8427e+02	-6.2004	-15.127888	0.000207	2.068290	0.700755	0.000084
1854	1.8437e+02	-6.1137	-15.059861	0.000169	1.693159	0.573658	0.000068
1855	1.8447e+02	-6.0993	-14.995094	0.000161	1.612049	0.546177	0.000065
1856	1.8457e+02	-6.0592	-14.929512	0.000163	1.632327	0.553047	0.000066
1857	1.8467e+02	-6.0207	-14.861486	0.000169	1.693159	0.573658	0.000068
1858	1.8477e+02	-6.0014	-14.795089	0.000165	1.652604	0.559917	0.000067
1859	1.8487e+02	-5.9517	-14.722989	0.000179	1.794545	0.608008	0.000072
1860	1.8497e+02	-5.9132	-14.660258	0.000156	1.561356	0.529002	0.000063
1861	1.8507e+02	-5.8827	-14.591825	0.000170	1.703297	0.577093	0.000069
1862	1.8517e+02	-5.8330	-14.523799	0.000169	1.693159	0.573658	0.000068
1863	1.8527e+02	-5.7977	-14.453736	0.000174	1.743852	0.590833	0.000070
1864	1.8537e+02	-5.7768	-14.388561	0.000162	1.622188	0.549612	0.000066
1865	1.8547e+02	-5.7127	-14.321757	0.000166	1.662743	0.563352	0.000067
1866	1.8557e+02	-5.6597	-14.252101	0.000173	1.733713	0.587398	0.000070
1867	1.8567e+02	-5.6389	-14.188556	0.000158	1.581633	0.535872	0.000064
1868	1.8577e+02	-5.6036	-14.118900	0.000173	1.733713	0.587398	0.000070
1869	1.8587e+02	-5.5490	-14.047615	0.000177	1.774268	0.601138	0.000072
1870	1.8597e+02	-5.5073	-13.964517	0.000207	2.068290	0.700755	0.000084
1871	1.8606e+02	-5.4929	-13.889974	0.000186	1.855377	0.628619	0.000075
1872	1.8616e+02	-5.4351	-13.819503	0.000175	1.753991	0.594268	0.000071
1873	1.8626e+02	-5.3838	-13.749440	0.000174	1.743852	0.590833	0.000070
1874	1.8636e+02	-5.3613	-13.678970	0.000175	1.753991	0.594268	0.000071
1875	1.8646e+02	-5.3116	-13.608500	0.000175	1.753991	0.594268	0.000071
1876	1.8656e+02	-5.2811	-13.536400	0.000179	1.794545	0.608008	0.000072
1877	1.8666e+02	-5.2507	-13.466337	0.000174	1.743852	0.590833	0.000070
1878	1.8676e+02	-5.1881	-13.396274	0.000174	1.743852	0.590833	0.000070
1879	1.8686e+02	-5.1897	-13.324990	-0.000177	-1.774268	-0.601138	0.000072
1880	1.8696e+02	-5.1143	-13.252890	0.000179	1.794545	0.608008	0.000072
1881	1.8706e+02	-5.0854	-13.178346	0.000186	1.855377	0.628619	0.000075
1882	1.8716e+02	-5.0421	-13.107876	0.000175	1.753991	0.594268	0.000071
1883	1.8726e+02	-5.0068	-13.031296	0.000191	1.906071	0.645794	0.000077
1884	1.8736e+02	-4.9346	-12.963677	0.000168	1.683020	0.570223	0.000068
1885	1.8746e+02	-4.9073	-12.891170	0.000180	1.804684	0.611444	0.000073
1886	1.8756e+02	-4.8849	-12.812553	0.000196	1.956764	0.662970	0.000079
1887	1.8766e+02	-4.8063	-12.727418	0.000212	2.118983	0.717931	0.000086
1888	1.8776e+02	-4.7790	-12.650838	0.000191	1.906071	0.645794	0.000077
1889	1.8786e+02	-4.7517	-12.575887	0.000187	1.865516	0.632054	0.000075
1890	1.8796e+02	-4.7261	-12.503380	0.000180	1.804684	0.611444	0.000073
1891	1.8806e+02	-4.6603	-12.430058	0.000182	1.824961	0.618314	0.000074
1892	1.8815e+02	-4.6250	-12.360810	0.000172	1.723575	0.583963	0.000070
1893	1.8825e+02	-4.5929	-12.283007	0.000194	1.936487	0.656099	0.000078
1894	1.8835e+02	-4.5480	-12.212130	0.000176	1.764129	0.597703	0.000071
1895	1.8845e+02	-4.5159	-12.140030	0.000179	1.794545	0.608008	0.000072
1896	1.8855e+02	-4.4630	-12.067116	0.000181	1.814823	0.614879	0.000073
1897	1.8865e+02	-4.4550	-11.991350	0.000189	1.885793	0.638924	0.000076
1898	1.8875e+02	-4.3892	-11.915177	0.000190	1.895932	0.642359	0.000077
1899	1.8885e+02	-4.3763	-11.841855	0.000182	1.824961	0.618314	0.000074
1900	1.8895e+02	-4.3330	-11.771792	0.000174	1.743852	0.590833	0.000070
1901	1.8905e+02	-4.2945	-11.694397	0.000193	1.926348	0.652664	0.000078
1902	1.8915e+02	-4.2576	-11.629223	0.000162	1.622188	0.549612	0.000066
1903	1.8925e+02	-4.2175	-11.554271	0.000187	1.865516	0.632054	0.000075
1904	1.8935e+02	-4.1502	-11.479320	0.000187	1.865516	0.632054	0.000075
1905	1.8945e+02	-4.1149	-11.400296	0.000197	1.966903	0.666405	0.000079
1906	1.8955e+02	-4.0715	-11.322494	0.000194	1.936487	0.656099	0.000078
1907	1.8965e+02	-4.0282	-11.247543	0.000187	1.865516	0.632054	0.000075
1908	1.8975e+02	-3.9801	-11.175443	0.000179	1.794545	0.608008	0.000072
1909	1.8985e+02	-3.9512	-11.098863	0.000191	1.906071	0.645794	0.000077
1910	1.8995e+02	-3.9143	-11.038983	0.000149	1.490385	0.504956	0.000060
1911	1.9004e+02	-3.8534	-10.956293	0.000206	2.058151	0.697320	0.000083
1912	1.9014e+02	-3.8293	-10.889081	0.000167	1.672881	0.566788	0.000068
1913	1.9024e+02	-3.8068	-10.819833	0.000172	1.723575	0.583963	0.000070
1914	1.9034e+02	-3.7683	-10.740401	0.000198	1.977042	0.669840	0.000080
1915	1.9044e+02	-3.7234	-10.669116	0.000177	1.774268	0.601138	0.000072
1916	1.9054e+02	-3.6416	-10.593350	0.000189	1.885793	0.638924	0.000076
1917	1.9064e+02	-3.6657	-10.524917	-0.000170	-1.703297	-0.577093	0.000069
1918	1.9074e+02	-3.5823	-10.449558	0.000188	1.875655	0.635489	0.000076
1919	1.9084e+02	-3.5534	-10.378274	0.000177	1.774268	0.601138	0.000072
1920	1.9094e+02	-3.5245	-10.309840	0.000170	1.703297	0.577093	0.000069
1921	1.9104e+02	-3.4892	-10.230408	0.000198	1.977042	0.669840	0.000080
1922	1.9114e+02	-3.4427	-10.149754	0.000201	2.007458	0.680145	0.000081
1923	1.9124e+02	-3.4010	-10.073989	0.000189	1.885793	0.638924	0.000076
1924	1.9134e+02	-3.3609	-9.993335	0.000201	2.007458	0.680145	0.000081
1925	1.9144e+02	-3.3095	-9.920013	0.000182	1.824961	0.618314	0.000074
1926	1.9154e+02	-3.2903	-9.849136	0.000176	1.764129	0.597703	0.000071
1927	1.9164e+02	-3.2165	-9.770926	0.000195	1.946626	0.659535	0.000079
1928	1.9174e+02	-3.2037	-9.699641	0.000177	1.774268	0.601138	0.000072
1929	1.9184e+02	-3.1459	-9.628356	0.000177	1.774268	0.601138	0.000072
1930	1.9194e+02	-3.1250	-9.550553	0.000194	1.936487	0.656099	0.000078
1931	1.9203e+02	-3.0849	-9.478454	0.000179	1.794545	0.608008	0.000072
1932	1.9213e+02	-3.0673	-9.400651	0.000194	1.936487	0.656099	0.000078
1933	1.9223e+02	-2.9951	-9.326922	0.000184	1.835100	0.621749	0.000074
1934	1.9233e+02	-3.0015	-9.247491	-0.000198	-1.977042	-0.669840	0.000080
1935	1.9243e+02	-2.9309	-9.176206	0.000177	1.774268	0.601138	0.000072
1936	1.9253e+02	-2.8972	-9.104106	0.000179	1.794545	0.608008	0.000072
1937	1.9263e+02	-2.8331	-9.032006	0.000179	1.794545	0.608008	0.000072
1938	1.9273e+02	-2.8090	-8.953797	0.000195	1.946626	0.659535	0.000079
1939	1.9283e+02	-2.7513	-8.867440	0.000215	2.149399	0.728236	0.000087
1940	1.9293e+02	-2.6951	-8.792082	0.000188	1.875655	0.635489	0.000076
1941	1.9303e+02	-2.6710	-8.711020	0.000202	2.017596	0.683580	0.000081
1942	1.9313e+02	-2.6261	-8.638921	0.000179	1.794545	0.608008	0.000072
1943	1.9323e+02	-2.6197	-8.559896	0.000197	1.966903	0.666405	0.000079
1944	1.9333e+02	-2.5267	-8.486982	0.000181	1.814823	0.614879	0.000073
1945	1.9343e+02	-2.5331	-8.412031	-0.000187	-1.865516	-0.632054	0.000075
1946	1.9353e+02	-2.4689	-8.333007	0.000197	1.966903	0.666405	0.000079
1947	1.9363e+02	-2.4529	-8.255204	0.000194	1.936487	0.656099	0.000078
1948	1.9373e+02	-2.4320	-8.180253	0.000187	1.865516	0.632054	0.000075
1949	1.9383e+02	-2.3839	-8.100821	0.000198	1.977042	0.669840	0.000080
1950	1.9393e+02	-2.3277	-8.023426	0.000193	1.926348	0.652664	0.000078
1951	1.9403e+02	-2.2764	-7.940736	0.000206	2.058151	0.697320	0.000083
1952	1.9412e+02	-2.2491	-7.869043	0.000178	1.784407	0.604573	0.000072
1953	1.9422e+02	-2.1785	-7.793685	0.000188	1.875655	0.635489	0.000076
1954	1.9432e+02	-2.1657	-7.719141	0.000186	1.855377	0.628619	0.000075
1955	1.9442e+02	-2.1481	-7.651930	0.000167	1.672881	0.566788	0.000068
1956	1.9452e+02	-2.0582	-7.564759	0.000217	2.169676	0.735106	0.000088
1957	1.9462e+02	-2.0213	-7.477587	0.000217	2.169676	0.735106	0.000088
1958	1.9472e+02	-1.9925	-7.401007	0.000191	1.906071	0.645794	0.000077
1959	1.9482e+02	-1.9540	-7.321575	0.000198	1.977042	0.669840	0.000080
1960	1.9492e+02	-1.9074	-7.244587	0.000192	1.916209	0.649229	0.000077
1961	1.9502e+02	-1.8946	-7.170451	0.000185	1.845239	0.625184	0.000075
1962	1.9512e+02	-1.8513	-7.091834	0.000196	1.956764	0.662970	0.000079
1963	1.9522e+02	-1.8048	-7.010365	0.000203	2.027735	0.687015	0.000082
1964	1.9532e+02	-1.7759	-6.931748	0.000196	1.956764	0.662970	0.000079
1965	1.9542e+02	-1.7085	-6.856390	0.000188	1.875655	0.635489	0.000076
1966	1.9552e+02	-1.7021	-6.779809	0.000191	1.906071	0.645794	0.000077
1967	1.9562e+02	-1.6668	-6.706080	0.000184	1.835100	0.621749	0.000074
1968	1.9572e+02	-1.5962	-6.631129	0.000187	1.865516	0.632054	0.000075
1969	1.9582e+02	-1.5593	-6.555364	0.000189	1.885793	0.638924	0.000076
1970	1.9592e+02	-1.5192	-6.476747	0.000196	1.956764	0.662970	0.000079
1971	1.9601e+02	-1.4967	-6.401388	0.000188	1.875655	0.635489	0.000076
1972	1.9611e+02	-1.4599	-6.321142	0.000200	1.997319	0.676710	0.000081
1973	1.9621e+02	-1.4005	-6.247005	0.000185	1.845239	0.625184	0.000075
1974	1.9631e+02	-1.3828	-6.168796	0.000195	1.946626	0.659535	0.000079
1975	1.9641e+02	-1.3155	-6.080402	0.000220	2.200092	0.745411	0.000089
1976	1.9651e+02	-1.2609	-5.994860	0.000213	2.129122	0.721366	0.000086
1977	1.9661e+02	-1.2401	-5.913799	0.000202	2.017596	0.683580	0.000081
1978	1.9671e+02	-1.2096	-5.829072	0.000211	2.108844	0.714496	0.000085
1979	1.9681e+02	-1.1647	-5.752084	0.000192	1.916209	0.649229	0.000077
1980	1.9691e+02	-1.1117	-5.673060	0.000197	1.966903	0.666405	0.000079
1981	1.9701e+02	-1.0764	-5.594035	0.000197	1.966903	0.666405	0.000079
1982	1.9711e+02	-1.0524	-5.512974	0.000202	2.017596	0.683580	0.000081
1983	1.9721e+02	-1.0331	-5.433135	0.000199	1.987180	0.673275	0.000080
1984	1.9731e+02	-0.9593	-5.348815	0.000210	2.098706	0.711061	0.000085
1985	1.9741e+02	-0.9160	-5.273864	0.000187	1.865516	0.632054	0.000075
1986	1.9751e+02	-0.9048	-5.183434	0.000225	2.250786	0.762587	0.000091
1987	1.9761e+02	-0.8743	-5.100336	0.000207	2.068290	0.700755	0.000084
1988	1.9771e+02	-0.8230	-5.020090	0.000200	1.997319	0.676710	0.000081
1989	1.9781e+02	-0.7700	-4.937806	0.000205	2.048012	0.693885	0.000083
1990	1.9791e+02	-0.7315	-4.856338	0.000203	2.027735	0.687015	0.000082
1991	1.9800e+02	-0.6818	-4.774462	0.000204	2.037874	0.690450	0.000082
1992	1.9810e+02	-0.6321	-4.691772	0.000206	2.058151	0.697320	0.000083
1993	1.9820e+02	-0.5968	-4.594417	0.000242	2.423143	0.820983	0.000098
1994	1.9830e+02	-0.5711	-4.510911	0.000208	2.078428	0.704191	0.000084
1995	1.9840e+02	-0.5278	-4.422518	0.000220	2.200092	0.745411	0.000089
1996	1.9850e+02	-0.4893	-4.345938	0.000191	1.906071	0.645794	0.000077
1997	1.9860e+02	-0.4315	-4.255100	0.000226	2.260924	0.766022	0.000091
1998	1.9870e+02	-0.3882	-4.176076	0.000197	1.966903	0.666405	0.000079
1999	1.9880e+02	-0.3722	-4.087275	0.000221	2.210231	0.748847	0.000089
2000	1.9890e+02	-0.3353	-4.007843	0.000198	1.977042	0.669840	0.000080
2001	1.9900e+02	-0.2984	-3.921487	0.000215	2.149399	0.728236	0.000087
2002	1.9910e+02	-0.2406	-3.841240	0.000200	1.997319	0.676710	0.000081
2003	1.9920e+02	-0.2230	-3.752032	0.000222	2.220370	0.752282	0.000090
2004	1.9930e+02	-0.1829	-3.668120	0.000209	2.088567	0.707626	0.000084
2005	1.9940e+02	-0.1235	-3.584614	0.000208	2.078428	0.704191	0.000084
2006	1.9950e+02	-0.1171	-3.500702	0.000209	2.088567	0.707626	0.000084
2007	1.9960e+02	-0.0658	-3.415567	0.000212	2.118983	0.717931	0.000086
2008	1.9970e+02	-0.0176	-3.334506	0.000202	2.017596	0.683580	0.000081
2009	1.9980e+02	0.0112	-3.241632	0.000202	2.017596	0.683580	0.000093

Center data before PMax,+/-Pr and +/-Vc Calc.

PMax (uC/cm2):	3.23e+01
Pr (uC/cm2):	1.06e+00
-Pr (uC/cm2):	-3.24e+00
PLoss (uC/cm2):	-2.07e+00
Vc:	6.22e-01
-Vc:	-5.32e-01
C (Max-Eff) (nF):	1.61e-01
K (Eff):	5.47e+02
Vert. (+/-Pr) Shift (uC/cm2):	-1.09e+00
Horiz. Shift (+/-Vc):	4.53e-02
Offset (uC/cm2):	1.18e+00

A (Loop Area - uC/cm2·Volts):	-8.34e-03



Hysteresis Version: 5.48.1 - Radiant Technologies, Inc., 1999 - 9/12/24

