»»»»»»»»»»»»»»»»»»»»»»»»»»»»»»»»»»»» Hysteresis ««««««««««««««««««««««««««««««««««««
»»»  Executed Version:	5.48.1
»»»  Vision Version:	5.48.4 (R)
»»»  Vision Compiled:	9/18/24
»»»  Driver Version:	5.47.0
»»»  Windows Version:	Windows 8 or 8.1
»»»  Processor Information:	x86 (AMD or Intel) - 32 Processors
»»»  Tester Name:	PMF21124-494 (100V)
»»»  Tester S/N:	PMF21124-494
»»»  Internal Amp Type:	100V RevK 270k
»»»  Internal Amp S/N:	iAB2-596/K     
»»»  Execution Count:	1
»»»»»»»»»»»»»»»»»»»»»»»»»»»»»»»»»»»»»»»»»»««««««««««««««««««««««««««««««««««««««««««

Stored:	6/13/2025 - 15:26:17
Configured:	06/13/25 01:30:53 PM
Executed:	06/13/25 03:25:37 PM

»»»»»»»»»»»»»»»»»»»»»»»»»»»»»»»»»»» Sample Info ««««««««««««««««««««««««««««««««««««
Sample Name:	
Lot Name:	
Wafer Name:	
Die Row/Column:	0/0
Capacitor Number:	0
Sample Area (cm2):	1.00e-04
Sample Thickness (microns):	3.00e-01

Amplifier:	Internal

»»»»»»»»»»»»»»»»»»»»»»»»»»»»»»»»»»» Tester Info «««««««««««««««««««««««««««««««««««
Tester Name:	PMF21124-494 (100V)
Tester Serial Number:	PMF21124-494
Return Signal Amp. Level:	0.19 [Index: 3]

»»»»»»»»»»»»»»»»»»»»»»»»»»»»»»»» Hysteresis Info ««««««««««««««««««««««««««««««««««
Task Name:	Hyst-1922
Volts:	20.00
Field:	666.67 (kV/cm)
DCBias:	0.00
DCField:	0.00 (kV/cm)
Hysteresis Period (ms):	2.00e+02
Preset:	Enabled
Preset Delay (ms):	1.00e+03
Profile:	Standard Bipolar

»»»»»»»»»»»»»»»»»»»»»»»»»»»»»»»»»»»»»» Data «««««««««««««««««««««««««««««««««««««««
Points:	2009

Valid Data

Point	Time (ms)	Drive Voltage	Measured Polarization (uC/cm2)	Capacitance (uF)	Normalized Capacitance (uF/cm2)	Dielectric Constant	Instantaneous Current (mA)
   1	0.0000e+00	-0.0032	-2.945091	0.000274	2.736410	0.927121	0.000110
   2	9.9500e-02	0.0321	-2.836088	0.000274	2.736410	0.927121	0.000110
   3	1.9900e-01	0.0722	-2.686714	0.000375	3.749895	1.270499	0.000150
   4	2.9850e-01	0.1091	-2.525228	0.000405	4.053941	1.373512	0.000162
   5	3.9800e-01	0.1556	-2.351632	0.000436	4.357986	1.476526	0.000174
   6	4.9750e-01	0.2053	-2.173998	0.000446	4.459335	1.510864	0.000179
   7	5.9700e-01	0.2358	-2.044809	0.000324	3.243153	1.098810	0.000130
   8	6.9650e-01	0.2679	-1.907547	0.000345	3.445850	1.167485	0.000138
   9	7.9600e-01	0.3128	-1.746061	0.000405	4.053941	1.373512	0.000162
  10	8.9550e-01	0.3497	-1.572464	0.000436	4.357986	1.476526	0.000174
  11	9.9500e-01	0.3898	-1.419053	0.000385	3.851244	1.304837	0.000154
  12	1.0945e+00	0.4396	-1.205085	0.000537	5.371471	1.819904	0.000215
  13	1.1940e+00	0.4700	-1.083971	0.000304	3.040456	1.030134	0.000122
  14	1.2935e+00	0.5134	-0.906337	0.000446	4.459335	1.510864	0.000179
  15	1.3930e+00	0.5358	-0.744852	0.000405	4.053941	1.373512	0.000162
  16	1.4925e+00	0.5952	-0.538958	0.000517	5.168774	1.751228	0.000207
  17	1.5920e+00	0.6337	-0.446103	0.000233	2.331016	0.789770	0.000093
  18	1.6915e+00	0.6818	-0.272507	0.000436	4.357986	1.476526	0.000174
  19	1.7910e+00	0.7091	-0.119096	0.000385	3.851244	1.304837	0.000154
  20	1.8905e+00	0.7540	0.010093	0.000324	3.243153	1.098810	0.000130
  21	1.9900e+00	0.7893	0.183690	0.000436	4.357986	1.476526	0.000174
  22	2.0895e+00	0.8278	0.373435	0.000476	4.763380	1.613877	0.000191
  23	2.1890e+00	0.8743	0.482438	0.000274	2.736410	0.927121	0.000110
  24	2.2885e+00	0.9192	0.672183	0.000476	4.763380	1.613877	0.000191
  25	2.3880e+00	0.9561	0.793297	0.000304	3.040456	1.030134	0.000122
  26	2.4875e+00	0.9962	0.979005	0.000466	4.662032	1.579539	0.000187
  27	2.5870e+00	1.0283	1.136454	0.000395	3.952592	1.339174	0.000158
  28	2.6865e+00	1.0764	1.314088	0.000446	4.459335	1.510864	0.000179
  29	2.7860e+00	1.1069	1.447313	0.000334	3.344501	1.133148	0.000134
  30	2.8855e+00	1.1374	1.641096	0.000486	4.864729	1.648215	0.000195
  31	2.9850e+00	1.1903	1.802581	0.000405	4.053941	1.373512	0.000162
  32	3.0845e+00	1.2272	2.004438	0.000507	5.067426	1.716890	0.000203
  33	3.1840e+00	1.2641	2.165923	0.000405	4.053941	1.373512	0.000162
  34	3.2835e+00	1.3107	2.307223	0.000355	3.547198	1.201823	0.000142
  35	3.3830e+00	1.3427	2.488894	0.000456	4.560683	1.545201	0.000183
  36	3.4825e+00	1.4021	2.589823	0.000253	2.533713	0.858445	0.000101
  37	3.5820e+00	1.4342	2.743234	0.000385	3.851244	1.304837	0.000154
  38	3.6815e+00	1.4711	2.896645	0.000385	3.851244	1.304837	0.000154
  39	3.7810e+00	1.5160	3.058130	0.000405	4.053941	1.373512	0.000162
  40	3.8805e+00	1.5481	3.219616	0.000405	4.053941	1.373512	0.000162
  41	3.9800e+00	1.5882	3.377064	0.000395	3.952592	1.339174	0.000158
  42	4.0795e+00	1.6331	3.522401	0.000365	3.648547	1.236161	0.000146
  43	4.1790e+00	1.6684	3.643515	0.000304	3.040456	1.030134	0.000122
  44	4.2785e+00	1.7133	3.833260	0.000476	4.763380	1.613877	0.000191
  45	4.3780e+00	1.7454	4.014931	0.000456	4.560683	1.545201	0.000183
  46	4.4775e+00	1.7887	4.180454	0.000416	4.155289	1.407850	0.000166
  47	4.5770e+00	1.8208	4.350014	0.000426	4.256638	1.442188	0.000170
  48	4.6765e+00	1.8673	4.543796	0.000486	4.864729	1.648215	0.000195
  49	4.7760e+00	1.9138	4.709319	0.000416	4.155289	1.407850	0.000166
  50	4.8755e+00	1.9459	4.870804	0.000405	4.053941	1.373512	0.000162
  51	4.9750e+00	1.9876	5.040364	0.000426	4.256638	1.442188	0.000170
  52	5.0745e+00	2.0294	5.222035	0.000456	4.560683	1.545201	0.000183
  53	5.1740e+00	2.0630	5.339112	0.000294	2.939107	0.995796	0.000118
  54	5.2735e+00	2.1048	5.488486	0.000375	3.749895	1.270499	0.000150
  55	5.3730e+00	2.1465	5.645934	0.000395	3.952592	1.339174	0.000158
  56	5.4725e+00	2.1850	5.771086	0.000314	3.141804	1.064472	0.000126
  57	5.5720e+00	2.2315	5.960831	0.000476	4.763380	1.613877	0.000191
  58	5.6715e+00	2.2668	6.094056	0.000334	3.344501	1.133148	0.000134
  59	5.7710e+00	2.3149	6.275728	0.000456	4.560683	1.545201	0.000183
  60	5.8705e+00	2.3486	6.473547	0.000497	4.966077	1.682553	0.000199
  61	5.9700e+00	2.3775	6.606773	0.000334	3.344501	1.133148	0.000134
  62	6.0695e+00	2.4272	6.768258	0.000405	4.053941	1.373512	0.000162
  63	6.1690e+00	2.4625	6.921669	0.000385	3.851244	1.304837	0.000154
  64	6.2685e+00	2.5010	7.087192	0.000416	4.155289	1.407850	0.000166
  65	6.3680e+00	2.5539	7.305197	0.000547	5.472820	1.854242	0.000219
  66	6.4675e+00	2.5764	7.478794	0.000436	4.357986	1.476526	0.000174
  67	6.5670e+00	2.6261	7.636242	0.000395	3.952592	1.339174	0.000158
  68	6.6665e+00	2.6694	7.761393	0.000314	3.141804	1.064472	0.000126
  69	6.7660e+00	2.7079	7.979399	0.000547	5.472820	1.854242	0.000219
  70	6.8655e+00	2.7481	8.120699	0.000355	3.547198	1.201823	0.000142
  71	6.9650e+00	2.7914	8.282184	0.000405	4.053941	1.373512	0.000162
  72	7.0645e+00	2.8267	8.419447	0.000345	3.445850	1.167485	0.000138
  73	7.1640e+00	2.8636	8.548635	0.000324	3.243153	1.098810	0.000130
  74	7.2635e+00	2.9005	8.726269	0.000446	4.459335	1.510864	0.000179
  75	7.3630e+00	2.9486	8.895829	0.000426	4.256638	1.442188	0.000170
  76	7.4625e+00	2.9855	8.992720	0.000243	2.432364	0.824107	0.000097
  77	7.5620e+00	3.0224	9.182465	0.000476	4.763380	1.613877	0.000191
  78	7.6615e+00	3.0689	9.319728	0.000345	3.445850	1.167485	0.000138
  79	7.7610e+00	3.1090	9.533696	0.000537	5.371471	1.819904	0.000215
  80	7.8605e+00	3.1459	9.662884	0.000324	3.243153	1.098810	0.000130
  81	7.9600e+00	3.1780	9.820333	0.000395	3.952592	1.339174	0.000158
  82	8.0595e+00	3.2165	9.953558	0.000334	3.344501	1.133148	0.000134
  83	8.1590e+00	3.2646	10.175601	0.000557	5.574168	1.888579	0.000223
  84	8.2585e+00	3.2935	10.357272	0.000456	4.560683	1.545201	0.000183
  85	8.3580e+00	3.3368	10.498571	0.000355	3.547198	1.201823	0.000142
  86	8.4575e+00	3.3865	10.676205	0.000446	4.459335	1.510864	0.000179
  87	8.5570e+00	3.4186	10.817505	0.000355	3.547198	1.201823	0.000142
  88	8.6565e+00	3.4603	11.011288	0.000486	4.864729	1.648215	0.000195
  89	8.7560e+00	3.5052	11.120290	0.000274	2.736410	0.927121	0.000110
  90	8.8555e+00	3.5421	11.269664	0.000375	3.749895	1.270499	0.000150
  91	8.9550e+00	3.5790	11.390778	0.000304	3.040456	1.030134	0.000122
  92	9.0545e+00	3.6288	11.568412	0.000446	4.459335	1.510864	0.000179
  93	9.1540e+00	3.6609	11.721824	0.000385	3.851244	1.304837	0.000154
  94	9.2535e+00	3.7026	11.867161	0.000365	3.648547	1.236161	0.000146
  95	9.3530e+00	3.7379	12.044794	0.000446	4.459335	1.510864	0.000179
  96	9.4525e+00	3.7764	12.206280	0.000405	4.053941	1.373512	0.000162
  97	9.5520e+00	3.8149	12.371802	0.000416	4.155289	1.407850	0.000166
  98	9.6515e+00	3.8534	12.533288	0.000405	4.053941	1.373512	0.000162
  99	9.7510e+00	3.8951	12.686699	0.000385	3.851244	1.304837	0.000154
 100	9.8505e+00	3.9432	12.836073	0.000375	3.749895	1.270499	0.000150
 101	9.9500e+00	3.9769	13.033893	0.000497	4.966077	1.682553	0.000199
 102	1.0050e+01	4.0298	13.199415	0.000416	4.155289	1.407850	0.000166
 103	1.0149e+01	4.0603	13.373012	0.000436	4.357986	1.476526	0.000174
 104	1.0248e+01	4.0860	13.518349	0.000365	3.648547	1.236161	0.000146
 105	1.0348e+01	4.1405	13.687909	0.000426	4.256638	1.442188	0.000170
 106	1.0447e+01	4.1822	13.813060	0.000314	3.141804	1.064472	0.000126
 107	1.0547e+01	4.2223	13.994731	0.000456	4.560683	1.545201	0.000183
 108	1.0646e+01	4.2608	14.148142	0.000385	3.851244	1.304837	0.000154
 109	1.0746e+01	4.2929	14.228885	0.000203	2.026970	0.686756	0.000081
 110	1.0845e+01	4.3362	14.430742	0.000507	5.067426	1.716890	0.000203
 111	1.0945e+01	4.3731	14.572041	0.000355	3.547198	1.201823	0.000142
 112	1.1044e+01	4.4277	14.721415	0.000375	3.749895	1.270499	0.000150
 113	1.1144e+01	4.4614	14.895012	0.000436	4.357986	1.476526	0.000174
 114	1.1243e+01	4.4983	15.028238	0.000334	3.344501	1.133148	0.000134
 115	1.1343e+01	4.5432	15.165500	0.000345	3.445850	1.167485	0.000138
 116	1.1443e+01	4.5753	15.379469	0.000537	5.371471	1.819904	0.000215
 117	1.1542e+01	4.6154	15.557103	0.000446	4.459335	1.510864	0.000179
 118	1.1642e+01	4.6571	15.702439	0.000365	3.648547	1.236161	0.000146
 119	1.1741e+01	4.6860	15.855851	0.000385	3.851244	1.304837	0.000154
 120	1.1841e+01	4.7197	16.017336	0.000405	4.053941	1.373512	0.000162
 121	1.1940e+01	4.7758	16.190933	0.000436	4.357986	1.476526	0.000174
 122	1.2040e+01	4.8223	16.384715	0.000486	4.864729	1.648215	0.000195
 123	1.2139e+01	4.8496	16.477570	0.000233	2.331016	0.789770	0.000093
 124	1.2239e+01	4.9009	16.659241	0.000456	4.560683	1.545201	0.000183
 125	1.2338e+01	4.9346	16.776318	0.000294	2.939107	0.995796	0.000118
 126	1.2438e+01	4.9763	16.893394	0.000294	2.939107	0.995796	0.000118
 127	1.2537e+01	5.0100	17.066991	0.000436	4.357986	1.476526	0.000174
 128	1.2636e+01	5.0565	17.208291	0.000355	3.547198	1.201823	0.000142
 129	1.2736e+01	5.1015	17.365739	0.000395	3.952592	1.339174	0.000158
 130	1.2835e+01	5.1335	17.503002	0.000345	3.445850	1.167485	0.000138
 131	1.2935e+01	5.1753	17.684673	0.000456	4.560683	1.545201	0.000183
 132	1.3034e+01	5.2202	17.805787	0.000304	3.040456	1.030134	0.000122
 133	1.3134e+01	5.2587	17.975347	0.000426	4.256638	1.442188	0.000170
 134	1.3233e+01	5.2988	18.177204	0.000507	5.067426	1.716890	0.000203
 135	1.3333e+01	5.3405	18.290243	0.000284	2.837758	0.961459	0.000114
 136	1.3432e+01	5.3742	18.451729	0.000405	4.053941	1.373512	0.000162
 137	1.3532e+01	5.4207	18.633400	0.000456	4.560683	1.545201	0.000183
 138	1.3632e+01	5.4544	18.782774	0.000375	3.749895	1.270499	0.000150
 139	1.3731e+01	5.4929	18.936185	0.000385	3.851244	1.304837	0.000154
 140	1.3831e+01	5.5266	19.097671	0.000405	4.053941	1.373512	0.000162
 141	1.3930e+01	5.5827	19.263193	0.000416	4.155289	1.407850	0.000166
 142	1.4030e+01	5.6132	19.372196	0.000274	2.736410	0.927121	0.000110
 143	1.4129e+01	5.6581	19.513496	0.000355	3.547198	1.201823	0.000142
 144	1.4229e+01	5.6854	19.654795	0.000355	3.547198	1.201823	0.000142
 145	1.4328e+01	5.7399	19.796095	0.000355	3.547198	1.201823	0.000142
 146	1.4428e+01	5.7688	19.949506	0.000385	3.851244	1.304837	0.000154
 147	1.4527e+01	5.8121	20.098880	0.000375	3.749895	1.270499	0.000150
 148	1.4627e+01	5.8619	20.236143	0.000345	3.445850	1.167485	0.000138
 149	1.4726e+01	5.8956	20.442037	0.000517	5.168774	1.751228	0.000207
 150	1.4825e+01	5.9292	20.551039	0.000274	2.736410	0.927121	0.000110
 151	1.4925e+01	5.9774	20.692339	0.000355	3.547198	1.201823	0.000142
 152	1.5024e+01	6.0046	20.869973	0.000446	4.459335	1.510864	0.000179
 153	1.5124e+01	6.0512	21.055681	0.000466	4.662032	1.579539	0.000187
 154	1.5223e+01	6.0865	21.209093	0.000385	3.851244	1.304837	0.000154
 155	1.5323e+01	6.1266	21.394801	0.000466	4.662032	1.579539	0.000187
 156	1.5422e+01	6.1667	21.511878	0.000294	2.939107	0.995796	0.000118
 157	1.5522e+01	6.2036	21.661252	0.000375	3.749895	1.270499	0.000150
 158	1.5621e+01	6.2501	21.830812	0.000426	4.256638	1.442188	0.000170
 159	1.5721e+01	6.2918	21.947888	0.000294	2.939107	0.995796	0.000118
 160	1.5820e+01	6.3287	22.089188	0.000355	3.547198	1.201823	0.000142
 161	1.5920e+01	6.3752	22.218377	0.000324	3.243153	1.098810	0.000130
 162	1.6020e+01	6.4121	22.343528	0.000314	3.141804	1.064472	0.000126
 163	1.6119e+01	6.4570	22.545385	0.000507	5.067426	1.716890	0.000203
 164	1.6218e+01	6.4891	22.662461	0.000294	2.939107	0.995796	0.000118
 165	1.6318e+01	6.5308	22.771464	0.000274	2.736410	0.927121	0.000110
 166	1.6418e+01	6.5645	22.912764	0.000355	3.547198	1.201823	0.000142
 167	1.6517e+01	6.6094	23.110584	0.000497	4.966077	1.682553	0.000199
 168	1.6616e+01	6.6528	23.268032	0.000395	3.952592	1.339174	0.000158
 169	1.6716e+01	6.6848	23.389146	0.000304	3.040456	1.030134	0.000122
 170	1.6816e+01	6.7249	23.558706	0.000426	4.256638	1.442188	0.000170
 171	1.6915e+01	6.7554	23.687894	0.000324	3.243153	1.098810	0.000130
 172	1.7015e+01	6.8116	23.905899	0.000547	5.472820	1.854242	0.000219
 173	1.7114e+01	6.8372	24.022976	0.000294	2.939107	0.995796	0.000118
 174	1.7213e+01	6.8950	24.212722	0.000476	4.763380	1.613877	0.000191
 175	1.7313e+01	6.9239	24.317687	0.000264	2.635061	0.892783	0.000105
 176	1.7413e+01	6.9624	24.483210	0.000416	4.155289	1.407850	0.000166
 177	1.7512e+01	7.0057	24.624509	0.000355	3.547198	1.201823	0.000142
 178	1.7611e+01	7.0522	24.765809	0.000355	3.547198	1.201823	0.000142
 179	1.7711e+01	7.0843	24.874812	0.000274	2.736410	0.927121	0.000110
 180	1.7811e+01	7.1340	25.036297	0.000405	4.053941	1.373512	0.000162
 181	1.7910e+01	7.1677	25.189708	0.000385	3.851244	1.304837	0.000154
 182	1.8009e+01	7.1998	25.274488	0.000213	2.128319	0.721094	0.000085
 183	1.8109e+01	7.2447	25.415788	0.000355	3.547198	1.201823	0.000142
 184	1.8209e+01	7.2848	25.589385	0.000436	4.357986	1.476526	0.000174
 185	1.8308e+01	7.3313	25.698388	0.000274	2.736410	0.927121	0.000110
 186	1.8407e+01	7.3666	25.859873	0.000405	4.053941	1.373512	0.000162
 187	1.8507e+01	7.4019	26.005210	0.000365	3.648547	1.236161	0.000146
 188	1.8607e+01	7.4324	26.162658	0.000395	3.952592	1.339174	0.000158
 189	1.8706e+01	7.4870	26.344329	0.000456	4.560683	1.545201	0.000183
 190	1.8805e+01	7.5335	26.501778	0.000395	3.952592	1.339174	0.000158
 191	1.8905e+01	7.5672	26.667300	0.000416	4.155289	1.407850	0.000166
 192	1.9005e+01	7.5960	26.832823	0.000416	4.155289	1.407850	0.000166
 193	1.9104e+01	7.6442	26.974122	0.000355	3.547198	1.201823	0.000142
 194	1.9203e+01	7.6859	27.099274	0.000314	3.141804	1.064472	0.000126
 195	1.9303e+01	7.7324	27.272870	0.000436	4.357986	1.476526	0.000174
 196	1.9402e+01	7.7581	27.369762	0.000243	2.432364	0.824107	0.000097
 197	1.9502e+01	7.8094	27.490876	0.000304	3.040456	1.030134	0.000122
 198	1.9602e+01	7.8511	27.603916	0.000284	2.837758	0.961459	0.000114
 199	1.9701e+01	7.8864	27.745215	0.000355	3.547198	1.201823	0.000142
 200	1.9800e+01	7.9281	27.862292	0.000294	2.939107	0.995796	0.000118
 201	1.9900e+01	7.9618	28.056075	0.000486	4.864729	1.648215	0.000195
 202	2.0000e+01	8.0019	28.128743	0.000182	1.824273	0.618081	0.000073
 203	2.0099e+01	8.0388	28.302340	0.000436	4.357986	1.476526	0.000174
 204	2.0198e+01	8.0853	28.451714	0.000375	3.749895	1.270499	0.000150
 205	2.0298e+01	8.1222	28.597051	0.000365	3.648547	1.236161	0.000146
 206	2.0398e+01	8.1623	28.750462	0.000385	3.851244	1.304837	0.000154
 207	2.0497e+01	8.2057	28.903873	0.000385	3.851244	1.304837	0.000154
 208	2.0596e+01	8.2329	29.097656	0.000486	4.864729	1.648215	0.000195
 209	2.0696e+01	8.2907	29.230881	0.000334	3.344501	1.133148	0.000134
 210	2.0796e+01	8.3179	29.380255	0.000375	3.749895	1.270499	0.000150
 211	2.0895e+01	8.3645	29.489258	0.000274	2.736410	0.927121	0.000110
 212	2.0994e+01	8.4078	29.654781	0.000416	4.155289	1.407850	0.000166
 213	2.1094e+01	8.4495	29.763783	0.000274	2.736410	0.927121	0.000110
 214	2.1194e+01	8.4784	29.921232	0.000395	3.952592	1.339174	0.000158
 215	2.1293e+01	8.5217	29.981789	0.000152	1.520228	0.515067	0.000061
 216	2.1392e+01	8.5554	30.163460	0.000456	4.560683	1.545201	0.000183
 217	2.1492e+01	8.6003	30.280537	0.000294	2.939107	0.995796	0.000118
 218	2.1591e+01	8.6468	30.429911	0.000375	3.749895	1.270499	0.000150
 219	2.1691e+01	8.6789	30.559099	0.000324	3.243153	1.098810	0.000130
 220	2.1791e+01	8.7190	30.716547	0.000395	3.952592	1.339174	0.000158
 221	2.1890e+01	8.7543	30.833624	0.000294	2.939107	0.995796	0.000118
 222	2.1989e+01	8.8072	30.999147	0.000416	4.155289	1.407850	0.000166
 223	2.2089e+01	8.8441	31.128335	0.000324	3.243153	1.098810	0.000130
 224	2.2189e+01	8.8858	31.297895	0.000426	4.256638	1.442188	0.000170
 225	2.2288e+01	8.9179	31.459380	0.000405	4.053941	1.373512	0.000162
 226	2.2387e+01	8.9661	31.612791	0.000385	3.851244	1.304837	0.000154
 227	2.2487e+01	8.9965	31.733905	0.000304	3.040456	1.030134	0.000122
 228	2.2587e+01	9.0318	31.903465	0.000426	4.256638	1.442188	0.000170
 229	2.2686e+01	9.0800	31.996319	0.000233	2.331016	0.789770	0.000093
 230	2.2785e+01	9.1281	32.186065	0.000476	4.763380	1.613877	0.000191
 231	2.2885e+01	9.1521	32.254696	0.000172	1.722925	0.583743	0.000069
 232	2.2985e+01	9.2035	32.416181	0.000405	4.053941	1.373512	0.000162
 233	2.3084e+01	9.2372	32.509036	0.000233	2.331016	0.789770	0.000093
 234	2.3183e+01	9.2853	32.674558	0.000416	4.155289	1.407850	0.000166
 235	2.3283e+01	9.3206	32.799709	0.000314	3.141804	1.064472	0.000126
 236	2.3383e+01	9.3575	32.936972	0.000345	3.445850	1.167485	0.000138
 237	2.3482e+01	9.3976	33.078272	0.000355	3.547198	1.201823	0.000142
 238	2.3581e+01	9.4345	33.187274	0.000274	2.736410	0.927121	0.000110
 239	2.3681e+01	9.4794	33.377020	0.000476	4.763380	1.613877	0.000191
 240	2.3780e+01	9.5195	33.477948	0.000253	2.533713	0.858445	0.000101
 241	2.3880e+01	9.5564	33.647508	0.000426	4.256638	1.442188	0.000170
 242	2.3980e+01	9.5933	33.784770	0.000345	3.445850	1.167485	0.000138
 243	2.4079e+01	9.6414	33.950293	0.000416	4.155289	1.407850	0.000166
 244	2.4178e+01	9.6751	34.071407	0.000304	3.040456	1.030134	0.000122
 245	2.4278e+01	9.7152	34.204633	0.000334	3.344501	1.133148	0.000134
 246	2.4378e+01	9.7569	34.325747	0.000304	3.040456	1.030134	0.000122
 247	2.4477e+01	9.7906	34.442824	0.000294	2.939107	0.995796	0.000118
 248	2.4576e+01	9.8356	34.559900	0.000294	2.939107	0.995796	0.000118
 249	2.4676e+01	9.8821	34.664866	0.000264	2.635061	0.892783	0.000105
 250	2.4776e+01	9.9174	34.810203	0.000365	3.648547	1.236161	0.000146
 251	2.4875e+01	9.9639	34.963614	0.000385	3.851244	1.304837	0.000154
 252	2.4974e+01	9.9928	35.088765	0.000314	3.141804	1.064472	0.000126
 253	2.5074e+01	10.0361	35.242176	0.000385	3.851244	1.304837	0.000154
 254	2.5174e+01	10.0698	35.339068	0.000243	2.432364	0.824107	0.000097
 255	2.5273e+01	10.1195	35.492479	0.000385	3.851244	1.304837	0.000154
 256	2.5372e+01	10.1548	35.621667	0.000324	3.243153	1.098810	0.000130
 257	2.5472e+01	10.1981	35.783153	0.000405	4.053941	1.373512	0.000162
 258	2.5572e+01	10.2350	35.912341	0.000324	3.243153	1.098810	0.000130
 259	2.5671e+01	10.2831	36.053641	0.000355	3.547198	1.201823	0.000142
 260	2.5770e+01	10.3184	36.207052	0.000385	3.851244	1.304837	0.000154
 261	2.5870e+01	10.3505	36.332203	0.000314	3.141804	1.064472	0.000126
 262	2.5970e+01	10.3986	36.513874	0.000456	4.560683	1.545201	0.000183
 263	2.6069e+01	10.4339	36.578468	0.000162	1.621576	0.549405	0.000065
 264	2.6169e+01	10.4676	36.739954	0.000405	4.053941	1.373512	0.000162
 265	2.6268e+01	10.5141	36.844919	0.000264	2.635061	0.892783	0.000105
 266	2.6367e+01	10.5559	36.990256	0.000365	3.648547	1.236161	0.000146
 267	2.6467e+01	10.5927	37.079073	0.000223	2.229667	0.755432	0.000089
 268	2.6567e+01	10.6361	37.232484	0.000385	3.851244	1.304837	0.000154
 269	2.6666e+01	10.6665	37.333413	0.000253	2.533713	0.858445	0.000101
 270	2.6765e+01	10.7131	37.458564	0.000314	3.141804	1.064472	0.000126
 271	2.6865e+01	10.7548	37.607938	0.000375	3.749895	1.270499	0.000150
 272	2.6965e+01	10.7837	37.729052	0.000304	3.040456	1.030134	0.000122
 273	2.7064e+01	10.8318	37.842092	0.000284	2.837758	0.961459	0.000114
 274	2.7163e+01	10.8703	38.011652	0.000426	4.256638	1.442188	0.000170
 275	2.7263e+01	10.9184	38.124691	0.000284	2.837758	0.961459	0.000114
 276	2.7363e+01	10.9473	38.270028	0.000365	3.648547	1.236161	0.000146
 277	2.7462e+01	10.9890	38.455736	0.000466	4.662032	1.579539	0.000187
 278	2.7561e+01	11.0387	38.548591	0.000233	2.331016	0.789770	0.000093
 279	2.7661e+01	11.0692	38.689890	0.000355	3.547198	1.201823	0.000142
 280	2.7761e+01	11.1141	38.831190	0.000355	3.547198	1.201823	0.000142
 281	2.7860e+01	11.1526	38.988638	0.000395	3.952592	1.339174	0.000158
 282	2.7959e+01	11.1911	39.081493	0.000233	2.331016	0.789770	0.000093
 283	2.8059e+01	11.2344	39.186458	0.000264	2.635061	0.892783	0.000105
 284	2.8159e+01	11.2729	39.303535	0.000294	2.939107	0.995796	0.000118
 285	2.8258e+01	11.3130	39.444835	0.000355	3.547198	1.201823	0.000142
 286	2.8358e+01	11.3580	39.545763	0.000253	2.533713	0.858445	0.000101
 287	2.8457e+01	11.3917	39.691100	0.000365	3.648547	1.236161	0.000146
 288	2.8556e+01	11.4253	39.804140	0.000284	2.837758	0.961459	0.000114
 289	2.8656e+01	11.4703	39.945440	0.000355	3.547198	1.201823	0.000142
 290	2.8756e+01	11.5184	40.034257	0.000223	2.229667	0.755432	0.000089
 291	2.8855e+01	11.5585	40.191705	0.000395	3.952592	1.339174	0.000158
 292	2.8954e+01	11.5858	40.296670	0.000264	2.635061	0.892783	0.000105
 293	2.9054e+01	11.6275	40.486416	0.000476	4.763380	1.613877	0.000191
 294	2.9154e+01	11.6756	40.575233	0.000223	2.229667	0.755432	0.000089
 295	2.9253e+01	11.7157	40.744792	0.000426	4.256638	1.442188	0.000170
 296	2.9352e+01	11.7494	40.865907	0.000304	3.040456	1.030134	0.000122
 297	2.9452e+01	11.7911	41.031429	0.000416	4.155289	1.407850	0.000166
 298	2.9552e+01	11.8264	41.136395	0.000264	2.635061	0.892783	0.000105
 299	2.9651e+01	11.8842	41.249434	0.000284	2.837758	0.961459	0.000114
 300	2.9750e+01	11.9002	41.378623	0.000324	3.243153	1.098810	0.000130
 301	2.9850e+01	11.9531	41.455328	0.000193	1.925622	0.652418	0.000077
 302	2.9950e+01	11.9916	41.560294	0.000264	2.635061	0.892783	0.000105
 303	3.0049e+01	12.0269	41.693519	0.000334	3.344501	1.133148	0.000134
 304	3.0148e+01	12.0719	41.826745	0.000334	3.344501	1.133148	0.000134
 305	3.0248e+01	12.0991	41.972082	0.000365	3.648547	1.236161	0.000146
 306	3.0348e+01	12.1521	42.056862	0.000213	2.128319	0.721094	0.000085
 307	3.0447e+01	12.1890	42.210273	0.000385	3.851244	1.304837	0.000154
 308	3.0547e+01	12.2243	42.311201	0.000253	2.533713	0.858445	0.000101
 309	3.0646e+01	12.2692	42.432315	0.000304	3.040456	1.030134	0.000122
 310	3.0745e+01	12.3077	42.557466	0.000314	3.141804	1.064472	0.000126
 311	3.0845e+01	12.3494	42.714915	0.000395	3.952592	1.339174	0.000158
 312	3.0945e+01	12.3879	42.856214	0.000355	3.547198	1.201823	0.000142
 313	3.1044e+01	12.4296	42.989440	0.000334	3.344501	1.133148	0.000134
 314	3.1143e+01	12.4649	43.134777	0.000365	3.648547	1.236161	0.000146
 315	3.1243e+01	12.5082	43.235705	0.000253	2.533713	0.858445	0.000101
 316	3.1343e+01	12.5547	43.405265	0.000426	4.256638	1.442188	0.000170
 317	3.1442e+01	12.5868	43.461785	0.000142	1.418879	0.480729	0.000057
 318	3.1541e+01	12.6269	43.574825	0.000284	2.837758	0.961459	0.000114
 319	3.1641e+01	12.6558	43.663642	0.000223	2.229667	0.755432	0.000089
 320	3.1741e+01	12.7135	43.776681	0.000284	2.837758	0.961459	0.000114
 321	3.1840e+01	12.7472	43.897795	0.000304	3.040456	1.030134	0.000122
 322	3.1939e+01	12.7809	44.059281	0.000405	4.053941	1.373512	0.000162
 323	3.2039e+01	12.8226	44.148098	0.000223	2.229667	0.755432	0.000089
 324	3.2139e+01	12.8643	44.265175	0.000294	2.939107	0.995796	0.000118
 325	3.2238e+01	12.8932	44.382252	0.000294	2.939107	0.995796	0.000118
 326	3.2337e+01	12.9381	44.576034	0.000486	4.864729	1.648215	0.000195
 327	3.2437e+01	12.9895	44.664851	0.000223	2.229667	0.755432	0.000089
 328	3.2536e+01	13.0232	44.765780	0.000253	2.533713	0.858445	0.000101
 329	3.2636e+01	13.0649	44.915154	0.000375	3.749895	1.270499	0.000150
 330	3.2736e+01	13.0921	45.092788	0.000446	4.459335	1.510864	0.000179
 331	3.2835e+01	13.1339	45.205827	0.000284	2.837758	0.961459	0.000114
 332	3.2934e+01	13.1740	45.330979	0.000314	3.141804	1.064472	0.000126
 333	3.3034e+01	13.2189	45.468241	0.000345	3.445850	1.167485	0.000138
 334	3.3133e+01	13.2590	45.524761	0.000142	1.418879	0.480729	0.000057
 335	3.3233e+01	13.3039	45.637801	0.000284	2.837758	0.961459	0.000114
 336	3.3333e+01	13.3408	45.722581	0.000213	2.128319	0.721094	0.000085
 337	3.3432e+01	13.3793	45.867918	0.000365	3.648547	1.236161	0.000146
 338	3.3532e+01	13.4242	45.980957	0.000284	2.837758	0.961459	0.000114
 339	3.3631e+01	13.4659	46.073812	0.000233	2.331016	0.789770	0.000093
 340	3.3730e+01	13.4996	46.223186	0.000375	3.749895	1.270499	0.000150
 341	3.3830e+01	13.5397	46.324114	0.000253	2.533713	0.858445	0.000101
 342	3.3929e+01	13.5798	46.457340	0.000334	3.344501	1.133148	0.000134
 343	3.4029e+01	13.6135	46.578454	0.000304	3.040456	1.030134	0.000122
 344	3.4129e+01	13.6584	46.727828	0.000375	3.749895	1.270499	0.000150
 345	3.4228e+01	13.6953	46.840867	0.000284	2.837758	0.961459	0.000114
 346	3.4328e+01	13.7370	46.974093	0.000334	3.344501	1.133148	0.000134
 347	3.4427e+01	13.7836	47.091170	0.000294	2.939107	0.995796	0.000118
 348	3.4526e+01	13.8285	47.248618	0.000395	3.952592	1.339174	0.000158
 349	3.4626e+01	13.8526	47.341472	0.000233	2.331016	0.789770	0.000093
 350	3.4725e+01	13.8959	47.462586	0.000304	3.040456	1.030134	0.000122
 351	3.4825e+01	13.9456	47.583700	0.000304	3.040456	1.030134	0.000122
 352	3.4925e+01	13.9841	47.692703	0.000274	2.736410	0.927121	0.000110
 353	3.5024e+01	14.0274	47.781520	0.000223	2.229667	0.755432	0.000089
 354	3.5123e+01	14.0611	47.858226	0.000193	1.925622	0.652418	0.000077
 355	3.5223e+01	14.0916	48.007600	0.000375	3.749895	1.270499	0.000150
 356	3.5322e+01	14.1429	48.112565	0.000264	2.635061	0.892783	0.000105
 357	3.5422e+01	14.1814	48.233679	0.000304	3.040456	1.030134	0.000122
 358	3.5522e+01	14.2167	48.330570	0.000243	2.432364	0.824107	0.000097
 359	3.5621e+01	14.2600	48.459759	0.000324	3.243153	1.098810	0.000130
 360	3.5721e+01	14.3017	48.592984	0.000334	3.344501	1.133148	0.000134
 361	3.5820e+01	14.3322	48.722173	0.000324	3.243153	1.098810	0.000130
 362	3.5919e+01	14.3836	48.835212	0.000284	2.837758	0.961459	0.000114
 363	3.6019e+01	14.4092	48.944215	0.000274	2.736410	0.927121	0.000110
 364	3.6118e+01	14.4477	49.085515	0.000355	3.547198	1.201823	0.000142
 365	3.6218e+01	14.4975	49.210666	0.000314	3.141804	1.064472	0.000126
 366	3.6318e+01	14.5424	49.323706	0.000284	2.837758	0.961459	0.000114
 367	3.6417e+01	14.5664	49.428671	0.000264	2.635061	0.892783	0.000105
 368	3.6517e+01	14.6242	49.602268	0.000436	4.357986	1.476526	0.000174
 369	3.6616e+01	14.6515	49.654751	0.000132	1.317531	0.446391	0.000053
 370	3.6715e+01	14.7012	49.759717	0.000264	2.635061	0.892783	0.000105
 371	3.6815e+01	14.7445	49.860645	0.000253	2.533713	0.858445	0.000101
 372	3.6914e+01	14.7750	49.941388	0.000203	2.026970	0.686756	0.000081
 373	3.7014e+01	14.8071	50.094799	0.000385	3.851244	1.304837	0.000154
 374	3.7114e+01	14.8632	50.199764	0.000264	2.635061	0.892783	0.000105
 375	3.7213e+01	14.8825	50.316841	0.000294	2.939107	0.995796	0.000118
 376	3.7313e+01	14.9386	50.417770	0.000253	2.533713	0.858445	0.000101
 377	3.7412e+01	14.9819	50.518698	0.000253	2.533713	0.858445	0.000101
 378	3.7511e+01	15.0140	50.668072	0.000375	3.749895	1.270499	0.000150
 379	3.7611e+01	15.0509	50.797260	0.000324	3.243153	1.098810	0.000130
 380	3.7711e+01	15.0990	50.918374	0.000304	3.040456	1.030134	0.000122
 381	3.7810e+01	15.1327	51.039489	0.000304	3.040456	1.030134	0.000122
 382	3.7910e+01	15.1776	51.148491	0.000274	2.736410	0.927121	0.000110
 383	3.8009e+01	15.2097	51.293828	0.000365	3.648547	1.236161	0.000146
 384	3.8108e+01	15.2498	51.427054	0.000334	3.344501	1.133148	0.000134
 385	3.8208e+01	15.2915	51.544131	0.000294	2.939107	0.995796	0.000118
 386	3.8307e+01	15.3300	51.641022	0.000243	2.432364	0.824107	0.000097
 387	3.8407e+01	15.3686	51.754062	0.000284	2.837758	0.961459	0.000114
 388	3.8507e+01	15.4215	51.867101	0.000284	2.837758	0.961459	0.000114
 389	3.8606e+01	15.4568	51.955918	0.000223	2.229667	0.755432	0.000089
 390	3.8706e+01	15.4905	52.056847	0.000253	2.533713	0.858445	0.000101
 391	3.8805e+01	15.5354	52.165849	0.000274	2.736410	0.927121	0.000110
 392	3.8904e+01	15.5659	52.291001	0.000314	3.141804	1.064472	0.000126
 393	3.9004e+01	15.6092	52.363669	0.000182	1.824273	0.618081	0.000073
 394	3.9103e+01	15.6589	52.464597	0.000253	2.533713	0.858445	0.000101
 395	3.9203e+01	15.6894	52.593786	0.000324	3.243153	1.098810	0.000130
 396	3.9303e+01	15.7343	52.718937	0.000314	3.141804	1.064472	0.000126
 397	3.9402e+01	15.7744	52.795643	0.000193	1.925622	0.652418	0.000077
 398	3.9502e+01	15.8113	52.969239	0.000436	4.357986	1.476526	0.000174
 399	3.9601e+01	15.8482	53.062094	0.000233	2.331016	0.789770	0.000093
 400	3.9700e+01	15.8915	53.215505	0.000385	3.851244	1.304837	0.000154
 401	3.9800e+01	15.9332	53.336619	0.000304	3.040456	1.030134	0.000122
 402	3.9900e+01	15.9733	53.453696	0.000294	2.939107	0.995796	0.000118
 403	3.9999e+01	16.0151	53.554624	0.000253	2.533713	0.858445	0.000101
 404	4.0099e+01	16.0552	53.683812	0.000324	3.243153	1.098810	0.000130
 405	4.0198e+01	16.0953	53.764555	0.000203	2.026970	0.686756	0.000081
 406	4.0297e+01	16.1257	53.833186	0.000172	1.722925	0.583743	0.000069
 407	4.0397e+01	16.1659	53.954301	0.000304	3.040456	1.030134	0.000122
 408	4.0496e+01	16.2156	54.047155	0.000233	2.331016	0.789770	0.000093
 409	4.0596e+01	16.2493	54.164232	0.000294	2.939107	0.995796	0.000118
 410	4.0696e+01	16.2878	54.277271	0.000284	2.837758	0.961459	0.000114
 411	4.0795e+01	16.3199	54.422608	0.000365	3.648547	1.236161	0.000146
 412	4.0895e+01	16.3712	54.519500	0.000243	2.432364	0.824107	0.000097
 413	4.0994e+01	16.4129	54.608317	0.000223	2.229667	0.755432	0.000089
 414	4.1093e+01	16.4498	54.701171	0.000233	2.331016	0.789770	0.000093
 415	4.1193e+01	16.4915	54.850545	0.000375	3.749895	1.270499	0.000150
 416	4.1292e+01	16.5332	54.927250	0.000193	1.925622	0.652418	0.000077
 417	4.1392e+01	16.5685	55.072587	0.000365	3.648547	1.236161	0.000146
 418	4.1492e+01	16.6086	55.250221	0.000446	4.459335	1.510864	0.000179
 419	4.1591e+01	16.6503	55.355187	0.000264	2.635061	0.892783	0.000105
 420	4.1691e+01	16.6824	55.468226	0.000284	2.837758	0.961459	0.000114
 421	4.1790e+01	16.7257	55.557043	0.000223	2.229667	0.755432	0.000089
 422	4.1889e+01	16.7626	55.649898	0.000233	2.331016	0.789770	0.000093
 423	4.1989e+01	16.8059	55.754863	0.000264	2.635061	0.892783	0.000105
 424	4.2089e+01	16.8428	55.839643	0.000213	2.128319	0.721094	0.000085
 425	4.2188e+01	16.8846	55.920386	0.000203	2.026970	0.686756	0.000081
 426	4.2288e+01	16.9214	56.037463	0.000294	2.939107	0.995796	0.000118
 427	4.2387e+01	16.9696	56.162614	0.000314	3.141804	1.064472	0.000126
 428	4.2486e+01	17.0097	56.223171	0.000152	1.520228	0.515067	0.000061
 429	4.2586e+01	17.0434	56.344285	0.000304	3.040456	1.030134	0.000122
 430	4.2685e+01	17.1011	56.461362	0.000294	2.939107	0.995796	0.000118
 431	4.2785e+01	17.1204	56.570365	0.000274	2.736410	0.927121	0.000110
 432	4.2885e+01	17.1621	56.699553	0.000324	3.243153	1.098810	0.000130
 433	4.2984e+01	17.1958	56.808556	0.000274	2.736410	0.927121	0.000110
 434	4.3084e+01	17.2391	56.929670	0.000304	3.040456	1.030134	0.000122
 435	4.3183e+01	17.2776	57.062895	0.000334	3.344501	1.133148	0.000134
 436	4.3282e+01	17.3177	57.155749	0.000233	2.331016	0.789770	0.000093
 437	4.3382e+01	17.3642	57.293012	0.000345	3.445850	1.167485	0.000138
 438	4.3481e+01	17.3963	57.422200	0.000324	3.243153	1.098810	0.000130
 439	4.3581e+01	17.4412	57.490831	0.000172	1.722925	0.583743	0.000069
 440	4.3681e+01	17.4926	57.615983	0.000314	3.141804	1.064472	0.000126
 441	4.3780e+01	17.5246	57.692688	0.000193	1.925622	0.652418	0.000077
 442	4.3880e+01	17.5631	57.761320	0.000172	1.722925	0.583743	0.000069
 443	4.3979e+01	17.6081	57.854174	0.000233	2.331016	0.789770	0.000093
 444	4.4078e+01	17.6385	57.947028	0.000233	2.331016	0.789770	0.000093
 445	4.4178e+01	17.6883	58.084290	0.000345	3.445850	1.167485	0.000138
 446	4.4278e+01	17.7268	58.144847	0.000152	1.520228	0.515067	0.000061
 447	4.4377e+01	17.7637	58.314407	0.000426	4.256638	1.442188	0.000170
 448	4.4477e+01	17.8054	58.383038	0.000172	1.722925	0.583743	0.000069
 449	4.4576e+01	17.8455	58.524338	0.000355	3.547198	1.201823	0.000142
 450	4.4675e+01	17.8856	58.621229	0.000243	2.432364	0.824107	0.000097
 451	4.4775e+01	17.9177	58.750418	0.000324	3.243153	1.098810	0.000130
 452	4.4874e+01	17.9594	58.859420	0.000274	2.736410	0.927121	0.000110
 453	4.4974e+01	18.0043	59.004757	0.000365	3.648547	1.236161	0.000146
 454	4.5074e+01	18.0428	59.093574	0.000223	2.229667	0.755432	0.000089
 455	4.5173e+01	18.0813	59.202577	0.000274	2.736410	0.927121	0.000110
 456	4.5273e+01	18.1326	59.299468	0.000243	2.432364	0.824107	0.000097
 457	4.5372e+01	18.1599	59.412508	0.000284	2.837758	0.961459	0.000114
 458	4.5471e+01	18.2048	59.505362	0.000233	2.331016	0.789770	0.000093
 459	4.5571e+01	18.2530	59.573994	0.000172	1.722925	0.583743	0.000069
 460	4.5670e+01	18.2834	59.691070	0.000294	2.939107	0.995796	0.000118
 461	4.5770e+01	18.3300	59.763739	0.000182	1.824273	0.618081	0.000073
 462	4.5870e+01	18.3604	59.884853	0.000304	3.040456	1.030134	0.000122
 463	4.5969e+01	18.4022	59.985781	0.000253	2.533713	0.858445	0.000101
 464	4.6069e+01	18.4503	60.058450	0.000182	1.824273	0.618081	0.000073
 465	4.6168e+01	18.4808	60.187638	0.000324	3.243153	1.098810	0.000130
 466	4.6267e+01	18.5193	60.312789	0.000314	3.141804	1.064472	0.000126
 467	4.6367e+01	18.5530	60.381421	0.000172	1.722925	0.583743	0.000069
 468	4.6467e+01	18.5963	60.498498	0.000294	2.939107	0.995796	0.000118
 469	4.6566e+01	18.6412	60.607500	0.000274	2.736410	0.927121	0.000110
 470	4.6666e+01	18.6797	60.760911	0.000385	3.851244	1.304837	0.000154
 471	4.6765e+01	18.7230	60.865877	0.000264	2.635061	0.892783	0.000105
 472	4.6864e+01	18.7631	60.938545	0.000182	1.824273	0.618081	0.000073
 473	4.6964e+01	18.7920	61.091957	0.000385	3.851244	1.304837	0.000154
 474	4.7063e+01	18.8417	61.184811	0.000233	2.331016	0.789770	0.000093
 475	4.7163e+01	18.8786	61.237293	0.000132	1.317531	0.446391	0.000053
 476	4.7263e+01	18.9171	61.366482	0.000324	3.243153	1.098810	0.000130
 477	4.7362e+01	18.9652	61.487596	0.000304	3.040456	1.030134	0.000122
 478	4.7462e+01	19.0070	61.527967	0.000101	1.013485	0.343378	0.000041
 479	4.7561e+01	19.0503	61.592561	0.000162	1.621576	0.549405	0.000065
 480	4.7660e+01	19.0856	61.693490	0.000253	2.533713	0.858445	0.000101
 481	4.7760e+01	19.1048	61.774232	0.000203	2.026970	0.686756	0.000081
 482	4.7859e+01	19.1545	61.903421	0.000324	3.243153	1.098810	0.000130
 483	4.7959e+01	19.1962	61.988201	0.000213	2.128319	0.721094	0.000085
 484	4.8059e+01	19.2412	62.109315	0.000304	3.040456	1.030134	0.000122
 485	4.8158e+01	19.2861	62.169872	0.000152	1.520228	0.515067	0.000061
 486	4.8258e+01	19.3150	62.339431	0.000426	4.256638	1.442188	0.000170
 487	4.8357e+01	19.3551	62.448434	0.000274	2.736410	0.927121	0.000110
 488	4.8456e+01	19.3888	62.525140	0.000193	1.925622	0.652418	0.000077
 489	4.8556e+01	19.4417	62.662402	0.000345	3.445850	1.167485	0.000138
 490	4.8656e+01	19.4770	62.791591	0.000324	3.243153	1.098810	0.000130
 491	4.8755e+01	19.5203	62.876371	0.000213	2.128319	0.721094	0.000085
 492	4.8855e+01	19.5508	62.965188	0.000223	2.229667	0.755432	0.000089
 493	4.8954e+01	19.5957	63.110524	0.000365	3.648547	1.236161	0.000146
 494	4.9053e+01	19.6390	63.187230	0.000193	1.925622	0.652418	0.000077
 495	4.9153e+01	19.6807	63.272010	0.000213	2.128319	0.721094	0.000085
 496	4.9252e+01	19.7192	63.336604	0.000162	1.621576	0.549405	0.000065
 497	4.9352e+01	19.7625	63.417347	0.000203	2.026970	0.686756	0.000081
 498	4.9452e+01	19.7946	63.514238	0.000243	2.432364	0.824107	0.000097
 499	4.9551e+01	19.8428	63.599018	0.000213	2.128319	0.721094	0.000085
 500	4.9651e+01	19.8636	63.716095	0.000294	2.939107	0.995796	0.000118
 501	4.9750e+01	19.9101	63.857395	0.000355	3.547198	1.201823	0.000142
 502	4.9849e+01	19.9631	63.897766	0.000101	1.013485	0.343378	0.000041
 503	4.9949e+01	19.9984	64.018880	0.000304	3.040456	1.030134	0.000122
 504	5.0048e+01	19.9518	63.946212	0.000182	1.824273	0.618081	-0.000073
 505	5.0148e+01	19.9117	63.893729	0.000132	1.317531	0.446391	-0.000053
 506	5.0248e+01	19.8652	63.841246	0.000132	1.317531	0.446391	-0.000053
 507	5.0347e+01	19.8379	63.764540	0.000193	1.925622	0.652418	-0.000077
 508	5.0447e+01	19.8010	63.691872	0.000182	1.824273	0.618081	-0.000073
 509	5.0546e+01	19.7561	63.578832	0.000284	2.837758	0.961459	-0.000114
 510	5.0645e+01	19.7160	63.469830	0.000274	2.736410	0.927121	-0.000110
 511	5.0745e+01	19.6711	63.425421	0.000111	1.114834	0.377716	-0.000045
 512	5.0844e+01	19.6294	63.352753	0.000182	1.824273	0.618081	-0.000073
 513	5.0944e+01	19.5973	63.243750	0.000274	2.736410	0.927121	-0.000110
 514	5.1044e+01	19.5620	63.126673	0.000294	2.939107	0.995796	-0.000118
 515	5.1143e+01	19.5139	63.017670	0.000274	2.736410	0.927121	-0.000110
 516	5.1242e+01	19.4802	62.953076	0.000162	1.621576	0.549405	-0.000065
 517	5.1342e+01	19.4369	62.835999	0.000294	2.939107	0.995796	-0.000118
 518	5.1441e+01	19.3952	62.763331	0.000182	1.824273	0.618081	-0.000073
 519	5.1541e+01	19.3535	62.678551	0.000213	2.128319	0.721094	-0.000085
 520	5.1641e+01	19.3166	62.581660	0.000243	2.432364	0.824107	-0.000097
 521	5.1740e+01	19.2781	62.492843	0.000223	2.229667	0.755432	-0.000089
 522	5.1840e+01	19.2396	62.456508	0.000091	0.912137	0.309040	-0.000037
 523	5.1939e+01	19.1946	62.371729	0.000213	2.128319	0.721094	-0.000085
 524	5.2038e+01	19.1545	62.286949	0.000213	2.128319	0.721094	-0.000085
 525	5.2138e+01	19.1225	62.177946	0.000274	2.736410	0.927121	-0.000110
 526	5.2237e+01	19.0791	62.117389	0.000152	1.520228	0.515067	-0.000061
 527	5.2337e+01	19.0390	62.024535	0.000233	2.331016	0.789770	-0.000093
 528	5.2437e+01	19.0005	61.931681	0.000233	2.331016	0.789770	-0.000093
 529	5.2536e+01	18.9556	61.859012	0.000182	1.824273	0.618081	-0.000073
 530	5.2636e+01	18.9267	61.770195	0.000223	2.229667	0.755432	-0.000089
 531	5.2735e+01	18.8802	61.649081	0.000304	3.040456	1.030134	-0.000122
 532	5.2834e+01	18.8497	61.544116	0.000264	2.635061	0.892783	-0.000105
 533	5.2934e+01	18.7952	61.431076	0.000284	2.837758	0.961459	-0.000114
 534	5.3033e+01	18.7599	61.330148	0.000253	2.533713	0.858445	-0.000101
 535	5.3133e+01	18.7150	61.265553	0.000162	1.621576	0.549405	-0.000065
 536	5.3233e+01	18.6893	61.144439	0.000304	3.040456	1.030134	-0.000122
 537	5.3332e+01	18.6380	61.055622	0.000223	2.229667	0.755432	-0.000089
 538	5.3431e+01	18.6043	60.986991	0.000172	1.722925	0.583743	-0.000069
 539	5.3531e+01	18.5610	60.946620	0.000101	1.013485	0.343378	-0.000041
 540	5.3630e+01	18.5128	60.821468	0.000314	3.141804	1.064472	-0.000126
 541	5.3730e+01	18.4824	60.736689	0.000213	2.128319	0.721094	-0.000085
 542	5.3830e+01	18.4519	60.647872	0.000223	2.229667	0.755432	-0.000089
 543	5.3929e+01	18.3909	60.583277	0.000162	1.621576	0.549405	-0.000065
 544	5.4029e+01	18.3556	60.498498	0.000213	2.128319	0.721094	-0.000085
 545	5.4128e+01	18.3235	60.361235	0.000345	3.445850	1.167485	-0.000138
 546	5.4227e+01	18.2738	60.268381	0.000233	2.331016	0.789770	-0.000093
 547	5.4327e+01	18.2481	60.183601	0.000213	2.128319	0.721094	-0.000085
 548	5.4426e+01	18.1984	60.131118	0.000132	1.317531	0.446391	-0.000053
 549	5.4526e+01	18.1727	60.026153	0.000264	2.635061	0.892783	-0.000105
 550	5.4626e+01	18.1278	59.917150	0.000274	2.736410	0.927121	-0.000110
 551	5.4725e+01	18.0877	59.779887	0.000345	3.445850	1.167485	-0.000138
 552	5.4825e+01	18.0428	59.711256	0.000172	1.722925	0.583743	-0.000069
 553	5.4924e+01	18.0091	59.606291	0.000264	2.635061	0.892783	-0.000105
 554	5.5023e+01	17.9642	59.485177	0.000304	3.040456	1.030134	-0.000122
 555	5.5123e+01	17.9257	59.408471	0.000193	1.925622	0.652418	-0.000077
 556	5.5222e+01	17.8808	59.315617	0.000233	2.331016	0.789770	-0.000093
 557	5.5322e+01	17.8423	59.267171	0.000122	1.216182	0.412054	-0.000049
 558	5.5422e+01	17.7974	59.174317	0.000233	2.331016	0.789770	-0.000093
 559	5.5521e+01	17.7669	59.061277	0.000284	2.837758	0.961459	-0.000114
 560	5.5620e+01	17.7252	58.996683	0.000162	1.621576	0.549405	-0.000065
 561	5.5720e+01	17.6883	58.924015	0.000182	1.824273	0.618081	-0.000073
 562	5.5819e+01	17.6450	58.827123	0.000243	2.432364	0.824107	-0.000097
 563	5.5919e+01	17.6081	58.718121	0.000274	2.736410	0.927121	-0.000110
 564	5.6019e+01	17.5728	58.605081	0.000284	2.837758	0.961459	-0.000114
 565	5.6118e+01	17.5343	58.536450	0.000172	1.722925	0.583743	-0.000069
 566	5.6218e+01	17.4942	58.447633	0.000223	2.229667	0.755432	-0.000089
 567	5.6317e+01	17.4508	58.322481	0.000314	3.141804	1.064472	-0.000126
 568	5.6416e+01	17.4156	58.201367	0.000304	3.040456	1.030134	-0.000122
 569	5.6516e+01	17.3546	58.092365	0.000274	2.736410	0.927121	-0.000110
 570	5.6615e+01	17.3289	57.995473	0.000243	2.432364	0.824107	-0.000097
 571	5.6715e+01	17.2824	57.886471	0.000274	2.736410	0.927121	-0.000110
 572	5.6815e+01	17.2455	57.809765	0.000193	1.925622	0.652418	-0.000077
 573	5.6914e+01	17.2054	57.688651	0.000304	3.040456	1.030134	-0.000122
 574	5.7014e+01	17.1653	57.652317	0.000091	0.912137	0.309040	-0.000037
 575	5.7113e+01	17.1316	57.551389	0.000253	2.533713	0.858445	-0.000101
 576	5.7212e+01	17.0883	57.490831	0.000152	1.520228	0.515067	-0.000061
 577	5.7312e+01	17.0546	57.365680	0.000314	3.141804	1.064472	-0.000126
 578	5.7411e+01	17.0113	57.297049	0.000172	1.722925	0.583743	-0.000069
 579	5.7511e+01	16.9728	57.167861	0.000324	3.243153	1.098810	-0.000130
 580	5.7611e+01	16.9263	57.095192	0.000182	1.824273	0.618081	-0.000073
 581	5.7710e+01	16.8894	56.966004	0.000324	3.243153	1.098810	-0.000130
 582	5.7809e+01	16.8428	56.877187	0.000223	2.229667	0.755432	-0.000089
 583	5.7909e+01	16.8059	56.804518	0.000182	1.824273	0.618081	-0.000073
 584	5.8008e+01	16.7706	56.691479	0.000284	2.837758	0.961459	-0.000114
 585	5.8108e+01	16.7305	56.578439	0.000284	2.837758	0.961459	-0.000114
 586	5.8208e+01	16.6872	56.461362	0.000294	2.939107	0.995796	-0.000118
 587	5.8307e+01	16.6487	56.360433	0.000253	2.533713	0.858445	-0.000101
 588	5.8407e+01	16.6022	56.231245	0.000324	3.243153	1.098810	-0.000130
 589	5.8506e+01	16.5685	56.130317	0.000253	2.533713	0.858445	-0.000101
 590	5.8605e+01	16.5268	56.053611	0.000193	1.925622	0.652418	-0.000077
 591	5.8705e+01	16.4883	55.948646	0.000264	2.635061	0.892783	-0.000105
 592	5.8804e+01	16.4530	55.892126	0.000142	1.418879	0.480729	-0.000057
 593	5.8904e+01	16.4145	55.799272	0.000233	2.331016	0.789770	-0.000093
 594	5.9004e+01	16.3696	55.706417	0.000233	2.331016	0.789770	-0.000093
 595	5.9103e+01	16.3311	55.613563	0.000233	2.331016	0.789770	-0.000093
 596	5.9203e+01	16.2878	55.508598	0.000264	2.635061	0.892783	-0.000105
 597	5.9302e+01	16.2573	55.419781	0.000223	2.229667	0.755432	-0.000089
 598	5.9401e+01	16.2028	55.322890	0.000243	2.432364	0.824107	-0.000097
 599	5.9501e+01	16.1691	55.209850	0.000284	2.837758	0.961459	-0.000114
 600	5.9600e+01	16.1209	55.116996	0.000233	2.331016	0.789770	-0.000093
 601	5.9700e+01	16.0985	54.979733	0.000345	3.445850	1.167485	-0.000138
 602	5.9800e+01	16.0616	54.907065	0.000182	1.824273	0.618081	-0.000073
 603	5.9899e+01	16.0038	54.822285	0.000213	2.128319	0.721094	-0.000085
 604	5.9998e+01	15.9669	54.713282	0.000274	2.736410	0.927121	-0.000110
 605	6.0098e+01	15.9332	54.584094	0.000324	3.243153	1.098810	-0.000130
 606	6.0197e+01	15.8947	54.442794	0.000355	3.547198	1.201823	-0.000142
 607	6.0297e+01	15.8498	54.345903	0.000243	2.432364	0.824107	-0.000097
 608	6.0397e+01	15.8177	54.232863	0.000284	2.837758	0.961459	-0.000114
 609	6.0496e+01	15.7712	54.192492	0.000101	1.013485	0.343378	-0.000041
 610	6.0596e+01	15.7343	54.115786	0.000193	1.925622	0.652418	-0.000077
 611	6.0695e+01	15.6910	53.958338	0.000395	3.952592	1.339174	-0.000158
 612	6.0794e+01	15.6557	53.889706	0.000172	1.722925	0.583743	-0.000069
 613	6.0894e+01	15.6188	53.796852	0.000233	2.331016	0.789770	-0.000093
 614	6.0993e+01	15.5755	53.703998	0.000233	2.331016	0.789770	-0.000093
 615	6.1093e+01	15.5354	53.594995	0.000274	2.736410	0.927121	-0.000110
 616	6.1193e+01	15.4857	53.502141	0.000233	2.331016	0.789770	-0.000093
 617	6.1292e+01	15.4568	53.413324	0.000223	2.229667	0.755432	-0.000089
 618	6.1392e+01	15.4135	53.304322	0.000274	2.736410	0.927121	-0.000110
 619	6.1491e+01	15.3750	53.195319	0.000274	2.736410	0.927121	-0.000110
 620	6.1590e+01	15.3381	53.098428	0.000243	2.432364	0.824107	-0.000097
 621	6.1690e+01	15.2915	52.993462	0.000264	2.635061	0.892783	-0.000105
 622	6.1789e+01	15.2563	52.892534	0.000253	2.533713	0.858445	-0.000101
 623	6.1889e+01	15.2145	52.751234	0.000355	3.547198	1.201823	-0.000142
 624	6.1989e+01	15.1744	52.658380	0.000233	2.331016	0.789770	-0.000093
 625	6.2088e+01	15.1359	52.509006	0.000375	3.749895	1.270499	-0.000150
 626	6.2188e+01	15.1006	52.408078	0.000253	2.533713	0.858445	-0.000101
 627	6.2287e+01	15.0445	52.359632	0.000122	1.216182	0.412054	-0.000049
 628	6.2386e+01	15.0140	52.246592	0.000284	2.837758	0.961459	-0.000114
 629	6.2486e+01	14.9707	52.141627	0.000264	2.635061	0.892783	-0.000105
 630	6.2586e+01	14.9322	52.052810	0.000223	2.229667	0.755432	-0.000089
 631	6.2685e+01	14.8937	51.943807	0.000274	2.736410	0.927121	-0.000110
 632	6.2785e+01	14.8568	51.863064	0.000203	2.026970	0.686756	-0.000081
 633	6.2884e+01	14.8119	51.717727	0.000365	3.648547	1.236161	-0.000146
 634	6.2983e+01	14.7750	51.653133	0.000162	1.621576	0.549405	-0.000065
 635	6.3083e+01	14.7381	51.536056	0.000294	2.939107	0.995796	-0.000118
 636	6.3182e+01	14.6964	51.423016	0.000284	2.837758	0.961459	-0.000114
 637	6.3282e+01	14.6579	51.314014	0.000274	2.736410	0.927121	-0.000110
 638	6.3382e+01	14.6210	51.196937	0.000294	2.939107	0.995796	-0.000118
 639	6.3481e+01	14.5729	51.087934	0.000274	2.736410	0.927121	-0.000110
 640	6.3581e+01	14.5295	50.982969	0.000264	2.635061	0.892783	-0.000105
 641	6.3680e+01	14.4926	50.841669	0.000355	3.547198	1.201823	-0.000142
 642	6.3779e+01	14.4590	50.716518	0.000314	3.141804	1.064472	-0.000126
 643	6.3879e+01	14.4188	50.615589	0.000253	2.533713	0.858445	-0.000101
 644	6.3978e+01	14.3771	50.526772	0.000223	2.229667	0.755432	-0.000089
 645	6.4078e+01	14.3386	50.421807	0.000264	2.635061	0.892783	-0.000105
 646	6.4177e+01	14.2953	50.324916	0.000243	2.432364	0.824107	-0.000097
 647	6.4277e+01	14.2600	50.244173	0.000203	2.026970	0.686756	-0.000081
 648	6.4376e+01	14.2119	50.159393	0.000213	2.128319	0.721094	-0.000085
 649	6.4476e+01	14.1798	50.010019	0.000375	3.749895	1.270499	-0.000150
 650	6.4576e+01	14.1349	49.921202	0.000223	2.229667	0.755432	-0.000089
 651	6.4675e+01	14.0980	49.876793	0.000111	1.114834	0.377716	-0.000045
 652	6.4775e+01	14.0611	49.735494	0.000355	3.547198	1.201823	-0.000142
 653	6.4874e+01	14.0130	49.586120	0.000375	3.749895	1.270499	-0.000150
 654	6.4974e+01	13.9793	49.493266	0.000233	2.331016	0.789770	-0.000093
 655	6.5073e+01	13.9392	49.396374	0.000243	2.432364	0.824107	-0.000097
 656	6.5172e+01	13.8894	49.287372	0.000274	2.736410	0.927121	-0.000110
 657	6.5272e+01	13.8574	49.178369	0.000274	2.736410	0.927121	-0.000110
 658	6.5371e+01	13.8124	49.065329	0.000284	2.837758	0.961459	-0.000114
 659	6.5471e+01	13.7804	48.956327	0.000274	2.736410	0.927121	-0.000110
 660	6.5570e+01	13.7386	48.802915	0.000385	3.851244	1.304837	-0.000154
 661	6.5670e+01	13.6953	48.685838	0.000294	2.939107	0.995796	-0.000118
 662	6.5769e+01	13.6681	48.572799	0.000284	2.837758	0.961459	-0.000114
 663	6.5869e+01	13.6231	48.512242	0.000152	1.520228	0.515067	-0.000061
 664	6.5969e+01	13.5782	48.395165	0.000294	2.939107	0.995796	-0.000118
 665	6.6068e+01	13.5526	48.286162	0.000274	2.736410	0.927121	-0.000110
 666	6.6168e+01	13.5012	48.189271	0.000243	2.432364	0.824107	-0.000097
 667	6.6267e+01	13.4707	48.096417	0.000233	2.331016	0.789770	-0.000093
 668	6.6367e+01	13.4178	47.938968	0.000395	3.952592	1.339174	-0.000158
 669	6.6466e+01	13.3905	47.886486	0.000132	1.317531	0.446391	-0.000053
 670	6.6566e+01	13.3440	47.741149	0.000365	3.648547	1.236161	-0.000146
 671	6.6665e+01	13.3023	47.664443	0.000193	1.925622	0.652418	-0.000077
 672	6.6764e+01	13.2622	47.543329	0.000304	3.040456	1.030134	-0.000122
 673	6.6864e+01	13.2173	47.422215	0.000304	3.040456	1.030134	-0.000122
 674	6.6963e+01	13.1740	47.353584	0.000172	1.722925	0.583743	-0.000069
 675	6.7063e+01	13.1387	47.224395	0.000324	3.243153	1.098810	-0.000130
 676	6.7162e+01	13.0954	47.054836	0.000426	4.256638	1.442188	-0.000170
 677	6.7262e+01	13.0713	47.010427	0.000111	1.114834	0.377716	-0.000045
 678	6.7362e+01	13.0216	46.848942	0.000405	4.053941	1.373512	-0.000162
 679	6.7461e+01	12.9798	46.683419	0.000416	4.155289	1.407850	-0.000166
 680	6.7561e+01	12.9510	46.594602	0.000223	2.229667	0.755432	-0.000089
 681	6.7660e+01	12.8996	46.534045	0.000152	1.520228	0.515067	-0.000061
 682	6.7760e+01	12.8724	46.421005	0.000284	2.837758	0.961459	-0.000114
 683	6.7859e+01	12.8210	46.316040	0.000264	2.635061	0.892783	-0.000105
 684	6.7959e+01	12.7857	46.178777	0.000345	3.445850	1.167485	-0.000138
 685	6.8058e+01	12.7424	46.065737	0.000284	2.837758	0.961459	-0.000114
 686	6.8157e+01	12.7119	45.976920	0.000223	2.229667	0.755432	-0.000089
 687	6.8257e+01	12.6734	45.843695	0.000334	3.344501	1.133148	-0.000134
 688	6.8356e+01	12.6253	45.726618	0.000294	2.939107	0.995796	-0.000118
 689	6.8456e+01	12.5836	45.666061	0.000152	1.520228	0.515067	-0.000061
 690	6.8555e+01	12.5467	45.548984	0.000294	2.939107	0.995796	-0.000118
 691	6.8655e+01	12.5066	45.383461	0.000416	4.155289	1.407850	-0.000166
 692	6.8754e+01	12.4697	45.294644	0.000223	2.229667	0.755432	-0.000089
 693	6.8854e+01	12.4312	45.165456	0.000324	3.243153	1.098810	-0.000130
 694	6.8954e+01	12.3911	45.060491	0.000264	2.635061	0.892783	-0.000105
 695	6.9053e+01	12.3446	44.943414	0.000294	2.939107	0.995796	-0.000118
 696	6.9153e+01	12.3061	44.785965	0.000395	3.952592	1.339174	-0.000158
 697	6.9252e+01	12.2595	44.660814	0.000314	3.141804	1.064472	-0.000126
 698	6.9352e+01	12.2291	44.563923	0.000243	2.432364	0.824107	-0.000097
 699	6.9451e+01	12.1986	44.467032	0.000243	2.432364	0.824107	-0.000097
 700	6.9550e+01	12.1424	44.374177	0.000233	2.331016	0.789770	-0.000093
 701	6.9650e+01	12.1071	44.261138	0.000284	2.837758	0.961459	-0.000114
 702	6.9749e+01	12.0767	44.111764	0.000375	3.749895	1.270499	-0.000150
 703	6.9849e+01	12.0382	44.018910	0.000233	2.331016	0.789770	-0.000093
 704	6.9948e+01	11.9900	43.861461	0.000395	3.952592	1.339174	-0.000158
 705	7.0048e+01	11.9483	43.768607	0.000233	2.331016	0.789770	-0.000093
 706	7.0147e+01	11.9066	43.675753	0.000233	2.331016	0.789770	-0.000093
 707	7.0247e+01	11.8777	43.586936	0.000223	2.229667	0.755432	-0.000089
 708	7.0347e+01	11.8264	43.413339	0.000436	4.357986	1.476526	-0.000174
 709	7.0446e+01	11.7927	43.320485	0.000233	2.331016	0.789770	-0.000093
 710	7.0546e+01	11.7622	43.231668	0.000223	2.229667	0.755432	-0.000089
 711	7.0645e+01	11.7125	43.122665	0.000274	2.736410	0.927121	-0.000110
 712	7.0745e+01	11.6644	42.957143	0.000416	4.155289	1.407850	-0.000166
 713	7.0844e+01	11.6259	42.896586	0.000152	1.520228	0.515067	-0.000061
 714	7.0944e+01	11.5922	42.755286	0.000355	3.547198	1.201823	-0.000142
 715	7.1043e+01	11.5569	42.589763	0.000416	4.155289	1.407850	-0.000166
 716	7.1142e+01	11.5120	42.472687	0.000294	2.939107	0.995796	-0.000118
 717	7.1242e+01	11.4751	42.424241	0.000122	1.216182	0.412054	-0.000049
 718	7.1341e+01	11.4237	42.238533	0.000466	4.662032	1.579539	-0.000187
 719	7.1441e+01	11.3901	42.133567	0.000264	2.635061	0.892783	-0.000105
 720	7.1540e+01	11.3564	42.040713	0.000233	2.331016	0.789770	-0.000093
 721	7.1640e+01	11.3098	41.935747	0.000264	2.635061	0.892783	-0.000105
 722	7.1740e+01	11.2745	41.802522	0.000334	3.344501	1.133148	-0.000134
 723	7.1839e+01	11.2248	41.697556	0.000264	2.635061	0.892783	-0.000105
 724	7.1939e+01	11.1879	41.564331	0.000334	3.344501	1.133148	-0.000134
 725	7.2038e+01	11.1558	41.475514	0.000223	2.229667	0.755432	-0.000089
 726	7.2138e+01	11.1125	41.350363	0.000314	3.141804	1.064472	-0.000126
 727	7.2237e+01	11.0612	41.209063	0.000355	3.547198	1.201823	-0.000142
 728	7.2337e+01	11.0275	41.112172	0.000243	2.432364	0.824107	-0.000097
 729	7.2436e+01	10.9986	40.966835	0.000365	3.648547	1.236161	-0.000146
 730	7.2535e+01	10.9521	40.853795	0.000284	2.837758	0.961459	-0.000114
 731	7.2635e+01	10.9136	40.764978	0.000223	2.229667	0.755432	-0.000089
 732	7.2734e+01	10.8767	40.587344	0.000446	4.459335	1.510864	-0.000179
 733	7.2834e+01	10.8350	40.474304	0.000284	2.837758	0.961459	-0.000114
 734	7.2933e+01	10.8013	40.292633	0.000456	4.560683	1.545201	-0.000183
 735	7.3033e+01	10.7564	40.236113	0.000142	1.418879	0.480729	-0.000057
 736	7.3132e+01	10.7115	40.135185	0.000253	2.533713	0.858445	-0.000101
 737	7.3232e+01	10.6698	40.001959	0.000334	3.344501	1.133148	-0.000134
 738	7.3332e+01	10.6377	39.905068	0.000243	2.432364	0.824107	-0.000097
 739	7.3431e+01	10.5976	39.812214	0.000233	2.331016	0.789770	-0.000093
 740	7.3531e+01	10.5575	39.646692	0.000416	4.155289	1.407850	-0.000166
 741	7.3630e+01	10.5190	39.565949	0.000203	2.026970	0.686756	-0.000081
 742	7.3730e+01	10.4772	39.428686	0.000345	3.445850	1.167485	-0.000138
 743	7.3829e+01	10.4323	39.307572	0.000304	3.040456	1.030134	-0.000122
 744	7.3928e+01	10.3986	39.162235	0.000365	3.648547	1.236161	-0.000146
 745	7.4028e+01	10.3553	39.061307	0.000253	2.533713	0.858445	-0.000101
 746	7.4127e+01	10.3152	38.920007	0.000355	3.547198	1.201823	-0.000142
 747	7.4227e+01	10.2815	38.823116	0.000243	2.432364	0.824107	-0.000097
 748	7.4326e+01	10.2302	38.714113	0.000274	2.736410	0.927121	-0.000110
 749	7.4426e+01	10.1869	38.580888	0.000334	3.344501	1.133148	-0.000134
 750	7.4525e+01	10.1548	38.411328	0.000426	4.256638	1.442188	-0.000170
 751	7.4625e+01	10.1163	38.282140	0.000324	3.243153	1.098810	-0.000130
 752	7.4725e+01	10.0826	38.152951	0.000324	3.243153	1.098810	-0.000130
 753	7.4824e+01	10.0361	38.015689	0.000345	3.445850	1.167485	-0.000138
 754	7.4924e+01	9.9976	37.922835	0.000233	2.331016	0.789770	-0.000093
 755	7.5023e+01	9.9591	37.838055	0.000213	2.128319	0.721094	-0.000085
 756	7.5123e+01	9.9061	37.704829	0.000334	3.344501	1.133148	-0.000134
 757	7.5222e+01	9.8741	37.571604	0.000334	3.344501	1.133148	-0.000134
 758	7.5322e+01	9.8404	37.446453	0.000314	3.141804	1.064472	-0.000126
 759	7.5421e+01	9.7970	37.321301	0.000314	3.141804	1.064472	-0.000126
 760	7.5520e+01	9.7602	37.184039	0.000345	3.445850	1.167485	-0.000138
 761	7.5620e+01	9.7200	37.107333	0.000193	1.925622	0.652418	-0.000077
 762	7.5719e+01	9.6783	36.945848	0.000405	4.053941	1.373512	-0.000162
 763	7.5819e+01	9.6334	36.832808	0.000284	2.837758	0.961459	-0.000114
 764	7.5918e+01	9.6061	36.691508	0.000355	3.547198	1.201823	-0.000142
 765	7.6018e+01	9.5564	36.570394	0.000304	3.040456	1.030134	-0.000122
 766	7.6118e+01	9.5227	36.457354	0.000284	2.837758	0.961459	-0.000114
 767	7.6217e+01	9.4714	36.312017	0.000365	3.648547	1.236161	-0.000146
 768	7.6317e+01	9.4361	36.154569	0.000395	3.952592	1.339174	-0.000158
 769	7.6416e+01	9.4136	36.025381	0.000324	3.243153	1.098810	-0.000130
 770	7.6516e+01	9.3559	35.912341	0.000284	2.837758	0.961459	-0.000114
 771	7.6615e+01	9.3142	35.787190	0.000314	3.141804	1.064472	-0.000126
 772	7.6715e+01	9.2757	35.686261	0.000253	2.533713	0.858445	-0.000101
 773	7.6814e+01	9.2404	35.585333	0.000253	2.533713	0.858445	-0.000101
 774	7.6913e+01	9.2035	35.419810	0.000416	4.155289	1.407850	-0.000166
 775	7.7013e+01	9.1602	35.322919	0.000243	2.432364	0.824107	-0.000097
 776	7.7112e+01	9.1088	35.165471	0.000395	3.952592	1.339174	-0.000158
 777	7.7212e+01	9.0800	35.040320	0.000314	3.141804	1.064472	-0.000126
 778	7.7311e+01	9.0511	34.939391	0.000253	2.533713	0.858445	-0.000101
 779	7.7411e+01	8.9901	34.806166	0.000334	3.344501	1.133148	-0.000134
 780	7.7510e+01	8.9564	34.685052	0.000304	3.040456	1.030134	-0.000122
 781	7.7610e+01	8.9147	34.555863	0.000324	3.243153	1.098810	-0.000130
 782	7.7710e+01	8.8778	34.422638	0.000334	3.344501	1.133148	-0.000134
 783	7.7809e+01	8.8329	34.281338	0.000355	3.547198	1.201823	-0.000142
 784	7.7909e+01	8.7976	34.172335	0.000274	2.736410	0.927121	-0.000110
 785	7.8008e+01	8.7591	34.022961	0.000375	3.749895	1.270499	-0.000150
 786	7.8108e+01	8.7318	33.865513	0.000395	3.952592	1.339174	-0.000158
 787	7.8207e+01	8.6789	33.776696	0.000223	2.229667	0.755432	-0.000089
 788	7.8306e+01	8.6372	33.639434	0.000345	3.445850	1.167485	-0.000138
 789	7.8406e+01	8.6019	33.457762	0.000456	4.560683	1.545201	-0.000183
 790	7.8505e+01	8.5682	33.356834	0.000253	2.533713	0.858445	-0.000101
 791	7.8605e+01	8.5185	33.243794	0.000284	2.837758	0.961459	-0.000114
 792	7.8704e+01	8.4944	33.134792	0.000274	2.736410	0.927121	-0.000110
 793	7.8804e+01	8.4415	32.965232	0.000426	4.256638	1.442188	-0.000170
 794	7.8903e+01	8.4078	32.815858	0.000375	3.749895	1.270499	-0.000150
 795	7.9003e+01	8.3645	32.698781	0.000294	2.939107	0.995796	-0.000118
 796	7.9103e+01	8.3244	32.593815	0.000264	2.635061	0.892783	-0.000105
 797	7.9202e+01	8.2794	32.416181	0.000446	4.459335	1.510864	-0.000179
 798	7.9302e+01	8.2329	32.291030	0.000314	3.141804	1.064472	-0.000126
 799	7.9401e+01	8.2024	32.182028	0.000274	2.736410	0.927121	-0.000110
 800	7.9501e+01	8.1559	32.068988	0.000284	2.837758	0.961459	-0.000114
 801	7.9600e+01	8.1174	31.919614	0.000375	3.749895	1.270499	-0.000150
 802	7.9700e+01	8.0869	31.766203	0.000385	3.851244	1.304837	-0.000154
 803	7.9799e+01	8.0436	31.681423	0.000213	2.128319	0.721094	-0.000085
 804	7.9898e+01	7.9987	31.536086	0.000365	3.648547	1.236161	-0.000146
 805	7.9998e+01	7.9586	31.390749	0.000365	3.648547	1.236161	-0.000146
 806	8.0097e+01	7.9153	31.257523	0.000334	3.344501	1.133148	-0.000134
 807	8.0197e+01	7.8816	31.104112	0.000385	3.851244	1.304837	-0.000154
 808	8.0296e+01	7.8415	30.982998	0.000304	3.040456	1.030134	-0.000122
 809	8.0396e+01	7.8046	30.825550	0.000395	3.952592	1.339174	-0.000158
 810	8.0496e+01	7.7661	30.724622	0.000253	2.533713	0.858445	-0.000101
 811	8.0595e+01	7.7244	30.551025	0.000436	4.357986	1.476526	-0.000174
 812	8.0695e+01	7.6763	30.437985	0.000284	2.837758	0.961459	-0.000114
 813	8.0794e+01	7.6458	30.300722	0.000345	3.445850	1.167485	-0.000138
 814	8.0894e+01	7.6025	30.155385	0.000365	3.648547	1.236161	-0.000146
 815	8.0993e+01	7.5640	30.050420	0.000264	2.635061	0.892783	-0.000105
 816	8.1093e+01	7.5271	29.897009	0.000385	3.851244	1.304837	-0.000154
 817	8.1192e+01	7.4805	29.775895	0.000304	3.040456	1.030134	-0.000122
 818	8.1291e+01	7.4549	29.630558	0.000365	3.648547	1.236161	-0.000146
 819	8.1391e+01	7.4083	29.505407	0.000314	3.141804	1.064472	-0.000126
 820	8.1490e+01	7.3650	29.360070	0.000365	3.648547	1.236161	-0.000146
 821	8.1590e+01	7.3281	29.295475	0.000162	1.621576	0.549405	-0.000065
 822	8.1689e+01	7.3009	29.097656	0.000497	4.966077	1.682553	-0.000199
 823	8.1789e+01	7.2511	28.984616	0.000284	2.837758	0.961459	-0.000114
 824	8.1888e+01	7.2014	28.843316	0.000355	3.547198	1.201823	-0.000142
 825	8.1988e+01	7.1597	28.693942	0.000375	3.749895	1.270499	-0.000150
 826	8.2088e+01	7.1276	28.552643	0.000355	3.547198	1.201823	-0.000142
 827	8.2187e+01	7.0827	28.350786	0.000507	5.067426	1.716890	-0.000203
 828	8.2287e+01	7.0378	28.245820	0.000264	2.635061	0.892783	-0.000105
 829	8.2386e+01	7.0105	28.132780	0.000284	2.837758	0.961459	-0.000114
 830	8.2486e+01	6.9704	27.987444	0.000365	3.648547	1.236161	-0.000146
 831	8.2585e+01	6.9319	27.838069	0.000375	3.749895	1.270499	-0.000150
 832	8.2684e+01	6.8886	27.704844	0.000334	3.344501	1.133148	-0.000134
 833	8.2784e+01	6.8469	27.575656	0.000324	3.243153	1.098810	-0.000130
 834	8.2883e+01	6.8003	27.438393	0.000345	3.445850	1.167485	-0.000138
 835	8.2983e+01	6.7634	27.276908	0.000405	4.053941	1.373512	-0.000162
 836	8.3082e+01	6.7185	27.163868	0.000284	2.837758	0.961459	-0.000114
 837	8.3182e+01	6.6800	27.022568	0.000355	3.547198	1.201823	-0.000142
 838	8.3281e+01	6.6415	26.933751	0.000223	2.229667	0.755432	-0.000089
 839	8.3381e+01	6.6062	26.764191	0.000426	4.256638	1.442188	-0.000170
 840	8.3481e+01	6.5741	26.663263	0.000253	2.533713	0.858445	-0.000101
 841	8.3580e+01	6.5244	26.509852	0.000385	3.851244	1.304837	-0.000154
 842	8.3680e+01	6.4843	26.316069	0.000486	4.864729	1.648215	-0.000195
 843	8.3779e+01	6.4506	26.142472	0.000436	4.357986	1.476526	-0.000174
 844	8.3879e+01	6.4121	26.045581	0.000243	2.432364	0.824107	-0.000097
 845	8.3978e+01	6.3752	25.900244	0.000365	3.648547	1.236161	-0.000146
 846	8.4078e+01	6.3287	25.758945	0.000355	3.547198	1.201823	-0.000142
 847	8.4177e+01	6.2902	25.621682	0.000345	3.445850	1.167485	-0.000138
 848	8.4276e+01	6.2549	25.480382	0.000355	3.547198	1.201823	-0.000142
 849	8.4376e+01	6.2132	25.335045	0.000365	3.648547	1.236161	-0.000146
 850	8.4475e+01	6.1699	25.173560	0.000405	4.053941	1.373512	-0.000162
 851	8.4575e+01	6.1314	25.056483	0.000294	2.939107	0.995796	-0.000118
 852	8.4674e+01	6.0784	24.882886	0.000436	4.357986	1.476526	-0.000174
 853	8.4774e+01	6.0576	24.741586	0.000355	3.547198	1.201823	-0.000142
 854	8.4874e+01	6.0079	24.656807	0.000213	2.128319	0.721094	-0.000085
 855	8.4973e+01	5.9774	24.515507	0.000355	3.547198	1.201823	-0.000142
 856	8.5073e+01	5.9357	24.366133	0.000375	3.749895	1.270499	-0.000150
 857	8.5172e+01	5.8956	24.249056	0.000294	2.939107	0.995796	-0.000118
 858	8.5272e+01	5.8474	24.115830	0.000334	3.344501	1.133148	-0.000134
 859	8.5371e+01	5.8153	23.918011	0.000497	4.966077	1.682553	-0.000199
 860	8.5471e+01	5.7784	23.813045	0.000264	2.635061	0.892783	-0.000105
 861	8.5570e+01	5.7271	23.615225	0.000497	4.966077	1.682553	-0.000199
 862	8.5669e+01	5.7079	23.457777	0.000395	3.952592	1.339174	-0.000158
 863	8.5769e+01	5.6517	23.336663	0.000304	3.040456	1.030134	-0.000122
 864	8.5868e+01	5.6132	23.179215	0.000395	3.952592	1.339174	-0.000158
 865	8.5968e+01	5.5651	23.033878	0.000365	3.648547	1.236161	-0.000146
 866	8.6067e+01	5.5330	22.900652	0.000334	3.344501	1.133148	-0.000134
 867	8.6167e+01	5.4865	22.739167	0.000405	4.053941	1.373512	-0.000162
 868	8.6266e+01	5.4512	22.618053	0.000304	3.040456	1.030134	-0.000122
 869	8.6366e+01	5.4143	22.492902	0.000314	3.141804	1.064472	-0.000126
 870	8.6466e+01	5.3742	22.355639	0.000345	3.445850	1.167485	-0.000138
 871	8.6565e+01	5.3293	22.246636	0.000274	2.736410	0.927121	-0.000110
 872	8.6665e+01	5.2924	22.052854	0.000486	4.864729	1.648215	-0.000195
 873	8.6764e+01	5.2603	21.919628	0.000334	3.344501	1.133148	-0.000134
 874	8.6864e+01	5.2154	21.774292	0.000365	3.648547	1.236161	-0.000146
 875	8.6963e+01	5.1656	21.637029	0.000345	3.445850	1.167485	-0.000138
 876	8.7063e+01	5.1368	21.451321	0.000466	4.662032	1.579539	-0.000187
 877	8.7162e+01	5.0983	21.342318	0.000274	2.736410	0.927121	-0.000110
 878	8.7261e+01	5.0598	21.148536	0.000486	4.864729	1.648215	-0.000195
 879	8.7361e+01	5.0116	20.983013	0.000416	4.155289	1.407850	-0.000166
 880	8.7460e+01	4.9731	20.869973	0.000284	2.837758	0.961459	-0.000114
 881	8.7560e+01	4.9346	20.668116	0.000507	5.067426	1.716890	-0.000203
 882	8.7659e+01	4.8977	20.534891	0.000334	3.344501	1.133148	-0.000134
 883	8.7759e+01	4.8656	20.405703	0.000324	3.243153	1.098810	-0.000130
 884	8.7859e+01	4.8175	20.264403	0.000355	3.547198	1.201823	-0.000142
 885	8.7958e+01	4.7758	20.131177	0.000334	3.344501	1.133148	-0.000134
 886	8.8058e+01	4.7453	19.917209	0.000537	5.371471	1.819904	-0.000215
 887	8.8157e+01	4.7036	19.836466	0.000203	2.026970	0.686756	-0.000081
 888	8.8257e+01	4.6667	19.699204	0.000345	3.445850	1.167485	-0.000138
 889	8.8356e+01	4.6058	19.598275	0.000253	2.533713	0.858445	-0.000101
 890	8.8456e+01	4.5721	19.424679	0.000436	4.357986	1.476526	-0.000174
 891	8.8555e+01	4.5432	19.283379	0.000355	3.547198	1.201823	-0.000142
 892	8.8654e+01	4.5047	19.150153	0.000334	3.344501	1.133148	-0.000134
 893	8.8754e+01	4.4501	18.968482	0.000456	4.560683	1.545201	-0.000183
 894	8.8853e+01	4.4148	18.782774	0.000466	4.662032	1.579539	-0.000187
 895	8.8953e+01	4.3812	18.621289	0.000405	4.053941	1.373512	-0.000162
 896	8.9052e+01	4.3411	18.488063	0.000334	3.344501	1.133148	-0.000134
 897	8.9152e+01	4.2993	18.322541	0.000416	4.155289	1.407850	-0.000166
 898	8.9251e+01	4.2657	18.189315	0.000334	3.344501	1.133148	-0.000134
 899	8.9351e+01	4.2288	17.991495	0.000497	4.966077	1.682553	-0.000199
 900	8.9451e+01	4.1774	17.894604	0.000243	2.432364	0.824107	-0.000097
 901	8.9550e+01	4.1357	17.721007	0.000436	4.357986	1.476526	-0.000174
 902	8.9650e+01	4.0956	17.547410	0.000436	4.357986	1.476526	-0.000174
 903	8.9749e+01	4.0619	17.442445	0.000264	2.635061	0.892783	-0.000105
 904	8.9849e+01	4.0234	17.297108	0.000365	3.648547	1.236161	-0.000146
 905	8.9948e+01	3.9833	17.180031	0.000294	2.939107	0.995796	-0.000118
 906	9.0047e+01	3.9272	17.002397	0.000446	4.459335	1.510864	-0.000179
 907	9.0147e+01	3.8935	16.840912	0.000405	4.053941	1.373512	-0.000162
 908	9.0246e+01	3.8614	16.719798	0.000304	3.040456	1.030134	-0.000122
 909	9.0346e+01	3.8165	16.570424	0.000375	3.749895	1.270499	-0.000150
 910	9.0445e+01	3.7716	16.417012	0.000385	3.851244	1.304837	-0.000154
 911	9.0545e+01	3.7475	16.231304	0.000466	4.662032	1.579539	-0.000187
 912	9.0644e+01	3.7058	16.098079	0.000334	3.344501	1.133148	-0.000134
 913	9.0744e+01	3.6625	15.908333	0.000476	4.763380	1.613877	-0.000191
 914	9.0844e+01	3.6240	15.730699	0.000446	4.459335	1.510864	-0.000179
 915	9.0943e+01	3.5726	15.589400	0.000355	3.547198	1.201823	-0.000142
 916	9.1043e+01	3.5486	15.452137	0.000345	3.445850	1.167485	-0.000138
 917	9.1142e+01	3.5020	15.258355	0.000486	4.864729	1.648215	-0.000195
 918	9.1242e+01	3.4651	15.100906	0.000395	3.952592	1.339174	-0.000158
 919	9.1341e+01	3.4202	14.983829	0.000294	2.939107	0.995796	-0.000118
 920	9.1441e+01	3.3881	14.838492	0.000365	3.648547	1.236161	-0.000146
 921	9.1540e+01	3.3320	14.705267	0.000334	3.344501	1.133148	-0.000134
 922	9.1639e+01	3.2967	14.592227	0.000284	2.837758	0.961459	-0.000114
 923	9.1739e+01	3.2630	14.426705	0.000416	4.155289	1.407850	-0.000166
 924	9.1838e+01	3.2165	14.293479	0.000334	3.344501	1.133148	-0.000134
 925	9.1938e+01	3.1764	14.131994	0.000405	4.053941	1.373512	-0.000162
 926	9.2037e+01	3.1363	13.974545	0.000395	3.952592	1.339174	-0.000158
 927	9.2137e+01	3.1010	13.809023	0.000416	4.155289	1.407850	-0.000166
 928	9.2237e+01	3.0689	13.607166	0.000507	5.067426	1.716890	-0.000203
 929	9.2336e+01	3.0208	13.461829	0.000365	3.648547	1.236161	-0.000146
 930	9.2436e+01	2.9807	13.284195	0.000446	4.459335	1.510864	-0.000179
 931	9.2535e+01	2.9486	13.138858	0.000365	3.648547	1.236161	-0.000146
 932	9.2635e+01	2.9069	12.973336	0.000416	4.155289	1.407850	-0.000166
 933	9.2734e+01	2.8684	12.823962	0.000375	3.749895	1.270499	-0.000150
 934	9.2834e+01	2.8251	12.630179	0.000486	4.864729	1.648215	-0.000195
 935	9.2933e+01	2.7882	12.476768	0.000385	3.851244	1.304837	-0.000154
 936	9.3032e+01	2.7464	12.327394	0.000375	3.749895	1.270499	-0.000150
 937	9.3132e+01	2.7128	12.169946	0.000395	3.952592	1.339174	-0.000158
 938	9.3231e+01	2.6646	12.012497	0.000395	3.952592	1.339174	-0.000158
 939	9.3331e+01	2.6309	11.931755	0.000203	2.026970	0.686756	-0.000081
 940	9.3430e+01	2.5876	11.754121	0.000446	4.459335	1.510864	-0.000179
 941	9.3530e+01	2.5507	11.600710	0.000385	3.851244	1.304837	-0.000154
 942	9.3629e+01	2.5154	11.455373	0.000365	3.648547	1.236161	-0.000146
 943	9.3729e+01	2.4689	11.253516	0.000507	5.067426	1.716890	-0.000203
 944	9.3829e+01	2.4272	11.112216	0.000355	3.547198	1.201823	-0.000142
 945	9.3928e+01	2.3839	10.962842	0.000375	3.749895	1.270499	-0.000150
 946	9.4028e+01	2.3454	10.765022	0.000497	4.966077	1.682553	-0.000199
 947	9.4127e+01	2.3069	10.579314	0.000466	4.662032	1.579539	-0.000187
 948	9.4227e+01	2.2636	10.438014	0.000355	3.547198	1.201823	-0.000142
 949	9.4326e+01	2.2187	10.284603	0.000385	3.851244	1.304837	-0.000154
 950	9.4425e+01	2.1818	10.135229	0.000375	3.749895	1.270499	-0.000150
 951	9.4525e+01	2.1449	9.925298	0.000527	5.270123	1.785566	-0.000211
 952	9.4624e+01	2.1096	9.800147	0.000314	3.141804	1.064472	-0.000126
 953	9.4724e+01	2.0727	9.634624	0.000416	4.155289	1.407850	-0.000166
 954	9.4823e+01	2.0213	9.501399	0.000334	3.344501	1.133148	-0.000134
 955	9.4923e+01	1.9876	9.299542	0.000507	5.067426	1.716890	-0.000203
 956	9.5022e+01	1.9395	9.194577	0.000264	2.635061	0.892783	-0.000105
 957	9.5122e+01	1.9042	9.041165	0.000385	3.851244	1.304837	-0.000154
 958	9.5222e+01	1.8593	8.875643	0.000416	4.155289	1.407850	-0.000166
 959	9.5321e+01	1.8272	8.722232	0.000385	3.851244	1.304837	-0.000154
 960	9.5421e+01	1.7903	8.580932	0.000355	3.547198	1.201823	-0.000142
 961	9.5520e+01	1.7486	8.435595	0.000365	3.648547	1.236161	-0.000146
 962	9.5620e+01	1.7085	8.229701	0.000517	5.168774	1.751228	-0.000207
 963	9.5719e+01	1.6764	8.056104	0.000436	4.357986	1.476526	-0.000174
 964	9.5819e+01	1.6299	7.882508	0.000436	4.357986	1.476526	-0.000174
 965	9.5918e+01	1.5914	7.708911	0.000436	4.357986	1.476526	-0.000174
 966	9.6017e+01	1.5497	7.507054	0.000507	5.067426	1.716890	-0.000203
 967	9.6117e+01	1.5032	7.381903	0.000314	3.141804	1.064472	-0.000126
 968	9.6216e+01	1.4679	7.216380	0.000416	4.155289	1.407850	-0.000166
 969	9.6316e+01	1.4230	7.058932	0.000395	3.952592	1.339174	-0.000158
 970	9.6415e+01	1.3957	6.869186	0.000476	4.763380	1.613877	-0.000191
 971	9.6515e+01	1.3524	6.727887	0.000355	3.547198	1.201823	-0.000142
 972	9.6615e+01	1.3091	6.546216	0.000456	4.560683	1.545201	-0.000183
 973	9.6714e+01	1.2689	6.392804	0.000385	3.851244	1.304837	-0.000154
 974	9.6814e+01	1.2256	6.291876	0.000253	2.533713	0.858445	-0.000101
 975	9.6913e+01	1.1887	6.094056	0.000497	4.966077	1.682553	-0.000199
 976	9.7013e+01	1.1470	5.944682	0.000375	3.749895	1.270499	-0.000150
 977	9.7112e+01	1.1085	5.787234	0.000395	3.952592	1.339174	-0.000158
 978	9.7212e+01	1.0652	5.633823	0.000385	3.851244	1.304837	-0.000154
 979	9.7311e+01	1.0331	5.460226	0.000436	4.357986	1.476526	-0.000174
 980	9.7410e+01	0.9898	5.306815	0.000385	3.851244	1.304837	-0.000154
 981	9.7510e+01	0.9513	5.064587	0.000608	6.080911	2.060268	-0.000243
 982	9.7609e+01	0.9128	4.899064	0.000416	4.155289	1.407850	-0.000166
 983	9.7709e+01	0.8711	4.741616	0.000395	3.952592	1.339174	-0.000158
 984	9.7808e+01	0.8294	4.584168	0.000395	3.952592	1.339174	-0.000158
 985	9.7908e+01	0.7925	4.374237	0.000527	5.270123	1.785566	-0.000211
 986	9.8007e+01	0.7492	4.232937	0.000355	3.547198	1.201823	-0.000142
 987	9.8107e+01	0.7075	4.083563	0.000375	3.749895	1.270499	-0.000150
 988	9.8207e+01	0.6674	3.873632	0.000527	5.270123	1.785566	-0.000211
 989	9.8306e+01	0.6273	3.780778	0.000233	2.331016	0.789770	-0.000093
 990	9.8406e+01	0.5920	3.570847	0.000527	5.270123	1.785566	-0.000211
 991	9.8505e+01	0.5470	3.445695	0.000314	3.141804	1.064472	-0.000126
 992	9.8605e+01	0.5069	3.320544	0.000314	3.141804	1.064472	-0.000126
 993	9.8704e+01	0.4684	3.102539	0.000547	5.472820	1.854242	-0.000219
 994	9.8803e+01	0.4331	2.961239	0.000355	3.547198	1.201823	-0.000142
 995	9.8903e+01	0.3914	2.787642	0.000436	4.357986	1.476526	-0.000174
 996	9.9002e+01	0.3433	2.597897	0.000476	4.763380	1.613877	-0.000191
 997	9.9102e+01	0.3112	2.456597	0.000355	3.547198	1.201823	-0.000142
 998	9.9201e+01	0.2759	2.226480	0.000578	5.776865	1.957255	-0.000231
 999	9.9301e+01	0.2374	2.060958	0.000416	4.155289	1.407850	-0.000166
1000	9.9400e+01	0.1925	1.883324	0.000446	4.459335	1.510864	-0.000179
1001	9.9500e+01	0.1492	1.713764	0.000426	4.256638	1.442188	-0.000170
1002	9.9600e+01	0.1107	1.524019	0.000476	4.763380	1.613877	-0.000191
1003	9.9699e+01	0.0770	1.362533	0.000405	4.053941	1.373512	-0.000162
1004	9.9799e+01	0.0337	1.221234	0.000355	3.547198	1.201823	-0.000142
1005	9.9898e+01	0.0016	1.104157	0.000294	2.939107	0.995796	-0.000118
1006	9.9998e+01	-0.0449	0.938634	0.000416	4.155289	1.407850	-0.000166
1007	1.0010e+02	-0.0850	0.809446	0.000324	3.243153	1.098810	-0.000130
1008	1.0020e+02	-0.1251	0.639886	0.000426	4.256638	1.442188	-0.000170
1009	1.0030e+02	-0.1508	0.490512	0.000375	3.749895	1.270499	-0.000150
1010	1.0040e+02	-0.2069	0.324989	0.000416	4.155289	1.407850	-0.000166
1011	1.0050e+02	-0.2406	0.143318	0.000456	4.560683	1.545201	-0.000183
1012	1.0059e+02	-0.2839	-0.030279	0.000436	4.357986	1.476526	-0.000174
1013	1.0069e+02	-0.3144	-0.155430	0.000314	3.141804	1.064472	-0.000126
1014	1.0079e+02	-0.3577	-0.361324	0.000517	5.168774	1.751228	-0.000207
1015	1.0089e+02	-0.3914	-0.579329	0.000547	5.472820	1.854242	-0.000219
1016	1.0099e+02	-0.4331	-0.748889	0.000426	4.256638	1.442188	-0.000170
1017	1.0109e+02	-0.4765	-0.902300	0.000385	3.851244	1.304837	-0.000154
1018	1.0119e+02	-0.5182	-1.112231	0.000527	5.270123	1.785566	-0.000211
1019	1.0129e+02	-0.5519	-1.245456	0.000334	3.344501	1.133148	-0.000134
1020	1.0139e+02	-0.5904	-1.439239	0.000486	4.864729	1.648215	-0.000195
1021	1.0149e+02	-0.6353	-1.588613	0.000375	3.749895	1.270499	-0.000150
1022	1.0159e+02	-0.6754	-1.774321	0.000466	4.662032	1.579539	-0.000187
1023	1.0169e+02	-0.7091	-1.939844	0.000416	4.155289	1.407850	-0.000166
1024	1.0179e+02	-0.7524	-2.089218	0.000375	3.749895	1.270499	-0.000150
1025	1.0189e+02	-0.7909	-2.230517	0.000355	3.547198	1.201823	-0.000142
1026	1.0199e+02	-0.8374	-2.424300	0.000486	4.864729	1.648215	-0.000195
1027	1.0209e+02	-0.8711	-2.577711	0.000385	3.851244	1.304837	-0.000154
1028	1.0219e+02	-0.9128	-2.706900	0.000324	3.243153	1.098810	-0.000130
1029	1.0229e+02	-0.9545	-2.876459	0.000426	4.256638	1.442188	-0.000170
1030	1.0239e+02	-0.9930	-3.058130	0.000456	4.560683	1.545201	-0.000183
1031	1.0248e+02	-1.0347	-3.268061	0.000527	5.270123	1.785566	-0.000211
1032	1.0258e+02	-1.0716	-3.449732	0.000456	4.560683	1.545201	-0.000183
1033	1.0268e+02	-1.1149	-3.595069	0.000365	3.648547	1.236161	-0.000146
1034	1.0278e+02	-1.1470	-3.760592	0.000416	4.155289	1.407850	-0.000166
1035	1.0288e+02	-1.1871	-3.966486	0.000517	5.168774	1.751228	-0.000207
1036	1.0298e+02	-1.2353	-4.123934	0.000395	3.952592	1.339174	-0.000158
1037	1.0308e+02	-1.2754	-4.317717	0.000486	4.864729	1.648215	-0.000195
1038	1.0318e+02	-1.3058	-4.463054	0.000365	3.648547	1.236161	-0.000146
1039	1.0328e+02	-1.3476	-4.612428	0.000375	3.749895	1.270499	-0.000150
1040	1.0338e+02	-1.3941	-4.810247	0.000497	4.966077	1.682553	-0.000199
1041	1.0348e+02	-1.4262	-4.971733	0.000405	4.053941	1.373512	-0.000162
1042	1.0358e+02	-1.4727	-5.137255	0.000416	4.155289	1.407850	-0.000166
1043	1.0368e+02	-1.5160	-5.282592	0.000365	3.648547	1.236161	-0.000146
1044	1.0378e+02	-1.5609	-5.419855	0.000345	3.445850	1.167485	-0.000138
1045	1.0388e+02	-1.5914	-5.597489	0.000446	4.459335	1.510864	-0.000179
1046	1.0398e+02	-1.6235	-5.767048	0.000426	4.256638	1.442188	-0.000170
1047	1.0408e+02	-1.6684	-5.948720	0.000456	4.560683	1.545201	-0.000183
1048	1.0418e+02	-1.6973	-6.122316	0.000436	4.357986	1.476526	-0.000174
1049	1.0428e+02	-1.7647	-6.324173	0.000507	5.067426	1.716890	-0.000203
1050	1.0438e+02	-1.7887	-6.461436	0.000345	3.445850	1.167485	-0.000138
1051	1.0447e+02	-1.8352	-6.663293	0.000507	5.067426	1.716890	-0.000203
1052	1.0457e+02	-1.8721	-6.832852	0.000426	4.256638	1.442188	-0.000170
1053	1.0467e+02	-1.9138	-6.982226	0.000375	3.749895	1.270499	-0.000150
1054	1.0477e+02	-1.9459	-7.131600	0.000375	3.749895	1.270499	-0.000150
1055	1.0487e+02	-1.9909	-7.301160	0.000426	4.256638	1.442188	-0.000170
1056	1.0497e+02	-2.0422	-7.494942	0.000486	4.864729	1.648215	-0.000195
1057	1.0507e+02	-2.0695	-7.636242	0.000355	3.547198	1.201823	-0.000142
1058	1.0517e+02	-2.1128	-7.789653	0.000385	3.851244	1.304837	-0.000154
1059	1.0527e+02	-2.1545	-7.979399	0.000476	4.763380	1.613877	-0.000191
1060	1.0537e+02	-2.1818	-8.132810	0.000385	3.851244	1.304837	-0.000154
1061	1.0547e+02	-2.2363	-8.270073	0.000345	3.445850	1.167485	-0.000138
1062	1.0557e+02	-2.2732	-8.415409	0.000365	3.648547	1.236161	-0.000146
1063	1.0567e+02	-2.3213	-8.560746	0.000365	3.648547	1.236161	-0.000146
1064	1.0577e+02	-2.3534	-8.742417	0.000456	4.560683	1.545201	-0.000183
1065	1.0587e+02	-2.3903	-8.907940	0.000416	4.155289	1.407850	-0.000166
1066	1.0597e+02	-2.4240	-9.097685	0.000476	4.763380	1.613877	-0.000191
1067	1.0607e+02	-2.4641	-9.259171	0.000405	4.053941	1.373512	-0.000162
1068	1.0617e+02	-2.5138	-9.436805	0.000446	4.459335	1.510864	-0.000179
1069	1.0627e+02	-2.5523	-9.646736	0.000527	5.270123	1.785566	-0.000211
1070	1.0637e+02	-2.5828	-9.759776	0.000284	2.837758	0.961459	-0.000114
1071	1.0647e+02	-2.6325	-9.961632	0.000507	5.067426	1.716890	-0.000203
1072	1.0656e+02	-2.6710	-10.143304	0.000456	4.560683	1.545201	-0.000183
1073	1.0666e+02	-2.6999	-10.280566	0.000345	3.445850	1.167485	-0.000138
1074	1.0676e+02	-2.7384	-10.450126	0.000426	4.256638	1.442188	-0.000170
1075	1.0686e+02	-2.7930	-10.611611	0.000405	4.053941	1.373512	-0.000162
1076	1.0696e+02	-2.8283	-10.756948	0.000365	3.648547	1.236161	-0.000146
1077	1.0706e+02	-2.8587	-10.930545	0.000436	4.357986	1.476526	-0.000174
1078	1.0716e+02	-2.9117	-11.047622	0.000294	2.939107	0.995796	-0.000118
1079	1.0726e+02	-2.9486	-11.188922	0.000355	3.547198	1.201823	-0.000142
1080	1.0736e+02	-2.9919	-11.338296	0.000375	3.749895	1.270499	-0.000150
1081	1.0746e+02	-3.0288	-11.511893	0.000436	4.357986	1.476526	-0.000174
1082	1.0756e+02	-3.0641	-11.677415	0.000416	4.155289	1.407850	-0.000166
1083	1.0766e+02	-3.1138	-11.842938	0.000416	4.155289	1.407850	-0.000166
1084	1.0776e+02	-3.1443	-12.008460	0.000416	4.155289	1.407850	-0.000166
1085	1.0786e+02	-3.1844	-12.214354	0.000517	5.168774	1.751228	-0.000207
1086	1.0796e+02	-3.2245	-12.375840	0.000405	4.053941	1.373512	-0.000162
1087	1.0806e+02	-3.2614	-12.525214	0.000375	3.749895	1.270499	-0.000150
1088	1.0816e+02	-3.3063	-12.723033	0.000497	4.966077	1.682553	-0.000199
1089	1.0826e+02	-3.3432	-12.807813	0.000213	2.128319	0.721094	-0.000085
1090	1.0836e+02	-3.3849	-13.041967	0.000588	5.878214	1.991593	-0.000235
1091	1.0845e+02	-3.4266	-13.199415	0.000395	3.952592	1.339174	-0.000158
1092	1.0855e+02	-3.4700	-13.308418	0.000274	2.736410	0.927121	-0.000110
1093	1.0865e+02	-3.5069	-13.461829	0.000385	3.851244	1.304837	-0.000154
1094	1.0875e+02	-3.5454	-13.659649	0.000497	4.966077	1.682553	-0.000199
1095	1.0885e+02	-3.5887	-13.788837	0.000324	3.243153	1.098810	-0.000130
1096	1.0895e+02	-3.6224	-13.913988	0.000314	3.141804	1.064472	-0.000126
1097	1.0905e+02	-3.6625	-14.067399	0.000385	3.851244	1.304837	-0.000154
1098	1.0915e+02	-3.7042	-14.261182	0.000486	4.864729	1.648215	-0.000195
1099	1.0925e+02	-3.7427	-14.349999	0.000223	2.229667	0.755432	-0.000089
1100	1.0935e+02	-3.7844	-14.503410	0.000385	3.851244	1.304837	-0.000154
1101	1.0945e+02	-3.8293	-14.685081	0.000456	4.560683	1.545201	-0.000183
1102	1.0955e+02	-3.8646	-14.842530	0.000395	3.952592	1.339174	-0.000158
1103	1.0965e+02	-3.8999	-15.016126	0.000436	4.357986	1.476526	-0.000174
1104	1.0975e+02	-3.9368	-15.226057	0.000527	5.270123	1.785566	-0.000211
1105	1.0985e+02	-3.9897	-15.355246	0.000324	3.243153	1.098810	-0.000130
1106	1.0995e+02	-4.0282	-15.524805	0.000426	4.256638	1.442188	-0.000170
1107	1.1005e+02	-4.0587	-15.690328	0.000416	4.155289	1.407850	-0.000166
1108	1.1015e+02	-4.1084	-15.859888	0.000426	4.256638	1.442188	-0.000170
1109	1.1025e+02	-4.1293	-15.972928	0.000284	2.837758	0.961459	-0.000114
1110	1.1035e+02	-4.1790	-16.114227	0.000355	3.547198	1.201823	-0.000142
1111	1.1044e+02	-4.2207	-16.295898	0.000456	4.560683	1.545201	-0.000183
1112	1.1054e+02	-4.2641	-16.449310	0.000385	3.851244	1.304837	-0.000154
1113	1.1064e+02	-4.3074	-16.635018	0.000466	4.662032	1.579539	-0.000187
1114	1.1074e+02	-4.3362	-16.735946	0.000253	2.533713	0.858445	-0.000101
1115	1.1084e+02	-4.3876	-16.848986	0.000284	2.837758	0.961459	-0.000114
1116	1.1094e+02	-4.4213	-17.030657	0.000456	4.560683	1.545201	-0.000183
1117	1.1104e+02	-4.4598	-17.155808	0.000314	3.141804	1.064472	-0.000126
1118	1.1114e+02	-4.4999	-17.321331	0.000416	4.155289	1.407850	-0.000166
1119	1.1124e+02	-4.5352	-17.486853	0.000416	4.155289	1.407850	-0.000166
1120	1.1134e+02	-4.5849	-17.624116	0.000345	3.445850	1.167485	-0.000138
1121	1.1144e+02	-4.6170	-17.809824	0.000466	4.662032	1.579539	-0.000187
1122	1.1154e+02	-4.6635	-17.963235	0.000385	3.851244	1.304837	-0.000154
1123	1.1164e+02	-4.6956	-18.112609	0.000375	3.749895	1.270499	-0.000150
1124	1.1174e+02	-4.7389	-18.282169	0.000426	4.256638	1.442188	-0.000170
1125	1.1184e+02	-4.7774	-18.439617	0.000395	3.952592	1.339174	-0.000158
1126	1.1194e+02	-4.8223	-18.597066	0.000395	3.952592	1.339174	-0.000158
1127	1.1204e+02	-4.8560	-18.742403	0.000365	3.648547	1.236161	-0.000146
1128	1.1214e+02	-4.9025	-18.907925	0.000416	4.155289	1.407850	-0.000166
1129	1.1224e+02	-4.9475	-19.041151	0.000334	3.344501	1.133148	-0.000134
1130	1.1234e+02	-4.9763	-19.158228	0.000294	2.939107	0.995796	-0.000118
1131	1.1244e+02	-5.0277	-19.315676	0.000395	3.952592	1.339174	-0.000158
1132	1.1253e+02	-5.0565	-19.432753	0.000294	2.939107	0.995796	-0.000118
1133	1.1263e+02	-5.1031	-19.533681	0.000253	2.533713	0.858445	-0.000101
1134	1.1273e+02	-5.1384	-19.731501	0.000497	4.966077	1.682553	-0.000199
1135	1.1283e+02	-5.1785	-19.868764	0.000345	3.445850	1.167485	-0.000138
1136	1.1293e+02	-5.2234	-20.001989	0.000334	3.344501	1.133148	-0.000134
1137	1.1303e+02	-5.2587	-20.187697	0.000466	4.662032	1.579539	-0.000187
1138	1.1313e+02	-5.2988	-20.320923	0.000334	3.344501	1.133148	-0.000134
1139	1.1323e+02	-5.3421	-20.502594	0.000456	4.560683	1.545201	-0.000183
1140	1.1333e+02	-5.3742	-20.692339	0.000476	4.763380	1.613877	-0.000191
1141	1.1343e+02	-5.4095	-20.785193	0.000233	2.331016	0.789770	-0.000093
1142	1.1353e+02	-5.4480	-20.922456	0.000345	3.445850	1.167485	-0.000138
1143	1.1363e+02	-5.4993	-21.092016	0.000426	4.256638	1.442188	-0.000170
1144	1.1373e+02	-5.5458	-21.265613	0.000436	4.357986	1.476526	-0.000174
1145	1.1383e+02	-5.5811	-21.378652	0.000284	2.837758	0.961459	-0.000114
1146	1.1393e+02	-5.6180	-21.556286	0.000446	4.459335	1.510864	-0.000179
1147	1.1403e+02	-5.6581	-21.653178	0.000243	2.432364	0.824107	-0.000097
1148	1.1413e+02	-5.6966	-21.770254	0.000294	2.939107	0.995796	-0.000118
1149	1.1423e+02	-5.7448	-21.879257	0.000274	2.736410	0.927121	-0.000110
1150	1.1433e+02	-5.7849	-22.032668	0.000385	3.851244	1.304837	-0.000154
1151	1.1442e+02	-5.8202	-22.206265	0.000436	4.357986	1.476526	-0.000174
1152	1.1452e+02	-5.8651	-22.335453	0.000324	3.243153	1.098810	-0.000130
1153	1.1462e+02	-5.9100	-22.500976	0.000416	4.155289	1.407850	-0.000166
1154	1.1472e+02	-5.9228	-22.658424	0.000395	3.952592	1.339174	-0.000158
1155	1.1482e+02	-5.9790	-22.836058	0.000446	4.459335	1.510864	-0.000179
1156	1.1492e+02	-6.0127	-22.957172	0.000304	3.040456	1.030134	-0.000122
1157	1.1502e+02	-6.0560	-23.110584	0.000385	3.851244	1.304837	-0.000154
1158	1.1512e+02	-6.1025	-23.239772	0.000324	3.243153	1.098810	-0.000130
1159	1.1522e+02	-6.1330	-23.385109	0.000365	3.648547	1.236161	-0.000146
1160	1.1532e+02	-6.1715	-23.522371	0.000345	3.445850	1.167485	-0.000138
1161	1.1542e+02	-6.2196	-23.687894	0.000416	4.155289	1.407850	-0.000166
1162	1.1552e+02	-6.2581	-23.825157	0.000345	3.445850	1.167485	-0.000138
1163	1.1562e+02	-6.3014	-23.938196	0.000284	2.837758	0.961459	-0.000114
1164	1.1572e+02	-6.3367	-24.091608	0.000385	3.851244	1.304837	-0.000154
1165	1.1582e+02	-6.3736	-24.208684	0.000294	2.939107	0.995796	-0.000118
1166	1.1592e+02	-6.4250	-24.341910	0.000334	3.344501	1.133148	-0.000134
1167	1.1602e+02	-6.4522	-24.463024	0.000304	3.040456	1.030134	-0.000122
1168	1.1612e+02	-6.4939	-24.608361	0.000365	3.648547	1.236161	-0.000146
1169	1.1622e+02	-6.5308	-24.749661	0.000355	3.547198	1.201823	-0.000142
1170	1.1632e+02	-6.5790	-24.911146	0.000405	4.053941	1.373512	-0.000162
1171	1.1642e+02	-6.6046	-25.044372	0.000334	3.344501	1.133148	-0.000134
1172	1.1651e+02	-6.6511	-25.205857	0.000405	4.053941	1.373512	-0.000162
1173	1.1661e+02	-6.6961	-25.367342	0.000405	4.053941	1.373512	-0.000162
1174	1.1671e+02	-6.7346	-25.484419	0.000294	2.939107	0.995796	-0.000118
1175	1.1681e+02	-6.7763	-25.629756	0.000365	3.648547	1.236161	-0.000146
1176	1.1691e+02	-6.8084	-25.811427	0.000456	4.560683	1.545201	-0.000183
1177	1.1701e+02	-6.8597	-25.896207	0.000213	2.128319	0.721094	-0.000085
1178	1.1711e+02	-6.8902	-26.069804	0.000436	4.357986	1.476526	-0.000174
1179	1.1721e+02	-6.9303	-26.198992	0.000324	3.243153	1.098810	-0.000130
1180	1.1731e+02	-6.9768	-26.303958	0.000264	2.635061	0.892783	-0.000105
1181	1.1741e+02	-7.0137	-26.453332	0.000375	3.749895	1.270499	-0.000150
1182	1.1751e+02	-7.0538	-26.570409	0.000294	2.939107	0.995796	-0.000118
1183	1.1761e+02	-7.0939	-26.695560	0.000314	3.141804	1.064472	-0.000126
1184	1.1771e+02	-7.1228	-26.776303	0.000203	2.026970	0.686756	-0.000081
1185	1.1781e+02	-7.1661	-26.970085	0.000486	4.864729	1.648215	-0.000195
1186	1.1791e+02	-7.2078	-27.058902	0.000223	2.229667	0.755432	-0.000089
1187	1.1801e+02	-7.2495	-27.204239	0.000365	3.648547	1.236161	-0.000146
1188	1.1811e+02	-7.2896	-27.325353	0.000304	3.040456	1.030134	-0.000122
1189	1.1821e+02	-7.3346	-27.543359	0.000547	5.472820	1.854242	-0.000219
1190	1.1831e+02	-7.3682	-27.668510	0.000314	3.141804	1.064472	-0.000126
1191	1.1841e+02	-7.4019	-27.813847	0.000365	3.648547	1.236161	-0.000146
1192	1.1850e+02	-7.4452	-27.959184	0.000365	3.648547	1.236161	-0.000146
1193	1.1860e+02	-7.4966	-28.060112	0.000253	2.533713	0.858445	-0.000101
1194	1.1870e+02	-7.5287	-28.257932	0.000497	4.966077	1.682553	-0.000199
1195	1.1880e+02	-7.5688	-28.375009	0.000294	2.939107	0.995796	-0.000118
1196	1.1890e+02	-7.5976	-28.504197	0.000324	3.243153	1.098810	-0.000130
1197	1.1900e+02	-7.6458	-28.621274	0.000294	2.939107	0.995796	-0.000118
1198	1.1910e+02	-7.6843	-28.770648	0.000375	3.749895	1.270499	-0.000150
1199	1.1920e+02	-7.7276	-28.867539	0.000243	2.432364	0.824107	-0.000097
1200	1.1930e+02	-7.7677	-29.004802	0.000345	3.445850	1.167485	-0.000138
1201	1.1940e+02	-7.8158	-29.093619	0.000223	2.229667	0.755432	-0.000089
1202	1.1950e+02	-7.8415	-29.259141	0.000416	4.155289	1.407850	-0.000166
1203	1.1960e+02	-7.8960	-29.368144	0.000274	2.736410	0.927121	-0.000110
1204	1.1970e+02	-7.9265	-29.501369	0.000334	3.344501	1.133148	-0.000134
1205	1.1980e+02	-7.9682	-29.630558	0.000324	3.243153	1.098810	-0.000130
1206	1.1990e+02	-8.0035	-29.824340	0.000486	4.864729	1.648215	-0.000195
1207	1.2000e+02	-8.0404	-29.965640	0.000355	3.547198	1.201823	-0.000142
1208	1.2010e+02	-8.0869	-30.102903	0.000345	3.445850	1.167485	-0.000138
1209	1.2020e+02	-8.1319	-30.215942	0.000284	2.837758	0.961459	-0.000114
1210	1.2030e+02	-8.1543	-30.385502	0.000426	4.256638	1.442188	-0.000170
1211	1.2039e+02	-8.2105	-30.478356	0.000233	2.331016	0.789770	-0.000093
1212	1.2049e+02	-8.2329	-30.603507	0.000314	3.141804	1.064472	-0.000126
1213	1.2059e+02	-8.2746	-30.740770	0.000345	3.445850	1.167485	-0.000138
1214	1.2069e+02	-8.3163	-30.878033	0.000345	3.445850	1.167485	-0.000138
1215	1.2079e+02	-8.3725	-31.023370	0.000365	3.648547	1.236161	-0.000146
1216	1.2089e+02	-8.4078	-31.160632	0.000345	3.445850	1.167485	-0.000138
1217	1.2099e+02	-8.4463	-31.257523	0.000243	2.432364	0.824107	-0.000097
1218	1.2109e+02	-8.4816	-31.358452	0.000253	2.533713	0.858445	-0.000101
1219	1.2119e+02	-8.5281	-31.471492	0.000284	2.837758	0.961459	-0.000114
1220	1.2129e+02	-8.5666	-31.584531	0.000284	2.837758	0.961459	-0.000114
1221	1.2139e+02	-8.5971	-31.725831	0.000355	3.547198	1.201823	-0.000142
1222	1.2149e+02	-8.6324	-31.850982	0.000314	3.141804	1.064472	-0.000126
1223	1.2159e+02	-8.6805	-32.020542	0.000426	4.256638	1.442188	-0.000170
1224	1.2169e+02	-8.7222	-32.145693	0.000314	3.141804	1.064472	-0.000126
1225	1.2179e+02	-8.7591	-32.282956	0.000345	3.445850	1.167485	-0.000138
1226	1.2189e+02	-8.7976	-32.391959	0.000274	2.736410	0.927121	-0.000110
1227	1.2199e+02	-8.8409	-32.549407	0.000395	3.952592	1.339174	-0.000158
1228	1.2209e+02	-8.8858	-32.670521	0.000304	3.040456	1.030134	-0.000122
1229	1.2219e+02	-8.9195	-32.803746	0.000334	3.344501	1.133148	-0.000134
1230	1.2229e+02	-8.9628	-32.973306	0.000426	4.256638	1.442188	-0.000170
1231	1.2239e+02	-9.0014	-33.062123	0.000223	2.229667	0.755432	-0.000089
1232	1.2248e+02	-9.0415	-33.191311	0.000324	3.243153	1.098810	-0.000130
1233	1.2258e+02	-9.0784	-33.296277	0.000264	2.635061	0.892783	-0.000105
1234	1.2268e+02	-9.1265	-33.461800	0.000416	4.155289	1.407850	-0.000166
1235	1.2278e+02	-9.1634	-33.550617	0.000223	2.229667	0.755432	-0.000089
1236	1.2288e+02	-9.2003	-33.623285	0.000182	1.824273	0.618081	-0.000073
1237	1.2298e+02	-9.2436	-33.821105	0.000497	4.966077	1.682553	-0.000199
1238	1.2308e+02	-9.2789	-33.889736	0.000172	1.722925	0.583743	-0.000069
1239	1.2318e+02	-9.3286	-33.994701	0.000264	2.635061	0.892783	-0.000105
1240	1.2328e+02	-9.3687	-34.160224	0.000416	4.155289	1.407850	-0.000166
1241	1.2338e+02	-9.4008	-34.265190	0.000264	2.635061	0.892783	-0.000105
1242	1.2348e+02	-9.4409	-34.471083	0.000517	5.168774	1.751228	-0.000207
1243	1.2358e+02	-9.4858	-34.567975	0.000243	2.432364	0.824107	-0.000097
1244	1.2368e+02	-9.5211	-34.685052	0.000294	2.939107	0.995796	-0.000118
1245	1.2378e+02	-9.5516	-34.842500	0.000395	3.952592	1.339174	-0.000158
1246	1.2388e+02	-9.6029	-34.943428	0.000253	2.533713	0.858445	-0.000101
1247	1.2398e+02	-9.6430	-35.060505	0.000294	2.939107	0.995796	-0.000118
1248	1.2408e+02	-9.6767	-35.181619	0.000304	3.040456	1.030134	-0.000122
1249	1.2418e+02	-9.7136	-35.314845	0.000334	3.344501	1.133148	-0.000134
1250	1.2428e+02	-9.7618	-35.435959	0.000304	3.040456	1.030134	-0.000122
1251	1.2438e+02	-9.7987	-35.565147	0.000324	3.243153	1.098810	-0.000130
1252	1.2447e+02	-9.8356	-35.658001	0.000233	2.331016	0.789770	-0.000093
1253	1.2457e+02	-9.8853	-35.758930	0.000253	2.533713	0.858445	-0.000101
1254	1.2467e+02	-9.9238	-35.880044	0.000304	3.040456	1.030134	-0.000122
1255	1.2477e+02	-9.9607	-36.013269	0.000334	3.344501	1.133148	-0.000134
1256	1.2487e+02	-9.9992	-36.134383	0.000304	3.040456	1.030134	-0.000122
1257	1.2497e+02	-10.0345	-36.255497	0.000304	3.040456	1.030134	-0.000122
1258	1.2507e+02	-10.0746	-36.412946	0.000395	3.952592	1.339174	-0.000158
1259	1.2517e+02	-10.1083	-36.530023	0.000294	2.939107	0.995796	-0.000118
1260	1.2527e+02	-10.1548	-36.663248	0.000334	3.344501	1.133148	-0.000134
1261	1.2537e+02	-10.1901	-36.804548	0.000355	3.547198	1.201823	-0.000142
1262	1.2547e+02	-10.2334	-36.921625	0.000294	2.939107	0.995796	-0.000118
1263	1.2557e+02	-10.2847	-37.050813	0.000324	3.243153	1.098810	-0.000130
1264	1.2567e+02	-10.3072	-37.143667	0.000233	2.331016	0.789770	-0.000093
1265	1.2577e+02	-10.3473	-37.260744	0.000294	2.939107	0.995796	-0.000118
1266	1.2587e+02	-10.4034	-37.377821	0.000294	2.939107	0.995796	-0.000118
1267	1.2597e+02	-10.4420	-37.547381	0.000426	4.256638	1.442188	-0.000170
1268	1.2607e+02	-10.4660	-37.628124	0.000203	2.026970	0.686756	-0.000081
1269	1.2617e+02	-10.5222	-37.769423	0.000355	3.547198	1.201823	-0.000142
1270	1.2627e+02	-10.5542	-37.850166	0.000203	2.026970	0.686756	-0.000081
1271	1.2636e+02	-10.6040	-37.930909	0.000203	2.026970	0.686756	-0.000081
1272	1.2646e+02	-10.6377	-38.080283	0.000375	3.749895	1.270499	-0.000150
1273	1.2656e+02	-10.6826	-38.201397	0.000304	3.040456	1.030134	-0.000122
1274	1.2666e+02	-10.7083	-38.334622	0.000334	3.344501	1.133148	-0.000134
1275	1.2676e+02	-10.7548	-38.488034	0.000385	3.851244	1.304837	-0.000154
1276	1.2686e+02	-10.8077	-38.584925	0.000243	2.432364	0.824107	-0.000097
1277	1.2696e+02	-10.8302	-38.702002	0.000294	2.939107	0.995796	-0.000118
1278	1.2706e+02	-10.8767	-38.798893	0.000243	2.432364	0.824107	-0.000097
1279	1.2716e+02	-10.9120	-38.960378	0.000405	4.053941	1.373512	-0.000162
1280	1.2726e+02	-10.9569	-39.085530	0.000314	3.141804	1.064472	-0.000126
1281	1.2736e+02	-10.9954	-39.186458	0.000253	2.533713	0.858445	-0.000101
1282	1.2746e+02	-11.0387	-39.339869	0.000385	3.851244	1.304837	-0.000154
1283	1.2756e+02	-11.0724	-39.432723	0.000233	2.331016	0.789770	-0.000093
1284	1.2766e+02	-11.1141	-39.553837	0.000304	3.040456	1.030134	-0.000122
1285	1.2776e+02	-11.1590	-39.678989	0.000314	3.141804	1.064472	-0.000126
1286	1.2786e+02	-11.2024	-39.800103	0.000304	3.040456	1.030134	-0.000122
1287	1.2796e+02	-11.2360	-39.913142	0.000284	2.837758	0.961459	-0.000114
1288	1.2806e+02	-11.2745	-39.965625	0.000132	1.317531	0.446391	-0.000053
1289	1.2816e+02	-11.3147	-40.094814	0.000324	3.243153	1.098810	-0.000130
1290	1.2826e+02	-11.3516	-40.219965	0.000314	3.141804	1.064472	-0.000126
1291	1.2835e+02	-11.3917	-40.349153	0.000324	3.243153	1.098810	-0.000130
1292	1.2845e+02	-11.4302	-40.446044	0.000243	2.432364	0.824107	-0.000097
1293	1.2855e+02	-11.4751	-40.603493	0.000395	3.952592	1.339174	-0.000158
1294	1.2865e+02	-11.5136	-40.732681	0.000324	3.243153	1.098810	-0.000130
1295	1.2875e+02	-11.5553	-40.861869	0.000324	3.243153	1.098810	-0.000130
1296	1.2885e+02	-11.5858	-40.995095	0.000334	3.344501	1.133148	-0.000134
1297	1.2895e+02	-11.6275	-41.055652	0.000152	1.520228	0.515067	-0.000061
1298	1.2905e+02	-11.6644	-41.176766	0.000304	3.040456	1.030134	-0.000122
1299	1.2915e+02	-11.7093	-41.293843	0.000294	2.939107	0.995796	-0.000118
1300	1.2925e+02	-11.7526	-41.410920	0.000294	2.939107	0.995796	-0.000118
1301	1.2935e+02	-11.7879	-41.540108	0.000324	3.243153	1.098810	-0.000130
1302	1.2945e+02	-11.8408	-41.661222	0.000304	3.040456	1.030134	-0.000122
1303	1.2955e+02	-11.8697	-41.814633	0.000385	3.851244	1.304837	-0.000154
1304	1.2965e+02	-11.9130	-41.863079	0.000122	1.216182	0.412054	-0.000049
1305	1.2975e+02	-11.9403	-41.992267	0.000324	3.243153	1.098810	-0.000130
1306	1.2985e+02	-12.0013	-42.101270	0.000274	2.736410	0.927121	-0.000110
1307	1.2995e+02	-12.0382	-42.206236	0.000264	2.635061	0.892783	-0.000105
1308	1.3005e+02	-12.0622	-42.343498	0.000345	3.445850	1.167485	-0.000138
1309	1.3015e+02	-12.1087	-42.420204	0.000193	1.925622	0.652418	-0.000077
1310	1.3025e+02	-12.1424	-42.553429	0.000334	3.344501	1.133148	-0.000134
1311	1.3034e+02	-12.1986	-42.690692	0.000345	3.445850	1.167485	-0.000138
1312	1.3044e+02	-12.2259	-42.779509	0.000223	2.229667	0.755432	-0.000089
1313	1.3054e+02	-12.2692	-42.892549	0.000284	2.837758	0.961459	-0.000114
1314	1.3064e+02	-12.3109	-43.058071	0.000416	4.155289	1.407850	-0.000166
1315	1.3074e+02	-12.3430	-43.146888	0.000223	2.229667	0.755432	-0.000089
1316	1.3084e+02	-12.3959	-43.251854	0.000264	2.635061	0.892783	-0.000105
1317	1.3094e+02	-12.4360	-43.344708	0.000233	2.331016	0.789770	-0.000093
1318	1.3104e+02	-12.4697	-43.506193	0.000405	4.053941	1.373512	-0.000162
1319	1.3114e+02	-12.5066	-43.582899	0.000193	1.925622	0.652418	-0.000077
1320	1.3124e+02	-12.5451	-43.683827	0.000253	2.533713	0.858445	-0.000101
1321	1.3134e+02	-12.5948	-43.804941	0.000304	3.040456	1.030134	-0.000122
1322	1.3144e+02	-12.6237	-43.905870	0.000253	2.533713	0.858445	-0.000101
1323	1.3154e+02	-12.6654	-44.063318	0.000395	3.952592	1.339174	-0.000158
1324	1.3164e+02	-12.7071	-44.156172	0.000233	2.331016	0.789770	-0.000093
1325	1.3174e+02	-12.7424	-44.297472	0.000355	3.547198	1.201823	-0.000142
1326	1.3184e+02	-12.7809	-44.442809	0.000365	3.648547	1.236161	-0.000146
1327	1.3194e+02	-12.8226	-44.515477	0.000182	1.824273	0.618081	-0.000073
1328	1.3204e+02	-12.8595	-44.592183	0.000193	1.925622	0.652418	-0.000077
1329	1.3214e+02	-12.9012	-44.741557	0.000375	3.749895	1.270499	-0.000150
1330	1.3224e+02	-12.9574	-44.838448	0.000243	2.432364	0.824107	-0.000097
1331	1.3234e+02	-12.9798	-44.919191	0.000203	2.026970	0.686756	-0.000081
1332	1.3243e+02	-13.0264	-45.088750	0.000426	4.256638	1.442188	-0.000170
1333	1.3253e+02	-13.0601	-45.153345	0.000162	1.621576	0.549405	-0.000065
1334	1.3263e+02	-13.1066	-45.335016	0.000456	4.560683	1.545201	-0.000183
1335	1.3273e+02	-13.1563	-45.403647	0.000172	1.722925	0.583743	-0.000069
1336	1.3283e+02	-13.1820	-45.520724	0.000294	2.939107	0.995796	-0.000118
1337	1.3293e+02	-13.2253	-45.641838	0.000304	3.040456	1.030134	-0.000122
1338	1.3303e+02	-13.2798	-45.730655	0.000223	2.229667	0.755432	-0.000089
1339	1.3313e+02	-13.3039	-45.815435	0.000213	2.128319	0.721094	-0.000085
1340	1.3323e+02	-13.3504	-45.968846	0.000385	3.851244	1.304837	-0.000154
1341	1.3333e+02	-13.3809	-46.085923	0.000294	2.939107	0.995796	-0.000118
1342	1.3343e+02	-13.4258	-46.255483	0.000426	4.256638	1.442188	-0.000170
1343	1.3353e+02	-13.4611	-46.324114	0.000172	1.722925	0.583743	-0.000069
1344	1.3363e+02	-13.4980	-46.421005	0.000243	2.432364	0.824107	-0.000097
1345	1.3373e+02	-13.5397	-46.525971	0.000264	2.635061	0.892783	-0.000105
1346	1.3383e+02	-13.5862	-46.659196	0.000334	3.344501	1.133148	-0.000134
1347	1.3393e+02	-13.6199	-46.768199	0.000274	2.736410	0.927121	-0.000110
1348	1.3403e+02	-13.6633	-46.848942	0.000203	2.026970	0.686756	-0.000081
1349	1.3413e+02	-13.7066	-46.929684	0.000203	2.026970	0.686756	-0.000081
1350	1.3423e+02	-13.7451	-47.054836	0.000314	3.141804	1.064472	-0.000126
1351	1.3432e+02	-13.7772	-47.196135	0.000355	3.547198	1.201823	-0.000142
1352	1.3442e+02	-13.8173	-47.272841	0.000193	1.925622	0.652418	-0.000077
1353	1.3452e+02	-13.8590	-47.402029	0.000324	3.243153	1.098810	-0.000130
1354	1.3462e+02	-13.9087	-47.511032	0.000274	2.736410	0.927121	-0.000110
1355	1.3472e+02	-13.9456	-47.599849	0.000223	2.229667	0.755432	-0.000089
1356	1.3482e+02	-13.9841	-47.704814	0.000264	2.635061	0.892783	-0.000105
1357	1.3492e+02	-14.0242	-47.838040	0.000334	3.344501	1.133148	-0.000134
1358	1.3502e+02	-14.0627	-47.963191	0.000314	3.141804	1.064472	-0.000126
1359	1.3512e+02	-14.0948	-48.076231	0.000284	2.837758	0.961459	-0.000114
1360	1.3522e+02	-14.1349	-48.233679	0.000395	3.952592	1.339174	-0.000158
1361	1.3532e+02	-14.1766	-48.314422	0.000203	2.026970	0.686756	-0.000081
1362	1.3542e+02	-14.2167	-48.399202	0.000213	2.128319	0.721094	-0.000085
1363	1.3552e+02	-14.2600	-48.500130	0.000253	2.533713	0.858445	-0.000101
1364	1.3562e+02	-14.2969	-48.601059	0.000253	2.533713	0.858445	-0.000101
1365	1.3572e+02	-14.3515	-48.661616	0.000152	1.520228	0.515067	-0.000061
1366	1.3582e+02	-14.3771	-48.815027	0.000385	3.851244	1.304837	-0.000154
1367	1.3592e+02	-14.4188	-48.895769	0.000203	2.026970	0.686756	-0.000081
1368	1.3602e+02	-14.4573	-49.045144	0.000375	3.749895	1.270499	-0.000150
1369	1.3612e+02	-14.5023	-49.081478	0.000091	0.912137	0.309040	-0.000037
1370	1.3622e+02	-14.5408	-49.242963	0.000405	4.053941	1.373512	-0.000162
1371	1.3631e+02	-14.5712	-49.364077	0.000304	3.040456	1.030134	-0.000122
1372	1.3641e+02	-14.6226	-49.489228	0.000314	3.141804	1.064472	-0.000126
1373	1.3651e+02	-14.6547	-49.594194	0.000264	2.635061	0.892783	-0.000105
1374	1.3661e+02	-14.6980	-49.699160	0.000264	2.635061	0.892783	-0.000105
1375	1.3671e+02	-14.7333	-49.828348	0.000324	3.243153	1.098810	-0.000130
1376	1.3681e+02	-14.7830	-49.933313	0.000264	2.635061	0.892783	-0.000105
1377	1.3691e+02	-14.8087	-50.062502	0.000324	3.243153	1.098810	-0.000130
1378	1.3701e+02	-14.8616	-50.171504	0.000274	2.736410	0.927121	-0.000110
1379	1.3711e+02	-14.8937	-50.211876	0.000101	1.013485	0.343378	-0.000041
1380	1.3721e+02	-14.9338	-50.328953	0.000294	2.939107	0.995796	-0.000118
1381	1.3731e+02	-14.9707	-50.405658	0.000193	1.925622	0.652418	-0.000077
1382	1.3741e+02	-15.0172	-50.559069	0.000385	3.851244	1.304837	-0.000154
1383	1.3751e+02	-15.0621	-50.651924	0.000233	2.331016	0.789770	-0.000093
1384	1.3761e+02	-15.0942	-50.760926	0.000274	2.736410	0.927121	-0.000110
1385	1.3771e+02	-15.1343	-50.894152	0.000334	3.344501	1.133148	-0.000134
1386	1.3781e+02	-15.1825	-50.974894	0.000203	2.026970	0.686756	-0.000081
1387	1.3791e+02	-15.2161	-51.071786	0.000243	2.432364	0.824107	-0.000097
1388	1.3801e+02	-15.2579	-51.176751	0.000264	2.635061	0.892783	-0.000105
1389	1.3811e+02	-15.2932	-51.273642	0.000243	2.432364	0.824107	-0.000097
1390	1.3821e+02	-15.3317	-51.390719	0.000294	2.939107	0.995796	-0.000118
1391	1.3831e+02	-15.3846	-51.483573	0.000233	2.331016	0.789770	-0.000093
1392	1.3840e+02	-15.4199	-51.572390	0.000223	2.229667	0.755432	-0.000089
1393	1.3850e+02	-15.4568	-51.717727	0.000365	3.648547	1.236161	-0.000146
1394	1.3860e+02	-15.5001	-51.798470	0.000203	2.026970	0.686756	-0.000081
1395	1.3870e+02	-15.5290	-51.927658	0.000324	3.243153	1.098810	-0.000130
1396	1.3880e+02	-15.5803	-52.032624	0.000264	2.635061	0.892783	-0.000105
1397	1.3890e+02	-15.6076	-52.097218	0.000162	1.621576	0.549405	-0.000065
1398	1.3900e+02	-15.6605	-52.222369	0.000314	3.141804	1.064472	-0.000126
1399	1.3910e+02	-15.7038	-52.347521	0.000314	3.141804	1.064472	-0.000126
1400	1.3920e+02	-15.7423	-52.444412	0.000243	2.432364	0.824107	-0.000097
1401	1.3930e+02	-15.7744	-52.533229	0.000223	2.229667	0.755432	-0.000089
1402	1.3940e+02	-15.8161	-52.638194	0.000264	2.635061	0.892783	-0.000105
1403	1.3950e+02	-15.8578	-52.743160	0.000264	2.635061	0.892783	-0.000105
1404	1.3960e+02	-15.8931	-52.864274	0.000304	3.040456	1.030134	-0.000122
1405	1.3970e+02	-15.9413	-52.953091	0.000223	2.229667	0.755432	-0.000089
1406	1.3980e+02	-15.9733	-53.086316	0.000334	3.344501	1.133148	-0.000134
1407	1.3990e+02	-16.0247	-53.187245	0.000253	2.533713	0.858445	-0.000101
1408	1.4000e+02	-16.0503	-53.243765	0.000142	1.418879	0.480729	-0.000057
1409	1.4010e+02	-16.1017	-53.376990	0.000334	3.344501	1.133148	-0.000134
1410	1.4020e+02	-16.1322	-53.490030	0.000284	2.837758	0.961459	-0.000114
1411	1.4029e+02	-16.1691	-53.582884	0.000233	2.331016	0.789770	-0.000093
1412	1.4039e+02	-16.2124	-53.752444	0.000426	4.256638	1.442188	-0.000170
1413	1.4049e+02	-16.2621	-53.813001	0.000152	1.520228	0.515067	-0.000061
1414	1.4059e+02	-16.2878	-53.938152	0.000314	3.141804	1.064472	-0.000126
1415	1.4069e+02	-16.3375	-54.039080	0.000253	2.533713	0.858445	-0.000101
1416	1.4079e+02	-16.3760	-54.119823	0.000203	2.026970	0.686756	-0.000081
1417	1.4089e+02	-16.4065	-54.204603	0.000213	2.128319	0.721094	-0.000085
1418	1.4099e+02	-16.4530	-54.325717	0.000304	3.040456	1.030134	-0.000122
1419	1.4109e+02	-16.4899	-54.410497	0.000213	2.128319	0.721094	-0.000085
1420	1.4119e+02	-16.5380	-54.527574	0.000294	2.939107	0.995796	-0.000118
1421	1.4129e+02	-16.5797	-54.616391	0.000223	2.229667	0.755432	-0.000089
1422	1.4139e+02	-16.6022	-54.761728	0.000365	3.648547	1.236161	-0.000146
1423	1.4149e+02	-16.6487	-54.834396	0.000182	1.824273	0.618081	-0.000073
1424	1.4159e+02	-16.6985	-54.955510	0.000304	3.040456	1.030134	-0.000122
1425	1.4169e+02	-16.7370	-55.068550	0.000284	2.837758	0.961459	-0.000114
1426	1.4179e+02	-16.7626	-55.185627	0.000294	2.939107	0.995796	-0.000118
1427	1.4189e+02	-16.7995	-55.298667	0.000284	2.837758	0.961459	-0.000114
1428	1.4199e+02	-16.8493	-55.395558	0.000243	2.432364	0.824107	-0.000097
1429	1.4209e+02	-16.8910	-55.544932	0.000375	3.749895	1.270499	-0.000150
1430	1.4219e+02	-16.9263	-55.593378	0.000122	1.216182	0.412054	-0.000049
1431	1.4228e+02	-16.9680	-55.694306	0.000253	2.533713	0.858445	-0.000101
1432	1.4238e+02	-17.0049	-55.783123	0.000223	2.229667	0.755432	-0.000089
1433	1.4248e+02	-17.0402	-55.896163	0.000284	2.837758	0.961459	-0.000114
1434	1.4258e+02	-17.0867	-56.005166	0.000274	2.736410	0.927121	-0.000110
1435	1.4268e+02	-17.1316	-56.089945	0.000213	2.128319	0.721094	-0.000085
1436	1.4278e+02	-17.1765	-56.219134	0.000324	3.243153	1.098810	-0.000130
1437	1.4288e+02	-17.2118	-56.320062	0.000253	2.533713	0.858445	-0.000101
1438	1.4298e+02	-17.2503	-56.437139	0.000294	2.939107	0.995796	-0.000118
1439	1.4308e+02	-17.2984	-56.513845	0.000193	1.925622	0.652418	-0.000077
1440	1.4318e+02	-17.3273	-56.606699	0.000233	2.331016	0.789770	-0.000093
1441	1.4328e+02	-17.3674	-56.739924	0.000334	3.344501	1.133148	-0.000134
1442	1.4338e+02	-17.4091	-56.812593	0.000182	1.824273	0.618081	-0.000073
1443	1.4348e+02	-17.4557	-56.998301	0.000466	4.662032	1.579539	-0.000187
1444	1.4358e+02	-17.4958	-57.103266	0.000264	2.635061	0.892783	-0.000105
1445	1.4368e+02	-17.5295	-57.220343	0.000294	2.939107	0.995796	-0.000118
1446	1.4378e+02	-17.5631	-57.272826	0.000132	1.317531	0.446391	-0.000053
1447	1.4388e+02	-17.5968	-57.361643	0.000223	2.229667	0.755432	-0.000089
1448	1.4398e+02	-17.6530	-57.474683	0.000284	2.837758	0.961459	-0.000114
1449	1.4408e+02	-17.6931	-57.599834	0.000314	3.141804	1.064472	-0.000126
1450	1.4418e+02	-17.7316	-57.724985	0.000314	3.141804	1.064472	-0.000126
1451	1.4428e+02	-17.7685	-57.809765	0.000213	2.128319	0.721094	-0.000085
1452	1.4437e+02	-17.8022	-57.942991	0.000334	3.344501	1.133148	-0.000134
1453	1.4447e+02	-17.8471	-58.015659	0.000182	1.824273	0.618081	-0.000073
1454	1.4457e+02	-17.8904	-58.120625	0.000264	2.635061	0.892783	-0.000105
1455	1.4467e+02	-17.9305	-58.229627	0.000274	2.736410	0.927121	-0.000110
1456	1.4477e+02	-17.9674	-58.298259	0.000172	1.722925	0.583743	-0.000069
1457	1.4487e+02	-18.0091	-58.431484	0.000334	3.344501	1.133148	-0.000134
1458	1.4497e+02	-18.0428	-58.548561	0.000294	2.939107	0.995796	-0.000118
1459	1.4507e+02	-18.0861	-58.637378	0.000223	2.229667	0.755432	-0.000089
1460	1.4517e+02	-18.1198	-58.766566	0.000324	3.243153	1.098810	-0.000130
1461	1.4527e+02	-18.1583	-58.919978	0.000385	3.851244	1.304837	-0.000154
1462	1.4537e+02	-18.2032	-58.996683	0.000193	1.925622	0.652418	-0.000077
1463	1.4547e+02	-18.2385	-59.093574	0.000243	2.432364	0.824107	-0.000097
1464	1.4557e+02	-18.2931	-59.202577	0.000274	2.736410	0.927121	-0.000110
1465	1.4567e+02	-18.3316	-59.307543	0.000264	2.635061	0.892783	-0.000105
1466	1.4577e+02	-18.3685	-59.412508	0.000264	2.635061	0.892783	-0.000105
1467	1.4587e+02	-18.4102	-59.525548	0.000284	2.837758	0.961459	-0.000114
1468	1.4597e+02	-18.4503	-59.573994	0.000122	1.216182	0.412054	-0.000049
1469	1.4607e+02	-18.4808	-59.719330	0.000365	3.648547	1.236161	-0.000146
1470	1.4617e+02	-18.5193	-59.791999	0.000182	1.824273	0.618081	-0.000073
1471	1.4626e+02	-18.5722	-59.925224	0.000334	3.344501	1.133148	-0.000134
1472	1.4636e+02	-18.6075	-60.038264	0.000284	2.837758	0.961459	-0.000114
1473	1.4646e+02	-18.6412	-60.167452	0.000324	3.243153	1.098810	-0.000130
1474	1.4656e+02	-18.6893	-60.276455	0.000274	2.736410	0.927121	-0.000110
1475	1.4666e+02	-18.7182	-60.357198	0.000203	2.026970	0.686756	-0.000081
1476	1.4676e+02	-18.7647	-60.462163	0.000264	2.635061	0.892783	-0.000105
1477	1.4686e+02	-18.8032	-60.619612	0.000395	3.952592	1.339174	-0.000158
1478	1.4696e+02	-18.8481	-60.752837	0.000334	3.344501	1.133148	-0.000134
1479	1.4706e+02	-18.8818	-60.886063	0.000334	3.344501	1.133148	-0.000134
1480	1.4716e+02	-18.9187	-60.950657	0.000162	1.621576	0.549405	-0.000065
1481	1.4726e+02	-18.9652	-61.063697	0.000284	2.837758	0.961459	-0.000114
1482	1.4736e+02	-18.9925	-61.156551	0.000233	2.331016	0.789770	-0.000093
1483	1.4746e+02	-19.0438	-61.249405	0.000233	2.331016	0.789770	-0.000093
1484	1.4756e+02	-19.0888	-61.382630	0.000334	3.344501	1.133148	-0.000134
1485	1.4766e+02	-19.1176	-61.487596	0.000264	2.635061	0.892783	-0.000105
1486	1.4776e+02	-19.1610	-61.632933	0.000365	3.648547	1.236161	-0.000146
1487	1.4786e+02	-19.2107	-61.729824	0.000243	2.432364	0.824107	-0.000097
1488	1.4796e+02	-19.2444	-61.802492	0.000182	1.824273	0.618081	-0.000073
1489	1.4806e+02	-19.2813	-61.955904	0.000385	3.851244	1.304837	-0.000154
1490	1.4816e+02	-19.3230	-62.048758	0.000233	2.331016	0.789770	-0.000093
1491	1.4825e+02	-19.3599	-62.169872	0.000304	3.040456	1.030134	-0.000122
1492	1.4835e+02	-19.4064	-62.295023	0.000314	3.141804	1.064472	-0.000126
1493	1.4845e+02	-19.4401	-62.363654	0.000172	1.722925	0.583743	-0.000069
1494	1.4855e+02	-19.4818	-62.464583	0.000253	2.533713	0.858445	-0.000101
1495	1.4865e+02	-19.5155	-62.605882	0.000355	3.547198	1.201823	-0.000142
1496	1.4875e+02	-19.5556	-62.735071	0.000324	3.243153	1.098810	-0.000130
1497	1.4885e+02	-19.5989	-62.848111	0.000284	2.837758	0.961459	-0.000114
1498	1.4895e+02	-19.6374	-62.945002	0.000243	2.432364	0.824107	-0.000097
1499	1.4905e+02	-19.6727	-63.078227	0.000334	3.344501	1.133148	-0.000134
1500	1.4915e+02	-19.7144	-63.211453	0.000334	3.344501	1.133148	-0.000134
1501	1.4925e+02	-19.7625	-63.312381	0.000253	2.533713	0.858445	-0.000101
1502	1.4935e+02	-19.7882	-63.425421	0.000284	2.837758	0.961459	-0.000114
1503	1.4945e+02	-19.8267	-63.538461	0.000284	2.837758	0.961459	-0.000114
1504	1.4955e+02	-19.8668	-63.647463	0.000274	2.736410	0.927121	-0.000110
1505	1.4965e+02	-19.9214	-63.829135	0.000456	4.560683	1.545201	-0.000183
1506	1.4975e+02	-19.9647	-63.873543	0.000111	1.114834	0.377716	-0.000045
1507	1.4985e+02	-19.9903	-64.018880	0.000365	3.648547	1.236161	-0.000146
1508	1.4995e+02	-19.9599	-63.930063	0.000223	2.229667	0.755432	0.000089
1509	1.5005e+02	-19.9085	-63.877580	0.000132	1.317531	0.446391	0.000053
1510	1.5015e+02	-19.8829	-63.845283	0.000081	0.810788	0.274702	0.000032
1511	1.5025e+02	-19.8347	-63.796838	0.000122	1.216182	0.412054	0.000049
1512	1.5034e+02	-19.7882	-63.712058	0.000213	2.128319	0.721094	0.000085
1513	1.5044e+02	-19.7641	-63.663612	0.000122	1.216182	0.412054	0.000049
1514	1.5054e+02	-19.7240	-63.635352	0.000071	0.709440	0.240365	0.000028
1515	1.5064e+02	-19.6775	-63.542498	0.000233	2.331016	0.789770	0.000093
1516	1.5074e+02	-19.6278	-63.469830	0.000182	1.824273	0.618081	0.000073
1517	1.5084e+02	-19.5973	-63.429458	0.000101	1.013485	0.343378	0.000041
1518	1.5094e+02	-19.5572	-63.389087	0.000101	1.013485	0.343378	0.000041
1519	1.5104e+02	-19.5235	-63.304307	0.000213	2.128319	0.721094	0.000085
1520	1.5114e+02	-19.4834	-63.243750	0.000152	1.520228	0.515067	0.000061
1521	1.5124e+02	-19.4449	-63.175119	0.000172	1.722925	0.583743	0.000069
1522	1.5134e+02	-19.3984	-63.118599	0.000142	1.418879	0.480729	0.000057
1523	1.5144e+02	-19.3615	-63.049967	0.000172	1.722925	0.583743	0.000069
1524	1.5154e+02	-19.3134	-62.981336	0.000172	1.722925	0.583743	0.000069
1525	1.5164e+02	-19.2781	-62.928853	0.000132	1.317531	0.446391	0.000053
1526	1.5174e+02	-19.2460	-62.880408	0.000122	1.216182	0.412054	0.000049
1527	1.5184e+02	-19.2027	-62.827925	0.000132	1.317531	0.446391	0.000053
1528	1.5194e+02	-19.1642	-62.722959	0.000264	2.635061	0.892783	0.000105
1529	1.5204e+02	-19.1257	-62.650291	0.000182	1.824273	0.618081	0.000073
1530	1.5214e+02	-19.0856	-62.581660	0.000172	1.722925	0.583743	0.000069
1531	1.5224e+02	-19.0358	-62.549363	0.000081	0.810788	0.274702	0.000032
1532	1.5233e+02	-18.9973	-62.440360	0.000274	2.736410	0.927121	0.000110
1533	1.5243e+02	-18.9620	-62.355580	0.000213	2.128319	0.721094	0.000085
1534	1.5253e+02	-18.9107	-62.282912	0.000182	1.824273	0.618081	0.000073
1535	1.5263e+02	-18.8834	-62.234466	0.000122	1.216182	0.412054	0.000049
1536	1.5273e+02	-18.8353	-62.133538	0.000253	2.533713	0.858445	0.000101
1537	1.5283e+02	-18.8064	-62.048758	0.000213	2.128319	0.721094	0.000085
1538	1.5293e+02	-18.7679	-62.032609	0.000041	0.405394	0.137351	0.000016
1539	1.5303e+02	-18.7198	-61.919569	0.000284	2.837758	0.961459	0.000114
1540	1.5313e+02	-18.6845	-61.859012	0.000152	1.520228	0.515067	0.000061
1541	1.5323e+02	-18.6428	-61.846901	0.000030	0.304046	0.103013	0.000012
1542	1.5333e+02	-18.6107	-61.721750	0.000314	3.141804	1.064472	0.000126
1543	1.5343e+02	-18.5658	-61.624858	0.000243	2.432364	0.824107	0.000097
1544	1.5353e+02	-18.5353	-61.560264	0.000162	1.621576	0.549405	0.000065
1545	1.5363e+02	-18.4808	-61.479522	0.000203	2.026970	0.686756	0.000081
1546	1.5373e+02	-18.4407	-61.451262	0.000071	0.709440	0.240365	0.000028
1547	1.5383e+02	-18.3957	-61.362445	0.000223	2.229667	0.755432	0.000089
1548	1.5393e+02	-18.3637	-61.281702	0.000203	2.026970	0.686756	0.000081
1549	1.5403e+02	-18.3268	-61.200959	0.000203	2.026970	0.686756	0.000081
1550	1.5413e+02	-18.2754	-61.112142	0.000223	2.229667	0.755432	0.000089
1551	1.5422e+02	-18.2546	-61.031400	0.000203	2.026970	0.686756	0.000081
1552	1.5432e+02	-18.2080	-60.982954	0.000122	1.216182	0.412054	0.000049
1553	1.5442e+02	-18.1695	-60.877988	0.000264	2.635061	0.892783	0.000105
1554	1.5452e+02	-18.1230	-60.764949	0.000284	2.837758	0.961459	0.000114
1555	1.5462e+02	-18.0861	-60.708429	0.000142	1.418879	0.480729	0.000057
1556	1.5472e+02	-18.0524	-60.623649	0.000213	2.128319	0.721094	0.000085
1557	1.5482e+02	-18.0123	-60.522720	0.000253	2.533713	0.858445	0.000101
1558	1.5492e+02	-17.9642	-60.470238	0.000132	1.317531	0.446391	0.000053
1559	1.5502e+02	-17.9353	-60.365272	0.000264	2.635061	0.892783	0.000105
1560	1.5512e+02	-17.8808	-60.260307	0.000264	2.635061	0.892783	0.000105
1561	1.5522e+02	-17.8471	-60.248195	0.000030	0.304046	0.103013	0.000012
1562	1.5532e+02	-17.7990	-60.119007	0.000324	3.243153	1.098810	0.000130
1563	1.5542e+02	-17.7701	-60.094784	0.000061	0.608091	0.206027	0.000024
1564	1.5552e+02	-17.7204	-60.038264	0.000142	1.418879	0.480729	0.000057
1565	1.5562e+02	-17.6835	-59.961559	0.000193	1.925622	0.652418	0.000077
1566	1.5572e+02	-17.6434	-59.864667	0.000243	2.432364	0.824107	0.000097
1567	1.5582e+02	-17.6097	-59.787962	0.000193	1.925622	0.652418	0.000077
1568	1.5592e+02	-17.5696	-59.622439	0.000416	4.155289	1.407850	0.000166
1569	1.5602e+02	-17.5262	-59.549771	0.000182	1.824273	0.618081	0.000073
1570	1.5612e+02	-17.4942	-59.497288	0.000132	1.317531	0.446391	0.000053
1571	1.5622e+02	-17.4460	-59.384248	0.000284	2.837758	0.961459	0.000114
1572	1.5631e+02	-17.4091	-59.299468	0.000213	2.128319	0.721094	0.000085
1573	1.5641e+02	-17.3722	-59.238911	0.000152	1.520228	0.515067	0.000061
1574	1.5651e+02	-17.3402	-59.109723	0.000324	3.243153	1.098810	0.000130
1575	1.5661e+02	-17.2904	-59.081463	0.000071	0.709440	0.240365	0.000028
1576	1.5671e+02	-17.2471	-58.968423	0.000284	2.837758	0.961459	0.000114
1577	1.5681e+02	-17.2134	-58.887680	0.000203	2.026970	0.686756	0.000081
1578	1.5691e+02	-17.1669	-58.798863	0.000223	2.229667	0.755432	0.000089
1579	1.5701e+02	-17.1284	-58.758492	0.000101	1.013485	0.343378	0.000041
1580	1.5711e+02	-17.0851	-58.665638	0.000233	2.331016	0.789770	0.000093
1581	1.5721e+02	-17.0482	-58.576821	0.000223	2.229667	0.755432	0.000089
1582	1.5731e+02	-17.0065	-58.516264	0.000152	1.520228	0.515067	0.000061
1583	1.5741e+02	-16.9696	-58.439558	0.000193	1.925622	0.652418	0.000077
1584	1.5751e+02	-16.9327	-58.334593	0.000264	2.635061	0.892783	0.000105
1585	1.5761e+02	-16.8878	-58.245776	0.000223	2.229667	0.755432	0.000089
1586	1.5771e+02	-16.8541	-58.116588	0.000324	3.243153	1.098810	0.000130
1587	1.5781e+02	-16.8059	-58.051993	0.000162	1.621576	0.549405	0.000065
1588	1.5791e+02	-16.7690	-57.906656	0.000365	3.648547	1.236161	0.000146
1589	1.5801e+02	-16.7338	-57.858211	0.000122	1.216182	0.412054	0.000049
1590	1.5811e+02	-16.6872	-57.753245	0.000264	2.635061	0.892783	0.000105
1591	1.5821e+02	-16.6503	-57.640205	0.000284	2.837758	0.961459	0.000114
1592	1.5830e+02	-16.6134	-57.603871	0.000091	0.912137	0.309040	0.000037
1593	1.5840e+02	-16.5765	-57.498906	0.000264	2.635061	0.892783	0.000105
1594	1.5850e+02	-16.5445	-57.462572	0.000091	0.912137	0.309040	0.000037
1595	1.5860e+02	-16.4899	-57.301086	0.000405	4.053941	1.373512	0.000162
1596	1.5870e+02	-16.4450	-57.313198	-0.000030	-0.304046	-0.103013	-0.000012
1597	1.5880e+02	-16.4113	-57.220343	0.000233	2.331016	0.789770	0.000093
1598	1.5890e+02	-16.3712	-57.119415	0.000253	2.533713	0.858445	0.000101
1599	1.5900e+02	-16.3359	-57.018487	0.000253	2.533713	0.858445	0.000101
1600	1.5910e+02	-16.2974	-56.949855	0.000172	1.722925	0.583743	0.000069
1601	1.5920e+02	-16.2477	-56.852964	0.000243	2.432364	0.824107	0.000097
1602	1.5930e+02	-16.2076	-56.772221	0.000203	2.026970	0.686756	0.000081
1603	1.5940e+02	-16.1787	-56.602662	0.000426	4.256638	1.442188	0.000170
1604	1.5950e+02	-16.1386	-56.558253	0.000111	1.114834	0.377716	0.000045
1605	1.5960e+02	-16.0937	-56.441176	0.000294	2.939107	0.995796	0.000118
1606	1.5970e+02	-16.0487	-56.344285	0.000243	2.432364	0.824107	0.000097
1607	1.5980e+02	-16.0135	-56.283728	0.000152	1.520228	0.515067	0.000061
1608	1.5990e+02	-15.9733	-56.150502	0.000334	3.344501	1.133148	0.000134
1609	1.6000e+02	-15.9364	-56.085908	0.000162	1.621576	0.549405	0.000065
1610	1.6010e+02	-15.8979	-55.993054	0.000233	2.331016	0.789770	0.000093
1611	1.6019e+02	-15.8514	-55.932497	0.000152	1.520228	0.515067	0.000061
1612	1.6029e+02	-15.8129	-55.799272	0.000334	3.344501	1.133148	0.000134
1613	1.6039e+02	-15.7712	-55.746789	0.000132	1.317531	0.446391	0.000053
1614	1.6049e+02	-15.7391	-55.694306	0.000132	1.317531	0.446391	0.000053
1615	1.6059e+02	-15.6942	-55.637786	0.000142	1.418879	0.480729	0.000057
1616	1.6069e+02	-15.6445	-55.536858	0.000253	2.533713	0.858445	0.000101
1617	1.6079e+02	-15.6028	-55.399595	0.000345	3.445850	1.167485	0.000138
1618	1.6089e+02	-15.5771	-55.339038	0.000152	1.520228	0.515067	0.000061
1619	1.6099e+02	-15.5386	-55.230035	0.000274	2.736410	0.927121	0.000110
1620	1.6109e+02	-15.5001	-55.116996	0.000284	2.837758	0.961459	0.000114
1621	1.6119e+02	-15.4520	-54.975696	0.000355	3.547198	1.201823	0.000142
1622	1.6129e+02	-15.4215	-54.886879	0.000223	2.229667	0.755432	0.000089
1623	1.6139e+02	-15.3814	-54.834396	0.000132	1.317531	0.446391	0.000053
1624	1.6149e+02	-15.3300	-54.717319	0.000294	2.939107	0.995796	0.000118
1625	1.6159e+02	-15.2980	-54.628502	0.000223	2.229667	0.755432	0.000089
1626	1.6169e+02	-15.2579	-54.519500	0.000274	2.736410	0.927121	0.000110
1627	1.6179e+02	-15.2178	-54.430683	0.000223	2.229667	0.755432	0.000089
1628	1.6189e+02	-15.1873	-54.317643	0.000284	2.837758	0.961459	0.000114
1629	1.6199e+02	-15.1359	-54.232863	0.000213	2.128319	0.721094	0.000085
1630	1.6209e+02	-15.0958	-54.160194	0.000182	1.824273	0.618081	0.000073
1631	1.6219e+02	-15.0589	-54.119823	0.000101	1.013485	0.343378	0.000041
1632	1.6228e+02	-15.0156	-54.031006	0.000223	2.229667	0.755432	0.000089
1633	1.6238e+02	-14.9707	-53.901818	0.000324	3.243153	1.098810	0.000130
1634	1.6248e+02	-14.9370	-53.825112	0.000193	1.925622	0.652418	0.000077
1635	1.6258e+02	-14.8921	-53.764555	0.000152	1.520228	0.515067	0.000061
1636	1.6268e+02	-14.8584	-53.635367	0.000324	3.243153	1.098810	0.000130
1637	1.6278e+02	-14.8119	-53.490030	0.000365	3.648547	1.236161	0.000146
1638	1.6288e+02	-14.7782	-53.397176	0.000233	2.331016	0.789770	0.000093
1639	1.6298e+02	-14.7365	-53.316433	0.000203	2.026970	0.686756	0.000081
1640	1.6308e+02	-14.7060	-53.183208	0.000334	3.344501	1.133148	0.000134
1641	1.6318e+02	-14.6611	-53.118613	0.000162	1.621576	0.549405	0.000065
1642	1.6328e+02	-14.6178	-53.005574	0.000284	2.837758	0.961459	0.000114
1643	1.6338e+02	-14.5825	-52.965202	0.000101	1.013485	0.343378	0.000041
1644	1.6348e+02	-14.5343	-52.864274	0.000253	2.533713	0.858445	0.000101
1645	1.6358e+02	-14.5039	-52.763346	0.000253	2.533713	0.858445	0.000101
1646	1.6368e+02	-14.4622	-52.658380	0.000264	2.635061	0.892783	0.000105
1647	1.6378e+02	-14.4204	-52.549377	0.000274	2.736410	0.927121	0.000110
1648	1.6388e+02	-14.3723	-52.480746	0.000172	1.722925	0.583743	0.000069
1649	1.6398e+02	-14.3354	-52.416152	0.000162	1.621576	0.549405	0.000065
1650	1.6408e+02	-14.3017	-52.327335	0.000223	2.229667	0.755432	0.000089
1651	1.6418e+02	-14.2584	-52.246592	0.000203	2.026970	0.686756	0.000081
1652	1.6427e+02	-14.2151	-52.165849	0.000203	2.026970	0.686756	0.000081
1653	1.6437e+02	-14.1798	-52.032624	0.000334	3.344501	1.133148	0.000134
1654	1.6447e+02	-14.1429	-51.883250	0.000375	3.749895	1.270499	0.000150
1655	1.6457e+02	-14.0964	-51.818656	0.000162	1.621576	0.549405	0.000065
1656	1.6467e+02	-14.0611	-51.717727	0.000253	2.533713	0.858445	0.000101
1657	1.6477e+02	-14.0194	-51.588539	0.000324	3.243153	1.098810	0.000130
1658	1.6487e+02	-13.9777	-51.507796	0.000203	2.026970	0.686756	0.000081
1659	1.6497e+02	-13.9392	-51.443202	0.000162	1.621576	0.549405	0.000065
1660	1.6507e+02	-13.9023	-51.314014	0.000324	3.243153	1.098810	0.000130
1661	1.6517e+02	-13.8670	-51.225197	0.000223	2.229667	0.755432	0.000089
1662	1.6527e+02	-13.8237	-51.124268	0.000253	2.533713	0.858445	0.000101
1663	1.6537e+02	-13.7884	-51.015266	0.000274	2.736410	0.927121	0.000110
1664	1.6547e+02	-13.7354	-50.922412	0.000233	2.331016	0.789770	0.000093
1665	1.6557e+02	-13.7018	-50.841669	0.000203	2.026970	0.686756	0.000081
1666	1.6567e+02	-13.6536	-50.744778	0.000243	2.432364	0.824107	0.000097
1667	1.6577e+02	-13.6264	-50.680183	0.000162	1.621576	0.549405	0.000065
1668	1.6587e+02	-13.5846	-50.563107	0.000294	2.939107	0.995796	0.000118
1669	1.6597e+02	-13.5429	-50.538884	0.000061	0.608091	0.206027	0.000024
1670	1.6607e+02	-13.4964	-50.365287	0.000436	4.357986	1.476526	0.000174
1671	1.6616e+02	-13.4675	-50.276470	0.000223	2.229667	0.755432	0.000089
1672	1.6626e+02	-13.4306	-50.114984	0.000405	4.053941	1.373512	0.000162
1673	1.6636e+02	-13.3889	-50.030205	0.000213	2.128319	0.721094	0.000085
1674	1.6646e+02	-13.3392	-49.937351	0.000233	2.331016	0.789770	0.000093
1675	1.6656e+02	-13.3007	-49.840459	0.000243	2.432364	0.824107	0.000097
1676	1.6666e+02	-13.2718	-49.703197	0.000345	3.445850	1.167485	0.000138
1677	1.6676e+02	-13.2221	-49.642640	0.000152	1.520228	0.515067	0.000061
1678	1.6686e+02	-13.1900	-49.541711	0.000253	2.533713	0.858445	0.000101
1679	1.6696e+02	-13.1435	-49.428671	0.000284	2.837758	0.961459	0.000114
1680	1.6706e+02	-13.1098	-49.323706	0.000264	2.635061	0.892783	0.000105
1681	1.6716e+02	-13.0585	-49.242963	0.000203	2.026970	0.686756	0.000081
1682	1.6726e+02	-13.0167	-49.125886	0.000294	2.939107	0.995796	0.000118
1683	1.6736e+02	-12.9798	-49.069366	0.000142	1.418879	0.480729	0.000057
1684	1.6746e+02	-12.9446	-49.000735	0.000172	1.722925	0.583743	0.000069
1685	1.6756e+02	-12.8980	-48.859435	0.000355	3.547198	1.201823	0.000142
1686	1.6766e+02	-12.8692	-48.794841	0.000162	1.621576	0.549405	0.000065
1687	1.6776e+02	-12.8178	-48.681801	0.000284	2.837758	0.961459	0.000114
1688	1.6786e+02	-12.7809	-48.504167	0.000446	4.459335	1.510864	0.000179
1689	1.6796e+02	-12.7520	-48.403239	0.000253	2.533713	0.858445	0.000101
1690	1.6806e+02	-12.7055	-48.318459	0.000213	2.128319	0.721094	0.000085
1691	1.6816e+02	-12.6686	-48.245791	0.000182	1.824273	0.618081	0.000073
1692	1.6825e+02	-12.6269	-48.120639	0.000314	3.141804	1.064472	0.000126
1693	1.6835e+02	-12.5916	-48.035860	0.000213	2.128319	0.721094	0.000085
1694	1.6845e+02	-12.5483	-47.910708	0.000314	3.141804	1.064472	0.000126
1695	1.6855e+02	-12.5162	-47.805743	0.000264	2.635061	0.892783	0.000105
1696	1.6865e+02	-12.4665	-47.737112	0.000172	1.722925	0.583743	0.000069
1697	1.6875e+02	-12.4312	-47.595812	0.000355	3.547198	1.201823	0.000142
1698	1.6885e+02	-12.3895	-47.482772	0.000284	2.837758	0.961459	0.000114
1699	1.6895e+02	-12.3382	-47.478735	0.000010	0.101349	0.034338	0.000004
1700	1.6905e+02	-12.3125	-47.341472	0.000345	3.445850	1.167485	0.000138
1701	1.6915e+02	-12.2676	-47.256692	0.000213	2.128319	0.721094	0.000085
1702	1.6925e+02	-12.2339	-47.131541	0.000314	3.141804	1.064472	0.000126
1703	1.6935e+02	-12.1906	-47.030613	0.000253	2.533713	0.858445	0.000101
1704	1.6945e+02	-12.1424	-46.921610	0.000274	2.736410	0.927121	0.000110
1705	1.6955e+02	-12.1071	-46.820682	0.000253	2.533713	0.858445	0.000101
1706	1.6965e+02	-12.0735	-46.748013	0.000182	1.824273	0.618081	0.000073
1707	1.6975e+02	-12.0366	-46.578454	0.000426	4.256638	1.442188	0.000170
1708	1.6985e+02	-11.9900	-46.481562	0.000243	2.432364	0.824107	0.000097
1709	1.6995e+02	-11.9403	-46.328151	0.000385	3.851244	1.304837	0.000154
1710	1.7005e+02	-11.9162	-46.263557	0.000162	1.621576	0.549405	0.000065
1711	1.7015e+02	-11.8761	-46.122257	0.000355	3.547198	1.201823	0.000142
1712	1.7024e+02	-11.8296	-46.041515	0.000203	2.026970	0.686756	0.000081
1713	1.7034e+02	-11.7943	-45.956735	0.000213	2.128319	0.721094	0.000085
1714	1.7044e+02	-11.7606	-45.843695	0.000284	2.837758	0.961459	0.000114
1715	1.7054e+02	-11.7109	-45.750841	0.000233	2.331016	0.789770	0.000093
1716	1.7064e+02	-11.6676	-45.682209	0.000172	1.722925	0.583743	0.000069
1717	1.7074e+02	-11.6243	-45.577244	0.000264	2.635061	0.892783	0.000105
1718	1.7084e+02	-11.5922	-45.472278	0.000264	2.635061	0.892783	0.000105
1719	1.7094e+02	-11.5457	-45.371350	0.000253	2.533713	0.858445	0.000101
1720	1.7104e+02	-11.5136	-45.270422	0.000253	2.533713	0.858445	0.000101
1721	1.7114e+02	-11.4703	-45.149308	0.000304	3.040456	1.030134	0.000122
1722	1.7124e+02	-11.4318	-45.016082	0.000334	3.344501	1.133148	0.000134
1723	1.7134e+02	-11.3917	-44.943414	0.000182	1.824273	0.618081	0.000073
1724	1.7144e+02	-11.3596	-44.794040	0.000375	3.749895	1.270499	0.000150
1725	1.7154e+02	-11.3114	-44.664851	0.000324	3.243153	1.098810	0.000130
1726	1.7164e+02	-11.2713	-44.531626	0.000334	3.344501	1.133148	0.000134
1727	1.7174e+02	-11.2344	-44.414549	0.000294	2.939107	0.995796	0.000118
1728	1.7184e+02	-11.1959	-44.301509	0.000284	2.837758	0.961459	0.000114
1729	1.7194e+02	-11.1639	-44.208655	0.000233	2.331016	0.789770	0.000093
1730	1.7204e+02	-11.1141	-44.091578	0.000294	2.939107	0.995796	0.000118
1731	1.7213e+02	-11.0788	-44.002761	0.000223	2.229667	0.755432	0.000089
1732	1.7223e+02	-11.0275	-43.905870	0.000243	2.432364	0.824107	0.000097
1733	1.7233e+02	-10.9906	-43.829164	0.000193	1.925622	0.652418	0.000077
1734	1.7243e+02	-10.9553	-43.760533	0.000172	1.722925	0.583743	0.000069
1735	1.7253e+02	-10.9168	-43.599047	0.000405	4.053941	1.373512	0.000162
1736	1.7263e+02	-10.8783	-43.506193	0.000233	2.331016	0.789770	0.000093
1737	1.7273e+02	-10.8350	-43.409302	0.000243	2.432364	0.824107	0.000097
1738	1.7283e+02	-10.7885	-43.316448	0.000233	2.331016	0.789770	0.000093
1739	1.7293e+02	-10.7516	-43.211482	0.000264	2.635061	0.892783	0.000105
1740	1.7303e+02	-10.7275	-43.082294	0.000324	3.243153	1.098810	0.000130
1741	1.7313e+02	-10.6714	-42.928883	0.000385	3.851244	1.304837	0.000154
1742	1.7323e+02	-10.6393	-42.783546	0.000365	3.648547	1.236161	0.000146
1743	1.7333e+02	-10.5960	-42.666469	0.000294	2.939107	0.995796	0.000118
1744	1.7343e+02	-10.5430	-42.569578	0.000243	2.432364	0.824107	0.000097
1745	1.7353e+02	-10.5174	-42.428278	0.000355	3.547198	1.201823	0.000142
1746	1.7363e+02	-10.4788	-42.387907	0.000101	1.013485	0.343378	0.000041
1747	1.7373e+02	-10.4323	-42.254681	0.000334	3.344501	1.133148	0.000134
1748	1.7383e+02	-10.3938	-42.165864	0.000223	2.229667	0.755432	0.000089
1749	1.7393e+02	-10.3585	-42.032639	0.000334	3.344501	1.133148	0.000134
1750	1.7403e+02	-10.3216	-41.939785	0.000233	2.331016	0.789770	0.000093
1751	1.7413e+02	-10.2719	-41.859042	0.000203	2.026970	0.686756	0.000081
1752	1.7422e+02	-10.2382	-41.750039	0.000274	2.736410	0.927121	0.000110
1753	1.7432e+02	-10.1997	-41.649111	0.000253	2.533713	0.858445	0.000101
1754	1.7442e+02	-10.1612	-41.532034	0.000294	2.939107	0.995796	0.000118
1755	1.7452e+02	-10.1099	-41.390734	0.000355	3.547198	1.201823	0.000142
1756	1.7462e+02	-10.0826	-41.301917	0.000223	2.229667	0.755432	0.000089
1757	1.7472e+02	-10.0377	-41.152543	0.000375	3.749895	1.270499	0.000150
1758	1.7482e+02	-9.9880	-41.047578	0.000264	2.635061	0.892783	0.000105
1759	1.7492e+02	-9.9703	-40.906278	0.000355	3.547198	1.201823	0.000142
1760	1.7502e+02	-9.9222	-40.769015	0.000345	3.445850	1.167485	0.000138
1761	1.7512e+02	-9.8773	-40.680198	0.000223	2.229667	0.755432	0.000089
1762	1.7522e+02	-9.8356	-40.583307	0.000243	2.432364	0.824107	0.000097
1763	1.7532e+02	-9.7938	-40.442007	0.000355	3.547198	1.201823	0.000142
1764	1.7542e+02	-9.7618	-40.333005	0.000274	2.736410	0.927121	0.000110
1765	1.7552e+02	-9.7168	-40.211891	0.000304	3.040456	1.030134	0.000122
1766	1.7562e+02	-9.6783	-40.159408	0.000132	1.317531	0.446391	0.000053
1767	1.7572e+02	-9.6334	-40.026182	0.000334	3.344501	1.133148	0.000134
1768	1.7582e+02	-9.5981	-39.925254	0.000253	2.533713	0.858445	0.000101
1769	1.7592e+02	-9.5612	-39.792028	0.000334	3.344501	1.133148	0.000134
1770	1.7602e+02	-9.5099	-39.695137	0.000243	2.432364	0.824107	0.000097
1771	1.7612e+02	-9.4810	-39.598246	0.000243	2.432364	0.824107	0.000097
1772	1.7621e+02	-9.4393	-39.428686	0.000426	4.256638	1.442188	0.000170
1773	1.7631e+02	-9.4024	-39.364092	0.000162	1.621576	0.549405	0.000065
1774	1.7641e+02	-9.3639	-39.198569	0.000416	4.155289	1.407850	0.000166
1775	1.7651e+02	-9.3254	-39.105715	0.000233	2.331016	0.789770	0.000093
1776	1.7661e+02	-9.2837	-38.907896	0.000497	4.966077	1.682553	0.000199
1777	1.7671e+02	-9.2548	-38.827153	0.000203	2.026970	0.686756	0.000081
1778	1.7681e+02	-9.1971	-38.706039	0.000304	3.040456	1.030134	0.000122
1779	1.7691e+02	-9.1602	-38.597036	0.000274	2.736410	0.927121	0.000110
1780	1.7701e+02	-9.1169	-38.496108	0.000253	2.533713	0.858445	0.000101
1781	1.7711e+02	-9.0751	-38.403254	0.000233	2.331016	0.789770	0.000093
1782	1.7721e+02	-9.0334	-38.290214	0.000284	2.837758	0.961459	0.000114
1783	1.7731e+02	-8.9965	-38.197360	0.000233	2.331016	0.789770	0.000093
1784	1.7741e+02	-8.9564	-38.056060	0.000355	3.547198	1.201823	0.000142
1785	1.7751e+02	-8.9195	-37.951095	0.000264	2.635061	0.892783	0.000105
1786	1.7761e+02	-8.8778	-37.838055	0.000284	2.837758	0.961459	0.000114
1787	1.7771e+02	-8.8425	-37.700792	0.000345	3.445850	1.167485	0.000138
1788	1.7781e+02	-8.8056	-37.567567	0.000334	3.344501	1.133148	0.000134
1789	1.7791e+02	-8.7623	-37.462601	0.000264	2.635061	0.892783	0.000105
1790	1.7801e+02	-8.7238	-37.341487	0.000304	3.040456	1.030134	0.000122
1791	1.7810e+02	-8.6869	-37.184039	0.000395	3.952592	1.339174	0.000158
1792	1.7820e+02	-8.6500	-37.087147	0.000243	2.432364	0.824107	0.000097
1793	1.7830e+02	-8.6067	-36.929699	0.000395	3.952592	1.339174	0.000158
1794	1.7840e+02	-8.5682	-36.832808	0.000243	2.432364	0.824107	0.000097
1795	1.7850e+02	-8.5265	-36.711694	0.000304	3.040456	1.030134	0.000122
1796	1.7860e+02	-8.4880	-36.574431	0.000345	3.445850	1.167485	0.000138
1797	1.7870e+02	-8.4415	-36.465429	0.000274	2.736410	0.927121	0.000110
1798	1.7880e+02	-8.3998	-36.356426	0.000274	2.736410	0.927121	0.000110
1799	1.7890e+02	-8.3645	-36.263572	0.000233	2.331016	0.789770	0.000093
1800	1.7900e+02	-8.3212	-36.190903	0.000182	1.824273	0.618081	0.000073
1801	1.7910e+02	-8.2875	-36.029418	0.000405	4.053941	1.373512	0.000162
1802	1.7920e+02	-8.2409	-35.928490	0.000253	2.533713	0.858445	0.000101
1803	1.7930e+02	-8.2089	-35.795264	0.000334	3.344501	1.133148	0.000134
1804	1.7940e+02	-8.1591	-35.637816	0.000395	3.952592	1.339174	0.000158
1805	1.7950e+02	-8.1222	-35.520739	0.000294	2.939107	0.995796	0.000118
1806	1.7960e+02	-8.0837	-35.415773	0.000264	2.635061	0.892783	0.000105
1807	1.7970e+02	-8.0388	-35.339068	0.000193	1.925622	0.652418	0.000077
1808	1.7980e+02	-8.0083	-35.181619	0.000395	3.952592	1.339174	0.000158
1809	1.7990e+02	-7.9666	-35.028208	0.000385	3.851244	1.304837	0.000154
1810	1.8000e+02	-7.9329	-34.927280	0.000253	2.533713	0.858445	0.000101
1811	1.8009e+02	-7.8800	-34.781943	0.000365	3.648547	1.236161	0.000146
1812	1.8019e+02	-7.8495	-34.636606	0.000365	3.648547	1.236161	0.000146
1813	1.8029e+02	-7.8062	-34.531641	0.000264	2.635061	0.892783	0.000105
1814	1.8039e+02	-7.7565	-34.434749	0.000243	2.432364	0.824107	0.000097
1815	1.8049e+02	-7.7228	-34.293450	0.000355	3.547198	1.201823	0.000142
1816	1.8059e+02	-7.6891	-34.176373	0.000294	2.939107	0.995796	0.000118
1817	1.8069e+02	-7.6442	-34.111778	0.000162	1.621576	0.549405	0.000065
1818	1.8079e+02	-7.6057	-33.934144	0.000446	4.459335	1.510864	0.000179
1819	1.8089e+02	-7.5736	-33.849365	0.000213	2.128319	0.721094	0.000085
1820	1.8099e+02	-7.5239	-33.724213	0.000314	3.141804	1.064472	0.000126
1821	1.8109e+02	-7.4870	-33.578877	0.000365	3.648547	1.236161	0.000146
1822	1.8119e+02	-7.4517	-33.486022	0.000233	2.331016	0.789770	0.000093
1823	1.8129e+02	-7.4100	-33.360871	0.000314	3.141804	1.064472	0.000126
1824	1.8139e+02	-7.3698	-33.211497	0.000375	3.749895	1.270499	0.000150
1825	1.8149e+02	-7.3346	-33.078272	0.000334	3.344501	1.133148	0.000134
1826	1.8159e+02	-7.2880	-32.989455	0.000223	2.229667	0.755432	0.000089
1827	1.8169e+02	-7.2495	-32.819895	0.000426	4.256638	1.442188	0.000170
1828	1.8179e+02	-7.2062	-32.646298	0.000436	4.357986	1.476526	0.000174
1829	1.8189e+02	-7.1693	-32.496924	0.000375	3.749895	1.270499	0.000150
1830	1.8199e+02	-7.1276	-32.404070	0.000233	2.331016	0.789770	0.000093
1831	1.8209e+02	-7.0907	-32.299104	0.000264	2.635061	0.892783	0.000105
1832	1.8218e+02	-7.0410	-32.198176	0.000253	2.533713	0.858445	0.000101
1833	1.8228e+02	-7.0073	-32.068988	0.000324	3.243153	1.098810	0.000130
1834	1.8238e+02	-6.9640	-31.972096	0.000243	2.432364	0.824107	0.000097
1835	1.8248e+02	-6.9255	-31.846945	0.000314	3.141804	1.064472	0.000126
1836	1.8258e+02	-6.8854	-31.717757	0.000324	3.243153	1.098810	0.000130
1837	1.8268e+02	-6.8501	-31.544160	0.000436	4.357986	1.476526	0.000174
1838	1.8278e+02	-6.8132	-31.431120	0.000284	2.837758	0.961459	0.000114
1839	1.8288e+02	-6.7683	-31.305969	0.000314	3.141804	1.064472	0.000126
1840	1.8298e+02	-6.7298	-31.188892	0.000294	2.939107	0.995796	0.000118
1841	1.8308e+02	-6.6961	-31.055667	0.000334	3.344501	1.133148	0.000134
1842	1.8318e+02	-6.6511	-30.910330	0.000365	3.648547	1.236161	0.000146
1843	1.8328e+02	-6.6062	-30.801327	0.000274	2.736410	0.927121	0.000110
1844	1.8338e+02	-6.5597	-30.647916	0.000385	3.851244	1.304837	0.000154
1845	1.8348e+02	-6.5260	-30.498542	0.000375	3.749895	1.270499	0.000150
1846	1.8358e+02	-6.4875	-30.397614	0.000253	2.533713	0.858445	0.000101
1847	1.8368e+02	-6.4426	-30.236128	0.000405	4.053941	1.373512	0.000162
1848	1.8378e+02	-6.4089	-30.127125	0.000274	2.736410	0.927121	0.000110
1849	1.8388e+02	-6.3736	-30.014086	0.000284	2.837758	0.961459	0.000114
1850	1.8398e+02	-6.3287	-29.905083	0.000274	2.736410	0.927121	0.000110
1851	1.8407e+02	-6.2902	-29.731486	0.000436	4.357986	1.476526	0.000174
1852	1.8417e+02	-6.2469	-29.634595	0.000243	2.432364	0.824107	0.000097
1853	1.8427e+02	-6.2148	-29.489258	0.000365	3.648547	1.236161	0.000146
1854	1.8437e+02	-6.1779	-29.384292	0.000264	2.635061	0.892783	0.000105
1855	1.8447e+02	-6.1282	-29.222807	0.000405	4.053941	1.373512	0.000162
1856	1.8457e+02	-6.0977	-29.065359	0.000395	3.952592	1.339174	0.000158
1857	1.8467e+02	-6.0528	-28.988653	0.000193	1.925622	0.652418	0.000077
1858	1.8477e+02	-6.0111	-28.843316	0.000365	3.648547	1.236161	0.000146
1859	1.8487e+02	-5.9822	-28.714128	0.000324	3.243153	1.098810	0.000130
1860	1.8497e+02	-5.9244	-28.580902	0.000334	3.344501	1.133148	0.000134
1861	1.8507e+02	-5.9020	-28.423454	0.000395	3.952592	1.339174	0.000158
1862	1.8517e+02	-5.8683	-28.286192	0.000345	3.445850	1.167485	0.000138
1863	1.8527e+02	-5.8137	-28.193337	0.000233	2.331016	0.789770	0.000093
1864	1.8537e+02	-5.7817	-28.027815	0.000416	4.155289	1.407850	0.000166
1865	1.8547e+02	-5.7415	-27.898627	0.000324	3.243153	1.098810	0.000130
1866	1.8557e+02	-5.6982	-27.757327	0.000355	3.547198	1.201823	0.000142
1867	1.8567e+02	-5.6613	-27.640250	0.000294	2.939107	0.995796	0.000118
1868	1.8577e+02	-5.6212	-27.478764	0.000405	4.053941	1.373512	0.000162
1869	1.8587e+02	-5.5747	-27.333428	0.000365	3.648547	1.236161	0.000146
1870	1.8597e+02	-5.5362	-27.204239	0.000324	3.243153	1.098810	0.000130
1871	1.8606e+02	-5.5025	-27.099274	0.000264	2.635061	0.892783	0.000105
1872	1.8616e+02	-5.4544	-26.970085	0.000324	3.243153	1.098810	0.000130
1873	1.8626e+02	-5.4095	-26.824748	0.000365	3.648547	1.236161	0.000146
1874	1.8636e+02	-5.3790	-26.691523	0.000334	3.344501	1.133148	0.000134
1875	1.8646e+02	-5.3357	-26.594632	0.000243	2.432364	0.824107	0.000097
1876	1.8656e+02	-5.3036	-26.408923	0.000466	4.662032	1.579539	0.000187
1877	1.8666e+02	-5.2603	-26.275698	0.000334	3.344501	1.133148	0.000134
1878	1.8676e+02	-5.2154	-26.118250	0.000395	3.952592	1.339174	0.000158
1879	1.8686e+02	-5.1785	-26.033470	0.000213	2.128319	0.721094	0.000085
1880	1.8696e+02	-5.1303	-25.908319	0.000314	3.141804	1.064472	0.000126
1881	1.8706e+02	-5.1031	-25.762982	0.000365	3.648547	1.236161	0.000146
1882	1.8716e+02	-5.0630	-25.597459	0.000416	4.155289	1.407850	0.000166
1883	1.8726e+02	-5.0212	-25.472308	0.000314	3.141804	1.064472	0.000126
1884	1.8736e+02	-4.9699	-25.298711	0.000436	4.357986	1.476526	0.000174
1885	1.8746e+02	-4.9330	-25.153374	0.000365	3.648547	1.236161	0.000146
1886	1.8756e+02	-4.8945	-25.020149	0.000334	3.344501	1.133148	0.000134
1887	1.8766e+02	-4.8640	-24.878849	0.000355	3.547198	1.201823	0.000142
1888	1.8776e+02	-4.8223	-24.773883	0.000264	2.635061	0.892783	0.000105
1889	1.8786e+02	-4.7838	-24.624509	0.000375	3.749895	1.270499	0.000150
1890	1.8796e+02	-4.7357	-24.450913	0.000436	4.357986	1.476526	0.000174
1891	1.8806e+02	-4.7020	-24.301539	0.000375	3.749895	1.270499	0.000150
1892	1.8815e+02	-4.6715	-24.164276	0.000345	3.445850	1.167485	0.000138
1893	1.8825e+02	-4.6202	-24.014902	0.000375	3.749895	1.270499	0.000150
1894	1.8835e+02	-4.5865	-23.869565	0.000365	3.648547	1.236161	0.000146
1895	1.8845e+02	-4.5528	-23.780748	0.000223	2.229667	0.755432	0.000089
1896	1.8855e+02	-4.4983	-23.631374	0.000375	3.749895	1.270499	0.000150
1897	1.8865e+02	-4.4534	-23.477963	0.000385	3.851244	1.304837	0.000154
1898	1.8875e+02	-4.4293	-23.360886	0.000294	2.939107	0.995796	0.000118
1899	1.8885e+02	-4.3763	-23.251883	0.000274	2.736410	0.927121	0.000110
1900	1.8895e+02	-4.3443	-23.041952	0.000527	5.270123	1.785566	0.000211
1901	1.8905e+02	-4.3058	-22.900652	0.000355	3.547198	1.201823	0.000142
1902	1.8915e+02	-4.2560	-22.755316	0.000365	3.648547	1.236161	0.000146
1903	1.8925e+02	-4.2255	-22.589793	0.000416	4.155289	1.407850	0.000166
1904	1.8935e+02	-4.1838	-22.448493	0.000355	3.547198	1.201823	0.000142
1905	1.8945e+02	-4.1437	-22.250674	0.000497	4.966077	1.682553	0.000199
1906	1.8955e+02	-4.1020	-22.169931	0.000203	2.026970	0.686756	0.000081
1907	1.8965e+02	-4.0635	-22.040743	0.000324	3.243153	1.098810	0.000130
1908	1.8975e+02	-4.0218	-21.842923	0.000497	4.966077	1.682553	0.000199
1909	1.8985e+02	-3.9817	-21.754106	0.000223	2.229667	0.755432	0.000089
1910	1.8995e+02	-3.9544	-21.608769	0.000365	3.648547	1.236161	0.000146
1911	1.9004e+02	-3.8951	-21.419024	0.000476	4.763380	1.613877	0.000191
1912	1.9014e+02	-3.8598	-21.305984	0.000284	2.837758	0.961459	0.000114
1913	1.9024e+02	-3.8261	-21.152573	0.000385	3.851244	1.304837	0.000154
1914	1.9034e+02	-3.7908	-21.011273	0.000355	3.547198	1.201823	0.000142
1915	1.9044e+02	-3.7427	-20.890159	0.000304	3.040456	1.030134	0.000122
1916	1.9054e+02	-3.6994	-20.716562	0.000436	4.357986	1.476526	0.000174
1917	1.9064e+02	-3.6657	-20.591411	0.000314	3.141804	1.064472	0.000126
1918	1.9074e+02	-3.6208	-20.401665	0.000476	4.763380	1.613877	0.000191
1919	1.9084e+02	-3.5871	-20.244217	0.000395	3.952592	1.339174	0.000158
1920	1.9094e+02	-3.5421	-20.115029	0.000324	3.243153	1.098810	0.000130
1921	1.9104e+02	-3.5117	-19.949506	0.000416	4.155289	1.407850	0.000166
1922	1.9114e+02	-3.4684	-19.808206	0.000355	3.547198	1.201823	0.000142
1923	1.9124e+02	-3.4250	-19.687092	0.000304	3.040456	1.030134	0.000122
1924	1.9134e+02	-3.3833	-19.513496	0.000436	4.357986	1.476526	0.000174
1925	1.9144e+02	-3.3448	-19.368159	0.000365	3.648547	1.236161	0.000146
1926	1.9154e+02	-3.3079	-19.194562	0.000436	4.357986	1.476526	0.000174
1927	1.9164e+02	-3.2742	-19.081522	0.000284	2.837758	0.961459	0.000114
1928	1.9174e+02	-3.2277	-18.895814	0.000466	4.662032	1.579539	0.000187
1929	1.9184e+02	-3.1764	-18.758551	0.000345	3.445850	1.167485	0.000138
1930	1.9194e+02	-3.1411	-18.593029	0.000416	4.155289	1.407850	0.000166
1931	1.9203e+02	-3.1106	-18.492100	0.000253	2.533713	0.858445	0.000101
1932	1.9213e+02	-3.0705	-18.306392	0.000466	4.662032	1.579539	0.000187
1933	1.9223e+02	-3.0240	-18.161055	0.000365	3.648547	1.236161	0.000146
1934	1.9233e+02	-2.9903	-18.019755	0.000355	3.547198	1.201823	0.000142
1935	1.9243e+02	-2.9454	-17.842121	0.000446	4.459335	1.510864	0.000179
1936	1.9253e+02	-2.9085	-17.729082	0.000284	2.837758	0.961459	0.000114
1937	1.9263e+02	-2.8620	-17.519151	0.000527	5.270123	1.785566	0.000211
1938	1.9273e+02	-2.8267	-17.381888	0.000345	3.445850	1.167485	0.000138
1939	1.9283e+02	-2.7801	-17.212328	0.000426	4.256638	1.442188	0.000170
1940	1.9293e+02	-2.7497	-17.066991	0.000365	3.648547	1.236161	0.000146
1941	1.9303e+02	-2.7128	-16.937803	0.000324	3.243153	1.098810	0.000130
1942	1.9313e+02	-2.6710	-16.776318	0.000405	4.053941	1.373512	0.000162
1943	1.9323e+02	-2.6358	-16.622906	0.000385	3.851244	1.304837	0.000154
1944	1.9333e+02	-2.5924	-16.473532	0.000375	3.749895	1.270499	0.000150
1945	1.9343e+02	-2.5475	-16.316084	0.000395	3.952592	1.339174	0.000158
1946	1.9353e+02	-2.5058	-16.142487	0.000436	4.357986	1.476526	0.000174
1947	1.9363e+02	-2.4769	-16.001187	0.000355	3.547198	1.201823	0.000142
1948	1.9373e+02	-2.4320	-15.896222	0.000264	2.635061	0.892783	0.000105
1949	1.9383e+02	-2.3887	-15.698402	0.000497	4.966077	1.682553	0.000199
1950	1.9393e+02	-2.3470	-15.565177	0.000334	3.344501	1.133148	0.000134
1951	1.9403e+02	-2.3069	-15.339097	0.000568	5.675517	1.922917	0.000227
1952	1.9412e+02	-2.2684	-15.209909	0.000324	3.243153	1.098810	0.000130
1953	1.9422e+02	-2.2347	-15.020164	0.000476	4.763380	1.613877	0.000191
1954	1.9432e+02	-2.1914	-14.899049	0.000304	3.040456	1.030134	0.000122
1955	1.9442e+02	-2.1481	-14.737564	0.000405	4.053941	1.373512	0.000162
1956	1.9452e+02	-2.1128	-14.555893	0.000456	4.560683	1.545201	0.000183
1957	1.9462e+02	-2.0775	-14.430742	0.000314	3.141804	1.064472	0.000126
1958	1.9472e+02	-2.0358	-14.232922	0.000497	4.966077	1.682553	0.000199
1959	1.9482e+02	-1.9941	-14.071437	0.000405	4.053941	1.373512	0.000162
1960	1.9492e+02	-1.9540	-13.938211	0.000334	3.344501	1.133148	0.000134
1961	1.9502e+02	-1.9042	-13.752503	0.000466	4.662032	1.579539	0.000187
1962	1.9512e+02	-1.8609	-13.655612	0.000243	2.432364	0.824107	0.000097
1963	1.9522e+02	-1.8320	-13.461829	0.000486	4.864729	1.648215	0.000195
1964	1.9532e+02	-1.7951	-13.292269	0.000426	4.256638	1.442188	0.000170
1965	1.9542e+02	-1.7470	-13.150970	0.000355	3.547198	1.201823	0.000142
1966	1.9552e+02	-1.7165	-13.029856	0.000304	3.040456	1.030134	0.000122
1967	1.9562e+02	-1.6764	-12.856259	0.000436	4.357986	1.476526	0.000174
1968	1.9572e+02	-1.6347	-12.674588	0.000456	4.560683	1.545201	0.000183
1969	1.9582e+02	-1.5882	-12.452545	0.000557	5.574168	1.888579	0.000223
1970	1.9592e+02	-1.5561	-12.331431	0.000304	3.040456	1.030134	0.000122
1971	1.9601e+02	-1.5096	-12.169946	0.000405	4.053941	1.373512	0.000162
1972	1.9611e+02	-1.4775	-11.951940	0.000547	5.472820	1.854242	0.000219
1973	1.9621e+02	-1.4358	-11.822752	0.000324	3.243153	1.098810	0.000130
1974	1.9631e+02	-1.3861	-11.641081	0.000456	4.560683	1.545201	0.000183
1975	1.9641e+02	-1.3540	-11.515930	0.000314	3.141804	1.064472	0.000126
1976	1.9651e+02	-1.3139	-11.297924	0.000547	5.472820	1.854242	0.000219
1977	1.9661e+02	-1.2689	-11.164699	0.000334	3.344501	1.133148	0.000134
1978	1.9671e+02	-1.2337	-11.007251	0.000395	3.952592	1.339174	0.000158
1979	1.9681e+02	-1.1984	-10.878062	0.000324	3.243153	1.098810	0.000130
1980	1.9691e+02	-1.1518	-10.668131	0.000527	5.270123	1.785566	0.000211
1981	1.9701e+02	-1.1117	-10.522794	0.000365	3.648547	1.236161	0.000146
1982	1.9711e+02	-1.0716	-10.385532	0.000345	3.445850	1.167485	0.000138
1983	1.9721e+02	-1.0411	-10.248269	0.000345	3.445850	1.167485	0.000138
1984	1.9731e+02	-0.9930	-10.086784	0.000405	4.053941	1.373512	0.000162
1985	1.9741e+02	-0.9545	-9.876853	0.000527	5.270123	1.785566	0.000211
1986	1.9751e+02	-0.9160	-9.747664	0.000324	3.243153	1.098810	0.000130
1987	1.9761e+02	-0.8711	-9.565993	0.000456	4.560683	1.545201	0.000183
1988	1.9771e+02	-0.8326	-9.327802	0.000598	5.979562	2.025931	0.000239
1989	1.9781e+02	-0.8005	-9.178428	0.000375	3.749895	1.270499	0.000150
1990	1.9791e+02	-0.7572	-9.016943	0.000405	4.053941	1.373512	0.000162
1991	1.9800e+02	-0.7203	-8.847383	0.000426	4.256638	1.442188	0.000170
1992	1.9810e+02	-0.6722	-8.669749	0.000446	4.459335	1.510864	0.000179
1993	1.9820e+02	-0.6289	-8.548635	0.000304	3.040456	1.030134	0.000122
1994	1.9830e+02	-0.5984	-8.354852	0.000486	4.864729	1.648215	0.000195
1995	1.9840e+02	-0.5535	-8.185293	0.000426	4.256638	1.442188	0.000170
1996	1.9850e+02	-0.5150	-8.031882	0.000385	3.851244	1.304837	0.000154
1997	1.9860e+02	-0.4749	-7.862322	0.000426	4.256638	1.442188	0.000170
1998	1.9870e+02	-0.4347	-7.688725	0.000436	4.357986	1.476526	0.000174
1999	1.9880e+02	-0.3946	-7.519165	0.000426	4.256638	1.442188	0.000170
2000	1.9890e+02	-0.3642	-7.394014	0.000314	3.141804	1.064472	0.000126
2001	1.9900e+02	-0.3208	-7.264826	0.000324	3.243153	1.098810	0.000130
2002	1.9910e+02	-0.2807	-7.111415	0.000385	3.851244	1.304837	0.000154
2003	1.9920e+02	-0.2374	-6.897446	0.000537	5.371471	1.819904	0.000215
2004	1.9930e+02	-0.1973	-6.744035	0.000385	3.851244	1.304837	0.000154
2005	1.9940e+02	-0.1572	-6.497770	0.000618	6.182260	2.094606	0.000248
2006	1.9950e+02	-0.1203	-6.360507	0.000345	3.445850	1.167485	0.000138
2007	1.9960e+02	-0.0818	-6.203059	0.000395	3.952592	1.339174	0.000158
2008	1.9970e+02	-0.0353	-6.021388	0.000456	4.560683	1.545201	0.000183
2009	1.9980e+02	0.0064	-5.799345	0.000456	4.560683	1.545201	0.000223

Center data before PMax,+/-Pr and +/-Vc Calc.

PMax (uC/cm2):	6.40e+01
Pr (uC/cm2):	1.10e+00
-Pr (uC/cm2):	-5.80e+00
PLoss (uC/cm2):	-2.85e+00
Vc:	7.50e-01
-Vc:	-2.76e-01
C (Max-Eff) (nF):	3.20e-01
K (Eff):	1.08e+03
Vert. (+/-Pr) Shift (uC/cm2):	-2.35e+00
Horiz. Shift (+/-Vc):	2.37e-01
Offset (uC/cm2):	2.91e+00

A (Loop Area - uC/cm2·Volts):	2.40e-02



Hysteresis Version: 5.48.1 - Radiant Technologies, Inc., 1999 - 9/12/24

