»»»»»»»»»»»»»»»»»»»»»»»»»»»»»»»»»»»» Hysteresis ««««««««««««««««««««««««««««««««««««
»»»  Executed Version:	5.48.1
»»»  Vision Version:	5.48.4 (R)
»»»  Vision Compiled:	9/18/24
»»»  Driver Version:	5.47.0
»»»  Windows Version:	Windows 8 or 8.1
»»»  Processor Information:	x86 (AMD or Intel) - 32 Processors
»»»  Tester Name:	PMF21124-494 (100V)
»»»  Tester S/N:	PMF21124-494
»»»  Internal Amp Type:	100V RevK 270k
»»»  Internal Amp S/N:	iAB2-596/K     
»»»  Execution Count:	1
»»»»»»»»»»»»»»»»»»»»»»»»»»»»»»»»»»»»»»»»»»««««««««««««««««««««««««««««««««««««««««««

Stored:	6/13/2025 - 15:20:7
Configured:	06/13/25 01:30:53 PM
Executed:	06/13/25 03:19:32 PM

»»»»»»»»»»»»»»»»»»»»»»»»»»»»»»»»»»» Sample Info ««««««««««««««««««««««««««««««««««««
Sample Name:	
Lot Name:	
Wafer Name:	
Die Row/Column:	0/0
Capacitor Number:	0
Sample Area (cm2):	1.00e-04
Sample Thickness (microns):	3.00e-01

Amplifier:	Internal

»»»»»»»»»»»»»»»»»»»»»»»»»»»»»»»»»»» Tester Info «««««««««««««««««««««««««««««««««««
Tester Name:	PMF21124-494 (100V)
Tester Serial Number:	PMF21124-494
Return Signal Amp. Level:	0.19 [Index: 3]

»»»»»»»»»»»»»»»»»»»»»»»»»»»»»»»» Hysteresis Info ««««««««««««««««««««««««««««««««««
Task Name:	Hyst-1922
Volts:	20.00
Field:	666.67 (kV/cm)
DCBias:	0.00
DCField:	0.00 (kV/cm)
Hysteresis Period (ms):	2.00e+02
Preset:	Enabled
Preset Delay (ms):	1.00e+03
Profile:	Standard Bipolar

»»»»»»»»»»»»»»»»»»»»»»»»»»»»»»»»»»»»»» Data «««««««««««««««««««««««««««««««««««««««
Points:	2009

Valid Data

Point	Time (ms)	Drive Voltage	Measured Polarization (uC/cm2)	Capacitance (uF)	Normalized Capacitance (uF/cm2)	Dielectric Constant	Instantaneous Current (mA)
   1	0.0000e+00	0.0000	-2.034716	0.000233	2.331016	0.789770	0.000093
   2	9.9500e-02	0.0289	-1.941862	0.000233	2.331016	0.789770	0.000093
   3	1.9900e-01	0.0786	-1.760191	0.000456	4.560683	1.545201	0.000183
   4	2.9850e-01	0.1123	-1.687523	0.000182	1.824273	0.618081	0.000073
   5	3.9800e-01	0.1492	-1.517963	0.000426	4.256638	1.442188	0.000170
   6	4.9750e-01	0.1877	-1.376663	0.000355	3.547198	1.201823	0.000142
   7	5.9700e-01	0.2342	-1.255549	0.000304	3.040456	1.030134	0.000122
   8	6.9650e-01	0.2695	-1.106175	0.000375	3.749895	1.270499	0.000150
   9	7.9600e-01	0.3192	-1.013321	0.000233	2.331016	0.789770	0.000093
  10	8.9550e-01	0.3497	-0.888170	0.000314	3.141804	1.064472	0.000126
  11	9.9500e-01	0.3866	-0.734759	0.000385	3.851244	1.304837	0.000154
  12	1.0945e+00	0.4299	-0.585385	0.000375	3.749895	1.270499	0.000150
  13	1.1940e+00	0.4749	-0.460233	0.000314	3.141804	1.064472	0.000126
  14	1.2935e+00	0.5134	-0.327008	0.000334	3.344501	1.133148	0.000134
  15	1.3930e+00	0.5535	-0.246265	0.000203	2.026970	0.686756	0.000081
  16	1.4925e+00	0.5952	-0.084780	0.000405	4.053941	1.373512	0.000162
  17	1.5920e+00	0.6273	0.088817	0.000436	4.357986	1.476526	0.000174
  18	1.6915e+00	0.6754	0.234154	0.000365	3.648547	1.236161	0.000146
  19	1.7910e+00	0.7043	0.359305	0.000314	3.141804	1.064472	0.000126
  20	1.8905e+00	0.7524	0.516753	0.000395	3.952592	1.339174	0.000158
  21	1.9900e+00	0.7909	0.625756	0.000274	2.736410	0.927121	0.000110
  22	2.0895e+00	0.8310	0.734759	0.000274	2.736410	0.927121	0.000110
  23	2.1890e+00	0.8695	0.912393	0.000446	4.459335	1.510864	0.000179
  24	2.2885e+00	0.9192	1.057730	0.000365	3.648547	1.236161	0.000146
  25	2.3880e+00	0.9449	1.154621	0.000243	2.432364	0.824107	0.000097
  26	2.4875e+00	1.0010	1.340329	0.000466	4.662032	1.579539	0.000187
  27	2.5870e+00	1.0347	1.421072	0.000203	2.026970	0.686756	0.000081
  28	2.6865e+00	1.0668	1.562372	0.000355	3.547198	1.201823	0.000142
  29	2.7860e+00	1.1101	1.675411	0.000284	2.837758	0.961459	0.000114
  30	2.8855e+00	1.1470	1.905528	0.000578	5.776865	1.957255	0.000231
  31	2.9850e+00	1.1903	2.006456	0.000253	2.533713	0.858445	0.000101
  32	3.0845e+00	1.2385	2.155830	0.000375	3.749895	1.270499	0.000150
  33	3.1840e+00	1.2738	2.272907	0.000294	2.939107	0.995796	0.000118
  34	3.2835e+00	1.3091	2.434393	0.000405	4.053941	1.373512	0.000162
  35	3.3830e+00	1.3460	2.599915	0.000416	4.155289	1.407850	0.000166
  36	3.4825e+00	1.3877	2.692770	0.000233	2.331016	0.789770	0.000093
  37	3.5820e+00	1.4310	2.846181	0.000385	3.851244	1.304837	0.000154
  38	3.6815e+00	1.4647	2.943072	0.000243	2.432364	0.824107	0.000097
  39	3.7810e+00	1.5112	3.108595	0.000416	4.155289	1.407850	0.000166
  40	3.8805e+00	1.5465	3.237783	0.000324	3.243153	1.098810	0.000130
  41	3.9800e+00	1.5866	3.371008	0.000334	3.344501	1.133148	0.000134
  42	4.0795e+00	1.6171	3.528457	0.000395	3.952592	1.339174	0.000158
  43	4.1790e+00	1.6668	3.645534	0.000294	2.939107	0.995796	0.000118
  44	4.2785e+00	1.7085	3.786833	0.000355	3.547198	1.201823	0.000142
  45	4.3780e+00	1.7438	3.956393	0.000426	4.256638	1.442188	0.000170
  46	4.4775e+00	1.7839	4.089619	0.000334	3.344501	1.133148	0.000134
  47	4.5770e+00	1.8240	4.206695	0.000294	2.939107	0.995796	0.000118
  48	4.6765e+00	1.8641	4.319735	0.000284	2.837758	0.961459	0.000114
  49	4.7760e+00	1.9090	4.501406	0.000456	4.560683	1.545201	0.000183
  50	4.8755e+00	1.9427	4.598298	0.000243	2.432364	0.824107	0.000097
  51	4.9750e+00	1.9925	4.747672	0.000375	3.749895	1.270499	0.000150
  52	5.0745e+00	2.0278	4.884934	0.000345	3.445850	1.167485	0.000138
  53	5.1740e+00	2.0663	5.062568	0.000446	4.459335	1.510864	0.000179
  54	5.2735e+00	2.1112	5.175608	0.000284	2.837758	0.961459	0.000114
  55	5.3730e+00	2.1417	5.333056	0.000395	3.952592	1.339174	0.000158
  56	5.4725e+00	2.1962	5.438022	0.000264	2.635061	0.892783	0.000105
  57	5.5720e+00	2.2187	5.607582	0.000426	4.256638	1.442188	0.000170
  58	5.6715e+00	2.2668	5.752918	0.000365	3.648547	1.236161	0.000146
  59	5.7710e+00	2.3053	5.882107	0.000324	3.243153	1.098810	0.000130
  60	5.8705e+00	2.3454	6.039555	0.000395	3.952592	1.339174	0.000158
  61	5.9700e+00	2.3903	6.140483	0.000253	2.533713	0.858445	0.000101
  62	6.0695e+00	2.4176	6.289857	0.000375	3.749895	1.270499	0.000150
  63	6.1690e+00	2.4593	6.423083	0.000334	3.344501	1.133148	0.000134
  64	6.2685e+00	2.5074	6.596680	0.000436	4.357986	1.476526	0.000174
  65	6.3680e+00	2.5427	6.737980	0.000355	3.547198	1.201823	0.000142
  66	6.4675e+00	2.5876	6.859094	0.000304	3.040456	1.030134	0.000122
  67	6.5670e+00	2.6229	6.992319	0.000334	3.344501	1.133148	0.000134
  68	6.6665e+00	2.6582	7.117470	0.000314	3.141804	1.064472	0.000126
  69	6.7660e+00	2.7047	7.270881	0.000385	3.851244	1.304837	0.000154
  70	6.8655e+00	2.7416	7.424293	0.000385	3.851244	1.304837	0.000154
  71	6.9650e+00	2.7817	7.549444	0.000314	3.141804	1.064472	0.000126
  72	7.0645e+00	2.8234	7.723041	0.000436	4.357986	1.476526	0.000174
  73	7.1640e+00	2.8700	7.823969	0.000253	2.533713	0.858445	0.000101
  74	7.2635e+00	2.9133	8.005640	0.000456	4.560683	1.545201	0.000183
  75	7.3630e+00	2.9438	8.155014	0.000375	3.749895	1.270499	0.000150
  76	7.4625e+00	2.9807	8.255943	0.000253	2.533713	0.858445	0.000101
  77	7.5620e+00	3.0256	8.381094	0.000314	3.141804	1.064472	0.000126
  78	7.6615e+00	3.0577	8.550653	0.000426	4.256638	1.442188	0.000170
  79	7.7610e+00	3.0994	8.720213	0.000426	4.256638	1.442188	0.000170
  80	7.8605e+00	3.1411	8.853439	0.000334	3.344501	1.133148	0.000134
  81	7.9600e+00	3.1860	8.966478	0.000284	2.837758	0.961459	0.000114
  82	8.0595e+00	3.2165	9.164298	0.000497	4.966077	1.682553	0.000199
  83	8.1590e+00	3.2710	9.236967	0.000182	1.824273	0.618081	0.000073
  84	8.2585e+00	3.3176	9.366155	0.000324	3.243153	1.098810	0.000130
  85	8.3580e+00	3.3400	9.539752	0.000436	4.357986	1.476526	0.000174
  86	8.4575e+00	3.3817	9.677014	0.000345	3.445850	1.167485	0.000138
  87	8.5570e+00	3.4154	9.810240	0.000334	3.344501	1.133148	0.000134
  88	8.6565e+00	3.4667	9.979800	0.000426	4.256638	1.442188	0.000170
  89	8.7560e+00	3.5069	10.121099	0.000355	3.547198	1.201823	0.000142
  90	8.8555e+00	3.5454	10.242213	0.000304	3.040456	1.030134	0.000122
  91	8.9550e+00	3.5774	10.411773	0.000426	4.256638	1.442188	0.000170
  92	9.0545e+00	3.6208	10.492516	0.000203	2.026970	0.686756	0.000081
  93	9.1540e+00	3.6641	10.666113	0.000436	4.357986	1.476526	0.000174
  94	9.2535e+00	3.7042	10.811450	0.000365	3.648547	1.236161	0.000146
  95	9.3530e+00	3.7347	10.972935	0.000405	4.053941	1.373512	0.000162
  96	9.4525e+00	3.7732	11.090012	0.000294	2.939107	0.995796	0.000118
  97	9.5520e+00	3.8213	11.223237	0.000334	3.344501	1.133148	0.000134
  98	9.6515e+00	3.8566	11.408946	0.000466	4.662032	1.579539	0.000187
  99	9.7510e+00	3.8919	11.517948	0.000274	2.736410	0.927121	0.000110
 100	9.8505e+00	3.9464	11.675397	0.000395	3.952592	1.339174	0.000158
 101	9.9500e+00	3.9897	11.796511	0.000304	3.040456	1.030134	0.000122
 102	1.0050e+01	4.0170	11.917625	0.000304	3.040456	1.030134	0.000122
 103	1.0149e+01	4.0571	12.075073	0.000395	3.952592	1.339174	0.000158
 104	1.0248e+01	4.1052	12.232521	0.000395	3.952592	1.339174	0.000158
 105	1.0348e+01	4.1421	12.414192	0.000456	4.560683	1.545201	0.000183
 106	1.0447e+01	4.1774	12.515121	0.000253	2.533713	0.858445	0.000101
 107	1.0547e+01	4.2159	12.684680	0.000426	4.256638	1.442188	0.000170
 108	1.0646e+01	4.2560	12.838092	0.000385	3.851244	1.304837	0.000154
 109	1.0746e+01	4.3090	12.951131	0.000284	2.837758	0.961459	0.000114
 110	1.0845e+01	4.3443	13.120691	0.000426	4.256638	1.442188	0.000170
 111	1.0945e+01	4.3780	13.249879	0.000324	3.243153	1.098810	0.000130
 112	1.1044e+01	4.4116	13.431551	0.000456	4.560683	1.545201	0.000183
 113	1.1144e+01	4.4614	13.556702	0.000314	3.141804	1.064472	0.000126
 114	1.1243e+01	4.4951	13.689927	0.000334	3.344501	1.133148	0.000134
 115	1.1343e+01	4.5400	13.831227	0.000355	3.547198	1.201823	0.000142
 116	1.1443e+01	4.5753	14.004824	0.000436	4.357986	1.476526	0.000174
 117	1.1542e+01	4.6106	14.093641	0.000223	2.229667	0.755432	0.000089
 118	1.1642e+01	4.6603	14.194569	0.000253	2.533713	0.858445	0.000101
 119	1.1741e+01	4.6956	14.343943	0.000375	3.749895	1.270499	0.000150
 120	1.1841e+01	4.7373	14.525614	0.000456	4.560683	1.545201	0.000183
 121	1.1940e+01	4.7806	14.711323	0.000466	4.662032	1.579539	0.000187
 122	1.2040e+01	4.8143	14.816288	0.000264	2.635061	0.892783	0.000105
 123	1.2139e+01	4.8608	14.989885	0.000436	4.357986	1.476526	0.000174
 124	1.2239e+01	4.9025	15.159445	0.000426	4.256638	1.442188	0.000170
 125	1.2338e+01	4.9394	15.260373	0.000253	2.533713	0.858445	0.000101
 126	1.2438e+01	4.9795	15.425896	0.000416	4.155289	1.407850	0.000166
 127	1.2537e+01	5.0148	15.534898	0.000274	2.736410	0.927121	0.000110
 128	1.2636e+01	5.0614	15.672161	0.000345	3.445850	1.167485	0.000138
 129	1.2736e+01	5.0999	15.837684	0.000416	4.155289	1.407850	0.000166
 130	1.2835e+01	5.1319	15.946686	0.000274	2.736410	0.927121	0.000110
 131	1.2935e+01	5.1640	16.096060	0.000375	3.749895	1.270499	0.000150
 132	1.3034e+01	5.2089	16.273694	0.000446	4.459335	1.510864	0.000179
 133	1.3134e+01	5.2555	16.431142	0.000395	3.952592	1.339174	0.000158
 134	1.3233e+01	5.3004	16.568405	0.000345	3.445850	1.167485	0.000138
 135	1.3333e+01	5.3341	16.624925	0.000142	1.418879	0.480729	0.000057
 136	1.3432e+01	5.3742	16.790448	0.000416	4.155289	1.407850	0.000166
 137	1.3532e+01	5.4175	16.947896	0.000395	3.952592	1.339174	0.000158
 138	1.3632e+01	5.4576	17.129567	0.000456	4.560683	1.545201	0.000183
 139	1.3731e+01	5.4881	17.262792	0.000334	3.344501	1.133148	0.000134
 140	1.3831e+01	5.5378	17.412166	0.000375	3.749895	1.270499	0.000150
 141	1.3930e+01	5.5795	17.537318	0.000314	3.141804	1.064472	0.000126
 142	1.4030e+01	5.6068	17.702840	0.000416	4.155289	1.407850	0.000166
 143	1.4129e+01	5.6421	17.803769	0.000253	2.533713	0.858445	0.000101
 144	1.4229e+01	5.6902	18.001588	0.000497	4.966077	1.682553	0.000199
 145	1.4328e+01	5.7367	18.142888	0.000355	3.547198	1.201823	0.000142
 146	1.4428e+01	5.7688	18.284188	0.000355	3.547198	1.201823	0.000142
 147	1.4527e+01	5.8137	18.413376	0.000324	3.243153	1.098810	0.000130
 148	1.4627e+01	5.8506	18.562750	0.000375	3.749895	1.270499	0.000150
 149	1.4726e+01	5.8940	18.687901	0.000314	3.141804	1.064472	0.000126
 150	1.4825e+01	5.9308	18.829201	0.000355	3.547198	1.201823	0.000142
 151	1.4925e+01	5.9710	18.958389	0.000324	3.243153	1.098810	0.000130
 152	1.5024e+01	6.0111	19.083541	0.000314	3.141804	1.064472	0.000126
 153	1.5124e+01	6.0576	19.172358	0.000223	2.229667	0.755432	0.000089
 154	1.5223e+01	6.0913	19.341917	0.000426	4.256638	1.442188	0.000170
 155	1.5323e+01	6.1346	19.527626	0.000466	4.662032	1.579539	0.000187
 156	1.5422e+01	6.1747	19.689111	0.000405	4.053941	1.373512	0.000162
 157	1.5522e+01	6.2180	19.814262	0.000314	3.141804	1.064472	0.000126
 158	1.5621e+01	6.2581	19.999970	0.000466	4.662032	1.579539	0.000187
 159	1.5721e+01	6.2886	20.092825	0.000233	2.331016	0.789770	0.000093
 160	1.5820e+01	6.3271	20.246236	0.000385	3.851244	1.304837	0.000154
 161	1.5920e+01	6.3720	20.395610	0.000375	3.749895	1.270499	0.000150
 162	1.6020e+01	6.4073	20.553058	0.000395	3.952592	1.339174	0.000158
 163	1.6119e+01	6.4426	20.637838	0.000213	2.128319	0.721094	0.000085
 164	1.6218e+01	6.4795	20.779138	0.000355	3.547198	1.201823	0.000142
 165	1.6318e+01	6.5276	20.936586	0.000395	3.952592	1.339174	0.000158
 166	1.6418e+01	6.5693	21.057700	0.000304	3.040456	1.030134	0.000122
 167	1.6517e+01	6.6094	21.190925	0.000334	3.344501	1.133148	0.000134
 168	1.6616e+01	6.6511	21.320114	0.000324	3.243153	1.098810	0.000130
 169	1.6716e+01	6.6913	21.437191	0.000294	2.939107	0.995796	0.000118
 170	1.6816e+01	6.7217	21.598676	0.000405	4.053941	1.373512	0.000162
 171	1.6915e+01	6.7650	21.748050	0.000375	3.749895	1.270499	0.000150
 172	1.7015e+01	6.8068	21.836867	0.000223	2.229667	0.755432	0.000089
 173	1.7114e+01	6.8453	22.050835	0.000537	5.371471	1.819904	0.000215
 174	1.7213e+01	6.8902	22.188098	0.000345	3.445850	1.167485	0.000138
 175	1.7313e+01	6.9319	22.297101	0.000274	2.736410	0.927121	0.000110
 176	1.7413e+01	6.9624	22.494920	0.000497	4.966077	1.682553	0.000199
 177	1.7512e+01	7.0057	22.587774	0.000233	2.331016	0.789770	0.000093
 178	1.7611e+01	7.0346	22.733111	0.000365	3.648547	1.236161	0.000146
 179	1.7711e+01	7.0907	22.821928	0.000223	2.229667	0.755432	0.000089
 180	1.7811e+01	7.1244	22.979377	0.000395	3.952592	1.339174	0.000158
 181	1.7910e+01	7.1629	23.108565	0.000324	3.243153	1.098810	0.000130
 182	1.8009e+01	7.1982	23.237753	0.000324	3.243153	1.098810	0.000130
 183	1.8109e+01	7.2447	23.366942	0.000324	3.243153	1.098810	0.000130
 184	1.8209e+01	7.2784	23.520353	0.000385	3.851244	1.304837	0.000154
 185	1.8308e+01	7.3281	23.669727	0.000375	3.749895	1.270499	0.000150
 186	1.8407e+01	7.3698	23.762581	0.000233	2.331016	0.789770	0.000093
 187	1.8507e+01	7.3987	23.847361	0.000213	2.128319	0.721094	0.000085
 188	1.8607e+01	7.4485	24.020958	0.000436	4.357986	1.476526	0.000174
 189	1.8706e+01	7.4870	24.170332	0.000375	3.749895	1.270499	0.000150
 190	1.8805e+01	7.5271	24.311631	0.000355	3.547198	1.201823	0.000142
 191	1.8905e+01	7.5624	24.440820	0.000324	3.243153	1.098810	0.000130
 192	1.9005e+01	7.6137	24.570008	0.000324	3.243153	1.098810	0.000130
 193	1.9104e+01	7.6458	24.727456	0.000395	3.952592	1.339174	0.000158
 194	1.9203e+01	7.6827	24.840496	0.000284	2.837758	0.961459	0.000114
 195	1.9303e+01	7.7196	24.993907	0.000385	3.851244	1.304837	0.000154
 196	1.9402e+01	7.7629	25.106947	0.000284	2.837758	0.961459	0.000114
 197	1.9502e+01	7.8078	25.260358	0.000385	3.851244	1.304837	0.000154
 198	1.9602e+01	7.8399	25.385510	0.000314	3.141804	1.064472	0.000126
 199	1.9701e+01	7.8912	25.490475	0.000264	2.635061	0.892783	0.000105
 200	1.9800e+01	7.9137	25.635812	0.000365	3.648547	1.236161	0.000146
 201	1.9900e+01	7.9698	25.744815	0.000274	2.736410	0.927121	0.000110
 202	2.0000e+01	8.0035	25.894189	0.000375	3.749895	1.270499	0.000150
 203	2.0099e+01	8.0388	25.987043	0.000233	2.331016	0.789770	0.000093
 204	2.0198e+01	8.0805	26.112194	0.000314	3.141804	1.064472	0.000126
 205	2.0298e+01	8.1158	26.269642	0.000395	3.952592	1.339174	0.000158
 206	2.0398e+01	8.1671	26.402868	0.000334	3.344501	1.133148	0.000134
 207	2.0497e+01	8.2057	26.540130	0.000345	3.445850	1.167485	0.000138
 208	2.0596e+01	8.2425	26.649133	0.000274	2.736410	0.927121	0.000110
 209	2.0696e+01	8.2875	26.806581	0.000395	3.952592	1.339174	0.000158
 210	2.0796e+01	8.3196	26.947881	0.000355	3.547198	1.201823	0.000142
 211	2.0895e+01	8.3613	27.040735	0.000233	2.331016	0.789770	0.000093
 212	2.0994e+01	8.4062	27.177998	0.000345	3.445850	1.167485	0.000138
 213	2.1094e+01	8.4318	27.355632	0.000446	4.459335	1.510864	0.000179
 214	2.1194e+01	8.4848	27.460597	0.000264	2.635061	0.892783	0.000105
 215	2.1293e+01	8.5201	27.565563	0.000264	2.635061	0.892783	0.000105
 216	2.1392e+01	8.5634	27.698788	0.000334	3.344501	1.133148	0.000134
 217	2.1492e+01	8.5987	27.832014	0.000334	3.344501	1.133148	0.000134
 218	2.1591e+01	8.6324	27.920831	0.000223	2.229667	0.755432	0.000089
 219	2.1691e+01	8.6933	28.045982	0.000314	3.141804	1.064472	0.000126
 220	2.1791e+01	8.7222	28.223616	0.000446	4.459335	1.510864	0.000179
 221	2.1890e+01	8.7655	28.292247	0.000172	1.722925	0.583743	0.000069
 222	2.1989e+01	8.8056	28.425473	0.000334	3.344501	1.133148	0.000134
 223	2.2089e+01	8.8377	28.566772	0.000355	3.547198	1.201823	0.000142
 224	2.2189e+01	8.8794	28.720184	0.000385	3.851244	1.304837	0.000154
 225	2.2288e+01	8.9163	28.837261	0.000294	2.939107	0.995796	0.000118
 226	2.2387e+01	8.9596	28.978560	0.000355	3.547198	1.201823	0.000142
 227	2.2487e+01	8.9997	29.091600	0.000284	2.837758	0.961459	0.000114
 228	2.2587e+01	9.0382	29.224826	0.000334	3.344501	1.133148	0.000134
 229	2.2686e+01	9.0800	29.333828	0.000274	2.736410	0.927121	0.000110
 230	2.2785e+01	9.1233	29.450905	0.000294	2.939107	0.995796	0.000118
 231	2.2885e+01	9.1618	29.580094	0.000324	3.243153	1.098810	0.000130
 232	2.2985e+01	9.1971	29.693133	0.000284	2.837758	0.961459	0.000114
 233	2.3084e+01	9.2292	29.834433	0.000355	3.547198	1.201823	0.000142
 234	2.3183e+01	9.2773	29.983807	0.000375	3.749895	1.270499	0.000150
 235	2.3283e+01	9.3190	30.092810	0.000274	2.736410	0.927121	0.000110
 236	2.3383e+01	9.3543	30.213924	0.000304	3.040456	1.030134	0.000122
 237	2.3482e+01	9.4024	30.347149	0.000334	3.344501	1.133148	0.000134
 238	2.3581e+01	9.4393	30.444041	0.000243	2.432364	0.824107	0.000097
 239	2.3681e+01	9.4810	30.577266	0.000334	3.344501	1.133148	0.000134
 240	2.3780e+01	9.5307	30.698380	0.000304	3.040456	1.030134	0.000122
 241	2.3880e+01	9.5500	30.815457	0.000294	2.939107	0.995796	0.000118
 242	2.3980e+01	9.5997	30.960794	0.000365	3.648547	1.236161	0.000146
 243	2.4079e+01	9.6398	31.110168	0.000375	3.749895	1.270499	0.000150
 244	2.4178e+01	9.6751	31.211096	0.000253	2.533713	0.858445	0.000101
 245	2.4278e+01	9.7184	31.344322	0.000334	3.344501	1.133148	0.000134
 246	2.4378e+01	9.7505	31.445250	0.000253	2.533713	0.858445	0.000101
 247	2.4477e+01	9.7938	31.586550	0.000355	3.547198	1.201823	0.000142
 248	2.4576e+01	9.8356	31.671330	0.000213	2.128319	0.721094	0.000085
 249	2.4676e+01	9.8789	31.828778	0.000395	3.952592	1.339174	0.000158
 250	2.4776e+01	9.9126	31.949892	0.000304	3.040456	1.030134	0.000122
 251	2.4875e+01	9.9623	32.079081	0.000324	3.243153	1.098810	0.000130
 252	2.4974e+01	10.0040	32.200195	0.000304	3.040456	1.030134	0.000122
 253	2.5074e+01	10.0361	32.284974	0.000213	2.128319	0.721094	0.000085
 254	2.5174e+01	10.0746	32.442423	0.000395	3.952592	1.339174	0.000158
 255	2.5273e+01	10.1227	32.587760	0.000365	3.648547	1.236161	0.000146
 256	2.5372e+01	10.1596	32.664465	0.000193	1.925622	0.652418	0.000077
 257	2.5472e+01	10.1981	32.817876	0.000385	3.851244	1.304837	0.000154
 258	2.5572e+01	10.2446	32.918805	0.000253	2.533713	0.858445	0.000101
 259	2.5671e+01	10.2735	33.068179	0.000375	3.749895	1.270499	0.000150
 260	2.5770e+01	10.3120	33.189293	0.000304	3.040456	1.030134	0.000122
 261	2.5870e+01	10.3521	33.278110	0.000223	2.229667	0.755432	0.000089
 262	2.5970e+01	10.3890	33.403261	0.000314	3.141804	1.064472	0.000126
 263	2.6069e+01	10.4355	33.556672	0.000385	3.851244	1.304837	0.000154
 264	2.6169e+01	10.4692	33.665675	0.000274	2.736410	0.927121	0.000110
 265	2.6268e+01	10.5141	33.782752	0.000294	2.939107	0.995796	0.000118
 266	2.6367e+01	10.5623	33.924052	0.000355	3.547198	1.201823	0.000142
 267	2.6467e+01	10.5879	34.061314	0.000345	3.445850	1.167485	0.000138
 268	2.6567e+01	10.6409	34.182428	0.000304	3.040456	1.030134	0.000122
 269	2.6666e+01	10.6746	34.251060	0.000172	1.722925	0.583743	0.000069
 270	2.6765e+01	10.7083	34.408508	0.000395	3.952592	1.339174	0.000158
 271	2.6865e+01	10.7435	34.517511	0.000274	2.736410	0.927121	0.000110
 272	2.6965e+01	10.7965	34.630550	0.000284	2.837758	0.961459	0.000114
 273	2.7064e+01	10.8286	34.787999	0.000395	3.952592	1.339174	0.000158
 274	2.7163e+01	10.8767	34.836444	0.000122	1.216182	0.412054	0.000049
 275	2.7263e+01	10.9200	35.014078	0.000446	4.459335	1.510864	0.000179
 276	2.7363e+01	10.9585	35.119044	0.000264	2.635061	0.892783	0.000105
 277	2.7462e+01	10.9906	35.276492	0.000395	3.952592	1.339174	0.000158
 278	2.7561e+01	11.0371	35.393569	0.000294	2.939107	0.995796	0.000118
 279	2.7661e+01	11.0788	35.502572	0.000274	2.736410	0.927121	0.000110
 280	2.7761e+01	11.1141	35.655983	0.000385	3.851244	1.304837	0.000154
 281	2.7860e+01	11.1526	35.736726	0.000203	2.026970	0.686756	0.000081
 282	2.7959e+01	11.1959	35.890137	0.000385	3.851244	1.304837	0.000154
 283	2.8059e+01	11.2216	36.019325	0.000324	3.243153	1.098810	0.000130
 284	2.8159e+01	11.2665	36.136402	0.000294	2.939107	0.995796	0.000118
 285	2.8258e+01	11.3098	36.237330	0.000253	2.533713	0.858445	0.000101
 286	2.8358e+01	11.3564	36.382667	0.000365	3.648547	1.236161	0.000146
 287	2.8457e+01	11.4013	36.467447	0.000213	2.128319	0.721094	0.000085
 288	2.8556e+01	11.4366	36.653155	0.000466	4.662032	1.579539	0.000187
 289	2.8656e+01	11.4703	36.693527	0.000101	1.013485	0.343378	0.000041
 290	2.8756e+01	11.5184	36.834826	0.000355	3.547198	1.201823	0.000142
 291	2.8855e+01	11.5553	36.976126	0.000355	3.547198	1.201823	0.000142
 292	2.8954e+01	11.5874	37.089166	0.000284	2.837758	0.961459	0.000114
 293	2.9054e+01	11.6275	37.190094	0.000253	2.533713	0.858445	0.000101
 294	2.9154e+01	11.6772	37.343506	0.000385	3.851244	1.304837	0.000154
 295	2.9253e+01	11.7157	37.428285	0.000213	2.128319	0.721094	0.000085
 296	2.9352e+01	11.7462	37.549399	0.000304	3.040456	1.030134	0.000122
 297	2.9452e+01	11.7863	37.666476	0.000294	2.939107	0.995796	0.000118
 298	2.9552e+01	11.8216	37.836036	0.000426	4.256638	1.442188	0.000170
 299	2.9651e+01	11.8649	37.949076	0.000284	2.837758	0.961459	0.000114
 300	2.9750e+01	11.9066	38.045967	0.000243	2.432364	0.824107	0.000097
 301	2.9850e+01	11.9483	38.154970	0.000274	2.736410	0.927121	0.000110
 302	2.9950e+01	11.9948	38.292232	0.000345	3.445850	1.167485	0.000138
 303	3.0049e+01	12.0157	38.393161	0.000253	2.533713	0.858445	0.000101
 304	3.0148e+01	12.0638	38.566758	0.000436	4.357986	1.476526	0.000174
 305	3.0248e+01	12.1120	38.691909	0.000314	3.141804	1.064472	0.000126
 306	3.0348e+01	12.1537	38.804949	0.000284	2.837758	0.961459	0.000114
 307	3.0447e+01	12.1906	38.938174	0.000334	3.344501	1.133148	0.000134
 308	3.0547e+01	12.2275	38.998731	0.000152	1.520228	0.515067	0.000061
 309	3.0646e+01	12.2756	39.140031	0.000355	3.547198	1.201823	0.000142
 310	3.0745e+01	12.3045	39.289405	0.000375	3.749895	1.270499	0.000150
 311	3.0845e+01	12.3510	39.374185	0.000213	2.128319	0.721094	0.000085
 312	3.0945e+01	12.3879	39.503373	0.000324	3.243153	1.098810	0.000130
 313	3.1044e+01	12.4216	39.584116	0.000203	2.026970	0.686756	0.000081
 314	3.1143e+01	12.4633	39.733490	0.000375	3.749895	1.270499	0.000150
 315	3.1243e+01	12.5098	39.810196	0.000193	1.925622	0.652418	0.000077
 316	3.1343e+01	12.5403	39.943421	0.000334	3.344501	1.133148	0.000134
 317	3.1442e+01	12.5804	40.076646	0.000334	3.344501	1.133148	0.000134
 318	3.1541e+01	12.6301	40.193723	0.000294	2.939107	0.995796	0.000118
 319	3.1641e+01	12.6590	40.330986	0.000345	3.445850	1.167485	0.000138
 320	3.1741e+01	12.7007	40.407692	0.000193	1.925622	0.652418	0.000077
 321	3.1840e+01	12.7553	40.557066	0.000375	3.749895	1.270499	0.000150
 322	3.1939e+01	12.7889	40.706440	0.000375	3.749895	1.270499	0.000150
 323	3.2039e+01	12.8146	40.819479	0.000284	2.837758	0.961459	0.000114
 324	3.2139e+01	12.8579	40.908296	0.000223	2.229667	0.755432	0.000089
 325	3.2238e+01	12.9109	41.037485	0.000324	3.243153	1.098810	0.000130
 326	3.2337e+01	12.9430	41.130339	0.000233	2.331016	0.789770	0.000093
 327	3.2437e+01	12.9847	41.190896	0.000152	1.520228	0.515067	0.000061
 328	3.2536e+01	13.0264	41.344307	0.000385	3.851244	1.304837	0.000154
 329	3.2636e+01	13.0633	41.461384	0.000294	2.939107	0.995796	0.000118
 330	3.2736e+01	13.1034	41.582498	0.000304	3.040456	1.030134	0.000122
 331	3.2835e+01	13.1387	41.659204	0.000193	1.925622	0.652418	0.000077
 332	3.2934e+01	13.1820	41.784355	0.000314	3.141804	1.064472	0.000126
 333	3.3034e+01	13.2157	41.945840	0.000405	4.053941	1.373512	0.000162
 334	3.3133e+01	13.2606	42.046769	0.000253	2.533713	0.858445	0.000101
 335	3.3233e+01	13.3007	42.188068	0.000355	3.547198	1.201823	0.000142
 336	3.3333e+01	13.3488	42.288997	0.000253	2.533713	0.858445	0.000101
 337	3.3432e+01	13.3793	42.381851	0.000233	2.331016	0.789770	0.000093
 338	3.3532e+01	13.4226	42.498928	0.000294	2.939107	0.995796	0.000118
 339	3.3631e+01	13.4579	42.583708	0.000213	2.128319	0.721094	0.000085
 340	3.3730e+01	13.4916	42.745193	0.000405	4.053941	1.373512	0.000162
 341	3.3830e+01	13.5494	42.910716	0.000416	4.155289	1.407850	0.000166
 342	3.3929e+01	13.5830	43.007607	0.000243	2.432364	0.824107	0.000097
 343	3.4029e+01	13.6264	43.128721	0.000304	3.040456	1.030134	0.000122
 344	3.4129e+01	13.6649	43.169092	0.000101	1.013485	0.343378	0.000041
 345	3.4228e+01	13.6953	43.302318	0.000334	3.344501	1.133148	0.000134
 346	3.4328e+01	13.7435	43.403246	0.000253	2.533713	0.858445	0.000101
 347	3.4427e+01	13.7836	43.516286	0.000284	2.837758	0.961459	0.000114
 348	3.4526e+01	13.8189	43.597029	0.000203	2.026970	0.686756	0.000081
 349	3.4626e+01	13.8670	43.730254	0.000334	3.344501	1.133148	0.000134
 350	3.4725e+01	13.9023	43.847331	0.000294	2.939107	0.995796	0.000118
 351	3.4825e+01	13.9328	43.956334	0.000274	2.736410	0.927121	0.000110
 352	3.4925e+01	13.9713	44.073411	0.000294	2.939107	0.995796	0.000118
 353	3.5024e+01	14.0146	44.142042	0.000172	1.722925	0.583743	0.000069
 354	3.5123e+01	14.0547	44.287379	0.000365	3.648547	1.236161	0.000146
 355	3.5223e+01	14.0980	44.404456	0.000294	2.939107	0.995796	0.000118
 356	3.5322e+01	14.1365	44.521533	0.000294	2.939107	0.995796	0.000118
 357	3.5422e+01	14.1798	44.646684	0.000314	3.141804	1.064472	0.000126
 358	3.5522e+01	14.2055	44.792021	0.000365	3.648547	1.236161	0.000146
 359	3.5621e+01	14.2632	44.868727	0.000193	1.925622	0.652418	0.000077
 360	3.5721e+01	14.3033	44.981766	0.000284	2.837758	0.961459	0.000114
 361	3.5820e+01	14.3306	45.110955	0.000324	3.243153	1.098810	0.000130
 362	3.5919e+01	14.3755	45.163438	0.000132	1.317531	0.446391	0.000053
 363	3.6019e+01	14.4092	45.248217	0.000213	2.128319	0.721094	0.000085
 364	3.6118e+01	14.4477	45.361257	0.000284	2.837758	0.961459	0.000114
 365	3.6218e+01	14.4862	45.437963	0.000193	1.925622	0.652418	0.000077
 366	3.6318e+01	14.5343	45.567151	0.000324	3.243153	1.098810	0.000130
 367	3.6417e+01	14.5793	45.660005	0.000233	2.331016	0.789770	0.000093
 368	3.6517e+01	14.6242	45.825528	0.000416	4.155289	1.407850	0.000166
 369	3.6616e+01	14.6547	45.865899	0.000101	1.013485	0.343378	0.000041
 370	3.6715e+01	14.6916	46.011236	0.000365	3.648547	1.236161	0.000146
 371	3.6815e+01	14.7349	46.140424	0.000324	3.243153	1.098810	0.000130
 372	3.6914e+01	14.7782	46.245390	0.000264	2.635061	0.892783	0.000105
 373	3.7014e+01	14.8199	46.346318	0.000253	2.533713	0.858445	0.000101
 374	3.7114e+01	14.8488	46.487618	0.000355	3.547198	1.201823	0.000142
 375	3.7213e+01	14.8905	46.584509	0.000243	2.432364	0.824107	0.000097
 376	3.7313e+01	14.9322	46.701586	0.000294	2.939107	0.995796	0.000118
 377	3.7412e+01	14.9691	46.798477	0.000243	2.432364	0.824107	0.000097
 378	3.7511e+01	15.0156	46.923629	0.000314	3.141804	1.064472	0.000126
 379	3.7611e+01	15.0461	47.020520	0.000243	2.432364	0.824107	0.000097
 380	3.7711e+01	15.0990	47.121448	0.000253	2.533713	0.858445	0.000101
 381	3.7810e+01	15.1359	47.157783	0.000091	0.912137	0.309040	0.000037
 382	3.7910e+01	15.1744	47.266785	0.000274	2.736410	0.927121	0.000110
 383	3.8009e+01	15.2065	47.363676	0.000243	2.432364	0.824107	0.000097
 384	3.8108e+01	15.2546	47.509013	0.000365	3.648547	1.236161	0.000146
 385	3.8208e+01	15.2851	47.589756	0.000203	2.026970	0.686756	0.000081
 386	3.8307e+01	15.3349	47.678573	0.000223	2.229667	0.755432	0.000089
 387	3.8407e+01	15.3750	47.767390	0.000223	2.229667	0.755432	0.000089
 388	3.8507e+01	15.4087	47.916764	0.000375	3.749895	1.270499	0.000150
 389	3.8606e+01	15.4616	48.001544	0.000213	2.128319	0.721094	0.000085
 390	3.8706e+01	15.4937	48.114584	0.000284	2.837758	0.961459	0.000114
 391	3.8805e+01	15.5290	48.247809	0.000334	3.344501	1.133148	0.000134
 392	3.8904e+01	15.5723	48.336626	0.000223	2.229667	0.755432	0.000089
 393	3.9004e+01	15.6060	48.465815	0.000324	3.243153	1.098810	0.000130
 394	3.9103e+01	15.6493	48.570780	0.000264	2.635061	0.892783	0.000105
 395	3.9203e+01	15.6894	48.663634	0.000233	2.331016	0.789770	0.000093
 396	3.9303e+01	15.7343	48.748414	0.000213	2.128319	0.721094	0.000085
 397	3.9402e+01	15.7760	48.885677	0.000345	3.445850	1.167485	0.000138
 398	3.9502e+01	15.8161	48.942197	0.000142	1.418879	0.480729	0.000057
 399	3.9601e+01	15.8514	49.055236	0.000284	2.837758	0.961459	0.000114
 400	3.9700e+01	15.8883	49.123868	0.000172	1.722925	0.583743	0.000069
 401	3.9800e+01	15.9364	49.204610	0.000203	2.026970	0.686756	0.000081
 402	3.9900e+01	15.9653	49.325724	0.000304	3.040456	1.030134	0.000122
 403	3.9999e+01	16.0102	49.418579	0.000233	2.331016	0.789770	0.000093
 404	4.0099e+01	16.0455	49.527581	0.000274	2.736410	0.927121	0.000110
 405	4.0198e+01	16.0889	49.656770	0.000324	3.243153	1.098810	0.000130
 406	4.0297e+01	16.1113	49.757698	0.000253	2.533713	0.858445	0.000101
 407	4.0397e+01	16.1723	49.862664	0.000264	2.635061	0.892783	0.000105
 408	4.0496e+01	16.2140	49.999926	0.000345	3.445850	1.167485	0.000138
 409	4.0596e+01	16.2509	50.080669	0.000203	2.026970	0.686756	0.000081
 410	4.0696e+01	16.2894	50.221969	0.000355	3.547198	1.201823	0.000142
 411	4.0795e+01	16.3295	50.318860	0.000243	2.432364	0.824107	0.000097
 412	4.0895e+01	16.3696	50.407677	0.000223	2.229667	0.755432	0.000089
 413	4.0994e+01	16.4081	50.488420	0.000203	2.026970	0.686756	0.000081
 414	4.1093e+01	16.4514	50.629719	0.000355	3.547198	1.201823	0.000142
 415	4.1193e+01	16.4835	50.686239	0.000142	1.418879	0.480729	0.000057
 416	4.1292e+01	16.5220	50.807353	0.000304	3.040456	1.030134	0.000122
 417	4.1392e+01	16.5685	50.847725	0.000101	1.013485	0.343378	0.000041
 418	4.1492e+01	16.6102	50.964802	0.000294	2.939107	0.995796	0.000118
 419	4.1591e+01	16.6551	51.061693	0.000243	2.432364	0.824107	0.000097
 420	4.1691e+01	16.6888	51.158584	0.000243	2.432364	0.824107	0.000097
 421	4.1790e+01	16.7289	51.231253	0.000182	1.824273	0.618081	0.000073
 422	4.1889e+01	16.7706	51.392738	0.000405	4.053941	1.373512	0.000162
 423	4.1989e+01	16.8124	51.497703	0.000264	2.635061	0.892783	0.000105
 424	4.2089e+01	16.8460	51.594595	0.000243	2.432364	0.824107	0.000097
 425	4.2188e+01	16.8862	51.703597	0.000274	2.736410	0.927121	0.000110
 426	4.2288e+01	16.9263	51.820674	0.000294	2.939107	0.995796	0.000118
 427	4.2387e+01	16.9519	51.941788	0.000304	3.040456	1.030134	0.000122
 428	4.2486e+01	17.0017	52.014457	0.000182	1.824273	0.618081	0.000073
 429	4.2586e+01	17.0434	52.143645	0.000324	3.243153	1.098810	0.000130
 430	4.2685e+01	17.0867	52.224388	0.000203	2.026970	0.686756	0.000081
 431	4.2785e+01	17.1380	52.329353	0.000264	2.635061	0.892783	0.000105
 432	4.2885e+01	17.1717	52.434319	0.000264	2.635061	0.892783	0.000105
 433	4.2984e+01	17.2022	52.523136	0.000223	2.229667	0.755432	0.000089
 434	4.3084e+01	17.2455	52.595804	0.000182	1.824273	0.618081	0.000073
 435	4.3183e+01	17.2792	52.684621	0.000223	2.229667	0.755432	0.000089
 436	4.3282e+01	17.3321	52.793624	0.000274	2.736410	0.927121	0.000110
 437	4.3382e+01	17.3626	52.866292	0.000182	1.824273	0.618081	0.000073
 438	4.3481e+01	17.3979	52.971258	0.000264	2.635061	0.892783	0.000105
 439	4.3581e+01	17.4396	53.112558	0.000355	3.547198	1.201823	0.000142
 440	4.3681e+01	17.4893	53.189263	0.000193	1.925622	0.652418	0.000077
 441	4.3780e+01	17.5246	53.334600	0.000365	3.648547	1.236161	0.000146
 442	4.3880e+01	17.5583	53.443603	0.000274	2.736410	0.927121	0.000110
 443	4.3979e+01	17.5984	53.564717	0.000304	3.040456	1.030134	0.000122
 444	4.4078e+01	17.6466	53.641423	0.000193	1.925622	0.652418	0.000077
 445	4.4178e+01	17.6867	53.766574	0.000314	3.141804	1.064472	0.000126
 446	4.4278e+01	17.7268	53.871539	0.000264	2.635061	0.892783	0.000105
 447	4.4377e+01	17.7589	53.936133	0.000162	1.621576	0.549405	0.000065
 448	4.4477e+01	17.7974	54.069359	0.000334	3.344501	1.133148	0.000134
 449	4.4576e+01	17.8359	54.170287	0.000253	2.533713	0.858445	0.000101
 450	4.4675e+01	17.8824	54.259104	0.000223	2.229667	0.755432	0.000089
 451	4.4775e+01	17.9289	54.380218	0.000304	3.040456	1.030134	0.000122
 452	4.4874e+01	17.9594	54.436738	0.000142	1.418879	0.480729	0.000057
 453	4.4974e+01	18.0059	54.501332	0.000162	1.621576	0.549405	0.000065
 454	4.5074e+01	18.0380	54.582075	0.000203	2.026970	0.686756	0.000081
 455	4.5173e+01	18.0861	54.703189	0.000304	3.040456	1.030134	0.000122
 456	4.5273e+01	18.1262	54.787969	0.000213	2.128319	0.721094	0.000085
 457	4.5372e+01	18.1615	54.888897	0.000253	2.533713	0.858445	0.000101
 458	4.5471e+01	18.2096	55.014049	0.000314	3.141804	1.064472	0.000126
 459	4.5571e+01	18.2433	55.123051	0.000274	2.736410	0.927121	0.000110
 460	4.5670e+01	18.2818	55.244165	0.000304	3.040456	1.030134	0.000122
 461	4.5770e+01	18.3171	55.357205	0.000284	2.837758	0.961459	0.000114
 462	4.5870e+01	18.3604	55.474282	0.000294	2.939107	0.995796	0.000118
 463	4.5969e+01	18.3957	55.587322	0.000284	2.837758	0.961459	0.000114
 464	4.6069e+01	18.4471	55.647879	0.000152	1.520228	0.515067	0.000061
 465	4.6168e+01	18.4808	55.760919	0.000284	2.837758	0.961459	0.000114
 466	4.6267e+01	18.5225	55.873959	0.000284	2.837758	0.961459	0.000114
 467	4.6367e+01	18.5546	55.999110	0.000314	3.141804	1.064472	0.000126
 468	4.6467e+01	18.6059	56.071778	0.000182	1.824273	0.618081	0.000073
 469	4.6566e+01	18.6460	56.152521	0.000203	2.026970	0.686756	0.000081
 470	4.6666e+01	18.6781	56.237301	0.000213	2.128319	0.721094	0.000085
 471	4.6765e+01	18.7182	56.334192	0.000243	2.432364	0.824107	0.000097
 472	4.6864e+01	18.7583	56.398786	0.000162	1.621576	0.549405	0.000065
 473	4.6964e+01	18.7952	56.519900	0.000304	3.040456	1.030134	0.000122
 474	4.7063e+01	18.8385	56.628903	0.000274	2.736410	0.927121	0.000110
 475	4.7163e+01	18.8706	56.729831	0.000253	2.533713	0.858445	0.000101
 476	4.7263e+01	18.9235	56.854983	0.000314	3.141804	1.064472	0.000126
 477	4.7362e+01	18.9508	56.968022	0.000284	2.837758	0.961459	0.000114
 478	4.7462e+01	19.0005	57.081062	0.000284	2.837758	0.961459	0.000114
 479	4.7561e+01	19.0406	57.190065	0.000274	2.736410	0.927121	0.000110
 480	4.7660e+01	19.0775	57.286956	0.000243	2.432364	0.824107	0.000097
 481	4.7760e+01	19.1257	57.363662	0.000193	1.925622	0.652418	0.000077
 482	4.7859e+01	19.1577	57.452479	0.000223	2.229667	0.755432	0.000089
 483	4.7959e+01	19.1914	57.601853	0.000375	3.749895	1.270499	0.000150
 484	4.8059e+01	19.2364	57.666447	0.000162	1.621576	0.549405	0.000065
 485	4.8158e+01	19.2700	57.775450	0.000274	2.736410	0.927121	0.000110
 486	4.8258e+01	19.3102	57.860229	0.000213	2.128319	0.721094	0.000085
 487	4.8357e+01	19.3631	57.940972	0.000203	2.026970	0.686756	0.000081
 488	4.8456e+01	19.4016	58.005566	0.000162	1.621576	0.549405	0.000065
 489	4.8556e+01	19.4369	58.118606	0.000284	2.837758	0.961459	0.000114
 490	4.8656e+01	19.4818	58.179163	0.000152	1.520228	0.515067	0.000061
 491	4.8755e+01	19.5155	58.316426	0.000345	3.445850	1.167485	0.000138
 492	4.8855e+01	19.5588	58.413317	0.000243	2.432364	0.824107	0.000097
 493	4.8954e+01	19.5973	58.546542	0.000334	3.344501	1.133148	0.000134
 494	4.9053e+01	19.6374	58.623248	0.000193	1.925622	0.652418	0.000077
 495	4.9153e+01	19.6791	58.708028	0.000213	2.128319	0.721094	0.000085
 496	4.9252e+01	19.7224	58.821068	0.000284	2.837758	0.961459	0.000114
 497	4.9352e+01	19.7497	58.921996	0.000253	2.533713	0.858445	0.000101
 498	4.9452e+01	19.7946	59.030999	0.000274	2.736410	0.927121	0.000110
 499	4.9551e+01	19.8331	59.152113	0.000304	3.040456	1.030134	0.000122
 500	4.9651e+01	19.8797	59.232856	0.000203	2.026970	0.686756	0.000081
 501	4.9750e+01	19.9085	59.317635	0.000213	2.128319	0.721094	0.000085
 502	4.9849e+01	19.9534	59.390304	0.000182	1.824273	0.618081	0.000073
 503	4.9949e+01	19.9936	59.515455	0.000314	3.141804	1.064472	0.000126
 504	5.0048e+01	19.9486	59.414527	0.000253	2.533713	0.858445	-0.000101
 505	5.0148e+01	19.9182	59.301487	0.000284	2.837758	0.961459	-0.000114
 506	5.0248e+01	19.8700	59.257078	0.000111	1.114834	0.377716	-0.000045
 507	5.0347e+01	19.8412	59.164224	0.000233	2.331016	0.789770	-0.000093
 508	5.0447e+01	19.8026	59.071370	0.000233	2.331016	0.789770	-0.000093
 509	5.0546e+01	19.7658	59.002739	0.000172	1.722925	0.583743	-0.000069
 510	5.0645e+01	19.7144	58.946219	0.000142	1.418879	0.480729	-0.000057
 511	5.0745e+01	19.6647	58.901810	0.000111	1.114834	0.377716	-0.000045
 512	5.0844e+01	19.6294	58.837216	0.000162	1.621576	0.549405	-0.000065
 513	5.0944e+01	19.5989	58.752436	0.000213	2.128319	0.721094	-0.000085
 514	5.1044e+01	19.5604	58.683805	0.000172	1.722925	0.583743	-0.000069
 515	5.1143e+01	19.5139	58.615174	0.000172	1.722925	0.583743	-0.000069
 516	5.1242e+01	19.4738	58.502134	0.000284	2.837758	0.961459	-0.000114
 517	5.1342e+01	19.4369	58.421391	0.000203	2.026970	0.686756	-0.000081
 518	5.1441e+01	19.3936	58.352760	0.000172	1.722925	0.583743	-0.000069
 519	5.1541e+01	19.3615	58.223572	0.000324	3.243153	1.098810	-0.000130
 520	5.1641e+01	19.3214	58.171089	0.000132	1.317531	0.446391	-0.000053
 521	5.1740e+01	19.2733	58.058049	0.000284	2.837758	0.961459	-0.000114
 522	5.1840e+01	19.2460	58.025752	0.000081	0.810788	0.274702	-0.000032
 523	5.1939e+01	19.1962	57.916749	0.000274	2.736410	0.927121	-0.000110
 524	5.2038e+01	19.1690	57.803709	0.000284	2.837758	0.961459	-0.000114
 525	5.2138e+01	19.1209	57.654335	0.000375	3.749895	1.270499	-0.000150
 526	5.2237e+01	19.0759	57.605890	0.000122	1.216182	0.412054	-0.000049
 527	5.2337e+01	19.0455	57.545333	0.000152	1.520228	0.515067	-0.000061
 528	5.2437e+01	19.0037	57.500924	0.000111	1.114834	0.377716	-0.000045
 529	5.2536e+01	18.9588	57.375773	0.000314	3.141804	1.064472	-0.000126
 530	5.2636e+01	18.9235	57.311179	0.000162	1.621576	0.549405	-0.000065
 531	5.2735e+01	18.8818	57.218325	0.000233	2.331016	0.789770	-0.000093
 532	5.2834e+01	18.8401	57.137582	0.000203	2.026970	0.686756	-0.000081
 533	5.2934e+01	18.8000	57.081062	0.000142	1.418879	0.480729	-0.000057
 534	5.3033e+01	18.7567	57.000319	0.000203	2.026970	0.686756	-0.000081
 535	5.3133e+01	18.7294	56.883243	0.000294	2.939107	0.995796	-0.000118
 536	5.3233e+01	18.6749	56.834797	0.000122	1.216182	0.412054	-0.000049
 537	5.3332e+01	18.6444	56.745980	0.000223	2.229667	0.755432	-0.000089
 538	5.3431e+01	18.5947	56.608717	0.000345	3.445850	1.167485	-0.000138
 539	5.3531e+01	18.5610	56.548160	0.000152	1.520228	0.515067	-0.000061
 540	5.3630e+01	18.5161	56.475492	0.000182	1.824273	0.618081	-0.000073
 541	5.3730e+01	18.4743	56.370526	0.000264	2.635061	0.892783	-0.000105
 542	5.3830e+01	18.4487	56.249412	0.000304	3.040456	1.030134	-0.000122
 543	5.3929e+01	18.4102	56.120224	0.000324	3.243153	1.098810	-0.000130
 544	5.4029e+01	18.3620	56.059667	0.000152	1.520228	0.515067	-0.000061
 545	5.4128e+01	18.3155	55.970850	0.000223	2.229667	0.755432	-0.000089
 546	5.4227e+01	18.2802	55.882033	0.000223	2.229667	0.755432	-0.000089
 547	5.4327e+01	18.2465	55.833587	0.000122	1.216182	0.412054	-0.000049
 548	5.4426e+01	18.2064	55.732659	0.000253	2.533713	0.858445	-0.000101
 549	5.4526e+01	18.1663	55.668065	0.000162	1.621576	0.549405	-0.000065
 550	5.4626e+01	18.1230	55.571173	0.000243	2.432364	0.824107	-0.000097
 551	5.4725e+01	18.0797	55.506579	0.000162	1.621576	0.549405	-0.000065
 552	5.4825e+01	18.0428	55.397577	0.000274	2.736410	0.927121	-0.000110
 553	5.4924e+01	17.9963	55.296648	0.000253	2.533713	0.858445	-0.000101
 554	5.5023e+01	17.9562	55.195720	0.000253	2.533713	0.858445	-0.000101
 555	5.5123e+01	17.9193	55.123051	0.000182	1.824273	0.618081	-0.000073
 556	5.5222e+01	17.8776	55.038272	0.000213	2.128319	0.721094	-0.000085
 557	5.5322e+01	17.8391	54.925232	0.000284	2.837758	0.961459	-0.000114
 558	5.5422e+01	17.8022	54.824303	0.000253	2.533713	0.858445	-0.000101
 559	5.5521e+01	17.7637	54.735486	0.000223	2.229667	0.755432	-0.000089
 560	5.5620e+01	17.7332	54.630521	0.000264	2.635061	0.892783	-0.000105
 561	5.5720e+01	17.6851	54.485184	0.000365	3.648547	1.236161	-0.000146
 562	5.5819e+01	17.6385	54.428664	0.000142	1.418879	0.480729	-0.000057
 563	5.5919e+01	17.5984	54.331773	0.000243	2.432364	0.824107	-0.000097
 564	5.6019e+01	17.5615	54.283327	0.000122	1.216182	0.412054	-0.000049
 565	5.6118e+01	17.5278	54.218733	0.000162	1.621576	0.549405	-0.000065
 566	5.6218e+01	17.4861	54.109730	0.000274	2.736410	0.927121	-0.000110
 567	5.6317e+01	17.4412	54.020913	0.000223	2.229667	0.755432	-0.000089
 568	5.6416e+01	17.4091	53.944208	0.000193	1.925622	0.652418	-0.000077
 569	5.6516e+01	17.3578	53.790797	0.000385	3.851244	1.304837	-0.000154
 570	5.6615e+01	17.3289	53.746388	0.000111	1.114834	0.377716	-0.000045
 571	5.6715e+01	17.2824	53.645460	0.000253	2.533713	0.858445	-0.000101
 572	5.6815e+01	17.2471	53.572791	0.000182	1.824273	0.618081	-0.000073
 573	5.6914e+01	17.2086	53.483974	0.000223	2.229667	0.755432	-0.000089
 574	5.7014e+01	17.1573	53.383046	0.000253	2.533713	0.858445	-0.000101
 575	5.7113e+01	17.1220	53.282117	0.000253	2.533713	0.858445	-0.000101
 576	5.7212e+01	17.0803	53.181189	0.000253	2.533713	0.858445	-0.000101
 577	5.7312e+01	17.0498	53.052001	0.000324	3.243153	1.098810	-0.000130
 578	5.7411e+01	17.0065	52.934924	0.000294	2.939107	0.995796	-0.000118
 579	5.7511e+01	16.9760	52.821884	0.000284	2.837758	0.961459	-0.000114
 580	5.7611e+01	16.9327	52.737104	0.000213	2.128319	0.721094	-0.000085
 581	5.7710e+01	16.8846	52.733067	0.000010	0.101349	0.034338	-0.000004
 582	5.7809e+01	16.8525	52.620027	0.000284	2.837758	0.961459	-0.000114
 583	5.7909e+01	16.8156	52.523136	0.000243	2.432364	0.824107	-0.000097
 584	5.8008e+01	16.7642	52.438356	0.000213	2.128319	0.721094	-0.000085
 585	5.8108e+01	16.7305	52.361651	0.000193	1.925622	0.652418	-0.000077
 586	5.8208e+01	16.6872	52.264759	0.000243	2.432364	0.824107	-0.000097
 587	5.8307e+01	16.6551	52.135571	0.000324	3.243153	1.098810	-0.000130
 588	5.8407e+01	16.6070	52.054828	0.000203	2.026970	0.686756	-0.000081
 589	5.8506e+01	16.5573	51.986197	0.000172	1.722925	0.583743	-0.000069
 590	5.8605e+01	16.5300	51.877194	0.000274	2.736410	0.927121	-0.000110
 591	5.8705e+01	16.4883	51.780303	0.000243	2.432364	0.824107	-0.000097
 592	5.8804e+01	16.4610	51.687449	0.000233	2.331016	0.789770	-0.000093
 593	5.8904e+01	16.4065	51.598632	0.000223	2.229667	0.755432	-0.000089
 594	5.9004e+01	16.3760	51.457332	0.000355	3.547198	1.201823	-0.000142
 595	5.9103e+01	16.3375	51.356404	0.000253	2.533713	0.858445	-0.000101
 596	5.9203e+01	16.2926	51.235290	0.000304	3.040456	1.030134	-0.000122
 597	5.9302e+01	16.2461	51.190881	0.000111	1.114834	0.377716	-0.000045
 598	5.9401e+01	16.2044	51.110138	0.000203	2.026970	0.686756	-0.000081
 599	5.9501e+01	16.1642	51.037470	0.000182	1.824273	0.618081	-0.000073
 600	5.9600e+01	16.1257	50.940579	0.000243	2.432364	0.824107	-0.000097
 601	5.9700e+01	16.0905	50.847725	0.000233	2.331016	0.789770	-0.000093
 602	5.9800e+01	16.0600	50.779093	0.000172	1.722925	0.583743	-0.000069
 603	5.9899e+01	16.0054	50.690276	0.000223	2.229667	0.755432	-0.000089
 604	5.9998e+01	15.9701	50.561088	0.000324	3.243153	1.098810	-0.000130
 605	6.0098e+01	15.9332	50.484382	0.000193	1.925622	0.652418	-0.000077
 606	6.0197e+01	15.8931	50.407677	0.000193	1.925622	0.652418	-0.000077
 607	6.0297e+01	15.8514	50.286563	0.000304	3.040456	1.030134	-0.000122
 608	6.0397e+01	15.8145	50.226006	0.000152	1.520228	0.515067	-0.000061
 609	6.0496e+01	15.7648	50.068557	0.000395	3.952592	1.339174	-0.000158
 610	6.0596e+01	15.7311	49.991852	0.000193	1.925622	0.652418	-0.000077
 611	6.0695e+01	15.7022	49.915146	0.000193	1.925622	0.652418	-0.000077
 612	6.0794e+01	15.6589	49.802106	0.000284	2.837758	0.961459	-0.000114
 613	6.0894e+01	15.6140	49.689067	0.000284	2.837758	0.961459	-0.000114
 614	6.0993e+01	15.5659	49.588138	0.000253	2.533713	0.858445	-0.000101
 615	6.1093e+01	15.5370	49.531618	0.000142	1.418879	0.480729	-0.000057
 616	6.1193e+01	15.4889	49.418579	0.000284	2.837758	0.961459	-0.000114
 617	6.1292e+01	15.4456	49.345910	0.000182	1.824273	0.618081	-0.000073
 618	6.1392e+01	15.4135	49.228833	0.000294	2.939107	0.995796	-0.000118
 619	6.1491e+01	15.3830	49.156165	0.000182	1.824273	0.618081	-0.000073
 620	6.1590e+01	15.3397	49.071385	0.000213	2.128319	0.721094	-0.000085
 621	6.1690e+01	15.2948	48.938159	0.000334	3.344501	1.133148	-0.000134
 622	6.1789e+01	15.2514	48.865491	0.000182	1.824273	0.618081	-0.000073
 623	6.1889e+01	15.2161	48.728228	0.000345	3.445850	1.167485	-0.000138
 624	6.1989e+01	15.1696	48.683820	0.000111	1.114834	0.377716	-0.000045
 625	6.2088e+01	15.1295	48.599040	0.000213	2.128319	0.721094	-0.000085
 626	6.2188e+01	15.0910	48.477926	0.000304	3.040456	1.030134	-0.000122
 627	6.2287e+01	15.0493	48.368923	0.000274	2.736410	0.927121	-0.000110
 628	6.2386e+01	15.0060	48.292218	0.000193	1.925622	0.652418	-0.000077
 629	6.2486e+01	14.9771	48.203401	0.000223	2.229667	0.755432	-0.000089
 630	6.2586e+01	14.9402	48.094398	0.000274	2.736410	0.927121	-0.000110
 631	6.2685e+01	14.8953	47.985395	0.000274	2.736410	0.927121	-0.000110
 632	6.2785e+01	14.8472	47.900616	0.000213	2.128319	0.721094	-0.000085
 633	6.2884e+01	14.8167	47.783539	0.000294	2.939107	0.995796	-0.000118
 634	6.2983e+01	14.7766	47.718944	0.000162	1.621576	0.549405	-0.000065
 635	6.3083e+01	14.7333	47.613979	0.000264	2.635061	0.892783	-0.000105
 636	6.3182e+01	14.6948	47.529199	0.000213	2.128319	0.721094	-0.000085
 637	6.3282e+01	14.6515	47.452493	0.000193	1.925622	0.652418	-0.000077
 638	6.3382e+01	14.6210	47.315231	0.000345	3.445850	1.167485	-0.000138
 639	6.3481e+01	14.5761	47.238525	0.000193	1.925622	0.652418	-0.000077
 640	6.3581e+01	14.5327	47.161820	0.000193	1.925622	0.652418	-0.000077
 641	6.3680e+01	14.4942	47.036668	0.000314	3.141804	1.064472	-0.000126
 642	6.3779e+01	14.4573	46.947851	0.000223	2.229667	0.755432	-0.000089
 643	6.3879e+01	14.4204	46.854997	0.000233	2.331016	0.789770	-0.000093
 644	6.3978e+01	14.3691	46.766180	0.000223	2.229667	0.755432	-0.000089
 645	6.4078e+01	14.3306	46.677363	0.000223	2.229667	0.755432	-0.000089
 646	6.4177e+01	14.2889	46.568361	0.000274	2.736410	0.927121	-0.000110
 647	6.4277e+01	14.2584	46.479544	0.000223	2.229667	0.755432	-0.000089
 648	6.4376e+01	14.2183	46.378615	0.000253	2.533713	0.858445	-0.000101
 649	6.4476e+01	14.1766	46.221167	0.000395	3.952592	1.339174	-0.000158
 650	6.4576e+01	14.1317	46.156573	0.000162	1.621576	0.549405	-0.000065
 651	6.4675e+01	14.1044	46.079867	0.000193	1.925622	0.652418	-0.000077
 652	6.4775e+01	14.0563	45.970865	0.000274	2.736410	0.927121	-0.000110
 653	6.4874e+01	14.0130	45.841676	0.000324	3.243153	1.098810	-0.000130
 654	6.4974e+01	13.9761	45.769008	0.000182	1.824273	0.618081	-0.000073
 655	6.5073e+01	13.9408	45.680191	0.000223	2.229667	0.755432	-0.000089
 656	6.5172e+01	13.8991	45.595411	0.000213	2.128319	0.721094	-0.000085
 657	6.5272e+01	13.8509	45.486408	0.000274	2.736410	0.927121	-0.000110
 658	6.5371e+01	13.8157	45.417777	0.000172	1.722925	0.583743	-0.000069
 659	6.5471e+01	13.7900	45.308774	0.000274	2.736410	0.927121	-0.000110
 660	6.5570e+01	13.7419	45.179586	0.000324	3.243153	1.098810	-0.000130
 661	6.5670e+01	13.7001	45.090769	0.000223	2.229667	0.755432	-0.000089
 662	6.5769e+01	13.6568	44.997915	0.000233	2.331016	0.789770	-0.000093
 663	6.5869e+01	13.6215	44.884875	0.000284	2.837758	0.961459	-0.000114
 664	6.5969e+01	13.5798	44.771835	0.000284	2.837758	0.961459	-0.000114
 665	6.6068e+01	13.5429	44.687055	0.000213	2.128319	0.721094	-0.000085
 666	6.6168e+01	13.5012	44.553830	0.000334	3.344501	1.133148	-0.000134
 667	6.6267e+01	13.4547	44.521533	0.000081	0.810788	0.274702	-0.000032
 668	6.6367e+01	13.4242	44.392345	0.000324	3.243153	1.098810	-0.000130
 669	6.6466e+01	13.3841	44.247008	0.000365	3.648547	1.236161	-0.000146
 670	6.6566e+01	13.3360	44.174339	0.000182	1.824273	0.618081	-0.000073
 671	6.6665e+01	13.2959	44.045151	0.000324	3.243153	1.098810	-0.000130
 672	6.6764e+01	13.2606	43.988631	0.000142	1.418879	0.480729	-0.000057
 673	6.6864e+01	13.2205	43.867517	0.000304	3.040456	1.030134	-0.000122
 674	6.6963e+01	13.1772	43.774663	0.000233	2.331016	0.789770	-0.000093
 675	6.7063e+01	13.1403	43.661623	0.000284	2.837758	0.961459	-0.000114
 676	6.7162e+01	13.1002	43.556657	0.000264	2.635061	0.892783	-0.000105
 677	6.7262e+01	13.0617	43.475915	0.000203	2.026970	0.686756	-0.000081
 678	6.7362e+01	13.0216	43.383061	0.000233	2.331016	0.789770	-0.000093
 679	6.7461e+01	12.9863	43.274058	0.000274	2.736410	0.927121	-0.000110
 680	6.7561e+01	12.9478	43.148907	0.000314	3.141804	1.064472	-0.000126
 681	6.7660e+01	12.9061	43.060090	0.000223	2.229667	0.755432	-0.000089
 682	6.7760e+01	12.8627	42.975310	0.000213	2.128319	0.721094	-0.000085
 683	6.7859e+01	12.8194	42.886493	0.000223	2.229667	0.755432	-0.000089
 684	6.7959e+01	12.7857	42.817862	0.000172	1.722925	0.583743	-0.000069
 685	6.8058e+01	12.7504	42.644265	0.000436	4.357986	1.476526	-0.000174
 686	6.8157e+01	12.7055	42.519114	0.000314	3.141804	1.064472	-0.000126
 687	6.8257e+01	12.6654	42.410111	0.000274	2.736410	0.927121	-0.000110
 688	6.8356e+01	12.6253	42.293034	0.000294	2.939107	0.995796	-0.000118
 689	6.8456e+01	12.5884	42.196143	0.000243	2.432364	0.824107	-0.000097
 690	6.8555e+01	12.5467	42.070992	0.000314	3.141804	1.064472	-0.000126
 691	6.8655e+01	12.4986	42.002360	0.000172	1.722925	0.583743	-0.000069
 692	6.8754e+01	12.4681	41.881246	0.000304	3.040456	1.030134	-0.000122
 693	6.8854e+01	12.4216	41.760132	0.000304	3.040456	1.030134	-0.000122
 694	6.8954e+01	12.3927	41.647092	0.000284	2.837758	0.961459	-0.000114
 695	6.9053e+01	12.3510	41.554238	0.000233	2.331016	0.789770	-0.000093
 696	6.9153e+01	12.3077	41.441198	0.000284	2.837758	0.961459	-0.000114
 697	6.9252e+01	12.2740	41.408901	0.000081	0.810788	0.274702	-0.000032
 698	6.9352e+01	12.2226	41.275676	0.000334	3.344501	1.133148	-0.000134
 699	6.9451e+01	12.1793	41.186859	0.000223	2.229667	0.755432	-0.000089
 700	6.9550e+01	12.1456	41.057670	0.000324	3.243153	1.098810	-0.000130
 701	6.9650e+01	12.1087	40.880036	0.000446	4.459335	1.510864	-0.000179
 702	6.9749e+01	12.0702	40.787182	0.000233	2.331016	0.789770	-0.000093
 703	6.9849e+01	12.0285	40.670105	0.000294	2.939107	0.995796	-0.000118
 704	6.9948e+01	11.9852	40.573214	0.000243	2.432364	0.824107	-0.000097
 705	7.0048e+01	11.9403	40.480360	0.000233	2.331016	0.789770	-0.000093
 706	7.0147e+01	11.9082	40.375395	0.000264	2.635061	0.892783	-0.000105
 707	7.0247e+01	11.8633	40.266392	0.000274	2.736410	0.927121	-0.000110
 708	7.0347e+01	11.8184	40.129129	0.000345	3.445850	1.167485	-0.000138
 709	7.0446e+01	11.7847	40.036275	0.000233	2.331016	0.789770	-0.000093
 710	7.0546e+01	11.7574	39.919198	0.000294	2.939107	0.995796	-0.000118
 711	7.0645e+01	11.7221	39.810196	0.000274	2.736410	0.927121	-0.000110
 712	7.0745e+01	11.6660	39.737527	0.000182	1.824273	0.618081	-0.000073
 713	7.0844e+01	11.6403	39.644673	0.000233	2.331016	0.789770	-0.000093
 714	7.0944e+01	11.5858	39.559893	0.000213	2.128319	0.721094	-0.000085
 715	7.1043e+01	11.5489	39.398408	0.000405	4.053941	1.373512	-0.000162
 716	7.1142e+01	11.5072	39.309591	0.000223	2.229667	0.755432	-0.000089
 717	7.1242e+01	11.4815	39.168291	0.000355	3.547198	1.201823	-0.000142
 718	7.1341e+01	11.4286	39.043140	0.000314	3.141804	1.064472	-0.000126
 719	7.1441e+01	11.3884	38.897803	0.000365	3.648547	1.236161	-0.000146
 720	7.1540e+01	11.3548	38.813023	0.000213	2.128319	0.721094	-0.000085
 721	7.1640e+01	11.3082	38.699983	0.000284	2.837758	0.961459	-0.000114
 722	7.1740e+01	11.2665	38.550609	0.000375	3.749895	1.270499	-0.000150
 723	7.1839e+01	11.2328	38.433532	0.000294	2.939107	0.995796	-0.000118
 724	7.1939e+01	11.2008	38.300307	0.000334	3.344501	1.133148	-0.000134
 725	7.2038e+01	11.1446	38.223601	0.000193	1.925622	0.652418	-0.000077
 726	7.2138e+01	11.1077	38.114599	0.000274	2.736410	0.927121	-0.000110
 727	7.2237e+01	11.0708	38.009633	0.000264	2.635061	0.892783	-0.000105
 728	7.2337e+01	11.0387	37.892556	0.000294	2.939107	0.995796	-0.000118
 729	7.2436e+01	10.9938	37.811813	0.000203	2.026970	0.686756	-0.000081
 730	7.2535e+01	10.9473	37.743182	0.000172	1.722925	0.583743	-0.000069
 731	7.2635e+01	10.9072	37.585734	0.000395	3.952592	1.339174	-0.000158
 732	7.2734e+01	10.8703	37.456545	0.000324	3.243153	1.098810	-0.000130
 733	7.2834e+01	10.8286	37.412137	0.000111	1.114834	0.377716	-0.000045
 734	7.2933e+01	10.7901	37.254689	0.000395	3.952592	1.339174	-0.000158
 735	7.3033e+01	10.7500	37.117426	0.000345	3.445850	1.167485	-0.000138
 736	7.3132e+01	10.7227	36.964015	0.000385	3.851244	1.304837	-0.000154
 737	7.3232e+01	10.6778	36.842901	0.000304	3.040456	1.030134	-0.000122
 738	7.3332e+01	10.6313	36.721787	0.000304	3.040456	1.030134	-0.000122
 739	7.3431e+01	10.5944	36.608747	0.000284	2.837758	0.961459	-0.000114
 740	7.3531e+01	10.5494	36.532041	0.000193	1.925622	0.652418	-0.000077
 741	7.3630e+01	10.5254	36.370556	0.000405	4.053941	1.373512	-0.000162
 742	7.3730e+01	10.4692	36.249442	0.000304	3.040456	1.030134	-0.000122
 743	7.3829e+01	10.4436	36.164662	0.000213	2.128319	0.721094	-0.000085
 744	7.3928e+01	10.3890	36.023362	0.000355	3.547198	1.201823	-0.000142
 745	7.4028e+01	10.3553	35.938582	0.000213	2.128319	0.721094	-0.000085
 746	7.4127e+01	10.3168	35.857840	0.000203	2.026970	0.686756	-0.000081
 747	7.4227e+01	10.2735	35.724614	0.000334	3.344501	1.133148	-0.000134
 748	7.4326e+01	10.2270	35.635797	0.000223	2.229667	0.755432	-0.000089
 749	7.4426e+01	10.2013	35.530832	0.000264	2.635061	0.892783	-0.000105
 750	7.4525e+01	10.1644	35.409718	0.000304	3.040456	1.030134	-0.000122
 751	7.4625e+01	10.1211	35.252269	0.000395	3.952592	1.339174	-0.000158
 752	7.4725e+01	10.0810	35.187675	0.000162	1.621576	0.549405	-0.000065
 753	7.4824e+01	10.0361	35.030227	0.000395	3.952592	1.339174	-0.000158
 754	7.4924e+01	9.9944	34.848556	0.000456	4.560683	1.545201	-0.000183
 755	7.5023e+01	9.9527	34.767813	0.000203	2.026970	0.686756	-0.000081
 756	7.5123e+01	9.9190	34.638625	0.000324	3.243153	1.098810	-0.000130
 757	7.5222e+01	9.8708	34.533659	0.000264	2.635061	0.892783	-0.000105
 758	7.5322e+01	9.8291	34.392359	0.000355	3.547198	1.201823	-0.000142
 759	7.5421e+01	9.7906	34.275282	0.000294	2.939107	0.995796	-0.000118
 760	7.5520e+01	9.7666	34.190503	0.000213	2.128319	0.721094	-0.000085
 761	7.5620e+01	9.7168	34.093611	0.000243	2.432364	0.824107	-0.000097
 762	7.5719e+01	9.6751	33.956349	0.000345	3.445850	1.167485	-0.000138
 763	7.5819e+01	9.6366	33.843309	0.000284	2.837758	0.961459	-0.000114
 764	7.5918e+01	9.5965	33.770640	0.000182	1.824273	0.618081	-0.000073
 765	7.6018e+01	9.5644	33.677786	0.000233	2.331016	0.789770	-0.000093
 766	7.6118e+01	9.5115	33.544561	0.000334	3.344501	1.133148	-0.000134
 767	7.6217e+01	9.4714	33.435558	0.000274	2.736410	0.927121	-0.000110
 768	7.6317e+01	9.4377	33.314444	0.000304	3.040456	1.030134	-0.000122
 769	7.6416e+01	9.3960	33.169107	0.000365	3.648547	1.236161	-0.000146
 770	7.6516e+01	9.3575	33.064142	0.000264	2.635061	0.892783	-0.000105
 771	7.6615e+01	9.3222	32.947065	0.000294	2.939107	0.995796	-0.000118
 772	7.6715e+01	9.2901	32.785579	0.000405	4.053941	1.373512	-0.000162
 773	7.6814e+01	9.2388	32.676577	0.000274	2.736410	0.927121	-0.000110
 774	7.6913e+01	9.2003	32.575648	0.000253	2.533713	0.858445	-0.000101
 775	7.7013e+01	9.1538	32.381866	0.000486	4.864729	1.648215	-0.000195
 776	7.7112e+01	9.1281	32.301123	0.000203	2.026970	0.686756	-0.000081
 777	7.7212e+01	9.0800	32.180009	0.000304	3.040456	1.030134	-0.000122
 778	7.7311e+01	9.0415	32.038709	0.000355	3.547198	1.201823	-0.000142
 779	7.7411e+01	8.9981	31.957967	0.000203	2.026970	0.686756	-0.000081
 780	7.7510e+01	8.9725	31.885298	0.000182	1.824273	0.618081	-0.000073
 781	7.7610e+01	8.9147	31.772258	0.000284	2.837758	0.961459	-0.000114
 782	7.7710e+01	8.8826	31.630959	0.000355	3.547198	1.201823	-0.000142
 783	7.7809e+01	8.8377	31.534067	0.000243	2.432364	0.824107	-0.000097
 784	7.7909e+01	8.7976	31.425065	0.000274	2.736410	0.927121	-0.000110
 785	7.8008e+01	8.7463	31.316062	0.000274	2.736410	0.927121	-0.000110
 786	7.8108e+01	8.7190	31.203022	0.000284	2.837758	0.961459	-0.000114
 787	7.8207e+01	8.6741	31.085945	0.000294	2.939107	0.995796	-0.000118
 788	7.8306e+01	8.6388	30.920423	0.000416	4.155289	1.407850	-0.000166
 789	7.8406e+01	8.5923	30.730677	0.000476	4.763380	1.613877	-0.000191
 790	7.8505e+01	8.5618	30.613600	0.000294	2.939107	0.995796	-0.000118
 791	7.8605e+01	8.5233	30.524783	0.000223	2.229667	0.755432	-0.000089
 792	7.8704e+01	8.4848	30.407706	0.000294	2.939107	0.995796	-0.000118
 793	7.8804e+01	8.4367	30.286592	0.000304	3.040456	1.030134	-0.000122
 794	7.8903e+01	8.3982	30.137218	0.000375	3.749895	1.270499	-0.000150
 795	7.9003e+01	8.3548	30.032253	0.000264	2.635061	0.892783	-0.000105
 796	7.9103e+01	8.3212	29.915176	0.000294	2.939107	0.995796	-0.000118
 797	7.9202e+01	8.2714	29.822322	0.000233	2.331016	0.789770	-0.000093
 798	7.9302e+01	8.2329	29.753690	0.000172	1.722925	0.583743	-0.000069
 799	7.9401e+01	8.2024	29.624502	0.000324	3.243153	1.098810	-0.000130
 800	7.9501e+01	8.1688	29.511462	0.000284	2.837758	0.961459	-0.000114
 801	7.9600e+01	8.1254	29.382274	0.000324	3.243153	1.098810	-0.000130
 802	7.9700e+01	8.0885	29.281346	0.000253	2.533713	0.858445	-0.000101
 803	7.9799e+01	8.0388	29.164269	0.000294	2.939107	0.995796	-0.000118
 804	7.9898e+01	8.0083	29.014895	0.000375	3.749895	1.270499	-0.000150
 805	7.9998e+01	7.9570	28.889743	0.000314	3.141804	1.064472	-0.000126
 806	8.0097e+01	7.9217	28.817075	0.000182	1.824273	0.618081	-0.000073
 807	8.0197e+01	7.8816	28.667701	0.000375	3.749895	1.270499	-0.000150
 808	8.0296e+01	7.8543	28.490067	0.000446	4.459335	1.510864	-0.000179
 809	8.0396e+01	7.8014	28.368953	0.000304	3.040456	1.030134	-0.000122
 810	8.0496e+01	7.7645	28.251876	0.000294	2.939107	0.995796	-0.000118
 811	8.0595e+01	7.7260	28.118650	0.000334	3.344501	1.133148	-0.000134
 812	8.0695e+01	7.6875	28.009648	0.000274	2.736410	0.927121	-0.000110
 813	8.0794e+01	7.6554	27.900645	0.000274	2.736410	0.927121	-0.000110
 814	8.0894e+01	7.6057	27.763382	0.000345	3.445850	1.167485	-0.000138
 815	8.0993e+01	7.5607	27.658417	0.000264	2.635061	0.892783	-0.000105
 816	8.1093e+01	7.5239	27.553451	0.000264	2.635061	0.892783	-0.000105
 817	8.1192e+01	7.4773	27.448486	0.000264	2.635061	0.892783	-0.000105
 818	8.1291e+01	7.4420	27.339483	0.000274	2.736410	0.927121	-0.000110
 819	8.1391e+01	7.4035	27.177998	0.000405	4.053941	1.373512	-0.000162
 820	8.1490e+01	7.3666	27.089181	0.000223	2.229667	0.755432	-0.000089
 821	8.1590e+01	7.3073	26.955955	0.000334	3.344501	1.133148	-0.000134
 822	8.1689e+01	7.2832	26.822730	0.000334	3.344501	1.133148	-0.000134
 823	8.1789e+01	7.2495	26.685467	0.000345	3.445850	1.167485	-0.000138
 824	8.1888e+01	7.2030	26.600687	0.000213	2.128319	0.721094	-0.000085
 825	8.1988e+01	7.1661	26.406905	0.000486	4.864729	1.648215	-0.000195
 826	8.2088e+01	7.1260	26.281754	0.000314	3.141804	1.064472	-0.000126
 827	8.2187e+01	7.0907	26.188900	0.000233	2.331016	0.789770	-0.000093
 828	8.2287e+01	7.0378	26.035488	0.000385	3.851244	1.304837	-0.000154
 829	8.2386e+01	7.0105	25.914374	0.000304	3.040456	1.030134	-0.000122
 830	8.2486e+01	6.9704	25.789223	0.000314	3.141804	1.064472	-0.000126
 831	8.2585e+01	6.9239	25.676183	0.000284	2.837758	0.961459	-0.000114
 832	8.2684e+01	6.8854	25.575255	0.000253	2.533713	0.858445	-0.000101
 833	8.2784e+01	6.8437	25.450104	0.000314	3.141804	1.064472	-0.000126
 834	8.2883e+01	6.8116	25.312841	0.000345	3.445850	1.167485	-0.000138
 835	8.2983e+01	6.7634	25.163467	0.000375	3.749895	1.270499	-0.000150
 836	8.3082e+01	6.7185	25.098873	0.000162	1.621576	0.549405	-0.000065
 837	8.3182e+01	6.6864	24.937387	0.000405	4.053941	1.373512	-0.000162
 838	8.3281e+01	6.6511	24.820311	0.000294	2.939107	0.995796	-0.000118
 839	8.3381e+01	6.6110	24.715345	0.000264	2.635061	0.892783	-0.000105
 840	8.3481e+01	6.5725	24.561934	0.000385	3.851244	1.304837	-0.000154
 841	8.3580e+01	6.5260	24.420634	0.000355	3.547198	1.201823	-0.000142
 842	8.3680e+01	6.4859	24.267223	0.000385	3.851244	1.304837	-0.000154
 843	8.3779e+01	6.4554	24.162257	0.000264	2.635061	0.892783	-0.000105
 844	8.3879e+01	6.4137	24.004809	0.000395	3.952592	1.339174	-0.000158
 845	8.3978e+01	6.3672	23.863509	0.000355	3.547198	1.201823	-0.000142
 846	8.4078e+01	6.3287	23.746432	0.000294	2.939107	0.995796	-0.000118
 847	8.4177e+01	6.2902	23.669727	0.000193	1.925622	0.652418	-0.000077
 848	8.4276e+01	6.2501	23.548613	0.000304	3.040456	1.030134	-0.000122
 849	8.4376e+01	6.2196	23.403276	0.000365	3.648547	1.236161	-0.000146
 850	8.4475e+01	6.1683	23.282162	0.000304	3.040456	1.030134	-0.000122
 851	8.4575e+01	6.1298	23.177196	0.000264	2.635061	0.892783	-0.000105
 852	8.4674e+01	6.0897	22.999562	0.000446	4.459335	1.510864	-0.000179
 853	8.4774e+01	6.0544	22.906708	0.000233	2.331016	0.789770	-0.000093
 854	8.4874e+01	6.0111	22.753297	0.000385	3.851244	1.304837	-0.000154
 855	8.4973e+01	5.9677	22.632183	0.000304	3.040456	1.030134	-0.000122
 856	8.5073e+01	5.9325	22.494920	0.000345	3.445850	1.167485	-0.000138
 857	8.5172e+01	5.8972	22.337472	0.000395	3.952592	1.339174	-0.000158
 858	8.5272e+01	5.8522	22.200209	0.000345	3.445850	1.167485	-0.000138
 859	8.5371e+01	5.8169	22.038724	0.000405	4.053941	1.373512	-0.000162
 860	8.5471e+01	5.7704	21.897424	0.000355	3.547198	1.201823	-0.000142
 861	8.5570e+01	5.7351	21.780347	0.000294	2.939107	0.995796	-0.000118
 862	8.5669e+01	5.6934	21.651159	0.000324	3.243153	1.098810	-0.000130
 863	8.5769e+01	5.6565	21.481599	0.000426	4.256638	1.442188	-0.000170
 864	8.5868e+01	5.6116	21.392782	0.000223	2.229667	0.755432	-0.000089
 865	8.5968e+01	5.5795	21.271668	0.000304	3.040456	1.030134	-0.000122
 866	8.6067e+01	5.5410	21.142480	0.000324	3.243153	1.098810	-0.000130
 867	8.6167e+01	5.5041	21.053663	0.000223	2.229667	0.755432	-0.000089
 868	8.6266e+01	5.4496	20.867955	0.000466	4.662032	1.579539	-0.000187
 869	8.6366e+01	5.4239	20.767026	0.000253	2.533713	0.858445	-0.000101
 870	8.6466e+01	5.3694	20.641875	0.000314	3.141804	1.064472	-0.000126
 871	8.6565e+01	5.3405	20.540947	0.000253	2.533713	0.858445	-0.000101
 872	8.6665e+01	5.2924	20.310830	0.000578	5.776865	1.957255	-0.000231
 873	8.6764e+01	5.2603	20.181642	0.000324	3.243153	1.098810	-0.000130
 874	8.6864e+01	5.2202	20.060527	0.000304	3.040456	1.030134	-0.000122
 875	8.6963e+01	5.1737	19.939413	0.000304	3.040456	1.030134	-0.000122
 876	8.7063e+01	5.1384	19.781965	0.000395	3.952592	1.339174	-0.000158
 877	8.7162e+01	5.0902	19.628554	0.000385	3.851244	1.304837	-0.000154
 878	8.7261e+01	5.0501	19.515514	0.000284	2.837758	0.961459	-0.000114
 879	8.7361e+01	5.0196	19.341917	0.000436	4.357986	1.476526	-0.000174
 880	8.7460e+01	4.9892	19.196580	0.000365	3.648547	1.236161	-0.000146
 881	8.7560e+01	4.9346	19.063355	0.000334	3.344501	1.133148	-0.000134
 882	8.7659e+01	4.9009	18.958389	0.000264	2.635061	0.892783	-0.000105
 883	8.7759e+01	4.8528	18.833238	0.000314	3.141804	1.064472	-0.000126
 884	8.7859e+01	4.8143	18.720198	0.000284	2.837758	0.961459	-0.000114
 885	8.7958e+01	4.7742	18.538527	0.000456	4.560683	1.545201	-0.000183
 886	8.8058e+01	4.7341	18.429525	0.000274	2.736410	0.927121	-0.000110
 887	8.8157e+01	4.6924	18.288225	0.000355	3.547198	1.201823	-0.000142
 888	8.8257e+01	4.6619	18.167111	0.000304	3.040456	1.030134	-0.000122
 889	8.8356e+01	4.6138	18.021774	0.000365	3.648547	1.236161	-0.000146
 890	8.8456e+01	4.5721	17.880474	0.000355	3.547198	1.201823	-0.000142
 891	8.8555e+01	4.5320	17.718989	0.000405	4.053941	1.373512	-0.000162
 892	8.8654e+01	4.4983	17.573652	0.000365	3.648547	1.236161	-0.000146
 893	8.8754e+01	4.4517	17.428315	0.000365	3.648547	1.236161	-0.000146
 894	8.8853e+01	4.4213	17.278941	0.000375	3.749895	1.270499	-0.000150
 895	8.8953e+01	4.3731	17.145715	0.000334	3.344501	1.133148	-0.000134
 896	8.9052e+01	4.3443	16.968082	0.000446	4.459335	1.510864	-0.000179
 897	8.9152e+01	4.3026	16.810633	0.000395	3.952592	1.339174	-0.000158
 898	8.9251e+01	4.2560	16.677408	0.000334	3.344501	1.133148	-0.000134
 899	8.9351e+01	4.2191	16.588591	0.000223	2.229667	0.755432	-0.000089
 900	8.9451e+01	4.1806	16.455365	0.000334	3.344501	1.133148	-0.000134
 901	8.9550e+01	4.1357	16.322140	0.000334	3.344501	1.133148	-0.000134
 902	8.9650e+01	4.0972	16.213137	0.000274	2.736410	0.927121	-0.000110
 903	8.9749e+01	4.0587	16.027429	0.000466	4.662032	1.579539	-0.000187
 904	8.9849e+01	4.0186	15.942649	0.000213	2.128319	0.721094	-0.000085
 905	8.9948e+01	3.9689	15.789238	0.000385	3.851244	1.304837	-0.000154
 906	9.0047e+01	3.9384	15.603530	0.000466	4.662032	1.579539	-0.000187
 907	9.0147e+01	3.9015	15.510676	0.000233	2.331016	0.789770	-0.000093
 908	9.0246e+01	3.8534	15.349190	0.000405	4.053941	1.373512	-0.000162
 909	9.0346e+01	3.8245	15.211927	0.000345	3.445850	1.167485	-0.000138
 910	9.0445e+01	3.7892	15.010071	0.000507	5.067426	1.716890	-0.000203
 911	9.0545e+01	3.7379	14.848585	0.000405	4.053941	1.373512	-0.000162
 912	9.0644e+01	3.7042	14.731508	0.000294	2.939107	0.995796	-0.000118
 913	9.0744e+01	3.6641	14.553874	0.000446	4.459335	1.510864	-0.000179
 914	9.0844e+01	3.6256	14.456983	0.000243	2.432364	0.824107	-0.000097
 915	9.0943e+01	3.5790	14.291461	0.000416	4.155289	1.407850	-0.000166
 916	9.1043e+01	3.5373	14.170346	0.000304	3.040456	1.030134	-0.000122
 917	9.1142e+01	3.5004	14.049232	0.000304	3.040456	1.030134	-0.000122
 918	9.1242e+01	3.4587	13.911970	0.000345	3.445850	1.167485	-0.000138
 919	9.1341e+01	3.4122	13.754521	0.000395	3.952592	1.339174	-0.000158
 920	9.1441e+01	3.3753	13.633407	0.000304	3.040456	1.030134	-0.000122
 921	9.1540e+01	3.3400	13.467885	0.000416	4.155289	1.407850	-0.000166
 922	9.1639e+01	3.2999	13.342734	0.000314	3.141804	1.064472	-0.000126
 923	9.1739e+01	3.2534	13.205471	0.000345	3.445850	1.167485	-0.000138
 924	9.1838e+01	3.2261	13.072246	0.000334	3.344501	1.133148	-0.000134
 925	9.1938e+01	3.1796	12.943057	0.000324	3.243153	1.098810	-0.000130
 926	9.2037e+01	3.1379	12.793683	0.000375	3.749895	1.270499	-0.000150
 927	9.2137e+01	3.0962	12.603938	0.000476	4.763380	1.613877	-0.000191
 928	9.2237e+01	3.0657	12.494935	0.000274	2.736410	0.927121	-0.000110
 929	9.2336e+01	3.0256	12.280967	0.000537	5.371471	1.819904	-0.000215
 930	9.2436e+01	2.9775	12.167927	0.000284	2.837758	0.961459	-0.000114
 931	9.2535e+01	2.9390	11.974145	0.000486	4.864729	1.648215	-0.000195
 932	9.2635e+01	2.9133	11.901476	0.000182	1.824273	0.618081	-0.000073
 933	9.2734e+01	2.8668	11.735954	0.000416	4.155289	1.407850	-0.000166
 934	9.2834e+01	2.8234	11.635025	0.000253	2.533713	0.858445	-0.000101
 935	9.2933e+01	2.7849	11.489688	0.000365	3.648547	1.236161	-0.000146
 936	9.3032e+01	2.7513	11.368574	0.000304	3.040456	1.030134	-0.000122
 937	9.3132e+01	2.7079	11.215163	0.000385	3.851244	1.304837	-0.000154
 938	9.3231e+01	2.6662	11.077900	0.000345	3.445850	1.167485	-0.000138
 939	9.3331e+01	2.6245	10.920452	0.000395	3.952592	1.339174	-0.000158
 940	9.3430e+01	2.5780	10.791264	0.000324	3.243153	1.098810	-0.000130
 941	9.3530e+01	2.5459	10.617667	0.000436	4.357986	1.476526	-0.000174
 942	9.3629e+01	2.5042	10.504627	0.000284	2.837758	0.961459	-0.000114
 943	9.3729e+01	2.4577	10.347179	0.000395	3.952592	1.339174	-0.000158
 944	9.3829e+01	2.4272	10.230102	0.000294	2.939107	0.995796	-0.000118
 945	9.3928e+01	2.3823	10.076691	0.000385	3.851244	1.304837	-0.000154
 946	9.4028e+01	2.3374	9.943465	0.000334	3.344501	1.133148	-0.000134
 947	9.4127e+01	2.3037	9.773906	0.000426	4.256638	1.442188	-0.000170
 948	9.4227e+01	2.2716	9.584160	0.000476	4.763380	1.613877	-0.000191
 949	9.4326e+01	2.2315	9.463046	0.000304	3.040456	1.030134	-0.000122
 950	9.4425e+01	2.1946	9.354044	0.000274	2.736410	0.927121	-0.000110
 951	9.4525e+01	2.1465	9.188521	0.000416	4.155289	1.407850	-0.000166
 952	9.4624e+01	2.1096	9.059333	0.000324	3.243153	1.098810	-0.000130
 953	9.4724e+01	2.0695	8.877661	0.000456	4.560683	1.545201	-0.000183
 954	9.4823e+01	2.0310	8.736362	0.000355	3.547198	1.201823	-0.000142
 955	9.4923e+01	1.9780	8.631396	0.000264	2.635061	0.892783	-0.000105
 956	9.5022e+01	1.9459	8.473948	0.000395	3.952592	1.339174	-0.000158
 957	9.5122e+01	1.9058	8.348797	0.000314	3.141804	1.064472	-0.000126
 958	9.5222e+01	1.8577	8.179237	0.000426	4.256638	1.442188	-0.000170
 959	9.5321e+01	1.8240	8.025826	0.000385	3.851244	1.304837	-0.000154
 960	9.5421e+01	1.7903	7.908749	0.000294	2.939107	0.995796	-0.000118
 961	9.5520e+01	1.7550	7.775523	0.000334	3.344501	1.133148	-0.000134
 962	9.5620e+01	1.7117	7.634224	0.000355	3.547198	1.201823	-0.000142
 963	9.5719e+01	1.6652	7.452553	0.000456	4.560683	1.545201	-0.000183
 964	9.5819e+01	1.6203	7.311253	0.000355	3.547198	1.201823	-0.000142
 965	9.5918e+01	1.5866	7.137656	0.000436	4.357986	1.476526	-0.000174
 966	9.6017e+01	1.5497	7.028653	0.000274	2.736410	0.927121	-0.000110
 967	9.6117e+01	1.5016	6.919651	0.000274	2.736410	0.927121	-0.000110
 968	9.6216e+01	1.4711	6.770277	0.000375	3.749895	1.270499	-0.000150
 969	9.6316e+01	1.4246	6.641088	0.000324	3.243153	1.098810	-0.000130
 970	9.6415e+01	1.3957	6.459417	0.000456	4.560683	1.545201	-0.000183
 971	9.6515e+01	1.3540	6.301969	0.000395	3.952592	1.339174	-0.000158
 972	9.6615e+01	1.3187	6.192966	0.000274	2.736410	0.927121	-0.000110
 973	9.6714e+01	1.2754	6.039555	0.000385	3.851244	1.304837	-0.000154
 974	9.6814e+01	1.2208	5.910367	0.000324	3.243153	1.098810	-0.000130
 975	9.6913e+01	1.1919	5.760993	0.000375	3.749895	1.270499	-0.000150
 976	9.7013e+01	1.1470	5.615656	0.000365	3.648547	1.236161	-0.000146
 977	9.7112e+01	1.1101	5.454170	0.000405	4.053941	1.373512	-0.000162
 978	9.7212e+01	1.0620	5.312871	0.000355	3.547198	1.201823	-0.000142
 979	9.7311e+01	1.0283	5.195794	0.000294	2.939107	0.995796	-0.000118
 980	9.7410e+01	0.9994	5.058531	0.000345	3.445850	1.167485	-0.000138
 981	9.7510e+01	0.9465	4.860711	0.000497	4.966077	1.682553	-0.000199
 982	9.7609e+01	0.9064	4.755746	0.000264	2.635061	0.892783	-0.000105
 983	9.7709e+01	0.8759	4.549852	0.000517	5.168774	1.751228	-0.000207
 984	9.7808e+01	0.8294	4.388367	0.000405	4.053941	1.373512	-0.000162
 985	9.7908e+01	0.7909	4.263215	0.000314	3.141804	1.064472	-0.000126
 986	9.8007e+01	0.7524	4.166324	0.000243	2.432364	0.824107	-0.000097
 987	9.8107e+01	0.7107	4.025024	0.000355	3.547198	1.201823	-0.000142
 988	9.8207e+01	0.6738	3.871613	0.000385	3.851244	1.304837	-0.000154
 989	9.8306e+01	0.6321	3.681868	0.000476	4.763380	1.613877	-0.000191
 990	9.8406e+01	0.5920	3.556717	0.000314	3.141804	1.064472	-0.000126
 991	9.8505e+01	0.5583	3.431565	0.000314	3.141804	1.064472	-0.000126
 992	9.8605e+01	0.5166	3.294303	0.000345	3.445850	1.167485	-0.000138
 993	9.8704e+01	0.4700	3.120706	0.000436	4.357986	1.476526	-0.000174
 994	9.8803e+01	0.4347	3.011703	0.000274	2.736410	0.927121	-0.000110
 995	9.8903e+01	0.3914	2.821958	0.000476	4.763380	1.613877	-0.000191
 996	9.9002e+01	0.3417	2.648361	0.000436	4.357986	1.476526	-0.000174
 997	9.9102e+01	0.3112	2.559544	0.000223	2.229667	0.755432	-0.000089
 998	9.9201e+01	0.2759	2.385947	0.000436	4.357986	1.476526	-0.000174
 999	9.9301e+01	0.2374	2.224462	0.000405	4.053941	1.373512	-0.000162
1000	9.9400e+01	0.1973	2.075088	0.000375	3.749895	1.270499	-0.000150
1001	9.9500e+01	0.1540	1.913602	0.000405	4.053941	1.373512	-0.000162
1002	9.9600e+01	0.1123	1.768265	0.000365	3.648547	1.236161	-0.000146
1003	9.9699e+01	0.0738	1.663300	0.000264	2.635061	0.892783	-0.000105
1004	9.9799e+01	0.0353	1.538149	0.000314	3.141804	1.064472	-0.000126
1005	9.9898e+01	0.0016	1.417035	0.000304	3.040456	1.030134	-0.000122
1006	9.9998e+01	-0.0449	1.275735	0.000355	3.547198	1.201823	-0.000142
1007	1.0010e+02	-0.0754	1.114249	0.000405	4.053941	1.373512	-0.000162
1008	1.0020e+02	-0.1203	0.944690	0.000426	4.256638	1.442188	-0.000170
1009	1.0030e+02	-0.1476	0.807427	0.000345	3.445850	1.167485	-0.000138
1010	1.0040e+02	-0.2037	0.690350	0.000294	2.939107	0.995796	-0.000118
1011	1.0050e+02	-0.2358	0.573273	0.000294	2.939107	0.995796	-0.000118
1012	1.0059e+02	-0.2727	0.355268	0.000547	5.472820	1.854242	-0.000219
1013	1.0069e+02	-0.3176	0.213968	0.000355	3.547198	1.201823	-0.000142
1014	1.0079e+02	-0.3577	0.072668	0.000355	3.547198	1.201823	-0.000142
1015	1.0089e+02	-0.3898	-0.068631	0.000355	3.547198	1.201823	-0.000142
1016	1.0099e+02	-0.4267	-0.218005	0.000375	3.749895	1.270499	-0.000150
1017	1.0109e+02	-0.4813	-0.456196	0.000598	5.979562	2.025931	-0.000239
1018	1.0119e+02	-0.5150	-0.593459	0.000345	3.445850	1.167485	-0.000138
1019	1.0129e+02	-0.5470	-0.730722	0.000345	3.445850	1.167485	-0.000138
1020	1.0139e+02	-0.5904	-0.896244	0.000416	4.155289	1.407850	-0.000166
1021	1.0149e+02	-0.6369	-1.017358	0.000304	3.040456	1.030134	-0.000122
1022	1.0159e+02	-0.6818	-1.134435	0.000294	2.939107	0.995796	-0.000118
1023	1.0169e+02	-0.7171	-1.271698	0.000345	3.445850	1.167485	-0.000138
1024	1.0179e+02	-0.7540	-1.421072	0.000375	3.749895	1.270499	-0.000150
1025	1.0189e+02	-0.7893	-1.566409	0.000365	3.648547	1.236161	-0.000146
1026	1.0199e+02	-0.8438	-1.756154	0.000476	4.763380	1.613877	-0.000191
1027	1.0209e+02	-0.8727	-1.869194	0.000284	2.837758	0.961459	-0.000114
1028	1.0219e+02	-0.9144	-2.006456	0.000345	3.445850	1.167485	-0.000138
1029	1.0229e+02	-0.9561	-2.147756	0.000355	3.547198	1.201823	-0.000142
1030	1.0239e+02	-0.9994	-2.305205	0.000395	3.952592	1.339174	-0.000158
1031	1.0248e+02	-1.0363	-2.494950	0.000476	4.763380	1.613877	-0.000191
1032	1.0258e+02	-1.0700	-2.636250	0.000355	3.547198	1.201823	-0.000142
1033	1.0268e+02	-1.1149	-2.785624	0.000375	3.749895	1.270499	-0.000150
1034	1.0278e+02	-1.1502	-2.967295	0.000456	4.560683	1.545201	-0.000183
1035	1.0288e+02	-1.1935	-3.148966	0.000456	4.560683	1.545201	-0.000183
1036	1.0298e+02	-1.2417	-3.286228	0.000345	3.445850	1.167485	-0.000138
1037	1.0308e+02	-1.2722	-3.411380	0.000314	3.141804	1.064472	-0.000126
1038	1.0318e+02	-1.3139	-3.568828	0.000395	3.952592	1.339174	-0.000158
1039	1.0328e+02	-1.3508	-3.677831	0.000274	2.736410	0.927121	-0.000110
1040	1.0338e+02	-1.3893	-3.855465	0.000446	4.459335	1.510864	-0.000179
1041	1.0348e+02	-1.4326	-4.004839	0.000375	3.749895	1.270499	-0.000150
1042	1.0358e+02	-1.4711	-4.109804	0.000264	2.635061	0.892783	-0.000105
1043	1.0368e+02	-1.5176	-4.275327	0.000416	4.155289	1.407850	-0.000166
1044	1.0378e+02	-1.5465	-4.424701	0.000375	3.749895	1.270499	-0.000150
1045	1.0388e+02	-1.5962	-4.598298	0.000436	4.357986	1.476526	-0.000174
1046	1.0398e+02	-1.6283	-4.719412	0.000304	3.040456	1.030134	-0.000122
1047	1.0408e+02	-1.6700	-4.913194	0.000486	4.864729	1.648215	-0.000195
1048	1.0418e+02	-1.7133	-5.058531	0.000365	3.648547	1.236161	-0.000146
1049	1.0428e+02	-1.7502	-5.183682	0.000314	3.141804	1.064472	-0.000126
1050	1.0438e+02	-1.7935	-5.349205	0.000416	4.155289	1.407850	-0.000166
1051	1.0447e+02	-1.8224	-5.490505	0.000355	3.547198	1.201823	-0.000142
1052	1.0457e+02	-1.8753	-5.688324	0.000497	4.966077	1.682553	-0.000199
1053	1.0467e+02	-1.9106	-5.861921	0.000436	4.357986	1.476526	-0.000174
1054	1.0477e+02	-1.9491	-5.962849	0.000253	2.533713	0.858445	-0.000101
1055	1.0487e+02	-1.9844	-6.112224	0.000375	3.749895	1.270499	-0.000150
1056	1.0497e+02	-2.0358	-6.245449	0.000334	3.344501	1.133148	-0.000134
1057	1.0507e+02	-2.0727	-6.386749	0.000355	3.547198	1.201823	-0.000142
1058	1.0517e+02	-2.1144	-6.536123	0.000375	3.749895	1.270499	-0.000150
1059	1.0527e+02	-2.1449	-6.685497	0.000375	3.749895	1.270499	-0.000150
1060	1.0537e+02	-2.1898	-6.855056	0.000426	4.256638	1.442188	-0.000170
1061	1.0547e+02	-2.2283	-6.955985	0.000253	2.533713	0.858445	-0.000101
1062	1.0557e+02	-2.2668	-7.141693	0.000466	4.662032	1.579539	-0.000187
1063	1.0567e+02	-2.3101	-7.282993	0.000355	3.547198	1.201823	-0.000142
1064	1.0577e+02	-2.3454	-7.456590	0.000436	4.357986	1.476526	-0.000174
1065	1.0587e+02	-2.3887	-7.593852	0.000345	3.445850	1.167485	-0.000138
1066	1.0597e+02	-2.4272	-7.731115	0.000345	3.445850	1.167485	-0.000138
1067	1.0607e+02	-2.4737	-7.904712	0.000436	4.357986	1.476526	-0.000174
1068	1.0617e+02	-2.5154	-8.017752	0.000284	2.837758	0.961459	-0.000114
1069	1.0627e+02	-2.5539	-8.159051	0.000355	3.547198	1.201823	-0.000142
1070	1.0637e+02	-2.5876	-8.352834	0.000486	4.864729	1.648215	-0.000195
1071	1.0647e+02	-2.6229	-8.502208	0.000375	3.749895	1.270499	-0.000150
1072	1.0656e+02	-2.6710	-8.663693	0.000405	4.053941	1.373512	-0.000162
1073	1.0666e+02	-2.7031	-8.792882	0.000324	3.243153	1.098810	-0.000130
1074	1.0676e+02	-2.7432	-8.922070	0.000324	3.243153	1.098810	-0.000130
1075	1.0686e+02	-2.7849	-9.055295	0.000334	3.344501	1.133148	-0.000134
1076	1.0696e+02	-2.8251	-9.224855	0.000426	4.256638	1.442188	-0.000170
1077	1.0706e+02	-2.8668	-9.390378	0.000416	4.155289	1.407850	-0.000166
1078	1.0716e+02	-2.9069	-9.527640	0.000345	3.445850	1.167485	-0.000138
1079	1.0726e+02	-2.9518	-9.660866	0.000334	3.344501	1.133148	-0.000134
1080	1.0736e+02	-2.9935	-9.810240	0.000375	3.749895	1.270499	-0.000150
1081	1.0746e+02	-3.0288	-9.955577	0.000365	3.648547	1.236161	-0.000146
1082	1.0756e+02	-3.0705	-10.104951	0.000375	3.749895	1.270499	-0.000150
1083	1.0766e+02	-3.1122	-10.254325	0.000375	3.749895	1.270499	-0.000150
1084	1.0776e+02	-3.1523	-10.383513	0.000324	3.243153	1.098810	-0.000130
1085	1.0786e+02	-3.1860	-10.581333	0.000497	4.966077	1.682553	-0.000199
1086	1.0796e+02	-3.2117	-10.694373	0.000284	2.837758	0.961459	-0.000114
1087	1.0806e+02	-3.2662	-10.867969	0.000436	4.357986	1.476526	-0.000174
1088	1.0816e+02	-3.3047	-10.989083	0.000304	3.040456	1.030134	-0.000122
1089	1.0826e+02	-3.3561	-11.126346	0.000345	3.445850	1.167485	-0.000138
1090	1.0836e+02	-3.3833	-11.291869	0.000416	4.155289	1.407850	-0.000166
1091	1.0845e+02	-3.4202	-11.417020	0.000314	3.141804	1.064472	-0.000126
1092	1.0855e+02	-3.4603	-11.582542	0.000416	4.155289	1.407850	-0.000166
1093	1.0865e+02	-3.5036	-11.711731	0.000324	3.243153	1.098810	-0.000130
1094	1.0875e+02	-3.5373	-11.788436	0.000193	1.925622	0.652418	-0.000077
1095	1.0885e+02	-3.5855	-11.978182	0.000476	4.763380	1.613877	-0.000191
1096	1.0895e+02	-3.6368	-12.115444	0.000345	3.445850	1.167485	-0.000138
1097	1.0905e+02	-3.6657	-12.236558	0.000304	3.040456	1.030134	-0.000122
1098	1.0915e+02	-3.7042	-12.414192	0.000446	4.459335	1.510864	-0.000179
1099	1.0925e+02	-3.7411	-12.539344	0.000314	3.141804	1.064472	-0.000126
1100	1.0935e+02	-3.7812	-12.664495	0.000314	3.141804	1.064472	-0.000126
1101	1.0945e+02	-3.8309	-12.793683	0.000324	3.243153	1.098810	-0.000130
1102	1.0955e+02	-3.8582	-12.934983	0.000355	3.547198	1.201823	-0.000142
1103	1.0965e+02	-3.8967	-13.120691	0.000466	4.662032	1.579539	-0.000187
1104	1.0975e+02	-3.9480	-13.278139	0.000395	3.952592	1.339174	-0.000158
1105	1.0985e+02	-3.9737	-13.463848	0.000466	4.662032	1.579539	-0.000187
1106	1.0995e+02	-4.0202	-13.556702	0.000233	2.331016	0.789770	-0.000093
1107	1.1005e+02	-4.0651	-13.702039	0.000365	3.648547	1.236161	-0.000146
1108	1.1015e+02	-4.1004	-13.831227	0.000324	3.243153	1.098810	-0.000130
1109	1.1025e+02	-4.1485	-13.988675	0.000395	3.952592	1.339174	-0.000158
1110	1.1035e+02	-4.1806	-14.049232	0.000152	1.520228	0.515067	-0.000061
1111	1.1044e+02	-4.2191	-14.182458	0.000334	3.344501	1.133148	-0.000134
1112	1.1054e+02	-4.2641	-14.364129	0.000456	4.560683	1.545201	-0.000183
1113	1.1064e+02	-4.3106	-14.501392	0.000345	3.445850	1.167485	-0.000138
1114	1.1074e+02	-4.3443	-14.610394	0.000274	2.736410	0.927121	-0.000110
1115	1.1084e+02	-4.3780	-14.763805	0.000385	3.851244	1.304837	-0.000154
1116	1.1094e+02	-4.4197	-14.913179	0.000375	3.749895	1.270499	-0.000150
1117	1.1104e+02	-4.4630	-15.026219	0.000284	2.837758	0.961459	-0.000114
1118	1.1114e+02	-4.5175	-15.171556	0.000365	3.648547	1.236161	-0.000146
1119	1.1124e+02	-4.5336	-15.304782	0.000334	3.344501	1.133148	-0.000134
1120	1.1134e+02	-4.5913	-15.502601	0.000497	4.966077	1.682553	-0.000199
1121	1.1144e+02	-4.6202	-15.595455	0.000233	2.331016	0.789770	-0.000093
1122	1.1154e+02	-4.6635	-15.765015	0.000426	4.256638	1.442188	-0.000170
1123	1.1164e+02	-4.6892	-15.914389	0.000375	3.749895	1.270499	-0.000150
1124	1.1174e+02	-4.7421	-16.043577	0.000324	3.243153	1.098810	-0.000130
1125	1.1184e+02	-4.7790	-16.172766	0.000324	3.243153	1.098810	-0.000130
1126	1.1194e+02	-4.8207	-16.293880	0.000304	3.040456	1.030134	-0.000122
1127	1.1204e+02	-4.8592	-16.435180	0.000355	3.547198	1.201823	-0.000142
1128	1.1214e+02	-4.8929	-16.548219	0.000284	2.837758	0.961459	-0.000114
1129	1.1224e+02	-4.9442	-16.649148	0.000253	2.533713	0.858445	-0.000101
1130	1.1234e+02	-4.9795	-16.814670	0.000416	4.155289	1.407850	-0.000166
1131	1.1244e+02	-5.0293	-16.903487	0.000223	2.229667	0.755432	-0.000089
1132	1.1253e+02	-5.0662	-17.052861	0.000375	3.749895	1.270499	-0.000150
1133	1.1263e+02	-5.0983	-17.165901	0.000284	2.837758	0.961459	-0.000114
1134	1.1273e+02	-5.1368	-17.339498	0.000436	4.357986	1.476526	-0.000174
1135	1.1283e+02	-5.1753	-17.476761	0.000345	3.445850	1.167485	-0.000138
1136	1.1293e+02	-5.2154	-17.622097	0.000365	3.648547	1.236161	-0.000146
1137	1.1303e+02	-5.2539	-17.791657	0.000426	4.256638	1.442188	-0.000170
1138	1.1313e+02	-5.3004	-17.912771	0.000304	3.040456	1.030134	-0.000122
1139	1.1323e+02	-5.3389	-18.045997	0.000334	3.344501	1.133148	-0.000134
1140	1.1333e+02	-5.3774	-18.159037	0.000284	2.837758	0.961459	-0.000114
1141	1.1343e+02	-5.4191	-18.308411	0.000375	3.749895	1.270499	-0.000150
1142	1.1353e+02	-5.4560	-18.413376	0.000264	2.635061	0.892783	-0.000105
1143	1.1363e+02	-5.4993	-18.510267	0.000243	2.432364	0.824107	-0.000097
1144	1.1373e+02	-5.5378	-18.675790	0.000416	4.155289	1.407850	-0.000166
1145	1.1383e+02	-5.5795	-18.776718	0.000253	2.533713	0.858445	-0.000101
1146	1.1393e+02	-5.6148	-18.881684	0.000264	2.635061	0.892783	-0.000105
1147	1.1403e+02	-5.6645	-19.043169	0.000405	4.053941	1.373512	-0.000162
1148	1.1413e+02	-5.6934	-19.160246	0.000294	2.939107	0.995796	-0.000118
1149	1.1423e+02	-5.7399	-19.313657	0.000385	3.851244	1.304837	-0.000154
1150	1.1433e+02	-5.7768	-19.398437	0.000213	2.128319	0.721094	-0.000085
1151	1.1442e+02	-5.8089	-19.523588	0.000314	3.141804	1.064472	-0.000126
1152	1.1452e+02	-5.8587	-19.689111	0.000416	4.155289	1.407850	-0.000166
1153	1.1462e+02	-5.8972	-19.806188	0.000294	2.939107	0.995796	-0.000118
1154	1.1472e+02	-5.9357	-20.008045	0.000507	5.067426	1.716890	-0.000203
1155	1.1482e+02	-5.9758	-20.141270	0.000334	3.344501	1.133148	-0.000134
1156	1.1492e+02	-6.0287	-20.238161	0.000243	2.432364	0.824107	-0.000097
1157	1.1502e+02	-6.0592	-20.363313	0.000314	3.141804	1.064472	-0.000126
1158	1.1512e+02	-6.0961	-20.504612	0.000355	3.547198	1.201823	-0.000142
1159	1.1522e+02	-6.1362	-20.613615	0.000274	2.736410	0.927121	-0.000110
1160	1.1532e+02	-6.1747	-20.754915	0.000355	3.547198	1.201823	-0.000142
1161	1.1542e+02	-6.2228	-20.876029	0.000304	3.040456	1.030134	-0.000122
1162	1.1552e+02	-6.2549	-20.997143	0.000304	3.040456	1.030134	-0.000122
1163	1.1562e+02	-6.2918	-21.085960	0.000223	2.229667	0.755432	-0.000089
1164	1.1572e+02	-6.3399	-21.211111	0.000314	3.141804	1.064472	-0.000126
1165	1.1582e+02	-6.3720	-21.332225	0.000304	3.040456	1.030134	-0.000122
1166	1.1592e+02	-6.4169	-21.453339	0.000304	3.040456	1.030134	-0.000122
1167	1.1602e+02	-6.4490	-21.582528	0.000324	3.243153	1.098810	-0.000130
1168	1.1612e+02	-6.4875	-21.727865	0.000365	3.648547	1.236161	-0.000146
1169	1.1622e+02	-6.5340	-21.836867	0.000274	2.736410	0.927121	-0.000110
1170	1.1632e+02	-6.5774	-21.957981	0.000304	3.040456	1.030134	-0.000122
1171	1.1642e+02	-6.6110	-22.095244	0.000345	3.445850	1.167485	-0.000138
1172	1.1651e+02	-6.6479	-22.256729	0.000405	4.053941	1.373512	-0.000162
1173	1.1661e+02	-6.7009	-22.361695	0.000264	2.635061	0.892783	-0.000105
1174	1.1671e+02	-6.7362	-22.511069	0.000375	3.749895	1.270499	-0.000150
1175	1.1681e+02	-6.7747	-22.652369	0.000355	3.547198	1.201823	-0.000142
1176	1.1691e+02	-6.8019	-22.769446	0.000294	2.939107	0.995796	-0.000118
1177	1.1701e+02	-6.8485	-22.890560	0.000304	3.040456	1.030134	-0.000122
1178	1.1711e+02	-6.8886	-23.043971	0.000385	3.851244	1.304837	-0.000154
1179	1.1721e+02	-6.9303	-23.132788	0.000223	2.229667	0.755432	-0.000089
1180	1.1731e+02	-6.9608	-23.270050	0.000345	3.445850	1.167485	-0.000138
1181	1.1741e+02	-6.9977	-23.362905	0.000233	2.331016	0.789770	-0.000093
1182	1.1751e+02	-7.0442	-23.467870	0.000264	2.635061	0.892783	-0.000105
1183	1.1761e+02	-7.0859	-23.593021	0.000314	3.141804	1.064472	-0.000126
1184	1.1771e+02	-7.1308	-23.722210	0.000324	3.243153	1.098810	-0.000130
1185	1.1781e+02	-7.1789	-23.851398	0.000324	3.243153	1.098810	-0.000130
1186	1.1791e+02	-7.2158	-23.960401	0.000274	2.736410	0.927121	-0.000110
1187	1.1801e+02	-7.2479	-24.158220	0.000497	4.966077	1.682553	-0.000199
1188	1.1811e+02	-7.2832	-24.255112	0.000243	2.432364	0.824107	-0.000097
1189	1.1821e+02	-7.3346	-24.420634	0.000416	4.155289	1.407850	-0.000166
1190	1.1831e+02	-7.3618	-24.509451	0.000223	2.229667	0.755432	-0.000089
1191	1.1841e+02	-7.4148	-24.626528	0.000294	2.939107	0.995796	-0.000118
1192	1.1850e+02	-7.4468	-24.804162	0.000446	4.459335	1.510864	-0.000179
1193	1.1860e+02	-7.4854	-24.929313	0.000314	3.141804	1.064472	-0.000126
1194	1.1870e+02	-7.5174	-25.030242	0.000253	2.533713	0.858445	-0.000101
1195	1.1880e+02	-7.5640	-25.163467	0.000334	3.344501	1.133148	-0.000134
1196	1.1890e+02	-7.6025	-25.292655	0.000324	3.243153	1.098810	-0.000130
1197	1.1900e+02	-7.6458	-25.385510	0.000233	2.331016	0.789770	-0.000093
1198	1.1910e+02	-7.6939	-25.490475	0.000264	2.635061	0.892783	-0.000105
1199	1.1920e+02	-7.7308	-25.607552	0.000294	2.939107	0.995796	-0.000118
1200	1.1930e+02	-7.7661	-25.692332	0.000213	2.128319	0.721094	-0.000085
1201	1.1940e+02	-7.8062	-25.865929	0.000436	4.357986	1.476526	-0.000174
1202	1.1950e+02	-7.8463	-25.999154	0.000334	3.344501	1.133148	-0.000134
1203	1.1960e+02	-7.8832	-26.116231	0.000294	2.939107	0.995796	-0.000118
1204	1.1970e+02	-7.9201	-26.225234	0.000274	2.736410	0.927121	-0.000110
1205	1.1980e+02	-7.9634	-26.402868	0.000446	4.459335	1.510864	-0.000179
1206	1.1990e+02	-8.0099	-26.568390	0.000416	4.155289	1.407850	-0.000166
1207	1.2000e+02	-8.0420	-26.637022	0.000172	1.722925	0.583743	-0.000069
1208	1.2010e+02	-8.0901	-26.782358	0.000365	3.648547	1.236161	-0.000146
1209	1.2020e+02	-8.1319	-26.871175	0.000223	2.229667	0.755432	-0.000089
1210	1.2030e+02	-8.1655	-27.024587	0.000385	3.851244	1.304837	-0.000154
1211	1.2039e+02	-8.2057	-27.161849	0.000345	3.445850	1.167485	-0.000138
1212	1.2049e+02	-8.2458	-27.282963	0.000304	3.040456	1.030134	-0.000122
1213	1.2059e+02	-8.2859	-27.351595	0.000172	1.722925	0.583743	-0.000069
1214	1.2069e+02	-8.3228	-27.529229	0.000446	4.459335	1.510864	-0.000179
1215	1.2079e+02	-8.3629	-27.597860	0.000172	1.722925	0.583743	-0.000069
1216	1.2089e+02	-8.4014	-27.731085	0.000334	3.344501	1.133148	-0.000134
1217	1.2099e+02	-8.4431	-27.787605	0.000142	1.418879	0.480729	-0.000057
1218	1.2109e+02	-8.4816	-27.969276	0.000456	4.560683	1.545201	-0.000183
1219	1.2119e+02	-8.5297	-28.070205	0.000253	2.533713	0.858445	-0.000101
1220	1.2129e+02	-8.5570	-28.235727	0.000416	4.155289	1.407850	-0.000166
1221	1.2139e+02	-8.5987	-28.352804	0.000294	2.939107	0.995796	-0.000118
1222	1.2149e+02	-8.6436	-28.498141	0.000365	3.648547	1.236161	-0.000146
1223	1.2159e+02	-8.6805	-28.643478	0.000365	3.648547	1.236161	-0.000146
1224	1.2169e+02	-8.7238	-28.748444	0.000264	2.635061	0.892783	-0.000105
1225	1.2179e+02	-8.7639	-28.893780	0.000365	3.648547	1.236161	-0.000146
1226	1.2189e+02	-8.8024	-29.014895	0.000304	3.040456	1.030134	-0.000122
1227	1.2199e+02	-8.8457	-29.091600	0.000193	1.925622	0.652418	-0.000077
1228	1.2209e+02	-8.8730	-29.208677	0.000294	2.939107	0.995796	-0.000118
1229	1.2219e+02	-8.9163	-29.337865	0.000324	3.243153	1.098810	-0.000130
1230	1.2229e+02	-8.9628	-29.475128	0.000345	3.445850	1.167485	-0.000138
1231	1.2239e+02	-9.0030	-29.596242	0.000304	3.040456	1.030134	-0.000122
1232	1.2248e+02	-9.0447	-29.697170	0.000253	2.533713	0.858445	-0.000101
1233	1.2258e+02	-9.0816	-29.818285	0.000304	3.040456	1.030134	-0.000122
1234	1.2268e+02	-9.1249	-29.907102	0.000223	2.229667	0.755432	-0.000089
1235	1.2278e+02	-9.1618	-30.040327	0.000334	3.344501	1.133148	-0.000134
1236	1.2288e+02	-9.1987	-30.165478	0.000314	3.141804	1.064472	-0.000126
1237	1.2298e+02	-9.2372	-30.335038	0.000426	4.256638	1.442188	-0.000170
1238	1.2308e+02	-9.2709	-30.472301	0.000345	3.445850	1.167485	-0.000138
1239	1.2318e+02	-9.3222	-30.544969	0.000182	1.824273	0.618081	-0.000073
1240	1.2328e+02	-9.3607	-30.690306	0.000365	3.648547	1.236161	-0.000146
1241	1.2338e+02	-9.3992	-30.803346	0.000284	2.837758	0.961459	-0.000114
1242	1.2348e+02	-9.4425	-30.936571	0.000334	3.344501	1.133148	-0.000134
1243	1.2358e+02	-9.4778	-31.029425	0.000233	2.331016	0.789770	-0.000093
1244	1.2368e+02	-9.5211	-31.211096	0.000456	4.560683	1.545201	-0.000183
1245	1.2378e+02	-9.5612	-31.243393	0.000081	0.810788	0.274702	-0.000032
1246	1.2388e+02	-9.5981	-31.380656	0.000345	3.445850	1.167485	-0.000138
1247	1.2398e+02	-9.6398	-31.534067	0.000385	3.851244	1.304837	-0.000154
1248	1.2408e+02	-9.6751	-31.578476	0.000111	1.114834	0.377716	-0.000045
1249	1.2418e+02	-9.7168	-31.719775	0.000355	3.547198	1.201823	-0.000142
1250	1.2428e+02	-9.7650	-31.804555	0.000213	2.128319	0.721094	-0.000085
1251	1.2438e+02	-9.8051	-31.949892	0.000365	3.648547	1.236161	-0.000146
1252	1.2447e+02	-9.8372	-32.066969	0.000294	2.939107	0.995796	-0.000118
1253	1.2457e+02	-9.8837	-32.155786	0.000223	2.229667	0.755432	-0.000089
1254	1.2467e+02	-9.9238	-32.329383	0.000436	4.357986	1.476526	-0.000174
1255	1.2477e+02	-9.9527	-32.438386	0.000274	2.736410	0.927121	-0.000110
1256	1.2487e+02	-9.9831	-32.547388	0.000274	2.736410	0.927121	-0.000110
1257	1.2497e+02	-10.0361	-32.696762	0.000375	3.749895	1.270499	-0.000150
1258	1.2507e+02	-10.0762	-32.789616	0.000233	2.331016	0.789770	-0.000093
1259	1.2517e+02	-10.1195	-32.914768	0.000314	3.141804	1.064472	-0.000126
1260	1.2527e+02	-10.1628	-33.031845	0.000294	2.939107	0.995796	-0.000118
1261	1.2537e+02	-10.1965	-33.144884	0.000284	2.837758	0.961459	-0.000114
1262	1.2547e+02	-10.2398	-33.249850	0.000264	2.635061	0.892783	-0.000105
1263	1.2557e+02	-10.2815	-33.322518	0.000182	1.824273	0.618081	-0.000073
1264	1.2567e+02	-10.3088	-33.427484	0.000264	2.635061	0.892783	-0.000105
1265	1.2577e+02	-10.3521	-33.548598	0.000304	3.040456	1.030134	-0.000122
1266	1.2587e+02	-10.4034	-33.689898	0.000355	3.547198	1.201823	-0.000142
1267	1.2597e+02	-10.4307	-33.786789	0.000243	2.432364	0.824107	-0.000097
1268	1.2607e+02	-10.4853	-33.891755	0.000264	2.635061	0.892783	-0.000105
1269	1.2617e+02	-10.5190	-34.012869	0.000304	3.040456	1.030134	-0.000122
1270	1.2627e+02	-10.5591	-34.101686	0.000223	2.229667	0.755432	-0.000089
1271	1.2636e+02	-10.5944	-34.251060	0.000375	3.749895	1.270499	-0.000150
1272	1.2646e+02	-10.6361	-34.368137	0.000294	2.939107	0.995796	-0.000118
1273	1.2656e+02	-10.6730	-34.501362	0.000334	3.344501	1.133148	-0.000134
1274	1.2666e+02	-10.7179	-34.622476	0.000304	3.040456	1.030134	-0.000122
1275	1.2676e+02	-10.7532	-34.739553	0.000294	2.939107	0.995796	-0.000118
1276	1.2686e+02	-10.7885	-34.816259	0.000193	1.925622	0.652418	-0.000077
1277	1.2696e+02	-10.8334	-34.973707	0.000395	3.952592	1.339174	-0.000158
1278	1.2706e+02	-10.8783	-35.054450	0.000203	2.026970	0.686756	-0.000081
1279	1.2716e+02	-10.9088	-35.147304	0.000233	2.331016	0.789770	-0.000093
1280	1.2726e+02	-10.9633	-35.276492	0.000324	3.243153	1.098810	-0.000130
1281	1.2736e+02	-11.0002	-35.345123	0.000172	1.722925	0.583743	-0.000069
1282	1.2746e+02	-11.0419	-35.462200	0.000294	2.939107	0.995796	-0.000118
1283	1.2756e+02	-11.0708	-35.603500	0.000355	3.547198	1.201823	-0.000142
1284	1.2766e+02	-11.1157	-35.623686	0.000051	0.506743	0.171689	-0.000020
1285	1.2776e+02	-11.1606	-35.785171	0.000405	4.053941	1.373512	-0.000162
1286	1.2786e+02	-11.1911	-35.869951	0.000213	2.128319	0.721094	-0.000085
1287	1.2796e+02	-11.2296	-35.987028	0.000294	2.939107	0.995796	-0.000118
1288	1.2806e+02	-11.2617	-36.104105	0.000294	2.939107	0.995796	-0.000118
1289	1.2816e+02	-11.3211	-36.265590	0.000405	4.053941	1.373512	-0.000162
1290	1.2826e+02	-11.3612	-36.394779	0.000324	3.243153	1.098810	-0.000130
1291	1.2835e+02	-11.3884	-36.499744	0.000264	2.635061	0.892783	-0.000105
1292	1.2845e+02	-11.4318	-36.576450	0.000193	1.925622	0.652418	-0.000077
1293	1.2855e+02	-11.4703	-36.685452	0.000274	2.736410	0.927121	-0.000110
1294	1.2865e+02	-11.5168	-36.766195	0.000203	2.026970	0.686756	-0.000081
1295	1.2875e+02	-11.5601	-36.951903	0.000466	4.662032	1.579539	-0.000187
1296	1.2885e+02	-11.5954	-37.000349	0.000122	1.216182	0.412054	-0.000049
1297	1.2895e+02	-11.6355	-37.105315	0.000264	2.635061	0.892783	-0.000105
1298	1.2905e+02	-11.6756	-37.230466	0.000314	3.141804	1.064472	-0.000126
1299	1.2915e+02	-11.7077	-37.274874	0.000111	1.114834	0.377716	-0.000045
1300	1.2925e+02	-11.7558	-37.420211	0.000365	3.648547	1.236161	-0.000146
1301	1.2935e+02	-11.7975	-37.509028	0.000223	2.229667	0.755432	-0.000089
1302	1.2945e+02	-11.8312	-37.577659	0.000172	1.722925	0.583743	-0.000069
1303	1.2955e+02	-11.8585	-37.670514	0.000233	2.331016	0.789770	-0.000093
1304	1.2965e+02	-11.9082	-37.856222	0.000466	4.662032	1.579539	-0.000187
1305	1.2975e+02	-11.9483	-37.928890	0.000182	1.824273	0.618081	-0.000073
1306	1.2985e+02	-11.9884	-38.050004	0.000304	3.040456	1.030134	-0.000122
1307	1.2995e+02	-12.0301	-38.175156	0.000314	3.141804	1.064472	-0.000126
1308	1.3005e+02	-12.0686	-38.320492	0.000365	3.648547	1.236161	-0.000146
1309	1.3015e+02	-12.1120	-38.381049	0.000152	1.520228	0.515067	-0.000061
1310	1.3025e+02	-12.1505	-38.465829	0.000213	2.128319	0.721094	-0.000085
1311	1.3034e+02	-12.1922	-38.578869	0.000284	2.837758	0.961459	-0.000114
1312	1.3044e+02	-12.2243	-38.695946	0.000294	2.939107	0.995796	-0.000118
1313	1.3054e+02	-12.2740	-38.760540	0.000162	1.621576	0.549405	-0.000065
1314	1.3064e+02	-12.3045	-38.897803	0.000345	3.445850	1.167485	-0.000138
1315	1.3074e+02	-12.3510	-38.994694	0.000243	2.432364	0.824107	-0.000097
1316	1.3084e+02	-12.3911	-39.103697	0.000274	2.736410	0.927121	-0.000110
1317	1.3094e+02	-12.4376	-39.111771	0.000020	0.202697	0.068676	-0.000008
1318	1.3104e+02	-12.4649	-39.265182	0.000385	3.851244	1.304837	-0.000154
1319	1.3114e+02	-12.5082	-39.390333	0.000314	3.141804	1.064472	-0.000126
1320	1.3124e+02	-12.5371	-39.479150	0.000223	2.229667	0.755432	-0.000089
1321	1.3134e+02	-12.5756	-39.592190	0.000284	2.837758	0.961459	-0.000114
1322	1.3144e+02	-12.6333	-39.721379	0.000324	3.243153	1.098810	-0.000130
1323	1.3154e+02	-12.6702	-39.810196	0.000223	2.229667	0.755432	-0.000089
1324	1.3164e+02	-12.7087	-39.919198	0.000274	2.736410	0.927121	-0.000110
1325	1.3174e+02	-12.7472	-40.036275	0.000294	2.939107	0.995796	-0.000118
1326	1.3184e+02	-12.7873	-40.121055	0.000213	2.128319	0.721094	-0.000085
1327	1.3194e+02	-12.8274	-40.242169	0.000304	3.040456	1.030134	-0.000122
1328	1.3204e+02	-12.8676	-40.335023	0.000233	2.331016	0.789770	-0.000093
1329	1.3214e+02	-12.9077	-40.431914	0.000243	2.432364	0.824107	-0.000097
1330	1.3224e+02	-12.9542	-40.557066	0.000314	3.141804	1.064472	-0.000126
1331	1.3234e+02	-12.9927	-40.637808	0.000203	2.026970	0.686756	-0.000081
1332	1.3243e+02	-13.0216	-40.758922	0.000304	3.040456	1.030134	-0.000122
1333	1.3253e+02	-13.0665	-40.827554	0.000172	1.722925	0.583743	-0.000069
1334	1.3263e+02	-13.1082	-40.928482	0.000253	2.533713	0.858445	-0.000101
1335	1.3273e+02	-13.1451	-41.013262	0.000213	2.128319	0.721094	-0.000085
1336	1.3283e+02	-13.1884	-41.138413	0.000314	3.141804	1.064472	-0.000126
1337	1.3293e+02	-13.2157	-41.223193	0.000213	2.128319	0.721094	-0.000085
1338	1.3303e+02	-13.2622	-41.388716	0.000416	4.155289	1.407850	-0.000166
1339	1.3313e+02	-13.2959	-41.489644	0.000253	2.533713	0.858445	-0.000101
1340	1.3323e+02	-13.3408	-41.590572	0.000253	2.533713	0.858445	-0.000101
1341	1.3333e+02	-13.3777	-41.695538	0.000264	2.635061	0.892783	-0.000105
1342	1.3343e+02	-13.4242	-41.784355	0.000223	2.229667	0.755432	-0.000089
1343	1.3353e+02	-13.4707	-41.913543	0.000324	3.243153	1.098810	-0.000130
1344	1.3363e+02	-13.5012	-41.978137	0.000162	1.621576	0.549405	-0.000065
1345	1.3373e+02	-13.5445	-42.091177	0.000284	2.837758	0.961459	-0.000114
1346	1.3383e+02	-13.5830	-42.179994	0.000223	2.229667	0.755432	-0.000089
1347	1.3393e+02	-13.6312	-42.284960	0.000264	2.635061	0.892783	-0.000105
1348	1.3403e+02	-13.6600	-42.406074	0.000304	3.040456	1.030134	-0.000122
1349	1.3413e+02	-13.7018	-42.442408	0.000091	0.912137	0.309040	-0.000037
1350	1.3423e+02	-13.7354	-42.571596	0.000324	3.243153	1.098810	-0.000130
1351	1.3432e+02	-13.7820	-42.676562	0.000264	2.635061	0.892783	-0.000105
1352	1.3442e+02	-13.8301	-42.809787	0.000334	3.344501	1.133148	-0.000134
1353	1.3452e+02	-13.8654	-42.846122	0.000091	0.912137	0.309040	-0.000037
1354	1.3462e+02	-13.9007	-43.035867	0.000476	4.763380	1.613877	-0.000191
1355	1.3472e+02	-13.9408	-43.128721	0.000233	2.331016	0.789770	-0.000093
1356	1.3482e+02	-13.9841	-43.265984	0.000345	3.445850	1.167485	-0.000138
1357	1.3492e+02	-14.0210	-43.370949	0.000264	2.635061	0.892783	-0.000105
1358	1.3502e+02	-14.0531	-43.459766	0.000223	2.229667	0.755432	-0.000089
1359	1.3512e+02	-14.0964	-43.548583	0.000223	2.229667	0.755432	-0.000089
1360	1.3522e+02	-14.1381	-43.673734	0.000314	3.141804	1.064472	-0.000126
1361	1.3532e+02	-14.1862	-43.774663	0.000253	2.533713	0.858445	-0.000101
1362	1.3542e+02	-14.2167	-43.855406	0.000203	2.026970	0.686756	-0.000081
1363	1.3552e+02	-14.2536	-43.996705	0.000355	3.547198	1.201823	-0.000142
1364	1.3562e+02	-14.3017	-44.073411	0.000193	1.925622	0.652418	-0.000077
1365	1.3572e+02	-14.3354	-44.146079	0.000182	1.824273	0.618081	-0.000073
1366	1.3582e+02	-14.3948	-44.283342	0.000345	3.445850	1.167485	-0.000138
1367	1.3592e+02	-14.4188	-44.347936	0.000162	1.621576	0.549405	-0.000065
1368	1.3602e+02	-14.4622	-44.452902	0.000264	2.635061	0.892783	-0.000105
1369	1.3612e+02	-14.5007	-44.493273	0.000101	1.013485	0.343378	-0.000041
1370	1.3622e+02	-14.5424	-44.662833	0.000426	4.256638	1.442188	-0.000170
1371	1.3631e+02	-14.5761	-44.804132	0.000355	3.547198	1.201823	-0.000142
1372	1.3641e+02	-14.6194	-44.909098	0.000264	2.635061	0.892783	-0.000105
1373	1.3651e+02	-14.6499	-45.014063	0.000264	2.635061	0.892783	-0.000105
1374	1.3661e+02	-14.6996	-45.163438	0.000375	3.749895	1.270499	-0.000150
1375	1.3671e+02	-14.7317	-45.244180	0.000203	2.026970	0.686756	-0.000081
1376	1.3681e+02	-14.7734	-45.324923	0.000203	2.026970	0.686756	-0.000081
1377	1.3691e+02	-14.8151	-45.413740	0.000223	2.229667	0.755432	-0.000089
1378	1.3701e+02	-14.8568	-45.555040	0.000355	3.547198	1.201823	-0.000142
1379	1.3711e+02	-14.9001	-45.623671	0.000172	1.722925	0.583743	-0.000069
1380	1.3721e+02	-14.9418	-45.764971	0.000355	3.547198	1.201823	-0.000142
1381	1.3731e+02	-14.9771	-45.869936	0.000264	2.635061	0.892783	-0.000105
1382	1.3741e+02	-15.0220	-45.991050	0.000304	3.040456	1.030134	-0.000122
1383	1.3751e+02	-15.0621	-46.071793	0.000203	2.026970	0.686756	-0.000081
1384	1.3761e+02	-15.0958	-46.160610	0.000223	2.229667	0.755432	-0.000089
1385	1.3771e+02	-15.1295	-46.253464	0.000233	2.331016	0.789770	-0.000093
1386	1.3781e+02	-15.1728	-46.346318	0.000233	2.331016	0.789770	-0.000093
1387	1.3791e+02	-15.2226	-46.487618	0.000355	3.547198	1.201823	-0.000142
1388	1.3801e+02	-15.2611	-46.592584	0.000264	2.635061	0.892783	-0.000105
1389	1.3811e+02	-15.3060	-46.737920	0.000365	3.648547	1.236161	-0.000146
1390	1.3821e+02	-15.3365	-46.806552	0.000172	1.722925	0.583743	-0.000069
1391	1.3831e+02	-15.3798	-46.939777	0.000334	3.344501	1.133148	-0.000134
1392	1.3840e+02	-15.4247	-47.008409	0.000172	1.722925	0.583743	-0.000069
1393	1.3850e+02	-15.4536	-47.129523	0.000304	3.040456	1.030134	-0.000122
1394	1.3860e+02	-15.4969	-47.266785	0.000345	3.445850	1.167485	-0.000138
1395	1.3870e+02	-15.5434	-47.335417	0.000172	1.722925	0.583743	-0.000069
1396	1.3880e+02	-15.5691	-47.464605	0.000324	3.243153	1.098810	-0.000130
1397	1.3890e+02	-15.6156	-47.605905	0.000355	3.547198	1.201823	-0.000142
1398	1.3900e+02	-15.6589	-47.654350	0.000122	1.216182	0.412054	-0.000049
1399	1.3910e+02	-15.7038	-47.791613	0.000345	3.445850	1.167485	-0.000138
1400	1.3920e+02	-15.7391	-47.880430	0.000223	2.229667	0.755432	-0.000089
1401	1.3930e+02	-15.7873	-47.936950	0.000142	1.418879	0.480729	-0.000057
1402	1.3940e+02	-15.8193	-48.041915	0.000264	2.635061	0.892783	-0.000105
1403	1.3950e+02	-15.8594	-48.154955	0.000284	2.837758	0.961459	-0.000114
1404	1.3960e+02	-15.8867	-48.243772	0.000223	2.229667	0.755432	-0.000089
1405	1.3970e+02	-15.9381	-48.381035	0.000345	3.445850	1.167485	-0.000138
1406	1.3980e+02	-15.9685	-48.449666	0.000172	1.722925	0.583743	-0.000069
1407	1.3990e+02	-16.0135	-48.623263	0.000436	4.357986	1.476526	-0.000174
1408	1.4000e+02	-16.0520	-48.728228	0.000264	2.635061	0.892783	-0.000105
1409	1.4010e+02	-16.0889	-48.861454	0.000334	3.344501	1.133148	-0.000134
1410	1.4020e+02	-16.1209	-48.958345	0.000243	2.432364	0.824107	-0.000097
1411	1.4029e+02	-16.1771	-49.043125	0.000213	2.128319	0.721094	-0.000085
1412	1.4039e+02	-16.2204	-49.148090	0.000264	2.635061	0.892783	-0.000105
1413	1.4049e+02	-16.2541	-49.289390	0.000355	3.547198	1.201823	-0.000142
1414	1.4059e+02	-16.3006	-49.362059	0.000182	1.824273	0.618081	-0.000073
1415	1.4069e+02	-16.3391	-49.483173	0.000304	3.040456	1.030134	-0.000122
1416	1.4079e+02	-16.3776	-49.612361	0.000324	3.243153	1.098810	-0.000130
1417	1.4089e+02	-16.4097	-49.721364	0.000274	2.736410	0.927121	-0.000110
1418	1.4099e+02	-16.4466	-49.785958	0.000162	1.621576	0.549405	-0.000065
1419	1.4109e+02	-16.4995	-49.838441	0.000132	1.317531	0.446391	-0.000053
1420	1.4119e+02	-16.5412	-49.971666	0.000334	3.344501	1.133148	-0.000134
1421	1.4129e+02	-16.5717	-50.088743	0.000294	2.939107	0.995796	-0.000118
1422	1.4139e+02	-16.6134	-50.213894	0.000314	3.141804	1.064472	-0.000126
1423	1.4149e+02	-16.6423	-50.335008	0.000304	3.040456	1.030134	-0.000122
1424	1.4159e+02	-16.6824	-50.407677	0.000182	1.824273	0.618081	-0.000073
1425	1.4169e+02	-16.7273	-50.532828	0.000314	3.141804	1.064472	-0.000126
1426	1.4179e+02	-16.7739	-50.637794	0.000264	2.635061	0.892783	-0.000105
1427	1.4189e+02	-16.8043	-50.775056	0.000345	3.445850	1.167485	-0.000138
1428	1.4199e+02	-16.8541	-50.847725	0.000182	1.824273	0.618081	-0.000073
1429	1.4209e+02	-16.8829	-50.960764	0.000284	2.837758	0.961459	-0.000114
1430	1.4219e+02	-16.9311	-51.118213	0.000395	3.952592	1.339174	-0.000158
1431	1.4228e+02	-16.9680	-51.182807	0.000162	1.621576	0.549405	-0.000065
1432	1.4238e+02	-17.0081	-51.291810	0.000274	2.736410	0.927121	-0.000110
1433	1.4248e+02	-17.0530	-51.388701	0.000243	2.432364	0.824107	-0.000097
1434	1.4258e+02	-17.0867	-51.469444	0.000203	2.026970	0.686756	-0.000081
1435	1.4268e+02	-17.1300	-51.562298	0.000233	2.331016	0.789770	-0.000093
1436	1.4278e+02	-17.1733	-51.643040	0.000203	2.026970	0.686756	-0.000081
1437	1.4288e+02	-17.2070	-51.723783	0.000203	2.026970	0.686756	-0.000081
1438	1.4298e+02	-17.2535	-51.857009	0.000334	3.344501	1.133148	-0.000134
1439	1.4308e+02	-17.2760	-51.986197	0.000324	3.243153	1.098810	-0.000130
1440	1.4318e+02	-17.3369	-52.111348	0.000314	3.141804	1.064472	-0.000126
1441	1.4328e+02	-17.3722	-52.260722	0.000375	3.749895	1.270499	-0.000150
1442	1.4338e+02	-17.3995	-52.333391	0.000182	1.824273	0.618081	-0.000073
1443	1.4348e+02	-17.4492	-52.478727	0.000365	3.648547	1.236161	-0.000146
1444	1.4358e+02	-17.4926	-52.527173	0.000122	1.216182	0.412054	-0.000049
1445	1.4368e+02	-17.5327	-52.644250	0.000294	2.939107	0.995796	-0.000118
1446	1.4378e+02	-17.5647	-52.733067	0.000223	2.229667	0.755432	-0.000089
1447	1.4388e+02	-17.6081	-52.874367	0.000355	3.547198	1.201823	-0.000142
1448	1.4398e+02	-17.6482	-52.979332	0.000264	2.635061	0.892783	-0.000105
1449	1.4408e+02	-17.6947	-53.100446	0.000304	3.040456	1.030134	-0.000122
1450	1.4418e+02	-17.7252	-53.169078	0.000172	1.722925	0.583743	-0.000069
1451	1.4428e+02	-17.7556	-53.302303	0.000334	3.344501	1.133148	-0.000134
1452	1.4437e+02	-17.8134	-53.403232	0.000253	2.533713	0.858445	-0.000101
1453	1.4447e+02	-17.8439	-53.471863	0.000172	1.722925	0.583743	-0.000069
1454	1.4457e+02	-17.8776	-53.576828	0.000264	2.635061	0.892783	-0.000105
1455	1.4467e+02	-17.9257	-53.657571	0.000203	2.026970	0.686756	-0.000081
1456	1.4477e+02	-17.9706	-53.831168	0.000436	4.357986	1.476526	-0.000174
1457	1.4487e+02	-18.0027	-53.936133	0.000264	2.635061	0.892783	-0.000105
1458	1.4497e+02	-18.0476	-54.037062	0.000253	2.533713	0.858445	-0.000101
1459	1.4507e+02	-18.0781	-54.162213	0.000314	3.141804	1.064472	-0.000126
1460	1.4517e+02	-18.1310	-54.246993	0.000213	2.128319	0.721094	-0.000085
1461	1.4527e+02	-18.1679	-54.388293	0.000355	3.547198	1.201823	-0.000142
1462	1.4537e+02	-18.2096	-54.477110	0.000223	2.229667	0.755432	-0.000089
1463	1.4547e+02	-18.2546	-54.590149	0.000284	2.837758	0.961459	-0.000114
1464	1.4557e+02	-18.2850	-54.695115	0.000264	2.635061	0.892783	-0.000105
1465	1.4567e+02	-18.3300	-54.779895	0.000213	2.128319	0.721094	-0.000085
1466	1.4577e+02	-18.3588	-54.876786	0.000243	2.432364	0.824107	-0.000097
1467	1.4587e+02	-18.4038	-54.985789	0.000274	2.736410	0.927121	-0.000110
1468	1.4597e+02	-18.4487	-55.094791	0.000274	2.736410	0.927121	-0.000110
1469	1.4607e+02	-18.4904	-55.232054	0.000345	3.445850	1.167485	-0.000138
1470	1.4617e+02	-18.5225	-55.288574	0.000142	1.418879	0.480729	-0.000057
1471	1.4626e+02	-18.5674	-55.417762	0.000324	3.243153	1.098810	-0.000130
1472	1.4636e+02	-18.5931	-55.522728	0.000264	2.635061	0.892783	-0.000105
1473	1.4646e+02	-18.6428	-55.643842	0.000304	3.040456	1.030134	-0.000122
1474	1.4656e+02	-18.6877	-55.740733	0.000243	2.432364	0.824107	-0.000097
1475	1.4666e+02	-18.7150	-55.906256	0.000416	4.155289	1.407850	-0.000166
1476	1.4676e+02	-18.7583	-56.015258	0.000274	2.736410	0.927121	-0.000110
1477	1.4686e+02	-18.8048	-56.091964	0.000193	1.925622	0.652418	-0.000077
1478	1.4696e+02	-18.8433	-56.196929	0.000264	2.635061	0.892783	-0.000105
1479	1.4706e+02	-18.8834	-56.289784	0.000233	2.331016	0.789770	-0.000093
1480	1.4716e+02	-18.9235	-56.394749	0.000264	2.635061	0.892783	-0.000105
1481	1.4726e+02	-18.9652	-56.544123	0.000375	3.749895	1.270499	-0.000150
1482	1.4736e+02	-19.0021	-56.669274	0.000314	3.141804	1.064472	-0.000126
1483	1.4746e+02	-19.0422	-56.762128	0.000233	2.331016	0.789770	-0.000093
1484	1.4756e+02	-19.0840	-56.907465	0.000365	3.648547	1.236161	-0.000146
1485	1.4766e+02	-19.1209	-56.984171	0.000193	1.925622	0.652418	-0.000077
1486	1.4776e+02	-19.1626	-57.101248	0.000294	2.939107	0.995796	-0.000118
1487	1.4786e+02	-19.2059	-57.161805	0.000152	1.520228	0.515067	-0.000061
1488	1.4796e+02	-19.2444	-57.262733	0.000253	2.533713	0.858445	-0.000101
1489	1.4806e+02	-19.2797	-57.420182	0.000395	3.952592	1.339174	-0.000158
1490	1.4816e+02	-19.3166	-57.525147	0.000264	2.635061	0.892783	-0.000105
1491	1.4825e+02	-19.3535	-57.654335	0.000324	3.243153	1.098810	-0.000130
1492	1.4835e+02	-19.3984	-57.799672	0.000365	3.648547	1.236161	-0.000146
1493	1.4845e+02	-19.4353	-57.900601	0.000253	2.533713	0.858445	-0.000101
1494	1.4855e+02	-19.4770	-58.021715	0.000304	3.040456	1.030134	-0.000122
1495	1.4865e+02	-19.5187	-58.098420	0.000193	1.925622	0.652418	-0.000077
1496	1.4875e+02	-19.5652	-58.207423	0.000274	2.736410	0.927121	-0.000110
1497	1.4885e+02	-19.6037	-58.344686	0.000345	3.445850	1.167485	-0.000138
1498	1.4895e+02	-19.6422	-58.506171	0.000405	4.053941	1.373512	-0.000162
1499	1.4905e+02	-19.6775	-58.578840	0.000182	1.824273	0.618081	-0.000073
1500	1.4915e+02	-19.7096	-58.687842	0.000274	2.736410	0.927121	-0.000110
1501	1.4925e+02	-19.7625	-58.837216	0.000375	3.749895	1.270499	-0.000150
1502	1.4935e+02	-19.8059	-58.926033	0.000223	2.229667	0.755432	-0.000089
1503	1.4945e+02	-19.8428	-59.039073	0.000284	2.837758	0.961459	-0.000114
1504	1.4955e+02	-19.8732	-59.115779	0.000193	1.925622	0.652418	-0.000077
1505	1.4965e+02	-19.9214	-59.236893	0.000304	3.040456	1.030134	-0.000122
1506	1.4975e+02	-19.9615	-59.374155	0.000345	3.445850	1.167485	-0.000138
1507	1.4985e+02	-19.9984	-59.515455	0.000355	3.547198	1.201823	-0.000142
1508	1.4995e+02	-19.9486	-59.487195	0.000071	0.709440	0.240365	0.000028
1509	1.5005e+02	-19.9166	-59.450861	0.000091	0.912137	0.309040	0.000037
1510	1.5015e+02	-19.8668	-59.394341	0.000142	1.418879	0.480729	0.000057
1511	1.5025e+02	-19.8379	-59.353970	0.000101	1.013485	0.343378	0.000041
1512	1.5034e+02	-19.7946	-59.325710	0.000071	0.709440	0.240365	0.000028
1513	1.5044e+02	-19.7465	-59.253041	0.000182	1.824273	0.618081	0.000073
1514	1.5054e+02	-19.7192	-59.216707	0.000091	0.912137	0.309040	0.000037
1515	1.5064e+02	-19.6759	-59.160187	0.000142	1.418879	0.480729	0.000057
1516	1.5074e+02	-19.6486	-59.123853	0.000091	0.912137	0.309040	0.000037
1517	1.5084e+02	-19.6053	-59.079444	0.000111	1.114834	0.377716	0.000045
1518	1.5094e+02	-19.5556	-59.014850	0.000162	1.621576	0.549405	0.000065
1519	1.5104e+02	-19.5251	-58.950256	0.000162	1.621576	0.549405	0.000065
1520	1.5114e+02	-19.4802	-58.885662	0.000162	1.621576	0.549405	0.000065
1521	1.5124e+02	-19.4385	-58.808956	0.000193	1.925622	0.652418	0.000077
1522	1.5134e+02	-19.4048	-58.744362	0.000162	1.621576	0.549405	0.000065
1523	1.5144e+02	-19.3535	-58.720139	0.000061	0.608091	0.206027	0.000024
1524	1.5154e+02	-19.3085	-58.607100	0.000284	2.837758	0.961459	0.000114
1525	1.5164e+02	-19.2684	-58.639397	-0.000081	-0.810788	-0.274702	-0.000032
1526	1.5174e+02	-19.2364	-58.542505	0.000243	2.432364	0.824107	0.000097
1527	1.5184e+02	-19.1962	-58.494060	0.000122	1.216182	0.412054	0.000049
1528	1.5194e+02	-19.1610	-58.433503	0.000152	1.520228	0.515067	0.000061
1529	1.5204e+02	-19.1192	-58.344686	0.000223	2.229667	0.755432	0.000089
1530	1.5214e+02	-19.0840	-58.235683	0.000274	2.736410	0.927121	0.000110
1531	1.5224e+02	-19.0519	-58.199349	0.000091	0.912137	0.309040	0.000037
1532	1.5233e+02	-19.0086	-58.154940	0.000111	1.114834	0.377716	0.000045
1533	1.5243e+02	-18.9668	-58.118606	0.000091	0.912137	0.309040	0.000037
1534	1.5253e+02	-18.9251	-57.981343	0.000345	3.445850	1.167485	0.000138
1535	1.5263e+02	-18.8866	-57.957121	0.000061	0.608091	0.206027	0.000024
1536	1.5273e+02	-18.8369	-57.872341	0.000213	2.128319	0.721094	0.000085
1537	1.5283e+02	-18.8000	-57.767375	0.000264	2.635061	0.892783	0.000105
1538	1.5293e+02	-18.7599	-57.698744	0.000172	1.722925	0.583743	0.000069
1539	1.5303e+02	-18.7246	-57.634150	0.000162	1.621576	0.549405	0.000065
1540	1.5313e+02	-18.6733	-57.585704	0.000122	1.216182	0.412054	0.000049
1541	1.5323e+02	-18.6476	-57.541296	0.000111	1.114834	0.377716	0.000045
1542	1.5333e+02	-18.5979	-57.452479	0.000223	2.229667	0.755432	0.000089
1543	1.5343e+02	-18.5642	-57.395959	0.000142	1.418879	0.480729	0.000057
1544	1.5353e+02	-18.5177	-57.371736	0.000061	0.608091	0.206027	0.000024
1545	1.5363e+02	-18.4776	-57.242548	0.000324	3.243153	1.098810	0.000130
1546	1.5373e+02	-18.4503	-57.190065	0.000132	1.317531	0.446391	0.000053
1547	1.5383e+02	-18.4054	-57.149694	0.000101	1.013485	0.343378	0.000041
1548	1.5393e+02	-18.3588	-57.072988	0.000193	1.925622	0.652418	0.000077
1549	1.5403e+02	-18.3139	-56.976097	0.000243	2.432364	0.824107	0.000097
1550	1.5413e+02	-18.2818	-56.907465	0.000172	1.722925	0.583743	0.000069
1551	1.5422e+02	-18.2514	-56.863057	0.000111	1.114834	0.377716	0.000045
1552	1.5432e+02	-18.2080	-56.802500	0.000152	1.520228	0.515067	0.000061
1553	1.5442e+02	-18.1808	-56.697534	0.000264	2.635061	0.892783	0.000105
1554	1.5452e+02	-18.1310	-56.604680	0.000233	2.331016	0.789770	0.000093
1555	1.5462e+02	-18.0861	-56.507789	0.000243	2.432364	0.824107	0.000097
1556	1.5472e+02	-18.0444	-56.475492	0.000081	0.810788	0.274702	0.000032
1557	1.5482e+02	-18.0075	-56.463380	0.000030	0.304046	0.103013	0.000012
1558	1.5492e+02	-17.9626	-56.342266	0.000304	3.040456	1.030134	0.000122
1559	1.5502e+02	-17.9257	-56.253449	0.000223	2.229667	0.755432	0.000089
1560	1.5512e+02	-17.8872	-56.221152	0.000081	0.810788	0.274702	0.000032
1561	1.5522e+02	-17.8407	-56.096001	0.000314	3.141804	1.064472	0.000126
1562	1.5532e+02	-17.8102	-56.055630	0.000101	1.013485	0.343378	0.000041
1563	1.5542e+02	-17.7749	-55.970850	0.000213	2.128319	0.721094	0.000085
1564	1.5552e+02	-17.7252	-55.902219	0.000172	1.722925	0.583743	0.000069
1565	1.5562e+02	-17.6851	-55.805327	0.000243	2.432364	0.824107	0.000097
1566	1.5572e+02	-17.6530	-55.748807	0.000142	1.418879	0.480729	0.000057
1567	1.5582e+02	-17.6081	-55.696325	0.000132	1.317531	0.446391	0.000053
1568	1.5592e+02	-17.5744	-55.583285	0.000284	2.837758	0.961459	0.000114
1569	1.5602e+02	-17.5295	-55.583285	0.000000	0.000000	0.000000	0.000000
1570	1.5612e+02	-17.4910	-55.462171	0.000304	3.040456	1.030134	0.000122
1571	1.5622e+02	-17.4492	-55.341057	0.000304	3.040456	1.030134	0.000122
1572	1.5631e+02	-17.4011	-55.320871	0.000051	0.506743	0.171689	0.000020
1573	1.5641e+02	-17.3658	-55.207831	0.000284	2.837758	0.961459	0.000114
1574	1.5651e+02	-17.3225	-55.151311	0.000142	1.418879	0.480729	0.000057
1575	1.5661e+02	-17.2904	-55.042309	0.000274	2.736410	0.927121	0.000110
1576	1.5671e+02	-17.2503	-54.977714	0.000162	1.621576	0.549405	0.000065
1577	1.5681e+02	-17.2022	-54.905046	0.000182	1.824273	0.618081	0.000073
1578	1.5691e+02	-17.1781	-54.816229	0.000223	2.229667	0.755432	0.000089
1579	1.5701e+02	-17.1284	-54.779895	0.000091	0.912137	0.309040	0.000037
1580	1.5711e+02	-17.0931	-54.687041	0.000233	2.331016	0.789770	0.000093
1581	1.5721e+02	-17.0530	-54.602261	0.000213	2.128319	0.721094	0.000085
1582	1.5731e+02	-17.0129	-54.501332	0.000253	2.533713	0.858445	0.000101
1583	1.5741e+02	-16.9632	-54.456924	0.000111	1.114834	0.377716	0.000045
1584	1.5751e+02	-16.9343	-54.380218	0.000193	1.925622	0.652418	0.000077
1585	1.5761e+02	-16.8862	-54.263141	0.000294	2.939107	0.995796	0.000118
1586	1.5771e+02	-16.8509	-54.234882	0.000071	0.709440	0.240365	0.000028
1587	1.5781e+02	-16.8043	-54.166250	0.000172	1.722925	0.583743	0.000069
1588	1.5791e+02	-16.7771	-54.073396	0.000233	2.331016	0.789770	0.000093
1589	1.5801e+02	-16.7273	-53.992653	0.000203	2.026970	0.686756	0.000081
1590	1.5811e+02	-16.6904	-53.903836	0.000223	2.229667	0.755432	0.000089
1591	1.5821e+02	-16.6535	-53.835205	0.000172	1.722925	0.583743	0.000069
1592	1.5830e+02	-16.6182	-53.742351	0.000233	2.331016	0.789770	0.000093
1593	1.5840e+02	-16.5701	-53.665645	0.000193	1.925622	0.652418	0.000077
1594	1.5850e+02	-16.5316	-53.560680	0.000264	2.635061	0.892783	0.000105
1595	1.5860e+02	-16.4915	-53.471863	0.000223	2.229667	0.755432	0.000089
1596	1.5870e+02	-16.4530	-53.411306	0.000152	1.520228	0.515067	0.000061
1597	1.5880e+02	-16.4177	-53.314415	0.000243	2.432364	0.824107	0.000097
1598	1.5890e+02	-16.3712	-53.213486	0.000253	2.533713	0.858445	0.000101
1599	1.5900e+02	-16.3311	-53.136781	0.000193	1.925622	0.652418	0.000077
1600	1.5910e+02	-16.3006	-53.060075	0.000193	1.925622	0.652418	0.000077
1601	1.5920e+02	-16.2509	-53.035852	0.000061	0.608091	0.206027	0.000024
1602	1.5930e+02	-16.2124	-52.922812	0.000284	2.837758	0.961459	0.000114
1603	1.5940e+02	-16.1787	-52.854181	0.000172	1.722925	0.583743	0.000069
1604	1.5950e+02	-16.1257	-52.765364	0.000223	2.229667	0.755432	0.000089
1605	1.5960e+02	-16.0937	-52.692696	0.000182	1.824273	0.618081	0.000073
1606	1.5970e+02	-16.0536	-52.607916	0.000213	2.128319	0.721094	0.000085
1607	1.5980e+02	-16.0102	-52.482765	0.000314	3.141804	1.064472	0.000126
1608	1.5990e+02	-15.9653	-52.381836	0.000253	2.533713	0.858445	0.000101
1609	1.6000e+02	-15.9284	-52.321279	0.000152	1.520228	0.515067	0.000061
1610	1.6010e+02	-15.8979	-52.220351	0.000253	2.533713	0.858445	0.000101
1611	1.6019e+02	-15.8514	-52.151719	0.000172	1.722925	0.583743	0.000069
1612	1.6029e+02	-15.8242	-52.054828	0.000243	2.432364	0.824107	0.000097
1613	1.6039e+02	-15.7712	-51.966011	0.000223	2.229667	0.755432	0.000089
1614	1.6049e+02	-15.7359	-51.877194	0.000223	2.229667	0.755432	0.000089
1615	1.6059e+02	-15.6974	-51.780303	0.000243	2.432364	0.824107	0.000097
1616	1.6069e+02	-15.6573	-51.707635	0.000182	1.824273	0.618081	0.000073
1617	1.6079e+02	-15.6140	-51.643040	0.000162	1.621576	0.549405	0.000065
1618	1.6089e+02	-15.5771	-51.513852	0.000324	3.243153	1.098810	0.000130
1619	1.6099e+02	-15.5434	-51.477518	0.000091	0.912137	0.309040	0.000037
1620	1.6109e+02	-15.4969	-51.445221	0.000081	0.810788	0.274702	0.000032
1621	1.6119e+02	-15.4600	-51.316032	0.000324	3.243153	1.098810	0.000130
1622	1.6129e+02	-15.4167	-51.243364	0.000182	1.824273	0.618081	0.000073
1623	1.6139e+02	-15.3734	-51.158584	0.000213	2.128319	0.721094	0.000085
1624	1.6149e+02	-15.3317	-51.033433	0.000314	3.141804	1.064472	0.000126
1625	1.6159e+02	-15.2996	-50.980950	0.000132	1.317531	0.446391	0.000053
1626	1.6169e+02	-15.2498	-50.843687	0.000345	3.445850	1.167485	0.000138
1627	1.6179e+02	-15.2161	-50.771019	0.000182	1.824273	0.618081	0.000073
1628	1.6189e+02	-15.1841	-50.686239	0.000213	2.128319	0.721094	0.000085
1629	1.6199e+02	-15.1391	-50.597422	0.000223	2.229667	0.755432	0.000089
1630	1.6209e+02	-15.1039	-50.464197	0.000334	3.344501	1.133148	0.000134
1631	1.6219e+02	-15.0541	-50.423825	0.000101	1.013485	0.343378	0.000041
1632	1.6228e+02	-15.0204	-50.302711	0.000304	3.040456	1.030134	0.000122
1633	1.6238e+02	-14.9739	-50.201783	0.000253	2.533713	0.858445	0.000101
1634	1.6248e+02	-14.9547	-50.141226	0.000152	1.520228	0.515067	0.000061
1635	1.6258e+02	-14.8953	-49.991852	0.000375	3.749895	1.270499	0.000150
1636	1.6268e+02	-14.8568	-49.967629	0.000061	0.608091	0.206027	0.000024
1637	1.6278e+02	-14.8151	-49.874775	0.000233	2.331016	0.789770	0.000093
1638	1.6288e+02	-14.7782	-49.838441	0.000091	0.912137	0.309040	0.000037
1639	1.6298e+02	-14.7381	-49.729438	0.000274	2.736410	0.927121	0.000110
1640	1.6308e+02	-14.7060	-49.636584	0.000233	2.331016	0.789770	0.000093
1641	1.6318e+02	-14.6595	-49.495284	0.000355	3.547198	1.201823	0.000142
1642	1.6328e+02	-14.6194	-49.374170	0.000304	3.040456	1.030134	0.000122
1643	1.6338e+02	-14.5712	-49.281316	0.000233	2.331016	0.789770	0.000093
1644	1.6348e+02	-14.5376	-49.220759	0.000152	1.520228	0.515067	0.000061
1645	1.6358e+02	-14.4975	-49.131942	0.000223	2.229667	0.755432	0.000089
1646	1.6368e+02	-14.4654	-49.014865	0.000294	2.939107	0.995796	0.000118
1647	1.6378e+02	-14.4253	-48.869528	0.000365	3.648547	1.236161	0.000146
1648	1.6388e+02	-14.3900	-48.833194	0.000091	0.912137	0.309040	0.000037
1649	1.6398e+02	-14.3499	-48.720154	0.000284	2.837758	0.961459	0.000114
1650	1.6408e+02	-14.3017	-48.659597	0.000152	1.520228	0.515067	0.000061
1651	1.6418e+02	-14.2648	-48.546557	0.000284	2.837758	0.961459	0.000114
1652	1.6427e+02	-14.2295	-48.465815	0.000203	2.026970	0.686756	0.000081
1653	1.6437e+02	-14.1654	-48.437555	0.000071	0.709440	0.240365	0.000028
1654	1.6447e+02	-14.1461	-48.332589	0.000264	2.635061	0.892783	0.000105
1655	1.6457e+02	-14.0948	-48.215512	0.000294	2.939107	0.995796	0.000118
1656	1.6467e+02	-14.0691	-48.163029	0.000132	1.317531	0.446391	0.000053
1657	1.6477e+02	-14.0210	-48.001544	0.000405	4.053941	1.373512	0.000162
1658	1.6487e+02	-13.9793	-47.920801	0.000203	2.026970	0.686756	0.000081
1659	1.6497e+02	-13.9408	-47.844096	0.000193	1.925622	0.652418	0.000077
1660	1.6507e+02	-13.9087	-47.718944	0.000314	3.141804	1.064472	0.000126
1661	1.6517e+02	-13.8542	-47.658387	0.000152	1.520228	0.515067	0.000061
1662	1.6527e+02	-13.8205	-47.561496	0.000243	2.432364	0.824107	0.000097
1663	1.6537e+02	-13.7755	-47.444419	0.000294	2.939107	0.995796	0.000118
1664	1.6547e+02	-13.7338	-47.303119	0.000355	3.547198	1.201823	0.000142
1665	1.6557e+02	-13.7066	-47.238525	0.000162	1.621576	0.549405	0.000065
1666	1.6567e+02	-13.6697	-47.173931	0.000162	1.621576	0.549405	0.000065
1667	1.6577e+02	-13.6280	-47.044743	0.000324	3.243153	1.098810	0.000130
1668	1.6587e+02	-13.5830	-46.988223	0.000142	1.418879	0.480729	0.000057
1669	1.6597e+02	-13.5333	-46.915554	0.000182	1.824273	0.618081	0.000073
1670	1.6607e+02	-13.4964	-46.802515	0.000284	2.837758	0.961459	0.000114
1671	1.6616e+02	-13.4627	-46.733883	0.000172	1.722925	0.583743	0.000069
1672	1.6626e+02	-13.4226	-46.665252	0.000172	1.722925	0.583743	0.000069
1673	1.6636e+02	-13.3873	-46.560286	0.000264	2.635061	0.892783	0.000105
1674	1.6646e+02	-13.3408	-46.447247	0.000284	2.837758	0.961459	0.000114
1675	1.6656e+02	-13.3135	-46.338244	0.000274	2.736410	0.927121	0.000110
1676	1.6666e+02	-13.2622	-46.221167	0.000294	2.939107	0.995796	0.000118
1677	1.6676e+02	-13.2349	-46.120239	0.000253	2.533713	0.858445	0.000101
1678	1.6686e+02	-13.1852	-45.970865	0.000375	3.749895	1.270499	0.000150
1679	1.6696e+02	-13.1499	-45.918382	0.000132	1.317531	0.446391	0.000053
1680	1.6706e+02	-13.1082	-45.797268	0.000304	3.040456	1.030134	0.000122
1681	1.6716e+02	-13.0681	-45.756896	0.000101	1.013485	0.343378	0.000041
1682	1.6726e+02	-13.0167	-45.647894	0.000274	2.736410	0.927121	0.000110
1683	1.6736e+02	-12.9750	-45.559077	0.000223	2.229667	0.755432	0.000089
1684	1.6746e+02	-12.9413	-45.458148	0.000253	2.533713	0.858445	0.000101
1685	1.6756e+02	-12.9061	-45.369331	0.000223	2.229667	0.755432	0.000089
1686	1.6766e+02	-12.8627	-45.280514	0.000223	2.229667	0.755432	0.000089
1687	1.6776e+02	-12.8290	-45.183623	0.000243	2.432364	0.824107	0.000097
1688	1.6786e+02	-12.7889	-45.131140	0.000132	1.317531	0.446391	0.000053
1689	1.6796e+02	-12.7537	-45.058472	0.000182	1.824273	0.618081	0.000073
1690	1.6806e+02	-12.7087	-44.957544	0.000253	2.533713	0.858445	0.000101
1691	1.6816e+02	-12.6654	-44.872764	0.000213	2.128319	0.721094	0.000085
1692	1.6825e+02	-12.6189	-44.755687	0.000294	2.939107	0.995796	0.000118
1693	1.6835e+02	-12.6012	-44.658796	0.000243	2.432364	0.824107	0.000097
1694	1.6845e+02	-12.5563	-44.529607	0.000324	3.243153	1.098810	0.000130
1695	1.6855e+02	-12.5066	-44.456939	0.000182	1.824273	0.618081	0.000073
1696	1.6865e+02	-12.4713	-44.327750	0.000324	3.243153	1.098810	0.000130
1697	1.6875e+02	-12.4296	-44.206636	0.000304	3.040456	1.030134	0.000122
1698	1.6885e+02	-12.3927	-44.105708	0.000253	2.533713	0.858445	0.000101
1699	1.6895e+02	-12.3606	-44.008817	0.000243	2.432364	0.824107	0.000097
1700	1.6905e+02	-12.3173	-43.924037	0.000213	2.128319	0.721094	0.000085
1701	1.6915e+02	-12.2612	-43.847331	0.000193	1.925622	0.652418	0.000077
1702	1.6925e+02	-12.2339	-43.754477	0.000233	2.331016	0.789770	0.000093
1703	1.6935e+02	-12.1858	-43.665660	0.000223	2.229667	0.755432	0.000089
1704	1.6945e+02	-12.1537	-43.576843	0.000223	2.229667	0.755432	0.000089
1705	1.6955e+02	-12.1055	-43.483989	0.000233	2.331016	0.789770	0.000093
1706	1.6965e+02	-12.0702	-43.391135	0.000233	2.331016	0.789770	0.000093
1707	1.6975e+02	-12.0301	-43.326541	0.000162	1.621576	0.549405	0.000065
1708	1.6985e+02	-11.9836	-43.217538	0.000274	2.736410	0.927121	0.000110
1709	1.6995e+02	-11.9499	-43.120647	0.000243	2.432364	0.824107	0.000097
1710	1.7005e+02	-11.9034	-43.035867	0.000213	2.128319	0.721094	0.000085
1711	1.7015e+02	-11.8729	-42.910716	0.000314	3.141804	1.064472	0.000126
1712	1.7024e+02	-11.8200	-42.781527	0.000324	3.243153	1.098810	0.000130
1713	1.7034e+02	-11.7927	-42.688673	0.000233	2.331016	0.789770	0.000093
1714	1.7044e+02	-11.7510	-42.579671	0.000274	2.736410	0.927121	0.000110
1715	1.7054e+02	-11.7077	-42.482779	0.000243	2.432364	0.824107	0.000097
1716	1.7064e+02	-11.6708	-42.385888	0.000243	2.432364	0.824107	0.000097
1717	1.7074e+02	-11.6387	-42.321294	0.000162	1.621576	0.549405	0.000065
1718	1.7084e+02	-11.5842	-42.171920	0.000375	3.749895	1.270499	0.000150
1719	1.7094e+02	-11.5441	-42.127511	0.000111	1.114834	0.377716	0.000045
1720	1.7104e+02	-11.5072	-42.058880	0.000172	1.722925	0.583743	0.000069
1721	1.7114e+02	-11.4735	-41.978137	0.000203	2.026970	0.686756	0.000081
1722	1.7124e+02	-11.4302	-41.848949	0.000324	3.243153	1.098810	0.000130
1723	1.7134e+02	-11.3917	-41.776281	0.000182	1.824273	0.618081	0.000073
1724	1.7144e+02	-11.3516	-41.683426	0.000233	2.331016	0.789770	0.000093
1725	1.7154e+02	-11.3066	-41.578461	0.000264	2.635061	0.892783	0.000105
1726	1.7164e+02	-11.2649	-41.481570	0.000243	2.432364	0.824107	0.000097
1727	1.7174e+02	-11.2344	-41.380641	0.000253	2.533713	0.858445	0.000101
1728	1.7184e+02	-11.1927	-41.239342	0.000355	3.547198	1.201823	0.000142
1729	1.7194e+02	-11.1574	-41.150525	0.000223	2.229667	0.755432	0.000089
1730	1.7204e+02	-11.1205	-41.021336	0.000324	3.243153	1.098810	0.000130
1731	1.7213e+02	-11.0660	-40.936556	0.000213	2.128319	0.721094	0.000085
1732	1.7223e+02	-11.0403	-40.863888	0.000182	1.824273	0.618081	0.000073
1733	1.7233e+02	-10.9954	-40.726625	0.000345	3.445850	1.167485	0.000138
1734	1.7243e+02	-10.9457	-40.674143	0.000132	1.317531	0.446391	0.000053
1735	1.7253e+02	-10.9136	-40.540917	0.000334	3.344501	1.133148	0.000134
1736	1.7263e+02	-10.8719	-40.476323	0.000162	1.621576	0.549405	0.000065
1737	1.7273e+02	-10.8302	-40.407692	0.000172	1.722925	0.583743	0.000069
1738	1.7283e+02	-10.7965	-40.290615	0.000294	2.939107	0.995796	0.000118
1739	1.7293e+02	-10.7500	-40.193723	0.000243	2.432364	0.824107	0.000097
1740	1.7303e+02	-10.7163	-40.141241	0.000132	1.317531	0.446391	0.000053
1741	1.7313e+02	-10.6826	-39.995904	0.000365	3.648547	1.236161	0.000146
1742	1.7323e+02	-10.6329	-39.874790	0.000304	3.040456	1.030134	0.000122
1743	1.7333e+02	-10.5911	-39.777898	0.000243	2.432364	0.824107	0.000097
1744	1.7343e+02	-10.5494	-39.697156	0.000203	2.026970	0.686756	0.000081
1745	1.7353e+02	-10.5109	-39.567967	0.000324	3.243153	1.098810	0.000130
1746	1.7363e+02	-10.4805	-39.450890	0.000294	2.939107	0.995796	0.000118
1747	1.7373e+02	-10.4339	-39.309591	0.000355	3.547198	1.201823	0.000142
1748	1.7383e+02	-10.3954	-39.253071	0.000142	1.418879	0.480729	0.000057
1749	1.7393e+02	-10.3649	-39.152142	0.000253	2.533713	0.858445	0.000101
1750	1.7403e+02	-10.3152	-39.063325	0.000223	2.229667	0.755432	0.000089
1751	1.7413e+02	-10.2767	-38.930100	0.000334	3.344501	1.133148	0.000134
1752	1.7422e+02	-10.2414	-38.865506	0.000162	1.621576	0.549405	0.000065
1753	1.7432e+02	-10.1933	-38.776689	0.000223	2.229667	0.755432	0.000089
1754	1.7442e+02	-10.1548	-38.679798	0.000243	2.432364	0.824107	0.000097
1755	1.7452e+02	-10.1211	-38.586943	0.000233	2.331016	0.789770	0.000093
1756	1.7462e+02	-10.0730	-38.506201	0.000203	2.026970	0.686756	0.000081
1757	1.7472e+02	-10.0329	-38.393161	0.000284	2.837758	0.961459	0.000114
1758	1.7482e+02	-9.9928	-38.272047	0.000304	3.040456	1.030134	0.000122
1759	1.7492e+02	-9.9575	-38.191304	0.000203	2.026970	0.686756	0.000081
1760	1.7502e+02	-9.9270	-38.074227	0.000294	2.939107	0.995796	0.000118
1761	1.7512e+02	-9.8789	-37.932927	0.000355	3.547198	1.201823	0.000142
1762	1.7522e+02	-9.8243	-37.787591	0.000365	3.648547	1.236161	0.000146
1763	1.7532e+02	-9.7987	-37.714922	0.000182	1.824273	0.618081	0.000073
1764	1.7542e+02	-9.7569	-37.597845	0.000294	2.939107	0.995796	0.000118
1765	1.7552e+02	-9.7184	-37.513065	0.000213	2.128319	0.721094	0.000085
1766	1.7562e+02	-9.6671	-37.379840	0.000334	3.344501	1.133148	0.000134
1767	1.7572e+02	-9.6446	-37.258726	0.000304	3.040456	1.030134	0.000122
1768	1.7582e+02	-9.6061	-37.182020	0.000193	1.925622	0.652418	0.000077
1769	1.7592e+02	-9.5628	-37.089166	0.000233	2.331016	0.789770	0.000093
1770	1.7602e+02	-9.5195	-36.992275	0.000243	2.432364	0.824107	0.000097
1771	1.7612e+02	-9.4794	-36.943829	0.000122	1.216182	0.412054	0.000049
1772	1.7621e+02	-9.4473	-36.838864	0.000264	2.635061	0.892783	0.000105
1773	1.7631e+02	-9.4072	-36.697564	0.000355	3.547198	1.201823	0.000142
1774	1.7641e+02	-9.3543	-36.588561	0.000274	2.736410	0.927121	0.000110
1775	1.7651e+02	-9.3254	-36.507818	0.000203	2.026970	0.686756	0.000081
1776	1.7661e+02	-9.2773	-36.402853	0.000264	2.635061	0.892783	0.000105
1777	1.7671e+02	-9.2452	-36.297887	0.000264	2.635061	0.892783	0.000105
1778	1.7681e+02	-9.1971	-36.140439	0.000395	3.952592	1.339174	0.000158
1779	1.7691e+02	-9.1586	-36.027399	0.000284	2.837758	0.961459	0.000114
1780	1.7701e+02	-9.1185	-35.918397	0.000274	2.736410	0.927121	0.000110
1781	1.7711e+02	-9.0832	-35.813431	0.000264	2.635061	0.892783	0.000105
1782	1.7721e+02	-9.0463	-35.720577	0.000233	2.331016	0.789770	0.000093
1783	1.7731e+02	-8.9981	-35.546980	0.000436	4.357986	1.476526	0.000174
1784	1.7741e+02	-8.9693	-35.425866	0.000304	3.040456	1.030134	0.000122
1785	1.7751e+02	-8.9147	-35.373383	0.000132	1.317531	0.446391	0.000053
1786	1.7761e+02	-8.8778	-35.244195	0.000324	3.243153	1.098810	0.000130
1787	1.7771e+02	-8.8377	-35.139229	0.000264	2.635061	0.892783	0.000105
1788	1.7781e+02	-8.8024	-35.050412	0.000223	2.229667	0.755432	0.000089
1789	1.7791e+02	-8.7591	-34.945447	0.000264	2.635061	0.892783	0.000105
1790	1.7801e+02	-8.7158	-34.860667	0.000213	2.128319	0.721094	0.000085
1791	1.7810e+02	-8.6757	-34.735516	0.000314	3.141804	1.064472	0.000126
1792	1.7820e+02	-8.6484	-34.642662	0.000233	2.331016	0.789770	0.000093
1793	1.7830e+02	-8.5955	-34.521548	0.000304	3.040456	1.030134	0.000122
1794	1.7840e+02	-8.5554	-34.416582	0.000264	2.635061	0.892783	0.000105
1795	1.7850e+02	-8.5169	-34.263171	0.000385	3.851244	1.304837	0.000154
1796	1.7860e+02	-8.4848	-34.178391	0.000213	2.128319	0.721094	0.000085
1797	1.7870e+02	-8.4463	-34.029017	0.000375	3.749895	1.270499	0.000150
1798	1.7880e+02	-8.4014	-33.879643	0.000375	3.749895	1.270499	0.000150
1799	1.7890e+02	-8.3645	-33.774678	0.000264	2.635061	0.892783	0.000105
1800	1.7900e+02	-8.3308	-33.669712	0.000264	2.635061	0.892783	0.000105
1801	1.7910e+02	-8.2907	-33.556672	0.000284	2.837758	0.961459	0.000114
1802	1.7920e+02	-8.2474	-33.439595	0.000294	2.939107	0.995796	0.000118
1803	1.7930e+02	-8.2040	-33.310407	0.000324	3.243153	1.098810	0.000130
1804	1.7940e+02	-8.1704	-33.270036	0.000101	1.013485	0.343378	0.000041
1805	1.7950e+02	-8.1286	-33.120662	0.000375	3.749895	1.270499	0.000150
1806	1.7960e+02	-8.0950	-33.035882	0.000213	2.128319	0.721094	0.000085
1807	1.7970e+02	-8.0436	-32.874396	0.000405	4.053941	1.373512	0.000162
1808	1.7980e+02	-8.0083	-32.809802	0.000162	1.621576	0.549405	0.000065
1809	1.7990e+02	-7.9586	-32.684651	0.000314	3.141804	1.064472	0.000126
1810	1.8000e+02	-7.9233	-32.555463	0.000324	3.243153	1.098810	0.000130
1811	1.8009e+02	-7.8816	-32.426274	0.000324	3.243153	1.098810	0.000130
1812	1.8019e+02	-7.8495	-32.361680	0.000162	1.621576	0.549405	0.000065
1813	1.8029e+02	-7.8078	-32.196158	0.000416	4.155289	1.407850	0.000166
1814	1.8039e+02	-7.7629	-32.038709	0.000395	3.952592	1.339174	0.000158
1815	1.8049e+02	-7.7260	-31.953929	0.000213	2.128319	0.721094	0.000085
1816	1.8059e+02	-7.6923	-31.832815	0.000304	3.040456	1.030134	0.000122
1817	1.8069e+02	-7.6442	-31.707664	0.000314	3.141804	1.064472	0.000126
1818	1.8079e+02	-7.5993	-31.570401	0.000345	3.445850	1.167485	0.000138
1819	1.8089e+02	-7.5624	-31.465436	0.000264	2.635061	0.892783	0.000105
1820	1.8099e+02	-7.5271	-31.360470	0.000264	2.635061	0.892783	0.000105
1821	1.8109e+02	-7.4950	-31.283765	0.000193	1.925622	0.652418	0.000077
1822	1.8119e+02	-7.4388	-31.142465	0.000355	3.547198	1.201823	0.000142
1823	1.8129e+02	-7.4003	-31.041537	0.000253	2.533713	0.858445	0.000101
1824	1.8139e+02	-7.3666	-30.920423	0.000304	3.040456	1.030134	0.000122
1825	1.8149e+02	-7.3313	-30.795271	0.000314	3.141804	1.064472	0.000126
1826	1.8159e+02	-7.2832	-30.718566	0.000193	1.925622	0.652418	0.000077
1827	1.8169e+02	-7.2543	-30.532858	0.000466	4.662032	1.579539	0.000187
1828	1.8179e+02	-7.2142	-30.448078	0.000213	2.128319	0.721094	0.000085
1829	1.8189e+02	-7.1725	-30.266407	0.000456	4.560683	1.545201	0.000183
1830	1.8199e+02	-7.1292	-30.157404	0.000274	2.736410	0.927121	0.000110
1831	1.8209e+02	-7.0955	-30.084736	0.000182	1.824273	0.618081	0.000073
1832	1.8218e+02	-7.0538	-29.955547	0.000324	3.243153	1.098810	0.000130
1833	1.8228e+02	-7.0137	-29.798099	0.000395	3.952592	1.339174	0.000158
1834	1.8238e+02	-6.9736	-29.664873	0.000334	3.344501	1.133148	0.000134
1835	1.8248e+02	-6.9335	-29.592205	0.000182	1.824273	0.618081	0.000073
1836	1.8258e+02	-6.8790	-29.471091	0.000304	3.040456	1.030134	0.000122
1837	1.8268e+02	-6.8485	-29.406497	0.000162	1.621576	0.549405	0.000065
1838	1.8278e+02	-6.8052	-29.245011	0.000405	4.053941	1.373512	0.000162
1839	1.8288e+02	-6.7715	-29.127934	0.000294	2.939107	0.995796	0.000118
1840	1.8298e+02	-6.7201	-29.006820	0.000304	3.040456	1.030134	0.000122
1841	1.8308e+02	-6.6913	-28.889743	0.000294	2.939107	0.995796	0.000118
1842	1.8318e+02	-6.6560	-28.772666	0.000294	2.939107	0.995796	0.000118
1843	1.8328e+02	-6.6062	-28.655589	0.000294	2.939107	0.995796	0.000118
1844	1.8338e+02	-6.5758	-28.522364	0.000334	3.344501	1.133148	0.000134
1845	1.8348e+02	-6.5292	-28.405287	0.000294	2.939107	0.995796	0.000118
1846	1.8358e+02	-6.4987	-28.259950	0.000365	3.648547	1.236161	0.000146
1847	1.8368e+02	-6.4506	-28.159022	0.000253	2.533713	0.858445	0.000101
1848	1.8378e+02	-6.4185	-28.054056	0.000264	2.635061	0.892783	0.000105
1849	1.8388e+02	-6.3881	-27.920831	0.000334	3.344501	1.133148	0.000134
1850	1.8398e+02	-6.3399	-27.783568	0.000345	3.445850	1.167485	0.000138
1851	1.8407e+02	-6.2918	-27.666491	0.000294	2.939107	0.995796	0.000118
1852	1.8417e+02	-6.2533	-27.569600	0.000243	2.432364	0.824107	0.000097
1853	1.8427e+02	-6.2100	-27.460597	0.000274	2.736410	0.927121	0.000110
1854	1.8437e+02	-6.1747	-27.323335	0.000345	3.445850	1.167485	0.000138
1855	1.8447e+02	-6.1298	-27.230481	0.000233	2.331016	0.789770	0.000093
1856	1.8457e+02	-6.0945	-27.105329	0.000314	3.141804	1.064472	0.000126
1857	1.8467e+02	-6.0576	-27.012475	0.000233	2.331016	0.789770	0.000093
1858	1.8477e+02	-6.0127	-26.871175	0.000355	3.547198	1.201823	0.000142
1859	1.8487e+02	-5.9758	-26.754099	0.000294	2.939107	0.995796	0.000118
1860	1.8497e+02	-5.9341	-26.600687	0.000385	3.851244	1.304837	0.000154
1861	1.8507e+02	-5.9004	-26.467462	0.000334	3.344501	1.133148	0.000134
1862	1.8517e+02	-5.8619	-26.366534	0.000253	2.533713	0.858445	0.000101
1863	1.8527e+02	-5.8137	-26.265605	0.000253	2.533713	0.858445	0.000101
1864	1.8537e+02	-5.7801	-26.152565	0.000284	2.837758	0.961459	0.000114
1865	1.8547e+02	-5.7464	-25.978968	0.000436	4.357986	1.476526	0.000174
1866	1.8557e+02	-5.6982	-25.849780	0.000324	3.243153	1.098810	0.000130
1867	1.8567e+02	-5.6437	-25.704443	0.000365	3.648547	1.236161	0.000146
1868	1.8577e+02	-5.6148	-25.615626	0.000223	2.229667	0.755432	0.000089
1869	1.8587e+02	-5.5779	-25.522772	0.000233	2.331016	0.789770	0.000093
1870	1.8597e+02	-5.5362	-25.409732	0.000284	2.837758	0.961459	0.000114
1871	1.8606e+02	-5.4977	-25.268433	0.000355	3.547198	1.201823	0.000142
1872	1.8616e+02	-5.4608	-25.135207	0.000334	3.344501	1.133148	0.000134
1873	1.8626e+02	-5.4127	-25.038316	0.000243	2.432364	0.824107	0.000097
1874	1.8636e+02	-5.3790	-24.925276	0.000284	2.837758	0.961459	0.000114
1875	1.8646e+02	-5.3421	-24.788013	0.000345	3.445850	1.167485	0.000138
1876	1.8656e+02	-5.3020	-24.662862	0.000314	3.141804	1.064472	0.000126
1877	1.8666e+02	-5.2587	-24.545785	0.000294	2.939107	0.995796	0.000118
1878	1.8676e+02	-5.2138	-24.396411	0.000375	3.749895	1.270499	0.000150
1879	1.8686e+02	-5.1833	-24.263186	0.000334	3.344501	1.133148	0.000134
1880	1.8696e+02	-5.1368	-24.158220	0.000264	2.635061	0.892783	0.000105
1881	1.8706e+02	-5.0966	-24.020958	0.000345	3.445850	1.167485	0.000138
1882	1.8716e+02	-5.0533	-23.911955	0.000274	2.736410	0.927121	0.000110
1883	1.8726e+02	-5.0212	-23.798915	0.000284	2.837758	0.961459	0.000114
1884	1.8736e+02	-4.9747	-23.689913	0.000274	2.736410	0.927121	0.000110
1885	1.8746e+02	-4.9330	-23.504204	0.000466	4.662032	1.579539	0.000187
1886	1.8756e+02	-4.9025	-23.411350	0.000233	2.331016	0.789770	0.000093
1887	1.8766e+02	-4.8640	-23.270050	0.000355	3.547198	1.201823	0.000142
1888	1.8776e+02	-4.8143	-23.169122	0.000253	2.533713	0.858445	0.000101
1889	1.8786e+02	-4.7870	-23.023785	0.000365	3.648547	1.236161	0.000146
1890	1.8796e+02	-4.7389	-22.939005	0.000213	2.128319	0.721094	0.000085
1891	1.8806e+02	-4.7036	-22.809817	0.000324	3.243153	1.098810	0.000130
1892	1.8815e+02	-4.6667	-22.668517	0.000355	3.547198	1.201823	0.000142
1893	1.8825e+02	-4.6218	-22.543366	0.000314	3.141804	1.064472	0.000126
1894	1.8835e+02	-4.5817	-22.434363	0.000274	2.736410	0.927121	0.000110
1895	1.8845e+02	-4.5496	-22.293064	0.000355	3.547198	1.201823	0.000142
1896	1.8855e+02	-4.5015	-22.147727	0.000365	3.648547	1.236161	0.000146
1897	1.8865e+02	-4.4614	-22.054873	0.000233	2.331016	0.789770	0.000093
1898	1.8875e+02	-4.4165	-21.949907	0.000264	2.635061	0.892783	0.000105
1899	1.8885e+02	-4.3796	-21.844941	0.000264	2.635061	0.892783	0.000105
1900	1.8895e+02	-4.3443	-21.731902	0.000284	2.837758	0.961459	0.000114
1901	1.8905e+02	-4.3106	-21.602713	0.000324	3.243153	1.098810	0.000130
1902	1.8915e+02	-4.2673	-21.429116	0.000436	4.357986	1.476526	0.000174
1903	1.8925e+02	-4.2288	-21.263594	0.000416	4.155289	1.407850	0.000166
1904	1.8935e+02	-4.1870	-21.150554	0.000284	2.837758	0.961459	0.000114
1905	1.8945e+02	-4.1389	-21.013292	0.000345	3.445850	1.167485	0.000138
1906	1.8955e+02	-4.0972	-20.896215	0.000294	2.939107	0.995796	0.000118
1907	1.8965e+02	-4.0619	-20.762989	0.000334	3.344501	1.133148	0.000134
1908	1.8975e+02	-4.0298	-20.649949	0.000284	2.837758	0.961459	0.000114
1909	1.8985e+02	-3.9881	-20.500575	0.000375	3.749895	1.270499	0.000150
1910	1.8995e+02	-3.9400	-20.379461	0.000304	3.040456	1.030134	0.000122
1911	1.9004e+02	-3.9079	-20.234124	0.000365	3.648547	1.236161	0.000146
1912	1.9014e+02	-3.8518	-20.117047	0.000294	2.939107	0.995796	0.000118
1913	1.9024e+02	-3.8277	-19.999970	0.000294	2.939107	0.995796	0.000118
1914	1.9034e+02	-3.7812	-19.866745	0.000334	3.344501	1.133148	0.000134
1915	1.9044e+02	-3.7347	-19.701222	0.000416	4.155289	1.407850	0.000166
1916	1.9054e+02	-3.6962	-19.636628	0.000162	1.621576	0.549405	0.000065
1917	1.9064e+02	-3.6609	-19.531663	0.000264	2.635061	0.892783	0.000105
1918	1.9074e+02	-3.6240	-19.394400	0.000345	3.445850	1.167485	0.000138
1919	1.9084e+02	-3.5839	-19.216766	0.000446	4.459335	1.510864	0.000179
1920	1.9094e+02	-3.5389	-19.107763	0.000274	2.736410	0.927121	0.000110
1921	1.9104e+02	-3.5052	-18.938204	0.000426	4.256638	1.442188	0.000170
1922	1.9114e+02	-3.4603	-18.857461	0.000203	2.026970	0.686756	0.000081
1923	1.9124e+02	-3.4170	-18.700013	0.000395	3.952592	1.339174	0.000158
1924	1.9134e+02	-3.3849	-18.522379	0.000446	4.459335	1.510864	0.000179
1925	1.9144e+02	-3.3416	-18.405302	0.000294	2.939107	0.995796	0.000118
1926	1.9154e+02	-3.3176	-18.312448	0.000233	2.331016	0.789770	0.000093
1927	1.9164e+02	-3.2694	-18.150962	0.000405	4.053941	1.373512	0.000162
1928	1.9174e+02	-3.2309	-18.033885	0.000294	2.939107	0.995796	0.000118
1929	1.9184e+02	-3.1988	-17.916808	0.000294	2.939107	0.995796	0.000118
1930	1.9194e+02	-3.1459	-17.743212	0.000436	4.357986	1.476526	0.000174
1931	1.9203e+02	-3.1170	-17.609986	0.000334	3.344501	1.133148	0.000134
1932	1.9213e+02	-3.0689	-17.505021	0.000264	2.635061	0.892783	0.000105
1933	1.9223e+02	-3.0288	-17.452538	0.000132	1.317531	0.446391	0.000053
1934	1.9233e+02	-2.9791	-17.299127	0.000385	3.851244	1.304837	0.000154
1935	1.9243e+02	-2.9518	-17.133604	0.000416	4.155289	1.407850	0.000166
1936	1.9253e+02	-2.9085	-16.984230	0.000375	3.749895	1.270499	0.000150
1937	1.9263e+02	-2.8668	-16.798522	0.000466	4.662032	1.579539	0.000187
1938	1.9273e+02	-2.8299	-16.669333	0.000324	3.243153	1.098810	0.000130
1939	1.9283e+02	-2.7882	-16.548219	0.000304	3.040456	1.030134	0.000122
1940	1.9293e+02	-2.7513	-16.398845	0.000375	3.749895	1.270499	0.000150
1941	1.9303e+02	-2.7112	-16.249471	0.000375	3.749895	1.270499	0.000150
1942	1.9313e+02	-2.6694	-16.087986	0.000405	4.053941	1.373512	0.000162
1943	1.9323e+02	-2.6358	-15.950723	0.000345	3.445850	1.167485	0.000138
1944	1.9333e+02	-2.5940	-15.829609	0.000304	3.040456	1.030134	0.000122
1945	1.9343e+02	-2.5443	-15.684272	0.000365	3.648547	1.236161	0.000146
1946	1.9353e+02	-2.5074	-15.567195	0.000294	2.939107	0.995796	0.000118
1947	1.9363e+02	-2.4673	-15.433970	0.000334	3.344501	1.133148	0.000134
1948	1.9373e+02	-2.4320	-15.304782	0.000324	3.243153	1.098810	0.000130
1949	1.9383e+02	-2.3871	-15.159445	0.000365	3.648547	1.236161	0.000146
1950	1.9393e+02	-2.3390	-15.038331	0.000304	3.040456	1.030134	0.000122
1951	1.9403e+02	-2.3101	-14.901068	0.000345	3.445850	1.167485	0.000138
1952	1.9412e+02	-2.2684	-14.723434	0.000446	4.459335	1.510864	0.000179
1953	1.9422e+02	-2.2331	-14.590209	0.000334	3.344501	1.133148	0.000134
1954	1.9432e+02	-2.1930	-14.469094	0.000304	3.040456	1.030134	0.000122
1955	1.9442e+02	-2.1433	-14.307609	0.000405	4.053941	1.373512	0.000162
1956	1.9452e+02	-2.1176	-14.154198	0.000385	3.851244	1.304837	0.000154
1957	1.9462e+02	-2.0823	-13.996750	0.000395	3.952592	1.339174	0.000158
1958	1.9472e+02	-2.0326	-13.871598	0.000314	3.141804	1.064472	0.000126
1959	1.9482e+02	-1.9941	-13.722224	0.000375	3.749895	1.270499	0.000150
1960	1.9492e+02	-1.9507	-13.588999	0.000334	3.344501	1.133148	0.000134
1961	1.9502e+02	-1.9074	-13.403291	0.000466	4.662032	1.579539	0.000187
1962	1.9512e+02	-1.8753	-13.318511	0.000213	2.128319	0.721094	0.000085
1963	1.9522e+02	-1.8304	-13.140877	0.000446	4.459335	1.510864	0.000179
1964	1.9532e+02	-1.7855	-13.003614	0.000345	3.445850	1.167485	0.000138
1965	1.9542e+02	-1.7534	-12.914797	0.000223	2.229667	0.755432	0.000089
1966	1.9552e+02	-1.7165	-12.765423	0.000375	3.749895	1.270499	0.000150
1967	1.9562e+02	-1.6748	-12.644309	0.000304	3.040456	1.030134	0.000122
1968	1.9572e+02	-1.6363	-12.490898	0.000385	3.851244	1.304837	0.000154
1969	1.9582e+02	-1.5834	-12.353635	0.000345	3.445850	1.167485	0.000138
1970	1.9592e+02	-1.5545	-12.200224	0.000385	3.851244	1.304837	0.000154
1971	1.9601e+02	-1.5096	-12.014516	0.000466	4.662032	1.579539	0.000187
1972	1.9611e+02	-1.4727	-11.857068	0.000395	3.952592	1.339174	0.000158
1973	1.9621e+02	-1.4294	-11.703657	0.000385	3.851244	1.304837	0.000154
1974	1.9631e+02	-1.3909	-11.574468	0.000324	3.243153	1.098810	0.000130
1975	1.9641e+02	-1.3524	-11.425094	0.000375	3.749895	1.270499	0.000150
1976	1.9651e+02	-1.3107	-11.271683	0.000385	3.851244	1.304837	0.000154
1977	1.9661e+02	-1.2689	-11.118272	0.000385	3.851244	1.304837	0.000154
1978	1.9671e+02	-1.2288	-10.960824	0.000395	3.952592	1.339174	0.000158
1979	1.9681e+02	-1.2016	-10.839709	0.000304	3.040456	1.030134	0.000122
1980	1.9691e+02	-1.1486	-10.698410	0.000355	3.547198	1.201823	0.000142
1981	1.9701e+02	-1.1230	-10.524813	0.000436	4.357986	1.476526	0.000174
1982	1.9711e+02	-1.0780	-10.423884	0.000253	2.533713	0.858445	0.000101
1983	1.9721e+02	-1.0379	-10.246251	0.000446	4.459335	1.510864	0.000179
1984	1.9731e+02	-0.9898	-10.137248	0.000274	2.736410	0.927121	0.000110
1985	1.9741e+02	-0.9577	-10.008059	0.000324	3.243153	1.098810	0.000130
1986	1.9751e+02	-0.9096	-9.862723	0.000365	3.648547	1.236161	0.000146
1987	1.9761e+02	-0.8663	-9.717386	0.000365	3.648547	1.236161	0.000146
1988	1.9771e+02	-0.8390	-9.535715	0.000456	4.560683	1.545201	0.000183
1989	1.9781e+02	-0.7893	-9.402489	0.000334	3.344501	1.133148	0.000134
1990	1.9791e+02	-0.7492	-9.241004	0.000405	4.053941	1.373512	0.000162
1991	1.9800e+02	-0.7139	-9.063370	0.000446	4.459335	1.510864	0.000179
1992	1.9810e+02	-0.6834	-8.922070	0.000355	3.547198	1.201823	0.000142
1993	1.9820e+02	-0.6401	-8.804993	0.000294	2.939107	0.995796	0.000118
1994	1.9830e+02	-0.5984	-8.586988	0.000547	5.472820	1.854242	0.000219
1995	1.9840e+02	-0.5486	-8.490096	0.000243	2.432364	0.824107	0.000097
1996	1.9850e+02	-0.5198	-8.324574	0.000416	4.155289	1.407850	0.000166
1997	1.9860e+02	-0.4749	-8.163088	0.000405	4.053941	1.373512	0.000162
1998	1.9870e+02	-0.4476	-8.025826	0.000345	3.445850	1.167485	0.000138
1999	1.9880e+02	-0.3898	-7.860303	0.000416	4.155289	1.407850	0.000166
2000	1.9890e+02	-0.3577	-7.739189	0.000304	3.040456	1.030134	0.000122
2001	1.9900e+02	-0.3080	-7.614038	0.000314	3.141804	1.064472	0.000126
2002	1.9910e+02	-0.2727	-7.496961	0.000294	2.939107	0.995796	0.000118
2003	1.9920e+02	-0.2326	-7.331439	0.000416	4.155289	1.407850	0.000166
2004	1.9930e+02	-0.1957	-7.173990	0.000395	3.952592	1.339174	0.000158
2005	1.9940e+02	-0.1604	-6.976171	0.000497	4.966077	1.682553	0.000199
2006	1.9950e+02	-0.1043	-6.879279	0.000243	2.432364	0.824107	0.000097
2007	1.9960e+02	-0.0706	-6.685497	0.000486	4.864729	1.648215	0.000195
2008	1.9970e+02	-0.0385	-6.519974	0.000416	4.155289	1.407850	0.000166
2009	1.9980e+02	0.0032	-6.362526	0.000416	4.155289	1.407850	0.000158

Center data before PMax,+/-Pr and +/-Vc Calc.

PMax (uC/cm2):	5.95e+01
Pr (uC/cm2):	1.41e+00
-Pr (uC/cm2):	-6.36e+00
PLoss (uC/cm2):	-4.33e+00
Vc:	6.11e-01
-Vc:	-3.74e-01
C (Max-Eff) (nF):	2.98e-01
K (Eff):	1.01e+03
Vert. (+/-Pr) Shift (uC/cm2):	-2.48e+00
Horiz. Shift (+/-Vc):	1.18e-01
Offset (uC/cm2):	2.04e+00

A (Loop Area - uC/cm2·Volts):	6.96e-02



Hysteresis Version: 5.48.1 - Radiant Technologies, Inc., 1999 - 9/12/24

