»»»»»»»»»»»»»»»»»»»»»»»»»»»»»»»»»»»» Hysteresis ««««««««««««««««««««««««««««««««««««
»»»  Executed Version:	5.48.1
»»»  Vision Version:	5.48.4 (R)
»»»  Vision Compiled:	9/18/24
»»»  Driver Version:	5.47.0
»»»  Windows Version:	Windows 8 or 8.1
»»»  Processor Information:	x86 (AMD or Intel) - 32 Processors
»»»  Tester Name:	PMF21124-494 (100V)
»»»  Tester S/N:	PMF21124-494
»»»  Internal Amp Type:	100V RevK 270k
»»»  Internal Amp S/N:	iAB2-596/K     
»»»  Execution Count:	1
»»»»»»»»»»»»»»»»»»»»»»»»»»»»»»»»»»»»»»»»»»««««««««««««««««««««««««««««««««««««««««««

Stored:	6/13/2025 - 15:57:14
Configured:	06/13/25 01:30:53 PM
Executed:	06/13/25 03:56:44 PM

»»»»»»»»»»»»»»»»»»»»»»»»»»»»»»»»»»» Sample Info ««««««««««««««««««««««««««««««««««««
Sample Name:	
Lot Name:	
Wafer Name:	
Die Row/Column:	0/0
Capacitor Number:	0
Sample Area (cm2):	1.00e-04
Sample Thickness (microns):	3.00e-01

Amplifier:	Internal

»»»»»»»»»»»»»»»»»»»»»»»»»»»»»»»»»»» Tester Info «««««««««««««««««««««««««««««««««««
Tester Name:	PMF21124-494 (100V)
Tester Serial Number:	PMF21124-494
Return Signal Amp. Level:	0.19 [Index: 3]

»»»»»»»»»»»»»»»»»»»»»»»»»»»»»»»» Hysteresis Info ««««««««««««««««««««««««««««««««««
Task Name:	Hyst-1922
Volts:	20.00
Field:	666.67 (kV/cm)
DCBias:	0.00
DCField:	0.00 (kV/cm)
Hysteresis Period (ms):	2.00e+02
Preset:	Enabled
Preset Delay (ms):	1.00e+03
Profile:	Standard Bipolar

»»»»»»»»»»»»»»»»»»»»»»»»»»»»»»»»»»»»»» Data «««««««««««««««««««««««««««««««««««««««
Points:	2009

Valid Data

Point	Time (ms)	Drive Voltage	Measured Polarization (uC/cm2)	Capacitance (uF)	Normalized Capacitance (uF/cm2)	Dielectric Constant	Instantaneous Current (mA)
   1	0.0000e+00	0.0032	-2.934998	0.000335	3.345977	1.133648	0.000134
   2	9.9500e-02	0.0321	-2.801772	0.000335	3.345977	1.133648	0.000134
   3	1.9900e-01	0.0834	-2.636250	0.000416	4.157123	1.408472	0.000166
   4	2.9850e-01	0.1059	-2.498987	0.000345	3.447371	1.168001	0.000138
   5	3.9800e-01	0.1556	-2.361724	0.000345	3.447371	1.168001	0.000138
   6	4.9750e-01	0.1941	-2.167942	0.000487	4.866876	1.648942	0.000195
   7	5.9700e-01	0.2390	-2.034716	0.000335	3.345977	1.133648	0.000134
   8	6.9650e-01	0.2759	-1.816711	0.000548	5.475236	1.855060	0.000219
   9	7.9600e-01	0.3096	-1.594669	0.000558	5.576629	1.889413	0.000223
  10	8.9550e-01	0.3593	-1.493740	0.000253	2.534831	0.858824	0.000101
  11	9.9500e-01	0.3930	-1.287846	0.000517	5.171056	1.752001	0.000207
  12	1.0945e+00	0.4412	-1.110212	0.000446	4.461303	1.511530	0.000179
  13	1.1940e+00	0.4732	-0.952764	0.000395	3.954337	1.339766	0.000158
  14	1.2935e+00	0.5166	-0.758982	0.000487	4.866876	1.648942	0.000195
  15	1.3930e+00	0.5535	-0.581348	0.000446	4.461303	1.511530	0.000179
  16	1.4925e+00	0.5952	-0.407751	0.000436	4.359910	1.477177	0.000174
  17	1.5920e+00	0.6353	-0.242228	0.000416	4.157123	1.408472	0.000166
  18	1.6915e+00	0.6690	-0.092854	0.000375	3.751550	1.271060	0.000150
  19	1.7910e+00	0.7059	0.088817	0.000456	4.562696	1.545883	0.000183
  20	1.8905e+00	0.7492	0.270488	0.000456	4.562696	1.545883	0.000183
  21	1.9900e+00	0.7909	0.379491	0.000274	2.737618	0.927530	0.000110
  22	2.0895e+00	0.8390	0.553088	0.000436	4.359910	1.477177	0.000174
  23	2.1890e+00	0.8711	0.702462	0.000375	3.751550	1.271060	0.000150
  24	2.2885e+00	0.9160	0.872021	0.000426	4.258517	1.442825	0.000170
  25	2.3880e+00	0.9625	1.065804	0.000487	4.866876	1.648942	0.000195
  26	2.4875e+00	0.9882	1.223252	0.000395	3.954337	1.339766	0.000158
  27	2.5870e+00	1.0347	1.449332	0.000568	5.678022	1.923766	0.000227
  28	2.6865e+00	1.0620	1.586594	0.000345	3.447371	1.168001	0.000138
  29	2.7860e+00	1.1101	1.788451	0.000507	5.069663	1.717648	0.000203
  30	2.8855e+00	1.1550	1.945899	0.000395	3.954337	1.339766	0.000158
  31	2.9850e+00	1.1903	2.147756	0.000507	5.069663	1.717648	0.000203
  32	3.0845e+00	1.2304	2.317316	0.000426	4.258517	1.442825	0.000170
  33	3.1840e+00	1.2754	2.486876	0.000426	4.258517	1.442825	0.000170
  34	3.2835e+00	1.3123	2.660472	0.000436	4.359910	1.477177	0.000174
  35	3.3830e+00	1.3492	2.854255	0.000487	4.866876	1.648942	0.000195
  36	3.4825e+00	1.3909	3.052075	0.000497	4.968270	1.683295	0.000199
  37	3.5820e+00	1.4294	3.181263	0.000324	3.244584	1.099295	0.000130
  38	3.6815e+00	1.4711	3.298340	0.000294	2.940404	0.996236	0.000118
  39	3.7810e+00	1.5096	3.520382	0.000558	5.576629	1.889413	0.000223
  40	3.8805e+00	1.5449	3.657645	0.000345	3.447371	1.168001	0.000138
  41	3.9800e+00	1.5850	3.835279	0.000446	4.461303	1.511530	0.000179
  42	4.0795e+00	1.6331	3.992727	0.000395	3.954337	1.339766	0.000158
  43	4.1790e+00	1.6700	4.170361	0.000446	4.461303	1.511530	0.000179
  44	4.2785e+00	1.7133	4.319735	0.000375	3.751550	1.271060	0.000150
  45	4.3780e+00	1.7470	4.566001	0.000618	6.184989	2.095531	0.000248
  46	4.4775e+00	1.7935	4.711337	0.000365	3.650157	1.236707	0.000146
  47	4.5770e+00	1.8256	4.897046	0.000466	4.664090	1.580236	0.000187
  48	4.6765e+00	1.8625	5.078717	0.000456	4.562696	1.545883	0.000183
  49	4.7760e+00	1.9122	5.292685	0.000537	5.373843	1.820707	0.000215
  50	4.8755e+00	1.9411	5.433985	0.000355	3.548764	1.202354	0.000142
  51	4.9750e+00	1.9892	5.623730	0.000477	4.765483	1.614589	0.000191
  52	5.0745e+00	2.0294	5.781178	0.000395	3.954337	1.339766	0.000158
  53	5.1740e+00	2.0695	5.962849	0.000456	4.562696	1.545883	0.000183
  54	5.2735e+00	2.1015	6.128372	0.000416	4.157123	1.408472	0.000166
  55	5.3730e+00	2.1368	6.326192	0.000497	4.968270	1.683295	0.000199
  56	5.4725e+00	2.1866	6.471529	0.000365	3.650157	1.236707	0.000146
  57	5.5720e+00	2.2267	6.641088	0.000426	4.258517	1.442825	0.000170
  58	5.6715e+00	2.2700	6.818722	0.000446	4.461303	1.511530	0.000179
  59	5.7710e+00	2.3037	6.943873	0.000314	3.143191	1.064942	0.000126
  60	5.8705e+00	2.3470	7.109396	0.000416	4.157123	1.408472	0.000166
  61	5.9700e+00	2.3823	7.303179	0.000487	4.866876	1.648942	0.000195
  62	6.0695e+00	2.4288	7.448515	0.000365	3.650157	1.236707	0.000146
  63	6.1690e+00	2.4625	7.638261	0.000477	4.765483	1.614589	0.000191
  64	6.2685e+00	2.5074	7.836080	0.000497	4.968270	1.683295	0.000199
  65	6.3680e+00	2.5443	8.017752	0.000456	4.562696	1.545883	0.000183
  66	6.4675e+00	2.5860	8.203460	0.000466	4.664090	1.580236	0.000187
  67	6.5670e+00	2.6277	8.401279	0.000497	4.968270	1.683295	0.000199
  68	6.6665e+00	2.6646	8.558728	0.000395	3.954337	1.339766	0.000158
  69	6.7660e+00	2.7047	8.720213	0.000406	4.055730	1.374119	0.000162
  70	6.8655e+00	2.7336	8.893810	0.000436	4.359910	1.477177	0.000174
  71	6.9650e+00	2.7866	9.055295	0.000406	4.055730	1.374119	0.000162
  72	7.0645e+00	2.8202	9.220818	0.000416	4.157123	1.408472	0.000166
  73	7.1640e+00	2.8507	9.434786	0.000537	5.373843	1.820707	0.000215
  74	7.2635e+00	2.9037	9.604346	0.000426	4.258517	1.442825	0.000170
  75	7.3630e+00	2.9470	9.733534	0.000324	3.244584	1.099295	0.000130
  76	7.4625e+00	2.9855	9.882908	0.000375	3.751550	1.271060	0.000150
  77	7.5620e+00	3.0288	10.052468	0.000426	4.258517	1.442825	0.000170
  78	7.6615e+00	3.0689	10.230102	0.000446	4.461303	1.511530	0.000179
  79	7.7610e+00	3.1074	10.415810	0.000466	4.664090	1.580236	0.000187
  80	7.8605e+00	3.1411	10.569221	0.000385	3.852944	1.305413	0.000154
  81	7.9600e+00	3.1860	10.799338	0.000578	5.779416	1.958119	0.000231
  82	8.0595e+00	3.2197	10.976972	0.000446	4.461303	1.511530	0.000179
  83	8.1590e+00	3.2694	11.118272	0.000355	3.548764	1.202354	0.000142
  84	8.2585e+00	3.3143	11.295906	0.000446	4.461303	1.511530	0.000179
  85	8.3580e+00	3.3448	11.513911	0.000548	5.475236	1.855060	0.000219
  86	8.4575e+00	3.3897	11.635025	0.000304	3.041798	1.030589	0.000122
  87	8.5570e+00	3.4154	11.836882	0.000507	5.069663	1.717648	0.000203
  88	8.6565e+00	3.4651	12.010479	0.000436	4.359910	1.477177	0.000174
  89	8.7560e+00	3.4988	12.167927	0.000395	3.954337	1.339766	0.000158
  90	8.8555e+00	3.5405	12.357672	0.000477	4.765483	1.614589	0.000191
  91	8.9550e+00	3.5758	12.531269	0.000436	4.359910	1.477177	0.000174
  92	9.0545e+00	3.6191	12.676606	0.000365	3.650157	1.236707	0.000146
  93	9.1540e+00	3.6673	12.854240	0.000446	4.461303	1.511530	0.000179
  94	9.2535e+00	3.7042	12.991503	0.000345	3.447371	1.168001	0.000138
  95	9.3530e+00	3.7443	13.140877	0.000375	3.751550	1.271060	0.000150
  96	9.4525e+00	3.7876	13.306399	0.000416	4.157123	1.408472	0.000166
  97	9.5520e+00	3.8309	13.475959	0.000426	4.258517	1.442825	0.000170
  98	9.6515e+00	3.8662	13.645519	0.000426	4.258517	1.442825	0.000170
  99	9.7510e+00	3.8999	13.851413	0.000517	5.171056	1.752001	0.000207
 100	9.8505e+00	3.9336	14.037121	0.000466	4.664090	1.580236	0.000187
 101	9.9500e+00	3.9785	14.234941	0.000497	4.968270	1.683295	0.000199
 102	1.0050e+01	4.0218	14.376240	0.000355	3.548764	1.202354	0.000142
 103	1.0149e+01	4.0667	14.545800	0.000426	4.258517	1.442825	0.000170
 104	1.0248e+01	4.0924	14.735545	0.000477	4.765483	1.614589	0.000191
 105	1.0348e+01	4.1357	14.925291	0.000477	4.765483	1.614589	0.000191
 106	1.0447e+01	4.1774	15.078702	0.000385	3.852944	1.305413	0.000154
 107	1.0547e+01	4.2191	15.240187	0.000406	4.055730	1.374119	0.000162
 108	1.0646e+01	4.2544	15.393599	0.000385	3.852944	1.305413	0.000154
 109	1.0746e+01	4.3026	15.587381	0.000487	4.866876	1.648942	0.000195
 110	1.0845e+01	4.3378	15.712532	0.000314	3.143191	1.064942	0.000126
 111	1.0945e+01	4.3876	15.938612	0.000568	5.678022	1.923766	0.000227
 112	1.1044e+01	4.4181	16.063763	0.000314	3.143191	1.064942	0.000126
 113	1.1144e+01	4.4630	16.225249	0.000406	4.055730	1.374119	0.000162
 114	1.1243e+01	4.4999	16.382697	0.000395	3.954337	1.339766	0.000158
 115	1.1343e+01	4.5480	16.532071	0.000375	3.751550	1.271060	0.000150
 116	1.1443e+01	4.5737	16.705668	0.000436	4.359910	1.477177	0.000174
 117	1.1542e+01	4.6202	16.887339	0.000456	4.562696	1.545883	0.000183
 118	1.1642e+01	4.6603	17.105344	0.000548	5.475236	1.855060	0.000219
 119	1.1741e+01	4.6892	17.303164	0.000497	4.968270	1.683295	0.000199
 120	1.1841e+01	4.7389	17.448501	0.000365	3.650157	1.236707	0.000146
 121	1.1940e+01	4.7774	17.642283	0.000487	4.866876	1.648942	0.000195
 122	1.2040e+01	4.8079	17.787620	0.000365	3.650157	1.236707	0.000146
 123	1.2139e+01	4.8608	17.924883	0.000345	3.447371	1.168001	0.000138
 124	1.2239e+01	4.8961	18.102517	0.000446	4.461303	1.511530	0.000179
 125	1.2338e+01	4.9362	18.272076	0.000426	4.258517	1.442825	0.000170
 126	1.2438e+01	4.9715	18.465859	0.000487	4.866876	1.648942	0.000195
 127	1.2537e+01	5.0164	18.623307	0.000395	3.954337	1.339766	0.000158
 128	1.2636e+01	5.0549	18.780755	0.000395	3.954337	1.339766	0.000158
 129	1.2736e+01	5.0950	18.926092	0.000365	3.650157	1.236707	0.000146
 130	1.2835e+01	5.1464	19.103726	0.000446	4.461303	1.511530	0.000179
 131	1.2935e+01	5.1801	19.200618	0.000243	2.433438	0.824471	0.000097
 132	1.3034e+01	5.2138	19.366140	0.000416	4.157123	1.408472	0.000166
 133	1.3134e+01	5.2490	19.539737	0.000436	4.359910	1.477177	0.000174
 134	1.3233e+01	5.2988	19.705260	0.000416	4.157123	1.408472	0.000166
 135	1.3333e+01	5.3373	19.882894	0.000446	4.461303	1.511530	0.000179
 136	1.3432e+01	5.3726	20.052453	0.000426	4.258517	1.442825	0.000170
 137	1.3532e+01	5.4063	20.270459	0.000548	5.475236	1.855060	0.000219
 138	1.3632e+01	5.4576	20.391573	0.000304	3.041798	1.030589	0.000122
 139	1.3731e+01	5.4865	20.565169	0.000436	4.359910	1.477177	0.000174
 140	1.3831e+01	5.5346	20.758952	0.000487	4.866876	1.648942	0.000195
 141	1.3930e+01	5.5747	20.928512	0.000426	4.258517	1.442825	0.000170
 142	1.4030e+01	5.6116	21.049626	0.000304	3.041798	1.030589	0.000122
 143	1.4129e+01	5.6501	21.271668	0.000558	5.576629	1.889413	0.000223
 144	1.4229e+01	5.6918	21.396819	0.000314	3.143191	1.064942	0.000126
 145	1.4328e+01	5.7287	21.582528	0.000466	4.664090	1.580236	0.000187
 146	1.4428e+01	5.7768	21.731902	0.000375	3.751550	1.271060	0.000150
 147	1.4527e+01	5.8073	21.901461	0.000426	4.258517	1.442825	0.000170
 148	1.4627e+01	5.8554	22.054873	0.000385	3.852944	1.305413	0.000154
 149	1.4726e+01	5.8972	22.196172	0.000355	3.548764	1.202354	0.000142
 150	1.4825e+01	5.9325	22.345546	0.000375	3.751550	1.271060	0.000150
 151	1.4925e+01	5.9710	22.502995	0.000395	3.954337	1.339766	0.000158
 152	1.5024e+01	6.0111	22.676591	0.000436	4.359910	1.477177	0.000174
 153	1.5124e+01	6.0576	22.854225	0.000446	4.461303	1.511530	0.000179
 154	1.5223e+01	6.0993	23.015711	0.000406	4.055730	1.374119	0.000162
 155	1.5323e+01	6.1362	23.241790	0.000568	5.678022	1.923766	0.000227
 156	1.5422e+01	6.1683	23.375016	0.000335	3.345977	1.133648	0.000134
 157	1.5522e+01	6.2148	23.548613	0.000436	4.359910	1.477177	0.000174
 158	1.5621e+01	6.2485	23.702024	0.000385	3.852944	1.305413	0.000154
 159	1.5721e+01	6.2870	23.843324	0.000355	3.548764	1.202354	0.000142
 160	1.5820e+01	6.3367	24.041143	0.000497	4.968270	1.683295	0.000199
 161	1.5920e+01	6.3704	24.194554	0.000385	3.852944	1.305413	0.000154
 162	1.6020e+01	6.4169	24.368151	0.000436	4.359910	1.477177	0.000174
 163	1.6119e+01	6.4474	24.525600	0.000395	3.954337	1.339766	0.000158
 164	1.6218e+01	6.4891	24.666899	0.000355	3.548764	1.202354	0.000142
 165	1.6318e+01	6.5292	24.804162	0.000345	3.447371	1.168001	0.000138
 166	1.6418e+01	6.5661	24.969685	0.000416	4.157123	1.408472	0.000166
 167	1.6517e+01	6.6078	25.127133	0.000395	3.954337	1.339766	0.000158
 168	1.6616e+01	6.6479	25.228061	0.000253	2.534831	0.858824	0.000101
 169	1.6716e+01	6.6848	25.393584	0.000416	4.157123	1.408472	0.000166
 170	1.6816e+01	6.7410	25.555069	0.000406	4.055730	1.374119	0.000162
 171	1.6915e+01	6.7683	25.712518	0.000395	3.954337	1.339766	0.000158
 172	1.7015e+01	6.8116	25.906300	0.000487	4.866876	1.648942	0.000195
 173	1.7114e+01	6.8469	26.079897	0.000436	4.359910	1.477177	0.000174
 174	1.7213e+01	6.8854	26.265605	0.000466	4.664090	1.580236	0.000187
 175	1.7313e+01	6.9319	26.414979	0.000375	3.751550	1.271060	0.000150
 176	1.7413e+01	6.9688	26.568390	0.000385	3.852944	1.305413	0.000154
 177	1.7512e+01	7.0057	26.721801	0.000385	3.852944	1.305413	0.000154
 178	1.7611e+01	7.0426	26.903473	0.000456	4.562696	1.545883	0.000183
 179	1.7711e+01	7.0923	27.060921	0.000395	3.954337	1.339766	0.000158
 180	1.7811e+01	7.1244	27.214332	0.000385	3.852944	1.305413	0.000154
 181	1.7910e+01	7.1645	27.371780	0.000395	3.954337	1.339766	0.000158
 182	1.8009e+01	7.2078	27.517117	0.000365	3.650157	1.236707	0.000146
 183	1.8109e+01	7.2447	27.654380	0.000345	3.447371	1.168001	0.000138
 184	1.8209e+01	7.2832	27.827977	0.000436	4.359910	1.477177	0.000174
 185	1.8308e+01	7.3378	27.953128	0.000314	3.143191	1.064942	0.000126
 186	1.8407e+01	7.3682	28.086353	0.000335	3.345977	1.133648	0.000134
 187	1.8507e+01	7.4100	28.231690	0.000365	3.650157	1.236707	0.000146
 188	1.8607e+01	7.4452	28.385101	0.000385	3.852944	1.305413	0.000154
 189	1.8706e+01	7.4886	28.542550	0.000395	3.954337	1.339766	0.000158
 190	1.8805e+01	7.5239	28.728258	0.000466	4.664090	1.580236	0.000187
 191	1.8905e+01	7.5624	28.893780	0.000416	4.157123	1.408472	0.000166
 192	1.9005e+01	7.6137	29.067377	0.000436	4.359910	1.477177	0.000174
 193	1.9104e+01	7.6458	29.236937	0.000426	4.258517	1.442825	0.000170
 194	1.9203e+01	7.6939	29.410534	0.000436	4.359910	1.477177	0.000174
 195	1.9303e+01	7.7260	29.543759	0.000335	3.345977	1.133648	0.000134
 196	1.9402e+01	7.7565	29.689096	0.000365	3.650157	1.236707	0.000146
 197	1.9502e+01	7.7918	29.846545	0.000395	3.954337	1.339766	0.000158
 198	1.9602e+01	7.8367	30.020141	0.000436	4.359910	1.477177	0.000174
 199	1.9701e+01	7.8928	30.165478	0.000365	3.650157	1.236707	0.000146
 200	1.9800e+01	7.9169	30.310815	0.000365	3.650157	1.236707	0.000146
 201	1.9900e+01	7.9522	30.440003	0.000324	3.244584	1.099295	0.000130
 202	2.0000e+01	8.0147	30.589377	0.000375	3.751550	1.271060	0.000150
 203	2.0099e+01	8.0404	30.742789	0.000385	3.852944	1.305413	0.000154
 204	2.0198e+01	8.0805	30.880051	0.000345	3.447371	1.168001	0.000138
 205	2.0298e+01	8.1270	30.993091	0.000284	2.839011	0.961883	0.000114
 206	2.0398e+01	8.1623	31.154576	0.000406	4.055730	1.374119	0.000162
 207	2.0497e+01	8.1960	31.348359	0.000487	4.866876	1.648942	0.000195
 208	2.0596e+01	8.2345	31.453325	0.000264	2.636225	0.893177	0.000105
 209	2.0696e+01	8.2794	31.711701	0.000649	6.489168	2.198590	0.000260
 210	2.0796e+01	8.3228	31.804555	0.000233	2.332045	0.790118	0.000093
 211	2.0895e+01	8.3613	31.990264	0.000466	4.664090	1.580236	0.000187
 212	2.0994e+01	8.4014	32.127526	0.000345	3.447371	1.168001	0.000138
 213	2.1094e+01	8.4431	32.301123	0.000436	4.359910	1.477177	0.000174
 214	2.1194e+01	8.4768	32.454534	0.000385	3.852944	1.305413	0.000154
 215	2.1293e+01	8.5217	32.579685	0.000314	3.143191	1.064942	0.000126
 216	2.1392e+01	8.5602	32.757319	0.000446	4.461303	1.511530	0.000179
 217	2.1492e+01	8.6083	32.870359	0.000284	2.839011	0.961883	0.000114
 218	2.1591e+01	8.6420	33.076253	0.000517	5.171056	1.752001	0.000207
 219	2.1691e+01	8.6773	33.225627	0.000375	3.751550	1.271060	0.000150
 220	2.1791e+01	8.7158	33.354815	0.000324	3.244584	1.099295	0.000130
 221	2.1890e+01	8.7623	33.496115	0.000355	3.548764	1.202354	0.000142
 222	2.1989e+01	8.8008	33.625304	0.000324	3.244584	1.099295	0.000130
 223	2.2089e+01	8.8377	33.718158	0.000233	2.332045	0.790118	0.000093
 224	2.2189e+01	8.8826	33.887717	0.000426	4.258517	1.442825	0.000170
 225	2.2288e+01	8.9260	34.029017	0.000355	3.548764	1.202354	0.000142
 226	2.2387e+01	8.9709	34.162243	0.000335	3.345977	1.133648	0.000134
 227	2.2487e+01	9.0062	34.323728	0.000406	4.055730	1.374119	0.000162
 228	2.2587e+01	9.0399	34.509436	0.000466	4.664090	1.580236	0.000187
 229	2.2686e+01	9.0848	34.622476	0.000284	2.839011	0.961883	0.000114
 230	2.2785e+01	9.1153	34.783962	0.000406	4.055730	1.374119	0.000162
 231	2.2885e+01	9.1521	34.953521	0.000426	4.258517	1.442825	0.000170
 232	2.2985e+01	9.2035	35.119044	0.000416	4.157123	1.408472	0.000166
 233	2.3084e+01	9.2436	35.312826	0.000487	4.866876	1.648942	0.000195
 234	2.3183e+01	9.2821	35.413755	0.000253	2.534831	0.858824	0.000101
 235	2.3283e+01	9.3238	35.551017	0.000345	3.447371	1.168001	0.000138
 236	2.3383e+01	9.3639	35.700391	0.000375	3.751550	1.271060	0.000150
 237	2.3482e+01	9.3976	35.837654	0.000345	3.447371	1.168001	0.000138
 238	2.3581e+01	9.4281	35.926471	0.000223	2.230652	0.755765	0.000089
 239	2.3681e+01	9.4762	36.144476	0.000548	5.475236	1.855060	0.000219
 240	2.3780e+01	9.5179	36.257516	0.000284	2.839011	0.961883	0.000114
 241	2.3880e+01	9.5660	36.398816	0.000355	3.548764	1.202354	0.000142
 242	2.3980e+01	9.6078	36.507818	0.000274	2.737618	0.927530	0.000110
 243	2.4079e+01	9.6430	36.677378	0.000426	4.258517	1.442825	0.000170
 244	2.4178e+01	9.6783	36.822715	0.000365	3.650157	1.236707	0.000146
 245	2.4278e+01	9.7136	36.980163	0.000395	3.954337	1.339766	0.000158
 246	2.4378e+01	9.7585	37.173946	0.000487	4.866876	1.648942	0.000195
 247	2.4477e+01	9.8019	37.250651	0.000193	1.926472	0.652706	0.000077
 248	2.4576e+01	9.8388	37.416174	0.000416	4.157123	1.408472	0.000166
 249	2.4676e+01	9.8805	37.565548	0.000375	3.751550	1.271060	0.000150
 250	2.4776e+01	9.9222	37.678588	0.000284	2.839011	0.961883	0.000114
 251	2.4875e+01	9.9591	37.852185	0.000436	4.359910	1.477177	0.000174
 252	2.4974e+01	9.9976	38.017707	0.000416	4.157123	1.408472	0.000166
 253	2.5074e+01	10.0345	38.126710	0.000274	2.737618	0.927530	0.000110
 254	2.5174e+01	10.0810	38.288195	0.000406	4.055730	1.374119	0.000162
 255	2.5273e+01	10.1115	38.409309	0.000304	3.041798	1.030589	0.000122
 256	2.5372e+01	10.1548	38.558683	0.000375	3.751550	1.271060	0.000150
 257	2.5472e+01	10.2029	38.691909	0.000335	3.345977	1.133648	0.000134
 258	2.5572e+01	10.2334	38.829172	0.000345	3.447371	1.168001	0.000138
 259	2.5671e+01	10.2655	38.994694	0.000416	4.157123	1.408472	0.000166
 260	2.5770e+01	10.3152	39.095622	0.000253	2.534831	0.858824	0.000101
 261	2.5870e+01	10.3553	39.244997	0.000375	3.751550	1.271060	0.000150
 262	2.5970e+01	10.4002	39.394371	0.000375	3.751550	1.271060	0.000150
 263	2.6069e+01	10.4452	39.539707	0.000365	3.650157	1.236707	0.000146
 264	2.6169e+01	10.4756	39.709267	0.000426	4.258517	1.442825	0.000170
 265	2.6268e+01	10.5206	39.822307	0.000284	2.839011	0.961883	0.000114
 266	2.6367e+01	10.5559	40.012052	0.000477	4.765483	1.614589	0.000191
 267	2.6467e+01	10.5944	40.117018	0.000264	2.636225	0.893177	0.000105
 268	2.6567e+01	10.6361	40.250243	0.000335	3.345977	1.133648	0.000134
 269	2.6666e+01	10.6746	40.379432	0.000324	3.244584	1.099295	0.000130
 270	2.6765e+01	10.7131	40.573214	0.000487	4.866876	1.648942	0.000195
 271	2.6865e+01	10.7628	40.670105	0.000243	2.433438	0.824471	0.000097
 272	2.6965e+01	10.7917	40.831591	0.000406	4.055730	1.374119	0.000162
 273	2.7064e+01	10.8334	40.912334	0.000203	2.027865	0.687059	0.000081
 274	2.7163e+01	10.8783	41.073819	0.000406	4.055730	1.374119	0.000162
 275	2.7263e+01	10.9168	41.219156	0.000365	3.650157	1.236707	0.000146
 276	2.7363e+01	10.9601	41.400827	0.000456	4.562696	1.545883	0.000183
 277	2.7462e+01	10.9858	41.489644	0.000223	2.230652	0.755765	0.000089
 278	2.7561e+01	11.0403	41.643055	0.000385	3.852944	1.305413	0.000154
 279	2.7661e+01	11.0740	41.788392	0.000365	3.650157	1.236707	0.000146
 280	2.7761e+01	11.1125	41.893358	0.000264	2.636225	0.893177	0.000105
 281	2.7860e+01	11.1494	42.050806	0.000395	3.954337	1.339766	0.000158
 282	2.7959e+01	11.1895	42.171920	0.000304	3.041798	1.030589	0.000122
 283	2.8059e+01	11.2393	42.309183	0.000345	3.447371	1.168001	0.000138
 284	2.8159e+01	11.2633	42.482779	0.000436	4.359910	1.477177	0.000174
 285	2.8258e+01	11.3066	42.603893	0.000304	3.041798	1.030589	0.000122
 286	2.8358e+01	11.3516	42.777490	0.000436	4.359910	1.477177	0.000174
 287	2.8457e+01	11.3981	42.886493	0.000274	2.737618	0.927530	0.000110
 288	2.8556e+01	11.4270	43.027793	0.000355	3.548764	1.202354	0.000142
 289	2.8656e+01	11.4655	43.144870	0.000294	2.940404	0.996236	0.000118
 290	2.8756e+01	11.5168	43.278095	0.000335	3.345977	1.133648	0.000134
 291	2.8855e+01	11.5521	43.443618	0.000416	4.157123	1.408472	0.000166
 292	2.8954e+01	11.5874	43.572806	0.000324	3.244584	1.099295	0.000130
 293	2.9054e+01	11.6275	43.689883	0.000294	2.940404	0.996236	0.000118
 294	2.9154e+01	11.6724	43.815034	0.000314	3.143191	1.064942	0.000126
 295	2.9253e+01	11.7173	43.960371	0.000365	3.650157	1.236707	0.000146
 296	2.9352e+01	11.7510	44.053225	0.000233	2.332045	0.790118	0.000093
 297	2.9452e+01	11.7879	44.198562	0.000365	3.650157	1.236707	0.000146
 298	2.9552e+01	11.8264	44.343899	0.000365	3.650157	1.236707	0.000146
 299	2.9651e+01	11.8713	44.477124	0.000335	3.345977	1.133648	0.000134
 300	2.9750e+01	11.9130	44.618424	0.000355	3.548764	1.202354	0.000142
 301	2.9850e+01	11.9483	44.743575	0.000314	3.143191	1.064942	0.000126
 302	2.9950e+01	11.9852	44.888912	0.000365	3.650157	1.236707	0.000146
 303	3.0049e+01	12.0334	44.981766	0.000233	2.332045	0.790118	0.000093
 304	3.0148e+01	12.0638	45.110955	0.000324	3.244584	1.099295	0.000130
 305	3.0248e+01	12.1039	45.292626	0.000456	4.562696	1.545883	0.000183
 306	3.0348e+01	12.1408	45.397591	0.000264	2.636225	0.893177	0.000105
 307	3.0447e+01	12.1906	45.546965	0.000375	3.751550	1.271060	0.000150
 308	3.0547e+01	12.2226	45.748822	0.000507	5.069663	1.717648	0.000203
 309	3.0646e+01	12.2644	45.841676	0.000233	2.332045	0.790118	0.000093
 310	3.0745e+01	12.3141	45.930493	0.000223	2.230652	0.755765	0.000089
 311	3.0845e+01	12.3462	46.096016	0.000416	4.157123	1.408472	0.000166
 312	3.0945e+01	12.3879	46.225204	0.000324	3.244584	1.099295	0.000130
 313	3.1044e+01	12.4264	46.354393	0.000324	3.244584	1.099295	0.000130
 314	3.1143e+01	12.4665	46.471469	0.000294	2.940404	0.996236	0.000118
 315	3.1243e+01	12.5130	46.628918	0.000395	3.954337	1.339766	0.000158
 316	3.1343e+01	12.5451	46.741958	0.000284	2.839011	0.961883	0.000114
 317	3.1442e+01	12.5868	46.863072	0.000304	3.041798	1.030589	0.000122
 318	3.1541e+01	12.6285	46.976111	0.000284	2.839011	0.961883	0.000114
 319	3.1641e+01	12.6654	47.133560	0.000395	3.954337	1.339766	0.000158
 320	3.1741e+01	12.7184	47.262748	0.000324	3.244584	1.099295	0.000130
 321	3.1840e+01	12.7408	47.420196	0.000395	3.954337	1.339766	0.000158
 322	3.1939e+01	12.7809	47.561496	0.000355	3.548764	1.202354	0.000142
 323	3.2039e+01	12.8210	47.638202	0.000193	1.926472	0.652706	0.000077
 324	3.2139e+01	12.8627	47.811799	0.000436	4.359910	1.477177	0.000174
 325	3.2238e+01	12.8996	47.892541	0.000203	2.027865	0.687059	0.000081
 326	3.2337e+01	12.9478	48.058064	0.000416	4.157123	1.408472	0.000166
 327	3.2437e+01	12.9798	48.215512	0.000395	3.954337	1.339766	0.000158
 328	3.2536e+01	13.0232	48.340663	0.000314	3.143191	1.064942	0.000126
 329	3.2636e+01	13.0729	48.433517	0.000233	2.332045	0.790118	0.000093
 330	3.2736e+01	13.1034	48.570780	0.000345	3.447371	1.168001	0.000138
 331	3.2835e+01	13.1483	48.671708	0.000253	2.534831	0.858824	0.000101
 332	3.2934e+01	13.1772	48.853380	0.000456	4.562696	1.545883	0.000183
 333	3.3034e+01	13.2237	48.970457	0.000294	2.940404	0.996236	0.000118
 334	3.3133e+01	13.2622	49.107719	0.000345	3.447371	1.168001	0.000138
 335	3.3233e+01	13.2975	49.180388	0.000183	1.825079	0.618353	0.000073
 336	3.3333e+01	13.3344	49.349947	0.000426	4.258517	1.442825	0.000170
 337	3.3432e+01	13.3841	49.467024	0.000294	2.940404	0.996236	0.000118
 338	3.3532e+01	13.4146	49.604287	0.000345	3.447371	1.168001	0.000138
 339	3.3631e+01	13.4659	49.729438	0.000314	3.143191	1.064942	0.000126
 340	3.3730e+01	13.5060	49.878812	0.000375	3.751550	1.271060	0.000150
 341	3.3830e+01	13.5365	49.983778	0.000264	2.636225	0.893177	0.000105
 342	3.3929e+01	13.5718	50.169486	0.000466	4.664090	1.580236	0.000187
 343	3.4029e+01	13.6215	50.234080	0.000162	1.622292	0.549647	0.000065
 344	3.4129e+01	13.6600	50.351157	0.000294	2.940404	0.996236	0.000118
 345	3.4228e+01	13.6921	50.476308	0.000314	3.143191	1.064942	0.000126
 346	3.4328e+01	13.7370	50.621645	0.000365	3.650157	1.236707	0.000146
 347	3.4427e+01	13.7820	50.771019	0.000375	3.751550	1.271060	0.000150
 348	3.4526e+01	13.8092	50.900207	0.000324	3.244584	1.099295	0.000130
 349	3.4626e+01	13.8526	51.029396	0.000324	3.244584	1.099295	0.000130
 350	3.4725e+01	13.8927	51.142436	0.000284	2.839011	0.961883	0.000114
 351	3.4825e+01	13.9472	51.251438	0.000274	2.737618	0.927530	0.000110
 352	3.4925e+01	13.9841	51.372552	0.000304	3.041798	1.030589	0.000122
 353	3.5024e+01	14.0274	51.509815	0.000345	3.447371	1.168001	0.000138
 354	3.5123e+01	14.0531	51.647077	0.000345	3.447371	1.168001	0.000138
 355	3.5223e+01	14.0948	51.743969	0.000243	2.433438	0.824471	0.000097
 356	3.5322e+01	14.1477	51.913528	0.000426	4.258517	1.442825	0.000170
 357	3.5422e+01	14.1750	52.006383	0.000233	2.332045	0.790118	0.000093
 358	3.5522e+01	14.2199	52.103274	0.000243	2.433438	0.824471	0.000097
 359	3.5621e+01	14.2536	52.244574	0.000355	3.548764	1.202354	0.000142
 360	3.5721e+01	14.2969	52.381836	0.000345	3.447371	1.168001	0.000138
 361	3.5820e+01	14.3450	52.523136	0.000355	3.548764	1.202354	0.000142
 362	3.5919e+01	14.3836	52.628101	0.000264	2.636225	0.893177	0.000105
 363	3.6019e+01	14.4140	52.745178	0.000294	2.940404	0.996236	0.000118
 364	3.6118e+01	14.4541	52.890515	0.000365	3.650157	1.236707	0.000146
 365	3.6218e+01	14.5023	53.023741	0.000335	3.345977	1.133648	0.000134
 366	3.6318e+01	14.5424	53.120632	0.000243	2.433438	0.824471	0.000097
 367	3.6417e+01	14.5745	53.237709	0.000294	2.940404	0.996236	0.000118
 368	3.6517e+01	14.6162	53.399194	0.000406	4.055730	1.374119	0.000162
 369	3.6616e+01	14.6531	53.488011	0.000223	2.230652	0.755765	0.000089
 370	3.6715e+01	14.7044	53.617200	0.000324	3.244584	1.099295	0.000130
 371	3.6815e+01	14.7413	53.706017	0.000223	2.230652	0.755765	0.000089
 372	3.6914e+01	14.7702	53.871539	0.000416	4.157123	1.408472	0.000166
 373	3.7014e+01	14.8199	54.004765	0.000335	3.345977	1.133648	0.000134
 374	3.7114e+01	14.8520	54.150102	0.000365	3.650157	1.236707	0.000146
 375	3.7213e+01	14.8953	54.222770	0.000183	1.825079	0.618353	0.000073
 376	3.7313e+01	14.9226	54.364070	0.000355	3.548764	1.202354	0.000142
 377	3.7412e+01	14.9755	54.477110	0.000284	2.839011	0.961883	0.000114
 378	3.7511e+01	15.0236	54.590149	0.000284	2.839011	0.961883	0.000114
 379	3.7611e+01	15.0461	54.763746	0.000436	4.359910	1.477177	0.000174
 380	3.7711e+01	15.0926	54.901009	0.000345	3.447371	1.168001	0.000138
 381	3.7810e+01	15.1375	54.965603	0.000162	1.622292	0.549647	0.000065
 382	3.7910e+01	15.1776	55.110940	0.000365	3.650157	1.236707	0.000146
 383	3.8009e+01	15.2097	55.223980	0.000284	2.839011	0.961883	0.000114
 384	3.8108e+01	15.2546	55.377391	0.000385	3.852944	1.305413	0.000154
 385	3.8208e+01	15.2915	55.490431	0.000284	2.839011	0.961883	0.000114
 386	3.8307e+01	15.3317	55.575211	0.000213	2.129258	0.721412	0.000085
 387	3.8407e+01	15.3814	55.708436	0.000335	3.345977	1.133648	0.000134
 388	3.8507e+01	15.4135	55.829550	0.000304	3.041798	1.030589	0.000122
 389	3.8606e+01	15.4600	55.938553	0.000274	2.737618	0.927530	0.000110
 390	3.8706e+01	15.4905	56.047555	0.000274	2.737618	0.927530	0.000110
 391	3.8805e+01	15.5290	56.184818	0.000345	3.447371	1.168001	0.000138
 392	3.8904e+01	15.5819	56.285746	0.000253	2.534831	0.858824	0.000101
 393	3.9004e+01	15.6108	56.431083	0.000365	3.650157	1.236707	0.000146
 394	3.9103e+01	15.6429	56.532012	0.000253	2.534831	0.858824	0.000101
 395	3.9203e+01	15.6878	56.661200	0.000324	3.244584	1.099295	0.000130
 396	3.9303e+01	15.7343	56.786351	0.000314	3.143191	1.064942	0.000126
 397	3.9402e+01	15.7728	56.919577	0.000335	3.345977	1.133648	0.000134
 398	3.9502e+01	15.8177	57.032617	0.000284	2.839011	0.961883	0.000114
 399	3.9601e+01	15.8578	57.165842	0.000335	3.345977	1.133648	0.000134
 400	3.9700e+01	15.8883	57.234473	0.000172	1.723685	0.584000	0.000069
 401	3.9800e+01	15.9204	57.335402	0.000253	2.534831	0.858824	0.000101
 402	3.9900e+01	15.9685	57.508999	0.000436	4.359910	1.477177	0.000174
 403	3.9999e+01	16.0167	57.589741	0.000203	2.027865	0.687059	0.000081
 404	4.0099e+01	16.0568	57.727004	0.000345	3.447371	1.168001	0.000138
 405	4.0198e+01	16.0872	57.848118	0.000304	3.041798	1.030589	0.000122
 406	4.0297e+01	16.1274	57.977306	0.000324	3.244584	1.099295	0.000130
 407	4.0397e+01	16.1691	58.122643	0.000365	3.650157	1.236707	0.000146
 408	4.0496e+01	16.2124	58.171089	0.000122	1.216719	0.412236	0.000049
 409	4.0596e+01	16.2477	58.316426	0.000365	3.650157	1.236707	0.000146
 410	4.0696e+01	16.2894	58.397168	0.000203	2.027865	0.687059	0.000081
 411	4.0795e+01	16.3279	58.574802	0.000446	4.461303	1.511530	0.000179
 412	4.0895e+01	16.3632	58.671694	0.000243	2.433438	0.824471	0.000097
 413	4.0994e+01	16.4113	58.772622	0.000253	2.534831	0.858824	0.000101
 414	4.1093e+01	16.4530	58.881625	0.000274	2.737618	0.927530	0.000110
 415	4.1193e+01	16.4947	59.010813	0.000324	3.244584	1.099295	0.000130
 416	4.1292e+01	16.5300	59.099630	0.000223	2.230652	0.755765	0.000089
 417	4.1392e+01	16.5621	59.236893	0.000345	3.447371	1.168001	0.000138
 418	4.1492e+01	16.6070	59.358007	0.000304	3.041798	1.030589	0.000122
 419	4.1591e+01	16.6487	59.462972	0.000264	2.636225	0.893177	0.000105
 420	4.1691e+01	16.6904	59.596198	0.000335	3.345977	1.133648	0.000134
 421	4.1790e+01	16.7193	59.689052	0.000233	2.332045	0.790118	0.000093
 422	4.1889e+01	16.7771	59.842463	0.000385	3.852944	1.305413	0.000154
 423	4.1989e+01	16.8059	59.927243	0.000213	2.129258	0.721412	0.000085
 424	4.2089e+01	16.8477	60.052394	0.000314	3.143191	1.064942	0.000126
 425	4.2188e+01	16.8910	60.185620	0.000335	3.345977	1.133648	0.000134
 426	4.2288e+01	16.9247	60.270399	0.000213	2.129258	0.721412	0.000085
 427	4.2387e+01	16.9760	60.427848	0.000395	3.954337	1.339766	0.000158
 428	4.2486e+01	16.9968	60.504553	0.000193	1.926472	0.652706	0.000077
 429	4.2586e+01	17.0370	60.649890	0.000365	3.650157	1.236707	0.000146
 430	4.2685e+01	17.0883	60.738707	0.000223	2.230652	0.755765	0.000089
 431	4.2785e+01	17.1332	60.827524	0.000223	2.230652	0.755765	0.000089
 432	4.2885e+01	17.1621	60.968824	0.000355	3.548764	1.202354	0.000142
 433	4.2984e+01	17.2022	61.106087	0.000345	3.447371	1.168001	0.000138
 434	4.3084e+01	17.2407	61.186829	0.000203	2.027865	0.687059	0.000081
 435	4.3183e+01	17.2792	61.287758	0.000253	2.534831	0.858824	0.000101
 436	4.3282e+01	17.3273	61.441169	0.000385	3.852944	1.305413	0.000154
 437	4.3382e+01	17.3530	61.538060	0.000243	2.433438	0.824471	0.000097
 438	4.3481e+01	17.3963	61.638988	0.000253	2.534831	0.858824	0.000101
 439	4.3581e+01	17.4428	61.760103	0.000304	3.041798	1.030589	0.000122
 440	4.3681e+01	17.4861	61.901402	0.000355	3.548764	1.202354	0.000142
 441	4.3780e+01	17.5166	61.998294	0.000243	2.433438	0.824471	0.000097
 442	4.3880e+01	17.5599	62.159779	0.000406	4.055730	1.374119	0.000162
 443	4.3979e+01	17.5952	62.216299	0.000142	1.419506	0.480942	0.000057
 444	4.4078e+01	17.6417	62.341450	0.000314	3.143191	1.064942	0.000126
 445	4.4178e+01	17.6899	62.462564	0.000304	3.041798	1.030589	0.000122
 446	4.4278e+01	17.7220	62.583678	0.000304	3.041798	1.030589	0.000122
 447	4.4377e+01	17.7653	62.672495	0.000223	2.230652	0.755765	0.000089
 448	4.4477e+01	17.8070	62.777461	0.000264	2.636225	0.893177	0.000105
 449	4.4576e+01	17.8407	62.894538	0.000294	2.940404	0.996236	0.000118
 450	4.4675e+01	17.8840	62.995466	0.000253	2.534831	0.858824	0.000101
 451	4.4775e+01	17.9209	63.116580	0.000304	3.041798	1.030589	0.000122
 452	4.4874e+01	17.9594	63.229620	0.000284	2.839011	0.961883	0.000114
 453	4.4974e+01	18.0091	63.346697	0.000294	2.940404	0.996236	0.000118
 454	4.5074e+01	18.0444	63.447625	0.000253	2.534831	0.858824	0.000101
 455	4.5173e+01	18.0813	63.548554	0.000253	2.534831	0.858824	0.000101
 456	4.5273e+01	18.1198	63.669668	0.000304	3.041798	1.030589	0.000122
 457	4.5372e+01	18.1615	63.762522	0.000233	2.332045	0.790118	0.000093
 458	4.5471e+01	18.1984	63.915933	0.000385	3.852944	1.305413	0.000154
 459	4.5571e+01	18.2498	64.000713	0.000213	2.129258	0.721412	0.000085
 460	4.5670e+01	18.2802	64.142013	0.000355	3.548764	1.202354	0.000142
 461	4.5770e+01	18.3123	64.214681	0.000183	1.825079	0.618353	0.000073
 462	4.5870e+01	18.3637	64.323684	0.000274	2.737618	0.927530	0.000110
 463	4.5969e+01	18.4038	64.469021	0.000365	3.650157	1.236707	0.000146
 464	4.6069e+01	18.4374	64.565912	0.000243	2.433438	0.824471	0.000097
 465	4.6168e+01	18.4872	64.654729	0.000223	2.230652	0.755765	0.000089
 466	4.6267e+01	18.5209	64.751620	0.000243	2.433438	0.824471	0.000097
 467	4.6367e+01	18.5642	64.876771	0.000314	3.143191	1.064942	0.000126
 468	4.6467e+01	18.6027	64.973663	0.000243	2.433438	0.824471	0.000097
 469	4.6566e+01	18.6364	65.106888	0.000335	3.345977	1.133648	0.000134
 470	4.6666e+01	18.6765	65.219928	0.000284	2.839011	0.961883	0.000114
 471	4.6765e+01	18.7214	65.308745	0.000223	2.230652	0.755765	0.000089
 472	4.6864e+01	18.7615	65.429859	0.000304	3.041798	1.030589	0.000122
 473	4.6964e+01	18.8000	65.575196	0.000365	3.650157	1.236707	0.000146
 474	4.7063e+01	18.8481	65.668050	0.000233	2.332045	0.790118	0.000093
 475	4.7163e+01	18.8834	65.748793	0.000203	2.027865	0.687059	0.000081
 476	4.7263e+01	18.9171	65.853758	0.000264	2.636225	0.893177	0.000105
 477	4.7362e+01	18.9620	65.970835	0.000294	2.940404	0.996236	0.000118
 478	4.7462e+01	18.9925	66.071763	0.000253	2.534831	0.858824	0.000101
 479	4.7561e+01	19.0422	66.176729	0.000264	2.636225	0.893177	0.000105
 480	4.7660e+01	19.0759	66.273620	0.000243	2.433438	0.824471	0.000097
 481	4.7760e+01	19.1160	66.414920	0.000355	3.548764	1.202354	0.000142
 482	4.7859e+01	19.1594	66.560257	0.000365	3.650157	1.236707	0.000146
 483	4.7959e+01	19.2075	66.645037	0.000213	2.129258	0.721412	0.000085
 484	4.8059e+01	19.2364	66.750002	0.000264	2.636225	0.893177	0.000105
 485	4.8158e+01	19.2749	66.814596	0.000162	1.622292	0.549647	0.000065
 486	4.8258e+01	19.3134	66.959933	0.000365	3.650157	1.236707	0.000146
 487	4.8357e+01	19.3615	67.072973	0.000284	2.839011	0.961883	0.000114
 488	4.8456e+01	19.3904	67.177939	0.000264	2.636225	0.893177	0.000105
 489	4.8556e+01	19.4337	67.303090	0.000314	3.143191	1.064942	0.000126
 490	4.8656e+01	19.4770	67.391907	0.000223	2.230652	0.755765	0.000089
 491	4.8755e+01	19.5187	67.492835	0.000253	2.534831	0.858824	0.000101
 492	4.8855e+01	19.5572	67.569541	0.000193	1.926472	0.652706	0.000077
 493	4.8954e+01	19.5957	67.686618	0.000294	2.940404	0.996236	0.000118
 494	4.9053e+01	19.6358	67.811769	0.000314	3.143191	1.064942	0.000126
 495	4.9153e+01	19.6759	67.904623	0.000233	2.332045	0.790118	0.000093
 496	4.9252e+01	19.7128	68.005552	0.000253	2.534831	0.858824	0.000101
 497	4.9352e+01	19.7513	68.130703	0.000314	3.143191	1.064942	0.000126
 498	4.9452e+01	19.7866	68.247780	0.000294	2.940404	0.996236	0.000118
 499	4.9551e+01	19.8315	68.381005	0.000335	3.345977	1.133648	0.000134
 500	4.9651e+01	19.8813	68.502119	0.000304	3.041798	1.030589	0.000122
 501	4.9750e+01	19.9117	68.574788	0.000183	1.825079	0.618353	0.000073
 502	4.9849e+01	19.9534	68.667642	0.000233	2.332045	0.790118	0.000093
 503	4.9949e+01	19.9871	68.764533	0.000243	2.433438	0.824471	0.000097
 504	5.0048e+01	19.9599	68.708013	0.000142	1.419506	0.480942	-0.000057
 505	5.0148e+01	19.9133	68.611122	0.000243	2.433438	0.824471	-0.000097
 506	5.0248e+01	19.8732	68.490008	0.000304	3.041798	1.030589	-0.000122
 507	5.0347e+01	19.8283	68.425414	0.000162	1.622292	0.549647	-0.000065
 508	5.0447e+01	19.7930	68.328522	0.000243	2.433438	0.824471	-0.000097
 509	5.0546e+01	19.7593	68.227594	0.000253	2.534831	0.858824	-0.000101
 510	5.0645e+01	19.7240	68.191260	0.000091	0.912539	0.309177	-0.000037
 511	5.0745e+01	19.6711	68.070146	0.000304	3.041798	1.030589	-0.000122
 512	5.0844e+01	19.6294	67.985366	0.000213	2.129258	0.721412	-0.000085
 513	5.0944e+01	19.5893	67.908660	0.000193	1.926472	0.652706	-0.000077
 514	5.1044e+01	19.5588	67.831955	0.000193	1.926472	0.652706	-0.000077
 515	5.1143e+01	19.5123	67.735063	0.000243	2.433438	0.824471	-0.000097
 516	5.1242e+01	19.4754	67.646246	0.000223	2.230652	0.755765	-0.000089
 517	5.1342e+01	19.4353	67.581652	0.000162	1.622292	0.549647	-0.000065
 518	5.1441e+01	19.3936	67.496872	0.000213	2.129258	0.721412	-0.000085
 519	5.1541e+01	19.3422	67.452464	0.000112	1.115326	0.377883	-0.000045
 520	5.1641e+01	19.3198	67.286941	0.000416	4.157123	1.408472	-0.000166
 521	5.1740e+01	19.2893	67.246570	0.000101	1.013933	0.343530	-0.000041
 522	5.1840e+01	19.2380	67.133530	0.000284	2.839011	0.961883	-0.000114
 523	5.1939e+01	19.1962	67.020490	0.000284	2.839011	0.961883	-0.000114
 524	5.2038e+01	19.1577	66.947822	0.000183	1.825079	0.618353	-0.000073
 525	5.2138e+01	19.1257	66.794411	0.000385	3.852944	1.305413	-0.000154
 526	5.2237e+01	19.0807	66.741928	0.000132	1.318112	0.446589	-0.000053
 527	5.2337e+01	19.0422	66.649074	0.000233	2.332045	0.790118	-0.000093
 528	5.2437e+01	18.9973	66.568331	0.000203	2.027865	0.687059	-0.000081
 529	5.2536e+01	18.9668	66.475477	0.000233	2.332045	0.790118	-0.000093
 530	5.2636e+01	18.9299	66.382623	0.000233	2.332045	0.790118	-0.000093
 531	5.2735e+01	18.8882	66.285732	0.000243	2.433438	0.824471	-0.000097
 532	5.2834e+01	18.8481	66.172692	0.000284	2.839011	0.961883	-0.000114
 533	5.2934e+01	18.8016	66.091949	0.000203	2.027865	0.687059	-0.000081
 534	5.3033e+01	18.7711	65.999095	0.000233	2.332045	0.790118	-0.000093
 535	5.3133e+01	18.7150	65.849721	0.000375	3.751550	1.271060	-0.000150
 536	5.3233e+01	18.6797	65.849721	-0.000000	-0.000000	-0.000000	0.000000
 537	5.3332e+01	18.6348	65.773015	0.000193	1.926472	0.652706	-0.000077
 538	5.3431e+01	18.6059	65.668050	0.000264	2.636225	0.893177	-0.000105
 539	5.3531e+01	18.5626	65.567122	0.000253	2.534831	0.858824	-0.000101
 540	5.3630e+01	18.5289	65.462156	0.000264	2.636225	0.893177	-0.000105
 541	5.3730e+01	18.4872	65.353153	0.000274	2.737618	0.927530	-0.000110
 542	5.3830e+01	18.4487	65.228002	0.000314	3.143191	1.064942	-0.000126
 543	5.3929e+01	18.4022	65.147259	0.000203	2.027865	0.687059	-0.000081
 544	5.4029e+01	18.3653	65.042294	0.000264	2.636225	0.893177	-0.000105
 545	5.4128e+01	18.3203	64.933291	0.000274	2.737618	0.927530	-0.000110
 546	5.4227e+01	18.2802	64.868697	0.000162	1.622292	0.549647	-0.000065
 547	5.4327e+01	18.2498	64.767769	0.000253	2.534831	0.858824	-0.000101
 548	5.4426e+01	18.2000	64.678952	0.000223	2.230652	0.755765	-0.000089
 549	5.4526e+01	18.1631	64.594172	0.000213	2.129258	0.721412	-0.000085
 550	5.4626e+01	18.1166	64.473058	0.000304	3.041798	1.030589	-0.000122
 551	5.4725e+01	18.0829	64.412501	0.000152	1.520899	0.515294	-0.000061
 552	5.4825e+01	18.0412	64.303498	0.000274	2.737618	0.927530	-0.000110
 553	5.4924e+01	18.0059	64.190458	0.000284	2.839011	0.961883	-0.000114
 554	5.5023e+01	17.9546	64.081456	0.000274	2.737618	0.927530	-0.000110
 555	5.5123e+01	17.9225	63.992639	0.000223	2.230652	0.755765	-0.000089
 556	5.5222e+01	17.8872	63.968416	0.000061	0.608360	0.206118	-0.000024
 557	5.5322e+01	17.8455	63.843265	0.000314	3.143191	1.064942	-0.000126
 558	5.5422e+01	17.8086	63.758485	0.000213	2.129258	0.721412	-0.000085
 559	5.5521e+01	17.7669	63.617185	0.000355	3.548764	1.202354	-0.000142
 560	5.5620e+01	17.7236	63.479922	0.000345	3.447371	1.168001	-0.000138
 561	5.5720e+01	17.6867	63.411291	0.000172	1.723685	0.584000	-0.000069
 562	5.5819e+01	17.6530	63.253843	0.000395	3.954337	1.339766	-0.000158
 563	5.5919e+01	17.6065	63.201360	0.000132	1.318112	0.446589	-0.000053
 564	5.6019e+01	17.5615	63.108506	0.000233	2.332045	0.790118	-0.000093
 565	5.6118e+01	17.5214	62.999503	0.000274	2.737618	0.927530	-0.000110
 566	5.6218e+01	17.4926	62.886463	0.000284	2.839011	0.961883	-0.000114
 567	5.6317e+01	17.4428	62.821869	0.000162	1.622292	0.549647	-0.000065
 568	5.6416e+01	17.4043	62.708829	0.000284	2.839011	0.961883	-0.000114
 569	5.6516e+01	17.3626	62.563493	0.000365	3.650157	1.236707	-0.000146
 570	5.6615e+01	17.3273	62.486787	0.000193	1.926472	0.652706	-0.000077
 571	5.6715e+01	17.2872	62.422193	0.000162	1.622292	0.549647	-0.000065
 572	5.6815e+01	17.2487	62.321264	0.000253	2.534831	0.858824	-0.000101
 573	5.6914e+01	17.1974	62.188039	0.000335	3.345977	1.133648	-0.000134
 574	5.7014e+01	17.1749	62.119408	0.000172	1.723685	0.584000	-0.000069
 575	5.7113e+01	17.1220	62.050776	0.000172	1.723685	0.584000	-0.000069
 576	5.7212e+01	17.0851	61.905439	0.000365	3.650157	1.236707	-0.000146
 577	5.7312e+01	17.0434	61.776251	0.000324	3.244584	1.099295	-0.000130
 578	5.7411e+01	17.0049	61.659174	0.000294	2.940404	0.996236	-0.000118
 579	5.7511e+01	16.9712	61.626877	0.000081	0.811146	0.274824	-0.000032
 580	5.7611e+01	16.9343	61.469429	0.000395	3.954337	1.339766	-0.000158
 581	5.7710e+01	16.8797	61.392723	0.000193	1.926472	0.652706	-0.000077
 582	5.7809e+01	16.8444	61.279683	0.000284	2.839011	0.961883	-0.000114
 583	5.7909e+01	16.7995	61.186829	0.000233	2.332045	0.790118	-0.000093
 584	5.8008e+01	16.7626	61.081864	0.000264	2.636225	0.893177	-0.000105
 585	5.8108e+01	16.7289	60.976898	0.000264	2.636225	0.893177	-0.000105
 586	5.8208e+01	16.6856	60.863858	0.000284	2.839011	0.961883	-0.000114
 587	5.8307e+01	16.6439	60.771004	0.000233	2.332045	0.790118	-0.000093
 588	5.8407e+01	16.6070	60.657964	0.000284	2.839011	0.961883	-0.000114
 589	5.8506e+01	16.5653	60.601445	0.000142	1.419506	0.480942	-0.000057
 590	5.8605e+01	16.5380	60.439959	0.000406	4.055730	1.374119	-0.000162
 591	5.8705e+01	16.4883	60.379402	0.000152	1.520899	0.515294	-0.000061
 592	5.8804e+01	16.4482	60.250214	0.000324	3.244584	1.099295	-0.000130
 593	5.8904e+01	16.4113	60.209842	0.000101	1.013933	0.343530	-0.000041
 594	5.9004e+01	16.3760	60.048357	0.000406	4.055730	1.374119	-0.000162
 595	5.9103e+01	16.3231	59.955503	0.000233	2.332045	0.790118	-0.000093
 596	5.9203e+01	16.2958	59.826315	0.000324	3.244584	1.099295	-0.000130
 597	5.9302e+01	16.2509	59.737498	0.000223	2.230652	0.755765	-0.000089
 598	5.9401e+01	16.2092	59.640606	0.000243	2.433438	0.824471	-0.000097
 599	5.9501e+01	16.1691	59.519492	0.000304	3.041798	1.030589	-0.000122
 600	5.9600e+01	16.1306	59.450861	0.000172	1.723685	0.584000	-0.000069
 601	5.9700e+01	16.0760	59.309561	0.000355	3.548764	1.202354	-0.000142
 602	5.9800e+01	16.0584	59.196521	0.000284	2.839011	0.961883	-0.000114
 603	5.9899e+01	16.0086	59.131927	0.000162	1.622292	0.549647	-0.000065
 604	5.9998e+01	15.9701	59.022924	0.000274	2.737618	0.927530	-0.000110
 605	6.0098e+01	15.9284	58.869513	0.000385	3.852944	1.305413	-0.000154
 606	6.0197e+01	15.8963	58.776659	0.000233	2.332045	0.790118	-0.000093
 607	6.0297e+01	15.8546	58.708028	0.000172	1.723685	0.584000	-0.000069
 608	6.0397e+01	15.8113	58.594988	0.000284	2.839011	0.961883	-0.000114
 609	6.0496e+01	15.7744	58.469837	0.000314	3.143191	1.064942	-0.000126
 610	6.0596e+01	15.7311	58.417354	0.000132	1.318112	0.446589	-0.000053
 611	6.0695e+01	15.6926	58.316426	0.000253	2.534831	0.858824	-0.000101
 612	6.0794e+01	15.6573	58.167052	0.000375	3.751550	1.271060	-0.000150
 613	6.0894e+01	15.6060	58.078235	0.000223	2.230652	0.755765	-0.000089
 614	6.0993e+01	15.5707	57.920786	0.000395	3.954337	1.339766	-0.000158
 615	6.1093e+01	15.5386	57.840044	0.000203	2.027865	0.687059	-0.000081
 616	6.1193e+01	15.5033	57.735078	0.000264	2.636225	0.893177	-0.000105
 617	6.1292e+01	15.4488	57.581667	0.000385	3.852944	1.305413	-0.000154
 618	6.1392e+01	15.4247	57.488813	0.000233	2.332045	0.790118	-0.000093
 619	6.1491e+01	15.3750	57.432293	0.000142	1.419506	0.480942	-0.000057
 620	6.1590e+01	15.3381	57.323290	0.000274	2.737618	0.927530	-0.000110
 621	6.1690e+01	15.2996	57.190065	0.000335	3.345977	1.133648	-0.000134
 622	6.1789e+01	15.2563	57.089136	0.000253	2.534831	0.858824	-0.000101
 623	6.1889e+01	15.2145	56.951874	0.000345	3.447371	1.168001	-0.000138
 624	6.1989e+01	15.1680	56.846908	0.000264	2.636225	0.893177	-0.000105
 625	6.2088e+01	15.1327	56.774240	0.000183	1.825079	0.618353	-0.000073
 626	6.2188e+01	15.0878	56.649089	0.000314	3.143191	1.064942	-0.000126
 627	6.2287e+01	15.0493	56.499715	0.000375	3.751550	1.271060	-0.000150
 628	6.2386e+01	15.0172	56.418972	0.000203	2.027865	0.687059	-0.000081
 629	6.2486e+01	14.9739	56.354378	0.000162	1.622292	0.549647	-0.000065
 630	6.2586e+01	14.9434	56.245375	0.000274	2.737618	0.927530	-0.000110
 631	6.2685e+01	14.8953	56.160595	0.000213	2.129258	0.721412	-0.000085
 632	6.2785e+01	14.8552	56.011221	0.000375	3.751550	1.271060	-0.000150
 633	6.2884e+01	14.8167	55.849736	0.000406	4.055730	1.374119	-0.000162
 634	6.2983e+01	14.7766	55.736696	0.000284	2.839011	0.961883	-0.000114
 635	6.3083e+01	14.7333	55.664028	0.000183	1.825079	0.618353	-0.000073
 636	6.3182e+01	14.6884	55.538876	0.000314	3.143191	1.064942	-0.000126
 637	6.3282e+01	14.6595	55.393539	0.000365	3.650157	1.236707	-0.000146
 638	6.3382e+01	14.6130	55.324908	0.000172	1.723685	0.584000	-0.000069
 639	6.3481e+01	14.5729	55.175534	0.000375	3.751550	1.271060	-0.000150
 640	6.3581e+01	14.5440	55.090754	0.000213	2.129258	0.721412	-0.000085
 641	6.3680e+01	14.4991	54.973677	0.000294	2.940404	0.996236	-0.000118
 642	6.3779e+01	14.4622	54.868712	0.000264	2.636225	0.893177	-0.000105
 643	6.3879e+01	14.4140	54.779895	0.000223	2.230652	0.755765	-0.000089
 644	6.3978e+01	14.3787	54.670892	0.000274	2.737618	0.927530	-0.000110
 645	6.4078e+01	14.3434	54.545741	0.000314	3.143191	1.064942	-0.000126
 646	6.4177e+01	14.2985	54.444813	0.000253	2.534831	0.858824	-0.000101
 647	6.4277e+01	14.2504	54.331773	0.000284	2.839011	0.961883	-0.000114
 648	6.4376e+01	14.2167	54.267179	0.000162	1.622292	0.549647	-0.000065
 649	6.4476e+01	14.1862	54.150102	0.000294	2.940404	0.996236	-0.000118
 650	6.4576e+01	14.1477	53.996690	0.000385	3.852944	1.305413	-0.000154
 651	6.4675e+01	14.1060	53.919985	0.000193	1.926472	0.652706	-0.000077
 652	6.4775e+01	14.0595	53.770611	0.000375	3.751550	1.271060	-0.000150
 653	6.4874e+01	14.0258	53.657571	0.000284	2.839011	0.961883	-0.000114
 654	6.4974e+01	13.9873	53.556643	0.000253	2.534831	0.858824	-0.000101
 655	6.5073e+01	13.9408	53.443603	0.000284	2.839011	0.961883	-0.000114
 656	6.5172e+01	13.9023	53.318452	0.000314	3.143191	1.064942	-0.000126
 657	6.5272e+01	13.8638	53.201375	0.000294	2.940404	0.996236	-0.000118
 658	6.5371e+01	13.8157	53.080261	0.000304	3.041798	1.030589	-0.000122
 659	6.5471e+01	13.7755	52.979332	0.000253	2.534831	0.858824	-0.000101
 660	6.5570e+01	13.7403	52.825921	0.000385	3.852944	1.305413	-0.000154
 661	6.5670e+01	13.6953	52.729030	0.000243	2.433438	0.824471	-0.000097
 662	6.5769e+01	13.6633	52.611953	0.000294	2.940404	0.996236	-0.000118
 663	6.5869e+01	13.6119	52.519099	0.000233	2.332045	0.790118	-0.000093
 664	6.5969e+01	13.5750	52.410096	0.000274	2.737618	0.927530	-0.000110
 665	6.6068e+01	13.5445	52.301093	0.000274	2.737618	0.927530	-0.000110
 666	6.6168e+01	13.5012	52.232462	0.000172	1.723685	0.584000	-0.000069
 667	6.6267e+01	13.4643	52.139608	0.000233	2.332045	0.790118	-0.000093
 668	6.6367e+01	13.4162	51.986197	0.000385	3.852944	1.305413	-0.000154
 669	6.6466e+01	13.3921	51.844897	0.000355	3.548764	1.202354	-0.000142
 670	6.6566e+01	13.3408	51.695523	0.000375	3.751550	1.271060	-0.000150
 671	6.6665e+01	13.2991	51.574409	0.000304	3.041798	1.030589	-0.000122
 672	6.6764e+01	13.2654	51.493666	0.000203	2.027865	0.687059	-0.000081
 673	6.6864e+01	13.2205	51.368515	0.000314	3.143191	1.064942	-0.000126
 674	6.6963e+01	13.1836	51.267587	0.000253	2.534831	0.858824	-0.000101
 675	6.7063e+01	13.1435	51.122250	0.000365	3.650157	1.236707	-0.000146
 676	6.7162e+01	13.1098	50.972876	0.000375	3.751550	1.271060	-0.000150
 677	6.7262e+01	13.0617	50.924430	0.000122	1.216719	0.412236	-0.000049
 678	6.7362e+01	13.0264	50.758908	0.000416	4.157123	1.408472	-0.000166
 679	6.7461e+01	12.9782	50.670091	0.000223	2.230652	0.755765	-0.000089
 680	6.7561e+01	12.9397	50.536865	0.000335	3.345977	1.133648	-0.000134
 681	6.7660e+01	12.8996	50.480345	0.000142	1.419506	0.480942	-0.000057
 682	6.7760e+01	12.8579	50.343083	0.000345	3.447371	1.168001	-0.000138
 683	6.7859e+01	12.8274	50.217931	0.000314	3.143191	1.064942	-0.000126
 684	6.7959e+01	12.7889	50.125077	0.000233	2.332045	0.790118	-0.000093
 685	6.8058e+01	12.7408	50.020112	0.000264	2.636225	0.893177	-0.000105
 686	6.8157e+01	12.7055	49.943406	0.000193	1.926472	0.652706	-0.000077
 687	6.8257e+01	12.6638	49.802106	0.000355	3.548764	1.202354	-0.000142
 688	6.8356e+01	12.6333	49.640621	0.000406	4.055730	1.374119	-0.000162
 689	6.8456e+01	12.5868	49.499321	0.000355	3.548764	1.202354	-0.000142
 690	6.8555e+01	12.5499	49.378207	0.000304	3.041798	1.030589	-0.000122
 691	6.8655e+01	12.5002	49.228833	0.000375	3.751550	1.271060	-0.000150
 692	6.8754e+01	12.4633	49.119831	0.000274	2.737618	0.927530	-0.000110
 693	6.8854e+01	12.4232	49.014865	0.000264	2.636225	0.893177	-0.000105
 694	6.8954e+01	12.3959	48.893751	0.000304	3.041798	1.030589	-0.000122
 695	6.9053e+01	12.3510	48.736303	0.000395	3.954337	1.339766	-0.000158
 696	6.9153e+01	12.3109	48.639411	0.000243	2.433438	0.824471	-0.000097
 697	6.9252e+01	12.2612	48.510223	0.000324	3.244584	1.099295	-0.000130
 698	6.9352e+01	12.2339	48.409295	0.000253	2.534831	0.858824	-0.000101
 699	6.9451e+01	12.1858	48.304329	0.000264	2.636225	0.893177	-0.000105
 700	6.9550e+01	12.1537	48.175141	0.000324	3.244584	1.099295	-0.000130
 701	6.9650e+01	12.1023	48.078250	0.000243	2.433438	0.824471	-0.000097
 702	6.9749e+01	12.0638	47.965210	0.000284	2.839011	0.961883	-0.000114
 703	6.9849e+01	12.0301	47.876393	0.000223	2.230652	0.755765	-0.000089
 704	6.9948e+01	11.9997	47.755279	0.000304	3.041798	1.030589	-0.000122
 705	7.0048e+01	11.9515	47.585719	0.000426	4.258517	1.442825	-0.000170
 706	7.0147e+01	11.9082	47.428271	0.000395	3.954337	1.339766	-0.000158
 707	7.0247e+01	11.8665	47.286971	0.000355	3.548764	1.202354	-0.000142
 708	7.0347e+01	11.8392	47.194117	0.000233	2.332045	0.790118	-0.000093
 709	7.0446e+01	11.7895	47.036668	0.000395	3.954337	1.339766	-0.000158
 710	7.0546e+01	11.7478	46.931703	0.000264	2.636225	0.893177	-0.000105
 711	7.0645e+01	11.7093	46.802515	0.000324	3.244584	1.099295	-0.000130
 712	7.0745e+01	11.6724	46.725809	0.000193	1.926472	0.652706	-0.000077
 713	7.0844e+01	11.6259	46.608732	0.000294	2.940404	0.996236	-0.000118
 714	7.0944e+01	11.5970	46.439172	0.000426	4.258517	1.442825	-0.000170
 715	7.1043e+01	11.5505	46.346318	0.000233	2.332045	0.790118	-0.000093
 716	7.1142e+01	11.5152	46.241353	0.000264	2.636225	0.893177	-0.000105
 717	7.1242e+01	11.4590	46.116202	0.000314	3.143191	1.064942	-0.000126
 718	7.1341e+01	11.4302	45.946642	0.000426	4.258517	1.442825	-0.000170
 719	7.1441e+01	11.3772	45.906270	0.000101	1.013933	0.343530	-0.000041
 720	7.1540e+01	11.3532	45.752859	0.000385	3.852944	1.305413	-0.000154
 721	7.1640e+01	11.3211	45.664042	0.000223	2.230652	0.755765	-0.000089
 722	7.1740e+01	11.2681	45.502557	0.000406	4.055730	1.374119	-0.000162
 723	7.1839e+01	11.2280	45.397591	0.000264	2.636225	0.893177	-0.000105
 724	7.1939e+01	11.1927	45.284552	0.000284	2.839011	0.961883	-0.000114
 725	7.2038e+01	11.1510	45.147289	0.000345	3.447371	1.168001	-0.000138
 726	7.2138e+01	11.1141	44.981766	0.000416	4.157123	1.408472	-0.000166
 727	7.2237e+01	11.0740	44.864689	0.000294	2.940404	0.996236	-0.000118
 728	7.2337e+01	11.0419	44.703204	0.000406	4.055730	1.374119	-0.000162
 729	7.2436e+01	10.9922	44.590164	0.000284	2.839011	0.961883	-0.000114
 730	7.2535e+01	10.9537	44.456939	0.000335	3.345977	1.133648	-0.000134
 731	7.2635e+01	10.9200	44.339862	0.000294	2.940404	0.996236	-0.000118
 732	7.2734e+01	10.8751	44.202599	0.000345	3.447371	1.168001	-0.000138
 733	7.2834e+01	10.8302	44.065337	0.000345	3.447371	1.168001	-0.000138
 734	7.2933e+01	10.7949	43.980557	0.000213	2.129258	0.721412	-0.000085
 735	7.3033e+01	10.7516	43.835220	0.000365	3.650157	1.236707	-0.000146
 736	7.3132e+01	10.7179	43.714106	0.000304	3.041798	1.030589	-0.000122
 737	7.3232e+01	10.6746	43.572806	0.000355	3.548764	1.202354	-0.000142
 738	7.3332e+01	10.6264	43.427469	0.000365	3.650157	1.236707	-0.000146
 739	7.3431e+01	10.5944	43.338652	0.000223	2.230652	0.755765	-0.000089
 740	7.3531e+01	10.5575	43.274058	0.000162	1.622292	0.549647	-0.000065
 741	7.3630e+01	10.5174	43.120647	0.000385	3.852944	1.305413	-0.000154
 742	7.3730e+01	10.4692	43.027793	0.000233	2.332045	0.790118	-0.000093
 743	7.3829e+01	10.4355	42.858233	0.000426	4.258517	1.442825	-0.000170
 744	7.3928e+01	10.3970	42.688673	0.000426	4.258517	1.442825	-0.000170
 745	7.4028e+01	10.3489	42.563522	0.000314	3.143191	1.064942	-0.000126
 746	7.4127e+01	10.3168	42.422222	0.000355	3.548764	1.202354	-0.000142
 747	7.4227e+01	10.2815	42.333405	0.000223	2.230652	0.755765	-0.000089
 748	7.4326e+01	10.2382	42.184031	0.000375	3.751550	1.271060	-0.000150
 749	7.4426e+01	10.1981	42.046769	0.000345	3.447371	1.168001	-0.000138
 750	7.4525e+01	10.1484	41.865098	0.000456	4.562696	1.545883	-0.000183
 751	7.4625e+01	10.1131	41.772243	0.000233	2.332045	0.790118	-0.000093
 752	7.4725e+01	10.0778	41.602684	0.000426	4.258517	1.442825	-0.000170
 753	7.4824e+01	10.0297	41.530015	0.000183	1.825079	0.618353	-0.000073
 754	7.4924e+01	9.9960	41.392753	0.000345	3.447371	1.168001	-0.000138
 755	7.5023e+01	9.9543	41.263564	0.000324	3.244584	1.099295	-0.000130
 756	7.5123e+01	9.9174	41.089968	0.000436	4.359910	1.477177	-0.000174
 757	7.5222e+01	9.8773	41.025373	0.000162	1.622292	0.549647	-0.000065
 758	7.5322e+01	9.8372	40.880036	0.000365	3.650157	1.236707	-0.000146
 759	7.5421e+01	9.7954	40.783145	0.000243	2.433438	0.824471	-0.000097
 760	7.5520e+01	9.7521	40.633771	0.000375	3.751550	1.271060	-0.000150
 761	7.5620e+01	9.7168	40.480360	0.000385	3.852944	1.305413	-0.000154
 762	7.5719e+01	9.6799	40.355209	0.000314	3.143191	1.064942	-0.000126
 763	7.5819e+01	9.6382	40.185649	0.000426	4.258517	1.442825	-0.000170
 764	7.5918e+01	9.6029	40.040312	0.000365	3.650157	1.236707	-0.000146
 765	7.6018e+01	9.5596	39.907087	0.000335	3.345977	1.133648	-0.000134
 766	7.6118e+01	9.5163	39.790010	0.000294	2.940404	0.996236	-0.000118
 767	7.6217e+01	9.4794	39.676970	0.000284	2.839011	0.961883	-0.000114
 768	7.6317e+01	9.4473	39.519522	0.000395	3.954337	1.339766	-0.000158
 769	7.6416e+01	9.3992	39.366111	0.000385	3.852944	1.305413	-0.000154
 770	7.6516e+01	9.3575	39.261145	0.000264	2.636225	0.893177	-0.000105
 771	7.6615e+01	9.3254	39.111771	0.000375	3.751550	1.271060	-0.000150
 772	7.6715e+01	9.2821	38.986620	0.000314	3.143191	1.064942	-0.000126
 773	7.6814e+01	9.2356	38.849357	0.000345	3.447371	1.168001	-0.000138
 774	7.6913e+01	9.1890	38.724206	0.000314	3.143191	1.064942	-0.000126
 775	7.7013e+01	9.1618	38.647500	0.000193	1.926472	0.652706	-0.000077
 776	7.7112e+01	9.1217	38.494089	0.000385	3.852944	1.305413	-0.000154
 777	7.7212e+01	9.0848	38.368938	0.000314	3.143191	1.064942	-0.000126
 778	7.7311e+01	9.0382	38.219564	0.000375	3.751550	1.271060	-0.000150
 779	7.7411e+01	8.9981	38.074227	0.000365	3.650157	1.236707	-0.000146
 780	7.7510e+01	8.9580	37.957150	0.000294	2.940404	0.996236	-0.000118
 781	7.7610e+01	8.9211	37.803739	0.000385	3.852944	1.305413	-0.000154
 782	7.7710e+01	8.8907	37.589771	0.000537	5.373843	1.820707	-0.000215
 783	7.7809e+01	8.8425	37.504991	0.000213	2.129258	0.721412	-0.000085
 784	7.7909e+01	8.8008	37.351580	0.000385	3.852944	1.305413	-0.000154
 785	7.8008e+01	8.7607	37.198169	0.000385	3.852944	1.305413	-0.000154
 786	7.8108e+01	8.7270	37.068980	0.000324	3.244584	1.099295	-0.000130
 787	7.8207e+01	8.6757	36.951903	0.000294	2.940404	0.996236	-0.000118
 788	7.8306e+01	8.6436	36.782344	0.000426	4.258517	1.442825	-0.000170
 789	7.8406e+01	8.6019	36.681415	0.000253	2.534831	0.858824	-0.000101
 790	7.8505e+01	8.5618	36.523967	0.000395	3.954337	1.339766	-0.000158
 791	7.8605e+01	8.5281	36.386704	0.000345	3.447371	1.168001	-0.000138
 792	7.8704e+01	8.4832	36.289813	0.000243	2.433438	0.824471	-0.000097
 793	7.8804e+01	8.4415	36.144476	0.000365	3.650157	1.236707	-0.000146
 794	7.8903e+01	8.4030	36.003177	0.000355	3.548764	1.202354	-0.000142
 795	7.9003e+01	8.3629	35.873988	0.000324	3.244584	1.099295	-0.000130
 796	7.9103e+01	8.3196	35.748837	0.000314	3.143191	1.064942	-0.000126
 797	7.9202e+01	8.2907	35.579277	0.000426	4.258517	1.442825	-0.000170
 798	7.9302e+01	8.2458	35.381458	0.000497	4.968270	1.683295	-0.000199
 799	7.9401e+01	8.2073	35.268418	0.000284	2.839011	0.961883	-0.000114
 800	7.9501e+01	8.1671	35.123081	0.000365	3.650157	1.236707	-0.000146
 801	7.9600e+01	8.1206	35.014078	0.000274	2.737618	0.927530	-0.000110
 802	7.9700e+01	8.0853	34.836444	0.000446	4.461303	1.511530	-0.000179
 803	7.9799e+01	8.0452	34.723404	0.000284	2.839011	0.961883	-0.000114
 804	7.9898e+01	8.0035	34.569993	0.000385	3.852944	1.305413	-0.000154
 805	7.9998e+01	7.9634	34.380248	0.000477	4.765483	1.614589	-0.000191
 806	8.0097e+01	7.9201	34.271245	0.000274	2.737618	0.927530	-0.000110
 807	8.0197e+01	7.8896	34.146094	0.000314	3.143191	1.064942	-0.000126
 808	8.0296e+01	7.8351	33.992683	0.000385	3.852944	1.305413	-0.000154
 809	8.0396e+01	7.8014	33.863495	0.000324	3.244584	1.099295	-0.000130
 810	8.0496e+01	7.7677	33.730269	0.000335	3.345977	1.133648	-0.000134
 811	8.0595e+01	7.7164	33.597044	0.000335	3.345977	1.133648	-0.000134
 812	8.0695e+01	7.6875	33.455744	0.000355	3.548764	1.202354	-0.000142
 813	8.0794e+01	7.6490	33.334630	0.000304	3.041798	1.030589	-0.000122
 814	8.0894e+01	7.6025	33.193330	0.000355	3.548764	1.202354	-0.000142
 815	8.0993e+01	7.5704	33.031845	0.000406	4.055730	1.374119	-0.000162
 816	8.1093e+01	7.5271	32.886508	0.000365	3.650157	1.236707	-0.000146
 817	8.1192e+01	7.4837	32.737134	0.000375	3.751550	1.271060	-0.000150
 818	8.1291e+01	7.4372	32.579685	0.000395	3.954337	1.339766	-0.000158
 819	8.1391e+01	7.4051	32.434349	0.000365	3.650157	1.236707	-0.000146
 820	8.1490e+01	7.3650	32.293049	0.000355	3.548764	1.202354	-0.000142
 821	8.1590e+01	7.3233	32.151749	0.000355	3.548764	1.202354	-0.000142
 822	8.1689e+01	7.2944	32.030635	0.000304	3.041798	1.030589	-0.000122
 823	8.1789e+01	7.2543	31.877224	0.000385	3.852944	1.305413	-0.000154
 824	8.1888e+01	7.2014	31.739961	0.000345	3.447371	1.168001	-0.000138
 825	8.1988e+01	7.1661	31.586550	0.000385	3.852944	1.305413	-0.000154
 826	8.2088e+01	7.1292	31.433139	0.000385	3.852944	1.305413	-0.000154
 827	8.2187e+01	7.0843	31.267616	0.000416	4.157123	1.408472	-0.000166
 828	8.2287e+01	7.0474	31.146502	0.000304	3.041798	1.030589	-0.000122
 829	8.2386e+01	7.0089	31.005202	0.000355	3.548764	1.202354	-0.000142
 830	8.2486e+01	6.9656	30.884088	0.000304	3.041798	1.030589	-0.000122
 831	8.2585e+01	6.9239	30.775086	0.000274	2.737618	0.927530	-0.000110
 832	8.2684e+01	6.8822	30.641860	0.000335	3.345977	1.133648	-0.000134
 833	8.2784e+01	6.8453	30.440003	0.000507	5.069663	1.717648	-0.000203
 834	8.2883e+01	6.8212	30.302741	0.000345	3.447371	1.168001	-0.000138
 835	8.2983e+01	6.7650	30.153367	0.000375	3.751550	1.271060	-0.000150
 836	8.3082e+01	6.7298	29.967659	0.000466	4.664090	1.580236	-0.000187
 837	8.3182e+01	6.6832	29.842507	0.000314	3.143191	1.064942	-0.000126
 838	8.3281e+01	6.6447	29.672948	0.000426	4.258517	1.442825	-0.000170
 839	8.3381e+01	6.6159	29.551834	0.000304	3.041798	1.030589	-0.000122
 840	8.3481e+01	6.5725	29.374200	0.000446	4.461303	1.511530	-0.000179
 841	8.3580e+01	6.5212	29.224826	0.000375	3.751550	1.271060	-0.000150
 842	8.3680e+01	6.4939	29.075452	0.000375	3.751550	1.271060	-0.000150
 843	8.3779e+01	6.4410	28.930115	0.000365	3.650157	1.236707	-0.000146
 844	8.3879e+01	6.4137	28.792852	0.000345	3.447371	1.168001	-0.000138
 845	8.3978e+01	6.3784	28.635404	0.000395	3.954337	1.339766	-0.000158
 846	8.4078e+01	6.3351	28.514290	0.000304	3.041798	1.030589	-0.000122
 847	8.4177e+01	6.2918	28.336656	0.000446	4.461303	1.511530	-0.000179
 848	8.4276e+01	6.2437	28.215542	0.000304	3.041798	1.030589	-0.000122
 849	8.4376e+01	6.2052	28.090390	0.000314	3.143191	1.064942	-0.000126
 850	8.4475e+01	6.1699	27.892571	0.000497	4.968270	1.683295	-0.000199
 851	8.4575e+01	6.1314	27.787605	0.000264	2.636225	0.893177	-0.000105
 852	8.4674e+01	6.0833	27.634194	0.000385	3.852944	1.305413	-0.000154
 853	8.4774e+01	6.0544	27.476746	0.000395	3.954337	1.339766	-0.000158
 854	8.4874e+01	6.0127	27.319298	0.000395	3.954337	1.339766	-0.000158
 855	8.4973e+01	5.9822	27.129552	0.000477	4.765483	1.614589	-0.000191
 856	8.5073e+01	5.9373	27.012475	0.000294	2.940404	0.996236	-0.000118
 857	8.5172e+01	5.8940	26.822730	0.000477	4.765483	1.614589	-0.000191
 858	8.5272e+01	5.8571	26.673356	0.000375	3.751550	1.271060	-0.000150
 859	8.5371e+01	5.8169	26.495722	0.000446	4.461303	1.511530	-0.000179
 860	8.5471e+01	5.7752	26.386719	0.000274	2.737618	0.927530	-0.000110
 861	8.5570e+01	5.7367	26.201011	0.000466	4.664090	1.580236	-0.000187
 862	8.5669e+01	5.6934	26.063748	0.000345	3.447371	1.168001	-0.000138
 863	8.5769e+01	5.6533	25.938597	0.000314	3.143191	1.064942	-0.000126
 864	8.5868e+01	5.6084	25.736740	0.000507	5.069663	1.717648	-0.000203
 865	8.5968e+01	5.5651	25.623701	0.000284	2.839011	0.961883	-0.000114
 866	8.6067e+01	5.5346	25.478364	0.000365	3.650157	1.236707	-0.000146
 867	8.6167e+01	5.4993	25.337064	0.000355	3.548764	1.202354	-0.000142
 868	8.6266e+01	5.4400	25.195764	0.000355	3.548764	1.202354	-0.000142
 869	8.6366e+01	5.4127	25.082724	0.000284	2.839011	0.961883	-0.000114
 870	8.6466e+01	5.3854	24.901053	0.000456	4.562696	1.545883	-0.000183
 871	8.6565e+01	5.3437	24.751679	0.000375	3.751550	1.271060	-0.000150
 872	8.6665e+01	5.3036	24.545785	0.000517	5.171056	1.752001	-0.000207
 873	8.6764e+01	5.2571	24.404486	0.000355	3.548764	1.202354	-0.000142
 874	8.6864e+01	5.2138	24.214740	0.000477	4.765483	1.614589	-0.000191
 875	8.6963e+01	5.1753	24.037106	0.000446	4.461303	1.511530	-0.000179
 876	8.7063e+01	5.1351	23.875621	0.000406	4.055730	1.374119	-0.000162
 877	8.7162e+01	5.0999	23.770655	0.000264	2.636225	0.893177	-0.000105
 878	8.7261e+01	5.0549	23.556687	0.000537	5.373843	1.820707	-0.000215
 879	8.7361e+01	5.0261	23.419424	0.000345	3.447371	1.168001	-0.000138
 880	8.7460e+01	4.9779	23.314459	0.000264	2.636225	0.893177	-0.000105
 881	8.7560e+01	4.9314	23.132788	0.000456	4.562696	1.545883	-0.000183
 882	8.7659e+01	4.8913	22.999562	0.000335	3.345977	1.133648	-0.000134
 883	8.7759e+01	4.8544	22.789631	0.000527	5.272449	1.786354	-0.000211
 884	8.7859e+01	4.8287	22.676591	0.000284	2.839011	0.961883	-0.000114
 885	8.7958e+01	4.7758	22.519143	0.000395	3.954337	1.339766	-0.000158
 886	8.8058e+01	4.7453	22.377843	0.000355	3.548764	1.202354	-0.000142
 887	8.8157e+01	4.6940	22.232507	0.000365	3.650157	1.236707	-0.000146
 888	8.8257e+01	4.6587	22.083132	0.000375	3.751550	1.271060	-0.000150
 889	8.8356e+01	4.6122	21.925684	0.000395	3.954337	1.339766	-0.000158
 890	8.8456e+01	4.5769	21.768236	0.000395	3.954337	1.339766	-0.000158
 891	8.8555e+01	4.5416	21.546193	0.000558	5.576629	1.889413	-0.000223
 892	8.8654e+01	4.5063	21.396819	0.000375	3.751550	1.271060	-0.000150
 893	8.8754e+01	4.4582	21.227260	0.000426	4.258517	1.442825	-0.000170
 894	8.8853e+01	4.4245	21.037514	0.000477	4.765483	1.614589	-0.000191
 895	8.8953e+01	4.3731	20.896215	0.000355	3.548764	1.202354	-0.000142
 896	8.9052e+01	4.3411	20.750878	0.000365	3.650157	1.236707	-0.000146
 897	8.9152e+01	4.3009	20.601504	0.000375	3.751550	1.271060	-0.000150
 898	8.9251e+01	4.2592	20.395610	0.000517	5.171056	1.752001	-0.000207
 899	8.9351e+01	4.2159	20.246236	0.000375	3.751550	1.271060	-0.000150
 900	8.9451e+01	4.1806	20.080713	0.000416	4.157123	1.408472	-0.000166
 901	8.9550e+01	4.1421	19.939413	0.000355	3.548764	1.202354	-0.000142
 902	8.9650e+01	4.0972	19.773891	0.000416	4.157123	1.408472	-0.000166
 903	8.9749e+01	4.0619	19.584145	0.000477	4.765483	1.614589	-0.000191
 904	8.9849e+01	4.0202	19.434771	0.000375	3.751550	1.271060	-0.000150
 905	8.9948e+01	3.9833	19.317695	0.000294	2.940404	0.996236	-0.000118
 906	9.0047e+01	3.9416	19.152172	0.000416	4.157123	1.408472	-0.000166
 907	9.0147e+01	3.8951	19.027021	0.000314	3.143191	1.064942	-0.000126
 908	9.0246e+01	3.8614	18.833238	0.000487	4.866876	1.648942	-0.000195
 909	9.0346e+01	3.8325	18.675790	0.000395	3.954337	1.339766	-0.000158
 910	9.0445e+01	3.7812	18.449710	0.000568	5.678022	1.923766	-0.000227
 911	9.0545e+01	3.7507	18.288225	0.000406	4.055730	1.374119	-0.000162
 912	9.0644e+01	3.6994	18.122702	0.000416	4.157123	1.408472	-0.000166
 913	9.0744e+01	3.6577	17.985440	0.000345	3.447371	1.168001	-0.000138
 914	9.0844e+01	3.6224	17.791657	0.000487	4.866876	1.648942	-0.000195
 915	9.0943e+01	3.5823	17.614023	0.000446	4.461303	1.511530	-0.000179
 916	9.1043e+01	3.5389	17.452538	0.000406	4.055730	1.374119	-0.000162
 917	9.1142e+01	3.5020	17.323349	0.000324	3.244584	1.099295	-0.000130
 918	9.1242e+01	3.4571	17.157827	0.000416	4.157123	1.408472	-0.000166
 919	9.1341e+01	3.4234	16.951933	0.000517	5.171056	1.752001	-0.000207
 920	9.1441e+01	3.3769	16.830819	0.000304	3.041798	1.030589	-0.000122
 921	9.1540e+01	3.3400	16.628962	0.000507	5.069663	1.717648	-0.000203
 922	9.1639e+01	3.2967	16.463440	0.000416	4.157123	1.408472	-0.000166
 923	9.1739e+01	3.2646	16.322140	0.000355	3.548764	1.202354	-0.000142
 924	9.1838e+01	3.2213	16.201026	0.000304	3.041798	1.030589	-0.000122
 925	9.1938e+01	3.1860	16.043577	0.000395	3.954337	1.339766	-0.000158
 926	9.2037e+01	3.1443	15.874018	0.000426	4.258517	1.442825	-0.000170
 927	9.2137e+01	3.0962	15.728681	0.000365	3.650157	1.236707	-0.000146
 928	9.2237e+01	3.0753	15.494527	0.000588	5.880809	1.992472	-0.000235
 929	9.2336e+01	3.0192	15.357264	0.000345	3.447371	1.168001	-0.000138
 930	9.2436e+01	2.9887	15.151370	0.000517	5.171056	1.752001	-0.000207
 931	9.2535e+01	2.9470	14.997959	0.000385	3.852944	1.305413	-0.000154
 932	9.2635e+01	2.9069	14.800140	0.000497	4.968270	1.683295	-0.000199
 933	9.2734e+01	2.8620	14.622506	0.000446	4.461303	1.511530	-0.000179
 934	9.2834e+01	2.8251	14.477169	0.000365	3.650157	1.236707	-0.000146
 935	9.2933e+01	2.7849	14.299535	0.000446	4.461303	1.511530	-0.000179
 936	9.3032e+01	2.7481	14.097678	0.000507	5.069663	1.717648	-0.000203
 937	9.3132e+01	2.7031	13.968490	0.000324	3.244584	1.099295	-0.000130
 938	9.3231e+01	2.6775	13.794893	0.000436	4.359910	1.477177	-0.000174
 939	9.3331e+01	2.6261	13.617259	0.000446	4.461303	1.511530	-0.000179
 940	9.3430e+01	2.5860	13.479996	0.000345	3.447371	1.168001	-0.000138
 941	9.3530e+01	2.5443	13.278139	0.000507	5.069663	1.717648	-0.000203
 942	9.3629e+01	2.5042	13.120691	0.000395	3.954337	1.339766	-0.000158
 943	9.3729e+01	2.4577	12.995540	0.000314	3.143191	1.064942	-0.000126
 944	9.3829e+01	2.4288	12.858277	0.000345	3.447371	1.168001	-0.000138
 945	9.3928e+01	2.3823	12.680643	0.000446	4.461303	1.511530	-0.000179
 946	9.4028e+01	2.3470	12.490898	0.000477	4.765483	1.614589	-0.000191
 947	9.4127e+01	2.3117	12.289041	0.000507	5.069663	1.717648	-0.000203
 948	9.4227e+01	2.2668	12.107370	0.000456	4.562696	1.545883	-0.000183
 949	9.4326e+01	2.2267	11.909550	0.000497	4.968270	1.683295	-0.000199
 950	9.4425e+01	2.1850	11.756139	0.000385	3.852944	1.305413	-0.000154
 951	9.4525e+01	2.1449	11.586580	0.000426	4.258517	1.442825	-0.000170
 952	9.4624e+01	2.1031	11.372611	0.000537	5.373843	1.820707	-0.000215
 953	9.4724e+01	2.0646	11.239386	0.000335	3.345977	1.133648	-0.000134
 954	9.4823e+01	2.0310	11.053678	0.000466	4.664090	1.580236	-0.000187
 955	9.4923e+01	1.9844	10.904304	0.000375	3.751550	1.271060	-0.000150
 956	9.5022e+01	1.9459	10.706484	0.000497	4.968270	1.683295	-0.000199
 957	9.5122e+01	1.9058	10.557110	0.000375	3.751550	1.271060	-0.000150
 958	9.5222e+01	1.8673	10.359290	0.000497	4.968270	1.683295	-0.000199
 959	9.5321e+01	1.8320	10.197805	0.000406	4.055730	1.374119	-0.000162
 960	9.5421e+01	1.7839	10.072654	0.000314	3.143191	1.064942	-0.000126
 961	9.5520e+01	1.7422	9.951540	0.000304	3.041798	1.030589	-0.000122
 962	9.5620e+01	1.7069	9.733534	0.000548	5.475236	1.855060	-0.000219
 963	9.5719e+01	1.6636	9.563975	0.000426	4.258517	1.442825	-0.000170
 964	9.5819e+01	1.6363	9.362118	0.000507	5.069663	1.717648	-0.000203
 965	9.5918e+01	1.5834	9.180447	0.000456	4.562696	1.545883	-0.000183
 966	9.6017e+01	1.5449	8.958404	0.000558	5.576629	1.889413	-0.000223
 967	9.6117e+01	1.5096	8.788845	0.000426	4.258517	1.442825	-0.000170
 968	9.6216e+01	1.4663	8.631396	0.000395	3.954337	1.339766	-0.000158
 969	9.6316e+01	1.4262	8.461837	0.000426	4.258517	1.442825	-0.000170
 970	9.6415e+01	1.3925	8.280165	0.000456	4.562696	1.545883	-0.000183
 971	9.6515e+01	1.3524	8.070234	0.000527	5.272449	1.786354	-0.000211
 972	9.6615e+01	1.3139	7.928935	0.000355	3.548764	1.202354	-0.000142
 973	9.6714e+01	1.2706	7.743226	0.000466	4.664090	1.580236	-0.000187
 974	9.6814e+01	1.2304	7.525221	0.000548	5.475236	1.855060	-0.000219
 975	9.6913e+01	1.1919	7.367773	0.000395	3.954337	1.339766	-0.000158
 976	9.7013e+01	1.1470	7.214362	0.000385	3.852944	1.305413	-0.000154
 977	9.7112e+01	1.1085	7.008468	0.000517	5.171056	1.752001	-0.000207
 978	9.7212e+01	1.0604	6.911576	0.000243	2.433438	0.824471	-0.000097
 979	9.7311e+01	1.0283	6.742017	0.000426	4.258517	1.442825	-0.000170
 980	9.7410e+01	0.9914	6.556308	0.000466	4.664090	1.580236	-0.000187
 981	9.7510e+01	0.9433	6.378674	0.000446	4.461303	1.511530	-0.000179
 982	9.7609e+01	0.9112	6.205078	0.000436	4.359910	1.477177	-0.000174
 983	9.7709e+01	0.8743	5.995147	0.000527	5.272449	1.786354	-0.000211
 984	9.7808e+01	0.8422	5.797327	0.000497	4.968270	1.683295	-0.000199
 985	9.7908e+01	0.7925	5.619693	0.000446	4.461303	1.511530	-0.000179
 986	9.8007e+01	0.7540	5.421873	0.000497	4.968270	1.683295	-0.000199
 987	9.8107e+01	0.7027	5.252314	0.000426	4.258517	1.442825	-0.000170
 988	9.8207e+01	0.6818	5.098902	0.000385	3.852944	1.305413	-0.000154
 989	9.8306e+01	0.6305	4.905120	0.000487	4.866876	1.648942	-0.000195
 990	9.8406e+01	0.5888	4.715375	0.000477	4.765483	1.614589	-0.000191
 991	9.8505e+01	0.5551	4.537741	0.000446	4.461303	1.511530	-0.000179
 992	9.8605e+01	0.4989	4.335884	0.000507	5.069663	1.717648	-0.000203
 993	9.8704e+01	0.4604	4.190547	0.000365	3.650157	1.236707	-0.000146
 994	9.8803e+01	0.4380	4.012913	0.000446	4.461303	1.511530	-0.000179
 995	9.8903e+01	0.3914	3.855465	0.000395	3.954337	1.339766	-0.000158
 996	9.9002e+01	0.3545	3.685905	0.000426	4.258517	1.442825	-0.000170
 997	9.9102e+01	0.3064	3.496160	0.000477	4.765483	1.614589	-0.000191
 998	9.9201e+01	0.2679	3.326600	0.000426	4.258517	1.442825	-0.000170
 999	9.9301e+01	0.2326	3.157040	0.000426	4.258517	1.442825	-0.000170
1000	9.9400e+01	0.2053	2.947109	0.000527	5.272449	1.786354	-0.000211
1001	9.9500e+01	0.1652	2.817921	0.000324	3.244584	1.099295	-0.000130
1002	9.9600e+01	0.1187	2.575693	0.000608	6.083595	2.061178	-0.000243
1003	9.9699e+01	0.0754	2.398059	0.000446	4.461303	1.511530	-0.000179
1004	9.9799e+01	0.0369	2.212350	0.000466	4.664090	1.580236	-0.000187
1005	9.9898e+01	0.0048	2.103348	0.000274	2.737618	0.927530	-0.000110
1006	9.9998e+01	-0.0369	1.861120	0.000608	6.083595	2.061178	-0.000243
1007	1.0010e+02	-0.0834	1.655226	0.000517	5.171056	1.752001	-0.000207
1008	1.0020e+02	-0.1235	1.513926	0.000355	3.548764	1.202354	-0.000142
1009	1.0030e+02	-0.1524	1.348403	0.000416	4.157123	1.408472	-0.000166
1010	1.0040e+02	-0.1909	1.138472	0.000527	5.272449	1.786354	-0.000211
1011	1.0050e+02	-0.2342	0.972950	0.000416	4.157123	1.408472	-0.000166
1012	1.0059e+02	-0.2679	0.807427	0.000416	4.157123	1.408472	-0.000166
1013	1.0069e+02	-0.3257	0.641905	0.000416	4.157123	1.408472	-0.000166
1014	1.0079e+02	-0.3610	0.444085	0.000497	4.968270	1.683295	-0.000199
1015	1.0089e+02	-0.3978	0.290674	0.000385	3.852944	1.305413	-0.000154
1016	1.0099e+02	-0.4331	0.104966	0.000466	4.664090	1.580236	-0.000187
1017	1.0109e+02	-0.4813	-0.032297	0.000345	3.447371	1.168001	-0.000138
1018	1.0119e+02	-0.5134	-0.226080	0.000487	4.866876	1.648942	-0.000195
1019	1.0129e+02	-0.5422	-0.436011	0.000527	5.272449	1.786354	-0.000211
1020	1.0139e+02	-0.5952	-0.674202	0.000598	5.982202	2.026825	-0.000239
1021	1.0149e+02	-0.6401	-0.847799	0.000436	4.359910	1.477177	-0.000174
1022	1.0159e+02	-0.6609	-1.045618	0.000497	4.968270	1.683295	-0.000199
1023	1.0169e+02	-0.7203	-1.251512	0.000517	5.171056	1.752001	-0.000207
1024	1.0179e+02	-0.7508	-1.400886	0.000375	3.751550	1.271060	-0.000150
1025	1.0189e+02	-0.7973	-1.558334	0.000395	3.954337	1.339766	-0.000158
1026	1.0199e+02	-0.8390	-1.719820	0.000406	4.055730	1.374119	-0.000162
1027	1.0209e+02	-0.8711	-1.929751	0.000527	5.272449	1.786354	-0.000211
1028	1.0219e+02	-0.9192	-2.103348	0.000436	4.359910	1.477177	-0.000174
1029	1.0229e+02	-0.9674	-2.305205	0.000507	5.069663	1.717648	-0.000203
1030	1.0239e+02	-0.9962	-2.450541	0.000365	3.650157	1.236707	-0.000146
1031	1.0248e+02	-1.0444	-2.656435	0.000517	5.171056	1.752001	-0.000207
1032	1.0258e+02	-1.0829	-2.813884	0.000395	3.954337	1.339766	-0.000158
1033	1.0268e+02	-1.1165	-2.963258	0.000375	3.751550	1.271060	-0.000150
1034	1.0278e+02	-1.1599	-3.132817	0.000426	4.258517	1.442825	-0.000170
1035	1.0288e+02	-1.1952	-3.334674	0.000507	5.069663	1.717648	-0.000203
1036	1.0298e+02	-1.2337	-3.504234	0.000426	4.258517	1.442825	-0.000170
1037	1.0308e+02	-1.2689	-3.742425	0.000598	5.982202	2.026825	-0.000239
1038	1.0318e+02	-1.3155	-3.956393	0.000537	5.373843	1.820707	-0.000215
1039	1.0328e+02	-1.3492	-4.125953	0.000426	4.258517	1.442825	-0.000170
1040	1.0338e+02	-1.3925	-4.335884	0.000527	5.272449	1.786354	-0.000211
1041	1.0348e+02	-1.4310	-4.493332	0.000395	3.954337	1.339766	-0.000158
1042	1.0358e+02	-1.4807	-4.695189	0.000507	5.069663	1.717648	-0.000203
1043	1.0368e+02	-1.5080	-4.868786	0.000436	4.359910	1.477177	-0.000174
1044	1.0378e+02	-1.5561	-5.022197	0.000385	3.852944	1.305413	-0.000154
1045	1.0388e+02	-1.6010	-5.224054	0.000507	5.069663	1.717648	-0.000203
1046	1.0398e+02	-1.6171	-5.405725	0.000456	4.562696	1.545883	-0.000183
1047	1.0408e+02	-1.6700	-5.563173	0.000395	3.954337	1.339766	-0.000158
1048	1.0418e+02	-1.7069	-5.756956	0.000487	4.866876	1.648942	-0.000195
1049	1.0428e+02	-1.7598	-5.942664	0.000466	4.664090	1.580236	-0.000187
1050	1.0438e+02	-1.7919	-6.079926	0.000345	3.447371	1.168001	-0.000138
1051	1.0447e+02	-1.8417	-6.245449	0.000416	4.157123	1.408472	-0.000166
1052	1.0457e+02	-1.8705	-6.435194	0.000477	4.765483	1.614589	-0.000191
1053	1.0467e+02	-1.9090	-6.608791	0.000436	4.359910	1.477177	-0.000174
1054	1.0477e+02	-1.9411	-6.794499	0.000466	4.664090	1.580236	-0.000187
1055	1.0487e+02	-1.9925	-6.980208	0.000466	4.664090	1.580236	-0.000187
1056	1.0497e+02	-2.0229	-7.202250	0.000558	5.576629	1.889413	-0.000223
1057	1.0507e+02	-2.0711	-7.408144	0.000517	5.171056	1.752001	-0.000207
1058	1.0517e+02	-2.1112	-7.581741	0.000436	4.359910	1.477177	-0.000174
1059	1.0527e+02	-2.1384	-7.759375	0.000446	4.461303	1.511530	-0.000179
1060	1.0537e+02	-2.1914	-7.941046	0.000456	4.562696	1.545883	-0.000183
1061	1.0547e+02	-2.2347	-8.122717	0.000456	4.562696	1.545883	-0.000183
1062	1.0557e+02	-2.2700	-8.324574	0.000507	5.069663	1.717648	-0.000203
1063	1.0567e+02	-2.3117	-8.502208	0.000446	4.461303	1.511530	-0.000179
1064	1.0577e+02	-2.3534	-8.659656	0.000395	3.954337	1.339766	-0.000158
1065	1.0587e+02	-2.3839	-8.861513	0.000507	5.069663	1.717648	-0.000203
1066	1.0597e+02	-2.4272	-9.014924	0.000385	3.852944	1.305413	-0.000154
1067	1.0607e+02	-2.4657	-9.168335	0.000385	3.852944	1.305413	-0.000154
1068	1.0617e+02	-2.5138	-9.378266	0.000527	5.272449	1.786354	-0.000211
1069	1.0627e+02	-2.5523	-9.499380	0.000304	3.041798	1.030589	-0.000122
1070	1.0637e+02	-2.5973	-9.705274	0.000517	5.171056	1.752001	-0.000207
1071	1.0647e+02	-2.6213	-9.862723	0.000395	3.954337	1.339766	-0.000158
1072	1.0656e+02	-2.6678	-10.044394	0.000456	4.562696	1.545883	-0.000183
1073	1.0666e+02	-2.7079	-10.201842	0.000395	3.954337	1.339766	-0.000158
1074	1.0676e+02	-2.7432	-10.448107	0.000618	6.184989	2.095531	-0.000248
1075	1.0686e+02	-2.7833	-10.577296	0.000324	3.244584	1.099295	-0.000130
1076	1.0696e+02	-2.8218	-10.823561	0.000618	6.184989	2.095531	-0.000248
1077	1.0706e+02	-2.8764	-11.021381	0.000497	4.968270	1.683295	-0.000199
1078	1.0716e+02	-2.9053	-11.170755	0.000375	3.751550	1.271060	-0.000150
1079	1.0726e+02	-2.9502	-11.384723	0.000537	5.373843	1.820707	-0.000215
1080	1.0736e+02	-2.9855	-11.550245	0.000416	4.157123	1.408472	-0.000166
1081	1.0746e+02	-3.0224	-11.723842	0.000436	4.359910	1.477177	-0.000174
1082	1.0756e+02	-3.0625	-11.877253	0.000385	3.852944	1.305413	-0.000154
1083	1.0766e+02	-3.1090	-12.038739	0.000406	4.055730	1.374119	-0.000162
1084	1.0776e+02	-3.1491	-12.224447	0.000466	4.664090	1.580236	-0.000187
1085	1.0786e+02	-3.1940	-12.373821	0.000375	3.751550	1.271060	-0.000150
1086	1.0796e+02	-3.2213	-12.551455	0.000446	4.461303	1.511530	-0.000179
1087	1.0806e+02	-3.2598	-12.721015	0.000426	4.258517	1.442825	-0.000170
1088	1.0816e+02	-3.3063	-12.882500	0.000406	4.055730	1.374119	-0.000162
1089	1.0826e+02	-3.3416	-13.031874	0.000375	3.751550	1.271060	-0.000150
1090	1.0836e+02	-3.3817	-13.225657	0.000487	4.866876	1.648942	-0.000195
1091	1.0845e+02	-3.4250	-13.403291	0.000446	4.461303	1.511530	-0.000179
1092	1.0855e+02	-3.4684	-13.576887	0.000436	4.359910	1.477177	-0.000174
1093	1.0865e+02	-3.5052	-13.770670	0.000487	4.866876	1.648942	-0.000195
1094	1.0875e+02	-3.5421	-13.948304	0.000446	4.461303	1.511530	-0.000179
1095	1.0885e+02	-3.5806	-14.150161	0.000507	5.069663	1.717648	-0.000203
1096	1.0895e+02	-3.6272	-14.323758	0.000436	4.359910	1.477177	-0.000174
1097	1.0905e+02	-3.6609	-14.505429	0.000456	4.562696	1.545883	-0.000183
1098	1.0915e+02	-3.6994	-14.674988	0.000426	4.258517	1.442825	-0.000170
1099	1.0925e+02	-3.7411	-14.828400	0.000385	3.852944	1.305413	-0.000154
1100	1.0935e+02	-3.7860	-14.997959	0.000426	4.258517	1.442825	-0.000170
1101	1.0945e+02	-3.8389	-15.187705	0.000477	4.765483	1.614589	-0.000191
1102	1.0955e+02	-3.8582	-15.377450	0.000477	4.765483	1.614589	-0.000191
1103	1.0965e+02	-3.9063	-15.522787	0.000365	3.650157	1.236707	-0.000146
1104	1.0975e+02	-3.9368	-15.700421	0.000446	4.461303	1.511530	-0.000179
1105	1.0985e+02	-3.9849	-15.837684	0.000345	3.447371	1.168001	-0.000138
1106	1.0995e+02	-4.0266	-15.995132	0.000395	3.954337	1.339766	-0.000158
1107	1.1005e+02	-4.0683	-16.156617	0.000406	4.055730	1.374119	-0.000162
1108	1.1015e+02	-4.1036	-16.334251	0.000446	4.461303	1.511530	-0.000179
1109	1.1025e+02	-4.1453	-16.471514	0.000345	3.447371	1.168001	-0.000138
1110	1.1035e+02	-4.1919	-16.677408	0.000517	5.171056	1.752001	-0.000207
1111	1.1044e+02	-4.2272	-16.846967	0.000426	4.258517	1.442825	-0.000170
1112	1.1054e+02	-4.2624	-17.044787	0.000497	4.968270	1.683295	-0.000199
1113	1.1064e+02	-4.2929	-17.210310	0.000416	4.157123	1.408472	-0.000166
1114	1.1074e+02	-4.3443	-17.375832	0.000416	4.157123	1.408472	-0.000166
1115	1.1084e+02	-4.3796	-17.525206	0.000375	3.751550	1.271060	-0.000150
1116	1.1094e+02	-4.4197	-17.723026	0.000497	4.968270	1.683295	-0.000199
1117	1.1104e+02	-4.4582	-17.884511	0.000406	4.055730	1.374119	-0.000162
1118	1.1114e+02	-4.5031	-18.013700	0.000324	3.244584	1.099295	-0.000130
1119	1.1124e+02	-4.5448	-18.199408	0.000466	4.664090	1.580236	-0.000187
1120	1.1134e+02	-4.5817	-18.397228	0.000497	4.968270	1.683295	-0.000199
1121	1.1144e+02	-4.6186	-18.530453	0.000335	3.345977	1.133648	-0.000134
1122	1.1154e+02	-4.6715	-18.687901	0.000395	3.954337	1.339766	-0.000158
1123	1.1164e+02	-4.6988	-18.817090	0.000324	3.244584	1.099295	-0.000130
1124	1.1174e+02	-4.7437	-18.950315	0.000335	3.345977	1.133648	-0.000134
1125	1.1184e+02	-4.7806	-19.140061	0.000477	4.765483	1.614589	-0.000191
1126	1.1194e+02	-4.8223	-19.321732	0.000456	4.562696	1.545883	-0.000183
1127	1.1204e+02	-4.8592	-19.487254	0.000416	4.157123	1.408472	-0.000166
1128	1.1214e+02	-4.8993	-19.628554	0.000355	3.548764	1.202354	-0.000142
1129	1.1224e+02	-4.9394	-19.822336	0.000487	4.866876	1.648942	-0.000195
1130	1.1234e+02	-4.9795	-19.999970	0.000446	4.461303	1.511530	-0.000179
1131	1.1244e+02	-5.0277	-20.177604	0.000446	4.461303	1.511530	-0.000179
1132	1.1253e+02	-5.0630	-20.335053	0.000395	3.954337	1.339766	-0.000158
1133	1.1263e+02	-5.1015	-20.524798	0.000477	4.765483	1.614589	-0.000191
1134	1.1273e+02	-5.1400	-20.653986	0.000324	3.244584	1.099295	-0.000130
1135	1.1283e+02	-5.1785	-20.819509	0.000416	4.157123	1.408472	-0.000166
1136	1.1293e+02	-5.2170	-20.960809	0.000355	3.548764	1.202354	-0.000142
1137	1.1303e+02	-5.2651	-21.166703	0.000517	5.171056	1.752001	-0.000207
1138	1.1313e+02	-5.2972	-21.320114	0.000385	3.852944	1.305413	-0.000154
1139	1.1323e+02	-5.3373	-21.449302	0.000324	3.244584	1.099295	-0.000130
1140	1.1333e+02	-5.3806	-21.663270	0.000537	5.373843	1.820707	-0.000215
1141	1.1343e+02	-5.4239	-21.780347	0.000294	2.940404	0.996236	-0.000118
1142	1.1353e+02	-5.4592	-21.885313	0.000264	2.636225	0.893177	-0.000105
1143	1.1363e+02	-5.4977	-22.034687	0.000375	3.751550	1.271060	-0.000150
1144	1.1373e+02	-5.5266	-22.196172	0.000406	4.055730	1.374119	-0.000162
1145	1.1383e+02	-5.5795	-22.389955	0.000487	4.866876	1.648942	-0.000195
1146	1.1393e+02	-5.6196	-22.547403	0.000395	3.954337	1.339766	-0.000158
1147	1.1403e+02	-5.6581	-22.733111	0.000466	4.664090	1.580236	-0.000187
1148	1.1413e+02	-5.6934	-22.898634	0.000416	4.157123	1.408472	-0.000166
1149	1.1423e+02	-5.7335	-23.043971	0.000365	3.650157	1.236707	-0.000146
1150	1.1433e+02	-5.7704	-23.201419	0.000395	3.954337	1.339766	-0.000158
1151	1.1442e+02	-5.8202	-23.354830	0.000385	3.852944	1.305413	-0.000154
1152	1.1452e+02	-5.8554	-23.552650	0.000497	4.968270	1.683295	-0.000199
1153	1.1462e+02	-5.9068	-23.637430	0.000213	2.129258	0.721412	-0.000085
1154	1.1472e+02	-5.9421	-23.802952	0.000416	4.157123	1.408472	-0.000166
1155	1.1482e+02	-5.9854	-23.972512	0.000426	4.258517	1.442825	-0.000170
1156	1.1492e+02	-6.0287	-24.138035	0.000416	4.157123	1.408472	-0.000166
1157	1.1502e+02	-6.0560	-24.275297	0.000345	3.447371	1.168001	-0.000138
1158	1.1512e+02	-6.0913	-24.448894	0.000436	4.359910	1.477177	-0.000174
1159	1.1522e+02	-6.1378	-24.598268	0.000375	3.751550	1.271060	-0.000150
1160	1.1532e+02	-6.1747	-24.723419	0.000314	3.143191	1.064942	-0.000126
1161	1.1542e+02	-6.2164	-24.856645	0.000335	3.345977	1.133648	-0.000134
1162	1.1552e+02	-6.2533	-25.022167	0.000416	4.157123	1.408472	-0.000166
1163	1.1562e+02	-6.2982	-25.179616	0.000395	3.954337	1.339766	-0.000158
1164	1.1572e+02	-6.3271	-25.357250	0.000446	4.461303	1.511530	-0.000179
1165	1.1582e+02	-6.3784	-25.530846	0.000436	4.359910	1.477177	-0.000174
1166	1.1592e+02	-6.4121	-25.712518	0.000456	4.562696	1.545883	-0.000183
1167	1.1602e+02	-6.4586	-25.805372	0.000233	2.332045	0.790118	-0.000093
1168	1.1612e+02	-6.4875	-25.942634	0.000345	3.447371	1.168001	-0.000138
1169	1.1622e+02	-6.5228	-26.087971	0.000365	3.650157	1.236707	-0.000146
1170	1.1632e+02	-6.5709	-26.253494	0.000416	4.157123	1.408472	-0.000166
1171	1.1642e+02	-6.6078	-26.382682	0.000324	3.244584	1.099295	-0.000130
1172	1.1651e+02	-6.6560	-26.572427	0.000477	4.765483	1.614589	-0.000191
1173	1.1661e+02	-6.6832	-26.721801	0.000375	3.751550	1.271060	-0.000150
1174	1.1671e+02	-6.7249	-26.846953	0.000314	3.143191	1.064942	-0.000126
1175	1.1681e+02	-6.7650	-27.028624	0.000456	4.562696	1.545883	-0.000183
1176	1.1691e+02	-6.8132	-27.141664	0.000284	2.839011	0.961883	-0.000114
1177	1.1701e+02	-6.8661	-27.274889	0.000335	3.345977	1.133648	-0.000134
1178	1.1711e+02	-6.8886	-27.396003	0.000304	3.041798	1.030589	-0.000122
1179	1.1721e+02	-6.9383	-27.593823	0.000497	4.968270	1.683295	-0.000199
1180	1.1731e+02	-6.9624	-27.694751	0.000253	2.534831	0.858824	-0.000101
1181	1.1741e+02	-7.0009	-27.916794	0.000558	5.576629	1.889413	-0.000223
1182	1.1751e+02	-7.0426	-28.082316	0.000416	4.157123	1.408472	-0.000166
1183	1.1761e+02	-7.0891	-28.235727	0.000385	3.852944	1.305413	-0.000154
1184	1.1771e+02	-7.1292	-28.385101	0.000375	3.751550	1.271060	-0.000150
1185	1.1781e+02	-7.1645	-28.522364	0.000345	3.447371	1.168001	-0.000138
1186	1.1791e+02	-7.2030	-28.667701	0.000365	3.650157	1.236707	-0.000146
1187	1.1801e+02	-7.2431	-28.788815	0.000304	3.041798	1.030589	-0.000122
1188	1.1811e+02	-7.2912	-28.962412	0.000436	4.359910	1.477177	-0.000174
1189	1.1821e+02	-7.3313	-29.095637	0.000335	3.345977	1.133648	-0.000134
1190	1.1831e+02	-7.3666	-29.293457	0.000497	4.968270	1.683295	-0.000199
1191	1.1841e+02	-7.4180	-29.386311	0.000233	2.332045	0.790118	-0.000093
1192	1.1850e+02	-7.4485	-29.559908	0.000436	4.359910	1.477177	-0.000174
1193	1.1860e+02	-7.4950	-29.685059	0.000314	3.143191	1.064942	-0.000126
1194	1.1870e+02	-7.5335	-29.854619	0.000426	4.258517	1.442825	-0.000170
1195	1.1880e+02	-7.5656	-29.911139	0.000142	1.419506	0.480942	-0.000057
1196	1.1890e+02	-7.6121	-30.064550	0.000385	3.852944	1.305413	-0.000154
1197	1.1900e+02	-7.6506	-30.242184	0.000446	4.461303	1.511530	-0.000179
1198	1.1910e+02	-7.6763	-30.391558	0.000375	3.751550	1.271060	-0.000150
1199	1.1920e+02	-7.7212	-30.549006	0.000395	3.954337	1.339766	-0.000158
1200	1.1930e+02	-7.7549	-30.670120	0.000304	3.041798	1.030589	-0.000122
1201	1.1940e+02	-7.8014	-30.827568	0.000395	3.954337	1.339766	-0.000158
1202	1.1950e+02	-7.8527	-30.960794	0.000335	3.345977	1.133648	-0.000134
1203	1.1960e+02	-7.8880	-31.162651	0.000507	5.069663	1.717648	-0.000203
1204	1.1970e+02	-7.9265	-31.227245	0.000162	1.622292	0.549647	-0.000065
1205	1.1980e+02	-7.9682	-31.372582	0.000365	3.650157	1.236707	-0.000146
1206	1.1990e+02	-8.0099	-31.566364	0.000487	4.866876	1.648942	-0.000195
1207	1.2000e+02	-8.0436	-31.671330	0.000264	2.636225	0.893177	-0.000105
1208	1.2010e+02	-8.0869	-31.877224	0.000517	5.171056	1.752001	-0.000207
1209	1.2020e+02	-8.1190	-31.998338	0.000304	3.041798	1.030589	-0.000122
1210	1.2030e+02	-8.1688	-32.139638	0.000355	3.548764	1.202354	-0.000142
1211	1.2039e+02	-8.2057	-32.248640	0.000274	2.737618	0.927530	-0.000110
1212	1.2049e+02	-8.2538	-32.377829	0.000324	3.244584	1.099295	-0.000130
1213	1.2059e+02	-8.2859	-32.519128	0.000355	3.548764	1.202354	-0.000142
1214	1.2069e+02	-8.3260	-32.640242	0.000304	3.041798	1.030589	-0.000122
1215	1.2079e+02	-8.3613	-32.781542	0.000355	3.548764	1.202354	-0.000142
1216	1.2089e+02	-8.3966	-32.930916	0.000375	3.751550	1.271060	-0.000150
1217	1.2099e+02	-8.4527	-33.068179	0.000345	3.447371	1.168001	-0.000138
1218	1.2109e+02	-8.4800	-33.245813	0.000446	4.461303	1.511530	-0.000179
1219	1.2119e+02	-8.5121	-33.415373	0.000426	4.258517	1.442825	-0.000170
1220	1.2129e+02	-8.5602	-33.516301	0.000253	2.534831	0.858824	-0.000101
1221	1.2139e+02	-8.6051	-33.649526	0.000335	3.345977	1.133648	-0.000134
1222	1.2149e+02	-8.6404	-33.790826	0.000355	3.548764	1.202354	-0.000142
1223	1.2159e+02	-8.6869	-33.924052	0.000335	3.345977	1.133648	-0.000134
1224	1.2169e+02	-8.7222	-34.081500	0.000395	3.954337	1.339766	-0.000158
1225	1.2179e+02	-8.7591	-34.218763	0.000345	3.447371	1.168001	-0.000138
1226	1.2189e+02	-8.8040	-34.384285	0.000416	4.157123	1.408472	-0.000166
1227	1.2199e+02	-8.8425	-34.485213	0.000253	2.534831	0.858824	-0.000101
1228	1.2209e+02	-8.8826	-34.614402	0.000324	3.244584	1.099295	-0.000130
1229	1.2219e+02	-8.9260	-34.792036	0.000446	4.461303	1.511530	-0.000179
1230	1.2229e+02	-8.9661	-34.888927	0.000243	2.433438	0.824471	-0.000097
1231	1.2239e+02	-8.9933	-35.014078	0.000314	3.143191	1.064942	-0.000126
1232	1.2248e+02	-9.0431	-35.187675	0.000436	4.359910	1.477177	-0.000174
1233	1.2258e+02	-9.0800	-35.300715	0.000284	2.839011	0.961883	-0.000114
1234	1.2268e+02	-9.1185	-35.409718	0.000274	2.737618	0.927530	-0.000110
1235	1.2278e+02	-9.1586	-35.619649	0.000527	5.272449	1.786354	-0.000211
1236	1.2288e+02	-9.1890	-35.740763	0.000304	3.041798	1.030589	-0.000122
1237	1.2298e+02	-9.2452	-35.865914	0.000314	3.143191	1.064942	-0.000126
1238	1.2308e+02	-9.2773	-35.991065	0.000314	3.143191	1.064942	-0.000126
1239	1.2318e+02	-9.3190	-36.152551	0.000406	4.055730	1.374119	-0.000162
1240	1.2328e+02	-9.3623	-36.289813	0.000345	3.447371	1.168001	-0.000138
1241	1.2338e+02	-9.3912	-36.419001	0.000324	3.244584	1.099295	-0.000130
1242	1.2348e+02	-9.4393	-36.536078	0.000294	2.940404	0.996236	-0.000118
1243	1.2358e+02	-9.4826	-36.693527	0.000395	3.954337	1.339766	-0.000158
1244	1.2368e+02	-9.5227	-36.842901	0.000375	3.751550	1.271060	-0.000150
1245	1.2378e+02	-9.5660	-36.931718	0.000223	2.230652	0.755765	-0.000089
1246	1.2388e+02	-9.6094	-37.117426	0.000466	4.664090	1.580236	-0.000187
1247	1.2398e+02	-9.6430	-37.226429	0.000274	2.737618	0.927530	-0.000110
1248	1.2408e+02	-9.6783	-37.347543	0.000304	3.041798	1.030589	-0.000122
1249	1.2418e+02	-9.7249	-37.504991	0.000395	3.954337	1.339766	-0.000158
1250	1.2428e+02	-9.7569	-37.622068	0.000294	2.940404	0.996236	-0.000118
1251	1.2438e+02	-9.7987	-37.702811	0.000203	2.027865	0.687059	-0.000081
1252	1.2447e+02	-9.8339	-37.860259	0.000395	3.954337	1.339766	-0.000158
1253	1.2457e+02	-9.8789	-38.025782	0.000416	4.157123	1.408472	-0.000166
1254	1.2467e+02	-9.9190	-38.142858	0.000294	2.940404	0.996236	-0.000118
1255	1.2477e+02	-9.9559	-38.308381	0.000416	4.157123	1.408472	-0.000166
1256	1.2487e+02	-9.9928	-38.437569	0.000324	3.244584	1.099295	-0.000130
1257	1.2497e+02	-10.0425	-38.550609	0.000284	2.839011	0.961883	-0.000114
1258	1.2507e+02	-10.0698	-38.704020	0.000385	3.852944	1.305413	-0.000154
1259	1.2517e+02	-10.1179	-38.833209	0.000324	3.244584	1.099295	-0.000130
1260	1.2527e+02	-10.1596	-38.978546	0.000365	3.650157	1.236707	-0.000146
1261	1.2537e+02	-10.1981	-39.107734	0.000324	3.244584	1.099295	-0.000130
1262	1.2547e+02	-10.2446	-39.236922	0.000324	3.244584	1.099295	-0.000130
1263	1.2557e+02	-10.2815	-39.390333	0.000385	3.852944	1.305413	-0.000154
1264	1.2567e+02	-10.3184	-39.475113	0.000213	2.129258	0.721412	-0.000085
1265	1.2577e+02	-10.3762	-39.628524	0.000385	3.852944	1.305413	-0.000154
1266	1.2587e+02	-10.3938	-39.725416	0.000243	2.433438	0.824471	-0.000097
1267	1.2597e+02	-10.4323	-39.899012	0.000436	4.359910	1.477177	-0.000174
1268	1.2607e+02	-10.4756	-40.003978	0.000264	2.636225	0.893177	-0.000105
1269	1.2617e+02	-10.5125	-40.096832	0.000233	2.332045	0.790118	-0.000093
1270	1.2627e+02	-10.5542	-40.226020	0.000324	3.244584	1.099295	-0.000130
1271	1.2636e+02	-10.5863	-40.355209	0.000324	3.244584	1.099295	-0.000130
1272	1.2646e+02	-10.6248	-40.532843	0.000446	4.461303	1.511530	-0.000179
1273	1.2656e+02	-10.6762	-40.641845	0.000274	2.737618	0.927530	-0.000110
1274	1.2666e+02	-10.7163	-40.775071	0.000335	3.345977	1.133648	-0.000134
1275	1.2676e+02	-10.7564	-40.884074	0.000274	2.737618	0.927530	-0.000110
1276	1.2686e+02	-10.7997	-41.045559	0.000406	4.055730	1.374119	-0.000162
1277	1.2696e+02	-10.8270	-41.190896	0.000365	3.650157	1.236707	-0.000146
1278	1.2706e+02	-10.8735	-41.344307	0.000385	3.852944	1.305413	-0.000154
1279	1.2716e+02	-10.9120	-41.445235	0.000253	2.534831	0.858824	-0.000101
1280	1.2726e+02	-10.9617	-41.578461	0.000335	3.345977	1.133648	-0.000134
1281	1.2736e+02	-10.9986	-41.671315	0.000233	2.332045	0.790118	-0.000093
1282	1.2746e+02	-11.0291	-41.804541	0.000335	3.345977	1.133648	-0.000134
1283	1.2756e+02	-11.0804	-41.921618	0.000294	2.940404	0.996236	-0.000118
1284	1.2766e+02	-11.1125	-42.095214	0.000436	4.359910	1.477177	-0.000174
1285	1.2776e+02	-11.1574	-42.232477	0.000345	3.447371	1.168001	-0.000138
1286	1.2786e+02	-11.1895	-42.353591	0.000304	3.041798	1.030589	-0.000122
1287	1.2796e+02	-11.2425	-42.426259	0.000183	1.825079	0.618353	-0.000073
1288	1.2806e+02	-11.2729	-42.543336	0.000294	2.940404	0.996236	-0.000118
1289	1.2816e+02	-11.3018	-42.680599	0.000345	3.447371	1.168001	-0.000138
1290	1.2826e+02	-11.3499	-42.797676	0.000294	2.940404	0.996236	-0.000118
1291	1.2835e+02	-11.3933	-42.930901	0.000335	3.345977	1.133648	-0.000134
1292	1.2845e+02	-11.4253	-43.068164	0.000345	3.447371	1.168001	-0.000138
1293	1.2855e+02	-11.4719	-43.193315	0.000314	3.143191	1.064942	-0.000126
1294	1.2865e+02	-11.5023	-43.310392	0.000294	2.940404	0.996236	-0.000118
1295	1.2875e+02	-11.5553	-43.471878	0.000406	4.055730	1.374119	-0.000162
1296	1.2885e+02	-11.5874	-43.568769	0.000243	2.433438	0.824471	-0.000097
1297	1.2895e+02	-11.6275	-43.685846	0.000294	2.940404	0.996236	-0.000118
1298	1.2905e+02	-11.6708	-43.815034	0.000324	3.244584	1.099295	-0.000130
1299	1.2915e+02	-11.7093	-43.944223	0.000324	3.244584	1.099295	-0.000130
1300	1.2925e+02	-11.7478	-44.077448	0.000335	3.345977	1.133648	-0.000134
1301	1.2935e+02	-11.7831	-44.230859	0.000385	3.852944	1.305413	-0.000154
1302	1.2945e+02	-11.8328	-44.319676	0.000223	2.230652	0.755765	-0.000089
1303	1.2955e+02	-11.8729	-44.452902	0.000335	3.345977	1.133648	-0.000134
1304	1.2965e+02	-11.9162	-44.614387	0.000406	4.055730	1.374119	-0.000162
1305	1.2975e+02	-11.9531	-44.715315	0.000253	2.534831	0.858824	-0.000101
1306	1.2985e+02	-11.9932	-44.804132	0.000223	2.230652	0.755765	-0.000089
1307	1.2995e+02	-12.0285	-44.977729	0.000436	4.359910	1.477177	-0.000174
1308	1.3005e+02	-12.0638	-45.090769	0.000284	2.839011	0.961883	-0.000114
1309	1.3015e+02	-12.1039	-45.171512	0.000203	2.027865	0.687059	-0.000081
1310	1.3025e+02	-12.1505	-45.312812	0.000355	3.548764	1.202354	-0.000142
1311	1.3034e+02	-12.1906	-45.425851	0.000284	2.839011	0.961883	-0.000114
1312	1.3044e+02	-12.2259	-45.587337	0.000406	4.055730	1.374119	-0.000162
1313	1.3054e+02	-12.2868	-45.712488	0.000314	3.143191	1.064942	-0.000126
1314	1.3064e+02	-12.3077	-45.845713	0.000335	3.345977	1.133648	-0.000134
1315	1.3074e+02	-12.3494	-45.954716	0.000274	2.737618	0.927530	-0.000110
1316	1.3084e+02	-12.3895	-46.067756	0.000284	2.839011	0.961883	-0.000114
1317	1.3094e+02	-12.4296	-46.188870	0.000304	3.041798	1.030589	-0.000122
1318	1.3104e+02	-12.4649	-46.334207	0.000365	3.650157	1.236707	-0.000146
1319	1.3114e+02	-12.5114	-46.443210	0.000274	2.737618	0.927530	-0.000110
1320	1.3124e+02	-12.5515	-46.572398	0.000324	3.244584	1.099295	-0.000130
1321	1.3134e+02	-12.5916	-46.677363	0.000264	2.636225	0.893177	-0.000105
1322	1.3144e+02	-12.6285	-46.802515	0.000314	3.143191	1.064942	-0.000126
1323	1.3154e+02	-12.6654	-46.879220	0.000193	1.926472	0.652706	-0.000077
1324	1.3164e+02	-12.7007	-47.036668	0.000395	3.954337	1.339766	-0.000158
1325	1.3174e+02	-12.7456	-47.125485	0.000223	2.230652	0.755765	-0.000089
1326	1.3184e+02	-12.7777	-47.307157	0.000456	4.562696	1.545883	-0.000183
1327	1.3194e+02	-12.8242	-47.416159	0.000274	2.737618	0.927530	-0.000110
1328	1.3204e+02	-12.8724	-47.509013	0.000233	2.332045	0.790118	-0.000093
1329	1.3214e+02	-12.9044	-47.630127	0.000304	3.041798	1.030589	-0.000122
1330	1.3224e+02	-12.9413	-47.727019	0.000243	2.433438	0.824471	-0.000097
1331	1.3234e+02	-12.9879	-47.840058	0.000284	2.839011	0.961883	-0.000114
1332	1.3243e+02	-13.0264	-47.969247	0.000324	3.244584	1.099295	-0.000130
1333	1.3253e+02	-13.0649	-48.114584	0.000365	3.650157	1.236707	-0.000146
1334	1.3263e+02	-13.1098	-48.215512	0.000253	2.534831	0.858824	-0.000101
1335	1.3273e+02	-13.1515	-48.340663	0.000314	3.143191	1.064942	-0.000126
1336	1.3283e+02	-13.1804	-48.498112	0.000395	3.954337	1.339766	-0.000158
1337	1.3293e+02	-13.2317	-48.586929	0.000223	2.230652	0.755765	-0.000089
1338	1.3303e+02	-13.2606	-48.691894	0.000264	2.636225	0.893177	-0.000105
1339	1.3313e+02	-13.3055	-48.837231	0.000365	3.650157	1.236707	-0.000146
1340	1.3323e+02	-13.3536	-48.954308	0.000294	2.940404	0.996236	-0.000118
1341	1.3333e+02	-13.3889	-49.083496	0.000324	3.244584	1.099295	-0.000130
1342	1.3343e+02	-13.4146	-49.152128	0.000172	1.723685	0.584000	-0.000069
1343	1.3353e+02	-13.4675	-49.325724	0.000436	4.359910	1.477177	-0.000174
1344	1.3363e+02	-13.4948	-49.434727	0.000274	2.737618	0.927530	-0.000110
1345	1.3373e+02	-13.5445	-49.531618	0.000243	2.433438	0.824471	-0.000097
1346	1.3383e+02	-13.5879	-49.689067	0.000395	3.954337	1.339766	-0.000158
1347	1.3393e+02	-13.6215	-49.745587	0.000142	1.419506	0.480942	-0.000057
1348	1.3403e+02	-13.6616	-49.919183	0.000436	4.359910	1.477177	-0.000174
1349	1.3413e+02	-13.6985	-50.020112	0.000253	2.534831	0.858824	-0.000101
1350	1.3423e+02	-13.7403	-50.149300	0.000324	3.244584	1.099295	-0.000130
1351	1.3432e+02	-13.7772	-50.242154	0.000233	2.332045	0.790118	-0.000093
1352	1.3442e+02	-13.8237	-50.347120	0.000264	2.636225	0.893177	-0.000105
1353	1.3452e+02	-13.8638	-50.464197	0.000294	2.940404	0.996236	-0.000118
1354	1.3462e+02	-13.8894	-50.605496	0.000355	3.548764	1.202354	-0.000142
1355	1.3472e+02	-13.9488	-50.754870	0.000375	3.751550	1.271060	-0.000150
1356	1.3482e+02	-13.9793	-50.839650	0.000213	2.129258	0.721412	-0.000085
1357	1.3492e+02	-14.0290	-50.956727	0.000294	2.940404	0.996236	-0.000118
1358	1.3502e+02	-14.0643	-51.061693	0.000264	2.636225	0.893177	-0.000105
1359	1.3512e+02	-14.0996	-51.202993	0.000355	3.548764	1.202354	-0.000142
1360	1.3522e+02	-14.1413	-51.340255	0.000345	3.447371	1.168001	-0.000138
1361	1.3532e+02	-14.1766	-51.433109	0.000233	2.332045	0.790118	-0.000093
1362	1.3542e+02	-14.2199	-51.550186	0.000294	2.940404	0.996236	-0.000118
1363	1.3552e+02	-14.2600	-51.639003	0.000223	2.230652	0.755765	-0.000089
1364	1.3562e+02	-14.2841	-51.756080	0.000294	2.940404	0.996236	-0.000118
1365	1.3572e+02	-14.3370	-51.836823	0.000203	2.027865	0.687059	-0.000081
1366	1.3582e+02	-14.3852	-51.998308	0.000406	4.055730	1.374119	-0.000162
1367	1.3592e+02	-14.4156	-52.131534	0.000335	3.345977	1.133648	-0.000134
1368	1.3602e+02	-14.4590	-52.244574	0.000284	2.839011	0.961883	-0.000114
1369	1.3612e+02	-14.5007	-52.325316	0.000203	2.027865	0.687059	-0.000081
1370	1.3622e+02	-14.5424	-52.462579	0.000345	3.447371	1.168001	-0.000138
1371	1.3631e+02	-14.5809	-52.563507	0.000253	2.534831	0.858824	-0.000101
1372	1.3641e+02	-14.6274	-52.684621	0.000304	3.041798	1.030589	-0.000122
1373	1.3651e+02	-14.6579	-52.829958	0.000365	3.650157	1.236707	-0.000146
1374	1.3661e+02	-14.7012	-52.963184	0.000335	3.345977	1.133648	-0.000134
1375	1.3671e+02	-14.7285	-53.068149	0.000264	2.636225	0.893177	-0.000105
1376	1.3681e+02	-14.7750	-53.169078	0.000253	2.534831	0.858824	-0.000101
1377	1.3691e+02	-14.8183	-53.326526	0.000395	3.954337	1.339766	-0.000158
1378	1.3701e+02	-14.8584	-53.431491	0.000264	2.636225	0.893177	-0.000105
1379	1.3711e+02	-14.8953	-53.532420	0.000253	2.534831	0.858824	-0.000101
1380	1.3721e+02	-14.9418	-53.597014	0.000162	1.622292	0.549647	-0.000065
1381	1.3731e+02	-14.9771	-53.710054	0.000284	2.839011	0.961883	-0.000114
1382	1.3741e+02	-15.0172	-53.895762	0.000466	4.664090	1.580236	-0.000187
1383	1.3751e+02	-15.0541	-53.964393	0.000172	1.723685	0.584000	-0.000069
1384	1.3761e+02	-15.0942	-54.081470	0.000294	2.940404	0.996236	-0.000118
1385	1.3771e+02	-15.1359	-54.182399	0.000253	2.534831	0.858824	-0.000101
1386	1.3781e+02	-15.1760	-54.303513	0.000304	3.041798	1.030589	-0.000122
1387	1.3791e+02	-15.2178	-54.392330	0.000223	2.230652	0.755765	-0.000089
1388	1.3801e+02	-15.2627	-54.529592	0.000345	3.447371	1.168001	-0.000138
1389	1.3811e+02	-15.2932	-54.654744	0.000314	3.143191	1.064942	-0.000126
1390	1.3821e+02	-15.3284	-54.743561	0.000223	2.230652	0.755765	-0.000089
1391	1.3831e+02	-15.3766	-54.901009	0.000395	3.954337	1.339766	-0.000158
1392	1.3840e+02	-15.4199	-54.985789	0.000213	2.129258	0.721412	-0.000085
1393	1.3850e+02	-15.4568	-55.139200	0.000385	3.852944	1.305413	-0.000154
1394	1.3860e+02	-15.4873	-55.280500	0.000355	3.548764	1.202354	-0.000142
1395	1.3870e+02	-15.5386	-55.365280	0.000213	2.129258	0.721412	-0.000085
1396	1.3880e+02	-15.5627	-55.486394	0.000304	3.041798	1.030589	-0.000122
1397	1.3890e+02	-15.6076	-55.615582	0.000324	3.244584	1.099295	-0.000130
1398	1.3900e+02	-15.6541	-55.704399	0.000223	2.230652	0.755765	-0.000089
1399	1.3910e+02	-15.6926	-55.789179	0.000213	2.129258	0.721412	-0.000085
1400	1.3920e+02	-15.7343	-55.869921	0.000203	2.027865	0.687059	-0.000081
1401	1.3930e+02	-15.7792	-56.027370	0.000395	3.954337	1.339766	-0.000158
1402	1.3940e+02	-15.8145	-56.128298	0.000253	2.534831	0.858824	-0.000101
1403	1.3950e+02	-15.8402	-56.253449	0.000314	3.143191	1.064942	-0.000126
1404	1.3960e+02	-15.8915	-56.346303	0.000233	2.332045	0.790118	-0.000093
1405	1.3970e+02	-15.9332	-56.499715	0.000385	3.852944	1.305413	-0.000154
1406	1.3980e+02	-15.9669	-56.600643	0.000253	2.534831	0.858824	-0.000101
1407	1.3990e+02	-16.0247	-56.697534	0.000243	2.433438	0.824471	-0.000097
1408	1.4000e+02	-16.0568	-56.863057	0.000416	4.157123	1.408472	-0.000166
1409	1.4010e+02	-16.1033	-56.968022	0.000264	2.636225	0.893177	-0.000105
1410	1.4020e+02	-16.1274	-57.060877	0.000233	2.332045	0.790118	-0.000093
1411	1.4029e+02	-16.1755	-57.226399	0.000416	4.157123	1.408472	-0.000166
1412	1.4039e+02	-16.2172	-57.355587	0.000324	3.244584	1.099295	-0.000130
1413	1.4049e+02	-16.2493	-57.444404	0.000223	2.230652	0.755765	-0.000089
1414	1.4059e+02	-16.2910	-57.561481	0.000294	2.940404	0.996236	-0.000118
1415	1.4069e+02	-16.3231	-57.678558	0.000294	2.940404	0.996236	-0.000118
1416	1.4079e+02	-16.3744	-57.727004	0.000122	1.216719	0.412236	-0.000049
1417	1.4089e+02	-16.4177	-57.864267	0.000345	3.447371	1.168001	-0.000138
1418	1.4099e+02	-16.4450	-57.989418	0.000314	3.143191	1.064942	-0.000126
1419	1.4109e+02	-16.4931	-58.098420	0.000274	2.737618	0.927530	-0.000110
1420	1.4119e+02	-16.5380	-58.191275	0.000233	2.332045	0.790118	-0.000093
1421	1.4129e+02	-16.5733	-58.296240	0.000264	2.636225	0.893177	-0.000105
1422	1.4139e+02	-16.6199	-58.465800	0.000426	4.258517	1.442825	-0.000170
1423	1.4149e+02	-16.6439	-58.546542	0.000203	2.027865	0.687059	-0.000081
1424	1.4159e+02	-16.7001	-58.671694	0.000314	3.143191	1.064942	-0.000126
1425	1.4169e+02	-16.7370	-58.804919	0.000335	3.345977	1.133648	-0.000134
1426	1.4179e+02	-16.7690	-58.873550	0.000172	1.723685	0.584000	-0.000069
1427	1.4189e+02	-16.8075	-59.043110	0.000426	4.258517	1.442825	-0.000170
1428	1.4199e+02	-16.8525	-59.164224	0.000304	3.041798	1.030589	-0.000122
1429	1.4209e+02	-16.8958	-59.265153	0.000253	2.534831	0.858824	-0.000101
1430	1.4219e+02	-16.9359	-59.418564	0.000385	3.852944	1.305413	-0.000154
1431	1.4228e+02	-16.9712	-59.539678	0.000304	3.041798	1.030589	-0.000122
1432	1.4238e+02	-17.0129	-59.656755	0.000294	2.940404	0.996236	-0.000118
1433	1.4248e+02	-17.0402	-59.745572	0.000223	2.230652	0.755765	-0.000089
1434	1.4258e+02	-17.0963	-59.850537	0.000264	2.636225	0.893177	-0.000105
1435	1.4268e+02	-17.1348	-59.963577	0.000284	2.839011	0.961883	-0.000114
1436	1.4278e+02	-17.1685	-60.076617	0.000284	2.839011	0.961883	-0.000114
1437	1.4288e+02	-17.2086	-60.213880	0.000345	3.447371	1.168001	-0.000138
1438	1.4298e+02	-17.2503	-60.294622	0.000203	2.027865	0.687059	-0.000081
1439	1.4308e+02	-17.2936	-60.419773	0.000314	3.143191	1.064942	-0.000126
1440	1.4318e+02	-17.3402	-60.557036	0.000345	3.447371	1.168001	-0.000138
1441	1.4328e+02	-17.3658	-60.657964	0.000253	2.534831	0.858824	-0.000101
1442	1.4338e+02	-17.4027	-60.742744	0.000213	2.129258	0.721412	-0.000085
1443	1.4348e+02	-17.4508	-60.896155	0.000385	3.852944	1.305413	-0.000154
1444	1.4358e+02	-17.4942	-60.972861	0.000193	1.926472	0.652706	-0.000077
1445	1.4368e+02	-17.5311	-61.110124	0.000345	3.447371	1.168001	-0.000138
1446	1.4378e+02	-17.5712	-61.231238	0.000304	3.041798	1.030589	-0.000122
1447	1.4388e+02	-17.6065	-61.360426	0.000324	3.244584	1.099295	-0.000130
1448	1.4398e+02	-17.6450	-61.529986	0.000426	4.258517	1.442825	-0.000170
1449	1.4408e+02	-17.6835	-61.663211	0.000335	3.345977	1.133648	-0.000134
1450	1.4418e+02	-17.7220	-61.715694	0.000132	1.318112	0.446589	-0.000053
1451	1.4428e+02	-17.7605	-61.873142	0.000395	3.954337	1.339766	-0.000158
1452	1.4437e+02	-17.8086	-61.982145	0.000274	2.737618	0.927530	-0.000110
1453	1.4447e+02	-17.8535	-62.103259	0.000304	3.041798	1.030589	-0.000122
1454	1.4457e+02	-17.8840	-62.192076	0.000223	2.230652	0.755765	-0.000089
1455	1.4467e+02	-17.9305	-62.293004	0.000253	2.534831	0.858824	-0.000101
1456	1.4477e+02	-17.9610	-62.418156	0.000314	3.143191	1.064942	-0.000126
1457	1.4487e+02	-18.0059	-62.559455	0.000355	3.548764	1.202354	-0.000142
1458	1.4497e+02	-18.0492	-62.664421	0.000264	2.636225	0.893177	-0.000105
1459	1.4507e+02	-18.0925	-62.785535	0.000304	3.041798	1.030589	-0.000122
1460	1.4517e+02	-18.1262	-62.866278	0.000203	2.027865	0.687059	-0.000081
1461	1.4527e+02	-18.1631	-63.047949	0.000456	4.562696	1.545883	-0.000183
1462	1.4537e+02	-18.2048	-63.165026	0.000294	2.940404	0.996236	-0.000118
1463	1.4547e+02	-18.2481	-63.282103	0.000294	2.940404	0.996236	-0.000118
1464	1.4557e+02	-18.2883	-63.399180	0.000294	2.940404	0.996236	-0.000118
1465	1.4567e+02	-18.3252	-63.512219	0.000284	2.839011	0.961883	-0.000114
1466	1.4577e+02	-18.3572	-63.701965	0.000477	4.765483	1.614589	-0.000191
1467	1.4587e+02	-18.4022	-63.782708	0.000203	2.027865	0.687059	-0.000081
1468	1.4597e+02	-18.4326	-63.936119	0.000385	3.852944	1.305413	-0.000154
1469	1.4607e+02	-18.4824	-64.085493	0.000375	3.751550	1.271060	-0.000150
1470	1.4617e+02	-18.5225	-64.146050	0.000152	1.520899	0.515294	-0.000061
1471	1.4626e+02	-18.5642	-64.242941	0.000243	2.433438	0.824471	-0.000097
1472	1.4636e+02	-18.6059	-64.347907	0.000264	2.636225	0.893177	-0.000105
1473	1.4646e+02	-18.6396	-64.436724	0.000223	2.230652	0.755765	-0.000089
1474	1.4656e+02	-18.6813	-64.586098	0.000375	3.751550	1.271060	-0.000150
1475	1.4666e+02	-18.7182	-64.731434	0.000365	3.650157	1.236707	-0.000146
1476	1.4676e+02	-18.7663	-64.848511	0.000294	2.940404	0.996236	-0.000118
1477	1.4686e+02	-18.8016	-64.945403	0.000243	2.433438	0.824471	-0.000097
1478	1.4696e+02	-18.8481	-65.086702	0.000355	3.548764	1.202354	-0.000142
1479	1.4706e+02	-18.8914	-65.167445	0.000203	2.027865	0.687059	-0.000081
1480	1.4716e+02	-18.9251	-65.357190	0.000477	4.765483	1.614589	-0.000191
1481	1.4726e+02	-18.9668	-65.482342	0.000314	3.143191	1.064942	-0.000126
1482	1.4736e+02	-18.9973	-65.587307	0.000264	2.636225	0.893177	-0.000105
1483	1.4746e+02	-19.0358	-65.688236	0.000253	2.534831	0.858824	-0.000101
1484	1.4756e+02	-19.0775	-65.894130	0.000517	5.171056	1.752001	-0.000207
1485	1.4766e+02	-19.1225	-65.982947	0.000223	2.230652	0.755765	-0.000089
1486	1.4776e+02	-19.1658	-66.132321	0.000375	3.751550	1.271060	-0.000150
1487	1.4786e+02	-19.2123	-66.285732	0.000385	3.852944	1.305413	-0.000154
1488	1.4796e+02	-19.2460	-66.406846	0.000304	3.041798	1.030589	-0.000122
1489	1.4806e+02	-19.2797	-66.459329	0.000132	1.318112	0.446589	-0.000053
1490	1.4816e+02	-19.3214	-66.560257	0.000253	2.534831	0.858824	-0.000101
1491	1.4825e+02	-19.3647	-66.689445	0.000324	3.244584	1.099295	-0.000130
1492	1.4835e+02	-19.4032	-66.802485	0.000284	2.839011	0.961883	-0.000114
1493	1.4845e+02	-19.4337	-66.951859	0.000375	3.751550	1.271060	-0.000150
1494	1.4855e+02	-19.4770	-67.081047	0.000324	3.244584	1.099295	-0.000130
1495	1.4865e+02	-19.5155	-67.181976	0.000253	2.534831	0.858824	-0.000101
1496	1.4875e+02	-19.5636	-67.307127	0.000314	3.143191	1.064942	-0.000126
1497	1.4885e+02	-19.6069	-67.460538	0.000385	3.852944	1.305413	-0.000154
1498	1.4895e+02	-19.6374	-67.561467	0.000253	2.534831	0.858824	-0.000101
1499	1.4905e+02	-19.6727	-67.731026	0.000426	4.258517	1.442825	-0.000170
1500	1.4915e+02	-19.7096	-67.884437	0.000385	3.852944	1.305413	-0.000154
1501	1.4925e+02	-19.7529	-68.017663	0.000335	3.345977	1.133648	-0.000134
1502	1.4935e+02	-19.7930	-68.171074	0.000385	3.852944	1.305413	-0.000154
1503	1.4945e+02	-19.8379	-68.276040	0.000264	2.636225	0.893177	-0.000105
1504	1.4955e+02	-19.8813	-68.389079	0.000284	2.839011	0.961883	-0.000114
1505	1.4965e+02	-19.9230	-68.538453	0.000375	3.751550	1.271060	-0.000150
1506	1.4975e+02	-19.9567	-68.675716	0.000345	3.447371	1.168001	-0.000138
1507	1.4985e+02	-19.9903	-68.764533	0.000223	2.230652	0.755765	-0.000089
1508	1.4995e+02	-19.9567	-68.712050	0.000132	1.318112	0.446589	0.000053
1509	1.5005e+02	-19.9133	-68.639382	0.000183	1.825079	0.618353	0.000073
1510	1.5015e+02	-19.8732	-68.623233	0.000041	0.405573	0.137412	0.000016
1511	1.5025e+02	-19.8428	-68.603048	0.000051	0.506966	0.171765	0.000020
1512	1.5034e+02	-19.7914	-68.502119	0.000253	2.534831	0.858824	0.000101
1513	1.5044e+02	-19.7593	-68.469822	0.000081	0.811146	0.274824	0.000032
1514	1.5054e+02	-19.7224	-68.389079	0.000203	2.027865	0.687059	0.000081
1515	1.5064e+02	-19.6711	-68.352745	0.000091	0.912539	0.309177	0.000037
1516	1.5074e+02	-19.6358	-68.300262	0.000132	1.318112	0.446589	0.000053
1517	1.5084e+02	-19.5973	-68.263928	0.000091	0.912539	0.309177	0.000037
1518	1.5094e+02	-19.5524	-68.195297	0.000172	1.723685	0.584000	0.000069
1519	1.5104e+02	-19.5123	-68.175111	0.000051	0.506966	0.171765	0.000020
1520	1.5114e+02	-19.4754	-68.150888	0.000061	0.608360	0.206118	0.000024
1521	1.5124e+02	-19.4385	-68.053997	0.000243	2.433438	0.824471	0.000097
1522	1.5134e+02	-19.4032	-67.985366	0.000172	1.723685	0.584000	0.000069
1523	1.5144e+02	-19.3567	-67.965180	0.000051	0.506966	0.171765	0.000020
1524	1.5154e+02	-19.3230	-67.860215	0.000264	2.636225	0.893177	0.000105
1525	1.5164e+02	-19.2684	-67.823880	0.000091	0.912539	0.309177	0.000037
1526	1.5174e+02	-19.2460	-67.714878	0.000274	2.737618	0.927530	0.000110
1527	1.5184e+02	-19.2027	-67.638172	0.000193	1.926472	0.652706	0.000077
1528	1.5194e+02	-19.1658	-67.557429	0.000203	2.027865	0.687059	0.000081
1529	1.5204e+02	-19.1257	-67.496872	0.000152	1.520899	0.515294	0.000061
1530	1.5214e+02	-19.0840	-67.404018	0.000233	2.332045	0.790118	0.000093
1531	1.5224e+02	-19.0487	-67.339424	0.000162	1.622292	0.549647	0.000065
1532	1.5233e+02	-19.0021	-67.311164	0.000071	0.709753	0.240471	0.000028
1533	1.5243e+02	-18.9572	-67.198124	0.000284	2.839011	0.961883	0.000114
1534	1.5253e+02	-18.9267	-67.190050	0.000020	0.202787	0.068706	0.000008
1535	1.5263e+02	-18.8802	-67.081047	0.000274	2.737618	0.927530	0.000110
1536	1.5273e+02	-18.8449	-67.048750	0.000081	0.811146	0.274824	0.000032
1537	1.5283e+02	-18.7952	-67.012416	0.000091	0.912539	0.309177	0.000037
1538	1.5293e+02	-18.7551	-66.879191	0.000335	3.345977	1.133648	0.000134
1539	1.5303e+02	-18.7230	-66.806522	0.000183	1.825079	0.618353	0.000073
1540	1.5313e+02	-18.6765	-66.729817	0.000193	1.926472	0.652706	0.000077
1541	1.5323e+02	-18.6460	-66.661185	0.000172	1.723685	0.584000	0.000069
1542	1.5333e+02	-18.6059	-66.620814	0.000101	1.013933	0.343530	0.000041
1543	1.5343e+02	-18.5658	-66.479514	0.000355	3.548764	1.202354	0.000142
1544	1.5353e+02	-18.5257	-66.414920	0.000162	1.622292	0.549647	0.000065
1545	1.5363e+02	-18.4808	-66.338214	0.000193	1.926472	0.652706	0.000077
1546	1.5373e+02	-18.4471	-66.249397	0.000223	2.230652	0.755765	0.000089
1547	1.5383e+02	-18.4118	-66.152506	0.000243	2.433438	0.824471	0.000097
1548	1.5393e+02	-18.3749	-66.043504	0.000274	2.737618	0.927530	0.000110
1549	1.5403e+02	-18.3316	-66.015244	0.000071	0.709753	0.240471	0.000028
1550	1.5413e+02	-18.2850	-65.938538	0.000193	1.926472	0.652706	0.000077
1551	1.5422e+02	-18.2546	-65.829535	0.000274	2.737618	0.927530	0.000110
1552	1.5432e+02	-18.2000	-65.785127	0.000112	1.115326	0.377883	0.000045
1553	1.5442e+02	-18.1647	-65.696310	0.000223	2.230652	0.755765	0.000089
1554	1.5452e+02	-18.1198	-65.684198	0.000030	0.304180	0.103059	0.000012
1555	1.5462e+02	-18.0877	-65.530787	0.000385	3.852944	1.305413	0.000154
1556	1.5472e+02	-18.0348	-65.514639	0.000041	0.405573	0.137412	0.000016
1557	1.5482e+02	-18.0043	-65.421785	0.000233	2.332045	0.790118	0.000093
1558	1.5492e+02	-17.9610	-65.312782	0.000274	2.737618	0.927530	0.000110
1559	1.5502e+02	-17.9257	-65.244151	0.000172	1.723685	0.584000	0.000069
1560	1.5512e+02	-17.8824	-65.139185	0.000264	2.636225	0.893177	0.000105
1561	1.5522e+02	-17.8503	-65.086702	0.000132	1.318112	0.446589	0.000053
1562	1.5532e+02	-17.8054	-64.985774	0.000253	2.534831	0.858824	0.000101
1563	1.5542e+02	-17.7733	-64.828326	0.000395	3.954337	1.339766	0.000158
1564	1.5552e+02	-17.7284	-64.812177	0.000041	0.405573	0.137412	0.000016
1565	1.5562e+02	-17.6947	-64.699137	0.000284	2.839011	0.961883	0.000114
1566	1.5572e+02	-17.6434	-64.622432	0.000193	1.926472	0.652706	0.000077
1567	1.5582e+02	-17.6161	-64.505355	0.000294	2.940404	0.996236	0.000118
1568	1.5592e+02	-17.5712	-64.444798	0.000152	1.520899	0.515294	0.000061
1569	1.5602e+02	-17.5246	-64.355981	0.000223	2.230652	0.755765	0.000089
1570	1.5612e+02	-17.4829	-64.259090	0.000243	2.433438	0.824471	0.000097
1571	1.5622e+02	-17.4524	-64.194495	0.000162	1.622292	0.549647	0.000065
1572	1.5631e+02	-17.4139	-64.150087	0.000112	1.115326	0.377883	0.000045
1573	1.5641e+02	-17.3674	-64.109716	0.000101	1.013933	0.343530	0.000041
1574	1.5651e+02	-17.3337	-64.000713	0.000274	2.737618	0.927530	0.000110
1575	1.5661e+02	-17.2920	-63.915933	0.000213	2.129258	0.721412	0.000085
1576	1.5671e+02	-17.2423	-63.839227	0.000193	1.926472	0.652706	0.000077
1577	1.5681e+02	-17.2150	-63.714076	0.000314	3.143191	1.064942	0.000126
1578	1.5691e+02	-17.1685	-63.685816	0.000071	0.709753	0.240471	0.000028
1579	1.5701e+02	-17.1300	-63.536442	0.000375	3.751550	1.271060	0.000150
1580	1.5711e+02	-17.0851	-63.455700	0.000203	2.027865	0.687059	0.000081
1581	1.5721e+02	-17.0482	-63.374957	0.000203	2.027865	0.687059	0.000081
1582	1.5731e+02	-17.0065	-63.269991	0.000264	2.636225	0.893177	0.000105
1583	1.5741e+02	-16.9728	-63.156951	0.000284	2.839011	0.961883	0.000114
1584	1.5751e+02	-16.9279	-63.092357	0.000162	1.622292	0.549647	0.000065
1585	1.5761e+02	-16.8926	-62.938946	0.000385	3.852944	1.305413	0.000154
1586	1.5771e+02	-16.8460	-62.886463	0.000132	1.318112	0.446589	0.000053
1587	1.5781e+02	-16.8075	-62.833981	0.000132	1.318112	0.446589	0.000053
1588	1.5791e+02	-16.7658	-62.765349	0.000172	1.723685	0.584000	0.000069
1589	1.5801e+02	-16.7289	-62.692681	0.000183	1.825079	0.618353	0.000073
1590	1.5811e+02	-16.6904	-62.575604	0.000294	2.940404	0.996236	0.000118
1591	1.5821e+02	-16.6471	-62.466601	0.000274	2.737618	0.927530	0.000110
1592	1.5830e+02	-16.6118	-62.426230	0.000101	1.013933	0.343530	0.000041
1593	1.5840e+02	-16.5685	-62.288967	0.000345	3.447371	1.168001	0.000138
1594	1.5850e+02	-16.5252	-62.236485	0.000132	1.318112	0.446589	0.000053
1595	1.5860e+02	-16.4899	-62.135556	0.000253	2.534831	0.858824	0.000101
1596	1.5870e+02	-16.4578	-62.054813	0.000203	2.027865	0.687059	0.000081
1597	1.5880e+02	-16.4097	-61.974071	0.000203	2.027865	0.687059	0.000081
1598	1.5890e+02	-16.3760	-61.848920	0.000314	3.143191	1.064942	0.000126
1599	1.5900e+02	-16.3391	-61.756065	0.000233	2.332045	0.790118	0.000093
1600	1.5910e+02	-16.2910	-61.655137	0.000253	2.534831	0.858824	0.000101
1601	1.5920e+02	-16.2573	-61.538060	0.000294	2.940404	0.996236	0.000118
1602	1.5930e+02	-16.2108	-61.449243	0.000223	2.230652	0.755765	0.000089
1603	1.5940e+02	-16.1755	-61.360426	0.000223	2.230652	0.755765	0.000089
1604	1.5950e+02	-16.1322	-61.263535	0.000243	2.433438	0.824471	0.000097
1605	1.5960e+02	-16.0872	-61.202978	0.000152	1.520899	0.515294	0.000061
1606	1.5970e+02	-16.0439	-61.118198	0.000213	2.129258	0.721412	0.000085
1607	1.5980e+02	-16.0086	-61.021307	0.000243	2.433438	0.824471	0.000097
1608	1.5990e+02	-15.9766	-60.956713	0.000162	1.622292	0.549647	0.000065
1609	1.6000e+02	-15.9332	-60.819450	0.000345	3.447371	1.168001	0.000138
1610	1.6010e+02	-15.8931	-60.758893	0.000152	1.520899	0.515294	0.000061
1611	1.6019e+02	-15.8578	-60.657964	0.000253	2.534831	0.858824	0.000101
1612	1.6029e+02	-15.8161	-60.557036	0.000253	2.534831	0.858824	0.000101
1613	1.6039e+02	-15.7776	-60.488405	0.000172	1.723685	0.584000	0.000069
1614	1.6049e+02	-15.7343	-60.391514	0.000243	2.433438	0.824471	0.000097
1615	1.6059e+02	-15.7038	-60.266362	0.000314	3.143191	1.064942	0.000126
1616	1.6069e+02	-15.6525	-60.193694	0.000183	1.825079	0.618353	0.000073
1617	1.6079e+02	-15.6172	-60.060468	0.000335	3.345977	1.133648	0.000134
1618	1.6089e+02	-15.5771	-59.935317	0.000314	3.143191	1.064942	0.000126
1619	1.6099e+02	-15.5338	-59.838426	0.000243	2.433438	0.824471	0.000097
1620	1.6109e+02	-15.4969	-59.745572	0.000233	2.332045	0.790118	0.000093
1621	1.6119e+02	-15.4584	-59.676940	0.000172	1.723685	0.584000	0.000069
1622	1.6129e+02	-15.4151	-59.604272	0.000183	1.825079	0.618353	0.000073
1623	1.6139e+02	-15.3702	-59.495269	0.000274	2.737618	0.927530	0.000110
1624	1.6149e+02	-15.3349	-59.462972	0.000081	0.811146	0.274824	0.000032
1625	1.6159e+02	-15.2932	-59.329747	0.000335	3.345977	1.133648	0.000134
1626	1.6169e+02	-15.2546	-59.220744	0.000274	2.737618	0.927530	0.000110
1627	1.6179e+02	-15.2129	-59.127890	0.000233	2.332045	0.790118	0.000093
1628	1.6189e+02	-15.1776	-59.059259	0.000172	1.723685	0.584000	0.000069
1629	1.6199e+02	-15.1424	-58.954293	0.000264	2.636225	0.893177	0.000105
1630	1.6209e+02	-15.0910	-58.829142	0.000314	3.143191	1.064942	0.000126
1631	1.6219e+02	-15.0557	-58.728214	0.000253	2.534831	0.858824	0.000101
1632	1.6228e+02	-15.0108	-58.631322	0.000243	2.433438	0.824471	0.000097
1633	1.6238e+02	-14.9787	-58.582877	0.000122	1.216719	0.412236	0.000049
1634	1.6248e+02	-14.9402	-58.477911	0.000264	2.636225	0.893177	0.000105
1635	1.6258e+02	-14.8953	-58.328537	0.000375	3.751550	1.271060	0.000150
1636	1.6268e+02	-14.8568	-58.211460	0.000294	2.940404	0.996236	0.000118
1637	1.6278e+02	-14.8247	-58.138792	0.000183	1.825079	0.618353	0.000073
1638	1.6288e+02	-14.7734	-57.993455	0.000365	3.650157	1.236707	0.000146
1639	1.6298e+02	-14.7349	-57.924824	0.000172	1.723685	0.584000	0.000069
1640	1.6308e+02	-14.7012	-57.872341	0.000132	1.318112	0.446589	0.000053
1641	1.6318e+02	-14.6515	-57.787561	0.000213	2.129258	0.721412	0.000085
1642	1.6328e+02	-14.6210	-57.674521	0.000284	2.839011	0.961883	0.000114
1643	1.6338e+02	-14.5761	-57.601853	0.000183	1.825079	0.618353	0.000073
1644	1.6348e+02	-14.5408	-57.480739	0.000304	3.041798	1.030589	0.000122
1645	1.6358e+02	-14.4991	-57.371736	0.000274	2.737618	0.927530	0.000110
1646	1.6368e+02	-14.4622	-57.307142	0.000162	1.622292	0.549647	0.000065
1647	1.6378e+02	-14.4124	-57.165842	0.000355	3.548764	1.202354	0.000142
1648	1.6388e+02	-14.3852	-57.101248	0.000162	1.622292	0.549647	0.000065
1649	1.6398e+02	-14.3450	-56.992245	0.000274	2.737618	0.927530	0.000110
1650	1.6408e+02	-14.2873	-56.879205	0.000284	2.839011	0.961883	0.000114
1651	1.6418e+02	-14.2552	-56.750017	0.000324	3.244584	1.099295	0.000130
1652	1.6427e+02	-14.2247	-56.689460	0.000152	1.520899	0.515294	0.000061
1653	1.6437e+02	-14.1862	-56.560272	0.000324	3.244584	1.099295	0.000130
1654	1.6447e+02	-14.1445	-56.423009	0.000345	3.447371	1.168001	0.000138
1655	1.6457e+02	-14.0916	-56.342266	0.000203	2.027865	0.687059	0.000081
1656	1.6467e+02	-14.0547	-56.217115	0.000314	3.143191	1.064942	0.000126
1657	1.6477e+02	-14.0274	-56.136372	0.000203	2.027865	0.687059	0.000081
1658	1.6487e+02	-13.9745	-56.079853	0.000142	1.419506	0.480942	0.000057
1659	1.6497e+02	-13.9504	-55.942590	0.000345	3.447371	1.168001	0.000138
1660	1.6507e+02	-13.8991	-55.833587	0.000274	2.737618	0.927530	0.000110
1661	1.6517e+02	-13.8526	-55.793216	0.000101	1.013933	0.343530	0.000041
1662	1.6527e+02	-13.8237	-55.655953	0.000345	3.447371	1.168001	0.000138
1663	1.6537e+02	-13.7900	-55.534839	0.000304	3.041798	1.030589	0.000122
1664	1.6547e+02	-13.7386	-55.470245	0.000162	1.622292	0.549647	0.000065
1665	1.6557e+02	-13.7034	-55.361242	0.000274	2.737618	0.927530	0.000110
1666	1.6567e+02	-13.6649	-55.264351	0.000243	2.433438	0.824471	0.000097
1667	1.6577e+02	-13.6199	-55.143237	0.000304	3.041798	1.030589	0.000122
1668	1.6587e+02	-13.5750	-54.989826	0.000385	3.852944	1.305413	0.000154
1669	1.6597e+02	-13.5477	-54.953492	0.000091	0.912539	0.309177	0.000037
1670	1.6607e+02	-13.5028	-54.844489	0.000274	2.737618	0.927530	0.000110
1671	1.6616e+02	-13.4643	-54.727412	0.000294	2.940404	0.996236	0.000118
1672	1.6626e+02	-13.4210	-54.646669	0.000203	2.027865	0.687059	0.000081
1673	1.6636e+02	-13.3873	-54.464998	0.000456	4.562696	1.545883	0.000183
1674	1.6646e+02	-13.3408	-54.355996	0.000274	2.737618	0.927530	0.000110
1675	1.6656e+02	-13.3023	-54.271216	0.000213	2.129258	0.721412	0.000085
1676	1.6666e+02	-13.2590	-54.202584	0.000172	1.723685	0.584000	0.000069
1677	1.6676e+02	-13.2205	-54.081470	0.000304	3.041798	1.030589	0.000122
1678	1.6686e+02	-13.1820	-54.008802	0.000183	1.825079	0.618353	0.000073
1679	1.6696e+02	-13.1419	-53.883651	0.000314	3.143191	1.064942	0.000126
1680	1.6706e+02	-13.1002	-53.750425	0.000335	3.345977	1.133648	0.000134
1681	1.6716e+02	-13.0617	-53.689868	0.000152	1.520899	0.515294	0.000061
1682	1.6726e+02	-13.0200	-53.548568	0.000355	3.548764	1.202354	0.000142
1683	1.6736e+02	-12.9863	-53.475900	0.000183	1.825079	0.618353	0.000073
1684	1.6746e+02	-12.9462	-53.350749	0.000314	3.143191	1.064942	0.000126
1685	1.6756e+02	-12.9028	-53.286155	0.000162	1.622292	0.549647	0.000065
1686	1.6766e+02	-12.8676	-53.132743	0.000385	3.852944	1.305413	0.000154
1687	1.6776e+02	-12.8274	-53.035852	0.000243	2.433438	0.824471	0.000097
1688	1.6786e+02	-12.7922	-52.906664	0.000324	3.244584	1.099295	0.000130
1689	1.6796e+02	-12.7537	-52.813810	0.000233	2.332045	0.790118	0.000093
1690	1.6806e+02	-12.7055	-52.688659	0.000314	3.143191	1.064942	0.000126
1691	1.6816e+02	-12.6686	-52.591767	0.000243	2.433438	0.824471	0.000097
1692	1.6825e+02	-12.6301	-52.478727	0.000284	2.839011	0.961883	0.000114
1693	1.6835e+02	-12.5884	-52.341465	0.000345	3.447371	1.168001	0.000138
1694	1.6845e+02	-12.5451	-52.264759	0.000193	1.926472	0.652706	0.000077
1695	1.6855e+02	-12.4970	-52.188054	0.000193	1.926472	0.652706	0.000077
1696	1.6865e+02	-12.4601	-52.070977	0.000294	2.940404	0.996236	0.000118
1697	1.6875e+02	-12.4312	-51.949863	0.000304	3.041798	1.030589	0.000122
1698	1.6885e+02	-12.3863	-51.865083	0.000213	2.129258	0.721412	0.000085
1699	1.6895e+02	-12.3510	-51.748006	0.000294	2.940404	0.996236	0.000118
1700	1.6905e+02	-12.3093	-51.655152	0.000233	2.332045	0.790118	0.000093
1701	1.6915e+02	-12.2676	-51.525963	0.000324	3.244584	1.099295	0.000130
1702	1.6925e+02	-12.2291	-51.445221	0.000203	2.027865	0.687059	0.000081
1703	1.6935e+02	-12.1922	-51.311995	0.000335	3.345977	1.133648	0.000134
1704	1.6945e+02	-12.1489	-51.251438	0.000152	1.520899	0.515294	0.000061
1705	1.6955e+02	-12.1071	-51.085916	0.000416	4.157123	1.408472	0.000166
1706	1.6965e+02	-12.0735	-50.993062	0.000233	2.332045	0.790118	0.000093
1707	1.6975e+02	-12.0398	-50.867910	0.000314	3.143191	1.064942	0.000126
1708	1.6985e+02	-11.9932	-50.754870	0.000284	2.839011	0.961883	0.000114
1709	1.6995e+02	-11.9355	-50.662016	0.000233	2.332045	0.790118	0.000093
1710	1.7005e+02	-11.9162	-50.520717	0.000355	3.548764	1.202354	0.000142
1711	1.7015e+02	-11.8713	-50.395565	0.000314	3.143191	1.064942	0.000126
1712	1.7024e+02	-11.8264	-50.294637	0.000253	2.534831	0.858824	0.000101
1713	1.7034e+02	-11.7863	-50.205820	0.000223	2.230652	0.755765	0.000089
1714	1.7044e+02	-11.7510	-50.088743	0.000294	2.940404	0.996236	0.000118
1715	1.7054e+02	-11.7093	-49.979740	0.000274	2.737618	0.927530	0.000110
1716	1.7064e+02	-11.6596	-49.854589	0.000314	3.143191	1.064942	0.000126
1717	1.7074e+02	-11.6275	-49.753661	0.000253	2.534831	0.858824	0.000101
1718	1.7084e+02	-11.5826	-49.648695	0.000264	2.636225	0.893177	0.000105
1719	1.7094e+02	-11.5553	-49.551804	0.000243	2.433438	0.824471	0.000097
1720	1.7104e+02	-11.5072	-49.446839	0.000264	2.636225	0.893177	0.000105
1721	1.7114e+02	-11.4831	-49.341873	0.000264	2.636225	0.893177	0.000105
1722	1.7124e+02	-11.4302	-49.192499	0.000375	3.751550	1.271060	0.000150
1723	1.7134e+02	-11.3901	-49.075422	0.000294	2.940404	0.996236	0.000118
1724	1.7144e+02	-11.3564	-48.966419	0.000274	2.737618	0.927530	0.000110
1725	1.7154e+02	-11.3130	-48.837231	0.000324	3.244584	1.099295	0.000130
1726	1.7164e+02	-11.2778	-48.736303	0.000253	2.534831	0.858824	0.000101
1727	1.7174e+02	-11.2296	-48.627300	0.000274	2.737618	0.927530	0.000110
1728	1.7184e+02	-11.1959	-48.473889	0.000385	3.852944	1.305413	0.000154
1729	1.7194e+02	-11.1510	-48.348738	0.000314	3.143191	1.064942	0.000126
1730	1.7204e+02	-11.1093	-48.251846	0.000243	2.433438	0.824471	0.000097
1731	1.7213e+02	-11.0724	-48.183215	0.000172	1.723685	0.584000	0.000069
1732	1.7223e+02	-11.0291	-48.066138	0.000294	2.940404	0.996236	0.000118
1733	1.7233e+02	-10.9954	-47.973284	0.000233	2.332045	0.790118	0.000093
1734	1.7243e+02	-10.9569	-47.844096	0.000324	3.244584	1.099295	0.000130
1735	1.7253e+02	-10.9072	-47.722982	0.000304	3.041798	1.030589	0.000122
1736	1.7263e+02	-10.8671	-47.618016	0.000264	2.636225	0.893177	0.000105
1737	1.7273e+02	-10.8366	-47.472679	0.000365	3.650157	1.236707	0.000146
1738	1.7283e+02	-10.7901	-47.391936	0.000203	2.027865	0.687059	0.000081
1739	1.7293e+02	-10.7516	-47.258711	0.000335	3.345977	1.133648	0.000134
1740	1.7303e+02	-10.7211	-47.125485	0.000335	3.345977	1.133648	0.000134
1741	1.7313e+02	-10.6746	-47.004371	0.000304	3.041798	1.030589	0.000122
1742	1.7323e+02	-10.6377	-46.923629	0.000203	2.027865	0.687059	0.000081
1743	1.7333e+02	-10.5960	-46.818663	0.000264	2.636225	0.893177	0.000105
1744	1.7343e+02	-10.5591	-46.697549	0.000304	3.041798	1.030589	0.000122
1745	1.7353e+02	-10.5190	-46.576435	0.000304	3.041798	1.030589	0.000122
1746	1.7363e+02	-10.4788	-46.410912	0.000416	4.157123	1.408472	0.000166
1747	1.7373e+02	-10.4355	-46.334207	0.000193	1.926472	0.652706	0.000077
1748	1.7383e+02	-10.3890	-46.200981	0.000335	3.345977	1.133648	0.000134
1749	1.7393e+02	-10.3666	-46.124276	0.000193	1.926472	0.652706	0.000077
1750	1.7403e+02	-10.3152	-45.950679	0.000436	4.359910	1.477177	0.000174
1751	1.7413e+02	-10.2815	-45.890122	0.000152	1.520899	0.515294	0.000061
1752	1.7422e+02	-10.2318	-45.764971	0.000314	3.143191	1.064942	0.000126
1753	1.7432e+02	-10.1949	-45.635782	0.000324	3.244584	1.099295	0.000130
1754	1.7442e+02	-10.1660	-45.526780	0.000274	2.737618	0.927530	0.000110
1755	1.7452e+02	-10.1179	-45.437963	0.000223	2.230652	0.755765	0.000089
1756	1.7462e+02	-10.0730	-45.300700	0.000345	3.447371	1.168001	0.000138
1757	1.7472e+02	-10.0425	-45.171512	0.000324	3.244584	1.099295	0.000130
1758	1.7482e+02	-10.0056	-45.018101	0.000385	3.852944	1.305413	0.000154
1759	1.7492e+02	-9.9575	-44.929284	0.000223	2.230652	0.755765	0.000089
1760	1.7502e+02	-9.9158	-44.792021	0.000345	3.447371	1.168001	0.000138
1761	1.7512e+02	-9.8789	-44.654758	0.000345	3.447371	1.168001	0.000138
1762	1.7522e+02	-9.8420	-44.569979	0.000213	2.129258	0.721412	0.000085
1763	1.7532e+02	-9.8051	-44.477124	0.000233	2.332045	0.790118	0.000093
1764	1.7542e+02	-9.7634	-44.287379	0.000477	4.765483	1.614589	0.000191
1765	1.7552e+02	-9.7136	-44.194525	0.000233	2.332045	0.790118	0.000093
1766	1.7562e+02	-9.6719	-44.077448	0.000294	2.940404	0.996236	0.000118
1767	1.7572e+02	-9.6350	-43.952297	0.000314	3.143191	1.064942	0.000126
1768	1.7582e+02	-9.6013	-43.851368	0.000253	2.534831	0.858824	0.000101
1769	1.7592e+02	-9.5548	-43.742366	0.000274	2.737618	0.927530	0.000110
1770	1.7602e+02	-9.5211	-43.605103	0.000345	3.447371	1.168001	0.000138
1771	1.7612e+02	-9.4810	-43.512249	0.000233	2.332045	0.790118	0.000093
1772	1.7621e+02	-9.4473	-43.366912	0.000365	3.650157	1.236707	0.000146
1773	1.7631e+02	-9.4024	-43.253872	0.000284	2.839011	0.961883	0.000114
1774	1.7641e+02	-9.3703	-43.104498	0.000375	3.751550	1.271060	0.000150
1775	1.7651e+02	-9.3190	-42.975310	0.000324	3.244584	1.099295	0.000130
1776	1.7661e+02	-9.2885	-42.902641	0.000183	1.825079	0.618353	0.000073
1777	1.7671e+02	-9.2452	-42.741156	0.000406	4.055730	1.374119	0.000162
1778	1.7681e+02	-9.1939	-42.611968	0.000324	3.244584	1.099295	0.000130
1779	1.7691e+02	-9.1489	-42.539299	0.000183	1.825079	0.618353	0.000073
1780	1.7701e+02	-9.1201	-42.365702	0.000436	4.359910	1.477177	0.000174
1781	1.7711e+02	-9.0719	-42.244588	0.000304	3.041798	1.030589	0.000122
1782	1.7721e+02	-9.0431	-42.091177	0.000385	3.852944	1.305413	0.000154
1783	1.7731e+02	-8.9917	-41.978137	0.000284	2.839011	0.961883	0.000114
1784	1.7741e+02	-8.9580	-41.873172	0.000264	2.636225	0.893177	0.000105
1785	1.7751e+02	-8.9147	-41.719761	0.000385	3.852944	1.305413	0.000154
1786	1.7761e+02	-8.8730	-41.643055	0.000193	1.926472	0.652706	0.000077
1787	1.7771e+02	-8.8506	-41.489644	0.000385	3.852944	1.305413	0.000154
1788	1.7781e+02	-8.8008	-41.372567	0.000294	2.940404	0.996236	0.000118
1789	1.7791e+02	-8.7575	-41.267602	0.000264	2.636225	0.893177	0.000105
1790	1.7801e+02	-8.7206	-41.134376	0.000335	3.345977	1.133648	0.000134
1791	1.7810e+02	-8.6885	-40.997113	0.000345	3.447371	1.168001	0.000138
1792	1.7820e+02	-8.6420	-40.855814	0.000355	3.548764	1.202354	0.000142
1793	1.7830e+02	-8.6003	-40.783145	0.000183	1.825079	0.618353	0.000073
1794	1.7840e+02	-8.5746	-40.613586	0.000426	4.258517	1.442825	0.000170
1795	1.7850e+02	-8.5233	-40.496509	0.000294	2.940404	0.996236	0.000118
1796	1.7860e+02	-8.4864	-40.375395	0.000304	3.041798	1.030589	0.000122
1797	1.7870e+02	-8.4463	-40.258318	0.000294	2.940404	0.996236	0.000118
1798	1.7880e+02	-8.4094	-40.112981	0.000365	3.650157	1.236707	0.000146
1799	1.7890e+02	-8.3645	-39.979755	0.000335	3.345977	1.133648	0.000134
1800	1.7900e+02	-8.3340	-39.838455	0.000355	3.548764	1.202354	0.000142
1801	1.7910e+02	-8.2827	-39.701193	0.000345	3.447371	1.168001	0.000138
1802	1.7920e+02	-8.2458	-39.632562	0.000172	1.723685	0.584000	0.000069
1803	1.7930e+02	-8.2057	-39.491262	0.000355	3.548764	1.202354	0.000142
1804	1.7940e+02	-8.1639	-39.370148	0.000304	3.041798	1.030589	0.000122
1805	1.7950e+02	-8.1174	-39.204625	0.000416	4.157123	1.408472	0.000166
1806	1.7960e+02	-8.0837	-39.119845	0.000213	2.129258	0.721412	0.000085
1807	1.7970e+02	-8.0468	-38.990657	0.000324	3.244584	1.099295	0.000130
1808	1.7980e+02	-8.0035	-38.885691	0.000264	2.636225	0.893177	0.000105
1809	1.7990e+02	-7.9634	-38.699983	0.000466	4.664090	1.580236	0.000187
1810	1.8000e+02	-7.9297	-38.570795	0.000324	3.244584	1.099295	0.000130
1811	1.8009e+02	-7.8832	-38.437569	0.000335	3.345977	1.133648	0.000134
1812	1.8019e+02	-7.8479	-38.316455	0.000304	3.041798	1.030589	0.000122
1813	1.8029e+02	-7.8158	-38.223601	0.000233	2.332045	0.790118	0.000093
1814	1.8039e+02	-7.7693	-38.050004	0.000436	4.359910	1.477177	0.000174
1815	1.8049e+02	-7.7292	-37.941002	0.000274	2.737618	0.927530	0.000110
1816	1.8059e+02	-7.6923	-37.819888	0.000304	3.041798	1.030589	0.000122
1817	1.8069e+02	-7.6426	-37.666476	0.000385	3.852944	1.305413	0.000154
1818	1.8079e+02	-7.6025	-37.549399	0.000294	2.940404	0.996236	0.000118
1819	1.8089e+02	-7.5672	-37.319283	0.000578	5.779416	1.958119	0.000231
1820	1.8099e+02	-7.5335	-37.258726	0.000152	1.520899	0.515294	0.000061
1821	1.8109e+02	-7.4854	-37.129537	0.000324	3.244584	1.099295	0.000130
1822	1.8119e+02	-7.4372	-37.000349	0.000324	3.244584	1.099295	0.000130
1823	1.8129e+02	-7.4051	-36.867124	0.000335	3.345977	1.133648	0.000134
1824	1.8139e+02	-7.3698	-36.741972	0.000314	3.143191	1.064942	0.000126
1825	1.8149e+02	-7.3185	-36.596635	0.000365	3.650157	1.236707	0.000146
1826	1.8159e+02	-7.2864	-36.475521	0.000304	3.041798	1.030589	0.000122
1827	1.8169e+02	-7.2527	-36.330185	0.000365	3.650157	1.236707	0.000146
1828	1.8179e+02	-7.2062	-36.200996	0.000324	3.244584	1.099295	0.000130
1829	1.8189e+02	-7.1789	-36.087956	0.000284	2.839011	0.961883	0.000114
1830	1.8199e+02	-7.1340	-35.946657	0.000355	3.548764	1.202354	0.000142
1831	1.8209e+02	-7.0939	-35.797283	0.000375	3.751550	1.271060	0.000150
1832	1.8218e+02	-7.0506	-35.639834	0.000395	3.954337	1.339766	0.000158
1833	1.8228e+02	-7.0153	-35.522757	0.000294	2.940404	0.996236	0.000118
1834	1.8238e+02	-6.9672	-35.373383	0.000375	3.751550	1.271060	0.000150
1835	1.8248e+02	-6.9335	-35.207861	0.000416	4.157123	1.408472	0.000166
1836	1.8258e+02	-6.8854	-35.086747	0.000304	3.041798	1.030589	0.000122
1837	1.8268e+02	-6.8533	-34.905076	0.000456	4.562696	1.545883	0.000183
1838	1.8278e+02	-6.8068	-34.816259	0.000223	2.230652	0.755765	0.000089
1839	1.8288e+02	-6.7683	-34.654773	0.000406	4.055730	1.374119	0.000162
1840	1.8298e+02	-6.7249	-34.537696	0.000294	2.940404	0.996236	0.000118
1841	1.8308e+02	-6.6913	-34.388322	0.000375	3.751550	1.271060	0.000150
1842	1.8318e+02	-6.6479	-34.287394	0.000253	2.534831	0.858824	0.000101
1843	1.8328e+02	-6.6143	-34.150131	0.000345	3.447371	1.168001	0.000138
1844	1.8338e+02	-6.5677	-34.029017	0.000304	3.041798	1.030589	0.000122
1845	1.8348e+02	-6.5260	-33.851383	0.000446	4.461303	1.511530	0.000179
1846	1.8358e+02	-6.4843	-33.734306	0.000294	2.940404	0.996236	0.000118
1847	1.8368e+02	-6.4602	-33.576858	0.000395	3.954337	1.339766	0.000158
1848	1.8378e+02	-6.4185	-33.475930	0.000253	2.534831	0.858824	0.000101
1849	1.8388e+02	-6.3736	-33.310407	0.000416	4.157123	1.408472	0.000166
1850	1.8398e+02	-6.3415	-33.156996	0.000385	3.852944	1.305413	0.000154
1851	1.8407e+02	-6.2934	-33.039919	0.000294	2.940404	0.996236	0.000118
1852	1.8417e+02	-6.2533	-32.882471	0.000395	3.954337	1.339766	0.000158
1853	1.8427e+02	-6.2148	-32.765394	0.000294	2.940404	0.996236	0.000118
1854	1.8437e+02	-6.1763	-32.624094	0.000355	3.548764	1.202354	0.000142
1855	1.8447e+02	-6.1250	-32.462608	0.000406	4.055730	1.374119	0.000162
1856	1.8457e+02	-6.0945	-32.329383	0.000335	3.345977	1.133648	0.000134
1857	1.8467e+02	-6.0576	-32.163860	0.000416	4.157123	1.408472	0.000166
1858	1.8477e+02	-6.0159	-32.046783	0.000294	2.940404	0.996236	0.000118
1859	1.8487e+02	-5.9742	-31.937781	0.000274	2.737618	0.927530	0.000110
1860	1.8497e+02	-5.9276	-31.760147	0.000446	4.461303	1.511530	0.000179
1861	1.8507e+02	-5.8956	-31.651144	0.000274	2.737618	0.927530	0.000110
1862	1.8517e+02	-5.8603	-31.445250	0.000517	5.171056	1.752001	0.000207
1863	1.8527e+02	-5.8089	-31.312025	0.000335	3.345977	1.133648	0.000134
1864	1.8537e+02	-5.7784	-31.178799	0.000335	3.345977	1.133648	0.000134
1865	1.8547e+02	-5.7319	-31.045574	0.000335	3.345977	1.133648	0.000134
1866	1.8557e+02	-5.6998	-30.904274	0.000355	3.548764	1.202354	0.000142
1867	1.8567e+02	-5.6613	-30.767011	0.000345	3.447371	1.168001	0.000138
1868	1.8577e+02	-5.6132	-30.613600	0.000385	3.852944	1.305413	0.000154
1869	1.8587e+02	-5.5811	-30.448078	0.000416	4.157123	1.408472	0.000166
1870	1.8597e+02	-5.5410	-30.339075	0.000274	2.737618	0.927530	0.000110
1871	1.8606e+02	-5.4897	-30.197775	0.000355	3.548764	1.202354	0.000142
1872	1.8616e+02	-5.4560	-30.044364	0.000385	3.852944	1.305413	0.000154
1873	1.8626e+02	-5.4239	-29.935361	0.000274	2.737618	0.927530	0.000110
1874	1.8636e+02	-5.3742	-29.737542	0.000497	4.968270	1.683295	0.000199
1875	1.8646e+02	-5.3389	-29.592205	0.000365	3.650157	1.236707	0.000146
1876	1.8656e+02	-5.2956	-29.426682	0.000416	4.157123	1.408472	0.000166
1877	1.8666e+02	-5.2587	-29.277308	0.000375	3.751550	1.271060	0.000150
1878	1.8676e+02	-5.2138	-29.144083	0.000335	3.345977	1.133648	0.000134
1879	1.8686e+02	-5.1737	-28.970486	0.000436	4.359910	1.477177	0.000174
1880	1.8696e+02	-5.1368	-28.877632	0.000233	2.332045	0.790118	0.000093
1881	1.8706e+02	-5.1047	-28.708072	0.000426	4.258517	1.442825	0.000170
1882	1.8716e+02	-5.0517	-28.538513	0.000426	4.258517	1.442825	0.000170
1883	1.8726e+02	-5.0180	-28.425473	0.000284	2.839011	0.961883	0.000114
1884	1.8736e+02	-4.9747	-28.235727	0.000477	4.765483	1.614589	0.000191
1885	1.8746e+02	-4.9330	-28.082316	0.000385	3.852944	1.305413	0.000154
1886	1.8756e+02	-4.9041	-27.953128	0.000324	3.244584	1.099295	0.000130
1887	1.8766e+02	-4.8576	-27.767420	0.000466	4.664090	1.580236	0.000187
1888	1.8776e+02	-4.8223	-27.642268	0.000314	3.143191	1.064942	0.000126
1889	1.8786e+02	-4.7822	-27.500969	0.000355	3.548764	1.202354	0.000142
1890	1.8796e+02	-4.7421	-27.335446	0.000416	4.157123	1.408472	0.000166
1891	1.8806e+02	-4.6860	-27.157812	0.000446	4.461303	1.511530	0.000179
1892	1.8815e+02	-4.6571	-27.004401	0.000385	3.852944	1.305413	0.000154
1893	1.8825e+02	-4.6186	-26.871175	0.000335	3.345977	1.133648	0.000134
1894	1.8835e+02	-4.5785	-26.733913	0.000345	3.447371	1.168001	0.000138
1895	1.8845e+02	-4.5480	-26.572427	0.000406	4.055730	1.374119	0.000162
1896	1.8855e+02	-4.5031	-26.402868	0.000426	4.258517	1.442825	0.000170
1897	1.8865e+02	-4.4630	-26.229271	0.000436	4.359910	1.477177	0.000174
1898	1.8875e+02	-4.4197	-26.096045	0.000335	3.345977	1.133648	0.000134
1899	1.8885e+02	-4.3780	-25.938597	0.000395	3.954337	1.339766	0.000158
1900	1.8895e+02	-4.3507	-25.817483	0.000304	3.041798	1.030589	0.000122
1901	1.8905e+02	-4.3106	-25.664072	0.000385	3.852944	1.305413	0.000154
1902	1.8915e+02	-4.2689	-25.522772	0.000355	3.548764	1.202354	0.000142
1903	1.8925e+02	-4.2223	-25.357250	0.000416	4.157123	1.408472	0.000166
1904	1.8935e+02	-4.1838	-25.248247	0.000274	2.737618	0.927530	0.000110
1905	1.8945e+02	-4.1437	-25.054464	0.000487	4.866876	1.648942	0.000195
1906	1.8955e+02	-4.0988	-24.901053	0.000385	3.852944	1.305413	0.000154
1907	1.8965e+02	-4.0731	-24.735531	0.000416	4.157123	1.408472	0.000166
1908	1.8975e+02	-4.0186	-24.594231	0.000355	3.548764	1.202354	0.000142
1909	1.8985e+02	-3.9817	-24.440820	0.000385	3.852944	1.305413	0.000154
1910	1.8995e+02	-3.9384	-24.327780	0.000284	2.839011	0.961883	0.000114
1911	1.9004e+02	-3.9015	-24.073440	0.000639	6.387775	2.164237	0.000256
1912	1.9014e+02	-3.8518	-23.944252	0.000324	3.244584	1.099295	0.000130
1913	1.9024e+02	-3.8293	-23.798915	0.000365	3.650157	1.236707	0.000146
1914	1.9034e+02	-3.7828	-23.625318	0.000436	4.359910	1.477177	0.000174
1915	1.9044e+02	-3.7411	-23.427499	0.000497	4.968270	1.683295	0.000199
1916	1.9054e+02	-3.7122	-23.310422	0.000294	2.940404	0.996236	0.000118
1917	1.9064e+02	-3.6625	-23.157011	0.000385	3.852944	1.305413	0.000154
1918	1.9074e+02	-3.6256	-22.975339	0.000456	4.562696	1.545883	0.000183
1919	1.9084e+02	-3.5823	-22.842114	0.000335	3.345977	1.133648	0.000134
1920	1.9094e+02	-3.5421	-22.676591	0.000416	4.157123	1.408472	0.000166
1921	1.9104e+02	-3.5036	-22.527217	0.000375	3.751550	1.271060	0.000150
1922	1.9114e+02	-3.4684	-22.341509	0.000466	4.664090	1.580236	0.000187
1923	1.9124e+02	-3.4282	-22.171949	0.000426	4.258517	1.442825	0.000170
1924	1.9134e+02	-3.3785	-22.018538	0.000385	3.852944	1.305413	0.000154
1925	1.9144e+02	-3.3432	-21.873201	0.000365	3.650157	1.236707	0.000146
1926	1.9154e+02	-3.2999	-21.707679	0.000416	4.157123	1.408472	0.000166
1927	1.9164e+02	-3.2742	-21.590602	0.000294	2.940404	0.996236	0.000118
1928	1.9174e+02	-3.2245	-21.412968	0.000446	4.461303	1.511530	0.000179
1929	1.9184e+02	-3.1828	-21.215148	0.000497	4.968270	1.683295	0.000199
1930	1.9194e+02	-3.1459	-21.053663	0.000406	4.055730	1.374119	0.000162
1931	1.9203e+02	-3.1010	-20.843732	0.000527	5.272449	1.786354	0.000211
1932	1.9213e+02	-3.0705	-20.734729	0.000274	2.737618	0.927530	0.000110
1933	1.9223e+02	-3.0272	-20.536909	0.000497	4.968270	1.683295	0.000199
1934	1.9233e+02	-2.9855	-20.399647	0.000345	3.447371	1.168001	0.000138
1935	1.9243e+02	-2.9534	-20.230087	0.000426	4.258517	1.442825	0.000170
1936	1.9253e+02	-2.9053	-20.024193	0.000517	5.171056	1.752001	0.000207
1937	1.9263e+02	-2.8668	-19.895005	0.000324	3.244584	1.099295	0.000130
1938	1.9273e+02	-2.8251	-19.741594	0.000385	3.852944	1.305413	0.000154
1939	1.9283e+02	-2.7914	-19.584145	0.000395	3.954337	1.339766	0.000158
1940	1.9293e+02	-2.7529	-19.378252	0.000517	5.171056	1.752001	0.000207
1941	1.9303e+02	-2.7079	-19.228878	0.000375	3.751550	1.271060	0.000150
1942	1.9313e+02	-2.6694	-19.043169	0.000466	4.664090	1.580236	0.000187
1943	1.9323e+02	-2.6325	-18.905907	0.000345	3.447371	1.168001	0.000138
1944	1.9333e+02	-2.5876	-18.784793	0.000304	3.041798	1.030589	0.000122
1945	1.9343e+02	-2.5491	-18.566787	0.000548	5.475236	1.855060	0.000219
1946	1.9353e+02	-2.5122	-18.413376	0.000385	3.852944	1.305413	0.000154
1947	1.9363e+02	-2.4721	-18.203445	0.000527	5.272449	1.786354	0.000211
1948	1.9373e+02	-2.4288	-18.078294	0.000314	3.143191	1.064942	0.000126
1949	1.9383e+02	-2.3855	-17.896623	0.000456	4.562696	1.545883	0.000183
1950	1.9393e+02	-2.3470	-17.698803	0.000497	4.968270	1.683295	0.000199
1951	1.9403e+02	-2.3053	-17.537318	0.000406	4.055730	1.374119	0.000162
1952	1.9412e+02	-2.2700	-17.371795	0.000416	4.157123	1.408472	0.000166
1953	1.9422e+02	-2.2315	-17.186087	0.000466	4.664090	1.580236	0.000187
1954	1.9432e+02	-2.1930	-16.992304	0.000487	4.866876	1.648942	0.000195
1955	1.9442e+02	-2.1577	-16.826782	0.000416	4.157123	1.408472	0.000166
1956	1.9452e+02	-2.1064	-16.665296	0.000406	4.055730	1.374119	0.000162
1957	1.9462e+02	-2.0679	-16.536108	0.000324	3.244584	1.099295	0.000130
1958	1.9472e+02	-2.0310	-16.330214	0.000517	5.171056	1.752001	0.000207
1959	1.9482e+02	-2.0005	-16.144506	0.000466	4.664090	1.580236	0.000187
1960	1.9492e+02	-1.9668	-15.983020	0.000406	4.055730	1.374119	0.000162
1961	1.9502e+02	-1.9138	-15.845758	0.000345	3.447371	1.168001	0.000138
1962	1.9512e+02	-1.8737	-15.672161	0.000436	4.359910	1.477177	0.000174
1963	1.9522e+02	-1.8385	-15.490490	0.000456	4.562696	1.545883	0.000183
1964	1.9532e+02	-1.7871	-15.337079	0.000385	3.852944	1.305413	0.000154
1965	1.9542e+02	-1.7486	-15.074665	0.000659	6.590562	2.232943	0.000264
1966	1.9552e+02	-1.7117	-14.945477	0.000324	3.244584	1.099295	0.000130
1967	1.9562e+02	-1.6716	-14.792065	0.000385	3.852944	1.305413	0.000154
1968	1.9572e+02	-1.6395	-14.582134	0.000527	5.272449	1.786354	0.000211
1969	1.9582e+02	-1.5946	-14.376240	0.000517	5.171056	1.752001	0.000207
1970	1.9592e+02	-1.5545	-14.230903	0.000365	3.650157	1.236707	0.000146
1971	1.9601e+02	-1.5160	-14.097678	0.000335	3.345977	1.133648	0.000134
1972	1.9611e+02	-1.4727	-13.891784	0.000517	5.171056	1.752001	0.000207
1973	1.9621e+02	-1.4262	-13.693964	0.000497	4.968270	1.683295	0.000199
1974	1.9631e+02	-1.3893	-13.536516	0.000395	3.954337	1.339766	0.000158
1975	1.9641e+02	-1.3540	-13.379068	0.000395	3.954337	1.339766	0.000158
1976	1.9651e+02	-1.3091	-13.189322	0.000477	4.765483	1.614589	0.000191
1977	1.9661e+02	-1.2706	-12.995540	0.000487	4.866876	1.648942	0.000195
1978	1.9671e+02	-1.2353	-12.870389	0.000314	3.143191	1.064942	0.000126
1979	1.9681e+02	-1.1871	-12.656421	0.000537	5.373843	1.820707	0.000215
1980	1.9691e+02	-1.1502	-12.490898	0.000416	4.157123	1.408472	0.000166
1981	1.9701e+02	-1.1182	-12.321338	0.000426	4.258517	1.442825	0.000170
1982	1.9711e+02	-1.0652	-12.163890	0.000395	3.954337	1.339766	0.000158
1983	1.9721e+02	-1.0347	-11.937810	0.000568	5.678022	1.923766	0.000227
1984	1.9731e+02	-0.9898	-11.756139	0.000456	4.562696	1.545883	0.000183
1985	1.9741e+02	-0.9577	-11.614840	0.000355	3.548764	1.202354	0.000142
1986	1.9751e+02	-0.9128	-11.404908	0.000527	5.272449	1.786354	0.000211
1987	1.9761e+02	-0.8743	-11.194977	0.000527	5.272449	1.786354	0.000211
1988	1.9771e+02	-0.8390	-11.049641	0.000365	3.650157	1.236707	0.000146
1989	1.9781e+02	-0.7957	-10.859895	0.000477	4.765483	1.614589	0.000191
1990	1.9791e+02	-0.7476	-10.649964	0.000527	5.272449	1.786354	0.000211
1991	1.9800e+02	-0.7155	-10.448107	0.000507	5.069663	1.717648	0.000203
1992	1.9810e+02	-0.6802	-10.290659	0.000395	3.954337	1.339766	0.000158
1993	1.9820e+02	-0.6449	-10.100914	0.000477	4.765483	1.614589	0.000191
1994	1.9830e+02	-0.5952	-9.935391	0.000416	4.157123	1.408472	0.000166
1995	1.9840e+02	-0.5535	-9.753720	0.000456	4.562696	1.545883	0.000183
1996	1.9850e+02	-0.5198	-9.576086	0.000446	4.461303	1.511530	0.000179
1997	1.9860e+02	-0.4749	-9.414601	0.000406	4.055730	1.374119	0.000162
1998	1.9870e+02	-0.4315	-9.228892	0.000466	4.664090	1.580236	0.000187
1999	1.9880e+02	-0.3914	-9.031073	0.000497	4.968270	1.683295	0.000199
2000	1.9890e+02	-0.3561	-8.877661	0.000385	3.852944	1.305413	0.000154
2001	1.9900e+02	-0.3144	-8.687916	0.000477	4.765483	1.614589	0.000191
2002	1.9910e+02	-0.2759	-8.494134	0.000487	4.866876	1.648942	0.000195
2003	1.9920e+02	-0.2438	-8.296314	0.000497	4.968270	1.683295	0.000199
2004	1.9930e+02	-0.2005	-8.086383	0.000527	5.272449	1.786354	0.000211
2005	1.9940e+02	-0.1572	-7.945083	0.000355	3.548764	1.202354	0.000142
2006	1.9950e+02	-0.1155	-7.747263	0.000497	4.968270	1.683295	0.000199
2007	1.9960e+02	-0.0786	-7.565592	0.000456	4.562696	1.545883	0.000183
2008	1.9970e+02	-0.0353	-7.371810	0.000487	4.866876	1.648942	0.000195
2009	1.9980e+02	0.0000	-7.169953	0.000487	4.866876	1.648942	0.000203

Center data before PMax,+/-Pr and +/-Vc Calc.

PMax (uC/cm2):	6.88e+01
Pr (uC/cm2):	2.08e+00
-Pr (uC/cm2):	-7.17e+00
PLoss (uC/cm2):	-4.23e+00
Vc:	6.88e-01
-Vc:	-4.70e-01
C (Max-Eff) (nF):	3.44e-01
K (Eff):	1.17e+03
Vert. (+/-Pr) Shift (uC/cm2):	-2.55e+00
Horiz. Shift (+/-Vc):	1.09e-01
Offset (uC/cm2):	2.89e+00

A (Loop Area - uC/cm2·Volts):	3.47e-02



Hysteresis Version: 5.48.1 - Radiant Technologies, Inc., 1999 - 9/12/24

